File: Figure_codes/Fig_3-5/workspace_calculate_alpha_eff/20221101_1-115_003_TrumpetPlot_ParaChange_from10_every3_16_CV_C01_10.csv
mode,ox/red,error,control changes,counter inc.,time/s,control/V,Ewe/V,<I>/mA,cycle number,(Q-Qo)/C,I Range,P/W,log(|I|),Tafel slope mV/dec,alpha_eff,E-IR/V,
2,0,0,0,0,7510.51,2.44065e-05,-0.000401673,-0.0968499,11,0.0000000E+000,10,3.8902e-08,-4.0139, , ,-0.000359059,
2,1,0,0,0,7511.26,0.00379485,0.00346669,0.167418,11,0.000118588,10,5.80388e-07,-3.7762,0.0503832,1.17102,0.00339303,
2,1,0,1,0,7512.06,0.00779002,0.00748457,0.18998,11,0.000277444,10,1.42192e-06,-3.72129,0.0831329,0.709707,0.00740098,
2,1,0,0,0,7512.86,0.0117852,0.0115205,0.205324,11,0.000451463,10,2.36543e-06,-3.68756,0.129711,0.454856,0.0114301,
2,1,0,1,0,7513.66,0.0157806,0.0154571,0.21995,11,0.000637014,10,3.39977e-06,-3.65768,0.160553,0.367481,0.0153603,
2,1,0,1,0,7514.46,0.0197754,0.0194682,0.233041,11,0.000833072,10,4.5369e-06,-3.63257,0.15008,0.393124,0.0193657,
2,1,0,1,0,7515.26,0.0237704,0.0234667,0.24557,11,0.00104015,10,5.76272e-06,-3.60982,0.167305,0.352649,0.0233586,
2,1,0,1,0,7516.06,0.0277659,0.0274488,0.260627,11,0.00125798,10,7.1539e-06,-3.58398,0.17674,0.333824,0.0273342,
2,1,0,0,0,7516.86,0.0317611,0.0314487,0.274362,11,0.0014874,10,8.62831e-06,-3.56168,0.161511,0.3653,0.031328,
2,1,0,1,0,7517.66,0.0357567,0.0354448,0.288628,11,0.00172834,10,1.02304e-05,-3.53966,0.21794,0.270717,0.0353178,
2,1,0,1,0,7518.46,0.0397516,0.0394635,0.304597,11,0.00198089,10,1.20205e-05,-3.51627,0.155643,0.379072,0.0393295,
2,1,0,1,0,7519.25,0.0437465,0.0434112,0.3184,11,0.00224609,10,1.38221e-05,-3.49703,0.199838,0.295239,0.0432711,
2,1,0,1,0,7520.05,0.0477413,0.0474689,0.33388,11,0.00252231,10,1.58489e-05,-3.47641,0.219706,0.268541,0.047322,
2,1,0,0,0,7520.85,0.0517369,0.0514586,0.348074,11,0.00280972,10,1.79114e-05,-3.45833,0.20395,0.289287,0.0513054,
2,1,0,1,0,7521.65,0.0557321,0.0554542,0.361812,11,0.0031092,10,2.0064e-05,-3.44152,0.292192,0.201922,0.055295,
2,1,0,1,0,7522.45,0.0597277,0.0593983,0.375628,11,0.0034189,10,2.23117e-05,-3.42524,0.279169,0.211342,0.0592331,
2,1,0,1,0,7523.25,0.0637226,0.0633958,0.386819,11,0.00373922,10,2.45227e-05,-3.41249,0.28213,0.209123,0.0632256,
2,1,0,1,0,7524.05,0.0677174,0.0674483,0.399283,11,0.00407014,10,2.6931e-05,-3.39872,0.382712,0.154163,0.0672726,
2,1,0,0,0,7524.85,0.0717128,0.0714228,0.411061,11,0.00440989,10,2.93592e-05,-3.38609,0.245881,0.239954,0.071242,
2,1,0,1,0,7525.65,0.075708,0.0754036,0.421334,11,0.00475894,10,3.17701e-05,-3.37537,0.376441,0.156731,0.0752182,
2,1,0,0,0,7526.45,0.0797031,0.0794363,0.433796,11,0.00511653,10,3.44592e-05,-3.36271,0.368487,0.160114,0.0792455,
2,1,0,1,0,7527.25,0.0836986,0.0833921,0.44417,11,0.00548257,10,3.70402e-05,-3.35245,0.319366,0.184741,0.0831967,
2,1,0,1,0,7528.04,0.0876935,0.0873661,0.457888,11,0.00585875,10,4.00039e-05,-3.33924,0.341355,0.172841,0.0871646,
2,1,0,1,0,7528.84,0.0916883,0.0913688,0.474163,11,0.00624537,10,4.33237e-05,-3.32407,0.241611,0.244194,0.0911602,
2,1,0,1,0,7529.64,0.0956838,0.0953658,0.491995,11,0.00664672,10,4.69195e-05,-3.30804,0.20058,0.294147,0.0951493,
2,1,0,0,0,7530.44,0.099679,0.0993635,0.515815,11,0.00706521,10,5.12532e-05,-3.28751,0.222612,0.265035,0.0991365,
2,1,0,1,0,7531.24,0.103674,0.103367,0.542172,11,0.00750338,10,5.60425e-05,-3.26586,0.167272,0.35272,0.103128,
2,1,0,1,0,7532.04,0.10767,0.107418,0.566964,11,0.00796336,10,6.0902e-05,-3.24644,0.21582,0.273376,0.107168,
2,1,0,1,0,7532.84,0.111664,0.111335,0.593767,11,0.00844262,10,6.61074e-05,-3.22638,0.230629,0.255822,0.111074,
2,1,0,1,0,7533.64,0.115659,0.115339,0.613156,11,0.00894021,10,7.07211e-05,-3.21243,0.241579,0.244226,0.11507,
2,1,0,0,0,7534.44,0.119655,0.119311,0.633848,11,0.00945536,10,7.56249e-05,-3.19802,0.353667,0.166824,0.119032,
2,1,0,1,0,7535.24,0.12365,0.123289,0.652335,11,0.00998491,10,8.0426e-05,-3.18553,0.293323,0.201144,0.123002,
2,1,0,1,0,7536.03,0.127646,0.12732,0.671604,11,0.0105309,10,8.55085e-05,-3.17289,0.354176,0.166584,0.127024,
2,1,0,1,0,7536.83,0.131641,0.131344,0.690012,11,0.0110917,10,9.06287e-05,-3.16114,1.10266,0.0535069,0.13104,
2,1,0,1,0,7537.63,0.135635,0.13532,0.688553,11,0.0116581,10,9.31749e-05,-3.16206,-0.949299,-0.0621511,0.135017,
2,1,0,0,0,7538.43,0.139631,0.139327,0.662786,11,0.0122163,10,9.23439e-05,-3.17863,-0.162752,-0.362515,0.139035,
2,1,0,1,0,7539.23,0.143626,0.143326,0.616268,11,0.0127453,10,8.83272e-05,-3.21023,-0.0954675,-0.618011,0.143055,
2,1,0,0,0,7540.03,0.147621,0.147347,0.548494,11,0.0132262,10,8.08189e-05,-3.26083,-0.0731774,-0.80626,0.147106,
2,1,0,1,0,7540.83,0.151617,0.151289,0.48155,11,0.013653,10,7.2853e-05,-3.31736,-0.0699456,-0.843512,0.151077,
2,1,0,1,0,7541.63,0.155612,0.155318,0.428143,11,0.0140294,10,6.64984e-05,-3.36841,-0.0844518,-0.698623,0.15513,
2,1,0,1,0,7542.43,0.159606,0.159311,0.38399,11,0.0143672,10,6.11738e-05,-3.41568,-0.0981932,-0.600856,0.159142,
2,1,0,1,0,7543.23,0.163602,0.163289,0.353764,11,0.0146769,10,5.77658e-05,-3.45129,-0.119584,-0.493376,0.163133,
2,1,0,0,0,7544.02,0.167597,0.167262,0.332414,11,0.0149652,10,5.56004e-05,-3.47832,-0.173695,-0.339677,0.167116,
2,1,0,1,0,7544.82,0.171592,0.171304,0.313872,11,0.0152387,10,5.37675e-05,-3.50325,-0.213982,-0.275724,0.171165,
2,1,0,1,0,7545.62,0.175588,0.175273,0.302793,11,0.0155006,10,5.30714e-05,-3.51885,-0.250017,-0.235984,0.17514,
2,1,0,1,0,7546.42,0.179582,0.179293,0.293666,11,0.0157537,10,5.26521e-05,-3.53215,-0.355311,-0.166052,0.179164,
2,1,0,1,0,7547.22,0.183577,0.18323,0.284946,11,0.0160005,10,5.22105e-05,-3.54524,-0.333352,-0.17699,0.183104,
2,1,0,0,0,7548.02,0.187573,0.187287,0.277738,11,0.0162413,10,5.20167e-05,-3.55637,-0.405746,-0.145411,0.187165,
2,1,0,1,0,7548.82,0.191568,0.19126,0.272816,11,0.0164773,10,5.21788e-05,-3.56413,-0.565491,-0.104334,0.19114,
2,1,0,0,0,7549.62,0.195563,0.19524,0.268628,11,0.0167099,10,5.2447e-05,-3.57085,-0.456933,-0.129122,0.195122,
2,1,0,1,0,7550.42,0.199559,0.19922,0.265796,11,0.016939,10,5.29518e-05,-3.57545,-1.23448,-0.0477934,0.199103,
2,1,0,1,0,7551.22,0.203553,0.203271,0.260759,11,0.0171654,10,5.30048e-05,-3.58376,-0.818422,-0.07209,0.203157,
2,1,0,1,0,7552.02,0.207548,0.207246,0.259103,11,0.0173895,10,5.3698e-05,-3.58653,-0.818523,-0.0720811,0.207132,
2,1,0,1,0,7552.81,0.211544,0.211259,0.256857,11,0.0176111,10,5.42634e-05,-3.59031,-1.0824,-0.0545084,0.211146,
2,1,0,0,0,7553.61,0.215539,0.21528,0.255737,11,0.0178309,10,5.5055e-05,-3.59221,-0.753141,-0.0783386,0.215167,
2,1,0,1,0,7554.41,0.219535,0.219213,0.253803,11,0.0180486,10,5.5637e-05,-3.5955,-1.63644,-0.0360538,0.219102,
2,1,0,1,0,7555.21,0.223529,0.223238,0.24966,11,0.0182649,10,5.57337e-05,-3.60265,-1.05918,-0.0557033,0.223128,
2,1,0,1,0,7556.01,0.227524,0.227229,0.24913,11,0.0184795,10,5.66097e-05,-3.60357,-1.78053,-0.0331361,0.22712,
2,1,0,1,0,7556.81,0.23152,0.231199,0.247965,11,0.0186927,10,5.73291e-05,-3.60561,8.33418,0.00707928,0.231089,
2,1,0,0,0,7557.61,0.235515,0.235199,0.245717,11,0.0189052,10,5.77924e-05,-3.60957,-0.758622,-0.0777726,0.235091,
2,1,0,1,0,7558.41,0.23951,0.23917,0.245353,11,0.0191167,10,5.8681e-05,-3.61021,-2.33031,-0.0253186,0.239062,
2,1,0,1,0,7559.21,0.243506,0.243203,0.244744,11,0.0193269,10,5.95224e-05,-3.61129,-3.24571,-0.0181779,0.243095,
2,1,0,1,0,7560.01,0.2475,0.247185,0.242451,11,0.0195367,10,5.99303e-05,-3.61538,-1.1868,-0.0497134,0.247079,
2,1,0,1,0,7560.8,0.251495,0.251216,0.241081,11,0.0197453,10,6.05634e-05,-3.61784,-3.76847,-0.0156562,0.251109,
2,1,0,0,0,7561.6,0.255491,0.255221,0.240671,11,0.0199529,10,6.14243e-05,-3.61858,-2.29075,-0.0257557,0.255115,
2,1,0,1,0,7562.4,0.259486,0.259239,0.239955,11,0.0201602,10,6.22058e-05,-3.61987,-1.2398,-0.0475882,0.259133,
2,1,0,0,0,7563.2,0.263481,0.263183,0.239022,11,0.0203664,10,6.29065e-05,-3.62156,-1.95027,-0.0302523,0.263077,
2,1,0,1,0,7564,0.267477,0.267175,0.23723,11,0.0205718,10,6.3382e-05,-3.62483,-6.1288,-0.00962667,0.267071,
2,1,0,1,0,7564.8,0.271471,0.271211,0.23702,11,0.0207763,10,6.42824e-05,-3.62522,-2.84395,-0.0207458,0.271107,
2,1,0,1,0,7565.6,0.275466,0.275143,0.236129,11,0.02098,10,6.49693e-05,-3.62685,6.33763,0.00930948,0.27504,
2,1,0,1,0,7566.4,0.279462,0.279204,0.23525,11,0.0211833,10,6.56828e-05,-3.62847,-1.06019,-0.0556505,0.279101,
2,1,0,0,0,7567.2,0.283457,0.283189,0.234953,11,0.0213856,10,6.6536e-05,-3.62902,-1.74127,-0.0338833,0.283086,
2,1,0,1,0,7568,0.287452,0.287141,0.234288,11,0.0215871,10,6.72737e-05,-3.63025,-1.76024,-0.0335182,0.287038,
2,1,0,1,0,7568.79,0.291448,0.291135,0.232963,11,0.021788,10,6.78237e-05,-3.63271,14.2216,0.00414861,0.291032,
2,1,0,1,0,7569.59,0.295442,0.295139,0.230587,11,0.021988,10,6.8055e-05,-3.63717,-4.02316,-0.0146651,0.295037,
2,1,0,1,0,7570.39,0.299437,0.299158,0.229539,11,0.0221876,10,6.86682e-05,-3.63914,-1.1215,-0.052608,0.299057,
2,1,0,0,0,7571.19,0.303433,0.303196,0.229916,11,0.0223861,10,6.97096e-05,-3.63843,5.58641,0.0105613,0.303095,
2,1,0,1,0,7571.99,0.307428,0.30714,0.228249,11,0.022584,10,7.01044e-05,-3.64159,-1.18817,-0.0496563,0.307039,
2,1,0,1,0,7572.79,0.311424,0.311146,0.228316,11,0.0227819,10,7.10397e-05,-3.64146,-4.74055,-0.0124458,0.311046,
2,1,0,1,0,7573.59,0.315418,0.315113,0.228044,11,0.0229789,10,7.18597e-05,-3.64198,-1.77747,-0.0331932,0.315013,
2,1,0,1,0,7574.39,0.319413,0.31913,0.226077,11,0.0231752,10,7.21481e-05,-3.64574,4.23655,0.0139264,0.319031,
2,1,0,0,0,7575.19,0.323409,0.3231,0.226862,11,0.0233714,10,7.32992e-05,-3.64424,-0.735471,-0.0802207,0.323,
2,1,0,1,0,7575.99,0.327404,0.327097,0.226901,11,0.0235664,10,7.42186e-05,-3.64416,1.76764,0.0333779,0.326998,
2,1,0,0,0,7576.79,0.331399,0.331133,0.224262,11,0.0237613,10,7.42607e-05,-3.64924,-1.76594,-0.0334099,0.331035,
2,1,0,1,0,7577.58,0.335395,0.335087,0.22506,11,0.0239554,10,7.54146e-05,-3.6477,-31.0882,-0.00189783,0.334988,
2,1,0,1,0,7578.38,0.339389,0.339104,0.223851,11,0.0241487,10,7.59089e-05,-3.65004,-2.05021,-0.0287776,0.339006,
2,1,0,1,0,7579.18,0.343384,0.343071,0.222518,11,0.0243416,10,7.63396e-05,-3.65263,13.2194,0.00446312,0.342973,
2,1,0,1,0,7579.98,0.34738,0.347087,0.222316,11,0.0245338,10,7.7163e-05,-3.65303,-0.838766,-0.0703414,0.346989,
2,1,0,0,0,7580.78,0.351375,0.35112,0.221293,11,0.0247255,10,7.77002e-05,-3.65503,18.4992,0.00318932,0.351023,
2,1,0,1,0,7581.58,0.35537,0.3551,0.220538,11,0.0249168,10,7.83129e-05,-3.65652,-0.737584,-0.0799909,0.355003,
2,1,0,1,0,7582.38,0.359366,0.359092,0.221371,11,0.0251075,10,7.94927e-05,-3.65488,1.23859,0.047635,0.358995,
2,1,0,1,0,7583.18,0.36336,0.363085,0.218854,11,0.0252979,10,7.94626e-05,-3.65985,-7.47017,-0.00789808,0.362989,
2,1,0,1,0,7583.98,0.367355,0.367085,0.220008,11,0.0254878,10,8.07615e-05,-3.65756,-1.77313,-0.0332745,0.366988,
2,1,0,0,0,7584.78,0.371351,0.37106,0.218329,11,0.0256771,10,8.10131e-05,-3.66089,-49.575,-0.00119012,0.370964,
2,1,0,1,0,7585.57,0.375346,0.375094,0.219535,11,0.0258663,10,8.23461e-05,-3.6585,283.839,0.000207865,0.374997,
2,1,0,1,0,7586.37,0.379342,0.379058,0.218756,11,0.026055,10,8.29213e-05,-3.66004,3.70516,0.0159237,0.378962,
2,1,0,1,0,7587.17,0.383336,0.383043,0.21814,11,0.0262434,10,8.35571e-05,-3.66126,-1.45555,-0.0405344,0.382947,
2,1,0,1,0,7587.97,0.387331,0.387044,0.217589,11,0.0264317,10,8.42165e-05,-3.66236,-24.804,-0.00237865,0.386948,
2,1,0,0,0,7588.77,0.391327,0.391068,0.217097,11,0.0266196,10,8.48994e-05,-3.66335,-2.44799,-0.0241014,0.390972,
2,1,0,1,0,7589.57,0.395322,0.395009,0.215643,11,0.0268072,10,8.51811e-05,-3.66626,-5.7724,-0.010221,0.394914,
2,1,0,0,0,7590.37,0.399317,0.399005,0.216153,11,0.0269944,10,8.6246e-05,-3.66524,-10.6128,-0.00555933,0.39891,
2,1,0,1,0,7591.17,0.403313,0.403046,0.216674,11,0.0271813,10,8.73297e-05,-3.66419,-3.1687,-0.0186196,0.402951,
2,1,0,1,0,7591.97,0.407307,0.407035,0.216908,11,0.0273681,10,8.82891e-05,-3.66372,3.74936,0.015736,0.40694,
2,1,0,1,0,7592.77,0.411302,0.410999,0.217421,11,0.0275546,10,8.93596e-05,-3.6627,-8.31171,-0.00709842,0.410903,
2,1,0,1,0,7593.57,0.415298,0.41504,0.216173,11,0.027741,10,8.97207e-05,-3.6652,-2.99708,-0.0196858,0.414945,
2,1,0,0,0,7594.36,0.419293,0.419015,0.216026,11,0.0279273,10,9.05181e-05,-3.66549,-4.99576,-0.01181,0.418919,
2,1,0,1,0,7595.16,0.423288,0.422989,0.215844,11,0.0281134,10,9.12998e-05,-3.66586,3.3055,0.017849,0.422894,
2,1,0,1,0,7595.96,0.427283,0.427005,0.215445,11,0.0282997,10,9.19963e-05,-3.66666,12.0838,0.00488257,0.42691,
2,1,0,1,0,7596.76,0.431278,0.431005,0.215764,11,0.0284859,10,9.29955e-05,-3.66602,-7.69045,-0.00767185,0.430911,
2,1,0,1,0,7597.56,0.435273,0.434952,0.216479,11,0.0286723,10,9.41578e-05,-3.66459,2.24644,0.0262638,0.434857,
2,1,0,0,0,7598.36,0.439269,0.438934,0.216811,11,0.0288587,10,9.51658e-05,-3.66392,-1.69474,-0.0348135,0.438839,
2,1,0,1,0,7599.16,0.443264,0.442967,0.215361,11,0.0290449,10,9.53977e-05,-3.66683,2.98113,0.0197912,0.442872,
2,1,0,0,0,7599.96,0.447259,0.447004,0.216478,11,0.0292311,10,9.67665e-05,-3.66459,2.12822,0.0277227,0.446909,
2,1,0,1,0,7600.76,0.451254,0.450966,0.216753,11,0.0294178,10,9.77482e-05,-3.66403,-7.83489,-0.00753041,0.450871,
2,1,0,1,0,7601.56,0.455249,0.454948,0.217467,11,0.0296042,10,9.89365e-05,-3.66261,3.32722,0.0177325,0.454853,
2,1,0,1,0,7602.35,0.459244,0.458954,0.216508,11,0.0297911,10,9.93672e-05,-3.66453,1.818,0.0324532,0.458859,
2,1,0,1,0,7603.15,0.46324,0.462943,0.218217,11,0.0299784,10,0.000101022,-3.66111,-627.94,-9.39581e-05,0.462847,
2,1,0,0,0,7603.95,0.467235,0.466905,0.218425,11,0.030166,10,0.000101983,-3.6607,6.74777,0.00874363,0.466809,
2,1,0,1,0,7604.75,0.471231,0.470937,0.21941,11,0.0303538,10,0.000103328,-3.65874,-2.07972,-0.0283691,0.47084,
2,1,0,1,0,7605.55,0.475225,0.47494,0.219928,11,0.030542,10,0.000104453,-3.65772,0.866311,0.0681048,0.474844,
2,1,0,1,0,7606.35,0.47922,0.478946,0.219952,11,0.0307308,10,0.000105345,-3.65767,2.26094,0.0260953,0.47885,
2,1,0,1,0,7607.15,0.483216,0.482935,0.220449,11,0.0309202,10,0.000106463,-3.65669,-2.54125,-0.0232169,0.482838,
2,1,0,0,0,7607.95,0.487211,0.486889,0.220811,11,0.0311099,10,0.000107511,-3.65598,1.109,0.0532009,0.486792,
2,1,0,1,0,7608.75,0.491206,0.490913,0.221499,11,0.0313002,10,0.000108737,-3.65463,33.8943,0.0017407,0.490816,
2,1,0,1,0,7609.55,0.495201,0.494919,0.222867,11,0.0314911,10,0.000110301,-3.65196,1.22556,0.0481411,0.494821,
2,1,0,1,0,7610.34,0.499196,0.498943,0.223537,11,0.0316827,10,0.000111532,-3.65065,1.38134,0.0427122,0.498844,
2,1,0,1,0,7611.14,0.503191,0.502897,0.225569,11,0.0318755,10,0.000113438,-3.64672,2.74765,0.0214729,0.502797,
2,1,0,0,0,7611.94,0.507187,0.506924,0.226332,11,0.032069,10,0.000114733,-3.64525,1.72372,0.0342283,0.506825,
2,1,0,1,0,7612.74,0.511182,0.510905,0.226658,11,0.0322635,10,0.000115801,-3.64463,1.35844,0.043432,0.510805,
2,1,0,0,0,7613.54,0.515177,0.514912,0.229844,11,0.032459,10,0.000118349,-3.63857,8.99173,0.00656158,0.514811,
2,1,0,1,0,7614.34,0.519173,0.518902,0.229958,11,0.0326555,10,0.000119326,-3.63835,1.02939,0.0573156,0.518801,
2,1,0,1,0,7615.14,0.523167,0.522858,0.231637,11,0.0328531,10,0.000121113,-3.63519,1.30011,0.0453809,0.522756,
2,1,0,1,0,7615.94,0.527162,0.526836,0.233506,11,0.0330521,10,0.00012302,-3.6317,1.07277,0.0549976,0.526733,
2,1,0,1,0,7616.74,0.531158,0.530875,0.236164,11,0.0332523,10,0.000125374,-3.62679,1.18677,0.0497149,0.530771,
2,1,0,0,0,7617.54,0.535153,0.534894,0.236715,11,0.0334543,10,0.000126617,-3.62577,0.713723,0.0826651,0.53479,
2,1,0,1,0,7618.34,0.539148,0.538857,0.240352,11,0.0336581,10,0.000129516,-3.61915,2.13268,0.0276647,0.538752,
2,1,0,1,0,7619.13,0.543143,0.542866,0.242132,11,0.0338638,10,0.000131445,-3.61595,0.812326,0.0726309,0.542759,
2,1,0,1,0,7619.93,0.547138,0.546844,0.2453,11,0.0340714,10,0.000134141,-3.6103,1.15967,0.0508766,0.546736,
2,1,0,1,0,7620.73,0.551133,0.550812,0.248023,11,0.0342811,10,0.000136614,-3.60551,0.527957,0.111752,0.550703,
2,1,0,0,0,7621.53,0.555129,0.55481,0.250471,11,0.0344936,10,0.000138964,-3.60124,0.741571,0.0795608,0.5547,
2,1,0,1,0,7622.33,0.559124,0.558877,0.254564,11,0.0347087,10,0.00014227,-3.5942,0.572073,0.103134,0.558765,
2,1,0,1,0,7623.13,0.56312,0.562838,0.258688,11,0.0349267,10,0.000145599,-3.58722,0.486889,0.121177,0.562724,
2,1,0,1,0,7623.93,0.567114,0.566807,0.262009,11,0.0351483,10,0.000148508,-3.58168,0.740594,0.0796658,0.566691,
2,1,0,1,0,7624.73,0.571109,0.570843,0.26864,11,0.0353734,10,0.000153351,-3.57083,0.426579,0.13831,0.570725,
2,1,0,0,0,7625.53,0.575105,0.574854,0.273447,11,0.0356029,10,0.000157192,-3.56313,0.368317,0.160188,0.574734,
2,1,0,1,0,7626.33,0.5791,0.578795,0.280414,11,0.0358373,10,0.000162302,-3.5522,0.395332,0.149242,0.578671,
2,1,0,0,0,7627.12,0.583095,0.58289,0.287655,11,0.0360768,10,0.000167671,-3.54113,0.350114,0.168516,0.582763,
2,1,0,1,0,7627.92,0.58709,0.586846,0.293864,11,0.0363223,10,0.000172453,-3.53185,0.348036,0.169523,0.586717,
2,1,0,1,0,7628.72,0.591085,0.590813,0.304117,11,0.0365746,10,0.000179676,-3.51696,0.29392,0.200735,0.590679,
2,1,0,1,0,7629.52,0.59508,0.594813,0.313913,11,0.0368345,10,0.000186719,-3.50319,0.247316,0.238561,0.594674,
2,1,0,1,0,7630.32,0.599076,0.598785,0.327079,11,0.0371033,10,0.00019585,-3.48535,0.228527,0.258176,0.598641,
2,1,0,0,0,7631.12,0.603071,0.602823,0.340543,11,0.0373821,10,0.000205287,-3.46783,0.209422,0.281728,0.602673,
2,1,0,1,0,7631.92,0.607066,0.606809,0.356185,11,0.0376727,10,0.000216137,-3.44832,0.211688,0.278712,0.606653,
2,1,0,1,0,7632.72,0.611061,0.610829,0.374852,11,0.0379772,10,0.00022897,-3.42614,0.16993,0.347202,0.610664,
2,1,0,1,0,7633.52,0.615056,0.614808,0.396028,11,0.0382978,10,0.000243481,-3.40227,0.149754,0.39398,0.614634,
2,1,0,1,0,7634.32,0.619051,0.618794,0.420772,11,0.0386378,10,0.000260371,-3.37595,0.142464,0.414138,0.618609,
2,1,0,0,0,7635.11,0.623047,0.622767,0.450419,11,0.0389992,10,0.000280506,-3.34638,0.127507,0.462719,0.622569,
2,1,0,1,0,7635.91,0.627042,0.626775,0.485667,11,0.0393859,10,0.000304404,-3.31366,0.117583,0.501775,0.626561,
2,1,0,1,0,7636.71,0.631037,0.630792,0.527231,11,0.0398032,10,0.000332573,-3.278,0.111367,0.529779,0.63056,
2,1,0,1,0,7637.51,0.635032,0.634747,0.574534,11,0.0402552,10,0.000364684,-3.24068,0.102707,0.574449,0.634494,
2,1,0,1,0,7638.31,0.639027,0.638789,0.631609,11,0.0407492,10,0.000403465,-3.19955,0.0910277,0.648155,0.638511,
2,1,0,1,0,7639.11,0.643022,0.642736,0.698888,11,0.0412935,10,0.000449201,-3.15559,0.0902606,0.653663,0.642429,
2,1,0,1,0,7639.91,0.647018,0.646734,0.778621,11,0.0418962,10,0.000503561,-3.10867,0.0787574,0.749136,0.646391,
2,1,0,0,0,7640.71,0.651013,0.650793,0.873515,11,0.0425688,10,0.000568478,-3.05873,0.077339,0.762876,0.650409,
2,1,0,1,0,7641.51,0.655008,0.654747,0.986247,11,0.0433238,10,0.000645742,-3.00601,0.0737252,0.800269,0.654313,
2,1,0,1,0,7642.31,0.659003,0.658759,1.11515,11,0.0441751,10,0.000734616,-2.95267,0.0719655,0.819838,0.658268,
2,1,0,1,0,7643.11,0.662998,0.662747,1.27009,11,0.0451402,10,0.00084175,-2.89616,0.0691985,0.85262,0.662188,
2,1,0,1,0,7643.9,0.666994,0.666734,1.44961,11,0.046238,10,0.000966504,-2.83875,0.0671863,0.878155,0.666096,
2,1,0,0,0,7644.7,0.670989,0.670724,1.65564,11,0.0474902,10,0.00111048,-2.78103,0.0673945,0.875442,0.669996,
2,1,0,1,0,7645.5,0.674984,0.674715,1.89737,11,0.0489212,10,0.00128018,-2.72185,0.0659339,0.894835,0.67388,
2,1,0,1,0,7646.3,0.67898,0.678692,2.1715,11,0.0505576,10,0.00147378,-2.66324,0.0651995,0.904915,0.677736,
2,1,0,1,0,7647.1,0.682974,0.682689,2.48301,11,0.0524285,10,0.00169512,-2.60502,0.0673856,0.875557,0.681596,
2,1,0,1,0,7647.9,0.686969,0.686705,2.83372,11,0.0545634,10,0.00194593,-2.54764,0.0666154,0.885681,0.685459,
2,1,0,0,0,7648.7,0.690965,0.690702,3.22559,11,0.0569956,10,0.00222792,-2.49139,0.0686073,0.859967,0.689283,
2,1,0,1,0,7649.5,0.69496,0.694743,3.66182,11,0.0597587,10,0.00254402,-2.4363,0.0711333,0.829428,0.693131,
2,1,0,0,0,7650.3,0.698955,0.698704,4.14011,11,0.0628866,10,0.00289271,-2.38299,0.0710808,0.830042,0.696883,
2,1,0,1,0,7651.1,0.70295,0.702696,4.66165,11,0.0664145,10,0.00327573,-2.33146,0.0740833,0.796401,0.700645,
2,1,0,1,0,7651.89,0.706945,0.7067,5.22991,11,0.070377,10,0.00369597,-2.28151,0.0775047,0.761245,0.704399,
2,1,0,1,0,7652.69,0.71094,0.710651,5.83467,11,0.0748082,10,0.00414641,-2.23398,0.0794948,0.742187,0.708084,
2,1,0,1,0,7653.49,0.714936,0.714659,6.48133,11,0.0797412,10,0.00463194,-2.18834,0.0820279,0.719268,0.711807,
2,1,0,0,0,7654.29,0.718931,0.718706,7.16877,11,0.0852057,10,0.00515224,-2.14456,0.0854732,0.690275,0.715551,
2,1,0,1,0,7655.09,0.722927,0.722668,7.89302,11,0.0912351,10,0.00570403,-2.10276,0.0904866,0.65203,0.719195,
2,1,0,1,0,7655.89,0.726921,0.726667,8.65176,11,0.0978566,10,0.00628695,-2.0629,0.0941548,0.626628,0.722861,
2,1,0,1,0,7656.69,0.730916,0.730684,9.44419,11,0.105098,10,0.00690072,-2.02484,0.0983377,0.599973,0.726528,
2,1,0,1,0,7657.49,0.734911,0.734668,10.2712,11,0.112987,10,0.00754596,-1.98838,0.101567,0.580896,0.730149,
2,1,0,0,0,7658.29,0.738907,0.738655,11.1313,11,0.12155,10,0.0082222,-1.95345,0.104979,0.562015,0.733757,
2,1,0,1,0,7659.09,0.742902,0.742637,12.0259,11,0.130813,10,0.0089309,-1.91988,0.109034,0.541113,0.737345,
2,1,0,1,0,7659.88,0.746897,0.746638,12.9606,11,0.14081,10,0.00967687,-1.88738,0.111526,0.529027,0.740935,
2,1,0,1,0,7660.68,0.750892,0.750625,13.945,11,0.151569,10,0.0104674,-1.85558,0.112463,0.524616,0.744489,
2,1,0,1,0,7661.48,0.754887,0.754602,14.9808,11,0.163137,10,0.0113046,-1.82446,0.11391,0.517953,0.748011,
2,1,0,0,0,7662.28,0.758883,0.758566,16.0799,11,0.175559,10,0.0121977,-1.79372,0.11323,0.521064,0.751491,
2,1,0,1,0,7663.08,0.762878,0.762622,17.2374,11,0.188882,10,0.0131456,-1.76353,0.117109,0.503803,0.755038,
2,1,0,0,0,7663.88,0.766873,0.766597,18.4757,11,0.20316,10,0.0141634,-1.7334,0.118776,0.496735,0.758467,
2,1,0,1,0,7664.68,0.770868,0.770618,19.7502,11,0.218435,10,0.0152199,-1.70443,0.114744,0.51419,0.761928,
2,1,0,1,0,7665.48,0.774863,0.77461,21.034,11,0.234765,10,0.0162931,-1.67708,0.124042,0.475645,0.765355,
2,1,0,1,0,7666.28,0.778858,0.778617,22.5156,11,0.252173,10,0.017531,-1.64752,0.115828,0.509375,0.76871,
2,1,0,1,0,7667.08,0.782854,0.782605,24.0105,11,0.270773,10,0.0187908,-1.6196,0.129796,0.454558,0.77204,
2,1,0,0,0,7667.88,0.786849,0.786609,25.4582,11,0.290547,10,0.0200257,-1.59417,0.126453,0.466577,0.775407,
2,1,0,1,0,7668.67,0.790844,0.790589,27.0374,11,0.311525,10,0.0213755,-1.56803,0.124498,0.473905,0.778693,
2,1,0,1,0,7669.47,0.794839,0.794603,28.6978,11,0.333808,10,0.0228034,-1.54215,0.131467,0.448782,0.781976,
2,1,0,1,0,7670.27,0.798834,0.798538,30.3809,11,0.35742,10,0.0242603,-1.5174,0.132191,0.446325,0.785171,
2,1,0,1,0,7671.07,0.802829,0.802533,32.0431,11,0.382366,10,0.0257156,-1.49427,0.148747,0.396648,0.788434,
2,1,0,0,0,7671.87,0.806825,0.80653,33.6604,11,0.408615,10,0.0271481,-1.47288,0.149041,0.395865,0.791719,
2,1,0,1,0,7672.67,0.81082,0.810605,35.411,11,0.436227,10,0.0287043,-1.45086,0.151051,0.390597,0.795024,
2,1,0,1,0,7673.47,0.814815,0.814558,37.0084,11,0.465219,10,0.0301455,-1.4317,0.175215,0.336729,0.798274,
2,1,0,1,0,7674.27,0.81881,0.818513,38.7186,11,0.49549,10,0.0316917,-1.41208,0.173515,0.340027,0.801477,
2,1,0,1,0,7675.07,0.822805,0.822546,40.3803,11,0.527112,10,0.0332146,-1.39383,0.182981,0.322437,0.804778,
2,1,0,0,0,7675.87,0.826801,0.826583,42.081,11,0.560065,10,0.0347835,-1.37591,0.17877,0.330033,0.808067,
2,1,0,1,0,7676.66,0.830796,0.830565,43.8483,11,0.594423,10,0.0364188,-1.35805,0.192102,0.307128,0.811271,
2,1,0,0,0,7677.46,0.834791,0.834554,45.4752,11,0.630121,10,0.0379515,-1.34223,0.218891,0.269541,0.814545,
2,1,0,1,0,7678.26,0.838786,0.838538,47.0338,11,0.667089,10,0.0394397,-1.32759,0.219858,0.268356,0.817843,
2,1,0,1,0,7679.06,0.842781,0.842517,48.6482,11,0.705345,10,0.0409869,-1.31293,0.258393,0.228335,0.821112,
2,1,0,1,0,7679.86,0.846776,0.846572,50.0086,11,0.744777,10,0.0423359,-1.30096,0.270455,0.218151,0.824568,
2,1,0,0,0,7680.56,0.849723,0.849518,50.8696,11,0.780216,10,0.0432146,-1.29354,-0.0235053,-2.51007,0.827136,
2,1,0,1,0,7681.36,0.845728,0.845465,45.7888,11,0.817767,10,0.0387128,-1.33924,0.230978,0.255436,0.825318,
2,1,0,0,0,7682.16,0.841732,0.841498,43.8045,11,0.853528,10,0.0368614,-1.35848,0.175908,0.335404,0.822224,
2,1,0,1,0,7682.96,0.837737,0.837497,42.0995,11,0.887818,10,0.0352583,-1.37572,0.198672,0.296972,0.818974,
2,1,0,1,0,7683.76,0.833742,0.833518,40.4717,11,0.920805,10,0.0337339,-1.39285,0.173552,0.339956,0.81571,
2,1,0,1,0,7684.56,0.829747,0.829553,38.7372,11,0.95243,10,0.0321345,-1.41187,0.17143,0.344163,0.812509,
2,1,0,1,0,7685.35,0.825752,0.825509,37.0811,11,0.982701,10,0.0306108,-1.43085,0.167141,0.352994,0.809193,
2,1,0,0,0,7686.15,0.821757,0.821535,35.4172,11,1.01164,10,0.0290965,-1.45079,0.156329,0.37741,0.805952,
2,1,0,1,0,7686.95,0.817761,0.817494,33.6966,11,1.03923,10,0.0275467,-1.47241,0.152194,0.387663,0.802667,
2,1,0,1,0,7687.75,0.813766,0.813486,32.04,11,1.06548,10,0.0260641,-1.49431,0.158273,0.372772,0.799388,
2,1,0,1,0,7688.55,0.809771,0.809514,31.143,11,1.09068,10,0.0252107,-1.50664,0.242937,0.242861,0.795811,
2,1,0,1,0,7689.35,0.805776,0.805545,29.4748,11,1.11487,10,0.0237433,-1.53055,0.133435,0.442163,0.792576,
2,1,0,0,0,7690.15,0.801781,0.801514,27.7898,11,1.13774,10,0.0222739,-1.55611,0.129814,0.454498,0.789286,
2,1,0,1,0,7690.95,0.797786,0.797526,26.2613,11,1.15931,10,0.0209441,-1.58068,0.130978,0.450458,0.785971,
2,1,0,1,0,7691.75,0.79379,0.793539,24.6839,11,1.17964,10,0.0195876,-1.60759,0.12047,0.489747,0.782678,
2,1,0,1,0,7692.55,0.789795,0.789541,23.1733,11,1.19874,10,0.0182963,-1.63501,0.117094,0.50387,0.779344,
2,1,0,1,0,7693.34,0.7858,0.785581,21.6779,11,1.21664,10,0.0170297,-1.66398,0.119017,0.495728,0.776043,
2,1,0,0,0,7694.14,0.781805,0.781563,20.2835,11,1.2334,10,0.0158529,-1.69286,0.113205,0.521177,0.772639,
2,1,0,1,0,7694.94,0.77781,0.777541,18.9084,11,1.24903,10,0.0147021,-1.72334,0.11064,0.533262,0.769222,
2,1,0,0,0,7695.74,0.773815,0.773555,17.6004,11,1.2636,10,0.0136149,-1.75448,0.107949,0.546556,0.765811,
2,1,0,1,0,7696.54,0.769819,0.769564,16.3308,11,1.27715,10,0.0125676,-1.78699,0.104706,0.56348,0.762379,
2,1,0,1,0,7697.34,0.765824,0.765594,15.1127,11,1.28969,10,0.0115702,-1.82066,0.100895,0.584766,0.758944,
2,1,0,1,0,7698.14,0.761829,0.761537,13.9549,11,1.30129,10,0.0106272,-1.85527,0.0979823,0.602149,0.755397,
2,1,0,1,0,7698.94,0.757834,0.757556,12.8504,11,1.31198,10,0.00973491,-1.89108,0.0971881,0.60707,0.751902,
2,1,0,0,0,7699.74,0.753839,0.753558,11.8021,11,1.32181,10,0.00889357,-1.92804,0.0961277,0.613767,0.748365,
2,1,0,1,0,7700.54,0.749844,0.749588,10.8239,11,1.33083,10,0.00811348,-1.96562,0.0931745,0.633221,0.744825,
2,1,0,1,0,7701.34,0.745848,0.745575,9.89329,11,1.33909,10,0.00737619,-2.00466,0.0894201,0.659807,0.741222,
2,1,0,1,0,7702.13,0.741853,0.741539,9.00877,11,1.34662,10,0.00668036,-2.04533,0.0887297,0.66494,0.737576,
2,1,0,1,0,7702.93,0.737858,0.737602,8.17889,11,1.35347,10,0.00603277,-2.08731,0.0839932,0.702438,0.734004,
2,1,0,0,0,7703.73,0.733863,0.733615,7.40137,11,1.35968,10,0.00542976,-2.13069,0.0837415,0.704549,0.730358,
2,1,0,1,0,7704.53,0.729868,0.729607,6.6746,11,1.36529,10,0.00486984,-2.17557,0.0808214,0.730005,0.72667,
2,1,0,1,0,7705.33,0.725872,0.725627,6.00389,11,1.37034,10,0.00435658,-2.22157,0.0789606,0.747208,0.722986,
2,1,0,1,0,7706.13,0.721877,0.721594,5.37459,11,1.37486,10,0.00387827,-2.26965,0.0765052,0.771189,0.719229,
2,1,0,1,0,7706.93,0.717882,0.717574,4.78992,11,1.37891,10,0.00343712,-2.31967,0.0727095,0.811448,0.715467,
2,1,0,0,0,7707.73,0.713887,0.713623,4.253,11,1.3825,10,0.00303504,-2.3713,0.0724211,0.814679,0.711752,
2,1,0,1,0,7708.53,0.709892,0.709647,3.75946,11,1.38569,10,0.00266789,-2.42487,0.0696354,0.84727,0.707992,
2,1,0,0,0,7709.33,0.705897,0.705651,3.30818,11,1.3885,10,0.00233442,-2.48041,0.0676051,0.872715,0.704195,
2,1,0,1,0,7710.12,0.701901,0.70163,2.89752,11,1.39096,10,0.00203298,-2.53797,0.064401,0.916135,0.700355,
2,1,0,1,0,7710.92,0.697906,0.697663,2.52245,11,1.39311,10,0.00175982,-2.59818,0.0637162,0.925981,0.696553,
2,1,0,1,0,7711.72,0.693911,0.693649,2.18727,11,1.39498,10,0.00151719,-2.6601,0.0600558,0.982419,0.692686,
2,1,0,1,0,7712.52,0.689916,0.689652,1.8863,11,1.39659,10,0.00130089,-2.72439,0.0588152,1.00314,0.688822,
2,1,0,0,0,7713.32,0.685921,0.685686,1.61444,11,1.39797,10,0.001107,-2.79198,0.0566475,1.04153,0.684975,
2,1,0,1,0,7714.12,0.681926,0.681667,1.37519,11,1.39915,10,0.000937419,-2.86164,0.0548477,1.07571,0.681062,
2,1,0,1,0,7714.92,0.67793,0.677634,1.16398,11,1.40015,10,0.000788754,-2.93405,0.0525825,1.12205,0.677121,
2,1,0,1,0,7715.72,0.673935,0.673664,0.977232,11,1.40099,10,0.000658326,-3.01,0.0511369,1.15377,0.673234,
2,1,0,1,0,7716.52,0.66994,0.669736,0.816226,11,1.40169,10,0.000546656,-3.08819,0.0478307,1.23352,0.669377,
2,1,0,0,0,7717.32,0.665945,0.665714,0.673831,11,1.40227,10,0.000448578,-3.17145,0.0481148,1.22623,0.665417,
2,1,0,1,0,7718.12,0.66195,0.661697,0.55389,11,1.40275,10,0.000366508,-3.25658,0.0443249,1.33108,0.661453,
2,1,0,0,0,7718.91,0.657955,0.6577,0.44876,11,1.40314,10,0.000295149,-3.34799,0.0428866,1.37572,0.657503,
2,1,0,1,0,7719.71,0.653959,0.65373,0.359295,11,1.40345,10,0.000234882,-3.44455,0.039705,1.48596,0.653572,
2,1,0,1,0,7720.51,0.649964,0.649668,0.284856,11,1.40369,10,0.000185062,-3.54537,0.0378892,1.55717,0.649543,
2,1,0,1,0,7721.31,0.64597,0.645699,0.223174,11,1.40388,10,0.000144103,-3.65136,0.0358157,1.64732,0.645601,
2,1,0,1,0,7722.11,0.641974,0.641721,0.168916,11,1.40402,10,0.000108397,-3.77233,0.0315046,1.87274,0.641647,
2,1,0,0,0,7722.91,0.637979,0.63774,0.125125,11,1.40413,10,7.97974e-05,-3.90266,0.0266188,2.21648,0.637685,
2,1,0,1,0,7723.71,0.633983,0.633696,0.0863472,11,1.4042,10,5.47179e-05,-4.06375,0.0240621,2.45199,0.633658,
2,1,0,1,0,7724.51,0.629988,0.629696,0.0552934,11,1.40424,10,3.4818e-05,-4.25733,0.0168078,3.51028,0.629672,
2,1,0,1,0,7725.31,0.625993,0.625729,0.0288085,11,1.40426,10,1.80263e-05,-4.54048,0.0105732,5.58015,0.625717,
2,1,0,1,0,7726.11,0.621998,0.621701,0.00665397,11,1.40426,10,4.13678e-06,-5.17692,0.00548495,10.7567,0.621698,
2,0,0,0,0,7726.9,0.618003,0.61772,-0.0116025,11,1.40425,10,-7.16709e-06,-4.93545,-0.00491183,-12.0118,0.617725,
2,0,0,1,0,7727.7,0.614008,0.613709,-0.0266597,11,1.40422,10,-1.63613e-05,-4.57415,-0.0197415,-2.98863,0.613721,
2,0,0,1,0,7728.5,0.610012,0.609755,-0.0386685,11,1.40418,10,-2.35783e-05,-4.41264,-0.0327095,-1.80376,0.609772,
2,0,0,1,0,7729.3,0.606017,0.605761,-0.0491633,11,1.40414,10,-2.97812e-05,-4.30836,-0.0483843,-1.2194,0.605782,
2,0,0,1,0,7730.1,0.602022,0.601723,-0.0579356,11,1.40408,10,-3.48612e-05,-4.23705,-0.0682034,-0.865059,0.601748,
2,0,0,0,0,7730.9,0.598027,0.597756,-0.065621,11,1.40402,10,-3.92254e-05,-4.18296,-0.0721294,-0.817974,0.597785,
2,0,0,1,0,7731.7,0.594032,0.593697,-0.0718371,11,1.40395,10,-4.26495e-05,-4.14365,-0.119145,-0.495194,0.593729,
2,0,0,0,0,7732.5,0.590037,0.589751,-0.0775393,11,1.40388,10,-4.57288e-05,-4.11048,-0.131197,-0.449704,0.589785,
2,0,0,1,0,7733.3,0.586041,0.585742,-0.0828245,11,1.4038,10,-4.85138e-05,-4.08184,-0.190979,-0.308935,0.585778,
2,0,0,1,0,7734.1,0.582046,0.58179,-0.0862788,11,1.40372,10,-5.01962e-05,-4.0641,-0.18939,-0.311526,0.581828,
2,0,0,1,0,7734.89,0.578052,0.577769,-0.0899339,11,1.40364,10,-5.1961e-05,-4.04608,-0.226283,-0.260736,0.577809,
2,0,0,1,0,7735.69,0.574056,0.573824,-0.0930691,11,1.40355,10,-5.34053e-05,-4.03119,-0.297427,-0.198368,0.573865,
2,0,0,0,0,7736.49,0.570061,0.569755,-0.0961314,11,1.40346,10,-5.47713e-05,-4.01713,-0.776049,-0.0760261,0.569797,
2,0,0,1,0,7737.29,0.566065,0.565745,-0.098735,11,1.40337,10,-5.58588e-05,-4.00553,-0.2557,-0.230739,0.565788,
2,0,0,1,0,7738.09,0.56207,0.561746,-0.0999795,11,1.40328,10,-5.61631e-05,-4.00009,-0.45479,-0.12973,0.56179,
2,0,0,1,0,7738.89,0.558075,0.557791,-0.103133,11,1.40319,10,-5.75267e-05,-3.9866,-0.54142,-0.108973,0.557837,
2,0,0,1,0,7739.69,0.55408,0.553798,-0.103613,11,1.40309,10,-5.73805e-05,-3.98459,-0.318796,-0.185071,0.553844,
2,0,0,0,0,7740.49,0.550085,0.54979,-0.104977,11,1.403,10,-5.77153e-05,-3.97891,-2.6101,-0.0226045,0.549836,
2,0,0,1,0,7741.29,0.54609,0.545811,-0.105701,11,1.4029,10,-5.76929e-05,-3.97592,-3.47753,-0.0169661,0.545857,
2,0,0,1,0,7742.09,0.542094,0.541833,-0.108009,11,1.4028,10,-5.8523e-05,-3.96654,-0.668817,-0.0882155,0.54188,
2,0,0,1,0,7742.89,0.538099,0.537787,-0.10854,11,1.4027,10,-5.83714e-05,-3.96441,-6.57326,-0.00897577,0.537835,
2,0,0,1,0,7743.68,0.534104,0.533846,-0.110935,11,1.4026,10,-5.92223e-05,-3.95493,-1.57035,-0.0375712,0.533895,
2,0,0,0,0,7744.48,0.530109,0.529815,-0.111443,11,1.4025,10,-5.90444e-05,-3.95295,-0.426561,-0.138315,0.529864,
2,0,0,1,0,7745.28,0.526114,0.525769,-0.111694,11,1.4024,10,-5.8725e-05,-3.95197,-0.6258,-0.0942793,0.525818,
2,0,0,0,0,7746.08,0.522119,0.521841,-0.113867,11,1.4023,10,-5.94203e-05,-3.9436,-1.32375,-0.0445702,0.521891,
2,0,0,1,0,7746.88,0.518123,0.517839,-0.115089,11,1.40219,10,-5.95976e-05,-3.93897,-0.576169,-0.1024,0.517889,
2,0,0,1,0,7747.68,0.514128,0.513844,-0.115822,11,1.40209,10,-5.95143e-05,-3.93621,-7.7463,-0.00761654,0.513895,
2,0,0,1,0,7748.48,0.510133,0.509842,-0.116299,11,1.40198,10,-5.92939e-05,-3.93443,-0.783768,-0.0752773,0.509893,
2,0,0,1,0,7749.28,0.506138,0.505863,-0.118347,11,1.40187,10,-5.98673e-05,-3.92684,-1.76362,-0.0334539,0.505915,
2,0,0,0,0,7750.08,0.502143,0.501877,-0.118822,11,1.40177,10,-5.96342e-05,-3.9251,-0.718855,-0.082075,0.501929,
2,0,0,1,0,7750.88,0.498148,0.497866,-0.118711,11,1.40166,10,-5.91021e-05,-3.92551,-1.73954,-0.033917,0.497919,
2,0,0,1,0,7751.67,0.494152,0.493856,-0.120711,11,1.40155,10,-5.96136e-05,-3.91825,-0.719033,-0.0820546,0.493909,
2,0,0,1,0,7752.47,0.490157,0.489885,-0.121332,11,1.40144,10,-5.94386e-05,-3.91603,-0.840477,-0.0701982,0.489938,
2,0,0,1,0,7753.27,0.486162,0.48587,-0.122818,11,1.40133,10,-5.96737e-05,-3.91074,-1.91887,-0.0307472,0.485924,
2,0,0,0,0,7754.07,0.482167,0.481862,-0.124246,11,1.40122,10,-5.98696e-05,-3.90572,-1.8008,-0.0327632,0.481916,
2,0,0,1,0,7754.87,0.478172,0.477881,-0.125698,11,1.40111,10,-6.00687e-05,-3.90067,-0.500874,-0.117794,0.477936,
2,0,0,0,0,7755.67,0.474177,0.473865,-0.12744,11,1.40099,10,-6.03892e-05,-3.8947,-2.26604,-0.0260367,0.473921,
2,0,0,1,0,7756.47,0.470181,0.469901,-0.128355,11,1.40088,10,-6.03144e-05,-3.89159,-0.608056,-0.0970305,0.469958,
2,0,0,1,0,7757.27,0.466186,0.465932,-0.12922,11,1.40076,10,-6.02079e-05,-3.88867,-2.41847,-0.0243956,0.465989,
2,0,0,1,0,7758.07,0.462191,0.461888,-0.130357,11,1.40064,10,-6.02103e-05,-3.88487,-0.503165,-0.117258,0.461946,
2,0,0,1,0,7758.87,0.458196,0.457918,-0.132241,11,1.40053,10,-6.05555e-05,-3.87863,-1.39141,-0.0424032,0.457976,
2,0,0,0,0,7759.66,0.454201,0.453952,-0.13365,11,1.40041,10,-6.06706e-05,-3.87403,-1.14062,-0.0517261,0.454011,
2,0,0,1,0,7760.46,0.450205,0.44991,-0.135861,11,1.40029,10,-6.11252e-05,-3.86691,-1.58987,-0.03711,0.44997,
2,0,0,1,0,7761.26,0.44621,0.445898,-0.135569,11,1.40016,10,-6.04501e-05,-3.86784,-0.448507,-0.131547,0.445957,
2,0,0,1,0,7762.06,0.442215,0.4419,-0.138171,11,1.40004,10,-6.10578e-05,-3.85958,26.4834,0.00222781,0.441961,
2,0,0,1,0,7762.86,0.43822,0.437948,-0.139951,11,1.39992,10,-6.12914e-05,-3.85402,-0.475472,-0.124087,0.43801,
2,0,0,0,0,7763.66,0.434225,0.433946,-0.142295,11,1.39979,10,-6.17485e-05,-3.84681,-0.578786,-0.101938,0.434009,
2,0,0,1,0,7764.46,0.43023,0.429966,-0.142606,11,1.39966,10,-6.13158e-05,-3.84586,-0.494387,-0.11934,0.430029,
2,0,0,1,0,7765.26,0.426234,0.425934,-0.145573,11,1.39953,10,-6.20047e-05,-3.83692,-0.985873,-0.0598454,0.425999,
2,0,0,1,0,7766.06,0.422239,0.421922,-0.14691,11,1.3994,10,-6.19846e-05,-3.83295,-0.693876,-0.0850297,0.421987,
2,0,0,1,0,7766.86,0.418244,0.417972,-0.149057,11,1.39927,10,-6.23019e-05,-3.82665,-0.633788,-0.093091,0.418038,
2,0,0,0,0,7767.66,0.414249,0.413992,-0.149507,11,1.39914,10,-6.18946e-05,-3.82534,-1.40441,-0.0420105,0.414058,
2,0,0,1,0,7768.45,0.410254,0.409929,-0.152429,11,1.39901,10,-6.24851e-05,-3.81693,-0.953552,-0.0618739,0.409996,
2,0,0,0,0,7769.25,0.406259,0.405974,-0.154699,11,1.39887,10,-6.28038e-05,-3.81051,-0.602599,-0.0979092,0.406042,
2,0,0,1,0,7770.05,0.402263,0.401945,-0.156985,11,1.39873,10,-6.30993e-05,-3.80414,-0.789841,-0.0746986,0.402014,
2,0,0,1,0,7770.85,0.398268,0.397958,-0.159458,11,1.39859,10,-6.34576e-05,-3.79735,-0.835095,-0.0706506,0.398028,
2,0,0,1,0,7771.65,0.394274,0.393967,-0.159726,11,1.39845,10,-6.29268e-05,-3.79662,-0.502362,-0.117445,0.394037,
2,0,0,1,0,7772.45,0.390278,0.389999,-0.163112,11,1.39831,10,-6.36135e-05,-3.78751,-0.752088,-0.0784483,0.39007,
2,0,0,0,0,7773.25,0.386283,0.385999,-0.164973,11,1.39816,10,-6.36794e-05,-3.78259,-0.599973,-0.0983378,0.386071,
2,0,0,1,0,7774.05,0.382287,0.382028,-0.167131,11,1.39802,10,-6.38488e-05,-3.77694,-1.00275,-0.058838,0.382102,
2,0,0,1,0,7774.85,0.378292,0.378016,-0.168777,11,1.39787,10,-6.38002e-05,-3.77269,-2.19176,-0.026919,0.37809,
2,0,0,1,0,7775.65,0.374297,0.373977,-0.171661,11,1.39772,10,-6.41974e-05,-3.76533,-0.46514,-0.126843,0.374053,
2,0,0,1,0,7776.44,0.370303,0.370009,-0.173057,11,1.39757,10,-6.40327e-05,-3.76181,-0.725071,-0.0813714,0.370086,
2,0,0,0,0,7777.24,0.366307,0.366019,-0.176224,11,1.39741,10,-6.45014e-05,-3.75393,-0.707703,-0.0833684,0.366096,
2,0,0,1,0,7778.04,0.362312,0.362068,-0.178414,11,1.39726,10,-6.45978e-05,-3.74857,-0.540391,-0.10918,0.362146,
2,0,0,1,0,7778.84,0.358316,0.358022,-0.18038,11,1.3971,10,-6.45799e-05,-3.74381,-0.885241,-0.0666485,0.358101,
2,0,0,1,0,7779.64,0.354321,0.354016,-0.182404,11,1.39694,10,-6.45739e-05,-3.73897,-0.772585,-0.076367,0.354096,
2,0,0,1,0,7780.44,0.350327,0.350028,-0.185213,11,1.39678,10,-6.48298e-05,-3.73233,-0.468085,-0.126045,0.350109,
2,0,0,0,0,7781.24,0.346331,0.346029,-0.18773,11,1.39662,10,-6.49601e-05,-3.72647,4.60939,0.0128,0.346112,
2,0,0,1,0,7782.04,0.342336,0.342049,-0.188416,11,1.39645,10,-6.44477e-05,-3.72488,-0.422293,-0.139713,0.342132,
2,0,0,0,0,7782.84,0.338341,0.338036,-0.191425,11,1.39629,10,-6.47086e-05,-3.718,-1.75156,-0.0336843,0.33812,
2,0,0,1,0,7783.64,0.334345,0.334087,-0.193294,11,1.39612,10,-6.45772e-05,-3.71378,-0.663746,-0.0888894,0.334172,
2,0,0,1,0,7784.43,0.33035,0.33002,-0.196348,11,1.39595,10,-6.47988e-05,-3.70697,-0.662749,-0.0890231,0.330106,
2,0,0,1,0,7785.23,0.326355,0.326018,-0.19943,11,1.39578,10,-6.50177e-05,-3.70021,-1.58774,-0.0371597,0.326106,
2,0,0,1,0,7786.03,0.32236,0.322065,-0.201596,11,1.3956,10,-6.49271e-05,-3.69552,-0.436264,-0.135239,0.322153,
2,0,0,0,0,7786.83,0.318365,0.318056,-0.202904,11,1.39543,10,-6.45349e-05,-3.69271,-0.604731,-0.097564,0.318146,
2,0,0,1,0,7787.63,0.31437,0.314102,-0.206004,11,1.39525,10,-6.47063e-05,-3.68612,11.331,0.00520696,0.314193,
2,0,0,1,0,7788.43,0.310374,0.310078,-0.208706,11,1.39507,10,-6.47152e-05,-3.68046,-0.508507,-0.116026,0.31017,
2,0,0,1,0,7789.23,0.306379,0.30609,-0.211004,11,1.39488,10,-6.45861e-05,-3.67571,-0.675962,-0.087283,0.306183,
2,0,0,1,0,7790.03,0.302385,0.30207,-0.213799,11,1.3947,10,-6.45822e-05,-3.67,-0.571021,-0.103324,0.302164,
2,0,0,0,0,7790.83,0.298389,0.298105,-0.215844,11,1.39451,10,-6.43441e-05,-3.66586,-0.635495,-0.092841,0.2982,
2,0,0,1,0,7791.63,0.294394,0.2941,-0.218188,11,1.39432,10,-6.4169e-05,-3.66117,-1.47065,-0.0401183,0.294196,
2,0,0,1,0,7792.43,0.290398,0.290105,-0.220668,11,1.39413,10,-6.40168e-05,-3.65626,-0.842243,-0.070051,0.290202,
2,0,0,1,0,7793.22,0.286403,0.286133,-0.223824,11,1.39394,10,-6.40433e-05,-3.65009,-0.679571,-0.0868194,0.286231,
2,0,0,1,0,7794.02,0.282408,0.282095,-0.226692,11,1.39375,10,-6.39486e-05,-3.64456,-6.94819,-0.00849142,0.282195,
2,0,0,1,0,7794.82,0.278414,0.278135,-0.229305,11,1.39355,10,-6.37776e-05,-3.63959,-0.473829,-0.124518,0.278236,
2,0,0,1,0,7795.62,0.274418,0.274133,-0.231767,11,1.39335,10,-6.3535e-05,-3.63495,-0.743741,-0.0793287,0.274235,
2,0,0,0,0,7796.42,0.270423,0.27012,-0.234788,11,1.39315,10,-6.34208e-05,-3.62932,-0.872868,-0.0675933,0.270223,
2,0,0,1,0,7797.22,0.266427,0.266193,-0.237661,11,1.39295,10,-6.32637e-05,-3.62404,-0.746018,-0.0790865,0.266297,
2,0,0,1,0,7798.02,0.262432,0.262187,-0.2398,11,1.39274,10,-6.28725e-05,-3.62015,-0.773019,-0.0763241,0.262292,
2,0,0,1,0,7798.82,0.258437,0.258183,-0.242989,11,1.39253,10,-6.27355e-05,-3.61441,-0.62444,-0.0944846,0.25829,
2,0,0,1,0,7799.62,0.254442,0.254134,-0.244904,11,1.39232,10,-6.22385e-05,-3.611,-1.67236,-0.0352795,0.254242,
2,0,0,0,0,7800.42,0.250447,0.250149,-0.247551,11,1.39211,10,-6.19247e-05,-3.60633,-2.46312,-0.0239533,0.250258,
2,0,0,1,0,7801.21,0.246452,0.246174,-0.251168,11,1.3919,10,-6.1831e-05,-3.60003,-0.524478,-0.112493,0.246284,
2,0,0,1,0,7802.01,0.242456,0.242129,-0.25241,11,1.39168,10,-6.11158e-05,-3.59789,-1.14612,-0.051478,0.24224,
2,0,0,1,0,7802.81,0.238461,0.238166,-0.256234,11,1.39147,10,-6.10264e-05,-3.59136,-0.660269,-0.0893575,0.238279,
2,0,0,1,0,7803.61,0.234467,0.23419,-0.257705,11,1.39125,10,-6.03521e-05,-3.58888,-1.10579,-0.0533556,0.234304,
2,0,0,0,0,7804.41,0.230471,0.230207,-0.259718,11,1.39102,10,-5.9789e-05,-3.5855,-0.811436,-0.0727106,0.230321,
2,0,0,1,0,7805.21,0.226476,0.226141,-0.263103,11,1.3908,10,-5.94985e-05,-3.57987,-1.29297,-0.0456313,0.226257,
2,0,0,0,0,7806.01,0.222481,0.222224,-0.264582,11,1.39057,10,-5.87965e-05,-3.57744,-1.26834,-0.0465174,0.222341,
2,0,0,1,0,7806.81,0.218485,0.218215,-0.26937,11,1.39035,10,-5.87804e-05,-3.56965,-0.927267,-0.0636279,0.218333,
2,0,0,1,0,7807.61,0.21449,0.214199,-0.270911,11,1.39012,10,-5.8029e-05,-3.56717,-0.762357,-0.0773915,0.214318,
2,0,0,1,0,7808.41,0.210496,0.210198,-0.27453,11,1.38988,10,-5.77056e-05,-3.56141,-0.692713,-0.0851724,0.210318,
2,0,0,1,0,7809.21,0.2065,0.206188,-0.279777,11,1.38965,10,-5.76866e-05,-3.55319,-0.665673,-0.0886321,0.206311,
2,0,0,0,0,7810,0.202505,0.202208,-0.282065,11,1.38941,10,-5.70358e-05,-3.54965,-0.608013,-0.0970374,0.202332,
2,0,0,1,0,7810.8,0.198509,0.198207,-0.286435,11,1.38917,10,-5.67733e-05,-3.54297,-0.581699,-0.101427,0.198333,
2,0,0,1,0,7811.6,0.194514,0.194197,-0.28983,11,1.38892,10,-5.6284e-05,-3.53786,-0.682431,-0.0864556,0.194324,
2,0,0,1,0,7812.4,0.190519,0.190208,-0.294577,11,1.38867,10,-5.60309e-05,-3.5308,-0.402892,-0.146441,0.190337,
2,0,0,1,0,7813.2,0.186524,0.186221,-0.301427,11,1.38842,10,-5.61322e-05,-3.52082,-0.85307,-0.069162,0.186354,
2,0,0,0,0,7814,0.182529,0.182236,-0.307653,11,1.38816,10,-5.60656e-05,-3.51194,-0.30672,-0.192358,0.182372,
2,0,0,1,0,7814.8,0.178534,0.178229,-0.316191,11,1.3879,10,-5.63545e-05,-3.50005,-0.378697,-0.155798,0.178368,
2,0,0,1,0,7815.6,0.174538,0.174246,-0.325228,11,1.38762,10,-5.66697e-05,-3.48781,-0.269727,-0.21874,0.174389,
2,0,0,1,0,7816.4,0.170543,0.170215,-0.335453,11,1.38735,10,-5.7099e-05,-3.47437,-0.222728,-0.264898,0.170362,
2,0,0,1,0,7817.2,0.166549,0.166231,-0.350734,11,1.38706,10,-5.83028e-05,-3.45502,-0.236355,-0.249625,0.166385,
2,0,0,0,0,7817.99,0.162553,0.162247,-0.367839,11,1.38675,10,-5.96807e-05,-3.43434,-0.170589,-0.345861,0.162409,
2,0,0,1,0,7818.79,0.158558,0.158283,-0.388079,11,1.38644,10,-6.14263e-05,-3.41108,-0.134686,-0.438056,0.158454,
2,0,0,0,0,7819.59,0.154563,0.154251,-0.418723,11,1.3861,10,-6.45885e-05,-3.37807,-0.126222,-0.467432,0.154435,
2,0,0,1,0,7820.39,0.150567,0.150264,-0.458805,11,1.38573,10,-6.89418e-05,-3.33837,-0.0879254,-0.671023,0.150466,
2,0,0,1,0,7821.19,0.146572,0.146275,-0.509704,11,1.38533,10,-7.45569e-05,-3.29268,-0.0838042,-0.704022,0.146499,
2,0,0,1,0,7821.99,0.142578,0.142258,-0.573246,11,1.38489,10,-8.15491e-05,-3.24166,-0.0758999,-0.77734,0.142511,
2,0,0,1,0,7822.79,0.138582,0.138255,-0.639275,11,1.38439,10,-8.83829e-05,-3.19431,-0.0865258,-0.681877,0.138536,
2,0,0,0,0,7823.59,0.134587,0.134283,-0.704257,11,1.38383,10,-9.45696e-05,-3.15227,-0.117021,-0.504182,0.134593,
2,0,0,1,0,7824.39,0.130591,0.130254,-0.754769,11,1.38323,10,-9.83115e-05,-3.12219,-0.159119,-0.370792,0.130586,
2,0,0,1,0,7825.19,0.126596,0.1263,-0.781282,11,1.3826,10,-9.86758e-05,-3.10719,-0.350507,-0.168328,0.126644,
2,0,0,1,0,7825.98,0.122602,0.122242,-0.799631,11,1.38195,10,-9.77486e-05,-3.09711,-1.59148,-0.0370724,0.122594,
2,0,0,1,0,7826.78,0.118607,0.118299,-0.79925,11,1.3813,10,-9.45501e-05,-3.09732,7.04773,0.00837149,0.11865,
2,0,0,0,0,7827.58,0.114611,0.114301,-0.791881,11,1.38064,10,-9.05132e-05,-3.10134,0.600904,0.0981853,0.11465,
2,0,0,1,0,7828.38,0.110616,0.110304,-0.78062,11,1.38,10,-8.61052e-05,-3.10756,0.609909,0.0967357,0.110647,
2,0,0,1,0,7829.18,0.10662,0.106275,-0.766591,11,1.37937,10,-8.14693e-05,-3.11544,0.564448,0.104527,0.106612,
2,0,0,1,0,7829.98,0.102625,0.102329,-0.749948,11,1.37874,10,-7.67416e-05,-3.12497,0.379382,0.155516,0.102659,
2,0,0,1,0,7830.78,0.0986305,0.0982958,-0.733676,11,1.37814,10,-7.21172e-05,-3.1345,0.385241,0.153151,0.0986186,
2,0,0,0,0,7831.58,0.0946351,0.0943414,-0.713275,11,1.37754,10,-6.72914e-05,-3.14674,0.381074,0.154825,0.0946552,
2,0,0,1,0,7832.38,0.0906399,0.0902843,-0.699502,11,1.37696,10,-6.3154e-05,-3.15521,0.389426,0.151505,0.0905921,
2,0,0,0,0,7833.18,0.0866448,0.086312,-0.683415,11,1.37639,10,-5.89869e-05,-3.16532,0.492095,0.119895,0.0866127,
2,0,0,1,0,7833.98,0.0826492,0.0823138,-0.672861,11,1.37583,10,-5.53857e-05,-3.17207,0.520527,0.113347,0.0826099,
2,0,0,1,0,7834.77,0.0786544,0.0783398,-0.660358,11,1.37529,10,-5.17323e-05,-3.18022,0.702349,0.0840038,0.0786303,
2,0,0,1,0,7835.57,0.0746596,0.0743351,-0.651284,11,1.37475,10,-4.84132e-05,-3.18623,0.622563,0.0947695,0.0746216,
2,0,0,1,0,7836.37,0.0706641,0.0703783,-0.641463,11,1.37421,10,-4.51451e-05,-3.19283,0.537504,0.109767,0.0706606,
2,0,0,0,0,7837.17,0.0666689,0.0663944,-0.633228,11,1.37369,10,-4.20428e-05,-3.19844,0.653571,0.0902733,0.066673,
2,0,0,1,0,7837.97,0.0626737,0.0623617,-0.621731,11,1.37317,10,-3.87722e-05,-3.2064,0.593749,0.0993685,0.0626352,
2,0,0,1,0,7838.77,0.0586783,0.0583637,-0.612383,11,1.37266,10,-3.57409e-05,-3.21298,0.413427,0.14271,0.0586331,
2,0,0,1,0,7839.57,0.0546835,0.0543548,-0.601957,11,1.37216,10,-3.27193e-05,-3.22043,0.795424,0.0741743,0.0546197,
2,0,0,1,0,7840.37,0.0506886,0.0503732,-0.59126,11,1.37167,10,-2.97837e-05,-3.22822,0.496669,0.118791,0.0506334,
2,0,0,0,0,7841.17,0.046693,0.0464142,-0.57976,11,1.37119,10,-2.69091e-05,-3.23675,0.443979,0.132889,0.0466693,
2,0,0,1,0,7841.97,0.0426979,0.0423815,-0.575137,11,1.37071,10,-2.43752e-05,-3.24023,0.494934,0.119208,0.0426346,
2,0,0,1,0,7842.76,0.0387022,0.0383736,-0.556697,11,1.37024,10,-2.13625e-05,-3.25438,0.376483,0.156714,0.0386186,
2,0,0,1,0,7843.56,0.0347074,0.0343755,-0.546207,11,1.36979,10,-1.87761e-05,-3.26264,0.483899,0.121926,0.0346158,
2,0,0,1,0,7844.36,0.0307126,0.0303928,-0.532403,11,1.36934,10,-1.61812e-05,-3.27376,0.50254,0.117404,0.030627,
2,0,0,0,0,7845.16,0.0267172,0.0264372,-0.524998,11,1.3689,10,-1.38795e-05,-3.27984,0.402476,0.146593,0.0266682,
2,0,0,1,0,7845.96,0.022722,0.0223843,-0.516744,11,1.36847,10,-1.1567e-05,-3.28672,0.84786,0.069587,0.0226117,
2,0,0,0,0,7846.76,0.0187268,0.0183877,-0.509065,11,1.36805,10,-9.36052e-06,-3.29323,0.763229,0.0773031,0.0186117,
2,0,0,1,0,7847.56,0.0147313,0.014413,-0.504941,11,1.36763,10,-7.2777e-06,-3.29676,0.805054,0.073287,0.0146351,
2,0,0,1,0,7848.36,0.0107365,0.0104038,-0.499142,11,1.36721,10,-5.19298e-06,-3.30178,2.12557,0.0277573,0.0106234,
2,0,0,1,0,7849.16,0.00674163,0.00642334,-0.498323,11,1.3668,10,-3.2009e-06,-3.30249,5.32107,0.011088,0.0066426,
2,0,0,1,0,7849.96,0.00274612,0.0024381,-0.497774,11,1.36639,10,-1.21362e-06,-3.30297,-2.91568,-0.0202354,0.00265712,
2,0,0,0,0,7850.45,0.000274105,-0.000116556,-0.498892,11,1.36613,10,5.81488e-08,-3.30199, , ,0.000102956,