File: Figure_codes/Fig_3-5/workspace_calculate_alpha_eff/20221101_1-115_002_TrumpetPlot_ParaChange_18_CV_C01_2.csv
mode,ox/red,error,control changes,counter inc.,time/s,control/V,Ewe/V,<I>/mA,cycle number,(Q-Qo)/C,I Range,P/W,log(|I|),Tafel slope mV/dec,alpha_eff,E-IR/V,
2,1,0,0,0,3713.55,2.44065e-05,-0.000401673,0.0901435,3,0.0000000E+000,10,-3.62082e-08,-4.04507, , ,-0.000473788,
2,1,0,0,0,3714.3,0.00379485,0.00350274,0.226678,3,0.000174572,10,7.93996e-07,-3.64459,0.0929639,0.634655,0.0033214,
2,1,0,1,0,3715.1,0.00779002,0.00750684,0.242436,3,0.000380128,10,1.81993e-06,-3.6154,0.149528,0.394575,0.00731289,
2,1,0,0,0,3715.9,0.0117852,0.0114844,0.251596,3,0.000596056,10,2.88943e-06,-3.5993,0.296959,0.19868,0.0112831,
2,1,0,1,0,3716.7,0.0157806,0.0154941,0.262362,3,0.000818666,10,4.06506e-06,-3.5811,0.277456,0.212646,0.0152842,
2,1,0,1,0,3717.5,0.0197754,0.0195064,0.265916,3,0.00104682,10,5.18706e-06,-3.57526,0.433811,0.136004,0.0192936,
2,1,0,1,0,3718.3,0.0237704,0.0234657,0.273565,3,0.00128027,10,6.41941e-06,-3.56294,0.535354,0.110207,0.0232469,
2,1,0,1,0,3719.09,0.0277659,0.0274499,0.279706,3,0.00151762,10,7.6779e-06,-3.5533,0.347152,0.169955,0.0272261,
2,1,0,0,0,3719.89,0.0317611,0.0314837,0.28399,3,0.00175955,10,8.94106e-06,-3.5467,0.558986,0.105548,0.0312565,
2,1,0,1,0,3720.69,0.0357567,0.0354649,0.289669,3,0.0020064,10,1.02731e-05,-3.5381,0.397399,0.148465,0.0352331,
2,1,0,1,0,3721.49,0.0397516,0.0395038,0.29694,3,0.00225833,10,1.17303e-05,-3.52733,0.354312,0.16652,0.0392662,
2,1,0,1,0,3722.29,0.0437465,0.043482,0.306061,3,0.00251703,10,1.33081e-05,-3.51419,0.277847,0.212347,0.0432371,
2,1,0,1,0,3723.09,0.0477413,0.0474837,0.316122,3,0.00278226,10,1.50107e-05,-3.50014,0.267648,0.220439,0.0472308,
2,1,0,0,0,3723.89,0.0517369,0.0514458,0.325817,3,0.00305569,10,1.67619e-05,-3.48703,0.211163,0.279405,0.0511852,
2,1,0,1,0,3724.69,0.0557321,0.0554202,0.340398,3,0.00333937,10,1.8865e-05,-3.46801,0.256422,0.230089,0.0551479,
2,1,0,1,0,3725.49,0.0597277,0.0594437,0.35645,3,0.00363417,10,2.11887e-05,-3.448,0.223312,0.264204,0.0591586,
2,1,0,1,0,3726.29,0.0637226,0.06342,0.372148,3,0.00394189,10,2.36016e-05,-3.42928,0.194967,0.302615,0.0631223,
2,1,0,1,0,3727.09,0.0677174,0.0674249,0.390968,3,0.00426418,10,2.6361e-05,-3.40786,0.214743,0.274747,0.0671122,
2,1,0,0,0,3727.88,0.0717128,0.0714016,0.410012,3,0.00460072,10,2.92755e-05,-3.3872,0.177422,0.33254,0.0710736,
2,1,0,1,0,3728.68,0.075708,0.0754418,0.426004,3,0.0049526,10,3.21385e-05,-3.37059,0.201208,0.293229,0.075101,
2,1,0,0,0,3729.48,0.0797031,0.0794257,0.44778,3,0.0053196,10,3.55653e-05,-3.34893,0.231417,0.254952,0.0790675,
2,1,0,1,0,3730.28,0.0836986,0.0833983,0.463937,3,0.00570009,10,3.86916e-05,-3.33354,0.243171,0.242628,0.0830272,
2,1,0,1,0,3731.08,0.0876935,0.08742,0.480105,3,0.00609438,10,4.19708e-05,-3.31866,0.287597,0.205148,0.0870359,
2,1,0,1,0,3731.88,0.0916883,0.0913655,0.49907,3,0.00650128,10,4.55978e-05,-3.30184,0.277143,0.212887,0.0909663,
2,1,0,1,0,3732.68,0.0956838,0.0953658,0.512348,3,0.00692121,10,4.88604e-05,-3.29044,0.299623,0.196914,0.0949559,
2,1,0,0,0,3733.48,0.099679,0.0993974,0.529615,3,0.0073546,10,5.26424e-05,-3.27604,0.340719,0.173163,0.0989737,
2,1,0,1,0,3734.28,0.103674,0.103387,0.551928,3,0.00780247,10,5.7062e-05,-3.25812,0.169475,0.348133,0.102945,
2,1,0,1,0,3735.08,0.10767,0.107386,0.575371,3,0.00827005,10,6.17866e-05,-3.24005,0.180793,0.326339,0.106925,
2,1,0,1,0,3735.87,0.111664,0.111347,0.61247,3,0.00876112,10,6.81966e-05,-3.21292,0.142848,0.413026,0.110857,
2,1,0,1,0,3736.67,0.115659,0.115308,0.653737,3,0.00928344,10,7.53814e-05,-3.1846,0.118219,0.499075,0.114785,
2,1,0,0,0,3737.47,0.119655,0.119363,0.704621,3,0.00984483,10,8.41055e-05,-3.15204,0.130272,0.452899,0.118799,
2,1,0,1,0,3738.27,0.12365,0.123392,0.761878,3,0.0104484,10,9.40099e-05,-3.11811,0.112961,0.522306,0.122783,
2,1,0,1,0,3739.07,0.127646,0.127356,0.820212,3,0.0110985,10,0.000104459,-3.08607,0.140475,0.420003,0.1267,
2,1,0,1,0,3739.87,0.13164,0.131368,0.873471,3,0.0117937,10,0.000114746,-3.05875,0.182251,0.32373,0.130669,
2,1,0,1,0,3740.67,0.135635,0.13535,0.915904,3,0.0125267,10,0.000123968,-3.03815,0.19657,0.300148,0.134618,
2,1,0,0,0,3741.47,0.139631,0.139346,0.93915,3,0.0132883,10,0.000130867,-3.02726,0.572312,0.103091,0.138595,
2,1,0,1,0,3742.27,0.143626,0.143357,0.948258,3,0.0140624,10,0.000135939,-3.02307,-0.850423,-0.0693773,0.142598,
2,1,0,0,0,3743.07,0.147621,0.147335,0.924916,3,0.0148291,10,0.000136273,-3.0339,-0.232525,-0.253736,0.146595,
2,1,0,1,0,3743.86,0.151617,0.151325,0.873394,3,0.0155663,10,0.000132166,-3.05879,-0.123976,-0.475899,0.150626,
2,1,0,1,0,3744.66,0.155612,0.155308,0.796236,3,0.0162502,10,0.000123661,-3.09896,-0.0872481,-0.676232,0.154671,
2,1,0,1,0,3745.46,0.159606,0.159283,0.704076,3,0.0168665,10,0.000112147,-3.15238,-0.0718275,-0.821412,0.158719,
2,1,0,1,0,3746.26,0.163602,0.163328,0.615831,3,0.017411,10,0.000100583,-3.21054,-0.0694053,-0.850079,0.162836,
2,1,0,0,0,3747.06,0.167597,0.167312,0.543954,3,0.0178903,10,9.10101e-05,-3.26444,-0.0836158,-0.705608,0.166877,
2,1,0,1,0,3747.86,0.171592,0.171273,0.486111,3,0.0183195,10,8.32577e-05,-3.31326,-0.0880293,-0.670232,0.170884,
2,1,0,1,0,3748.66,0.175588,0.17531,0.446238,3,0.0187091,10,7.823e-05,-3.35043,-0.116896,-0.504724,0.174953,
2,1,0,1,0,3749.46,0.179582,0.179352,0.415106,3,0.019069,10,7.44502e-05,-3.38184,-0.138933,-0.424667,0.17902,
2,1,0,1,0,3750.26,0.183577,0.18326,0.390313,3,0.0194072,10,7.15288e-05,-3.40859,-0.164461,-0.358747,0.182948,
2,1,0,0,0,3751.06,0.187573,0.187254,0.37077,3,0.0197278,10,6.94283e-05,-3.43089,-0.21689,-0.272028,0.186958,
2,1,0,1,0,3751.86,0.191568,0.191275,0.357102,3,0.0200347,10,6.83047e-05,-3.44721,-0.261928,-0.225253,0.19099,
2,1,0,0,0,3752.65,0.195563,0.195303,0.344159,3,0.0203313,10,6.72152e-05,-3.46324,-0.234991,-0.251074,0.195027,
2,1,0,1,0,3753.45,0.199559,0.199262,0.334453,3,0.0206184,10,6.66439e-05,-3.47566,-0.364654,-0.161797,0.198995,
2,1,0,1,0,3754.25,0.203553,0.203266,0.325062,3,0.0208983,10,6.60741e-05,-3.48803,-0.351691,-0.167761,0.203006,
2,1,0,1,0,3755.05,0.207548,0.207283,0.318245,3,0.0211725,10,6.59667e-05,-3.49724,-0.635629,-0.0928214,0.207028,
2,1,0,1,0,3755.85,0.211544,0.211231,0.311045,3,0.021441,10,6.57024e-05,-3.50718,-0.441905,-0.133513,0.210982,
2,1,0,0,0,3756.65,0.215539,0.215258,0.308869,3,0.0217057,10,6.64867e-05,-3.51023,-0.573166,-0.102937,0.215011,
2,1,0,1,0,3757.45,0.219535,0.219267,0.305414,3,0.0219664,10,6.69673e-05,-3.51511,-1.14968,-0.0513187,0.219023,
2,1,0,1,0,3758.25,0.223529,0.223267,0.301536,3,0.0222241,10,6.73229e-05,-3.52066,-0.637046,-0.092615,0.223025,
2,1,0,1,0,3759.05,0.227524,0.227202,0.295493,3,0.0224789,10,6.71365e-05,-3.52945,-0.761307,-0.0774983,0.226965,
2,1,0,1,0,3759.85,0.23152,0.231212,0.294436,3,0.022731,10,6.80773e-05,-3.53101,-1.17954,-0.0500194,0.230977,
2,1,0,0,0,3760.64,0.235515,0.235246,0.289171,3,0.0229812,10,6.80264e-05,-3.53884,-1.17978,-0.0500092,0.235015,
2,1,0,1,0,3761.44,0.23951,0.239202,0.287664,3,0.0232293,10,6.88099e-05,-3.54111,-0.933139,-0.0632274,0.238972,
2,1,0,1,0,3762.24,0.243506,0.243223,0.286316,3,0.0234757,10,6.96387e-05,-3.54315,-5.17812,-0.0113941,0.242994,
2,1,0,1,0,3763.04,0.2475,0.247206,0.284929,3,0.0237209,10,7.04363e-05,-3.54526,-0.88688,-0.0665254,0.246979,
2,1,0,1,0,3763.84,0.251495,0.251173,0.28292,3,0.0239644,10,7.10619e-05,-3.54834,-1.47795,-0.0399201,0.250946,
2,1,0,0,0,3764.64,0.255491,0.255173,0.280809,3,0.0242067,10,7.16549e-05,-3.55159,-1.46588,-0.0402489,0.254949,
2,1,0,1,0,3765.44,0.259486,0.259175,0.280346,3,0.0244478,10,7.26588e-05,-3.55231,-1.24858,-0.0472536,0.258951,
2,1,0,0,0,3766.24,0.263481,0.263209,0.279067,3,0.0246875,10,7.3453e-05,-3.55429,-8.09518,-0.00728829,0.262986,
2,1,0,1,0,3767.04,0.267476,0.267194,0.276541,3,0.0249265,10,7.38902e-05,-3.55824,-1.62873,-0.0362245,0.266973,
2,1,0,1,0,3767.84,0.271471,0.271178,0.275772,3,0.0251643,10,7.47833e-05,-3.55945,-4.25607,-0.0138625,0.270957,
2,1,0,1,0,3768.63,0.275466,0.275203,0.27455,3,0.025401,10,7.5557e-05,-3.56138,-1.81482,-0.0325102,0.274983,
2,1,0,1,0,3769.43,0.279462,0.279237,0.273491,3,0.0256368,10,7.63689e-05,-3.56306,-2.22903,-0.026469,0.279018,
2,1,0,0,0,3770.23,0.283457,0.283198,0.272807,3,0.0258715,10,7.72582e-05,-3.56414,-3.51391,-0.0167904,0.282979,
2,1,0,1,0,3771.03,0.287452,0.287203,0.271694,3,0.0261056,10,7.80313e-05,-3.56592,-0.974352,-0.0605531,0.286985,
2,1,0,1,0,3771.83,0.291448,0.291158,0.270717,3,0.026339,10,7.88215e-05,-3.56748,-11.1965,-0.00526951,0.290942,
2,1,0,1,0,3772.63,0.295442,0.295135,0.26965,3,0.0265716,10,7.95829e-05,-3.5692,-71.7973,-0.000821758,0.294919,
2,1,0,1,0,3773.43,0.299437,0.2992,0.26796,3,0.0268036,10,8.01735e-05,-3.57193,-1.55307,-0.0379893,0.298985,
2,1,0,0,0,3774.23,0.303433,0.303118,0.26844,3,0.0270348,10,8.13691e-05,-3.57115,-3.28754,-0.0179465,0.302904,
2,1,0,1,0,3775.03,0.307428,0.307137,0.266368,3,0.0272651,10,8.18117e-05,-3.57452,-2.7914,-0.0211364,0.306924,
2,1,0,1,0,3775.83,0.311424,0.31113,0.266372,3,0.027495,10,8.28764e-05,-3.57451,-1.76552,-0.033418,0.310917,
2,1,0,1,0,3776.63,0.315418,0.315136,0.264356,3,0.0277238,10,8.33082e-05,-3.57781,3.40373,0.0173339,0.314925,
2,1,0,1,0,3777.42,0.319413,0.319124,0.264814,3,0.0279521,10,8.45084e-05,-3.57706,-1.55845,-0.0378582,0.318912,
2,1,0,0,0,3778.22,0.323409,0.323161,0.263299,3,0.0281798,10,8.50879e-05,-3.57955,-2.04096,-0.028908,0.322951,
2,1,0,1,0,3779.02,0.327404,0.327141,0.262825,3,0.0284069,10,8.59807e-05,-3.58033,-4.90542,-0.0120275,0.326931,
2,1,0,0,0,3779.82,0.331399,0.331134,0.261252,3,0.0286331,10,8.65094e-05,-3.58294,-4.79161,-0.0123132,0.330925,
2,1,0,1,0,3780.62,0.335395,0.335124,0.2599,3,0.0288587,10,8.70986e-05,-3.58519,-1.40687,-0.041937,0.334916,
2,1,0,1,0,3781.42,0.339389,0.339126,0.258479,3,0.0290834,10,8.76569e-05,-3.58757,3.09514,0.0190621,0.338919,
2,1,0,1,0,3782.22,0.343384,0.343089,0.260101,3,0.0293076,10,8.92378e-05,-3.58486,-1.47319,-0.0400491,0.342881,
2,1,0,1,0,3783.02,0.34738,0.347126,0.257677,3,0.0295312,10,8.94467e-05,-3.58892,-1.32875,-0.0444027,0.34692,
2,1,0,0,0,3783.82,0.351375,0.351103,0.25728,3,0.0297538,10,9.03317e-05,-3.58959,-1.16416,-0.0506802,0.350897,
2,1,0,1,0,3784.62,0.35537,0.355067,0.257041,3,0.0299757,10,9.12667e-05,-3.59,-12.1113,-0.0048715,0.354861,
2,1,0,1,0,3785.41,0.359365,0.359075,0.254352,3,0.0301967,10,9.13316e-05,-3.59456,-4.04351,-0.0145913,0.358872,
2,1,0,1,0,3786.21,0.36336,0.363103,0.253859,3,0.0304172,10,9.21769e-05,-3.59541,-2.09718,-0.0281331,0.3629,
2,1,0,1,0,3787.01,0.367355,0.367075,0.253265,3,0.030637,10,9.29673e-05,-3.59643,11.5055,0.00512797,0.366873,
2,1,0,0,0,3787.81,0.371351,0.371053,0.253802,3,0.0308563,10,9.41742e-05,-3.5955,-2.11789,-0.027858,0.37085,
2,1,0,1,0,3788.61,0.375346,0.375068,0.253191,3,0.0310753,10,9.4964e-05,-3.59655,6.53349,0.00903039,0.374866,
2,1,0,1,0,3789.41,0.379342,0.379066,0.25252,3,0.0312935,10,9.57218e-05,-3.5977,-1.22262,-0.0482572,0.378864,
2,1,0,1,0,3790.21,0.383336,0.383033,0.250647,3,0.0315112,10,9.60062e-05,-3.60094,12.861,0.0045875,0.382833,
2,1,0,1,0,3791.01,0.387331,0.387035,0.251735,3,0.0317287,10,9.74303e-05,-3.59906,-5.33997,-0.0110488,0.386834,
2,1,0,0,0,3791.81,0.391327,0.391075,0.249692,3,0.0319456,10,9.76482e-05,-3.6026,-4.94203,-0.0119384,0.390875,
2,1,0,1,0,3792.61,0.395322,0.395041,0.249181,3,0.032162,10,9.84366e-05,-3.60349,-1.54475,-0.0381938,0.394841,
2,1,0,0,0,3793.4,0.399317,0.399048,0.249792,3,0.0323783,10,9.9679e-05,-3.60242,2.03741,0.0289584,0.398848,
2,1,0,1,0,3794.2,0.403313,0.403071,0.248572,3,0.032594,10,0.000100192,-3.60455,-2.56395,-0.0230114,0.402872,
2,1,0,1,0,3795,0.407307,0.407049,0.249109,3,0.0328092,10,0.0001014,-3.60361,-1.56706,-0.0376501,0.40685,
2,1,0,1,0,3795.8,0.411302,0.41101,0.25093,3,0.0330242,10,0.000103135,-3.60045,-6.70078,-0.00880494,0.41081,
2,1,0,1,0,3796.6,0.415298,0.415076,0.247754,3,0.033239,10,0.000102837,-3.60598,3.76819,0.0156574,0.414878,
2,1,0,0,0,3797.4,0.419293,0.419021,0.248027,3,0.0334535,10,0.000103928,-3.6055,-2.08307,-0.0283236,0.418822,
2,1,0,1,0,3798.2,0.423288,0.422997,0.248134,3,0.0336676,10,0.00010496,-3.60531,3.05314,0.0193244,0.422799,
2,1,0,1,0,3799,0.427283,0.427032,0.246105,3,0.0338816,10,0.000105095,-3.60888,-1.33928,-0.0440536,0.426835,
2,1,0,1,0,3799.8,0.431278,0.431003,0.246417,3,0.0340953,10,0.000106206,-3.60833,2.99068,0.019728,0.430806,
2,1,0,1,0,3800.6,0.435273,0.434992,0.246274,3,0.0343086,10,0.000107128,-3.60858,15.5907,0.00378432,0.434795,
2,1,0,0,0,3801.4,0.439269,0.43901,0.246018,3,0.0345223,10,0.000108004,-3.60903,-7.64701,-0.00771543,0.438813,
2,1,0,1,0,3802.19,0.443264,0.443003,0.247196,3,0.0347357,10,0.000109509,-3.60696,1.98145,0.0297761,0.442805,
2,1,0,0,0,3802.99,0.447259,0.446976,0.246556,3,0.0349492,10,0.000110205,-3.60808,-2.61151,-0.0225923,0.446779,
2,1,0,1,0,3803.79,0.451254,0.451015,0.248332,3,0.035163,10,0.000112001,-3.60497,-2.94948,-0.0200035,0.450816,
2,1,0,1,0,3804.59,0.455249,0.454965,0.246738,3,0.0353766,10,0.000112257,-3.60776,0.999612,0.0590229,0.454768,
2,1,0,1,0,3805.39,0.459244,0.458973,0.246261,3,0.0355904,10,0.000113027,-3.6086,-2.27753,-0.0259052,0.458776,
2,1,0,1,0,3806.19,0.46324,0.46296,0.248143,3,0.0358046,10,0.00011488,-3.6053,1.66399,0.0354569,0.462761,
2,1,0,0,0,3806.99,0.467235,0.467018,0.24912,3,0.036019,10,0.000116344,-3.60359,2.23141,0.0264407,0.466819,
2,1,0,1,0,3807.79,0.471231,0.470959,0.24956,3,0.036234,10,0.000117533,-3.60282,-3.65568,-0.0161393,0.470759,
2,1,0,1,0,3808.59,0.475225,0.474967,0.251198,3,0.0364496,10,0.000119311,-3.59998,1.21484,0.048566,0.474766,
2,1,0,1,0,3809.39,0.47922,0.478958,0.250226,3,0.0366656,10,0.000119848,-3.60167,-1.87995,-0.0313838,0.478758,
2,1,0,1,0,3810.18,0.483216,0.482931,0.250946,3,0.0368824,10,0.00012119,-3.60042,1.44897,0.0407186,0.48273,
2,1,0,0,0,3810.98,0.487211,0.486887,0.251968,3,0.0370995,10,0.00012268,-3.59865,0.975819,0.060462,0.486685,
2,1,0,1,0,3811.78,0.491206,0.490899,0.251358,3,0.0373174,10,0.000123392,-3.59971,2.71004,0.0217709,0.490698,
2,1,0,1,0,3812.58,0.495201,0.494951,0.255457,3,0.0375363,10,0.000126439,-3.59268,-7.88385,-0.00748365,0.494747,
2,1,0,1,0,3813.38,0.499196,0.498899,0.255775,3,0.037756,10,0.000127606,-3.59214,0.804337,0.0733524,0.498695,
2,1,0,1,0,3814.18,0.503191,0.502938,0.25616,3,0.0379768,10,0.000128833,-3.59149,2.99193,0.0197197,0.502733,
2,1,0,0,0,3814.98,0.507187,0.506895,0.259136,3,0.0381984,10,0.000131355,-3.58647,57.6046,0.00102422,0.506687,
2,1,0,1,0,3815.78,0.511182,0.510915,0.259481,3,0.0384213,10,0.000132573,-3.58589,0.62964,0.0937044,0.510707,
2,1,0,0,0,3816.58,0.515177,0.514926,0.261672,3,0.0386458,10,0.000134742,-3.58224,44.4058,0.00132866,0.514717,
2,1,0,1,0,3817.38,0.519172,0.51894,0.26371,3,0.0388717,10,0.00013685,-3.57887,0.778151,0.0758207,0.518729,
2,1,0,1,0,3818.18,0.523167,0.522903,0.264982,3,0.0390995,10,0.00013856,-3.57678,0.891243,0.0661997,0.522692,
2,1,0,1,0,3818.97,0.527162,0.526928,0.268594,3,0.0393291,10,0.00014153,-3.5709,1.05594,0.0558745,0.526713,
2,1,0,1,0,3819.77,0.531158,0.530874,0.271175,3,0.0395609,10,0.00014396,-3.56675,0.969305,0.0608683,0.530657,
2,1,0,0,0,3820.57,0.535153,0.534917,0.274839,3,0.0397953,10,0.000147016,-3.56092,0.923991,0.0638534,0.534697,
2,1,0,1,0,3821.37,0.539148,0.538888,0.278772,3,0.0400324,10,0.000150227,-3.55475,0.46976,0.125596,0.538665,
2,1,0,1,0,3822.17,0.543143,0.542859,0.282707,3,0.0402728,10,0.00015347,-3.54866,0.569867,0.103533,0.542633,
2,1,0,1,0,3822.97,0.547138,0.546834,0.288031,3,0.0405168,10,0.000157505,-3.54056,0.587672,0.100396,0.546603,
2,1,0,1,0,3823.77,0.551133,0.550826,0.293707,3,0.0407646,10,0.000161781,-3.53209,0.416147,0.141777,0.550591,
2,1,0,0,0,3824.57,0.555129,0.554888,0.298442,3,0.0410174,10,0.000165602,-3.52514,0.54512,0.108233,0.554649,
2,1,0,1,0,3825.37,0.559124,0.558846,0.305539,3,0.0412745,10,0.000170749,-3.51493,0.40941,0.14411,0.558602,
2,1,0,1,0,3826.17,0.56312,0.562813,0.313746,3,0.0415369,10,0.00017658,-3.50342,0.326805,0.180536,0.562562,
2,1,0,1,0,3826.96,0.567114,0.566814,0.320459,3,0.0418057,10,0.000181641,-3.49423,0.354196,0.166574,0.566558,
2,1,0,1,0,3827.76,0.571109,0.570837,0.329031,3,0.0420812,10,0.000187823,-3.48276,0.314722,0.187467,0.570573,
2,1,0,0,0,3828.56,0.575105,0.574783,0.340731,3,0.0423643,10,0.000195846,-3.46759,0.290111,0.203371,0.57451,
2,1,0,1,0,3829.36,0.5791,0.578812,0.351782,3,0.0426563,10,0.000203616,-3.45373,0.273095,0.216042,0.578531,
2,1,0,0,0,3830.16,0.583095,0.582825,0.36516,3,0.0429585,10,0.000212824,-3.43752,0.213488,0.276362,0.582533,
2,1,0,1,0,3830.96,0.58709,0.586845,0.380616,3,0.0432729,10,0.000223363,-3.41951,0.198047,0.297909,0.586541,
2,1,0,1,0,3831.76,0.591085,0.590783,0.399939,3,0.0436015,10,0.000236277,-3.39801,0.179134,0.329362,0.590463,
2,1,0,1,0,3832.56,0.59508,0.594782,0.423043,3,0.0439462,10,0.000251618,-3.37362,0.162542,0.362984,0.594443,
2,1,0,1,0,3833.36,0.599076,0.598813,0.448384,3,0.04431,10,0.000268498,-3.34835,0.147379,0.400328,0.598454,
2,1,0,0,0,3834.16,0.603071,0.602787,0.479393,3,0.0446956,10,0.000288972,-3.31931,0.135293,0.436091,0.602404,
2,1,0,1,0,3834.95,0.607066,0.606805,0.512267,3,0.0451071,10,0.000310846,-3.2905,0.122546,0.481451,0.606395,
2,1,0,1,0,3835.75,0.611061,0.610769,0.553534,3,0.0455488,10,0.000338081,-3.25686,0.120534,0.489487,0.610326,
2,1,0,1,0,3836.55,0.615056,0.614781,0.600878,3,0.0460254,10,0.000369409,-3.22121,0.10088,0.584851,0.614301,
2,1,0,1,0,3837.35,0.619051,0.61881,0.658131,3,0.0465449,10,0.000407258,-3.18169,0.0976432,0.604241,0.618284,
2,1,0,0,0,3838.15,0.623047,0.622772,0.726889,3,0.0471138,10,0.000452686,-3.13853,0.0898884,0.656369,0.62219,
2,1,0,1,0,3838.95,0.627042,0.626775,0.806189,3,0.0477415,10,0.000505299,-3.09356,0.084819,0.695599,0.62613,
2,1,0,1,0,3839.75,0.631037,0.630774,0.900911,3,0.0484389,10,0.000568271,-3.04532,0.0789604,0.74721,0.630053,
2,1,0,1,0,3840.55,0.635032,0.634755,1.01149,3,0.0492178,10,0.000642048,-2.99504,0.0760566,0.775738,0.633946,
2,1,0,1,0,3841.35,0.639027,0.638788,1.14212,3,0.0500931,10,0.000729572,-2.94229,0.0705501,0.836285,0.637874,
2,1,0,1,0,3842.15,0.643022,0.642739,1.30124,3,0.0510836,10,0.00083636,-2.88564,0.0676946,0.871561,0.641698,
2,1,0,1,0,3842.95,0.647018,0.646771,1.48426,3,0.05221,10,0.000959973,-2.82849,0.0668331,0.882796,0.645583,
2,1,0,0,0,3843.74,0.651013,0.650755,1.69921,3,0.0534964,10,0.00110577,-2.76975,0.0622517,0.947766,0.649395,
2,1,0,1,0,3844.54,0.655008,0.654763,1.95659,3,0.0549722,10,0.0012811,-2.7085,0.0616512,0.956997,0.653198,
2,1,0,1,0,3845.34,0.659003,0.658778,2.25679,3,0.0566695,10,0.00148672,-2.64651,0.0593411,0.994252,0.656972,
2,1,0,1,0,3846.14,0.662998,0.662724,2.60686,3,0.0586262,10,0.00172763,-2.58388,0.0597152,0.988023,0.660639,
2,1,0,1,0,3846.94,0.666994,0.666773,3.01053,3,0.0608832,10,0.00200734,-2.52136,0.0584031,1.01022,0.664365,
2,1,0,0,0,3847.74,0.670989,0.670732,3.47655,3,0.0634875,10,0.00233183,-2.45885,0.0575708,1.02483,0.66795,
2,1,0,1,0,3848.54,0.674984,0.674803,4.00668,3,0.0664894,10,0.00270372,-2.39722,0.0578327,1.02018,0.671597,
2,1,0,1,0,3849.34,0.678979,0.678735,4.60503,3,0.0699427,10,0.0031256,-2.33677,0.0581088,1.01534,0.675051,
2,1,0,1,0,3850.14,0.682974,0.682712,5.27702,3,0.0739044,10,0.00360269,-2.27761,0.0586676,1.00567,0.678491,
2,1,0,1,0,3850.94,0.686969,0.686767,6.02151,3,0.0784315,10,0.00413537,-2.22029,0.0607793,0.970725,0.68195,
2,1,0,0,0,3851.73,0.690965,0.690708,6.83641,3,0.0835825,10,0.00472196,-2.16517,0.0607879,0.970587,0.685238,
2,1,0,1,0,3852.53,0.69496,0.694703,7.72179,3,0.0894121,10,0.00536436,-2.11228,0.0631533,0.934234,0.688526,
2,1,0,0,0,3853.33,0.698955,0.69866,8.66413,3,0.0959717,10,0.00605328,-2.06227,0.0659198,0.895027,0.691728,
2,1,0,1,0,3854.13,0.70295,0.702682,9.66443,3,0.103311,10,0.00679102,-2.01482,0.0687086,0.858699,0.69495,
2,1,0,1,0,3854.93,0.706945,0.706732,10.7172,3,0.111469,10,0.00757417,-1.96992,0.072892,0.809416,0.698159,
2,1,0,1,0,3855.73,0.71094,0.710685,11.8026,3,0.120481,10,0.0083879,-1.92802,0.0758821,0.777522,0.701243,
2,1,0,1,0,3856.53,0.714936,0.714715,12.9232,3,0.130377,10,0.00923642,-1.88863,0.0817512,0.721702,0.704377,
2,1,0,0,0,3857.33,0.718931,0.718737,14.078,3,0.141179,10,0.0101184,-1.85146,0.0834887,0.706682,0.707475,
2,1,0,1,0,3858.13,0.722927,0.722691,15.2647,3,0.152919,10,0.0110317,-1.81631,0.0889301,0.663442,0.710479,
2,1,0,1,0,3858.93,0.726921,0.726662,16.5056,3,0.16563,10,0.011994,-1.78237,0.0901496,0.654468,0.713457,
2,1,0,1,0,3859.72,0.730916,0.730634,17.7995,3,0.179349,10,0.0130049,-1.74959,0.0897531,0.657359,0.716394,
2,1,0,1,0,3860.52,0.734911,0.734675,19.1549,3,0.194129,10,0.0140726,-1.71772,0.0916543,0.643723,0.719351,
2,1,0,0,0,3861.32,0.738907,0.73868,20.583,3,0.21002,10,0.0152042,-1.68649,0.0913124,0.646133,0.722214,
2,1,0,1,0,3862.12,0.742902,0.742623,22.0447,3,0.227069,10,0.0163709,-1.6567,0.0992295,0.594581,0.724987,
2,1,0,1,0,3862.92,0.746897,0.746686,23.549,3,0.245299,10,0.0175837,-1.62803,0.0937203,0.629533,0.727847,
2,1,0,1,0,3863.72,0.750892,0.750646,25.1646,3,0.264771,10,0.0188897,-1.59921,0.0946479,0.623363,0.730515,
2,1,0,1,0,3864.52,0.754887,0.754608,26.7752,3,0.285553,10,0.0202048,-1.57227,0.102432,0.575991,0.733188,
2,1,0,0,0,3865.32,0.758883,0.758695,28.4749,3,0.30765,10,0.0216037,-1.54554,0.104029,0.567148,0.735915,
2,1,0,1,0,3866.12,0.762878,0.762621,30.164,3,0.331091,10,0.0230037,-1.52051,0.110203,0.535376,0.73849,
2,1,0,0,0,3866.92,0.766873,0.766641,31.7978,3,0.35587,10,0.0243775,-1.4976,0.120228,0.490732,0.741203,
2,1,0,1,0,3867.72,0.770868,0.770641,33.5327,3,0.381968,10,0.0258417,-1.47453,0.105838,0.557455,0.743815,
2,1,0,1,0,3868.51,0.774863,0.774621,35.281,3,0.409505,10,0.0273294,-1.45246,0.119327,0.494438,0.746396,
2,1,0,1,0,3869.31,0.778858,0.778627,37.0792,3,0.438441,10,0.0288709,-1.43087,0.127645,0.462221,0.748963,
2,1,0,1,0,3870.11,0.782854,0.782605,38.8482,3,0.468788,10,0.0304028,-1.41063,0.128561,0.458925,0.751526,
2,1,0,0,0,3870.91,0.786849,0.786604,40.5962,3,0.500547,10,0.0319332,-1.39151,0.134279,0.439383,0.754127,
2,1,0,1,0,3871.71,0.790844,0.790619,42.3965,3,0.533735,10,0.0335195,-1.37267,0.162921,0.362138,0.756702,
2,1,0,1,0,3872.51,0.794839,0.794593,43.8928,3,0.568229,10,0.0348769,-1.35761,0.176455,0.334362,0.759478,
2,1,0,1,0,3873.31,0.798834,0.798581,45.5462,3,0.603964,10,0.0363724,-1.34155,0.174168,0.338754,0.762144,
2,1,0,1,0,3874.11,0.802829,0.802636,47.0929,3,0.641,10,0.0377985,-1.32704,0.204351,0.28872,0.764962,
2,1,0,0,0,3874.91,0.806825,0.80661,48.631,3,0.679234,10,0.0392263,-1.31309,0.170918,0.345195,0.767705,
2,1,0,1,0,3875.71,0.81082,0.81064,50.2732,3,0.718815,10,0.0407534,-1.29866,0.259207,0.227617,0.770421,
2,1,0,1,0,3876.5,0.814815,0.81454,51.5622,3,0.75951,10,0.0419995,-1.28767,0.520324,0.113391,0.77329,
2,1,0,1,0,3877.3,0.81881,0.818525,52.3629,3,0.800882,10,0.0428603,-1.28098,0.25507,0.231309,0.776634,
2,1,0,1,0,3878.1,0.822805,0.8226,53.6996,3,0.843259,10,0.0441733,-1.27003,0.275685,0.214013,0.779641,
2,1,0,0,0,3878.9,0.826801,0.826594,54.8195,3,0.886656,10,0.0453135,-1.26106,0.662208,0.0890959,0.782739,
2,1,0,1,0,3879.7,0.830796,0.830612,55.7367,3,0.930824,10,0.0462956,-1.25386,0.302689,0.19492,0.786023,
2,1,0,0,0,3880.5,0.834791,0.834569,56.7162,3,0.975754,10,0.0473336,-1.24629,0.389476,0.151485,0.789196,
2,1,0,1,0,3881.3,0.838786,0.838556,57.9528,3,1.02159,10,0.0485967,-1.23693,0.311735,0.189263,0.792194,
2,1,0,1,0,3882.1,0.842781,0.842521,58.9245,3,1.06835,10,0.0496451,-1.2297,0.692634,0.0851821,0.795381,
2,1,0,1,0,3882.9,0.846776,0.846546,59.4809,3,1.1157,10,0.0503533,-1.22562,0.539886,0.109282,0.798961,
2,1,0,0,0,3883.6,0.849723,0.849543,60.1284,3,1.15766,10,0.0510817,-1.22092,-0.0062418,-9.45241,0.80144,
2,1,0,1,0,3884.4,0.845728,0.845505,57.9786,3,1.20464,10,0.0490212,-1.23673,0.268168,0.220012,0.799122,
2,1,0,0,0,3885.19,0.841732,0.841538,56.8209,3,1.25045,10,0.0478169,-1.24549,0.36127,0.163313,0.796081,
2,1,0,1,0,3885.99,0.837737,0.837521,55.5039,3,1.29532,10,0.0464857,-1.25568,0.289338,0.203914,0.793117,
2,1,0,1,0,3886.79,0.833742,0.833505,54.2186,3,1.3391,10,0.0451915,-1.26585,0.370597,0.159202,0.79013,
2,1,0,1,0,3887.59,0.829747,0.829511,53.0384,3,1.382,10,0.043996,-1.27541,0.221672,0.266159,0.78708,
2,1,0,1,0,3888.39,0.825752,0.825509,51.5886,3,1.42377,10,0.0425868,-1.28745,0.248713,0.237221,0.784238,
2,1,0,0,0,3889.19,0.821757,0.821514,50.3177,3,1.46443,10,0.0413367,-1.29828,0.267213,0.220798,0.78126,
2,1,0,1,0,3889.99,0.817761,0.81756,48.8457,3,1.50404,10,0.0399343,-1.31117,0.229786,0.256761,0.778484,
2,1,0,1,0,3890.79,0.813766,0.813553,47.4914,3,1.54252,10,0.0386368,-1.32338,1.01936,0.0578793,0.77556,
2,1,0,1,0,3891.59,0.809771,0.809493,47.0834,3,1.5804,10,0.0381137,-1.32713,0.20616,0.286186,0.771827,
2,1,0,1,0,3892.39,0.805776,0.805499,45.514,3,1.61736,10,0.0366615,-1.34186,0.168389,0.350378,0.769088,
2,1,0,0,0,3893.18,0.801781,0.801539,43.7758,3,1.65303,10,0.035088,-1.35877,0.140925,0.418661,0.766519,
2,1,0,1,0,3893.98,0.797786,0.797562,41.9593,3,1.68724,10,0.0334651,-1.37717,0.141392,0.417279,0.763994,
2,1,0,1,0,3894.78,0.79379,0.793523,40.2178,3,1.72005,10,0.0319137,-1.39558,0.136657,0.431737,0.761349,
2,1,0,1,0,3895.58,0.789795,0.789522,38.1812,3,1.7514,10,0.0301449,-1.41815,0.104686,0.563588,0.758977,
2,1,0,1,0,3896.38,0.7858,0.785554,36.4159,3,1.78118,10,0.0286067,-1.43871,0.124525,0.473802,0.756421,
2,1,0,0,0,3897.18,0.781805,0.781541,34.6982,3,1.80958,10,0.0271181,-1.45969,0.121776,0.484498,0.753782,
2,1,0,1,0,3897.98,0.77781,0.777544,32.8987,3,1.83657,10,0.0255802,-1.48282,0.107847,0.547072,0.751225,
2,1,0,0,0,3898.78,0.773814,0.773577,31.0703,3,1.86212,10,0.0240353,-1.50765,0.0918648,0.642248,0.748721,
2,1,0,1,0,3899.58,0.769819,0.769607,29.168,3,1.88617,10,0.0224479,-1.53509,0.0880974,0.669713,0.746272,
2,1,0,1,0,3900.38,0.765824,0.765572,27.3139,3,1.9087,10,0.0209108,-1.56362,0.0899199,0.656139,0.743721,
2,1,0,1,0,3901.18,0.761829,0.761561,25.5514,3,1.9298,10,0.0194589,-1.59259,0.0840934,0.701601,0.74112,
2,1,0,1,0,3901.97,0.757834,0.757601,23.8173,3,1.94948,10,0.018044,-1.62311,0.0857557,0.688001,0.738547,
2,1,0,0,0,3902.77,0.753839,0.753611,22.1205,3,1.96781,10,0.0166702,-1.65521,0.0831955,0.709173,0.735915,
2,1,0,1,0,3903.57,0.749843,0.749589,20.4474,3,1.98479,10,0.0153271,-1.68936,0.0741779,0.795385,0.733231,
2,1,0,1,0,3904.37,0.745848,0.745594,18.8746,3,2.00048,10,0.0140728,-1.72412,0.0787366,0.749334,0.730494,
2,1,0,1,0,3905.17,0.741853,0.741607,17.3762,3,2.01493,10,0.0128863,-1.76005,0.0763085,0.773177,0.727706,
2,1,0,1,0,3905.97,0.737858,0.737622,15.892,3,2.0282,10,0.0117223,-1.79882,0.0708501,0.832744,0.724908,
2,1,0,0,0,3906.77,0.733863,0.733635,14.4738,3,2.04031,10,0.0106185,-1.83942,0.0707729,0.833652,0.722056,
2,1,0,1,0,3907.57,0.729868,0.729652,13.1511,3,2.05132,10,0.00959574,-1.88104,0.0689026,0.856281,0.719131,
2,1,0,1,0,3908.37,0.725872,0.725644,11.9023,3,2.0613,10,0.00863681,-1.92437,0.0703667,0.838464,0.716122,
2,1,0,1,0,3909.17,0.721877,0.721613,10.7282,3,2.07032,10,0.00774162,-1.96947,0.0658627,0.895802,0.71303,
2,1,0,1,0,3909.96,0.717882,0.717678,9.61312,3,2.07843,10,0.00689913,-2.01714,0.0644999,0.91473,0.709988,
2,1,0,0,0,3910.76,0.713887,0.71366,8.56202,3,2.08567,10,0.00611037,-2.06742,0.0617395,0.955628,0.70681,
2,1,0,1,0,3911.56,0.709892,0.709617,7.5931,3,2.0921,10,0.00538819,-2.11958,0.0609685,0.967713,0.703542,
2,1,0,0,0,3912.36,0.705897,0.705655,6.70043,3,2.09779,10,0.00472819,-2.1739,0.0603764,0.977203,0.700295,
2,1,0,1,0,3913.16,0.701901,0.701677,5.88275,3,2.10279,10,0.00412779,-2.23042,0.0570416,1.03433,0.696971,
2,1,0,1,0,3913.96,0.697906,0.69764,5.13325,3,2.10717,10,0.00358116,-2.28961,0.0572771,1.03008,0.693534,
2,1,0,1,0,3914.76,0.693911,0.693641,4.46204,3,2.11098,10,0.00309506,-2.35047,0.0569818,1.03542,0.690071,
2,1,0,1,0,3915.56,0.689916,0.689662,3.85847,3,2.11428,10,0.00266104,-2.41358,0.0547469,1.07769,0.686575,
2,1,0,0,0,3916.36,0.685921,0.685678,3.32082,3,2.11713,10,0.00227702,-2.47875,0.0540121,1.09235,0.683021,
2,1,0,1,0,3917.16,0.681926,0.681694,2.84559,3,2.11957,10,0.00193982,-2.54583,0.0532655,1.10766,0.679418,
2,1,0,1,0,3917.96,0.67793,0.677644,2.42392,3,2.12165,10,0.00164255,-2.61548,0.0527103,1.11933,0.675705,
2,1,0,1,0,3918.75,0.673935,0.67369,2.05616,3,2.12342,10,0.00138521,-2.68694,0.0511291,1.15394,0.672045,
2,1,0,1,0,3919.55,0.66994,0.66971,1.73615,3,2.12492,10,0.00116272,-2.76041,0.0498069,1.18458,0.668321,
2,1,0,0,0,3920.35,0.665945,0.665694,1.45968,3,2.12618,10,0.000971697,-2.83574,0.0507278,1.16307,0.664526,
2,1,0,1,0,3921.15,0.66195,0.661726,1.22242,3,2.12723,10,0.00080891,-2.91278,0.0480182,1.2287,0.660748,
2,1,0,0,0,3921.95,0.657955,0.657706,1.01868,3,2.1281,10,0.000669991,-2.99196,0.0490225,1.20353,0.656891,
2,1,0,1,0,3922.75,0.653959,0.653681,0.845629,3,2.12883,10,0.000552772,-3.07282,0.0461208,1.27925,0.653004,
2,1,0,1,0,3923.55,0.649964,0.649738,0.699971,3,2.12943,10,0.000454798,-3.15492,0.0466707,1.26418,0.649178,
2,1,0,1,0,3924.35,0.645969,0.64573,0.575209,3,2.12992,10,0.000371429,-3.24017,0.0465842,1.26652,0.64527,
2,1,0,1,0,3925.15,0.641974,0.641775,0.471677,3,2.13032,10,0.000302711,-3.32636,0.0447847,1.31741,0.641398,
2,1,0,0,0,3925.95,0.637979,0.637746,0.384033,3,2.13065,10,0.000244915,-3.41563,0.0421948,1.39828,0.637438,
2,1,0,1,0,3926.74,0.633983,0.633768,0.309279,3,2.13091,10,0.000196011,-3.50965,0.0427808,1.37912,0.63352,
2,1,0,1,0,3927.54,0.629988,0.629704,0.246833,3,2.13111,10,0.000155432,-3.6076,0.0378779,1.55763,0.629507,
2,1,0,1,0,3928.34,0.625993,0.625763,0.195931,3,2.13127,10,0.000122606,-3.7079,0.0382605,1.54206,0.625606,
2,1,0,1,0,3929.14,0.621998,0.621777,0.151961,3,2.13139,10,9.44857e-05,-3.81827,0.0347204,1.69929,0.621655,
2,1,0,0,0,3929.94,0.618003,0.617779,0.115436,3,2.13148,10,7.1314e-05,-3.93766,0.0292431,2.01757,0.617687,
2,1,0,1,0,3930.74,0.614008,0.613761,0.0844972,3,2.13155,10,5.18611e-05,-4.07316,0.0285408,2.06721,0.613694,
2,1,0,1,0,3931.54,0.610012,0.609762,0.0582061,3,2.13159,10,3.54919e-05,-4.23503,0.0218463,2.70068,0.609716,
2,1,0,1,0,3932.34,0.606017,0.605742,0.0362454,3,2.13161,10,2.19554e-05,-4.44075,0.0157235,3.75235,0.605713,
2,1,0,1,0,3933.14,0.602022,0.601772,0.0175484,3,2.13161,10,1.05601e-05,-4.75576,0.00934672,6.31238,0.601758,
2,1,0,0,0,3933.94,0.598027,0.597761,0.00136843,3,2.1316,10,8.17994e-07,-5.86378,0.0214871,2.74583,0.59776,
2,1,0,1,0,3934.73,0.594032,0.593753,-0.0104939,3,2.13158,10,-6.23075e-06,-4.97906,-0.009017,-6.54319,0.593761,
2,0,0,0,0,3935.53,0.590037,0.589782,-0.0210075,3,2.13155,10,-1.23899e-05,-4.67763,-0.0203085,-2.90519,0.589799,
2,0,0,1,0,3936.33,0.586041,0.585769,-0.0322366,3,2.13152,10,-1.88832e-05,-4.49165,-0.0360722,-1.63561,0.585795,
2,0,0,1,0,3937.13,0.582046,0.581742,-0.03877,3,2.13147,10,-2.25542e-05,-4.4115,-0.0451049,-1.30806,0.581773,
2,0,0,1,0,3937.93,0.578052,0.577832,-0.0463172,3,2.13142,10,-2.67636e-05,-4.33426,-0.0638429,-0.924144,0.577869,
2,0,0,1,0,3938.73,0.574056,0.5738,-0.052762,3,2.13136,10,-3.02748e-05,-4.27768,-0.0774451,-0.76183,0.573842,
2,0,0,0,0,3939.53,0.570061,0.569814,-0.0573997,3,2.1313,10,-3.27072e-05,-4.24109,-0.148984,-0.396015,0.56986,
2,0,0,1,0,3940.33,0.566065,0.565824,-0.0624529,3,2.13124,10,-3.53373e-05,-4.20445,-0.118182,-0.499228,0.565874,
2,0,0,1,0,3941.13,0.56207,0.561831,-0.0667281,3,2.13117,10,-3.74899e-05,-4.17569,-0.161065,-0.366311,0.561884,
2,0,0,1,0,3941.93,0.558075,0.557788,-0.0694714,3,2.1311,10,-3.87503e-05,-4.15819,-0.240454,-0.245369,0.557844,
2,0,0,1,0,3942.73,0.55408,0.553826,-0.0726216,3,2.13102,10,-4.02198e-05,-4.13893,-0.205009,-0.287793,0.553885,
2,0,0,0,0,3943.52,0.550085,0.549847,-0.0759006,3,2.13095,10,-4.17338e-05,-4.11975,-0.412101,-0.143169,0.549908,
2,0,0,1,0,3944.32,0.54609,0.545836,-0.0771889,3,2.13087,10,-4.21325e-05,-4.11245,-0.196574,-0.300142,0.545898,
2,0,0,1,0,3945.12,0.542094,0.541838,-0.0796874,3,2.13079,10,-4.31776e-05,-4.09861,-0.974665,-0.0605336,0.541902,
2,0,0,1,0,3945.92,0.538099,0.537869,-0.0824098,3,2.1307,10,-4.43257e-05,-4.08402,-0.247762,-0.238132,0.537935,
2,0,0,1,0,3946.72,0.534104,0.533843,-0.0837371,3,2.13062,10,-4.47024e-05,-4.07708,-0.420481,-0.140315,0.53391,
2,0,0,0,0,3947.52,0.530109,0.52984,-0.086111,3,2.13054,10,-4.5625e-05,-4.06494,-3.44364,-0.017133,0.529909,
2,0,0,1,0,3948.32,0.526114,0.525813,-0.0875892,3,2.13045,10,-4.60556e-05,-4.05755,-0.282206,-0.209068,0.525883,
2,0,0,0,0,3949.12,0.522119,0.521843,-0.0884725,3,2.13036,10,-4.61688e-05,-4.05319,-1.17128,-0.0503723,0.521914,
2,0,0,1,0,3949.92,0.518123,0.517837,-0.0896456,3,2.13027,10,-4.64218e-05,-4.04747,-0.431714,-0.136665,0.517908,
2,0,0,1,0,3950.72,0.514128,0.513869,-0.0909977,3,2.13018,10,-4.67609e-05,-4.04097,-1.50747,-0.0391385,0.513942,
2,0,0,1,0,3951.51,0.510133,0.509853,-0.0931898,3,2.13009,10,-4.75131e-05,-4.03063,-0.672484,-0.0877344,0.509928,
2,0,0,1,0,3952.31,0.506138,0.505852,-0.0934577,3,2.13,10,-4.72758e-05,-4.02938,-2.74319,-0.0215078,0.505927,
2,0,0,0,0,3953.11,0.502143,0.5019,-0.0946783,3,2.12991,10,-4.7519e-05,-4.02375,-0.283624,-0.208022,0.501976,
2,0,0,1,0,3953.91,0.498148,0.497841,-0.0961421,3,2.12982,10,-4.78635e-05,-4.01709,-2.18072,-0.0270553,0.497918,
2,0,0,1,0,3954.71,0.494152,0.493857,-0.0987222,3,2.12972,10,-4.87546e-05,-4.00559,-0.629526,-0.0937213,0.493936,
2,0,0,1,0,3955.51,0.490157,0.489891,-0.10097,3,2.12963,10,-4.94643e-05,-3.99581,-0.281506,-0.209587,0.489972,
2,0,0,1,0,3956.31,0.486162,0.485889,-0.100902,3,2.12953,10,-4.90272e-05,-3.9961,1.19401,0.0494135,0.48597,
2,0,0,0,0,3957.11,0.482167,0.481879,-0.102749,3,2.12943,10,-4.95127e-05,-3.98822,-0.530183,-0.111282,0.481961,
2,0,0,1,0,3957.91,0.478172,0.477888,-0.103456,3,2.12933,10,-4.94405e-05,-3.98524,-0.521964,-0.113035,0.477971,
2,0,0,0,0,3958.71,0.474177,0.473934,-0.105612,3,2.12923,10,-5.00532e-05,-3.97629,4.64084,0.0127132,0.474019,
2,0,0,1,0,3959.5,0.470181,0.469911,-0.105915,3,2.12913,10,-4.97704e-05,-3.97504,-0.246357,-0.239489,0.469996,
2,0,0,1,0,3960.3,0.466186,0.465929,-0.10745,3,2.12903,10,-5.00639e-05,-3.96879,5.35387,0.0110201,0.466015,
2,0,0,1,0,3961.1,0.462191,0.461879,-0.109937,3,2.12892,10,-5.07778e-05,-3.95885,-0.505491,-0.116718,0.461967,
2,0,0,1,0,3961.9,0.458196,0.457903,-0.111354,3,2.12882,10,-5.09891e-05,-3.9533,-0.582724,-0.101249,0.457992,
2,0,0,0,0,3962.7,0.454201,0.45392,-0.111421,3,2.12871,10,-5.05763e-05,-3.95303,-0.390892,-0.150937,0.454009,
2,0,0,1,0,3963.5,0.450205,0.449934,-0.114575,3,2.1286,10,-5.15513e-05,-3.94091,2.21265,0.0266649,0.450026,
2,0,0,1,0,3964.3,0.44621,0.44594,-0.11649,3,2.12849,10,-5.19477e-05,-3.93371,-0.378948,-0.155694,0.446033,
2,0,0,1,0,3965.1,0.442215,0.441962,-0.118614,3,2.12838,10,-5.24228e-05,-3.92586,-1.43325,-0.0411651,0.442057,
2,0,0,1,0,3965.9,0.43822,0.437936,-0.119238,3,2.12827,10,-5.22185e-05,-3.92359,-0.282002,-0.209219,0.438032,
2,0,0,0,0,3966.7,0.434225,0.433968,-0.122082,3,2.12816,10,-5.29798e-05,-3.91335,-0.70162,-0.0840911,0.434066,
2,0,0,1,0,3967.5,0.43023,0.429925,-0.123861,3,2.12804,10,-5.32508e-05,-3.90707,-0.531523,-0.111002,0.430024,
2,0,0,1,0,3968.29,0.426234,0.426001,-0.125347,3,2.12792,10,-5.33979e-05,-3.90189,-0.475926,-0.123969,0.426101,
2,0,0,1,0,3969.09,0.422239,0.421955,-0.128203,3,2.12781,10,-5.40958e-05,-3.8921,-1.43067,-0.0412395,0.422058,
2,0,0,1,0,3969.89,0.418244,0.417975,-0.129944,3,2.12769,10,-5.43135e-05,-3.88624,-0.371481,-0.158824,0.418079,
2,0,0,0,0,3970.69,0.414249,0.414028,-0.131665,3,2.12756,10,-5.45132e-05,-3.88053,-0.9771,-0.0603827,0.414134,
2,0,0,1,0,3971.49,0.410254,0.409996,-0.134588,3,2.12744,10,-5.51804e-05,-3.87099,-2.1587,-0.0273312,0.410103,
2,0,0,0,0,3972.29,0.406259,0.406022,-0.136451,3,2.12731,10,-5.54021e-05,-3.86502,-0.284917,-0.207078,0.406132,
2,0,0,1,0,3973.09,0.402263,0.401965,-0.140011,3,2.12719,10,-5.62794e-05,-3.85384,-1.18483,-0.0497963,0.402077,
2,0,0,1,0,3973.89,0.398268,0.398013,-0.141369,3,2.12706,10,-5.62668e-05,-3.84965,-0.327405,-0.180205,0.398126,
2,0,0,1,0,3974.69,0.394273,0.394003,-0.144173,3,2.12693,10,-5.68047e-05,-3.84112,-0.938246,-0.0628833,0.394119,
2,0,0,1,0,3975.49,0.390278,0.389973,-0.145531,3,2.1268,10,-5.67533e-05,-3.83704,-0.640296,-0.0921449,0.39009,
2,0,0,0,0,3976.28,0.386283,0.386028,-0.148969,3,2.12666,10,-5.75063e-05,-3.8269,-0.546004,-0.108058,0.386148,
2,0,0,1,0,3977.08,0.382287,0.382041,-0.150876,3,2.12652,10,-5.76408e-05,-3.82138,-0.403165,-0.146342,0.382162,
2,0,0,1,0,3977.88,0.378292,0.378,-0.152807,3,2.12639,10,-5.77611e-05,-3.81586,6.17909,0.00954834,0.378122,
2,0,0,1,0,3978.68,0.374297,0.373986,-0.155494,3,2.12625,10,-5.81527e-05,-3.80829,-0.371324,-0.158891,0.37411,
2,0,0,1,0,3979.48,0.370302,0.370019,-0.158464,3,2.1261,10,-5.86346e-05,-3.80007,-0.801279,-0.0736323,0.370146,
2,0,0,0,0,3980.28,0.366307,0.366033,-0.160723,3,2.12596,10,-5.88298e-05,-3.79392,-0.372832,-0.158248,0.366162,
2,0,0,1,0,3981.08,0.362312,0.362051,-0.162295,3,2.12581,10,-5.8759e-05,-3.7897,-0.734983,-0.0802739,0.36218,
2,0,0,1,0,3981.88,0.358316,0.358007,-0.165528,3,2.12566,10,-5.926e-05,-3.78113,-1.04784,-0.0563061,0.358139,
2,0,0,1,0,3982.68,0.354321,0.354073,-0.167445,3,2.12551,10,-5.92879e-05,-3.77613,-0.456146,-0.129344,0.354207,
2,0,0,1,0,3983.48,0.350327,0.350072,-0.168839,3,2.12536,10,-5.91059e-05,-3.77253,-1.19652,-0.0493098,0.350208,
2,0,0,0,0,3984.27,0.346331,0.346006,-0.171653,3,2.12521,10,-5.93928e-05,-3.76535,-1.07568,-0.0548492,0.346143,
2,0,0,1,0,3985.07,0.342336,0.342035,-0.174727,3,2.12505,10,-5.97628e-05,-3.75764,-0.38191,-0.154487,0.342175,
2,0,0,0,0,3985.87,0.338341,0.338056,-0.178042,3,2.12489,10,-6.01882e-05,-3.74948,-0.60644,-0.0972891,0.338198,
2,0,0,1,0,3986.67,0.334345,0.33407,-0.179144,3,2.12473,10,-5.98467e-05,-3.7468,-0.667407,-0.0884018,0.334214,
2,0,0,1,0,3987.47,0.33035,0.330076,-0.182208,3,2.12457,10,-6.01425e-05,-3.73943,-0.495719,-0.119019,0.330222,
2,0,0,1,0,3988.27,0.326355,0.326093,-0.186245,3,2.12441,10,-6.0733e-05,-3.72992,-0.82693,-0.0713482,0.326242,
2,0,0,1,0,3989.07,0.32236,0.322047,-0.187443,3,2.12424,10,-6.03655e-05,-3.72713,-0.654443,-0.090153,0.322197,
2,0,0,0,0,3989.87,0.318365,0.318051,-0.189429,3,2.12407,10,-6.02482e-05,-3.72255,-0.640772,-0.0920765,0.318203,
2,0,0,1,0,3990.67,0.31437,0.314116,-0.193701,3,2.1239,10,-6.08445e-05,-3.71287,-2.92432,-0.0201756,0.314271,
2,0,0,1,0,3991.47,0.310374,0.310142,-0.196127,3,2.12373,10,-6.08272e-05,-3.70746,-0.392647,-0.150262,0.310299,
2,0,0,1,0,3992.27,0.306379,0.306078,-0.19856,3,2.12355,10,-6.07748e-05,-3.70211,-0.876092,-0.0673445,0.306237,
2,0,0,1,0,3993.06,0.302385,0.302092,-0.200621,3,2.12337,10,-6.0606e-05,-3.69762,-0.566666,-0.104118,0.302253,
2,0,0,0,0,3993.86,0.298389,0.298125,-0.203846,3,2.12319,10,-6.07716e-05,-3.6907,-0.558767,-0.10559,0.298288,
2,0,0,1,0,3994.66,0.294394,0.294102,-0.205494,3,2.12301,10,-6.0436e-05,-3.6872,-4.42298,-0.0133394,0.294266,
2,0,0,1,0,3995.46,0.290398,0.290073,-0.208473,3,2.12283,10,-6.04725e-05,-3.68095,-0.66285,-0.0890096,0.29024,
2,0,0,1,0,3996.26,0.286403,0.286096,-0.210448,3,2.12264,10,-6.02083e-05,-3.67685,-0.509188,-0.115871,0.286264,
2,0,0,1,0,3997.06,0.282408,0.282141,-0.214351,3,2.12245,10,-6.04771e-05,-3.66887,-1.69229,-0.034864,0.282312,
2,0,0,1,0,3997.86,0.278413,0.278177,-0.216607,3,2.12226,10,-6.02552e-05,-3.66433,-0.509265,-0.115853,0.27835,
2,0,0,1,0,3998.66,0.274418,0.274156,-0.218401,3,2.12207,10,-5.98759e-05,-3.66074,-0.894801,-0.0659365,0.27433,
2,0,0,0,0,3999.46,0.270423,0.27012,-0.222126,3,2.12188,10,-6.00006e-05,-3.6534,-0.5558,-0.106153,0.270297,
2,0,0,1,0,4000.26,0.266427,0.266142,-0.226241,3,2.12168,10,-6.02122e-05,-3.64543,-0.783672,-0.0752866,0.266323,
2,0,0,1,0,4001.05,0.262432,0.262151,-0.2284,3,2.12148,10,-5.98752e-05,-3.6413,-0.724699,-0.0814131,0.262333,
2,0,0,1,0,4001.85,0.258437,0.258194,-0.231035,3,2.12128,10,-5.96518e-05,-3.63632,-0.878964,-0.0671245,0.258378,
2,0,0,1,0,4002.65,0.254442,0.254161,-0.232928,3,2.12108,10,-5.92012e-05,-3.63278,-0.493354,-0.11959,0.254347,
2,0,0,0,0,4003.45,0.250447,0.250196,-0.236412,3,2.12087,10,-5.91492e-05,-3.62633,4.64252,0.0127086,0.250385,
2,0,0,1,0,4004.25,0.246452,0.246152,-0.239526,3,2.12066,10,-5.896e-05,-3.62065,-0.477152,-0.12365,0.246344,
2,0,0,1,0,4005.05,0.242456,0.242151,-0.244557,3,2.12045,10,-5.92197e-05,-3.61162,-0.619698,-0.0952077,0.242347,
2,0,0,1,0,4005.85,0.238461,0.238147,-0.246276,3,2.12024,10,-5.865e-05,-3.60858,-0.408909,-0.144286,0.238344,
2,0,0,1,0,4006.65,0.234466,0.234163,-0.250733,3,2.12002,10,-5.87123e-05,-3.60079,-0.702448,-0.083992,0.234363,
2,0,0,0,0,4007.45,0.230471,0.23017,-0.253034,3,2.1198,10,-5.82408e-05,-3.59682,-0.845707,-0.0697641,0.230372,
2,0,0,1,0,4008.25,0.226476,0.226238,-0.257448,3,2.11958,10,-5.82445e-05,-3.58931,-0.661202,-0.0892314,0.226444,
2,0,0,0,0,4009.04,0.222481,0.22217,-0.260058,3,2.11936,10,-5.77771e-05,-3.58493,-0.682172,-0.0864885,0.222378,
2,0,0,1,0,4009.84,0.218485,0.218245,-0.265111,3,2.11913,10,-5.7859e-05,-3.57657,-1.14899,-0.0513493,0.218457,
2,0,0,1,0,4010.64,0.21449,0.214186,-0.269558,3,2.1189,10,-5.77357e-05,-3.56935,-0.324565,-0.181782,0.214402,
2,0,0,1,0,4011.44,0.210496,0.210197,-0.274952,3,2.11866,10,-5.77941e-05,-3.56074,-0.502923,-0.117314,0.210417,
2,0,0,1,0,4012.24,0.2065,0.206224,-0.282692,3,2.11842,10,-5.82978e-05,-3.54869,-0.361988,-0.162989,0.20645,
2,0,0,0,0,4013.04,0.202505,0.202188,-0.289001,3,2.11818,10,-5.84325e-05,-3.5391,-0.360883,-0.163488,0.202419,
2,0,0,1,0,4013.84,0.198509,0.198215,-0.296814,3,2.11793,10,-5.88331e-05,-3.52751,-0.326428,-0.180744,0.198452,
2,0,0,1,0,4014.64,0.194514,0.194217,-0.305302,3,2.11767,10,-5.92948e-05,-3.51527,-0.276691,-0.213234,0.194461,
2,0,0,1,0,4015.44,0.190519,0.190228,-0.31493,3,2.1174,10,-5.99084e-05,-3.50179,-0.239146,-0.246711,0.19048,
2,0,0,1,0,4016.24,0.186524,0.186252,-0.329374,3,2.11712,10,-6.13466e-05,-3.48231,-0.269508,-0.218917,0.186516,
2,0,0,0,0,4017.04,0.182529,0.182223,-0.346354,3,2.11684,10,-6.31135e-05,-3.46048,-0.146456,-0.40285,0.1825,
2,0,0,1,0,4017.83,0.178534,0.178218,-0.367133,3,2.11653,10,-6.54298e-05,-3.43518,-0.151299,-0.389955,0.178512,
2,0,0,1,0,4018.63,0.174538,0.174209,-0.391041,3,2.11621,10,-6.81228e-05,-3.40778,-0.127035,-0.464438,0.174522,
2,0,0,1,0,4019.43,0.170543,0.170279,-0.421999,3,2.11587,10,-7.18577e-05,-3.37469,-0.108563,-0.543463,0.170617,
2,0,0,1,0,4020.23,0.166549,0.166249,-0.463139,3,2.1155,10,-7.69964e-05,-3.33429,-0.0907184,-0.650365,0.166619,
2,0,0,0,0,4021.03,0.162553,0.162302,-0.517261,3,2.11509,10,-8.39524e-05,-3.28629,-0.0771934,-0.764314,0.162716,
2,0,0,1,0,4021.83,0.158558,0.158269,-0.581944,3,2.11463,10,-9.21036e-05,-3.23512,-0.0706829,-0.834714,0.158735,
2,0,0,0,0,4022.63,0.154563,0.154281,-0.66779,3,2.11411,10,-0.000103027,-3.17536,-0.0730577,-0.80758,0.154815,
2,0,0,1,0,4023.43,0.150567,0.150275,-0.754604,3,2.11353,10,-0.000113398,-3.12228,-0.0749539,-0.787151,0.150878,
2,0,0,1,0,4024.23,0.146572,0.146281,-0.842061,3,2.11287,10,-0.000123178,-3.07466,-0.0949542,-0.621352,0.146955,
2,0,0,1,0,4025.03,0.142578,0.142314,-0.91468,3,2.11215,10,-0.000130171,-3.03873,-0.132828,-0.444185,0.143045,
2,0,0,1,0,4025.82,0.138582,0.138315,-0.961791,3,2.11138,10,-0.000133031,-3.01692,-0.239264,-0.24659,0.139085,
2,0,0,0,0,4026.62,0.134587,0.134331,-0.987111,3,2.11058,10,-0.0001326,-3.00563,-0.827712,-0.0712809,0.135121,
2,0,0,1,0,4027.42,0.130591,0.130277,-0.989091,3,2.10978,10,-0.000128856,-3.00476,0.919078,0.0641948,0.131068,
2,0,0,1,0,4028.22,0.126596,0.126333,-0.960945,3,2.10898,10,-0.000121399,-3.0173,0.30504,0.193417,0.127102,
2,0,0,1,0,4029.02,0.122602,0.122327,-0.928004,3,2.1082,10,-0.00011352,-3.03245,0.188321,0.313295,0.123069,
2,0,0,1,0,4029.82,0.118607,0.118281,-0.88257,3,2.10746,10,-0.000104391,-3.05425,0.187725,0.314289,0.118987,
2,0,0,0,0,4030.62,0.114611,0.114353,-0.834115,3,2.10676,10,-9.53839e-05,-3.07877,0.155733,0.378854,0.115021,
2,0,0,1,0,4031.42,0.110616,0.110321,-0.789378,3,2.10609,10,-8.70847e-05,-3.10271,0.176128,0.334984,0.110952,
2,0,0,1,0,4032.22,0.10662,0.10633,-0.751734,3,2.10546,10,-7.9932e-05,-3.12394,0.221741,0.266076,0.106931,
2,0,0,1,0,4033.02,0.102625,0.102348,-0.721759,3,2.10485,10,-7.38709e-05,-3.14161,0.220017,0.268162,0.102926,
2,0,0,1,0,4033.81,0.0986305,0.0983277,-0.69636,3,2.10427,10,-6.84715e-05,-3.15717,0.347602,0.169734,0.0988848,
2,0,0,0,0,4034.61,0.0946351,0.0943552,-0.676889,3,2.1037,10,-6.3868e-05,-3.16948,0.397074,0.148587,0.0948967,
2,0,0,1,0,4035.41,0.0906399,0.0903416,-0.664869,3,2.10315,10,-6.00653e-05,-3.17726,0.363151,0.162467,0.0908734,
2,0,0,0,0,4036.21,0.0866447,0.08633,-0.652824,3,2.1026,10,-5.63584e-05,-3.1852,0.55977,0.1054,0.0868523,
2,0,0,1,0,4037.01,0.0826492,0.0823563,-0.638183,3,2.10207,10,-5.25584e-05,-3.19505,0.466693,0.126422,0.0828668,
2,0,0,1,0,4037.81,0.0786544,0.0783611,-0.625606,3,2.10155,10,-4.90232e-05,-3.2037,0.427172,0.138118,0.0788616,
2,0,0,1,0,4038.61,0.0746596,0.0743891,-0.610165,3,2.10104,10,-4.53896e-05,-3.21455,0.38185,0.154511,0.0748773,
2,0,0,1,0,4039.41,0.0706641,0.0703592,-0.592753,3,2.10054,10,-4.17057e-05,-3.22713,0.288166,0.204743,0.0708334,
2,0,0,0,0,4040.21,0.0666689,0.0663742,-0.577637,3,2.10005,10,-3.83402e-05,-3.23834,0.330103,0.178732,0.0668363,
2,0,0,1,0,4041.01,0.0626737,0.0623914,-0.555369,3,2.09958,10,-3.46502e-05,-3.25542,0.300442,0.196377,0.0628357,
2,0,0,1,0,4041.81,0.0586783,0.0583765,-0.54372,3,2.09912,10,-3.17405e-05,-3.26462,0.261546,0.225582,0.0588115,
2,0,0,1,0,4042.6,0.0546835,0.0543887,-0.527153,3,2.09868,10,-2.86712e-05,-3.27806,0.509925,0.115703,0.0548104,
2,0,0,1,0,4043.4,0.0506886,0.0503848,-0.51386,3,2.09824,10,-2.58907e-05,-3.28916,0.3456,0.170717,0.0507959,
2,0,0,0,0,4044.2,0.046693,0.0464291,-0.503856,3,2.09782,10,-2.33936e-05,-3.29769,0.532196,0.110861,0.0468321,
2,0,0,1,0,4045,0.0426979,0.0423985,-0.495052,3,2.0974,10,-2.09894e-05,-3.30535,0.553482,0.106598,0.0427945,
2,0,0,1,0,4045.8,0.0387022,0.0383696,-0.487461,3,2.09699,10,-1.87037e-05,-3.31206,0.493231,0.119619,0.0387596,
2,0,0,1,0,4046.6,0.0347074,0.0343816,-0.481881,3,2.09659,10,-1.65678e-05,-3.31706,1.18046,0.0499805,0.0347671,
2,0,0,1,0,4047.4,0.0307126,0.0304723,-0.476219,3,2.09619,10,-1.45115e-05,-3.32219,3.17829,0.0185634,0.0308532,
2,0,0,0,0,4048.2,0.0267172,0.026398,-0.475633,3,2.09579,10,-1.25558e-05,-3.32273,1.08264,0.0544964,0.0267785,
2,0,0,1,0,4049,0.022722,0.0224268,-0.475139,3,2.09539,10,-1.06558e-05,-3.32318,-1.89215,-0.0311815,0.0228069,
2,0,0,0,0,4049.8,0.0187268,0.0184311,-0.475723,3,2.09499,10,-8.76812e-06,-3.32265,8.13873,0.00724929,0.0188117,
2,0,0,1,0,4050.59,0.0147313,0.0144618,-0.479137,3,2.0946,10,-6.92918e-06,-3.31954,-1.5804,-0.0373322,0.0148451,
2,0,0,1,0,4051.39,0.0107365,0.0104101,-0.480032,3,2.0942,10,-4.99717e-06,-3.31873,-1.09501,-0.053881,0.0107941,
2,0,0,1,0,4052.19,0.00674162,0.00647656,-0.483629,3,2.09379,10,-3.13226e-06,-3.31549,-1.18257,-0.0498911,0.00686347,
2,0,0,1,0,4052.99,0.00274612,0.00247733,-0.487815,3,2.09339,10,-1.20848e-06,-3.31174,-0.741908,-0.0795246,0.00286758,
2,0,0,0,0,4053.49,0.000274105,-8.07672e-05,-0.490497,3,2.09313,10,3.96161e-08,-3.30936, , ,0.000311631,