File: Figure_codes/Fig_3-5/workspace_calculate_alpha_eff/20221101_1-115_003_TrumpetPlot_ParaChange_from10_every3_16_CV_C01_77.csv
mode,ox/red,error,control changes,counter inc.,time/s,control/V,Ewe/V,<I>/mA,cycle number,(Q-Qo)/C,I Range,P/W,log(|I|),Tafel slope mV/dec,alpha_eff,E-IR/V,
2,0,0,0,0,51223.4,2.44065e-05,-0.000306236,-0.108935,78,0.0000000E+000,10,3.33597e-08,-3.96283, , ,-0.000258305,
2,1,0,0,0,51224.1,0.00379485,0.00344654,0.141808,78,8.72278e-05,10,4.88746e-07,-3.8483,0.0318972,1.84969,0.00338415,
2,1,0,1,0,51224.9,0.00779002,0.00749411,0.165313,78,0.000222225,10,1.23887e-06,-3.78169,0.0705863,0.835856,0.00742138,
2,1,0,0,0,51225.7,0.0117852,0.0114728,0.181187,78,0.000372826,10,2.07871e-06,-3.74187,0.11958,0.493392,0.011393,
2,1,0,1,0,51226.5,0.0157806,0.0154441,0.196897,78,0.000535004,10,3.0409e-06,-3.70576,0.139073,0.424237,0.0153575,
2,1,0,1,0,51227.3,0.0197754,0.019428,0.207616,78,0.000707652,10,4.03355e-06,-3.68274,0.145879,0.404446,0.0193366,
2,1,0,1,0,51228.1,0.0237704,0.0233797,0.221765,78,0.00089099,10,5.1848e-06,-3.65411,0.153724,0.383804,0.0232822,
2,1,0,1,0,51228.9,0.0277659,0.0274552,0.23569,78,0.00108456,10,6.47092e-06,-3.62766,0.15857,0.372076,0.0273515,
2,1,0,0,0,51229.7,0.0317611,0.0314381,0.247879,78,0.00128926,10,7.79285e-06,-3.60576,0.173457,0.340143,0.031329,
2,1,0,1,0,51230.5,0.0357567,0.0354044,0.262268,78,0.00150493,10,9.28545e-06,-3.58125,0.193406,0.305058,0.035289,
2,1,0,1,0,51231.3,0.0397516,0.0393691,0.2773,78,0.00173164,10,1.0917e-05,-3.55705,0.14903,0.395894,0.039247,
2,1,0,1,0,51232.1,0.0437465,0.0434047,0.288917,78,0.00196991,10,1.25403e-05,-3.53923,0.216496,0.272523,0.0432776,
2,1,0,1,0,51232.9,0.0477413,0.0473608,0.303794,78,0.0022185,10,1.43879e-05,-3.51742,0.217002,0.271887,0.0472272,
2,1,0,0,0,51233.7,0.0517369,0.0513631,0.314586,78,0.00247691,10,1.61581e-05,-3.50226,0.243074,0.242725,0.0512247,
2,1,0,1,0,51234.5,0.0557321,0.0553916,0.32892,78,0.00274552,10,1.82194e-05,-3.48291,0.249715,0.23627,0.0552469,
2,1,0,1,0,51235.3,0.0597277,0.0593771,0.338942,78,0.00302326,10,2.01254e-05,-3.46988,0.299291,0.197133,0.0592279,
2,1,0,1,0,51236.1,0.0637226,0.0633883,0.349062,78,0.00330997,10,2.21265e-05,-3.4571,0.302371,0.195125,0.0632348,
2,1,0,1,0,51236.9,0.0677174,0.0673539,0.360399,78,0.00360512,10,2.42743e-05,-3.44322,0.49047,0.120293,0.0671953,
2,1,0,0,0,51237.7,0.0717128,0.0713847,0.368038,78,0.00390742,10,2.62723e-05,-3.43411,0.330883,0.178311,0.0712227,
2,1,0,1,0,51238.5,0.075708,0.075341,0.374863,78,0.00421674,10,2.82426e-05,-3.42613,0.390608,0.151047,0.0751761,
2,1,0,0,0,51239.3,0.0797031,0.0793515,0.384706,78,0.0045325,10,3.0527e-05,-3.41487,0.407216,0.144886,0.0791822,
2,1,0,1,0,51240.1,0.0836986,0.0833579,0.393242,78,0.00485516,10,3.27798e-05,-3.40534,0.414218,0.142437,0.0831849,
2,1,0,1,0,51240.9,0.0876935,0.0873597,0.403517,78,0.00518566,10,3.52511e-05,-3.39414,0.322942,0.182695,0.0871821,
2,1,0,1,0,51241.7,0.0916883,0.0913147,0.417268,78,0.00552492,10,3.81027e-05,-3.37958,0.25046,0.235567,0.0911311,
2,1,0,1,0,51242.5,0.0956838,0.095352,0.432798,78,0.00587662,10,4.12682e-05,-3.36371,0.213683,0.276109,0.0951615,
2,1,0,0,0,51243.3,0.099679,0.0993911,0.453404,78,0.00624274,10,4.50644e-05,-3.34351,0.24888,0.237062,0.0991916,
2,1,0,1,0,51244.1,0.103674,0.103351,0.474083,78,0.00662468,10,4.89968e-05,-3.32415,0.17531,0.336546,0.103142,
2,1,0,1,0,51244.9,0.10767,0.107343,0.494707,78,0.00702458,10,5.31035e-05,-3.30565,0.227875,0.258914,0.107126,
2,1,0,1,0,51245.7,0.111664,0.111322,0.514942,78,0.00744027,10,5.73242e-05,-3.28824,0.265841,0.221937,0.111095,
2,1,0,1,0,51246.5,0.115659,0.115309,0.529403,78,0.00786982,10,6.10452e-05,-3.27621,0.348737,0.169182,0.115076,
2,1,0,0,0,51247.3,0.119655,0.11931,0.541649,78,0.00831049,10,6.46241e-05,-3.26628,0.518182,0.11386,0.119071,
2,1,0,1,0,51248.1,0.12365,0.123322,0.550691,78,0.00875884,10,6.79125e-05,-3.25909,0.566825,0.104089,0.12308,
2,1,0,1,0,51248.9,0.127646,0.127286,0.557423,78,0.00921407,10,7.09519e-05,-3.25382,1.15938,0.0508894,0.12704,
2,1,0,1,0,51249.7,0.131641,0.131278,0.559555,78,0.00967292,10,7.34572e-05,-3.25216,-0.667661,-0.0883681,0.131032,
2,1,0,1,0,51250.5,0.135635,0.135329,0.546868,78,0.0101272,10,7.40071e-05,-3.26212,-0.303279,-0.19454,0.135088,
2,1,0,0,0,51251.3,0.139631,0.139336,0.515019,78,0.0105655,10,7.17604e-05,-3.28818,-0.116465,-0.506589,0.139109,
2,1,0,1,0,51252.1,0.143626,0.143263,0.468976,78,0.0109722,10,6.7187e-05,-3.32885,-0.0843435,-0.69952,0.143057,
2,1,0,0,0,51252.9,0.147621,0.147318,0.412933,78,0.0113363,10,6.08325e-05,-3.38412,-0.0664567,-0.887797,0.147137,
2,1,0,1,0,51253.7,0.151617,0.151287,0.363129,78,0.0116574,10,5.49365e-05,-3.43994,-0.0795639,-0.741542,0.151127,
2,1,0,1,0,51254.5,0.155612,0.155269,0.328431,78,0.0119434,10,5.09952e-05,-3.48356,-0.110637,-0.533278,0.155125,
2,1,0,1,0,51255.3,0.159606,0.159259,0.305821,78,0.0122071,10,4.87048e-05,-3.51453,-0.154856,-0.381,0.159125,
2,1,0,1,0,51256.1,0.163602,0.163301,0.291227,78,0.0124559,10,4.75575e-05,-3.53577,-0.185665,-0.317777,0.163173,
2,1,0,0,0,51256.9,0.167597,0.167258,0.279612,78,0.0126947,10,4.67673e-05,-3.55344,-0.366,-0.161202,0.167135,
2,1,0,1,0,51257.7,0.171592,0.171226,0.271799,78,0.012927,10,4.65391e-05,-3.56575,-0.448428,-0.131571,0.171107,
2,1,0,1,0,51258.5,0.175588,0.175241,0.267198,78,0.0131538,10,4.68241e-05,-3.57317,-0.42618,-0.138439,0.175124,
2,1,0,1,0,51259.3,0.179582,0.179217,0.263626,78,0.0133769,10,4.72464e-05,-3.57901,-1.28234,-0.0460096,0.179101,
2,1,0,1,0,51260.1,0.183577,0.183259,0.260307,78,0.0135974,10,4.77037e-05,-3.58451,-0.545582,-0.108141,0.183145,
2,1,0,0,0,51260.9,0.187573,0.187235,0.257794,78,0.0138156,10,4.8268e-05,-3.58873,-0.881266,-0.0669491,0.187122,
2,1,0,1,0,51261.7,0.191568,0.191256,0.255917,78,0.0140316,10,4.89456e-05,-3.5919,-17.5389,-0.00336395,0.191144,
2,1,0,0,0,51262.5,0.195563,0.195255,0.254574,78,0.0142463,10,4.97067e-05,-3.59419,-0.680961,-0.0866423,0.195143,
2,1,0,1,0,51263.3,0.199559,0.199205,0.252326,78,0.0144595,10,5.02647e-05,-3.59804,-16.7869,-0.00351465,0.199094,
2,1,0,1,0,51264.1,0.203553,0.203178,0.250396,78,0.0146713,10,5.0875e-05,-3.60137,-1.09423,-0.0539191,0.203068,
2,1,0,1,0,51264.9,0.207548,0.207194,0.249563,78,0.0148822,10,5.1708e-05,-3.60282,-1.07423,-0.0549232,0.207084,
2,1,0,1,0,51265.7,0.211544,0.211233,0.247639,78,0.0150915,10,5.23096e-05,-3.60618,-4.52158,-0.0130485,0.211124,
2,1,0,0,0,51266.5,0.215539,0.215202,0.246741,78,0.0152998,10,5.30993e-05,-3.60776,-1.15164,-0.0512314,0.215094,
2,1,0,1,0,51267.3,0.219535,0.219198,0.246822,78,0.015507,10,5.4103e-05,-3.60762,-3.80463,-0.0155074,0.21909,
2,1,0,1,0,51268.1,0.223529,0.223229,0.245144,78,0.0157136,10,5.47233e-05,-3.61058,-1.92537,-0.0306435,0.223121,
2,1,0,1,0,51268.9,0.227524,0.227197,0.243447,78,0.0159194,10,5.53105e-05,-3.6136,-1.80331,-0.0327176,0.22709,
2,1,0,1,0,51269.7,0.23152,0.231188,0.243044,78,0.0161242,10,5.61889e-05,-3.61431,11.1376,0.00529735,0.231081,
2,1,0,0,0,51270.5,0.235515,0.235153,0.241831,78,0.0163288,10,5.68673e-05,-3.61649,-4.99136,-0.0118204,0.235046,
2,1,0,1,0,51271.3,0.23951,0.239124,0.242142,78,0.0165326,10,5.79019e-05,-3.61593,-2.24362,-0.0262968,0.239017,
2,1,0,1,0,51272.1,0.243506,0.243122,0.240706,78,0.0167357,10,5.8521e-05,-3.61851,-7.72693,-0.00763564,0.243016,
2,1,0,1,0,51272.9,0.2475,0.247175,0.240217,78,0.0169384,10,5.93757e-05,-3.6194,-1.47024,-0.0401295,0.247069,
2,1,0,1,0,51273.7,0.251495,0.251186,0.238751,78,0.0171401,10,5.99709e-05,-3.62205,-2.69149,-0.0219209,0.251081,
2,1,0,0,0,51274.5,0.255491,0.255115,0.238884,78,0.0173412,10,6.09428e-05,-3.62181,-3.88228,-0.0151973,0.25501,
2,1,0,1,0,51275.3,0.259486,0.259154,0.238532,78,0.017542,10,6.18165e-05,-3.62245,-1.47017,-0.0401313,0.259049,
2,1,0,0,0,51276.1,0.263481,0.26314,0.237161,78,0.0177418,10,6.24065e-05,-3.62496,-125.861,-0.000468773,0.263036,
2,1,0,1,0,51276.9,0.267477,0.267174,0.235439,78,0.017941,10,6.29033e-05,-3.62812,-2.00186,-0.0294726,0.26707,
2,1,0,1,0,51277.7,0.271471,0.27113,0.236017,78,0.0181393,10,6.39914e-05,-3.62706,-2.87371,-0.0205309,0.271026,
2,1,0,1,0,51278.5,0.275466,0.27513,0.233817,78,0.0183371,10,6.43301e-05,-3.63112,-1.73632,-0.0339799,0.275027,
2,1,0,1,0,51279.3,0.279462,0.279153,0.233274,78,0.0185342,10,6.51192e-05,-3.63213,-3.43451,-0.0171786,0.279051,
2,1,0,0,0,51280.1,0.283457,0.283091,0.232625,78,0.0187303,10,6.58539e-05,-3.63334,-1.98769,-0.0296826,0.282988,
2,1,0,1,0,51280.9,0.287452,0.287145,0.232004,78,0.0189257,10,6.66186e-05,-3.6345,-10.3779,-0.00568517,0.287042,
2,1,0,1,0,51281.7,0.291448,0.291095,0.231154,78,0.0191204,10,6.72876e-05,-3.6361,-0.824524,-0.0715564,0.290993,
2,1,0,1,0,51282.5,0.295442,0.295108,0.229871,78,0.0193141,10,6.78369e-05,-3.63852,1.99941,0.0295086,0.295007,
2,1,0,1,0,51283.3,0.299437,0.299094,0.228756,78,0.0195074,10,6.84195e-05,-3.64063,-1.93681,-0.0304624,0.298993,
2,1,0,0,0,51284.1,0.303433,0.303098,0.228592,78,0.0197,10,6.92859e-05,-3.64094,-1.92043,-0.0307223,0.302998,
2,1,0,1,0,51284.9,0.307428,0.307065,0.228775,78,0.0198919,10,7.02488e-05,-3.64059,25.0711,0.00235331,0.306965,
2,1,0,1,0,51285.7,0.311424,0.311042,0.227517,78,0.0200835,10,7.07673e-05,-3.64299,-2.34675,-0.0251412,0.310942,
2,1,0,1,0,51286.5,0.315418,0.315086,0.227184,78,0.0202745,10,7.15825e-05,-3.64362,-4.67949,-0.0126082,0.314987,
2,1,0,1,0,51287.3,0.319413,0.319118,0.225874,78,0.0204649,10,7.20805e-05,-3.64613,-1.80223,-0.0327372,0.319018,
2,1,0,0,0,51288.1,0.323409,0.323071,0.225746,78,0.0206549,10,7.29321e-05,-3.64638,-0.938005,-0.0628995,0.322972,
2,1,0,1,0,51288.9,0.327404,0.327064,0.223887,78,0.0208441,10,7.32252e-05,-3.64997,2.01229,0.0293198,0.326965,
2,1,0,0,0,51289.7,0.331399,0.331029,0.223465,78,0.021033,10,7.39734e-05,-3.65079,-1.84854,-0.0319171,0.330931,
2,1,0,1,0,51290.5,0.335395,0.33507,0.22468,78,0.0212214,10,7.52834e-05,-3.64844,-5.97785,-0.00986976,0.334971,
2,1,0,1,0,51291.3,0.339389,0.339063,0.222665,78,0.021409,10,7.54976e-05,-3.65235,-10.5893,-0.00557165,0.338965,
2,1,0,1,0,51292.1,0.343384,0.343084,0.222278,78,0.0215962,10,7.62598e-05,-3.6531,-1.85252,-0.0318485,0.342986,
2,1,0,1,0,51292.9,0.34738,0.347016,0.222772,78,0.0217828,10,7.73056e-05,-3.65214,-13.2147,-0.00446473,0.346918,
2,1,0,0,0,51293.6,0.351375,0.351,0.220976,78,0.0219691,10,7.75626e-05,-3.65565,-3.98981,-0.0147877,0.350903,
2,1,0,1,0,51294.4,0.35537,0.355091,0.220925,78,0.022155,10,7.84485e-05,-3.65576,-1.21378,-0.0486086,0.354994,
2,1,0,1,0,51295.2,0.359366,0.359034,0.221296,78,0.0223404,10,7.94528e-05,-3.65503,1.88033,0.0313775,0.358937,
2,1,0,1,0,51296,0.36336,0.362996,0.220393,78,0.0225256,10,8.00019e-05,-3.6568,8.39574,0.00702737,0.362899,
2,1,0,1,0,51296.8,0.367355,0.367021,0.219219,78,0.0227101,10,8.04582e-05,-3.65912,-3.40373,-0.0173339,0.366925,
2,1,0,0,0,51297.6,0.371351,0.371025,0.218949,78,0.0228945,10,8.12354e-05,-3.65966,-5.67126,-0.0104033,0.370928,
2,1,0,1,0,51298.4,0.375346,0.375029,0.219707,78,0.0230786,10,8.23965e-05,-3.65816,-1.93096,-0.0305548,0.374932,
2,1,0,1,0,51299.2,0.379342,0.37904,0.219371,78,0.0232622,10,8.31505e-05,-3.65882,5.11743,0.0115292,0.378943,
2,1,0,1,0,51300,0.383336,0.383065,0.219246,78,0.0234457,10,8.39853e-05,-3.65907,-4.10692,-0.014366,0.382968,
2,1,0,1,0,51300.8,0.387331,0.386986,0.217673,78,0.023629,10,8.42365e-05,-3.66219,-1.43679,-0.0410637,0.38689,
2,1,0,0,0,51301.6,0.391327,0.390987,0.217653,78,0.0238118,10,8.50995e-05,-3.66224,3.82003,0.0154449,0.390891,
2,1,0,1,0,51302.4,0.395322,0.394987,0.216855,78,0.0239944,10,8.56549e-05,-3.66383,9.19021,0.00641988,0.394891,
2,1,0,0,0,51303.2,0.399317,0.398989,0.217777,78,0.0241769,10,8.68905e-05,-3.66199,4.67044,0.0126326,0.398893,
2,1,0,1,0,51304,0.403313,0.403005,0.21731,78,0.024359,10,8.75771e-05,-3.66292,-4.114,-0.0143413,0.402909,
2,1,0,1,0,51304.8,0.407307,0.406981,0.216426,78,0.0245408,10,8.80814e-05,-3.66469,-1.93126,-0.03055,0.406886,
2,1,0,1,0,51305.6,0.411302,0.410953,0.21756,78,0.0247222,10,8.9407e-05,-3.66242,-10.8925,-0.00541659,0.410857,
2,1,0,1,0,51306.4,0.415298,0.414938,0.216767,78,0.0249036,10,8.99448e-05,-3.66401,-6.48481,-0.00909818,0.414843,
2,1,0,0,0,51307.2,0.419293,0.41896,0.216291,78,0.0250846,10,9.06175e-05,-3.66496,-7.02437,-0.00839933,0.418865,
2,1,0,1,0,51308,0.423288,0.422913,0.21577,78,0.0252654,10,9.1252e-05,-3.66601,-16.6942,-0.00353416,0.422818,
2,1,0,1,0,51308.8,0.427283,0.426968,0.215502,78,0.0254461,10,9.20122e-05,-3.66655,6.26541,0.00941679,0.426873,
2,1,0,1,0,51309.6,0.431278,0.430986,0.215569,78,0.0256265,10,9.29074e-05,-3.66641,-9.24991,-0.00637844,0.430892,
2,1,0,1,0,51310.4,0.435273,0.434916,0.216338,78,0.0258068,10,9.4089e-05,-3.66487,4.8994,0.0120423,0.434821,
2,1,0,0,0,51311.2,0.439269,0.438944,0.215262,78,0.0259871,10,9.4488e-05,-3.66703,-4.41933,-0.0133504,0.438849,
2,1,0,1,0,51312,0.443264,0.442938,0.216163,78,0.0261673,10,9.57469e-05,-3.66522,-6.72773,-0.00876967,0.442843,
2,1,0,0,0,51312.8,0.447259,0.446915,0.216224,78,0.0263475,10,9.66336e-05,-3.6651,4.49757,0.0131182,0.44682,
2,1,0,1,0,51313.6,0.451254,0.450968,0.216877,78,0.026528,10,9.78044e-05,-3.66379,-5.58746,-0.0105594,0.450872,
2,1,0,1,0,51314.4,0.455249,0.454899,0.216135,78,0.0267082,10,9.83195e-05,-3.66528,1.57331,0.0375005,0.454804,
2,1,0,1,0,51315.2,0.459244,0.458944,0.216263,78,0.0268889,10,9.92528e-05,-3.66502,6.16662,0.00956764,0.458849,
2,1,0,1,0,51316,0.46324,0.462911,0.216868,78,0.0270695,10,0.000100391,-3.6638,-1.51444,-0.0389582,0.462816,
2,1,0,0,0,51316.8,0.467235,0.466864,0.216506,78,0.0272499,10,0.000101079,-3.66453,1.47884,0.0398961,0.466769,
2,1,0,1,0,51317.6,0.471231,0.470843,0.217088,78,0.0274308,10,0.000102215,-3.66336,3.35769,0.0175716,0.470748,
2,1,0,1,0,51318.4,0.475225,0.474945,0.218197,78,0.027612,10,0.000103631,-3.66115,5.48978,0.0107472,0.474849,
2,1,0,1,0,51319.2,0.47922,0.478885,0.218174,78,0.0277936,10,0.00010448,-3.6612,14.2227,0.00414831,0.478789,
2,1,0,1,0,51320,0.483216,0.48294,0.219044,78,0.0279755,10,0.000105785,-3.65947,-17.7976,-0.00331504,0.482844,
2,1,0,0,0,51320.8,0.487211,0.486906,0.219442,78,0.0281575,10,0.000106848,-3.65868,1.1256,0.0524165,0.486809,
2,1,0,1,0,51321.6,0.491206,0.490874,0.21889,78,0.0283401,10,0.000107447,-3.65977,-6.83455,-0.00863261,0.490778,
2,1,0,1,0,51322.4,0.495201,0.494853,0.220542,78,0.028523,10,0.000109136,-3.65651,1.93754,0.030451,0.494756,
2,1,0,1,0,51323.2,0.499196,0.498875,0.221136,78,0.0287066,10,0.000110319,-3.65534,2.7051,0.0218106,0.498778,
2,1,0,1,0,51324,0.503191,0.502882,0.221701,78,0.0288909,10,0.000111489,-3.65423,3.3947,0.01738,0.502784,
2,1,0,0,0,51324.8,0.507187,0.506842,0.222462,78,0.0290756,10,0.000112753,-3.65274,1.45323,0.0405992,0.506744,
2,1,0,1,0,51325.6,0.511182,0.510863,0.223779,78,0.029261,10,0.00011432,-3.65018,1.96129,0.0300823,0.510764,
2,1,0,0,0,51326.4,0.515177,0.514853,0.224923,78,0.0294474,10,0.000115802,-3.64797,2.80849,0.0210077,0.514754,
2,1,0,1,0,51327.2,0.519173,0.518821,0.226336,78,0.0296343,10,0.000117428,-3.64525,3.4902,0.0169045,0.518722,
2,1,0,1,0,51328,0.523167,0.52284,0.226857,78,0.0298223,10,0.00011861,-3.64425,0.996757,0.0591919,0.52274,
2,1,0,1,0,51328.8,0.527162,0.526827,0.228265,78,0.0300114,10,0.000120256,-3.64156,1.04669,0.0563682,0.526726,
2,1,0,1,0,51329.6,0.531158,0.530882,0.230452,78,0.0302017,10,0.000122343,-3.63742,7.22143,0.00817013,0.530781,
2,1,0,0,0,51330.4,0.535153,0.534813,0.232114,78,0.030393,10,0.000124138,-3.6343,0.754175,0.0782312,0.534711,
2,1,0,1,0,51331.2,0.539148,0.53882,0.23365,78,0.0305855,10,0.000125896,-3.63143,1.82051,0.0324085,0.538718,
2,1,0,1,0,51332,0.543143,0.542849,0.235496,78,0.0307794,10,0.000127839,-3.62802,0.731498,0.0806564,0.542745,
2,1,0,1,0,51332.8,0.547138,0.546843,0.237078,78,0.0309748,10,0.000129644,-3.62511,-70.6288,-0.000835354,0.546739,
2,1,0,1,0,51333.6,0.551133,0.550791,0.238787,78,0.0311717,10,0.000131522,-3.62199,0.741411,0.079578,0.550686,
2,1,0,0,0,51334.4,0.555129,0.554796,0.241188,78,0.0313704,10,0.00013381,-3.61764,0.80013,0.073738,0.55469,
2,1,0,1,0,51335.2,0.559124,0.558767,0.243243,78,0.0315706,10,0.000135916,-3.61396,0.890621,0.0662459,0.55866,
2,1,0,1,0,51336,0.56312,0.562839,0.245936,78,0.0317729,10,0.000138422,-3.60918,0.853505,0.0691267,0.562731,
2,1,0,1,0,51336.8,0.567114,0.566769,0.249334,78,0.0319773,10,0.000141315,-3.60322,0.806109,0.0731911,0.566659,
2,1,0,1,0,51337.6,0.571109,0.570758,0.252125,78,0.0321842,10,0.000143902,-3.59838,0.700528,0.0842222,0.570647,
2,1,0,0,0,51338.4,0.575105,0.574765,0.255485,78,0.0323938,10,0.000146844,-3.59263,0.669995,0.0880604,0.574652,
2,1,0,1,0,51339.2,0.5791,0.57878,0.259117,78,0.0326062,10,0.000149972,-3.5865,1.29128,0.0456913,0.578666,
2,1,0,0,0,51340,0.583095,0.582788,0.263271,78,0.0328215,10,0.000153431,-3.5796,0.372571,0.158359,0.582672,
2,1,0,1,0,51340.8,0.58709,0.586764,0.268171,78,0.0330405,10,0.000157353,-3.57159,0.559063,0.105534,0.586646,
2,1,0,1,0,51341.6,0.591085,0.590821,0.273818,78,0.0332634,10,0.000161777,-3.56254,0.417684,0.141255,0.5907,
2,1,0,1,0,51342.4,0.59508,0.594752,0.278932,78,0.0334907,10,0.000165895,-3.5545,0.435467,0.135487,0.594629,
2,1,0,1,0,51343.2,0.599076,0.598746,0.285741,78,0.033723,10,0.000171086,-3.54403,0.40542,0.145528,0.59862,
2,1,0,0,0,51344,0.603071,0.602792,0.294159,78,0.0339607,10,0.000177317,-3.53142,0.337015,0.175067,0.602663,
2,1,0,1,0,51344.8,0.607066,0.606788,0.302318,78,0.0342049,10,0.000183443,-3.51954,0.31103,0.189692,0.606655,
2,1,0,1,0,51345.6,0.611061,0.610724,0.311212,78,0.0344561,10,0.000190065,-3.50694,0.28603,0.206272,0.610587,
2,1,0,1,0,51346.4,0.615056,0.614722,0.321864,78,0.0347151,10,0.000197857,-3.49233,0.242949,0.242849,0.614581,
2,1,0,1,0,51347.2,0.619051,0.618738,0.333063,78,0.0349837,10,0.000206079,-3.47747,0.234629,0.251461,0.618591,
2,1,0,0,0,51348,0.623047,0.622744,0.347542,78,0.0352625,10,0.00021643,-3.45899,0.212208,0.278029,0.622591,
2,1,0,1,0,51348.8,0.627042,0.626735,0.364491,78,0.0355532,10,0.000228439,-3.43831,0.192655,0.306246,0.626575,
2,1,0,1,0,51349.6,0.631037,0.630742,0.383609,78,0.0358582,10,0.000241959,-3.41611,0.178262,0.330973,0.630573,
2,1,0,1,0,51350.4,0.635032,0.634725,0.405865,78,0.0361795,10,0.000257613,-3.39162,0.151977,0.388216,0.634546,
2,1,0,1,0,51351.2,0.639027,0.638695,0.43114,78,0.0365198,10,0.000275367,-3.36538,0.143859,0.410123,0.638505,
2,1,0,1,0,51352,0.643022,0.642762,0.461072,78,0.0368823,10,0.00029636,-3.33623,0.134666,0.43812,0.642559,
2,1,0,1,0,51352.8,0.647018,0.646762,0.49586,78,0.0372706,10,0.000320703,-3.30464,0.117058,0.504025,0.646544,
2,1,0,0,0,51353.6,0.651013,0.650707,0.535509,78,0.0376889,10,0.000348459,-3.27123,0.11625,0.507529,0.650471,
2,1,0,1,0,51354.4,0.655008,0.65472,0.582393,78,0.0381415,10,0.000381304,-3.23478,0.105301,0.560299,0.654464,
2,1,0,1,0,51355.2,0.659003,0.658687,0.637348,78,0.0386342,10,0.000419812,-3.19562,0.0978266,0.603108,0.658406,
2,1,0,1,0,51356,0.662998,0.662747,0.699526,78,0.0391746,10,0.000463608,-3.1552,0.095943,0.614948,0.662439,
2,1,0,1,0,51356.8,0.666994,0.666693,0.773766,78,0.0397689,10,0.000515864,-3.11139,0.089482,0.65935,0.666352,
2,1,0,0,0,51357.6,0.670989,0.670726,0.856472,78,0.0404262,10,0.000574458,-3.06729,0.0862831,0.683796,0.67035,
2,1,0,1,0,51358.4,0.674984,0.674695,0.953635,78,0.0411555,10,0.000643413,-3.02062,0.085529,0.689824,0.674276,
2,1,0,1,0,51359.2,0.67898,0.678642,1.06204,78,0.0419665,10,0.000720744,-2.97386,0.0840663,0.701827,0.678174,
2,1,0,1,0,51360,0.682974,0.682697,1.18421,78,0.0428696,10,0.000808456,-2.92657,0.0823868,0.716134,0.682176,
2,1,0,1,0,51360.8,0.686969,0.686702,1.32237,78,0.0438764,10,0.000908073,-2.87865,0.0810713,0.727755,0.686121,
2,1,0,0,0,51361.6,0.690965,0.690677,1.47525,78,0.0449996,10,0.00101892,-2.83113,0.0838861,0.703335,0.690028,
2,1,0,1,0,51362.4,0.69496,0.69471,1.6461,78,0.0462518,10,0.00114356,-2.78354,0.082839,0.712225,0.693985,
2,1,0,0,0,51363.2,0.698955,0.698628,1.8325,78,0.0476466,10,0.00128024,-2.73696,0.0840447,0.702008,0.697821,
2,1,0,1,0,51364,0.70295,0.702663,2.03584,78,0.049198,10,0.00143051,-2.69126,0.0870107,0.678078,0.701767,
2,1,0,1,0,51364.8,0.706945,0.706627,2.25924,78,0.050919,10,0.00159644,-2.64604,0.0876412,0.673199,0.705633,
2,1,0,1,0,51365.6,0.71094,0.710637,2.4972,78,0.0528245,10,0.0017746,-2.60255,0.0907906,0.649847,0.709538,
2,1,0,1,0,51366.4,0.714936,0.714636,2.75601,78,0.0549286,10,0.00196954,-2.55972,0.0914381,0.645245,0.713423,
2,1,0,0,0,51367.2,0.718931,0.718643,3.02963,78,0.0572454,10,0.00217722,-2.51861,0.0951434,0.620117,0.71731,
2,1,0,1,0,51368,0.722927,0.722634,3.32466,78,0.0597896,10,0.00240251,-2.47825,0.0967071,0.610089,0.721171,
2,1,0,1,0,51368.8,0.726921,0.726624,3.64641,78,0.0625783,10,0.00264957,-2.43813,0.0980372,0.601812,0.725019,
2,1,0,1,0,51369.6,0.730916,0.730622,3.98031,78,0.0656302,10,0.0029081,-2.40008,0.102295,0.576764,0.728871,
2,1,0,1,0,51370.4,0.734911,0.734599,4.33258,78,0.0689565,10,0.00318271,-2.36325,0.105571,0.558867,0.732692,
2,1,0,0,0,51371.2,0.738907,0.73864,4.70613,78,0.0725726,10,0.00347613,-2.32734,0.107022,0.551287,0.736569,
2,1,0,1,0,51372,0.742902,0.742626,5.10001,78,0.076495,10,0.0037874,-2.29243,0.111474,0.529271,0.740382,
2,1,0,1,0,51372.8,0.746897,0.74662,5.51563,78,0.0807424,10,0.00411808,-2.2584,0.113171,0.521334,0.744193,
2,1,0,1,0,51373.6,0.750892,0.750569,5.95547,78,0.0853306,10,0.00446999,-2.22508,0.114873,0.513609,0.747949,
2,1,0,1,0,51374.4,0.754887,0.754597,6.41903,78,0.0902797,10,0.00484378,-2.19253,0.117624,0.501598,0.751772,
2,1,0,0,0,51375.2,0.758883,0.758596,6.90964,78,0.0956105,10,0.00524163,-2.16054,0.118935,0.496071,0.755556,
2,1,0,1,0,51376,0.762878,0.762568,7.42531,78,0.101342,10,0.0056623,-2.12929,0.12225,0.482617,0.759301,
2,1,0,0,0,51376.7,0.766873,0.766574,7.97138,78,0.107499,10,0.00611066,-2.09847,0.123327,0.478402,0.763067,
2,1,0,1,0,51377.5,0.770868,0.77055,8.54926,78,0.114105,10,0.00658764,-2.06807,0.123143,0.479119,0.766789,
2,1,0,1,0,51378.3,0.774863,0.774593,9.15961,78,0.121184,10,0.00709497,-2.03812,0.123979,0.475889,0.770563,
2,1,0,1,0,51379.1,0.778858,0.778543,9.81102,78,0.128767,10,0.0076383,-2.00829,0.124832,0.472637,0.774226,
2,1,0,1,0,51379.9,0.782854,0.782589,10.4997,78,0.136886,10,0.00821695,-1.97882,0.125776,0.469087,0.777969,
2,1,0,0,0,51380.7,0.786849,0.786548,11.2318,78,0.145572,10,0.00883433,-1.94955,0.12329,0.478547,0.781606,
2,1,0,1,0,51381.5,0.790844,0.79055,12.019,78,0.154864,10,0.0095016,-1.92013,0.126679,0.465742,0.785262,
2,1,0,1,0,51382.3,0.794839,0.794526,12.8417,78,0.164802,10,0.0102031,-1.89138,0.124459,0.474053,0.788875,
2,1,0,1,0,51383.1,0.798834,0.798549,13.7423,78,0.175428,10,0.0109739,-1.86194,0.121551,0.485394,0.792502,
2,1,0,1,0,51383.9,0.802829,0.802529,14.6948,78,0.186794,10,0.011793,-1.83284,0.123064,0.479427,0.796064,
2,1,0,0,0,51384.7,0.806825,0.806493,15.7115,78,0.198943,10,0.0126712,-1.80378,0.120436,0.489888,0.79958,
2,1,0,1,0,51385.5,0.81082,0.810511,16.7937,78,0.211935,10,0.0136115,-1.77485,0.123845,0.476401,0.803122,
2,1,0,1,0,51386.3,0.814815,0.814518,17.9222,78,0.22581,10,0.0145979,-1.74661,0.125077,0.471708,0.806632,
2,1,0,1,0,51387.1,0.81881,0.818486,19.1218,78,0.240611,10,0.0156509,-1.71847,0.123841,0.476418,0.810072,
2,1,0,1,0,51387.9,0.822805,0.822527,20.3719,78,0.256394,10,0.0167564,-1.69097,0.129449,0.455776,0.813564,
2,1,0,0,0,51388.7,0.826801,0.826519,21.6236,78,0.273179,10,0.0178723,-1.66507,0.132009,0.446938,0.817005,
2,1,0,1,0,51389.5,0.830796,0.830529,22.8842,78,0.290977,10,0.0190059,-1.64047,0.136648,0.431767,0.82046,
2,1,0,0,0,51390.3,0.834791,0.834485,24.2909,78,0.309845,10,0.0202704,-1.61456,0.140158,0.420952,0.823797,
2,1,0,1,0,51391.1,0.838786,0.838505,25.6581,78,0.329803,10,0.0215145,-1.59078,0.1436,0.410864,0.827216,
2,1,0,1,0,51391.9,0.842781,0.842451,27.0762,78,0.350877,10,0.0228104,-1.56741,0.135581,0.435166,0.830537,
2,1,0,1,0,51392.7,0.846776,0.846517,28.5878,78,0.37313,10,0.0242,-1.54382,0.153708,0.383845,0.833938,
2,1,0,0,0,51393.4,0.849723,0.849397,29.5418,78,0.393567,10,0.0250928,-1.52956,0.0482404,1.22304,0.836399,
2,1,0,1,0,51394.2,0.845728,0.845452,27.423,78,0.416261,10,0.0231849,-1.56188,0.106248,0.555304,0.833386,
2,1,0,0,0,51395,0.841732,0.841435,25.673,78,0.437446,10,0.0216022,-1.59052,0.114261,0.51636,0.830139,
2,1,0,1,0,51395.8,0.837737,0.837457,24.0457,78,0.457293,10,0.0201373,-1.61896,0.116505,0.506415,0.826877,
2,1,0,1,0,51396.6,0.833742,0.833515,22.5297,78,0.475882,10,0.0187788,-1.64724,0.115227,0.512031,0.823602,
2,1,0,1,0,51397.4,0.829747,0.829486,21.0796,78,0.493277,10,0.0174852,-1.67614,0.121885,0.484062,0.820211,
2,1,0,1,0,51398.2,0.825752,0.825418,19.7488,78,0.509579,10,0.016301,-1.70446,0.115516,0.510751,0.816729,
2,1,0,0,0,51399,0.821757,0.821443,17.2431,78,0.524664,10,0.0141642,-1.76338,0.0523154,1.12777,0.813856,
2,1,0,1,0,51399.8,0.817761,0.817466,16.2172,78,0.538017,10,0.013257,-1.79002,0.1329,0.443944,0.81033,
2,1,0,1,0,51400.6,0.813766,0.813425,15.2219,78,0.550569,10,0.0123819,-1.81753,0.124078,0.475507,0.806727,
2,1,0,1,0,51401.4,0.809771,0.809474,14.245,78,0.562329,10,0.011531,-1.84634,0.123104,0.479268,0.803207,
2,1,0,1,0,51402.2,0.805776,0.805501,13.3136,78,0.573328,10,0.0107241,-1.87571,0.122094,0.483234,0.799643,
2,1,0,0,0,51403,0.801781,0.801496,12.4307,78,0.583602,10,0.00996312,-1.90551,0.122112,0.483162,0.796026,
2,1,0,1,0,51403.8,0.797786,0.797509,11.5947,78,0.593189,10,0.0092469,-1.93574,0.11779,0.500891,0.792407,
2,1,0,1,0,51404.6,0.79379,0.793485,10.8047,78,0.60213,10,0.00857334,-1.96639,0.116915,0.504642,0.788731,
2,1,0,1,0,51405.4,0.789795,0.789494,10.0605,78,0.610454,10,0.00794267,-1.99738,0.122341,0.482258,0.785067,
2,1,0,1,0,51406.2,0.7858,0.785537,9.37845,78,0.618214,10,0.00736712,-2.02787,0.119054,0.495572,0.78141,
2,1,0,0,0,51407,0.781805,0.781495,8.7154,78,0.625433,10,0.00681104,-2.05971,0.116239,0.507576,0.777661,
2,1,0,1,0,51407.8,0.77781,0.777557,8.09494,78,0.632139,10,0.00629428,-2.09179,0.114957,0.513236,0.773995,
2,1,0,0,0,51408.6,0.773814,0.773498,7.50898,78,0.638363,10,0.00580818,-2.12442,0.113584,0.519438,0.770194,
2,1,0,1,0,51409.4,0.769819,0.769534,6.95805,78,0.644135,10,0.00535446,-2.15751,0.114727,0.514263,0.766472,
2,1,0,1,0,51410.2,0.765824,0.76554,6.44219,78,0.64948,10,0.00493175,-2.19097,0.112198,0.525855,0.762705,
2,1,0,1,0,51411,0.761829,0.761525,5.95602,78,0.654425,10,0.00453566,-2.22504,0.110435,0.534252,0.758905,
2,1,0,1,0,51411.8,0.757834,0.757558,5.49708,78,0.658993,10,0.00416436,-2.25987,0.105792,0.557696,0.755139,
2,1,0,0,0,51412.6,0.753839,0.753531,5.06555,78,0.663205,10,0.00381705,-2.29537,0.107605,0.548304,0.751303,
2,1,0,1,0,51413.4,0.749844,0.749529,4.66007,78,0.667083,10,0.00349286,-2.33161,0.103174,0.571849,0.747479,
2,1,0,1,0,51414.2,0.745848,0.745597,4.27939,78,0.670647,10,0.0031907,-2.36862,0.102155,0.577556,0.743714,
2,1,0,1,0,51415,0.741853,0.741567,3.91966,78,0.673915,10,0.00290669,-2.40675,0.100769,0.585499,0.739842,
2,1,0,1,0,51415.8,0.737858,0.737548,3.58197,78,0.676905,10,0.00264188,-2.44588,0.095527,0.617626,0.735972,
2,1,0,0,0,51416.6,0.733863,0.733563,3.26584,78,0.679633,10,0.0023957,-2.48601,0.0947379,0.622771,0.732126,
2,1,0,1,0,51417.4,0.729868,0.729567,2.9656,78,0.682114,10,0.0021636,-2.52789,0.0906475,0.650873,0.728262,
2,1,0,1,0,51418.2,0.725872,0.725552,2.68551,78,0.684366,10,0.00194848,-2.57097,0.0891856,0.661542,0.724371,
2,1,0,1,0,51419,0.721877,0.721575,2.42428,78,0.6864,10,0.0017493,-2.61542,0.0847226,0.69639,0.720508,
2,1,0,1,0,51419.8,0.717882,0.71754,2.17798,78,0.688231,10,0.00156279,-2.66195,0.0820445,0.719122,0.716582,
2,1,0,0,0,51420.6,0.713887,0.713624,1.94922,78,0.689873,10,0.00139101,-2.71014,0.0799054,0.738373,0.712766,
2,1,0,1,0,51421.4,0.709892,0.70958,1.73539,78,0.691338,10,0.0012314,-2.7606,0.0757338,0.779044,0.708816,
2,1,0,0,0,51422.2,0.705897,0.705586,1.53771,78,0.692638,10,0.00108498,-2.81313,0.0722713,0.816368,0.70491,
2,1,0,1,0,51423,0.701901,0.701588,1.35554,78,0.693787,10,0.000951028,-2.86789,0.0706395,0.835227,0.700992,
2,1,0,1,0,51423.8,0.697906,0.697573,1.18662,78,0.694795,10,0.000827753,-2.92569,0.0653865,0.902326,0.69705,
2,1,0,1,0,51424.6,0.693911,0.693623,1.0331,78,0.695675,10,0.00071658,-2.98586,0.0644668,0.915199,0.693168,
2,1,0,1,0,51425.4,0.689916,0.689615,0.891627,78,0.696437,10,0.00061488,-3.04982,0.0599323,0.984444,0.689223,
2,1,0,0,0,51426.2,0.685921,0.685639,0.764763,78,0.697092,10,0.000524351,-3.11647,0.0570989,1.0333,0.685302,
2,1,0,1,0,51427,0.681926,0.68159,0.649765,78,0.69765,10,0.000442873,-3.18724,0.0537733,1.0972,0.681304,
2,1,0,1,0,51427.8,0.67793,0.677642,0.546825,78,0.69812,10,0.000370551,-3.26215,0.052499,1.12383,0.677401,
2,1,0,1,0,51428.6,0.673935,0.673656,0.455352,78,0.698514,10,0.000306751,-3.34165,0.0480658,1.22748,0.673456,
2,1,0,1,0,51429.4,0.66994,0.669617,0.374703,78,0.698839,10,0.000250907,-3.42631,0.044597,1.32296,0.669453,
2,1,0,0,0,51430.2,0.665945,0.665612,0.303478,78,0.699103,10,0.000201998,-3.51787,0.0417145,1.41438,0.665479,
2,1,0,1,0,51431,0.66195,0.661653,0.241073,78,0.699313,10,0.000159507,-3.61785,0.0372608,1.58343,0.661546,
2,1,0,0,0,51431.8,0.657955,0.657624,0.188037,78,0.699478,10,0.000123657,-3.72576,0.0347933,1.69573,0.657541,
2,1,0,1,0,51432.6,0.653959,0.653619,0.139235,78,0.699602,10,9.10068e-05,-3.85625,0.0295862,1.99417,0.653557,
2,1,0,1,0,51433.4,0.649964,0.649639,0.100084,78,0.699691,10,6.50182e-05,-3.99964,0.0241157,2.44654,0.649595,
2,1,0,1,0,51434.2,0.64597,0.645649,0.0661134,78,0.699751,10,4.26861e-05,-4.17971,0.019404,3.0406,0.64562,
2,1,0,1,0,51435,0.641974,0.641655,0.0370584,78,0.699785,10,2.37787e-05,-4.43111,0.0120073,4.91366,0.641639,
2,1,0,0,0,51435.8,0.637979,0.637663,0.0126933,78,0.699799,10,8.09407e-06,-4.89642,0.00364304,16.1953,0.637657,
2,1,0,1,0,51436.6,0.633983,0.633677,-0.0080588,78,0.699794,10,-5.10668e-06,-5.09373,-0.00428999,-13.753,0.633681,
2,0,0,1,0,51437.4,0.629988,0.629666,-0.0243907,78,0.699775,10,-1.5358e-05,-4.61278,-0.0135784,-4.34513,0.629677,
2,0,0,1,0,51438.2,0.625993,0.625665,-0.0382477,78,0.699743,10,-2.39303e-05,-4.41739,-0.0285678,-2.06526,0.625682,
2,0,0,1,0,51439,0.621998,0.621651,-0.0507788,78,0.699701,10,-3.15667e-05,-4.29432,-0.0403449,-1.46239,0.621673,
2,0,0,0,0,51439.8,0.618003,0.617711,-0.0607963,78,0.69965,10,-3.75546e-05,-4.21612,-0.0597134,-0.988052,0.617738,
2,0,0,1,0,51440.6,0.614008,0.613714,-0.0699231,78,0.699591,10,-4.29128e-05,-4.15538,-0.0886351,-0.66565,0.613744,
2,0,0,1,0,51441.4,0.610012,0.609699,-0.075737,78,0.699527,10,-4.61768e-05,-4.12069,-0.0936768,-0.629825,0.609732,
2,0,0,1,0,51442.2,0.606017,0.605707,-0.0827446,78,0.699456,10,-5.01189e-05,-4.08226,-0.132711,-0.444574,0.605743,
2,0,0,1,0,51443,0.602022,0.601672,-0.0890804,78,0.699381,10,-5.35972e-05,-4.05022,-0.18504,-0.31885,0.601711,
2,0,0,0,0,51443.8,0.598027,0.597709,-0.0930676,78,0.699302,10,-5.56273e-05,-4.0312,-0.186098,-0.317038,0.59775,
2,0,0,1,0,51444.6,0.594032,0.59365,-0.0964863,78,0.69922,10,-5.7279e-05,-4.01553,-0.327334,-0.180244,0.593692,
2,0,0,0,0,51445.4,0.590037,0.589713,-0.10023,78,0.699135,10,-5.91072e-05,-3.999,-0.232371,-0.253905,0.589758,
2,0,0,1,0,51446.2,0.586041,0.585708,-0.102839,78,0.699047,10,-6.02334e-05,-3.98784,-0.320173,-0.184276,0.585753,
2,0,0,1,0,51447,0.582046,0.581702,-0.105229,78,0.698957,10,-6.12119e-05,-3.97787,-0.775039,-0.0761252,0.581749,
2,0,0,1,0,51447.8,0.578052,0.577695,-0.107532,78,0.698866,10,-6.21208e-05,-3.96846,-0.333697,-0.176807,0.577743,
2,0,0,1,0,51448.6,0.574056,0.573768,-0.108354,78,0.698772,10,-6.21703e-05,-3.96515,-0.851324,-0.0693039,0.573816,
2,0,0,0,0,51449.4,0.570061,0.569777,-0.111059,78,0.698678,10,-6.32789e-05,-3.95445,-4.35965,-0.0135332,0.569826,
2,0,0,1,0,51450.2,0.566065,0.5657,-0.11281,78,0.698582,10,-6.38164e-05,-3.94765,-0.347208,-0.169927,0.56575,
2,0,0,1,0,51451,0.56207,0.56174,-0.113554,78,0.698485,10,-6.3788e-05,-3.9448,-0.939334,-0.0628105,0.56179,
2,0,0,1,0,51451.8,0.558075,0.557731,-0.115309,78,0.698388,10,-6.43116e-05,-3.93814,-0.742263,-0.0794867,0.557782,
2,0,0,1,0,51452.6,0.55408,0.553758,-0.115473,78,0.698289,10,-6.39441e-05,-3.93752,-0.802486,-0.0735215,0.553809,
2,0,0,0,0,51453.4,0.550085,0.549761,-0.117091,78,0.698189,10,-6.4372e-05,-3.93148,1.46264,0.0403381,0.549812,
2,0,0,1,0,51454.2,0.54609,0.545765,-0.118276,78,0.698088,10,-6.4551e-05,-3.9271,-0.453008,-0.13024,0.545817,
2,0,0,1,0,51455,0.542094,0.541786,-0.119231,78,0.697987,10,-6.45974e-05,-3.92361,-1.92191,-0.0306986,0.541838,
2,0,0,1,0,51455.8,0.538099,0.537774,-0.120068,78,0.697885,10,-6.45695e-05,-3.92057,-1.7057,-0.03459,0.537826,
2,0,0,1,0,51456.6,0.534104,0.533788,-0.120952,78,0.697782,10,-6.45628e-05,-3.91739,-0.755417,-0.0781026,0.533841,
2,0,0,0,0,51457.4,0.530109,0.529796,-0.121857,78,0.697678,10,-6.45593e-05,-3.91415,-1.53586,-0.0384151,0.52985,
2,0,0,1,0,51458.2,0.526114,0.525783,-0.123743,78,0.697573,10,-6.50618e-05,-3.90748,-0.898736,-0.0656477,0.525837,
2,0,0,0,0,51459,0.522119,0.521782,-0.124162,78,0.697468,10,-6.47857e-05,-3.90601,-0.771063,-0.0765177,0.521836,
2,0,0,1,0,51459.7,0.518123,0.517804,-0.125513,78,0.697361,10,-6.4991e-05,-3.90131,-2.20775,-0.026724,0.517859,
2,0,0,1,0,51460.5,0.514128,0.513821,-0.126641,78,0.697254,10,-6.50706e-05,-3.89743,-0.909108,-0.0648988,0.513877,
2,0,0,1,0,51461.3,0.510133,0.509783,-0.126346,78,0.697147,10,-6.44091e-05,-3.89844,-1.995,-0.0295739,0.509839,
2,0,0,1,0,51462.1,0.506138,0.505791,-0.127877,78,0.697038,10,-6.4679e-05,-3.89321,-1.40507,-0.0419907,0.505847,
2,0,0,0,0,51462.9,0.502143,0.501808,-0.129257,78,0.696928,10,-6.4862e-05,-3.88855,-0.627665,-0.0939993,0.501865,
2,0,0,1,0,51463.7,0.498148,0.497817,-0.13068,78,0.696817,10,-6.50544e-05,-3.88379,-1.60567,-0.0367447,0.497874,
2,0,0,1,0,51464.5,0.494152,0.493809,-0.131343,78,0.696706,10,-6.48585e-05,-3.88159,-0.729748,-0.0808498,0.493867,
2,0,0,1,0,51465.3,0.490157,0.489849,-0.132335,78,0.696594,10,-6.48241e-05,-3.87833,-4.35991,-0.0135324,0.489907,
2,0,0,1,0,51466.1,0.486162,0.485794,-0.133953,78,0.696481,10,-6.50735e-05,-3.87305,-0.917612,-0.0642973,0.485853,
2,0,0,0,0,51466.9,0.482167,0.481834,-0.134042,78,0.696367,10,-6.45858e-05,-3.87276,-2.69571,-0.0218866,0.481893,
2,0,0,1,0,51467.7,0.478172,0.477835,-0.135364,78,0.696252,10,-6.46815e-05,-3.8685,-0.766875,-0.0769356,0.477895,
2,0,0,0,0,51468.5,0.474177,0.473836,-0.137452,78,0.696136,10,-6.51299e-05,-3.86185,-2.62519,-0.0224745,0.473897,
2,0,0,1,0,51469.3,0.470181,0.469882,-0.138126,78,0.696019,10,-6.4903e-05,-3.85972,-0.490461,-0.120295,0.469943,
2,0,0,1,0,51470.1,0.466186,0.465856,-0.140014,78,0.695901,10,-6.52262e-05,-3.85383,-1.23972,-0.0475915,0.465918,
2,0,0,1,0,51470.9,0.462191,0.461862,-0.14082,78,0.695781,10,-6.50395e-05,-3.85133,-0.948207,-0.0622227,0.461924,
2,0,0,1,0,51471.7,0.458196,0.457868,-0.142609,78,0.695661,10,-6.5296e-05,-3.84585,-0.799167,-0.0738269,0.457931,
2,0,0,0,0,51472.5,0.454201,0.453909,-0.144018,78,0.695539,10,-6.5371e-05,-3.84158,-0.910093,-0.0648285,0.453973,
2,0,0,1,0,51473.3,0.450205,0.449876,-0.145225,78,0.695416,10,-6.53331e-05,-3.83796,-1.22356,-0.0482199,0.44994,
2,0,0,1,0,51474.1,0.44621,0.445857,-0.14651,78,0.695292,10,-6.53225e-05,-3.83413,-0.736334,-0.0801266,0.445921,
2,0,0,1,0,51474.9,0.442215,0.441876,-0.149169,78,0.695166,10,-6.59142e-05,-3.82632,-1.43952,-0.0409858,0.441942,
2,0,0,1,0,51475.7,0.43822,0.437876,-0.149772,78,0.69504,10,-6.55814e-05,-3.82457,-0.477937,-0.123447,0.437942,
2,0,0,0,0,51476.5,0.434225,0.433924,-0.151581,78,0.694911,10,-6.57746e-05,-3.81936,-1.8023,-0.032736,0.433991,
2,0,0,1,0,51477.3,0.43023,0.429913,-0.153841,78,0.694782,10,-6.61383e-05,-3.81293,-0.814245,-0.0724598,0.429981,
2,0,0,1,0,51478.1,0.426234,0.425937,-0.155153,78,0.694651,10,-6.60853e-05,-3.80924,-0.567906,-0.10389,0.426005,
2,0,0,1,0,51478.9,0.422239,0.421933,-0.157446,78,0.694518,10,-6.64315e-05,-3.80287,-1.07905,-0.0546776,0.422002,
2,0,0,1,0,51479.7,0.418244,0.417921,-0.159153,78,0.694384,10,-6.65135e-05,-3.79818,-0.959368,-0.0614988,0.417991,
2,0,0,0,0,51480.5,0.414249,0.413955,-0.159811,78,0.694248,10,-6.61547e-05,-3.79639,-0.615633,-0.0958363,0.414026,
2,0,0,1,0,51481.3,0.410254,0.409875,-0.162413,78,0.694111,10,-6.65689e-05,-3.78938,-1.66444,-0.0354473,0.409946,
2,0,0,0,0,51482.1,0.406259,0.405913,-0.163806,78,0.693972,10,-6.64912e-05,-3.78567,-0.658132,-0.0896477,0.405985,
2,0,0,1,0,51482.9,0.402263,0.401916,-0.166476,78,0.693832,10,-6.69093e-05,-3.77865,-0.86592,-0.0681356,0.40199,
2,0,0,1,0,51483.7,0.398268,0.39792,-0.168966,78,0.69369,10,-6.7235e-05,-3.7722,-0.574835,-0.102638,0.397994,
2,0,0,1,0,51484.5,0.394274,0.393927,-0.170263,78,0.693547,10,-6.70711e-05,-3.76888,-0.843766,-0.0699246,0.394002,
2,0,0,1,0,51485.3,0.390278,0.389924,-0.172259,78,0.693402,10,-6.71682e-05,-3.76382,-1.11921,-0.0527158,0.39,
2,0,0,0,0,51486.1,0.386283,0.38597,-0.173751,78,0.693256,10,-6.70627e-05,-3.76007,-0.745301,-0.0791627,0.386047,
2,0,0,1,0,51486.9,0.382287,0.38199,-0.175731,78,0.693107,10,-6.71274e-05,-3.75515,-0.76249,-0.077378,0.382067,
2,0,0,1,0,51487.7,0.378292,0.37797,-0.17797,78,0.692958,10,-6.72674e-05,-3.74965,-1.23674,-0.0477062,0.378049,
2,0,0,1,0,51488.5,0.374297,0.373985,-0.179694,78,0.692806,10,-6.72027e-05,-3.74547,-0.689484,-0.0855713,0.374064,
2,0,0,1,0,51489.3,0.370303,0.369948,-0.181208,78,0.692653,10,-6.70374e-05,-3.74182,-0.868634,-0.0679227,0.370028,
2,0,0,0,0,51490.1,0.366307,0.365988,-0.183835,78,0.692498,10,-6.72812e-05,-3.73557,-0.915743,-0.0644286,0.366069,
2,0,0,1,0,51490.9,0.362312,0.362001,-0.185718,78,0.692341,10,-6.72299e-05,-3.73115,-0.434931,-0.135654,0.362082,
2,0,0,1,0,51491.7,0.358316,0.357999,-0.189198,78,0.692182,10,-6.77326e-05,-3.72308,-2.90365,-0.0203192,0.358082,
2,0,0,1,0,51492.5,0.354321,0.353982,-0.191088,78,0.692022,10,-6.76416e-05,-3.71877,-0.594328,-0.0992718,0.354066,
2,0,0,1,0,51493.3,0.350327,0.35,-0.192751,78,0.69186,10,-6.74629e-05,-3.715,-1.04956,-0.0562141,0.350085,
2,0,0,0,0,51494.1,0.346331,0.346014,-0.195404,78,0.691696,10,-6.76125e-05,-3.70907,-0.939537,-0.0627969,0.3461,
2,0,0,1,0,51494.9,0.342336,0.342022,-0.198636,78,0.69153,10,-6.79377e-05,-3.70194,-0.564012,-0.104608,0.342109,
2,0,0,0,0,51495.7,0.338341,0.338007,-0.199622,78,0.691362,10,-6.74736e-05,-3.69979,-0.874037,-0.0675028,0.338095,
2,0,0,1,0,51496.5,0.334345,0.334027,-0.203206,78,0.691192,10,-6.78761e-05,-3.69206,-1.29178,-0.0456733,0.334116,
2,0,0,1,0,51497.3,0.33035,0.330003,-0.204516,78,0.691021,10,-6.74908e-05,-3.68927,-0.711376,-0.0829379,0.330093,
2,0,0,1,0,51498.1,0.326355,0.32601,-0.207157,78,0.690847,10,-6.75353e-05,-3.6837,-0.718853,-0.0820751,0.326101,
2,0,0,1,0,51498.9,0.32236,0.322038,-0.208425,78,0.690672,10,-6.71208e-05,-3.68105,-0.72441,-0.0814456,0.32213,
2,0,0,0,0,51499.7,0.318365,0.318049,-0.211249,78,0.690495,10,-6.71875e-05,-3.67521,-0.74882,-0.0787906,0.318142,
2,0,0,1,0,51500.5,0.31437,0.31404,-0.214519,78,0.690315,10,-6.73675e-05,-3.66853,-1.57866,-0.0373735,0.314134,
2,0,0,1,0,51501.3,0.310374,0.31,-0.215899,78,0.690134,10,-6.69288e-05,-3.66575,-0.773161,-0.0763101,0.310095,
2,0,0,1,0,51502.1,0.306379,0.306004,-0.218515,78,0.689951,10,-6.68664e-05,-3.66052,-0.712449,-0.082813,0.3061,
2,0,0,1,0,51502.9,0.302385,0.302064,-0.221189,78,0.689766,10,-6.68133e-05,-3.65524,-1.4275,-0.0413309,0.302161,
2,0,0,0,0,51503.7,0.298389,0.29813,-0.222606,78,0.689579,10,-6.63656e-05,-3.65246,-0.475149,-0.124172,0.298228,
2,0,0,1,0,51504.5,0.294394,0.294002,-0.226599,78,0.68939,10,-6.66206e-05,-3.64474,-1.41942,-0.0415662,0.294102,
2,0,0,1,0,51505.3,0.290398,0.290076,-0.228059,78,0.689199,10,-6.61545e-05,-3.64195,-0.740363,-0.0796907,0.290177,
2,0,0,1,0,51506.1,0.286403,0.286078,-0.230287,78,0.689005,10,-6.588e-05,-3.63773,-0.685925,-0.0860152,0.286179,
2,0,0,1,0,51506.9,0.282408,0.282014,-0.23391,78,0.68881,10,-6.5966e-05,-3.63095,-1.12645,-0.052377,0.282117,
2,0,0,1,0,51507.7,0.278414,0.278103,-0.235759,78,0.688613,10,-6.55653e-05,-3.62753,-0.628484,-0.0938767,0.278207,
2,0,0,1,0,51508.5,0.274418,0.274057,-0.239041,78,0.688413,10,-6.55109e-05,-3.62153,-1.39481,-0.0422996,0.274162,
2,0,0,0,0,51509.3,0.270423,0.270122,-0.242339,78,0.688212,10,-6.54611e-05,-3.61558,-0.727975,-0.0810468,0.270228,
2,0,0,1,0,51510.1,0.266427,0.266071,-0.243736,78,0.688008,10,-6.4851e-05,-3.61308,-0.914242,-0.0645343,0.266178,
2,0,0,1,0,51510.9,0.262432,0.262089,-0.247464,78,0.687802,10,-6.48575e-05,-3.60649,-1.03316,-0.0571065,0.262198,
2,0,0,1,0,51511.7,0.258437,0.258114,-0.24892,78,0.687595,10,-6.42498e-05,-3.60394,-0.901574,-0.0654411,0.258224,
2,0,0,1,0,51512.5,0.254442,0.254073,-0.250322,78,0.687385,10,-6.36e-05,-3.6015,-1.30618,-0.0451698,0.254183,
2,0,0,0,0,51513.3,0.250447,0.250118,-0.253714,78,0.687174,10,-6.34586e-05,-3.59566,-2.66921,-0.0221039,0.25023,
2,0,0,1,0,51514.1,0.246452,0.246125,-0.255996,78,0.686961,10,-6.30069e-05,-3.59177,-0.5324,-0.110819,0.246237,
2,0,0,1,0,51514.9,0.242456,0.242094,-0.258359,78,0.686745,10,-6.25471e-05,-3.58778,-1.21635,-0.0485057,0.242208,
2,0,0,1,0,51515.7,0.238461,0.238124,-0.260634,78,0.686528,10,-6.20633e-05,-3.58397,-1.0798,-0.0546399,0.238239,
2,0,0,1,0,51516.5,0.234467,0.234115,-0.262827,78,0.686309,10,-6.15319e-05,-3.58033,-0.944146,-0.0624903,0.234231,
2,0,0,0,0,51517.3,0.230471,0.230142,-0.265069,78,0.686088,10,-6.10035e-05,-3.57664,-0.779515,-0.0756881,0.230259,
2,0,0,1,0,51518.1,0.226476,0.22615,-0.268081,78,0.685865,10,-6.06265e-05,-3.57173,-1.35353,-0.0435897,0.226268,
2,0,0,0,0,51518.9,0.222481,0.222164,-0.269254,78,0.685641,10,-5.98184e-05,-3.56984,-1.10259,-0.0535105,0.222282,
2,0,0,1,0,51519.7,0.218485,0.218102,-0.273031,78,0.685414,10,-5.95486e-05,-3.56379,-1.23826,-0.0476475,0.218222,
2,0,0,1,0,51520.5,0.21449,0.214133,-0.274734,78,0.685185,10,-5.88297e-05,-3.56109,-0.621815,-0.0948836,0.214254,
2,0,0,1,0,51521.3,0.210496,0.210167,-0.279023,78,0.684954,10,-5.86413e-05,-3.55436,-1.06163,-0.055575,0.210289,
2,0,0,1,0,51522.1,0.2065,0.206149,-0.28234,78,0.68472,10,-5.8204e-05,-3.54923,-0.781098,-0.0755347,0.206273,
2,0,0,0,0,51522.9,0.202505,0.202191,-0.284466,78,0.684483,10,-5.75165e-05,-3.54597,-1.13141,-0.0521474,0.202316,
2,0,0,1,0,51523.7,0.198509,0.198159,-0.286875,78,0.684244,10,-5.68468e-05,-3.54231,-0.918998,-0.0642003,0.198285,
2,0,0,1,0,51524.5,0.194514,0.194113,-0.290994,78,0.684003,10,-5.64857e-05,-3.53612,-0.524152,-0.112563,0.194241,
2,0,0,1,0,51525.3,0.190519,0.190139,-0.293242,78,0.683759,10,-5.57568e-05,-3.53277,-1.27791,-0.0461692,0.190268,
2,0,0,1,0,51526.1,0.186524,0.186173,-0.29793,78,0.683512,10,-5.54664e-05,-3.52589,-0.699241,-0.0843772,0.186304,
2,0,0,0,0,51526.9,0.182529,0.182232,-0.302653,78,0.683261,10,-5.51532e-05,-3.51905,-0.488731,-0.120721,0.182365,
2,0,0,1,0,51527.7,0.178534,0.178169,-0.308088,78,0.683007,10,-5.48915e-05,-3.51133,-0.621545,-0.0949248,0.178304,
2,0,0,1,0,51528.5,0.174538,0.17417,-0.313818,78,0.682748,10,-5.46575e-05,-3.50332,-0.409216,-0.144178,0.174308,
2,0,0,1,0,51529.3,0.170543,0.170201,-0.319018,78,0.682485,10,-5.42972e-05,-3.49618,-0.38965,-0.151418,0.170341,
2,0,0,1,0,51530.1,0.166549,0.16622,-0.326744,78,0.682216,10,-5.43115e-05,-3.48579,-0.425304,-0.138724,0.166364,
2,0,0,0,0,51530.9,0.162553,0.162236,-0.335433,78,0.681941,10,-5.44193e-05,-3.47439,-0.322846,-0.18275,0.162384,
2,0,0,1,0,51531.7,0.158558,0.158245,-0.346104,78,0.681657,10,-5.47691e-05,-3.46079,-0.253391,-0.232841,0.158397,
2,0,0,0,0,51532.5,0.154563,0.154242,-0.361915,78,0.681364,10,-5.58223e-05,-3.44139,-0.221412,-0.266472,0.154401,
2,0,0,1,0,51533.3,0.150567,0.150215,-0.380133,78,0.681057,10,-5.71015e-05,-3.42006,-0.147733,-0.399368,0.150382,
2,0,0,1,0,51534.1,0.146572,0.146279,-0.404546,78,0.680733,10,-5.91766e-05,-3.39303,-0.139669,-0.422427,0.146457,
2,0,0,1,0,51534.9,0.142578,0.142216,-0.438682,78,0.680386,10,-6.23875e-05,-3.35785,-0.10583,-0.557497,0.142409,
2,0,0,1,0,51535.7,0.138582,0.138198,-0.478095,78,0.68001,10,-6.60716e-05,-3.32049,-0.0960376,-0.614343,0.138408,
2,0,0,0,0,51536.5,0.134587,0.134249,-0.524849,78,0.679597,10,-7.04604e-05,-3.27997,-0.104981,-0.562004,0.13448,
2,0,0,1,0,51537.3,0.130591,0.130267,-0.572125,78,0.679147,10,-7.45287e-05,-3.24251,-0.112077,-0.526426,0.130518,
2,0,0,1,0,51538.1,0.126596,0.126253,-0.612556,78,0.678661,10,-7.73371e-05,-3.21285,-0.147258,-0.400656,0.126523,
2,0,0,1,0,51538.9,0.122602,0.122234,-0.646717,78,0.678145,10,-7.90505e-05,-3.18929,-0.233913,-0.25223,0.122518,
2,0,0,1,0,51539.7,0.118607,0.118249,-0.668854,78,0.677607,10,-7.9091e-05,-3.17467,-0.349457,-0.168833,0.118543,
2,0,0,0,0,51540.5,0.114611,0.114222,-0.67917,78,0.677057,10,-7.7576e-05,-3.16802,-1.0465,-0.0563785,0.114521,
2,0,0,1,0,51541.3,0.110616,0.11024,-0.683207,78,0.6765,10,-7.53167e-05,-3.16545,-2.44779,-0.0241034,0.110541,
2,0,0,1,0,51542.1,0.10662,0.106307,-0.682829,78,0.675943,10,-7.25893e-05,-3.16569,4.43827,0.0132935,0.106607,
2,0,0,1,0,51542.8,0.102625,0.102239,-0.68005,78,0.675385,10,-6.95278e-05,-3.16746,1.25257,0.047103,0.102538,
2,0,0,1,0,51543.6,0.0986305,0.0982885,-0.676918,78,0.674831,10,-6.65332e-05,-3.16946,1.65609,0.0356261,0.0985863,
2,0,0,0,0,51544.4,0.0946351,0.0942884,-0.668578,78,0.674281,10,-6.30391e-05,-3.17485,0.957547,0.0616158,0.0945826,
2,0,0,1,0,51545.2,0.0906399,0.0902758,-0.664215,78,0.673736,10,-5.99626e-05,-3.17769,0.701155,0.0841469,0.0905681,
2,0,0,0,0,51546,0.0866448,0.0862781,-0.654983,78,0.673197,10,-5.65107e-05,-3.18377,0.946148,0.0623581,0.0865663,
2,0,0,1,0,51546.8,0.0826492,0.0823023,-0.648054,78,0.672665,10,-5.33364e-05,-3.18839,0.636294,0.0927245,0.0825875,
2,0,0,1,0,51547.6,0.0786544,0.0783206,-0.639476,78,0.67214,10,-5.00841e-05,-3.19418,0.654202,0.0901862,0.078602,
2,0,0,1,0,51548.4,0.0746596,0.0743022,-0.630634,78,0.671621,10,-4.68575e-05,-3.20022,0.894743,0.0659407,0.0745797,
2,0,0,1,0,51549.2,0.0706641,0.0703327,-0.622801,78,0.671109,10,-4.38033e-05,-3.20565,0.53177,0.11095,0.0706068,
2,0,0,0,0,51550,0.0666689,0.0663445,-0.614026,78,0.670604,10,-4.07373e-05,-3.21181,0.934728,0.0631199,0.0666147,
2,0,0,1,0,51550.8,0.0626737,0.062332,-0.605055,78,0.670105,10,-3.77143e-05,-3.2182,0.570538,0.103411,0.0625982,
2,0,0,1,0,51551.6,0.0586783,0.0582926,-0.597482,78,0.669613,10,-3.48288e-05,-3.22367,0.548107,0.107643,0.0585555,
2,0,0,1,0,51552.4,0.0546835,0.0543217,-0.588178,78,0.669129,10,-3.19508e-05,-3.23049,0.660888,0.0892739,0.0545805,
2,0,0,1,0,51553.2,0.0506886,0.0503572,-0.577781,78,0.668651,10,-2.90954e-05,-3.23824,0.530134,0.111293,0.0506114,
2,0,0,0,0,51554,0.046693,0.0463697,-0.567279,78,0.668183,10,-2.63046e-05,-3.2462,0.533589,0.110572,0.0466193,
2,0,0,1,0,51554.8,0.0426979,0.0423359,-0.55715,78,0.667722,10,-2.35874e-05,-3.25403,0.548252,0.107615,0.042581,
2,0,0,1,0,51555.6,0.0387022,0.038309,-0.546877,78,0.667269,10,-2.09503e-05,-3.26211,0.424432,0.139009,0.0385496,
2,0,0,1,0,51556.4,0.0347074,0.0343307,-0.537471,78,0.666824,10,-1.84518e-05,-3.26964,0.50439,0.116973,0.0345672,
2,0,0,1,0,51557.2,0.0307126,0.0303587,-0.526238,78,0.666388,10,-1.59759e-05,-3.27882,0.585531,0.100763,0.0305903,
2,0,0,0,0,51558,0.0267172,0.0263397,-0.518987,78,0.665958,10,-1.36699e-05,-3.28484,0.503518,0.117176,0.026568,
2,0,0,1,0,51558.8,0.022722,0.0223706,-0.51208,78,0.665536,10,-1.14555e-05,-3.29066,0.890562,0.0662503,0.0225959,
2,0,0,0,0,51559.6,0.0187268,0.0183474,-0.506244,78,0.665118,10,-9.28825e-06,-3.29564,0.694649,0.084935,0.0185701,
2,0,0,1,0,51560.4,0.0147313,0.0143821,-0.502613,78,0.664705,10,-7.22863e-06,-3.29877,2.44621,0.0241189,0.0146032,
2,0,0,1,0,51561.2,0.0107365,0.0104367,-0.49903,78,0.664295,10,-5.20822e-06,-3.30187,2.86222,0.0206134,0.0106562,
2,0,0,1,0,51562,0.00674163,0.006418,-0.497269,78,0.663887,10,-3.19148e-06,-3.30341,2.73827,0.0215464,0.0066368,
2,0,0,1,0,51562.8,0.00274612,0.00241371,-0.49832,78,0.663478,10,-1.2028e-06,-3.30249,-1.68274,-0.0350618,0.00263297,
2,0,0,0,0,51563.3,0.000274105,-0.000145187,-0.500434,78,0.663223,10,7.26564e-08,-3.30065, , ,7.50039e-05,