File: Figure_codes/Fig_3-5/workspace_calculate_alpha_eff/20221101_1-115_003_TrumpetPlot_ParaChange_from10_every3_16_CV_C01_34.csv
mode,ox/red,error,control changes,counter inc.,time/s,control/V,Ewe/V,<I>/mA,cycle number,(Q-Qo)/C,I Range,P/W,log(|I|),Tafel slope mV/dec,alpha_eff,E-IR/V,
2,0,0,0,0,23271.6,2.44065e-05,-0.000325324,-0.0930337,35,0.0000000E+000,10,3.02661e-08,-4.03136, , ,-0.000284389,
2,1,0,0,0,23272.3,0.00379485,0.00347093,0.160649,35,0.00010638,10,5.57601e-07,-3.79412,0.0393196,1.50052,0.00340025,
2,1,0,1,0,23273.1,0.00779002,0.00747609,0.18334,35,0.000257707,10,1.37066e-06,-3.73674,0.082681,0.713586,0.00739542,
2,1,0,0,0,23273.9,0.0117852,0.0114961,0.198959,35,0.000425002,10,2.28725e-06,-3.70124,0.112646,0.523763,0.0114085,
2,1,0,1,0,23274.7,0.0157806,0.0154707,0.215377,35,0.000604822,10,3.33202e-06,-3.6668,0.138822,0.425004,0.0153759,
2,1,0,1,0,23275.5,0.0197754,0.0194542,0.22974,35,0.000795844,10,4.4694e-06,-3.63876,0.151321,0.3899,0.0193531,
2,1,0,1,0,23276.3,0.0237704,0.0234455,0.242841,35,0.000998535,10,5.69351e-06,-3.61468,0.160526,0.367541,0.0233386,
2,1,0,1,0,23277.1,0.0277659,0.0274414,0.258829,35,0.00121218,10,7.10263e-06,-3.58699,0.162904,0.362177,0.0273275,
2,1,0,0,0,23277.9,0.0317611,0.0314232,0.271567,35,0.00143778,10,8.53352e-06,-3.56612,0.172282,0.342462,0.0313038,
2,1,0,1,0,23278.7,0.0357567,0.0354141,0.287045,35,0.00167528,10,1.01654e-05,-3.54205,0.210503,0.280281,0.0352878,
2,1,0,1,0,23279.5,0.0397516,0.0394094,0.302411,35,0.0019239,10,1.19178e-05,-3.5194,0.16832,0.350523,0.0392763,
2,1,0,1,0,23280.3,0.0437465,0.0434132,0.313187,35,0.00218441,10,1.35965e-05,-3.5042,0.207625,0.284166,0.0432754,
2,1,0,1,0,23281.1,0.0477413,0.0474178,0.330268,35,0.00245536,10,1.56606e-05,-3.48113,0.227794,0.259006,0.0472725,
2,1,0,0,0,23281.9,0.0517369,0.0514109,0.340234,35,0.00273662,10,1.74917e-05,-3.46822,0.225753,0.261347,0.0512611,
2,1,0,1,0,23282.7,0.0557321,0.0554393,0.354717,35,0.0030287,10,1.96652e-05,-3.45012,0.320388,0.184152,0.0552833,
2,1,0,1,0,23283.5,0.0597277,0.0593823,0.366757,35,0.00332996,10,2.17789e-05,-3.43562,0.292438,0.201752,0.0592209,
2,1,0,1,0,23284.3,0.0637226,0.0633862,0.375605,35,0.00364045,10,2.38082e-05,-3.42527,0.323178,0.182562,0.0632209,
2,1,0,1,0,23285.1,0.0677174,0.0673867,0.387026,35,0.00396043,10,2.60804e-05,-3.41226,0.487246,0.121089,0.0672164,
2,1,0,0,0,23285.9,0.0717128,0.0713836,0.397135,35,0.00428776,10,2.83489e-05,-3.40106,0.277257,0.212799,0.0712089,
2,1,0,1,0,23286.7,0.075708,0.0753994,0.404267,35,0.0046229,10,3.04814e-05,-3.39333,0.503394,0.117204,0.0752215,
2,1,0,0,0,23287.5,0.0797031,0.0793791,0.414736,35,0.00496459,10,3.29214e-05,-3.38223,0.381671,0.154583,0.0791966,
2,1,0,1,0,23288.3,0.0836986,0.0833179,0.423609,35,0.00531336,10,3.52942e-05,-3.37304,0.373618,0.157915,0.0831315,
2,1,0,1,0,23289.1,0.0876935,0.0873735,0.436195,35,0.00567061,10,3.81119e-05,-3.36032,0.363796,0.162179,0.0871816,
2,1,0,1,0,23289.9,0.0916883,0.0913868,0.450428,35,0.00603779,10,4.11631e-05,-3.34637,0.225166,0.262028,0.0911886,
2,1,0,1,0,23290.7,0.0956838,0.0953753,0.465966,35,0.00641807,10,4.44417e-05,-3.33165,0.231685,0.254657,0.0951703,
2,1,0,0,0,23291.5,0.099679,0.0993847,0.489149,35,0.00681426,10,4.86139e-05,-3.31056,0.226866,0.260065,0.0991695,
2,1,0,1,0,23292.3,0.103674,0.10335,0.512347,35,0.00722825,10,5.29508e-05,-3.29044,0.176531,0.334219,0.103124,
2,1,0,1,0,23293.1,0.10767,0.107337,0.534533,35,0.00766206,10,5.73752e-05,-3.27203,0.226155,0.260883,0.107102,
2,1,0,1,0,23293.9,0.111664,0.111344,0.55674,35,0.00811268,10,6.19897e-05,-3.25435,0.257746,0.228907,0.111099,
2,1,0,1,0,23294.7,0.115659,0.115386,0.572581,35,0.00857764,10,6.60677e-05,-3.24216,0.326747,0.180568,0.115134,
2,1,0,0,0,23295.5,0.119655,0.119378,0.586952,35,0.00905579,10,7.00689e-05,-3.2314,0.478614,0.123273,0.119119,
2,1,0,1,0,23296.3,0.12365,0.123359,0.599849,35,0.0095442,10,7.39971e-05,-3.22196,0.372357,0.15845,0.123096,
2,1,0,1,0,23297.1,0.127646,0.127306,0.613431,35,0.010044,10,7.80932e-05,-3.21223,0.485981,0.121404,0.127036,
2,1,0,1,0,23297.9,0.131641,0.131341,0.621587,35,0.0105529,10,8.164e-05,-3.2065,-1.98028,-0.0297937,0.131068,
2,1,0,1,0,23298.7,0.135635,0.135344,0.613951,35,0.0110615,10,8.30945e-05,-3.21187,-0.390351,-0.151146,0.135074,
2,1,0,0,0,23299.5,0.139631,0.139292,0.584473,35,0.0115562,10,8.14124e-05,-3.23324,-0.137807,-0.428134,0.139035,
2,1,0,1,0,23300.3,0.143626,0.143325,0.535551,35,0.0120186,10,7.67578e-05,-3.2712,-0.0851914,-0.692558,0.143089,
2,1,0,0,0,23301.1,0.147621,0.147299,0.470994,35,0.0124348,10,6.9377e-05,-3.32698,-0.0688215,-0.857291,0.147092,
2,1,0,1,0,23301.9,0.151617,0.151337,0.413558,35,0.0128019,10,6.25868e-05,-3.38346,-0.0722105,-0.817055,0.151155,
2,1,0,1,0,23302.7,0.155612,0.155297,0.370464,35,0.0131273,10,5.75318e-05,-3.43125,-0.0954305,-0.618251,0.155134,
2,1,0,1,0,23303.5,0.159606,0.159274,0.339583,35,0.0134235,10,5.40868e-05,-3.46905,-0.130412,-0.452413,0.159125,
2,1,0,1,0,23304.3,0.163602,0.163288,0.319657,35,0.0137002,10,5.21961e-05,-3.49532,-0.157399,-0.374844,0.163147,
2,1,0,0,0,23305.1,0.167597,0.167267,0.305704,35,0.0139631,10,5.1134e-05,-3.5147,-0.296471,-0.199008,0.167132,
2,1,0,1,0,23305.9,0.171592,0.171271,0.294321,35,0.0142167,10,5.04085e-05,-3.53118,-0.294067,-0.200634,0.171141,
2,1,0,1,0,23306.7,0.175588,0.175255,0.286945,35,0.0144626,10,5.02885e-05,-3.5422,-0.382721,-0.154159,0.175129,
2,1,0,1,0,23307.5,0.179582,0.179284,0.280897,35,0.0147029,10,5.03604e-05,-3.55145,-0.521175,-0.113206,0.179161,
2,1,0,1,0,23308.3,0.183577,0.183267,0.276158,35,0.0149392,10,5.06107e-05,-3.55884,-0.506471,-0.116492,0.183145,
2,1,0,0,0,23309.1,0.187573,0.18723,0.273315,35,0.0151719,10,5.11727e-05,-3.56334,-0.790326,-0.0746527,0.18711,
2,1,0,1,0,23309.9,0.191568,0.191235,0.269912,35,0.0154015,10,5.16167e-05,-3.56878,-0.531066,-0.111097,0.191116,
2,1,0,0,0,23310.7,0.195563,0.19524,0.265696,35,0.0156287,10,5.18745e-05,-3.57562,-0.732086,-0.0805916,0.195123,
2,1,0,1,0,23311.5,0.199559,0.199214,0.263957,35,0.0158532,10,5.25838e-05,-3.57847,-1.46297,-0.0403288,0.199098,
2,1,0,1,0,23312.3,0.203553,0.20327,0.260334,35,0.0160758,10,5.29182e-05,-3.58447,-1.79038,-0.0329539,0.203156,
2,1,0,1,0,23313.1,0.207548,0.207257,0.259811,35,0.0162969,10,5.38478e-05,-3.58534,-1.07426,-0.0549215,0.207143,
2,1,0,1,0,23313.9,0.211544,0.211222,0.257205,35,0.016516,10,5.43272e-05,-3.58972,-3.04328,-0.0193869,0.211108,
2,1,0,0,0,23314.7,0.215539,0.215248,0.255257,35,0.0167338,10,5.49435e-05,-3.59302,-0.863177,-0.0683522,0.215136,
2,1,0,1,0,23315.5,0.219535,0.21921,0.254068,35,0.0169501,10,5.56942e-05,-3.59505,-0.76093,-0.0775367,0.219098,
2,1,0,1,0,23316.3,0.223529,0.223217,0.252816,35,0.0171653,10,5.64327e-05,-3.5972,-39.0831,-0.0015096,0.223106,
2,1,0,1,0,23317.1,0.227524,0.227236,0.250884,35,0.0173794,10,5.70099e-05,-3.60053,-1.0558,-0.055882,0.227125,
2,1,0,1,0,23317.9,0.23152,0.23124,0.25022,35,0.0175923,10,5.78609e-05,-3.60168,-16.3423,-0.00361027,0.23113,
2,1,0,0,0,23318.7,0.235515,0.235252,0.247315,35,0.0178045,10,5.81816e-05,-3.60675,-1.38199,-0.042692,0.235144,
2,1,0,1,0,23319.5,0.23951,0.239244,0.24724,35,0.0180155,10,5.91507e-05,-3.60688,10.6258,0.00555255,0.239135,
2,1,0,1,0,23320.2,0.243506,0.243187,0.246081,35,0.0182258,10,5.98438e-05,-3.60892,-1.94692,-0.0303043,0.243078,
2,1,0,1,0,23321,0.2475,0.247157,0.245547,35,0.0184357,10,6.06886e-05,-3.60987,-2.50291,-0.0235725,0.247049,
2,1,0,1,0,23321.8,0.251495,0.251171,0.243674,35,0.0186444,10,6.12038e-05,-3.61319,-1.42291,-0.0414644,0.251064,
2,1,0,0,0,23322.6,0.255491,0.255155,0.243679,35,0.0188524,10,6.21759e-05,-3.61318,-4.90134,-0.0120375,0.255048,
2,1,0,1,0,23323.4,0.259486,0.259168,0.242785,35,0.01906,10,6.29221e-05,-3.61478,-1.04686,-0.0563592,0.259061,
2,1,0,0,0,23324.2,0.263481,0.263172,0.242149,35,0.0192665,10,6.37268e-05,-3.61592,-5.18485,-0.0113793,0.263065,
2,1,0,1,0,23325,0.267477,0.267159,0.241138,35,0.0194724,10,6.44222e-05,-3.61773,-2.79543,-0.0211059,0.267053,
2,1,0,1,0,23325.8,0.271471,0.271138,0.241257,35,0.0196775,10,6.54139e-05,-3.61752,-2.19503,-0.0268789,0.271031,
2,1,0,1,0,23326.6,0.275466,0.275158,0.239847,35,0.0198817,10,6.59957e-05,-3.62007,21.1422,0.00279063,0.275053,
2,1,0,1,0,23327.4,0.279462,0.279128,0.238439,35,0.0200854,10,6.6555e-05,-3.62262,-1.9505,-0.0302487,0.279023,
2,1,0,0,0,23328.2,0.283457,0.283128,0.237969,35,0.0202881,10,6.73757e-05,-3.62348,-1.25404,-0.0470478,0.283023,
2,1,0,1,0,23329,0.287452,0.287154,0.236769,35,0.0204901,10,6.79893e-05,-3.62567,8.47662,0.00696032,0.28705,
2,1,0,1,0,23329.8,0.291448,0.291136,0.235276,35,0.0206914,10,6.84974e-05,-3.62842,-0.673206,-0.0876404,0.291032,
2,1,0,1,0,23330.6,0.295442,0.295142,0.235196,35,0.0208918,10,6.94161e-05,-3.62857,9.79618,0.00602276,0.295038,
2,1,0,1,0,23331.4,0.299437,0.299108,0.232757,35,0.0210918,10,6.96193e-05,-3.6331,-4.6501,-0.0126879,0.299005,
2,1,0,0,0,23332.2,0.303433,0.303135,0.232302,35,0.0212909,10,7.04191e-05,-3.63395,-2.77079,-0.0212936,0.303033,
2,1,0,1,0,23333,0.307428,0.30705,0.231435,35,0.0214895,10,7.10623e-05,-3.63557,-6.45503,-0.00914016,0.306949,
2,1,0,1,0,23333.8,0.311424,0.311076,0.232447,35,0.0216876,10,7.23088e-05,-3.63368,-3.46134,-0.0170454,0.310974,
2,1,0,1,0,23334.6,0.315418,0.315118,0.230824,35,0.0218849,10,7.27368e-05,-3.63672,-1.78356,-0.03308,0.315017,
2,1,0,1,0,23335.4,0.319413,0.319137,0.231248,35,0.0220817,10,7.37997e-05,-3.63592,-2.33987,-0.0252151,0.319035,
2,1,0,0,0,23336.2,0.323409,0.323107,0.22944,35,0.022278,10,7.41338e-05,-3.63933,-20.3307,-0.00290202,0.323006,
2,1,0,1,0,23337,0.327404,0.327131,0.229645,35,0.0224736,10,7.51241e-05,-3.63894,19.8179,0.00297711,0.32703,
2,1,0,0,0,23337.8,0.331399,0.331049,0.228952,35,0.0226689,10,7.57943e-05,-3.64026,-1.55802,-0.0378685,0.330948,
2,1,0,1,0,23338.6,0.335395,0.335057,0.229617,35,0.0228636,10,7.69348e-05,-3.639,-2.69318,-0.0219072,0.334956,
2,1,0,1,0,23339.4,0.339389,0.339091,0.2276,35,0.0230578,10,7.71769e-05,-3.64283,-3.20502,-0.0184086,0.33899,
2,1,0,1,0,23340.2,0.343384,0.343112,0.227035,35,0.0232515,10,7.78985e-05,-3.64391,-3.31902,-0.0177763,0.343013,
2,1,0,1,0,23341,0.34738,0.347041,0.226397,35,0.0234446,10,7.8569e-05,-3.64513,-4.26816,-0.0138233,0.346941,
2,1,0,0,0,23341.8,0.351375,0.351083,0.225512,35,0.0236373,10,7.91735e-05,-3.64683,5.42256,0.0108805,0.350984,
2,1,0,1,0,23342.6,0.35537,0.35507,0.225684,35,0.0238297,10,8.01336e-05,-3.6465,-1.76358,-0.0334547,0.354971,
2,1,0,1,0,23343.4,0.359366,0.359055,0.224868,35,0.0240214,10,8.07402e-05,-3.64807,16.6186,0.00355024,0.358956,
2,1,0,1,0,23344.2,0.36336,0.36302,0.224264,35,0.0242128,10,8.14123e-05,-3.64924,-1.43372,-0.0411518,0.362921,
2,1,0,1,0,23345,0.367355,0.36705,0.22415,35,0.0244036,10,8.22741e-05,-3.64946,1.15887,0.0509119,0.366951,
2,1,0,0,0,23345.8,0.371351,0.371048,0.223444,35,0.0245941,10,8.29084e-05,-3.65083,-1.21555,-0.0485377,0.37095,
2,1,0,1,0,23346.6,0.375346,0.375058,0.223242,35,0.0247844,10,8.37286e-05,-3.65122,-2.96552,-0.0198953,0.374959,
2,1,0,1,0,23347.4,0.379342,0.379059,0.223596,35,0.0249741,10,8.47561e-05,-3.65054,11.9739,0.00492738,0.378961,
2,1,0,1,0,23348.2,0.383336,0.383019,0.223152,35,0.0251633,10,8.54716e-05,-3.6514,-1.67019,-0.0353253,0.382921,
2,1,0,1,0,23349,0.387331,0.387037,0.222031,35,0.0253523,10,8.59341e-05,-3.65359,-2.53639,-0.0232614,0.386939,
2,1,0,0,0,23349.8,0.391327,0.390993,0.221973,35,0.0255409,10,8.67899e-05,-3.6537,1.662,0.0354995,0.390896,
2,1,0,1,0,23350.6,0.395322,0.395004,0.221263,35,0.0257295,10,8.73998e-05,-3.65509,-1.5546,-0.0379519,0.394906,
2,1,0,0,0,23351.4,0.399317,0.399017,0.221773,35,0.0259178,10,8.84911e-05,-3.65409,-9.62287,-0.00613123,0.39892,
2,1,0,1,0,23352.2,0.403313,0.403021,0.221291,35,0.0261058,10,8.91848e-05,-3.65504,1.4559,0.0405247,0.402923,
2,1,0,1,0,23353,0.407307,0.407024,0.221455,35,0.0262939,10,9.01375e-05,-3.65471,-2.10338,-0.0280501,0.406926,
2,1,0,1,0,23353.8,0.411302,0.411025,0.221861,35,0.0264815,10,9.11903e-05,-3.65392,-2.5845,-0.0228284,0.410927,
2,1,0,1,0,23354.6,0.415298,0.414997,0.220389,35,0.0266691,10,9.14605e-05,-3.65681,-14.4203,-0.00409144,0.4149,
2,1,0,0,0,23355.4,0.419293,0.419004,0.220599,35,0.0268565,10,9.24319e-05,-3.6564,-3.01167,-0.0195905,0.418907,
2,1,0,1,0,23356.2,0.423288,0.423011,0.221549,35,0.0270436,10,9.37179e-05,-3.65453,1.72738,0.0341558,0.422914,
2,1,0,1,0,23357,0.427283,0.426958,0.219608,35,0.0272311,10,9.37634e-05,-3.65835,-5.92012,-0.00996601,0.426862,
2,1,0,1,0,23357.8,0.431278,0.430953,0.220311,35,0.0274182,10,9.49436e-05,-3.65696,-6.41972,-0.00919042,0.430856,
2,1,0,1,0,23358.6,0.435273,0.434966,0.220262,35,0.0276051,10,9.58064e-05,-3.65706,1.75159,0.0336837,0.434869,
2,1,0,0,0,23359.4,0.439269,0.438979,0.220324,35,0.0277921,10,9.67175e-05,-3.65694,-1.69057,-0.0348994,0.438882,
2,1,0,1,0,23360.2,0.443264,0.442959,0.221319,35,0.027979,10,9.80352e-05,-3.65498,2.76384,0.0213471,0.442861,
2,1,0,0,0,23361,0.447259,0.446934,0.220126,35,0.0281657,10,9.83819e-05,-3.65733,13.0398,0.0045246,0.446837,
2,1,0,1,0,23361.8,0.451254,0.450972,0.220813,35,0.0283528,10,9.95805e-05,-3.65598,-1.55067,-0.038048,0.450875,
2,1,0,1,0,23362.6,0.455249,0.454931,0.220851,35,0.0285397,10,0.000100472,-3.6559,1.10807,0.0532457,0.454834,
2,1,0,1,0,23363.4,0.459244,0.458941,0.220908,35,0.0287269,10,0.000101384,-3.65579,-65.952,-0.00089459,0.458843,
2,1,0,1,0,23364.2,0.46324,0.462863,0.221281,35,0.0289144,10,0.000102423,-3.65506,2.25384,0.0261775,0.462766,
2,1,0,0,0,23365,0.467235,0.466907,0.222313,35,0.0291022,10,0.000103799,-3.65304,-3.17225,-0.0185988,0.466809,
2,1,0,1,0,23365.8,0.471231,0.470898,0.222556,35,0.0292905,10,0.000104801,-3.65256,-13.3186,-0.0044299,0.470801,
2,1,0,1,0,23366.6,0.475225,0.474957,0.2236,35,0.0294789,10,0.0001062,-3.65053,1.37877,0.0427917,0.474859,
2,1,0,1,0,23367.4,0.47922,0.478924,0.223669,35,0.0296675,10,0.000107121,-3.65039,13.2234,0.00446178,0.478826,
2,1,0,1,0,23368.2,0.483216,0.482944,0.223628,35,0.0298566,10,0.000108,-3.65047,4.69436,0.0125683,0.482846,
2,1,0,0,0,23369,0.487211,0.486906,0.225053,35,0.030046,10,0.00010958,-3.64772,1.32913,0.0443899,0.486807,
2,1,0,1,0,23369.8,0.491206,0.490876,0.225677,35,0.0302361,10,0.00011078,-3.64651,1.16917,0.0504632,0.490777,
2,1,0,1,0,23370.6,0.495201,0.494866,0.226976,35,0.0304266,10,0.000112323,-3.64402,-4.72188,-0.012495,0.494766,
2,1,0,1,0,23371.4,0.499196,0.49891,0.227024,35,0.0306175,10,0.000113265,-3.64393,1.40413,0.042019,0.49881,
2,1,0,1,0,23372.2,0.503191,0.50288,0.227728,35,0.0308093,10,0.00011452,-3.64258,-14.7394,-0.00400286,0.502779,
2,1,0,0,0,23373,0.507187,0.506865,0.228441,35,0.0310016,10,0.000115789,-3.64123,1.76119,0.0335,0.506764,
2,1,0,1,0,23373.8,0.511182,0.51087,0.22927,35,0.0311946,10,0.000117127,-3.63965,2.9062,0.0203014,0.510769,
2,1,0,0,0,23374.6,0.515177,0.514855,0.230685,35,0.0313887,10,0.000118769,-3.63698,2.57534,0.0229096,0.514754,
2,1,0,1,0,23375.4,0.519173,0.518885,0.231793,35,0.0315836,10,0.000120274,-3.6349,1.02511,0.0575548,0.518783,
2,1,0,1,0,23376.2,0.523167,0.522876,0.232657,35,0.0317794,10,0.000121651,-3.63328,1.081,0.0545793,0.522774,
2,1,0,1,0,23377,0.527162,0.526854,0.234929,35,0.0319763,10,0.000123774,-3.62906,2.32726,0.0253517,0.526751,
2,1,0,1,0,23377.8,0.531158,0.530855,0.236973,35,0.0321744,10,0.000125798,-3.6253,1.21741,0.0484635,0.53075,
2,1,0,0,0,23378.6,0.535153,0.53488,0.238399,35,0.0323742,10,0.000127515,-3.6227,2.50025,0.0235977,0.534775,
2,1,0,1,0,23379.4,0.539148,0.538837,0.240648,35,0.032575,10,0.00012967,-3.61862,0.749147,0.0787562,0.538731,
2,1,0,1,0,23380.2,0.543143,0.542871,0.24222,35,0.0327776,10,0.000131494,-3.61579,1.06976,0.0551526,0.542765,
2,1,0,1,0,23381,0.547138,0.54685,0.24438,35,0.032982,10,0.000133639,-3.61193,1.32079,0.0446702,0.546742,
2,1,0,1,0,23381.8,0.551133,0.550836,0.24652,35,0.0331881,10,0.000135792,-3.60815,0.79491,0.0742222,0.550728,
2,1,0,0,0,23382.6,0.555129,0.554806,0.248925,35,0.0333965,10,0.000138105,-3.60393,0.915451,0.0644491,0.554696,
2,1,0,1,0,23383.4,0.559124,0.558833,0.252658,35,0.0336068,10,0.000141194,-3.59747,0.581055,0.101539,0.558722,
2,1,0,1,0,23384.2,0.56312,0.562804,0.256342,35,0.0338198,10,0.000144271,-3.59118,0.51281,0.115052,0.562691,
2,1,0,1,0,23385,0.567114,0.566781,0.259315,35,0.0340357,10,0.000146975,-3.58617,0.809082,0.0729222,0.566667,
2,1,0,1,0,23385.8,0.571109,0.57082,0.262869,35,0.034254,10,0.000150051,-3.58026,0.774657,0.0761628,0.570704,
2,1,0,0,0,23386.6,0.575105,0.574821,0.267088,35,0.0344755,10,0.000153528,-3.57335,0.53611,0.110052,0.574704,
2,1,0,1,0,23387.4,0.5791,0.578761,0.271625,35,0.0347008,10,0.000157206,-3.56603,0.516325,0.114269,0.578641,
2,1,0,0,0,23388.2,0.583095,0.582792,0.27815,35,0.0349302,10,0.000162104,-3.55572,0.420614,0.140271,0.58267,
2,1,0,1,0,23389,0.58709,0.586815,0.283091,35,0.0351641,10,0.000166122,-3.54807,0.421634,0.139932,0.58669,
2,1,0,1,0,23389.8,0.591085,0.590789,0.290345,35,0.035403,10,0.000171533,-3.53709,0.309572,0.190586,0.590661,
2,1,0,1,0,23390.6,0.59508,0.594794,0.298501,35,0.0356476,10,0.000177546,-3.52505,0.381064,0.15483,0.594662,
2,1,0,1,0,23391.4,0.599076,0.59876,0.307233,35,0.0358988,10,0.000183959,-3.51253,0.289328,0.20392,0.598625,
2,1,0,0,0,23392.2,0.603071,0.602761,0.316627,35,0.0361571,10,0.00019085,-3.49945,0.326529,0.180688,0.602621,
2,1,0,1,0,23393,0.607066,0.606786,0.32649,35,0.0364238,10,0.000198109,-3.48613,0.240114,0.245716,0.606642,
2,1,0,1,0,23393.8,0.611061,0.610815,0.339478,35,0.0367,10,0.000207358,-3.46919,0.247195,0.238678,0.610666,
2,1,0,1,0,23394.6,0.615056,0.614777,0.355137,35,0.036987,10,0.00021833,-3.4496,0.18217,0.323873,0.614621,
2,1,0,1,0,23395.4,0.619051,0.618749,0.37173,35,0.0372874,10,0.000230008,-3.42977,0.191275,0.308456,0.618585,
2,1,0,0,0,23396.2,0.623047,0.622797,0.393373,35,0.0376026,10,0.000244992,-3.4052,0.16333,0.361232,0.622624,
2,1,0,1,0,23397,0.627042,0.626732,0.415967,35,0.0379349,10,0.0002607,-3.38094,0.152151,0.387773,0.626549,
2,1,0,1,0,23397.8,0.631037,0.630729,0.443347,35,0.0382877,10,0.000279632,-3.35326,0.143091,0.412325,0.630534,
2,1,0,1,0,23398.6,0.635032,0.634735,0.474843,35,0.0386636,10,0.0003014,-3.32345,0.12167,0.484917,0.634527,
2,1,0,1,0,23399.4,0.639027,0.638702,0.51214,35,0.0390677,10,0.000327105,-3.29061,0.115762,0.509665,0.638477,
2,1,0,1,0,23400.2,0.643022,0.642749,0.555694,35,0.0395039,10,0.000357172,-3.25516,0.111637,0.528499,0.642505,
2,1,0,1,0,23401,0.647018,0.646745,0.607639,35,0.0399775,10,0.000392988,-3.21635,0.0971252,0.607464,0.646478,
2,1,0,0,0,23401.8,0.651013,0.650737,0.668429,35,0.0404967,10,0.000434971,-3.17494,0.0943193,0.625535,0.650443,
2,1,0,1,0,23402.6,0.655008,0.654733,0.739303,35,0.0410683,10,0.000484046,-3.13118,0.0862655,0.683935,0.654407,
2,1,0,1,0,23403.3,0.659003,0.658714,0.823332,35,0.0417019,10,0.00054234,-3.08443,0.0838737,0.703439,0.658352,
2,1,0,1,0,23404.1,0.662998,0.662738,0.921019,35,0.0424079,10,0.000610394,-3.03573,0.0793729,0.743326,0.662333,
2,1,0,1,0,23404.9,0.666994,0.666696,1.03523,35,0.0431978,10,0.000690185,-2.98496,0.0780485,0.755941,0.66624,
2,1,0,0,0,23405.7,0.670989,0.670658,1.16447,35,0.0440845,10,0.000780959,-2.93387,0.0746873,0.789961,0.670145,
2,1,0,1,0,23406.5,0.674984,0.674703,1.31504,35,0.0450833,10,0.00088726,-2.88106,0.0739064,0.798307,0.674124,
2,1,0,1,0,23407.3,0.67898,0.67868,1.48617,35,0.0462105,10,0.00100864,-2.82793,0.0739059,0.798313,0.678026,
2,1,0,1,0,23408.1,0.682974,0.682699,1.67969,35,0.0474836,10,0.00114672,-2.77477,0.0726433,0.812188,0.68196,
2,1,0,1,0,23408.9,0.686969,0.686666,1.90085,35,0.048922,10,0.00130525,-2.72105,0.073899,0.798387,0.68583,
2,1,0,0,0,23409.7,0.690965,0.690736,2.14542,35,0.0505464,10,0.00148192,-2.66849,0.0735306,0.802387,0.689792,
2,1,0,1,0,23410.5,0.69496,0.694698,2.41893,35,0.0523781,10,0.00168042,-2.61638,0.076306,0.773203,0.693634,
2,1,0,0,0,23411.3,0.698955,0.698666,2.718,35,0.0544381,10,0.00189898,-2.56575,0.0767073,0.769158,0.69747,
2,1,0,1,0,23412.1,0.70295,0.70265,3.04552,35,0.0567498,10,0.00213994,-2.51634,0.0774948,0.761341,0.70131,
2,1,0,1,0,23412.9,0.706945,0.706646,3.40438,35,0.0593352,10,0.00240569,-2.46796,0.0806786,0.731296,0.705149,
2,1,0,1,0,23413.7,0.71094,0.710682,3.79111,35,0.062218,10,0.00269427,-2.42123,0.083978,0.702565,0.709014,
2,1,0,1,0,23414.5,0.714936,0.714647,4.2062,35,0.0654221,10,0.00300595,-2.37611,0.0851912,0.69256,0.712797,
2,1,0,0,0,23415.3,0.718931,0.718668,4.65127,35,0.0689687,10,0.00334272,-2.33243,0.0879267,0.671014,0.716622,
2,1,0,1,0,23416.1,0.722927,0.722649,5.12402,35,0.0728829,10,0.00370287,-2.29039,0.0918445,0.64239,0.720394,
2,1,0,1,0,23416.9,0.726921,0.726666,5.62492,35,0.077186,10,0.00408744,-2.24988,0.0957084,0.616456,0.724191,
2,1,0,1,0,23417.7,0.730916,0.730684,6.15578,35,0.0819013,10,0.00449793,-2.21072,0.0975236,0.604982,0.727975,
2,1,0,1,0,23418.5,0.734911,0.734644,6.71416,35,0.0870523,10,0.00493251,-2.17301,0.101116,0.583488,0.73169,
2,1,0,0,0,23419.3,0.738907,0.738643,7.30273,35,0.0926614,10,0.00539411,-2.13651,0.104093,0.566801,0.73543,
2,1,0,1,0,23420.1,0.742902,0.742624,7.9165,35,0.0987499,10,0.00587899,-2.10147,0.108806,0.542251,0.739141,
2,1,0,1,0,23420.9,0.746897,0.746626,8.5625,35,0.105343,10,0.00639299,-2.0674,0.108948,0.541543,0.742859,
2,1,0,1,0,23421.7,0.750892,0.750625,9.23801,35,0.112463,10,0.00693428,-2.03442,0.114182,0.516717,0.74656,
2,1,0,1,0,23422.5,0.754887,0.754614,9.94197,35,0.120134,10,0.00750235,-2.00253,0.115091,0.512637,0.750239,
2,1,0,0,0,23423.3,0.758883,0.758625,10.6895,35,0.128386,10,0.00810929,-1.97104,0.119509,0.493688,0.753921,
2,1,0,1,0,23424.1,0.762878,0.762628,11.4692,35,0.137245,10,0.00874671,-1.94047,0.117805,0.500827,0.757581,
2,1,0,0,0,23424.9,0.766873,0.766601,12.2972,35,0.14675,10,0.00942707,-1.91019,0.12207,0.483328,0.76119,
2,1,0,1,0,23425.7,0.770868,0.770595,13.1708,35,0.156932,10,0.0101494,-1.88039,0.120016,0.491602,0.7648,
2,1,0,1,0,23426.5,0.774863,0.774566,14.106,35,0.167836,10,0.010926,-1.8506,0.120959,0.487769,0.768359,
2,1,0,1,0,23427.3,0.778858,0.778592,15.1031,35,0.179512,10,0.0117592,-1.82093,0.119724,0.492799,0.771947,
2,1,0,1,0,23428.1,0.782854,0.782572,16.1769,35,0.192015,10,0.0126596,-1.7911,0.117885,0.500486,0.775454,
2,1,0,0,0,23428.9,0.786849,0.786602,17.3271,35,0.205407,10,0.0136295,-1.76127,0.11624,0.507571,0.778978,
2,1,0,1,0,23429.7,0.790844,0.790569,18.55,35,0.219745,10,0.014665,-1.73166,0.117816,0.500779,0.782407,
2,1,0,1,0,23430.5,0.794839,0.79456,19.8273,35,0.235088,10,0.0157539,-1.70274,0.118667,0.497189,0.785836,
2,1,0,1,0,23431.3,0.798834,0.798576,21.1326,35,0.251467,10,0.016876,-1.67505,0.123107,0.479258,0.789278,
2,1,0,1,0,23432.1,0.802829,0.802561,22.5799,35,0.268933,10,0.0181217,-1.64628,0.117947,0.500223,0.792626,
2,1,0,0,0,23432.9,0.806825,0.806539,24.0354,35,0.287569,10,0.0193855,-1.61915,0.125726,0.469273,0.795963,
2,1,0,1,0,23433.7,0.81082,0.810558,25.5625,35,0.307393,10,0.0207199,-1.5924,0.125508,0.470091,0.799311,
2,1,0,1,0,23434.5,0.814815,0.814531,27.1159,35,0.328448,10,0.0220867,-1.56678,0.129799,0.454548,0.8026,
2,1,0,1,0,23435.3,0.81881,0.818514,28.7426,35,0.350769,10,0.0235262,-1.54147,0.134217,0.439586,0.805868,
2,1,0,1,0,23436.1,0.822805,0.822559,30.365,35,0.374398,10,0.024977,-1.51763,0.139108,0.42413,0.809199,
2,1,0,0,0,23436.9,0.826801,0.826568,31.9983,35,0.399325,10,0.0264488,-1.49487,0.148154,0.398234,0.812489,
2,1,0,1,0,23437.7,0.830796,0.830561,33.6384,35,0.425559,10,0.0279388,-1.47316,0.149239,0.395339,0.81576,
2,1,0,0,0,23438.5,0.834791,0.834552,35.3496,35,0.453137,10,0.029501,-1.45162,0.160065,0.368599,0.818998,
2,1,0,1,0,23439.3,0.838786,0.838505,37.0224,35,0.482074,10,0.0310434,-1.43154,0.161923,0.364371,0.822215,
2,1,0,1,0,23440.1,0.842781,0.842548,38.7399,35,0.512352,10,0.0326402,-1.41184,0.167414,0.35242,0.825503,
2,1,0,1,0,23440.9,0.846776,0.846541,40.4264,35,0.544,10,0.0342226,-1.39334,0.182239,0.32375,0.828754,
2,1,0,0,0,23441.6,0.849723,0.849458,41.5128,35,0.572789,10,0.0352633,-1.38182,0.0435784,1.35388,0.831192,
2,1,0,1,0,23442.4,0.845728,0.845462,39.0051,35,0.604833,10,0.0329773,-1.40888,0.135831,0.434363,0.8283,
2,1,0,0,0,23443.2,0.841732,0.841464,37.0165,35,0.635192,10,0.031148,-1.4316,0.135212,0.436351,0.825176,
2,1,0,1,0,23444,0.837737,0.837484,35.1131,35,0.663988,10,0.0294066,-1.45453,0.137872,0.427933,0.822034,
2,1,0,1,0,23444.8,0.833742,0.833494,33.3289,35,0.691319,10,0.0277794,-1.47718,0.141566,0.416768,0.818829,
2,1,0,1,0,23445.6,0.829747,0.829521,31.5155,35,0.717214,10,0.0261428,-1.50148,0.129771,0.454646,0.815654,
2,1,0,1,0,23446.4,0.825752,0.825475,29.7665,35,0.741687,10,0.0245715,-1.52627,0.132838,0.444151,0.812377,
2,1,0,0,0,23447.2,0.821757,0.821525,28.1318,35,0.764812,10,0.023111,-1.5508,0.124986,0.472051,0.809147,
2,1,0,1,0,23448,0.817761,0.817475,26.4542,35,0.786597,10,0.0216257,-1.5775,0.124652,0.473319,0.805835,
2,1,0,1,0,23448.8,0.813766,0.813508,24.8657,35,0.807089,10,0.0202284,-1.6044,0.1187,0.497051,0.802567,
2,1,0,1,0,23449.6,0.809771,0.809495,23.3008,35,0.826316,10,0.0188619,-1.63263,0.117931,0.500294,0.799242,
2,1,0,1,0,23450.4,0.805776,0.805517,21.5585,35,0.844306,10,0.0173658,-1.66638,0.096845,0.609221,0.796031,
2,1,0,0,0,23451.2,0.801781,0.801533,20.3392,35,0.861016,10,0.0163026,-1.69167,0.134881,0.437423,0.792584,
2,1,0,1,0,23452,0.797786,0.797493,18.9887,35,0.87672,10,0.0151433,-1.72151,0.110782,0.532578,0.789138,
2,1,0,1,0,23452.8,0.79379,0.793524,17.6882,35,0.891358,10,0.014036,-1.75232,0.109598,0.538333,0.785741,
2,1,0,1,0,23453.6,0.789795,0.789475,16.4734,35,0.904988,10,0.0130054,-1.78322,0.113108,0.521623,0.782227,
2,1,0,1,0,23454.4,0.7858,0.785544,15.3235,35,0.917676,10,0.0120373,-1.81464,0.109364,0.539481,0.778802,
2,1,0,0,0,23455.2,0.781805,0.781529,14.2186,35,0.929468,10,0.0111122,-1.84714,0.108079,0.545897,0.775273,
2,1,0,1,0,23456,0.77781,0.777545,13.1788,35,0.940398,10,0.0102471,-1.88012,0.105274,0.560441,0.771747,
2,1,0,0,0,23456.8,0.773815,0.773546,12.1914,35,0.950517,10,0.00943062,-1.91395,0.105034,0.561723,0.768181,
2,1,0,1,0,23457.6,0.769819,0.769563,11.2626,35,0.959872,10,0.0086673,-1.94836,0.10284,0.573708,0.764608,
2,1,0,1,0,23458.4,0.765824,0.765559,10.3822,35,0.968503,10,0.00794816,-1.98371,0.102489,0.575674,0.760991,
2,1,0,1,0,23459.2,0.761829,0.761522,9.5591,35,0.976457,10,0.00727946,-2.01958,0.100904,0.584714,0.757316,
2,1,0,1,0,23460,0.757834,0.757592,8.78687,35,0.983774,10,0.00665686,-2.05617,0.0983864,0.599676,0.753726,
2,1,0,0,0,23460.8,0.753839,0.753558,8.05838,35,0.990489,10,0.00607245,-2.09375,0.0959899,0.614648,0.750012,
2,1,0,1,0,23461.6,0.749844,0.74958,7.36889,35,0.99664,10,0.00552357,-2.1326,0.0945902,0.623744,0.746338,
2,1,0,1,0,23462.4,0.745848,0.745595,6.73262,35,1.00226,10,0.00501981,-2.17182,0.0942197,0.626196,0.742633,
2,1,0,1,0,23463.2,0.741853,0.741563,6.12111,35,1.00738,10,0.00453918,-2.21317,0.0873619,0.675352,0.738869,
2,1,0,1,0,23464,0.737858,0.737572,5.56088,35,1.01204,10,0.00410155,-2.25486,0.090126,0.654639,0.735125,
2,1,0,0,0,23464.8,0.733863,0.733584,5.03874,35,1.01626,10,0.00369634,-2.29768,0.0838385,0.703734,0.731367,
2,1,0,1,0,23465.6,0.729868,0.729576,4.5345,35,1.02007,10,0.00330826,-2.34347,0.0853376,0.691372,0.727581,
2,1,0,1,0,23466.4,0.725872,0.725616,4.08328,35,1.0235,10,0.00296289,-2.38899,0.081296,0.725743,0.723819,
2,1,0,1,0,23467.2,0.721877,0.721561,3.66211,35,1.02658,10,0.00264243,-2.43627,0.0795262,0.741894,0.71995,
2,1,0,1,0,23468,0.717882,0.717609,3.27437,35,1.02934,10,0.00234972,-2.48487,0.0776357,0.759959,0.716169,
2,1,0,0,0,23468.8,0.713887,0.713586,2.91474,35,1.0318,10,0.00207992,-2.5354,0.074433,0.792659,0.712303,
2,1,0,1,0,23469.6,0.709892,0.709659,2.58223,35,1.03399,10,0.0018325,-2.58801,0.0714719,0.825499,0.708523,
2,1,0,0,0,23470.4,0.705897,0.705646,2.27718,35,1.03592,10,0.00160689,-2.6426,0.0700898,0.841778,0.704644,
2,1,0,1,0,23471.2,0.701901,0.701652,1.99897,35,1.03761,10,0.00140258,-2.69919,0.0663573,0.889126,0.700772,
2,1,0,1,0,23472,0.697906,0.697613,1.74349,35,1.0391,10,0.00121628,-2.75858,0.0643471,0.916903,0.696846,
2,1,0,1,0,23472.8,0.693911,0.693658,1.5136,35,1.04039,10,0.00104992,-2.81999,0.0622938,0.947124,0.692992,
2,1,0,1,0,23473.6,0.689916,0.68963,1.30437,35,1.0415,10,0.000899534,-2.8846,0.05917,0.997128,0.689056,
2,1,0,0,0,23474.4,0.685921,0.685652,1.1175,35,1.04246,10,0.000766216,-2.95175,0.0577665,1.02135,0.68516,
2,1,0,1,0,23475.2,0.681926,0.681643,0.952123,35,1.04327,10,0.000649008,-3.02131,0.0540525,1.09153,0.681224,
2,1,0,1,0,23476,0.67793,0.677644,0.803242,35,1.04396,10,0.000544312,-3.09515,0.0525275,1.12322,0.677291,
2,1,0,1,0,23476.8,0.673935,0.673658,0.672503,35,1.04454,10,0.000453037,-3.17231,0.0492597,1.19773,0.673363,
2,1,0,1,0,23477.6,0.66994,0.669658,0.55794,35,1.04502,10,0.000373629,-3.25341,0.0476081,1.23928,0.669412,
2,1,0,0,0,23478.4,0.665945,0.665638,0.458103,35,1.04542,10,0.00030493,-3.33904,0.0453835,1.30003,0.665436,
2,1,0,1,0,23479.2,0.66195,0.661653,0.371557,35,1.04574,10,0.000245841,-3.42997,0.0421158,1.4009,0.661489,
2,1,0,0,0,23480,0.657955,0.657664,0.297911,35,1.04599,10,0.000195926,-3.52591,0.0395559,1.49156,0.657533,
2,1,0,1,0,23480.8,0.653959,0.653647,0.232249,35,1.0462,10,0.000151809,-3.63405,0.035495,1.66221,0.653545,
2,1,0,1,0,23481.6,0.649964,0.649665,0.179947,35,1.04635,10,0.000116905,-3.74486,0.0322517,1.82936,0.649586,
2,1,0,1,0,23482.4,0.64597,0.645698,0.133156,35,1.04646,10,8.59783e-05,-3.87564,0.0292498,2.01711,0.645639,
2,1,0,1,0,23483.2,0.641974,0.641717,0.0947194,35,1.04654,10,6.0783e-05,-4.02356,0.0238706,2.47166,0.641675,
2,1,0,0,0,23484,0.637979,0.637696,0.0617591,35,1.0466,10,3.93835e-05,-4.2093,0.0198108,2.97817,0.637669,
2,1,0,1,0,23484.8,0.633983,0.633716,0.0333495,35,1.04662,10,2.11341e-05,-4.47691,0.011663,5.05874,0.633701,
2,1,0,1,0,23485.6,0.629988,0.629652,0.0113714,35,1.04663,10,7.16003e-06,-4.94419,0.00194019,30.4094,0.629647,
2,0,0,1,0,23486.3,0.625993,0.625706,-0.00818375,35,1.04662,10,-5.12062e-06,-5.08705,-0.00201408,-29.2937,0.62571,
2,0,0,1,0,23487.1,0.621998,0.621719,-0.0235899,35,1.0466,10,-1.46663e-05,-4.62727,-0.0145858,-4.04504,0.621729,
2,0,0,0,0,23487.9,0.618003,0.617729,-0.0377961,35,1.04657,10,-2.33478e-05,-4.42255,-0.02584,-2.28328,0.617746,
2,0,0,1,0,23488.7,0.614008,0.613666,-0.0494287,35,1.04652,10,-3.03327e-05,-4.30602,-0.0551971,-1.0689,0.613688,
2,0,0,1,0,23489.5,0.610012,0.609749,-0.0591336,35,1.04647,10,-3.60567e-05,-4.22817,-0.0624665,-0.944506,0.609775,
2,0,0,1,0,23490.3,0.606017,0.605728,-0.0670204,35,1.04641,10,-4.05961e-05,-4.17379,-0.0854547,-0.690425,0.605757,
2,0,0,1,0,23491.1,0.602022,0.601716,-0.0731312,35,1.04634,10,-4.40042e-05,-4.1359,-0.114375,-0.515847,0.601749,
2,0,0,0,0,23491.9,0.598027,0.597767,-0.0789821,35,1.04627,10,-4.72129e-05,-4.10247,-0.128143,-0.460422,0.597802,
2,0,0,1,0,23492.7,0.594032,0.593719,-0.0842323,35,1.0462,10,-5.00103e-05,-4.07452,-0.171239,-0.344548,0.593756,
2,0,0,0,0,23493.5,0.590037,0.589695,-0.0890232,35,1.04612,10,-5.24966e-05,-4.0505,-0.180535,-0.326806,0.589735,
2,0,0,1,0,23494.3,0.586041,0.585761,-0.0915224,35,1.04604,10,-5.36103e-05,-4.03847,-0.367521,-0.160535,0.585801,
2,0,0,1,0,23495.1,0.582046,0.581717,-0.0951809,35,1.04595,10,-5.53684e-05,-4.02145,-0.250528,-0.235502,0.581759,
2,0,0,1,0,23495.9,0.578052,0.577762,-0.0977118,35,1.04587,10,-5.64542e-05,-4.01005,-0.432023,-0.136567,0.577805,
2,0,0,1,0,23496.7,0.574056,0.573746,-0.099768,35,1.04578,10,-5.72415e-05,-4.00101,-0.347866,-0.169605,0.57379,
2,0,0,0,0,23497.5,0.570061,0.56973,-0.10213,35,1.04569,10,-5.81863e-05,-3.99085,-0.754962,-0.0781496,0.569775,
2,0,0,1,0,23498.3,0.566065,0.565792,-0.103629,35,1.0456,10,-5.86325e-05,-3.98452,-0.536787,-0.109913,0.565838,
2,0,0,1,0,23499.1,0.56207,0.561739,-0.106243,35,1.04551,10,-5.96806e-05,-3.9737,-0.456149,-0.129344,0.561786,
2,0,0,1,0,23499.9,0.558075,0.557755,-0.106591,35,1.04541,10,-5.94515e-05,-3.97228,0.517363,0.11404,0.557802,
2,0,0,1,0,23500.7,0.55408,0.55382,-0.106763,35,1.04532,10,-5.91274e-05,-3.97158,-0.235559,-0.250468,0.553867,
2,0,0,0,0,23501.5,0.550085,0.549767,-0.10874,35,1.04522,10,-5.97818e-05,-3.96361,-1.15706,-0.0509911,0.549815,
2,0,0,1,0,23502.3,0.54609,0.545791,-0.109175,35,1.04512,10,-5.95865e-05,-3.96188,-0.569544,-0.103592,0.545839,
2,0,0,1,0,23503.1,0.542094,0.541762,-0.110577,35,1.04503,10,-5.99063e-05,-3.95634,-1.60704,-0.0367136,0.541811,
2,0,0,1,0,23503.9,0.538099,0.537816,-0.112457,35,1.04493,10,-6.04811e-05,-3.94901,-2.17147,-0.0271705,0.537866,
2,0,0,1,0,23504.7,0.534104,0.53381,-0.113431,35,1.04483,10,-6.05509e-05,-3.94527,-0.801809,-0.0735836,0.53386,
2,0,0,0,0,23505.5,0.530109,0.529832,-0.114855,35,1.04473,10,-6.08537e-05,-3.93985,-1.19227,-0.0494852,0.529883,
2,0,0,1,0,23506.3,0.526114,0.525823,-0.115391,35,1.04462,10,-6.0675e-05,-3.93783,-0.605933,-0.0973705,0.525874,
2,0,0,0,0,23507.1,0.522119,0.521833,-0.116742,35,1.04452,10,-6.09198e-05,-3.93277,-1.66112,-0.0355182,0.521884,
2,0,0,1,0,23507.9,0.518123,0.51782,-0.117718,35,1.04442,10,-6.09568e-05,-3.92916,-1.22503,-0.0481621,0.517871,
2,0,0,1,0,23508.7,0.514128,0.513845,-0.118501,35,1.04431,10,-6.08912e-05,-3.92628,-0.887412,-0.0664855,0.513897,
2,0,0,1,0,23509.5,0.510133,0.509856,-0.118985,35,1.04421,10,-6.06652e-05,-3.92451,-0.873982,-0.0675071,0.509908,
2,0,0,1,0,23510.3,0.506138,0.505809,-0.120544,35,1.0441,10,-6.0972e-05,-3.91886,1.97659,0.0298494,0.505862,
2,0,0,0,0,23511.1,0.502143,0.501856,-0.121665,35,1.044,10,-6.10585e-05,-3.91483,-0.484229,-0.121843,0.501909,
2,0,0,1,0,23511.9,0.498148,0.497836,-0.123307,35,1.04389,10,-6.13866e-05,-3.90901,-1.3002,-0.0453776,0.49789,
2,0,0,1,0,23512.7,0.494152,0.493822,-0.124116,35,1.04378,10,-6.12914e-05,-3.90617,-0.592627,-0.0995568,0.493876,
2,0,0,1,0,23513.5,0.490157,0.489856,-0.12493,35,1.04367,10,-6.11978e-05,-3.90333,-0.797278,-0.0740018,0.489911,
2,0,0,1,0,23514.3,0.486162,0.485856,-0.126075,35,1.04356,10,-6.12545e-05,-3.89937,-1.59407,-0.0370123,0.485911,
2,0,0,0,0,23515.1,0.482167,0.481875,-0.127553,35,1.04345,10,-6.14648e-05,-3.89431,-0.775493,-0.0760806,0.481932,
2,0,0,1,0,23515.9,0.478172,0.477923,-0.128687,35,1.04334,10,-6.15024e-05,-3.89047,-1.687,-0.0349734,0.47798,
2,0,0,0,0,23516.7,0.474177,0.473856,-0.130035,35,1.04322,10,-6.1618e-05,-3.88594,-3.8454,-0.015343,0.473913,
2,0,0,1,0,23517.5,0.470181,0.469889,-0.131625,35,1.04311,10,-6.18493e-05,-3.88066,-0.502832,-0.117335,0.469947,
2,0,0,1,0,23518.3,0.466186,0.465873,-0.132923,35,1.04299,10,-6.19253e-05,-3.8764,-0.951786,-0.0619887,0.465931,
2,0,0,1,0,23519.1,0.462191,0.461887,-0.134219,35,1.04287,10,-6.19941e-05,-3.87219,-0.637659,-0.0925259,0.461946,
2,0,0,1,0,23519.9,0.458196,0.457871,-0.135913,35,1.04276,10,-6.22306e-05,-3.86674,-0.984521,-0.0599276,0.457931,
2,0,0,0,0,23520.7,0.454201,0.453903,-0.137248,35,1.04264,10,-6.22974e-05,-3.86249,-1.07882,-0.0546893,0.453963,
2,0,0,1,0,23521.5,0.450205,0.44991,-0.138207,35,1.04252,10,-6.21808e-05,-3.85947,-0.931864,-0.063314,0.449971,
2,0,0,1,0,23522.3,0.44621,0.445919,-0.140341,35,1.04239,10,-6.25807e-05,-3.85282,-0.841679,-0.070098,0.445981,
2,0,0,1,0,23523.1,0.442215,0.44191,-0.141696,35,1.04227,10,-6.26167e-05,-3.84864,-0.933299,-0.0632166,0.441972,
2,0,0,1,0,23523.9,0.43822,0.437947,-0.143333,35,1.04215,10,-6.27724e-05,-3.84365,-0.551699,-0.106942,0.43801,
2,0,0,0,0,23524.7,0.434225,0.43393,-0.145362,35,1.04202,10,-6.3077e-05,-3.83755,-1.0644,-0.0554304,0.433994,
2,0,0,1,0,23525.5,0.43023,0.429924,-0.146029,35,1.04189,10,-6.27814e-05,-3.83556,-0.709636,-0.0831412,0.429988,
2,0,0,1,0,23526.3,0.426234,0.425933,-0.14801,35,1.04177,10,-6.30425e-05,-3.82971,-0.57765,-0.102138,0.425998,
2,0,0,1,0,23527.1,0.422239,0.421959,-0.14952,35,1.04164,10,-6.30913e-05,-3.8253,-1.73061,-0.034092,0.422025,
2,0,0,1,0,23527.9,0.418244,0.417944,-0.151579,35,1.0415,10,-6.33514e-05,-3.81936,-0.896571,-0.0658063,0.41801,
2,0,0,0,0,23528.7,0.414249,0.413932,-0.154346,35,1.04137,10,-6.38888e-05,-3.8115,-0.429777,-0.13728,0.414,
2,0,0,1,0,23529.5,0.410254,0.409903,-0.15582,35,1.04124,10,-6.38711e-05,-3.80738,-1.38339,-0.0426489,0.409972,
2,0,0,0,0,23530.3,0.406259,0.405984,-0.157928,35,1.0411,10,-6.41164e-05,-3.80154,-0.641471,-0.0919761,0.406054,
2,0,0,1,0,23531.1,0.402263,0.401943,-0.159206,35,1.04096,10,-6.39917e-05,-3.79804,-0.762683,-0.0773584,0.402013,
2,0,0,1,0,23531.9,0.398268,0.397958,-0.162337,35,1.04082,10,-6.46035e-05,-3.78958,-1.50179,-0.0392863,0.39803,
2,0,0,1,0,23532.7,0.394274,0.393956,-0.163997,35,1.04068,10,-6.46075e-05,-3.78516,-0.55495,-0.106316,0.394028,
2,0,0,1,0,23533.5,0.390278,0.389949,-0.165982,35,1.04054,10,-6.47243e-05,-3.77994,-0.862359,-0.068417,0.390022,
2,0,0,0,0,23534.3,0.386283,0.385967,-0.167719,35,1.0404,10,-6.4734e-05,-3.77542,-0.595058,-0.0991499,0.386041,
2,0,0,1,0,23535.1,0.382287,0.381982,-0.168997,35,1.04025,10,-6.45538e-05,-3.77212,-0.80442,-0.0733448,0.382056,
2,0,0,1,0,23535.9,0.378292,0.378005,-0.171909,35,1.0401,10,-6.49825e-05,-3.7647,-2.02434,-0.0291453,0.378081,
2,0,0,1,0,23536.7,0.374297,0.374036,-0.173813,35,1.03995,10,-6.50122e-05,-3.75992,-0.564319,-0.104551,0.374112,
2,0,0,1,0,23537.5,0.370303,0.369992,-0.176564,35,1.0398,10,-6.53275e-05,-3.7531,-0.558498,-0.10564,0.37007,
2,0,0,0,0,23538.3,0.366307,0.366029,-0.17781,35,1.03965,10,-6.50837e-05,-3.75004,-0.886544,-0.0665506,0.366107,
2,0,0,1,0,23539.1,0.362312,0.362016,-0.180042,35,1.03949,10,-6.5178e-05,-3.74463,-0.627879,-0.0939671,0.362095,
2,0,0,1,0,23539.9,0.358316,0.357992,-0.182836,35,1.03934,10,-6.54539e-05,-3.73794,-1.04635,-0.0563867,0.358072,
2,0,0,1,0,23540.7,0.354321,0.354016,-0.184578,35,1.03918,10,-6.53435e-05,-3.73382,-0.791297,-0.0745611,0.354097,
2,0,0,1,0,23541.5,0.350327,0.35004,-0.186662,35,1.03902,10,-6.5339e-05,-3.72894,-0.541619,-0.108933,0.350122,
2,0,0,0,0,23542.3,0.346331,0.346009,-0.188948,35,1.03886,10,-6.53776e-05,-3.72366,-10.7458,-0.00549053,0.346092,
2,0,0,1,0,23543.1,0.342336,0.342005,-0.190657,35,1.03869,10,-6.52057e-05,-3.71975,-0.478694,-0.123252,0.342089,
2,0,0,0,0,23543.9,0.338341,0.338008,-0.194612,35,1.03853,10,-6.57804e-05,-3.71083,-0.76295,-0.0773314,0.338094,
2,0,0,1,0,23544.7,0.334345,0.334045,-0.197021,35,1.03836,10,-6.58137e-05,-3.70549,-0.65943,-0.0894712,0.334132,
2,0,0,1,0,23545.5,0.33035,0.330048,-0.19917,35,1.03819,10,-6.57356e-05,-3.70078,-0.857805,-0.0687802,0.330135,
2,0,0,1,0,23546.3,0.326355,0.326054,-0.200681,35,1.03802,10,-6.54329e-05,-3.69749,-0.845066,-0.0698171,0.326143,
2,0,0,1,0,23547.1,0.32236,0.322061,-0.202302,35,1.03784,10,-6.51534e-05,-3.694,-0.724582,-0.0814262,0.32215,
2,0,0,0,0,23547.9,0.318365,0.318066,-0.205179,35,1.03767,10,-6.52603e-05,-3.68787,-0.828595,-0.0712049,0.318156,
2,0,0,1,0,23548.7,0.31437,0.314067,-0.208148,35,1.03749,10,-6.53723e-05,-3.68163,-1.04727,-0.0563372,0.314159,
2,0,0,1,0,23549.5,0.310374,0.310049,-0.210757,35,1.03731,10,-6.53451e-05,-3.67622,-0.499048,-0.118225,0.310142,
2,0,0,1,0,23550.3,0.306379,0.306055,-0.212532,35,1.03713,10,-6.50465e-05,-3.67258,-1.04817,-0.0562884,0.306148,
2,0,0,1,0,23551.1,0.302385,0.302103,-0.214396,35,1.03695,10,-6.47696e-05,-3.66878,-0.503007,-0.117295,0.302197,
2,0,0,0,0,23551.9,0.298389,0.298081,-0.218144,35,1.03676,10,-6.50243e-05,-3.66126,-1.53388,-0.0384645,0.298176,
2,0,0,1,0,23552.7,0.294394,0.294084,-0.22052,35,1.03657,10,-6.48513e-05,-3.65655,-0.796156,-0.0741061,0.294181,
2,0,0,1,0,23553.5,0.290398,0.290068,-0.223054,35,1.03638,10,-6.47008e-05,-3.65159,-0.920016,-0.0641293,0.290166,
2,0,0,1,0,23554.3,0.286403,0.286046,-0.226007,35,1.03619,10,-6.46484e-05,-3.64588,-0.835494,-0.0706169,0.286145,
2,0,0,1,0,23555.1,0.282408,0.28211,-0.228975,35,1.036,10,-6.45962e-05,-3.64021,-1.08237,-0.05451,0.282211,
2,0,0,1,0,23555.9,0.278414,0.2781,-0.23068,35,1.0358,10,-6.41519e-05,-3.63699,-0.570551,-0.103409,0.278201,
2,0,0,1,0,23556.7,0.274418,0.274118,-0.234454,35,1.0356,10,-6.42681e-05,-3.62994,-0.627932,-0.0939592,0.274222,
2,0,0,0,0,23557.5,0.270423,0.270098,-0.236758,35,1.0354,10,-6.39479e-05,-3.6257,-0.973376,-0.0606138,0.270203,
2,0,0,1,0,23558.3,0.266427,0.266125,-0.240031,35,1.0352,10,-6.38781e-05,-3.61973,-1.2707,-0.0464312,0.26623,
2,0,0,1,0,23559.1,0.262432,0.262134,-0.241842,35,1.03499,10,-6.33949e-05,-3.61647,-0.767708,-0.0768522,0.26224,
2,0,0,1,0,23559.9,0.258437,0.258157,-0.244997,35,1.03479,10,-6.32475e-05,-3.61084,-0.862842,-0.0683787,0.258264,
2,0,0,1,0,23560.7,0.254442,0.254116,-0.246157,35,1.03458,10,-6.25524e-05,-3.60879,-0.920578,-0.0640902,0.254224,
2,0,0,0,0,23561.5,0.250447,0.250118,-0.248736,35,1.03437,10,-6.22135e-05,-3.60426,-1.55301,-0.0379907,0.250228,
2,0,0,1,0,23562.3,0.246452,0.246118,-0.251865,35,1.03416,10,-6.19887e-05,-3.59883,-0.707463,-0.0833966,0.246229,
2,0,0,1,0,23563.1,0.242456,0.24213,-0.254387,35,1.03394,10,-6.15948e-05,-3.5945,-1.14855,-0.0513692,0.242242,
2,0,0,1,0,23563.9,0.238461,0.238095,-0.257018,35,1.03372,10,-6.11948e-05,-3.59004,-0.892953,-0.0660729,0.238209,
2,0,0,1,0,23564.7,0.234467,0.234145,-0.259121,35,1.03351,10,-6.06717e-05,-3.5865,-0.768956,-0.0767274,0.234259,
2,0,0,0,0,23565.5,0.230471,0.230157,-0.262204,35,1.03328,10,-6.0348e-05,-3.58136,-1.12821,-0.0522952,0.230273,
2,0,0,1,0,23566.3,0.226476,0.226123,-0.265743,35,1.03306,10,-6.00907e-05,-3.57554,-0.933681,-0.0631907,0.22624,
2,0,0,0,0,23567.1,0.222481,0.22217,-0.266082,35,1.03284,10,-5.91155e-05,-3.57498,-1.09008,-0.0541246,0.222287,
2,0,0,1,0,23567.9,0.218485,0.218136,-0.269309,35,1.03261,10,-5.87462e-05,-3.56975,-1.13343,-0.0520545,0.218255,
2,0,0,1,0,23568.6,0.21449,0.214179,-0.272547,35,1.03238,10,-5.83739e-05,-3.56456,-0.52181,-0.113068,0.214299,
2,0,0,1,0,23569.4,0.210496,0.210186,-0.275708,35,1.03215,10,-5.795e-05,-3.55955,-1.01924,-0.0578861,0.210307,
2,0,0,1,0,23570.2,0.2065,0.206212,-0.279101,35,1.03192,10,-5.7554e-05,-3.55424,-0.84484,-0.0698357,0.206335,
2,0,0,0,0,23571,0.202505,0.202157,-0.281626,35,1.03168,10,-5.69327e-05,-3.55033,-0.771642,-0.0764604,0.202281,
2,0,0,1,0,23571.8,0.198509,0.198187,-0.285702,35,1.03144,10,-5.66223e-05,-3.54409,-0.730232,-0.0807963,0.198312,
2,0,0,1,0,23572.6,0.194514,0.194191,-0.288157,35,1.0312,10,-5.59575e-05,-3.54037,-0.865613,-0.0681598,0.194318,
2,0,0,1,0,23573.4,0.190519,0.190203,-0.292237,35,1.03095,10,-5.55845e-05,-3.53426,-0.606657,-0.0972543,0.190332,
2,0,0,1,0,23574.2,0.186524,0.18619,-0.297453,35,1.0307,10,-5.53827e-05,-3.52658,-0.658575,-0.0895873,0.18632,
2,0,0,0,0,23575,0.182529,0.182193,-0.302708,35,1.03045,10,-5.51512e-05,-3.51898,-0.33729,-0.174924,0.182326,
2,0,0,1,0,23575.8,0.178534,0.17819,-0.308416,35,1.03019,10,-5.49566e-05,-3.51086,-0.57737,-0.102188,0.178326,
2,0,0,1,0,23576.6,0.174538,0.174219,-0.315947,35,1.02993,10,-5.50441e-05,-3.50039,-0.39578,-0.149073,0.174358,
2,0,0,1,0,23577.4,0.170543,0.170201,-0.323158,35,1.02966,10,-5.50017e-05,-3.49058,-0.273352,-0.215839,0.170343,
2,0,0,1,0,23578.2,0.166549,0.166204,-0.333657,35,1.02938,10,-5.54549e-05,-3.4767,-0.303399,-0.194463,0.16635,
2,0,0,0,0,23579,0.162553,0.162215,-0.346036,35,1.0291,10,-5.61322e-05,-3.46088,-0.243967,-0.241836,0.162367,
2,0,0,1,0,23579.8,0.158558,0.158242,-0.361336,35,1.0288,10,-5.71784e-05,-3.44209,-0.187153,-0.315249,0.1584,
2,0,0,0,0,23580.6,0.154563,0.154224,-0.382533,35,1.02849,10,-5.89956e-05,-3.41733,-0.159091,-0.370858,0.154392,
2,0,0,1,0,23581.4,0.150567,0.150276,-0.408814,35,1.02816,10,-6.14351e-05,-3.38847,-0.116924,-0.504599,0.150456,
2,0,0,1,0,23582.2,0.146572,0.146246,-0.4455,35,1.02781,10,-6.51528e-05,-3.35115,-0.10045,-0.587358,0.146442,
2,0,0,1,0,23583,0.142578,0.142273,-0.491901,35,1.02742,10,-6.99843e-05,-3.30812,-0.0850466,-0.693737,0.14249,
2,0,0,1,0,23583.8,0.138582,0.13831,-0.545173,35,1.027,10,-7.54029e-05,-3.26347,-0.0870253,-0.677964,0.13855,
2,0,0,0,0,23584.6,0.134587,0.134239,-0.603842,35,1.02652,10,-8.10593e-05,-3.21908,-0.101452,-0.581557,0.134505,
2,0,0,1,0,23585.4,0.130591,0.130258,-0.658279,35,1.026,10,-8.57461e-05,-3.18159,-0.122488,-0.481678,0.130548,
2,0,0,1,0,23586.2,0.126596,0.126256,-0.696726,35,1.02545,10,-8.79661e-05,-3.15694,-0.183596,-0.321358,0.126563,
2,0,0,1,0,23587,0.122602,0.122247,-0.725742,35,1.02486,10,-8.872e-05,-3.13922,-0.382084,-0.154416,0.122567,
2,0,0,1,0,23587.8,0.118607,0.118296,-0.737539,35,1.02426,10,-8.72482e-05,-3.13222,-0.633927,-0.0930706,0.118621,
2,0,0,0,0,23588.6,0.114611,0.114319,-0.740994,35,1.02366,10,-8.47101e-05,-3.13019,1.78277,0.0330946,0.114646,
2,0,0,1,0,23589.4,0.110616,0.110251,-0.737733,35,1.02305,10,-8.13356e-05,-3.1321,1.66394,0.0354579,0.110575,
2,0,0,1,0,23590.2,0.10662,0.106299,-0.730807,35,1.02245,10,-7.76841e-05,-3.1362,0.820354,0.0719201,0.106621,
2,0,0,1,0,23591,0.102625,0.10232,-0.721543,35,1.02186,10,-7.38282e-05,-3.14174,0.56416,0.10458,0.102637,
2,0,0,1,0,23591.8,0.0986305,0.0982737,-0.709524,35,1.02127,10,-6.97276e-05,-3.14903,0.625631,0.0943048,0.0985858,
2,0,0,0,0,23592.6,0.0946351,0.0943032,-0.695397,35,1.0207,10,-6.55782e-05,-3.15777,0.546024,0.108054,0.0946092,
2,0,0,1,0,23593.4,0.0906399,0.090314,-0.686793,35,1.02013,10,-6.2027e-05,-3.16317,0.488298,0.120828,0.0906162,
2,0,0,0,0,23594.2,0.0866448,0.0863035,-0.674884,35,1.01957,10,-5.82448e-05,-3.17077,0.612383,0.096345,0.0866005,
2,0,0,1,0,23595,0.0826492,0.0823225,-0.664882,35,1.01902,10,-5.47347e-05,-3.17726,0.570151,0.103481,0.082615,
2,0,0,1,0,23595.8,0.0786544,0.0783197,-0.654553,35,1.01848,10,-5.12644e-05,-3.18406,0.612237,0.096368,0.0786077,
2,0,0,1,0,23596.6,0.0746596,0.0743498,-0.643735,35,1.01795,10,-4.78615e-05,-3.19129,0.708627,0.0832595,0.074633,
2,0,0,1,0,23597.4,0.0706641,0.0703571,-0.635314,35,1.01743,10,-4.46989e-05,-3.19701,0.543321,0.108591,0.0706367,
2,0,0,0,0,23598.2,0.0666689,0.0663392,-0.626294,35,1.01691,10,-4.15478e-05,-3.20322,0.801442,0.0736173,0.0666148,
2,0,0,1,0,23599,0.0626737,0.0623585,-0.615911,35,1.0164,10,-3.84073e-05,-3.21048,0.613234,0.0962113,0.0626295,
2,0,0,1,0,23599.8,0.0586783,0.058352,-0.608662,35,1.01589,10,-3.55167e-05,-3.21562,0.440916,0.133812,0.0586198,
2,0,0,1,0,23600.6,0.0546835,0.0543357,-0.598764,35,1.0154,10,-3.25342e-05,-3.22274,0.896444,0.0658156,0.0545992,
2,0,0,1,0,23601.4,0.0506886,0.0504052,-0.588232,35,1.01491,10,-2.965e-05,-3.23045,0.457883,0.128854,0.0506641,
2,0,0,0,0,23602.2,0.046693,0.046357,-0.579276,35,1.01443,10,-2.68535e-05,-3.23711,0.557593,0.105812,0.0466118,
2,0,0,1,0,23603,0.0426979,0.042356,-0.567992,35,1.01396,10,-2.40579e-05,-3.24566,0.579532,0.101806,0.042606,
2,0,0,1,0,23603.8,0.0387022,0.0383853,-0.55644,35,1.0135,10,-2.13591e-05,-3.25458,0.397061,0.148592,0.0386301,
2,0,0,1,0,23604.6,0.0347074,0.0343975,-0.546401,35,1.01304,10,-1.87949e-05,-3.26249,0.515724,0.114402,0.034638,
2,0,0,1,0,23605.4,0.0307126,0.0303969,-0.534191,35,1.01259,10,-1.62377e-05,-3.2723,0.546341,0.107991,0.0306319,
2,0,0,0,0,23606.2,0.0267172,0.0263694,-0.527211,35,1.01216,10,-1.39022e-05,-3.27802,0.466053,0.126595,0.0266013,
2,0,0,1,0,23607,0.022722,0.0223695,-0.518265,35,1.01173,10,-1.15933e-05,-3.28545,0.754635,0.0781835,0.0225975,
2,0,0,0,0,23607.8,0.0187268,0.0184004,-0.511697,35,1.0113,10,-9.41543e-06,-3.29099,0.685734,0.0860391,0.0186255,
2,0,0,1,0,23608.6,0.0147313,0.0143535,-0.506974,35,1.01088,10,-7.27685e-06,-3.29501,0.877989,0.067199,0.0145766,
2,0,0,1,0,23609.4,0.0107365,0.010425,-0.502166,35,1.01046,10,-5.2351e-06,-3.29915,1.60925,0.0366631,0.010646,
2,0,0,1,0,23610.2,0.00674163,0.00644024,-0.499907,35,1.01005,10,-3.21952e-06,-3.30111,5.39373,0.0109386,0.0066602,
2,0,0,1,0,23611,0.00274612,0.00241583,-0.49885,35,1.00964,10,-1.20514e-06,-3.30203,-2.1113,-0.0279449,0.00263532,
2,0,0,0,0,23611.5,0.000274105,-7.36095e-05,-0.501729,35,1.00938,10,3.6932e-08,-3.29953, , ,0.000147151,