File: Figure_codes/Fig_3-5/workspace_calculate_alpha_eff/20221101_1-115_003_TrumpetPlot_ParaChange_from10_every3_16_CV_C01_32.csv
mode,ox/red,error,control changes,counter inc.,time/s,control/V,Ewe/V,<I>/mA,cycle number,(Q-Qo)/C,I Range,P/W,log(|I|),Tafel slope mV/dec,alpha_eff,E-IR/V,
2,0,0,0,0,21671.4,2.44065e-05,-0.00042076,-0.105118,33,0.0000000E+000,10,4.42296e-08,-3.97832, , ,-0.000374508,
2,1,0,0,0,21672.2,0.00379485,0.00351865,0.152062,33,9.8674e-05,10,5.35054e-07,-3.81798,0.0371161,1.58961,0.00345174,
2,1,0,1,0,21673,0.00779002,0.0074676,0.176165,33,0.000242809,10,1.31553e-06,-3.75408,0.0774712,0.761573,0.00739009,
2,1,0,0,0,21673.8,0.0117852,0.0114791,0.192038,33,0.000402829,10,2.20443e-06,-3.71661,0.113803,0.518438,0.0113946,
2,1,0,1,0,21674.6,0.0157806,0.0154187,0.208599,33,0.000575375,10,3.21632e-06,-3.68069,0.132389,0.445657,0.0153269,
2,1,0,1,0,21675.4,0.0197754,0.0194479,0.22199,33,0.00075912,10,4.31725e-06,-3.65367,0.132715,0.444562,0.0193503,
2,1,0,1,0,21676.2,0.0237704,0.0234537,0.2368,33,0.000954392,10,5.55384e-06,-3.62562,0.16175,0.364761,0.0233495,
2,1,0,1,0,21677,0.0277659,0.0274732,0.250428,33,0.00116056,10,6.88006e-06,-3.60132,0.174198,0.338694,0.027363,
2,1,0,0,0,21677.8,0.0317611,0.0313978,0.263665,33,0.00137866,10,8.27851e-06,-3.57895,0.14409,0.409466,0.0312818,
2,1,0,1,0,21678.6,0.0357567,0.0354214,0.2796,33,0.00160871,10,9.90382e-06,-3.55346,0.220974,0.266999,0.0352984,
2,1,0,1,0,21679.4,0.0397516,0.0394306,0.294006,33,0.00185027,10,1.15929e-05,-3.53164,0.164862,0.357875,0.0393013,
2,1,0,1,0,21680.2,0.0437465,0.0434258,0.306538,33,0.00210377,10,1.33117e-05,-3.51352,0.207348,0.284545,0.0432909,
2,1,0,1,0,21681,0.0477413,0.0474485,0.322242,33,0.00236762,10,1.52899e-05,-3.49182,0.207092,0.284898,0.0473068,
2,1,0,0,0,21681.8,0.0517369,0.0513918,0.334835,33,0.00264238,10,1.72077e-05,-3.47517,0.209439,0.281705,0.0512444,
2,1,0,1,0,21682.6,0.0557321,0.0554415,0.346525,33,0.00292792,10,1.92118e-05,-3.46027,0.360398,0.163708,0.055289,
2,1,0,1,0,21683.4,0.0597277,0.0594355,0.359745,33,0.00322243,10,2.13816e-05,-3.44401,0.289216,0.204,0.0592772,
2,1,0,1,0,21684.2,0.0637226,0.0634115,0.369679,33,0.00352616,10,2.34419e-05,-3.43218,0.295384,0.19974,0.0632488,
2,1,0,1,0,21685,0.0677174,0.067413,0.381333,33,0.00383932,10,2.57068e-05,-3.4187,0.474388,0.124371,0.0672452,
2,1,0,0,0,21685.8,0.0717128,0.0714122,0.390208,33,0.00415983,10,2.78656e-05,-3.4087,0.289412,0.203862,0.0712405,
2,1,0,1,0,21686.6,0.075708,0.0754079,0.397487,33,0.0044882,10,2.99736e-05,-3.40068,0.4986,0.118331,0.075233,
2,1,0,0,0,21687.4,0.0797031,0.0794194,0.408179,33,0.00482333,10,3.24173e-05,-3.38915,0.376989,0.156503,0.0792398,
2,1,0,1,0,21688.2,0.0836986,0.0833633,0.417544,33,0.00516568,10,3.48079e-05,-3.3793,0.371018,0.159022,0.0831796,
2,1,0,1,0,21689,0.0876935,0.087365,0.428149,33,0.00551684,10,3.74052e-05,-3.36841,0.331939,0.177744,0.0871766,
2,1,0,1,0,21689.8,0.0916883,0.0914154,0.444155,33,0.00587759,10,4.06026e-05,-3.35247,0.243336,0.242463,0.0912199,
2,1,0,1,0,21690.6,0.0956838,0.0953605,0.460265,33,0.00625191,10,4.38911e-05,-3.33699,0.212966,0.277039,0.0951579,
2,1,0,0,0,21691.4,0.099679,0.0994101,0.482949,33,0.00664241,10,4.801e-05,-3.3161,0.202722,0.291038,0.0991976,
2,1,0,1,0,21692.2,0.103674,0.103335,0.508282,33,0.00705119,10,5.25232e-05,-3.29389,0.176674,0.333949,0.103111,
2,1,0,1,0,21693,0.10767,0.107362,0.530503,33,0.00747996,10,5.69561e-05,-3.27531,0.223363,0.264144,0.107129,
2,1,0,1,0,21693.8,0.111664,0.111353,0.552765,33,0.00792557,10,6.15523e-05,-3.25746,0.256667,0.22987,0.11111,
2,1,0,1,0,21694.6,0.115659,0.115339,0.567059,33,0.00838593,10,6.54041e-05,-3.24637,0.307356,0.19196,0.11509,
2,1,0,0,0,21695.3,0.119655,0.119335,0.582757,33,0.00885953,10,6.95435e-05,-3.23451,0.521996,0.113028,0.119079,
2,1,0,1,0,21696.1,0.12365,0.123348,0.597844,33,0.0093439,10,7.37427e-05,-3.22341,0.349204,0.168955,0.123085,
2,1,0,1,0,21696.9,0.127646,0.127343,0.609954,33,0.00983995,10,7.76731e-05,-3.2147,0.481921,0.122427,0.127074,
2,1,0,1,0,21697.7,0.131641,0.131314,0.61984,33,0.0103453,10,8.13934e-05,-3.20772,-2.74259,-0.0215125,0.131041,
2,1,0,1,0,21698.5,0.135635,0.13535,0.611892,33,0.0108505,10,8.28198e-05,-3.21333,-0.406931,-0.144988,0.135081,
2,1,0,0,0,21699.3,0.139631,0.139319,0.580633,33,0.0113417,10,8.08929e-05,-3.2361,-0.127568,-0.4625,0.139063,
2,1,0,1,0,21700.1,0.143626,0.143354,0.531417,33,0.0117992,10,7.6181e-05,-3.27456,-0.0823945,-0.716067,0.143121,
2,1,0,0,0,21700.9,0.147621,0.147316,0.465781,33,0.01221,10,6.8617e-05,-3.33182,-0.0688324,-0.857154,0.147111,
2,1,0,1,0,21701.7,0.151617,0.151296,0.408528,33,0.0125711,10,6.18088e-05,-3.38878,-0.0711829,-0.828851,0.151117,
2,1,0,1,0,21702.5,0.155612,0.155327,0.36464,33,0.0128906,10,5.66386e-05,-3.43814,-0.0938669,-0.62855,0.155167,
2,1,0,1,0,21703.3,0.159606,0.15933,0.333611,33,0.0131809,10,5.31545e-05,-3.47676,-0.126745,-0.465503,0.159184,
2,1,0,1,0,21704.1,0.163602,0.163309,0.313648,33,0.0134517,10,5.12216e-05,-3.50356,-0.161276,-0.365833,0.163171,
2,1,0,0,0,21704.9,0.167597,0.167288,0.299606,33,0.0137087,10,5.01204e-05,-3.52345,-0.233989,-0.252149,0.167156,
2,1,0,1,0,21705.7,0.171592,0.17128,0.288516,33,0.0139563,10,4.94172e-05,-3.53983,-0.295398,-0.199731,0.171153,
2,1,0,1,0,21706.5,0.175588,0.175269,0.28141,33,0.0141962,10,4.93223e-05,-3.55066,-0.395029,-0.149356,0.175145,
2,1,0,1,0,21707.3,0.179582,0.179294,0.274651,33,0.0144304,10,4.92431e-05,-3.56122,-0.458412,-0.128705,0.179173,
2,1,0,1,0,21708.1,0.183577,0.183246,0.270172,33,0.0146607,10,4.95077e-05,-3.56836,-0.742038,-0.0795108,0.183127,
2,1,0,0,0,21708.9,0.187573,0.187304,0.26526,33,0.014887,10,4.96842e-05,-3.57633,-0.498427,-0.118372,0.187187,
2,1,0,1,0,21709.7,0.191568,0.191225,0.262356,33,0.0151102,10,5.01692e-05,-3.58111,-1.33071,-0.0443373,0.19111,
2,1,0,0,0,21710.5,0.195563,0.195245,0.260288,33,0.0153312,10,5.082e-05,-3.58455,-0.551954,-0.106893,0.195131,
2,1,0,1,0,21711.3,0.199559,0.199269,0.258037,33,0.0155499,10,5.14187e-05,-3.58832,-2.03412,-0.0290052,0.199155,
2,1,0,1,0,21712.1,0.203553,0.203221,0.253747,33,0.0157667,10,5.15666e-05,-3.5956,-0.672294,-0.0877592,0.203109,
2,1,0,1,0,21712.9,0.207548,0.20726,0.252976,33,0.0159817,10,5.24316e-05,-3.59692,-1.75645,-0.0335906,0.207148,
2,1,0,1,0,21713.7,0.211544,0.211271,0.250951,33,0.0161946,10,5.30187e-05,-3.60041,-0.902111,-0.0654021,0.211161,
2,1,0,0,0,21714.5,0.215539,0.215239,0.248992,33,0.0164062,10,5.3593e-05,-3.60381,-4.5414,-0.0129916,0.21513,
2,1,0,1,0,21715.3,0.219535,0.219234,0.24836,33,0.0166162,10,5.44491e-05,-3.60492,-0.868675,-0.0679195,0.219125,
2,1,0,1,0,21716.1,0.223529,0.223209,0.245185,33,0.016825,10,5.47274e-05,-3.61051,-1.31575,-0.0448413,0.223101,
2,1,0,1,0,21716.9,0.227524,0.227221,0.244141,33,0.0170326,10,5.5474e-05,-3.61236,-0.715954,-0.0824075,0.227113,
2,1,0,1,0,21717.7,0.23152,0.231245,0.242644,33,0.0172391,10,5.61102e-05,-3.61503,1.6358,0.036068,0.231138,
2,1,0,0,0,21718.5,0.235515,0.235225,0.241029,33,0.0174447,10,5.6696e-05,-3.61793,-1.74265,-0.0338566,0.235119,
2,1,0,1,0,21719.3,0.23951,0.239207,0.240992,33,0.0176493,10,5.76469e-05,-3.618,-1.6627,-0.0354845,0.239101,
2,1,0,1,0,21720.1,0.243506,0.243188,0.240592,33,0.0178531,10,5.85092e-05,-3.61872,-4.96613,-0.0118805,0.243082,
2,1,0,1,0,21720.9,0.2475,0.247219,0.23958,33,0.0180563,10,5.92287e-05,-3.62055,-5.8264,-0.0101263,0.247114,
2,1,0,1,0,21721.7,0.251495,0.251197,0.237344,33,0.0182587,10,5.962e-05,-3.62462,-1.41107,-0.0418122,0.251092,
2,1,0,0,0,21722.5,0.255491,0.255182,0.23707,33,0.0184604,10,6.04959e-05,-3.62512,6.30872,0.00935214,0.255077,
2,1,0,1,0,21723.3,0.259486,0.25916,0.237067,33,0.0186617,10,6.14383e-05,-3.62513,-1.09818,-0.053725,0.259056,
2,1,0,0,0,21724.1,0.263481,0.263202,0.235855,33,0.0188621,10,6.20774e-05,-3.62736,14.9996,0.00393343,0.263098,
2,1,0,1,0,21724.9,0.267477,0.267186,0.234545,33,0.0190619,10,6.26671e-05,-3.62977,-1.25245,-0.0471077,0.267083,
2,1,0,1,0,21725.7,0.271471,0.271202,0.234538,33,0.0192609,10,6.36072e-05,-3.62979,-2.19499,-0.0268794,0.271099,
2,1,0,1,0,21726.5,0.275466,0.275162,0.233201,33,0.0194591,10,6.4168e-05,-3.63227,-2.32533,-0.0253728,0.27506,
2,1,0,1,0,21727.3,0.279462,0.279152,0.2323,33,0.0196568,10,6.48469e-05,-3.63395,-1.94273,-0.0303696,0.27905,
2,1,0,0,0,21728.1,0.283457,0.28315,0.23107,33,0.0198536,10,6.54275e-05,-3.63626,-2.0398,-0.0289244,0.283048,
2,1,0,1,0,21728.9,0.287452,0.28715,0.230401,33,0.0200495,10,6.61597e-05,-3.63752,-3.89477,-0.0151485,0.287048,
2,1,0,1,0,21729.7,0.291448,0.291124,0.228904,33,0.0202448,10,6.66394e-05,-3.64035,-0.864354,-0.0682591,0.291024,
2,1,0,1,0,21730.5,0.295442,0.295107,0.229156,33,0.020439,10,6.76257e-05,-3.63987,1.96723,0.0299914,0.295006,
2,1,0,1,0,21731.3,0.299437,0.299164,0.227169,33,0.020633,10,6.79607e-05,-3.64365,-3.33292,-0.0177022,0.299064,
2,1,0,0,0,21732.1,0.303433,0.303065,0.226597,33,0.020826,10,6.86738e-05,-3.64475,-0.84841,-0.0695418,0.302966,
2,1,0,1,0,21732.9,0.307428,0.307109,0.225866,33,0.0210181,10,6.93653e-05,-3.64615,2.37842,0.0248064,0.307009,
2,1,0,1,0,21733.7,0.311424,0.311087,0.22511,33,0.0212101,10,7.00289e-05,-3.6476,-1.32632,-0.0444841,0.310988,
2,1,0,1,0,21734.5,0.315418,0.315116,0.224516,33,0.0214011,10,7.07485e-05,-3.64875,-7.0031,-0.00842485,0.315017,
2,1,0,1,0,21735.3,0.319413,0.319097,0.2246,33,0.0215915,10,7.1669e-05,-3.64859,-1.66206,-0.0354981,0.318998,
2,1,0,0,0,21736.1,0.323409,0.323081,0.223291,33,0.0217817,10,7.21409e-05,-3.65113,-1.50883,-0.0391031,0.322982,
2,1,0,1,0,21736.9,0.327404,0.327099,0.223613,33,0.021971,10,7.31435e-05,-3.6505,5.40179,0.0109223,0.327,
2,1,0,0,0,21737.7,0.331399,0.331112,0.221584,33,0.0221599,10,7.3369e-05,-3.65446,-4.55493,-0.012953,0.331015,
2,1,0,1,0,21738.5,0.335395,0.335072,0.221796,33,0.0223484,10,7.43176e-05,-3.65405,-4.96446,-0.0118845,0.334975,
2,1,0,1,0,21739.3,0.339389,0.339109,0.222172,33,0.0225364,10,7.53403e-05,-3.65331,-6.20063,-0.00951516,0.339011,
2,1,0,1,0,21740.1,0.343384,0.34306,0.221658,33,0.0227241,10,7.60419e-05,-3.65432,-2.1829,-0.0270283,0.342962,
2,1,0,1,0,21740.9,0.34738,0.347044,0.220861,33,0.0229111,10,7.66485e-05,-3.65588,-14.2369,-0.00414415,0.346947,
2,1,0,0,0,21741.7,0.351375,0.351036,0.219276,33,0.0230977,10,7.69737e-05,-3.65901,-1.6715,-0.0352975,0.35094,
2,1,0,1,0,21742.5,0.35537,0.355091,0.219452,33,0.023284,10,7.79255e-05,-3.65866,-3.89731,-0.0151386,0.354995,
2,1,0,1,0,21743.3,0.359366,0.359019,0.218446,33,0.0234699,10,7.84261e-05,-3.66066,9.58567,0.00615502,0.358923,
2,1,0,1,0,21744.1,0.36336,0.363047,0.217555,33,0.0236555,10,7.89828e-05,-3.66243,3.21052,0.0183771,0.362952,
2,1,0,1,0,21744.9,0.367355,0.367053,0.218077,33,0.0238403,10,8.00457e-05,-3.66139,-2.19493,-0.0268801,0.366957,
2,1,0,0,0,21745.7,0.371351,0.371086,0.217581,33,0.0240246,10,8.07413e-05,-3.66238,-4.21059,-0.0140123,0.370991,
2,1,0,1,0,21746.5,0.375346,0.375065,0.216483,33,0.0242089,10,8.11951e-05,-3.66458,-1.41295,-0.0417565,0.37497,
2,1,0,1,0,21747.3,0.379342,0.37905,0.216896,33,0.0243924,10,8.22145e-05,-3.66375,-4.93309,-0.01196,0.378955,
2,1,0,1,0,21748.1,0.383336,0.383082,0.2155,33,0.0245756,10,8.25542e-05,-3.66655,-4.84513,-0.0121772,0.382987,
2,1,0,1,0,21748.9,0.387331,0.387019,0.215307,33,0.0247586,10,8.33277e-05,-3.66694,-48.8948,-0.00120667,0.386924,
2,1,0,0,0,21749.7,0.391327,0.390965,0.215267,33,0.0249412,10,8.41616e-05,-3.66702,29.8224,0.00197838,0.39087,
2,1,0,1,0,21750.5,0.395322,0.39504,0.214502,33,0.0251239,10,8.4737e-05,-3.66857,-10.2379,-0.00576287,0.394945,
2,1,0,0,0,21751.3,0.399317,0.399021,0.215635,33,0.0253063,10,8.60427e-05,-3.66628,17.8798,0.00329982,0.398926,
2,1,0,1,0,21752.1,0.403313,0.40306,0.215003,33,0.0254884,10,8.66593e-05,-3.66755,-1.8808,-0.0313696,0.402966,
2,1,0,1,0,21752.9,0.407307,0.407013,0.21547,33,0.0256703,10,8.7699e-05,-3.66661,-4.32451,-0.0136432,0.406918,
2,1,0,1,0,21753.7,0.411302,0.411008,0.215768,33,0.0258521,10,8.86824e-05,-3.66601,1.06358,0.0554729,0.410913,
2,1,0,1,0,21754.5,0.415298,0.41501,0.214598,33,0.0260342,10,8.90605e-05,-3.66837,-1.48047,-0.0398522,0.414916,
2,1,0,0,0,21755.3,0.419293,0.419021,0.215118,33,0.026216,10,9.01389e-05,-3.66732,60.5866,0.000973813,0.418926,
2,1,0,1,0,21756.1,0.423288,0.422965,0.215404,33,0.0263977,10,9.11081e-05,-3.66675,-14.4468,-0.00408396,0.42287,
2,1,0,1,0,21756.9,0.427283,0.42699,0.21341,33,0.0265792,10,9.11239e-05,-3.67079,3.13601,0.0188137,0.426896,
2,1,0,1,0,21757.7,0.431278,0.43099,0.215484,33,0.0267607,10,9.28715e-05,-3.66658,-3.51428,-0.0167887,0.430895,
2,1,0,1,0,21758.5,0.435273,0.434958,0.214536,33,0.0269421,10,9.33143e-05,-3.6685,9.44719,0.00624524,0.434864,
2,1,0,0,0,21759.3,0.439269,0.438964,0.214473,33,0.0271235,10,9.41459e-05,-3.66863,6.07945,0.00970483,0.43887,
2,1,0,1,0,21760.1,0.443264,0.442926,0.214217,33,0.0273046,10,9.48821e-05,-3.66915,-1.79616,-0.0328478,0.442831,
2,1,0,0,0,21760.9,0.447259,0.446976,0.214612,33,0.0274857,10,9.59265e-05,-3.66835,2.23281,0.0264241,0.446882,
2,1,0,1,0,21761.7,0.451254,0.451007,0.214947,33,0.0276673,10,9.69424e-05,-3.66767,9.06907,0.00650563,0.450913,
2,1,0,1,0,21762.5,0.455249,0.454981,0.215837,33,0.0278487,10,9.82017e-05,-3.66587,95.9365,0.00061499,0.454886,
2,1,0,1,0,21763.3,0.459244,0.45893,0.215002,33,0.0280305,10,9.86709e-05,-3.66756,9.49012,0.00621699,0.458835,
2,1,0,1,0,21764.1,0.46324,0.462943,0.215976,33,0.0282125,10,9.99847e-05,-3.66559,2.25038,0.0262177,0.462848,
2,1,0,0,0,21764.9,0.467235,0.466951,0.217332,33,0.0283947,10,0.000101484,-3.66288,-7.89034,-0.00747749,0.466856,
2,1,0,1,0,21765.7,0.471231,0.470908,0.216448,33,0.0285774,10,0.000101927,-3.66465,1.3852,0.042593,0.470813,
2,1,0,1,0,21766.5,0.475225,0.474932,0.218101,33,0.0287603,10,0.000103583,-3.66134,4.19783,0.0140549,0.474836,
2,1,0,1,0,21767.3,0.47922,0.478908,0.217409,33,0.0289435,10,0.000104119,-3.66272,4.20428,0.0140333,0.478813,
2,1,0,1,0,21768.1,0.483216,0.482932,0.217811,33,0.0291271,10,0.000105188,-3.66192,302.343,0.000195143,0.482836,
2,1,0,0,0,21768.9,0.487211,0.486949,0.218871,33,0.0293111,10,0.000106579,-3.65981,1.59674,0.0369504,0.486853,
2,1,0,1,0,21769.7,0.491206,0.490892,0.219167,33,0.0294957,10,0.000107587,-3.65923,7.10859,0.00829981,0.490796,
2,1,0,1,0,21770.5,0.495201,0.494899,0.22069,33,0.0296809,10,0.000109219,-3.65622,5.08642,0.0115995,0.494802,
2,1,0,1,0,21771.3,0.499196,0.498919,0.221606,33,0.0298667,10,0.000110564,-3.65442,1.62499,0.036308,0.498822,
2,1,0,1,0,21772.1,0.503191,0.502907,0.222381,33,0.0300535,10,0.000111837,-3.6529,6.81063,0.00866292,0.502809,
2,1,0,0,0,21772.9,0.507187,0.506878,0.22266,33,0.0302408,10,0.000112862,-3.65236,1.07639,0.0548128,0.50678,
2,1,0,1,0,21773.7,0.511182,0.510918,0.22369,33,0.0304288,10,0.000114287,-3.65035,3.33028,0.0177162,0.510819,
2,1,0,0,0,21774.5,0.515177,0.514883,0.224835,33,0.0306177,10,0.000115764,-3.64814,2.17873,0.0270799,0.514784,
2,1,0,1,0,21775.3,0.519173,0.518878,0.226813,33,0.0308076,10,0.000117688,-3.64433,2.23144,0.0264404,0.518778,
2,1,0,1,0,21776.1,0.523167,0.522858,0.228158,33,0.0309985,10,0.000119294,-3.64176,0.656427,0.0898805,0.522758,
2,1,0,1,0,21776.9,0.527162,0.526868,0.229589,33,0.0311906,10,0.000120963,-3.63905,1.566,0.0376757,0.526767,
2,1,0,1,0,21777.7,0.531158,0.53088,0.231142,33,0.031384,10,0.000122709,-3.63612,1.71864,0.0343294,0.530778,
2,1,0,0,0,21778.4,0.535153,0.534892,0.233373,33,0.0315788,10,0.000124829,-3.63195,0.858069,0.0687591,0.534789,
2,1,0,1,0,21779.2,0.539148,0.538822,0.235091,33,0.0317749,10,0.000126673,-3.62876,1.49755,0.0393976,0.538719,
2,1,0,1,0,21780,0.543143,0.542814,0.237415,33,0.0319726,10,0.000128872,-3.62449,0.752453,0.0784102,0.54271,
2,1,0,1,0,21780.8,0.547138,0.546832,0.2395,33,0.032172,10,0.000130966,-3.62069,2.50476,0.0235551,0.546726,
2,1,0,1,0,21781.6,0.551133,0.550831,0.241797,33,0.0323731,10,0.00013319,-3.61655,0.665606,0.088641,0.550725,
2,1,0,0,0,21782.4,0.555129,0.55483,0.244019,33,0.0325766,10,0.000135389,-3.61258,0.739893,0.0797412,0.554723,
2,1,0,1,0,21783.2,0.559124,0.558814,0.246997,33,0.0327821,10,0.000138026,-3.60731,0.677685,0.0870611,0.558706,
2,1,0,1,0,21784,0.56312,0.562818,0.250939,33,0.03299,10,0.000141233,-3.60043,0.603412,0.0977773,0.562707,
2,1,0,1,0,21784.8,0.567114,0.56683,0.254163,33,0.0332011,10,0.000144067,-3.59489,0.742269,0.079486,0.566718,
2,1,0,1,0,21785.6,0.571109,0.570785,0.258008,33,0.0334148,10,0.000147267,-3.58837,0.622799,0.0947336,0.570671,
2,1,0,0,0,21786.4,0.575105,0.574821,0.263007,33,0.033632,10,0.000151182,-3.58003,0.509936,0.115701,0.574705,
2,1,0,1,0,21787.2,0.5791,0.578782,0.267645,33,0.033853,10,0.000154908,-3.57244,0.449027,0.131395,0.578664,
2,1,0,0,0,21788,0.583095,0.582858,0.273394,33,0.0340781,10,0.00015935,-3.56321,0.373728,0.157869,0.582738,
2,1,0,1,0,21788.8,0.58709,0.586815,0.279165,33,0.0343079,10,0.000163818,-3.55414,0.485698,0.121475,0.586692,
2,1,0,1,0,21789.6,0.591085,0.590794,0.285914,33,0.0345428,10,0.000168916,-3.54376,0.366144,0.161139,0.590668,
2,1,0,1,0,21790.4,0.59508,0.59477,0.294075,33,0.0347833,10,0.000174907,-3.53154,0.326526,0.18069,0.594641,
2,1,0,1,0,21791.2,0.599076,0.598802,0.302135,33,0.0350304,10,0.000180919,-3.5198,0.314695,0.187483,0.598669,
2,1,0,0,0,21792,0.603071,0.602786,0.313157,33,0.0352848,10,0.000188766,-3.50424,0.248081,0.237826,0.602648,
2,1,0,1,0,21792.8,0.607066,0.606786,0.32293,33,0.0355478,10,0.000195949,-3.49089,0.244742,0.24107,0.606644,
2,1,0,1,0,21793.6,0.611061,0.610761,0.337305,33,0.0358205,10,0.000206013,-3.47198,0.239419,0.24643,0.610612,
2,1,0,1,0,21794.4,0.615056,0.614842,0.352252,33,0.0361044,10,0.00021658,-3.45315,0.179857,0.328038,0.614687,
2,1,0,1,0,21795.2,0.619051,0.618776,0.368838,33,0.0364019,10,0.000228228,-3.43316,0.180159,0.327488,0.618614,
2,1,0,0,0,21796,0.623047,0.622757,0.390595,33,0.0367147,10,0.000243246,-3.40827,0.162184,0.363784,0.622585,
2,1,0,1,0,21796.8,0.627042,0.626742,0.41516,33,0.0370454,10,0.000260198,-3.38178,0.144388,0.408621,0.626559,
2,1,0,1,0,21797.6,0.631037,0.630774,0.443385,33,0.0373973,10,0.000279676,-3.35322,0.135525,0.435343,0.630579,
2,1,0,1,0,21798.4,0.635032,0.634754,0.475521,33,0.037773,10,0.000301839,-3.32283,0.12011,0.491216,0.634544,
2,1,0,1,0,21799.2,0.639027,0.638776,0.515104,33,0.0381775,10,0.000329036,-3.2881,0.114271,0.516316,0.638549,
2,1,0,1,0,21800,0.643022,0.642729,0.560106,33,0.0386154,10,0.000359997,-3.25173,0.110254,0.535128,0.642483,
2,1,0,1,0,21800.8,0.647018,0.64675,0.613104,33,0.039092,10,0.000396525,-3.21247,0.0916774,0.643561,0.64648,
2,1,0,0,0,21801.6,0.651013,0.65075,0.67563,33,0.0396156,10,0.000439667,-3.17029,0.0939922,0.627712,0.650453,
2,1,0,1,0,21802.4,0.655008,0.654702,0.749629,33,0.0401932,10,0.000490784,-3.12515,0.0827989,0.71257,0.654372,
2,1,0,1,0,21803.2,0.659003,0.65873,0.836444,33,0.040835,10,0.000550991,-3.07756,0.0823332,0.7166,0.658362,
2,1,0,1,0,21804,0.662998,0.662716,0.937179,33,0.0415512,10,0.000621083,-3.02818,0.0808535,0.729715,0.662304,
2,1,0,1,0,21804.8,0.666994,0.666738,1.05276,33,0.0423537,10,0.000701913,-2.97767,0.0759498,0.776829,0.666275,
2,1,0,0,0,21805.6,0.670989,0.670713,1.18634,33,0.0432558,10,0.000795694,-2.92579,0.0734345,0.803437,0.670191,
2,1,0,1,0,21806.4,0.674984,0.674696,1.33977,33,0.0442729,10,0.000903937,-2.87297,0.0752,0.784575,0.674106,
2,1,0,1,0,21807.2,0.67898,0.678671,1.51595,33,0.0454217,10,0.00102883,-2.81931,0.0726693,0.811897,0.678004,
2,1,0,1,0,21808,0.682974,0.682687,1.71347,33,0.0467198,10,0.00116977,-2.76612,0.0733604,0.804248,0.681933,
2,1,0,1,0,21808.8,0.686969,0.686743,1.93708,33,0.0481869,10,0.00133028,-2.71285,0.0732919,0.805001,0.68589,
2,1,0,0,0,21809.6,0.690965,0.69072,2.18658,33,0.0498427,10,0.00151032,-2.66023,0.0744148,0.792853,0.689758,
2,1,0,1,0,21810.4,0.69496,0.694727,2.4655,33,0.0517089,10,0.00171285,-2.60809,0.0741763,0.795402,0.693642,
2,1,0,0,0,21811.2,0.698955,0.698679,2.76817,33,0.0538062,10,0.00193406,-2.55781,0.0788259,0.748485,0.697461,
2,1,0,1,0,21812,0.70295,0.702693,3.09743,33,0.0561573,10,0.00217654,-2.509,0.0796549,0.740695,0.70133,
2,1,0,1,0,21812.8,0.706945,0.706689,3.45896,33,0.0587841,10,0.00244441,-2.46105,0.0816682,0.722435,0.705167,
2,1,0,1,0,21813.6,0.71094,0.710666,3.84621,33,0.0617094,10,0.00273337,-2.41497,0.0841405,0.701208,0.708974,
2,1,0,1,0,21814.4,0.714936,0.7147,4.25948,33,0.0649562,10,0.00304425,-2.37064,0.0861623,0.684755,0.712826,
2,1,0,0,0,21815.2,0.718931,0.718662,4.70404,33,0.0685447,10,0.00338062,-2.32753,0.0898927,0.656338,0.716592,
2,1,0,1,0,21816,0.722927,0.72268,5.17308,33,0.0724988,10,0.00373848,-2.28625,0.0932352,0.632808,0.720404,
2,1,0,1,0,21816.8,0.726921,0.726641,5.6699,33,0.0768386,10,0.00411998,-2.24642,0.0983616,0.599827,0.724146,
2,1,0,1,0,21817.6,0.730916,0.730643,6.19375,33,0.0815859,10,0.00452542,-2.20805,0.0983579,0.59985,0.727917,
2,1,0,1,0,21818.4,0.734911,0.734634,6.74405,33,0.0867631,10,0.0049544,-2.17108,0.103483,0.570142,0.731666,
2,1,0,0,0,21819.2,0.738907,0.738607,7.32213,33,0.092391,10,0.00540818,-2.13536,0.106605,0.553447,0.735386,
2,1,0,1,0,21820,0.742902,0.742609,7.92498,33,0.0984903,10,0.00588516,-2.101,0.110053,0.536107,0.739122,
2,1,0,1,0,21820.8,0.746897,0.746622,8.55782,33,0.105084,10,0.00638945,-2.06764,0.114069,0.517229,0.742857,
2,1,0,1,0,21821.6,0.750892,0.7506,9.21981,33,0.112194,10,0.00692039,-2.03528,0.114626,0.514717,0.746543,
2,1,0,1,0,21822.4,0.754887,0.754575,9.91207,33,0.119845,10,0.0074794,-2.00384,0.118367,0.498451,0.750213,
2,1,0,0,0,21823.2,0.758883,0.758614,10.6416,33,0.128066,10,0.0080729,-1.97299,0.121239,0.486643,0.753932,
2,1,0,1,0,21824,0.762878,0.762621,11.4025,33,0.136879,10,0.00869582,-1.943,0.120389,0.490078,0.757604,
2,1,0,0,0,21824.8,0.766873,0.766602,12.2107,33,0.14632,10,0.00936075,-1.91326,0.123534,0.477602,0.761229,
2,1,0,1,0,21825.6,0.770868,0.770591,13.0704,33,0.156428,10,0.0100719,-1.88371,0.124492,0.473925,0.76484,
2,1,0,1,0,21826.4,0.774863,0.774598,13.9764,33,0.167242,10,0.0108261,-1.8546,0.121419,0.48592,0.768448,
2,1,0,1,0,21827.2,0.778858,0.778562,14.95,33,0.178805,10,0.0116395,-1.82536,0.120139,0.491098,0.771984,
2,1,0,1,0,21828,0.782854,0.782609,16.0026,33,0.19118,10,0.0125237,-1.79581,0.122911,0.480023,0.775568,
2,1,0,0,0,21828.8,0.786849,0.786585,16.9934,33,0.204395,10,0.0133668,-1.76972,0.132218,0.446231,0.779108,
2,1,0,1,0,21829.6,0.790844,0.79053,18.169,33,0.21845,10,0.0143632,-1.74067,0.122252,0.482611,0.782536,
2,1,0,1,0,21830.4,0.794839,0.794558,19.3805,33,0.233459,10,0.0153989,-1.71263,0.123974,0.475907,0.78603,
2,1,0,1,0,21831.2,0.798834,0.798533,20.6456,33,0.249458,10,0.0164862,-1.68517,0.12611,0.467844,0.789449,
2,1,0,1,0,21832,0.802829,0.802564,21.974,33,0.266494,10,0.0176355,-1.65809,0.130208,0.453121,0.792896,
2,1,0,0,0,21832.8,0.806825,0.806546,23.3174,33,0.284596,10,0.0188066,-1.63232,0.131232,0.449586,0.796287,
2,1,0,1,0,21833.6,0.81082,0.810526,24.7098,33,0.303791,10,0.020028,-1.60713,0.138708,0.425353,0.799654,
2,1,0,1,0,21834.4,0.814815,0.814542,26.1333,33,0.324117,10,0.0212867,-1.58281,0.139587,0.422676,0.803044,
2,1,0,1,0,21835.2,0.81881,0.818488,27.6005,33,0.345588,10,0.0225907,-1.55908,0.141385,0.417301,0.806344,
2,1,0,1,0,21836,0.822805,0.822602,29.1516,33,0.368271,10,0.0239801,-1.53534,0.146329,0.403202,0.809775,
2,1,0,0,0,21836.8,0.826801,0.826574,30.6216,33,0.392158,10,0.025311,-1.51397,0.154455,0.381989,0.813101,
2,1,0,1,0,21837.6,0.830796,0.830534,32.184,33,0.417264,10,0.0267299,-1.49236,0.156067,0.378044,0.816373,
2,1,0,0,0,21838.4,0.834791,0.834533,33.7111,33,0.443607,10,0.028133,-1.47223,0.17128,0.344466,0.8197,
2,1,0,1,0,21839.2,0.838786,0.838534,35.2722,33,0.47117,10,0.0295769,-1.45257,0.17379,0.33949,0.823014,
2,1,0,1,0,21840,0.842781,0.842535,36.8669,33,0.499978,10,0.0310616,-1.43336,0.170068,0.34692,0.826314,
2,1,0,1,0,21840.8,0.846776,0.846517,38.4691,33,0.530081,10,0.0325648,-1.41489,0.182731,0.322879,0.829591,
2,1,0,0,0,21841.5,0.849723,0.849453,39.5419,33,0.557483,10,0.0335889,-1.40294,0.0583047,1.01192,0.832054,
2,1,0,1,0,21842.3,0.845728,0.845505,37.279,33,0.588089,10,0.0315196,-1.42854,0.135138,0.436589,0.829102,
2,1,0,0,0,21843.1,0.841732,0.841476,35.3513,33,0.617092,10,0.0297473,-1.45159,0.140641,0.419508,0.825922,
2,1,0,1,0,21843.9,0.837737,0.837455,33.5534,33,0.644605,10,0.0280995,-1.47426,0.142547,0.413898,0.822691,
2,1,0,1,0,21844.7,0.833742,0.833503,31.8424,33,0.670722,10,0.0265408,-1.49699,0.136559,0.432049,0.819492,
2,1,0,1,0,21845.5,0.829747,0.829468,30.1053,33,0.695451,10,0.0249714,-1.52136,0.135351,0.435905,0.816221,
2,1,0,1,0,21846.3,0.825752,0.825508,28.5194,33,0.718866,10,0.0235429,-1.54486,0.131645,0.448175,0.812959,
2,1,0,0,0,21847.1,0.821757,0.821517,26.8943,33,0.740959,10,0.0220942,-1.57034,0.134638,0.438211,0.809684,
2,1,0,1,0,21847.9,0.817761,0.817513,25.3947,33,0.76183,10,0.0207605,-1.59526,0.132246,0.446139,0.806339,
2,1,0,1,0,21848.7,0.813766,0.813501,23.8773,33,0.781501,10,0.0194242,-1.62201,0.123226,0.478794,0.802995,
2,1,0,1,0,21849.5,0.809771,0.809505,22.4386,33,0.799987,10,0.0181642,-1.649,0.120302,0.490432,0.799632,
2,1,0,1,0,21850.3,0.805776,0.80546,21.0276,33,0.817336,10,0.0169369,-1.67721,0.122808,0.480423,0.796208,
2,1,0,0,0,21851.1,0.801781,0.801574,19.7122,33,0.833599,10,0.0158008,-1.70527,0.118666,0.497194,0.792901,
2,1,0,1,0,21851.9,0.797786,0.797528,18.4251,33,0.848819,10,0.0146945,-1.73459,0.115104,0.512581,0.789421,
2,1,0,1,0,21852.7,0.79379,0.793529,17.192,33,0.863032,10,0.0136424,-1.76467,0.118053,0.499774,0.785965,
2,1,0,1,0,21853.5,0.789795,0.789467,16.0371,33,0.876297,10,0.0126607,-1.79488,0.795868,0.0741329,0.78241,
2,1,0,1,0,21854.3,0.7858,0.785577,15.9116,33,0.889257,10,0.0124998,-1.79829,0.116259,0.507489,0.778576,
2,1,0,0,0,21855.1,0.781805,0.781552,14.7314,33,0.90149,10,0.0115134,-1.83176,0.0998794,0.590712,0.77507,
2,1,0,1,0,21855.9,0.77781,0.777519,13.6137,33,0.912794,10,0.0105849,-1.86602,0.103095,0.572286,0.771529,
2,1,0,0,0,21856.7,0.773815,0.773529,12.5685,33,0.923238,10,0.00972206,-1.90072,0.10171,0.580081,0.767999,
2,1,0,1,0,21857.5,0.769819,0.769522,11.5915,33,0.932875,10,0.00891995,-1.93586,0.100586,0.586563,0.764422,
2,1,0,1,0,21858.3,0.765824,0.765576,10.6845,33,0.941759,10,0.00817979,-1.97125,0.102264,0.57694,0.760874,
2,1,0,1,0,21859.1,0.761829,0.761559,9.83305,33,0.94994,10,0.00748844,-2.00731,0.101224,0.582865,0.757232,
2,1,0,1,0,21859.9,0.757834,0.757532,9.04863,33,0.95747,10,0.00685463,-2.04342,0.0998436,0.590924,0.753551,
2,1,0,0,0,21860.7,0.753839,0.753533,8.3078,33,0.964389,10,0.0062602,-2.08051,0.0892681,0.66093,0.749877,
2,1,0,1,0,21861.4,0.749844,0.749558,7.55516,33,0.970692,10,0.00566303,-2.12176,0.0947561,0.622651,0.746234,
2,1,0,1,0,21862.2,0.745848,0.745546,6.90283,33,0.976454,10,0.00514638,-2.16097,0.0946426,0.623398,0.742509,
2,1,0,1,0,21863,0.741853,0.741584,6.29244,33,0.981712,10,0.00466638,-2.20118,0.091309,0.646157,0.738815,
2,1,0,1,0,21863.8,0.737858,0.7376,5.72055,33,0.986499,10,0.00421948,-2.24256,0.0898238,0.656841,0.735083,
2,1,0,0,0,21864.6,0.733863,0.733616,5.18758,33,0.990843,10,0.00380569,-2.28504,0.0871553,0.676953,0.731333,
2,1,0,1,0,21865.4,0.729868,0.729625,4.68802,33,0.994776,10,0.0034205,-2.32901,0.0843413,0.699539,0.727562,
2,1,0,1,0,21866.2,0.725872,0.725591,4.22262,33,0.998323,10,0.00306389,-2.37442,0.0833715,0.707676,0.723733,
2,1,0,1,0,21867,0.721877,0.721582,3.79005,33,1.00151,10,0.00273483,-2.42136,0.07905,0.746363,0.719915,
2,1,0,1,0,21867.8,0.717882,0.717612,3.38844,33,1.00437,10,0.00243159,-2.47,0.0771571,0.764673,0.716122,
2,1,0,0,0,21868.6,0.713887,0.713606,3.01626,33,1.00691,10,0.00215242,-2.52053,0.0741694,0.795476,0.712279,
2,1,0,1,0,21869.4,0.709892,0.709649,2.67178,33,1.00918,10,0.00189602,-2.5732,0.072278,0.816293,0.708473,
2,1,0,0,0,21870.2,0.705897,0.705623,2.35775,33,1.01117,10,0.00166369,-2.6275,0.069323,0.851089,0.704586,
2,1,0,1,0,21871,0.701901,0.701634,2.06776,33,1.01293,10,0.00145081,-2.6845,0.066883,0.882138,0.700724,
2,1,0,1,0,21871.8,0.697906,0.697643,1.80449,33,1.01447,10,0.00125889,-2.74365,0.0640833,0.920677,0.696849,
2,1,0,1,0,21872.6,0.693911,0.693637,1.56609,33,1.0158,10,0.0010863,-2.80518,0.0617229,0.955886,0.692948,
2,1,0,1,0,21873.4,0.689916,0.689645,1.34923,33,1.01695,10,0.000930493,-2.86991,0.0598126,0.986415,0.689052,
2,1,0,0,0,21874.2,0.685921,0.685638,1.15583,33,1.01794,10,0.000792481,-2.93711,0.0563514,1.047,0.685129,
2,1,0,1,0,21875,0.681926,0.681683,0.983532,33,1.01879,10,0.000670457,-3.00721,0.0547364,1.07789,0.68125,
2,1,0,1,0,21875.8,0.67793,0.677632,0.82923,33,1.0195,10,0.000561913,-3.08132,0.0514621,1.14647,0.677267,
2,1,0,1,0,21876.6,0.673935,0.673647,0.695073,33,1.0201,10,0.000468234,-3.15797,0.0505904,1.16623,0.673341,
2,1,0,1,0,21877.4,0.66994,0.669676,0.576044,33,1.0206,10,0.000385763,-3.23954,0.0468836,1.25844,0.669422,
2,1,0,0,0,21878.2,0.665945,0.665685,0.472936,33,1.021,10,0.000314827,-3.3252,0.0458932,1.28559,0.665477,
2,1,0,1,0,21879,0.66195,0.661611,0.382281,33,1.02133,10,0.000252921,-3.41762,0.0411821,1.43266,0.661443,
2,1,0,0,0,21879.8,0.657955,0.657668,0.305334,33,1.0216,10,0.000200808,-3.51522,0.0385746,1.5295,0.657533,
2,1,0,1,0,21880.6,0.653959,0.653691,0.239574,33,1.02181,10,0.000156607,-3.62056,0.0365129,1.61587,0.653585,
2,1,0,1,0,21881.4,0.649964,0.649699,0.183945,33,1.02197,10,0.000119509,-3.73531,0.0321959,1.83253,0.649618,
2,1,0,1,0,21882.2,0.64597,0.645702,0.136086,33,1.02208,10,8.78713e-05,-3.86619,0.0283758,2.07924,0.645642,
2,1,0,1,0,21883,0.641974,0.641711,0.0953922,33,1.02217,10,6.12142e-05,-4.02049,0.0240094,2.45737,0.641669,
2,1,0,0,0,21883.8,0.637979,0.637691,0.075235,33,1.02222,10,4.79766e-05,-4.12358,0.0243241,2.42558,0.637657,
2,1,0,1,0,21884.6,0.633983,0.633663,0.0381722,33,1.02226,10,2.41883e-05,-4.41825,0.0124366,4.74407,0.633646,
2,1,0,1,0,21885.4,0.629988,0.629678,0.0127804,33,1.02227,10,8.04753e-06,-4.89346,0.00351135,16.8026,0.629672,
2,1,0,1,0,21886.2,0.625993,0.625717,-0.00727792,33,1.02226,10,-4.55391e-06,-5.13799,-0.00441368,-13.3675,0.62572,
2,0,0,1,0,21887,0.621998,0.621742,-0.0237048,33,1.02224,10,-1.47383e-05,-4.62516,-0.0136006,-4.33803,0.621753,
2,0,0,0,0,21887.8,0.618003,0.617738,-0.0384336,33,1.0222,10,-2.37419e-05,-4.41529,-0.0257521,-2.29108,0.617755,
2,0,0,1,0,21888.6,0.614008,0.613733,-0.0495097,33,1.02216,10,-3.03857e-05,-4.30531,-0.0479843,-1.22957,0.613755,
2,0,0,1,0,21889.4,0.610012,0.609756,-0.0592352,33,1.0221,10,-3.6119e-05,-4.22742,-0.0558979,-1.0555,0.609782,
2,0,0,1,0,21890.2,0.606017,0.605706,-0.0677418,33,1.02204,10,-4.10317e-05,-4.16914,-0.0766435,-0.769798,0.605736,
2,0,0,1,0,21891,0.602022,0.601695,-0.0752785,33,1.02197,10,-4.52947e-05,-4.12333,-0.121075,-0.487302,0.601728,
2,0,0,0,0,21891.8,0.598027,0.597739,-0.0809462,33,1.0219,10,-4.83847e-05,-4.0918,-0.128512,-0.459099,0.597774,
2,0,0,1,0,21892.6,0.594032,0.593738,-0.0867308,33,1.02182,10,-5.14954e-05,-4.06183,-0.195892,-0.301186,0.593776,
2,0,0,0,0,21893.4,0.590037,0.589739,-0.0909357,33,1.02174,10,-5.36283e-05,-4.04127,-0.172666,-0.341701,0.589779,
2,0,0,1,0,21894.2,0.586041,0.58577,-0.0944266,33,1.02166,10,-5.53123e-05,-4.02491,-0.198602,-0.297076,0.585811,
2,0,0,1,0,21895,0.582046,0.581726,-0.0970349,33,1.02157,10,-5.64478e-05,-4.01307,-0.340256,-0.173399,0.581769,
2,0,0,1,0,21895.8,0.578052,0.577775,-0.10048,33,1.02148,10,-5.80547e-05,-3.99792,-0.542322,-0.108792,0.577819,
2,0,0,1,0,21896.6,0.574056,0.573772,-0.103322,33,1.02139,10,-5.92834e-05,-3.98581,-0.336046,-0.175571,0.573818,
2,0,0,0,0,21897.4,0.570061,0.569814,-0.104871,33,1.02129,10,-5.9757e-05,-3.97934,-0.4331,-0.136227,0.56986,
2,0,0,1,0,21898.2,0.566065,0.56575,-0.10769,33,1.0212,10,-6.09253e-05,-3.96783,-0.574717,-0.102659,0.565797,
2,0,0,1,0,21899,0.56207,0.561777,-0.109183,33,1.0211,10,-6.13366e-05,-3.96184,-0.791376,-0.0745537,0.561825,
2,0,0,1,0,21899.8,0.558075,0.55781,-0.110722,33,1.021,10,-6.17618e-05,-3.95577,-0.59127,-0.0997852,0.557859,
2,0,0,1,0,21900.6,0.55408,0.553825,-0.111928,33,1.0209,10,-6.19887e-05,-3.95106,-0.404204,-0.145966,0.553874,
2,0,0,0,0,21901.4,0.550085,0.549775,-0.113028,33,1.0208,10,-6.21397e-05,-3.94682,-4.82389,-0.0122308,0.549825,
2,0,0,1,0,21902.2,0.54609,0.545813,-0.114432,33,1.0207,10,-6.24585e-05,-3.94145,-1.15925,-0.0508949,0.545863,
2,0,0,1,0,21903,0.542094,0.541781,-0.114856,33,1.0206,10,-6.22269e-05,-3.93985,-0.730404,-0.0807772,0.541831,
2,0,0,1,0,21903.8,0.538099,0.537787,-0.117327,33,1.0205,10,-6.3097e-05,-3.9306,-6.84489e+06,-8.61957e-09,0.537839,
2,0,0,1,0,21904.6,0.534104,0.533827,-0.117444,33,1.02039,10,-6.26948e-05,-3.93017,-0.514612,-0.11465,0.533879,
2,0,0,0,0,21905.4,0.530109,0.529828,-0.119615,33,1.02029,10,-6.33752e-05,-3.92222,-0.893138,-0.0660592,0.529881,
2,0,0,1,0,21906.2,0.526114,0.525789,-0.119464,33,1.02018,10,-6.28131e-05,-3.92276,-1.96069,-0.0300914,0.525842,
2,0,0,0,0,21907,0.522119,0.521854,-0.120533,33,1.02008,10,-6.29007e-05,-3.91889,-0.716241,-0.0823746,0.521907,
2,0,0,1,0,21907.8,0.518123,0.517836,-0.121339,33,1.01997,10,-6.28337e-05,-3.916,-1.40653,-0.0419473,0.517889,
2,0,0,1,0,21908.6,0.514128,0.513829,-0.122158,33,1.01986,10,-6.27682e-05,-3.91308,-1.67402,-0.0352445,0.513883,
2,0,0,1,0,21909.4,0.510133,0.509861,-0.123065,33,1.01975,10,-6.27458e-05,-3.90987,-0.933163,-0.0632258,0.509915,
2,0,0,1,0,21910.2,0.506138,0.505822,-0.123706,33,1.01964,10,-6.25732e-05,-3.90761,39.8535,0.00148042,0.505876,
2,0,0,0,0,21911,0.502143,0.501858,-0.126477,33,1.01953,10,-6.34734e-05,-3.89799,-0.710303,-0.0830631,0.501913,
2,0,0,1,0,21911.8,0.498148,0.497828,-0.126358,33,1.01942,10,-6.29048e-05,-3.8984,-1.70063,-0.0346929,0.497884,
2,0,0,1,0,21912.6,0.494152,0.493858,-0.12774,33,1.01931,10,-6.30854e-05,-3.89367,-0.564614,-0.104496,0.493914,
2,0,0,1,0,21913.4,0.490157,0.489805,-0.129383,33,1.01919,10,-6.33725e-05,-3.88812,-0.990264,-0.0595801,0.489862,
2,0,0,1,0,21914.2,0.486162,0.485868,-0.129691,33,1.01908,10,-6.30128e-05,-3.88709,-1.0919,-0.0540341,0.485925,
2,0,0,0,0,21915,0.482167,0.481874,-0.130752,33,1.01896,10,-6.30063e-05,-3.88355,-1.23785,-0.0476631,0.481932,
2,0,0,1,0,21915.8,0.478172,0.477851,-0.131421,33,1.01885,10,-6.27996e-05,-3.88134,-2.12874,-0.0277159,0.477909,
2,0,0,0,0,21916.6,0.474177,0.47389,-0.133252,33,1.01873,10,-6.31468e-05,-3.87533,-1.46242,-0.0403442,0.473948,
2,0,0,1,0,21917.4,0.470181,0.469854,-0.134359,33,1.01861,10,-6.31292e-05,-3.87173,-0.805477,-0.0732485,0.469913,
2,0,0,1,0,21918.2,0.466186,0.46586,-0.136444,33,1.01849,10,-6.35639e-05,-3.86505,-1.00073,-0.058957,0.46592,
2,0,0,1,0,21919,0.462191,0.461855,-0.138057,33,1.01837,10,-6.37626e-05,-3.85994,-0.544482,-0.10836,0.461916,
2,0,0,1,0,21919.8,0.458196,0.457937,-0.138083,33,1.01825,10,-6.32333e-05,-3.85986,-0.951286,-0.0620213,0.457998,
2,0,0,0,0,21920.6,0.454201,0.453941,-0.14072,33,1.01813,10,-6.38786e-05,-3.85164,-1.51277,-0.0390013,0.454003,
2,0,0,1,0,21921.4,0.450205,0.449862,-0.142749,33,1.018,10,-6.42174e-05,-3.84543,-0.430974,-0.136899,0.449925,
2,0,0,1,0,21922.2,0.44621,0.445952,-0.144411,33,1.01788,10,-6.44003e-05,-3.8404,-1.14035,-0.0517386,0.446015,
2,0,0,1,0,21923,0.442215,0.441914,-0.145254,33,1.01775,10,-6.41898e-05,-3.83787,-1.41801,-0.0416077,0.441978,
2,0,0,1,0,21923.8,0.43822,0.437936,-0.146484,33,1.01762,10,-6.41507e-05,-3.83421,-0.741419,-0.0795772,0.438001,
2,0,0,0,0,21924.6,0.434225,0.433946,-0.148613,33,1.01749,10,-6.449e-05,-3.82794,-0.909402,-0.0648778,0.434012,
2,0,0,1,0,21925.4,0.43023,0.429922,-0.150125,33,1.01736,10,-6.4542e-05,-3.82355,-0.584332,-0.10097,0.429988,
2,0,0,1,0,21926.2,0.426234,0.425955,-0.151876,33,1.01723,10,-6.46924e-05,-3.81851,-0.843011,-0.0699873,0.426021,
2,0,0,1,0,21927,0.422239,0.421949,-0.155054,33,1.0171,10,-6.54248e-05,-3.80952,-0.994073,-0.0593518,0.422017,
2,0,0,1,0,21927.8,0.418244,0.417976,-0.155235,33,1.01696,10,-6.48844e-05,-3.80901,-8.62654,-0.00683936,0.418044,
2,0,0,0,0,21928.6,0.414249,0.413952,-0.156958,33,1.01683,10,-6.49731e-05,-3.80422,-0.437916,-0.134729,0.414021,
2,0,0,1,0,21929.4,0.410254,0.409981,-0.159188,33,1.01669,10,-6.52642e-05,-3.79809,-1.62715,-0.0362598,0.410051,
2,0,0,0,0,21930.2,0.406259,0.405956,-0.161062,33,1.01655,10,-6.53841e-05,-3.79301,-0.467127,-0.126304,0.406026,
2,0,0,1,0,21931,0.402263,0.40195,-0.163124,33,1.01641,10,-6.55679e-05,-3.78748,-0.662188,-0.0890985,0.402022,
2,0,0,1,0,21931.8,0.398268,0.397957,-0.165261,33,1.01626,10,-6.57669e-05,-3.78183,-0.800408,-0.0737124,0.39803,
2,0,0,1,0,21932.6,0.394274,0.393938,-0.167316,33,1.01612,10,-6.59121e-05,-3.77646,-0.783345,-0.075318,0.394012,
2,0,0,1,0,21933.4,0.390278,0.389984,-0.168589,33,1.01597,10,-6.5747e-05,-3.77317,-0.907775,-0.0649941,0.390058,
2,0,0,0,0,21934.2,0.386283,0.385995,-0.1707,33,1.01582,10,-6.58894e-05,-3.76777,-0.903596,-0.0652947,0.38607,
2,0,0,1,0,21935,0.382287,0.381982,-0.172601,33,1.01567,10,-6.59302e-05,-3.76296,-0.643382,-0.0917029,0.382058,
2,0,0,1,0,21935.8,0.378292,0.377989,-0.175601,33,1.01552,10,-6.63752e-05,-3.75547,-0.749002,-0.0787714,0.378067,
2,0,0,1,0,21936.6,0.374297,0.374028,-0.177388,33,1.01537,10,-6.63481e-05,-3.75108,-0.818038,-0.0721238,0.374106,
2,0,0,1,0,21937.4,0.370303,0.370014,-0.179804,33,1.01521,10,-6.653e-05,-3.7452,-0.608182,-0.0970104,0.370093,
2,0,0,0,0,21938.2,0.366307,0.366008,-0.181978,33,1.01506,10,-6.66054e-05,-3.73998,-0.991216,-0.0595229,0.366088,
2,0,0,1,0,21939,0.362312,0.362026,-0.183861,33,1.0149,10,-6.65625e-05,-3.73551,-0.630359,-0.0935975,0.362107,
2,0,0,1,0,21939.8,0.358316,0.358036,-0.185846,33,1.01474,10,-6.65396e-05,-3.73085,-1.71299,-0.0344427,0.358118,
2,0,0,1,0,21940.6,0.354321,0.353996,-0.188535,33,1.01458,10,-6.67406e-05,-3.72461,-0.777214,-0.0759121,0.354079,
2,0,0,1,0,21941.4,0.350327,0.350052,-0.189741,33,1.01441,10,-6.64193e-05,-3.72184,-0.460663,-0.128076,0.350136,
2,0,0,0,0,21942.2,0.346331,0.346041,-0.193109,33,1.01425,10,-6.68234e-05,-3.7142,54.3242,0.00108607,0.346126,
2,0,0,1,0,21943,0.342336,0.342032,-0.19425,33,1.01408,10,-6.64396e-05,-3.71164,-0.505227,-0.116779,0.342118,
2,0,0,0,0,21943.8,0.338341,0.338067,-0.19743,33,1.01391,10,-6.67445e-05,-3.70459,-0.790147,-0.0746697,0.338154,
2,0,0,1,0,21944.5,0.334345,0.334038,-0.199879,33,1.01374,10,-6.6767e-05,-3.69923,-0.746499,-0.0790356,0.334126,
2,0,0,1,0,21945.3,0.33035,0.330055,-0.201547,33,1.01357,10,-6.65216e-05,-3.69562,-0.730674,-0.0807474,0.330144,
2,0,0,1,0,21946.1,0.326355,0.326057,-0.203996,33,1.01339,10,-6.65145e-05,-3.69038,-1.00349,-0.0587946,0.326147,
2,0,0,1,0,21946.9,0.32236,0.322034,-0.205954,33,1.01321,10,-6.63243e-05,-3.68623,-0.792906,-0.0744098,0.322125,
2,0,0,0,0,21947.7,0.318365,0.318049,-0.208546,33,1.01303,10,-6.63277e-05,-3.6808,-0.834405,-0.0707091,0.318141,
2,0,0,1,0,21948.5,0.31437,0.314062,-0.211572,33,1.01285,10,-6.64466e-05,-3.67454,-0.832565,-0.0708653,0.314155,
2,0,0,1,0,21949.3,0.310374,0.310069,-0.214264,33,1.01267,10,-6.64368e-05,-3.66905,-0.499804,-0.118046,0.310164,
2,0,0,1,0,21950.1,0.306379,0.306033,-0.217145,33,1.01248,10,-6.64535e-05,-3.66325,-1.01436,-0.0581649,0.306128,
2,0,0,1,0,21950.9,0.302385,0.302069,-0.219334,33,1.0123,10,-6.62542e-05,-3.65889,-0.647643,-0.0910996,0.302166,
2,0,0,0,0,21951.7,0.298389,0.298056,-0.221945,33,1.01211,10,-6.61521e-05,-3.65375,-0.7628,-0.0773466,0.298154,
2,0,0,1,0,21952.5,0.294394,0.294055,-0.224424,33,1.01192,10,-6.59932e-05,-3.64893,-0.994109,-0.0593496,0.294154,
2,0,0,1,0,21953.3,0.290398,0.290087,-0.227498,33,1.01172,10,-6.59941e-05,-3.64302,-0.821114,-0.0718536,0.290187,
2,0,0,1,0,21954.1,0.286403,0.28611,-0.228875,33,1.01153,10,-6.54836e-05,-3.6404,-0.634768,-0.0929473,0.286211,
2,0,0,1,0,21954.9,0.282408,0.282131,-0.231728,33,1.01133,10,-6.53778e-05,-3.63502,-10.8902,-0.00541774,0.282233,
2,0,0,1,0,21955.7,0.278414,0.27811,-0.234565,33,1.01113,10,-6.52349e-05,-3.62974,-0.662397,-0.0890705,0.278214,
2,0,0,1,0,21956.5,0.274418,0.274081,-0.237064,33,1.01093,10,-6.49748e-05,-3.62513,-0.668812,-0.0882161,0.274186,
2,0,0,0,0,21957.3,0.270423,0.270096,-0.240369,33,1.01072,10,-6.49229e-05,-3.61912,-0.667037,-0.0884508,0.270202,
2,0,0,1,0,21958.1,0.266427,0.266112,-0.242373,33,1.01052,10,-6.44985e-05,-3.61552,-1.10052,-0.0536111,0.266219,
2,0,0,1,0,21958.9,0.262432,0.262117,-0.245628,33,1.01031,10,-6.43833e-05,-3.60972,-1.21379,-0.0486081,0.262225,
2,0,0,1,0,21959.7,0.258437,0.258148,-0.24857,33,1.0101,10,-6.41678e-05,-3.60455,-0.744793,-0.0792166,0.258257,
2,0,0,1,0,21960.5,0.254442,0.254139,-0.249261,33,1.00989,10,-6.33469e-05,-3.60335,-0.722601,-0.0816495,0.254249,
2,0,0,0,0,21961.3,0.250447,0.250166,-0.251861,33,1.00967,10,-6.3007e-05,-3.59884,-2.43093,-0.0242705,0.250277,
2,0,0,1,0,21962.1,0.246452,0.246166,-0.25523,33,1.00946,10,-6.28291e-05,-3.59307,-0.684589,-0.0861831,0.246278,
2,0,0,1,0,21962.9,0.242456,0.242121,-0.257128,33,1.00924,10,-6.2256e-05,-3.58985,-1.82122,-0.0323959,0.242234,
2,0,0,1,0,21963.7,0.238461,0.238143,-0.259926,33,1.00902,10,-6.18995e-05,-3.58515,-0.849284,-0.0694703,0.238257,
2,0,0,1,0,21964.5,0.234467,0.234207,-0.262316,33,1.0088,10,-6.14363e-05,-3.58118,-1.03526,-0.0569907,0.234323,
2,0,0,0,0,21965.3,0.230471,0.230142,-0.263941,33,1.00858,10,-6.0744e-05,-3.57849,-0.702514,-0.0839841,0.230259,
2,0,0,1,0,21966.1,0.226476,0.226223,-0.266616,33,1.00835,10,-6.03147e-05,-3.57411,-1.12537,-0.0524271,0.22634,
2,0,0,0,0,21966.9,0.222481,0.222191,-0.268193,33,1.00812,10,-5.95901e-05,-3.57155,-0.906122,-0.0651126,0.222309,
2,0,0,1,0,21967.7,0.218485,0.218144,-0.272043,33,1.00789,10,-5.93444e-05,-3.56536,-1.57313,-0.0375048,0.218263,
2,0,0,1,0,21968.5,0.21449,0.214196,-0.274919,33,1.00766,10,-5.88865e-05,-3.5608,-0.70812,-0.0833193,0.214317,
2,0,0,1,0,21969.3,0.210496,0.21017,-0.277547,33,1.00743,10,-5.83321e-05,-3.55666,-0.59523,-0.0991213,0.210292,
2,0,0,1,0,21970.1,0.2065,0.206169,-0.282508,33,1.00719,10,-5.82443e-05,-3.54897,-1.25969,-0.046837,0.206293,
2,0,0,0,0,21970.9,0.202505,0.202218,-0.284727,33,1.00695,10,-5.75768e-05,-3.54557,-0.949115,-0.0621632,0.202343,
2,0,0,1,0,21971.7,0.198509,0.198169,-0.287763,33,1.00671,10,-5.70256e-05,-3.54096,-0.497961,-0.118483,0.198295,
2,0,0,1,0,21972.5,0.194514,0.194216,-0.292079,33,1.00646,10,-5.67263e-05,-3.5345,-0.783445,-0.0753084,0.194344,
2,0,0,1,0,21973.3,0.190519,0.19017,-0.29484,33,1.00621,10,-5.60696e-05,-3.53041,-0.782808,-0.0753697,0.190299,
2,0,0,1,0,21974.1,0.186524,0.186198,-0.301414,33,1.00596,10,-5.61226e-05,-3.52084,-0.700489,-0.0842269,0.186331,
2,0,0,0,0,21974.9,0.182529,0.182255,-0.306604,33,1.0057,10,-5.58802e-05,-3.51342,-0.354566,-0.1664,0.18239,
2,0,0,1,0,21975.7,0.178534,0.178208,-0.311994,33,1.00544,10,-5.55997e-05,-3.50585,-0.569335,-0.10363,0.178345,
2,0,0,1,0,21976.5,0.174538,0.174244,-0.318999,33,1.00518,10,-5.55836e-05,-3.49621,-0.346275,-0.170385,0.174384,
2,0,0,1,0,21977.3,0.170543,0.170248,-0.327547,33,1.0049,10,-5.57644e-05,-3.48473,-0.269614,-0.218831,0.170392,
2,0,0,1,0,21978.1,0.166549,0.166184,-0.337889,33,1.00462,10,-5.61518e-05,-3.47123,-0.308173,-0.191451,0.166333,
2,0,0,0,0,21978.9,0.162553,0.16224,-0.350116,33,1.00433,10,-5.68029e-05,-3.45579,-0.243936,-0.241867,0.162394,
2,0,0,1,0,21979.7,0.158558,0.158257,-0.365411,33,1.00403,10,-5.78291e-05,-3.43722,-0.173012,-0.341016,0.158418,
2,0,0,0,0,21980.5,0.154563,0.154222,-0.388251,33,1.00372,10,-5.98767e-05,-3.41089,-0.169012,-0.349088,0.154392,
2,0,0,1,0,21981.3,0.150567,0.150263,-0.415563,33,1.00338,10,-6.24436e-05,-3.38136,-0.112497,-0.524456,0.150446,
2,0,0,1,0,21982.1,0.146572,0.146268,-0.45223,33,1.00302,10,-6.61465e-05,-3.34464,-0.0931452,-0.63342,0.146467,
2,0,0,1,0,21982.9,0.142578,0.142281,-0.501697,33,1.00263,10,-7.13818e-05,-3.29956,-0.0869036,-0.678913,0.142501,
2,0,0,1,0,21983.7,0.138582,0.138265,-0.556323,33,1.00219,10,-7.69197e-05,-3.25467,-0.0878403,-0.671673,0.138509,
2,0,0,0,0,21984.5,0.134587,0.134268,-0.618161,33,1.00171,10,-8.29991e-05,-3.2089,-0.0995693,-0.592552,0.13454,
2,0,0,1,0,21985.3,0.130591,0.130297,-0.669655,33,1.00118,10,-8.72542e-05,-3.17415,-0.130017,-0.453787,0.130592,
2,0,0,1,0,21986.1,0.126596,0.126259,-0.708948,33,1.00061,10,-8.95107e-05,-3.14939,-0.183951,-0.320738,0.12657,
2,0,0,1,0,21986.9,0.122602,0.122274,-0.737797,33,1.00001,10,-9.02133e-05,-3.13206,-0.402725,-0.146502,0.122598,
2,0,0,1,0,21987.7,0.118607,0.118339,-0.748345,33,0.999403,10,-8.85584e-05,-3.1259,-0.73208,-0.0805923,0.118668,
2,0,0,0,0,21988.5,0.114611,0.11429,-0.751106,33,0.998787,10,-8.58437e-05,-3.1243,1.39758,0.0422157,0.11462,
2,0,0,1,0,21989.3,0.110616,0.110278,-0.746012,33,0.998175,10,-8.22689e-05,-3.12725,1.35446,0.0435597,0.110607,
2,0,0,1,0,21990.1,0.10662,0.106315,-0.737532,33,0.997567,10,-7.84108e-05,-3.13222,0.768635,0.0767594,0.10664,
2,0,0,1,0,21990.9,0.102625,0.102286,-0.728501,33,0.996967,10,-7.45154e-05,-3.13757,0.485833,0.121441,0.102606,
2,0,0,1,0,21991.7,0.0986305,0.0982801,-0.716117,33,0.996375,10,-7.038e-05,-3.14502,0.620251,0.0951228,0.0985952,
2,0,0,0,0,21992.5,0.0946351,0.0943107,-0.700575,33,0.995794,10,-6.60717e-05,-3.15455,0.515496,0.114453,0.0946189,
2,0,0,1,0,21993.3,0.0906399,0.0903235,-0.691103,33,0.995222,10,-6.24228e-05,-3.16046,0.433982,0.13595,0.0906276,
2,0,0,0,0,21994.1,0.0866448,0.0863332,-0.676903,33,0.994661,10,-5.84393e-05,-3.16947,0.63322,0.0931745,0.0866311,
2,0,0,1,0,21994.9,0.0826492,0.0823234,-0.667121,33,0.994108,10,-5.49196e-05,-3.1758,0.622955,0.0947099,0.082617,
2,0,0,1,0,21995.7,0.0786544,0.0783175,-0.657064,33,0.993565,10,-5.14596e-05,-3.18239,0.554969,0.106312,0.0786066,
2,0,0,1,0,21996.5,0.0746596,0.0743487,-0.64751,33,0.99303,10,-4.81415e-05,-3.18875,0.720437,0.0818947,0.0746336,
2,0,0,1,0,21997.3,0.0706641,0.0703052,-0.637286,33,0.992503,10,-4.48045e-05,-3.19567,0.554086,0.106482,0.0705856,
2,0,0,0,0,21998.1,0.0666689,0.0663117,-0.627691,33,0.991983,10,-4.16232e-05,-3.20225,0.646045,0.0913249,0.0665879,
2,0,0,1,0,21998.9,0.0626737,0.0623542,-0.616893,33,0.99147,10,-3.84659e-05,-3.20979,0.653506,0.0902822,0.0626257,
2,0,0,1,0,21999.7,0.0586783,0.0583605,-0.60946,33,0.990964,10,-3.55684e-05,-3.21505,0.476542,0.123809,0.0586287,
2,0,0,1,0,22000.5,0.0546835,0.0543599,-0.600366,33,0.990467,10,-3.26358e-05,-3.22158,0.728948,0.0809386,0.054624,
2,0,0,1,0,22001.3,0.0506886,0.0503563,-0.589624,33,0.989977,10,-2.96913e-05,-3.22942,0.446023,0.13228,0.0506157,
2,0,0,0,0,22002.1,0.046693,0.0463919,-0.578416,33,0.989496,10,-2.68338e-05,-3.23776,0.525353,0.112306,0.0466464,
2,0,0,1,0,22002.9,0.0426979,0.0424038,-0.567281,33,0.989023,10,-2.40548e-05,-3.2462,0.51409,0.114766,0.0426534,
2,0,0,1,0,22003.7,0.0387022,0.0383673,-0.556407,33,0.988559,10,-2.13478e-05,-3.25461,0.400026,0.14749,0.0386121,
2,0,0,1,0,22004.5,0.0347074,0.0343974,-0.546285,33,0.988104,10,-1.87908e-05,-3.26258,0.566477,0.104153,0.0346377,
2,0,0,1,0,22005.3,0.0307126,0.0304159,-0.533913,33,0.987658,10,-1.62395e-05,-3.27253,0.47596,0.12396,0.0306508,
2,0,0,0,0,22006.1,0.0267172,0.0264171,-0.525687,33,0.987219,10,-1.38871e-05,-3.27927,0.446937,0.13201,0.0266484,
2,0,0,1,0,22006.9,0.022722,0.0223843,-0.517681,33,0.986788,10,-1.15879e-05,-3.28594,0.676885,0.087164,0.0226121,
2,0,0,0,0,22007.7,0.0187268,0.0183792,-0.510733,33,0.986364,10,-9.38686e-06,-3.29181,0.692652,0.0851799,0.0186039,
2,0,0,1,0,22008.5,0.0147313,0.01443,-0.506724,33,0.985944,10,-7.31202e-06,-3.29523,0.999155,0.0590499,0.0146529,
2,0,0,1,0,22009.3,0.0107365,0.0103678,-0.500104,33,0.985528,10,-5.185e-06,-3.30094,2.05466,0.0287152,0.0105879,
2,0,0,1,0,22010.1,0.00674163,0.00644999,-0.498407,33,0.985115,10,-3.21472e-06,-3.30242,9.74725,0.00605299,0.00666929,
2,0,0,1,0,22010.9,0.00274612,0.00242325,-0.499423,33,0.984702,10,-1.21023e-06,-3.30153,-1.97128,-0.0299298,0.002643,
2,0,0,0,0,22011.4,0.000274105,-7.00306e-05,-0.500038,33,0.984444,10,3.5018e-08,-3.301, , ,0.000149986,