File: Figure_codes/Fig_3-5/workspace_calculate_alpha_eff/20221101_1-115_002_TrumpetPlot_ParaChange_18_CV_C01_1.csv
mode,ox/red,error,control changes,counter inc.,time/s,control/V,Ewe/V,<I>/mA,cycle number,(Q-Qo)/C,I Range,P/W,log(|I|),Tafel slope mV/dec,alpha_eff,E-IR/V,
2,1,0,0,0,2481.92,2.44065e-05,-0.000268062,0.126397,2,0.0000000E+000,10,-3.38822e-08,-3.89826, , ,-0.000369179,
2,1,0,0,0,2482.67,0.00379485,0.00350911,0.228785,2,0.000182331,10,8.02831e-07,-3.64057,0.0964568,0.611673,0.00332608,
2,1,0,1,0,2483.47,0.00779002,0.00755774,0.245443,2,0.000392284,10,1.85499e-06,-3.61005,0.152175,0.387712,0.00736138,
2,1,0,0,0,2484.27,0.0117852,0.0115099,0.251616,2,0.000612063,10,2.89607e-06,-3.59926,0.441798,0.133545,0.0113086,
2,1,0,1,0,2485.07,0.0157806,0.0154781,0.260846,2,0.000838602,10,4.03741e-06,-3.58362,0.313094,0.188442,0.0152694,
2,1,0,1,0,2485.87,0.0197754,0.0194692,0.268329,2,0.00107015,10,5.22414e-06,-3.57133,0.388834,0.151736,0.0192545,
2,1,0,1,0,2486.67,0.0237704,0.0235155,0.272762,2,0.00130656,10,6.41414e-06,-3.56422,0.500286,0.117933,0.0232973,
2,1,0,1,0,2487.47,0.0277659,0.0275019,0.277904,2,0.00154666,10,7.64287e-06,-3.55611,0.516611,0.114206,0.0272795,
2,1,0,0,0,2488.27,0.0317611,0.0314667,0.282821,2,0.00179081,10,8.89946e-06,-3.54849,0.489191,0.120607,0.0312405,
2,1,0,1,0,2489.06,0.0357567,0.0354701,0.289039,2,0.00203944,10,1.02522e-05,-3.53904,0.592401,0.0995947,0.0352389,
2,1,0,1,0,2489.86,0.0397516,0.0394508,0.29606,2,0.00229233,10,1.16798e-05,-3.52862,0.311508,0.189401,0.0392139,
2,1,0,1,0,2490.66,0.0437465,0.0434895,0.299454,2,0.00255083,10,1.30231e-05,-3.52367,0.43054,0.137037,0.0432499,
2,1,0,1,0,2491.46,0.0477413,0.047451,0.309914,2,0.00281483,10,1.47057e-05,-3.50876,0.288313,0.204639,0.047203,
2,1,0,0,0,2492.26,0.0517369,0.0514448,0.319464,2,0.00308594,10,1.64347e-05,-3.49558,0.240149,0.245681,0.0511892,
2,1,0,1,0,2493.06,0.0557321,0.0554468,0.331179,2,0.00336562,10,1.83628e-05,-3.47994,0.296748,0.198822,0.0551818,
2,1,0,1,0,2493.86,0.0597277,0.0594375,0.342681,2,0.00365456,10,2.03681e-05,-3.46511,0.252719,0.233461,0.0591633,
2,1,0,1,0,2494.66,0.0637226,0.0634529,0.358548,2,0.00395476,10,2.27509e-05,-3.44545,0.212403,0.277774,0.063166,
2,1,0,1,0,2495.46,0.0677174,0.0674389,0.374803,2,0.0042685,10,2.52763e-05,-3.4262,0.207997,0.283657,0.0671391,
2,1,0,0,0,2496.26,0.0717128,0.0714059,0.391686,2,0.00459562,10,2.79687e-05,-3.40706,0.163832,0.360125,0.0710925,
2,1,0,1,0,2497.05,0.075708,0.0754524,0.410265,2,0.00493761,10,3.09555e-05,-3.38694,0.205853,0.286612,0.0751242,
2,1,0,0,0,2497.85,0.0797031,0.0793939,0.43151,2,0.00529419,10,3.42593e-05,-3.36501,0.220396,0.2677,0.0790487,
2,1,0,1,0,2498.65,0.0836986,0.0834355,0.448626,2,0.00566541,10,3.74313e-05,-3.34812,0.259667,0.227214,0.0830766,
2,1,0,1,0,2499.45,0.0876935,0.0873895,0.466806,2,0.00605097,10,4.07939e-05,-3.33086,0.238391,0.247492,0.0870161,
2,1,0,1,0,2500.25,0.0916883,0.091392,0.484985,2,0.00644977,10,4.43237e-05,-3.31427,0.256354,0.23015,0.091004,
2,1,0,1,0,2501.05,0.0956838,0.0953912,0.500113,2,0.00686272,10,4.77064e-05,-3.30093,0.25742,0.229197,0.0949911,
2,1,0,0,0,2501.85,0.099679,0.0993783,0.518708,2,0.00728996,10,5.15483e-05,-3.28508,0.296457,0.199017,0.0989634,
2,1,0,1,0,2502.65,0.103674,0.103399,0.542518,2,0.00773263,10,5.6096e-05,-3.26559,0.164796,0.358017,0.102965,
2,1,0,1,0,2503.45,0.10767,0.107417,0.565899,2,0.00819543,10,6.07875e-05,-3.24726,0.178796,0.329985,0.106965,
2,1,0,1,0,2504.25,0.111664,0.111377,0.602126,2,0.00868194,10,6.70629e-05,-3.22031,0.135837,0.434343,0.110895,
2,1,0,1,0,2505.05,0.115659,0.115381,0.645606,2,0.00919994,10,7.44909e-05,-3.19003,0.112402,0.524899,0.114865,
2,1,0,0,0,2505.84,0.119655,0.119387,0.699993,2,0.0097589,10,8.35702e-05,-3.15491,0.115437,0.5111,0.118827,
2,1,0,1,0,2506.64,0.12365,0.123327,0.76425,2,0.0103643,10,9.42524e-05,-3.11676,0.104554,0.564302,0.122715,
2,1,0,1,0,2507.44,0.127646,0.127361,0.829935,2,0.0110228,10,0.000105701,-3.08096,0.114251,0.516408,0.126697,
2,1,0,1,0,2508.24,0.13164,0.131362,0.893983,2,0.0117346,10,0.000117436,-3.04867,0.163636,0.360556,0.130647,
2,1,0,1,0,2509.04,0.135635,0.135339,0.944432,2,0.0124904,10,0.000127818,-3.02483,0.166112,0.355183,0.134583,
2,1,0,0,0,2509.84,0.139631,0.139354,0.972722,2,0.0132803,10,0.000135552,-3.01201,0.456687,0.129191,0.138575,
2,1,0,1,0,2510.64,0.143626,0.143332,0.985953,2,0.0140858,10,0.000141319,-3.00614,-1.15175,-0.0512262,0.142543,
2,1,0,0,0,2511.44,0.147621,0.147309,0.963558,2,0.0148863,10,0.00014194,-3.01612,-0.266712,-0.221212,0.146538,
2,1,0,1,0,2512.24,0.151617,0.151398,0.912932,2,0.0156597,10,0.000138216,-3.03956,-0.126863,-0.465067,0.150668,
2,1,0,1,0,2513.04,0.155612,0.155309,0.838835,2,0.0163801,10,0.000130278,-3.07632,-0.0919332,-0.64177,0.154638,
2,1,0,1,0,2513.83,0.159606,0.159372,0.742668,2,0.0170317,10,0.00011836,-3.12921,-0.0728937,-0.809398,0.158777,
2,1,0,1,0,2514.63,0.163602,0.163303,0.649305,2,0.0176081,10,0.000106033,-3.18755,-0.0655096,-0.900631,0.162783,
2,1,0,0,0,2515.43,0.167597,0.167323,0.569571,2,0.0181145,10,9.53023e-05,-3.24445,-0.0817737,-0.721503,0.166867,
2,1,0,1,0,2516.23,0.171592,0.171295,0.506048,2,0.0185655,10,8.66836e-05,-3.29581,-0.0841594,-0.701051,0.17089,
2,1,0,1,0,2517.03,0.175588,0.175284,0.462189,2,0.0189729,10,8.10142e-05,-3.33518,-0.106702,-0.552944,0.174914,
2,1,0,1,0,2517.83,0.179582,0.17931,0.427084,2,0.0193473,10,7.65802e-05,-3.36949,-0.134734,-0.4379,0.178968,
2,1,0,1,0,2518.63,0.183577,0.183312,0.399844,2,0.0196973,10,7.32963e-05,-3.39811,-0.140892,-0.41876,0.182993,
2,1,0,0,0,2519.43,0.187573,0.187275,0.37767,2,0.0200272,10,7.07282e-05,-3.42289,-0.184623,-0.319571,0.186973,
2,1,0,1,0,2520.23,0.191568,0.191263,0.359385,2,0.0203415,10,6.87369e-05,-3.44444,-0.212496,-0.277652,0.190975,
2,1,0,0,0,2521.03,0.195563,0.195275,0.346588,2,0.0206438,10,6.768e-05,-3.46019,-0.218846,-0.269596,0.194998,
2,1,0,1,0,2521.82,0.199559,0.199261,0.337071,2,0.0209359,10,6.71652e-05,-3.47228,-0.379651,-0.155406,0.198992,
2,1,0,1,0,2522.62,0.203553,0.20324,0.324371,2,0.0212201,10,6.59251e-05,-3.48896,-0.395349,-0.149235,0.20298,
2,1,0,1,0,2523.42,0.207548,0.207259,0.318393,2,0.0214976,10,6.59899e-05,-3.49704,-0.373139,-0.158118,0.207005,
2,1,0,1,0,2524.22,0.211544,0.211294,0.310891,2,0.0217687,10,6.56892e-05,-3.50739,-0.525937,-0.112181,0.211045,
2,1,0,0,0,2525.02,0.215539,0.215229,0.305665,2,0.0220352,10,6.5788e-05,-3.51475,-0.538333,-0.109598,0.214984,
2,1,0,1,0,2525.82,0.219535,0.219222,0.301498,2,0.0222975,10,6.60949e-05,-3.52072,-0.60382,-0.0977113,0.21898,
2,1,0,1,0,2526.62,0.223529,0.223251,0.297153,2,0.0225562,10,6.63397e-05,-3.52702,-0.618282,-0.0954257,0.223013,
2,1,0,1,0,2527.42,0.227524,0.227244,0.293143,2,0.022812,10,6.6615e-05,-3.53292,-0.597006,-0.0988265,0.22701,
2,1,0,1,0,2528.22,0.23152,0.231218,0.291188,2,0.0230649,10,6.73279e-05,-3.53583,-3.99523,-0.0147676,0.230985,
2,1,0,0,0,2529.02,0.235515,0.23522,0.284862,2,0.0233158,10,6.70051e-05,-3.54537,-0.584236,-0.100987,0.234992,
2,1,0,1,0,2529.82,0.23951,0.239252,0.284806,2,0.0235645,10,6.81405e-05,-3.54545,-1.75882,-0.0335452,0.239024,
2,1,0,1,0,2530.61,0.243506,0.243225,0.28315,2,0.023811,10,6.88691e-05,-3.54798,-1.62925,-0.0362129,0.242998,
2,1,0,1,0,2531.41,0.2475,0.247238,0.281801,2,0.0240565,10,6.9672e-05,-3.55006,-0.833782,-0.0707619,0.247013,
2,1,0,1,0,2532.21,0.251495,0.251267,0.278758,2,0.0243001,10,7.00428e-05,-3.55477,3.4397,0.0171527,0.251044,
2,1,0,0,0,2533.01,0.255491,0.255201,0.276024,2,0.0245425,10,7.04415e-05,-3.55905,-0.878646,-0.0671488,0.25498,
2,1,0,1,0,2533.81,0.259486,0.259269,0.275965,2,0.0247838,10,7.1549e-05,-3.55915,-0.905665,-0.0651455,0.259048,
2,1,0,0,0,2534.61,0.263481,0.263192,0.274152,2,0.0250237,10,7.21547e-05,-3.56201,7.0696,0.00834559,0.262973,
2,1,0,1,0,2535.41,0.267476,0.267178,0.27206,2,0.0252627,10,7.26884e-05,-3.56534,-1.12283,-0.052546,0.266961,
2,1,0,1,0,2536.21,0.271471,0.27119,0.271474,2,0.0255007,10,7.3621e-05,-3.56627,-1.98769,-0.0296826,0.270972,
2,1,0,1,0,2537.01,0.275466,0.275224,0.271877,2,0.0257377,10,7.48271e-05,-3.56563,-8.40395,-0.00702051,0.275007,
2,1,0,1,0,2537.81,0.279462,0.279204,0.269264,2,0.0259742,10,7.51797e-05,-3.56982,-5.05096,-0.0116809,0.278989,
2,1,0,0,0,2538.6,0.283457,0.283173,0.269072,2,0.0262095,10,7.61939e-05,-3.57013,-1.42799,-0.0413168,0.282958,
2,1,0,1,0,2539.4,0.287452,0.287201,0.267118,2,0.026444,10,7.67166e-05,-3.5733,-1.58978,-0.0371119,0.286987,
2,1,0,1,0,2540.2,0.291448,0.291166,0.267923,2,0.0266778,10,7.801e-05,-3.57199,-3.24136,-0.0182022,0.290951,
2,1,0,1,0,2541,0.295442,0.295163,0.266542,2,0.0269108,10,7.86734e-05,-3.57423,3.64755,0.0161752,0.29495,
2,1,0,1,0,2541.8,0.299437,0.299217,0.263328,2,0.0271434,10,7.87922e-05,-3.5795,-1.47032,-0.0401274,0.299006,
2,1,0,0,0,2542.6,0.303433,0.303162,0.264078,2,0.027375,10,8.00582e-05,-3.57827,-2.09247,-0.0281963,0.302951,
2,1,0,1,0,2543.4,0.307428,0.307171,0.264478,2,0.0276058,10,8.12401e-05,-3.57761,5.14789,0.011461,0.30696,
2,1,0,1,0,2544.2,0.311424,0.311172,0.263195,2,0.0278363,10,8.18987e-05,-3.57972,-2.11245,-0.0279297,0.310961,
2,1,0,1,0,2545,0.315418,0.315149,0.261797,2,0.0280659,10,8.25051e-05,-3.58203,-2.90095,-0.0203382,0.314939,
2,1,0,1,0,2545.8,0.319413,0.319139,0.262103,2,0.0282947,10,8.36472e-05,-3.58153,-2.02409,-0.0291489,0.318929,
2,1,0,0,0,2546.59,0.323409,0.323143,0.258801,2,0.0285232,10,8.36297e-05,-3.58703,-1.32531,-0.0445178,0.322936,
2,1,0,1,0,2547.39,0.327404,0.327141,0.259407,2,0.0287509,10,8.48628e-05,-3.58602,4.98235,0.0118418,0.326933,
2,1,0,0,0,2548.19,0.331399,0.331148,0.258054,2,0.0289779,10,8.5454e-05,-3.58829,-3.6716,-0.0160693,0.330942,
2,1,0,1,0,2548.99,0.335395,0.33514,0.257533,2,0.0292045,10,8.63097e-05,-3.58917,-2.49038,-0.0236912,0.334934,
2,1,0,1,0,2549.79,0.339389,0.339145,0.2576,2,0.0294303,10,8.73637e-05,-3.58905,-6.28098,-0.00939344,0.338938,
2,1,0,1,0,2550.59,0.343384,0.343116,0.257456,2,0.0296556,10,8.83371e-05,-3.5893,-4.34444,-0.0135806,0.34291,
2,1,0,1,0,2551.39,0.34738,0.347117,0.25526,2,0.02988,10,8.8605e-05,-3.59302,-0.955716,-0.0617338,0.346913,
2,1,0,0,0,2552.19,0.351375,0.351081,0.254896,2,0.030104,10,8.94891e-05,-3.59364,7.50314,0.00786337,0.350877,
2,1,0,1,0,2552.99,0.35537,0.355099,0.255125,2,0.0303276,10,9.05945e-05,-3.59325,-0.97833,-0.0603069,0.354894,
2,1,0,1,0,2553.79,0.359365,0.359048,0.253602,2,0.0305502,10,9.10551e-05,-3.59585,398.992,0.000147873,0.358845,
2,1,0,1,0,2554.59,0.36336,0.363104,0.251514,2,0.0307723,10,9.13255e-05,-3.59944,-4.09293,-0.0144151,0.362902,
2,1,0,1,0,2555.38,0.367355,0.367067,0.25266,2,0.0309938,10,9.27431e-05,-3.59746,-6.8462,-0.00861792,0.366865,
2,1,0,0,0,2556.18,0.371351,0.371078,0.251625,2,0.0312144,10,9.33724e-05,-3.59925,-5.65187,-0.010439,0.370876,
2,1,0,1,0,2556.98,0.375346,0.375098,0.250784,2,0.0314347,10,9.40686e-05,-3.6007,-1.30994,-0.0450401,0.374897,
2,1,0,1,0,2557.78,0.379342,0.379074,0.249955,2,0.0316544,10,9.47513e-05,-3.60214,5.92568,0.00995667,0.378874,
2,1,0,1,0,2558.58,0.383336,0.38307,0.249542,2,0.0318734,10,9.55919e-05,-3.60286,-0.965016,-0.0611389,0.38287,
2,1,0,1,0,2559.38,0.387331,0.38708,0.248207,2,0.0320923,10,9.60759e-05,-3.60519,-2.23967,-0.0263431,0.386882,
2,1,0,0,0,2560.18,0.391327,0.39104,0.246961,2,0.0323107,10,9.65715e-05,-3.60737,4.20787,0.0140213,0.390842,
2,1,0,1,0,2560.98,0.395322,0.39505,0.246124,2,0.0325287,10,9.72315e-05,-3.60885,3.5194,0.0167642,0.394854,
2,1,0,0,0,2561.78,0.399317,0.399062,0.246978,2,0.0327465,10,9.85596e-05,-3.60734,-5.92339,-0.00996052,0.398864,
2,1,0,1,0,2562.58,0.403313,0.403054,0.247155,2,0.0329638,10,9.96167e-05,-3.60703,-3.03112,-0.0194647,0.402856,
2,1,0,1,0,2563.37,0.407307,0.407076,0.246639,2,0.0331811,10,0.000100401,-3.60794,5.95714,0.00990407,0.406879,
2,1,0,1,0,2564.17,0.411302,0.411039,0.248393,2,0.033398,10,0.000102099,-3.60486,-1.81365,-0.0325311,0.41084,
2,1,0,1,0,2564.97,0.415298,0.415044,0.247208,2,0.0336147,10,0.000102602,-3.60694,2.75477,0.0214174,0.414847,
2,1,0,0,0,2565.77,0.419293,0.41903,0.243738,2,0.0338311,10,0.000102134,-3.61308,-1.08303,-0.054477,0.418835,
2,1,0,1,0,2566.57,0.423288,0.42303,0.244381,2,0.0340471,10,0.000103381,-3.61193,1.45408,0.0405754,0.422835,
2,1,0,1,0,2567.37,0.427283,0.427076,0.24382,2,0.0342631,10,0.00010413,-3.61293,-2.78263,-0.0212029,0.426881,
2,1,0,1,0,2568.17,0.431278,0.431005,0.246679,2,0.034479,10,0.00010632,-3.60787,-2.11799,-0.0278566,0.430807,
2,1,0,1,0,2568.97,0.435273,0.435008,0.244867,2,0.0346946,10,0.000106519,-3.61107,1.50934,0.03909,0.434812,
2,1,0,0,0,2569.77,0.439269,0.439003,0.245206,2,0.0349103,10,0.000107646,-3.61047,-6.442,-0.00915865,0.438807,
2,1,0,1,0,2570.57,0.443264,0.443032,0.245295,2,0.0351258,10,0.000108674,-3.61031,3.45284,0.0170874,0.442835,
2,1,0,0,0,2571.36,0.447259,0.446946,0.244933,2,0.0353413,10,0.000109472,-3.61095,-1.59423,-0.0370085,0.44675,
2,1,0,1,0,2572.16,0.451254,0.450987,0.244713,2,0.0355571,10,0.000110362,-3.61134,140.808,0.00041901,0.450791,
2,1,0,1,0,2572.96,0.455249,0.455034,0.245246,2,0.0357725,10,0.000111595,-3.6104,5.42513,0.0108753,0.454838,
2,1,0,1,0,2573.76,0.459244,0.459,0.244494,2,0.0359883,10,0.000112223,-3.61173,-15.8483,-0.0037228,0.458804,
2,1,0,1,0,2574.56,0.46324,0.463005,0.245544,2,0.0362044,10,0.000113688,-3.60987,2.29345,0.0257255,0.462809,
2,1,0,0,0,2575.36,0.467235,0.466934,0.245939,2,0.0364208,10,0.000114837,-3.60917,1.43285,0.0411767,0.466738,
2,1,0,1,0,2576.16,0.471231,0.470942,0.247113,2,0.0366376,10,0.000116376,-3.6071,2.15101,0.027429,0.470744,
2,1,0,1,0,2576.96,0.475225,0.474995,0.248493,2,0.0368547,10,0.000118033,-3.60469,-1.46278,-0.0403342,0.474796,
2,1,0,1,0,2577.76,0.47922,0.47894,0.247641,2,0.0370722,10,0.000118605,-3.60618,0.685825,0.0860277,0.478742,
2,1,0,1,0,2578.56,0.483216,0.482896,0.248211,2,0.0372904,10,0.00011986,-3.60518,-1.85781,-0.0317578,0.482697,
2,1,0,0,0,2579.36,0.487211,0.486939,0.250105,2,0.0375091,10,0.000121786,-3.60188,-7.79562,-0.00756835,0.486739,
2,1,0,1,0,2580.15,0.491206,0.490963,0.249587,2,0.0377289,10,0.000122538,-3.60278,0.575924,0.102444,0.490763,
2,1,0,1,0,2580.95,0.495201,0.494924,0.251805,2,0.0379496,10,0.000124624,-3.59894,-10.0448,-0.00587368,0.494722,
2,1,0,1,0,2581.75,0.499196,0.4989,0.252632,2,0.0381712,10,0.000126038,-3.59751,0.987328,0.0597572,0.498698,
2,1,0,1,0,2582.55,0.503191,0.50292,0.254853,2,0.0383942,10,0.000128171,-3.59371,2.38551,0.0247326,0.502716,
2,1,0,0,0,2583.35,0.507187,0.506891,0.257305,2,0.0386184,10,0.000130426,-3.58955,1.11194,0.0530604,0.506686,
2,1,0,1,0,2584.15,0.511182,0.510912,0.258624,2,0.0388441,10,0.000132134,-3.58733,0.948691,0.062191,0.510706,
2,1,0,0,0,2584.95,0.515177,0.514911,0.261569,2,0.0390715,10,0.000134685,-3.58241,1.3815,0.0427072,0.514702,
2,1,0,1,0,2585.75,0.519172,0.518919,0.263104,2,0.0393004,10,0.00013653,-3.57987,0.732592,0.0805359,0.518709,
2,1,0,1,0,2586.55,0.523167,0.522891,0.265394,2,0.0395315,10,0.000138772,-3.57611,0.846458,0.0697022,0.522678,
2,1,0,1,0,2587.35,0.527162,0.526877,0.269722,2,0.039765,10,0.00014211,-3.56908,0.72853,0.080985,0.526661,
2,1,0,1,0,2588.14,0.531158,0.530902,0.27377,2,0.0400012,10,0.000145345,-3.56261,0.514507,0.114673,0.530683,
2,1,0,0,0,2588.94,0.535153,0.534876,0.277128,2,0.0402405,10,0.000148229,-3.55732,1.2259,0.0481278,0.534654,
2,1,0,1,0,2589.74,0.539148,0.538872,0.28231,2,0.0404829,10,0.000152129,-3.54927,0.452752,0.130314,0.538646,
2,1,0,1,0,2590.54,0.543143,0.542876,0.287635,2,0.0407292,10,0.00015615,-3.54116,0.605539,0.0974339,0.542646,
2,1,0,1,0,2591.34,0.547138,0.546892,0.292534,2,0.0409799,10,0.000159984,-3.53382,0.411658,0.143323,0.546658,
2,1,0,1,0,2592.14,0.551133,0.550861,0.299014,2,0.0412352,10,0.000164715,-3.52431,0.345623,0.170706,0.550621,
2,1,0,0,0,2592.94,0.555129,0.554917,0.305256,2,0.041496,10,0.000169392,-3.51534,0.335683,0.175761,0.554673,
2,1,0,1,0,2593.74,0.559124,0.558857,0.313212,2,0.0417625,10,0.000175041,-3.50416,0.466635,0.126437,0.558606,
2,1,0,1,0,2594.54,0.56312,0.562838,0.321302,2,0.0420353,10,0.000180841,-3.49309,0.358154,0.164734,0.562581,
2,1,0,1,0,2595.34,0.567114,0.566844,0.330964,2,0.0423151,10,0.000187605,-3.48022,0.29844,0.197695,0.566579,
2,1,0,1,0,2596.14,0.571109,0.570829,0.341304,2,0.0426024,10,0.000194827,-3.46686,0.286392,0.206011,0.570556,
2,1,0,0,0,2596.93,0.575105,0.574862,0.352739,2,0.0428986,10,0.000202777,-3.45255,0.273574,0.215664,0.57458,
2,1,0,1,0,2597.73,0.5791,0.578811,0.365426,2,0.0432047,10,0.000211513,-3.4372,0.250706,0.235335,0.578519,
2,1,0,0,0,2598.53,0.583095,0.582834,0.380675,2,0.0435222,10,0.00022187,-3.41945,0.188822,0.312464,0.582529,
2,1,0,1,0,2599.33,0.58709,0.586839,0.398172,2,0.043853,10,0.000233663,-3.39993,0.203176,0.290388,0.58652,
2,1,0,1,0,2600.13,0.591085,0.590808,0.420133,2,0.0441993,10,0.000248218,-3.37661,0.166486,0.354384,0.590472,
2,1,0,1,0,2600.93,0.59508,0.594847,0.444681,2,0.0445638,10,0.000264517,-3.35195,0.155118,0.380355,0.594492,
2,1,0,1,0,2601.73,0.599076,0.59882,0.473594,2,0.04495,10,0.000283598,-3.32459,0.131764,0.447771,0.598441,
2,1,0,0,0,2602.53,0.603071,0.60282,0.50901,2,0.045361,10,0.000306842,-3.29327,0.126977,0.46465,0.602413,
2,1,0,1,0,2603.33,0.607066,0.606789,0.54858,2,0.0458016,10,0.000332873,-3.26076,0.120735,0.488674,0.60635,
2,1,0,1,0,2604.13,0.611061,0.610858,0.595021,2,0.0462768,10,0.000363474,-3.22547,0.104709,0.563468,0.610382,
2,1,0,1,0,2604.92,0.615056,0.614844,0.651241,2,0.0467929,10,0.000400412,-3.18626,0.0956532,0.616811,0.614323,
2,1,0,1,0,2605.72,0.619051,0.618778,0.716016,2,0.0473582,10,0.000443055,-3.14508,0.092405,0.638494,0.618205,
2,1,0,0,0,2606.52,0.623047,0.622784,0.795846,2,0.0479804,10,0.00049564,-3.09917,0.0844154,0.698925,0.622148,
2,1,0,1,0,2607.32,0.627042,0.626813,0.88672,2,0.0486702,10,0.000555808,-3.05221,0.0789464,0.747342,0.626103,
2,1,0,1,0,2608.12,0.631037,0.630805,0.996251,2,0.0494405,10,0.00062844,-3.00163,0.077493,0.76136,0.630008,
2,1,0,1,0,2608.92,0.635032,0.634748,1.12243,2,0.0503045,10,0.00071246,-2.94984,0.0706783,0.834768,0.63385,
2,1,0,1,0,2609.72,0.639027,0.638809,1.27591,2,0.0512806,10,0.000815063,-2.89418,0.070017,0.842653,0.637788,
2,1,0,1,0,2610.52,0.643022,0.642762,1.45368,2,0.0523889,10,0.000934372,-2.83753,0.0660219,0.893643,0.641599,
2,1,0,1,0,2611.32,0.647018,0.646761,1.66458,2,0.0536528,10,0.00107658,-2.7787,0.0633909,0.930732,0.64543,
2,1,0,0,0,2612.12,0.651013,0.650756,1.91539,2,0.0551015,10,0.00124645,-2.71774,0.0612554,0.96318,0.649223,
2,1,0,1,0,2612.91,0.655008,0.654716,2.21118,2,0.0567672,10,0.00144769,-2.65538,0.059882,0.985272,0.652947,
2,1,0,1,0,2613.71,0.659003,0.658763,2.55527,2,0.0586874,10,0.00168332,-2.59256,0.0579797,1.0176,0.656719,
2,1,0,1,0,2614.51,0.662998,0.66273,2.95407,2,0.0609041,10,0.00195775,-2.52958,0.0594408,0.992585,0.660366,
2,1,0,1,0,2615.31,0.666994,0.666758,3.41702,2,0.0634644,10,0.00227833,-2.46635,0.056738,1.03987,0.664025,
2,1,0,0,0,2616.11,0.670989,0.670725,3.94718,2,0.0664222,10,0.00264747,-2.40371,0.0560537,1.05256,0.667568,
2,1,0,1,0,2616.91,0.674984,0.674725,4.55176,2,0.069834,10,0.00307119,-2.34182,0.0558475,1.05645,0.671084,
2,1,0,1,0,2617.71,0.678979,0.678776,5.23721,2,0.0737617,10,0.00355489,-2.2809,0.0583182,1.01169,0.674587,
2,1,0,1,0,2618.51,0.682974,0.682731,6.00202,2,0.0782686,10,0.00409776,-2.2217,0.0567978,1.03877,0.677929,
2,1,0,1,0,2619.31,0.686969,0.686716,6.84995,2,0.083419,10,0.00470397,-2.16431,0.0591044,0.998234,0.681236,
2,1,0,0,0,2620.11,0.690965,0.69076,7.77442,2,0.0892781,10,0.00537026,-2.10933,0.0599969,0.983384,0.68454,
2,1,0,1,0,2620.91,0.69496,0.694737,8.77679,2,0.0959067,10,0.00609756,-2.05666,0.0607704,0.970868,0.687716,
2,1,0,0,0,2621.7,0.698955,0.698719,9.83986,2,0.10336,10,0.00687529,-2.00701,0.0650931,0.906394,0.690847,
2,1,0,1,0,2622.5,0.70295,0.702701,10.9619,2,0.11169,10,0.0077029,-1.96012,0.0667997,0.883237,0.693931,
2,1,0,1,0,2623.3,0.706945,0.706708,12.1381,2,0.120937,10,0.00857812,-1.91585,0.0716694,0.823225,0.696997,
2,1,0,1,0,2624.1,0.71094,0.710685,13.3434,2,0.131137,10,0.00948299,-1.87473,0.0760857,0.775441,0.70001,
2,1,0,1,0,2624.9,0.714936,0.714664,14.5881,2,0.142318,10,0.0104256,-1.836,0.0787985,0.748745,0.702994,
2,1,0,0,0,2625.7,0.718931,0.718683,15.8679,2,0.154504,10,0.011404,-1.79948,0.0836362,0.705436,0.705989,
2,1,0,1,0,2626.5,0.722927,0.722686,17.2028,2,0.167737,10,0.0124322,-1.7644,0.084157,0.70107,0.708923,
2,1,0,1,0,2627.3,0.726921,0.726692,18.5827,2,0.182054,10,0.0135039,-1.73089,0.0865299,0.681845,0.711825,
2,1,0,1,0,2628.1,0.730916,0.730666,20.0421,2,0.197502,10,0.0146441,-1.69806,0.0859666,0.686313,0.714632,
2,1,0,1,0,2628.9,0.734911,0.734673,21.5849,2,0.214152,10,0.0158578,-1.66585,0.0878206,0.671824,0.717405,
2,1,0,0,0,2629.69,0.738907,0.73866,23.1912,2,0.232057,10,0.0171304,-1.63468,0.0872082,0.676542,0.720107,
2,1,0,1,0,2630.49,0.742902,0.742618,24.701,2,0.25123,10,0.0183434,-1.60729,0.113804,0.518434,0.722857,
2,1,0,1,0,2631.29,0.746897,0.746614,26.2945,2,0.271584,10,0.0196319,-1.58013,0.0905712,0.651422,0.725578,
2,1,0,1,0,2632.09,0.750892,0.750623,28.0452,2,0.293317,10,0.0210514,-1.55214,0.0913249,0.646045,0.728187,
2,1,0,1,0,2632.89,0.754887,0.754594,29.8764,2,0.316491,10,0.0225446,-1.52467,0.104366,0.565318,0.730692,
2,1,0,0,0,2633.69,0.758883,0.758611,31.5903,2,0.341064,10,0.0239647,-1.50045,0.101529,0.581113,0.733339,
2,1,0,1,0,2634.49,0.762878,0.762641,33.4144,2,0.367062,10,0.0254832,-1.47607,0.105337,0.560105,0.73591,
2,1,0,0,0,2635.29,0.766873,0.766674,35.4156,2,0.394557,10,0.0271522,-1.45081,0.104887,0.562508,0.738342,
2,1,0,1,0,2636.09,0.770868,0.770632,37.1717,2,0.423572,10,0.0286457,-1.42979,0.119161,0.495129,0.740895,
2,1,0,1,0,2636.89,0.774863,0.774599,39.022,2,0.454037,10,0.0302264,-1.40869,0.14442,0.408531,0.743381,
2,1,0,1,0,2637.68,0.778858,0.778587,40.4688,2,0.485853,10,0.0315085,-1.39288,0.142861,0.412989,0.746212,
2,1,0,1,0,2638.48,0.782854,0.782631,42.3825,2,0.519006,10,0.0331699,-1.37281,0.133811,0.440919,0.748725,
2,1,0,0,0,2639.28,0.786849,0.786635,44.0766,2,0.553596,10,0.0346722,-1.35579,0.172876,0.341285,0.751374,
2,1,0,1,0,2640.08,0.790844,0.790571,45.6396,2,0.589469,10,0.0360814,-1.34066,0.193687,0.304615,0.75406,
2,1,0,1,0,2640.88,0.794839,0.794568,47.3595,2,0.626618,10,0.0376304,-1.32459,0.185716,0.31769,0.75668,
2,1,0,1,0,2641.68,0.798834,0.798593,48.6909,2,0.66498,10,0.0388842,-1.31255,0.181946,0.324271,0.759641,
2,1,0,1,0,2642.48,0.802829,0.802597,50.3665,2,0.70465,10,0.040424,-1.29786,0.264317,0.223217,0.762304,
2,1,0,0,0,2643.28,0.806825,0.80659,51.7687,2,0.745451,10,0.0417561,-1.28593,0.198124,0.297794,0.765175,
2,1,0,1,0,2644.08,0.81082,0.810602,53.0961,2,0.787419,10,0.0430398,-1.27494,0.232474,0.253791,0.768126,
2,1,0,1,0,2644.88,0.814815,0.814571,54.5352,2,0.830575,10,0.0444228,-1.26332,0.364852,0.161709,0.770943,
2,1,0,1,0,2645.68,0.81881,0.818619,55.8599,2,0.874681,10,0.045728,-1.2529,0.322729,0.182816,0.773931,
2,1,0,1,0,2646.47,0.822805,0.822554,56.9345,2,0.919753,10,0.0468317,-1.24462,0.380978,0.154864,0.777006,
2,1,0,0,0,2647.27,0.826801,0.826586,58.0116,2,0.96568,10,0.0479516,-1.23649,0.381826,0.154521,0.780177,
2,1,0,1,0,2648.07,0.830796,0.830557,59.0798,2,1.01246,10,0.0490692,-1.22856,0.416247,0.141743,0.783293,
2,1,0,0,0,2648.87,0.834791,0.834572,60.0569,2,1.0601,10,0.0501218,-1.22144,0.615983,0.0957818,0.786526,
2,1,0,1,0,2649.67,0.838786,0.838593,60.9223,2,1.10839,10,0.0510891,-1.21522,0.41682,0.141548,0.789855,
2,1,0,1,0,2650.47,0.842781,0.842577,61.4264,2,1.15734,10,0.0517564,-1.21165,0.783834,0.075271,0.793436,
2,1,0,1,0,2651.27,0.846776,0.846595,62.1397,2,1.20681,10,0.0526071,-1.20663,0.513671,0.11486,0.796884,
2,1,0,0,0,2651.97,0.849723,0.849534,62.3798,2,1.25068,10,0.0529938,-1.20496,-0.0138656,-4.25515,0.79963,
2,1,0,1,0,2652.77,0.845728,0.845503,60.7282,2,1.29979,10,0.0513458,-1.21661,0.251436,0.234652,0.79692,
2,1,0,0,0,2653.57,0.841732,0.841543,59.2302,2,1.34762,10,0.0498447,-1.22746,0.35828,0.164676,0.794159,
2,1,0,1,0,2654.37,0.837737,0.837481,58.0993,2,1.39451,10,0.0486571,-1.23583,0.332073,0.177672,0.791002,
2,1,0,1,0,2655.16,0.833742,0.833517,54.3563,2,1.43931,10,0.0453069,-1.26475,0.050026,1.17939,0.790032,
2,1,0,1,0,2655.96,0.829747,0.829543,53.6356,2,1.48253,10,0.044493,-1.27055,0.45607,0.129366,0.786634,
2,1,0,1,0,2656.76,0.825752,0.825521,52.8312,2,1.52503,10,0.0436133,-1.27711,0.392854,0.150183,0.783256,
2,1,0,0,0,2657.56,0.821757,0.82153,51.4641,2,1.56672,10,0.0422793,-1.2885,0.270186,0.218368,0.780359,
2,1,0,1,0,2658.36,0.817761,0.817532,50.2959,2,1.60738,10,0.0411185,-1.29847,0.280792,0.21012,0.777295,
2,1,0,1,0,2659.16,0.813766,0.813541,48.8868,2,1.64702,10,0.0397714,-1.31081,0.198228,0.297637,0.774431,
2,1,0,1,0,2659.96,0.809771,0.809536,47.3971,2,1.68547,10,0.0383696,-1.32425,0.208097,0.283522,0.771618,
2,1,0,1,0,2660.76,0.805776,0.805538,45.8141,2,1.72271,10,0.036905,-1.339,0.162806,0.362395,0.768887,
2,1,0,0,0,2661.56,0.801781,0.801529,43.6191,2,1.75855,10,0.0349619,-1.36032,0.112078,0.526419,0.766633,
2,1,0,1,0,2662.36,0.797786,0.797522,42.0575,2,1.79277,10,0.0335418,-1.37616,0.175618,0.335957,0.763876,
2,1,0,1,0,2663.15,0.79379,0.793555,40.5809,2,1.82575,10,0.0322032,-1.39168,0.172124,0.342776,0.76109,
2,1,0,1,0,2663.95,0.789795,0.789511,38.7223,2,1.85749,10,0.0305717,-1.41204,0.113535,0.519664,0.758533,
2,1,0,1,0,2664.75,0.7858,0.78556,36.8799,2,1.8877,10,0.0289714,-1.43321,0.114598,0.514844,0.756056,
2,1,0,0,0,2665.55,0.781805,0.781564,35.1276,2,1.91645,10,0.0274545,-1.45435,0.117118,0.503764,0.753462,
2,1,0,1,0,2666.35,0.77781,0.777577,33.3647,2,1.94378,10,0.0259436,-1.47671,0.116032,0.508483,0.750885,
2,1,0,0,0,2667.15,0.773814,0.773551,31.6583,2,1.96974,10,0.0244893,-1.49951,0.10931,0.539748,0.748224,
2,1,0,1,0,2667.95,0.769819,0.7696,29.8406,2,1.99431,10,0.0229653,-1.52519,0.0979649,0.602257,0.745728,
2,1,0,1,0,2668.75,0.765824,0.765606,28.0688,2,2.01743,10,0.0214897,-1.55178,0.0928861,0.635186,0.743151,
2,1,0,1,0,2669.55,0.761829,0.761629,26.3062,2,2.03913,10,0.0200356,-1.57994,0.0878529,0.671577,0.740584,
2,1,0,1,0,2670.35,0.757834,0.75758,24.4806,2,2.05939,10,0.018546,-1.61118,0.0818037,0.721238,0.737995,
2,1,0,0,0,2671.14,0.753839,0.753628,22.8131,2,2.07826,10,0.0171926,-1.64182,0.0843196,0.699719,0.735377,
2,1,0,1,0,2671.94,0.749843,0.749633,21.1832,2,2.09581,10,0.0158797,-1.67401,0.0833852,0.70756,0.732687,
2,1,0,1,0,2672.74,0.745848,0.745615,19.5786,2,2.11208,10,0.0145981,-1.70822,0.0772032,0.764217,0.729952,
2,1,0,1,0,2673.54,0.741853,0.741605,18.0462,2,2.12708,10,0.0133831,-1.74361,0.0710833,0.830013,0.727168,
2,1,0,1,0,2674.34,0.737858,0.737635,16.4395,2,2.14081,10,0.0121263,-1.78411,0.0708355,0.832916,0.724483,
2,1,0,0,0,2675.14,0.733863,0.733671,15.0328,2,2.15336,10,0.0110291,-1.82296,0.0736412,0.801182,0.721645,
2,1,0,1,0,2675.94,0.729868,0.729597,13.682,2,2.1648,10,0.00998233,-1.86385,0.0700933,0.841735,0.718651,
2,1,0,1,0,2676.74,0.725872,0.725628,12.4106,2,2.17521,10,0.00900549,-1.90621,0.0698305,0.844903,0.7157,
2,1,0,1,0,2677.54,0.721877,0.721617,11.1972,2,2.18462,10,0.00808013,-1.95089,0.0670229,0.880296,0.712659,
2,1,0,1,0,2678.34,0.717882,0.717621,10.0577,2,2.19309,10,0.00721763,-1.9975,0.0651024,0.906264,0.709575,
2,1,0,0,0,2679.14,0.713887,0.713678,8.99387,2,2.20067,10,0.00641873,-2.04605,0.0631702,0.933985,0.706483,
2,1,0,1,0,2679.93,0.709892,0.709656,7.99708,2,2.20743,10,0.00567518,-2.09707,0.0626684,0.941463,0.703258,
2,1,0,0,0,2680.73,0.705897,0.705656,7.07899,2,2.21344,10,0.00499534,-2.15003,0.0607635,0.970978,0.699993,
2,1,0,1,0,2681.53,0.701901,0.701659,6.24052,2,2.21873,10,0.00437872,-2.20478,0.0593802,0.993598,0.696667,
2,1,0,1,0,2682.33,0.697906,0.697672,5.46607,2,2.22339,10,0.00381352,-2.26233,0.0584224,1.00989,0.6933,
2,1,0,1,0,2683.13,0.693911,0.693684,4.76226,2,2.22745,10,0.0033035,-2.32219,0.0565013,1.04422,0.689874,
2,1,0,1,0,2683.93,0.689916,0.689718,4.13,2,2.23098,10,0.00284854,-2.38405,0.0567404,1.03982,0.686414,
2,1,0,0,0,2684.73,0.685921,0.685654,3.56267,2,2.23404,10,0.00244276,-2.44822,0.0547568,1.07749,0.682804,
2,1,0,1,0,2685.53,0.681926,0.681708,3.05805,2,2.23666,10,0.00208469,-2.51456,0.0532858,1.10724,0.679262,
2,1,0,1,0,2686.33,0.67793,0.677693,2.61389,2,2.2389,10,0.00177141,-2.58271,0.0524442,1.125,0.675602,
2,1,0,1,0,2687.13,0.673935,0.673675,2.2241,2,2.24082,10,0.00149832,-2.65285,0.0515553,1.1444,0.671896,
2,1,0,1,0,2687.92,0.66994,0.669694,1.88376,2,2.24244,10,0.00126154,-2.72497,0.0522465,1.12926,0.668187,
2,1,0,0,0,2688.72,0.665945,0.665696,1.58575,2,2.2438,10,0.00105562,-2.79977,0.0506486,1.16489,0.664427,
2,1,0,1,0,2689.52,0.66195,0.661703,1.3326,2,2.24495,10,0.000881784,-2.8753,0.0486033,1.21391,0.660637,
2,1,0,0,0,2690.32,0.657955,0.657705,1.11319,2,2.24591,10,0.000732151,-2.95343,0.0499339,1.18156,0.656814,
2,1,0,1,0,2691.12,0.653959,0.653714,0.92839,2,2.24671,10,0.000606901,-3.03227,0.0475857,1.23987,0.652971,
2,1,0,1,0,2691.92,0.649964,0.649711,0.771638,2,2.24737,10,0.000501342,-3.11259,0.0473281,1.24662,0.649094,
2,1,0,1,0,2692.72,0.645969,0.645753,0.639663,2,2.24791,10,0.000413064,-3.19405,0.0674488,0.874737,0.645242,
2,1,0,1,0,2693.52,0.641974,0.641731,0.539806,2,2.24837,10,0.00034641,-3.26776,0.0390676,1.5102,0.641299,
2,1,0,0,0,2694.32,0.637979,0.637701,0.443104,2,2.24875,10,0.000282568,-3.35349,0.0450496,1.30967,0.637347,
2,1,0,1,0,2695.12,0.633983,0.633734,0.360997,2,2.24905,10,0.000228776,-3.4425,0.0450278,1.3103,0.633445,
2,1,0,1,0,2695.92,0.629988,0.629777,0.293314,2,2.24929,10,0.000184722,-3.53267,0.0403731,1.46137,0.629542,
2,1,0,1,0,2696.71,0.625993,0.625749,0.233706,2,2.24949,10,0.000146241,-3.63133,0.0404066,1.46016,0.625562,
2,1,0,1,0,2697.51,0.621998,0.621703,0.185357,2,2.24964,10,0.000115237,-3.73199,0.0366624,1.60928,0.621555,
2,1,0,0,0,2698.31,0.618003,0.617748,0.143925,2,2.24975,10,8.89094e-05,-3.84186,0.0328032,1.79861,0.617633,
2,1,0,1,0,2699.11,0.614008,0.613737,0.108752,2,2.24983,10,6.6745e-05,-3.96356,0.0315173,1.87199,0.61365,
2,1,0,1,0,2699.91,0.610012,0.609738,0.0792364,2,2.24989,10,4.83134e-05,-4.10108,0.0258733,2.28034,0.609675,
2,1,0,1,0,2700.71,0.606017,0.605734,0.0546144,2,2.24993,10,3.30818e-05,-4.26269,0.0224525,2.62777,0.60569,
2,1,0,1,0,2701.51,0.602022,0.601735,0.0326845,2,2.24994,10,1.96674e-05,-4.48566,0.0161301,3.65775,0.601709,
2,1,0,0,0,2702.31,0.598027,0.597758,0.0145676,2,2.24994,10,8.70787e-06,-4.83661,0.00681725,8.65451,0.597746,
2,1,0,1,0,2703.11,0.594032,0.593727,-0.00142893,2,2.24993,10,-8.48395e-07,-5.84499,-0.0380043,-1.55246,0.593728,
2,0,0,0,0,2703.91,0.590037,0.589804,-0.0137152,2,2.24991,10,-8.0893e-06,-4.8628,-0.0102481,-5.75716,0.589815,
2,0,0,1,0,2704.7,0.586041,0.585755,-0.0241103,2,2.24988,10,-1.41227e-05,-4.6178,-0.0227588,-2.59241,0.585774,
2,0,0,1,0,2705.5,0.582046,0.581783,-0.0327983,2,2.24984,10,-1.90815e-05,-4.48415,-0.0379795,-1.55347,0.581809,
2,0,0,1,0,2706.3,0.578052,0.5778,-0.0413276,2,2.24979,10,-2.38791e-05,-4.38376,-0.0548968,-1.07474,0.577833,
2,0,0,1,0,2707.1,0.574056,0.573803,-0.0470907,2,2.24974,10,-2.70208e-05,-4.32706,-0.0681873,-0.865264,0.573841,
2,0,0,0,0,2707.9,0.570061,0.569797,-0.0536145,2,2.24968,10,-3.05494e-05,-4.27072,-0.107853,-0.547043,0.56984,
2,0,0,1,0,2708.7,0.566065,0.565816,-0.0590271,2,2.24962,10,-3.33985e-05,-4.22895,-0.0843364,-0.699579,0.565863,
2,0,0,1,0,2709.5,0.56207,0.561829,-0.0637849,2,2.24955,10,-3.58362e-05,-4.19528,-0.148799,-0.396507,0.56188,
2,0,0,1,0,2710.3,0.558075,0.557827,-0.0690656,2,2.24948,10,-3.85267e-05,-4.16074,-0.140295,-0.420543,0.557882,
2,0,0,1,0,2711.1,0.55408,0.55382,-0.0707849,2,2.24941,10,-3.92021e-05,-4.15006,-0.172463,-0.342103,0.553877,
2,0,0,0,0,2711.9,0.550085,0.549843,-0.0741662,2,2.24933,10,-4.07798e-05,-4.12979,-0.386688,-0.152578,0.549903,
2,0,0,1,0,2712.69,0.54609,0.545825,-0.0771226,2,2.24926,10,-4.20955e-05,-4.11282,-0.401831,-0.146828,0.545887,
2,0,0,1,0,2713.49,0.542094,0.541833,-0.0780813,2,2.24918,10,-4.23071e-05,-4.10745,-0.26625,-0.221596,0.541896,
2,0,0,1,0,2714.29,0.538099,0.537834,-0.0809814,2,2.24909,10,-4.35545e-05,-4.09161,-1.02998,-0.0572827,0.537899,
2,0,0,1,0,2715.09,0.534104,0.533839,-0.0828066,2,2.24901,10,-4.42054e-05,-4.08194,-0.213302,-0.276603,0.533905,
2,0,0,0,0,2715.89,0.530109,0.529821,-0.0859593,2,2.24893,10,-4.5543e-05,-4.06571,-0.484317,-0.121821,0.529889,
2,0,0,1,0,2716.69,0.526114,0.5258,-0.0877791,2,2.24884,10,-4.61542e-05,-4.05661,-0.65668,-0.0898459,0.52587,
2,0,0,0,0,2717.49,0.522119,0.521876,-0.0884034,2,2.24875,10,-4.61356e-05,-4.05353,-0.261392,-0.225715,0.521947,
2,0,0,1,0,2718.29,0.518123,0.51783,-0.0896309,2,2.24866,10,-4.64136e-05,-4.04754,3.10692,0.0189899,0.517902,
2,0,0,1,0,2719.09,0.514128,0.513857,-0.091774,2,2.24857,10,-4.71588e-05,-4.03728,-0.397509,-0.148424,0.513931,
2,0,0,1,0,2719.89,0.510133,0.509859,-0.0918017,2,2.24848,10,-4.68059e-05,-4.03715,-0.993116,-0.059409,0.509932,
2,0,0,1,0,2720.69,0.506138,0.505842,-0.0948918,2,2.24839,10,-4.80002e-05,-4.02277,-1.06091,-0.0556125,0.505918,
2,0,0,0,0,2721.48,0.502143,0.501849,-0.0959562,2,2.2483,10,-4.81556e-05,-4.01793,-0.291695,-0.202266,0.501926,
2,0,0,1,0,2722.28,0.498148,0.497871,-0.0979378,2,2.2482,10,-4.87604e-05,-4.00905,2.30062,0.0256453,0.497949,
2,0,0,1,0,2723.08,0.494152,0.493905,-0.0984639,2,2.24811,10,-4.86318e-05,-4.00672,-0.274759,-0.214733,0.493983,
2,0,0,1,0,2723.88,0.490157,0.489886,-0.0990904,2,2.24801,10,-4.8543e-05,-4.00397,-0.439885,-0.134126,0.489965,
2,0,0,1,0,2724.68,0.486162,0.485905,-0.101731,2,2.24791,10,-4.94317e-05,-3.99255,1.32101,0.0446628,0.485987,
2,0,0,0,0,2725.48,0.482167,0.481881,-0.101661,2,2.24781,10,-4.89887e-05,-3.99284,-0.371457,-0.158834,0.481962,
2,0,0,1,0,2726.28,0.478172,0.477914,-0.103246,2,2.24771,10,-4.93425e-05,-3.98613,-1.90926,-0.0309021,0.477996,
2,0,0,0,0,2727.08,0.474177,0.47387,-0.105009,2,2.24761,10,-4.97608e-05,-3.97877,-1.06244,-0.0555325,0.473954,
2,0,0,1,0,2727.88,0.470181,0.469876,-0.106327,2,2.24751,10,-4.99603e-05,-3.97336,-0.651375,-0.0905777,0.469961,
2,0,0,1,0,2728.68,0.466186,0.465922,-0.107824,2,2.24741,10,-5.02374e-05,-3.96729,-0.45082,-0.130873,0.466008,
2,0,0,1,0,2729.47,0.462191,0.461931,-0.11011,2,2.2473,10,-5.08634e-05,-3.95817,-0.97102,-0.0607609,0.462019,
2,0,0,1,0,2730.27,0.458196,0.457945,-0.110517,2,2.2472,10,-5.06108e-05,-3.95657,-0.326262,-0.180836,0.458034,
2,0,0,0,0,2731.07,0.454201,0.453906,-0.114482,2,2.24709,10,-5.19641e-05,-3.94126,-111.716,-0.000528124,0.453998,
2,0,0,1,0,2731.87,0.450205,0.44994,-0.116138,2,2.24698,10,-5.22553e-05,-3.93502,-0.585333,-0.100797,0.450033,
2,0,0,1,0,2732.67,0.44621,0.445986,-0.116495,2,2.24687,10,-5.19553e-05,-3.93369,-0.350836,-0.16817,0.446079,
2,0,0,1,0,2733.47,0.442215,0.441971,-0.118854,2,2.24676,10,-5.25299e-05,-3.92499,-2.37021,-0.0248923,0.442067,
2,0,0,1,0,2734.27,0.43822,0.437952,-0.119625,2,2.24665,10,-5.239e-05,-3.92218,-0.350995,-0.168094,0.438048,
2,0,0,0,0,2735.07,0.434225,0.433924,-0.121923,2,2.24653,10,-5.29053e-05,-3.91391,-0.604876,-0.0975407,0.434021,
2,0,0,1,0,2735.87,0.43023,0.42998,-0.123987,2,2.24642,10,-5.33121e-05,-3.90662,-0.593651,-0.0993851,0.430079,
2,0,0,1,0,2736.67,0.426234,0.425976,-0.128178,2,2.2463,10,-5.46006e-05,-3.89219,-0.476148,-0.123911,0.426078,
2,0,0,1,0,2737.46,0.422239,0.421928,-0.127627,2,2.24618,10,-5.38496e-05,-3.89406,-0.566263,-0.104192,0.42203,
2,0,0,1,0,2738.26,0.418244,0.417999,-0.130623,2,2.24606,10,-5.46002e-05,-3.88398,-0.717993,-0.0821735,0.418103,
2,0,0,0,0,2739.06,0.414249,0.41397,-0.132602,2,2.24594,10,-5.48931e-05,-3.87745,-1.02347,-0.0576472,0.414076,
2,0,0,1,0,2739.86,0.410254,0.40998,-0.13413,2,2.24582,10,-5.49906e-05,-3.87247,-0.770674,-0.0765564,0.410087,
2,0,0,0,0,2740.66,0.406259,0.405966,-0.136825,2,2.24569,10,-5.55462e-05,-3.86384,-0.382626,-0.154197,0.406076,
2,0,0,1,0,2741.46,0.402263,0.402003,-0.139505,2,2.24556,10,-5.60813e-05,-3.85541,-0.536677,-0.109936,0.402115,
2,0,0,1,0,2742.26,0.398268,0.397941,-0.14216,2,2.24543,10,-5.65712e-05,-3.84722,-0.370253,-0.15935,0.398055,
2,0,0,1,0,2743.06,0.394273,0.394011,-0.144888,2,2.2453,10,-5.70875e-05,-3.83897,-0.504082,-0.117045,0.394126,
2,0,0,1,0,2743.86,0.390278,0.390001,-0.146694,2,2.24517,10,-5.7211e-05,-3.83359,-1.68812,-0.0349501,0.390118,
2,0,0,0,0,2744.66,0.386283,0.386031,-0.149174,2,2.24503,10,-5.75857e-05,-3.82631,-0.39168,-0.150633,0.38615,
2,0,0,1,0,2745.46,0.382287,0.382002,-0.151334,2,2.2449,10,-5.78098e-05,-3.82006,-0.526474,-0.112066,0.382123,
2,0,0,1,0,2746.25,0.378292,0.377989,-0.153649,2,2.24476,10,-5.80777e-05,-3.81347,-5.44427,-0.0108371,0.378112,
2,0,0,1,0,2747.05,0.374297,0.374028,-0.155087,2,2.24462,10,-5.80071e-05,-3.80942,-0.393044,-0.15011,0.374152,
2,0,0,1,0,2747.85,0.370302,0.370028,-0.158389,2,2.24447,10,-5.86086e-05,-3.80027,-0.377825,-0.156157,0.370155,
2,0,0,0,0,2748.65,0.366307,0.366028,-0.161366,2,2.24433,10,-5.90645e-05,-3.79219,-0.938065,-0.0628955,0.366157,
2,0,0,1,0,2749.45,0.362312,0.362021,-0.163119,2,2.24418,10,-5.90526e-05,-3.78749,-0.360393,-0.16371,0.362151,
2,0,0,1,0,2750.25,0.358316,0.358057,-0.166948,2,2.24403,10,-5.97769e-05,-3.77742,-1.27862,-0.0461434,0.35819,
2,0,0,1,0,2751.05,0.354321,0.354042,-0.169304,2,2.24388,10,-5.99409e-05,-3.77133,-0.608894,-0.0968969,0.354178,
2,0,0,1,0,2751.85,0.350327,0.350066,-0.171766,2,2.24372,10,-6.01295e-05,-3.76506,-0.622383,-0.094797,0.350204,
2,0,0,0,0,2752.65,0.346331,0.346032,-0.174487,2,2.24357,10,-6.03781e-05,-3.75824,-1.36743,-0.0431466,0.346172,
2,0,0,1,0,2753.45,0.342336,0.342068,-0.176171,2,2.24341,10,-6.02626e-05,-3.75406,-0.605288,-0.0974742,0.342209,
2,0,0,0,0,2754.24,0.338341,0.337986,-0.178972,2,2.24325,10,-6.04901e-05,-3.74721,-0.413469,-0.142695,0.338129,
2,0,0,1,0,2755.04,0.334345,0.334064,-0.181273,2,2.24309,10,-6.05569e-05,-3.74167,-0.769267,-0.0766964,0.334209,
2,0,0,1,0,2755.84,0.33035,0.330036,-0.183682,2,2.24292,10,-6.06216e-05,-3.73593,-0.677354,-0.0871037,0.330183,
2,0,0,1,0,2756.64,0.326355,0.326105,-0.186212,2,2.24276,10,-6.07248e-05,-3.72999,-0.90113,-0.0654734,0.326254,
2,0,0,1,0,2757.44,0.32236,0.322049,-0.188907,2,2.24259,10,-6.08372e-05,-3.72375,-0.549297,-0.10741,0.3222,
2,0,0,0,0,2758.24,0.318365,0.318103,-0.191224,2,2.24242,10,-6.0829e-05,-3.71846,-0.687602,-0.0858055,0.318256,
2,0,0,1,0,2759.04,0.31437,0.314071,-0.195291,2,2.24225,10,-6.13352e-05,-3.70932,-0.727968,-0.0810475,0.314228,
2,0,0,1,0,2759.84,0.310374,0.310103,-0.197857,2,2.24207,10,-6.13562e-05,-3.70365,-0.474739,-0.124279,0.310261,
2,0,0,1,0,2760.64,0.306379,0.306076,-0.199503,2,2.2419,10,-6.1063e-05,-3.70005,-0.538171,-0.109631,0.306235,
2,0,0,1,0,2761.44,0.302385,0.302072,-0.202997,2,2.24172,10,-6.13197e-05,-3.69251,-1.44317,-0.0408821,0.302235,
2,0,0,0,0,2762.23,0.298389,0.298129,-0.205223,2,2.24154,10,-6.11829e-05,-3.68777,-0.697217,-0.0846221,0.298293,
2,0,0,1,0,2763.03,0.294394,0.294088,-0.208048,2,2.24135,10,-6.11844e-05,-3.68184,-1.14183,-0.0516713,0.294254,
2,0,0,1,0,2763.83,0.290398,0.290097,-0.209742,2,2.24117,10,-6.08455e-05,-3.67832,-1.8302,-0.0322369,0.290265,
2,0,0,1,0,2764.63,0.286403,0.286148,-0.212852,2,2.24098,10,-6.09074e-05,-3.67192,-0.453063,-0.130225,0.286319,
2,0,0,1,0,2765.43,0.282408,0.282143,-0.21574,2,2.24079,10,-6.08696e-05,-3.66607,-1.3715,-0.0430186,0.282316,
2,0,0,1,0,2766.23,0.278413,0.278136,-0.218787,2,2.2406,10,-6.08525e-05,-3.65998,-0.380567,-0.155032,0.278311,
2,0,0,1,0,2767.03,0.274418,0.274127,-0.220794,2,2.24041,10,-6.05255e-05,-3.65601,-0.725776,-0.0812923,0.274304,
2,0,0,0,0,2767.83,0.270423,0.270154,-0.223794,2,2.24021,10,-6.04588e-05,-3.65015,-0.79965,-0.0737823,0.270333,
2,0,0,1,0,2768.63,0.266427,0.26615,-0.226169,2,2.24001,10,-6.0195e-05,-3.64557,-2.26452,-0.0260541,0.266331,
2,0,0,1,0,2769.43,0.262432,0.262154,-0.229386,2,2.23981,10,-6.01344e-05,-3.63943,-0.661862,-0.0891425,0.262337,
2,0,0,1,0,2770.23,0.258437,0.25815,-0.232864,2,2.23961,10,-6.01138e-05,-3.6329,-0.681766,-0.0865399,0.258336,
2,0,0,1,0,2771.02,0.254442,0.254165,-0.234599,2,2.23941,10,-5.96269e-05,-3.62967,-0.697587,-0.0845773,0.254352,
2,0,0,0,0,2771.82,0.250447,0.250148,-0.23746,2,2.2392,10,-5.94002e-05,-3.62441,-5.41983,-0.010886,0.250338,
2,0,0,1,0,2772.62,0.246452,0.246215,-0.241348,2,2.23899,10,-5.94236e-05,-3.61736,-0.414423,-0.142367,0.246408,
2,0,0,1,0,2773.42,0.242456,0.242147,-0.244556,2,2.23878,10,-5.92184e-05,-3.61162,-0.638734,-0.0923702,0.242343,
2,0,0,1,0,2774.22,0.238461,0.238224,-0.248137,2,2.23857,10,-5.91121e-05,-3.60531,-0.710368,-0.0830556,0.238422,
2,0,0,1,0,2775.02,0.234466,0.2342,-0.250821,2,2.23835,10,-5.87422e-05,-3.60064,-0.435969,-0.135331,0.2344,
2,0,0,0,0,2775.82,0.230471,0.230185,-0.255404,2,2.23813,10,-5.87902e-05,-3.59277,-0.659518,-0.0894593,0.230389,
2,0,0,1,0,2776.62,0.226476,0.226205,-0.259564,2,2.23791,10,-5.87146e-05,-3.58576,-0.672782,-0.0876956,0.226413,
2,0,0,0,0,2777.42,0.222481,0.22224,-0.262912,2,2.23768,10,-5.84297e-05,-3.58019,-0.434053,-0.135928,0.222451,
2,0,0,1,0,2778.22,0.218485,0.218233,-0.268086,2,2.23745,10,-5.85052e-05,-3.57173,-1.08833,-0.0542113,0.218447,
2,0,0,1,0,2779.01,0.21449,0.214206,-0.274437,2,2.23722,10,-5.8786e-05,-3.56156,-0.403575,-0.146194,0.214425,
2,0,0,1,0,2779.81,0.210496,0.210186,-0.279389,2,2.23698,10,-5.87237e-05,-3.55379,-0.407443,-0.144805,0.21041,
2,0,0,1,0,2780.61,0.2065,0.206176,-0.286788,2,2.23673,10,-5.91288e-05,-3.54244,-0.332303,-0.177549,0.206406,
2,0,0,0,0,2781.41,0.202505,0.20224,-0.293641,2,2.23648,10,-5.9386e-05,-3.53218,-0.310077,-0.190275,0.202475,
2,0,0,1,0,2782.21,0.198509,0.198217,-0.301602,2,2.23623,10,-5.97828e-05,-3.52057,-0.31582,-0.186815,0.198459,
2,0,0,1,0,2783.01,0.194514,0.194222,-0.312181,2,2.23597,10,-6.06324e-05,-3.50559,-0.310027,-0.190306,0.194472,
2,0,0,1,0,2783.81,0.190519,0.19022,-0.322749,2,2.23569,10,-6.13935e-05,-3.49113,-0.228211,-0.258533,0.190479,
2,0,0,1,0,2784.61,0.186524,0.186272,-0.339103,2,2.23541,10,-6.31655e-05,-3.46967,-0.19563,-0.30159,0.186544,
2,0,0,0,0,2785.41,0.182529,0.182259,-0.356511,2,2.23511,10,-6.49773e-05,-3.44793,-0.144868,-0.407266,0.182544,
2,0,0,1,0,2786.21,0.178534,0.178237,-0.378817,2,2.2348,10,-6.7519e-05,-3.42157,-0.144514,-0.408264,0.17854,
2,0,0,1,0,2787.01,0.174538,0.17424,-0.408251,2,2.23447,10,-7.11334e-05,-3.38907,-0.127029,-0.464462,0.174566,
2,0,0,1,0,2787.8,0.170543,0.170264,-0.439546,2,2.23412,10,-7.4839e-05,-3.357,-0.0998911,-0.590643,0.170616,
2,0,0,1,0,2788.6,0.166549,0.166279,-0.486014,2,2.23373,10,-8.08138e-05,-3.31335,-0.0843485,-0.699479,0.166668,
2,0,0,0,0,2789.4,0.162553,0.162258,-0.542657,2,2.2333,10,-8.80506e-05,-3.26547,-0.0801117,-0.736472,0.162692,
2,0,0,1,0,2790.2,0.158558,0.158297,-0.613733,2,2.23282,10,-9.71519e-05,-3.21202,-0.0690928,-0.853924,0.158788,
2,0,0,0,0,2791,0.154563,0.154268,-0.701865,2,2.23228,10,-0.000108275,-3.15375,-0.0726933,-0.811629,0.15483,
2,0,0,1,0,2791.8,0.150567,0.150293,-0.792484,2,2.23166,10,-0.000119105,-3.10101,-0.0757876,-0.778492,0.150927,
2,0,0,1,0,2792.6,0.146572,0.146307,-0.879298,2,2.23097,10,-0.000128647,-3.05586,-0.104903,-0.562427,0.14701,
2,0,0,1,0,2793.4,0.142578,0.142235,-0.951081,2,2.23022,10,-0.000135277,-3.02178,-0.136184,-0.433238,0.142996,
2,0,0,1,0,2794.2,0.138582,0.138308,-0.995723,2,2.22943,10,-0.000137717,-3.00186,-0.283799,-0.207894,0.139105,
2,0,0,0,0,2795,0.134587,0.134282,-1.01611,2,2.2286,10,-0.000136445,-2.99306,-2.49591,-0.0236387,0.135095,
2,0,0,1,0,2795.79,0.130591,0.130283,-1.01122,2,2.22777,10,-0.000131746,-2.99515,0.64403,0.0916107,0.131092,
2,0,0,1,0,2796.59,0.126596,0.126311,-0.976363,2,2.22696,10,-0.000123326,-3.01039,0.213015,0.276975,0.127093,
2,0,0,1,0,2797.39,0.122602,0.122343,-0.933647,2,2.22618,10,-0.000114225,-3.02982,0.164278,0.359147,0.12309,
2,0,0,1,0,2798.19,0.118607,0.118335,-0.879459,2,2.22543,10,-0.000104071,-3.05578,0.161541,0.365231,0.119038,
2,0,0,0,0,2798.99,0.114611,0.114315,-0.826128,2,2.22473,10,-9.4439e-05,-3.08295,0.153037,0.385527,0.114976,
2,0,0,1,0,2799.79,0.110616,0.110322,-0.780749,2,2.22408,10,-8.61336e-05,-3.10749,0.173313,0.340424,0.110946,
2,0,0,1,0,2800.59,0.10662,0.106311,-0.743973,2,2.22345,10,-7.90923e-05,-3.12844,0.20397,0.289259,0.106906,
2,0,0,1,0,2801.39,0.102625,0.102358,-0.713214,2,2.22285,10,-7.30031e-05,-3.14678,0.235459,0.250575,0.102929,
2,0,0,1,0,2802.19,0.0986305,0.098336,-0.688459,2,2.22228,10,-6.77004e-05,-3.16212,0.327462,0.180174,0.0988868,
2,0,0,0,0,2802.99,0.0946351,0.094335,-0.669419,2,2.22172,10,-6.31496e-05,-3.1743,0.377999,0.156085,0.0948706,
2,0,0,1,0,2803.78,0.0906399,0.0903553,-0.655473,2,2.22117,10,-5.92255e-05,-3.18345,0.381148,0.154796,0.0908797,
2,0,0,0,0,2804.58,0.0866447,0.0863629,-0.641352,2,2.22063,10,-5.5389e-05,-3.1929,0.541198,0.109017,0.086876,
2,0,0,1,0,2805.38,0.0826492,0.0823298,-0.633921,2,2.22011,10,-5.21906e-05,-3.19797,0.364246,0.161978,0.0828369,
2,0,0,1,0,2806.18,0.0786544,0.0783706,-0.61438,2,2.21959,10,-4.81493e-05,-3.21156,0.384088,0.153611,0.0788621,
2,0,0,1,0,2806.98,0.0746596,0.0743923,-0.597329,2,2.21909,10,-4.44367e-05,-3.22379,0.374237,0.157654,0.0748702,
2,0,0,1,0,2807.78,0.0706641,0.0704006,-0.581112,2,2.2186,10,-4.09106e-05,-3.23574,0.318466,0.185263,0.0708655,
2,0,0,0,0,2808.58,0.0666689,0.0663435,-0.565018,2,2.21813,10,-3.74853e-05,-3.24794,0.313584,0.188147,0.0667955,
2,0,0,1,0,2809.38,0.0626737,0.0623977,-0.54581,2,2.21766,10,-3.40573e-05,-3.26296,0.312315,0.188912,0.0628344,
2,0,0,1,0,2810.18,0.0586783,0.058386,-0.534266,2,2.21721,10,-3.11936e-05,-3.27224,0.295762,0.199485,0.0588134,
2,0,0,1,0,2810.98,0.0546835,0.0544184,-0.519765,2,2.21678,10,-2.82848e-05,-3.28419,0.447883,0.131731,0.0548342,
2,0,0,1,0,2811.78,0.0506886,0.0503965,-0.510299,2,2.21635,10,-2.57173e-05,-3.29217,0.455578,0.129506,0.0508047,
2,0,0,0,0,2812.57,0.046693,0.0464121,-0.499748,2,2.21593,10,-2.31944e-05,-3.30125,0.587428,0.100438,0.0468119,
2,0,0,1,0,2813.37,0.0426979,0.0424186,-0.491941,2,2.21551,10,-2.08674e-05,-3.30809,0.849717,0.0694349,0.0428122,
2,0,0,1,0,2814.17,0.0387022,0.0383969,-0.485999,2,2.21511,10,-1.86609e-05,-3.31336,0.753035,0.0783497,0.0387857,
2,0,0,1,0,2814.97,0.0347074,0.0344209,-0.481384,2,2.2147,10,-1.65697e-05,-3.31751,0.926131,0.0637059,0.034806,
2,0,0,1,0,2815.77,0.0307126,0.0304765,-0.477695,2,2.2143,10,-1.45585e-05,-3.32085,-7.76448,-0.0075987,0.0308587,
2,0,0,0,0,2816.57,0.0267172,0.026434,-0.478267,2,2.2139,10,-1.26425e-05,-3.32033,1.79201,0.032924,0.0268166,
2,0,0,1,0,2817.37,0.022722,0.0224554,-0.47778,2,2.2135,10,-1.07287e-05,-3.32077,-8.81406,-0.00669385,0.0228376,
2,0,0,0,0,2818.17,0.0187268,0.0184237,-0.478425,2,2.2131,10,-8.81437e-06,-3.32019,-2.82481,-0.0208863,0.0188065,
2,0,0,1,0,2818.97,0.0147313,0.0144247,-0.481876,2,2.2127,10,-6.9509e-06,-3.31707,-2.11958,-0.0278357,0.0148102,
2,0,0,1,0,2819.77,0.0107365,0.010447,-0.484992,2,2.2123,10,-5.06673e-06,-3.31427,-1.43501,-0.0411148,0.010835,
2,0,0,1,0,2820.56,0.00674162,0.00645845,-0.487285,2,2.21189,10,-3.14711e-06,-3.31222,-0.954651,-0.0618027,0.00684828,
2,0,0,1,0,2821.36,0.00274612,0.00246779,-0.490661,2,2.21148,10,-1.21085e-06,-3.30922,-0.737313,-0.0800202,0.00286032,
2,0,0,0,0,2821.86,0.000274105,-8.19602e-05,-0.494052,2,2.21123,10,4.04926e-08,-3.30623, , ,0.000313281,