File: Figure_codes/Fig_3-5/workspace_calculate_alpha_eff/20221101_1-115_003_TrumpetPlot_ParaChange_from10_every3_16_CV_C01_100.csv
mode,ox/red,error,control changes,counter inc.,time/s,control/V,Ewe/V,<I>/mA,cycle number,(Q-Qo)/C,I Range,P/W,log(|I|),Tafel slope mV/dec,alpha_eff,E-IR/V,
2,0,0,0,0,66614.4,2.44065e-05,-0.00042076,-0.0962139,101,0.0000000E+000,10,4.0483e-08,-4.01676, , ,-0.000378426,
2,1,0,0,0,66615.2,0.00379485,0.00353562,0.148423,101,8.72168e-05,10,5.24766e-07,-3.8285,0.0296436,1.99031,0.00347031,
2,1,0,1,0,66616,0.00779002,0.00750472,0.171673,101,0.000225962,10,1.28836e-06,-3.7653,0.0752235,0.784329,0.00742918,
2,1,0,0,0,66616.8,0.0117852,0.0114272,0.187568,101,0.000380512,10,2.14337e-06,-3.72684,0.115042,0.512855,0.0113446,
2,1,0,1,0,66617.6,0.0157806,0.0154537,0.203265,101,0.000546725,10,3.1412e-06,-3.69194,0.143477,0.411217,0.0153643,
2,1,0,1,0,66618.4,0.0197754,0.0194298,0.215075,101,0.000723233,10,4.17888e-06,-3.66741,0.151535,0.38935,0.0193352,
2,1,0,1,0,66619.2,0.0237704,0.0234624,0.228935,101,0.000910397,10,5.37137e-06,-3.64029,0.169993,0.347073,0.0233616,
2,1,0,1,0,66620,0.0277659,0.027469,0.242076,101,0.00110752,10,6.64957e-06,-3.61605,0.162585,0.362886,0.0273625,
2,1,0,0,0,66620.8,0.0317611,0.0314582,0.253808,101,0.00131541,10,7.98436e-06,-3.59549,0.185419,0.318199,0.0313466,
2,1,0,1,0,66621.6,0.0357567,0.0354287,0.267737,101,0.00153398,10,9.48557e-06,-3.57229,0.190918,0.309034,0.0353109,
2,1,0,1,0,66622.4,0.0397516,0.0394041,0.282749,101,0.00176333,10,1.11415e-05,-3.5486,0.170319,0.346409,0.0392797,
2,1,0,1,0,66623.2,0.0437465,0.0434375,0.294473,101,0.00200426,10,1.27912e-05,-3.53095,0.211953,0.278364,0.0433079,
2,1,0,1,0,66624,0.0477413,0.047433,0.308196,101,0.00225488,10,1.46186e-05,-3.51117,0.226069,0.260982,0.0472974,
2,1,0,0,0,66624.8,0.0517369,0.0514183,0.319819,101,0.00251513,10,1.64445e-05,-3.4951,0.249076,0.236875,0.0512776,
2,1,0,1,0,66625.6,0.0557321,0.0553927,0.331146,101,0.00278483,10,1.83431e-05,-3.47998,0.30102,0.196,0.055247,
2,1,0,1,0,66626.4,0.0597277,0.0594036,0.341511,101,0.00306278,10,2.0287e-05,-3.4666,0.284386,0.207464,0.0592533,
2,1,0,1,0,66627.2,0.0637226,0.0633829,0.350952,101,0.00334935,10,2.22444e-05,-3.45475,0.401922,0.146795,0.0632284,
2,1,0,1,0,66628,0.0677174,0.0673749,0.360113,101,0.00364393,10,2.42626e-05,-3.44356,0.430689,0.13699,0.0672165,
2,1,0,0,0,66628.8,0.0717128,0.0713804,0.368917,101,0.00394503,10,2.63334e-05,-3.43307,0.366444,0.161007,0.0712181,
2,1,0,1,0,66629.6,0.075708,0.0753675,0.374672,101,0.00425293,10,2.82381e-05,-3.42635,0.463935,0.127173,0.0752027,
2,1,0,0,0,66630.4,0.0797031,0.0793833,0.384885,101,0.00456687,10,3.05535e-05,-3.41467,0.394723,0.149472,0.079214,
2,1,0,1,0,66631.2,0.0836987,0.0834152,0.392571,101,0.00488722,10,3.27464e-05,-3.40608,0.448125,0.13166,0.0832424,
2,1,0,1,0,66632,0.0876935,0.0873861,0.402406,101,0.00521511,10,3.51647e-05,-3.39534,0.314505,0.187597,0.0872091,
2,1,0,1,0,66632.8,0.0916883,0.0913371,0.416151,101,0.00555151,10,3.801e-05,-3.38075,0.251086,0.234979,0.091154,
2,1,0,1,0,66633.6,0.0956838,0.0953647,0.429256,101,0.00589938,10,4.09359e-05,-3.36728,0.240695,0.245124,0.0951758,
2,1,0,0,0,66634.4,0.099679,0.0993391,0.447928,101,0.00626068,10,4.44967e-05,-3.34879,0.255914,0.230546,0.099142,
2,1,0,1,0,66635.2,0.103674,0.103329,0.46879,101,0.00663685,10,4.84398e-05,-3.32902,0.181945,0.324273,0.103123,
2,1,0,1,0,66636,0.10767,0.107365,0.48822,101,0.00702991,10,5.24176e-05,-3.31138,0.237341,0.248588,0.10715,
2,1,0,1,0,66636.7,0.111664,0.111358,0.507152,101,0.00743847,10,5.64752e-05,-3.29486,0.251018,0.235043,0.111134,
2,1,0,1,0,66637.5,0.115659,0.1153,0.522679,101,0.00786066,10,6.02649e-05,-3.28176,0.35911,0.164295,0.11507,
2,1,0,0,0,66638.3,0.119655,0.119374,0.535723,101,0.00829429,10,6.39517e-05,-3.27106,0.584481,0.100944,0.119139,
2,1,0,1,0,66639.1,0.12365,0.123337,0.543216,101,0.00873514,10,6.69987e-05,-3.26503,0.651788,0.0905202,0.123098,
2,1,0,1,0,66639.9,0.127646,0.127341,0.548008,101,0.00918179,10,6.97838e-05,-3.26121,1.85278,0.0318441,0.1271,
2,1,0,1,0,66640.7,0.13164,0.131315,0.548333,101,0.00963112,10,7.20042e-05,-3.26096,-0.758833,-0.077751,0.131073,
2,1,0,1,0,66641.5,0.135635,0.135247,0.536045,101,0.0100754,10,7.24987e-05,-3.2708,-0.277534,-0.212586,0.135012,
2,1,0,0,0,66642.3,0.139631,0.139273,0.506624,101,0.0105038,10,7.05589e-05,-3.29531,-0.122334,-0.482286,0.13905,
2,1,0,1,0,66643.1,0.143626,0.143322,0.46379,101,0.0109026,10,6.64711e-05,-3.33368,-0.0855375,-0.689756,0.143118,
2,1,0,0,0,66643.9,0.147621,0.147285,0.411796,101,0.0112618,10,6.06515e-05,-3.38532,-0.0765805,-0.770431,0.147104,
2,1,0,1,0,66644.7,0.151617,0.151297,0.365711,101,0.0115814,10,5.53311e-05,-3.43686,-0.0827117,-0.713321,0.151136,
2,1,0,1,0,66645.5,0.155612,0.15524,0.332162,101,0.011868,10,5.15648e-05,-3.47865,-0.11611,-0.508141,0.155094,
2,1,0,1,0,66646.3,0.159606,0.159269,0.309527,101,0.0121333,10,4.9298e-05,-3.5093,-0.172033,-0.342957,0.159133,
2,1,0,1,0,66647.1,0.163602,0.163311,0.295535,101,0.0123848,10,4.82641e-05,-3.52939,-0.208215,-0.283361,0.163181,
2,1,0,0,0,66647.9,0.167597,0.167293,0.28677,101,0.0126266,10,4.79747e-05,-3.54247,-0.419884,-0.140515,0.167167,
2,1,0,1,0,66648.7,0.171592,0.17128,0.278987,101,0.0128625,10,4.77849e-05,-3.55442,-0.449724,-0.131192,0.171158,
2,1,0,1,0,66649.5,0.175588,0.175287,0.275193,101,0.0130935,10,4.82377e-05,-3.56036,-0.662389,-0.0890715,0.175166,
2,1,0,1,0,66650.3,0.179582,0.179296,0.271729,101,0.0133212,10,4.87199e-05,-3.56586,-0.779301,-0.0757089,0.179176,
2,1,0,1,0,66651.1,0.183577,0.183256,0.268473,101,0.0135466,10,4.91993e-05,-3.5711,-0.94309,-0.0625603,0.183138,
2,1,0,0,0,66651.9,0.187573,0.187256,0.267233,101,0.0137699,10,5.0041e-05,-3.57311,-0.837713,-0.0704299,0.187139,
2,1,0,1,0,66652.7,0.191568,0.191208,0.264431,101,0.0139914,10,5.05614e-05,-3.57769,-1.99716,-0.0295419,0.191092,
2,1,0,0,0,66653.5,0.195563,0.195244,0.263709,101,0.0142118,10,5.14877e-05,-3.57888,-0.923244,-0.0639051,0.195128,
2,1,0,1,0,66654.3,0.199559,0.199261,0.26246,101,0.0144306,10,5.22982e-05,-3.58094,-15.5451,-0.00379542,0.199146,
2,1,0,1,0,66655.1,0.203553,0.203227,0.260287,101,0.0146485,10,5.28974e-05,-3.58455,-3.40988,-0.0173027,0.203113,
2,1,0,1,0,66655.9,0.207548,0.207271,0.259769,101,0.0148657,10,5.38425e-05,-3.58541,-1.90033,-0.0310472,0.207157,
2,1,0,1,0,66656.7,0.211544,0.211257,0.258368,101,0.0150815,10,5.45819e-05,-3.58776,-1.43208,-0.0411989,0.211143,
2,1,0,0,0,66657.5,0.215539,0.21525,0.257579,101,0.0152966,10,5.54438e-05,-3.58909,-1.6104,-0.0366368,0.215137,
2,1,0,1,0,66658.3,0.219535,0.219222,0.256442,101,0.0155106,10,5.62176e-05,-3.59101,4.53876,0.0129992,0.219109,
2,1,0,1,0,66659.1,0.223529,0.223206,0.255034,101,0.0157241,10,5.69252e-05,-3.5934,-0.878513,-0.0671589,0.223094,
2,1,0,1,0,66659.9,0.227524,0.227202,0.253538,101,0.0159366,10,5.76041e-05,-3.59596,-1.28334,-0.0459738,0.22709,
2,1,0,1,0,66660.7,0.23152,0.231256,0.252841,101,0.0161482,10,5.84709e-05,-3.59715,3.78632,0.0155824,0.231145,
2,1,0,0,0,66661.5,0.235515,0.235167,0.252969,101,0.0163595,10,5.94899e-05,-3.59693,-2.58333,-0.0228387,0.235055,
2,1,0,1,0,66662.3,0.23951,0.23921,0.251429,101,0.0165699,10,6.01443e-05,-3.59958,-2.61871,-0.0225302,0.239099,
2,1,0,1,0,66663.1,0.243506,0.243209,0.251198,101,0.0167797,10,6.10937e-05,-3.59998,14.7871,0.00398997,0.243098,
2,1,0,1,0,66663.9,0.2475,0.247211,0.250935,101,0.0169894,10,6.20339e-05,-3.60044,-4.03206,-0.0146327,0.2471,
2,1,0,1,0,66664.7,0.251495,0.251168,0.250832,101,0.0171984,10,6.3001e-05,-3.60062,-2.8248,-0.0208865,0.251057,
2,1,0,0,0,66665.5,0.255491,0.255188,0.249241,101,0.0174067,10,6.36034e-05,-3.60338,-2.55751,-0.0230693,0.255078,
2,1,0,1,0,66666.3,0.259486,0.259199,0.248455,101,0.0176145,10,6.43992e-05,-3.60475,-1.06586,-0.0553542,0.259089,
2,1,0,0,0,66667.1,0.263481,0.263186,0.24756,101,0.0178212,10,6.51543e-05,-3.60632,2.89925,0.0203501,0.263077,
2,1,0,1,0,66667.9,0.267476,0.267131,0.245591,101,0.0180275,10,6.56049e-05,-3.60979,-2.17942,-0.0270714,0.267023,
2,1,0,1,0,66668.7,0.271471,0.271107,0.245945,101,0.0182331,10,6.66773e-05,-3.60916,-1.92209,-0.0306958,0.270999,
2,1,0,1,0,66669.5,0.275466,0.275194,0.245697,101,0.0184378,10,6.76143e-05,-3.6096,-3.75314,-0.0157202,0.275086,
2,1,0,1,0,66670.3,0.279462,0.279153,0.243997,101,0.0186419,10,6.81125e-05,-3.61262,-1.85667,-0.0317773,0.279046,
2,1,0,0,0,66671.1,0.283457,0.283166,0.243035,101,0.0188451,10,6.88194e-05,-3.61433,-2.37711,-0.02482,0.283059,
2,1,0,1,0,66671.9,0.287452,0.287174,0.242593,101,0.0190474,10,6.96663e-05,-3.61512,-3.36213,-0.0175484,0.287067,
2,1,0,1,0,66672.7,0.291448,0.291131,0.241173,101,0.0192491,10,7.0213e-05,-3.61767,-0.879373,-0.0670933,0.291025,
2,1,0,1,0,66673.5,0.295442,0.295155,0.240329,101,0.0194498,10,7.09343e-05,-3.61919,3.39516,0.0173777,0.295049,
2,1,0,1,0,66674.3,0.299437,0.299162,0.23914,101,0.0196499,10,7.15416e-05,-3.62135,-7.19339,-0.00820198,0.299056,
2,1,0,0,0,66675.1,0.303433,0.30314,0.239144,101,0.0198492,10,7.24941e-05,-3.62134,-2.68885,-0.0219424,0.303034,
2,1,0,1,0,66675.9,0.307428,0.307132,0.238645,101,0.0200479,10,7.32956e-05,-3.62225,-3.99539,-0.014767,0.307027,
2,1,0,1,0,66676.7,0.311424,0.311117,0.238008,101,0.0202463,10,7.40484e-05,-3.62341,-1.17475,-0.0502234,0.311013,
2,1,0,1,0,66677.5,0.315418,0.315118,0.23715,101,0.0204437,10,7.47302e-05,-3.62498,15.8779,0.00371585,0.315014,
2,1,0,1,0,66678.3,0.319413,0.319118,0.236342,101,0.0206407,10,7.54212e-05,-3.62646,-2.29999,-0.0256523,0.319014,
2,1,0,0,0,66679.1,0.323409,0.323094,0.235662,101,0.0208374,10,7.61411e-05,-3.62771,-2.69129,-0.0219226,0.322991,
2,1,0,1,0,66679.9,0.327404,0.327093,0.235302,101,0.0210334,10,7.69655e-05,-3.62838,6.50095,0.0090756,0.32699,
2,1,0,0,0,66680.7,0.331399,0.33105,0.23334,101,0.0212288,10,7.72471e-05,-3.63201,-1.226,-0.0481238,0.330947,
2,1,0,1,0,66681.5,0.335395,0.335084,0.234357,101,0.0214238,10,7.85294e-05,-3.63012,2.07607,0.028419,0.334981,
2,1,0,1,0,66682.3,0.339389,0.339082,0.233086,101,0.0216184,10,7.90353e-05,-3.63248,-2.12788,-0.0277271,0.338979,
2,1,0,1,0,66683.1,0.343384,0.343061,0.23279,101,0.0218127,10,7.98612e-05,-3.63304,-2.25729,-0.0261375,0.342958,
2,1,0,1,0,66683.9,0.34738,0.347062,0.232163,101,0.0220063,10,8.05748e-05,-3.63421,-2.4258,-0.0243219,0.34696,
2,1,0,0,0,66684.7,0.351375,0.351104,0.231462,101,0.0221995,10,8.12672e-05,-3.63552,6.42085,0.00918881,0.351002,
2,1,0,1,0,66685.5,0.35537,0.355074,0.231787,101,0.0223923,10,8.23014e-05,-3.63491,-1.35363,-0.0435864,0.354972,
2,1,0,1,0,66686.3,0.359365,0.35907,0.231352,101,0.0225844,10,8.30714e-05,-3.63573,4.55518,0.0129523,0.358968,
2,1,0,1,0,66687.1,0.36336,0.363084,0.229755,101,0.0227764,10,8.34205e-05,-3.63873,-3.59661,-0.0164043,0.362983,
2,1,0,1,0,66687.9,0.367355,0.367021,0.230225,101,0.0229679,10,8.44975e-05,-3.63785,-7.1507,-0.00825094,0.36692,
2,1,0,0,0,66688.7,0.371351,0.371061,0.230711,101,0.023159,10,8.56078e-05,-3.63693,17.9276,0.00329101,0.370959,
2,1,0,1,0,66689.5,0.375346,0.375073,0.230143,101,0.02335,10,8.63204e-05,-3.638,-2.09227,-0.0281991,0.374972,
2,1,0,1,0,66690.3,0.379342,0.37902,0.229298,101,0.0235403,10,8.69085e-05,-3.6396,-3.05537,-0.0193102,0.378919,
2,1,0,1,0,66691.1,0.383336,0.383034,0.228294,101,0.0237304,10,8.74442e-05,-3.64151,-17.4899,-0.00337337,0.382934,
2,1,0,1,0,66691.9,0.387331,0.387014,0.22831,101,0.0239203,10,8.8359e-05,-3.64148,-3.25646,-0.0181178,0.386914,
2,1,0,0,0,66692.7,0.391327,0.390973,0.228243,101,0.0241103,10,8.9237e-05,-3.6416,9.25857,0.00637248,0.390873,
2,1,0,1,0,66693.5,0.395322,0.39497,0.227448,101,0.0242996,10,8.98352e-05,-3.64312,-1.88604,-0.0312825,0.39487,
2,1,0,0,0,66694.3,0.399317,0.399001,0.227691,101,0.0244886,10,9.08491e-05,-3.64265,2.22264,0.026545,0.398901,
2,1,0,1,0,66695.1,0.403313,0.403007,0.227771,101,0.0246775,10,9.17933e-05,-3.6425,-5.89893,-0.0100018,0.402907,
2,1,0,1,0,66695.9,0.407307,0.406928,0.22692,101,0.024866,10,9.23401e-05,-3.64413,-3.17715,-0.0185701,0.406828,
2,1,0,1,0,66696.7,0.411302,0.411021,0.227407,101,0.0250541,10,9.34689e-05,-3.6432,-11.9124,-0.00495281,0.410921,
2,1,0,1,0,66697.5,0.415298,0.415019,0.225412,101,0.0252423,10,9.35503e-05,-3.64702,34.4967,0.00171031,0.41492,
2,1,0,0,0,66698.3,0.419293,0.419012,0.226281,101,0.0254302,10,9.48144e-05,-3.64535,-1.40426,-0.0420151,0.418913,
2,1,0,1,0,66699.1,0.423288,0.422991,0.226479,101,0.0256178,10,9.57987e-05,-3.64497,2.40973,0.024484,0.422891,
2,1,0,1,0,66699.9,0.427283,0.426999,0.22601,101,0.0258054,10,9.65059e-05,-3.64587,-11.9817,-0.00492419,0.426899,
2,1,0,1,0,66700.7,0.431278,0.430974,0.225972,101,0.0259927,10,9.7388e-05,-3.64595,-8.65374,-0.00681786,0.430874,
2,1,0,1,0,66701.5,0.435273,0.434976,0.226059,101,0.0261797,10,9.83305e-05,-3.64578,-63.8434,-0.000924137,0.434877,
2,1,0,0,0,66702.3,0.439269,0.439002,0.225213,101,0.0263666,10,9.88691e-05,-3.64741,3.5667,0.0165419,0.438903,
2,1,0,1,0,66703.1,0.443264,0.44298,0.225802,101,0.0265534,10,0.000100026,-3.64627,-2.61411,-0.0225698,0.44288,
2,1,0,0,0,66703.9,0.447259,0.44694,0.225232,101,0.02674,10,0.000100665,-3.64737,5.46887,0.0107883,0.446841,
2,1,0,1,0,66704.7,0.451254,0.45095,0.225556,101,0.026927,10,0.000101714,-3.64675,-1.86668,-0.0316069,0.45085,
2,1,0,1,0,66705.5,0.455249,0.454979,0.226375,101,0.0271135,10,0.000102996,-3.64517,1.04982,0.0562001,0.45488,
2,1,0,1,0,66706.3,0.459244,0.458923,0.224776,101,0.0273002,10,0.000103155,-3.64825,-2.55612,-0.0230819,0.458824,
2,1,0,1,0,66707.1,0.46324,0.462958,0.226702,101,0.0274871,10,0.000104953,-3.64454,123.099,0.000479291,0.462858,
2,1,0,0,0,66707.9,0.467235,0.466927,0.226263,101,0.0276739,10,0.000105648,-3.64539,12.4983,0.00472063,0.466827,
2,1,0,1,0,66708.7,0.471231,0.470911,0.226729,101,0.0278611,10,0.000106769,-3.64449,2.6627,0.0221579,0.470811,
2,1,0,1,0,66709.5,0.475225,0.474924,0.227585,101,0.0280486,10,0.000108086,-3.64286,3.16219,0.018658,0.474823,
2,1,0,1,0,66710.3,0.47922,0.478917,0.227654,101,0.0282366,10,0.000109027,-3.64272,3.04914,0.0193497,0.478817,
2,1,0,1,0,66711.1,0.483216,0.482914,0.228323,101,0.0284249,10,0.00011026,-3.64145,15.4467,0.00381959,0.482813,
2,1,0,0,0,66711.9,0.487211,0.486916,0.228592,101,0.0286132,10,0.000111305,-3.64094,2.86415,0.0205995,0.486815,
2,1,0,1,0,66712.7,0.491206,0.490885,0.228626,101,0.0288021,10,0.000112229,-3.64087,-7.99107,-0.00738324,0.490784,
2,1,0,1,0,66713.5,0.495201,0.494897,0.230248,101,0.0289915,10,0.000113949,-3.6378,1.36895,0.0430987,0.494795,
2,1,0,1,0,66714.3,0.499196,0.498908,0.230431,101,0.0291812,10,0.000114964,-3.63746,7.03443,0.00838731,0.498806,
2,1,0,1,0,66715.1,0.503191,0.502925,0.231568,101,0.0293716,10,0.000116461,-3.63532,2.79287,0.0211252,0.502823,
2,1,0,0,0,66715.9,0.507187,0.506875,0.2312,101,0.0295622,10,0.000117189,-3.63601,1.9596,0.0301082,0.506773,
2,1,0,1,0,66716.7,0.511182,0.510887,0.232562,101,0.0297535,10,0.000118813,-3.63346,6.56827,0.00898258,0.510785,
2,1,0,0,0,66717.5,0.515177,0.514843,0.234169,101,0.0299458,10,0.000120561,-3.63047,2.5579,0.0230658,0.51474,
2,1,0,1,0,66718.3,0.519173,0.518876,0.234559,101,0.0301387,10,0.000121707,-3.62975,0.960391,0.0614333,0.518772,
2,1,0,1,0,66719.1,0.523167,0.522863,0.236057,101,0.0303327,10,0.000123425,-3.62698,2.42706,0.0243092,0.522759,
2,1,0,1,0,66719.8,0.527162,0.52685,0.237266,101,0.0305275,10,0.000125003,-3.62477,1.27834,0.0461538,0.526746,
2,1,0,1,0,66720.6,0.531158,0.530839,0.23819,101,0.0307232,10,0.000126441,-3.62308,3.2098,0.0183812,0.530734,
2,1,0,0,0,66721.4,0.535153,0.534875,0.239904,101,0.03092,10,0.000128318,-3.61996,2.02463,0.0291411,0.534769,
2,1,0,1,0,66722.2,0.539148,0.538848,0.241982,101,0.0311177,10,0.000130392,-3.61622,1.19045,0.0495611,0.538741,
2,1,0,1,0,66723,0.543143,0.542861,0.243223,101,0.031317,10,0.000132036,-3.614,1.31528,0.0448573,0.542754,
2,1,0,1,0,66723.8,0.547138,0.546842,0.2449,101,0.0315175,10,0.000133921,-3.61101,1.3532,0.0436002,0.546734,
2,1,0,1,0,66724.6,0.551133,0.550818,0.246595,101,0.0317194,10,0.000135829,-3.60802,0.734205,0.080359,0.55071,
2,1,0,0,0,66725.4,0.555129,0.554803,0.249757,101,0.0319234,10,0.000138566,-3.60248,1.17932,0.0500288,0.554693,
2,1,0,1,0,66726.2,0.559124,0.558826,0.251532,101,0.0321291,10,0.000140563,-3.59941,1.25479,0.0470197,0.558715,
2,1,0,1,0,66727,0.56312,0.562837,0.254387,101,0.0323364,10,0.000143178,-3.59451,0.691253,0.0853523,0.562725,
2,1,0,1,0,66727.8,0.567114,0.566828,0.257258,101,0.032546,10,0.000145821,-3.58963,0.887742,0.0664608,0.566715,
2,1,0,1,0,66728.6,0.571109,0.57081,0.260357,101,0.032758,10,0.000148614,-3.58443,0.674163,0.0875159,0.570696,
2,1,0,0,0,66729.4,0.575105,0.574785,0.262907,101,0.0329725,10,0.000151115,-3.5802,0.600187,0.0983026,0.574669,
2,1,0,1,0,66730.2,0.5791,0.578797,0.267346,101,0.03319,10,0.000154739,-3.57293,0.952869,0.0619182,0.578679,
2,1,0,0,0,66731,0.583095,0.582782,0.271184,101,0.0334103,10,0.000158041,-3.56674,0.511178,0.11542,0.582662,
2,1,0,1,0,66731.8,0.58709,0.586802,0.275858,101,0.0336341,10,0.000161874,-3.55931,0.582741,0.101246,0.586681,
2,1,0,1,0,66732.6,0.591085,0.590817,0.28076,101,0.0338614,10,0.000165878,-3.55166,0.509623,0.115772,0.590694,
2,1,0,1,0,66733.4,0.59508,0.594772,0.285776,101,0.0340927,10,0.000169972,-3.54397,0.424245,0.139071,0.594647,
2,1,0,1,0,66734.2,0.599076,0.598804,0.291752,101,0.0343289,10,0.000174703,-3.53499,0.434104,0.135912,0.598676,
2,1,0,0,0,66735,0.603071,0.602782,0.299647,101,0.03457,10,0.000180622,-3.52339,0.36307,0.162503,0.60265,
2,1,0,1,0,66735.8,0.607066,0.606775,0.306308,101,0.0348172,10,0.00018586,-3.51384,0.363539,0.162293,0.606641,
2,1,0,1,0,66736.6,0.611061,0.610798,0.315655,101,0.035071,10,0.000192802,-3.50079,0.318295,0.185363,0.610659,
2,1,0,1,0,66737.4,0.615056,0.614784,0.325116,101,0.0353322,10,0.000199876,-3.48796,0.253953,0.232327,0.614641,
2,1,0,1,0,66738.2,0.619051,0.618796,0.336278,101,0.0356021,10,0.000208087,-3.4733,0.26005,0.226879,0.618648,
2,1,0,0,0,66739,0.623047,0.622713,0.349809,101,0.0358813,10,0.000217831,-3.45617,0.232681,0.253566,0.622559,
2,1,0,1,0,66739.8,0.627042,0.626765,0.364908,101,0.0361719,10,0.000228711,-3.43782,0.196229,0.300669,0.626605,
2,1,0,1,0,66740.6,0.631038,0.63079,0.382605,101,0.0364759,10,0.000241344,-3.41725,0.204481,0.288535,0.630622,
2,1,0,1,0,66741.4,0.635032,0.634737,0.403453,101,0.0367947,10,0.000256087,-3.39421,0.168937,0.349243,0.63456,
2,1,0,1,0,66742.2,0.639027,0.638751,0.426185,101,0.0371309,10,0.000272226,-3.3704,0.152927,0.385805,0.638563,
2,1,0,1,0,66743,0.643022,0.64271,0.453066,101,0.0374873,10,0.00029119,-3.34384,0.144398,0.408592,0.642511,
2,1,0,1,0,66743.8,0.647018,0.646744,0.484738,101,0.0378668,10,0.000313502,-3.31449,0.127963,0.46107,0.646531,
2,1,0,0,0,66744.6,0.651013,0.65074,0.521566,101,0.0382738,10,0.000339404,-3.28269,0.12096,0.487763,0.65051,
2,1,0,1,0,66745.4,0.655009,0.654701,0.563111,101,0.0387117,10,0.000368669,-3.24941,0.119781,0.492567,0.654453,
2,1,0,1,0,66746.2,0.659003,0.658711,0.610613,101,0.039185,10,0.000402217,-3.21423,0.105166,0.561017,0.658442,
2,1,0,1,0,66747,0.662998,0.662736,0.668037,101,0.0397009,10,0.000442733,-3.1752,0.101235,0.582804,0.662442,
2,1,0,1,0,66747.8,0.666994,0.666702,0.732009,101,0.0402646,10,0.000488032,-3.13548,0.096799,0.609511,0.66638,
2,1,0,0,0,66748.6,0.670989,0.670732,0.806635,101,0.0408839,10,0.000541036,-3.09332,0.0923699,0.638736,0.670377,
2,1,0,1,0,66749.4,0.674984,0.674713,0.890922,101,0.0415664,10,0.000601117,-3.05016,0.0903304,0.653158,0.674321,
2,1,0,1,0,66750.2,0.678979,0.678716,0.985899,101,0.0423208,10,0.000669145,-3.00617,0.08871,0.665089,0.678282,
2,1,0,1,0,66751,0.682974,0.682693,1.09247,101,0.0431559,10,0.00074582,-2.96159,0.0885029,0.666645,0.682212,
2,1,0,1,0,66751.8,0.686969,0.686723,1.21249,101,0.0440814,10,0.000832647,-2.91632,0.0865463,0.681716,0.68619,
2,1,0,0,0,66752.6,0.690965,0.690692,1.34612,101,0.0451085,10,0.000929754,-2.87092,0.0867212,0.680341,0.690099,
2,1,0,1,0,66753.4,0.69496,0.694723,1.49425,101,0.0462476,10,0.00103809,-2.82558,0.0887406,0.664859,0.694066,
2,1,0,0,0,66754.2,0.698955,0.69867,1.65515,101,0.0475095,10,0.0011564,-2.78116,0.0878834,0.671344,0.697942,
2,1,0,1,0,66755,0.70295,0.702693,1.83036,101,0.0489065,10,0.00128618,-2.73746,0.0886084,0.665851,0.701888,
2,1,0,1,0,66755.8,0.706945,0.706653,2.022,101,0.0504504,10,0.00142885,-2.69422,0.0928386,0.635512,0.705763,
2,1,0,1,0,66756.6,0.71094,0.71068,2.22755,101,0.0521522,10,0.00158308,-2.65217,0.0943153,0.625561,0.7097,
2,1,0,1,0,66757.4,0.714936,0.714665,2.4481,101,0.0540248,10,0.00174957,-2.61117,0.0967625,0.609741,0.713588,
2,1,0,0,0,66758.2,0.718931,0.718661,2.68335,101,0.0560789,10,0.00192842,-2.57132,0.0981655,0.601026,0.71748,
2,1,0,1,0,66759,0.722926,0.72267,2.93412,101,0.0583282,10,0.0021204,-2.53252,0.101432,0.58167,0.721379,
2,1,0,1,0,66759.8,0.726921,0.726648,3.19955,101,0.0607827,10,0.00232495,-2.49491,0.104153,0.566476,0.72524,
2,1,0,1,0,66760.6,0.730916,0.730636,3.48236,101,0.0634566,10,0.00254434,-2.45813,0.10695,0.55166,0.729104,
2,1,0,1,0,66761.4,0.734911,0.734629,3.78099,101,0.0663629,10,0.00277763,-2.42239,0.10985,0.537098,0.732966,
2,1,0,0,0,66762.2,0.738907,0.738674,4.09684,101,0.069515,10,0.00302623,-2.38755,0.111704,0.528182,0.736871,
2,1,0,1,0,66763,0.742902,0.742646,4.42972,101,0.0729254,10,0.00328971,-2.35362,0.114392,0.515772,0.740697,
2,1,0,1,0,66763.8,0.746897,0.746639,4.78119,101,0.0766097,10,0.00356982,-2.32046,0.117688,0.501326,0.744536,
2,1,0,1,0,66764.6,0.750892,0.750629,5.15153,101,0.0805819,10,0.00386689,-2.28806,0.11997,0.491791,0.748363,
2,1,0,1,0,66765.4,0.754887,0.754583,5.54058,101,0.0848581,10,0.00418083,-2.25644,0.120371,0.490152,0.752145,
2,1,0,0,0,66766.2,0.758883,0.758595,5.95405,101,0.0894554,10,0.00451671,-2.22519,0.123568,0.477468,0.755975,
2,1,0,1,0,66767,0.762878,0.76264,6.38894,101,0.09439,10,0.00487247,-2.19457,0.12571,0.469333,0.759829,
2,1,0,0,0,66767.8,0.766873,0.766591,6.84583,101,0.0996815,10,0.00524795,-2.16457,0.127641,0.462234,0.763579,
2,1,0,1,0,66768.6,0.770868,0.770623,7.32982,101,0.10535,10,0.00564853,-2.13491,0.127599,0.462387,0.767398,
2,1,0,1,0,66769.4,0.774863,0.774602,7.83876,101,0.111413,10,0.00607192,-2.10575,0.128979,0.457439,0.771153,
2,1,0,1,0,66770.2,0.778858,0.778594,8.37695,101,0.117896,10,0.00652224,-2.07691,0.131099,0.450041,0.774908,
2,1,0,1,0,66771,0.782854,0.7826,8.94507,101,0.12482,10,0.00700042,-2.04842,0.132096,0.446646,0.778665,
2,1,0,0,0,66771.8,0.786849,0.786571,9.54676,101,0.132212,10,0.00750921,-2.02014,0.135919,0.434082,0.782371,
2,1,0,1,0,66772.6,0.790844,0.790586,10.1707,101,0.140091,10,0.00804084,-1.99265,0.13216,0.446427,0.786111,
2,1,0,1,0,66773.4,0.794839,0.794566,10.848,101,0.148491,10,0.00861945,-1.96465,0.130457,0.452255,0.789793,
2,1,0,1,0,66774.2,0.798834,0.798603,11.5747,101,0.157453,10,0.00924359,-1.93649,0.129467,0.455714,0.79351,
2,1,0,1,0,66775,0.802829,0.802589,12.3524,101,0.167015,10,0.00991389,-1.90825,0.130043,0.453695,0.797154,
2,1,0,0,0,66775.8,0.806825,0.806553,13.1738,101,0.177218,10,0.0106254,-1.88029,0.131576,0.448409,0.800756,
2,1,0,1,0,66776.6,0.81082,0.810522,14.0337,101,0.188092,10,0.0113746,-1.85283,0.132861,0.444072,0.804347,
2,1,0,1,0,66777.4,0.814815,0.814531,14.9438,101,0.199671,10,0.0121722,-1.82554,0.129774,0.454635,0.807956,
2,1,0,1,0,66778.2,0.81881,0.818511,15.9041,101,0.212,10,0.0130177,-1.79849,0.134515,0.438614,0.811513,
2,1,0,1,0,66779,0.822805,0.822566,16.9165,101,0.225113,10,0.0139149,-1.77169,0.134078,0.440044,0.815122,
2,1,0,0,0,66779.8,0.826801,0.826538,17.9846,101,0.23906,10,0.014865,-1.7451,0.132029,0.446872,0.818625,
2,1,0,1,0,66780.6,0.830796,0.830538,19.0751,101,0.253875,10,0.0158426,-1.71953,0.13847,0.426084,0.822145,
2,1,0,0,0,66781.4,0.834791,0.834545,20.1913,101,0.269573,10,0.0168506,-1.69483,0.146101,0.403831,0.825661,
2,1,0,1,0,66782.2,0.838786,0.838537,21.3108,101,0.286162,10,0.0178699,-1.6714,0.150648,0.391643,0.82916,
2,1,0,1,0,66783,0.842781,0.84254,22.4805,101,0.303662,10,0.0189407,-1.64819,0.15246,0.386986,0.832648,
2,1,0,1,0,66783.8,0.846776,0.846578,23.6716,101,0.322109,10,0.0200398,-1.62577,0.159978,0.3688,0.836162,
2,1,0,0,0,66784.5,0.849723,0.849492,24.4695,101,0.339027,10,0.0207866,-1.61137,0.0545861,1.08086,0.838725,
2,1,0,1,0,66785.3,0.845728,0.845544,22.7047,101,0.357822,10,0.0191978,-1.64388,0.111135,0.530884,0.835554,
2,1,0,0,0,66786.1,0.841733,0.841506,21.2539,101,0.375367,10,0.0178853,-1.67256,0.115845,0.509301,0.832154,
2,1,0,1,0,66786.9,0.837737,0.837472,19.875,101,0.391786,10,0.0166447,-1.70169,0.120467,0.489759,0.828727,
2,1,0,1,0,66787.7,0.833742,0.833512,18.6159,101,0.407149,10,0.0155166,-1.73012,0.119959,0.491834,0.825321,
2,1,0,1,0,66788.5,0.829747,0.829499,17.4339,101,0.421536,10,0.0144614,-1.75861,0.125205,0.471226,0.821828,
2,1,0,1,0,66789.3,0.825752,0.825499,16.3375,101,0.435016,10,0.0134866,-1.78681,0.123867,0.476319,0.818311,
2,1,0,0,0,66790.1,0.821757,0.821521,15.286,101,0.447638,10,0.0125578,-1.81571,0.121996,0.483623,0.814795,
2,1,0,1,0,66790.9,0.817761,0.817503,14.2818,101,0.45944,10,0.0116754,-1.84522,0.120801,0.488406,0.811219,
2,1,0,1,0,66791.7,0.813766,0.813472,13.3479,101,0.470468,10,0.0108582,-1.87459,0.12189,0.484042,0.807599,
2,1,0,1,0,66792.5,0.809771,0.809496,12.4647,101,0.480769,10,0.0100901,-1.90432,0.120406,0.49001,0.804011,
2,1,0,1,0,66793.3,0.805776,0.805514,11.6332,101,0.490385,10,0.0093707,-1.9343,0.121639,0.485042,0.800395,
2,1,0,0,0,66794.1,0.801781,0.80152,10.8526,101,0.49936,10,0.00869854,-1.96447,0.122243,0.482645,0.796745,
2,1,0,1,0,66794.9,0.797786,0.797524,10.1187,101,0.507729,10,0.00806992,-1.99487,0.117858,0.500604,0.793072,
2,1,0,1,0,66795.7,0.79379,0.793523,9.42053,101,0.515527,10,0.00747541,-2.02592,0.119705,0.492878,0.789378,
2,1,0,1,0,66796.5,0.789795,0.789556,8.77128,101,0.522786,10,0.00692541,-2.05694,0.118877,0.496311,0.785696,
2,1,0,1,0,66797.3,0.7858,0.785512,8.16115,101,0.529541,10,0.00641068,-2.08825,0.119882,0.492149,0.781921,
2,1,0,0,0,66798.1,0.781805,0.78153,7.59059,101,0.535827,10,0.00593228,-2.11972,0.118628,0.497355,0.778191,
2,1,0,1,0,66798.9,0.77781,0.777593,7.04957,101,0.541668,10,0.0054817,-2.15184,0.116641,0.505828,0.774491,
2,1,0,0,0,66799.7,0.773815,0.773499,6.53583,101,0.547088,10,0.00505546,-2.1847,0.1126,0.52398,0.770623,
2,1,0,1,0,66800.5,0.769819,0.769521,6.05918,101,0.552113,10,0.00466266,-2.21759,0.115008,0.513007,0.766855,
2,1,0,1,0,66801.3,0.765824,0.765553,5.6128,101,0.556769,10,0.0042969,-2.25082,0.113817,0.518375,0.763084,
2,1,0,1,0,66802.1,0.761829,0.761527,5.19585,101,0.56108,10,0.00395678,-2.28434,0.112674,0.523636,0.759241,
2,1,0,1,0,66802.8,0.757834,0.757548,4.80127,101,0.565067,10,0.0036372,-2.31864,0.109914,0.536785,0.755436,
2,1,0,0,0,66803.6,0.753839,0.753546,4.43011,101,0.568747,10,0.0033383,-2.35359,0.109887,0.536917,0.751597,
2,1,0,1,0,66804.4,0.749843,0.749585,4.08193,101,0.572141,10,0.00305976,-2.38913,0.107099,0.55089,0.747789,
2,1,0,1,0,66805.2,0.745848,0.745624,3.75338,101,0.575264,10,0.00279861,-2.42558,0.103962,0.567513,0.743972,
2,1,0,1,0,66806,0.741853,0.741587,3.44381,101,0.578133,10,0.00255388,-2.46296,0.101847,0.579299,0.740072,
2,1,0,1,0,66806.8,0.737858,0.737615,3.15165,101,0.580761,10,0.0023247,-2.50146,0.0994796,0.593086,0.736228,
2,1,0,0,0,66807.6,0.733863,0.733609,2.88031,101,0.583164,10,0.00211302,-2.54056,0.0976939,0.603927,0.732341,
2,1,0,1,0,66808.4,0.729868,0.72966,2.62112,101,0.585356,10,0.00191253,-2.58151,0.0943824,0.625117,0.728506,
2,1,0,1,0,66809.2,0.725872,0.725566,2.37938,101,0.587347,10,0.00172639,-2.62354,0.0900247,0.655376,0.724519,
2,1,0,1,0,66810,0.721877,0.721621,2.15033,101,0.589151,10,0.00155172,-2.66749,0.0878555,0.671557,0.720675,
2,1,0,1,0,66810.8,0.717882,0.717615,1.93643,101,0.590777,10,0.00138961,-2.713,0.08374,0.704561,0.716762,
2,1,0,0,0,66811.6,0.713887,0.713644,1.73723,101,0.592239,10,0.00123977,-2.76014,0.080116,0.736432,0.71288,
2,1,0,1,0,66812.4,0.709892,0.70965,1.55066,101,0.593546,10,0.00110042,-2.80948,0.0786792,0.749881,0.708967,
2,1,0,0,0,66813.2,0.705897,0.705647,1.37756,101,0.59471,10,0.000972073,-2.86089,0.0749047,0.787667,0.705041,
2,1,0,1,0,66814,0.701901,0.701619,1.21585,101,0.59574,10,0.000853062,-2.91512,0.0694208,0.849889,0.701084,
2,1,0,1,0,66814.8,0.697906,0.697604,1.06785,101,0.596646,10,0.000744935,-2.97149,0.0694526,0.8495,0.697135,
2,1,0,1,0,66815.6,0.693911,0.693647,0.932169,101,0.59744,10,0.000646597,-3.03051,0.0643976,0.916184,0.693237,
2,1,0,1,0,66816.4,0.689916,0.689618,0.807035,101,0.598128,10,0.000556546,-3.09311,0.060832,0.969885,0.689262,
2,1,0,0,0,66817.2,0.685921,0.685693,0.693498,101,0.598722,10,0.000475526,-3.15895,0.0589314,1.00116,0.685388,
2,1,0,1,0,66818,0.681926,0.681645,0.589952,101,0.599228,10,0.000402138,-3.22918,0.0553162,1.0666,0.681386,
2,1,0,1,0,66818.8,0.67793,0.677659,0.498516,101,0.599657,10,0.000337824,-3.30232,0.0518522,1.13785,0.67744,
2,1,0,1,0,66819.6,0.673935,0.673625,0.416348,101,0.600017,10,0.000280463,-3.38054,0.0488408,1.20801,0.673441,
2,1,0,1,0,66820.4,0.66994,0.669617,0.342573,101,0.600314,10,0.000229393,-3.46525,0.0447963,1.31707,0.669467,
2,1,0,0,0,66821.2,0.665945,0.665628,0.277736,101,0.600556,10,0.000184869,-3.55637,0.0428195,1.37788,0.665506,
2,1,0,1,0,66822,0.66195,0.661689,0.221584,101,0.60075,10,0.00014662,-3.65446,0.0376532,1.56693,0.661591,
2,1,0,0,0,66822.8,0.657955,0.657657,0.172115,101,0.600902,10,0.000113192,-3.76418,0.0337767,1.74677,0.657581,
2,1,0,1,0,66823.6,0.653959,0.653635,0.128258,101,0.601017,10,8.38341e-05,-3.89191,0.0293251,2.01193,0.653578,
2,1,0,1,0,66824.4,0.649964,0.649688,0.0924916,101,0.601099,10,6.00907e-05,-4.0339,0.0248565,2.37362,0.649647,
2,1,0,1,0,66825.2,0.645969,0.645672,0.0610225,101,0.601155,10,3.94005e-05,-4.21451,0.0192878,3.05893,0.645645,
2,1,0,1,0,66826,0.641974,0.641691,0.0344406,101,0.601187,10,2.21002e-05,-4.46293,0.0117396,5.02573,0.641676,
2,1,0,0,0,66826.8,0.637979,0.637675,0.0111283,101,0.601199,10,7.09622e-06,-4.95357,0.00301292,19.5823,0.63767,
2,0,0,1,0,66827.6,0.633983,0.633738,-0.00851872,101,0.601194,10,-5.39864e-06,-5.06963,-0.00340653,-17.3197,0.633742,
2,0,0,1,0,66828.4,0.629988,0.629689,-0.0240383,101,0.601176,10,-1.51367e-05,-4.6191,-0.0142177,-4.14977,0.629699,
2,0,0,1,0,66829.2,0.625993,0.625721,-0.0377696,101,0.601146,10,-2.36332e-05,-4.42286,-0.0294539,-2.00313,0.625738,
2,0,0,1,0,66830,0.621998,0.621713,-0.048828,101,0.601106,10,-3.0357e-05,-4.31133,-0.0419687,-1.40581,0.621735,
2,0,0,0,0,66830.8,0.618003,0.617728,-0.0576221,101,0.601058,10,-3.55948e-05,-4.23941,-0.0548154,-1.07634,0.617754,
2,0,0,1,0,66831.6,0.614008,0.613701,-0.0671979,101,0.601003,10,-4.12394e-05,-4.17264,-0.0943634,-0.625242,0.61373,
2,0,0,1,0,66832.4,0.610012,0.609657,-0.0736974,101,0.600941,10,-4.49302e-05,-4.13255,-0.103327,-0.571003,0.60969,
2,0,0,1,0,66833.2,0.606017,0.605733,-0.0782737,101,0.600874,10,-4.7413e-05,-4.10638,-0.126879,-0.465011,0.605767,
2,0,0,1,0,66834,0.602022,0.601703,-0.0848551,101,0.600803,10,-5.10575e-05,-4.07132,-0.189254,-0.311751,0.60174,
2,0,0,0,0,66834.8,0.598027,0.597717,-0.0888951,101,0.600728,10,-5.31342e-05,-4.05112,-0.180648,-0.326602,0.597757,
2,0,0,1,0,66835.6,0.594032,0.593746,-0.0923874,101,0.60065,10,-5.48547e-05,-4.03439,-0.270549,-0.218075,0.593787,
2,0,0,0,0,66836.4,0.590037,0.589747,-0.0959386,101,0.600569,10,-5.65795e-05,-4.01801,-0.225904,-0.261173,0.58979,
2,0,0,1,0,66837.2,0.586041,0.585694,-0.0986407,101,0.600486,10,-5.77733e-05,-4.00594,-0.389785,-0.151366,0.585738,
2,0,0,1,0,66838,0.582046,0.581755,-0.100966,101,0.600401,10,-5.87376e-05,-3.99582,-0.612348,-0.0963504,0.5818,
2,0,0,1,0,66838.8,0.578051,0.577772,-0.102874,101,0.600314,10,-5.94379e-05,-3.98769,-0.421369,-0.14002,0.577817,
2,0,0,1,0,66839.6,0.574056,0.573801,-0.104537,101,0.600225,10,-5.99833e-05,-3.98073,-0.499616,-0.118091,0.573847,
2,0,0,0,0,66840.4,0.570061,0.569796,-0.106021,101,0.600135,10,-6.04102e-05,-3.97461,-0.666453,-0.0885284,0.569842,
2,0,0,1,0,66841.2,0.566065,0.565787,-0.108052,101,0.600043,10,-6.11345e-05,-3.96637,-0.553949,-0.106508,0.565835,
2,0,0,1,0,66842,0.56207,0.561757,-0.109295,101,0.599951,10,-6.13974e-05,-3.9614,-0.787837,-0.0748886,0.561805,
2,0,0,1,0,66842.8,0.558075,0.557736,-0.110637,101,0.599857,10,-6.17064e-05,-3.9561,-1.6452,-0.0358619,0.557785,
2,0,0,1,0,66843.6,0.55408,0.553778,-0.112074,101,0.599762,10,-6.20644e-05,-3.95049,-0.631049,-0.0934951,0.553827,
2,0,0,0,0,66844.4,0.550085,0.549784,-0.113204,101,0.599667,10,-6.22378e-05,-3.94614,-1.9287,-0.0305906,0.549834,
2,0,0,1,0,66845.2,0.54609,0.545816,-0.113594,101,0.59957,10,-6.20016e-05,-3.94464,-0.699352,-0.0843638,0.545866,
2,0,0,1,0,66846,0.542094,0.541847,-0.114223,101,0.599473,10,-6.18917e-05,-3.94224,-0.645669,-0.0913781,0.541897,
2,0,0,1,0,66846.8,0.538099,0.537811,-0.116273,101,0.599375,10,-6.2533e-05,-3.93452,4.31561,0.0136713,0.537862,
2,0,0,1,0,66847.6,0.534104,0.53379,-0.117544,101,0.599276,10,-6.27435e-05,-3.9298,-0.516318,-0.114271,0.533842,
2,0,0,0,0,66848.4,0.530109,0.529847,-0.117584,101,0.599176,10,-6.23017e-05,-3.92965,-1.02748,-0.057422,0.529899,
2,0,0,1,0,66849.2,0.526114,0.525779,-0.119251,101,0.599075,10,-6.26997e-05,-3.92354,-2.22589,-0.0265063,0.525832,
2,0,0,0,0,66850,0.522119,0.521869,-0.11989,101,0.598974,10,-6.25668e-05,-3.92122,-1.76501,-0.0334275,0.521921,
2,0,0,1,0,66850.8,0.518123,0.517813,-0.120967,101,0.598872,10,-6.26385e-05,-3.91733,-1.01374,-0.0582006,0.517867,
2,0,0,1,0,66851.6,0.514128,0.513834,-0.121384,101,0.598769,10,-6.23715e-05,-3.91584,-1.12234,-0.0525689,0.513887,
2,0,0,1,0,66852.4,0.510134,0.509849,-0.122388,101,0.598665,10,-6.23994e-05,-3.91226,-1.34402,-0.043898,0.509903,
2,0,0,1,0,66853.2,0.506138,0.505847,-0.123624,101,0.598561,10,-6.25346e-05,-3.9079,-1.14595,-0.0514857,0.505901,
2,0,0,0,0,66854,0.502143,0.501825,-0.124725,101,0.598455,10,-6.25901e-05,-3.90405,-0.506305,-0.11653,0.50188,
2,0,0,1,0,66854.8,0.498148,0.497807,-0.125835,101,0.598349,10,-6.26414e-05,-3.9002,8.37439,0.00704529,0.497862,
2,0,0,1,0,66855.6,0.494152,0.493854,-0.12707,101,0.598242,10,-6.27541e-05,-3.89596,-0.91296,-0.064625,0.49391,
2,0,0,1,0,66856.4,0.490157,0.489858,-0.127431,101,0.598134,10,-6.24232e-05,-3.89472,-1.19056,-0.0495567,0.489914,
2,0,0,1,0,66857.2,0.486162,0.485859,-0.129161,101,0.598025,10,-6.27538e-05,-3.88887,-0.857454,-0.0688084,0.485915,
2,0,0,0,0,66858,0.482167,0.481822,-0.130567,101,0.597915,10,-6.29101e-05,-3.88417,-0.936437,-0.0630048,0.48188,
2,0,0,1,0,66858.8,0.478172,0.477864,-0.131091,101,0.597804,10,-6.26437e-05,-3.88243,-1.77038,-0.0333263,0.477922,
2,0,0,0,0,66859.6,0.474177,0.473821,-0.133583,101,0.597692,10,-6.32942e-05,-3.87425,-0.579261,-0.101854,0.473879,
2,0,0,1,0,66860.4,0.470181,0.46986,-0.134854,101,0.597579,10,-6.33627e-05,-3.87013,-0.783416,-0.0753112,0.469919,
2,0,0,1,0,66861.2,0.466186,0.465893,-0.136045,101,0.597464,10,-6.33826e-05,-3.86632,-1.30604,-0.0451748,0.465953,
2,0,0,1,0,66862,0.462191,0.461887,-0.137625,101,0.597349,10,-6.3567e-05,-3.8613,-0.692961,-0.0851419,0.461948,
2,0,0,1,0,66862.8,0.458196,0.45789,-0.138587,101,0.597232,10,-6.34574e-05,-3.85828,-0.968086,-0.060945,0.457951,
2,0,0,0,0,66863.6,0.454201,0.453882,-0.140623,101,0.597114,10,-6.38261e-05,-3.85194,-0.875635,-0.0673796,0.453944,
2,0,0,1,0,66864.4,0.450205,0.449903,-0.141793,101,0.596994,10,-6.37931e-05,-3.84834,-0.774863,-0.0761425,0.449965,
2,0,0,1,0,66865.2,0.44621,0.445938,-0.143176,101,0.596874,10,-6.38475e-05,-3.84413,-1.16071,-0.050831,0.446001,
2,0,0,1,0,66866,0.442215,0.441906,-0.144926,101,0.596752,10,-6.40437e-05,-3.83885,-0.995619,-0.0592596,0.44197,
2,0,0,1,0,66866.8,0.43822,0.437953,-0.14669,101,0.596629,10,-6.42434e-05,-3.8336,-0.61321,-0.096215,0.438018,
2,0,0,0,0,66867.6,0.434225,0.433932,-0.148187,101,0.596504,10,-6.43033e-05,-3.82919,-0.604612,-0.0975833,0.433998,
2,0,0,1,0,66868.4,0.43023,0.429914,-0.149657,101,0.596378,10,-6.43396e-05,-3.8249,-0.948828,-0.062182,0.42998,
2,0,0,1,0,66869.2,0.426234,0.425923,-0.151839,101,0.596251,10,-6.46718e-05,-3.81862,-0.570157,-0.10348,0.42599,
2,0,0,1,0,66870,0.422239,0.421898,-0.153558,101,0.596122,10,-6.47859e-05,-3.81373,-5.04717,-0.0116897,0.421965,
2,0,0,1,0,66870.8,0.418244,0.417968,-0.155644,101,0.595992,10,-6.50543e-05,-3.80787,-0.704261,-0.0837758,0.418037,
2,0,0,0,0,66871.6,0.414249,0.413989,-0.156597,101,0.59586,10,-6.48295e-05,-3.80522,-0.600858,-0.0981929,0.414058,
2,0,0,1,0,66872.4,0.410254,0.409944,-0.159558,101,0.595726,10,-6.54098e-05,-3.79708,-0.725452,-0.0813286,0.410014,
2,0,0,0,0,66873.2,0.406259,0.405933,-0.161446,101,0.595591,10,-6.55362e-05,-3.79197,-0.666922,-0.0884662,0.406004,
2,0,0,1,0,66874,0.402263,0.401987,-0.163124,101,0.595453,10,-6.55739e-05,-3.78748,-0.710718,-0.0830147,0.402059,
2,0,0,1,0,66874.8,0.398268,0.397978,-0.165907,101,0.595315,10,-6.60273e-05,-3.78014,-0.821067,-0.0718578,0.398051,
2,0,0,1,0,66875.6,0.394274,0.393944,-0.168061,101,0.595175,10,-6.62064e-05,-3.77453,-0.80186,-0.0735789,0.394018,
2,0,0,1,0,66876.4,0.390278,0.389957,-0.169072,101,0.595033,10,-6.59308e-05,-3.77193,-0.849399,-0.0694609,0.390032,
2,0,0,0,0,66877.2,0.386283,0.385986,-0.171325,101,0.59489,10,-6.61289e-05,-3.76618,-0.671811,-0.0878223,0.386061,
2,0,0,1,0,66878,0.382287,0.382003,-0.17286,101,0.594745,10,-6.60329e-05,-3.76231,-0.954489,-0.0618132,0.382079,
2,0,0,1,0,66878.8,0.378292,0.377984,-0.1748,101,0.594598,10,-6.60714e-05,-3.75746,-1.50791,-0.0391269,0.378061,
2,0,0,1,0,66879.6,0.374297,0.373992,-0.176587,101,0.59445,10,-6.60421e-05,-3.75304,-0.544833,-0.10829,0.37407,
2,0,0,1,0,66880.4,0.370302,0.369994,-0.178965,101,0.594299,10,-6.62159e-05,-3.74723,-0.907475,-0.0650155,0.370072,
2,0,0,0,0,66881.2,0.366307,0.36599,-0.180859,101,0.594148,10,-6.61926e-05,-3.74266,-0.589542,-0.100078,0.36607,
2,0,0,1,0,66882,0.362312,0.361988,-0.182689,101,0.593994,10,-6.61313e-05,-3.73829,-0.881907,-0.0669005,0.362068,
2,0,0,1,0,66882.8,0.358316,0.357997,-0.185554,101,0.593839,10,-6.64278e-05,-3.73153,-0.941046,-0.0626962,0.358079,
2,0,0,1,0,66883.6,0.354321,0.353996,-0.187909,101,0.593682,10,-6.6519e-05,-3.72605,-0.75506,-0.0781395,0.354078,
2,0,0,1,0,66884.4,0.350327,0.349999,-0.189457,101,0.593523,10,-6.63098e-05,-3.72249,-0.689873,-0.085523,0.350083,
2,0,0,0,0,66885.2,0.346331,0.345975,-0.19258,101,0.593362,10,-6.66279e-05,-3.71539,-1.2095,-0.0487803,0.34606,
2,0,0,1,0,66885.9,0.342336,0.342005,-0.194469,101,0.593199,10,-6.65093e-05,-3.71115,-0.847904,-0.0695833,0.34209,
2,0,0,0,0,66886.7,0.338341,0.338016,-0.196983,101,0.593035,10,-6.65835e-05,-3.70557,-0.595457,-0.0990836,0.338103,
2,0,0,1,0,66887.5,0.334345,0.334006,-0.199306,101,0.592869,10,-6.65694e-05,-3.70048,-0.713009,-0.0827479,0.334093,
2,0,0,1,0,66888.3,0.33035,0.330028,-0.200902,101,0.5927,10,-6.63034e-05,-3.69702,-1.18976,-0.0495899,0.330117,
2,0,0,1,0,66889.1,0.326355,0.326038,-0.203985,101,0.59253,10,-6.65068e-05,-3.6904,-0.828803,-0.071187,0.326127,
2,0,0,1,0,66889.9,0.32236,0.322068,-0.206087,101,0.592358,10,-6.6374e-05,-3.68595,-0.580278,-0.101675,0.322159,
2,0,0,0,0,66890.7,0.318365,0.318065,-0.207927,101,0.592183,10,-6.61344e-05,-3.68209,-0.986678,-0.0597966,0.318156,
2,0,0,1,0,66891.5,0.31437,0.31404,-0.210438,101,0.592007,10,-6.60857e-05,-3.67688,-0.838117,-0.0703959,0.314132,
2,0,0,1,0,66892.3,0.310374,0.310025,-0.213856,101,0.591829,10,-6.63005e-05,-3.66988,-0.672102,-0.0877842,0.310119,
2,0,0,1,0,66893.1,0.306379,0.306027,-0.215783,101,0.591649,10,-6.60354e-05,-3.66598,-1.79323,-0.0329015,0.306122,
2,0,0,1,0,66893.9,0.302385,0.302097,-0.218832,101,0.591467,10,-6.61085e-05,-3.65989,-0.474517,-0.124337,0.302193,
2,0,0,0,0,66894.7,0.298389,0.298105,-0.22076,101,0.591283,10,-6.58096e-05,-3.65608,-0.879506,-0.0670831,0.298202,
2,0,0,1,0,66895.5,0.294394,0.294072,-0.223304,101,0.591096,10,-6.56675e-05,-3.6511,-0.934885,-0.0631094,0.29417,
2,0,0,1,0,66896.3,0.290398,0.290084,-0.226116,101,0.590908,10,-6.55926e-05,-3.64567,-0.912208,-0.0646782,0.290183,
2,0,0,1,0,66897.1,0.286403,0.286079,-0.227603,101,0.590718,10,-6.51124e-05,-3.64282,-0.849078,-0.0694871,0.286179,
2,0,0,1,0,66897.9,0.282408,0.282089,-0.23111,101,0.590525,10,-6.51935e-05,-3.63618,-1.37895,-0.0427862,0.28219,
2,0,0,1,0,66898.7,0.278414,0.27814,-0.233198,101,0.590331,10,-6.48617e-05,-3.63227,-0.539582,-0.109344,0.278243,
2,0,0,1,0,66899.5,0.274418,0.274083,-0.236204,101,0.590134,10,-6.47397e-05,-3.62671,-0.861512,-0.0684842,0.274187,
2,0,0,0,0,66900.3,0.270423,0.270096,-0.238972,101,0.589935,10,-6.45455e-05,-3.62165,-0.710933,-0.0829896,0.270201,
2,0,0,1,0,66901.1,0.266427,0.266117,-0.240679,101,0.589735,10,-6.40487e-05,-3.61856,-1.30228,-0.045305,0.266223,
2,0,0,1,0,66901.9,0.262432,0.262103,-0.244138,101,0.589532,10,-6.39893e-05,-3.61236,-0.85485,-0.069018,0.26221,
2,0,0,1,0,66902.7,0.258437,0.258105,-0.246516,101,0.589327,10,-6.3627e-05,-3.60815,-0.854669,-0.0690326,0.258213,
2,0,0,1,0,66903.5,0.254442,0.254164,-0.247317,101,0.58912,10,-6.2859e-05,-3.60675,-1.13773,-0.0518576,0.254273,
2,0,0,0,0,66904.3,0.250447,0.25015,-0.251362,101,0.588912,10,-6.28781e-05,-3.5997,-1.4287,-0.0412963,0.250261,
2,0,0,1,0,66905.1,0.246452,0.24613,-0.252557,101,0.588701,10,-6.2162e-05,-3.59764,-0.67743,-0.0870939,0.246241,
2,0,0,1,0,66905.9,0.242456,0.242167,-0.256053,101,0.588489,10,-6.20076e-05,-3.59167,-1.49317,-0.0395133,0.24228,
2,0,0,1,0,66906.7,0.238461,0.238162,-0.258474,101,0.588274,10,-6.15587e-05,-3.58758,-0.682827,-0.0864055,0.238276,
2,0,0,1,0,66907.5,0.234466,0.23415,-0.260849,101,0.588058,10,-6.10779e-05,-3.58361,-0.999253,-0.0590441,0.234265,
2,0,0,0,0,66908.3,0.230471,0.230187,-0.263446,101,0.58784,10,-6.06418e-05,-3.57931,-1.27817,-0.0461598,0.230303,
2,0,0,1,0,66909.1,0.226476,0.226122,-0.266249,101,0.58762,10,-6.02049e-05,-3.57471,-0.847202,-0.069641,0.226239,
2,0,0,0,0,66909.9,0.222481,0.22217,-0.26703,101,0.587398,10,-5.9326e-05,-3.57344,-1.50466,-0.0392116,0.222288,
2,0,0,1,0,66910.7,0.218485,0.218158,-0.269551,101,0.587174,10,-5.88047e-05,-3.56936,-1.31039,-0.0450249,0.218277,
2,0,0,1,0,66911.5,0.21449,0.214142,-0.272643,101,0.586948,10,-5.83844e-05,-3.5644,-1.01624,-0.0580571,0.214262,
2,0,0,1,0,66912.3,0.210496,0.210158,-0.27563,101,0.586719,10,-5.79259e-05,-3.55967,-0.666325,-0.0885453,0.21028,
2,0,0,1,0,66913.1,0.2065,0.206192,-0.27877,101,0.586489,10,-5.74801e-05,-3.55475,-1.51959,-0.0388262,0.206315,
2,0,0,0,0,66913.9,0.202505,0.202171,-0.280807,101,0.586256,10,-5.67711e-05,-3.55159,-0.597604,-0.0987276,0.202294,
2,0,0,1,0,66914.7,0.198509,0.198175,-0.284107,101,0.586021,10,-5.6303e-05,-3.54652,-0.859388,-0.0686535,0.1983,
2,0,0,1,0,66915.5,0.194514,0.194173,-0.288162,101,0.585783,10,-5.59534e-05,-3.54036,-0.907083,-0.0650437,0.1943,
2,0,0,1,0,66916.3,0.19052,0.190173,-0.289908,101,0.585543,10,-5.51327e-05,-3.53774,-0.645402,-0.0914159,0.1903,
2,0,0,1,0,66917.1,0.186524,0.186233,-0.297207,101,0.585298,10,-5.53498e-05,-3.52694,-0.673217,-0.0876389,0.186364,
2,0,0,0,0,66917.9,0.182529,0.182236,-0.298931,101,0.58505,10,-5.44762e-05,-3.52443,-0.626801,-0.0941288,0.182368,
2,0,0,1,0,66918.7,0.178534,0.178225,-0.303652,101,0.584799,10,-5.41183e-05,-3.51762,-0.634664,-0.0929626,0.178358,
2,0,0,1,0,66919.5,0.174538,0.174195,-0.308548,101,0.584545,10,-5.37474e-05,-3.51068,-0.527365,-0.111877,0.174331,
2,0,0,1,0,66920.3,0.170543,0.17024,-0.314863,101,0.584286,10,-5.36023e-05,-3.50188,-0.394046,-0.149729,0.170379,
2,0,0,1,0,66921.1,0.166549,0.166205,-0.320319,101,0.584022,10,-5.32387e-05,-3.49442,-0.449827,-0.131162,0.166346,
2,0,0,0,0,66921.9,0.162553,0.162238,-0.33,101,0.583752,10,-5.35386e-05,-3.48149,-0.318603,-0.185184,0.162383,
2,0,0,1,0,66922.7,0.158558,0.158229,-0.338675,101,0.583474,10,-5.35881e-05,-3.47022,-0.300873,-0.196096,0.158378,
2,0,0,0,0,66923.5,0.154563,0.154177,-0.352884,101,0.583187,10,-5.44065e-05,-3.45237,-0.230077,-0.256436,0.154332,
2,0,0,1,0,66924.3,0.150567,0.150239,-0.368871,101,0.582889,10,-5.54187e-05,-3.43312,-0.164456,-0.358759,0.150401,
2,0,0,1,0,66925.1,0.146572,0.146238,-0.390558,101,0.582576,10,-5.71143e-05,-3.40831,-0.150626,-0.391699,0.14641,
2,0,0,1,0,66925.9,0.142578,0.142231,-0.419276,101,0.582244,10,-5.96339e-05,-3.3775,-0.121244,-0.486622,0.142415,
2,0,0,1,0,66926.7,0.138582,0.138274,-0.453234,101,0.581885,10,-6.26705e-05,-3.34368,-0.107271,-0.550007,0.138473,
2,0,0,0,0,66927.5,0.134587,0.134235,-0.495894,101,0.581495,10,-6.65663e-05,-3.30461,-0.105992,-0.556645,0.134453,
2,0,0,1,0,66928.3,0.130591,0.130254,-0.538133,101,0.581072,10,-7.00938e-05,-3.26911,-0.116018,-0.50854,0.130491,
2,0,0,1,0,66929.1,0.126596,0.126245,-0.578271,101,0.580613,10,-7.30036e-05,-3.23787,-0.14043,-0.420137,0.126499,
2,0,0,1,0,66929.9,0.122602,0.122285,-0.615197,101,0.580124,10,-7.52295e-05,-3.21099,-0.1852,-0.318574,0.122556,
2,0,0,1,0,66930.7,0.118607,0.118266,-0.637957,101,0.579613,10,-7.54484e-05,-3.19521,-0.306057,-0.192775,0.118546,
2,0,0,0,0,66931.5,0.114611,0.114299,-0.6521,101,0.579086,10,-7.45346e-05,-3.18569,-0.641515,-0.0919698,0.114586,
2,0,0,1,0,66932.3,0.110616,0.110297,-0.658706,101,0.578552,10,-7.26535e-05,-3.18131,-1.30521,-0.0452033,0.110587,
2,0,0,1,0,66933.1,0.10662,0.106289,-0.662049,101,0.578014,10,-7.03683e-05,-3.17911,-9.96989,-0.00591782,0.10658,
2,0,0,1,0,66933.9,0.102625,0.102313,-0.661478,101,0.577474,10,-6.76775e-05,-3.17948,2.95982,0.0199337,0.102604,
2,0,0,1,0,66934.7,0.0986305,0.0983807,-0.659967,101,0.576936,10,-6.4928e-05,-3.18048,7.75445,0.00760854,0.0986711,
2,0,0,0,0,66935.5,0.0946351,0.0943361,-0.654186,101,0.5764,10,-6.17134e-05,-3.1843,1.49329,0.03951,0.0946239,
2,0,0,1,0,66936.3,0.0906399,0.0903108,-0.651443,101,0.575866,10,-5.88324e-05,-3.18612,0.866083,0.0681228,0.0905974,
2,0,0,0,0,66937.1,0.0866448,0.0863321,-0.646355,101,0.575338,10,-5.58012e-05,-3.18953,1.18327,0.0498618,0.0866165,
2,0,0,1,0,66937.9,0.0826493,0.0823309,-0.639327,101,0.574813,10,-5.26364e-05,-3.19428,0.821894,0.0717854,0.0826122,
2,0,0,1,0,66938.7,0.0786544,0.0783345,-0.633334,101,0.574295,10,-4.96119e-05,-3.19837,0.797259,0.0740036,0.0786132,
2,0,0,1,0,66939.5,0.0746596,0.0743012,-0.625304,101,0.573783,10,-4.64608e-05,-3.20391,0.828584,0.0712058,0.0745763,
2,0,0,1,0,66940.3,0.0706641,0.0703508,-0.617005,101,0.573276,10,-4.34068e-05,-3.20971,0.722303,0.0816831,0.0706222,
2,0,0,0,0,66941.1,0.0666689,0.0663297,-0.610191,101,0.572776,10,-4.04738e-05,-3.21453,0.813877,0.0724926,0.0665982,
2,0,0,1,0,66941.9,0.0626737,0.0623839,-0.600137,101,0.572281,10,-3.74389e-05,-3.22175,0.634081,0.0930481,0.062648,
2,0,0,1,0,66942.7,0.0586783,0.0583712,-0.593597,101,0.571793,10,-3.4649e-05,-3.22651,0.635282,0.0928721,0.0586324,
2,0,0,1,0,66943.5,0.0546835,0.0544056,-0.584507,101,0.571311,10,-3.18004e-05,-3.23321,0.696577,0.0846999,0.0546627,
2,0,0,1,0,66944.3,0.0506886,0.0504199,-0.576311,101,0.570837,10,-2.90576e-05,-3.23934,0.506347,0.116521,0.0506735,
2,0,0,0,0,66945.1,0.046693,0.0463803,-0.567372,101,0.57037,10,-2.63149e-05,-3.24613,0.600034,0.0983277,0.0466299,
2,0,0,1,0,66945.9,0.0426979,0.0423486,-0.556753,101,0.56991,10,-2.35777e-05,-3.25434,0.58353,0.101109,0.0425936,
2,0,0,1,0,66946.7,0.0387022,0.0383928,-0.548846,101,0.569458,10,-2.10717e-05,-3.26055,0.453116,0.13021,0.0386343,
2,0,0,1,0,66947.5,0.0347074,0.0344062,-0.538327,101,0.569014,10,-1.85218e-05,-3.26895,0.610999,0.0965631,0.034643,
2,0,0,1,0,66948.3,0.0307126,0.0303684,-0.52803,101,0.568577,10,-1.60354e-05,-3.27734,0.507271,0.116309,0.0306007,
2,0,0,0,0,66949.1,0.0267172,0.0264022,-0.520921,101,0.568147,10,-1.37535e-05,-3.28323,0.542823,0.108691,0.0266314,
2,0,0,1,0,66949.9,0.022722,0.0223727,-0.512554,101,0.567724,10,-1.14672e-05,-3.29026,0.835585,0.0706092,0.0225982,
2,0,0,0,0,66950.7,0.0187268,0.0183559,-0.507447,101,0.567306,10,-9.31462e-06,-3.29461,0.964249,0.0611875,0.0185791,
2,0,0,1,0,66951.5,0.0147313,0.0144172,-0.504742,101,0.566893,10,-7.27699e-06,-3.29693,1.69339,0.0348413,0.0146393,
2,0,0,1,0,66952.3,0.0107365,0.0104125,-0.499939,101,0.566482,10,-5.2056e-06,-3.30108,1.43013,0.041255,0.0106324,
2,0,0,1,0,66953.1,0.00674163,0.00642453,-0.498363,101,0.566073,10,-3.20175e-06,-3.30245,5.68438,0.0103793,0.00664381,
2,0,0,1,0,66953.9,0.00274612,0.00243279,-0.499097,101,0.565665,10,-1.2142e-06,-3.30181,-1.66228,-0.0354934,0.0026524,
2,0,0,0,0,66954.4,0.000274105,-8.6732e-05,-0.501386,101,0.565409,10,4.34862e-08,-3.29983, , ,0.000133878,