File: Figure_codes/Fig_3-5/workspace_calculate_alpha_eff/20221101_1-115_003_TrumpetPlot_ParaChange_from10_every3_16_CV_C01_38.csv
mode,ox/red,error,control changes,counter inc.,time/s,control/V,Ewe/V,<I>/mA,cycle number,(Q-Qo)/C,I Range,P/W,log(|I|),Tafel slope mV/dec,alpha_eff,E-IR/V,
2,0,0,0,0,25611.7,2.44065e-05,-0.000306236,-0.098122,39,0.0000000E+000,10,3.00485e-08,-4.00823, , ,-0.000263063,
2,1,0,0,0,25612.4,0.00379485,0.00346987,0.150349,39,9.63182e-05,10,5.2169e-07,-3.8229,0.0344813,1.71107,0.00340372,
2,1,0,1,0,25613.2,0.00779002,0.00744215,0.174429,39,0.000238599,10,1.29813e-06,-3.75838,0.079311,0.743907,0.00736541,
2,1,0,0,0,25614,0.0117852,0.0114865,0.189441,39,0.000396615,10,2.17603e-06,-3.72253,0.1161,0.508185,0.0114032,
2,1,0,1,0,25614.8,0.0157806,0.0154686,0.204845,39,0.000566819,10,3.16867e-06,-3.68857,0.127334,0.463349,0.0153785,
2,1,0,1,0,25615.6,0.0197754,0.019378,0.219194,39,0.000748099,10,4.24753e-06,-3.65917,0.160991,0.366479,0.0192815,
2,1,0,1,0,25616.4,0.0237704,0.0234488,0.233467,39,0.00094079,10,5.47452e-06,-3.63177,0.150739,0.391405,0.0233461,
2,1,0,1,0,25617.2,0.0277659,0.0274711,0.24723,39,0.00114448,10,6.79168e-06,-3.6069,0.147728,0.399382,0.0273623,
2,1,0,0,0,25618,0.0317611,0.0314614,0.260336,39,0.00135982,10,8.19056e-06,-3.58447,0.164246,0.359217,0.0313469,
2,1,0,1,0,25618.8,0.0357567,0.0354596,0.276601,39,0.00158724,10,9.80815e-06,-3.55815,0.195025,0.302526,0.0353379,
2,1,0,1,0,25619.6,0.0397516,0.0394074,0.291458,39,0.00182574,10,1.14856e-05,-3.53542,0.161717,0.364835,0.0392791,
2,1,0,1,0,25620.4,0.0437465,0.0434576,0.303779,39,0.00207648,10,1.32015e-05,-3.51744,0.208197,0.283386,0.043324,
2,1,0,1,0,25621.2,0.0477413,0.0474647,0.319071,39,0.00233785,10,1.51446e-05,-3.49611,0.195664,0.301538,0.0473243,
2,1,0,0,0,25622,0.0517369,0.0514119,0.331846,39,0.00260998,10,1.70608e-05,-3.47906,0.251232,0.234842,0.0512659,
2,1,0,1,0,25622.8,0.0557321,0.0554669,0.344225,39,0.00289256,10,1.90931e-05,-3.46316,0.302661,0.194938,0.0553155,
2,1,0,1,0,25623.6,0.0597277,0.0593856,0.355693,39,0.00318433,10,2.1123e-05,-3.44892,0.277841,0.212352,0.0592291,
2,1,0,1,0,25624.4,0.0637226,0.0633798,0.366891,39,0.0034857,10,2.32535e-05,-3.43546,0.324645,0.181737,0.0632184,
2,1,0,1,0,25625.2,0.0677174,0.0674334,0.377027,39,0.0037963,10,2.54242e-05,-3.42363,0.426657,0.138285,0.0672675,
2,1,0,0,0,25626,0.0717128,0.0714016,0.387834,39,0.00411445,10,2.7692e-05,-3.41135,0.298949,0.197358,0.071231,
2,1,0,1,0,25626.8,0.075708,0.0754025,0.395458,39,0.00444036,10,2.98185e-05,-3.4029,0.44331,0.13309,0.0752285,
2,1,0,0,0,25627.6,0.0797031,0.0793939,0.406453,39,0.00477305,10,3.22699e-05,-3.39099,0.427745,0.137933,0.0792151,
2,1,0,1,0,25628.4,0.0836986,0.0833537,0.413164,39,0.00511298,10,3.44388e-05,-3.38388,0.3455,0.170767,0.0831719,
2,1,0,1,0,25629.2,0.0876935,0.0873702,0.425779,39,0.00546112,10,3.72004e-05,-3.37082,0.315678,0.186899,0.0871829,
2,1,0,1,0,25630,0.0916883,0.0913708,0.43992,39,0.00581865,10,4.01958e-05,-3.35663,0.268398,0.219823,0.0911772,
2,1,0,1,0,25630.8,0.0956838,0.0953647,0.455304,39,0.00618936,10,4.34199e-05,-3.3417,0.206124,0.286235,0.0951644,
2,1,0,0,0,25631.6,0.099679,0.0993455,0.477789,39,0.00657559,10,4.74661e-05,-3.32076,0.227275,0.259597,0.0991352,
2,1,0,1,0,25632.4,0.103674,0.103297,0.502146,39,0.00697955,10,5.187e-05,-3.29917,0.166631,0.354076,0.103076,
2,1,0,1,0,25633.2,0.10767,0.107354,0.524796,39,0.00740327,10,5.6339e-05,-3.28001,0.221751,0.266065,0.107123,
2,1,0,1,0,25634,0.111664,0.111343,0.545798,39,0.00784385,10,6.07707e-05,-3.26297,0.28164,0.209487,0.111103,
2,1,0,1,0,25634.8,0.115659,0.115347,0.560326,39,0.00829822,10,6.46317e-05,-3.25156,0.312923,0.188545,0.1151,
2,1,0,0,0,25635.6,0.119655,0.119315,0.575624,39,0.00876567,10,6.86806e-05,-3.23986,0.46237,0.127603,0.119062,
2,1,0,1,0,25636.4,0.12365,0.123344,0.588109,39,0.00924321,10,7.25395e-05,-3.23054,0.438749,0.134473,0.123085,
2,1,0,1,0,25637.2,0.127646,0.127342,0.599982,39,0.00973134,10,7.64028e-05,-3.22186,0.528362,0.111666,0.127078,
2,1,0,1,0,25638,0.131641,0.131343,0.606984,39,0.0102275,10,7.97233e-05,-3.21682,-2.39971,-0.0245863,0.131076,
2,1,0,1,0,25638.8,0.135635,0.135322,0.599222,39,0.0107232,10,8.10878e-05,-3.22241,-0.400753,-0.147223,0.135058,
2,1,0,0,0,25639.6,0.139631,0.139348,0.569386,39,0.0112051,10,7.93429e-05,-3.24459,-0.125156,-0.471412,0.139098,
2,1,0,1,0,25640.4,0.143626,0.143274,0.520886,39,0.0116547,10,7.46293e-05,-3.28326,-0.0848602,-0.695262,0.143045,
2,1,0,0,0,25641.2,0.147621,0.147293,0.45854,39,0.0120585,10,6.75396e-05,-3.33862,-0.0703392,-0.838792,0.147091,
2,1,0,1,0,25642,0.151617,0.15125,0.40123,39,0.0124145,10,6.06859e-05,-3.39661,-0.07006,-0.842135,0.151073,
2,1,0,1,0,25642.8,0.155612,0.155247,0.358921,39,0.0127295,10,5.57215e-05,-3.445,-0.0957962,-0.615891,0.155089,
2,1,0,1,0,25643.6,0.159606,0.159297,0.329138,39,0.0130162,10,5.24308e-05,-3.48262,-0.12808,-0.460649,0.159153,
2,1,0,1,0,25644.4,0.163602,0.163298,0.309823,39,0.0132837,10,5.05934e-05,-3.50889,-0.159963,-0.368835,0.163161,
2,1,0,0,0,25645.2,0.167597,0.167291,0.296839,39,0.013538,10,4.96585e-05,-3.52748,-0.277701,-0.212459,0.16716,
2,1,0,1,0,25646,0.171592,0.171263,0.283851,39,0.0137829,10,4.86133e-05,-3.54691,-0.286224,-0.206132,0.171138,
2,1,0,1,0,25646.8,0.175588,0.175223,0.277575,39,0.0140203,10,4.86375e-05,-3.55662,-0.451134,-0.130781,0.175101,
2,1,0,1,0,25647.6,0.179582,0.17928,0.273048,39,0.0142523,10,4.89521e-05,-3.56376,-0.415712,-0.141925,0.17916,
2,1,0,1,0,25648.4,0.183577,0.183259,0.268369,39,0.0144805,10,4.9181e-05,-3.57127,-0.66808,-0.0883127,0.183141,
2,1,0,0,0,25649.2,0.187573,0.187277,0.264923,39,0.014705,10,4.96138e-05,-3.57688,-0.760988,-0.0775308,0.18716,
2,1,0,1,0,25650,0.191568,0.191234,0.260964,39,0.0149268,10,4.99051e-05,-3.58342,-0.651007,-0.0906289,0.191119,
2,1,0,0,0,25650.8,0.195563,0.195209,0.25845,39,0.0151463,10,5.04519e-05,-3.58762,-0.589101,-0.100153,0.195096,
2,1,0,1,0,25651.6,0.199559,0.199239,0.256244,39,0.0153633,10,5.10539e-05,-3.59135,-2.6927,-0.0219111,0.199126,
2,1,0,1,0,25652.4,0.203553,0.203242,0.252632,39,0.0155786,10,5.13454e-05,-3.59751,-1.02639,-0.0574829,0.203131,
2,1,0,1,0,25653.2,0.207548,0.207274,0.252506,39,0.0157925,10,5.23379e-05,-3.59773,-1.25756,-0.0469161,0.207163,
2,1,0,1,0,25654,0.211544,0.211212,0.249405,39,0.0160047,10,5.26773e-05,-3.6031,-1.962,-0.0300713,0.211102,
2,1,0,0,0,25654.8,0.215539,0.215239,0.248183,39,0.0162157,10,5.34187e-05,-3.60523,-1.0523,-0.0560674,0.21513,
2,1,0,1,0,25655.6,0.219535,0.219284,0.24764,39,0.0164251,10,5.43035e-05,-3.60618,-1.83011,-0.0322384,0.219175,
2,1,0,1,0,25656.4,0.223529,0.223239,0.245351,39,0.0166333,10,5.47719e-05,-3.61021,-1.2877,-0.0458182,0.223131,
2,1,0,1,0,25657.2,0.227524,0.227245,0.243494,39,0.0168404,10,5.53329e-05,-3.61351,-1.12185,-0.0525917,0.227138,
2,1,0,1,0,25658,0.23152,0.231208,0.242167,39,0.0170465,10,5.59909e-05,-3.61589,8.84621,0.00666952,0.231102,
2,1,0,0,0,25658.8,0.235515,0.235175,0.241298,39,0.0172519,10,5.67473e-05,-3.61745,-5.08397,-0.0116051,0.235069,
2,1,0,1,0,25659.6,0.23951,0.239227,0.24092,39,0.0174561,10,5.76345e-05,-3.61813,-1.15791,-0.0509539,0.239121,
2,1,0,1,0,25660.4,0.243506,0.243201,0.239327,39,0.0176594,10,5.82046e-05,-3.62101,-2.52498,-0.0233665,0.243095,
2,1,0,1,0,25661.2,0.2475,0.247204,0.239363,39,0.0178623,10,5.91715e-05,-3.62094,-1.78406,-0.0330707,0.247099,
2,1,0,1,0,25662,0.251495,0.251191,0.237838,39,0.0180642,10,5.97427e-05,-3.62372,-1.9773,-0.0298387,0.251086,
2,1,0,0,0,25662.8,0.255491,0.255198,0.236739,39,0.0182652,10,6.04151e-05,-3.62573,-3.95167,-0.0149304,0.255093,
2,1,0,1,0,25663.6,0.259486,0.259161,0.235786,39,0.0184656,10,6.11066e-05,-3.62748,-1.25693,-0.0469399,0.259058,
2,1,0,0,0,25664.4,0.263481,0.263212,0.235034,39,0.0186649,10,6.18639e-05,-3.62887,-6.89936,-0.00855151,0.263109,
2,1,0,1,0,25665.2,0.267477,0.267166,0.233182,39,0.0188637,10,6.22981e-05,-3.63231,-3.08995,-0.0190942,0.267063,
2,1,0,1,0,25666,0.271471,0.271163,0.233606,39,0.0190617,10,6.33454e-05,-3.63152,6.57459,0.00897394,0.27106,
2,1,0,1,0,25666.8,0.275466,0.275143,0.231972,39,0.019259,10,6.38255e-05,-3.63456,-1.1947,-0.0493848,0.275041,
2,1,0,1,0,25667.6,0.279462,0.279138,0.232146,39,0.0194557,10,6.4801e-05,-3.63424,-1.07958,-0.0546507,0.279036,
2,1,0,0,0,25668.4,0.283457,0.283152,0.231366,39,0.0196516,10,6.55118e-05,-3.6357,11.9081,0.00495462,0.28305,
2,1,0,1,0,25669.2,0.287452,0.287124,0.229604,39,0.0198469,10,6.59249e-05,-3.63902,14.4807,0.00407439,0.287023,
2,1,0,1,0,25670,0.291448,0.29113,0.228932,39,0.0200418,10,6.66489e-05,-3.64029,-0.759165,-0.077717,0.291029,
2,1,0,1,0,25670.8,0.295442,0.295115,0.228707,39,0.0202357,10,6.74951e-05,-3.64072,7.11315,0.0082945,0.295015,
2,1,0,1,0,25671.6,0.299437,0.299124,0.227046,39,0.0204293,10,6.79151e-05,-3.64389,-1.42779,-0.0413225,0.299025,
2,1,0,0,0,25672.4,0.303433,0.303176,0.226756,39,0.0206218,10,6.8747e-05,-3.64444,-8.1301,-0.00725699,0.303076,
2,1,0,1,0,25673.2,0.307428,0.307107,0.225215,39,0.0208135,10,6.9165e-05,-3.6474,-31.9108,-0.0018489,0.307008,
2,1,0,1,0,25674,0.311424,0.31114,0.224728,39,0.0210049,10,6.9922e-05,-3.64834,-2.58202,-0.0228503,0.311041,
2,1,0,1,0,25674.8,0.315418,0.315066,0.224428,39,0.0211954,10,7.07097e-05,-3.64892,-1.67898,-0.0351404,0.314968,
2,1,0,1,0,25675.6,0.319413,0.319098,0.224739,39,0.0213854,10,7.17137e-05,-3.64832,-63.038,-0.000935944,0.319,
2,1,0,0,0,25676.4,0.323409,0.323097,0.222975,39,0.0215752,10,7.20426e-05,-3.65174,-0.910557,-0.0647955,0.322998,
2,1,0,1,0,25677.2,0.327404,0.327091,0.222317,39,0.0217643,10,7.2718e-05,-3.65303,2.32995,0.0253224,0.326993,
2,1,0,0,0,25678,0.331399,0.331089,0.221799,39,0.021953,10,7.34351e-05,-3.65404,-1.55177,-0.038021,0.330991,
2,1,0,1,0,25678.8,0.335395,0.335128,0.221949,39,0.022141,10,7.43814e-05,-3.65375,-4.69978,-0.0125538,0.33503,
2,1,0,1,0,25679.6,0.339389,0.339116,0.220474,39,0.0223286,10,7.47662e-05,-3.65664,-3.64681,-0.0161785,0.339019,
2,1,0,1,0,25680.4,0.343384,0.3431,0.220705,39,0.022516,10,7.57239e-05,-3.65619,9.37223,0.00629519,0.343003,
2,1,0,1,0,25681.2,0.34738,0.347102,0.220439,39,0.0227027,10,7.65147e-05,-3.65671,13.3043,0.00443464,0.347005,
2,1,0,0,0,25682,0.351375,0.351068,0.219349,39,0.0228892,10,7.70065e-05,-3.65886,-1.05558,-0.0558934,0.350971,
2,1,0,1,0,25682.8,0.35537,0.355083,0.219358,39,0.0230749,10,7.78904e-05,-3.65885,-1.73061,-0.034092,0.354986,
2,1,0,1,0,25683.6,0.359366,0.359093,0.218386,39,0.0232602,10,7.84211e-05,-3.66077,6.94666,0.00849329,0.358997,
2,1,0,1,0,25684.4,0.36336,0.363088,0.217422,39,0.0234454,10,7.89431e-05,-3.6627,-5.16777,-0.0114169,0.362992,
2,1,0,1,0,25685.2,0.367355,0.367017,0.218393,39,0.02363,10,8.0154e-05,-3.66076,4.30917,0.0136917,0.366921,
2,1,0,0,0,25685.9,0.371351,0.371054,0.216406,39,0.0238141,10,8.02985e-05,-3.66473,-3.49651,-0.016874,0.370959,
2,1,0,1,0,25686.7,0.375346,0.375048,0.216911,39,0.0239982,10,8.13521e-05,-3.66372,-2.55033,-0.0231343,0.374953,
2,1,0,1,0,25687.5,0.379342,0.379043,0.217381,39,0.0241817,10,8.23966e-05,-3.66278,-23.2858,-0.00253374,0.378947,
2,1,0,1,0,25688.3,0.383336,0.38302,0.216485,39,0.024365,10,8.29181e-05,-3.66457,5.13161,0.0114974,0.382925,
2,1,0,1,0,25689.1,0.387331,0.387021,0.216089,39,0.0245483,10,8.36309e-05,-3.66537,-0.971202,-0.0607494,0.386926,
2,1,0,0,0,25689.9,0.391327,0.391009,0.215467,39,0.0247308,10,8.42495e-05,-3.66662,18.7954,0.00313907,0.390914,
2,1,0,1,0,25690.7,0.395322,0.395023,0.214735,39,0.0249131,10,8.48253e-05,-3.6681,-11.8537,-0.00497737,0.394928,
2,1,0,0,0,25691.5,0.399317,0.399004,0.215339,39,0.0250953,10,8.59209e-05,-3.66688,7.48563,0.00788176,0.398909,
2,1,0,1,0,25692.3,0.403313,0.403014,0.215061,39,0.0252772,10,8.66728e-05,-3.66744,-5.0831,-0.0116071,0.40292,
2,1,0,1,0,25693.1,0.407307,0.406997,0.215052,39,0.025459,10,8.75255e-05,-3.66746,-1.57869,-0.0373727,0.406902,
2,1,0,1,0,25693.9,0.411302,0.411026,0.215496,39,0.0256404,10,8.85747e-05,-3.66656,1.97316,0.0299013,0.410931,
2,1,0,1,0,25694.7,0.415298,0.415021,0.213712,39,0.0258219,10,8.86949e-05,-3.67017,45.4746,0.00129743,0.414927,
2,1,0,0,0,25695.5,0.419293,0.418948,0.214658,39,0.0260031,10,8.99307e-05,-3.66825,-2.27028,-0.025988,0.418853,
2,1,0,1,0,25696.3,0.423288,0.423021,0.214281,39,0.0261841,10,9.06455e-05,-3.66902,14.8161,0.00398216,0.422926,
2,1,0,1,0,25697.1,0.427283,0.426955,0.213751,39,0.0263651,10,9.12619e-05,-3.67009,8.25007,0.00715146,0.426861,
2,1,0,1,0,25697.9,0.431278,0.430994,0.214035,39,0.026546,10,9.22478e-05,-3.66951,-5.37291,-0.010981,0.4309,
2,1,0,1,0,25698.7,0.435273,0.434991,0.214932,39,0.0267268,10,9.34937e-05,-3.6677,1.99729,0.02954,0.434897,
2,1,0,0,0,25699.5,0.439269,0.439014,0.214714,39,0.0269079,10,9.42626e-05,-3.66814,14.2195,0.00414924,0.438919,
2,1,0,1,0,25700.3,0.443264,0.443048,0.214791,39,0.0270888,10,9.51626e-05,-3.66798,-7.34739,-0.00803007,0.442953,
2,1,0,0,0,25701.1,0.447259,0.446987,0.215019,39,0.0272698,10,9.61105e-05,-3.66752,3.67676,0.0160468,0.446892,
2,1,0,1,0,25701.9,0.451254,0.450984,0.214687,39,0.027451,10,9.68204e-05,-3.66819,-2.0991,-0.0281073,0.450889,
2,1,0,1,0,25702.7,0.455249,0.454956,0.21545,39,0.0276319,10,9.80204e-05,-3.66665,5.14334,0.0114712,0.454861,
2,1,0,1,0,25703.5,0.459244,0.458992,0.214909,39,0.0278133,10,9.86418e-05,-3.66774,2.65966,0.0221833,0.458898,
2,1,0,1,0,25704.3,0.46324,0.462937,0.216041,39,0.0279949,10,0.000100013,-3.66546,-217.177,-0.000271668,0.462842,
2,1,0,0,0,25705.1,0.467235,0.466943,0.216378,39,0.0281764,10,0.000101036,-3.66479,2.8669,0.0205797,0.466848,
2,1,0,1,0,25705.9,0.471231,0.470952,0.216087,39,0.0283584,10,0.000101766,-3.66537,2.63547,0.0223869,0.470856,
2,1,0,1,0,25706.7,0.475225,0.474915,0.217163,39,0.0285405,10,0.000103134,-3.66321,7.86087,0.00750553,0.47482,
2,1,0,1,0,25707.5,0.47922,0.478921,0.217045,39,0.0287234,10,0.000103948,-3.66345,2.47752,0.0238142,0.478825,
2,1,0,1,0,25708.3,0.483216,0.482917,0.218107,39,0.0289068,10,0.000105327,-3.66133,-17.8454,-0.00330617,0.482821,
2,1,0,0,0,25709.1,0.487211,0.486906,0.219192,39,0.0290904,10,0.000106726,-3.65918,1.71652,0.0343718,0.48681,
2,1,0,1,0,25709.9,0.491206,0.49088,0.218902,39,0.0292747,10,0.000107455,-3.65975,1.40816,0.0418985,0.490784,
2,1,0,1,0,25710.7,0.495201,0.494955,0.220352,39,0.0294596,10,0.000109064,-3.65688,-33.2994,-0.0017718,0.494858,
2,1,0,1,0,25711.5,0.499196,0.498904,0.220706,39,0.0296449,10,0.000110111,-3.65619,1.5129,0.0389979,0.498806,
2,1,0,1,0,25712.3,0.503191,0.502924,0.221596,39,0.0298312,10,0.000111446,-3.65444,204.625,0.000288332,0.502827,
2,1,0,0,0,25713.1,0.507187,0.506815,0.222814,39,0.0300178,10,0.000112925,-3.65206,0.870256,0.0677961,0.506717,
2,1,0,1,0,25713.9,0.511182,0.510878,0.224585,39,0.0302054,10,0.000114735,-3.64862,3.02021,0.0195351,0.510779,
2,1,0,0,0,25714.7,0.515177,0.51493,0.225889,39,0.0303941,10,0.000116317,-3.64611,2.85686,0.020652,0.514831,
2,1,0,1,0,25715.5,0.519173,0.518863,0.226383,39,0.0305836,10,0.000117462,-3.64516,1.0696,0.0551609,0.518763,
2,1,0,1,0,25716.3,0.523167,0.52286,0.227756,39,0.0307742,10,0.000119084,-3.64253,1.17104,0.0503827,0.52276,
2,1,0,1,0,25717.1,0.527162,0.52682,0.229416,39,0.0309659,10,0.000120861,-3.63938,2.00139,0.0294795,0.526719,
2,1,0,1,0,25717.9,0.531158,0.530893,0.23185,39,0.0311587,10,0.000123088,-3.63479,0.978469,0.0602983,0.530791,
2,1,0,0,0,25718.7,0.535153,0.534827,0.233,39,0.0313531,10,0.000124615,-3.63264,3.83612,0.0153801,0.534724,
2,1,0,1,0,25719.5,0.539148,0.538891,0.235051,39,0.0315485,10,0.000126667,-3.62884,0.798852,0.073856,0.538788,
2,1,0,1,0,25720.3,0.543143,0.542854,0.235528,39,0.0317455,10,0.000127857,-3.62796,1.42165,0.0415011,0.54275,
2,1,0,1,0,25721.1,0.547138,0.546815,0.238118,39,0.031944,10,0.000130207,-3.62321,1.28485,0.0459198,0.546711,
2,1,0,1,0,25721.9,0.551133,0.550801,0.240702,39,0.0321441,10,0.000132579,-3.61852,0.557329,0.105862,0.550695,
2,1,0,0,0,25722.7,0.555129,0.554855,0.243305,39,0.0323467,10,0.000134999,-3.61385,1.02659,0.0574716,0.554748,
2,1,0,1,0,25723.5,0.559124,0.558831,0.246824,39,0.0325513,10,0.000137933,-3.60761,0.706018,0.0835673,0.558723,
2,1,0,1,0,25724.3,0.56312,0.562821,0.249731,39,0.0327584,10,0.000140554,-3.60253,0.525733,0.112224,0.562711,
2,1,0,1,0,25725.1,0.567114,0.566819,0.252871,39,0.0329682,10,0.000143332,-3.5971,1.55963,0.0378295,0.566708,
2,1,0,1,0,25725.9,0.571109,0.570861,0.257087,39,0.0331806,10,0.000146761,-3.58992,0.508697,0.115983,0.570748,
2,1,0,0,0,25726.7,0.575105,0.574811,0.261011,39,0.0333962,10,0.000150032,-3.58334,0.546432,0.107973,0.574696,
2,1,0,1,0,25727.5,0.5791,0.578804,0.265595,39,0.0336154,10,0.000153728,-3.57578,0.495921,0.118971,0.578687,
2,1,0,0,0,25728.3,0.583095,0.582792,0.270847,39,0.0338382,10,0.000157848,-3.56728,0.44298,0.133189,0.582673,
2,1,0,1,0,25729.1,0.58709,0.586778,0.276451,39,0.0340656,10,0.000162215,-3.55838,0.400733,0.14723,0.586656,
2,1,0,1,0,25729.9,0.591085,0.590799,0.283938,39,0.0342982,10,0.00016775,-3.54678,0.352384,0.167431,0.590674,
2,1,0,1,0,25730.7,0.59508,0.594804,0.291856,39,0.0345361,10,0.000173597,-3.53483,0.348011,0.169535,0.594676,
2,1,0,1,0,25731.5,0.599076,0.598782,0.298931,39,0.0347803,10,0.000178995,-3.52443,0.330079,0.178745,0.598651,
2,1,0,0,0,25732.3,0.603071,0.602784,0.308305,39,0.0350315,10,0.000185842,-3.51102,0.274417,0.215001,0.602648,
2,1,0,1,0,25733.1,0.607066,0.606768,0.319798,39,0.0352907,10,0.000194043,-3.49512,0.268506,0.219735,0.606627,
2,1,0,1,0,25733.9,0.611061,0.610775,0.331395,39,0.035559,10,0.000202408,-3.47965,0.249919,0.236077,0.61063,
2,1,0,1,0,25734.7,0.615056,0.614751,0.3454,39,0.0358375,10,0.000212335,-3.46168,0.179652,0.328413,0.614599,
2,1,0,1,0,25735.5,0.619051,0.61875,0.361778,39,0.0361286,10,0.00022385,-3.44156,0.201051,0.293458,0.618591,
2,1,0,0,0,25736.3,0.623047,0.622744,0.380813,39,0.0364339,10,0.000237149,-3.41929,0.167363,0.352527,0.622577,
2,1,0,1,0,25737.1,0.627042,0.626765,0.403296,39,0.0367559,10,0.000252772,-3.39438,0.142529,0.413951,0.626588,
2,1,0,1,0,25737.9,0.631037,0.630773,0.430178,39,0.0370976,10,0.000271345,-3.36635,0.149185,0.395481,0.630584,
2,1,0,1,0,25738.7,0.635032,0.634747,0.45988,39,0.0374614,10,0.000291907,-3.33736,0.128863,0.457852,0.634545,
2,1,0,1,0,25739.5,0.639027,0.63877,0.496065,39,0.0378518,10,0.000316871,-3.30446,0.115593,0.51041,0.638552,
2,1,0,1,0,25740.3,0.643022,0.642734,0.538037,39,0.0382734,10,0.000345815,-3.26919,0.110084,0.535955,0.642498,
2,1,0,1,0,25741.1,0.647018,0.64675,0.587285,39,0.0387311,10,0.000379826,-3.23115,0.0995713,0.59254,0.646491,
2,1,0,0,0,25741.9,0.651013,0.650736,0.645527,39,0.0392317,10,0.000420068,-3.19009,0.0938798,0.628463,0.650452,
2,1,0,1,0,25742.7,0.655008,0.654746,0.713586,39,0.0397829,10,0.000467217,-3.14655,0.0885161,0.666545,0.654432,
2,1,0,1,0,25743.5,0.659003,0.658773,0.79394,39,0.040393,10,0.000523026,-3.10021,0.0850542,0.693675,0.658423,
2,1,0,1,0,25744.3,0.662998,0.662701,0.886453,39,0.041072,10,0.000587453,-3.05234,0.0806393,0.731654,0.662311,
2,1,0,1,0,25745.1,0.666994,0.666726,0.993851,39,0.0418308,10,0.000662626,-3.00268,0.0775181,0.761113,0.666288,
2,1,0,0,0,25745.9,0.670989,0.670707,1.11637,39,0.0426818,10,0.000748756,-2.95219,0.0772371,0.763882,0.670216,
2,1,0,1,0,25746.7,0.674984,0.674726,1.26062,39,0.0436387,10,0.000850572,-2.89942,0.0748169,0.788592,0.674172,
2,1,0,1,0,25747.5,0.67898,0.678685,1.4224,39,0.0447172,10,0.000965358,-2.84698,0.0739449,0.797892,0.678059,
2,1,0,1,0,25748.3,0.682974,0.682699,1.60377,39,0.0459338,10,0.00109489,-2.79486,0.0749303,0.787399,0.681994,
2,1,0,1,0,25749.1,0.686969,0.686708,1.81146,39,0.0473057,10,0.00124395,-2.74197,0.0743367,0.793687,0.685911,
2,1,0,0,0,25749.9,0.690965,0.690709,2.04172,39,0.0488529,10,0.00141024,-2.69,0.0747608,0.789184,0.68981,
2,1,0,1,0,25750.7,0.69496,0.694688,2.29778,39,0.0505941,10,0.00159624,-2.63869,0.0762503,0.773768,0.693677,
2,1,0,0,0,25751.5,0.698955,0.698678,2.5783,39,0.0525497,10,0.0018014,-2.58867,0.078326,0.753262,0.697543,
2,1,0,1,0,25752.3,0.70295,0.70267,2.88647,39,0.0547409,10,0.00202824,-2.53963,0.0798383,0.738993,0.7014,
2,1,0,1,0,25753.1,0.706945,0.706728,3.21966,39,0.0571873,10,0.00227543,-2.49219,0.0814092,0.724734,0.705311,
2,1,0,1,0,25753.9,0.71094,0.710669,3.57847,39,0.0599108,10,0.00254311,-2.4463,0.0854815,0.690208,0.709095,
2,1,0,1,0,25754.7,0.714936,0.714692,3.96493,39,0.062933,10,0.0028337,-2.40176,0.087733,0.672495,0.712947,
2,1,0,0,0,25755.5,0.718931,0.718658,4.37726,39,0.0662732,10,0.00314575,-2.3588,0.0898074,0.656962,0.716732,
2,1,0,1,0,25756.3,0.722927,0.722649,4.81627,39,0.0699539,10,0.00348047,-2.31729,0.0936299,0.630141,0.720529,
2,1,0,1,0,25757.1,0.726921,0.726721,5.28195,39,0.0739953,10,0.00383851,-2.27721,0.0982436,0.600548,0.724397,
2,1,0,1,0,25757.9,0.730916,0.73065,5.77108,39,0.0784178,10,0.00421664,-2.23874,0.0977776,0.60341,0.728111,
2,1,0,1,0,25758.7,0.734911,0.734658,6.28666,39,0.0832428,10,0.00461854,-2.20158,0.102481,0.575715,0.731892,
2,1,0,0,0,25759.5,0.738907,0.738627,6.82954,39,0.0884909,10,0.00504449,-2.16561,0.105977,0.556723,0.735622,
2,1,0,1,0,25760.3,0.742902,0.742621,7.39625,39,0.0941818,10,0.00549261,-2.13099,0.109878,0.536959,0.739367,
2,1,0,1,0,25761.1,0.746897,0.746672,7.99315,39,0.100339,10,0.00596826,-2.09728,0.112306,0.525349,0.743155,
2,1,0,1,0,25761.9,0.750892,0.750642,8.61586,39,0.106981,10,0.00646743,-2.0647,0.116949,0.504493,0.746851,
2,1,0,1,0,25762.7,0.754887,0.75462,9.26774,39,0.114133,10,0.00699362,-2.03303,0.117623,0.501603,0.750542,
2,1,0,0,0,25763.5,0.758883,0.758609,9.95402,39,0.121821,10,0.00755121,-2.002,0.120072,0.491372,0.754229,
2,1,0,1,0,25764.3,0.762878,0.762577,10.6716,39,0.130068,10,0.00813793,-1.97177,0.121695,0.484818,0.757881,
2,1,0,0,0,25765.1,0.766873,0.766621,11.4336,39,0.138905,10,0.00876524,-1.94182,0.125451,0.470303,0.76159,
2,1,0,1,0,25765.9,0.770868,0.770613,12.2399,39,0.148372,10,0.00943224,-1.91222,0.121522,0.48551,0.765227,
2,1,0,1,0,25766.7,0.774863,0.774621,13.1032,39,0.158502,10,0.01015,-1.88262,0.12217,0.482932,0.768855,
2,1,0,1,0,25767.5,0.778858,0.778605,14.0217,39,0.169347,10,0.0109173,-1.8532,0.121246,0.486613,0.772436,
2,1,0,1,0,25768.3,0.782854,0.782598,14.9855,39,0.180942,10,0.0117277,-1.82433,0.128011,0.460897,0.776005,
2,1,0,0,0,25769,0.786849,0.786595,15.9761,39,0.19331,10,0.0125667,-1.79653,0.122866,0.480199,0.779565,
2,1,0,1,0,25769.8,0.790844,0.790571,17.0791,39,0.206522,10,0.0135023,-1.76753,0.118272,0.498852,0.783057,
2,1,0,1,0,25770.6,0.794839,0.794559,18.2798,39,0.220658,10,0.0145244,-1.73803,0.119789,0.492531,0.786516,
2,1,0,1,0,25771.4,0.798834,0.798568,19.5254,39,0.235772,10,0.0155924,-1.7094,0.120344,0.490259,0.789976,
2,1,0,1,0,25772.2,0.802829,0.802585,20.8252,39,0.251901,10,0.016714,-1.68141,0.124973,0.4721,0.793422,
2,1,0,0,0,25773,0.806825,0.806534,22.1626,39,0.269089,10,0.0178749,-1.65438,0.132688,0.444652,0.796782,
2,1,0,1,0,25773.8,0.81082,0.810535,23.4449,39,0.287315,10,0.0190029,-1.62995,0.133128,0.443183,0.800219,
2,1,0,1,0,25774.6,0.814815,0.814568,24.877,39,0.306633,10,0.020264,-1.6042,0.134604,0.438324,0.803622,
2,1,0,1,0,25775.4,0.81881,0.818546,26.1782,39,0.327064,10,0.021428,-1.58206,0.153558,0.38422,0.807028,
2,1,0,1,0,25776.2,0.822805,0.822514,27.7226,39,0.348612,10,0.0228022,-1.55717,0.139732,0.422237,0.810316,
2,1,0,0,0,25777,0.826801,0.826559,29.2172,39,0.37137,10,0.0241497,-1.53436,0.148145,0.398259,0.813704,
2,1,0,1,0,25777.8,0.830796,0.830542,30.7543,39,0.395348,10,0.0255428,-1.51209,0.146518,0.402682,0.81701,
2,1,0,0,0,25778.6,0.834791,0.834547,32.3229,39,0.420576,10,0.026975,-1.49049,0.169934,0.347194,0.820324,
2,1,0,1,0,25779.4,0.838786,0.838536,33.8306,39,0.447011,10,0.0283682,-1.47069,0.16263,0.362787,0.823651,
2,1,0,1,0,25780.2,0.842781,0.842543,35.4216,39,0.474688,10,0.0298442,-1.45073,0.170674,0.345688,0.826957,
2,1,0,1,0,25781,0.846776,0.846483,37.0189,39,0.503647,10,0.0313359,-1.43158,0.175218,0.336724,0.830195,
2,1,0,0,0,25781.7,0.849723,0.849472,38.0024,39,0.530015,10,0.0322819,-1.42019,0.0447704,1.31783,0.832751,
2,1,0,1,0,25782.5,0.845728,0.845488,35.6627,39,0.559372,10,0.0301524,-1.44779,0.126315,0.467087,0.829796,
2,1,0,0,0,25783.3,0.841732,0.8415,33.7864,39,0.587093,10,0.0284313,-1.47126,0.13603,0.433729,0.826634,
2,1,0,1,0,25784.1,0.837737,0.837479,32.0153,39,0.613361,10,0.0268121,-1.49464,0.135684,0.434835,0.823392,
2,1,0,1,0,25784.9,0.833742,0.833502,30.3312,39,0.638241,10,0.0252811,-1.51811,0.13768,0.42853,0.820156,
2,1,0,1,0,25785.7,0.829747,0.8295,28.6601,39,0.661775,10,0.0237736,-1.54272,0.131694,0.448008,0.81689,
2,1,0,1,0,25786.5,0.825752,0.825509,27.052,39,0.684013,10,0.0223317,-1.5678,0.131755,0.447801,0.813606,
2,1,0,0,0,25787.3,0.821757,0.821491,25.5137,39,0.704997,10,0.0209593,-1.59323,0.129946,0.454034,0.810265,
2,1,0,1,0,25788.1,0.817761,0.817465,24.0194,39,0.72477,10,0.019635,-1.61944,0.125575,0.469837,0.806896,
2,1,0,1,0,25788.9,0.813766,0.813447,22.5599,39,0.743361,10,0.0183513,-1.64666,0.122518,0.481564,0.803521,
2,1,0,1,0,25789.7,0.809771,0.809506,21.171,39,0.760815,10,0.0171381,-1.67426,0.123715,0.476904,0.800191,
2,1,0,1,0,25790.5,0.805776,0.805522,19.8646,39,0.777193,10,0.0160014,-1.70192,0.124098,0.475429,0.796781,
2,1,0,0,0,25791.3,0.801781,0.801533,18.6144,39,0.792554,10,0.01492,-1.73015,0.117491,0.502166,0.793342,
2,1,0,1,0,25792.1,0.797786,0.797521,17.3667,39,0.806916,10,0.0138503,-1.76028,0.113802,0.518446,0.78988,
2,1,0,1,0,25792.9,0.79379,0.7935,16.1994,39,0.82031,10,0.0128542,-1.7905,0.115445,0.511068,0.786372,
2,1,0,1,0,25793.7,0.789795,0.789516,15.0991,39,0.832802,10,0.011921,-1.82105,0.116728,0.505449,0.782873,
2,1,0,1,0,25794.5,0.7858,0.785508,14.0596,39,0.844438,10,0.011044,-1.85203,0.11125,0.530336,0.779322,
2,1,0,0,0,25795.3,0.781805,0.781537,13.0745,39,0.855266,10,0.0102182,-1.88357,0.111206,0.530549,0.775784,
2,1,0,1,0,25796.1,0.77781,0.777531,12.1322,39,0.865322,10,0.00943318,-1.91606,0.111021,0.531432,0.772192,
2,1,0,0,0,25796.9,0.773815,0.773582,11.2472,39,0.874649,10,0.00870064,-1.94895,0.109132,0.54063,0.768633,
2,1,0,1,0,25797.7,0.769819,0.769598,10.4217,39,0.88329,10,0.00802052,-1.98206,0.107693,0.547853,0.765013,
2,1,0,1,0,25798.5,0.765824,0.765554,9.63032,39,0.891289,10,0.00737253,-2.01636,0.104293,0.565715,0.761317,
2,1,0,1,0,25799.3,0.761829,0.761562,8.87908,39,0.898669,10,0.00676197,-2.05163,0.103427,0.57045,0.757655,
2,1,0,1,0,25800.1,0.757834,0.757559,8.17261,39,0.905469,10,0.00619123,-2.08764,0.102454,0.575867,0.753963,
2,1,0,0,0,25800.9,0.753839,0.753598,7.50899,39,0.911721,10,0.00565876,-2.12442,0.100376,0.587793,0.750294,
2,1,0,1,0,25801.7,0.749844,0.749573,6.89008,39,0.917462,10,0.00516462,-2.16178,0.0980494,0.601738,0.746541,
2,1,0,1,0,25802.5,0.745848,0.745557,6.30369,39,0.922722,10,0.00469976,-2.2004,0.096464,0.611627,0.742783,
2,1,0,1,0,25803.3,0.741853,0.741569,5.79899,39,0.927531,10,0.00430035,-2.23665,0.103606,0.569467,0.739018,
2,1,0,1,0,25804.1,0.737858,0.737587,5.29473,39,0.931952,10,0.00390532,-2.27616,0.0932307,0.632839,0.735257,
2,1,0,0,0,25804.9,0.733863,0.73358,4.81284,39,0.935978,10,0.0035306,-2.3176,0.0893451,0.660361,0.731462,
2,1,0,1,0,25805.7,0.729868,0.729571,4.35394,39,0.939628,10,0.00317651,-2.36112,0.0858722,0.687067,0.727655,
2,1,0,1,0,25806.5,0.725872,0.725596,3.92507,39,0.942925,10,0.00284802,-2.40615,0.0827398,0.713079,0.723869,
2,1,0,1,0,25807.3,0.721877,0.721594,3.52577,39,0.945891,10,0.00254417,-2.45275,0.0810391,0.728044,0.720043,
2,1,0,1,0,25808.1,0.717882,0.717576,3.15706,39,0.94855,10,0.00226543,-2.50072,0.0786519,0.750141,0.716187,
2,1,0,0,0,25808.9,0.713887,0.71357,2.81461,39,0.950925,10,0.00200842,-2.55058,0.075353,0.782981,0.712332,
2,1,0,1,0,25809.7,0.709892,0.709603,2.49574,39,0.953035,10,0.00177098,-2.6028,0.072821,0.810206,0.708505,
2,1,0,0,0,25810.5,0.705897,0.705642,2.20399,39,0.954902,10,0.00155523,-2.65679,0.0709932,0.831066,0.704673,
2,1,0,1,0,25811.3,0.701901,0.701598,1.93833,39,0.956546,10,0.00135993,-2.71257,0.0675934,0.872867,0.700745,
2,1,0,1,0,25812.1,0.697906,0.697659,1.6919,39,0.957986,10,0.00118037,-2.77162,0.0649958,0.907751,0.696914,
2,1,0,1,0,25812.9,0.693911,0.693669,1.47192,39,0.959239,10,0.00102103,-2.83212,0.0619747,0.952002,0.693021,
2,1,0,1,0,25813.7,0.689916,0.689644,1.27137,39,0.960324,10,0.000876793,-2.89573,0.0601755,0.980465,0.689085,
2,1,0,0,0,25814.5,0.685921,0.685646,1.08877,39,0.961256,10,0.000746513,-2.96306,0.057838,1.02009,0.685167,
2,1,0,1,0,25815.3,0.681926,0.681648,0.927937,39,0.962052,10,0.000632526,-3.03248,0.0544367,1.08383,0.681239,
2,1,0,1,0,25816.1,0.67793,0.677652,0.782977,39,0.962725,10,0.000530586,-3.10625,0.0521421,1.13152,0.677307,
2,1,0,1,0,25816.9,0.673935,0.673636,0.655552,39,0.96329,10,0.000441604,-3.18339,0.0498741,1.18298,0.673348,
2,1,0,1,0,25817.7,0.66994,0.669701,0.543842,39,0.963758,10,0.000364212,-3.26453,0.046999,1.25535,0.669462,
2,1,0,0,0,25818.5,0.665945,0.665675,0.446282,39,0.964144,10,0.000297078,-3.35039,0.0454914,1.29695,0.665478,
2,1,0,1,0,25819.3,0.66195,0.661674,0.360604,39,0.964456,10,0.000238602,-3.44297,0.0419635,1.40598,0.661515,
2,1,0,0,0,25820.1,0.657955,0.657691,0.288174,39,0.964706,10,0.000189529,-3.54035,0.0382433,1.54275,0.657564,
2,1,0,1,0,25820.9,0.653959,0.653637,0.224935,39,0.964901,10,0.000147026,-3.64794,0.0353262,1.67015,0.653538,
2,1,0,1,0,25821.7,0.649964,0.649717,0.172158,39,0.96505,10,0.000111854,-3.76407,0.0313686,1.88086,0.649641,
2,1,0,1,0,25822.5,0.64597,0.645665,0.125024,39,0.965159,10,8.07238e-05,-3.90301,0.0275514,2.14145,0.64561,
2,1,0,1,0,25823.3,0.641974,0.641716,0.0880498,39,0.965234,10,5.6503e-05,-4.05527,0.0224685,2.6259,0.641677,
2,1,0,0,0,25824.1,0.637979,0.637678,0.0554179,39,0.965281,10,3.53388e-05,-4.25635,0.0160645,3.6727,0.637653,
2,1,0,1,0,25824.9,0.633983,0.633751,0.0264494,39,0.965304,10,1.67623e-05,-4.57758,0.0100639,5.86252,0.633739,
2,1,0,1,0,25825.7,0.629988,0.62968,0.00368391,39,0.965308,10,2.31968e-06,-5.43369,0.0090015,6.55447,0.629679,
2,0,0,1,0,25826.5,0.625993,0.625689,-0.0155777,39,0.965294,10,-9.74681e-06,-4.8075,-0.00650946,-9.06374,0.625696,
2,0,0,1,0,25827.3,0.621998,0.621737,-0.0306879,39,0.965267,10,-1.90798e-05,-4.51303,-0.018504,-3.18849,0.62175,
2,0,0,0,0,25828.1,0.618003,0.617699,-0.0432068,39,0.965229,10,-2.66888e-05,-4.36445,-0.0322923,-1.82706,0.617718,
2,0,0,1,0,25828.9,0.614008,0.613699,-0.0543065,39,0.965181,10,-3.33278e-05,-4.26515,-0.0552313,-1.06823,0.613723,
2,0,0,1,0,25829.7,0.610012,0.609742,-0.063425,39,0.965124,10,-3.86729e-05,-4.19774,-0.0650313,-0.907256,0.60977,
2,0,0,1,0,25830.5,0.606017,0.605749,-0.070571,39,0.965061,10,-4.27483e-05,-4.15137,-0.096809,-0.609447,0.60578,
2,0,0,1,0,25831.3,0.602022,0.601773,-0.0784543,39,0.964991,10,-4.72116e-05,-4.10538,-0.127077,-0.464286,0.601807,
2,0,0,0,0,25832.1,0.598027,0.597754,-0.0848271,39,0.964917,10,-5.07057e-05,-4.07147,-0.124745,-0.472965,0.597791,
2,0,0,1,0,25832.9,0.594032,0.593705,-0.0893383,39,0.964838,10,-5.30406e-05,-4.04896,-0.194155,-0.303881,0.593744,
2,0,0,0,0,25833.7,0.590037,0.589729,-0.0934872,39,0.964756,10,-5.51321e-05,-4.02925,-0.196929,-0.299601,0.589771,
2,0,0,1,0,25834.5,0.586041,0.585739,-0.0971083,39,0.964671,10,-5.68801e-05,-4.01274,-0.247466,-0.238417,0.585781,
2,0,0,1,0,25835.3,0.582046,0.581765,-0.0995452,39,0.964583,10,-5.79119e-05,-4.00198,-0.37322,-0.158084,0.581809,
2,0,0,1,0,25836.1,0.578052,0.577748,-0.102318,39,0.964493,10,-5.91143e-05,-3.99005,-0.317013,-0.186112,0.577793,
2,0,0,1,0,25836.9,0.574056,0.57376,-0.1042,39,0.964401,10,-5.97855e-05,-3.98213,-0.361906,-0.163026,0.573806,
2,0,0,0,0,25837.7,0.570061,0.569764,-0.107007,39,0.964307,10,-6.09689e-05,-3.97059,7.58952,0.00777388,0.569811,
2,0,0,1,0,25838.5,0.566065,0.565746,-0.108901,39,0.964212,10,-6.16104e-05,-3.96297,-0.598117,-0.0986429,0.565794,
2,0,0,1,0,25839.3,0.56207,0.561731,-0.11009,39,0.964115,10,-6.18413e-05,-3.95825,-0.582177,-0.101344,0.56178,
2,0,0,1,0,25840.1,0.558075,0.557793,-0.111365,39,0.964017,10,-6.21186e-05,-3.95325,-0.696026,-0.0847669,0.557842,
2,0,0,1,0,25840.9,0.55408,0.553797,-0.112348,39,0.963918,10,-6.22179e-05,-3.94944,-0.41484,-0.142224,0.553846,
2,0,0,0,0,25841.7,0.550085,0.549767,-0.113556,39,0.963818,10,-6.24294e-05,-3.94479,0.560895,0.105189,0.549817,
2,0,0,1,0,25842.5,0.54609,0.545768,-0.114428,39,0.963718,10,-6.2451e-05,-3.94147,-0.442395,-0.133365,0.545818,
2,0,0,1,0,25843.3,0.542094,0.541741,-0.115218,39,0.963617,10,-6.24181e-05,-3.93848,-0.712784,-0.0827741,0.541792,
2,0,0,1,0,25844.1,0.538099,0.537821,-0.117474,39,0.963514,10,-6.31802e-05,-3.93006,-0.860314,-0.0685796,0.537873,
2,0,0,1,0,25844.9,0.534104,0.5338,-0.118024,39,0.96341,10,-6.30009e-05,-3.92803,-0.647847,-0.091071,0.533852,
2,0,0,0,0,25845.7,0.530109,0.529797,-0.11937,39,0.963306,10,-6.3242e-05,-3.9231,-1.69069,-0.034897,0.52985,
2,0,0,1,0,25846.5,0.526114,0.525791,-0.120872,39,0.9632,10,-6.35534e-05,-3.91767,-1.3284,-0.0444143,0.525844,
2,0,0,0,0,25847.3,0.522119,0.521823,-0.120725,39,0.963094,10,-6.29969e-05,-3.9182,-0.488325,-0.120821,0.521876,
2,0,0,1,0,25848.1,0.518123,0.517787,-0.122122,39,0.962987,10,-6.32332e-05,-3.91321,2.99928,0.0196714,0.51784,
2,0,0,1,0,25848.9,0.514128,0.513811,-0.12337,39,0.962879,10,-6.33889e-05,-3.90879,-1.12652,-0.0523735,0.513865,
2,0,0,1,0,25849.7,0.510133,0.509815,-0.123507,39,0.96277,10,-6.29658e-05,-3.90831,-1.08679,-0.0542885,0.50987,
2,0,0,1,0,25850.5,0.506138,0.505762,-0.12524,39,0.962661,10,-6.33418e-05,-3.90226,-2.91557,-0.0202362,0.505817,
2,0,0,0,0,25851.3,0.502143,0.501859,-0.12547,39,0.96255,10,-6.29682e-05,-3.90146,-0.449087,-0.131378,0.501914,
2,0,0,1,0,25852,0.498148,0.497832,-0.126857,39,0.962438,10,-6.31535e-05,-3.89669,6.37678,0.00925232,0.497888,
2,0,0,1,0,25852.8,0.494152,0.493832,-0.129064,39,0.962326,10,-6.37362e-05,-3.88919,-0.923262,-0.0639038,0.493889,
2,0,0,1,0,25853.6,0.490157,0.489836,-0.129535,39,0.962213,10,-6.34511e-05,-3.88761,-0.659418,-0.0894729,0.489893,
2,0,0,1,0,25854.4,0.486162,0.485829,-0.130409,39,0.962099,10,-6.33566e-05,-3.88469,-1.71704,-0.0343614,0.485886,
2,0,0,0,0,25855.2,0.482167,0.481853,-0.132229,39,0.961984,10,-6.37151e-05,-3.87867,-0.676793,-0.0871759,0.481911,
2,0,0,1,0,25856,0.478172,0.477812,-0.133207,39,0.961868,10,-6.36478e-05,-3.87547,-1.47573,-0.0399801,0.477871,
2,0,0,0,0,25856.8,0.474177,0.473869,-0.134914,39,0.961751,10,-6.39315e-05,-3.86994,-1.40061,-0.0421246,0.473929,
2,0,0,1,0,25857.6,0.470181,0.469864,-0.136645,39,0.961633,10,-6.42046e-05,-3.86441,-1.094,-0.0539305,0.469924,
2,0,0,1,0,25858.4,0.466186,0.465878,-0.136944,39,0.961513,10,-6.3799e-05,-3.86346,-0.750405,-0.0786242,0.465939,
2,0,0,1,0,25859.2,0.462191,0.461925,-0.138056,39,0.961393,10,-6.37716e-05,-3.85994,-1.01535,-0.0581081,0.461986,
2,0,0,1,0,25860,0.458196,0.457918,-0.138975,39,0.961272,10,-6.36392e-05,-3.85706,-0.687185,-0.0858575,0.457979,
2,0,0,0,0,25860.8,0.454201,0.453921,-0.140334,39,0.961149,10,-6.37006e-05,-3.85284,-1.66773,-0.0353773,0.453983,
2,0,0,1,0,25861.6,0.450205,0.449861,-0.141815,39,0.961026,10,-6.3797e-05,-3.84828,-1.67033,-0.0353223,0.449924,
2,0,0,1,0,25862.4,0.44621,0.445923,-0.143163,39,0.960901,10,-6.38397e-05,-3.84417,-0.520072,-0.113446,0.445986,
2,0,0,1,0,25863.2,0.442215,0.441877,-0.145146,39,0.960775,10,-6.41366e-05,-3.8382,-7.42825,-0.00794266,0.441941,
2,0,0,1,0,25864,0.43822,0.437935,-0.146962,39,0.960648,10,-6.43601e-05,-3.83279,-0.394724,-0.149471,0.438,
2,0,0,0,0,25864.8,0.434225,0.433949,-0.148916,39,0.960519,10,-6.46221e-05,-3.82706,-0.994346,-0.0593355,0.434015,
2,0,0,1,0,25865.6,0.43023,0.429927,-0.151085,39,0.960389,10,-6.49555e-05,-3.82078,-0.983551,-0.0599867,0.429994,
2,0,0,1,0,25866.4,0.426234,0.42596,-0.153026,39,0.960257,10,-6.51828e-05,-3.81524,-0.602289,-0.0979596,0.426027,
2,0,0,1,0,25867.2,0.422239,0.421947,-0.153714,39,0.960124,10,-6.48589e-05,-3.81329,-0.993334,-0.0593959,0.422014,
2,0,0,1,0,25868,0.418244,0.417949,-0.155172,39,0.959989,10,-6.48538e-05,-3.80919,-0.608425,-0.0969717,0.418017,
2,0,0,0,0,25868.8,0.414249,0.413992,-0.156914,39,0.959853,10,-6.49611e-05,-3.80434,-0.741623,-0.0795552,0.414062,
2,0,0,1,0,25869.6,0.410254,0.409968,-0.160047,39,0.959715,10,-6.56141e-05,-3.79575,-2.35786,-0.0250227,0.410039,
2,0,0,0,0,25870.4,0.406259,0.405966,-0.161255,39,0.959576,10,-6.54639e-05,-3.79249,-0.468654,-0.125893,0.406037,
2,0,0,1,0,25871.2,0.402263,0.401958,-0.163351,39,0.959435,10,-6.56602e-05,-3.78688,-1.15791,-0.0509538,0.402029,
2,0,0,1,0,25872,0.398268,0.397967,-0.16422,39,0.959293,10,-6.53542e-05,-3.78457,-0.938546,-0.0628632,0.398039,
2,0,0,1,0,25872.8,0.394274,0.39398,-0.167317,39,0.959149,10,-6.59194e-05,-3.77646,-0.747555,-0.0789239,0.394054,
2,0,0,1,0,25873.6,0.390278,0.389979,-0.168468,39,0.959003,10,-6.5699e-05,-3.77348,-0.652717,-0.0903913,0.390053,
2,0,0,0,0,25874.4,0.386283,0.385949,-0.171189,39,0.958856,10,-6.60702e-05,-3.76652,-0.568091,-0.103857,0.386024,
2,0,0,1,0,25875.2,0.382287,0.382,-0.172682,39,0.958706,10,-6.59644e-05,-3.76275,-1.05226,-0.05607,0.382076,
2,0,0,1,0,25876,0.378292,0.378008,-0.175603,39,0.958555,10,-6.63792e-05,-3.75547,-2.91489,-0.0202409,0.378085,
2,0,0,1,0,25876.8,0.374297,0.37403,-0.176987,39,0.958402,10,-6.61986e-05,-3.75206,-0.46769,-0.126152,0.374108,
2,0,0,1,0,25877.6,0.370303,0.370004,-0.179816,39,0.958248,10,-6.65325e-05,-3.74517,-0.916812,-0.0643534,0.370083,
2,0,0,0,0,25878.4,0.366307,0.365973,-0.181747,39,0.958091,10,-6.65145e-05,-3.74053,-0.900174,-0.0655429,0.366053,
2,0,0,1,0,25879.2,0.362312,0.361972,-0.1833,39,0.957934,10,-6.63496e-05,-3.73684,-0.527679,-0.11181,0.362053,
2,0,0,1,0,25880,0.358316,0.357986,-0.186657,39,0.957773,10,-6.68205e-05,-3.72896,-1.04291,-0.0565726,0.358068,
2,0,0,1,0,25880.8,0.354321,0.354035,-0.189388,39,0.957611,10,-6.70501e-05,-3.72265,-0.672601,-0.0877192,0.354118,
2,0,0,1,0,25881.6,0.350327,0.349993,-0.191342,39,0.957448,10,-6.69685e-05,-3.71819,-0.700511,-0.0842242,0.350077,
2,0,0,0,0,25882.4,0.346331,0.346041,-0.192967,39,0.957282,10,-6.67745e-05,-3.71452,-0.915135,-0.0644714,0.346125,
2,0,0,1,0,25883.2,0.342336,0.342029,-0.194556,39,0.957115,10,-6.65438e-05,-3.71096,-0.586546,-0.100589,0.342115,
2,0,0,0,0,25884,0.338341,0.33805,-0.196853,39,0.956945,10,-6.65464e-05,-3.70586,-0.956185,-0.0617036,0.338137,
2,0,0,1,0,25884.8,0.334345,0.334029,-0.199143,39,0.956774,10,-6.65196e-05,-3.70083,-2.18681,-0.0269799,0.334117,
2,0,0,1,0,25885.6,0.33035,0.33003,-0.20242,39,0.956602,10,-6.68046e-05,-3.69375,-0.534059,-0.110475,0.330119,
2,0,0,1,0,25886.4,0.326355,0.326047,-0.204269,39,0.956427,10,-6.66013e-05,-3.6898,-1.67713,-0.0351791,0.326137,
2,0,0,1,0,25887.2,0.32236,0.322018,-0.207353,39,0.95625,10,-6.67715e-05,-3.68329,-0.546541,-0.107952,0.322109,
2,0,0,0,0,25888,0.318365,0.318039,-0.20808,39,0.956071,10,-6.61778e-05,-3.68177,-0.755316,-0.078113,0.318131,
2,0,0,1,0,25888.8,0.31437,0.314057,-0.211376,39,0.955891,10,-6.63839e-05,-3.67494,-1.35833,-0.0434358,0.31415,
2,0,0,1,0,25889.6,0.310374,0.310062,-0.214211,39,0.955708,10,-6.64187e-05,-3.66916,-0.588408,-0.100271,0.310156,
2,0,0,1,0,25890.4,0.306379,0.306088,-0.216502,39,0.955524,10,-6.62685e-05,-3.66454,-0.930605,-0.0633996,0.306183,
2,0,0,1,0,25891.2,0.302385,0.302072,-0.218054,39,0.955337,10,-6.58682e-05,-3.66144,-0.612125,-0.0963855,0.302168,
2,0,0,0,0,25892,0.298389,0.298087,-0.221363,39,0.955149,10,-6.59855e-05,-3.65489,-0.621334,-0.094957,0.298184,
2,0,0,1,0,25892.8,0.294394,0.29411,-0.223737,39,0.954958,10,-6.58033e-05,-3.65026,-1.55357,-0.037977,0.294209,
2,0,0,1,0,25893.6,0.290398,0.290096,-0.226922,39,0.954765,10,-6.58292e-05,-3.64412,-0.953492,-0.0618778,0.290196,
2,0,0,1,0,25894.4,0.286403,0.286074,-0.228157,39,0.95457,10,-6.527e-05,-3.64177,-0.822519,-0.0717308,0.286175,
2,0,0,1,0,25895.2,0.282408,0.282095,-0.232306,39,0.954373,10,-6.55325e-05,-3.63394,-1.14226,-0.0516521,0.282197,
2,0,0,1,0,25896,0.278414,0.27812,-0.234237,39,0.954174,10,-6.5146e-05,-3.63034,-0.55656,-0.106008,0.278223,
2,0,0,1,0,25896.8,0.274418,0.274106,-0.237366,39,0.953973,10,-6.50633e-05,-3.62458,-0.846564,-0.0696935,0.27421,
2,0,0,0,0,25897.6,0.270423,0.270131,-0.239624,39,0.95377,10,-6.47301e-05,-3.62047,-0.956712,-0.0616696,0.270237,
2,0,0,1,0,25898.4,0.266427,0.266082,-0.242004,39,0.953565,10,-6.43931e-05,-3.61618,-0.703951,-0.0838126,0.266189,
2,0,0,1,0,25899.2,0.262432,0.262106,-0.244356,39,0.953357,10,-6.40473e-05,-3.61198,-1.20362,-0.0490189,0.262214,
2,0,0,1,0,25900,0.258437,0.258107,-0.247277,39,0.953148,10,-6.38238e-05,-3.60682,-0.83066,-0.0710279,0.258215,
2,0,0,1,0,25900.8,0.254442,0.254108,-0.248423,39,0.952937,10,-6.31261e-05,-3.60481,-0.793594,-0.0743453,0.254217,
2,0,0,0,0,25901.6,0.250447,0.250167,-0.251781,39,0.952723,10,-6.29873e-05,-3.59898,-2.58765,-0.0228006,0.250278,
2,0,0,1,0,25902.4,0.246452,0.246129,-0.254026,39,0.952508,10,-6.25233e-05,-3.59512,-0.635539,-0.0928345,0.246241,
2,0,0,1,0,25903.2,0.242456,0.242144,-0.256585,39,0.95229,10,-6.21306e-05,-3.59077,-0.861488,-0.0684862,0.242257,
2,0,0,1,0,25904,0.238461,0.238134,-0.259249,39,0.952071,10,-6.17358e-05,-3.58628,-0.862651,-0.0683938,0.238248,
2,0,0,1,0,25904.8,0.234467,0.234156,-0.261507,39,0.95185,10,-6.12334e-05,-3.58252,-1.04944,-0.0562203,0.234271,
2,0,0,0,0,25905.6,0.230471,0.230196,-0.264843,39,0.951627,10,-6.0966e-05,-3.57701,-1.76706,-0.0333889,0.230313,
2,0,0,1,0,25906.4,0.226476,0.226163,-0.26599,39,0.951402,10,-6.01571e-05,-3.57513,-0.775709,-0.0760594,0.22628,
2,0,0,0,0,25907.2,0.222481,0.222171,-0.268335,39,0.951175,10,-5.96163e-05,-3.57132,-1.22521,-0.0481549,0.222289,
2,0,0,1,0,25908,0.218485,0.218127,-0.272554,39,0.950946,10,-5.94513e-05,-3.56455,-1.75645,-0.0335905,0.218247,
2,0,0,1,0,25908.8,0.21449,0.21418,-0.274634,39,0.950714,10,-5.88212e-05,-3.56125,-0.52076,-0.113296,0.214301,
2,0,0,1,0,25909.6,0.210496,0.210173,-0.277731,39,0.95048,10,-5.83717e-05,-3.55638,-1.05035,-0.0561718,0.210295,
2,0,0,1,0,25910.4,0.2065,0.206185,-0.282035,39,0.950244,10,-5.81513e-05,-3.5497,-0.757412,-0.0778969,0.206309,
2,0,0,0,0,25911.2,0.202505,0.202169,-0.28456,39,0.950005,10,-5.75292e-05,-3.54583,-0.633774,-0.0930931,0.202294,
2,0,0,1,0,25912,0.198509,0.198196,-0.287802,39,0.949763,10,-5.70412e-05,-3.54091,-1.41482,-0.0417015,0.198323,
2,0,0,1,0,25912.8,0.194514,0.194159,-0.292404,39,0.949518,10,-5.67731e-05,-3.53402,-0.540354,-0.109188,0.194288,
2,0,0,1,0,25913.6,0.190519,0.190161,-0.294092,39,0.94927,10,-5.59249e-05,-3.53152,-0.857296,-0.0688211,0.19029,
2,0,0,1,0,25914.4,0.186524,0.186155,-0.300018,39,0.949018,10,-5.58497e-05,-3.52285,-0.634663,-0.0929627,0.186287,
2,0,0,0,0,25915.2,0.182529,0.182194,-0.305181,39,0.948763,10,-5.56022e-05,-3.51544,-0.423318,-0.139375,0.182328,
2,0,0,1,0,25916,0.178534,0.178232,-0.310979,39,0.948503,10,-5.54265e-05,-3.50727,-0.456388,-0.129276,0.178369,
2,0,0,1,0,25916.8,0.174538,0.174197,-0.317042,39,0.948239,10,-5.52279e-05,-3.49888,-0.41009,-0.143871,0.174337,
2,0,0,1,0,25917.6,0.170543,0.170213,-0.324784,39,0.947968,10,-5.52826e-05,-3.48841,-0.31472,-0.187468,0.170356,
2,0,0,1,0,25918.4,0.166549,0.166236,-0.334382,39,0.947691,10,-5.55864e-05,-3.47576,-0.367309,-0.160628,0.166383,
2,0,0,0,0,25919.2,0.162553,0.162275,-0.346986,39,0.947405,10,-5.63072e-05,-3.45969,-0.211646,-0.278768,0.162428,
2,0,0,1,0,25920,0.158558,0.158264,-0.360313,39,0.947108,10,-5.70245e-05,-3.44332,-0.191476,-0.308133,0.158422,
2,0,0,0,0,25920.8,0.154563,0.154244,-0.382498,39,0.946797,10,-5.8998e-05,-3.41737,-0.171994,-0.343036,0.154412,
2,0,0,1,0,25921.6,0.150567,0.150209,-0.406214,39,0.946469,10,-6.10169e-05,-3.39125,-0.116298,-0.507319,0.150387,
2,0,0,1,0,25922.4,0.146572,0.146258,-0.439992,39,0.946117,10,-6.43522e-05,-3.35656,-0.105874,-0.557264,0.146451,
2,0,0,1,0,25923.2,0.142578,0.142257,-0.487808,39,0.945734,10,-6.93942e-05,-3.31175,-0.0888551,-0.664002,0.142472,
2,0,0,1,0,25924,0.138582,0.138263,-0.540351,39,0.94531,10,-7.47108e-05,-3.26732,-0.0880992,-0.669699,0.138501,
2,0,0,0,0,25924.8,0.134587,0.134271,-0.596786,39,0.944841,10,-8.0131e-05,-3.22418,-0.0960444,-0.6143,0.134534,
2,0,0,1,0,25925.6,0.130591,0.130278,-0.652611,39,0.944327,10,-8.5021e-05,-3.18535,-0.122845,-0.480279,0.130565,
2,0,0,1,0,25926.4,0.126596,0.126303,-0.690295,39,0.943774,10,-8.71862e-05,-3.16097,-0.178209,-0.331071,0.126607,
2,0,0,1,0,25927.2,0.122602,0.122218,-0.720225,39,0.943194,10,-8.80248e-05,-3.14253,-0.361291,-0.163303,0.122535,
2,0,0,1,0,25928,0.118607,0.118285,-0.73386,39,0.942597,10,-8.68045e-05,-3.13439,-0.580975,-0.101553,0.118608,
2,0,0,0,0,25928.8,0.114611,0.114311,-0.738864,39,0.941992,10,-8.44602e-05,-3.13144,3.42518,0.0172254,0.114636,
2,0,0,1,0,25929.6,0.110616,0.110223,-0.736215,39,0.941389,10,-8.11479e-05,-3.133,1.63928,0.0359913,0.110547,
2,0,0,1,0,25930.4,0.10662,0.106289,-0.7284,39,0.94079,10,-7.74207e-05,-3.13763,0.92016,0.0641193,0.106609,
2,0,0,1,0,25931.2,0.102625,0.102291,-0.719954,39,0.940196,10,-7.36451e-05,-3.1427,0.567551,0.103955,0.102608,
2,0,0,1,0,25932,0.0986305,0.0982525,-0.70943,39,0.93961,10,-6.97033e-05,-3.14909,0.643202,0.0917286,0.0985646,
2,0,0,0,0,25932.8,0.0946351,0.0942958,-0.694973,39,0.939033,10,-6.55331e-05,-3.15803,0.519015,0.113677,0.0946016,
2,0,0,1,0,25933.6,0.0906399,0.0903204,-0.686742,39,0.938465,10,-6.20267e-05,-3.16321,0.545281,0.108201,0.0906225,
2,0,0,0,0,25934.4,0.0866448,0.0863311,-0.675353,39,0.937907,10,-5.83039e-05,-3.17047,0.705782,0.0835952,0.0866283,
2,0,0,1,0,25935.1,0.0826492,0.0823255,-0.66517,39,0.937357,10,-5.47605e-05,-3.17707,0.523556,0.112691,0.0826182,
2,0,0,1,0,25935.9,0.0786544,0.0783323,-0.6549,39,0.936817,10,-5.12998e-05,-3.18382,0.586714,0.10056,0.0786204,
2,0,0,1,0,25936.7,0.0746596,0.0743583,-0.643683,39,0.936284,10,-4.78632e-05,-3.19133,0.601916,0.0980203,0.0746415,
2,0,0,1,0,25937.5,0.0706641,0.0703211,-0.63556,39,0.935758,10,-4.46933e-05,-3.19684,0.708676,0.0832538,0.0706007,
2,0,0,0,0,25938.3,0.0666689,0.0663806,-0.626781,39,0.93524,10,-4.16061e-05,-3.20288,0.685909,0.0860172,0.0666564,
2,0,0,1,0,25939.1,0.0626737,0.0623585,-0.615297,39,0.934729,10,-3.8369e-05,-3.21092,0.615645,0.0958344,0.0626292,
2,0,0,1,0,25939.9,0.0586783,0.05837,-0.6087,39,0.934225,10,-3.55298e-05,-3.2156,0.479312,0.123093,0.0586379,
2,0,0,1,0,25940.7,0.0546835,0.0543705,-0.597807,39,0.933729,10,-3.25031e-05,-3.22344,0.658794,0.0895576,0.0546336,
2,0,0,1,0,25941.5,0.0506886,0.0503754,-0.587243,39,0.93324,10,-2.95826e-05,-3.23118,0.495201,0.119144,0.0506338,
2,0,0,0,0,25942.3,0.046693,0.0463665,-0.576082,39,0.932761,10,-2.67109e-05,-3.23952,0.551829,0.106917,0.04662,
2,0,0,1,0,25943.1,0.0426979,0.042355,-0.566317,39,0.93229,10,-2.39863e-05,-3.24694,0.498641,0.118322,0.0426042,
2,0,0,1,0,25943.9,0.0387022,0.038363,-0.55598,39,0.931828,10,-2.13291e-05,-3.25494,0.417311,0.141381,0.0386077,
2,0,0,1,0,25944.7,0.0347074,0.0343893,-0.545415,39,0.931374,10,-1.87564e-05,-3.26327,0.501148,0.11773,0.0346293,
2,0,0,1,0,25945.5,0.0307126,0.0303841,-0.532307,39,0.930929,10,-1.61737e-05,-3.27384,0.491889,0.119946,0.0306183,
2,0,0,0,0,25946.3,0.0267172,0.0263439,-0.523932,39,0.930491,10,-1.38024e-05,-3.28072,0.422481,0.139651,0.0265744,
2,0,0,1,0,25947.1,0.022722,0.0224321,-0.516366,39,0.930062,10,-1.15832e-05,-3.28704,0.866818,0.068065,0.0226593,
2,0,0,0,0,25947.9,0.0187268,0.0184195,-0.509028,39,0.929638,10,-9.37603e-06,-3.29326,0.618671,0.0953658,0.0186435,
2,0,0,1,0,25948.7,0.0147313,0.0144351,-0.505678,39,0.92922,10,-7.29953e-06,-3.29613,1.14758,0.0514125,0.0146576,
2,0,0,1,0,25949.5,0.0107365,0.0104016,-0.500432,39,0.928805,10,-5.20527e-06,-3.30066,1.59046,0.0370961,0.0106217,
2,0,0,1,0,25950.3,0.00674163,0.00641922,-0.499314,39,0.928392,10,-3.2052e-06,-3.30163,5.23316,0.0112742,0.00663891,
2,0,0,1,0,25951.1,0.00274612,0.0023978,-0.498179,39,0.92798,10,-1.19453e-06,-3.30261,-1.4479,-0.0407486,0.002617,
2,0,0,0,0,25951.6,0.000274105,-0.000117749,-0.499178,39,0.927723,10,5.87777e-08,-3.30174, , ,0.000101889,