File: Figure_codes/Fig_3-5/workspace_calculate_alpha_eff/20221101_1-115_003_TrumpetPlot_ParaChange_from10_every3_16_CV_C01_4.csv
mode,ox/red,error,control changes,counter inc.,time/s,control/V,Ewe/V,<I>/mA,cycle number,(Q-Qo)/C,I Range,P/W,log(|I|),Tafel slope mV/dec,alpha_eff,E-IR/V,
2,0,0,0,0,3570.25,2.44065e-05,-0.000439847,-0.0968499,5,0.0000000E+000,10,4.25992e-08,-4.0139, , ,-0.000397234,
2,1,0,0,0,3571,0.00379485,0.0034879,0.166441,5,0.000116813,10,5.80528e-07,-3.77874,0.0489675,1.20488,0.00341466,
2,1,0,1,0,3571.8,0.00779002,0.00747291,0.187991,5,0.000273733,10,1.40484e-06,-3.72586,0.088717,0.665036,0.00739019,
2,1,0,0,0,3572.6,0.0117852,0.0114812,0.201491,5,0.000444634,10,2.31336e-06,-3.69575,0.131155,0.44985,0.0113926,
2,1,0,1,0,3573.4,0.0157806,0.0154526,0.214159,5,0.000625955,10,3.30931e-06,-3.66926,0.186212,0.316844,0.0153583,
2,1,0,1,0,3574.2,0.0197754,0.019448,0.226643,5,0.000816517,10,4.40777e-06,-3.64466,0.18264,0.32304,0.0193483,
2,1,0,1,0,3575,0.0237704,0.0234349,0.237277,5,0.00101653,10,5.56056e-06,-3.62474,0.189825,0.310813,0.0233305,
2,1,0,1,0,3575.8,0.0277659,0.0274329,0.250369,5,0.00122574,10,6.86836e-06,-3.60142,0.172331,0.342364,0.0273228,
2,1,0,0,0,3576.6,0.0317611,0.0314625,0.263636,5,0.00144536,10,8.29464e-06,-3.579,0.197522,0.298701,0.0313465,
2,1,0,1,0,3577.4,0.0357567,0.0354605,0.278658,5,0.00167601,10,9.88135e-06,-3.55493,0.213119,0.276841,0.0353379,
2,1,0,1,0,3578.2,0.0397516,0.0394285,0.292314,5,0.00191792,10,1.15255e-05,-3.53415,0.139008,0.424435,0.0392998,
2,1,0,1,0,3578.99,0.0437465,0.0434438,0.306517,5,0.00217272,10,1.33163e-05,-3.51355,0.174873,0.337387,0.0433089,
2,1,0,1,0,3579.79,0.0477413,0.0474052,0.324575,5,0.00243945,10,1.53865e-05,-3.48868,0.18178,0.324569,0.0472624,
2,1,0,0,0,3580.59,0.0517369,0.0514639,0.338373,5,0.00271867,10,1.7414e-05,-3.4706,0.193778,0.304472,0.051315,
2,1,0,1,0,3581.39,0.0557321,0.0554086,0.354684,5,0.00301102,10,1.96525e-05,-3.45016,0.255368,0.231039,0.0552525,
2,1,0,1,0,3582.19,0.0597277,0.0593737,0.370152,5,0.00331514,10,2.19773e-05,-3.43162,0.215706,0.27352,0.0592108,
2,1,0,1,0,3582.99,0.0637226,0.0634062,0.383703,5,0.00363166,10,2.43291e-05,-3.41601,0.226222,0.260806,0.0632373,
2,1,0,1,0,3583.79,0.0677174,0.0673803,0.398689,5,0.00396043,10,2.68638e-05,-3.39937,0.334526,0.176369,0.0672049,
2,1,0,0,0,3584.59,0.0717128,0.0714112,0.412413,5,0.00429945,10,2.94509e-05,-3.38467,0.237956,0.247945,0.0712297,
2,1,0,1,0,3585.39,0.075708,0.0754047,0.423535,5,0.00464919,10,3.19365e-05,-3.37311,0.347887,0.169595,0.0752183,
2,1,0,0,0,3586.19,0.0797031,0.0794151,0.437763,5,0.00500828,10,3.4765e-05,-3.35876,0.349201,0.168957,0.0792225,
2,1,0,1,0,3586.98,0.0836986,0.0833784,0.448509,5,0.00537642,10,3.7396e-05,-3.34823,0.353294,0.167,0.083181,
2,1,0,1,0,3587.78,0.0876935,0.0873797,0.461386,5,0.0057549,10,4.03157e-05,-3.33594,0.302058,0.195327,0.0871766,
2,1,0,1,0,3588.58,0.0916883,0.0913782,0.476893,5,0.00614421,10,4.35777e-05,-3.32158,0.249151,0.236804,0.0911684,
2,1,0,1,0,3589.38,0.0956838,0.0953658,0.493778,5,0.00654734,10,4.70895e-05,-3.30647,0.215834,0.273358,0.0951485,
2,1,0,0,0,3590.18,0.099679,0.0993688,0.518502,5,0.00696706,10,5.15229e-05,-3.28525,0.227668,0.259149,0.0991406,
2,1,0,1,0,3590.98,0.103674,0.103336,0.546015,5,0.00740601,10,5.64229e-05,-3.2628,0.156158,0.377821,0.103096,
2,1,0,1,0,3591.78,0.10767,0.107379,0.572016,5,0.00786784,10,6.14227e-05,-3.24259,0.198557,0.297144,0.107128,
2,1,0,1,0,3592.58,0.111664,0.111332,0.599734,5,0.00835184,10,6.67698e-05,-3.22204,0.18542,0.318196,0.111068,
2,1,0,1,0,3593.38,0.115659,0.115327,0.62641,5,0.00885782,10,7.22423e-05,-3.20314,0.206046,0.286344,0.115052,
2,1,0,0,0,3594.18,0.119655,0.119333,0.652611,5,0.00938537,10,7.7878e-05,-3.18535,0.289953,0.203481,0.119046,
2,1,0,1,0,3594.97,0.12365,0.12334,0.676718,5,0.00993122,10,8.34666e-05,-3.16959,0.271703,0.217149,0.123043,
2,1,0,1,0,3595.77,0.127646,0.127332,0.698081,5,0.0104952,10,8.88882e-05,-3.15609,0.321009,0.183795,0.127025,
2,1,0,1,0,3596.57,0.13164,0.131329,0.716543,5,0.0110768,10,9.41025e-05,-3.14476,0.560956,0.105178,0.131013,
2,1,0,1,0,3597.37,0.135635,0.135316,0.726299,5,0.0116694,10,9.828e-05,-3.13888,1.13099,0.0521667,0.134997,
2,1,0,0,0,3598.17,0.139631,0.13934,0.714226,5,0.0122628,10,9.95201e-05,-3.14616,-0.265073,-0.22258,0.139025,
2,1,0,1,0,3598.97,0.143626,0.143314,0.681573,5,0.0128372,10,9.76791e-05,-3.16649,-0.130449,-0.452285,0.143014,
2,1,0,0,0,3599.77,0.147621,0.147285,0.617163,5,0.013372,10,9.08991e-05,-3.2096,-0.0826371,-0.713965,0.147014,
2,1,0,1,0,3600.57,0.151617,0.151296,0.546428,5,0.0138518,10,8.26725e-05,-3.26247,-0.0701798,-0.840697,0.151056,
2,1,0,1,0,3601.37,0.155612,0.155266,0.480536,5,0.0142753,10,7.46108e-05,-3.31827,-0.0752631,-0.783917,0.155055,
2,1,0,1,0,3602.17,0.159606,0.159289,0.427774,5,0.0146514,10,6.81397e-05,-3.36879,-0.0873328,-0.675577,0.159101,
2,1,0,1,0,3602.97,0.163602,0.163273,0.386353,5,0.014991,10,6.30811e-05,-3.41302,0.119634,0.493172,0.163103,
2,1,0,0,0,3603.76,0.167597,0.167267,0.377238,5,0.0153504,10,6.30994e-05,-3.42338,-0.043504,-1.3562,0.167101,
2,1,0,1,0,3604.56,0.171592,0.171274,0.337062,5,0.0156493,10,5.77299e-05,-3.47229,-0.122169,-0.482937,0.171126,
2,1,0,1,0,3605.36,0.175588,0.175262,0.319656,5,0.0159266,10,5.60237e-05,-3.49532,-0.187688,-0.314352,0.175122,
2,1,0,1,0,3606.16,0.179582,0.179319,0.304374,5,0.0161909,10,5.45802e-05,-3.51659,-0.256333,-0.230169,0.179185,
2,1,0,1,0,3606.96,0.183577,0.183289,0.29415,5,0.0164459,10,5.39145e-05,-3.53143,-0.252606,-0.233566,0.183159,
2,1,0,0,0,3607.76,0.187573,0.187203,0.284913,5,0.0166933,10,5.33367e-05,-3.54529,-0.362281,-0.162857,0.187078,
2,1,0,1,0,3608.56,0.191568,0.191273,0.279522,5,0.0169346,10,5.3465e-05,-3.55358,-0.396664,-0.148741,0.19115,
2,1,0,0,0,3609.36,0.195563,0.195231,0.273933,5,0.0171715,10,5.34801e-05,-3.56236,-0.398164,-0.14818,0.19511,
2,1,0,1,0,3610.16,0.199559,0.199249,0.269514,5,0.017404,10,5.37003e-05,-3.56942,-1.43893,-0.0410027,0.19913,
2,1,0,1,0,3610.96,0.203553,0.203248,0.264243,5,0.0176334,10,5.37069e-05,-3.578,-0.561711,-0.105036,0.203132,
2,1,0,1,0,3611.75,0.207548,0.20726,0.263407,5,0.0178598,10,5.45936e-05,-3.57937,-0.911671,-0.0647163,0.207144,
2,1,0,1,0,3612.55,0.211544,0.21126,0.25944,5,0.0180833,10,5.48092e-05,-3.58596,-0.554545,-0.106393,0.211146,
2,1,0,0,0,3613.35,0.215539,0.215187,0.256295,5,0.0183046,10,5.51515e-05,-3.59126,-1.21422,-0.0485908,0.215075,
2,1,0,1,0,3614.15,0.219535,0.219215,0.254876,5,0.0185239,10,5.58727e-05,-3.59367,-0.825092,-0.0715072,0.219103,
2,1,0,1,0,3614.95,0.223529,0.223197,0.251462,5,0.0187414,10,5.61256e-05,-3.59953,-1.38277,-0.0426681,0.223086,
2,1,0,1,0,3615.75,0.227524,0.22723,0.248288,5,0.0189573,10,5.64185e-05,-3.60504,-1.25738,-0.0469228,0.227121,
2,1,0,1,0,3616.55,0.23152,0.231229,0.248489,5,0.0191714,10,5.74579e-05,-3.60469,-1.3418,-0.0439708,0.23112,
2,1,0,0,0,3617.35,0.235515,0.235209,0.245772,5,0.0193846,10,5.78079e-05,-3.60947,-2.10538,-0.0280235,0.235101,
2,1,0,1,0,3618.15,0.23951,0.239186,0.245197,5,0.0195964,10,5.86475e-05,-3.61049,-0.941981,-0.062634,0.239078,
2,1,0,1,0,3618.95,0.243506,0.243164,0.243784,5,0.0198072,10,5.92796e-05,-3.61299,-3.64026,-0.0162076,0.243057,
2,1,0,1,0,3619.74,0.2475,0.247176,0.242645,5,0.0200174,10,5.99758e-05,-3.61503,215.235,0.000274118,0.247069,
2,1,0,1,0,3620.54,0.251495,0.251172,0.241498,5,0.0202261,10,6.06576e-05,-3.61709,-1.2257,-0.0481357,0.251066,
2,1,0,0,0,3621.34,0.255491,0.25518,0.241796,5,0.0204341,10,6.17014e-05,-3.61655,-5.12537,-0.0115114,0.255073,
2,1,0,1,0,3622.14,0.259486,0.259201,0.23935,5,0.0206413,10,6.20398e-05,-3.62097,-1.12088,-0.052637,0.259095,
2,1,0,0,0,3622.94,0.263481,0.26318,0.23969,5,0.0208473,10,6.30817e-05,-3.62035,-2.41999,-0.0243803,0.263075,
2,1,0,1,0,3623.74,0.267476,0.267168,0.236501,5,0.0210527,10,6.31856e-05,-3.62617,-1.75393,-0.0336388,0.267064,
2,1,0,1,0,3624.54,0.271471,0.271187,0.237227,5,0.0212574,10,6.4333e-05,-3.62484,2.86047,0.020626,0.271083,
2,1,0,1,0,3625.34,0.275466,0.275172,0.235391,5,0.0214615,10,6.47731e-05,-3.62821,-1.21542,-0.0485428,0.275069,
2,1,0,1,0,3626.14,0.279462,0.279161,0.234196,5,0.0216649,10,6.53783e-05,-3.63042,-2.37823,-0.0248083,0.279058,
2,1,0,0,0,3626.94,0.283457,0.283138,0.236035,5,0.0218675,10,6.68305e-05,-3.62702,-9.31108,-0.00633654,0.283034,
2,1,0,1,0,3627.74,0.287452,0.287128,0.233661,5,0.0220692,10,6.70904e-05,-3.63141,-1.8836,-0.031323,0.287025,
2,1,0,1,0,3628.53,0.291448,0.291105,0.233089,5,0.0222704,10,6.78534e-05,-3.63248,-1.34133,-0.0439862,0.291003,
2,1,0,1,0,3629.33,0.295442,0.295126,0.231896,5,0.0224707,10,6.84385e-05,-3.63471,4.14244,0.0142428,0.295024,
2,1,0,1,0,3630.13,0.299437,0.299148,0.228986,5,0.0226704,10,6.85006e-05,-3.64019,-1.36004,-0.0433811,0.299047,
2,1,0,0,0,3630.93,0.303433,0.303124,0.230306,5,0.0228691,10,6.98112e-05,-3.63769,-4.85545,-0.0121513,0.303022,
2,1,0,1,0,3631.73,0.307428,0.307091,0.227916,5,0.023067,10,6.9991e-05,-3.64222,-0.925018,-0.0637826,0.30699,
2,1,0,1,0,3632.53,0.311424,0.3111,0.227898,5,0.0232644,10,7.08993e-05,-3.64226,-9.93935,-0.005936,0.311,
2,1,0,1,0,3633.33,0.315418,0.315045,0.227178,5,0.023461,10,7.15712e-05,-3.64363,-1.28993,-0.0457389,0.314945,
2,1,0,1,0,3634.13,0.319413,0.319126,0.226881,5,0.023657,10,7.24037e-05,-3.6442,-5.6149,-0.0105078,0.319026,
2,1,0,0,0,3634.93,0.323409,0.323077,0.226594,5,0.0238528,10,7.32075e-05,-3.64475,-2.06381,-0.0285879,0.322978,
2,1,0,1,0,3635.73,0.327404,0.327092,0.225481,5,0.0240477,10,7.37532e-05,-3.64689,4.0429,0.0145935,0.326993,
2,1,0,0,0,3636.52,0.331399,0.331103,0.224426,5,0.0242422,10,7.43082e-05,-3.64893,16.831,0.00350543,0.331004,
2,1,0,1,0,3637.32,0.335395,0.33507,0.224498,5,0.0244362,10,7.52225e-05,-3.64879,-2.49825,-0.0236165,0.334971,
2,1,0,1,0,3638.12,0.339389,0.339068,0.224605,5,0.0246295,10,7.61564e-05,-3.64858,-1.28955,-0.0457525,0.338969,
2,1,0,1,0,3638.92,0.343384,0.343069,0.223874,5,0.0248225,10,7.68041e-05,-3.65,4.4161,0.0133602,0.34297,
2,1,0,1,0,3639.72,0.34738,0.347095,0.223146,5,0.025015,10,7.74528e-05,-3.65141,-1.41753,-0.0416218,0.346996,
2,1,0,0,0,3640.52,0.351375,0.351045,0.222057,5,0.0252071,10,7.79518e-05,-3.65354,-1.79934,-0.0327899,0.350947,
2,1,0,1,0,3641.32,0.35537,0.35509,0.220479,5,0.0253987,10,7.829e-05,-3.65663,-3.92274,-0.0150405,0.354993,
2,1,0,1,0,3642.12,0.359365,0.359059,0.220299,5,0.0255896,10,7.91004e-05,-3.65699,2.39255,0.0246599,0.358962,
2,1,0,1,0,3642.92,0.36336,0.363068,0.219281,5,0.0257802,10,7.96141e-05,-3.659,-3.09515,-0.0190621,0.362972,
2,1,0,1,0,3643.72,0.367355,0.367029,0.219991,5,0.0259704,10,8.0743e-05,-3.6576,84.7442,0.000696213,0.366932,
2,1,0,0,0,3644.51,0.371351,0.371041,0.219639,5,0.0261602,10,8.14951e-05,-3.65829,-2.31033,-0.0255374,0.370944,
2,1,0,1,0,3645.31,0.375346,0.375073,0.218931,5,0.0263498,10,8.21152e-05,-3.65969,-3.56936,-0.0165296,0.374977,
2,1,0,1,0,3646.11,0.379342,0.37906,0.219571,5,0.0265387,10,8.32306e-05,-3.65842,-1.43082,-0.0412351,0.378963,
2,1,0,1,0,3646.91,0.383336,0.383017,0.217719,5,0.0267271,10,8.33899e-05,-3.6621,-4.59092,-0.0128514,0.382921,
2,1,0,1,0,3647.71,0.387331,0.387013,0.216928,5,0.0269153,10,8.39541e-05,-3.66368,-1.86118,-0.0317004,0.386918,
2,1,0,0,0,3648.51,0.391327,0.390998,0.216692,5,0.0271029,10,8.47259e-05,-3.66416,8.51543,0.0069286,0.390902,
2,1,0,1,0,3649.31,0.395322,0.395026,0.215405,5,0.0272906,10,8.50905e-05,-3.66674,-9.2805,-0.00635742,0.394931,
2,1,0,0,0,3650.11,0.399317,0.398981,0.216393,5,0.027478,10,8.63367e-05,-3.66476,2.02302,0.0291643,0.398886,
2,1,0,1,0,3650.91,0.403313,0.403002,0.216489,5,0.0276651,10,8.72454e-05,-3.66456,-2.21077,-0.0266875,0.402906,
2,1,0,1,0,3651.71,0.407307,0.407085,0.216296,5,0.0278522,10,8.8051e-05,-3.66495,-2.94709,-0.0200197,0.40699,
2,1,0,1,0,3652.51,0.411302,0.410972,0.217911,5,0.0280387,10,8.95554e-05,-3.66172,2.28794,0.0257874,0.410876,
2,1,0,1,0,3653.3,0.415298,0.415021,0.215866,5,0.0282254,10,8.95888e-05,-3.66582,18.3616,0.00321323,0.414926,
2,1,0,0,0,3654.1,0.419293,0.41903,0.215932,5,0.028412,10,9.04821e-05,-3.66568,-1.25428,-0.0470389,0.418935,
2,1,0,1,0,3654.9,0.423288,0.423004,0.216077,5,0.0285983,10,9.14013e-05,-3.66539,1.07872,0.0546943,0.422909,
2,1,0,1,0,3655.7,0.427283,0.426987,0.215524,5,0.028785,10,9.20257e-05,-3.66651,-1.21824,-0.0484303,0.426892,
2,1,0,1,0,3656.5,0.431278,0.430993,0.216095,5,0.0289713,10,9.31355e-05,-3.66535,8.52379,0.0069218,0.430898,
2,1,0,1,0,3657.3,0.435273,0.43501,0.215131,5,0.0291576,10,9.35841e-05,-3.6673,2.65067,0.0222585,0.434916,
2,1,0,0,0,3658.1,0.439269,0.439023,0.216609,5,0.0293441,10,9.50965e-05,-3.66432,80.157,0.000736056,0.438928,
2,1,0,1,0,3658.9,0.443264,0.44298,0.215317,5,0.0295305,10,9.53809e-05,-3.66692,3.90915,0.0150928,0.442885,
2,1,0,0,0,3659.7,0.447259,0.44695,0.215716,5,0.0297171,10,9.64144e-05,-3.66612,-1.44818,-0.0407407,0.446855,
2,1,0,1,0,3660.5,0.451254,0.450963,0.216477,5,0.0299041,10,9.76232e-05,-3.66459,1.40093,0.0421149,0.450867,
2,1,0,1,0,3661.29,0.455249,0.455006,0.217308,5,0.0300909,10,9.88765e-05,-3.66292,1.66459,0.0354442,0.45491,
2,1,0,1,0,3662.09,0.459244,0.458953,0.215211,5,0.0302781,10,9.87719e-05,-3.66713,-5.71515,-0.0103234,0.458858,
2,1,0,1,0,3662.89,0.46324,0.462948,0.217089,5,0.0304652,10,0.000100501,-3.66336,2.84809,0.0207157,0.462853,
2,1,0,0,0,3663.69,0.467235,0.466944,0.218024,5,0.0306525,10,0.000101805,-3.6615,-3.8896,-0.0151686,0.466848,
2,1,0,1,0,3664.49,0.471231,0.470887,0.21878,5,0.0308405,10,0.00010302,-3.65999,1.57205,0.0375306,0.47079,
2,1,0,1,0,3665.29,0.475225,0.474936,0.21965,5,0.0310287,10,0.00010432,-3.65827,-6.06846,-0.0097224,0.474839,
2,1,0,1,0,3666.09,0.47922,0.478919,0.219784,5,0.0312174,10,0.000105259,-3.658,1.57263,0.0375167,0.478822,
2,1,0,1,0,3666.89,0.483216,0.482915,0.219935,5,0.0314067,10,0.00010621,-3.65771,-5.88426,-0.0100267,0.482818,
2,1,0,0,0,3667.69,0.487211,0.48691,0.220779,5,0.0315965,10,0.000107499,-3.65604,1.58378,0.0372526,0.486813,
2,1,0,1,0,3668.49,0.491206,0.490877,0.220861,5,0.0317868,10,0.000108416,-3.65588,2.08842,0.0282511,0.49078,
2,1,0,1,0,3669.29,0.495201,0.494936,0.221886,5,0.0319777,10,0.000109819,-3.65387,1.25076,0.0471714,0.494838,
2,1,0,1,0,3670.08,0.499196,0.498919,0.224274,5,0.0321694,10,0.000111895,-3.64922,2.39482,0.0246365,0.498821,
2,1,0,1,0,3670.88,0.503191,0.502876,0.225026,5,0.0323624,10,0.00011316,-3.64777,3.17328,0.0185927,0.502777,
2,1,0,0,0,3671.68,0.507187,0.506911,0.226493,5,0.0325562,10,0.000114812,-3.64495,0.766048,0.0770187,0.506811,
2,1,0,1,0,3672.48,0.511182,0.510901,0.228354,5,0.0327512,10,0.000116666,-3.64139,3.8269,0.0154172,0.5108,
2,1,0,0,0,3673.28,0.515177,0.514946,0.229469,5,0.0329473,10,0.000118164,-3.63928,2.02123,0.0291902,0.514845,
2,1,0,1,0,3674.08,0.519172,0.5189,0.230823,5,0.0331445,10,0.000119774,-3.63672,1.07085,0.0550962,0.518798,
2,1,0,1,0,3674.88,0.523167,0.52286,0.232172,5,0.0333432,10,0.000121394,-3.63419,1.15036,0.0512881,0.522758,
2,1,0,1,0,3675.68,0.527162,0.526843,0.233839,5,0.0335433,10,0.000123196,-3.63108,1.8382,0.0320966,0.52674,
2,1,0,1,0,3676.48,0.531158,0.530896,0.235606,5,0.0337444,10,0.000125082,-3.62781,0.786035,0.0750603,0.530792,
2,1,0,0,0,3677.28,0.535153,0.534816,0.23765,5,0.0339473,10,0.000127099,-3.62406,1.24929,0.0472268,0.534712,
2,1,0,1,0,3678.07,0.539148,0.538884,0.242169,5,0.0341521,10,0.000130501,-3.61588,0.712012,0.0828637,0.538777,
2,1,0,1,0,3678.87,0.543143,0.542852,0.243303,5,0.0343591,10,0.000132078,-3.61385,0.602989,0.097846,0.542745,
2,1,0,1,0,3679.67,0.547138,0.546838,0.246616,5,0.0345683,10,0.000134859,-3.60798,1.16228,0.0507622,0.546729,
2,1,0,1,0,3680.47,0.551133,0.550906,0.249615,5,0.0347797,10,0.000137515,-3.60273,0.527308,0.111889,0.550797,
2,1,0,0,0,3681.27,0.555129,0.554845,0.252466,5,0.034994,10,0.000140079,-3.5978,0.687052,0.0858742,0.554734,
2,1,0,1,0,3682.07,0.559124,0.558879,0.257189,5,0.0352112,10,0.000143737,-3.58975,0.512126,0.115206,0.558766,
2,1,0,1,0,3682.87,0.56312,0.562795,0.260499,5,0.0354317,10,0.000146608,-3.58419,0.473702,0.124551,0.562681,
2,1,0,1,0,3683.67,0.567114,0.566807,0.267156,5,0.0356561,10,0.000151426,-3.57324,0.604212,0.0976478,0.566689,
2,1,0,1,0,3684.47,0.571109,0.570808,0.273419,5,0.0358848,10,0.00015607,-3.56317,0.395515,0.149173,0.570688,
2,1,0,0,0,3685.27,0.575105,0.574808,0.278572,5,0.0361183,10,0.000160126,-3.55506,0.342138,0.172445,0.574686,
2,1,0,1,0,3686.06,0.5791,0.578764,0.286646,5,0.0363576,10,0.0001659,-3.54265,0.376427,0.156737,0.578638,
2,1,0,0,0,3686.86,0.583095,0.582876,0.294162,5,0.0366027,10,0.00017146,-3.53141,0.296747,0.198822,0.582746,
2,1,0,1,0,3687.66,0.58709,0.586805,0.303007,5,0.036855,10,0.000177806,-3.51855,0.273995,0.215332,0.586672,
2,1,0,1,0,3688.46,0.591085,0.590811,0.315049,5,0.0371152,10,0.000186134,-3.50162,0.272717,0.216342,0.590672,
2,1,0,1,0,3689.26,0.59508,0.594808,0.327475,5,0.0373843,10,0.000194785,-3.48482,0.218145,0.270462,0.594664,
2,1,0,1,0,3690.06,0.599076,0.598791,0.340456,5,0.0376643,10,0.000203862,-3.46794,0.223437,0.264057,0.598641,
2,1,0,0,0,3690.86,0.603071,0.602772,0.35667,5,0.0379559,10,0.000214991,-3.44773,0.181506,0.325059,0.602615,
2,1,0,1,0,3691.66,0.607066,0.606801,0.375393,5,0.0382615,10,0.000227789,-3.42551,0.169535,0.34801,0.606636,
2,1,0,1,0,3692.46,0.611061,0.610799,0.398167,5,0.0385837,10,0.0002432,-3.39993,0.15907,0.370906,0.610624,
2,1,0,1,0,3693.26,0.615056,0.614814,0.423228,5,0.0389249,10,0.000260207,-3.37343,0.134323,0.439239,0.614628,
2,1,0,1,0,3694.06,0.619051,0.61882,0.452698,5,0.0392888,10,0.000280138,-3.34419,0.128778,0.458154,0.618621,
2,1,0,0,0,3694.85,0.623047,0.622806,0.489652,5,0.0396785,10,0.000304958,-3.31011,0.115429,0.511138,0.62259,
2,1,0,1,0,3695.65,0.627042,0.626731,0.531564,5,0.0400991,10,0.000333148,-3.27444,0.106115,0.556,0.626497,
2,1,0,1,0,3696.45,0.631037,0.630767,0.581038,5,0.0405558,10,0.000366499,-3.2358,0.100653,0.586173,0.630511,
2,1,0,1,0,3697.25,0.635032,0.634738,0.638045,5,0.0410556,10,0.000404992,-3.19515,0.0897293,0.657533,0.634458,
2,1,0,1,0,3698.05,0.639027,0.638717,0.707713,5,0.0416069,10,0.000452028,-3.15014,0.0857586,0.687978,0.638405,
2,1,0,1,0,3698.85,0.643022,0.642782,0.792629,5,0.0422193,10,0.000509488,-3.10093,0.080038,0.73715,0.642433,
2,1,0,1,0,3699.65,0.647018,0.646721,0.890615,5,0.0429042,10,0.000575979,-3.05031,0.0750564,0.786076,0.646329,
2,1,0,0,0,3700.45,0.651013,0.65079,1.00684,5,0.043675,10,0.000655241,-2.99704,0.0732554,0.805401,0.650347,
2,1,0,1,0,3701.25,0.655008,0.654754,1.14541,5,0.044547,10,0.000749962,-2.94104,0.0688056,0.857488,0.65425,
2,1,0,1,0,3702.05,0.659003,0.658751,1.30825,5,0.0455385,10,0.000861809,-2.88331,0.067163,0.87846,0.658176,
2,1,0,1,0,3702.84,0.662998,0.662752,1.49692,5,0.0466708,10,0.000992084,-2.8248,0.0648442,0.909873,0.662093,
2,1,0,1,0,3703.64,0.666994,0.666739,1.71969,5,0.047967,10,0.00114659,-2.76455,0.0646612,0.912448,0.665983,
2,1,0,0,0,3704.44,0.670989,0.670696,1.97629,5,0.0494554,10,0.00132549,-2.70415,0.064369,0.916591,0.669826,
2,1,0,1,0,3705.24,0.674984,0.674739,2.27352,5,0.0511647,10,0.00153403,-2.6433,0.063034,0.936002,0.673739,
2,1,0,1,0,3706.04,0.678979,0.678658,2.6115,5,0.0531275,10,0.00177232,-2.58311,0.0631179,0.934758,0.677509,
2,1,0,1,0,3706.84,0.682974,0.682706,2.99552,5,0.0553794,10,0.00204506,-2.52353,0.0649298,0.908674,0.681388,
2,1,0,1,0,3707.64,0.686969,0.686706,3.42751,5,0.0579563,10,0.00235369,-2.46502,0.0666143,0.885696,0.685198,
2,1,0,0,0,3708.44,0.690965,0.690696,3.90775,5,0.0608983,10,0.00269907,-2.40807,0.0666368,0.885397,0.688977,
2,1,0,1,0,3709.24,0.69496,0.694757,4.43877,5,0.0642441,10,0.00308387,-2.35274,0.0692478,0.852013,0.692804,
2,1,0,0,0,3710.04,0.698955,0.698654,5.01753,5,0.0680332,10,0.00350552,-2.29951,0.0711772,0.828918,0.696447,
2,1,0,1,0,3710.83,0.70295,0.702702,5.64642,5,0.0723063,10,0.00396775,-2.24823,0.0736793,0.800768,0.700218,
2,1,0,1,0,3711.63,0.706945,0.706743,6.32396,5,0.0771002,10,0.00446942,-2.19901,0.0771492,0.764752,0.70396,
2,1,0,1,0,3712.43,0.71094,0.710666,7.04151,5,0.082452,10,0.00500416,-2.15233,0.081863,0.720716,0.707568,
2,1,0,1,0,3713.23,0.714936,0.714691,7.80393,5,0.0883971,10,0.0055774,-2.10769,0.0837147,0.704774,0.711257,
2,1,0,0,0,3714.03,0.718931,0.718708,8.60648,5,0.0949656,10,0.00618555,-2.06517,0.0865627,0.681587,0.714921,
2,1,0,1,0,3714.83,0.722927,0.722701,9.44121,5,0.10219,10,0.00682317,-2.02497,0.0922384,0.639647,0.718546,
2,1,0,1,0,3715.63,0.726921,0.726664,10.3145,5,0.110096,10,0.00749516,-1.98655,0.0972679,0.606572,0.722126,
2,1,0,1,0,3716.43,0.730916,0.730672,11.2169,5,0.11871,10,0.00819587,-1.95013,0.100427,0.587494,0.725737,
2,1,0,1,0,3717.23,0.734911,0.734621,12.1511,5,0.12806,10,0.00892643,-1.91539,0.103916,0.567765,0.729274,
2,1,0,0,0,3718.03,0.738907,0.738635,13.1251,5,0.138172,10,0.00969469,-1.8819,0.108327,0.544649,0.73286,
2,1,0,1,0,3718.83,0.742902,0.74262,14.1385,5,0.149076,10,0.0104995,-1.8496,0.111649,0.52844,0.736399,
2,1,0,1,0,3719.62,0.746897,0.74664,15.2012,5,0.160813,10,0.0113498,-1.81812,0.113309,0.520699,0.739952,
2,1,0,1,0,3720.42,0.750892,0.750602,16.3133,5,0.173415,10,0.0122448,-1.78746,0.113628,0.519239,0.743424,
2,1,0,1,0,3721.22,0.754887,0.7546,17.4906,5,0.186933,10,0.0131984,-1.75719,0.117304,0.502967,0.746904,
2,1,0,0,0,3722.02,0.758883,0.758657,18.7197,5,0.201411,10,0.0142019,-1.7277,0.117491,0.502167,0.750421,
2,1,0,1,0,3722.82,0.762878,0.762626,19.9731,5,0.216881,10,0.015232,-1.69955,0.12084,0.488251,0.753838,
2,1,0,0,0,3723.62,0.766873,0.76661,21.3401,5,0.2334,10,0.0163595,-1.6708,0.122229,0.482702,0.757221,
2,1,0,1,0,3724.42,0.770868,0.770595,22.7257,5,0.251019,10,0.0175123,-1.64348,0.125322,0.470788,0.760595,
2,1,0,1,0,3725.22,0.774863,0.774599,24.1861,5,0.26977,10,0.0187346,-1.61643,0.121718,0.484727,0.763958,
2,1,0,1,0,3726.02,0.778858,0.778566,25.7489,5,0.28973,10,0.0200472,-1.58924,0.125749,0.469188,0.767236,
2,1,0,1,0,3726.82,0.782854,0.78261,27.3507,5,0.310952,10,0.0214049,-1.56303,0.122225,0.482718,0.770576,
2,1,0,0,0,3727.61,0.786849,0.786583,28.9798,5,0.333471,10,0.022795,-1.5379,0.13502,0.436973,0.773832,
2,1,0,1,0,3728.41,0.790844,0.790618,30.6203,5,0.357303,10,0.024209,-1.51399,0.141263,0.41766,0.777145,
2,1,0,1,0,3729.21,0.794839,0.794572,32.3129,5,0.382459,10,0.025675,-1.49062,0.138066,0.427332,0.780355,
2,1,0,1,0,3730.01,0.798834,0.798589,34.0435,5,0.409,10,0.0271867,-1.46797,0.148933,0.39615,0.78361,
2,1,0,1,0,3730.81,0.802829,0.802586,35.7732,5,0.436896,10,0.028711,-1.44644,0.152831,0.386046,0.786845,
2,1,0,0,0,3731.61,0.806825,0.806557,37.5278,5,0.4662,10,0.0302683,-1.42565,0.162558,0.362947,0.790045,
2,1,0,1,0,3732.41,0.81082,0.810546,39.2378,5,0.49687,10,0.0318041,-1.4063,0.160751,0.367027,0.793282,
2,1,0,1,0,3733.21,0.814815,0.81456,41.0472,5,0.528969,10,0.0334354,-1.38672,0.165983,0.355458,0.7965,
2,1,0,1,0,3734.01,0.81881,0.818536,42.7829,5,0.562506,10,0.0350194,-1.36873,0.19421,0.303795,0.799711,
2,1,0,1,0,3734.81,0.822805,0.822569,44.5517,5,0.597407,10,0.0366468,-1.35114,0.212434,0.277733,0.802966,
2,1,0,0,0,3735.6,0.826801,0.826534,46.1411,5,0.633625,10,0.0381372,-1.33591,0.205981,0.286434,0.806232,
2,1,0,1,0,3736.4,0.830796,0.830576,47.7759,5,0.671139,10,0.0396815,-1.32079,0.21784,0.270841,0.809555,
2,1,0,0,0,3737.2,0.834791,0.834549,49.3795,5,0.709958,10,0.0412096,-1.30645,0.234068,0.252064,0.812822,
2,1,0,1,0,3738,0.838786,0.838588,50.991,5,0.750065,10,0.0427604,-1.29251,0.264384,0.22316,0.816152,
2,1,0,1,0,3738.8,0.842781,0.842548,52.3553,5,0.79135,10,0.0441118,-1.28104,0.286052,0.206256,0.819512,
2,1,0,1,0,3739.6,0.846776,0.846573,53.8162,5,0.833784,10,0.0455593,-1.26909,0.278178,0.212094,0.822894,
2,1,0,0,0,3740.3,0.849723,0.849445,54.553,5,0.871882,10,0.0463398,-1.26318,0.0253654,2.32601,0.825442,
2,1,0,1,0,3741.1,0.845728,0.845502,52.2378,5,0.91433,10,0.0441672,-1.28201,0.225599,0.261526,0.822517,
2,1,0,0,0,3741.9,0.841732,0.841518,50.157,5,0.955211,10,0.042208,-1.29967,0.188948,0.312256,0.819449,
2,1,0,1,0,3742.7,0.837737,0.837496,48.3192,5,0.994572,10,0.0404672,-1.31588,0.199299,0.296038,0.816236,
2,1,0,1,0,3743.5,0.833742,0.833516,46.6795,5,1.03249,10,0.0389081,-1.33087,0.211415,0.279071,0.812977,
2,1,0,1,0,3744.29,0.829747,0.829563,45.0004,5,1.06911,10,0.0373307,-1.34678,0.191276,0.308455,0.809762,
2,1,0,1,0,3745.09,0.825752,0.825499,43.1332,5,1.10434,10,0.0356064,-1.36519,0.169113,0.348879,0.806521,
2,1,0,0,0,3745.89,0.821757,0.821523,41.4014,5,1.13809,10,0.0340122,-1.38298,0.17531,0.336547,0.803306,
2,1,0,1,0,3746.69,0.817761,0.817482,39.5834,5,1.17042,10,0.0323587,-1.40249,0.173376,0.340302,0.800065,
2,1,0,1,0,3747.49,0.813766,0.81349,37.7445,5,1.20137,10,0.0307047,-1.42315,0.167534,0.352168,0.796882,
2,1,0,1,0,3748.29,0.809771,0.809522,36.3216,5,1.23097,10,0.0294031,-1.43984,0.159031,0.370997,0.79354,
2,1,0,1,0,3749.09,0.805776,0.805491,34.5284,5,1.25924,10,0.0278123,-1.46182,0.149351,0.395042,0.790298,
2,1,0,0,0,3749.89,0.801781,0.801535,32.7716,5,1.28611,10,0.0262676,-1.4845,0.135946,0.433995,0.787115,
2,1,0,1,0,3750.69,0.797786,0.797538,31.0111,5,1.31156,10,0.0247325,-1.50848,0.131249,0.449529,0.783893,
2,1,0,1,0,3751.49,0.79379,0.793519,29.3864,5,1.33567,10,0.0233187,-1.53185,0.134759,0.43782,0.780589,
2,1,0,1,0,3752.29,0.789795,0.789555,27.6165,5,1.35841,10,0.0218047,-1.55883,0.118871,0.496337,0.777403,
2,1,0,1,0,3753.08,0.7858,0.785514,25.9073,5,1.37978,10,0.0203506,-1.58658,0.096649,0.610456,0.774115,
2,1,0,0,0,3753.88,0.781805,0.781545,24.0709,5,1.3997,10,0.0188125,-1.61851,0.116346,0.507109,0.770954,
2,1,0,1,0,3754.68,0.77781,0.777539,22.4756,5,1.41826,10,0.0174756,-1.64829,0.112698,0.523523,0.76765,
2,1,0,0,0,3755.48,0.773814,0.773588,20.9618,5,1.4356,10,0.0162158,-1.67857,0.107442,0.549133,0.764365,
2,1,0,1,0,3756.28,0.769819,0.769528,19.486,5,1.45174,10,0.014995,-1.71028,0.10441,0.56508,0.760955,
2,1,0,1,0,3757.08,0.765824,0.76555,18.0817,5,1.46673,10,0.0138425,-1.74276,0.0763522,0.772734,0.757594,
2,1,0,1,0,3757.88,0.761829,0.761575,16.416,5,1.48036,10,0.012502,-1.78473,0.102723,0.574358,0.754352,
2,1,0,1,0,3758.68,0.757834,0.757596,15.1598,5,1.49295,10,0.011485,-1.81931,0.100078,0.589539,0.750926,
2,1,0,0,0,3759.48,0.753839,0.753586,13.9809,5,1.50457,10,0.0105358,-1.85446,0.0969175,0.608765,0.747434,
2,1,0,1,0,3760.28,0.749843,0.749561,12.8887,5,1.51528,10,0.0096609,-1.88979,0.0989779,0.596093,0.74389,
2,1,0,1,0,3761.07,0.745848,0.745574,11.8324,5,1.52514,10,0.0088219,-1.92693,0.0917281,0.643205,0.740368,
2,1,0,1,0,3761.87,0.741853,0.741599,10.8126,5,1.53417,10,0.00801859,-1.96607,0.0892589,0.660998,0.736841,
2,1,0,1,0,3762.67,0.737858,0.737596,9.84534,5,1.5424,10,0.00726189,-2.00677,0.0863582,0.683201,0.733264,
2,1,0,0,0,3763.47,0.733863,0.733534,8.93753,5,1.54989,10,0.00655599,-2.04878,0.0841886,0.700808,0.729602,
2,1,0,1,0,3764.27,0.729868,0.72962,8.06989,5,1.55666,10,0.00588796,-2.09313,0.0804604,0.73328,0.72607,
2,1,0,1,0,3765.07,0.725872,0.725598,7.26372,5,1.56277,10,0.00527054,-2.13884,0.0779646,0.756754,0.722401,
2,1,0,1,0,3765.87,0.721877,0.721622,6.50486,5,1.56825,10,0.00469405,-2.18676,0.0763504,0.772753,0.718759,
2,1,0,1,0,3766.67,0.717882,0.7176,5.80894,5,1.57315,10,0.00416849,-2.2359,0.0743517,0.793525,0.715044,
2,1,0,0,0,3767.47,0.713887,0.71361,5.16707,5,1.57752,10,0.00368728,-2.28676,0.0712818,0.8277,0.711337,
2,1,0,1,0,3768.27,0.709892,0.709618,4.57211,5,1.5814,10,0.00324445,-2.33988,0.0686336,0.859638,0.707606,
2,1,0,0,0,3769.06,0.705897,0.705605,4.0276,5,1.58481,10,0.00284189,-2.39495,0.0682958,0.863889,0.703833,
2,1,0,1,0,3769.86,0.701901,0.701643,3.53107,5,1.58782,10,0.00247755,-2.45209,0.0634216,0.930282,0.70009,
2,1,0,1,0,3770.66,0.697906,0.697614,3.07745,5,1.59044,10,0.00214687,-2.51181,0.0637881,0.924938,0.69626,
2,1,0,1,0,3771.46,0.693911,0.69364,2.67173,5,1.59272,10,0.00185322,-2.57321,0.0601124,0.981494,0.692464,
2,1,0,1,0,3772.26,0.689916,0.689706,2.30474,5,1.59469,10,0.00158959,-2.63738,0.0589736,1.00045,0.688691,
2,1,0,0,0,3773.06,0.685921,0.685682,1.97573,5,1.59639,10,0.00135473,-2.70427,0.0566328,1.0418,0.684813,
2,1,0,1,0,3773.86,0.681926,0.681655,1.68346,5,1.59783,10,0.00114754,-2.7738,0.0556492,1.06021,0.680914,
2,1,0,1,0,3774.66,0.67793,0.677656,1.42604,5,1.59906,10,0.000966363,-2.84587,0.0525096,1.1236,0.677028,
2,1,0,1,0,3775.46,0.673935,0.673653,1.20016,5,1.60009,10,0.000808489,-2.92076,0.0503198,1.1725,0.673125,
2,1,0,1,0,3776.26,0.66994,0.669656,1.00382,5,1.60096,10,0.000672213,-2.99834,0.0498885,1.18264,0.669214,
2,1,0,0,0,3777.06,0.665945,0.665697,0.832924,5,1.60168,10,0.000554475,-3.07939,0.0474474,1.24348,0.66533,
2,1,0,1,0,3777.85,0.66195,0.661713,0.68657,5,1.60227,10,0.000454313,-3.16331,0.0452042,1.30519,0.661411,
2,1,0,0,0,3778.65,0.657955,0.657688,0.560702,5,1.60275,10,0.000368767,-3.25127,0.0450637,1.30926,0.657441,
2,1,0,1,0,3779.45,0.653959,0.653698,0.454162,5,1.60314,10,0.000296885,-3.34279,0.0420639,1.40263,0.653498,
2,1,0,1,0,3780.25,0.649964,0.649704,0.363494,5,1.60346,10,0.000236164,-3.4395,0.0404983,1.45685,0.649544,
2,1,0,1,0,3781.05,0.645969,0.645722,0.28856,5,1.6037,10,0.000186329,-3.53976,0.0368536,1.60093,0.645595,
2,1,0,1,0,3781.85,0.641974,0.641732,0.22405,5,1.60389,10,0.00014378,-3.64965,0.0360319,1.63744,0.641633,
2,1,0,0,0,3782.65,0.637979,0.637739,0.171326,5,1.60404,10,0.000109261,-3.76618,0.0309265,1.90775,0.637664,
2,1,0,1,0,3783.45,0.633983,0.633726,0.125361,5,1.60414,10,7.94443e-05,-3.90184,0.0280308,2.10482,0.633671,
2,1,0,1,0,3784.25,0.629988,0.629705,0.0870573,5,1.60421,10,5.48204e-05,-4.06019,0.0228627,2.58062,0.629666,
2,1,0,1,0,3785.05,0.625993,0.625734,0.0559407,5,1.60426,10,3.5004e-05,-4.25227,0.0186065,3.17094,0.625709,
2,1,0,1,0,3785.84,0.621998,0.62171,0.0304433,5,1.60428,10,1.89269e-05,-4.51651,0.0106903,5.519,0.621697,
2,1,0,0,0,3786.64,0.618003,0.617729,0.00881383,5,1.60428,10,5.44456e-06,-5.05484,0.00550913,10.7095,0.617725,
2,1,0,1,0,3787.44,0.614008,0.613706,-0.0102391,5,1.60427,10,-6.28383e-06,-4.98974,-0.00584876,-10.0876,0.613711,
2,0,0,1,0,3788.24,0.610012,0.609718,-0.0250913,5,1.60424,10,-1.52986e-05,-4.60048,-0.0148193,-3.9813,0.609729,
2,0,0,1,0,3789.04,0.606017,0.605722,-0.0373787,5,1.6042,10,-2.26411e-05,-4.42738,-0.0301309,-1.95813,0.605739,
2,0,0,1,0,3789.84,0.602022,0.601753,-0.0478395,5,1.60415,10,-2.87876e-05,-4.32021,-0.0510519,-1.15569,0.601775,
2,0,0,0,0,3790.64,0.598027,0.597738,-0.0563397,5,1.6041,10,-3.36763e-05,-4.24919,-0.0520387,-1.13377,0.597762,
2,0,0,1,0,3791.44,0.594032,0.59377,-0.0643313,5,1.60404,10,-3.8198e-05,-4.19158,-0.0807141,-0.730975,0.593798,
2,0,0,0,0,3792.24,0.590037,0.589714,-0.0711451,5,1.60397,10,-4.19553e-05,-4.14786,-0.103824,-0.568267,0.589746,
2,0,0,1,0,3793.04,0.586041,0.585762,-0.0767467,5,1.6039,10,-4.49553e-05,-4.11494,-0.140746,-0.419195,0.585796,
2,0,0,1,0,3793.84,0.582046,0.5817,-0.0804998,5,1.60382,10,-4.68267e-05,-4.09421,-0.181476,-0.325111,0.581735,
2,0,0,1,0,3794.63,0.578052,0.577758,-0.0853398,5,1.60374,10,-4.93057e-05,-4.06885,-0.224968,-0.26226,0.577795,
2,0,0,1,0,3795.43,0.574056,0.573749,-0.0882399,5,1.60366,10,-5.06276e-05,-4.05433,-0.207763,-0.283978,0.573788,
2,0,0,0,0,3796.23,0.570061,0.569763,-0.0923211,5,1.60357,10,-5.26012e-05,-4.0347,-4.0016,-0.0147441,0.569804,
2,0,0,1,0,3797.03,0.566065,0.565777,-0.0944296,5,1.60349,10,-5.34261e-05,-4.02489,-0.213045,-0.276937,0.565819,
2,0,0,1,0,3797.83,0.56207,0.56177,-0.0972082,5,1.6034,10,-5.46087e-05,-4.0123,-0.499151,-0.118201,0.561813,
2,0,0,1,0,3798.63,0.558075,0.557801,-0.0994169,5,1.6033,10,-5.54548e-05,-4.00254,-0.471778,-0.125059,0.557845,
2,0,0,1,0,3799.43,0.55408,0.553795,-0.100845,5,1.60321,10,-5.58474e-05,-3.99635,-0.368979,-0.159901,0.553839,
2,0,0,0,0,3800.23,0.550085,0.549816,-0.101723,5,1.60312,10,-5.5929e-05,-3.99258,-0.913377,-0.0645954,0.54986,
2,0,0,1,0,3801.03,0.54609,0.545795,-0.104301,5,1.60302,10,-5.6927e-05,-3.98171,-0.550282,-0.107218,0.54584,
2,0,0,1,0,3801.83,0.542094,0.541834,-0.104923,5,1.60292,10,-5.68507e-05,-3.97913,-0.482423,-0.122299,0.54188,
2,0,0,1,0,3802.62,0.538099,0.5378,-0.107222,5,1.60283,10,-5.76639e-05,-3.96972,14.0819,0.00418976,0.537847,
2,0,0,1,0,3803.42,0.534104,0.533796,-0.107826,5,1.60273,10,-5.75571e-05,-3.96728,-0.361074,-0.163402,0.533844,
2,0,0,0,0,3804.22,0.530109,0.5298,-0.109273,5,1.60263,10,-5.7893e-05,-3.96149,-0.63954,-0.0922538,0.529849,
2,0,0,1,0,3805.02,0.526114,0.5258,-0.109914,5,1.60252,10,-5.77925e-05,-3.95895,-0.843901,-0.0699134,0.525848,
2,0,0,0,0,3805.82,0.522119,0.521849,-0.111844,5,1.60242,10,-5.83655e-05,-3.95139,-0.901783,-0.0654259,0.521898,
2,0,0,1,0,3806.62,0.518123,0.517832,-0.11352,5,1.60232,10,-5.87845e-05,-3.94493,-2.5568,-0.0230757,0.517882,
2,0,0,1,0,3807.42,0.514128,0.513847,-0.11395,5,1.60222,10,-5.85526e-05,-3.94329,-0.74934,-0.0787359,0.513897,
2,0,0,1,0,3808.22,0.510133,0.50985,-0.114713,5,1.60211,10,-5.84865e-05,-3.94039,-0.606898,-0.0972157,0.509901,
2,0,0,1,0,3809.02,0.506138,0.505847,-0.115875,5,1.602,10,-5.8615e-05,-3.93601,1.51364,0.0389789,0.505898,
2,0,0,0,0,3809.82,0.502143,0.501882,-0.117315,5,1.6019,10,-5.88782e-05,-3.93065,-0.550543,-0.107167,0.501934,
2,0,0,1,0,3810.61,0.498148,0.49784,-0.118807,5,1.60179,10,-5.9147e-05,-3.92516,-0.748982,-0.0787736,0.497892,
2,0,0,1,0,3811.41,0.494152,0.493814,-0.119582,5,1.60168,10,-5.90515e-05,-3.92233,-0.913671,-0.0645747,0.493867,
2,0,0,1,0,3812.21,0.490157,0.489867,-0.120859,5,1.60157,10,-5.92048e-05,-3.91772,-0.97744,-0.0603618,0.48992,
2,0,0,1,0,3813.01,0.486162,0.485893,-0.120944,5,1.60146,10,-5.87658e-05,-3.91742,-1.35225,-0.0436309,0.485947,
2,0,0,0,0,3813.81,0.482167,0.481818,-0.123733,5,1.60135,10,-5.96166e-05,-3.90752,-3.3172,-0.0177861,0.481873,
2,0,0,1,0,3814.61,0.478172,0.477874,-0.123747,5,1.60124,10,-5.91357e-05,-3.90746,-0.435163,-0.135581,0.477929,
2,0,0,0,0,3815.41,0.474177,0.47388,-0.125402,5,1.60113,10,-5.94256e-05,-3.90169,2.42941,0.0242857,0.473935,
2,0,0,1,0,3816.21,0.470181,0.469914,-0.126382,5,1.60101,10,-5.93887e-05,-3.89831,-0.483016,-0.122149,0.469969,
2,0,0,1,0,3817.01,0.466186,0.465912,-0.127211,5,1.6009,10,-5.92692e-05,-3.89548,5.45616,0.0108135,0.465968,
2,0,0,1,0,3817.81,0.462191,0.461849,-0.128635,5,1.60078,10,-5.94098e-05,-3.89064,-0.355473,-0.165976,0.461906,
2,0,0,1,0,3818.61,0.458196,0.457931,-0.131168,5,1.60066,10,-6.00658e-05,-3.88217,-1.21622,-0.0485109,0.457989,
2,0,0,0,0,3819.4,0.454201,0.453915,-0.131536,5,1.60054,10,-5.9706e-05,-3.88096,-1.13459,-0.0520014,0.453972,
2,0,0,1,0,3820.2,0.450205,0.449914,-0.133958,5,1.60043,10,-6.02695e-05,-3.87303,-0.726313,-0.0812322,0.449973,
2,0,0,1,0,3821,0.44621,0.445945,-0.135208,5,1.6003,10,-6.02952e-05,-3.869,-0.558825,-0.105579,0.446004,
2,0,0,1,0,3821.8,0.442215,0.441932,-0.137328,5,1.60018,10,-6.06897e-05,-3.86224,-0.887519,-0.0664775,0.441993,
2,0,0,1,0,3822.6,0.43822,0.437945,-0.139006,5,1.60006,10,-6.0877e-05,-3.85697,-0.625535,-0.0943193,0.438006,
2,0,0,0,0,3823.4,0.434225,0.433927,-0.14077,5,1.59993,10,-6.10839e-05,-3.85149,-1.34051,-0.0440132,0.433989,
2,0,0,1,0,3824.2,0.43023,0.429921,-0.143151,5,1.59981,10,-6.15434e-05,-3.84421,-0.832947,-0.0708329,0.429984,
2,0,0,1,0,3825,0.426234,0.42594,-0.143964,5,1.59968,10,-6.13199e-05,-3.84175,-0.39638,-0.148847,0.426003,
2,0,0,1,0,3825.8,0.422239,0.421954,-0.144993,5,1.59955,10,-6.11804e-05,-3.83865,-1.54647,-0.0381513,0.422018,
2,0,0,1,0,3826.6,0.418244,0.417961,-0.148301,5,1.59942,10,-6.1984e-05,-3.82886,-0.624159,-0.0945272,0.418026,
2,0,0,0,0,3827.39,0.414249,0.413969,-0.14904,5,1.59928,10,-6.16979e-05,-3.8267,-1.21661,-0.0484953,0.414035,
2,0,0,1,0,3828.19,0.410254,0.409951,-0.151599,5,1.59915,10,-6.21481e-05,-3.8193,-1.95476,-0.0301827,0.410018,
2,0,0,0,0,3828.99,0.406259,0.405963,-0.152736,5,1.59901,10,-6.20052e-05,-3.81606,-0.52628,-0.112108,0.40603,
2,0,0,1,0,3829.79,0.402263,0.401959,-0.153936,5,1.59888,10,-6.18758e-05,-3.81266,-0.621525,-0.0949277,0.402026,
2,0,0,1,0,3830.59,0.398268,0.39795,-0.156966,5,1.59874,10,-6.24648e-05,-3.80419,-1.21018,-0.0487531,0.398019,
2,0,0,1,0,3831.39,0.394273,0.39401,-0.158197,5,1.5986,10,-6.23311e-05,-3.8008,-0.487597,-0.121002,0.394079,
2,0,0,1,0,3832.19,0.390278,0.389975,-0.159692,5,1.59845,10,-6.22759e-05,-3.79672,-0.701127,-0.0841503,0.390046,
2,0,0,0,0,3832.99,0.386283,0.38597,-0.162133,5,1.59831,10,-6.25785e-05,-3.79013,-0.678161,-0.087,0.386041,
2,0,0,1,0,3833.79,0.382287,0.381957,-0.165186,5,1.59816,10,-6.3094e-05,-3.78203,-0.840194,-0.0702219,0.38203,
2,0,0,1,0,3834.59,0.378292,0.378013,-0.166943,5,1.59802,10,-6.31066e-05,-3.77743,-1.32395,-0.0445636,0.378086,
2,0,0,1,0,3835.38,0.374297,0.374028,-0.169036,5,1.59787,10,-6.32244e-05,-3.77202,-0.457121,-0.129069,0.374103,
2,0,0,1,0,3836.18,0.370302,0.37,-0.170806,5,1.59772,10,-6.31982e-05,-3.7675,-0.605765,-0.0973975,0.370075,
2,0,0,0,0,3836.98,0.366307,0.366013,-0.173165,5,1.59756,10,-6.33807e-05,-3.76154,-0.77114,-0.0765101,0.366089,
2,0,0,1,0,3837.78,0.362312,0.362011,-0.175738,5,1.59741,10,-6.36193e-05,-3.75513,-0.488285,-0.120831,0.362089,
2,0,0,1,0,3838.58,0.358316,0.358024,-0.178866,5,1.59725,10,-6.40384e-05,-3.74747,-0.92108,-0.0640553,0.358103,
2,0,0,1,0,3839.38,0.354321,0.35402,-0.18088,5,1.59709,10,-6.40352e-05,-3.74261,-1.3179,-0.0447682,0.3541,
2,0,0,1,0,3840.18,0.350327,0.350016,-0.183771,5,1.59693,10,-6.43229e-05,-3.73572,-0.651807,-0.0905176,0.350097,
2,0,0,0,0,3840.98,0.346331,0.345975,-0.18521,5,1.59677,10,-6.40779e-05,-3.73234,-3.39269,-0.0173904,0.346056,
2,0,0,1,0,3841.78,0.342336,0.342078,-0.187237,5,1.5966,10,-6.40497e-05,-3.72761,-0.509578,-0.115782,0.34216,
2,0,0,0,0,3842.58,0.338341,0.338022,-0.190193,5,1.59644,10,-6.42893e-05,-3.72081,-0.53301,-0.110692,0.338105,
2,0,0,1,0,3843.38,0.334345,0.334041,-0.192358,5,1.59627,10,-6.42553e-05,-3.71589,-0.654521,-0.0901422,0.334125,
2,0,0,1,0,3844.17,0.33035,0.330084,-0.196477,5,1.5961,10,-6.48537e-05,-3.70669,-0.830185,-0.0710685,0.33017,
2,0,0,1,0,3844.97,0.326355,0.326066,-0.196738,5,1.59593,10,-6.41494e-05,-3.70611,-0.645142,-0.0914527,0.326153,
2,0,0,1,0,3845.77,0.32236,0.322062,-0.199091,5,1.59575,10,-6.41194e-05,-3.70095,-1.05162,-0.056104,0.322149,
2,0,0,0,0,3846.57,0.318365,0.318078,-0.202611,5,1.59557,10,-6.4446e-05,-3.69334,-0.55436,-0.106429,0.318167,
2,0,0,1,0,3847.37,0.31437,0.314066,-0.205505,5,1.5954,10,-6.45421e-05,-3.68718,-4.78997,-0.0123174,0.314157,
2,0,0,1,0,3848.17,0.310374,0.310079,-0.208646,5,1.59521,10,-6.46968e-05,-3.68059,-0.399771,-0.147585,0.310171,
2,0,0,1,0,3848.97,0.306379,0.306103,-0.211615,5,1.59503,10,-6.47759e-05,-3.67445,-0.927352,-0.063622,0.306196,
2,0,0,1,0,3849.77,0.302385,0.302069,-0.21406,5,1.59485,10,-6.46609e-05,-3.66946,-0.511678,-0.115307,0.302163,
2,0,0,0,0,3850.57,0.298389,0.298078,-0.214968,5,1.59466,10,-6.40773e-05,-3.66763,-1.30413,-0.0452409,0.298173,
2,0,0,1,0,3851.37,0.294394,0.294115,-0.218475,5,1.59447,10,-6.42566e-05,-3.6606,-0.730147,-0.0808056,0.294211,
2,0,0,1,0,3852.16,0.290398,0.290109,-0.219807,5,1.59428,10,-6.37681e-05,-3.65796,-0.722317,-0.0816816,0.290206,
2,0,0,1,0,3852.96,0.286403,0.286107,-0.223961,5,1.59409,10,-6.40767e-05,-3.64983,-0.510119,-0.115659,0.286206,
2,0,0,1,0,3853.76,0.282408,0.282123,-0.226803,5,1.59389,10,-6.39862e-05,-3.64435,-3.13321,-0.0188305,0.282223,
2,0,0,1,0,3854.56,0.278413,0.278111,-0.229637,5,1.59369,10,-6.38646e-05,-3.63896,-0.731882,-0.0806141,0.278213,
2,0,0,1,0,3855.36,0.274418,0.2741,-0.232531,5,1.59349,10,-6.37368e-05,-3.63352,-0.72345,-0.0815537,0.274203,
2,0,0,0,0,3856.16,0.270423,0.270088,-0.234583,5,1.59329,10,-6.33581e-05,-3.6297,-0.837855,-0.0704179,0.270191,
2,0,0,1,0,3856.96,0.266427,0.266116,-0.23671,5,1.59309,10,-6.29925e-05,-3.62578,-0.906868,-0.0650591,0.266221,
2,0,0,1,0,3857.76,0.262432,0.26215,-0.239541,5,1.59288,10,-6.27955e-05,-3.62062,-0.800569,-0.0736976,0.262255,
2,0,0,1,0,3858.56,0.258437,0.258093,-0.241744,5,1.59267,10,-6.23924e-05,-3.61664,-0.707366,-0.083408,0.258199,
2,0,0,1,0,3859.36,0.254442,0.254192,-0.242843,5,1.59246,10,-6.17288e-05,-3.61467,-0.756093,-0.0780327,0.254299,
2,0,0,0,0,3860.15,0.250447,0.250159,-0.246231,5,1.59225,10,-6.15967e-05,-3.60866,10.2501,0.00575605,0.250267,
2,0,0,1,0,3860.95,0.246452,0.246192,-0.249597,5,1.59204,10,-6.14487e-05,-3.60276,-0.489073,-0.120636,0.246301,
2,0,0,1,0,3861.75,0.242456,0.242152,-0.252632,5,1.59182,10,-6.11755e-05,-3.59751,-1.37092,-0.0430369,0.242264,
2,0,0,1,0,3862.55,0.238461,0.238162,-0.253187,5,1.5916,10,-6.02995e-05,-3.59656,-0.728559,-0.0809818,0.238273,
2,0,0,1,0,3863.35,0.234466,0.234196,-0.256327,5,1.59139,10,-6.00308e-05,-3.59121,-0.807871,-0.0730314,0.234309,
2,0,0,0,0,3864.15,0.230471,0.230176,-0.258925,5,1.59116,10,-5.95983e-05,-3.58683,-1.7486,-0.0337413,0.23029,
2,0,0,1,0,3864.95,0.226476,0.226204,-0.262361,5,1.59094,10,-5.93471e-05,-3.5811,-0.708654,-0.0832564,0.226319,
2,0,0,0,0,3865.75,0.222481,0.222178,-0.263932,5,1.59071,10,-5.86397e-05,-3.57851,-0.818172,-0.072112,0.222294,
2,0,0,1,0,3866.55,0.218485,0.218186,-0.268091,5,1.59048,10,-5.84937e-05,-3.57172,-1.72021,-0.0342981,0.218304,
2,0,0,1,0,3867.35,0.21449,0.21417,-0.271223,5,1.59025,10,-5.8088e-05,-3.56667,-0.506386,-0.116512,0.21429,
2,0,0,1,0,3868.15,0.210496,0.210186,-0.275737,5,1.59002,10,-5.7956e-05,-3.55951,-0.555137,-0.10628,0.210307,
2,0,0,1,0,3868.94,0.2065,0.206171,-0.279669,5,1.58978,10,-5.76597e-05,-3.55336,-0.794209,-0.0742877,0.206294,
2,0,0,0,0,3869.74,0.202505,0.20219,-0.282623,5,1.58954,10,-5.71435e-05,-3.54879,-0.940735,-0.0627169,0.202314,
2,0,0,1,0,3870.54,0.198509,0.198218,-0.286851,5,1.5893,10,-5.68591e-05,-3.54234,-0.447319,-0.131897,0.198345,
2,0,0,1,0,3871.34,0.194514,0.194205,-0.292073,5,1.58905,10,-5.67221e-05,-3.53451,-0.561464,-0.105082,0.194334,
2,0,0,1,0,3872.14,0.190519,0.19016,-0.296616,5,1.5888,10,-5.64045e-05,-3.52781,-0.456837,-0.129149,0.19029,
2,0,0,1,0,3872.94,0.186524,0.186235,-0.304463,5,1.58854,10,-5.67017e-05,-3.51647,-0.426619,-0.138297,0.186369,
2,0,0,0,0,3873.74,0.182529,0.182249,-0.3125,5,1.58828,10,-5.69528e-05,-3.50515,-0.273491,-0.215729,0.182387,
2,0,0,1,0,3874.54,0.178534,0.178242,-0.321541,5,1.58801,10,-5.73121e-05,-3.49276,-0.314616,-0.18753,0.178383,
2,0,0,1,0,3875.34,0.174538,0.174189,-0.333515,5,1.58773,10,-5.80945e-05,-3.47689,-0.239944,-0.24589,0.174335,
2,0,0,1,0,3876.14,0.170543,0.170226,-0.347188,5,1.58744,10,-5.91004e-05,-3.45944,-0.177872,-0.331699,0.170379,
2,0,0,1,0,3876.93,0.166549,0.166224,-0.365365,5,1.58714,10,-6.07326e-05,-3.43727,-0.193398,-0.305071,0.166385,
2,0,0,0,0,3877.73,0.162553,0.162265,-0.388503,5,1.58683,10,-6.30403e-05,-3.41061,-0.142229,-0.414824,0.162436,
2,0,0,1,0,3878.53,0.158558,0.158282,-0.415219,5,1.58649,10,-6.57216e-05,-3.38172,-0.11002,-0.536264,0.158464,
2,0,0,0,0,3879.33,0.154563,0.154216,-0.454771,5,1.58613,10,-7.0133e-05,-3.34221,-0.101927,-0.578845,0.154416,
2,0,0,1,0,3880.13,0.150567,0.150255,-0.505044,5,1.58573,10,-7.58856e-05,-3.29667,-0.077861,-0.757761,0.150478,
2,0,0,1,0,3880.93,0.146572,0.146226,-0.567473,5,1.58528,10,-8.29793e-05,-3.24606,-0.0756585,-0.77982,0.146476,
2,0,0,1,0,3881.73,0.142578,0.142271,-0.643503,5,1.58478,10,-9.15518e-05,-3.19145,-0.0807047,-0.731061,0.142554,
2,0,0,1,0,3882.53,0.138582,0.138273,-0.710727,5,1.58422,10,-9.82743e-05,-3.1483,-0.0958773,-0.61537,0.138586,
2,0,0,0,0,3883.33,0.134587,0.134279,-0.772927,5,1.58361,10,-0.000103788,-3.11186,-0.141464,-0.417068,0.13462,
2,0,0,1,0,3884.13,0.130591,0.130331,-0.813714,5,1.58296,10,-0.000106052,-3.08953,-0.22299,-0.264585,0.130689,
2,0,0,1,0,3884.93,0.126596,0.12629,-0.831204,5,1.58229,10,-0.000104973,-3.08029,-0.603794,-0.0977154,0.126656,
2,0,0,1,0,3885.72,0.122602,0.122288,-0.839827,5,1.5816,10,-0.0001027,-3.07581,1.2419,0.0475079,0.122657,
2,0,0,1,0,3886.52,0.118607,0.118295,-0.831193,5,1.58092,10,-9.83262e-05,-3.0803,1.21659,0.0484963,0.118661,
2,0,0,0,0,3887.32,0.114611,0.114281,-0.81792,5,1.58024,10,-9.3473e-05,-3.08729,0.423126,0.139438,0.114641,
2,0,0,1,0,3888.12,0.110616,0.110256,-0.800574,5,1.57958,10,-8.8268e-05,-3.0966,0.383621,0.153797,0.110608,
2,0,0,1,0,3888.92,0.10662,0.106295,-0.781125,5,1.57893,10,-8.30298e-05,-3.10728,0.455192,0.129616,0.106639,
2,0,0,1,0,3889.72,0.102625,0.102303,-0.762367,5,1.57829,10,-7.79923e-05,-3.11784,0.278703,0.211695,0.102638,
2,0,0,1,0,3890.52,0.0986305,0.0983711,-0.740641,5,1.57768,10,-7.28577e-05,-3.13039,0.350715,0.168228,0.098697,
2,0,0,0,0,3891.32,0.0946351,0.0943573,-0.716659,5,1.57708,10,-6.7622e-05,-3.14469,0.354173,0.166585,0.0946726,
2,0,0,1,0,3892.12,0.0906399,0.090315,-0.701426,5,1.57649,10,-6.33493e-05,-3.15402,0.313127,0.188422,0.0906237,
2,0,0,0,0,3892.92,0.0866447,0.0863067,-0.686796,5,1.57592,10,-5.92751e-05,-3.16317,0.565364,0.104358,0.0866089,
2,0,0,1,0,3893.71,0.0826492,0.0823385,-0.673392,5,1.57536,10,-5.5446e-05,-3.17173,0.452919,0.130266,0.0826348,
2,0,0,1,0,3894.51,0.0786544,0.0783409,-0.66246,5,1.57481,10,-5.18977e-05,-3.17884,0.76767,0.0768559,0.0786324,
2,0,0,1,0,3895.31,0.0746596,0.0743351,-0.651729,5,1.57427,10,-4.84463e-05,-3.18593,0.635821,0.0927934,0.0746218,
2,0,0,1,0,3896.11,0.0706641,0.0703964,-0.641763,5,1.57374,10,-4.51778e-05,-3.19263,0.48499,0.121652,0.0706787,
2,0,0,0,0,3896.91,0.0666689,0.0663742,-0.632133,5,1.57321,10,-4.19573e-05,-3.19919,0.591027,0.0998263,0.0666524,
2,0,0,1,0,3897.71,0.0626737,0.0623723,-0.619243,5,1.5727,10,-3.86236e-05,-3.20814,0.521974,0.113032,0.0626447,
2,0,0,1,0,3898.51,0.0586783,0.0584135,-0.609896,5,1.57219,10,-3.56262e-05,-3.21474,0.34933,0.168895,0.0586819,
2,0,0,1,0,3899.31,0.0546835,0.054379,-0.596827,5,1.57169,10,-3.24548e-05,-3.22415,0.710926,0.0829904,0.0546416,
2,0,0,1,0,3900.11,0.0506886,0.0503891,-0.583008,5,1.5712,10,-2.93773e-05,-3.23433,0.369909,0.159499,0.0506457,
2,0,0,0,0,3900.91,0.046693,0.0463782,-0.570766,5,1.57073,10,-2.64711e-05,-3.24354,0.404045,0.146023,0.0466293,
2,0,0,1,0,3901.7,0.0426979,0.0424006,-0.557609,5,1.57026,10,-2.3643e-05,-3.25367,0.425707,0.138593,0.0426459,
2,0,0,1,0,3902.5,0.0387022,0.0384269,-0.544005,5,1.5698,10,-2.09044e-05,-3.2644,0.395923,0.149019,0.0386663,
2,0,0,1,0,3903.3,0.0347074,0.0344241,-0.531826,5,1.56936,10,-1.83076e-05,-3.27423,0.401552,0.14693,0.0346581,
2,0,0,1,0,3904.1,0.0307126,0.0304351,-0.519922,5,1.56892,10,-1.58239e-05,-3.28406,0.479078,0.123153,0.0306638,
2,0,0,0,0,3904.9,0.0267172,0.0263566,-0.510678,5,1.56849,10,-1.34598e-05,-3.29185,0.42735,0.13806,0.0265813,
2,0,0,1,0,3905.7,0.022722,0.0223822,-0.503801,5,1.56807,10,-1.12762e-05,-3.29774,1.25593,0.0469772,0.0226039,
2,0,0,0,0,3906.5,0.0187268,0.0184121,-0.4979,5,1.56765,10,-9.16737e-06,-3.30286,0.756747,0.0779653,0.0186311,
2,0,0,1,0,3907.3,0.0147313,0.0144013,-0.495807,5,1.56724,10,-7.14028e-06,-3.30469,2.27597,0.0259231,0.0146195,
2,0,0,1,0,3908.1,0.0107365,0.0104337,-0.492732,5,1.56683,10,-5.14101e-06,-3.30739,2.19234,0.0269118,0.0106505,
2,0,0,1,0,3908.9,0.00674162,0.00644891,-0.492519,5,1.56642,10,-3.17621e-06,-3.30758,-2.50431,-0.0235593,0.00666562,
2,0,0,1,0,3909.7,0.00274612,0.00241689,-0.494259,5,1.56601,10,-1.19457e-06,-3.30605,-1.88381,-0.0313195,0.00263436,
2,0,0,0,0,3910.19,0.000274105,-7.00306e-05,-0.496112,5,1.56575,10,3.4743e-08,-3.30442, , ,0.000148259,