File: Figure_codes/Fig_3-5/workspace_calculate_alpha_eff/20221101_1-115_003_TrumpetPlot_ParaChange_from10_every3_16_CV_C01_84.csv
mode,ox/red,error,control changes,counter inc.,time/s,control/V,Ewe/V,<I>/mA,cycle number,(Q-Qo)/C,I Range,P/W,log(|I|),Tafel slope mV/dec,alpha_eff,E-IR/V,
2,0,0,1,0,56393.8,2.44065e-05,-0.000439847,-0.0345188,85,0.0000000E+000,10,1.5183e-08,-4.46194, , ,-0.000424659,
2,1,0,1,0,56394.5,0.00379485,0.00343276,0.195005,85,0.00012305,10,6.69404e-07,-3.70995,0.0412851,1.42909,0.00334695,
2,1,0,0,0,56395.3,0.00779002,0.0074114,0.218832,85,0.00029879,10,1.62185e-06,-3.65989,0.0990589,0.595605,0.00731512,
2,1,0,1,0,56396.1,0.0117852,0.0114834,0.234148,85,0.000490317,10,2.6888e-06,-3.63051,0.142371,0.414409,0.0113803,
2,1,0,1,0,56396.9,0.0157806,0.0154719,0.249781,85,0.000693708,10,3.8646e-06,-3.60244,0.158765,0.371619,0.015362,
2,1,0,1,0,56397.7,0.0197754,0.0194258,0.262699,85,0.000908109,10,5.10316e-06,-3.58054,0.188268,0.313382,0.0193103,
2,1,0,1,0,56398.5,0.0237704,0.023434,0.276596,85,0.00113354,10,6.48174e-06,-3.55815,0.199721,0.295412,0.0233123,
2,1,0,0,0,56399.3,0.0277659,0.0274022,0.290505,85,0.00136924,10,7.96048e-06,-3.53685,0.188448,0.313084,0.0272744,
2,1,0,1,0,56400.1,0.0317611,0.0313787,0.302606,85,0.0016159,10,9.49539e-06,-3.51912,0.206339,0.285937,0.0312456,
2,1,0,1,0,56400.9,0.0357567,0.0353907,0.315812,85,0.0018732,10,1.11768e-05,-3.50057,0.257076,0.229504,0.0352517,
2,1,0,1,0,56401.7,0.0397516,0.0393924,0.329554,85,0.0021407,10,1.2982e-05,-3.48207,0.206832,0.285256,0.0392474,
2,1,0,1,0,56402.5,0.0437465,0.0433718,0.340878,85,0.00241884,10,1.47845e-05,-3.4674,0.260576,0.226421,0.0432219,
2,1,0,1,0,56403.3,0.0477413,0.0473914,0.354014,85,0.00270649,10,1.67772e-05,-3.45098,0.271128,0.217609,0.0472356,
2,1,0,1,0,56404.1,0.0517369,0.0513992,0.364585,85,0.00300374,10,1.87394e-05,-3.4382,0.277324,0.212748,0.0512388,
2,1,0,0,0,56404.9,0.0557321,0.0554149,0.376617,85,0.00331063,10,2.08702e-05,-3.4241,0.406317,0.145207,0.0552492,
2,1,0,1,0,56405.7,0.0597277,0.0593686,0.38601,85,0.00362538,10,2.29168e-05,-3.4134,0.310194,0.190203,0.0591987,
2,1,0,1,0,56406.5,0.0637226,0.063331,0.396094,85,0.00394838,10,2.50851e-05,-3.4022,0.403614,0.146179,0.0631567,
2,1,0,1,0,56407.3,0.0677174,0.0673751,0.405729,85,0.00427918,10,2.7336e-05,-3.39176,0.543202,0.108615,0.0671965,
2,1,0,1,0,56408.1,0.0717128,0.0713666,0.413077,85,0.00461616,10,2.94799e-05,-3.38397,0.418539,0.140966,0.0711849,
2,1,0,0,0,56408.9,0.075708,0.0753792,0.418808,85,0.00495906,10,3.15695e-05,-3.37798,0.585261,0.10081,0.0751949,
2,1,0,1,0,56409.7,0.0797031,0.0793738,0.427611,85,0.00530734,10,3.39411e-05,-3.36895,0.604738,0.0975629,0.0791856,
2,1,0,1,0,56410.5,0.0836986,0.0833125,0.434363,85,0.00566134,10,3.61879e-05,-3.36215,0.437629,0.134817,0.0831214,
2,1,0,1,0,56411.3,0.0876935,0.0873502,0.443879,85,0.00602245,10,3.8773e-05,-3.35274,0.390069,0.151255,0.0871549,
2,1,0,1,0,56412.1,0.0916883,0.0913358,0.456867,85,0.00639187,10,4.17283e-05,-3.34021,0.289026,0.204134,0.0911348,
2,1,0,0,0,56412.9,0.0956838,0.0953339,0.470663,85,0.00677312,10,4.48701e-05,-3.32729,0.268074,0.220089,0.0951268,
2,1,0,1,0,56413.7,0.099679,0.0993571,0.490888,85,0.00716806,10,4.87732e-05,-3.30902,0.232465,0.253801,0.0991411,
2,1,0,0,0,56414.5,0.103674,0.103287,0.511607,85,0.00757892,10,5.28423e-05,-3.29106,0.202432,0.291456,0.103062,
2,1,0,1,0,56415.3,0.10767,0.107359,0.530797,85,0.00800686,10,5.69859e-05,-3.27507,0.269137,0.219219,0.107126,
2,1,0,1,0,56416.1,0.111664,0.111285,0.550408,85,0.00844907,10,6.1252e-05,-3.25931,0.31255,0.18877,0.111042,
2,1,0,1,0,56416.9,0.115659,0.115303,0.562828,85,0.00890388,10,6.48957e-05,-3.24962,0.376191,0.156835,0.115055,
2,1,0,1,0,56417.7,0.119655,0.119343,0.574149,85,0.00936919,10,6.85204e-05,-3.24098,0.706589,0.0834997,0.11909,
2,1,0,0,0,56418.5,0.12365,0.123302,0.582202,85,0.00984138,10,7.17868e-05,-3.23493,0.885181,0.0666531,0.123046,
2,1,0,1,0,56419.3,0.127646,0.127293,0.586321,85,0.0103191,10,7.46345e-05,-3.23186,1.40782,0.0419086,0.127035,
2,1,0,1,0,56420.1,0.131641,0.131269,0.586767,85,0.0107992,10,7.70244e-05,-3.23153,-0.612895,-0.0962645,0.131011,
2,1,0,1,0,56420.9,0.135635,0.135297,0.572615,85,0.0112737,10,7.74733e-05,-3.24214,-0.293019,-0.201352,0.135045,
2,1,0,1,0,56421.7,0.139631,0.139268,0.542356,85,0.0117313,10,7.55327e-05,-3.26572,-0.126466,-0.46653,0.139029,
2,1,0,0,0,56422.5,0.143626,0.143274,0.497688,85,0.0121579,10,7.13057e-05,-3.30304,-0.0882451,-0.668592,0.143055,
2,1,0,1,0,56423.3,0.147621,0.147268,0.442686,85,0.0125435,10,6.51937e-05,-3.3539,-0.081571,-0.723296,0.147074,
2,1,0,1,0,56424.1,0.151617,0.151274,0.398,85,0.0128888,10,6.02069e-05,-3.40012,-0.0903971,-0.652676,0.151099,
2,1,0,1,0,56424.9,0.155612,0.155289,0.365172,85,0.0132021,10,5.67074e-05,-3.4375,-0.12957,-0.455353,0.155129,
2,1,0,1,0,56425.7,0.159606,0.159209,0.343617,85,0.0134943,10,5.47069e-05,-3.46393,-0.188887,-0.312355,0.159058,
2,1,0,0,0,56426.5,0.163602,0.163272,0.330176,85,0.0137729,10,5.39086e-05,-3.48125,-0.253788,-0.232478,0.163127,
2,1,0,1,0,56427.3,0.167597,0.167252,0.320605,85,0.0140421,10,5.36217e-05,-3.49403,-0.415296,-0.142067,0.167111,
2,1,0,0,0,56428.1,0.171592,0.171228,0.313969,85,0.0143051,10,5.37604e-05,-3.50311,-0.484643,-0.121739,0.17109,
2,1,0,1,0,56428.9,0.175588,0.175215,0.308962,85,0.0145634,10,5.4135e-05,-3.51009,-0.627119,-0.0940811,0.17508,
2,1,0,1,0,56429.7,0.179582,0.179219,0.305175,85,0.0148182,10,5.46933e-05,-3.51545,-1.07549,-0.0548587,0.179085,
2,1,0,1,0,56430.5,0.183577,0.183251,0.302382,85,0.0150703,10,5.54117e-05,-3.51944,-0.791919,-0.0745026,0.183118,
2,1,0,1,0,56431.3,0.187573,0.187202,0.29914,85,0.01532,10,5.59997e-05,-3.52413,-1.49558,-0.0394496,0.187071,
2,1,0,0,0,56432.1,0.191568,0.191199,0.297391,85,0.0155679,10,5.68609e-05,-3.52667,-1.70505,-0.034603,0.191068,
2,1,0,1,0,56432.9,0.195563,0.195182,0.296431,85,0.0158147,10,5.78579e-05,-3.52808,-1.08254,-0.0545016,0.195051,
2,1,0,1,0,56433.7,0.199559,0.199231,0.294777,85,0.0160599,10,5.87285e-05,-3.53051,-5.45176,-0.0108222,0.199101,
2,1,0,1,0,56434.5,0.203553,0.203176,0.292608,85,0.016304,10,5.9451e-05,-3.53371,-1.22017,-0.0483539,0.203047,
2,1,0,1,0,56435.3,0.207548,0.207219,0.292818,85,0.016547,10,6.06773e-05,-3.5334,-16.8736,-0.00349659,0.20709,
2,1,0,0,0,56436.1,0.211544,0.211184,0.290134,85,0.0167888,10,6.12718e-05,-3.5374,-1.54779,-0.0381188,0.211057,
2,1,0,1,0,56436.9,0.215539,0.215179,0.289535,85,0.0170298,10,6.23018e-05,-3.5383,-3.5904,-0.0164327,0.215052,
2,1,0,1,0,56437.7,0.219535,0.219181,0.289206,85,0.0172697,10,6.33885e-05,-3.53879,-1.80704,-0.03265,0.219054,
2,1,0,1,0,56438.5,0.223529,0.223179,0.286788,85,0.017509,10,6.40049e-05,-3.54244,-16.7389,-0.00352473,0.223053,
2,1,0,1,0,56439.3,0.227524,0.227178,0.285603,85,0.0177476,10,6.48829e-05,-3.54424,-1.4861,-0.0397012,0.227053,
2,1,0,0,0,56440.1,0.23152,0.231142,0.285845,85,0.0179853,10,6.6071e-05,-3.54387,-19.8766,-0.00296831,0.231017,
2,1,0,1,0,56440.9,0.235515,0.23513,0.28471,85,0.0182225,10,6.69441e-05,-3.5456,-2.42727,-0.0243072,0.235005,
2,1,0,0,0,56441.7,0.23951,0.239207,0.284618,85,0.0184588,10,6.80824e-05,-3.54574,-4.25508,-0.0138658,0.239081,
2,1,0,1,0,56442.5,0.243506,0.243193,0.283922,85,0.0186946,10,6.9048e-05,-3.5468,49.5573,0.00119054,0.243068,
2,1,0,1,0,56443.3,0.2475,0.247189,0.282957,85,0.01893,10,6.99439e-05,-3.54828,-2.97072,-0.0198605,0.247065,
2,1,0,1,0,56444.1,0.251495,0.251174,0.282467,85,0.0191647,10,7.09485e-05,-3.54903,-1.76949,-0.033343,0.25105,
2,1,0,1,0,56444.9,0.255491,0.255163,0.280728,85,0.0193988,10,7.16312e-05,-3.55171,-4.09689,-0.0144012,0.255039,
2,1,0,0,0,56445.7,0.259486,0.259145,0.279934,85,0.0196324,10,7.25437e-05,-3.55294,-1.62759,-0.0362499,0.259022,
2,1,0,1,0,56446.5,0.263481,0.263115,0.279387,85,0.0198649,10,7.35109e-05,-3.55379,24.4389,0.00241419,0.262992,
2,1,0,1,0,56447.3,0.267477,0.267159,0.279448,85,0.0200971,10,7.46572e-05,-3.5537,-3.09958,-0.0190348,0.267036,
2,1,0,1,0,56448.1,0.271471,0.271078,0.278461,85,0.0203288,10,7.54846e-05,-3.55524,-1.44074,-0.0409511,0.270956,
2,1,0,1,0,56448.9,0.275466,0.275123,0.277691,85,0.0205595,10,7.63993e-05,-3.55644,-9.47924,-0.00622413,0.275001,
2,1,0,0,0,56449.7,0.279462,0.279116,0.276005,85,0.0207896,10,7.70374e-05,-3.55908,-2.77986,-0.0212241,0.278995,
2,1,0,1,0,56450.5,0.283457,0.283128,0.275609,85,0.0210189,10,7.80324e-05,-3.55971,-4.40332,-0.013399,0.283006,
2,1,0,0,0,56451.3,0.287452,0.287095,0.274067,85,0.0212474,10,7.86832e-05,-3.56214,-1.64747,-0.0358126,0.286974,
2,1,0,1,0,56452.1,0.291448,0.291116,0.274075,85,0.0214751,10,7.97877e-05,-3.56213,-6.04326,-0.00976295,0.290995,
2,1,0,1,0,56452.9,0.295442,0.295107,0.272804,85,0.0217022,10,8.05063e-05,-3.56415,-7.20643,-0.00818714,0.294987,
2,1,0,1,0,56453.7,0.299437,0.299094,0.271688,85,0.0219287,10,8.12602e-05,-3.56593,-1.21464,-0.0485739,0.298974,
2,1,0,1,0,56454.5,0.303433,0.303052,0.270884,85,0.0221542,10,8.20918e-05,-3.56722,-12.762,-0.00462311,0.302932,
2,1,0,0,0,56455.2,0.307428,0.307072,0.269806,85,0.0223791,10,8.28498e-05,-3.56895,-10.7962,-0.00546489,0.306953,
2,1,0,1,0,56456,0.311424,0.311065,0.269193,85,0.0226036,10,8.37366e-05,-3.56994,-1.64451,-0.035877,0.310946,
2,1,0,1,0,56456.8,0.315418,0.315033,0.269226,85,0.0228272,10,8.4815e-05,-3.56988,3.8487,0.0153299,0.314915,
2,1,0,1,0,56457.6,0.319413,0.319058,0.269187,85,0.0230504,10,8.58863e-05,-3.56995,-2.08006,-0.0283645,0.31894,
2,1,0,1,0,56458.4,0.323409,0.323084,0.268518,85,0.0232733,10,8.67538e-05,-3.57103,-1.53141,-0.0385265,0.322966,
2,1,0,0,0,56459.2,0.327404,0.327089,0.267259,85,0.0234955,10,8.74175e-05,-3.57307,20.7327,0.00284575,0.326971,
2,1,0,1,0,56460,0.331399,0.331029,0.265855,85,0.023717,10,8.80058e-05,-3.57536,-1.07666,-0.0547992,0.330912,
2,1,0,1,0,56460.8,0.335395,0.335049,0.265941,85,0.0239377,10,8.91031e-05,-3.57521,13.4824,0.00437607,0.334932,
2,1,0,1,0,56461.6,0.339389,0.339071,0.264706,85,0.0241577,10,8.97542e-05,-3.57724,-4.45351,-0.013248,0.338955,
2,1,0,1,0,56462.4,0.343384,0.343039,0.265233,85,0.0243776,10,9.09852e-05,-3.57637,-1679.88,-3.51215e-05,0.342922,
2,1,0,0,0,56463.2,0.34738,0.347045,0.2643,85,0.0245968,10,9.17239e-05,-3.5779,-3.8159,-0.0154616,0.346928,
2,1,0,1,0,56464,0.351375,0.351032,0.26343,85,0.0248156,10,9.24722e-05,-3.57934,-7.04554,-0.00837409,0.350916,
2,1,0,0,0,56464.8,0.35537,0.355053,0.26258,85,0.0250336,10,9.32299e-05,-3.58074,-1.24789,-0.0472799,0.354937,
2,1,0,1,0,56465.6,0.359366,0.359044,0.261978,85,0.0252513,10,9.40614e-05,-3.58174,2.36746,0.0249212,0.358928,
2,1,0,1,0,56466.4,0.36336,0.363,0.261064,85,0.0254688,10,9.47665e-05,-3.58325,-2.99787,-0.0196806,0.362886,
2,1,0,1,0,56467.2,0.367355,0.367019,0.261903,85,0.0256857,10,9.61233e-05,-3.58186,-2.62603,-0.0224674,0.366904,
2,1,0,1,0,56468,0.371351,0.371019,0.260432,85,0.0259022,10,9.66254e-05,-3.58431,2.57028,0.0229547,0.370905,
2,1,0,0,0,56468.8,0.375346,0.374968,0.260435,85,0.0261184,10,9.76549e-05,-3.5843,-2.74073,-0.0215271,0.374854,
2,1,0,1,0,56469.6,0.379342,0.37898,0.26079,85,0.0263341,10,9.88342e-05,-3.58371,-1.35729,-0.043469,0.378866,
2,1,0,1,0,56470.4,0.383336,0.38296,0.259232,85,0.0265492,10,9.92755e-05,-3.58631,-13.3705,-0.0044127,0.382846,
2,1,0,1,0,56471.2,0.387331,0.387009,0.259302,85,0.0267641,10,0.000100352,-3.58619,-2.562,-0.0230288,0.386895,
2,1,0,1,0,56472,0.391327,0.390941,0.258455,85,0.0269785,10,0.000101041,-3.58762,4.3515,0.0135585,0.390828,
2,1,0,0,0,56472.8,0.395322,0.395005,0.258132,85,0.0271926,10,0.000101964,-3.58816,6.154,0.00958727,0.394891,
2,1,0,1,0,56473.6,0.399317,0.39899,0.258864,85,0.0274066,10,0.000103284,-3.58693,6.48292,0.00910084,0.398876,
2,1,0,1,0,56474.4,0.403313,0.402958,0.258191,85,0.0276204,10,0.00010404,-3.58806,-1.32935,-0.0443826,0.402845,
2,1,0,1,0,56475.2,0.407307,0.407008,0.257806,85,0.0278339,10,0.000104929,-3.58871,-3.27704,-0.018004,0.406894,
2,1,0,1,0,56476,0.411302,0.410952,0.257227,85,0.0280467,10,0.000105708,-3.58968,6.97889,0.00845407,0.410839,
2,1,0,0,0,56476.8,0.415298,0.414983,0.256249,85,0.0282594,10,0.000106339,-3.59134,-18.8823,-0.00312462,0.41487,
2,1,0,1,0,56477.6,0.419293,0.418948,0.256329,85,0.0284719,10,0.000107388,-3.5912,-2.04153,-0.0288999,0.418835,
2,1,0,0,0,56478.4,0.423288,0.422943,0.257296,85,0.0286839,10,0.000108822,-3.58957,3.69809,0.0159542,0.42283,
2,1,0,1,0,56479.2,0.427283,0.426954,0.255522,85,0.0288956,10,0.000109096,-3.59257,-2.55212,-0.023118,0.426842,
2,1,0,1,0,56480,0.431278,0.430945,0.255845,85,0.029107,10,0.000110255,-3.59202,-3.69822,-0.0159536,0.430832,
2,1,0,1,0,56480.8,0.435273,0.434933,0.255364,85,0.0293179,10,0.000111066,-3.59284,-8.03014,-0.00734732,0.434821,
2,1,0,1,0,56481.6,0.439269,0.438901,0.254812,85,0.0295286,10,0.000111838,-3.59378,3.34892,0.0176176,0.438789,
2,1,0,0,0,56482.4,0.443264,0.442951,0.254506,85,0.0297391,10,0.000112734,-3.5943,-3.07473,-0.0191887,0.442839,
2,1,0,1,0,56483.2,0.447259,0.446885,0.254468,85,0.0299494,10,0.000113718,-3.59437,-50.881,-0.00115957,0.446773,
2,1,0,1,0,56484,0.451254,0.45093,0.255217,85,0.0301597,10,0.000115085,-3.59309,-2.15372,-0.0273944,0.450818,
2,1,0,1,0,56484.8,0.455249,0.454914,0.254481,85,0.0303697,10,0.000115767,-3.59434,1.08656,0.0542999,0.454803,
2,1,0,1,0,56485.6,0.459244,0.45889,0.253936,85,0.0305797,10,0.000116529,-3.59528,-1.72848,-0.034134,0.458778,
2,1,0,0,0,56486.4,0.46324,0.462907,0.255147,85,0.0307897,10,0.000118109,-3.59321,3.2195,0.0183258,0.462795,
2,1,0,1,0,56487.2,0.467235,0.466886,0.25494,85,0.0309998,10,0.000119028,-3.59356,-33.9666,-0.001737,0.466773,
2,1,0,1,0,56488,0.471231,0.470879,0.255002,85,0.0312102,10,0.000120075,-3.59346,5.29983,0.0111324,0.470766,
2,1,0,1,0,56488.8,0.475225,0.47485,0.255651,85,0.0314208,10,0.000121396,-3.59235,4.52791,0.0130303,0.474738,
2,1,0,1,0,56489.6,0.47922,0.478918,0.255194,85,0.0316316,10,0.000122217,-3.59313,16.6942,0.00353417,0.478805,
2,1,0,0,0,56490.4,0.483216,0.482902,0.256425,85,0.0318427,10,0.000123828,-3.59104,-26.6287,-0.00221566,0.482789,
2,1,0,1,0,56491.2,0.487211,0.486825,0.257161,85,0.0320539,10,0.000125192,-3.5898,1.6189,0.0364444,0.486712,
2,1,0,0,0,56492,0.491206,0.49087,0.257084,85,0.0322658,10,0.000126195,-3.58992,-8.33133,-0.0070817,0.490757,
2,1,0,1,0,56492.8,0.495201,0.494832,0.257757,85,0.0324777,10,0.000127546,-3.58879,7.22713,0.00816368,0.494718,
2,1,0,1,0,56493.6,0.499196,0.498863,0.257989,85,0.0326899,10,0.000128701,-3.5884,1.3533,0.043597,0.49875,
2,1,0,1,0,56494.4,0.503191,0.502848,0.258381,85,0.0329027,10,0.000129926,-3.58774,-2.63833,-0.0223627,0.502734,
2,1,0,1,0,56495.2,0.507187,0.506843,0.259008,85,0.0331159,10,0.000131277,-3.58669,1.38096,0.0427239,0.506729,
2,1,0,0,0,56496,0.511182,0.510864,0.260303,85,0.0333296,10,0.000132979,-3.58452,2.33841,0.0252308,0.510749,
2,1,0,1,0,56496.8,0.515177,0.514855,0.260951,85,0.0335441,10,0.000134352,-3.58344,28.5696,0.00206513,0.51474,
2,1,0,1,0,56497.6,0.519173,0.518866,0.262528,85,0.0337592,10,0.000136217,-3.58082,1.16518,0.0506358,0.51875,
2,1,0,1,0,56498.4,0.523167,0.522808,0.261963,85,0.0339752,10,0.000136956,-3.58176,2.94953,0.0200032,0.522693,
2,1,0,1,0,56499.2,0.527162,0.526793,0.264163,85,0.0341919,10,0.000139159,-3.57813,9.39796,0.00627796,0.526677,
2,1,0,0,0,56500,0.531158,0.53084,0.265279,85,0.0344094,10,0.000140821,-3.5763,1.85166,0.0318633,0.530723,
2,1,0,1,0,56500.8,0.535153,0.534816,0.266589,85,0.0346279,10,0.000142576,-3.57416,1.49756,0.0393973,0.534699,
2,1,0,0,0,56501.6,0.539148,0.538857,0.268893,85,0.0348475,10,0.000144895,-3.57042,1.26793,0.0465326,0.538739,
2,1,0,1,0,56502.4,0.543143,0.542815,0.269392,85,0.0350683,10,0.00014623,-3.56961,2.56845,0.022971,0.542696,
2,1,0,1,0,56503.2,0.547138,0.546796,0.271779,85,0.0352905,10,0.000148608,-3.56578,1.59894,0.0368996,0.546676,
2,1,0,1,0,56504,0.551133,0.550796,0.273454,85,0.035514,10,0.000150617,-3.56312,0.830085,0.071077,0.550676,
2,1,0,1,0,56504.8,0.555129,0.554818,0.274953,85,0.0357392,10,0.000152549,-3.56074,1.34414,0.0438942,0.554697,
2,1,0,0,0,56505.6,0.559124,0.558758,0.277344,85,0.035966,10,0.000154968,-3.55698,1.23116,0.0479223,0.558636,
2,1,0,1,0,56506.4,0.56312,0.562768,0.280817,85,0.0361944,10,0.000158035,-3.55158,0.721173,0.0818112,0.562644,
2,1,0,1,0,56507.2,0.567114,0.566816,0.282923,85,0.0364253,10,0.000160365,-3.54833,1.63127,0.0361681,0.566692,
2,1,0,1,0,56508,0.571109,0.570762,0.285805,85,0.036658,10,0.000163127,-3.54393,0.784678,0.0751901,0.570636,
2,1,0,1,0,56508.8,0.575105,0.574755,0.287814,85,0.036893,10,0.000165423,-3.54089,0.799903,0.0737589,0.574629,
2,1,0,0,0,56509.6,0.5791,0.578801,0.292594,85,0.0371308,10,0.000169354,-3.53373,0.846328,0.069713,0.578672,
2,1,0,1,0,56510.4,0.583095,0.582716,0.296235,85,0.0373714,10,0.000172621,-3.52836,0.533306,0.110631,0.582586,
2,1,0,1,0,56511.2,0.58709,0.586746,0.300968,85,0.0376154,10,0.000176592,-3.52148,0.638047,0.0924697,0.586613,
2,1,0,1,0,56512,0.591085,0.590747,0.305341,85,0.0378629,10,0.000180379,-3.51522,0.587315,0.100457,0.590613,
2,1,0,1,0,56512.8,0.59508,0.594728,0.310186,85,0.0381143,10,0.000184476,-3.50838,0.480271,0.122847,0.594591,
2,1,0,0,0,56513.6,0.599076,0.598752,0.316499,85,0.0383702,10,0.000189504,-3.49963,0.561209,0.10513,0.598613,
2,1,0,1,0,56514.4,0.603071,0.602772,0.323667,85,0.0386311,10,0.000195098,-3.4899,0.362384,0.162811,0.60263,
2,1,0,0,0,56515.2,0.607066,0.606734,0.331077,85,0.0388977,10,0.000200876,-3.48007,0.409541,0.144064,0.606588,
2,1,0,1,0,56516,0.611061,0.610738,0.339132,85,0.0391708,10,0.000207121,-3.46963,0.364923,0.161678,0.610589,
2,1,0,1,0,56516.8,0.615056,0.614724,0.348414,85,0.039451,10,0.000214178,-3.4579,0.282578,0.208792,0.614571,
2,1,0,1,0,56517.6,0.619051,0.618723,0.36011,85,0.0397402,10,0.000222808,-3.44357,0.277047,0.21296,0.618564,
2,1,0,1,0,56518.4,0.623047,0.622755,0.373984,85,0.040039,10,0.000232901,-3.42715,0.230438,0.256034,0.62259,
2,1,0,0,0,56519.2,0.627042,0.626698,0.388712,85,0.040349,10,0.000243605,-3.41037,0.224065,0.263316,0.626527,
2,1,0,1,0,56520,0.631037,0.630751,0.406185,85,0.0406721,10,0.000256202,-3.39128,0.203168,0.2904,0.630572,
2,1,0,1,0,56520.8,0.635032,0.634746,0.426631,85,0.04101,10,0.000270802,-3.36995,0.180201,0.327412,0.634558,
2,1,0,1,0,56521.6,0.639027,0.638737,0.450172,85,0.0413654,10,0.000287542,-3.34662,0.16559,0.356301,0.638539,
2,1,0,1,0,56522.4,0.643022,0.642703,0.476377,85,0.0417406,10,0.000306169,-3.32205,0.147617,0.399684,0.642493,
2,1,0,0,0,56523.2,0.647018,0.646692,0.508346,85,0.0421392,10,0.000328744,-3.29384,0.138071,0.427317,0.646469,
2,1,0,1,0,56524,0.651013,0.650706,0.544442,85,0.0425648,10,0.000354272,-3.26405,0.130833,0.450955,0.650466,
2,1,0,1,0,56524.8,0.655008,0.654707,0.586151,85,0.0430212,10,0.000383757,-3.23199,0.116913,0.504651,0.654449,
2,1,0,1,0,56525.6,0.659003,0.658673,0.635972,85,0.0435141,10,0.000418897,-3.19656,0.107787,0.547376,0.658393,
2,1,0,1,0,56526.4,0.662998,0.662632,0.692873,85,0.04405,10,0.00045912,-3.15935,0.105255,0.560542,0.662327,
2,1,0,0,0,56527.2,0.666994,0.666685,0.758464,85,0.0446345,10,0.000505657,-3.12006,0.0973351,0.606153,0.666351,
2,1,0,1,0,56528,0.670989,0.670678,0.832295,85,0.0452755,10,0.000558202,-3.07972,0.0959926,0.614631,0.670311,
2,1,0,0,0,56528.8,0.674984,0.674662,0.919527,85,0.0459803,10,0.00062037,-3.03644,0.0922364,0.639661,0.674257,
2,1,0,1,0,56529.6,0.67898,0.678661,1.01556,85,0.0467581,10,0.000689223,-2.99329,0.0891719,0.661644,0.678214,
2,1,0,1,0,56530.4,0.682974,0.682659,1.1246,85,0.0476182,10,0.000767716,-2.949,0.088921,0.66351,0.682164,
2,1,0,1,0,56531.2,0.686969,0.686679,1.24824,85,0.0485709,10,0.000857142,-2.9037,0.0870863,0.677489,0.68613,
2,1,0,1,0,56532,0.690965,0.69064,1.38608,85,0.0496277,10,0.000957284,-2.85821,0.0864687,0.682328,0.69003,
2,1,0,0,0,56532.8,0.69496,0.694661,1.53717,85,0.0507999,10,0.00106781,-2.81328,0.0880221,0.670287,0.693984,
2,1,0,1,0,56533.6,0.698955,0.69863,1.70177,85,0.0520984,10,0.00118891,-2.7691,0.0878679,0.671463,0.697881,
2,1,0,1,0,56534.4,0.70295,0.702603,1.88542,85,0.053537,10,0.00132471,-2.72459,0.0892172,0.661308,0.701774,
2,1,0,1,0,56535.2,0.706945,0.706663,2.08291,85,0.0551277,10,0.00147191,-2.68133,0.0913084,0.646162,0.705747,
2,1,0,1,0,56536,0.71094,0.710605,2.29925,85,0.0568832,10,0.00163386,-2.63841,0.0913222,0.646064,0.709593,
2,1,0,0,0,56536.8,0.714936,0.714682,2.52812,85,0.0588168,10,0.0018068,-2.5972,0.0959726,0.614759,0.71357,
2,1,0,1,0,56537.6,0.718931,0.718632,2.77588,85,0.0609398,10,0.00199484,-2.5566,0.0982223,0.600678,0.717411,
2,1,0,1,0,56538.3,0.722927,0.722625,3.03659,85,0.0632669,10,0.00219432,-2.51761,0.0999192,0.590477,0.721289,
2,1,0,1,0,56539.1,0.726921,0.726612,3.31647,85,0.0658095,10,0.00240979,-2.47932,0.101789,0.579628,0.725153,
2,1,0,1,0,56539.9,0.730916,0.730604,3.61309,85,0.0685823,10,0.00263974,-2.44212,0.104588,0.564117,0.729015,
2,1,0,1,0,56540.7,0.734911,0.734643,3.92583,85,0.0715991,10,0.00288408,-2.40607,0.108432,0.544119,0.732915,
2,1,0,1,0,56541.5,0.738907,0.738604,4.25774,85,0.0748738,10,0.00314478,-2.37082,0.11232,0.525284,0.736731,
2,1,0,0,0,56542.3,0.742902,0.742588,4.60634,85,0.0784197,10,0.00342061,-2.33664,0.112538,0.524268,0.740561,
2,1,0,1,0,56543.1,0.746897,0.746604,4.97588,85,0.0822537,10,0.00371501,-2.30313,0.116033,0.508477,0.744415,
2,1,0,1,0,56543.9,0.750892,0.750607,5.36497,85,0.0863896,10,0.00402698,-2.27043,0.118025,0.499895,0.748246,
2,1,0,1,0,56544.7,0.754887,0.754575,5.77444,85,0.090844,10,0.00435725,-2.23849,0.120903,0.487995,0.752035,
2,1,0,1,0,56545.5,0.758883,0.758582,6.20605,85,0.0956354,10,0.0047078,-2.20718,0.122876,0.480158,0.755851,
2,1,0,0,0,56546.3,0.762878,0.762598,6.65961,85,0.10078,10,0.00507861,-2.17655,0.12389,0.476228,0.759668,
2,1,0,1,0,56547.1,0.766873,0.76658,7.13692,85,0.106296,10,0.00547102,-2.14649,0.127206,0.463815,0.76344,
2,1,0,1,0,56547.9,0.770868,0.770557,7.64227,85,0.112205,10,0.00588881,-2.11678,0.127965,0.461064,0.767194,
2,1,0,1,0,56548.7,0.774863,0.774535,8.17073,85,0.118526,10,0.00632852,-2.08774,0.130961,0.450518,0.77094,
2,1,0,1,0,56549.5,0.778858,0.778546,8.73122,85,0.125283,10,0.00679766,-2.05893,0.129646,0.455084,0.774704,
2,1,0,0,0,56550.3,0.782854,0.782561,9.32047,85,0.132498,10,0.00729384,-2.03056,0.133621,0.441547,0.77846,
2,1,0,1,0,56551.1,0.786849,0.78651,9.94184,85,0.140198,10,0.00781936,-2.00253,0.131485,0.448719,0.782136,
2,1,0,0,0,56551.9,0.790844,0.790514,10.6047,85,0.14841,10,0.00838313,-1.9745,0.133396,0.442292,0.785848,
2,1,0,1,0,56552.7,0.794839,0.79455,11.3117,85,0.157169,10,0.00898768,-1.94647,0.129827,0.454452,0.789573,
2,1,0,1,0,56553.5,0.798834,0.798509,12.0613,85,0.166511,10,0.00963106,-1.91861,0.130925,0.450641,0.793202,
2,1,0,1,0,56554.3,0.802829,0.802521,12.8657,85,0.176473,10,0.010325,-1.89057,0.130282,0.452863,0.79686,
2,1,0,1,0,56555.1,0.806825,0.80657,13.718,85,0.187097,10,0.0110645,-1.86271,0.130897,0.450737,0.800534,
2,1,0,0,0,56555.9,0.81082,0.810573,14.6003,85,0.198415,10,0.0118346,-1.83564,0.134572,0.438428,0.804149,
2,1,0,1,0,56556.7,0.814815,0.814479,15.5043,85,0.210451,10,0.0126279,-1.80955,0.138525,0.425916,0.807657,
2,1,0,1,0,56557.5,0.81881,0.818474,16.478,85,0.223231,10,0.0134868,-1.7831,0.172051,0.342922,0.811224,
2,1,0,1,0,56558.3,0.822805,0.822542,17.3112,85,0.236724,10,0.0142392,-1.76167,0.133807,0.440932,0.814925,
2,1,0,1,0,56559.1,0.826801,0.826567,18.3801,85,0.250988,10,0.0151924,-1.73565,0.136315,0.432822,0.81848,
2,1,0,0,0,56559.9,0.830796,0.830495,19.4766,85,0.266117,10,0.0161752,-1.71049,0.142063,0.41531,0.821925,
2,1,0,1,0,56560.7,0.834791,0.83447,20.6025,85,0.282138,10,0.0171922,-1.68608,0.144776,0.407527,0.825405,
2,1,0,1,0,56561.5,0.838786,0.838521,21.751,85,0.29907,10,0.0182387,-1.66252,0.152363,0.387232,0.828951,
2,1,0,1,0,56562.3,0.842781,0.842528,22.905,85,0.316913,10,0.0192981,-1.64007,0.157935,0.373572,0.83245,
2,1,0,1,0,56563.1,0.846776,0.846546,24.0758,85,0.335689,10,0.0203813,-1.61842,0.163747,0.360312,0.835952,
2,1,0,1,0,56563.8,0.849723,0.849463,24.8874,85,0.352903,10,0.0211409,-1.60402,0.0559083,1.0553,0.838513,
2,1,0,0,0,56564.6,0.845728,0.845419,23.1184,85,0.372024,10,0.0195448,-1.63604,0.115537,0.510659,0.835247,
2,1,0,1,0,56565.4,0.841732,0.841454,21.6605,85,0.389902,10,0.0182263,-1.66433,0.119412,0.494087,0.831923,
2,1,0,1,0,56566.2,0.837737,0.837452,20.3118,85,0.406661,10,0.0170102,-1.69225,0.124263,0.474798,0.828514,
2,1,0,1,0,56567,0.833742,0.83345,19.0542,85,0.422376,10,0.0158807,-1.72001,0.124152,0.475223,0.825066,
2,1,0,1,0,56567.8,0.829747,0.829479,17.847,85,0.437107,10,0.0148037,-1.74844,0.118391,0.498349,0.821626,
2,1,0,0,0,56568.6,0.825752,0.825493,16.6931,85,0.450896,10,0.0137801,-1.77746,0.120868,0.488135,0.818148,
2,1,0,1,0,56569.4,0.821757,0.821453,15.6335,85,0.463796,10,0.0128422,-1.80594,0.12595,0.468439,0.814574,
2,1,0,1,0,56570.2,0.817761,0.817471,14.6395,85,0.47588,10,0.0119674,-1.83447,0.123447,0.477939,0.81103,
2,1,0,1,0,56571,0.813766,0.813451,13.6927,85,0.487184,10,0.0111383,-1.86351,0.124038,0.475659,0.807426,
2,1,0,1,0,56571.8,0.809771,0.809505,12.7988,85,0.497758,10,0.0103607,-1.89283,0.122069,0.483335,0.803874,
2,1,0,1,0,56572.6,0.805776,0.805466,11.9456,85,0.507631,10,0.00962176,-1.92279,0.119984,0.491731,0.80021,
2,1,0,1,0,56573.4,0.801781,0.801477,11.137,85,0.516844,10,0.00892602,-1.95323,0.120158,0.491018,0.796576,
2,1,0,0,0,56574.2,0.797786,0.797496,10.362,85,0.525429,10,0.00826365,-1.98456,0.117081,0.503927,0.792937,
2,1,0,1,0,56575,0.79379,0.793498,9.65057,85,0.533416,10,0.0076577,-2.01545,0.11933,0.494429,0.789252,
2,1,0,1,0,56575.8,0.789795,0.789481,8.98263,85,0.540851,10,0.00709161,-2.0466,0.116304,0.507291,0.785529,
2,1,0,1,0,56576.6,0.7858,0.785496,8.35297,85,0.547766,10,0.00656123,-2.07816,0.119814,0.492431,0.781821,
2,1,0,1,0,56577.4,0.781805,0.781491,7.76459,85,0.554198,10,0.00606796,-2.10988,0.116936,0.504549,0.778075,
2,1,0,0,0,56578.2,0.77781,0.777528,7.21002,85,0.560172,10,0.00560599,-2.14206,0.115359,0.511448,0.774356,
2,1,0,1,0,56579,0.773814,0.773508,6.68495,85,0.565714,10,0.00517086,-2.1749,0.114053,0.517302,0.770567,
2,1,0,1,0,56579.8,0.769819,0.769528,6.19388,85,0.570852,10,0.00476636,-2.20804,0.112754,0.523264,0.766803,
2,1,0,1,0,56580.6,0.765824,0.765519,5.731,85,0.575607,10,0.00438719,-2.24177,0.112154,0.526062,0.762998,
2,1,0,1,0,56581.4,0.761829,0.761522,5.29569,85,0.580004,10,0.00403278,-2.27608,0.110564,0.533625,0.759192,
2,1,0,0,0,56582.2,0.757834,0.757499,4.88728,85,0.584065,10,0.00370211,-2.31093,0.108664,0.542959,0.755349,
2,1,0,1,0,56583,0.753839,0.75354,4.50297,85,0.587809,10,0.00339317,-2.3465,0.106811,0.552377,0.751559,
2,1,0,0,0,56583.8,0.749844,0.749545,4.15629,85,0.59126,10,0.00311533,-2.38129,0.109371,0.53945,0.747717,
2,1,0,1,0,56584.6,0.745848,0.745554,3.81974,85,0.59444,10,0.00284782,-2.41797,0.104014,0.567232,0.743873,
2,1,0,1,0,56585.4,0.741853,0.741546,3.50082,85,0.597358,10,0.00259602,-2.45583,0.100584,0.586576,0.740005,
2,1,0,1,0,56586.2,0.737858,0.737581,3.19946,85,0.600028,10,0.00235986,-2.49492,0.0972339,0.606784,0.736174,
2,1,0,1,0,56587,0.733863,0.733546,2.91818,85,0.602464,10,0.00214062,-2.53489,0.0954311,0.618247,0.732262,
2,1,0,0,0,56587.8,0.729868,0.729598,2.6496,85,0.604682,10,0.00193315,-2.57682,0.0910534,0.647971,0.728432,
2,1,0,1,0,56588.6,0.725872,0.725529,2.40073,85,0.606693,10,0.0017418,-2.61966,0.0893806,0.660099,0.724472,
2,1,0,1,0,56589.4,0.721877,0.721563,2.16623,85,0.608511,10,0.00156308,-2.66429,0.0854314,0.690613,0.72061,
2,1,0,1,0,56590.2,0.717882,0.717535,1.94687,85,0.610148,10,0.00139695,-2.71066,0.0828416,0.712203,0.716679,
2,1,0,1,0,56591,0.713887,0.713582,1.74319,85,0.611616,10,0.00124391,-2.75866,0.0790077,0.746763,0.712815,
2,1,0,0,0,56591.8,0.709892,0.709589,1.55353,85,0.612926,10,0.00110237,-2.80868,0.0774175,0.762102,0.708906,
2,1,0,1,0,56592.6,0.705897,0.705612,1.37726,85,0.61409,10,0.000971814,-2.86098,0.0730803,0.807331,0.705006,
2,1,0,1,0,56593.4,0.701901,0.701612,1.21432,85,0.615119,10,0.000851979,-2.91567,0.0701788,0.840709,0.701078,
2,1,0,1,0,56594.2,0.697906,0.697594,1.06524,85,0.616023,10,0.000743105,-2.97255,0.0675269,0.873726,0.697125,
2,1,0,1,0,56595,0.693911,0.693628,0.929159,85,0.616814,10,0.000644491,-3.03191,0.0645371,0.914203,0.69322,
2,1,0,0,0,56595.8,0.689916,0.689637,0.803849,85,0.617499,10,0.000554364,-3.09483,0.0601758,0.98046,0.689283,
2,1,0,1,0,56596.6,0.685921,0.685612,0.690231,85,0.61809,10,0.000473231,-3.16101,0.058521,1.00818,0.685309,
2,1,0,0,0,56597.4,0.681926,0.681568,0.587247,85,0.618594,10,0.000400249,-3.23118,0.0560904,1.05187,0.68131,
2,1,0,1,0,56598.2,0.67793,0.677611,0.496638,85,0.619021,10,0.000336527,-3.30396,0.05287,1.11595,0.677393,
2,1,0,1,0,56599,0.673935,0.673688,0.416937,85,0.619379,10,0.000280886,-3.37993,0.0499165,1.18197,0.673505,
2,1,0,1,0,56599.8,0.66994,0.669688,0.344559,85,0.619677,10,0.000230747,-3.46274,0.046102,1.27977,0.669536,
2,1,0,1,0,56600.6,0.665945,0.665648,0.281349,85,0.619921,10,0.000187279,-3.55075,0.0445265,1.32505,0.665524,
2,1,0,0,0,56601.4,0.66195,0.661655,0.22635,85,0.620117,10,0.000149765,-3.64522,0.0391058,1.50873,0.661555,
2,1,0,1,0,56602.2,0.657955,0.657667,0.177986,85,0.620272,10,0.000117056,-3.74961,0.0370616,1.59194,0.657589,
2,1,0,1,0,56603,0.653959,0.65364,0.135812,85,0.620392,10,8.87723e-05,-3.86706,0.0319526,1.84649,0.65358,
2,1,0,1,0,56603.8,0.649964,0.649647,0.100773,85,0.620481,10,6.54668e-05,-3.99666,0.0281155,2.09849,0.649602,
2,1,0,1,0,56604.6,0.64597,0.645664,0.0713646,85,0.620544,10,4.60775e-05,-4.14652,0.0229894,2.5664,0.645633,
2,1,0,0,0,56605.4,0.641974,0.641634,0.0449911,85,0.620584,10,2.88678e-05,-4.34687,0.0172881,3.41276,0.641614,
2,1,0,1,0,56606.2,0.637979,0.637689,0.023126,85,0.620605,10,1.47472e-05,-4.6359,0.00947151,6.22921,0.637679,
2,1,0,1,0,56607,0.633983,0.633627,0.00429972,85,0.62061,10,2.72442e-06,-5.36656,0.00682481,8.64493,0.633625,
2,0,0,1,0,56607.8,0.629988,0.629674,-0.0110177,85,0.620602,10,-6.93755e-06,-4.95791,-0.00545308,-10.8196,0.629679,
2,0,0,1,0,56608.6,0.625993,0.625687,-0.0241566,85,0.620582,10,-1.51145e-05,-4.61696,-0.0200144,-2.94787,0.625698,
2,0,0,0,0,56609.4,0.621998,0.621695,-0.0338975,85,0.620554,10,-2.10739e-05,-4.46983,-0.0295224,-1.99848,0.62171,
2,0,0,1,0,56610.2,0.618003,0.617677,-0.0425767,85,0.620517,10,-2.62986e-05,-4.37083,-0.0436364,-1.35208,0.617696,
2,0,0,0,0,56611,0.614008,0.613651,-0.0508789,85,0.620474,10,-3.12219e-05,-4.29346,-0.0642676,-0.918037,0.613673,
2,0,0,1,0,56611.8,0.610012,0.609697,-0.0567584,85,0.620425,10,-3.46054e-05,-4.24597,-0.0957613,-0.616115,0.609722,
2,0,0,1,0,56612.6,0.606017,0.605712,-0.0616301,85,0.620372,10,-3.73301e-05,-4.21021,-0.125668,-0.469489,0.605739,
2,0,0,1,0,56613.4,0.602022,0.601699,-0.0670153,85,0.620314,10,-4.0323e-05,-4.17383,-0.146354,-0.403131,0.601728,
2,0,0,1,0,56614.2,0.598027,0.597719,-0.0709949,85,0.620253,10,-4.2435e-05,-4.14877,-0.144462,-0.408412,0.59775,
2,0,0,0,0,56615,0.594032,0.593693,-0.0740205,85,0.620189,10,-4.39455e-05,-4.13065,-0.260628,-0.226376,0.593726,
2,0,0,1,0,56615.8,0.590037,0.589694,-0.0777616,85,0.620122,10,-4.58556e-05,-4.10923,-0.227778,-0.259024,0.589729,
2,0,0,1,0,56616.6,0.586041,0.585697,-0.0796049,85,0.620053,10,-4.66244e-05,-4.09906,-0.450119,-0.131077,0.585732,
2,0,0,1,0,56617.4,0.582046,0.581787,-0.0823192,85,0.619982,10,-4.78922e-05,-4.0845,-0.274887,-0.214634,0.581823,
2,0,0,1,0,56618.2,0.578052,0.577722,-0.0848139,85,0.619909,10,-4.89988e-05,-4.07153,-0.4635,-0.127292,0.577759,
2,0,0,0,0,56619,0.574056,0.573752,-0.0857223,85,0.619835,10,-4.91834e-05,-4.06691,-0.465158,-0.126839,0.57379,
2,0,0,1,0,56619.8,0.570061,0.569778,-0.0879469,85,0.61976,10,-5.01102e-05,-4.05578,-0.576623,-0.10232,0.569817,
2,0,0,1,0,56620.6,0.566065,0.565738,-0.0890871,85,0.619683,10,-5.04e-05,-4.05019,-0.373481,-0.157973,0.565777,
2,0,0,1,0,56621.3,0.56207,0.561759,-0.0906611,85,0.619605,10,-5.09297e-05,-4.04258,-0.99544,-0.0592703,0.561799,
2,0,0,1,0,56622.1,0.558075,0.557777,-0.0921696,85,0.619526,10,-5.14101e-05,-4.03541,-0.517911,-0.113919,0.557818,
2,0,0,1,0,56622.9,0.55408,0.553759,-0.0929398,85,0.619445,10,-5.14662e-05,-4.0318,-0.632513,-0.0932787,0.553799,
2,0,0,1,0,56623.7,0.550085,0.549739,-0.0940673,85,0.619364,10,-5.17125e-05,-4.02656,-2.60372,-0.0226599,0.549781,
2,0,0,0,0,56624.5,0.54609,0.545742,-0.094908,85,0.619282,10,-5.17952e-05,-4.0227,-0.948653,-0.0621935,0.545783,
2,0,0,1,0,56625.3,0.542094,0.541745,-0.0963728,85,0.619199,10,-5.22095e-05,-4.01605,-0.497945,-0.118487,0.541788,
2,0,0,1,0,56626.1,0.538099,0.537783,-0.0976783,85,0.619115,10,-5.25297e-05,-4.0102,-2.41433,-0.0244374,0.537826,
2,0,0,1,0,56626.9,0.534104,0.53382,-0.0993914,85,0.61903,10,-5.30571e-05,-4.00265,-0.414069,-0.142488,0.533863,
2,0,0,1,0,56627.7,0.530109,0.529786,-0.0994883,85,0.618944,10,-5.27075e-05,-4.00223,-1.37007,-0.0430634,0.529829,
2,0,0,0,0,56628.5,0.526114,0.525777,-0.100747,85,0.618858,10,-5.29705e-05,-3.99677,-0.951209,-0.0620263,0.525822,
2,0,0,1,0,56629.3,0.522119,0.521788,-0.101751,85,0.61877,10,-5.30926e-05,-3.99246,-0.91646,-0.0643782,0.521833,
2,0,0,1,0,56630.1,0.518123,0.517751,-0.102976,85,0.618682,10,-5.33158e-05,-3.98726,33.1374,0.00178047,0.517796,
2,0,0,1,0,56630.9,0.514128,0.513826,-0.103635,85,0.618593,10,-5.32503e-05,-3.98449,-0.797814,-0.0739521,0.513872,
2,0,0,1,0,56631.7,0.510133,0.509776,-0.104523,85,0.618503,10,-5.32835e-05,-3.98079,-0.403137,-0.146352,0.509822,
2,0,0,0,0,56632.5,0.506138,0.50579,-0.106078,85,0.618412,10,-5.36533e-05,-3.97437,-1.82679,-0.0322971,0.505836,
2,0,0,1,0,56633.3,0.502143,0.501806,-0.107259,85,0.61832,10,-5.38232e-05,-3.96957,-0.703239,-0.0838975,0.501853,
2,0,0,0,0,56634.1,0.498148,0.497797,-0.108711,85,0.618227,10,-5.41161e-05,-3.96373,-1.02857,-0.0573614,0.497845,
2,0,0,1,0,56634.9,0.494152,0.493826,-0.110314,85,0.618134,10,-5.4476e-05,-3.95737,-0.778693,-0.075768,0.493875,
2,0,0,1,0,56635.7,0.490157,0.489802,-0.11152,85,0.618039,10,-5.46228e-05,-3.95265,-0.625424,-0.094336,0.489851,
2,0,0,1,0,56636.5,0.486162,0.485848,-0.112329,85,0.617943,10,-5.45749e-05,-3.94951,-0.945858,-0.0623772,0.485898,
2,0,0,1,0,56637.3,0.482167,0.481816,-0.113621,85,0.617846,10,-5.47443e-05,-3.94454,-1.00791,-0.0585367,0.481866,
2,0,0,0,0,56638.1,0.478172,0.477832,-0.114376,85,0.617747,10,-5.46526e-05,-3.94166,-0.56269,-0.104853,0.477882,
2,0,0,1,0,56638.9,0.474177,0.473881,-0.116173,85,0.617648,10,-5.5052e-05,-3.9349,-1.13832,-0.0518307,0.473932,
2,0,0,1,0,56639.7,0.470181,0.469845,-0.117898,85,0.617548,10,-5.53939e-05,-3.92849,-0.567243,-0.104012,0.469897,
2,0,0,1,0,56640.5,0.466186,0.465884,-0.119287,85,0.617446,10,-5.5574e-05,-3.92341,-1.06535,-0.0553806,0.465937,
2,0,0,1,0,56641.3,0.462191,0.461837,-0.121438,85,0.617344,10,-5.60846e-05,-3.91565,-0.709372,-0.0831721,0.461891,
2,0,0,0,0,56642.1,0.458196,0.4579,-0.122474,85,0.61724,10,-5.60807e-05,-3.91196,-0.739524,-0.0797811,0.457953,
2,0,0,1,0,56642.9,0.454201,0.453882,-0.124819,85,0.617134,10,-5.66531e-05,-3.90372,-0.707172,-0.0834309,0.453937,
2,0,0,1,0,56643.7,0.450205,0.449907,-0.125671,85,0.617028,10,-5.65401e-05,-3.90077,-0.614521,-0.0960098,0.449962,
2,0,0,1,0,56644.5,0.44621,0.445918,-0.126834,85,0.61692,10,-5.65574e-05,-3.89677,-0.644452,-0.0915506,0.445974,
2,0,0,1,0,56645.3,0.442215,0.441867,-0.129191,85,0.61681,10,-5.70853e-05,-3.88877,-1.10341,-0.0534708,0.441924,
2,0,0,0,0,56646.1,0.43822,0.43789,-0.130479,85,0.616699,10,-5.71352e-05,-3.88446,-0.537928,-0.10968,0.437947,
2,0,0,1,0,56646.9,0.434225,0.433924,-0.132627,85,0.616587,10,-5.75499e-05,-3.87737,-0.651201,-0.0906018,0.433982,
2,0,0,0,0,56647.7,0.43023,0.429915,-0.134838,85,0.616473,10,-5.7969e-05,-3.87019,-0.613246,-0.0962094,0.429975,
2,0,0,1,0,56648.5,0.426234,0.425915,-0.136768,85,0.616358,10,-5.82514e-05,-3.86402,-0.533089,-0.110676,0.425975,
2,0,0,1,0,56649.3,0.422239,0.421933,-0.138279,85,0.616241,10,-5.83445e-05,-3.85924,-1.16757,-0.0505323,0.421994,
2,0,0,1,0,56650.1,0.418244,0.417928,-0.139534,85,0.616123,10,-5.83151e-05,-3.85532,-0.495468,-0.119079,0.417989,
2,0,0,1,0,56650.9,0.414249,0.413935,-0.14105,85,0.616003,10,-5.83854e-05,-3.85063,-0.7537,-0.0782805,0.413997,
2,0,0,0,0,56651.7,0.410254,0.409895,-0.143626,85,0.615881,10,-5.88717e-05,-3.84277,-1.94496,-0.0303349,0.409958,
2,0,0,1,0,56652.5,0.406259,0.405971,-0.145816,85,0.615758,10,-5.91972e-05,-3.83619,-0.408462,-0.144444,0.406036,
2,0,0,1,0,56653.3,0.402263,0.40193,-0.147846,85,0.615633,10,-5.9424e-05,-3.83019,-1.52636,-0.0386539,0.401995,
2,0,0,1,0,56654.1,0.398268,0.397941,-0.150174,85,0.615507,10,-5.97603e-05,-3.82341,-0.554525,-0.106397,0.398007,
2,0,0,1,0,56654.9,0.394274,0.39395,-0.151979,85,0.615379,10,-5.98721e-05,-3.81822,-0.700051,-0.0842796,0.394017,
2,0,0,0,0,56655.7,0.390278,0.389899,-0.15281,85,0.61525,10,-5.95806e-05,-3.81585,-0.806948,-0.073115,0.389966,
2,0,0,1,0,56656.5,0.386283,0.385944,-0.155589,85,0.615119,10,-6.00484e-05,-3.80802,-0.63513,-0.0928944,0.386012,
2,0,0,1,0,56657.3,0.382287,0.381931,-0.157581,85,0.614986,10,-6.01849e-05,-3.8025,-0.659559,-0.0894538,0.382,
2,0,0,1,0,56658.1,0.378292,0.377952,-0.159969,85,0.614851,10,-6.04605e-05,-3.79596,-1.08485,-0.0543855,0.378022,
2,0,0,1,0,56658.9,0.374297,0.373975,-0.161257,85,0.614715,10,-6.03062e-05,-3.79248,-0.516338,-0.114266,0.374046,
2,0,0,1,0,56659.7,0.370303,0.369928,-0.163284,85,0.614577,10,-6.04033e-05,-3.78706,-0.920512,-0.0640948,0.369999,
2,0,0,1,0,56660.5,0.366307,0.365992,-0.166476,85,0.614438,10,-6.0929e-05,-3.77865,-0.638349,-0.0924259,0.366065,
2,0,0,0,0,56661.3,0.362312,0.361973,-0.167554,85,0.614296,10,-6.065e-05,-3.77585,-0.59325,-0.0994522,0.362047,
2,0,0,1,0,56662.1,0.358316,0.357969,-0.170144,85,0.614153,10,-6.09064e-05,-3.76918,-1.03057,-0.0572498,0.358044,
2,0,0,1,0,56662.9,0.354321,0.353972,-0.172427,85,0.614008,10,-6.10345e-05,-3.76339,-0.836781,-0.0705083,0.354048,
2,0,0,1,0,56663.7,0.350327,0.350016,-0.173284,85,0.613861,10,-6.06522e-05,-3.76124,-0.64352,-0.0916832,0.350093,
2,0,0,1,0,56664.5,0.346331,0.346016,-0.176635,85,0.613712,10,-6.11186e-05,-3.75292,-1.08391,-0.0544328,0.346094,
2,0,0,0,0,56665.3,0.342336,0.342031,-0.179023,85,0.613562,10,-6.12315e-05,-3.74709,-0.56789,-0.103893,0.34211,
2,0,0,1,0,56666.1,0.338341,0.337951,-0.181364,85,0.61341,10,-6.12921e-05,-3.74145,-0.716153,-0.0823846,0.33803,
2,0,0,1,0,56666.9,0.334345,0.333992,-0.184272,85,0.613255,10,-6.15455e-05,-3.73454,-0.805736,-0.073225,0.334073,
2,0,0,1,0,56667.7,0.33035,0.330061,-0.186507,85,0.613099,10,-6.15586e-05,-3.72931,-0.470678,-0.125351,0.330143,
2,0,0,1,0,56668.5,0.326355,0.326009,-0.18958,85,0.61294,10,-6.18047e-05,-3.72221,-1.33512,-0.0441907,0.326092,
2,0,0,0,0,56669.3,0.32236,0.32203,-0.1909,85,0.61278,10,-6.14755e-05,-3.71919,-0.566488,-0.10415,0.322114,
2,0,0,1,0,56670.1,0.318365,0.318036,-0.192852,85,0.612618,10,-6.13341e-05,-3.71477,-0.785507,-0.0751107,0.318121,
2,0,0,0,0,56670.9,0.31437,0.314021,-0.196797,85,0.612453,10,-6.17982e-05,-3.70598,-0.782707,-0.0753794,0.314107,
2,0,0,1,0,56671.7,0.310374,0.310059,-0.198494,85,0.612287,10,-6.15447e-05,-3.70225,-0.489359,-0.120566,0.310146,
2,0,0,1,0,56672.5,0.306379,0.306045,-0.200723,85,0.612118,10,-6.14304e-05,-3.6974,-1.15027,-0.0512924,0.306134,
2,0,0,1,0,56673.3,0.302385,0.302044,-0.203661,85,0.611948,10,-6.15144e-05,-3.69109,-0.645944,-0.0913392,0.302133,
2,0,0,1,0,56674.1,0.298389,0.298045,-0.206128,85,0.611775,10,-6.14356e-05,-3.68586,-0.72682,-0.0811755,0.298136,
2,0,0,0,0,56674.9,0.294394,0.294076,-0.208076,85,0.611601,10,-6.11902e-05,-3.68178,-0.891736,-0.0661631,0.294168,
2,0,0,1,0,56675.7,0.290398,0.290088,-0.211288,85,0.611424,10,-6.12919e-05,-3.67513,-0.646856,-0.0912104,0.290181,
2,0,0,1,0,56676.5,0.286403,0.286092,-0.212681,85,0.611245,10,-6.08462e-05,-3.67227,-0.851103,-0.0693218,0.286185,
2,0,0,1,0,56677.3,0.282408,0.282048,-0.216411,85,0.611064,10,-6.10384e-05,-3.66472,-1.24504,-0.0473881,0.282144,
2,0,0,1,0,56678.1,0.278414,0.278128,-0.218488,85,0.610881,10,-6.07677e-05,-3.66057,-0.567226,-0.104015,0.278224,
2,0,0,0,0,56678.9,0.274418,0.274114,-0.221443,85,0.610695,10,-6.07007e-05,-3.65474,-0.617687,-0.0955176,0.274212,
2,0,0,1,0,56679.7,0.270423,0.270092,-0.225854,85,0.610508,10,-6.10014e-05,-3.64617,-0.784103,-0.0752452,0.270191,
2,0,0,1,0,56680.5,0.266427,0.266097,-0.227342,85,0.610318,10,-6.04951e-05,-3.64332,-0.992876,-0.0594233,0.266197,
2,0,0,1,0,56681.3,0.262432,0.262116,-0.230133,85,0.610126,10,-6.03214e-05,-3.63802,-0.820583,-0.0719001,0.262217,
2,0,0,1,0,56682.1,0.258437,0.258103,-0.232876,85,0.609932,10,-6.01062e-05,-3.63287,-0.913095,-0.0646154,0.258206,
2,0,0,0,0,56682.9,0.254442,0.254118,-0.234114,85,0.609736,10,-5.94925e-05,-3.63057,-0.970975,-0.0607637,0.254221,
2,0,0,1,0,56683.7,0.250447,0.250108,-0.237541,85,0.609537,10,-5.94108e-05,-3.62426,-0.921432,-0.0640307,0.250212,
2,0,0,0,0,56684.5,0.246452,0.246111,-0.239977,85,0.609337,10,-5.9061e-05,-3.61983,-0.757707,-0.0778665,0.246217,
2,0,0,1,0,56685.3,0.242456,0.242138,-0.242069,85,0.609135,10,-5.86142e-05,-3.61606,-0.875683,-0.067376,0.242245,
2,0,0,1,0,56686.1,0.238461,0.238145,-0.246059,85,0.608931,10,-5.85978e-05,-3.60896,-0.710021,-0.0830961,0.238253,
2,0,0,1,0,56686.9,0.234467,0.234163,-0.246568,85,0.608725,10,-5.77371e-05,-3.60806,-0.970986,-0.060763,0.234271,
2,0,0,1,0,56687.7,0.230471,0.230098,-0.250067,85,0.608517,10,-5.75399e-05,-3.60194,-1.24879,-0.0472458,0.230208,
2,0,0,0,0,56688.5,0.226476,0.226163,-0.252157,85,0.608307,10,-5.70284e-05,-3.59833,-0.949881,-0.062113,0.226274,
2,0,0,1,0,56689.3,0.222481,0.222108,-0.253448,85,0.608096,10,-5.62927e-05,-3.59611,-1.16851,-0.0504915,0.222219,
2,0,0,1,0,56690.1,0.218485,0.218164,-0.257191,85,0.607881,10,-5.61097e-05,-3.58974,-0.878518,-0.0671585,0.218277,
2,0,0,1,0,56690.9,0.21449,0.214131,-0.260133,85,0.607666,10,-5.57026e-05,-3.5848,-0.770063,-0.0766171,0.214246,
2,0,0,1,0,56691.7,0.210496,0.210148,-0.262553,85,0.607448,10,-5.51749e-05,-3.58078,-0.699813,-0.0843082,0.210263,
2,0,0,0,0,56692.5,0.2065,0.206135,-0.267078,85,0.607227,10,-5.50541e-05,-3.57336,-1.24914,-0.0472323,0.206252,
2,0,0,1,0,56693.3,0.202505,0.202126,-0.26888,85,0.607004,10,-5.43478e-05,-3.57044,-0.655772,-0.0899703,0.202245,
2,0,0,1,0,56694.1,0.198509,0.198159,-0.271966,85,0.606779,10,-5.38925e-05,-3.56549,-0.884624,-0.066695,0.198279,
2,0,0,1,0,56694.9,0.194514,0.194134,-0.275483,85,0.606551,10,-5.34805e-05,-3.55991,-0.681674,-0.0865516,0.194255,
2,0,0,1,0,56695.7,0.190519,0.190161,-0.278613,85,0.606319,10,-5.29813e-05,-3.555,-0.558996,-0.105546,0.190284,
2,0,0,0,0,56696.5,0.186524,0.186198,-0.283014,85,0.606085,10,-5.26967e-05,-3.54819,-1.2541,-0.0470456,0.186323,
2,0,0,1,0,56697.3,0.182529,0.182201,-0.286831,85,0.605848,10,-5.22609e-05,-3.54237,-0.465542,-0.126734,0.182328,
2,0,0,0,0,56698.1,0.178534,0.178178,-0.292359,85,0.605607,10,-5.2092e-05,-3.53408,-0.534923,-0.110296,0.178307,
2,0,0,1,0,56698.9,0.174538,0.17416,-0.297511,85,0.605361,10,-5.18145e-05,-3.5265,-0.399869,-0.147548,0.174291,
2,0,0,1,0,56699.7,0.170543,0.170216,-0.303213,85,0.605112,10,-5.16118e-05,-3.51825,-0.471169,-0.12522,0.17035,
2,0,0,1,0,56700.5,0.166549,0.16618,-0.309883,85,0.604856,10,-5.14964e-05,-3.5088,-0.421877,-0.139851,0.166316,
2,0,0,1,0,56701.3,0.162553,0.162182,-0.317918,85,0.604595,10,-5.15606e-05,-3.49768,-0.312149,-0.189012,0.162322,
2,0,0,0,0,56702.1,0.158558,0.158181,-0.326422,85,0.604326,10,-5.16338e-05,-3.48622,-0.253013,-0.23319,0.158325,
2,0,0,1,0,56702.9,0.154563,0.154212,-0.343139,85,0.604048,10,-5.29162e-05,-3.46453,-0.226852,-0.260082,0.154363,
2,0,0,1,0,56703.7,0.150567,0.150218,-0.360291,85,0.603757,10,-5.41223e-05,-3.44335,-0.153127,-0.385302,0.150377,
2,0,0,1,0,56704.4,0.146572,0.146218,-0.382577,85,0.603451,10,-5.59395e-05,-3.41728,-0.137469,-0.429188,0.146386,
2,0,0,1,0,56705.2,0.142578,0.142271,-0.413333,85,0.603124,10,-5.88053e-05,-3.3837,-0.111061,-0.531241,0.142453,
2,0,0,0,0,56706,0.138582,0.138273,-0.449477,85,0.60277,10,-6.21505e-05,-3.34729,-0.103021,-0.572697,0.138471,
2,0,0,1,0,56706.8,0.134587,0.134273,-0.493544,85,0.602383,10,-6.62697e-05,-3.30667,-0.0993206,-0.594036,0.13449,
2,0,0,1,0,56707.6,0.130591,0.130221,-0.537616,85,0.601961,10,-7.00089e-05,-3.26953,-0.117583,-0.501772,0.130457,
2,0,0,1,0,56708.4,0.126596,0.126212,-0.57658,85,0.601504,10,-7.27713e-05,-3.23914,-0.135302,-0.43606,0.126466,
2,0,0,1,0,56709.2,0.122602,0.122232,-0.613568,85,0.601016,10,-7.49979e-05,-3.21214,-0.190452,-0.309789,0.122502,
2,0,0,1,0,56710,0.118607,0.118298,-0.636993,85,0.600505,10,-7.53552e-05,-3.19587,-0.308591,-0.191191,0.118579,
2,0,0,1,0,56710.8,0.114611,0.1143,-0.650436,85,0.599979,10,-7.43451e-05,-3.1868,-0.652381,-0.0904379,0.114587,
2,0,0,0,0,56711.6,0.110616,0.110263,-0.656972,85,0.599446,10,-7.24399e-05,-3.18245,-1.1635,-0.0507092,0.110552,
2,0,0,1,0,56712.4,0.10662,0.106285,-0.658298,85,0.598909,10,-6.99675e-05,-3.18158,71.5265,0.000824869,0.106575,
2,0,0,1,0,56713.2,0.102625,0.102266,-0.657784,85,0.598372,10,-6.72689e-05,-3.18192,2.07985,0.0283674,0.102555,
2,0,0,1,0,56714,0.0986305,0.0982462,-0.656152,85,0.597836,10,-6.44644e-05,-3.183,2.31196,0.0255195,0.0985349,
2,0,0,1,0,56714.8,0.0946351,0.0942767,-0.650114,85,0.597303,10,-6.12906e-05,-3.18701,1.3014,0.0453358,0.0945628,
2,0,0,0,0,56715.6,0.0906399,0.0902716,-0.646673,85,0.596774,10,-5.83762e-05,-3.18932,0.874487,0.0674681,0.0905561,
2,0,0,1,0,56716.4,0.0866448,0.0863268,-0.640148,85,0.59625,10,-5.5262e-05,-3.19372,0.95632,0.0616948,0.0866085,
2,0,0,1,0,56717.2,0.0826492,0.0823171,-0.633383,85,0.59573,10,-5.21382e-05,-3.19833,0.762714,0.0773553,0.0825958,
2,0,0,1,0,56718,0.0786544,0.0782763,-0.626155,85,0.595218,10,-4.90131e-05,-3.20332,0.721673,0.0817545,0.0785518,
2,0,0,1,0,56718.8,0.0746596,0.0743055,-0.616161,85,0.594711,10,-4.57842e-05,-3.21031,0.746152,0.0790723,0.0745766,
2,0,0,0,0,56719.6,0.0706641,0.0702967,-0.610304,85,0.59421,10,-4.29024e-05,-3.21445,0.740768,0.0796471,0.0705652,
2,0,0,1,0,56720.4,0.0666689,0.0663445,-0.602676,85,0.593716,10,-3.99843e-05,-3.21992,0.962616,0.0612913,0.0666097,
2,0,0,0,0,56721.2,0.0626737,0.0623299,-0.593561,85,0.593226,10,-3.69966e-05,-3.22653,0.621627,0.0949121,0.062591,
2,0,0,1,0,56722,0.0586783,0.0582916,-0.586989,85,0.592743,10,-3.42165e-05,-3.23137,0.570972,0.103333,0.0585499,
2,0,0,1,0,56722.8,0.0546835,0.0543355,-0.578228,85,0.592267,10,-3.14183e-05,-3.2379,0.676731,0.0871838,0.0545899,
2,0,0,1,0,56723.6,0.0506886,0.0503339,-0.569025,85,0.591798,10,-2.86413e-05,-3.24487,0.593441,0.0994202,0.0505843,
2,0,0,1,0,56724.4,0.046693,0.0463209,-0.559437,85,0.591336,10,-2.59136e-05,-3.25225,0.558113,0.105713,0.046567,
2,0,0,0,0,56725.2,0.0426979,0.0423571,-0.550616,85,0.590882,10,-2.33225e-05,-3.25915,0.595858,0.0990169,0.0425994,
2,0,0,1,0,56726,0.0387022,0.0383015,-0.541657,85,0.590434,10,-2.07463e-05,-3.26628,0.441686,0.133579,0.0385398,
2,0,0,1,0,56726.8,0.0347074,0.0343467,-0.532273,85,0.589996,10,-1.82819e-05,-3.27387,0.652053,0.0904834,0.0345809,
2,0,0,1,0,56727.6,0.0307126,0.0303907,-0.521677,85,0.589563,10,-1.58541e-05,-3.2826,0.56316,0.104766,0.0306202,
2,0,0,1,0,56728.4,0.0267172,0.0264033,-0.515197,85,0.589138,10,-1.36029e-05,-3.28803,0.502946,0.117309,0.02663,
2,0,0,0,0,56729.2,0.022722,0.0223737,-0.506918,85,0.58872,10,-1.13417e-05,-3.29506,0.738393,0.0799033,0.0225968,
2,0,0,1,0,56730,0.0187268,0.0183877,-0.500736,85,0.588306,10,-9.20737e-06,-3.30039,0.90235,0.0653848,0.018608,
2,0,0,1,0,56730.8,0.0147313,0.0143992,-0.497699,85,0.587898,10,-7.16644e-06,-3.30303,1.07715,0.054774,0.0146181,
2,0,0,1,0,56731.6,0.0107365,0.0103953,-0.492427,85,0.587493,10,-5.11892e-06,-3.30766,1.53379,0.0384667,0.010612,
2,0,0,1,0,56732.4,0.00674163,0.0063769,-0.490506,85,0.58709,10,-3.1279e-06,-3.30936,3.32997,0.0177179,0.00659272,
2,0,0,0,0,56733.2,0.00274612,0.00241371,-0.489916,85,0.586689,10,-1.18251e-06,-3.30988,-2.27657,-0.0259162,0.00262927,
2,0,0,1,0,56733.7,0.000274105,-0.000122521,-0.492104,85,0.586437,10,6.0293e-08,-3.30794, , ,9.4005e-05,