File: Figure_codes/Fig_3-5/workspace_calculate_alpha_eff/20221101_1-115_003_TrumpetPlot_ParaChange_from10_every3_16_CV_C01_99.csv
mode,ox/red,error,control changes,counter inc.,time/s,control/V,Ewe/V,<I>/mA,cycle number,(Q-Qo)/C,I Range,P/W,log(|I|),Tafel slope mV/dec,alpha_eff,E-IR/V,
2,0,0,1,0,66244.4,2.44065e-05,-0.000248974,-0.0485115,100,0.0000000E+000,10,1.20781e-08,-4.31416, , ,-0.000227629,
2,1,0,1,0,66245.2,0.00379485,0.00345821,0.199314,100,0.000126001,10,6.8927e-07,-3.70046,0.0417894,1.41184,0.00337051,
2,1,0,0,0,66246,0.00779002,0.00748245,0.222214,100,0.000305065,10,1.66271e-06,-3.65323,0.103828,0.568247,0.00738468,
2,1,0,1,0,66246.8,0.0117852,0.0114675,0.236109,100,0.000499276,10,2.70757e-06,-3.62689,0.167403,0.352442,0.0113636,
2,1,0,1,0,66247.6,0.0157806,0.0154951,0.252233,100,0.000705024,10,3.90837e-06,-3.5982,0.163079,0.361788,0.0153841,
2,1,0,1,0,66248.4,0.0197754,0.0194618,0.263666,100,0.000920975,10,5.13141e-06,-3.57895,0.182286,0.323668,0.0193458,
2,1,0,1,0,66249.2,0.0237704,0.0234814,0.277247,100,0.00114756,10,6.51015e-06,-3.55713,0.188951,0.312251,0.0233594,
2,1,0,0,0,66250,0.0277659,0.0275019,0.290594,100,0.00138425,10,7.99186e-06,-3.53671,0.206949,0.285094,0.027374,
2,1,0,1,0,66250.8,0.0317611,0.0314423,0.303229,100,0.0016313,10,9.53422e-06,-3.51823,0.220705,0.267326,0.0313089,
2,1,0,1,0,66251.6,0.0357567,0.0354595,0.316566,100,0.00188887,10,1.12253e-05,-3.49954,0.252778,0.233406,0.0353202,
2,1,0,1,0,66252.4,0.0397516,0.0394286,0.329505,100,0.0021563,10,1.29919e-05,-3.48214,0.207777,0.283959,0.0392836,
2,1,0,1,0,66253.2,0.0437465,0.0434386,0.341188,100,0.00243454,10,1.48207e-05,-3.46701,0.252855,0.233336,0.0432885,
2,1,0,1,0,66254,0.0477413,0.0474231,0.353562,100,0.00272209,10,1.6767e-05,-3.45154,0.275411,0.214225,0.0472676,
2,1,0,1,0,66254.8,0.0517369,0.0514098,0.364528,100,0.00301933,10,1.87403e-05,-3.43827,0.277869,0.21233,0.0512494,
2,1,0,0,0,66255.6,0.0557321,0.0554149,0.376361,100,0.00332601,10,2.0856e-05,-3.4244,0.417825,0.141207,0.0552493,
2,1,0,1,0,66256.4,0.0597277,0.0593867,0.386395,100,0.00364067,10,2.29467e-05,-3.41297,0.311126,0.189634,0.0592167,
2,1,0,1,0,66257.2,0.0637226,0.0634497,0.395203,100,0.00396349,10,2.50755e-05,-3.40318,0.481588,0.122511,0.0632758,
2,1,0,1,0,66258,0.0677174,0.0673805,0.404529,100,0.0042937,10,2.72574e-05,-3.39305,0.509542,0.11579,0.0672025,
2,1,0,1,0,66258.8,0.0717128,0.0713921,0.411914,100,0.00462997,10,2.94074e-05,-3.38519,0.427626,0.137971,0.0712108,
2,1,0,0,0,66259.6,0.075708,0.0754227,0.417667,100,0.00497242,10,3.15016e-05,-3.37917,0.593824,0.099356,0.0752389,
2,1,0,1,0,66260.4,0.0797031,0.0793727,0.426005,100,0.00532018,10,3.38132e-05,-3.37059,0.571474,0.103242,0.0791853,
2,1,0,1,0,66261.2,0.0836986,0.0833804,0.433768,100,0.00567353,10,3.61677e-05,-3.36274,0.482114,0.122378,0.0831896,
2,1,0,1,0,66262,0.0876935,0.0873671,0.44338,100,0.00603384,10,3.87368e-05,-3.35322,0.399778,0.147582,0.087172,
2,1,0,1,0,66262.8,0.0916883,0.0913582,0.455343,100,0.00640217,10,4.15993e-05,-3.34166,0.283811,0.207885,0.0911578,
2,1,0,0,0,66263.6,0.0956838,0.095318,0.469323,100,0.00678177,10,4.47349e-05,-3.32853,0.261823,0.225343,0.0951115,
2,1,0,1,0,66264.4,0.099679,0.0993592,0.488824,100,0.00717503,10,4.85691e-05,-3.31085,0.250852,0.235198,0.0991441,
2,1,0,0,0,66265.2,0.103674,0.103369,0.509378,100,0.00758382,10,5.26537e-05,-3.29296,0.204164,0.288983,0.103145,
2,1,0,1,0,66266,0.10767,0.107348,0.528601,100,0.00800956,10,5.67441e-05,-3.27687,0.25843,0.228302,0.107115,
2,1,0,1,0,66266.7,0.111664,0.111312,0.547625,100,0.00844984,10,6.09573e-05,-3.26152,0.302074,0.195317,0.111071,
2,1,0,1,0,66267.5,0.115659,0.115338,0.561155,100,0.00890296,10,6.47226e-05,-3.25092,0.380807,0.154934,0.115091,
2,1,0,1,0,66268.3,0.119655,0.119301,0.571693,100,0.00936651,10,6.82037e-05,-3.24284,0.772395,0.0763857,0.11905,
2,1,0,0,0,66269.1,0.12365,0.123319,0.57975,100,0.0098368,10,7.14942e-05,-3.23676,0.709553,0.0831509,0.123064,
2,1,0,1,0,66269.9,0.127646,0.127332,0.583782,100,0.0103125,10,7.43343e-05,-3.23375,2.06196,0.0286136,0.127075,
2,1,0,1,0,66270.7,0.131641,0.131305,0.582898,100,0.01079,10,7.65375e-05,-3.23441,-0.561815,-0.105017,0.131049,
2,1,0,1,0,66271.5,0.135635,0.135349,0.569652,100,0.0112618,10,7.71019e-05,-3.24439,-0.278755,-0.211655,0.135098,
2,1,0,1,0,66272.3,0.139631,0.139309,0.538319,100,0.0117165,10,7.49927e-05,-3.26896,-0.128347,-0.45969,0.139072,
2,1,0,0,0,66273.1,0.143626,0.14329,0.494069,100,0.0121402,10,7.07951e-05,-3.30621,-0.088499,-0.666675,0.143072,
2,1,0,1,0,66273.9,0.147621,0.147265,0.439636,100,0.0125229,10,6.4743e-05,-3.35691,-0.0779771,-0.756632,0.147072,
2,1,0,1,0,66274.7,0.151617,0.15131,0.393467,100,0.0128652,10,5.95355e-05,-3.40509,-0.0924859,-0.637935,0.151137,
2,1,0,1,0,66275.5,0.155612,0.155305,0.361162,100,0.0131753,10,5.60905e-05,-3.4423,-0.126371,-0.466881,0.155147,
2,1,0,1,0,66276.3,0.159606,0.159252,0.339659,100,0.0134642,10,5.40913e-05,-3.46896,-0.182828,-0.322708,0.159102,
2,1,0,0,0,66277.1,0.163602,0.163314,0.3268,100,0.0137395,10,5.33712e-05,-3.48572,-0.253193,-0.233023,0.163171,
2,1,0,1,0,66277.9,0.167597,0.167272,0.316714,100,0.0140057,10,5.29773e-05,-3.49933,-0.559962,-0.105364,0.167133,
2,1,0,0,0,66278.7,0.171592,0.171239,0.311163,100,0.0142665,10,5.32831e-05,-3.50701,-0.490708,-0.120234,0.171102,
2,1,0,1,0,66279.5,0.175588,0.175239,0.307001,100,0.0145227,10,5.37986e-05,-3.51286,-0.683898,-0.0862702,0.175104,
2,1,0,1,0,66280.3,0.179582,0.179275,0.302824,100,0.0147756,10,5.42887e-05,-3.51881,-0.921066,-0.0640562,0.179141,
2,1,0,1,0,66281.1,0.183577,0.183287,0.300274,100,0.0150263,10,5.50363e-05,-3.52248,-1.1269,-0.0523559,0.183155,
2,1,0,1,0,66281.9,0.187573,0.187215,0.298108,100,0.015275,10,5.58103e-05,-3.52563,-1.91435,-0.0308198,0.187084,
2,1,0,0,0,66282.7,0.191568,0.191248,0.296355,100,0.0155223,10,5.66772e-05,-3.52819,-1.31818,-0.0447588,0.191117,
2,1,0,1,0,66283.5,0.195563,0.195226,0.295534,100,0.0157686,10,5.7696e-05,-3.52939,-1.09673,-0.0537963,0.195096,
2,1,0,1,0,66284.3,0.199559,0.199254,0.294244,100,0.0160138,10,5.86293e-05,-3.53129,4.06674,0.0145079,0.199124,
2,1,0,1,0,66285.1,0.203553,0.203197,0.292149,100,0.0162581,10,5.9364e-05,-3.53439,-1.73691,-0.0339684,0.203069,
2,1,0,1,0,66285.9,0.207548,0.207258,0.293216,100,0.0165017,10,6.07715e-05,-3.53281,-42.5275,-0.00138734,0.207129,
2,1,0,0,0,66286.7,0.211544,0.211226,0.291315,100,0.0167444,10,6.15332e-05,-3.53564,-2.01126,-0.0293348,0.211098,
2,1,0,1,0,66287.5,0.215539,0.215209,0.291368,100,0.0169863,10,6.27049e-05,-3.53556,-4.09678,-0.0144016,0.21508,
2,1,0,1,0,66288.3,0.219535,0.21926,0.290892,100,0.0172273,10,6.37809e-05,-3.53627,-3.54473,-0.0166444,0.219132,
2,1,0,1,0,66289.1,0.223529,0.223231,0.288987,100,0.0174679,10,6.45107e-05,-3.53912,-1.91599,-0.0307934,0.223104,
2,1,0,1,0,66289.9,0.227524,0.227158,0.288292,100,0.0177077,10,6.54878e-05,-3.54017,-2.09276,-0.0281924,0.227031,
2,1,0,0,0,66290.7,0.23152,0.231215,0.287754,100,0.0179468,10,6.65331e-05,-3.54098,14.1222,0.00417782,0.231089,
2,1,0,1,0,66291.5,0.235515,0.2352,0.286178,100,0.0181854,10,6.73092e-05,-3.54336,-1.69988,-0.0347083,0.235075,
2,1,0,0,0,66292.3,0.23951,0.239193,0.28609,100,0.0184232,10,6.84307e-05,-3.5435,-4.13368,-0.014273,0.239067,
2,1,0,1,0,66293.1,0.243506,0.243177,0.285701,100,0.0186603,10,6.94758e-05,-3.54409,4.99305,0.0118164,0.243051,
2,1,0,1,0,66293.9,0.2475,0.247172,0.284898,100,0.018897,10,7.04187e-05,-3.54531,-1.50285,-0.0392586,0.247046,
2,1,0,1,0,66294.7,0.251495,0.25119,0.283618,100,0.0191328,10,7.12419e-05,-3.54727,8.54846,0.00690183,0.251065,
2,1,0,1,0,66295.5,0.255491,0.255183,0.283893,100,0.0193683,10,7.24447e-05,-3.54685,-2.63586,-0.0223836,0.255058,
2,1,0,0,0,66296.3,0.259486,0.259185,0.282521,100,0.0196033,10,7.32251e-05,-3.54895,-1.45177,-0.0406401,0.25906,
2,1,0,1,0,66297.1,0.263481,0.26319,0.282444,100,0.0198373,10,7.43363e-05,-3.54907,-36.834,-0.00160178,0.263066,
2,1,0,1,0,66297.9,0.267476,0.267194,0.280118,100,0.020071,10,7.48459e-05,-3.55266,-4.61343,-0.0127888,0.267071,
2,1,0,1,0,66298.7,0.271471,0.271121,0.280911,100,0.0203041,10,7.61608e-05,-3.55143,-3.42438,-0.0172294,0.270997,
2,1,0,1,0,66299.5,0.275466,0.275184,0.279273,100,0.0205364,10,7.68515e-05,-3.55397,-4.87603,-0.0121,0.275061,
2,1,0,0,0,66300.3,0.279462,0.279179,0.279354,100,0.0207682,10,7.79897e-05,-3.55384,-2.22757,-0.0264863,0.279056,
2,1,0,1,0,66301.1,0.283457,0.283178,0.278684,100,0.0209992,10,7.89171e-05,-3.55489,-5.47086,-0.0107844,0.283055,
2,1,0,0,0,66301.9,0.287452,0.287115,0.277497,100,0.0212299,10,7.96734e-05,-3.55674,-3.68909,-0.0159931,0.286993,
2,1,0,1,0,66302.7,0.291448,0.291159,0.277006,100,0.0214598,10,8.0653e-05,-3.55751,-1.10787,-0.0532554,0.291038,
2,1,0,1,0,66303.5,0.295442,0.295125,0.275726,100,0.0216888,10,8.13736e-05,-3.55952,4.99108,0.0118211,0.295004,
2,1,0,1,0,66304.3,0.299437,0.299141,0.273709,100,0.0219173,10,8.18777e-05,-3.56271,-1.9006,-0.0310428,0.299021,
2,1,0,1,0,66305.1,0.303433,0.303121,0.273723,100,0.0221449,10,8.29709e-05,-3.56269,-4.4428,-0.0132799,0.303,
2,1,0,0,0,66305.9,0.307428,0.307125,0.272997,100,0.0223716,10,8.3844e-05,-3.56384,-7.31743,-0.00806294,0.307005,
2,1,0,1,0,66306.7,0.311424,0.311123,0.271909,100,0.0225978,10,8.45971e-05,-3.56558,-1.50277,-0.0392608,0.311003,
2,1,0,1,0,66307.5,0.315418,0.315099,0.271092,100,0.022823,10,8.54208e-05,-3.56688,-3.36267,-0.0175456,0.31498,
2,1,0,1,0,66308.3,0.319413,0.319106,0.270497,100,0.023048,10,8.63171e-05,-3.56784,-33.3172,-0.00177086,0.318987,
2,1,0,1,0,66309.1,0.323409,0.323122,0.270024,100,0.0232725,10,8.72507e-05,-3.5686,-1.48857,-0.0396354,0.323003,
2,1,0,0,0,66309.9,0.327404,0.327077,0.269986,100,0.0234963,10,8.83062e-05,-3.56866,-7.63578,-0.00772678,0.326959,
2,1,0,1,0,66310.7,0.331399,0.331072,0.2684,100,0.0237195,10,8.88597e-05,-3.57122,10.0652,0.00586179,0.330954,
2,1,0,1,0,66311.5,0.335395,0.335081,0.268274,100,0.0239424,10,8.98936e-05,-3.57142,-4.22033,-0.0139799,0.334963,
2,1,0,1,0,66312.3,0.339389,0.339069,0.267947,100,0.0241646,10,9.08526e-05,-3.57195,-4.49052,-0.0131388,0.338951,
2,1,0,1,0,66313.1,0.343384,0.343055,0.266843,100,0.0243865,10,9.15417e-05,-3.57374,-3.30555,-0.0178488,0.342938,
2,1,0,0,0,66313.9,0.34738,0.347048,0.267941,100,0.0246076,10,9.29883e-05,-3.57196,-10.3378,-0.00570722,0.34693,
2,1,0,1,0,66314.7,0.351375,0.351089,0.266785,100,0.0248286,10,9.36654e-05,-3.57384,-2.00738,-0.0293915,0.350972,
2,1,0,0,0,66315.5,0.35537,0.355062,0.265526,100,0.0250491,10,9.42782e-05,-3.57589,-26.3342,-0.00224043,0.354946,
2,1,0,1,0,66316.3,0.359365,0.359047,0.26571,100,0.025269,10,9.54021e-05,-3.57559,-13.2605,-0.00444929,0.35893,
2,1,0,1,0,66317.1,0.36336,0.363074,0.263964,100,0.0254889,10,9.58383e-05,-3.57846,-8.15975,-0.00723062,0.362958,
2,1,0,1,0,66317.9,0.367355,0.367036,0.26491,100,0.0257082,10,9.72314e-05,-3.5769,-6.30677,-0.00935502,0.366919,
2,1,0,1,0,66318.7,0.371351,0.371016,0.26302,100,0.0259271,10,9.75849e-05,-3.58001,4.9042,0.0120305,0.370901,
2,1,0,0,0,66319.5,0.375346,0.375069,0.264379,100,0.0261456,10,9.91605e-05,-3.57777,-1.28465,-0.0459271,0.374953,
2,1,0,1,0,66320.3,0.379342,0.37905,0.263575,100,0.0263637,10,9.99081e-05,-3.5791,-7.0545,-0.00836346,0.378934,
2,1,0,1,0,66321.1,0.383336,0.382983,0.26261,100,0.0265814,10,0.000100575,-3.58069,-5.63279,-0.0104744,0.382868,
2,1,0,1,0,66321.9,0.387331,0.387038,0.263017,100,0.0267988,10,0.000101797,-3.58002,-2.60972,-0.0226078,0.386922,
2,1,0,1,0,66322.7,0.391327,0.391027,0.261772,100,0.0270156,10,0.00010236,-3.58208,9.13069,0.00646173,0.390912,
2,1,0,0,0,66323.5,0.395322,0.395029,0.26136,100,0.0272321,10,0.000103245,-3.58276,-2.90698,-0.020296,0.394914,
2,1,0,1,0,66324.3,0.399317,0.399005,0.260902,100,0.0274482,10,0.000104101,-3.58352,-37.6478,-0.00156716,0.39889,
2,1,0,1,0,66325.1,0.403313,0.403053,0.260444,100,0.0276637,10,0.000104973,-3.58428,-4.85899,-0.0121425,0.402938,
2,1,0,1,0,66325.9,0.407307,0.407012,0.260342,100,0.027879,10,0.000105962,-3.58446,-19.1889,-0.00307469,0.406897,
2,1,0,1,0,66326.7,0.411302,0.41098,0.26056,100,0.0280939,10,0.000107085,-3.58409,-3.58005,-0.0164802,0.410865,
2,1,0,0,0,66327.5,0.415298,0.414987,0.259487,100,0.0283088,10,0.000107684,-3.58588,-24.0868,-0.00244948,0.414873,
2,1,0,1,0,66328.3,0.419293,0.419028,0.25982,100,0.0285233,10,0.000108872,-3.58533,-15.8332,-0.00372635,0.418914,
2,1,0,0,0,66329.1,0.423288,0.42299,0.259622,100,0.0287374,10,0.000109817,-3.58566,-5.75086,-0.0102593,0.422876,
2,1,0,1,0,66329.9,0.427283,0.426973,0.258653,100,0.0289515,10,0.000110438,-3.58728,11.5838,0.00509333,0.426859,
2,1,0,1,0,66330.7,0.431278,0.43103,0.258893,100,0.0291651,10,0.000111591,-3.58688,-9.2581,-0.0063728,0.430916,
2,1,0,1,0,66331.5,0.435273,0.434973,0.25895,100,0.0293787,10,0.000112636,-3.58678,21.5645,0.00273597,0.434859,
2,1,0,1,0,66332.3,0.439269,0.43898,0.258364,100,0.0295922,10,0.000113416,-3.58777,-1.51431,-0.0389615,0.438866,
2,1,0,0,0,66333.1,0.443264,0.442984,0.257887,100,0.0298053,10,0.00011424,-3.58857,5.0507,0.0116815,0.442871,
2,1,0,1,0,66333.9,0.447259,0.446957,0.257702,100,0.0300183,10,0.000115182,-3.58888,-35.6733,-0.0016539,0.446844,
2,1,0,1,0,66334.7,0.451254,0.450988,0.258122,100,0.0302313,10,0.00011641,-3.58818,3.5528,0.0166066,0.450875,
2,1,0,1,0,66335.5,0.455249,0.454964,0.258222,100,0.0304441,10,0.000117482,-3.58801,7.51191,0.00785419,0.454851,
2,1,0,1,0,66336.3,0.459244,0.45897,0.258053,100,0.030657,10,0.000118439,-3.58829,-2.61935,-0.0225246,0.458857,
2,1,0,0,0,66337.1,0.46324,0.462945,0.25858,100,0.0308697,10,0.000119708,-3.58741,9.68837,0.00608977,0.462831,
2,1,0,1,0,66337.9,0.467235,0.466962,0.258152,100,0.0310823,10,0.000120547,-3.58813,-277.635,-0.000212509,0.466848,
2,1,0,1,0,66338.7,0.471231,0.470919,0.258506,100,0.0312952,10,0.000121735,-3.58753,3.77251,0.0156395,0.470805,
2,1,0,1,0,66339.5,0.475225,0.47497,0.259138,100,0.0315082,10,0.000123083,-3.58647,20.3428,0.00290029,0.474856,
2,1,0,1,0,66340.3,0.47922,0.47893,0.259426,100,0.0317212,10,0.000124247,-3.58599,3.74063,0.0157728,0.478816,
2,1,0,0,0,66341.1,0.483216,0.482928,0.259279,100,0.0319347,10,0.000125213,-3.58623,-14.2284,-0.00414664,0.482814,
2,1,0,1,0,66341.9,0.487211,0.48693,0.260694,100,0.0321483,10,0.00012694,-3.58387,3.50601,0.0168282,0.486816,
2,1,0,0,0,66342.7,0.491206,0.490923,0.25975,100,0.0323623,10,0.000127517,-3.58544,3.94539,0.0149541,0.490808,
2,1,0,1,0,66343.5,0.495202,0.494965,0.261156,100,0.0325768,10,0.000129263,-3.5831,3.24475,0.0181832,0.49485,
2,1,0,1,0,66344.3,0.499196,0.498891,0.261583,100,0.0327915,10,0.000130501,-3.58239,1.87823,0.0314125,0.498775,
2,1,0,1,0,66345.1,0.503191,0.502882,0.26279,100,0.0330071,10,0.000132153,-3.58039,-10.3989,-0.0056737,0.502766,
2,1,0,1,0,66345.9,0.507187,0.506869,0.262571,100,0.0332229,10,0.000133089,-3.58075,1.68367,0.0350424,0.506754,
2,1,0,0,0,66346.7,0.511182,0.510888,0.264276,100,0.0334393,10,0.000135016,-3.57794,2.24558,0.0262738,0.510772,
2,1,0,1,0,66347.5,0.515177,0.514903,0.265502,100,0.033657,10,0.000136708,-3.57593,-6.83792,-0.00862835,0.514786,
2,1,0,1,0,66348.3,0.519173,0.518875,0.266126,100,0.0338749,10,0.000138086,-3.57491,1.40982,0.0418494,0.518758,
2,1,0,1,0,66349,0.523167,0.522871,0.266116,100,0.0340934,10,0.000139144,-3.57493,4.48127,0.0131659,0.522754,
2,1,0,1,0,66349.8,0.527162,0.526841,0.26786,100,0.0343127,10,0.000141119,-3.57209,1.05302,0.0560293,0.526723,
2,1,0,0,0,66350.6,0.531158,0.530843,0.26906,100,0.034533,10,0.000142828,-3.57015,4.11639,0.0143329,0.530724,
2,1,0,1,0,66351.4,0.535153,0.534877,0.2705,100,0.0347543,10,0.000144684,-3.56783,1.67644,0.0351936,0.534758,
2,1,0,0,0,66352.2,0.539148,0.538862,0.271788,100,0.0349764,10,0.000146456,-3.56577,4.54476,0.012982,0.538742,
2,1,0,1,0,66353,0.543143,0.542821,0.272884,100,0.0351997,10,0.000148127,-3.56402,1.39155,0.0423987,0.542701,
2,1,0,1,0,66353.8,0.547138,0.546836,0.275234,100,0.0354243,10,0.000150508,-3.5603,1.52304,0.0387382,0.546715,
2,1,0,1,0,66354.6,0.551133,0.550857,0.276698,100,0.0356502,10,0.000152421,-3.55799,0.752176,0.0784391,0.550735,
2,1,0,1,0,66355.4,0.555129,0.554826,0.279113,100,0.0358782,10,0.000154859,-3.55422,1.561,0.0377964,0.554703,
2,1,0,0,0,66356.2,0.559124,0.558833,0.281906,100,0.0361076,10,0.000157538,-3.5499,1.27594,0.0462403,0.558709,
2,1,0,1,0,66357,0.56312,0.562808,0.283752,100,0.036339,10,0.000159698,-3.54706,0.958343,0.0615646,0.562684,
2,1,0,1,0,66357.8,0.567114,0.566833,0.286684,100,0.0365726,10,0.000162502,-3.5426,1.01606,0.0580676,0.566707,
2,1,0,1,0,66358.6,0.571109,0.570802,0.289773,100,0.036808,10,0.000165403,-3.53794,0.961446,0.0613659,0.570674,
2,1,0,1,0,66359.4,0.575105,0.574809,0.292095,100,0.0370458,10,0.000167899,-3.53448,0.665162,0.0887002,0.574681,
2,1,0,0,0,66360.2,0.5791,0.578817,0.296377,100,0.0372863,10,0.000171548,-3.52816,1.00616,0.058639,0.578686,
2,1,0,1,0,66361,0.583095,0.582775,0.300383,100,0.0375298,10,0.000175056,-3.52232,0.529309,0.111466,0.582643,
2,1,0,1,0,66361.8,0.587091,0.586811,0.304494,100,0.0377768,10,0.00017868,-3.51642,0.737999,0.0799459,0.586677,
2,1,0,1,0,66362.6,0.591085,0.590792,0.310094,100,0.0380275,10,0.000183201,-3.50851,0.472581,0.124846,0.590655,
2,1,0,1,0,66363.4,0.59508,0.594777,0.315235,100,0.0382822,10,0.000187494,-3.50137,0.463612,0.127262,0.594638,
2,1,0,0,0,66364.2,0.599076,0.598769,0.321272,100,0.0385415,10,0.000192368,-3.49313,0.5158,0.114385,0.598628,
2,1,0,1,0,66365,0.603071,0.602756,0.327958,100,0.0388057,10,0.000197678,-3.48418,0.427538,0.137999,0.602612,
2,1,0,0,0,66365.8,0.607066,0.606756,0.334683,100,0.0390757,10,0.000203071,-3.47537,0.368893,0.159938,0.606609,
2,1,0,1,0,66366.6,0.611061,0.610799,0.344251,100,0.0393523,10,0.000210268,-3.46312,0.38435,0.153506,0.610647,
2,1,0,1,0,66367.4,0.615056,0.614796,0.353552,100,0.0396359,10,0.000217363,-3.45155,0.273918,0.215393,0.614641,
2,1,0,1,0,66368.2,0.619051,0.618772,0.364988,100,0.0399286,10,0.000225844,-3.43772,0.276616,0.213292,0.618612,
2,1,0,1,0,66369,0.623047,0.622733,0.378978,100,0.0402308,10,0.000236003,-3.42139,0.245292,0.24053,0.622567,
2,1,0,0,0,66369.8,0.627042,0.626752,0.394315,100,0.0405447,10,0.000247138,-3.40416,0.212613,0.277499,0.626579,
2,1,0,1,0,66370.6,0.631038,0.630735,0.412476,100,0.0408721,10,0.000260163,-3.3846,0.201394,0.292958,0.630553,
2,1,0,1,0,66371.4,0.635032,0.634758,0.43165,100,0.0412143,10,0.000273993,-3.36487,0.185279,0.318438,0.634568,
2,1,0,1,0,66372.2,0.639027,0.638791,0.455533,100,0.0415737,10,0.00029099,-3.34148,0.171081,0.344866,0.63859,
2,1,0,1,0,66373,0.643022,0.642727,0.482374,100,0.0419533,10,0.000310035,-3.31662,0.151807,0.388652,0.642515,
2,1,0,0,0,66373.8,0.647018,0.646726,0.514019,100,0.0423565,10,0.000332429,-3.28902,0.133104,0.443263,0.6465,
2,1,0,1,0,66374.6,0.651013,0.650773,0.549974,100,0.0427867,10,0.000357908,-3.25966,0.132893,0.443965,0.650531,
2,1,0,1,0,66375.4,0.655009,0.654743,0.592244,100,0.0432478,10,0.000387768,-3.2275,0.119901,0.492071,0.654483,
2,1,0,1,0,66376.2,0.659003,0.658715,0.642271,100,0.0437454,10,0.000423074,-3.19228,0.108882,0.54187,0.658433,
2,1,0,1,0,66377,0.662998,0.662738,0.699132,100,0.0442858,10,0.000463341,-3.15544,0.10592,0.557023,0.662431,
2,1,0,0,0,66377.8,0.666994,0.666686,0.764119,100,0.0448746,10,0.000509428,-3.11684,0.0995825,0.592474,0.66635,
2,1,0,1,0,66378.6,0.670989,0.670753,0.837476,100,0.0455193,10,0.00056174,-3.07703,0.0982683,0.600397,0.670384,
2,1,0,0,0,66379.4,0.674984,0.674688,0.923124,100,0.0462271,10,0.000622821,-3.03474,0.0929487,0.634759,0.674282,
2,1,0,1,0,66380.2,0.678979,0.678695,1.01849,100,0.0470068,10,0.000691244,-2.99204,0.090424,0.652482,0.678247,
2,1,0,1,0,66381,0.682974,0.682678,1.12526,100,0.0478675,10,0.000768192,-2.94875,0.0907354,0.650242,0.682183,
2,1,0,1,0,66381.8,0.686969,0.686679,1.24516,100,0.0488189,10,0.000855024,-2.90478,0.0888342,0.664159,0.686131,
2,1,0,1,0,66382.6,0.690965,0.690687,1.37864,100,0.049872,10,0.000952208,-2.86055,0.088485,0.666779,0.690081,
2,1,0,0,0,66383.4,0.69496,0.694692,1.52715,100,0.0510375,10,0.0010609,-2.81612,0.0898265,0.656822,0.69402,
2,1,0,1,0,66384.2,0.698955,0.698645,1.68744,100,0.0523259,10,0.00117892,-2.77277,0.0909417,0.648767,0.697902,
2,1,0,1,0,66385,0.70295,0.702662,1.86553,100,0.0537505,10,0.00131084,-2.7292,0.0889119,0.663578,0.701841,
2,1,0,1,0,66385.8,0.706945,0.706683,2.05758,100,0.0553225,10,0.00145406,-2.68664,0.0931759,0.633211,0.705777,
2,1,0,1,0,66386.6,0.71094,0.710645,2.26551,100,0.0570534,10,0.00160997,-2.64483,0.0958434,0.615587,0.709648,
2,1,0,0,0,66387.4,0.714936,0.714681,2.48656,100,0.0589563,10,0.0017771,-2.6044,0.0973095,0.606313,0.713587,
2,1,0,1,0,66388.2,0.718931,0.718649,2.72383,100,0.0610419,10,0.00195748,-2.56482,0.0978396,0.603028,0.717451,
2,1,0,1,0,66389,0.722926,0.722681,2.97628,100,0.063324,10,0.0021509,-2.52633,0.103809,0.56835,0.721371,
2,1,0,1,0,66389.8,0.726921,0.726635,3.24454,100,0.0658132,10,0.0023576,-2.48885,0.104735,0.563326,0.725208,
2,1,0,1,0,66390.6,0.730916,0.730634,3.52896,100,0.0685237,10,0.00257838,-2.45235,0.107357,0.549567,0.729081,
2,1,0,1,0,66391.4,0.734911,0.734664,3.83058,100,0.0714684,10,0.00281419,-2.41674,0.110695,0.532994,0.732979,
2,1,0,1,0,66392.2,0.738907,0.738631,4.14889,100,0.074661,10,0.00306449,-2.38207,0.11163,0.528534,0.736805,
2,1,0,0,0,66393,0.742902,0.74264,4.4838,100,0.0781144,10,0.00332985,-2.34835,0.115047,0.512836,0.740667,
2,1,0,1,0,66393.8,0.746897,0.746616,4.83994,100,0.0818438,10,0.00361357,-2.31516,0.117861,0.50059,0.744486,
2,1,0,1,0,66394.6,0.750892,0.750632,5.21225,100,0.0858633,10,0.00391248,-2.28297,0.118771,0.496753,0.748339,
2,1,0,1,0,66395.4,0.754887,0.754614,5.60456,100,0.090189,10,0.00422928,-2.25146,0.122432,0.481899,0.752148,
2,1,0,1,0,66396.2,0.758883,0.758586,6.02031,100,0.0948385,10,0.00456693,-2.22038,0.125261,0.471015,0.755938,
2,1,0,0,0,66397,0.762878,0.762602,6.45632,100,0.0998275,10,0.00492361,-2.19001,0.124677,0.473223,0.759761,
2,1,0,1,0,66397.8,0.766873,0.766592,6.91642,100,0.105175,10,0.00530208,-2.16012,0.126907,0.464908,0.763549,
2,1,0,1,0,66398.6,0.770868,0.770582,7.40244,100,0.1109,10,0.00570418,-2.13063,0.128319,0.459792,0.767325,
2,1,0,1,0,66399.4,0.774863,0.774555,7.91241,100,0.117023,10,0.0061286,-2.10169,0.133018,0.443548,0.771074,
2,1,0,1,0,66400.2,0.778858,0.778584,8.44743,100,0.123563,10,0.00657703,-2.07328,0.133816,0.440903,0.774867,
2,1,0,0,0,66401,0.782853,0.782599,9.01604,100,0.130544,10,0.00705595,-2.04498,0.131978,0.447045,0.778632,
2,1,0,1,0,66401.8,0.786849,0.786631,9.61811,100,0.137992,10,0.0075659,-2.01691,0.133547,0.441793,0.782399,
2,1,0,0,0,66402.6,0.790844,0.790583,10.2593,100,0.145936,10,0.00811079,-1.98888,0.133653,0.441443,0.786069,
2,1,0,1,0,66403.4,0.794839,0.794605,10.9296,100,0.154405,10,0.00868468,-1.9614,0.134593,0.438358,0.789796,
2,1,0,1,0,66404.2,0.798834,0.798573,11.6551,100,0.163431,10,0.00930742,-1.93349,0.129407,0.455926,0.793445,
2,1,0,1,0,66405,0.802829,0.802584,12.4279,100,0.173055,10,0.00997443,-1.9056,0.131928,0.447214,0.797116,
2,1,0,1,0,66405.8,0.806825,0.80657,13.2445,100,0.183317,10,0.0106826,-1.87796,0.13133,0.44925,0.800742,
2,1,0,0,0,66406.6,0.81082,0.810543,14.1089,100,0.194248,10,0.0114359,-1.85051,0.133492,0.441973,0.804335,
2,1,0,1,0,66407.4,0.814816,0.81456,15.0025,100,0.205884,10,0.0122205,-1.82384,0.135011,0.437,0.807959,
2,1,0,1,0,66408.2,0.81881,0.818499,15.894,100,0.218247,10,0.0130092,-1.79877,0.139981,0.421485,0.811505,
2,1,0,1,0,66409,0.822805,0.822572,16.9044,100,0.231359,10,0.0139051,-1.772,0.137058,0.430476,0.815134,
2,1,0,1,0,66409.8,0.8268,0.826516,17.9417,100,0.245286,10,0.0148291,-1.74614,0.137209,0.430001,0.818622,
2,1,0,0,0,66410.6,0.830796,0.830529,19.0213,100,0.260057,10,0.0157977,-1.72076,0.139878,0.421795,0.822159,
2,1,0,1,0,66411.4,0.834791,0.834559,20.1254,100,0.275702,10,0.0167959,-1.69626,0.148483,0.397352,0.825704,
2,1,0,1,0,66412.2,0.838786,0.838534,21.2552,100,0.292241,10,0.0178232,-1.67254,0.147519,0.399949,0.829182,
2,1,0,1,0,66413,0.842781,0.842536,22.4388,100,0.3097,10,0.0189055,-1.649,0.150133,0.392985,0.832663,
2,1,0,1,0,66413.8,0.846776,0.846535,23.6269,100,0.328112,10,0.020001,-1.62659,0.159572,0.36974,0.83614,
2,1,0,1,0,66414.5,0.849723,0.849485,24.4104,100,0.344994,10,0.0207363,-1.61242,0.0535838,1.10108,0.838745,
2,1,0,0,0,66415.3,0.845728,0.845493,22.6213,100,0.363734,10,0.0191262,-1.64548,0.110487,0.533998,0.83554,
2,1,0,1,0,66416.1,0.841732,0.841445,21.1973,100,0.381218,10,0.0178363,-1.67372,0.120469,0.489753,0.832119,
2,1,0,1,0,66416.9,0.837737,0.83746,19.8617,100,0.397607,10,0.0166334,-1.70198,0.122556,0.481412,0.828721,
2,1,0,1,0,66417.7,0.833742,0.833516,18.6175,100,0.41297,10,0.015518,-1.73008,0.121401,0.485993,0.825324,
2,1,0,1,0,66418.5,0.829747,0.829488,17.4317,100,0.427361,10,0.0144594,-1.75866,0.123286,0.478563,0.821818,
2,1,0,0,0,66419.3,0.825752,0.825485,16.3276,100,0.44084,10,0.0134782,-1.78708,0.12026,0.490603,0.818301,
2,1,0,1,0,66420.1,0.821757,0.821534,15.232,100,0.453448,10,0.0125136,-1.81724,0.116426,0.506758,0.814832,
2,1,0,1,0,66420.9,0.817761,0.817475,14.234,100,0.465207,10,0.0116359,-1.84667,0.125481,0.47019,0.811212,
2,1,0,1,0,66421.7,0.813766,0.813493,13.307,100,0.476203,10,0.0108252,-1.87592,0.120601,0.489217,0.807638,
2,1,0,1,0,66422.5,0.809771,0.809514,12.4259,100,0.486472,10,0.010059,-1.90567,0.119401,0.494132,0.804046,
2,1,0,1,0,66423.3,0.805776,0.805536,11.5943,100,0.496057,10,0.00933962,-1.93576,0.123,0.479674,0.800435,
2,1,0,1,0,66424.1,0.801781,0.801517,10.8205,100,0.505004,10,0.00867278,-1.96575,0.120021,0.491579,0.796756,
2,1,0,0,0,66424.9,0.797786,0.797525,10.0914,100,0.513349,10,0.00804811,-1.99605,0.12169,0.48484,0.793085,
2,1,0,1,0,66425.7,0.79379,0.793471,9.39756,100,0.521127,10,0.00745669,-2.02699,0.120003,0.491652,0.789336,
2,1,0,1,0,66426.5,0.789795,0.789536,8.74691,100,0.528367,10,0.00690601,-2.05815,0.117137,0.503683,0.785688,
2,1,0,1,0,66427.3,0.7858,0.785556,8.1374,100,0.535103,10,0.00639239,-2.08951,0.12043,0.489912,0.781976,
2,1,0,1,0,66428.1,0.781805,0.781554,7.56634,100,0.541371,10,0.0059135,-2.12111,0.117736,0.501121,0.778225,
2,1,0,0,0,66428.9,0.77781,0.777546,7.0339,100,0.547195,10,0.00546918,-2.1528,0.11743,0.502427,0.774451,
2,1,0,1,0,66429.7,0.773815,0.773549,6.52788,100,0.552605,10,0.00504964,-2.18523,0.115513,0.510764,0.770676,
2,1,0,1,0,66430.5,0.769819,0.769566,6.04983,100,0.55762,10,0.00465574,-2.21826,0.114605,0.514813,0.766904,
2,1,0,1,0,66431.3,0.765824,0.765586,5.60418,100,0.562268,10,0.00429048,-2.25149,0.113784,0.518526,0.76312,
2,1,0,1,0,66432,0.761829,0.76154,5.1885,100,0.566572,10,0.00395125,-2.28496,0.112139,0.526131,0.759257,
2,1,0,0,0,66432.8,0.757834,0.757543,4.7956,100,0.570554,10,0.00363287,-2.31916,0.112093,0.526348,0.755433,
2,1,0,1,0,66433.6,0.753839,0.753563,4.42616,100,0.57423,10,0.00333539,-2.35397,0.108871,0.541928,0.751616,
2,1,0,0,0,66434.4,0.749843,0.749591,4.08009,100,0.577622,10,0.00305839,-2.38933,0.106522,0.553878,0.747796,
2,1,0,1,0,66435.2,0.745848,0.745602,3.74782,100,0.580741,10,0.00279438,-2.42622,0.103656,0.569188,0.743953,
2,1,0,1,0,66436,0.741853,0.74159,3.4404,100,0.583605,10,0.00255137,-2.46339,0.102687,0.57456,0.740077,
2,1,0,1,0,66436.8,0.737858,0.737583,3.15048,100,0.586232,10,0.00232374,-2.50162,0.100295,0.588267,0.736197,
2,1,0,1,0,66437.6,0.733863,0.733618,2.88085,100,0.588635,10,0.00211344,-2.54048,0.0978261,0.603111,0.73235,
2,1,0,0,0,66438.4,0.729868,0.729581,2.62126,100,0.590826,10,0.00191242,-2.58149,0.0933694,0.631899,0.728428,
2,1,0,1,0,66439.2,0.725872,0.725631,2.38044,100,0.592819,10,0.00172732,-2.62334,0.0905125,0.651844,0.724583,
2,1,0,1,0,66440,0.721877,0.721574,2.15385,100,0.594624,10,0.00155416,-2.66678,0.0891914,0.661499,0.720626,
2,1,0,1,0,66440.8,0.717882,0.717594,1.94002,100,0.596253,10,0.00139215,-2.71219,0.0856081,0.689187,0.716741,
2,1,0,1,0,66441.6,0.713887,0.713612,1.74252,100,0.597719,10,0.00124348,-2.75882,0.0815242,0.723712,0.712846,
2,1,0,0,0,66442.4,0.709892,0.709587,1.55615,100,0.59903,10,0.00110422,-2.80795,0.0780644,0.755786,0.708902,
2,1,0,1,0,66443.2,0.705897,0.705651,1.38461,100,0.600199,10,0.000977052,-2.85867,0.0750637,0.785999,0.705042,
2,1,0,1,0,66444,0.701901,0.701592,1.22436,100,0.601235,10,0.000859005,-2.91209,0.071807,0.821647,0.701054,
2,1,0,1,0,66444.8,0.697906,0.697624,1.07699,100,0.602149,10,0.000751334,-2.96779,0.0704518,0.837452,0.697151,
2,1,0,1,0,66445.6,0.693911,0.69362,0.942587,100,0.60295,10,0.000653797,-3.02568,0.0657144,0.897824,0.693205,
2,1,0,0,0,66446.4,0.689916,0.689614,0.819464,100,0.603648,10,0.000565114,-3.08647,0.0622454,0.947861,0.689254,
2,1,0,1,0,66447.2,0.685921,0.685644,0.706221,100,0.604252,10,0.000484216,-3.15106,0.0602001,0.980064,0.685333,
2,1,0,0,0,66448,0.681926,0.681688,0.6035,100,0.604769,10,0.000411399,-3.21932,0.0565466,1.04339,0.681422,
2,1,0,1,0,66448.8,0.67793,0.677622,0.512972,100,0.605209,10,0.000347601,-3.28991,0.0550443,1.07186,0.677396,
2,1,0,1,0,66449.6,0.673935,0.673606,0.430778,100,0.605581,10,0.000290174,-3.36575,0.0505389,1.16742,0.673416,
2,1,0,1,0,66450.4,0.66994,0.669648,0.358849,100,0.60589,10,0.000240302,-3.44509,0.0479037,1.23164,0.66949,
2,1,0,1,0,66451.2,0.665945,0.665677,0.294371,100,0.606145,10,0.000195956,-3.5311,0.0449887,1.31144,0.665547,
2,1,0,0,0,66452,0.66195,0.661656,0.238485,100,0.606352,10,0.000157795,-3.62254,0.0420512,1.40305,0.661551,
2,1,0,1,0,66452.8,0.657955,0.657669,0.189943,100,0.606518,10,0.00012492,-3.72138,0.0383128,1.53996,0.657585,
2,1,0,1,0,66453.6,0.653959,0.653679,0.146512,100,0.606647,10,9.57718e-05,-3.83413,0.0330271,1.78641,0.653615,
2,1,0,1,0,66454.4,0.649964,0.649674,0.110019,100,0.606744,10,7.14763e-05,-3.95853,0.0297211,1.98512,0.649626,
2,1,0,1,0,66455.2,0.645969,0.645691,0.0783762,100,0.606814,10,5.06068e-05,-4.10582,0.0253833,2.32436,0.645656,
2,1,0,0,0,66456,0.641974,0.641665,0.0520507,100,0.60686,10,3.33991e-05,-4.28357,0.0186881,3.15708,0.641642,
2,1,0,1,0,66456.8,0.637979,0.637695,0.0293288,100,0.606887,10,1.87028e-05,-4.53271,0.0123294,4.78531,0.637682,
2,1,0,1,0,66457.6,0.633983,0.63368,0.010097,100,0.606897,10,6.39829e-06,-4.99581,0.00392363,15.0371,0.633675,
2,0,0,1,0,66458.4,0.629988,0.629662,-0.00580968,100,0.606893,10,-3.65813e-06,-5.23585,-0.00461926,-12.7726,0.629665,
2,0,0,1,0,66459.2,0.625993,0.62572,-0.0192217,100,0.606878,10,-1.20274e-05,-4.71621,-0.0149619,-3.94335,0.625728,
2,0,0,0,0,66460,0.621998,0.62173,-0.0301093,100,0.606852,10,-1.87198e-05,-4.5213,-0.0268892,-2.19419,0.621744,
2,0,0,1,0,66460.8,0.618003,0.617676,-0.0397322,100,0.606819,10,-2.45416e-05,-4.40086,-0.0397649,-1.48372,0.617694,
2,0,0,0,0,66461.6,0.614008,0.613708,-0.0482465,100,0.606778,10,-2.96093e-05,-4.31653,-0.0701291,-0.841305,0.61373,
2,0,0,1,0,66462.4,0.610012,0.60973,-0.0543699,100,0.606732,10,-3.3151e-05,-4.26464,-0.0778965,-0.757415,0.609754,
2,0,0,1,0,66463.2,0.606017,0.605734,-0.0600974,100,0.606681,10,-3.64031e-05,-4.22114,-0.0855719,-0.689478,0.605761,
2,0,0,1,0,66464,0.602022,0.601719,-0.0658787,100,0.606624,10,-3.96404e-05,-4.18125,-0.15428,-0.382421,0.601748,
2,0,0,1,0,66464.8,0.598027,0.597735,-0.0692341,100,0.606565,10,-4.13836e-05,-4.15968,-0.14092,-0.418678,0.597766,
2,0,0,0,0,66465.6,0.594032,0.59372,-0.0735243,100,0.606502,10,-4.36528e-05,-4.13357,-0.197518,-0.298707,0.593752,
2,0,0,1,0,66466.4,0.590037,0.589758,-0.0770151,100,0.606436,10,-4.54203e-05,-4.11342,-0.259558,-0.22731,0.589792,
2,0,0,1,0,66467.2,0.586041,0.585742,-0.0797951,100,0.606368,10,-4.67393e-05,-4.09802,-0.310381,-0.190089,0.585777,
2,0,0,1,0,66468,0.582046,0.581738,-0.0822449,100,0.606297,10,-4.7845e-05,-4.08489,-0.440613,-0.133904,0.581774,
2,0,0,1,0,66468.8,0.578052,0.577779,-0.0840518,100,0.606225,10,-4.85634e-05,-4.07545,-0.283648,-0.208004,0.577816,
2,0,0,0,0,66469.6,0.574056,0.573836,-0.0860948,100,0.606151,10,-4.94043e-05,-4.06502,-0.439836,-0.134141,0.573874,
2,0,0,1,0,66470.4,0.570061,0.569796,-0.0884564,100,0.606076,10,-5.04021e-05,-4.05327,-0.424512,-0.138983,0.569835,
2,0,0,1,0,66471.2,0.566065,0.565712,-0.0899167,100,0.605999,10,-5.08669e-05,-4.04616,-0.435199,-0.13557,0.565751,
2,0,0,1,0,66472,0.56207,0.561742,-0.0908424,100,0.605921,10,-5.103e-05,-4.04171,-0.405884,-0.145362,0.561782,
2,0,0,1,0,66472.8,0.558075,0.557779,-0.0931284,100,0.605841,10,-5.1945e-05,-4.03092,-1.07199,-0.0550378,0.55782,
2,0,0,1,0,66473.6,0.55408,0.553782,-0.0937584,100,0.605761,10,-5.19217e-05,-4.02799,-0.955157,-0.06177,0.553823,
2,0,0,1,0,66474.4,0.550085,0.549767,-0.0946429,100,0.60568,10,-5.20316e-05,-4.02391,-1.06048,-0.0556354,0.549808,
2,0,0,0,0,66475.2,0.54609,0.545813,-0.0963169,100,0.605597,10,-5.2571e-05,-4.0163,-0.770221,-0.0766014,0.545855,
2,0,0,1,0,66476,0.542094,0.541809,-0.0969507,100,0.605514,10,-5.25288e-05,-4.01345,-0.681702,-0.0865481,0.541852,
2,0,0,1,0,66476.8,0.538099,0.537807,-0.0987209,100,0.60543,10,-5.30927e-05,-4.00559,-1.8315,-0.0322141,0.53785,
2,0,0,1,0,66477.6,0.534104,0.5338,-0.0995356,100,0.605345,10,-5.31321e-05,-4.00202,-0.465714,-0.126687,0.533844,
2,0,0,1,0,66478.4,0.530109,0.529762,-0.100778,100,0.605259,10,-5.33884e-05,-3.99663,-2.34631,-0.0251459,0.529807,
2,0,0,0,0,66479.2,0.526114,0.525771,-0.102197,100,0.605172,10,-5.37324e-05,-3.99056,-0.543799,-0.108496,0.525816,
2,0,0,1,0,66480,0.522119,0.521832,-0.102605,100,0.605084,10,-5.35426e-05,-3.98883,-0.690485,-0.0854472,0.521877,
2,0,0,1,0,66480.8,0.518123,0.517798,-0.103958,100,0.604996,10,-5.38295e-05,-3.98314,-8.80392,-0.00670156,0.517844,
2,0,0,1,0,66481.6,0.514128,0.513873,-0.105382,100,0.604906,10,-5.41529e-05,-3.97723,-0.449659,-0.13121,0.51392,
2,0,0,1,0,66482.4,0.510134,0.509827,-0.105803,100,0.604816,10,-5.39415e-05,-3.9755,-0.891049,-0.0662141,0.509874,
2,0,0,0,0,66483.2,0.506138,0.505809,-0.106884,100,0.604724,10,-5.40627e-05,-3.97109,-1.94671,-0.0303076,0.505856,
2,0,0,1,0,66484,0.502143,0.501866,-0.108101,100,0.604632,10,-5.42523e-05,-3.96617,-0.518519,-0.113786,0.501914,
2,0,0,0,0,66484.8,0.498148,0.497823,-0.110654,100,0.604538,10,-5.50859e-05,-3.95603,-1.28143,-0.0460421,0.497872,
2,0,0,1,0,66485.6,0.494152,0.493866,-0.11116,100,0.604444,10,-5.48982e-05,-3.95405,-0.638384,-0.0924209,0.493915,
2,0,0,1,0,66486.4,0.490157,0.489859,-0.112806,100,0.604348,10,-5.52591e-05,-3.94767,-0.880815,-0.0669834,0.489909,
2,0,0,1,0,66487.2,0.486162,0.485845,-0.113772,100,0.604252,10,-5.52756e-05,-3.94396,-0.595718,-0.0990402,0.485895,
2,0,0,1,0,66488,0.482167,0.481826,-0.114637,100,0.604154,10,-5.52349e-05,-3.94068,-12.1618,-0.00485126,0.481876,
2,0,0,0,0,66488.8,0.478172,0.477916,-0.115385,100,0.604056,10,-5.51442e-05,-3.93785,-0.5558,-0.106153,0.477967,
2,0,0,1,0,66489.6,0.474177,0.473886,-0.117139,100,0.603956,10,-5.55107e-05,-3.9313,-1.36209,-0.0433157,0.473938,
2,0,0,1,0,66490.4,0.470181,0.469868,-0.118778,100,0.603855,10,-5.581e-05,-3.92526,-0.544262,-0.108404,0.46992,
2,0,0,1,0,66491.2,0.466186,0.465896,-0.120249,100,0.603753,10,-5.60234e-05,-3.91992,-0.571678,-0.103205,0.465949,
2,0,0,1,0,66492,0.462191,0.461872,-0.122266,100,0.60365,10,-5.64711e-05,-3.9127,-1.03679,-0.0569063,0.461926,
2,0,0,0,0,66492.8,0.458196,0.457921,-0.123219,100,0.603545,10,-5.64244e-05,-3.90932,-0.718287,-0.0821399,0.457975,
2,0,0,1,0,66493.6,0.454201,0.453898,-0.125501,100,0.60344,10,-5.69645e-05,-3.90135,-1.54181,-0.0382666,0.453953,
2,0,0,1,0,66494.4,0.450205,0.449897,-0.125787,100,0.603333,10,-5.65911e-05,-3.90037,-0.422968,-0.13949,0.449953,
2,0,0,1,0,66495.2,0.44621,0.445899,-0.127788,100,0.603224,10,-5.69803e-05,-3.89351,-0.923063,-0.0639176,0.445955,
2,0,0,1,0,66496,0.442215,0.441926,-0.13054,100,0.603115,10,-5.76892e-05,-3.88426,-1.00291,-0.0588286,0.441983,
2,0,0,0,0,66496.8,0.43822,0.437934,-0.131406,100,0.603004,10,-5.75473e-05,-3.88138,-0.651303,-0.0905876,0.437992,
2,0,0,1,0,66497.6,0.434225,0.433924,-0.133211,100,0.602892,10,-5.78035e-05,-3.87546,-0.496758,-0.11877,0.433982,
2,0,0,0,0,66498.4,0.43023,0.429885,-0.134617,100,0.602778,10,-5.78699e-05,-3.8709,-1.27094,-0.0464222,0.429944,
2,0,0,1,0,66499.2,0.426234,0.425943,-0.136746,100,0.602662,10,-5.82458e-05,-3.86409,-0.404712,-0.145783,0.426003,
2,0,0,1,0,66500,0.422239,0.421951,-0.138457,100,0.602545,10,-5.8422e-05,-3.85869,-1.49024,-0.0395909,0.422012,
2,0,0,1,0,66500.8,0.418244,0.417927,-0.140225,100,0.602427,10,-5.86038e-05,-3.85317,-0.507457,-0.116266,0.417989,
2,0,0,1,0,66501.6,0.414249,0.413958,-0.142261,100,0.602307,10,-5.88903e-05,-3.84691,-0.837113,-0.0704804,0.414021,
2,0,0,0,0,66502.4,0.410254,0.40996,-0.144791,100,0.602185,10,-5.93584e-05,-3.83926,-0.721352,-0.0817909,0.410023,
2,0,0,1,0,66503.2,0.406259,0.405962,-0.146653,100,0.602061,10,-5.95357e-05,-3.83371,-0.555997,-0.106116,0.406027,
2,0,0,1,0,66504,0.402263,0.40192,-0.148677,100,0.601936,10,-5.97562e-05,-3.82776,-0.680142,-0.0867466,0.401985,
2,0,0,1,0,66504.8,0.398268,0.397921,-0.150964,100,0.601809,10,-6.00718e-05,-3.82113,-0.584713,-0.100904,0.397988,
2,0,0,1,0,66505.6,0.394274,0.393937,-0.151837,100,0.601681,10,-5.98141e-05,-3.81862,-0.688323,-0.0857155,0.394004,
2,0,0,0,0,66506.4,0.390278,0.389953,-0.154885,100,0.60155,10,-6.03978e-05,-3.80999,-1.22993,-0.0479701,0.390021,
2,0,0,1,0,66507.2,0.386283,0.385939,-0.157173,100,0.601419,10,-6.06592e-05,-3.80362,-0.542119,-0.108832,0.386009,
2,0,0,1,0,66508,0.382287,0.382006,-0.158835,100,0.601285,10,-6.06758e-05,-3.79905,-0.697097,-0.0846367,0.382076,
2,0,0,1,0,66508.8,0.378292,0.377974,-0.160949,100,0.60115,10,-6.08344e-05,-3.79331,-0.890073,-0.0662867,0.378045,
2,0,0,1,0,66509.6,0.374297,0.373981,-0.163107,100,0.601013,10,-6.0999e-05,-3.78753,-0.49916,-0.118198,0.374053,
2,0,0,1,0,66510.4,0.370303,0.369976,-0.165363,100,0.600874,10,-6.11803e-05,-3.78156,-0.839647,-0.0702676,0.370048,
2,0,0,1,0,66511.2,0.366307,0.365996,-0.168066,100,0.600733,10,-6.15117e-05,-3.77452,-0.692735,-0.0851696,0.36607,
2,0,0,0,0,66512,0.362312,0.362035,-0.170061,100,0.600591,10,-6.15681e-05,-3.76939,-0.615475,-0.0958609,0.362109,
2,0,0,1,0,66512.8,0.358316,0.358014,-0.171893,100,0.600447,10,-6.15403e-05,-3.76474,-1.43489,-0.0411182,0.35809,
2,0,0,1,0,66513.6,0.354321,0.353973,-0.173868,100,0.600301,10,-6.15447e-05,-3.75978,-0.645996,-0.0913318,0.35405,
2,0,0,1,0,66514.4,0.350327,0.350002,-0.176082,100,0.600153,10,-6.16289e-05,-3.75429,-0.545102,-0.108237,0.350079,
2,0,0,1,0,66515.1,0.346331,0.346016,-0.179558,100,0.600003,10,-6.21298e-05,-3.7458,-1.16843,-0.0504952,0.346095,
2,0,0,0,0,66515.9,0.342336,0.341984,-0.180746,100,0.599851,10,-6.18122e-05,-3.74293,-0.504886,-0.116858,0.342064,
2,0,0,1,0,66516.7,0.338341,0.338041,-0.183316,100,0.599698,10,-6.19682e-05,-3.7368,-1.1238,-0.0525003,0.338121,
2,0,0,1,0,66517.5,0.334345,0.334076,-0.185954,100,0.599542,10,-6.21227e-05,-3.73059,-0.837148,-0.0704774,0.334157,
2,0,0,1,0,66518.3,0.33035,0.330025,-0.187474,100,0.599385,10,-6.18711e-05,-3.72706,-0.525549,-0.112264,0.330108,
2,0,0,1,0,66519.1,0.326355,0.326069,-0.190096,100,0.599225,10,-6.19844e-05,-3.72103,-0.874635,-0.0674567,0.326153,
2,0,0,0,0,66519.9,0.32236,0.322064,-0.193413,100,0.599064,10,-6.22914e-05,-3.71351,-0.570799,-0.103364,0.322149,
2,0,0,1,0,66520.7,0.318365,0.318037,-0.195612,100,0.5989,10,-6.22118e-05,-3.70861,-1.17065,-0.0503992,0.318123,
2,0,0,0,0,66521.5,0.31437,0.31403,-0.197671,100,0.598735,10,-6.20745e-05,-3.70406,-0.96885,-0.060897,0.314117,
2,0,0,1,0,66522.3,0.310374,0.310047,-0.199711,100,0.598568,10,-6.19198e-05,-3.6996,-0.478681,-0.123255,0.310135,
2,0,0,1,0,66523.1,0.306379,0.306033,-0.202708,100,0.598398,10,-6.20353e-05,-3.69313,-0.618786,-0.095348,0.306122,
2,0,0,1,0,66523.9,0.302385,0.302051,-0.205239,100,0.598226,10,-6.19927e-05,-3.68774,-0.812747,-0.0725933,0.302141,
2,0,0,1,0,66524.7,0.298389,0.298093,-0.207843,100,0.598053,10,-6.19567e-05,-3.68226,-0.561681,-0.105042,0.298185,
2,0,0,0,0,66525.5,0.294394,0.294079,-0.210798,100,0.597877,10,-6.19912e-05,-3.67613,-1.29559,-0.0455391,0.294171,
2,0,0,1,0,66526.3,0.290398,0.290086,-0.212351,100,0.597699,10,-6.16e-05,-3.67295,-0.839104,-0.0703131,0.290179,
2,0,0,1,0,66527.1,0.286403,0.286099,-0.214922,100,0.597519,10,-6.1489e-05,-3.66772,-0.652802,-0.0903796,0.286193,
2,0,0,1,0,66527.9,0.282408,0.282076,-0.218691,100,0.597336,10,-6.16875e-05,-3.66017,-0.996969,-0.0591794,0.282172,
2,0,0,1,0,66528.7,0.278413,0.278137,-0.221091,100,0.597152,10,-6.14936e-05,-3.65543,-0.511559,-0.115334,0.278234,
2,0,0,0,0,66529.5,0.274418,0.274087,-0.223597,100,0.596965,10,-6.12849e-05,-3.65053,-0.805426,-0.0732531,0.274185,
2,0,0,1,0,66530.3,0.270423,0.270161,-0.227674,100,0.596777,10,-6.15086e-05,-3.64269,-1.07344,-0.0549634,0.270261,
2,0,0,1,0,66531.1,0.266427,0.266132,-0.228739,100,0.596586,10,-6.08748e-05,-3.64066,-1.4398,-0.0409778,0.266233,
2,0,0,1,0,66531.9,0.262432,0.26211,-0.231668,100,0.596393,10,-6.07224e-05,-3.63513,-0.532652,-0.110767,0.262212,
2,0,0,1,0,66532.7,0.258437,0.258115,-0.234847,100,0.596198,10,-6.06175e-05,-3.62922,-0.955743,-0.0617321,0.258218,
2,0,0,0,0,66533.5,0.254442,0.254122,-0.235686,100,0.596001,10,-5.98931e-05,-3.62767,-0.836244,-0.0705536,0.254226,
2,0,0,1,0,66534.3,0.250447,0.250135,-0.239311,100,0.595802,10,-5.98601e-05,-3.62104,-1.70221,-0.0346609,0.250241,
2,0,0,0,0,66535.1,0.246452,0.24617,-0.24125,100,0.595601,10,-5.93885e-05,-3.61753,-0.901808,-0.0654241,0.246277,
2,0,0,1,0,66535.9,0.242456,0.242102,-0.243457,100,0.595398,10,-5.89414e-05,-3.61358,-1.01239,-0.0582782,0.242209,
2,0,0,1,0,66536.7,0.238461,0.238126,-0.245864,100,0.595193,10,-5.85468e-05,-3.6093,-0.680561,-0.0866932,0.238234,
2,0,0,1,0,66537.5,0.234467,0.234192,-0.248619,100,0.594987,10,-5.82246e-05,-3.60447,-0.820816,-0.0718797,0.234302,
2,0,0,1,0,66538.3,0.230471,0.230151,-0.25117,100,0.594778,10,-5.7807e-05,-3.60003,-1.37898,-0.0427853,0.230261,
2,0,0,0,0,66539.1,0.226476,0.226184,-0.253922,100,0.594568,10,-5.7433e-05,-3.5953,-0.741791,-0.0795372,0.226296,
2,0,0,1,0,66539.9,0.222481,0.222197,-0.254479,100,0.594355,10,-5.65443e-05,-3.59435,-1.37214,-0.0429986,0.222309,
2,0,0,1,0,66540.7,0.218485,0.218105,-0.25798,100,0.59414,10,-5.62668e-05,-3.58841,-0.874055,-0.0675015,0.218219,
2,0,0,1,0,66541.5,0.21449,0.214179,-0.260743,100,0.593923,10,-5.58457e-05,-3.58379,-0.629483,-0.0937277,0.214294,
2,0,0,1,0,66542.3,0.210496,0.210202,-0.263371,100,0.593704,10,-5.5361e-05,-3.57943,-1.05322,-0.0560189,0.210318,
2,0,0,0,0,66543.1,0.2065,0.206229,-0.268231,100,0.593483,10,-5.53171e-05,-3.57149,-0.827241,-0.0713214,0.206347,
2,0,0,1,0,66543.9,0.202505,0.202204,-0.269723,100,0.593259,10,-5.45389e-05,-3.56908,-0.669064,-0.0881828,0.202323,
2,0,0,1,0,66544.7,0.198509,0.198179,-0.273395,100,0.593033,10,-5.41811e-05,-3.56321,-0.930865,-0.0633819,0.198299,
2,0,0,1,0,66545.5,0.194514,0.194181,-0.276902,100,0.592804,10,-5.3769e-05,-3.55767,-0.724085,-0.0814822,0.194303,
2,0,0,1,0,66546.3,0.190519,0.190176,-0.278848,100,0.592573,10,-5.30301e-05,-3.55463,-0.856418,-0.0688916,0.190298,
2,0,0,0,0,66547.1,0.186524,0.186184,-0.282667,100,0.592338,10,-5.26281e-05,-3.54873,-0.926513,-0.0636796,0.186309,
2,0,0,1,0,66547.9,0.182529,0.182226,-0.287425,100,0.592101,10,-5.23763e-05,-3.54147,-0.391678,-0.150634,0.182352,
2,0,0,0,0,66548.7,0.178534,0.178227,-0.292786,100,0.591859,10,-5.21824e-05,-3.53345,-0.829394,-0.0711363,0.178356,
2,0,0,1,0,66549.5,0.174538,0.174195,-0.297914,100,0.591614,10,-5.18951e-05,-3.52591,-0.440619,-0.133903,0.174326,
2,0,0,1,0,66550.3,0.170543,0.17021,-0.303071,100,0.591365,10,-5.15858e-05,-3.51846,-0.415662,-0.141942,0.170344,
2,0,0,1,0,66551.1,0.166549,0.166236,-0.3106,100,0.59111,10,-5.1633e-05,-3.5078,-0.416722,-0.141581,0.166373,
2,0,0,1,0,66551.9,0.162553,0.162222,-0.317983,100,0.590849,10,-5.15839e-05,-3.4976,-0.321263,-0.18365,0.162362,
2,0,0,0,0,66552.7,0.158558,0.158239,-0.326767,100,0.590581,10,-5.17073e-05,-3.48576,-0.269202,-0.219166,0.158383,
2,0,0,1,0,66553.5,0.154563,0.154218,-0.342366,100,0.590303,10,-5.27991e-05,-3.46551,-0.244935,-0.24088,0.154369,
2,0,0,1,0,66554.3,0.150567,0.150265,-0.357826,100,0.590014,10,-5.37687e-05,-3.44633,-0.153431,-0.384538,0.150422,
2,0,0,1,0,66555.1,0.146572,0.14624,-0.380181,100,0.589709,10,-5.55977e-05,-3.42001,-0.143224,-0.411941,0.146407,
2,0,0,1,0,66555.9,0.142578,0.1422,-0.408083,100,0.589385,10,-5.80294e-05,-3.38925,-0.123107,-0.479259,0.14238,
2,0,0,0,0,66556.7,0.138582,0.138268,-0.44218,100,0.589036,10,-6.11392e-05,-3.3544,-0.103958,-0.567538,0.138462,
2,0,0,1,0,66557.5,0.134587,0.134287,-0.483891,100,0.588655,10,-6.49803e-05,-3.31525,-0.103306,-0.571121,0.1345,
2,0,0,1,0,66558.3,0.130591,0.130264,-0.527836,100,0.588241,10,-6.87582e-05,-3.2775,-0.112104,-0.526299,0.130497,
2,0,0,1,0,66559.1,0.126596,0.126285,-0.568411,100,0.587791,10,-7.17818e-05,-3.24534,-0.12903,-0.457259,0.126535,
2,0,0,1,0,66559.9,0.122602,0.122265,-0.605214,100,0.587311,10,-7.39967e-05,-3.21809,-0.189138,-0.311941,0.122532,
2,0,0,1,0,66560.7,0.118607,0.118263,-0.628245,100,0.586807,10,-7.4298e-05,-3.20187,-0.297647,-0.198221,0.118539,
2,0,0,1,0,66561.5,0.114611,0.114252,-0.643079,100,0.586288,10,-7.34728e-05,-3.19174,-0.627076,-0.0940874,0.114535,
2,0,0,0,0,66562.3,0.110616,0.110258,-0.649922,100,0.585761,10,-7.16592e-05,-3.18714,-1.05937,-0.0556935,0.110544,
2,0,0,1,0,66563.1,0.10662,0.106287,-0.652117,100,0.58523,10,-6.93113e-05,-3.18567,-5.0618,-0.0116559,0.106573,
2,0,0,1,0,66563.9,0.102625,0.102295,-0.653278,100,0.584698,10,-6.68273e-05,-3.1849,3.04876,0.0193522,0.102583,
2,0,0,1,0,66564.7,0.0986305,0.0983138,-0.65016,100,0.584167,10,-6.39198e-05,-3.18698,2.48678,0.0237255,0.0985999,
2,0,0,1,0,66565.5,0.0946351,0.0942831,-0.645641,100,0.583637,10,-6.0873e-05,-3.19001,1.34128,0.0439879,0.0945672,
2,0,0,0,0,66566.3,0.0906399,0.0902853,-0.642377,100,0.583111,10,-5.79972e-05,-3.19221,1.12445,0.0524699,0.090568,
2,0,0,1,0,66567.1,0.0866448,0.0863141,-0.636884,100,0.58259,10,-5.49721e-05,-3.19594,1.09238,0.0540105,0.0865943,
2,0,0,1,0,66567.9,0.0826492,0.0823117,-0.630759,100,0.582073,10,-5.19189e-05,-3.20014,0.852155,0.0692362,0.0825893,
2,0,0,1,0,66568.7,0.0786544,0.0783367,-0.624897,100,0.581562,10,-4.89524e-05,-3.20419,0.90952,0.0648694,0.0786117,
2,0,0,1,0,66569.5,0.0746596,0.0743361,-0.616512,100,0.581056,10,-4.58291e-05,-3.21006,0.754676,0.0781793,0.0746074,
2,0,0,0,0,66570.3,0.0706641,0.0703476,-0.609131,100,0.580556,10,-4.28509e-05,-3.21529,0.660373,0.0893434,0.0706156,
2,0,0,1,0,66571.1,0.0666689,0.066335,-0.600982,100,0.580062,10,-3.98661e-05,-3.22114,1.11378,0.0529727,0.0665994,
2,0,0,0,0,66571.9,0.0626737,0.0623617,-0.592343,100,0.579574,10,-3.69395e-05,-3.22743,0.569075,0.103677,0.0626223,
2,0,0,1,0,66572.7,0.0586783,0.058353,-0.585809,100,0.579092,10,-3.41837e-05,-3.23224,0.539719,0.109316,0.0586107,
2,0,0,1,0,66573.5,0.0546835,0.0543314,-0.57634,100,0.578617,10,-3.13133e-05,-3.23932,0.848347,0.069547,0.0545849,
2,0,0,1,0,66574.3,0.0506886,0.0503975,-0.568638,100,0.578148,10,-2.86579e-05,-3.24516,0.520727,0.113303,0.0506477,
2,0,0,1,0,66575.1,0.046693,0.0463559,-0.559428,100,0.577687,10,-2.59328e-05,-3.25226,0.575088,0.102593,0.046602,
2,0,0,0,0,66575.9,0.0426979,0.0423942,-0.550048,100,0.577233,10,-2.33188e-05,-3.2596,0.616345,0.0957256,0.0426362,
2,0,0,1,0,66576.7,0.0387022,0.0383632,-0.541524,100,0.576786,10,-2.07746e-05,-3.26638,0.466305,0.126527,0.0386014,
2,0,0,1,0,66577.5,0.0347074,0.0343465,-0.53351,100,0.576347,10,-1.83242e-05,-3.27286,0.590056,0.0999906,0.0345813,
2,0,0,1,0,66578.3,0.0307126,0.0304077,-0.522089,100,0.575916,10,-1.58756e-05,-3.28226,0.553164,0.106659,0.0306375,
2,0,0,1,0,66579.1,0.0267172,0.0263874,-0.515276,100,0.575491,10,-1.35968e-05,-3.28796,0.492457,0.119807,0.0266141,
2,0,0,0,0,66579.9,0.022722,0.0224289,-0.506901,100,0.575073,10,-1.13692e-05,-3.29508,0.890956,0.066221,0.0226519,
2,0,0,1,0,66580.7,0.0187268,0.0183983,-0.502091,100,0.57466,10,-9.2376e-06,-3.29922,0.773156,0.0763106,0.0186192,
2,0,0,1,0,66581.5,0.0147313,0.0144173,-0.496945,100,0.574252,10,-7.16462e-06,-3.30369,1.06488,0.0554054,0.014636,
2,0,0,1,0,66582.3,0.0107365,0.0103987,-0.492297,100,0.573846,10,-5.11926e-06,-3.30777,3.1017,0.0190219,0.0106153,
2,0,0,1,0,66583.1,0.00674162,0.00641486,-0.491322,100,0.573443,10,-3.15176e-06,-3.30863,18.6101,0.00317033,0.00663104,
2,0,0,0,0,66583.9,0.00274612,0.0024381,-0.492042,100,0.57304,10,-1.19965e-06,-3.308,-1.42892,-0.0412899,0.00265459,
2,0,0,1,0,66584.4,0.000274105,-0.000173818,-0.493726,100,0.572788,10,8.58183e-08,-3.30651, , ,4.34213e-05,