File: Figure_codes/Fig_3-5/workspace_calculate_alpha_eff/20221101_1-115_003_TrumpetPlot_ParaChange_from10_every3_16_CV_C01_89.csv
mode,ox/red,error,control changes,counter inc.,time/s,control/V,Ewe/V,<I>/mA,cycle number,(Q-Qo)/C,I Range,P/W,log(|I|),Tafel slope mV/dec,alpha_eff,E-IR/V,
2,0,0,0,0,59103.9,2.44065e-05,-0.000458935,-0.109571,90,0.0000000E+000,10,5.02857e-08,-3.96031, , ,-0.000410724,
2,1,0,0,0,59104.7,0.00379485,0.00344972,0.141956,90,8.31094e-05,10,4.89711e-07,-3.84784,0.0297355,1.98416,0.00338726,
2,1,0,1,0,59105.5,0.00779002,0.0074061,0.165925,90,0.000216805,10,1.22886e-06,-3.78009,0.0706121,0.835551,0.00733309,
2,1,0,0,0,59106.3,0.0117852,0.0114706,0.182305,90,0.000366309,10,2.09116e-06,-3.7392,0.112647,0.523758,0.0113904,
2,1,0,1,0,59107.1,0.0157806,0.0154134,0.196816,90,0.000527559,10,3.03361e-06,-3.70594,0.149314,0.395139,0.0153268,
2,1,0,1,0,59107.9,0.0197754,0.0194214,0.208929,90,0.000698938,10,4.05769e-06,-3.68,0.149432,0.394827,0.0193295,
2,1,0,1,0,59108.7,0.0237704,0.0234104,0.221234,90,0.000880463,10,5.17919e-06,-3.65515,0.155213,0.380122,0.0233131,
2,1,0,1,0,59109.4,0.0277659,0.0274043,0.235275,90,0.00107222,10,6.44755e-06,-3.62842,0.162374,0.363358,0.0273008,
2,1,0,0,0,59110.2,0.0317611,0.031437,0.246841,90,0.0012748,10,7.75996e-06,-3.60758,0.169081,0.348944,0.0313284,
2,1,0,1,0,59111,0.0357567,0.0354223,0.26192,90,0.00148837,10,9.27782e-06,-3.58183,0.209507,0.281614,0.0353071,
2,1,0,1,0,59111.8,0.0397516,0.0394102,0.275395,90,0.00171254,10,1.08534e-05,-3.56004,0.160584,0.36741,0.039289,
2,1,0,1,0,59112.6,0.0437465,0.0434131,0.287293,90,0.00194795,10,1.24723e-05,-3.54168,0.222661,0.264977,0.0432866,
2,1,0,1,0,59113.4,0.0477413,0.0474022,0.301338,90,0.00219335,10,1.42841e-05,-3.52095,0.20242,0.291472,0.0472696,
2,1,0,0,0,59114.2,0.0517369,0.051396,0.31274,90,0.00244868,10,1.60736e-05,-3.50482,0.22817,0.258579,0.0512584,
2,1,0,1,0,59115,0.0557321,0.0553577,0.325318,90,0.00271375,10,1.80088e-05,-3.48769,0.319,0.184953,0.0552145,
2,1,0,1,0,59115.8,0.0597277,0.0593761,0.337161,90,0.00298766,10,2.00193e-05,-3.47216,0.262553,0.224716,0.0592277,
2,1,0,1,0,59116.6,0.0637226,0.0634454,0.346166,90,0.00327025,10,2.19627e-05,-3.46072,0.331649,0.177899,0.0632931,
2,1,0,1,0,59117.4,0.0677174,0.0673846,0.357108,90,0.00356099,10,2.40635e-05,-3.4472,0.395233,0.149279,0.0672274,
2,1,0,0,0,59118.2,0.0717128,0.0713868,0.364568,90,0.00385873,10,2.60253e-05,-3.43822,0.338318,0.174392,0.0712264,
2,1,0,1,0,59119,0.075708,0.0753379,0.372006,90,0.00416344,10,2.80261e-05,-3.42945,0.47629,0.123874,0.0751742,
2,1,0,0,0,59119.8,0.0797031,0.079343,0.380514,90,0.0044741,10,3.01911e-05,-3.41963,0.398343,0.148114,0.0791756,
2,1,0,1,0,59120.6,0.0836986,0.0833253,0.388509,90,0.00479148,10,3.23726e-05,-3.4106,0.412534,0.143019,0.0831543,
2,1,0,1,0,59121.4,0.0876935,0.0873937,0.399286,90,0.00511642,10,3.48951e-05,-3.39872,0.353176,0.167056,0.087218,
2,1,0,1,0,59122.2,0.0916883,0.0913678,0.411763,90,0.00545022,10,3.76219e-05,-3.38535,0.248464,0.237459,0.0911866,
2,1,0,1,0,59123,0.0956838,0.0953318,0.426366,90,0.00579579,10,4.06462e-05,-3.37022,0.22866,0.258025,0.0951442,
2,1,0,0,0,59123.8,0.099679,0.0993221,0.446393,90,0.00615504,10,4.43367e-05,-3.35028,0.247998,0.237905,0.0991257,
2,1,0,1,0,59124.6,0.103674,0.10336,0.466866,90,0.00652978,10,4.82553e-05,-3.33081,0.182014,0.324151,0.103155,
2,1,0,1,0,59125.4,0.10767,0.107318,0.486829,90,0.0069219,10,5.22454e-05,-3.31262,0.208324,0.283213,0.107104,
2,1,0,1,0,59126.2,0.111664,0.111332,0.507521,90,0.00732956,10,5.65034e-05,-3.29455,0.273394,0.215805,0.111109,
2,1,0,1,0,59127,0.115659,0.115282,0.521175,90,0.00775087,10,6.00819e-05,-3.28302,0.31185,0.189193,0.115052,
2,1,0,0,0,59127.8,0.119655,0.119271,0.534347,90,0.00818354,10,6.37318e-05,-3.27218,0.651283,0.0905905,0.119035,
2,1,0,1,0,59128.6,0.12365,0.123306,0.542708,90,0.00862349,10,6.69194e-05,-3.26543,0.629993,0.0936518,0.123068,
2,1,0,1,0,59129.4,0.127646,0.127319,0.548666,90,0.00906995,10,6.98557e-05,-3.26069,1.57624,0.0374308,0.127078,
2,1,0,1,0,59130.2,0.131641,0.131298,0.54815,90,0.00951907,10,7.19709e-05,-3.2611,-0.685594,-0.0860567,0.131057,
2,1,0,1,0,59131,0.135635,0.135303,0.536494,90,0.0099631,10,7.2589e-05,-3.27044,-0.271465,-0.217339,0.135067,
2,1,0,0,0,59131.8,0.139631,0.139316,0.504521,90,0.0103908,10,7.02881e-05,-3.29712,-0.116377,-0.506974,0.139094,
2,1,0,1,0,59132.6,0.143626,0.143292,0.459654,90,0.0107872,10,6.58647e-05,-3.33757,-0.0816716,-0.722405,0.14309,
2,1,0,0,0,59133.4,0.147621,0.14726,0.406079,90,0.0111425,10,5.97992e-05,-3.39139,-0.0726386,-0.812241,0.147081,
2,1,0,1,0,59134.2,0.151617,0.151256,0.357838,90,0.0114568,10,5.4125e-05,-3.44631,-0.082116,-0.718496,0.151098,
2,1,0,1,0,59135,0.155612,0.155282,0.326679,90,0.0117382,10,5.07273e-05,-3.48588,-0.113594,-0.519396,0.155138,
2,1,0,1,0,59135.8,0.159606,0.1593,0.302569,90,0.0119984,10,4.81991e-05,-3.51918,-0.158616,-0.371968,0.159166,
2,1,0,1,0,59136.6,0.163602,0.163278,0.288968,90,0.0122444,10,4.71823e-05,-3.53915,-0.198963,-0.296537,0.163151,
2,1,0,0,0,59137.4,0.167597,0.167258,0.279202,90,0.0124806,10,4.66989e-05,-3.55408,-0.412922,-0.142884,0.167135,
2,1,0,1,0,59138.2,0.171592,0.171255,0.271527,90,0.0127106,10,4.65004e-05,-3.56619,-0.387297,-0.152338,0.171135,
2,1,0,1,0,59139,0.175588,0.175266,0.267551,90,0.0129357,10,4.68926e-05,-3.57259,-0.59051,-0.0999136,0.175149,
2,1,0,1,0,59139.8,0.179582,0.179245,0.263534,90,0.0131571,10,4.72372e-05,-3.57916,-0.814371,-0.0724486,0.179129,
2,1,0,1,0,59140.6,0.183577,0.183237,0.2599,90,0.013376,10,4.76233e-05,-3.58519,-0.695719,-0.0848043,0.183123,
2,1,0,0,0,59141.4,0.187573,0.187225,0.258617,90,0.0135923,10,4.84194e-05,-3.58734,-1.42389,-0.0414357,0.187111,
2,1,0,1,0,59142.2,0.191568,0.191226,0.256569,90,0.0138068,10,4.90628e-05,-3.5908,-0.823288,-0.0716639,0.191114,
2,1,0,0,0,59143,0.195563,0.195239,0.254651,90,0.0140199,10,4.97178e-05,-3.59405,-0.951417,-0.0620128,0.195127,
2,1,0,1,0,59143.8,0.199559,0.199252,0.252564,90,0.0142314,10,5.03238e-05,-3.59763,-3.71193,-0.0158947,0.199141,
2,1,0,1,0,59144.6,0.203553,0.203176,0.2505,90,0.0144418,10,5.08957e-05,-3.60119,-10.5674,-0.00558323,0.203066,
2,1,0,1,0,59145.4,0.207548,0.207215,0.250517,90,0.0146515,10,5.19109e-05,-3.60116,-1.86315,-0.0316668,0.207105,
2,1,0,1,0,59146.2,0.211544,0.211207,0.249492,90,0.0148601,10,5.26943e-05,-3.60294,-2.11807,-0.0278555,0.211097,
2,1,0,0,0,59147,0.215539,0.215212,0.248608,90,0.0150679,10,5.35034e-05,-3.60448,-1.78964,-0.0329675,0.215102,
2,1,0,1,0,59147.8,0.219535,0.219184,0.247551,90,0.0152746,10,5.4259e-05,-3.60634,-1.74689,-0.0337744,0.219075,
2,1,0,1,0,59148.6,0.223529,0.223187,0.246541,90,0.0154808,10,5.50247e-05,-3.60811,-152.339,-0.000387294,0.223079,
2,1,0,1,0,59149.4,0.227524,0.227192,0.24574,90,0.0156864,10,5.58303e-05,-3.60952,-0.673053,-0.0876603,0.227084,
2,1,0,1,0,59150.2,0.23152,0.231205,0.244662,90,0.0158913,10,5.65671e-05,-3.61143,2.23081,0.0264478,0.231097,
2,1,0,0,0,59151,0.235515,0.235142,0.24304,90,0.0160956,10,5.71489e-05,-3.61432,-2.92924,-0.0201418,0.235035,
2,1,0,1,0,59151.8,0.23951,0.23921,0.243526,90,0.016299,10,5.82538e-05,-3.61346,-20.1247,-0.00293172,0.239103,
2,1,0,1,0,59152.6,0.243506,0.243136,0.242107,90,0.0165017,10,5.88651e-05,-3.61599,-3.33999,-0.0176647,0.24303,
2,1,0,1,0,59153.4,0.2475,0.24713,0.24167,90,0.0167041,10,5.9724e-05,-3.61678,-2.80821,-0.0210098,0.247024,
2,1,0,1,0,59154.2,0.251495,0.25117,0.241452,90,0.0169056,10,6.06454e-05,-3.61717,-1.82037,-0.0324109,0.251064,
2,1,0,0,0,59155,0.255491,0.25515,0.239168,90,0.0171065,10,6.10236e-05,-3.6213,-3.38378,-0.0174361,0.255045,
2,1,0,1,0,59155.8,0.259486,0.259184,0.239503,90,0.0173067,10,6.20754e-05,-3.62069,-1.10232,-0.0535236,0.259078,
2,1,0,0,0,59156.6,0.263481,0.263147,0.237702,90,0.0175061,10,6.25507e-05,-3.62397,-6.57635,-0.00897154,0.263043,
2,1,0,1,0,59157.4,0.267477,0.267116,0.237399,90,0.0177048,10,6.34132e-05,-3.62452,-3.13459,-0.0188222,0.267011,
2,1,0,1,0,59158.2,0.271471,0.271108,0.237515,90,0.0179029,10,6.43921e-05,-3.62431,-13.7789,-0.00428192,0.271003,
2,1,0,1,0,59159,0.275466,0.275119,0.235932,90,0.0181003,10,6.49093e-05,-3.62721,-2.82043,-0.0209188,0.275015,
2,1,0,1,0,59159.8,0.279462,0.279145,0.234935,90,0.0182971,10,6.55809e-05,-3.62905,-1.84091,-0.0320493,0.279041,
2,1,0,0,0,59160.6,0.283457,0.283128,0.234827,90,0.018493,10,6.64862e-05,-3.62925,-2.92149,-0.0201952,0.283024,
2,1,0,1,0,59161.4,0.287452,0.287119,0.233118,90,0.018688,10,6.69327e-05,-3.63242,-6.01833,-0.00980338,0.287016,
2,1,0,1,0,59162.2,0.291448,0.29116,0.232447,90,0.0188824,10,6.76792e-05,-3.63368,-0.775287,-0.0761009,0.291057,
2,1,0,1,0,59163,0.295442,0.295118,0.230958,90,0.0190758,10,6.81598e-05,-3.63647,4.00738,0.0147228,0.295016,
2,1,0,1,0,59163.8,0.299437,0.299146,0.229662,90,0.0192689,10,6.87023e-05,-3.63891,-11.6999,-0.00504276,0.299045,
2,1,0,0,0,59164.6,0.303433,0.303135,0.229901,90,0.0194612,10,6.96912e-05,-3.63846,-1.61871,-0.0364488,0.303034,
2,1,0,1,0,59165.4,0.307428,0.307103,0.228996,90,0.0196529,10,7.03254e-05,-3.64017,-63.4558,-0.000929781,0.307003,
2,1,0,1,0,59166.2,0.311424,0.311123,0.228303,90,0.0198441,10,7.10303e-05,-3.64149,-1.03791,-0.056845,0.311023,
2,1,0,1,0,59167,0.315418,0.315071,0.227345,90,0.0200344,10,7.16298e-05,-3.64332,-6.14931,-0.00959458,0.314971,
2,1,0,1,0,59167.8,0.319413,0.319068,0.227227,90,0.0202241,10,7.25009e-05,-3.64354,-8.15972,-0.00723064,0.318968,
2,1,0,0,0,59168.6,0.323409,0.323071,0.226357,90,0.0204136,10,7.31295e-05,-3.64521,-1.0522,-0.0560728,0.322971,
2,1,0,1,0,59169.4,0.327404,0.327076,0.226113,90,0.0206022,10,7.39562e-05,-3.64567,2.83783,0.0207905,0.326977,
2,1,0,0,0,59170.2,0.331399,0.33107,0.224541,90,0.0207904,10,7.43388e-05,-3.6487,-8.56795,-0.00688613,0.330971,
2,1,0,1,0,59171,0.335395,0.335078,0.225332,90,0.020978,10,7.5504e-05,-3.64718,-1.92644,-0.0306265,0.334979,
2,1,0,1,0,59171.8,0.339389,0.339056,0.224137,90,0.0211653,10,7.5995e-05,-3.64949,-22.3934,-0.0026347,0.338957,
2,1,0,1,0,59172.6,0.343384,0.343069,0.224211,90,0.0213521,10,7.69198e-05,-3.64934,-3.0706,-0.0192145,0.34297,
2,1,0,1,0,59173.4,0.34738,0.347112,0.223801,90,0.0215384,10,7.7684e-05,-3.65014,-2.03115,-0.0290475,0.347013,
2,1,0,0,0,59174.2,0.351375,0.351066,0.222407,90,0.0217243,10,7.80795e-05,-3.65285,-13.5428,-0.00435655,0.350968,
2,1,0,1,0,59175,0.35537,0.355094,0.221916,90,0.0219098,10,7.88012e-05,-3.65381,-1.35664,-0.0434898,0.354997,
2,1,0,1,0,59175.8,0.359366,0.359027,0.22216,90,0.0220947,10,7.97613e-05,-3.65333,3.38201,0.0174452,0.358929,
2,1,0,1,0,59176.6,0.36336,0.363096,0.220737,90,0.0222793,10,8.01486e-05,-3.65613,-1.94219,-0.0303781,0.362999,
2,1,0,1,0,59177.4,0.367355,0.367018,0.221584,90,0.0224636,10,8.13253e-05,-3.65446,5.05558,0.0116703,0.366921,
2,1,0,0,0,59178.2,0.371351,0.371023,0.220742,90,0.0226474,10,8.19003e-05,-3.65612,3.68731,0.0160008,0.370926,
2,1,0,1,0,59179,0.375346,0.375024,0.219729,90,0.0228312,10,8.24036e-05,-3.65811,-1.02663,-0.0574697,0.374927,
2,1,0,1,0,59179.8,0.379342,0.379019,0.220505,90,0.0230145,10,8.35754e-05,-3.65658,83.2741,0.000708503,0.378922,
2,1,0,1,0,59180.6,0.383336,0.383012,0.219408,90,0.0231973,10,8.40357e-05,-3.65875,-4.83041,-0.0122143,0.382915,
2,1,0,1,0,59181.4,0.387331,0.387012,0.219779,90,0.02338,10,8.5057e-05,-3.65801,-22.4638,-0.00262645,0.386916,
2,1,0,0,0,59182.2,0.391327,0.390955,0.219376,90,0.0235623,10,8.5766e-05,-3.65881,-9.14967,-0.00644832,0.390859,
2,1,0,1,0,59183,0.395322,0.395062,0.218538,90,0.0237446,10,8.63361e-05,-3.66047,-2.46575,-0.0239278,0.394966,
2,1,0,0,0,59183.8,0.399317,0.398994,0.218622,90,0.0239264,10,8.72288e-05,-3.66031,177.686,0.000332046,0.398898,
2,1,0,1,0,59184.6,0.403313,0.402996,0.217528,90,0.0241079,10,8.76632e-05,-3.66248,-4.72496,-0.0124869,0.402901,
2,1,0,1,0,59185.4,0.407307,0.406997,0.217935,90,0.024289,10,8.8699e-05,-3.66167,9.37499,0.00629334,0.406901,
2,1,0,1,0,59186.2,0.411302,0.411001,0.218423,90,0.0244698,10,8.97719e-05,-3.6607,-3.91163,-0.0150832,0.410905,
2,1,0,1,0,59187,0.415298,0.414963,0.217075,90,0.0246506,10,9.00778e-05,-3.66339,21.3251,0.00276669,0.414867,
2,1,0,0,0,59187.8,0.419293,0.41895,0.217005,90,0.0248312,10,9.09143e-05,-3.66353,-1.35395,-0.0435763,0.418854,
2,1,0,1,0,59188.6,0.423288,0.422974,0.216897,90,0.0250114,10,9.17417e-05,-3.66375,1.76669,0.0333957,0.422879,
2,1,0,1,0,59189.4,0.427283,0.426971,0.217141,90,0.0251917,10,9.2713e-05,-3.66326,-3.15797,-0.0186829,0.426875,
2,1,0,1,0,59190.2,0.431278,0.430965,0.217088,90,0.0253718,10,9.35573e-05,-3.66336,5.80825,0.010158,0.43087,
2,1,0,1,0,59191,0.435273,0.434933,0.216862,90,0.0255517,10,9.43203e-05,-3.66382,4.40112,0.0134057,0.434838,
2,1,0,0,0,59191.8,0.439269,0.438966,0.216845,90,0.0257317,10,9.51875e-05,-3.66385,-2.06486,-0.0285733,0.438871,
2,1,0,1,0,59192.5,0.443264,0.442926,0.217463,90,0.0259115,10,9.632e-05,-3.66261,1.37747,0.0428321,0.44283,
2,1,0,0,0,59193.3,0.447259,0.446893,0.217994,90,0.0260916,10,9.742e-05,-3.66155,-45.6789,-0.00129163,0.446797,
2,1,0,1,0,59194.1,0.451254,0.450906,0.217578,90,0.0262718,10,9.81073e-05,-3.66238,-3.49097,-0.0169007,0.45081,
2,1,0,1,0,59194.9,0.455249,0.454954,0.217269,90,0.0264519,10,9.88475e-05,-3.663,-26.1559,-0.00225571,0.454858,
2,1,0,1,0,59195.7,0.459244,0.459001,0.217419,90,0.0266322,10,9.97955e-05,-3.6627,10.3403,0.00570582,0.458905,
2,1,0,1,0,59196.5,0.46324,0.462941,0.217422,90,0.0268124,10,0.000100653,-3.6627,4.45367,0.0132475,0.462845,
2,1,0,0,0,59197.3,0.467235,0.466894,0.218143,90,0.0269927,10,0.00010185,-3.66126,1.79247,0.0329154,0.466798,
2,1,0,1,0,59198.1,0.471231,0.470924,0.218379,90,0.0271733,10,0.00010284,-3.66079,-3.40464,-0.0173293,0.470828,
2,1,0,1,0,59198.9,0.475225,0.474875,0.219141,90,0.027354,10,0.000104065,-3.65928,2.22612,0.0265035,0.474778,
2,1,0,1,0,59199.7,0.47922,0.478906,0.218894,90,0.027535,10,0.00010483,-3.65977,3.30055,0.0178758,0.47881,
2,1,0,1,0,59200.5,0.483216,0.482892,0.218404,90,0.0277163,10,0.000105466,-3.66074,-2.05387,-0.0287263,0.482796,
2,1,0,0,0,59201.3,0.487211,0.48685,0.219894,90,0.0278977,10,0.000107055,-3.65779,1.83803,0.0320996,0.486753,
2,1,0,1,0,59202.1,0.491206,0.490878,0.220501,90,0.0280797,10,0.000108239,-3.65659,2.94513,0.0200331,0.490781,
2,1,0,1,0,59202.9,0.495201,0.494907,0.221442,90,0.0282621,10,0.000109593,-3.65474,3.61278,0.0163309,0.49481,
2,1,0,1,0,59203.7,0.499196,0.498855,0.221467,90,0.028445,10,0.00011048,-3.65469,1.3502,0.0436973,0.498757,
2,1,0,1,0,59204.5,0.503191,0.502887,0.222323,90,0.0286286,10,0.000111803,-3.65302,0.748372,0.0788378,0.502789,
2,1,0,0,0,59205.3,0.507187,0.506862,0.224022,90,0.0288134,10,0.000113548,-3.64971,-2.17638,-0.0271093,0.506763,
2,1,0,1,0,59206.1,0.511182,0.510831,0.224273,90,0.0289985,10,0.000114565,-3.64922,3.22374,0.0183017,0.510732,
2,1,0,0,0,59206.9,0.515177,0.51484,0.22565,90,0.0291844,10,0.000116174,-3.64656,5.99501,0.00984153,0.514741,
2,1,0,1,0,59207.7,0.519173,0.518854,0.226748,90,0.0293709,10,0.000117649,-3.64446,0.975116,0.0605056,0.518754,
2,1,0,1,0,59208.5,0.523167,0.522823,0.227738,90,0.0295586,10,0.000119067,-3.64256,2.95509,0.0199656,0.522723,
2,1,0,1,0,59209.3,0.527162,0.526803,0.229564,90,0.029747,10,0.000120935,-3.6391,1.5395,0.0383241,0.526702,
2,1,0,1,0,59210.1,0.531158,0.530841,0.230318,90,0.0299362,10,0.000122262,-3.63767,1.80524,0.0326827,0.530739,
2,1,0,0,0,59210.9,0.535153,0.534865,0.231148,90,0.0301265,10,0.000123633,-3.63611,1.59334,0.0370292,0.534763,
2,1,0,1,0,59211.7,0.539148,0.538812,0.233341,90,0.0303178,10,0.000125727,-3.63201,1.03538,0.0569838,0.538709,
2,1,0,1,0,59212.5,0.543143,0.542835,0.234755,90,0.0305105,10,0.000127433,-3.62938,1.77466,0.0332458,0.542732,
2,1,0,1,0,59213.3,0.547138,0.546787,0.236674,90,0.0307045,10,0.00012941,-3.62585,2.2946,0.0257126,0.546683,
2,1,0,1,0,59214.1,0.551133,0.550816,0.238523,90,0.0308995,10,0.000131383,-3.62247,0.754954,0.0781505,0.550711,
2,1,0,0,0,59214.9,0.555129,0.554805,0.240421,90,0.0310966,10,0.000133387,-3.61903,0.814367,0.0724489,0.554699,
2,1,0,1,0,59215.7,0.559124,0.558791,0.243504,90,0.0312953,10,0.000136068,-3.61349,1.3474,0.043788,0.558684,
2,1,0,1,0,59216.5,0.56312,0.562784,0.244897,90,0.0314958,10,0.000137824,-3.61102,0.798434,0.0738946,0.562676,
2,1,0,1,0,59217.3,0.567114,0.566826,0.247675,90,0.0316984,10,0.000140389,-3.60612,1.08135,0.0545613,0.566717,
2,1,0,1,0,59218.1,0.571109,0.570792,0.250513,90,0.031903,10,0.000142991,-3.60117,0.688234,0.0857266,0.570682,
2,1,0,0,0,59218.9,0.575105,0.574759,0.253559,90,0.0321101,10,0.000145735,-3.59592,0.75106,0.0785556,0.574647,
2,1,0,1,0,59219.7,0.5791,0.578787,0.258112,90,0.0323201,10,0.000149392,-3.58819,0.59617,0.098965,0.578673,
2,1,0,0,0,59220.5,0.583095,0.582734,0.26153,90,0.0325331,10,0.000152403,-3.58248,0.505397,0.11674,0.582619,
2,1,0,1,0,59221.3,0.58709,0.586752,0.265736,90,0.0327494,10,0.000155921,-3.57555,0.546955,0.10787,0.586635,
2,1,0,1,0,59222.1,0.591085,0.590796,0.271158,90,0.0329695,10,0.000160199,-3.56678,0.453289,0.13016,0.590677,
2,1,0,1,0,59222.9,0.59508,0.594731,0.276595,90,0.0331939,10,0.0001645,-3.55816,0.442044,0.133471,0.594609,
2,1,0,1,0,59223.7,0.599076,0.598761,0.282527,90,0.0334228,10,0.000169166,-3.54894,0.42989,0.137245,0.598637,
2,1,0,0,0,59224.5,0.603071,0.602728,0.289146,90,0.0336565,10,0.000174277,-3.53888,0.338418,0.17434,0.602601,
2,1,0,1,0,59225.3,0.607066,0.606743,0.296312,90,0.0338962,10,0.000179785,-3.52825,0.336646,0.175259,0.606612,
2,1,0,1,0,59226.1,0.611061,0.610736,0.305529,90,0.0341426,10,0.000186598,-3.51495,0.343205,0.171909,0.610602,
2,1,0,1,0,59226.9,0.615056,0.614732,0.315566,90,0.0343961,10,0.000193988,-3.50091,0.261129,0.225942,0.614593,
2,1,0,1,0,59227.7,0.619051,0.61875,0.326738,90,0.0346582,10,0.000202169,-3.4858,0.250851,0.235199,0.618607,
2,1,0,0,0,59228.5,0.623047,0.622723,0.339331,90,0.0349294,10,0.000211309,-3.46938,0.228573,0.258124,0.622574,
2,1,0,1,0,59229.3,0.627042,0.626746,0.353746,90,0.0352116,10,0.000221709,-3.45131,0.201034,0.293482,0.62659,
2,1,0,1,0,59230.1,0.631037,0.630713,0.371271,90,0.0355067,10,0.000234165,-3.43031,0.191615,0.307909,0.63055,
2,1,0,1,0,59230.9,0.635032,0.634682,0.391423,90,0.0358163,10,0.000248429,-3.40735,0.168424,0.350306,0.634509,
2,1,0,1,0,59231.7,0.639027,0.638754,0.413766,90,0.0361432,10,0.000264295,-3.38324,0.148706,0.396755,0.638572,
2,1,0,1,0,59232.5,0.643022,0.64271,0.441109,90,0.0364899,10,0.000283505,-3.35545,0.147556,0.399849,0.642516,
2,1,0,1,0,59233.3,0.647018,0.646707,0.471739,90,0.0368595,10,0.000305077,-3.3263,0.129381,0.456018,0.6465,
2,1,0,0,0,59234.1,0.651013,0.650736,0.507617,90,0.0372558,10,0.000330325,-3.29446,0.116334,0.507158,0.650512,
2,1,0,1,0,59234.9,0.655008,0.654726,0.549343,90,0.0376831,10,0.000359669,-3.26016,0.116421,0.506782,0.654485,
2,1,0,1,0,59235.7,0.659003,0.658662,0.595997,90,0.0381455,10,0.000392561,-3.22476,0.105722,0.558068,0.6584,
2,1,0,1,0,59236.5,0.662998,0.662708,0.652856,90,0.0386496,10,0.000432653,-3.18518,0.0970081,0.608197,0.662421,
2,1,0,1,0,59237.3,0.666994,0.666659,0.717129,90,0.0392019,10,0.000478081,-3.1444,0.0954906,0.617862,0.666343,
2,1,0,0,0,59238.1,0.670989,0.670723,0.791285,90,0.0398093,10,0.000530733,-3.10167,0.0924066,0.638482,0.670375,
2,1,0,1,0,59238.9,0.674984,0.674701,0.874792,90,0.0404796,10,0.000590223,-3.0581,0.0886834,0.665288,0.674316,
2,1,0,1,0,59239.7,0.67898,0.678712,0.969972,90,0.0412218,10,0.000658331,-3.01324,0.0875572,0.673845,0.678285,
2,1,0,1,0,59240.5,0.682974,0.682681,1.07687,90,0.0420445,10,0.000735158,-2.96784,0.0872074,0.676548,0.682207,
2,1,0,1,0,59241.3,0.686969,0.68669,1.19727,90,0.0429576,10,0.000822151,-2.92181,0.0861987,0.684465,0.686163,
2,1,0,0,0,59242.1,0.690965,0.690659,1.33086,90,0.0439722,10,0.000919172,-2.87587,0.084019,0.702222,0.690073,
2,1,0,1,0,59242.9,0.69496,0.694707,1.47916,90,0.0450995,10,0.00102758,-2.82998,0.087115,0.677266,0.694057,
2,1,0,0,0,59243.7,0.698955,0.698673,1.64108,90,0.0463501,10,0.00114658,-2.78487,0.0861007,0.685244,0.697951,
2,1,0,1,0,59244.5,0.70295,0.702648,1.81767,90,0.0477367,10,0.00127718,-2.74048,0.088882,0.663801,0.701848,
2,1,0,1,0,59245.3,0.706945,0.706646,2.01116,90,0.0492712,10,0.00142118,-2.69655,0.0915405,0.644523,0.705762,
2,1,0,1,0,59246.1,0.71094,0.710652,2.21859,90,0.0509652,10,0.00157665,-2.65392,0.0922778,0.639374,0.709676,
2,1,0,1,0,59246.9,0.714936,0.714652,2.4417,90,0.0528322,10,0.00174497,-2.61231,0.0945825,0.623794,0.713577,
2,1,0,0,0,59247.7,0.718931,0.718626,2.67974,90,0.0548827,10,0.00192573,-2.57191,0.0979148,0.602565,0.717447,
2,1,0,1,0,59248.5,0.722927,0.722601,2.93335,90,0.0571307,10,0.00211964,-2.53264,0.100803,0.585303,0.72131,
2,1,0,1,0,59249.3,0.726921,0.726623,3.203,90,0.0595866,10,0.00232737,-2.49444,0.102069,0.578043,0.725213,
2,1,0,1,0,59250.1,0.730916,0.7306,3.48967,90,0.0622649,10,0.00254955,-2.45722,0.105037,0.561707,0.729064,
2,1,0,1,0,59250.9,0.734911,0.734575,3.7929,90,0.0651789,10,0.00278617,-2.42103,0.10723,0.55022,0.732906,
2,1,0,0,0,59251.7,0.738907,0.738617,4.11321,90,0.0683423,10,0.00303808,-2.38582,0.112988,0.522181,0.736807,
2,1,0,1,0,59252.5,0.742902,0.742587,4.45062,90,0.0717679,10,0.00330497,-2.35158,0.113143,0.521462,0.740629,
2,1,0,1,0,59253.3,0.746897,0.746623,4.80842,90,0.0754715,10,0.00359008,-2.318,0.115647,0.510173,0.744507,
2,1,0,1,0,59254.1,0.750892,0.750578,5.18529,90,0.0794676,10,0.00389197,-2.28523,0.118152,0.499356,0.748297,
2,1,0,1,0,59254.9,0.754887,0.754575,5.58005,90,0.0837725,10,0.00421057,-2.25336,0.120176,0.490945,0.75212,
2,1,0,0,0,59255.7,0.758883,0.758573,5.99962,90,0.0884038,10,0.00455115,-2.22188,0.121724,0.484703,0.755933,
2,1,0,1,0,59256.5,0.762878,0.762626,6.43948,90,0.0933775,10,0.00491092,-2.19115,0.12512,0.471549,0.759793,
2,1,0,0,0,59257.3,0.766873,0.766602,6.9041,90,0.0987129,10,0.0052927,-2.16089,0.125894,0.468648,0.763564,
2,1,0,1,0,59258.1,0.770868,0.770572,7.39469,90,0.10443,10,0.00569814,-2.13108,0.125527,0.470018,0.767319,
2,1,0,1,0,59258.9,0.774863,0.77457,7.91159,90,0.110549,10,0.00612808,-2.10174,0.131451,0.448836,0.771089,
2,1,0,1,0,59259.7,0.778858,0.778562,8.45777,90,0.117093,10,0.0065849,-2.07274,0.132254,0.446111,0.774841,
2,1,0,1,0,59260.5,0.782854,0.782555,9.0226,90,0.124081,10,0.00706068,-2.04467,0.133805,0.440941,0.778585,
2,1,0,0,0,59261.3,0.786849,0.786534,9.61032,90,0.131525,10,0.00755885,-2.01726,0.13296,0.443742,0.782306,
2,1,0,1,0,59262.1,0.790844,0.790533,10.2608,90,0.139466,10,0.00811147,-1.98882,0.131688,0.44803,0.786018,
2,1,0,1,0,59262.9,0.794839,0.794512,10.9463,90,0.147943,10,0.00869695,-1.96073,0.129806,0.454525,0.789696,
2,1,0,1,0,59263.7,0.798834,0.798531,11.676,90,0.156985,10,0.00932364,-1.93271,0.130803,0.45106,0.793393,
2,1,0,1,0,59264.5,0.802829,0.802529,12.4535,90,0.166629,10,0.00999428,-1.90471,0.129921,0.45412,0.79705,
2,1,0,0,0,59265.3,0.806825,0.806515,13.2909,90,0.176921,10,0.0107193,-1.87644,0.130079,0.453569,0.800667,
2,1,0,1,0,59266.1,0.81082,0.810528,14.1609,90,0.187892,10,0.0114778,-1.84891,0.129954,0.454008,0.804297,
2,1,0,1,0,59266.9,0.814815,0.814503,15.0914,90,0.199583,10,0.012292,-1.82127,0.129979,0.45392,0.807863,
2,1,0,1,0,59267.7,0.81881,0.818503,16.0657,90,0.212034,10,0.0131499,-1.7941,0.134275,0.439396,0.811434,
2,1,0,1,0,59268.5,0.822805,0.822529,17.0918,90,0.225283,10,0.0140585,-1.76721,0.131238,0.449565,0.815008,
2,1,0,0,0,59269.3,0.826801,0.826518,18.153,90,0.239372,10,0.0150038,-1.74105,0.136473,0.432319,0.818531,
2,1,0,1,0,59270.1,0.830796,0.830504,19.2615,90,0.254322,10,0.0159968,-1.71531,0.137561,0.428899,0.822029,
2,1,0,0,0,59270.9,0.834791,0.834506,20.3995,90,0.270174,10,0.0170235,-1.69038,0.140628,0.419546,0.82553,
2,1,0,1,0,59271.7,0.838786,0.8385,21.5856,90,0.286958,10,0.0180995,-1.66584,0.147832,0.399102,0.829002,
2,1,0,1,0,59272.5,0.842781,0.842472,22.7566,90,0.304681,10,0.0191718,-1.64289,0.154461,0.381974,0.832459,
2,1,0,1,0,59273.3,0.846776,0.846536,23.9502,90,0.323345,10,0.0202747,-1.62069,0.154901,0.380889,0.835998,
2,1,0,0,0,59274,0.849723,0.84945,24.7957,90,0.340482,10,0.0210627,-1.60562,0.0540129,1.09233,0.83854,
2,1,0,1,0,59274.8,0.845728,0.845448,22.9704,90,0.359512,10,0.0194202,-1.63883,0.107025,0.551274,0.835341,
2,1,0,0,0,59275.5,0.841732,0.84146,21.4836,90,0.377252,10,0.0180776,-1.66789,0.117188,0.503465,0.832007,
2,1,0,1,0,59276.3,0.837737,0.837414,20.1175,90,0.393859,10,0.0168466,-1.69643,0.121606,0.485173,0.828562,
2,1,0,1,0,59277.1,0.833742,0.83346,18.8234,90,0.409404,10,0.0156886,-1.7253,0.134031,0.440197,0.825177,
2,1,0,1,0,59277.9,0.829747,0.829484,17.5421,90,0.423928,10,0.0145509,-1.75592,0.101741,0.579904,0.821766,
2,1,0,1,0,59278.7,0.825752,0.82544,16.4288,90,0.437487,10,0.013561,-1.78439,0.124021,0.475725,0.818211,
2,1,0,0,0,59279.5,0.821757,0.821481,15.3412,90,0.45018,10,0.0126025,-1.81414,0.118603,0.497458,0.814731,
2,1,0,1,0,59280.3,0.817761,0.817413,14.3609,90,0.462037,10,0.0117388,-1.84282,0.124699,0.473141,0.811094,
2,1,0,1,0,59281.1,0.813766,0.813429,13.4249,90,0.47313,10,0.0109202,-1.87209,0.120191,0.490887,0.807522,
2,1,0,1,0,59281.9,0.809771,0.809474,12.5354,90,0.483489,10,0.0101471,-1.90186,0.122514,0.481578,0.803959,
2,1,0,1,0,59282.7,0.805776,0.805456,11.7002,90,0.493161,10,0.00942397,-1.93181,0.121102,0.487192,0.800308,
2,1,0,0,0,59283.5,0.801781,0.801451,10.9107,90,0.502187,10,0.0087444,-1.96215,0.118458,0.498067,0.79665,
2,1,0,1,0,59284.3,0.797786,0.79748,10.1636,90,0.510596,10,0.00810528,-1.99295,0.11859,0.497513,0.793008,
2,1,0,1,0,59285.1,0.79379,0.793482,9.45682,90,0.518426,10,0.00750381,-2.02425,0.116803,0.505123,0.789321,
2,1,0,1,0,59285.9,0.789795,0.789479,8.79906,90,0.525711,10,0.00694667,-2.05556,0.119693,0.492926,0.785607,
2,1,0,1,0,59286.7,0.7858,0.785478,8.18099,90,0.532485,10,0.00642599,-2.08719,0.116883,0.504777,0.781879,
2,1,0,0,0,59287.5,0.781805,0.781485,7.59968,90,0.538783,10,0.00593903,-2.1192,0.115826,0.509384,0.778141,
2,1,0,1,0,59288.3,0.77781,0.777479,7.05377,90,0.54463,10,0.00548415,-2.15158,0.116501,0.506433,0.774375,
2,1,0,0,0,59289.1,0.773814,0.773485,6.54068,90,0.550052,10,0.00505912,-2.18438,0.112743,0.523316,0.770607,
2,1,0,1,0,59289.9,0.769819,0.769493,6.05963,90,0.55508,10,0.00466284,-2.21755,0.116158,0.507931,0.766827,
2,1,0,1,0,59290.7,0.765824,0.765521,5.61589,90,0.559737,10,0.00429908,-2.25058,0.113649,0.519143,0.76305,
2,1,0,1,0,59291.5,0.761829,0.761501,5.19448,90,0.564049,10,0.0039556,-2.28446,0.111456,0.529356,0.759215,
2,1,0,1,0,59292.3,0.757834,0.757532,4.79571,90,0.568032,10,0.0036329,-2.31915,0.109042,0.541076,0.755422,
2,1,0,0,0,59293.1,0.753839,0.753502,4.41832,90,0.571705,10,0.00332921,-2.35474,0.107333,0.549689,0.751558,
2,1,0,1,0,59293.9,0.749844,0.749534,4.06575,90,0.575088,10,0.00304742,-2.39086,0.105491,0.559288,0.747745,
2,1,0,1,0,59294.7,0.745848,0.745545,3.73515,90,0.578197,10,0.00278472,-2.42769,0.102594,0.575083,0.743902,
2,1,0,1,0,59295.5,0.741853,0.741559,3.42259,90,0.58105,10,0.00253805,-2.46564,0.0994356,0.593349,0.740053,
2,1,0,1,0,59296.3,0.737858,0.737545,3.12912,90,0.58366,10,0.00230787,-2.50458,0.0986383,0.598145,0.736168,
2,1,0,0,0,59297.1,0.733863,0.733564,2.85317,90,0.586043,10,0.00209298,-2.54467,0.0937224,0.629518,0.732309,
2,1,0,1,0,59297.9,0.729868,0.729583,2.59208,90,0.588212,10,0.00189114,-2.58635,0.0929225,0.634938,0.728443,
2,1,0,1,0,59298.7,0.725872,0.725501,2.34859,90,0.590179,10,0.0017039,-2.62919,0.0887565,0.66474,0.724468,
2,1,0,1,0,59299.5,0.721877,0.721544,2.11823,90,0.591957,10,0.00152839,-2.67403,0.0859498,0.686447,0.720612,
2,1,0,1,0,59300.3,0.717882,0.717552,1.90381,90,0.593557,10,0.00136608,-2.72038,0.0825373,0.714828,0.716715,
2,1,0,0,0,59301.1,0.713887,0.71362,1.7027,90,0.594992,10,0.00121508,-2.76886,0.0786012,0.750625,0.712871,
2,1,0,1,0,59301.9,0.709892,0.709613,1.51755,90,0.596272,10,0.00107687,-2.81886,0.0760985,0.775311,0.708945,
2,1,0,0,0,59302.7,0.705897,0.705581,1.34379,90,0.597409,10,0.000948153,-2.87167,0.0726691,0.811899,0.70499,
2,1,0,1,0,59303.5,0.701901,0.701588,1.18414,90,0.598412,10,0.000830778,-2.9266,0.0698806,0.844298,0.701067,
2,1,0,1,0,59304.3,0.697906,0.697578,1.03618,90,0.599292,10,0.000722814,-2.98457,0.0665599,0.88642,0.697122,
2,1,0,1,0,59305.1,0.693911,0.693585,0.901722,90,0.60006,10,0.000625421,-3.04493,0.0632493,0.932817,0.693188,
2,1,0,1,0,59305.9,0.689916,0.689636,0.777423,90,0.600724,10,0.000536138,-3.10934,0.0587422,1.00439,0.689293,
2,1,0,0,0,59306.7,0.685921,0.685634,0.665278,90,0.601294,10,0.000456137,-3.177,0.058171,1.01425,0.685341,
2,1,0,1,0,59307.5,0.681926,0.681606,0.56309,90,0.601778,10,0.000383805,-3.24942,0.0527154,1.11922,0.681358,
2,1,0,1,0,59308.3,0.67793,0.677609,0.472368,90,0.602186,10,0.000320081,-3.32572,0.0506494,1.16487,0.677401,
2,1,0,1,0,59309.1,0.673935,0.673626,0.391903,90,0.602526,10,0.000263996,-3.40682,0.0472573,1.24848,0.673453,
2,1,0,1,0,59309.9,0.66994,0.669614,0.321303,90,0.602805,10,0.000215149,-3.49309,0.0429077,1.37504,0.669473,
2,1,0,0,0,59310.7,0.665945,0.665635,0.257557,90,0.60303,10,0.000171439,-3.58913,0.0400657,1.47258,0.665522,
2,1,0,1,0,59311.5,0.66195,0.6616,0.202796,90,0.603207,10,0.00013417,-3.69294,0.0361102,1.63389,0.661511,
2,1,0,0,0,59312.3,0.657955,0.657654,0.1544,90,0.603344,10,0.000101542,-3.81135,0.0323383,1.82446,0.657586,
2,1,0,1,0,59313.1,0.653959,0.653615,0.112082,90,0.603445,10,7.32588e-05,-3.95046,0.0268744,2.1954,0.653566,
2,1,0,1,0,59313.9,0.649964,0.649631,0.0771618,90,0.603515,10,5.01267e-05,-4.1126,0.0208101,2.83517,0.649597,
2,1,0,1,0,59314.7,0.64597,0.645674,0.0477025,90,0.603559,10,3.08003e-05,-4.32146,0.0157434,3.74761,0.645653,
2,1,0,1,0,59315.5,0.641974,0.641647,0.0210751,90,0.603581,10,1.35228e-05,-4.67623,0.00737931,7.99533,0.641638,
2,1,0,0,0,59316.3,0.637979,0.637664,0.000641116,90,0.603584,10,4.08817e-07,-6.19306,-0.72604,-0.0812628,0.637664,
2,0,0,1,0,59317.1,0.633983,0.633681,-0.0187247,90,0.60357,10,-1.18655e-05,-4.72758,-0.00968103,-6.09439,0.633689,
2,0,0,1,0,59317.9,0.629988,0.629658,-0.0332153,90,0.603544,10,-2.09143e-05,-4.47866,-0.0198973,-2.96522,0.629672,
2,0,0,1,0,59318.7,0.625993,0.625664,-0.0465545,90,0.603506,10,-2.91275e-05,-4.33204,-0.0375293,-1.57211,0.625684,
2,0,0,1,0,59319.5,0.621998,0.621672,-0.0568388,90,0.60346,10,-3.53351e-05,-4.24536,-0.0534765,-1.10329,0.621697,
2,0,0,0,0,59320.3,0.618003,0.617695,-0.0661187,90,0.603405,10,-4.08412e-05,-4.17968,-0.0645776,-0.913629,0.617725,
2,0,0,1,0,59321.1,0.614008,0.613694,-0.0738615,90,0.603342,10,-4.53283e-05,-4.13158,-0.112414,-0.524843,0.613726,
2,0,0,1,0,59321.9,0.610012,0.609693,-0.0812071,90,0.603275,10,-4.95114e-05,-4.09041,-0.125334,-0.470744,0.609729,
2,0,0,1,0,59322.7,0.606017,0.605709,-0.0859132,90,0.603202,10,-5.20384e-05,-4.06594,-0.132777,-0.444353,0.605746,
2,0,0,1,0,59323.5,0.602022,0.601679,-0.09159,90,0.603125,10,-5.51078e-05,-4.03815,-0.19591,-0.301158,0.60172,
2,0,0,0,0,59324.3,0.598027,0.597712,-0.094693,90,0.603045,10,-5.65992e-05,-4.02368,-0.243513,-0.242287,0.597754,
2,0,0,1,0,59325.1,0.594032,0.593671,-0.0986638,90,0.602962,10,-5.85738e-05,-4.00584,-0.336096,-0.175545,0.593714,
2,0,0,0,0,59325.9,0.590037,0.589752,-0.101873,90,0.602876,10,-6.008e-05,-3.99194,-0.362675,-0.16268,0.589796,
2,0,0,1,0,59326.7,0.586041,0.585677,-0.103994,90,0.602788,10,-6.09069e-05,-3.98299,-0.334354,-0.17646,0.585723,
2,0,0,1,0,59327.5,0.582046,0.581706,-0.106398,90,0.602698,10,-6.18923e-05,-3.97307,-0.569597,-0.103582,0.581753,
2,0,0,1,0,59328.3,0.578052,0.577685,-0.107874,90,0.602606,10,-6.23171e-05,-3.96708,-0.373073,-0.158146,0.577732,
2,0,0,1,0,59329.1,0.574056,0.573736,-0.109127,90,0.602513,10,-6.26103e-05,-3.96207,-1.34396,-0.0439003,0.573784,
2,0,0,0,0,59329.9,0.570061,0.569731,-0.111196,90,0.602419,10,-6.33518e-05,-3.95391,-0.862639,-0.0683948,0.56978,
2,0,0,1,0,59330.7,0.566065,0.565735,-0.112924,90,0.602324,10,-6.38851e-05,-3.94721,-0.516399,-0.114253,0.565785,
2,0,0,1,0,59331.5,0.56207,0.561735,-0.114093,90,0.602227,10,-6.409e-05,-3.94274,-1.17469,-0.0502259,0.561785,
2,0,0,1,0,59332.3,0.558075,0.557759,-0.114995,90,0.60213,10,-6.41394e-05,-3.93932,-0.643053,-0.0917499,0.55781,
2,0,0,1,0,59333.1,0.55408,0.55377,-0.115666,90,0.602031,10,-6.40523e-05,-3.93679,-0.90551,-0.0651566,0.553821,
2,0,0,0,0,59333.9,0.550085,0.549776,-0.117375,90,0.601932,10,-6.45301e-05,-3.93042,-1.63508,-0.0360838,0.549828,
2,0,0,1,0,59334.7,0.54609,0.54577,-0.118644,90,0.601832,10,-6.47525e-05,-3.92575,-0.790148,-0.0746696,0.545822,
2,0,0,1,0,59335.5,0.542094,0.541757,-0.119105,90,0.601731,10,-6.4526e-05,-3.92407,-0.88071,-0.0669914,0.54181,
2,0,0,1,0,59336.3,0.538099,0.537749,-0.120507,90,0.601629,10,-6.48026e-05,-3.91899,-3.82866,-0.0154101,0.537802,
2,0,0,1,0,59337.1,0.534104,0.533755,-0.121503,90,0.601526,10,-6.48529e-05,-3.91541,-1.27457,-0.0462902,0.533809,
2,0,0,0,0,59337.9,0.530109,0.529746,-0.122147,90,0.601423,10,-6.47069e-05,-3.91312,-1.56496,-0.0377005,0.5298,
2,0,0,1,0,59338.7,0.526114,0.525747,-0.123344,90,0.601319,10,-6.48476e-05,-3.90888,-0.578521,-0.101984,0.525801,
2,0,0,0,0,59339.5,0.522119,0.521765,-0.124271,90,0.601214,10,-6.48404e-05,-3.90563,17.5411,0.00336353,0.521819,
2,0,0,1,0,59340.3,0.518123,0.517792,-0.125079,90,0.601108,10,-6.47651e-05,-3.90281,-0.834168,-0.0707291,0.517847,
2,0,0,1,0,59341.1,0.514128,0.513795,-0.125873,90,0.601001,10,-6.46731e-05,-3.90007,-3.91584,-0.015067,0.51385,
2,0,0,1,0,59341.9,0.510133,0.509823,-0.126686,90,0.600894,10,-6.45875e-05,-3.89727,-0.556654,-0.10599,0.509879,
2,0,0,1,0,59342.7,0.506138,0.505779,-0.128375,90,0.600786,10,-6.49292e-05,-3.89152,-179.915,-0.000327932,0.505836,
2,0,0,0,0,59343.5,0.502143,0.50175,-0.128743,90,0.600677,10,-6.45966e-05,-3.89028,-1.3422,-0.0439577,0.501806,
2,0,0,1,0,59344.3,0.498148,0.497861,-0.13009,90,0.600568,10,-6.47668e-05,-3.88576,-0.990433,-0.0595699,0.497918,
2,0,0,1,0,59345.1,0.494152,0.4938,-0.130663,90,0.600457,10,-6.45215e-05,-3.88385,-0.688533,-0.0856895,0.493857,
2,0,0,1,0,59345.9,0.490157,0.489828,-0.131596,90,0.600346,10,-6.44593e-05,-3.88076,-1.63553,-0.036074,0.489885,
2,0,0,1,0,59346.7,0.486162,0.485864,-0.133181,90,0.600234,10,-6.47077e-05,-3.87556,-1.7448,-0.0338147,0.485923,
2,0,0,0,0,59347.5,0.482167,0.481791,-0.134155,90,0.600121,10,-6.46346e-05,-3.87239,-0.850512,-0.0693699,0.48185,
2,0,0,1,0,59348.3,0.478172,0.477841,-0.135483,90,0.600006,10,-6.47393e-05,-3.86812,-1.53687,-0.0383896,0.4779,
2,0,0,0,0,59349.1,0.474177,0.473853,-0.137145,90,0.599891,10,-6.49865e-05,-3.86282,-0.972274,-0.0606825,0.473914,
2,0,0,1,0,59349.9,0.470181,0.469841,-0.137816,90,0.599775,10,-6.47517e-05,-3.8607,-0.512541,-0.115113,0.469901,
2,0,0,1,0,59350.7,0.466186,0.465879,-0.139759,90,0.599657,10,-6.51108e-05,-3.85462,-0.933735,-0.0631871,0.465941,
2,0,0,1,0,59351.5,0.462191,0.461833,-0.14133,90,0.599539,10,-6.52709e-05,-3.84977,-1.02863,-0.0573577,0.461895,
2,0,0,1,0,59352.3,0.458196,0.457864,-0.142316,90,0.599419,10,-6.51613e-05,-3.84675,-1.01836,-0.0579362,0.457926,
2,0,0,0,0,59353.1,0.454201,0.453846,-0.14398,90,0.599298,10,-6.53445e-05,-3.8417,-1.13169,-0.0521345,0.453909,
2,0,0,1,0,59353.9,0.450205,0.44985,-0.14635,90,0.599176,10,-6.58353e-05,-3.83461,-0.606179,-0.097331,0.449914,
2,0,0,1,0,59354.7,0.44621,0.445885,-0.147052,90,0.599052,10,-6.55683e-05,-3.83253,-0.9009,-0.0654901,0.44595,
2,0,0,1,0,59355.5,0.442215,0.441894,-0.148957,90,0.598927,10,-6.58234e-05,-3.82694,-1.88621,-0.0312797,0.44196,
2,0,0,1,0,59356.3,0.43822,0.437867,-0.150249,90,0.598801,10,-6.5789e-05,-3.82319,-0.629703,-0.093695,0.437934,
2,0,0,0,0,59357.1,0.434225,0.43391,-0.151534,90,0.598674,10,-6.57521e-05,-3.81949,-1.21404,-0.0485981,0.433977,
2,0,0,1,0,59357.8,0.43023,0.429928,-0.152834,90,0.598545,10,-6.57076e-05,-3.81578,-0.924681,-0.0638058,0.429995,
2,0,0,1,0,59358.6,0.426234,0.425908,-0.154242,90,0.598415,10,-6.56928e-05,-3.8118,-0.568433,-0.103794,0.425976,
2,0,0,1,0,59359.4,0.422239,0.421898,-0.156373,90,0.598284,10,-6.59736e-05,-3.80584,-1.55263,-0.0380002,0.421967,
2,0,0,1,0,59360.2,0.418244,0.417917,-0.15867,90,0.598151,10,-6.63108e-05,-3.79951,-0.692014,-0.0852584,0.417987,
2,0,0,0,0,59361,0.414249,0.413907,-0.159939,90,0.598017,10,-6.61999e-05,-3.79604,-0.640048,-0.0921806,0.413977,
2,0,0,1,0,59361.8,0.410254,0.409923,-0.162442,90,0.597881,10,-6.65887e-05,-3.7893,-1.87882,-0.0314026,0.409994,
2,0,0,0,0,59362.6,0.406259,0.405934,-0.163716,90,0.597743,10,-6.64581e-05,-3.78591,-0.630226,-0.0936172,0.406006,
2,0,0,1,0,59363.4,0.402263,0.401864,-0.165072,90,0.597604,10,-6.63364e-05,-3.78233,-0.787875,-0.0748849,0.401937,
2,0,0,1,0,59364.2,0.398268,0.397924,-0.167815,90,0.597464,10,-6.67777e-05,-3.77517,-0.749149,-0.078756,0.397998,
2,0,0,1,0,59365,0.394274,0.393933,-0.168681,90,0.597322,10,-6.6449e-05,-3.77293,-1.06307,-0.0554997,0.394007,
2,0,0,1,0,59365.8,0.390278,0.389935,-0.171425,90,0.597178,10,-6.68445e-05,-3.76593,-0.678655,-0.0869367,0.39001,
2,0,0,0,0,59366.6,0.386283,0.385962,-0.174353,90,0.597033,10,-6.72936e-05,-3.75857,-0.49375,-0.119494,0.386038,
2,0,0,1,0,59367.4,0.382287,0.381925,-0.174693,90,0.596885,10,-6.67196e-05,-3.75772,-1.19123,-0.0495284,0.382002,
2,0,0,1,0,59368.2,0.378292,0.377945,-0.178021,90,0.596736,10,-6.72819e-05,-3.74953,-2.24191,-0.0263168,0.378023,
2,0,0,1,0,59369,0.374297,0.373956,-0.180309,90,0.596586,10,-6.74275e-05,-3.74398,-0.627288,-0.0940557,0.374035,
2,0,0,1,0,59369.8,0.370303,0.369958,-0.182544,90,0.596434,10,-6.75335e-05,-3.73863,-0.63788,-0.0924938,0.370038,
2,0,0,0,0,59370.6,0.366307,0.365932,-0.18376,90,0.59628,10,-6.72434e-05,-3.73575,-1.11414,-0.0529556,0.366012,
2,0,0,1,0,59371.4,0.362312,0.361991,-0.185014,90,0.596124,10,-6.69734e-05,-3.7328,-0.608017,-0.0970368,0.362073,
2,0,0,1,0,59372.2,0.358316,0.357957,-0.188335,90,0.595967,10,-6.7416e-05,-3.72507,-1.30664,-0.0451538,0.35804,
2,0,0,1,0,59373,0.354321,0.353959,-0.190255,90,0.595808,10,-6.73423e-05,-3.72066,-0.698044,-0.0845219,0.354042,
2,0,0,1,0,59373.8,0.350327,0.350002,-0.192182,90,0.595647,10,-6.72642e-05,-3.71629,-0.64009,-0.0921745,0.350086,
2,0,0,0,0,59374.6,0.346331,0.345979,-0.194281,90,0.595484,10,-6.7217e-05,-3.71157,-1.33812,-0.0440917,0.346065,
2,0,0,1,0,59375.4,0.342336,0.341977,-0.196577,90,0.59532,10,-6.72249e-05,-3.70647,-0.77795,-0.0758404,0.342064,
2,0,0,0,0,59376.2,0.338341,0.337996,-0.198322,90,0.595154,10,-6.70321e-05,-3.70263,-0.710122,-0.0830843,0.338084,
2,0,0,1,0,59377,0.334345,0.334043,-0.201654,90,0.594986,10,-6.73611e-05,-3.69539,-1.02647,-0.0574785,0.334132,
2,0,0,1,0,59377.8,0.33035,0.330038,-0.203135,90,0.594816,10,-6.70423e-05,-3.69221,-0.928809,-0.0635222,0.330127,
2,0,0,1,0,59378.6,0.326355,0.326036,-0.205689,90,0.594644,10,-6.7062e-05,-3.68679,-0.680621,-0.0866855,0.326127,
2,0,0,1,0,59379.4,0.32236,0.322035,-0.20757,90,0.59447,10,-6.68447e-05,-3.68284,-0.780091,-0.0756322,0.322126,
2,0,0,0,0,59380.2,0.318365,0.318006,-0.209909,90,0.594294,10,-6.67522e-05,-3.67797,-1.09524,-0.0538692,0.318098,
2,0,0,1,0,59381,0.31437,0.314069,-0.212344,90,0.594117,10,-6.66907e-05,-3.67296,-0.947104,-0.0622952,0.314163,
2,0,0,1,0,59381.8,0.310374,0.310044,-0.214386,90,0.593937,10,-6.64691e-05,-3.6688,-0.553372,-0.106619,0.310138,
2,0,0,1,0,59382.6,0.306379,0.306022,-0.218225,90,0.593756,10,-6.67816e-05,-3.6611,-0.632725,-0.0932475,0.306118,
2,0,0,1,0,59383.4,0.302385,0.30203,-0.220311,90,0.593572,10,-6.65404e-05,-3.65696,-0.986157,-0.0598282,0.302127,
2,0,0,0,0,59384.2,0.298389,0.298059,-0.222845,90,0.593386,10,-6.64209e-05,-3.652,-0.660042,-0.0893883,0.298157,
2,0,0,1,0,59385,0.294394,0.294071,-0.225177,90,0.593198,10,-6.6218e-05,-3.64748,-2.33088,-0.0253123,0.29417,
2,0,0,1,0,59385.8,0.290398,0.290035,-0.227785,90,0.593008,10,-6.60656e-05,-3.64247,-0.826384,-0.0713954,0.290135,
2,0,0,1,0,59386.6,0.286403,0.28607,-0.229318,90,0.592817,10,-6.56011e-05,-3.63956,-0.724424,-0.081444,0.286171,
2,0,0,1,0,59387.4,0.282408,0.282087,-0.232554,90,0.592623,10,-6.56004e-05,-3.63348,-0.943651,-0.0625231,0.282189,
2,0,0,1,0,59388.2,0.278414,0.278065,-0.23546,90,0.592427,10,-6.54732e-05,-3.62808,-0.577262,-0.102207,0.278168,
2,0,0,1,0,59389,0.274418,0.274061,-0.237796,90,0.592229,10,-6.51706e-05,-3.6238,-1.4109,-0.0418174,0.274166,
2,0,0,0,0,59389.8,0.270423,0.270078,-0.241926,90,0.592029,10,-6.53388e-05,-3.61632,-0.588432,-0.100267,0.270185,
2,0,0,1,0,59390.6,0.266427,0.266097,-0.243431,90,0.591827,10,-6.47764e-05,-3.61362,-1.57899,-0.0373657,0.266204,
2,0,0,1,0,59391.4,0.262432,0.262098,-0.24608,90,0.591622,10,-6.44971e-05,-3.60892,-0.92353,-0.0638853,0.262206,
2,0,0,1,0,59392.2,0.258437,0.258073,-0.249003,90,0.591416,10,-6.42609e-05,-3.6038,-0.709327,-0.0831775,0.258182,
2,0,0,1,0,59393,0.254442,0.254096,-0.250499,90,0.591208,10,-6.36507e-05,-3.60119,-1.02947,-0.0573113,0.254206,
2,0,0,0,0,59393.8,0.250447,0.2501,-0.253396,90,0.590998,10,-6.33744e-05,-3.5962,-1.24536,-0.0473758,0.250212,
2,0,0,1,0,59394.6,0.246452,0.246112,-0.255869,90,0.590786,10,-6.29724e-05,-3.59198,-0.910419,-0.0648054,0.246225,
2,0,0,1,0,59395.4,0.242456,0.242107,-0.257316,90,0.590571,10,-6.2298e-05,-3.58953,-0.85169,-0.069274,0.24222,
2,0,0,1,0,59396.2,0.238461,0.238098,-0.260243,90,0.590356,10,-6.19633e-05,-3.58462,-1.07098,-0.0550896,0.238212,
2,0,0,1,0,59397,0.234467,0.234094,-0.262321,90,0.590138,10,-6.14078e-05,-3.58117,-1.33757,-0.0441098,0.234209,
2,0,0,0,0,59397.8,0.230471,0.230099,-0.26536,90,0.589918,10,-6.10591e-05,-3.57616,-1.17159,-0.0503588,0.230216,
2,0,0,1,0,59398.6,0.226476,0.226151,-0.266488,90,0.589697,10,-6.02665e-05,-3.57432,-0.683192,-0.0863594,0.226268,
2,0,0,0,0,59399.4,0.222481,0.222124,-0.267899,90,0.589474,10,-5.95066e-05,-3.57203,-1.23485,-0.047779,0.222241,
2,0,0,1,0,59400.2,0.218485,0.21813,-0.272695,90,0.589248,10,-5.9483e-05,-3.56432,-2.84418,-0.0207441,0.21825,
2,0,0,1,0,59401,0.21449,0.214105,-0.274314,90,0.589021,10,-5.8732e-05,-3.56175,-0.730539,-0.0807623,0.214226,
2,0,0,1,0,59401.8,0.210496,0.210155,-0.277642,90,0.588791,10,-5.83478e-05,-3.55652,-0.905029,-0.0651913,0.210277,
2,0,0,1,0,59402.6,0.2065,0.206158,-0.281667,90,0.588559,10,-5.8068e-05,-3.55026,-0.752426,-0.078413,0.206282,
2,0,0,0,0,59403.4,0.202505,0.202172,-0.282342,90,0.588325,10,-5.70816e-05,-3.54923,-1.19171,-0.0495087,0.202296,
2,0,0,1,0,59404.2,0.198509,0.19812,-0.286191,90,0.588088,10,-5.67001e-05,-3.54334,-0.699991,-0.0842869,0.198246,
2,0,0,1,0,59405,0.194514,0.194122,-0.288779,90,0.587849,10,-5.60584e-05,-3.53943,-0.718435,-0.0821229,0.194249,
2,0,0,1,0,59405.8,0.190519,0.190122,-0.291176,90,0.587607,10,-5.53589e-05,-3.53584,-0.705068,-0.0836799,0.19025,
2,0,0,1,0,59406.6,0.186524,0.186212,-0.297452,90,0.587362,10,-5.5389e-05,-3.52658,-0.920823,-0.0640731,0.186343,
2,0,0,0,0,59407.4,0.182529,0.182184,-0.299897,90,0.587114,10,-5.46366e-05,-3.52303,-0.48227,-0.122338,0.182316,
2,0,0,1,0,59408.2,0.178534,0.178227,-0.30556,90,0.586862,10,-5.4459e-05,-3.5149,-0.630437,-0.0935858,0.178361,
2,0,0,1,0,59409,0.174538,0.174129,-0.311652,90,0.586606,10,-5.42676e-05,-3.50633,-0.511133,-0.11543,0.174266,
2,0,0,1,0,59409.8,0.170543,0.170175,-0.317074,90,0.586346,10,-5.39581e-05,-3.49884,-0.426275,-0.138408,0.170315,
2,0,0,1,0,59410.6,0.166549,0.166208,-0.323059,90,0.58608,10,-5.36948e-05,-3.49072,-0.44146,-0.133648,0.16635,
2,0,0,0,0,59411.4,0.162553,0.162199,-0.33097,90,0.585809,10,-5.3683e-05,-3.48021,-0.353624,-0.166844,0.162345,
2,0,0,1,0,59412.2,0.158558,0.158191,-0.341388,90,0.58553,10,-5.40044e-05,-3.46675,-0.258122,-0.228575,0.158341,
2,0,0,0,0,59413,0.154563,0.15421,-0.355986,90,0.585241,10,-5.48965e-05,-3.44857,-0.230496,-0.255969,0.154366,
2,0,0,1,0,59413.8,0.150567,0.150229,-0.372289,90,0.584941,10,-5.59286e-05,-3.42912,-0.163998,-0.35976,0.150393,
2,0,0,1,0,59414.6,0.146572,0.146199,-0.395309,90,0.584625,10,-5.77936e-05,-3.40306,-0.147663,-0.399558,0.146372,
2,0,0,1,0,59415.4,0.142578,0.142214,-0.424343,90,0.584289,10,-6.03475e-05,-3.37228,-0.117221,-0.503322,0.142401,
2,0,0,1,0,59416.2,0.138582,0.138271,-0.460313,90,0.583926,10,-6.36478e-05,-3.33695,-0.10273,-0.574321,0.138473,
2,0,0,0,0,59417,0.134587,0.134263,-0.503099,90,0.58353,10,-6.75473e-05,-3.29835,-0.105457,-0.55947,0.134484,
2,0,0,1,0,59417.8,0.130591,0.130253,-0.549338,90,0.5831,10,-7.15527e-05,-3.26016,-0.113499,-0.51983,0.130494,
2,0,0,1,0,59418.6,0.126596,0.126239,-0.589317,90,0.582634,10,-7.43951e-05,-3.22965,-0.13602,-0.433759,0.126499,
2,0,0,1,0,59419.4,0.122602,0.122258,-0.625505,90,0.582137,10,-7.64729e-05,-3.20377,-0.205557,-0.287025,0.122533,
2,0,0,1,0,59420.2,0.118607,0.118286,-0.647584,90,0.581617,10,-7.66001e-05,-3.1887,-0.292112,-0.201977,0.118571,
2,0,0,0,0,59421,0.114611,0.114202,-0.662112,90,0.581081,10,-7.56143e-05,-3.17907,-0.724128,-0.0814774,0.114493,
2,0,0,1,0,59421.8,0.110616,0.110243,-0.669714,90,0.580539,10,-7.38315e-05,-3.17411,-1.66253,-0.0354881,0.110538,
2,0,0,1,0,59422.6,0.10662,0.106223,-0.670879,90,0.579993,10,-7.12628e-05,-3.17336,-5.64262,-0.0104561,0.106518,
2,0,0,1,0,59423.4,0.102625,0.102251,-0.669913,90,0.579447,10,-6.84992e-05,-3.17398,1.53061,0.0385466,0.102546,
2,0,0,1,0,59424.2,0.0986305,0.0982851,-0.666121,90,0.578902,10,-6.54697e-05,-3.17645,3.43427,0.0171798,0.0985782,
2,0,0,0,0,59425,0.0946351,0.0943085,-0.660667,90,0.578361,10,-6.23066e-05,-3.18002,1.15316,0.0511637,0.0945992,
2,0,0,1,0,59425.8,0.0906399,0.0903076,-0.657505,90,0.577823,10,-5.93777e-05,-3.1821,0.787858,0.0748866,0.0905969,
2,0,0,0,0,59426.6,0.0866448,0.0862738,-0.650898,90,0.57729,10,-5.61555e-05,-3.18649,1.10107,0.0535842,0.0865602,
2,0,0,1,0,59427.4,0.0826492,0.0822991,-0.643459,90,0.576762,10,-5.29561e-05,-3.19148,0.724568,0.0814279,0.0825822,
2,0,0,1,0,59428.2,0.0786544,0.0783474,-0.634996,90,0.576242,10,-4.97503e-05,-3.19723,0.809052,0.0729248,0.0786268,
2,0,0,1,0,59429,0.0746596,0.0743307,-0.627169,90,0.575727,10,-4.66179e-05,-3.20262,0.715896,0.0824142,0.0746066,
2,0,0,1,0,59429.8,0.0706641,0.0703264,-0.620054,90,0.575219,10,-4.36061e-05,-3.20757,0.660276,0.0893566,0.0705992,
2,0,0,0,0,59430.6,0.0666689,0.0663371,-0.611911,90,0.574717,10,-4.05924e-05,-3.21331,0.891188,0.0662038,0.0666064,
2,0,0,1,0,59431.4,0.0626737,0.0623373,-0.602826,90,0.574221,10,-3.75786e-05,-3.21981,0.613361,0.0961913,0.0626025,
2,0,0,1,0,59432.2,0.0586783,0.0583256,-0.595128,90,0.573732,10,-3.47112e-05,-3.22539,0.578546,0.10198,0.0585874,
2,0,0,1,0,59433,0.0546835,0.0543357,-0.585912,90,0.57325,10,-3.1836e-05,-3.23217,0.663629,0.0889051,0.0545935,
2,0,0,1,0,59433.8,0.0506886,0.0503328,-0.576978,90,0.572775,10,-2.90409e-05,-3.23884,0.544393,0.108378,0.0505867,
2,0,0,0,0,59434.6,0.046693,0.0463442,-0.567067,90,0.572307,10,-2.62803e-05,-3.24637,0.538306,0.109603,0.0465937,
2,0,0,1,0,59435.4,0.0426979,0.0423804,-0.557035,90,0.571848,10,-2.36074e-05,-3.25412,0.542063,0.108844,0.0426255,
2,0,0,1,0,59436.2,0.0387022,0.0383686,-0.547063,90,0.571396,10,-2.099e-05,-3.26196,0.429753,0.137288,0.0386093,
2,0,0,1,0,59437,0.0347074,0.0343552,-0.536914,90,0.570953,10,-1.84458e-05,-3.2701,0.587785,0.100377,0.0345914,
2,0,0,1,0,59437.8,0.0307126,0.0303385,-0.527288,90,0.570517,10,-1.59971e-05,-3.27795,0.636989,0.0926233,0.0305705,
2,0,0,0,0,59438.6,0.0267172,0.0263556,-0.519498,90,0.570088,10,-1.36916e-05,-3.28442,0.446496,0.13214,0.0265841,
2,0,0,1,0,59439.4,0.022722,0.0223801,-0.512002,90,0.569665,10,-1.14587e-05,-3.29073,0.938042,0.062897,0.0226054,
2,0,0,0,0,59440.2,0.0187268,0.0183887,-0.506591,90,0.569249,10,-9.31557e-06,-3.29534,0.76922,0.0767011,0.0186116,
2,0,0,1,0,59440.9,0.0147313,0.0143515,-0.502877,90,0.568836,10,-7.21703e-06,-3.29854,1.57894,0.0373669,0.0145727,
2,0,0,1,0,59441.7,0.0107365,0.0103869,-0.498037,90,0.568427,10,-5.17308e-06,-3.30274,1.863,0.0316693,0.0106061,
2,0,0,1,0,59442.5,0.00674163,0.00637462,-0.497582,90,0.568019,10,-3.1719e-06,-3.30314,3.30073,0.0178748,0.00659356,
2,0,0,1,0,59443.3,0.00274612,0.00237659,-0.497024,90,0.567613,10,-1.18122e-06,-3.30362,-1.57083,-0.0375598,0.00259528,
2,0,0,0,0,59443.8,0.000274105,-9.98546e-05,-0.499223,90,0.567358,10,4.98497e-08,-3.30171, , ,0.000119804,