File: Figure_codes/Fig_3-5/workspace_calculate_alpha_eff/20221101_1-115_002_TrumpetPlot_ParaChange_18_CV_C01_6.csv
mode,ox/red,error,control changes,counter inc.,time/s,control/V,Ewe/V,<I>/mA,cycle number,(Q-Qo)/C,I Range,P/W,log(|I|),Tafel slope mV/dec,alpha_eff,E-IR/V,
2,1,0,0,0,8640.06,2.44065e-05,-0.000344411,0.0710625,7,0.0000000E+000,10,-2.44747e-08,-4.14836, , ,-0.000401261,
2,1,0,0,0,8640.81,0.00379485,0.00352713,0.222635,7,0.000166758,10,7.85265e-07,-3.65241,0.0801266,0.736335,0.00334903,
2,1,0,1,0,8641.61,0.00779002,0.00747079,0.240268,7,0.000368519,10,1.79499e-06,-3.6193,0.132254,0.44611,0.00727857,
2,1,0,0,0,8642.41,0.0117852,0.0114993,0.250908,7,0.000581942,10,2.88526e-06,-3.60049,0.243017,0.242782,0.0112985,
2,1,0,1,0,8643.21,0.0157806,0.0154939,0.262161,7,0.00080341,10,4.06189e-06,-3.58143,0.294832,0.200114,0.0152841,
2,1,0,1,0,8644.01,0.0197754,0.0194511,0.26942,7,0.00103152,10,5.2405e-06,-3.56957,0.253683,0.232574,0.0192355,
2,1,0,1,0,8644.81,0.0237704,0.0234678,0.27812,7,0.00126648,10,6.52686e-06,-3.55577,0.401431,0.146974,0.0232453,
2,1,0,1,0,8645.61,0.0277659,0.0274785,0.28783,7,0.00150783,10,7.90915e-06,-3.54086,0.254765,0.231586,0.0272483,
2,1,0,0,0,8646.41,0.0317611,0.0314126,0.296508,7,0.00175657,10,9.31409e-06,-3.52796,0.267439,0.220611,0.0311754,
2,1,0,1,0,8647.21,0.0357567,0.0354435,0.3068,7,0.00201331,10,1.08741e-05,-3.51314,0.364881,0.161696,0.0351981,
2,1,0,1,0,8648.01,0.0397516,0.0394496,0.319286,7,0.00227846,10,1.25957e-05,-3.49582,0.196008,0.301008,0.0391942,
2,1,0,1,0,8648.8,0.0437465,0.0434133,0.330442,7,0.00255426,10,1.43456e-05,-3.48091,0.219411,0.268902,0.0431489,
2,1,0,1,0,8649.6,0.0477413,0.0474435,0.346363,7,0.00284082,10,1.64327e-05,-3.46047,0.191725,0.307733,0.0471664,
2,1,0,0,0,8650.4,0.0517369,0.0514289,0.362244,7,0.00314,10,1.86298e-05,-3.441,0.178732,0.330103,0.0511391,
2,1,0,1,0,8651.2,0.0557321,0.0554372,0.378847,7,0.00345315,10,2.10022e-05,-3.42154,0.210469,0.280326,0.0551341,
2,1,0,1,0,8652,0.0597277,0.0594863,0.398054,7,0.00378003,10,2.36788e-05,-3.40006,0.209208,0.282016,0.0591679,
2,1,0,1,0,8652.8,0.0637226,0.0633967,0.416254,7,0.00412138,10,2.63891e-05,-3.38064,0.219834,0.268385,0.0630637,
2,1,0,1,0,8653.6,0.0677174,0.0674514,0.43389,7,0.00447748,10,2.92665e-05,-3.36262,0.271452,0.217349,0.0671043,
2,1,0,0,0,8654.4,0.0717128,0.0714674,0.449797,7,0.00484673,10,3.21458e-05,-3.34698,0.226883,0.260046,0.0711075,
2,1,0,1,0,8655.2,0.075708,0.0754492,0.463391,7,0.00522853,10,3.49625e-05,-3.33405,0.288187,0.204728,0.0750785,
2,1,0,0,0,8656,0.0797031,0.0794024,0.478718,7,0.00562178,10,3.80113e-05,-3.31992,0.329646,0.17898,0.0790194,
2,1,0,1,0,8656.79,0.0836986,0.0833929,0.493421,7,0.00602618,10,4.11479e-05,-3.30678,0.303414,0.194454,0.0829982,
2,1,0,1,0,8657.59,0.0876935,0.0873726,0.506085,7,0.00644137,10,4.42179e-05,-3.29578,0.390038,0.151267,0.0869677,
2,1,0,1,0,8658.39,0.0916883,0.0913687,0.51946,7,0.00686637,10,4.74624e-05,-3.28445,0.322044,0.183205,0.0909531,
2,1,0,1,0,8659.19,0.0956838,0.0953785,0.534281,7,0.00730349,10,5.09589e-05,-3.27223,0.294066,0.200635,0.0949511,
2,1,0,0,0,8659.99,0.099679,0.0994186,0.554987,7,0.00775465,10,5.51761e-05,-3.25572,0.28567,0.206532,0.0989747,
2,1,0,1,0,8660.79,0.103674,0.103376,0.578,7,0.00822251,10,5.97514e-05,-3.23807,0.170972,0.345085,0.102914,
2,1,0,1,0,8661.59,0.10767,0.107402,0.606523,7,0.00871341,10,6.51415e-05,-3.21715,0.175306,0.336555,0.106916,
2,1,0,1,0,8662.39,0.111664,0.111403,0.643603,7,0.00922984,10,7.16995e-05,-3.19138,0.152708,0.386358,0.110888,
2,1,0,1,0,8663.19,0.115659,0.115335,0.68071,7,0.00977514,10,7.85095e-05,-3.16704,0.161178,0.366055,0.11479,
2,1,0,0,0,8663.99,0.119655,0.119337,0.717531,7,0.0103509,10,8.56283e-05,-3.14416,0.198544,0.297163,0.118763,
2,1,0,1,0,8664.79,0.12365,0.123358,0.751592,7,0.0109543,10,9.27151e-05,-3.12402,0.205181,0.287551,0.122757,
2,1,0,1,0,8665.58,0.127646,0.127382,0.782789,7,0.0115847,10,9.97132e-05,-3.10636,0.23424,0.251879,0.126756,
2,1,0,1,0,8666.38,0.131641,0.131346,0.811487,7,0.0122397,10,0.000106586,-3.09072,0.354798,0.166292,0.130697,
2,1,0,1,0,8667.18,0.135635,0.135312,0.832437,7,0.0129131,10,0.000112639,-3.07965,0.423108,0.139444,0.134646,
2,1,0,0,0,8667.98,0.139631,0.139355,0.835465,7,0.0135981,10,0.000116426,-3.07807,-2.43478,-0.0242321,0.138686,
2,1,0,1,0,8668.78,0.143626,0.143371,0.823232,7,0.0142798,10,0.000118028,-3.08448,-0.262337,-0.224902,0.142713,
2,1,0,0,0,8669.58,0.147621,0.147334,0.780248,7,0.0149379,10,0.000114957,-3.10777,-0.126102,-0.467877,0.14671,
2,1,0,1,0,8670.38,0.151617,0.151332,0.713113,7,0.0155523,10,0.000107917,-3.14684,-0.0893396,-0.660401,0.150762,
2,1,0,1,0,8671.18,0.155612,0.155369,0.635489,7,0.0161064,10,9.87354e-05,-3.19689,-0.0752471,-0.784084,0.154861,
2,1,0,1,0,8671.98,0.159606,0.159314,0.558639,7,0.0165986,10,8.89992e-05,-3.25287,-0.0768154,-0.768075,0.158867,
2,1,0,1,0,8672.78,0.163602,0.163295,0.49737,7,0.0170365,10,8.12183e-05,-3.30332,-0.0807846,-0.730337,0.162897,
2,1,0,0,0,8673.57,0.167597,0.16733,0.451365,7,0.0174305,10,7.55271e-05,-3.34547,-0.109556,-0.538538,0.166969,
2,1,0,1,0,8674.37,0.171592,0.171328,0.414161,7,0.0177925,10,7.09574e-05,-3.38283,-0.12547,-0.47023,0.170997,
2,1,0,1,0,8675.17,0.175588,0.175295,0.389731,7,0.01813,10,6.8318e-05,-3.40923,-0.16312,-0.361696,0.174983,
2,1,0,1,0,8675.97,0.179582,0.179298,0.369621,7,0.0184493,10,6.62723e-05,-3.43224,-0.208106,-0.283509,0.179002,
2,1,0,1,0,8676.77,0.183577,0.183317,0.356537,7,0.0187551,10,6.53592e-05,-3.4479,-0.232708,-0.253536,0.183032,
2,1,0,0,0,8677.57,0.187573,0.187255,0.343072,7,0.0190495,10,6.42421e-05,-3.46461,-0.268614,-0.219646,0.186981,
2,1,0,1,0,8678.37,0.191568,0.191299,0.334344,7,0.0193352,10,6.39596e-05,-3.47581,-0.368641,-0.160047,0.191031,
2,1,0,0,0,8679.17,0.195563,0.195277,0.326966,7,0.0196141,10,6.3849e-05,-3.4855,-0.409606,-0.144041,0.195016,
2,1,0,1,0,8679.97,0.199559,0.199267,0.31855,7,0.0198872,10,6.34765e-05,-3.49682,-0.556617,-0.105998,0.199012,
2,1,0,1,0,8680.77,0.203553,0.203281,0.312887,7,0.0201556,10,6.3604e-05,-3.50461,-0.593721,-0.0993733,0.203031,
2,1,0,1,0,8681.56,0.207548,0.207301,0.309663,7,0.0204202,10,6.41933e-05,-3.50911,-0.660901,-0.089272,0.207053,
2,1,0,1,0,8682.36,0.211544,0.211269,0.304669,7,0.0206809,10,6.43671e-05,-3.51617,-0.657848,-0.0896864,0.211026,
2,1,0,0,0,8683.16,0.215539,0.215242,0.301116,7,0.0209384,10,6.48127e-05,-3.52127,-0.797786,-0.0739547,0.215001,
2,1,0,1,0,8683.96,0.219535,0.219246,0.299533,7,0.0211931,10,6.56715e-05,-3.52355,-0.641757,-0.0919352,0.219007,
2,1,0,1,0,8684.76,0.223529,0.223246,0.294529,7,0.0214455,10,6.57522e-05,-3.53087,-3.21016,-0.0183791,0.22301,
2,1,0,1,0,8685.56,0.227524,0.227261,0.29219,7,0.021696,10,6.64035e-05,-3.53433,-0.632294,-0.0933111,0.227027,
2,1,0,1,0,8686.36,0.23152,0.231225,0.29095,7,0.0219442,10,6.72749e-05,-3.53618,-1.94923,-0.0302683,0.230992,
2,1,0,0,0,8687.16,0.235515,0.235239,0.286085,7,0.022191,10,6.72984e-05,-3.5435,-2.07819,-0.0283901,0.23501,
2,1,0,1,0,8687.96,0.23951,0.239213,0.286448,7,0.022436,10,6.8522e-05,-3.54295,-1.31303,-0.0449343,0.238984,
2,1,0,1,0,8688.76,0.243506,0.243185,0.285163,7,0.0226795,10,6.93473e-05,-3.54491,-2.09163,-0.0282077,0.242956,
2,1,0,1,0,8689.56,0.2475,0.247213,0.284009,7,0.022922,10,7.02108e-05,-3.54667,-0.762475,-0.0773796,0.246986,
2,1,0,1,0,8690.35,0.251495,0.251212,0.281614,7,0.0231631,10,7.07448e-05,-3.55035,4.10954,0.0143568,0.250987,
2,1,0,0,0,8691.15,0.255491,0.255187,0.279223,7,0.0234031,10,7.12541e-05,-3.55405,-1.76657,-0.0333981,0.254964,
2,1,0,1,0,8691.95,0.259486,0.259174,0.278955,7,0.0236424,10,7.2298e-05,-3.55447,-1.66667,-0.0353999,0.258951,
2,1,0,0,0,8692.75,0.263481,0.263211,0.277558,7,0.0238807,10,7.30564e-05,-3.55665,-1.73139,-0.0340767,0.262989,
2,1,0,1,0,8693.55,0.267477,0.267232,0.275577,7,0.0241182,10,7.36431e-05,-3.55976,-2.11184,-0.0279377,0.267012,
2,1,0,1,0,8694.35,0.271471,0.27117,0.275565,7,0.0243549,10,7.47247e-05,-3.55978,15.9468,0.00369981,0.270949,
2,1,0,1,0,8695.15,0.275466,0.275209,0.273954,7,0.0245905,10,7.53947e-05,-3.56232,-1.39978,-0.0421496,0.27499,
2,1,0,1,0,8695.95,0.279462,0.279177,0.27372,7,0.0248255,10,7.64161e-05,-3.56269,-5.9034,-0.00999424,0.278958,
2,1,0,0,0,8696.75,0.283457,0.283155,0.273593,7,0.0250597,10,7.74693e-05,-3.5629,-1.62425,-0.0363245,0.282936,
2,1,0,1,0,8697.55,0.287452,0.287145,0.270826,7,0.0252931,10,7.77663e-05,-3.56731,-2.51261,-0.0234815,0.286928,
2,1,0,1,0,8698.34,0.291448,0.291142,0.271769,7,0.0255257,10,7.91235e-05,-3.5658,-1.0981,-0.053729,0.290925,
2,1,0,1,0,8699.14,0.295442,0.295153,0.269548,7,0.0257573,10,7.95577e-05,-3.56936,-6.32149,-0.00933325,0.294937,
2,1,0,1,0,8699.94,0.299437,0.299146,0.268115,7,0.0259883,10,8.02053e-05,-3.57168,4.60257,0.0128189,0.298931,
2,1,0,0,0,8700.74,0.303433,0.303169,0.267623,7,0.0262186,10,8.11351e-05,-3.57248,-1.0022,-0.0588703,0.302955,
2,1,0,1,0,8701.54,0.307428,0.307167,0.266978,7,0.0264479,10,8.20069e-05,-3.57352,2.15514,0.0273764,0.306954,
2,1,0,1,0,8702.34,0.311424,0.311134,0.265823,7,0.0266768,10,8.27063e-05,-3.57541,-1.14769,-0.0514077,0.310921,
2,1,0,1,0,8703.14,0.315418,0.315135,0.265362,7,0.0269045,10,8.36248e-05,-3.57616,-1.29478,-0.0455678,0.314923,
2,1,0,1,0,8703.94,0.319413,0.319157,0.264608,7,0.0271317,10,8.44516e-05,-3.5774,7.89812,0.00747013,0.318945,
2,1,0,0,0,8704.74,0.323409,0.323125,0.263512,7,0.0273582,10,8.51474e-05,-3.5792,-1.28362,-0.0459639,0.322914,
2,1,0,1,0,8705.54,0.327404,0.327117,0.262334,7,0.0275838,10,8.58139e-05,-3.58114,8.86047,0.00665879,0.326907,
2,1,0,0,0,8706.33,0.331399,0.33116,0.259726,7,0.0278089,10,8.60108e-05,-3.58548,-1.43944,-0.0409881,0.330952,
2,1,0,1,0,8707.13,0.335395,0.335095,0.261347,7,0.0280336,10,8.75762e-05,-3.58278,19.9823,0.00295262,0.334886,
2,1,0,1,0,8707.93,0.339389,0.339094,0.26071,7,0.0282576,10,8.84052e-05,-3.58384,-4.41962,-0.0133496,0.338885,
2,1,0,1,0,8708.73,0.343384,0.343107,0.259068,7,0.0284811,10,8.88882e-05,-3.58659,-7.39664,-0.00797659,0.3429,
2,1,0,1,0,8709.53,0.34738,0.347069,0.259139,7,0.0287038,10,8.99393e-05,-3.58647,-1.1854,-0.0497724,0.346862,
2,1,0,0,0,8710.33,0.351375,0.351058,0.257569,7,0.0289259,10,9.04216e-05,-3.58911,-5.06357,-0.0116518,0.350852,
2,1,0,1,0,8711.13,0.35537,0.355087,0.258154,7,0.0291474,10,9.1667e-05,-3.58812,-2.06184,-0.0286152,0.35488,
2,1,0,1,0,8711.93,0.359366,0.35906,0.256538,7,0.0293682,10,9.21125e-05,-3.59085,-2.44276,-0.024153,0.358855,
2,1,0,1,0,8712.73,0.36336,0.363112,0.254623,7,0.0295885,10,9.24568e-05,-3.5941,106.01,0.00055655,0.362908,
2,1,0,1,0,8713.53,0.367355,0.36712,0.25485,7,0.0298079,10,9.35607e-05,-3.59371,-5.35333,-0.0110212,0.366916,
2,1,0,0,0,8714.33,0.371351,0.371081,0.253864,7,0.0300268,10,9.42042e-05,-3.5954,9.24102,0.00638457,0.370878,
2,1,0,1,0,8715.12,0.375346,0.375067,0.254544,7,0.0302455,10,9.54712e-05,-3.59424,-2.07285,-0.0284632,0.374863,
2,1,0,1,0,8715.92,0.379342,0.379066,0.252687,7,0.0304635,10,9.5785e-05,-3.59742,-1.02373,-0.0576326,0.378864,
2,1,0,1,0,8716.72,0.383336,0.383063,0.253406,7,0.0306809,10,9.70703e-05,-3.59618,-3.57661,-0.0164961,0.38286,
2,1,0,1,0,8717.52,0.387331,0.38706,0.252685,7,0.0308978,10,9.78042e-05,-3.59742,-9.62164,-0.00613201,0.386858,
2,1,0,0,0,8718.32,0.391327,0.39104,0.251326,7,0.031114,10,9.82785e-05,-3.59976,-7.01451,-0.00841114,0.390839,
2,1,0,1,0,8719.12,0.395322,0.395037,0.248434,7,0.03133,10,9.81407e-05,-3.60479,-4.54601,-0.0129784,0.394838,
2,1,0,0,0,8719.92,0.399317,0.39903,0.249358,7,0.0315456,10,9.95012e-05,-3.60318,9.8218,0.00600705,0.398831,
2,1,0,1,0,8720.72,0.403313,0.403028,0.248808,7,0.0317603,10,0.000100277,-3.60413,-1.56241,-0.0377621,0.402829,
2,1,0,1,0,8721.52,0.407307,0.407022,0.24842,7,0.031975,10,0.000101113,-3.60481,4.65269,0.0126808,0.406824,
2,1,0,1,0,8722.32,0.411302,0.410991,0.250968,7,0.0321894,10,0.000103145,-3.60038,5.99796,0.00983668,0.41079,
2,1,0,1,0,8723.11,0.415298,0.414973,0.248673,7,0.032404,10,0.000103193,-3.60437,-1.57973,-0.0373482,0.414774,
2,1,0,0,0,8723.91,0.419293,0.419056,0.248732,7,0.0326182,10,0.000104233,-3.60427,-11.5324,-0.00511604,0.418857,
2,1,0,1,0,8724.71,0.423288,0.423011,0.248622,7,0.0328319,10,0.00010517,-3.60446,18.2605,0.00323101,0.422812,
2,1,0,1,0,8725.51,0.427283,0.427005,0.247086,7,0.0330457,10,0.000105507,-3.60715,6.60138,0.00893753,0.426807,
2,1,0,1,0,8726.31,0.431278,0.431036,0.24876,7,0.0332595,10,0.000107225,-3.60422,18.6946,0.00315599,0.430837,
2,1,0,1,0,8727.11,0.435273,0.43499,0.247881,7,0.0334729,10,0.000107826,-3.60576,8.65189,0.00681932,0.434792,
2,1,0,0,0,8727.91,0.439269,0.438993,0.247713,7,0.0336866,10,0.000108744,-3.60605,-7.77991,-0.00758363,0.438794,
2,1,0,1,0,8728.71,0.443264,0.442995,0.248707,7,0.0338998,10,0.000110176,-3.60431,-97.8977,-0.00060267,0.442796,
2,1,0,0,0,8729.51,0.447259,0.446976,0.248967,7,0.0341131,10,0.000111282,-3.60386,50.6559,0.00116472,0.446777,
2,1,0,1,0,8730.31,0.451254,0.450985,0.24944,7,0.0343266,10,0.000112494,-3.60303,-6.10816,-0.00965921,0.450785,
2,1,0,1,0,8731.1,0.455249,0.454971,0.24989,7,0.0345402,10,0.000113693,-3.60225,1.50772,0.039132,0.454771,
2,1,0,1,0,8731.9,0.459244,0.458962,0.248041,7,0.034754,10,0.000113841,-3.60548,-3.19548,-0.0184636,0.458763,
2,1,0,1,0,8732.7,0.46324,0.462944,0.249386,7,0.0349681,10,0.000115452,-3.60313,-2.37675,-0.0248238,0.462745,
2,1,0,0,0,8733.5,0.467235,0.466968,0.249689,7,0.0351823,10,0.000116597,-3.6026,1.305,0.0452107,0.466768,
2,1,0,1,0,8734.3,0.471231,0.470928,0.250674,7,0.0353968,10,0.00011805,-3.60089,2.74387,0.0215025,0.470728,
2,1,0,1,0,8735.1,0.475225,0.47495,0.250918,7,0.0356116,10,0.000119173,-3.60047,-5.9806,-0.00986523,0.474749,
2,1,0,1,0,8735.9,0.47922,0.478919,0.251765,7,0.035827,10,0.000120575,-3.59901,3.7177,0.01587,0.478717,
2,1,0,1,0,8736.7,0.483216,0.482916,0.25166,7,0.0360429,10,0.000121531,-3.59919,3.14763,0.0187443,0.482714,
2,1,0,0,0,8737.5,0.487211,0.486904,0.252395,7,0.0362595,10,0.000122892,-3.59792,4.40438,0.0133957,0.486702,
2,1,0,1,0,8738.3,0.491206,0.490908,0.25156,7,0.0364766,10,0.000123493,-3.59936,1.74954,0.0337231,0.490707,
2,1,0,1,0,8739.1,0.495201,0.494942,0.254079,7,0.0366943,10,0.000125755,-3.59503,22.157,0.00266281,0.494739,
2,1,0,1,0,8739.89,0.499196,0.498886,0.254578,7,0.0369126,10,0.000127005,-3.59418,0.961449,0.0613657,0.498682,
2,1,0,1,0,8740.69,0.503191,0.502902,0.256058,7,0.0371318,10,0.000128772,-3.59166,6.37375,0.00925672,0.502697,
2,1,0,0,0,8741.49,0.507187,0.506889,0.258088,7,0.0373521,10,0.000130822,-3.58823,1.36442,0.0432418,0.506683,
2,1,0,1,0,8742.29,0.511182,0.510861,0.259035,7,0.0375734,10,0.000132331,-3.58664,1.1244,0.0524724,0.510653,
2,1,0,0,0,8743.09,0.515177,0.514923,0.261386,7,0.0377961,10,0.000134594,-3.58272,150.044,0.000393218,0.514714,
2,1,0,1,0,8743.89,0.519173,0.518886,0.261467,7,0.0380194,10,0.000135672,-3.58258,0.757861,0.0778507,0.518677,
2,1,0,1,0,8744.69,0.523167,0.52286,0.263054,7,0.0382443,10,0.00013754,-3.57996,1.05171,0.0560991,0.52265,
2,1,0,1,0,8745.49,0.527162,0.52691,0.267449,7,0.0384711,10,0.000140921,-3.57276,2.89565,0.0203754,0.526696,
2,1,0,1,0,8746.29,0.531158,0.530887,0.269086,7,0.0386996,10,0.000142855,-3.57011,0.86237,0.0684161,0.530672,
2,1,0,0,0,8747.09,0.535153,0.534913,0.271215,7,0.0389299,10,0.000145077,-3.56669,0.874963,0.0674315,0.534696,
2,1,0,1,0,8747.88,0.539148,0.538853,0.274511,7,0.0391622,10,0.000147921,-3.56144,0.715835,0.0824212,0.538634,
2,1,0,1,0,8748.68,0.543143,0.542879,0.277687,7,0.0393969,10,0.00015075,-3.55644,0.837511,0.0704469,0.542656,
2,1,0,1,0,8749.48,0.547138,0.546862,0.280371,7,0.0396344,10,0.000153324,-3.55227,0.678895,0.086906,0.546638,
2,1,0,1,0,8750.28,0.551133,0.550825,0.284906,7,0.0398748,10,0.000156934,-3.5453,0.607946,0.097048,0.550597,
2,1,0,0,0,8751.08,0.555129,0.554827,0.289111,7,0.0401188,10,0.000160407,-3.53894,0.694298,0.084978,0.554596,
2,1,0,1,0,8751.88,0.559124,0.558821,0.294024,7,0.0403663,10,0.000164307,-3.53162,0.456341,0.129289,0.558586,
2,1,0,1,0,8752.68,0.56312,0.562848,0.300374,7,0.040618,10,0.000169065,-3.52234,0.441158,0.133739,0.562607,
2,1,0,1,0,8753.48,0.567114,0.566871,0.305768,7,0.0408744,10,0.000173331,-3.51461,0.40776,0.144693,0.566627,
2,1,0,1,0,8754.28,0.571109,0.570852,0.313256,7,0.0411358,10,0.000178823,-3.5041,0.442131,0.133445,0.570601,
2,1,0,0,0,8755.08,0.575105,0.57482,0.321652,7,0.0414031,10,0.000184892,-3.49261,0.338971,0.174056,0.574563,
2,1,0,1,0,8755.88,0.5791,0.578871,0.330285,7,0.0416775,10,0.000191192,-3.48111,0.33351,0.176906,0.578607,
2,1,0,0,0,8756.67,0.583095,0.582834,0.33996,7,0.0419592,10,0.00019814,-3.46857,0.286774,0.205737,0.582562,
2,1,0,1,0,8757.47,0.58709,0.586792,0.350348,7,0.0422496,10,0.000205581,-3.4555,0.265185,0.222486,0.586512,
2,1,0,1,0,8758.27,0.591085,0.590782,0.364216,7,0.0425501,10,0.000215172,-3.43864,0.228778,0.257892,0.590491,
2,1,0,1,0,8759.07,0.59508,0.59483,0.379571,7,0.0428622,10,0.00022578,-3.42071,0.203554,0.28985,0.594526,
2,1,0,1,0,8759.87,0.599076,0.598813,0.398905,7,0.0431883,10,0.000238869,-3.39913,0.178837,0.32991,0.598494,
2,1,0,0,0,8760.67,0.603071,0.602746,0.421709,7,0.0435301,10,0.000254183,-3.37499,0.163857,0.36007,0.602409,
2,1,0,1,0,8761.47,0.607066,0.606786,0.445877,7,0.0438905,10,0.000270552,-3.35078,0.159321,0.370322,0.606429,
2,1,0,1,0,8762.27,0.611061,0.610784,0.474268,7,0.0442723,10,0.000289675,-3.32398,0.138456,0.426127,0.610405,
2,1,0,1,0,8763.07,0.615056,0.614788,0.509484,7,0.0446792,10,0.000313225,-3.29287,0.12047,0.489747,0.61438,
2,1,0,1,0,8763.87,0.619051,0.618761,0.546931,7,0.0451158,10,0.00033842,-3.26207,0.116033,0.508475,0.618323,
2,1,0,0,0,8764.66,0.623047,0.622802,0.594306,7,0.0455864,10,0.000370135,-3.22599,0.106362,0.55471,0.622327,
2,1,0,1,0,8765.46,0.627042,0.626783,0.650586,7,0.0460983,10,0.000407776,-3.1867,0.0961709,0.613491,0.626263,
2,1,0,1,0,8766.26,0.631037,0.630779,0.717914,7,0.0466593,10,0.000452846,-3.14393,0.0912986,0.646231,0.630205,
2,1,0,1,0,8767.06,0.635032,0.63479,0.798505,7,0.0472782,10,0.000506883,-3.09772,0.0847851,0.695877,0.634152,
2,1,0,1,0,8767.86,0.639027,0.638793,0.891942,7,0.0479662,10,0.000569766,-3.04966,0.0777993,0.758362,0.63808,
2,1,0,1,0,8768.66,0.643022,0.64274,1.00206,7,0.0487361,10,0.000644066,-2.9991,0.0750304,0.786348,0.641938,
2,1,0,1,0,8769.46,0.647018,0.646767,1.13397,7,0.0496025,10,0.000733417,-2.9454,0.0702082,0.840358,0.645859,
2,1,0,0,0,8770.26,0.651013,0.650734,1.28907,7,0.0505838,10,0.000838839,-2.88972,0.0677315,0.871087,0.649702,
2,1,0,1,0,8771.06,0.655008,0.654741,1.47436,7,0.0517014,10,0.000965325,-2.8314,0.0648276,0.910106,0.653562,
2,1,0,1,0,8771.86,0.659003,0.658781,1.69072,7,0.0529789,10,0.00111381,-2.77193,0.0633088,0.931941,0.657428,
2,1,0,1,0,8772.65,0.662998,0.66276,1.94759,7,0.0544453,10,0.00129079,-2.7105,0.0610881,0.965819,0.661202,
2,1,0,1,0,8773.45,0.666994,0.66677,2.24369,7,0.0561314,10,0.00149602,-2.64904,0.0608962,0.968862,0.664975,
2,1,0,0,0,8774.25,0.670989,0.670751,2.58661,7,0.0580735,10,0.00173497,-2.58727,0.0598284,0.986153,0.668682,
2,1,0,1,0,8775.05,0.674984,0.674767,2.98091,7,0.0603098,10,0.00201142,-2.52565,0.0598166,0.986347,0.672382,
2,1,0,1,0,8775.85,0.67898,0.678742,3.41421,7,0.0628768,10,0.00231737,-2.46671,0.0620756,0.950454,0.676011,
2,1,0,1,0,8776.65,0.682974,0.682706,3.91689,7,0.0658176,10,0.00267408,-2.40706,0.0603655,0.977379,0.679572,
2,1,0,1,0,8777.45,0.686969,0.686691,4.4798,7,0.0691834,10,0.00307623,-2.34874,0.0616072,0.957681,0.683107,
2,1,0,0,0,8778.25,0.690965,0.690689,5.09983,7,0.0730226,10,0.0035224,-2.29244,0.0623751,0.94589,0.686609,
2,1,0,1,0,8779.05,0.69496,0.694713,5.78239,7,0.0773821,10,0.0040171,-2.23789,0.0641275,0.920042,0.690087,
2,1,0,0,0,8779.85,0.698955,0.6987,6.52013,7,0.0823082,10,0.00455562,-2.18574,0.0656912,0.898141,0.693484,
2,1,0,1,0,8780.65,0.70295,0.702697,7.309,7,0.087846,10,0.00513601,-2.13614,0.0702357,0.840028,0.69685,
2,1,0,1,0,8781.44,0.706945,0.706672,8.15239,7,0.0940357,10,0.00576106,-2.08872,0.0714126,0.826185,0.70015,
2,1,0,1,0,8782.24,0.71094,0.710715,9.03623,7,0.100915,10,0.00642218,-2.04401,0.0743583,0.793455,0.703486,
2,1,0,1,0,8783.04,0.714936,0.714708,9.96085,7,0.10852,10,0.0071191,-2.0017,0.0787532,0.749176,0.706739,
2,1,0,0,0,8783.84,0.718931,0.718688,10.9183,7,0.116875,10,0.00784685,-1.96184,0.0833516,0.707844,0.709953,
2,1,0,1,0,8784.64,0.722927,0.722673,11.9073,7,0.12601,10,0.0086051,-1.92419,0.0880435,0.670123,0.713147,
2,1,0,1,0,8785.44,0.726921,0.726708,12.9275,7,0.135946,10,0.00939452,-1.88848,0.0913304,0.646006,0.716366,
2,1,0,1,0,8786.24,0.730916,0.730609,13.9813,7,0.146709,10,0.0102149,-1.85445,0.0927409,0.636181,0.719424,
2,1,0,1,0,8787.04,0.734911,0.734647,15.0781,7,0.158333,10,0.0110771,-1.82165,0.0962637,0.6129,0.722585,
2,1,0,0,0,8787.84,0.738907,0.73865,16.2313,7,0.170855,10,0.0119892,-1.78965,0.097009,0.608191,0.725665,
2,1,0,1,0,8788.64,0.742902,0.742608,17.4424,7,0.18432,10,0.0129529,-1.75839,0.0961934,0.613347,0.728654,
2,1,0,1,0,8789.43,0.746897,0.746623,18.7139,7,0.198782,10,0.0139723,-1.72783,0.0965038,0.611375,0.731652,
2,1,0,1,0,8790.23,0.750892,0.750609,20.0603,7,0.214289,10,0.0150574,-1.69766,0.099685,0.591864,0.734561,
2,1,0,1,0,8791.03,0.754887,0.754624,21.4333,7,0.23088,10,0.0161741,-1.66891,0.0997331,0.591579,0.737478,
2,1,0,0,0,8791.83,0.758883,0.758592,22.8697,7,0.248596,10,0.0173488,-1.64074,0.10419,0.566275,0.740296,
2,1,0,1,0,8792.63,0.762878,0.762609,24.3383,7,0.267469,10,0.0185606,-1.61371,0.105224,0.56071,0.743138,
2,1,0,0,0,8793.43,0.766873,0.766652,25.8463,7,0.287534,10,0.0198151,-1.5876,0.108765,0.542453,0.745975,
2,1,0,1,0,8794.23,0.770868,0.770628,27.4012,7,0.308817,10,0.0211161,-1.56223,0.109095,0.540815,0.748707,
2,1,0,1,0,8795.03,0.774863,0.774544,30.0032,7,0.331475,10,0.0232388,-1.52283,0.0466736,1.2641,0.750542,
2,1,0,1,0,8795.83,0.778858,0.778579,31.6344,7,0.356157,10,0.0246299,-1.49984,0.13585,0.434304,0.753271,
2,1,0,1,0,8796.63,0.782854,0.782608,33.1118,7,0.382041,10,0.0259135,-1.48002,0.143597,0.410871,0.756118,
2,1,0,0,0,8797.42,0.786849,0.786643,34.6732,7,0.409126,10,0.0272754,-1.46001,0.127979,0.461014,0.758904,
2,1,0,1,0,8798.22,0.790844,0.790569,36.305,7,0.43751,10,0.0287016,-1.44003,0.140496,0.419941,0.761525,
2,1,0,1,0,8799.02,0.794839,0.794568,37.9578,7,0.467205,10,0.0301601,-1.4207,0.144329,0.408788,0.764202,
2,1,0,1,0,8799.82,0.798834,0.798574,39.3825,7,0.498174,10,0.0314499,-1.4047,0.316809,0.186232,0.767068,
2,1,0,1,0,8800.62,0.802829,0.802608,40.6012,7,0.53004,10,0.0325869,-1.39146,0.142533,0.41394,0.770127,
2,1,0,0,0,8801.42,0.806825,0.806567,42.1734,7,0.563139,10,0.0340156,-1.37496,0.165193,0.357158,0.772828,
2,1,0,1,0,8802.22,0.81082,0.81056,43.7543,7,0.5975,10,0.0354655,-1.35898,0.176294,0.334668,0.775557,
2,1,0,1,0,8803.02,0.814815,0.81451,45.3006,7,0.633121,10,0.0368978,-1.3439,0.191671,0.30782,0.77827,
2,1,0,1,0,8803.82,0.81881,0.818555,46.7944,7,0.66995,10,0.0383038,-1.32981,0.211489,0.278974,0.781119,
2,1,0,1,0,8804.62,0.822805,0.822575,48.2711,7,0.707937,10,0.0397066,-1.31631,0.204063,0.289127,0.783958,
2,1,0,0,0,8805.42,0.826801,0.826555,49.871,7,0.747162,10,0.0412211,-1.30215,0.225752,0.261349,0.786659,
2,1,0,1,0,8806.21,0.830796,0.83055,51.2712,7,0.78755,10,0.0425833,-1.29013,0.23574,0.250276,0.789533,
2,1,0,0,0,8807.01,0.834791,0.834577,52.6353,7,0.829073,10,0.0439282,-1.27872,0.299243,0.197164,0.792469,
2,1,0,1,0,8807.81,0.838786,0.838567,54.2984,7,0.871715,10,0.0455328,-1.26521,0.135416,0.435695,0.795128,
2,1,0,1,0,8808.61,0.842781,0.842553,56.0663,7,0.915815,10,0.0472388,-1.2513,0.276621,0.213288,0.7977,
2,1,0,1,0,8809.41,0.846776,0.846564,57.0818,7,0.961071,10,0.0483234,-1.2435,0.584457,0.100948,0.800898,
2,1,0,0,0,8810.11,0.849723,0.849506,57.4916,7,1.00124,10,0.0488394,-1.2404,0.02015,2.92804,0.803512,
2,1,0,1,0,8810.91,0.845728,0.845462,55.3593,7,1.0462,10,0.0468042,-1.25681,0.245716,0.240115,0.801175,
2,1,0,0,0,8811.71,0.841732,0.841476,54.0509,7,1.08994,10,0.0454826,-1.2672,0.272085,0.216844,0.798236,
2,1,0,1,0,8812.51,0.837737,0.837511,52.6386,7,1.13262,10,0.0440854,-1.2787,0.208015,0.283633,0.7954,
2,1,0,1,0,8813.31,0.833742,0.83348,51.0958,7,1.17406,10,0.0425873,-1.29162,0.198318,0.297502,0.792603,
2,1,0,1,0,8814.11,0.829747,0.829537,49.3642,7,1.21421,10,0.0409494,-1.30659,0.167392,0.352467,0.790046,
2,1,0,1,0,8814.9,0.825752,0.825513,47.6411,7,1.25296,10,0.0393283,-1.32202,0.184354,0.320036,0.7874,
2,1,0,0,0,8815.7,0.821757,0.821525,46.1411,7,1.29042,10,0.0379061,-1.33591,0.157842,0.373792,0.784612,
2,1,0,1,0,8816.5,0.817761,0.817513,44.331,7,1.32652,10,0.0362412,-1.35329,0.157594,0.37438,0.782048,
2,1,0,1,0,8817.3,0.813766,0.813481,42.5797,7,1.36122,10,0.0346378,-1.3708,0.155588,0.379207,0.779418,
2,1,0,1,0,8818.1,0.809771,0.809472,40.9381,7,1.39457,10,0.0331383,-1.38787,0.152569,0.386712,0.776722,
2,1,0,1,0,8818.9,0.805776,0.805512,39.3099,7,1.42662,10,0.0316646,-1.4055,0.138329,0.426519,0.774064,
2,1,0,0,0,8819.7,0.801781,0.801524,37.6108,7,1.45732,10,0.030146,-1.42469,0.138264,0.426721,0.771436,
2,1,0,1,0,8820.5,0.797786,0.797471,35.8581,7,1.48665,10,0.0285958,-1.44541,0.120746,0.488629,0.768784,
2,1,0,1,0,8821.3,0.79379,0.79351,34.0323,7,1.51458,10,0.027005,-1.46811,0.10882,0.542181,0.766285,
2,1,0,1,0,8822.1,0.789795,0.789499,32.3331,7,1.54107,10,0.025527,-1.49035,0.1148,0.513938,0.763633,
2,1,0,1,0,8822.89,0.7858,0.785535,30.557,7,1.56617,10,0.0240036,-1.51489,0.0992856,0.594245,0.761089,
2,1,0,0,0,8823.69,0.781805,0.781554,28.761,7,1.58984,10,0.0224782,-1.5412,0.0997277,0.591611,0.758545,
2,1,0,1,0,8824.49,0.77781,0.777533,27.0243,7,1.61211,10,0.0210123,-1.56825,0.0767475,0.768755,0.755913,
2,1,0,0,0,8825.29,0.773815,0.773557,25.0449,7,1.63286,10,0.0193737,-1.60128,0.0944679,0.624551,0.753521,
2,1,0,1,0,8826.09,0.769819,0.769534,23.4807,7,1.65224,10,0.0180692,-1.62929,0.089651,0.658108,0.750749,
2,1,0,1,0,8826.89,0.765824,0.765611,21.9287,7,1.67036,10,0.0167889,-1.65899,0.090948,0.648722,0.748068,
2,1,0,1,0,8827.69,0.761829,0.761553,20.4309,7,1.68726,10,0.0155592,-1.68971,0.0910116,0.648269,0.745208,
2,1,0,1,0,8828.49,0.757834,0.757607,18.9569,7,1.70298,10,0.0143619,-1.72223,0.0861515,0.68484,0.742441,
2,1,0,0,0,8829.29,0.753839,0.753537,17.5417,7,1.71754,10,0.0132183,-1.75593,0.0822717,0.717136,0.739503,
2,1,0,1,0,8830.09,0.749844,0.74958,16.1233,7,1.73099,10,0.0120857,-1.79255,0.075415,0.782337,0.736682,
2,1,0,1,0,8830.88,0.745848,0.745644,14.7781,7,1.74331,10,0.0110192,-1.83038,0.0801818,0.735828,0.733822,
2,1,0,1,0,8831.68,0.741853,0.741592,13.5607,7,1.75461,10,0.0100565,-1.86772,0.0781355,0.755099,0.730744,
2,1,0,1,0,8832.48,0.737858,0.737643,12.3817,7,1.76495,10,0.00913327,-1.90722,0.0770457,0.765779,0.727737,
2,1,0,0,0,8833.28,0.733863,0.7336,11.2653,7,1.77438,10,0.00826424,-1.94826,0.0748396,0.788353,0.724588,
2,1,0,1,0,8834.08,0.729868,0.729634,10.2101,7,1.78294,10,0.00744961,-1.99097,0.0725565,0.813159,0.721466,
2,1,0,1,0,8834.88,0.725872,0.725585,9.21574,7,1.79068,10,0.0066868,-2.03547,0.0714462,0.825796,0.718212,
2,1,0,1,0,8835.68,0.721877,0.721645,8.27982,7,1.79765,10,0.00597509,-2.08198,0.0678411,0.869679,0.715021,
2,1,0,1,0,8836.48,0.717882,0.71764,7.39945,7,1.8039,10,0.00531014,-2.1308,0.0665471,0.88659,0.71172,
2,1,0,0,0,8837.28,0.713887,0.71363,6.58124,7,1.80946,10,0.00469657,-2.18169,0.0645345,0.91424,0.708366,
2,1,0,1,0,8838.08,0.709892,0.709624,5.8269,7,1.8144,10,0.00413491,-2.23456,0.064064,0.920954,0.704963,
2,1,0,0,0,8838.88,0.705897,0.705629,5.13616,7,1.81876,10,0.00362422,-2.28936,0.062455,0.94468,0.70152,
2,1,0,1,0,8839.67,0.701901,0.701657,4.50425,7,1.8226,10,0.00316044,-2.34638,0.0604387,0.976195,0.698054,
2,1,0,1,0,8840.47,0.697906,0.697646,3.93075,7,1.82595,10,0.00274227,-2.40552,0.0583711,1.01077,0.694501,
2,1,0,1,0,8841.27,0.693911,0.693678,3.41589,7,1.82886,10,0.00236953,-2.4665,0.0587998,1.0034,0.690945,
2,1,0,1,0,8842.07,0.689916,0.689648,2.9494,7,1.83139,10,0.00203405,-2.53027,0.0552315,1.06823,0.687289,
2,1,0,0,0,8842.87,0.685921,0.68564,2.53388,7,1.83356,10,0.00173733,-2.59621,0.054923,1.07423,0.683613,
2,1,0,1,0,8843.67,0.681926,0.681686,2.16393,7,1.83542,10,0.00147512,-2.66476,0.0534596,1.10364,0.679955,
2,1,0,1,0,8844.47,0.67793,0.677654,1.83659,7,1.837,10,0.00124457,-2.73599,0.051275,1.15066,0.676185,
2,1,0,1,0,8845.27,0.673935,0.673654,1.55073,7,1.83834,10,0.00104466,-2.80946,0.0517435,1.14024,0.672414,
2,1,0,1,0,8846.07,0.66994,0.66967,1.30529,7,1.83946,10,0.000874113,-2.88429,0.0494403,1.19336,0.668625,
2,1,0,0,0,8846.87,0.665945,0.665655,1.17816,7,1.84041,10,0.000784248,-2.9288,0.0591725,0.997085,0.664712,
2,1,0,1,0,8847.66,0.66195,0.661719,0.936088,7,1.84122,10,0.000619428,-3.02868,0.0477269,1.2362,0.660971,
2,1,0,0,0,8848.46,0.657955,0.657724,0.77827,7,1.84188,10,0.000511887,-3.10887,0.0475249,1.24146,0.657101,
2,1,0,1,0,8849.26,0.653959,0.653695,0.640977,7,1.84243,10,0.000419004,-3.19316,0.0453781,1.30019,0.653182,
2,1,0,1,0,8850.06,0.649964,0.649714,0.526946,7,1.84288,10,0.000342364,-3.27823,0.0448089,1.3167,0.649292,
2,1,0,1,0,8850.86,0.64597,0.645718,0.428493,7,1.84325,10,0.000276686,-3.36806,0.0429095,1.37499,0.645376,
2,1,0,1,0,8851.66,0.641974,0.641717,0.344193,7,1.84354,10,0.000220874,-3.4632,0.0412163,1.43147,0.641442,
2,1,0,0,0,8852.46,0.637979,0.637722,0.27721,7,1.84378,10,0.000176783,-3.55719,0.0403046,1.46385,0.637501,
2,1,0,1,0,8853.26,0.633983,0.633711,0.217538,7,1.84396,10,0.000137856,-3.66246,0.038769,1.52183,0.633537,
2,1,0,1,0,8854.06,0.629988,0.629722,0.17088,7,1.8441,10,0.000107607,-3.76731,0.0329272,1.79183,0.629586,
2,1,0,1,0,8854.86,0.625993,0.625729,0.129509,7,1.8442,10,8.10379e-05,-3.8877,0.0330564,1.78483,0.625626,
2,1,0,1,0,8855.66,0.621998,0.621709,0.0957249,7,1.84428,10,5.95131e-05,-4.01897,0.0283815,2.07882,0.621633,
2,1,0,0,0,8856.45,0.618003,0.617762,0.0671786,7,1.84433,10,4.15004e-05,-4.17277,0.0204051,2.89143,0.617709,
2,1,0,1,0,8857.25,0.614008,0.613761,0.0423041,7,1.84435,10,2.59647e-05,-4.37362,0.0202844,2.90864,0.613728,
2,1,0,1,0,8858.05,0.610012,0.609737,0.0225538,7,1.84437,10,1.37519e-05,-4.64678,0.0108021,5.4619,0.609719,
2,1,0,1,0,8858.85,0.606017,0.605742,0.00586119,7,1.84436,10,3.55037e-06,-5.23201,0.00533744,11.054,0.605737,
2,1,0,1,0,8859.65,0.602022,0.601753,-0.00858156,7,1.84435,10,-5.16398e-06,-5.06643,-0.00517517,-11.4006,0.601759,
2,0,0,0,0,8860.45,0.598027,0.597758,-0.0199916,7,1.84432,10,-1.19502e-05,-4.69915,-0.0155354,-3.79778,0.597774,
2,0,0,1,0,8861.25,0.594032,0.593751,-0.029859,7,1.84429,10,-1.77288e-05,-4.52493,0.0578767,1.01941,0.593774,
2,0,0,0,0,8862.05,0.590037,0.589758,-0.0348913,7,1.84425,10,-2.05774e-05,-4.45728,-0.0150345,-3.92432,0.589786,
2,0,0,1,0,8862.85,0.586041,0.585741,-0.0436948,7,1.8442,10,-2.55938e-05,-4.35957,-0.0520605,-1.1333,0.585776,
2,0,0,1,0,8863.65,0.582046,0.581789,-0.0505408,7,1.84415,10,-2.94041e-05,-4.29636,-0.0816415,-0.722672,0.581829,
2,0,0,1,0,8864.44,0.578052,0.577792,-0.0563067,7,1.84409,10,-3.25336e-05,-4.24944,-0.103116,-0.572169,0.577837,
2,0,0,1,0,8865.24,0.574056,0.573742,-0.0612513,7,1.84403,10,-3.51424e-05,-4.21288,-0.115415,-0.511199,0.573791,
2,0,0,0,0,8866.04,0.570061,0.56976,-0.0647951,7,1.84396,10,-3.69176e-05,-4.18846,-0.244247,-0.241559,0.569812,
2,0,0,1,0,8866.84,0.566065,0.565784,-0.0691821,7,1.84389,10,-3.91421e-05,-4.16001,-0.142015,-0.41545,0.565839,
2,0,0,1,0,8867.64,0.56207,0.561844,-0.0717975,7,1.84382,10,-4.0339e-05,-4.14389,-0.226035,-0.261021,0.561901,
2,0,0,1,0,8868.44,0.558075,0.557764,-0.0743079,7,1.84375,10,-4.14462e-05,-4.12897,-0.217442,-0.271337,0.557823,
2,0,0,1,0,8869.24,0.55408,0.553808,-0.0770932,7,1.84367,10,-4.26949e-05,-4.11298,-0.209236,-0.281978,0.55387,
2,0,0,0,0,8870.04,0.550085,0.549761,-0.0796123,7,1.84359,10,-4.37677e-05,-4.09902,-0.607947,-0.0970479,0.549824,
2,0,0,1,0,8870.84,0.54609,0.545796,-0.0818016,7,1.84351,10,-4.4647e-05,-4.08724,-0.315548,-0.186977,0.545861,
2,0,0,1,0,8871.64,0.542094,0.541829,-0.0832623,7,1.84343,10,-4.5114e-05,-4.07955,-0.971869,-0.0607078,0.541896,
2,0,0,1,0,8872.43,0.538099,0.537778,-0.0852444,7,1.84335,10,-4.58426e-05,-4.06933,-7.54138,-0.0078235,0.537846,
2,0,0,1,0,8873.23,0.534104,0.533843,-0.0859944,7,1.84326,10,-4.59075e-05,-4.06553,-0.224553,-0.262744,0.533912,
2,0,0,0,0,8874.03,0.530109,0.529864,-0.0883945,7,1.84318,10,-4.68371e-05,-4.05357,-0.451263,-0.130744,0.529935,
2,0,0,1,0,8874.83,0.526114,0.525836,-0.0888097,7,1.84309,10,-4.66993e-05,-4.05154,-1.1506,-0.0512777,0.525907,
2,0,0,0,0,8875.63,0.522119,0.521852,-0.090391,7,1.843,10,-4.71707e-05,-4.04387,-2.69281,-0.0219102,0.521924,
2,0,0,1,0,8876.43,0.518123,0.517828,-0.0932464,7,1.84292,10,-4.82856e-05,-4.03037,-0.327503,-0.180151,0.517903,
2,0,0,1,0,8877.23,0.514128,0.513841,-0.093721,7,1.84283,10,-4.81577e-05,-4.02816,-4.84674,-0.0121731,0.513916,
2,0,0,1,0,8878.03,0.510133,0.509849,-0.0934415,7,1.84274,10,-4.76411e-05,-4.02946,-0.57087,-0.103351,0.509924,
2,0,0,1,0,8878.83,0.506138,0.505843,-0.0948402,7,1.84264,10,-4.79742e-05,-4.02301,6.86471,0.00859468,0.505919,
2,0,0,0,0,8879.63,0.502143,0.501815,-0.0965201,7,1.84255,10,-4.84353e-05,-4.01538,-0.279968,-0.210739,0.501893,
2,0,0,1,0,8880.43,0.498148,0.497856,-0.0978531,7,1.84246,10,-4.87167e-05,-4.00943,-1.27093,-0.0464226,0.497934,
2,0,0,1,0,8881.22,0.494152,0.493865,-0.099104,7,1.84236,10,-4.8944e-05,-4.00391,-0.838418,-0.0703706,0.493945,
2,0,0,1,0,8882.02,0.490157,0.489895,-0.100594,7,1.84227,10,-4.92807e-05,-3.99743,-0.341443,-0.172796,0.489976,
2,0,0,1,0,8882.82,0.486162,0.485886,-0.102347,7,1.84217,10,-4.97288e-05,-3.98993,-1.29715,-0.0454843,0.485968,
2,0,0,0,0,8883.62,0.482167,0.481889,-0.104425,7,1.84208,10,-5.03212e-05,-3.9812,-0.72679,-0.0811788,0.481973,
2,0,0,1,0,8884.42,0.478172,0.477896,-0.104534,7,1.84198,10,-4.99563e-05,-3.98074,-1.57926,-0.0373592,0.477979,
2,0,0,0,0,8885.22,0.474177,0.473891,-0.106205,7,1.84188,10,-5.03293e-05,-3.97386,-2.22176,-0.0265555,0.473976,
2,0,0,1,0,8886.02,0.470181,0.469925,-0.108006,7,1.84178,10,-5.07549e-05,-3.96655,-0.361149,-0.163367,0.470012,
2,0,0,1,0,8886.82,0.466186,0.46589,-0.109124,7,1.84167,10,-5.08399e-05,-3.96208,-3.61734,-0.0163103,0.465977,
2,0,0,1,0,8887.62,0.462191,0.461884,-0.11036,7,1.84157,10,-5.09736e-05,-3.95719,-0.322394,-0.183006,0.461972,
2,0,0,1,0,8888.42,0.458196,0.457927,-0.112272,7,1.84147,10,-5.14125e-05,-3.94973,-0.486216,-0.121345,0.458017,
2,0,0,0,0,8889.21,0.454201,0.453939,-0.11286,7,1.84136,10,-5.12314e-05,-3.94746,-1.86034,-0.0317147,0.454029,
2,0,0,1,0,8890.01,0.450205,0.449897,-0.114906,7,1.84125,10,-5.16958e-05,-3.93966,-0.515079,-0.114546,0.449989,
2,0,0,1,0,8890.81,0.44621,0.445893,-0.117706,7,1.84114,10,-5.24841e-05,-3.9292,-1.02671,-0.0574652,0.445987,
2,0,0,1,0,8891.61,0.442215,0.441939,-0.119171,7,1.84103,10,-5.26665e-05,-3.92383,-1.18619,-0.0497391,0.442034,
2,0,0,1,0,8892.41,0.43822,0.437916,-0.120538,7,1.84092,10,-5.27854e-05,-3.91888,-0.361645,-0.163143,0.438013,
2,0,0,0,0,8893.21,0.434225,0.433969,-0.121928,7,1.84081,10,-5.29128e-05,-3.9139,-0.436699,-0.135105,0.434067,
2,0,0,1,0,8894.01,0.43023,0.429932,-0.124719,7,1.8407,10,-5.36208e-05,-3.90407,-0.476679,-0.123773,0.430032,
2,0,0,1,0,8894.81,0.426234,0.425926,-0.12719,7,1.84058,10,-5.41734e-05,-3.89555,-0.630461,-0.0935823,0.426028,
2,0,0,1,0,8895.61,0.422239,0.421942,-0.128845,7,1.84046,10,-5.4365e-05,-3.88993,-0.892186,-0.0661297,0.422045,
2,0,0,1,0,8896.41,0.418244,0.418006,-0.130114,7,1.84034,10,-5.43886e-05,-3.88568,-0.385679,-0.152977,0.41811,
2,0,0,0,0,8897.2,0.414249,0.413979,-0.132293,7,1.84022,10,-5.47663e-05,-3.87846,-1.089,-0.054178,0.414085,
2,0,0,1,0,8898,0.410254,0.409997,-0.135975,7,1.8401,10,-5.57492e-05,-3.86654,-1.15321,-0.0511616,0.410106,
2,0,0,0,0,8898.8,0.406259,0.405964,-0.136913,7,1.83998,10,-5.55819e-05,-3.86355,-0.394107,-0.149706,0.406074,
2,0,0,1,0,8899.6,0.402263,0.401982,-0.139217,7,1.83985,10,-5.59629e-05,-3.85631,-0.387284,-0.152343,0.402093,
2,0,0,1,0,8900.4,0.398268,0.398021,-0.1422,7,1.83972,10,-5.65985e-05,-3.8471,-0.61734,-0.0955713,0.398134,
2,0,0,1,0,8901.2,0.394274,0.393999,-0.144276,7,1.83959,10,-5.68445e-05,-3.84081,-0.506872,-0.1164,0.394114,
2,0,0,1,0,8902,0.390278,0.389977,-0.146886,7,1.83946,10,-5.72822e-05,-3.83302,-1.12422,-0.052481,0.390095,
2,0,0,0,0,8902.8,0.386283,0.385984,-0.149402,7,1.83933,10,-5.76668e-05,-3.82564,-0.532815,-0.110733,0.386103,
2,0,0,1,0,8903.6,0.382287,0.381986,-0.149642,7,1.83919,10,-5.71613e-05,-3.82495,-1.29375,-0.0456038,0.382106,
2,0,0,1,0,8904.4,0.378292,0.378005,-0.153092,7,1.83906,10,-5.78695e-05,-3.81505,-0.477991,-0.123433,0.378128,
2,0,0,1,0,8905.2,0.374297,0.373979,-0.155526,7,1.83892,10,-5.81635e-05,-3.8082,-0.559198,-0.105508,0.374104,
2,0,0,1,0,8905.99,0.370303,0.37,-0.157884,7,1.83878,10,-5.84169e-05,-3.80166,-0.668377,-0.0882736,0.370126,
2,0,0,0,0,8906.79,0.366307,0.365997,-0.160524,7,1.83863,10,-5.87513e-05,-3.79446,-0.556217,-0.106074,0.366126,
2,0,0,1,0,8907.59,0.362312,0.362016,-0.162351,7,1.83849,10,-5.87736e-05,-3.78955,-0.737959,-0.0799502,0.362145,
2,0,0,1,0,8908.39,0.358316,0.35803,-0.165837,7,1.83834,10,-5.93745e-05,-3.78032,-0.532266,-0.110847,0.358163,
2,0,0,1,0,8909.19,0.354321,0.353997,-0.167261,7,1.83819,10,-5.92097e-05,-3.77661,-0.940867,-0.0627081,0.354131,
2,0,0,1,0,8909.99,0.350327,0.349984,-0.169254,7,1.83804,10,-5.92363e-05,-3.77146,-0.644172,-0.0915905,0.35012,
2,0,0,0,0,8910.79,0.346331,0.346087,-0.172794,7,1.83789,10,-5.98018e-05,-3.76247,-0.756396,-0.0780015,0.346225,
2,0,0,1,0,8911.59,0.342336,0.342066,-0.175136,7,1.83774,10,-5.99082e-05,-3.75662,-0.498608,-0.11833,0.342206,
2,0,0,0,0,8912.39,0.338341,0.338085,-0.177352,7,1.83758,10,-5.99601e-05,-3.75116,-0.56133,-0.105108,0.338227,
2,0,0,1,0,8913.19,0.334345,0.334079,-0.179888,7,1.83742,10,-6.00968e-05,-3.745,-0.764753,-0.0771491,0.334223,
2,0,0,1,0,8913.98,0.33035,0.330053,-0.181286,7,1.83726,10,-5.98338e-05,-3.74164,-0.771592,-0.0764653,0.330198,
2,0,0,1,0,8914.78,0.326355,0.326044,-0.183718,7,1.8371,10,-5.99001e-05,-3.73585,-0.692676,-0.0851769,0.326191,
2,0,0,1,0,8915.58,0.32236,0.32203,-0.187473,7,1.83693,10,-6.03718e-05,-3.72706,-0.501554,-0.117634,0.32218,
2,0,0,0,0,8916.38,0.318365,0.318007,-0.189051,7,1.83677,10,-6.01195e-05,-3.72342,-0.479473,-0.123052,0.318158,
2,0,0,1,0,8917.18,0.31437,0.314105,-0.19274,7,1.8366,10,-6.05406e-05,-3.71503,1.63031,0.0361895,0.31426,
2,0,0,1,0,8917.98,0.310374,0.310071,-0.196119,7,1.83643,10,-6.08108e-05,-3.70748,-0.34732,-0.169872,0.310228,
2,0,0,1,0,8918.78,0.306379,0.306073,-0.197376,7,1.83625,10,-6.04114e-05,-3.70471,-0.903935,-0.0652702,0.306231,
2,0,0,1,0,8919.58,0.302385,0.302091,-0.200741,7,1.83608,10,-6.0642e-05,-3.69736,-0.540807,-0.109096,0.302252,
2,0,0,0,0,8920.38,0.298389,0.298087,-0.202193,7,1.8359,10,-6.0271e-05,-3.69423,-0.782144,-0.0754337,0.298249,
2,0,0,1,0,8921.18,0.294394,0.294114,-0.205047,7,1.83572,10,-6.03072e-05,-3.68815,-0.764702,-0.0771542,0.294278,
2,0,0,1,0,8921.97,0.290398,0.29009,-0.208637,7,1.83554,10,-6.05234e-05,-3.68061,-0.589863,-0.100023,0.290257,
2,0,0,1,0,8922.77,0.286403,0.28608,-0.211995,7,1.83535,10,-6.06474e-05,-3.67368,-0.676759,-0.0871802,0.286249,
2,0,0,1,0,8923.57,0.282408,0.282112,-0.214314,7,1.83517,10,-6.04604e-05,-3.66895,-3.96071,-0.0148963,0.282284,
2,0,0,1,0,8924.37,0.278414,0.278151,-0.216463,7,1.83498,10,-6.02094e-05,-3.66462,-0.461281,-0.127905,0.278325,
2,0,0,1,0,8925.17,0.274418,0.274128,-0.218934,7,1.83479,10,-6.0016e-05,-3.65969,-1.08393,-0.0544316,0.274303,
2,0,0,0,0,8925.97,0.270423,0.270121,-0.22216,7,1.8346,10,-6.001e-05,-3.65333,-0.769876,-0.0766357,0.270298,
2,0,0,1,0,8926.77,0.266427,0.266164,-0.223926,7,1.8344,10,-5.9601e-05,-3.6499,-0.644421,-0.0915551,0.266343,
2,0,0,1,0,8927.57,0.262432,0.262171,-0.227096,7,1.83421,10,-5.95381e-05,-3.64379,-0.669694,-0.0880999,0.262353,
2,0,0,1,0,8928.37,0.258437,0.258126,-0.229454,7,1.83401,10,-5.92278e-05,-3.63931,-1.05301,-0.0560298,0.258309,
2,0,0,1,0,8929.17,0.254442,0.254171,-0.231746,7,1.83381,10,-5.89032e-05,-3.63499,-0.613516,-0.0961671,0.254357,
2,0,0,0,0,8929.97,0.250447,0.250179,-0.233483,7,1.8336,10,-5.84126e-05,-3.63174,-3.17463,-0.0185849,0.250366,
2,0,0,1,0,8930.76,0.246452,0.246165,-0.238086,7,1.8334,10,-5.86085e-05,-3.62327,-0.470755,-0.125331,0.246356,
2,0,0,1,0,8931.56,0.242456,0.24217,-0.241094,7,1.83319,10,-5.83858e-05,-3.61781,-1.17757,-0.0501031,0.242363,
2,0,0,1,0,8932.36,0.238461,0.238187,-0.243688,7,1.83298,10,-5.80433e-05,-3.61317,-0.628017,-0.0939465,0.238381,
2,0,0,1,0,8933.16,0.234467,0.234179,-0.247155,7,1.83277,10,-5.78784e-05,-3.60703,-0.695506,-0.0848304,0.234376,
2,0,0,0,0,8933.96,0.230471,0.230158,-0.249808,7,1.83256,10,-5.74954e-05,-3.60239,-0.710676,-0.0830196,0.230358,
2,0,0,1,0,8934.76,0.226476,0.226164,-0.253541,7,1.83234,10,-5.73417e-05,-3.59595,-0.717338,-0.0822485,0.226367,
2,0,0,0,0,8935.56,0.222481,0.22223,-0.253931,7,1.83212,10,-5.6431e-05,-3.59528,-0.710076,-0.0830897,0.222433,
2,0,0,1,0,8936.36,0.218485,0.218222,-0.259371,7,1.8319,10,-5.66006e-05,-3.58608,-0.949074,-0.0621658,0.21843,
2,0,0,1,0,8937.16,0.21449,0.214189,-0.262731,7,1.83167,10,-5.6274e-05,-3.58049,-0.461747,-0.127776,0.214399,
2,0,0,1,0,8937.96,0.210496,0.210216,-0.267183,7,1.83145,10,-5.61661e-05,-3.57319,-0.706293,-0.0835348,0.210429,
2,0,0,1,0,8938.75,0.2065,0.206249,-0.273206,7,1.83121,10,-5.63485e-05,-3.56351,-0.431386,-0.136768,0.206468,
2,0,0,0,0,8939.55,0.202505,0.202195,-0.276813,7,1.83098,10,-5.59703e-05,-3.55781,-0.529435,-0.11144,0.202417,
2,0,0,1,0,8940.35,0.198509,0.198213,-0.283907,7,1.83074,10,-5.62742e-05,-3.54682,-0.379989,-0.155268,0.19844,
2,0,0,1,0,8941.15,0.194514,0.194204,-0.291107,7,1.83049,10,-5.65342e-05,-3.53595,-0.350323,-0.168416,0.194437,
2,0,0,1,0,8941.95,0.190519,0.19023,-0.298358,7,1.83024,10,-5.67567e-05,-3.52526,-0.343931,-0.171546,0.190469,
2,0,0,1,0,8942.75,0.186524,0.186231,-0.307806,7,1.82998,10,-5.73231e-05,-3.51172,-0.394801,-0.149442,0.186477,
2,0,0,0,0,8943.55,0.182529,0.182243,-0.316154,7,1.82972,10,-5.76168e-05,-3.5001,-0.196669,-0.299996,0.182496,
2,0,0,1,0,8944.35,0.178534,0.178241,-0.331965,7,1.82944,10,-5.91698e-05,-3.47891,-0.192258,-0.30688,0.178506,
2,0,0,1,0,8945.15,0.174538,0.174184,-0.348038,7,1.82915,10,-6.06229e-05,-3.45837,-0.166823,-0.353668,0.174463,
2,0,0,1,0,8945.95,0.170543,0.170244,-0.370669,7,1.82885,10,-6.31043e-05,-3.43101,-0.134429,-0.438894,0.170541,
2,0,0,1,0,8946.74,0.166549,0.166252,-0.397871,7,1.82853,10,-6.61469e-05,-3.40026,-0.126484,-0.466462,0.16657,
2,0,0,0,0,8947.54,0.162553,0.162305,-0.432547,7,1.82818,10,-7.02045e-05,-3.36397,-0.0962856,-0.61276,0.162651,
2,0,0,1,0,8948.34,0.158558,0.158271,-0.476549,7,1.8278,10,-7.5424e-05,-3.32189,-0.0819058,-0.72034,0.158652,
2,0,0,0,0,8949.14,0.154563,0.154254,-0.540269,7,1.82737,10,-8.33389e-05,-3.26739,-0.078196,-0.754515,0.154687,
2,0,0,1,0,8949.94,0.150567,0.150252,-0.612207,7,1.8269,10,-9.19855e-05,-3.2131,-0.0682952,-0.863896,0.150742,
2,0,0,1,0,8950.74,0.146572,0.146249,-0.693776,7,1.82636,10,-0.000101464,-3.15878,-0.0752226,-0.784339,0.146804,
2,0,0,1,0,8951.54,0.142578,0.142265,-0.774411,7,1.82575,10,-0.000110171,-3.11103,-0.0988542,-0.596839,0.142884,
2,0,0,1,0,8952.34,0.138582,0.138271,-0.837383,7,1.82509,10,-0.000115786,-3.07708,-0.137892,-0.427871,0.138941,
2,0,0,0,0,8953.14,0.134587,0.134244,-0.879746,7,1.82439,10,-0.000118101,-3.05564,-0.265281,-0.222406,0.134948,
2,0,0,1,0,8953.94,0.130591,0.130285,-0.901746,7,1.82366,10,-0.000117484,-3.04492,-0.700297,-0.08425,0.131006,
2,0,0,1,0,8954.74,0.126596,0.126268,-0.900688,7,1.82292,10,-0.000113728,-3.04543,1.3922,0.042379,0.126988,
2,0,0,1,0,8955.53,0.122602,0.122287,-0.89131,7,1.82219,10,-0.000108995,-3.04997,0.413258,0.142768,0.123,
2,0,0,1,0,8956.33,0.118607,0.118334,-0.870338,7,1.82147,10,-0.00010299,-3.06031,0.421611,0.139939,0.11903,
2,0,0,0,0,8957.13,0.114611,0.114333,-0.843102,7,1.82077,10,-9.63946e-05,-3.07412,0.255059,0.231319,0.115008,
2,0,0,1,0,8957.93,0.110616,0.11026,-0.812476,7,1.82009,10,-8.95838e-05,-3.09019,0.231123,0.255275,0.11091,
2,0,0,1,0,8958.73,0.10662,0.106328,-0.783054,7,1.81944,10,-8.32605e-05,-3.10621,0.263441,0.223959,0.106954,
2,0,0,1,0,8959.53,0.102625,0.102352,-0.752392,7,1.81881,10,-7.70086e-05,-3.12356,0.224299,0.263042,0.102954,
2,0,0,1,0,8960.33,0.0986305,0.0982949,-0.725383,7,1.8182,10,-7.13015e-05,-3.13943,0.28846,0.204534,0.0988752,
2,0,0,0,0,8961.13,0.0946351,0.0943011,-0.701674,7,1.81761,10,-6.61686e-05,-3.15386,0.324374,0.181889,0.0948625,
2,0,0,1,0,8961.93,0.0906399,0.0903023,-0.688159,7,1.81704,10,-6.21424e-05,-3.16231,0.36891,0.159931,0.0908528,
2,0,0,0,0,8962.73,0.0866448,0.0863523,-0.673989,7,1.81648,10,-5.82005e-05,-3.17135,0.537297,0.109809,0.0868915,
2,0,0,1,0,8963.52,0.0826492,0.0823288,-0.662257,7,1.81593,10,-5.45228e-05,-3.17897,0.613951,0.0960988,0.0828586,
2,0,0,1,0,8964.32,0.0786544,0.0783389,-0.651233,7,1.81539,10,-5.10169e-05,-3.18626,0.518218,0.113852,0.0788599,
2,0,0,1,0,8965.12,0.0746596,0.0743825,-0.6385,7,1.81486,10,-4.74932e-05,-3.19484,0.54817,0.107631,0.0748933,
2,0,0,1,0,8965.92,0.0706641,0.0703921,-0.626045,7,1.81434,10,-4.40686e-05,-3.20339,0.425539,0.138648,0.070893,
2,0,0,0,0,8966.72,0.0666689,0.0663456,-0.615259,7,1.81382,10,-4.08197e-05,-3.21094,0.496481,0.118836,0.0668378,
2,0,0,1,0,8967.52,0.0626737,0.0623861,-0.597346,7,1.81332,10,-3.7266e-05,-3.22377,0.306461,0.192521,0.0628639,
2,0,0,1,0,8968.32,0.0586783,0.0583627,-0.584647,7,1.81283,10,-3.41216e-05,-3.23311,0.29551,0.199655,0.0588304,
2,0,0,1,0,8969.12,0.0546835,0.0543928,-0.566999,7,1.81236,10,-3.08407e-05,-3.24642,0.476215,0.123894,0.0548464,
2,0,0,1,0,8969.92,0.0506886,0.0503742,-0.552391,7,1.81189,10,-2.78263e-05,-3.25775,0.293576,0.20097,0.0508162,
2,0,0,0,0,8970.72,0.046693,0.0463866,-0.536283,7,1.81144,10,-2.48764e-05,-3.27061,0.325677,0.181161,0.0468157,
2,0,0,1,0,8971.52,0.0426979,0.0423857,-0.522037,7,1.811,10,-2.21269e-05,-3.2823,0.470843,0.125307,0.0428034,
2,0,0,1,0,8972.31,0.0387022,0.0384194,-0.511569,7,1.81058,10,-1.96542e-05,-3.2911,0.350715,0.168228,0.0388286,
2,0,0,1,0,8973.11,0.0347074,0.0343944,-0.500874,7,1.81016,10,-1.72273e-05,-3.30027,0.511652,0.115313,0.0347951,
2,0,0,1,0,8973.91,0.0307126,0.0304194,-0.490114,7,1.80974,10,-1.4909e-05,-3.3097,0.677423,0.0870948,0.0308115,
2,0,0,0,0,8974.71,0.0267172,0.0264584,-0.485619,7,1.80934,10,-1.28487e-05,-3.3137,0.617677,0.0955192,0.0268469,
2,0,0,1,0,8975.51,0.022722,0.022413,-0.481446,7,1.80893,10,-1.07906e-05,-3.31745,2.7956,0.0211046,0.0227981,
2,0,0,0,0,8976.31,0.0187268,0.018446,-0.479186,7,1.80853,10,-8.83906e-06,-3.3195,3.43803,0.017161,0.0188293,
2,0,0,1,0,8977.11,0.0147313,0.0144384,-0.479403,7,1.80813,10,-6.9218e-06,-3.3193,-11.6408,-0.00506839,0.0148219,
2,0,0,1,0,8977.91,0.0107365,0.010422,-0.47999,7,1.80774,10,-5.00244e-06,-3.31877,-2.84829,-0.0207142,0.010806,
2,0,0,1,0,8978.71,0.00674163,0.00645412,-0.482243,7,1.80733,10,-3.11246e-06,-3.31673,-1.59028,-0.0371003,0.00683991,
2,0,0,1,0,8979.51,0.00274612,0.0024031,-0.48652,7,1.80693,10,-1.16916e-06,-3.3129,-0.871079,-0.0677321,0.00279232,
2,0,0,0,0,8980,0.000274105,-9.03109e-05,-0.488008,7,1.80668,10,4.40724e-08,-3.31157, , ,0.000300095,