File: Figure_codes/Fig_3-5/workspace_calculate_alpha_eff/20221101_1-115_003_TrumpetPlot_ParaChange_from10_every3_16_CV_C01_75.csv
mode,ox/red,error,control changes,counter inc.,time/s,control/V,Ewe/V,<I>/mA,cycle number,(Q-Qo)/C,I Range,P/W,log(|I|),Tafel slope mV/dec,alpha_eff,E-IR/V,
2,0,0,1,0,50483.4,2.44065e-05,-0.000287149,-0.038335,76,0.0000000E+000,10,1.10078e-08,-4.4164, , ,-0.000270282,
2,1,0,1,0,50484.1,0.00379485,0.00346669,0.201445,76,0.000129886,10,6.98346e-07,-3.69584,0.0456946,1.29118,0.00337805,
2,1,0,0,0,50484.9,0.00779002,0.00745806,0.224301,76,0.00031098,10,1.67285e-06,-3.64917,0.10059,0.58654,0.00735937,
2,1,0,1,0,50485.7,0.0117852,0.0114346,0.238698,76,0.000507497,10,2.72941e-06,-3.62215,0.165278,0.356975,0.0113296,
2,1,0,1,0,50486.5,0.0157806,0.0153986,0.25419,76,0.00071559,10,3.91418e-06,-3.59484,0.170861,0.345311,0.0152868,
2,1,0,1,0,50487.3,0.0197754,0.019432,0.26627,76,0.000934206,10,5.17416e-06,-3.57468,0.176752,0.3338,0.0193148,
2,1,0,1,0,50488.1,0.0237704,0.023456,0.280329,76,0.00116384,10,6.57542e-06,-3.55233,0.200488,0.294282,0.0233327,
2,1,0,0,0,50488.9,0.0277659,0.0274743,0.294086,76,0.00140392,10,8.0798e-06,-3.53153,0.179377,0.328917,0.0273449,
2,1,0,1,0,50489.7,0.0317611,0.0314423,0.306642,76,0.00165485,10,9.64153e-06,-3.51337,0.215795,0.273407,0.0313074,
2,1,0,1,0,50490.5,0.0357567,0.035432,0.320604,76,0.00191695,10,1.13596e-05,-3.49403,0.254117,0.232176,0.0352909,
2,1,0,1,0,50491.3,0.0397516,0.0394327,0.335263,76,0.00218925,10,1.32203e-05,-3.47461,0.190974,0.308942,0.0392852,
2,1,0,1,0,50492.1,0.0437465,0.0434006,0.347045,76,0.00247268,10,1.50619e-05,-3.45961,0.269549,0.218884,0.0432479,
2,1,0,1,0,50492.9,0.0477413,0.0474158,0.359662,76,0.00276586,10,1.70537e-05,-3.4441,0.252905,0.233289,0.0472575,
2,1,0,1,0,50493.7,0.0517369,0.0514193,0.37127,76,0.00306862,10,1.90904e-05,-3.43031,0.319474,0.184679,0.051256,
2,1,0,0,0,50494.5,0.0557321,0.0553884,0.38254,76,0.00338141,10,2.11883e-05,-3.41732,0.344868,0.17108,0.0552201,
2,1,0,1,0,50495.3,0.0597277,0.0594122,0.394047,76,0.00370236,10,2.34112e-05,-3.40445,0.29874,0.197496,0.0592388,
2,1,0,1,0,50496.1,0.0637226,0.0633746,0.40315,76,0.00403189,10,2.55495e-05,-3.39453,0.425364,0.138705,0.0631972,
2,1,0,1,0,50496.9,0.0677174,0.0674091,0.413276,76,0.00436964,10,2.78586e-05,-3.38376,0.697975,0.0845302,0.0672272,
2,1,0,1,0,50497.7,0.0717128,0.0713497,0.419693,76,0.00471356,10,2.9945e-05,-3.37707,0.348821,0.169141,0.071165,
2,1,0,0,0,50498.5,0.075708,0.0753739,0.427239,76,0.00506375,10,3.22027e-05,-3.36933,0.671462,0.087868,0.0751859,
2,1,0,1,0,50499.3,0.0797031,0.0793738,0.435356,76,0.00541938,10,3.45558e-05,-3.36116,0.490194,0.120361,0.0791822,
2,1,0,1,0,50500.1,0.0836986,0.0833358,0.442768,76,0.00578105,10,3.68984e-05,-3.35382,0.533261,0.11064,0.083141,
2,1,0,1,0,50500.9,0.0876935,0.0873394,0.452356,76,0.00614975,10,3.95085e-05,-3.34452,0.360173,0.16381,0.0871404,
2,1,0,1,0,50501.7,0.0916883,0.0913284,0.463862,76,0.00652668,10,4.23637e-05,-3.33361,0.312186,0.18899,0.0911243,
2,1,0,0,0,50502.5,0.0956838,0.0953499,0.479501,76,0.00691561,10,4.57203e-05,-3.31921,0.250696,0.235345,0.0951389,
2,1,0,1,0,50503.3,0.099679,0.0993444,0.500328,76,0.00731882,10,4.97048e-05,-3.30075,0.245553,0.240274,0.0991243,
2,1,0,0,0,50504.1,0.103674,0.103337,0.521903,76,0.00773829,10,5.39318e-05,-3.28241,0.198739,0.296871,0.103107,
2,1,0,1,0,50504.9,0.10767,0.107357,0.541665,76,0.00817505,10,5.81515e-05,-3.26627,0.251381,0.234703,0.107119,
2,1,0,1,0,50505.7,0.111664,0.111343,0.560961,76,0.00862706,10,6.2459e-05,-3.25107,0.334783,0.176234,0.111096,
2,1,0,1,0,50506.5,0.115659,0.115333,0.574616,76,0.00909175,10,6.6272e-05,-3.24062,0.351331,0.167933,0.11508,
2,1,0,1,0,50507.3,0.119655,0.1193,0.585489,76,0.00956755,10,6.98489e-05,-3.23248,0.778263,0.0758098,0.119043,
2,1,0,0,0,50508.1,0.12365,0.123299,0.595817,76,0.0100507,10,7.34636e-05,-3.22489,0.590942,0.0998405,0.123037,
2,1,0,1,0,50508.9,0.127646,0.127306,0.601117,76,0.0105406,10,7.65256e-05,-3.22104,1.2138,0.0486075,0.127041,
2,1,0,1,0,50509.7,0.131641,0.131292,0.602297,76,0.0110341,10,7.90771e-05,-3.22019,-0.607387,-0.0971374,0.131027,
2,1,0,1,0,50510.5,0.135635,0.135304,0.588996,76,0.0115223,10,7.96933e-05,-3.22989,-0.305702,-0.192998,0.135044,
2,1,0,1,0,50511.3,0.139631,0.139291,0.55726,76,0.0119935,10,7.76213e-05,-3.25394,-0.129533,-0.455483,0.139046,
2,1,0,0,0,50512.1,0.143626,0.143351,0.510572,76,0.0124323,10,7.31912e-05,-3.29194,-0.0861676,-0.684712,0.143127,
2,1,0,1,0,50512.9,0.147621,0.147247,0.453165,76,0.0128282,10,6.67272e-05,-3.34374,-0.0766122,-0.770112,0.147048,
2,1,0,1,0,50513.7,0.151617,0.151286,0.404805,76,0.0131813,10,6.12416e-05,-3.39275,-0.0881479,-0.669329,0.151108,
2,1,0,1,0,50514.5,0.155612,0.155239,0.370143,76,0.0135005,10,5.74608e-05,-3.43163,-0.126209,-0.467479,0.155077,
2,1,0,1,0,50515.3,0.159606,0.159277,0.346904,76,0.0137975,10,5.52539e-05,-3.45979,-0.179728,-0.328274,0.159125,
2,1,0,0,0,50516.1,0.163602,0.163249,0.333452,76,0.01408,10,5.44356e-05,-3.47697,-0.246461,-0.239389,0.163102,
2,1,0,1,0,50516.9,0.167597,0.167251,0.323131,76,0.0143527,10,5.40439e-05,-3.49062,-0.399552,-0.147666,0.167109,
2,1,0,0,0,50517.7,0.171592,0.17128,0.315268,76,0.0146192,10,5.39991e-05,-3.50132,-0.444263,-0.132804,0.171142,
2,1,0,1,0,50518.5,0.175588,0.175264,0.311819,76,0.0148805,10,5.46507e-05,-3.5061,-0.760622,-0.0775681,0.175127,
2,1,0,1,0,50519.3,0.179582,0.17926,0.307146,76,0.0151381,10,5.50589e-05,-3.51266,-0.816915,-0.072223,0.179125,
2,1,0,1,0,50520.1,0.183577,0.183232,0.304884,76,0.0153931,10,5.58644e-05,-3.51587,-0.896407,-0.0658183,0.183097,
2,1,0,1,0,50520.9,0.187573,0.187282,0.301706,76,0.0156456,10,5.65041e-05,-3.52042,-1.12483,-0.0524525,0.187149,
2,1,0,0,0,50521.7,0.191568,0.191217,0.300147,76,0.0158961,10,5.73933e-05,-3.52267,-1.48618,-0.0396992,0.191085,
2,1,0,1,0,50522.5,0.195563,0.1952,0.29729,76,0.0161452,10,5.8031e-05,-3.52682,-0.974945,-0.0605162,0.195069,
2,1,0,1,0,50523.3,0.199559,0.199198,0.296063,76,0.0163925,10,5.89751e-05,-3.52862,-7.7636,-0.00759957,0.199068,
2,1,0,1,0,50524.1,0.203553,0.20322,0.29472,76,0.0166392,10,5.98928e-05,-3.53059,-2.22708,-0.0264921,0.20309,
2,1,0,1,0,50524.9,0.207548,0.207213,0.29399,76,0.0168849,10,6.09184e-05,-3.53167,-4.00145,-0.0147447,0.207083,
2,1,0,0,0,50525.7,0.211544,0.211218,0.291662,76,0.0171292,10,6.16045e-05,-3.53512,-1.57142,-0.0375456,0.21109,
2,1,0,1,0,50526.5,0.215539,0.215187,0.291608,76,0.0173727,10,6.27504e-05,-3.5352,-1.54619,-0.0381583,0.215059,
2,1,0,1,0,50527.3,0.219535,0.219208,0.290612,76,0.017615,10,6.37045e-05,-3.53669,-6.92049,-0.00852541,0.21908,
2,1,0,1,0,50528.1,0.223529,0.223219,0.289188,76,0.0178567,10,6.45523e-05,-3.53882,-18.9044,-0.00312096,0.223092,
2,1,0,1,0,50528.9,0.227524,0.227191,0.288224,76,0.0180975,10,6.54819e-05,-3.54027,-0.802357,-0.0735334,0.227064,
2,1,0,0,0,50529.7,0.23152,0.231236,0.286571,76,0.0183372,10,6.62655e-05,-3.54277,12.4394,0.004743,0.23111,
2,1,0,1,0,50530.5,0.235515,0.235199,0.285159,76,0.0185762,10,6.70693e-05,-3.54491,-4.00237,-0.0147413,0.235074,
2,1,0,0,0,50531.3,0.23951,0.239187,0.284693,76,0.0188144,10,6.80946e-05,-3.54562,-1.37117,-0.0430291,0.239061,
2,1,0,1,0,50532.1,0.243506,0.24318,0.284094,76,0.0190519,10,6.90857e-05,-3.54654,3.04709,0.0193627,0.243055,
2,1,0,1,0,50532.9,0.2475,0.247163,0.283092,76,0.0192889,10,6.99698e-05,-3.54807,-3.03173,-0.0194608,0.247038,
2,1,0,1,0,50533.7,0.251495,0.251169,0.282248,76,0.0195248,10,7.0892e-05,-3.54937,-1.30656,-0.0451567,0.251045,
2,1,0,1,0,50534.5,0.255491,0.255161,0.281278,76,0.01976,10,7.17711e-05,-3.55086,-12.1618,-0.00485125,0.255037,
2,1,0,0,0,50535.3,0.259486,0.259167,0.281415,76,0.0199949,10,7.29335e-05,-3.55065,-1.00987,-0.0584231,0.259043,
2,1,0,1,0,50536.1,0.263481,0.263125,0.279983,76,0.020229,10,7.36705e-05,-3.55287,2.41213,0.0244598,0.263002,
2,1,0,1,0,50536.9,0.267477,0.267172,0.279281,76,0.0204626,10,7.46161e-05,-3.55396,-2.64846,-0.0222771,0.267049,
2,1,0,1,0,50537.7,0.271471,0.271118,0.278478,76,0.0206955,10,7.55006e-05,-3.55521,-12.9744,-0.00454741,0.270996,
2,1,0,1,0,50538.5,0.275466,0.275149,0.277999,76,0.0209275,10,7.64911e-05,-3.55596,-2.27657,-0.0259161,0.275026,
2,1,0,0,0,50539.3,0.279462,0.279168,0.278187,76,0.0211593,10,7.76608e-05,-3.55566,-2.64783,-0.0222824,0.279046,
2,1,0,1,0,50540.1,0.283457,0.283146,0.276886,76,0.0213901,10,7.83992e-05,-3.5577,-3.53729,-0.0166794,0.283024,
2,1,0,0,0,50540.9,0.287452,0.287124,0.275154,76,0.0216203,10,7.90035e-05,-3.56042,-3.85734,-0.0152955,0.287003,
2,1,0,1,0,50541.7,0.291448,0.291106,0.274093,76,0.0218498,10,7.97903e-05,-3.5621,-1.04933,-0.0562263,0.290986,
2,1,0,1,0,50542.5,0.295442,0.295113,0.273721,76,0.0220783,10,8.07786e-05,-3.56269,4.06742,0.0145055,0.294993,
2,1,0,1,0,50543.3,0.299437,0.299131,0.27233,76,0.0223065,10,8.14623e-05,-3.5649,-1.99058,-0.0296397,0.299011,
2,1,0,1,0,50544.1,0.303433,0.303149,0.272458,76,0.0225338,10,8.25954e-05,-3.5647,-3.57804,-0.0164895,0.303029,
2,1,0,0,0,50544.9,0.307428,0.307085,0.271304,76,0.0227602,10,8.33134e-05,-3.56654,-4.55631,-0.0129491,0.306966,
2,1,0,1,0,50545.7,0.311424,0.311136,0.270712,76,0.0229862,10,8.42282e-05,-3.56749,-1.88759,-0.0312567,0.311016,
2,1,0,1,0,50546.5,0.315418,0.315103,0.270263,76,0.0232113,10,8.51606e-05,-3.56821,-13.0649,-0.00451591,0.314984,
2,1,0,1,0,50547.3,0.319413,0.319107,0.268869,76,0.0234358,10,8.57978e-05,-3.57046,-1.44146,-0.0409306,0.318989,
2,1,0,1,0,50548.1,0.323409,0.323102,0.268106,76,0.0236599,10,8.66254e-05,-3.57169,-1.65076,-0.0357411,0.322984,
2,1,0,0,0,50548.9,0.327404,0.32707,0.267259,76,0.0238831,10,8.74124e-05,-3.57307,24.0067,0.00245765,0.326952,
2,1,0,1,0,50549.7,0.331399,0.33106,0.266684,76,0.0241059,10,8.82884e-05,-3.574,11.1218,0.00530491,0.330943,
2,1,0,1,0,50550.5,0.335395,0.335099,0.266554,76,0.0243282,10,8.93217e-05,-3.57422,-2.28034,-0.0258733,0.334981,
2,1,0,1,0,50551.3,0.339389,0.339092,0.264752,76,0.0245498,10,8.97752e-05,-3.57716,64.2836,0.000917808,0.338975,
2,1,0,1,0,50552.1,0.343384,0.343052,0.264494,76,0.0247709,10,9.07353e-05,-3.57758,-1.75581,-0.0336027,0.342936,
2,1,0,0,0,50552.8,0.34738,0.347055,0.26555,76,0.0249915,10,9.21605e-05,-3.57585,3.16214,0.0186583,0.346939,
2,1,0,1,0,50553.6,0.351375,0.351044,0.264491,76,0.0252119,10,9.28479e-05,-3.57759,-1.97947,-0.029806,0.350927,
2,1,0,0,0,50554.4,0.35537,0.355017,0.264173,76,0.0254319,10,9.37859e-05,-3.57811,-1.81381,-0.0325282,0.354901,
2,1,0,1,0,50555.2,0.359366,0.359051,0.263862,76,0.0256513,10,9.474e-05,-3.57862,5.09167,0.0115876,0.358935,
2,1,0,1,0,50556,0.36336,0.363033,0.261909,76,0.0258705,10,9.50816e-05,-3.58185,-2.81845,-0.0209335,0.362917,
2,1,0,1,0,50556.8,0.367355,0.367031,0.262296,76,0.026089,10,9.62708e-05,-3.58121,19.5915,0.00301151,0.366915,
2,1,0,1,0,50557.6,0.371351,0.371039,0.261673,76,0.0263073,10,9.70909e-05,-3.58224,9.53767,0.006186,0.370923,
2,1,0,0,0,50558.4,0.375346,0.375083,0.260537,76,0.0265251,10,9.77229e-05,-3.58413,-1.54416,-0.0382085,0.374968,
2,1,0,1,0,50559.2,0.379342,0.379025,0.260838,76,0.0267422,10,9.88643e-05,-3.58363,-1.86507,-0.0316342,0.37891,
2,1,0,1,0,50560,0.383336,0.383,0.260772,76,0.0269588,10,9.98756e-05,-3.58374,10.7079,0.00550994,0.382885,
2,1,0,1,0,50560.8,0.387331,0.387016,0.259665,76,0.0271753,10,0.000100495,-3.58559,-1.95518,-0.0301763,0.386901,
2,1,0,1,0,50561.6,0.391327,0.390992,0.259552,76,0.0273914,10,0.000101483,-3.58578,2.25013,0.0262207,0.390878,
2,1,0,0,0,50562.4,0.395322,0.395032,0.258592,76,0.0276073,10,0.000102152,-3.58739,-1.56333,-0.03774,0.394919,
2,1,0,1,0,50563.2,0.399317,0.398978,0.258861,76,0.0278227,10,0.00010328,-3.58693,3.5767,0.0164956,0.398864,
2,1,0,1,0,50564,0.403313,0.403003,0.258537,76,0.0280377,10,0.000104191,-3.58748,-1.92496,-0.0306499,0.402889,
2,1,0,1,0,50564.8,0.407307,0.406978,0.257677,76,0.0282524,10,0.000104869,-3.58892,7.60261,0.0077605,0.406864,
2,1,0,1,0,50565.6,0.411302,0.410927,0.258351,76,0.0284668,10,0.000106163,-3.58779,-6.0424,-0.00976433,0.410813,
2,1,0,0,0,50566.4,0.415298,0.414944,0.25704,76,0.028681,10,0.000106657,-3.59,-4.13837,-0.0142568,0.414831,
2,1,0,1,0,50567.2,0.419293,0.418965,0.257062,76,0.0288948,10,0.0001077,-3.58996,-2.3028,-0.025621,0.418852,
2,1,0,0,0,50568,0.423288,0.42294,0.256687,76,0.0291082,10,0.000108563,-3.5906,1.49321,0.0395123,0.422827,
2,1,0,1,0,50568.8,0.427283,0.426993,0.256533,76,0.0293217,10,0.000109538,-3.59086,-2.1784,-0.0270841,0.426881,
2,1,0,1,0,50569.6,0.431278,0.430982,0.25672,76,0.029535,10,0.000110642,-3.59054,7.52804,0.00783736,0.430869,
2,1,0,1,0,50570.4,0.435273,0.434985,0.257096,76,0.0297479,10,0.000111833,-3.5899,52.2168,0.0011299,0.434872,
2,1,0,1,0,50571.2,0.439269,0.43893,0.256851,76,0.0299609,10,0.00011274,-3.59032,-20.9272,-0.0028193,0.438817,
2,1,0,0,0,50572,0.443264,0.442915,0.257065,76,0.0301735,10,0.000113858,-3.58996,-4.24047,-0.0139135,0.442802,
2,1,0,1,0,50572.8,0.447259,0.446923,0.255866,76,0.0303861,10,0.000114353,-3.59199,-12.334,-0.00478352,0.446811,
2,1,0,1,0,50573.6,0.451254,0.450932,0.256693,76,0.0305987,10,0.000115751,-3.59059,-122.784,-0.00048052,0.450819,
2,1,0,1,0,50574.4,0.455249,0.454949,0.256499,76,0.0308112,10,0.000116694,-3.59091,32.2292,0.00183064,0.454837,
2,1,0,1,0,50575.2,0.459244,0.458908,0.255517,76,0.0310235,10,0.000117259,-3.59258,-9.49589,-0.00621322,0.458795,
2,1,0,0,0,50576,0.46324,0.462971,0.256641,76,0.0312357,10,0.000118817,-3.59067,6.41006,0.00920429,0.462858,
2,1,0,1,0,50576.8,0.467235,0.46695,0.256466,76,0.0314478,10,0.000119757,-3.59097,-7.16611,-0.0082332,0.466837,
2,1,0,1,0,50577.6,0.471231,0.470948,0.256958,76,0.0316601,10,0.000121014,-3.59014,3.50756,0.0168208,0.470835,
2,1,0,1,0,50578.4,0.475225,0.474918,0.257122,76,0.0318726,10,0.000122112,-3.58986,5.25001,0.0112381,0.474805,
2,1,0,1,0,50579.2,0.47922,0.478882,0.256971,76,0.0320851,10,0.000123059,-3.59012,5.45817,0.0108095,0.478769,
2,1,0,0,0,50580,0.483216,0.482892,0.258035,76,0.0322982,10,0.000124603,-3.58832,9.12447,0.00646613,0.482779,
2,1,0,1,0,50580.8,0.487211,0.486865,0.258169,76,0.0325116,10,0.000125693,-3.5881,5.74736,0.0102656,0.486751,
2,1,0,0,0,50581.6,0.491206,0.49093,0.258212,76,0.0327253,10,0.000126764,-3.58802,3.03677,0.0194285,0.490817,
2,1,0,1,0,50582.4,0.495201,0.494899,0.25898,76,0.0329393,10,0.000128169,-3.58673,2.01447,0.0292881,0.494785,
2,1,0,1,0,50583.2,0.499196,0.498874,0.25993,76,0.0331537,10,0.000129672,-3.58514,1.71811,0.0343401,0.498759,
2,1,0,1,0,50584,0.503191,0.502896,0.260738,76,0.033369,10,0.000131124,-3.5838,9.64372,0.00611797,0.502781,
2,1,0,1,0,50584.8,0.507187,0.506844,0.261447,76,0.0335848,10,0.000132513,-3.58262,4.70534,0.0125389,0.506729,
2,1,0,0,0,50585.6,0.511182,0.510854,0.261632,76,0.033801,10,0.000133656,-3.58231,7.76737,0.00759588,0.510739,
2,1,0,1,0,50586.4,0.515177,0.514867,0.263077,76,0.0340179,10,0.000135449,-3.57992,-26.5541,-0.00222188,0.514751,
2,1,0,1,0,50587.2,0.519173,0.518915,0.264454,76,0.0342355,10,0.000137229,-3.57765,0.940895,0.0627063,0.518798,
2,1,0,1,0,50588,0.523167,0.522873,0.26485,76,0.0344541,10,0.000138483,-3.577,2.38791,0.0247078,0.522756,
2,1,0,1,0,50588.8,0.527162,0.526873,0.266481,76,0.0346734,10,0.000140402,-3.57433,2.38471,0.0247409,0.526756,
2,1,0,0,0,50589.6,0.531158,0.53079,0.268827,76,0.0348935,10,0.000142691,-3.57053,1.71056,0.0344916,0.530672,
2,1,0,1,0,50590.4,0.535153,0.534826,0.269911,76,0.0351149,10,0.000144355,-3.56878,2.4058,0.0245241,0.534707,
2,1,0,0,0,50591.2,0.539148,0.538863,0.270672,76,0.0353372,10,0.000145855,-3.56756,1.07903,0.054679,0.538744,
2,1,0,1,0,50592,0.543143,0.542836,0.272937,76,0.0355609,10,0.00014816,-3.56394,2.48559,0.0237368,0.542716,
2,1,0,1,0,50592.8,0.547138,0.546854,0.274061,76,0.0357861,10,0.000149871,-3.56215,1.63402,0.0361072,0.546733,
2,1,0,1,0,50593.6,0.551133,0.550853,0.276991,76,0.0360127,10,0.000152581,-3.55753,0.732934,0.0804984,0.550731,
2,1,0,1,0,50594.4,0.555129,0.554808,0.279101,76,0.0362412,10,0.000154847,-3.55424,1.15033,0.0512898,0.554685,
2,1,0,0,0,50595.2,0.559124,0.558736,0.282084,76,0.0364715,10,0.00015761,-3.54962,0.935061,0.0630975,0.558612,
2,1,0,1,0,50596,0.56312,0.562808,0.284087,76,0.0367038,10,0.000159886,-3.54655,0.875682,0.067376,0.562683,
2,1,0,1,0,50596.8,0.567114,0.566846,0.287131,76,0.0369386,10,0.000162759,-3.54192,0.962996,0.0612671,0.566719,
2,1,0,1,0,50597.6,0.571109,0.570769,0.290556,76,0.0371756,10,0.000165841,-3.53677,0.761681,0.0774602,0.570641,
2,1,0,1,0,50598.4,0.575105,0.574783,0.29383,76,0.0374155,10,0.000168888,-3.5319,0.814215,0.0724625,0.574654,
2,1,0,0,0,50599.2,0.5791,0.57874,0.29883,76,0.0376585,10,0.000172945,-3.52458,0.809484,0.0728859,0.578609,
2,1,0,1,0,50600,0.583095,0.582764,0.302581,76,0.0379044,10,0.000176333,-3.51916,0.494766,0.119248,0.58263,
2,1,0,1,0,50600.8,0.58709,0.586768,0.307202,76,0.038154,10,0.000180256,-3.51258,0.654712,0.090116,0.586633,
2,1,0,1,0,50601.6,0.591085,0.590739,0.312173,76,0.0384076,10,0.000184413,-3.50561,0.462552,0.127553,0.590602,
2,1,0,1,0,50602.4,0.59508,0.594737,0.319237,76,0.0386656,10,0.000189862,-3.49589,0.390736,0.150997,0.594597,
2,1,0,0,0,50603.2,0.599076,0.598778,0.325329,76,0.0389289,10,0.0001948,-3.48768,0.50917,0.115875,0.598635,
2,1,0,1,0,50604,0.603071,0.602765,0.332913,76,0.0391976,10,0.000200668,-3.47767,0.374886,0.157381,0.602618,
2,1,0,0,0,50604.8,0.607066,0.606749,0.340768,76,0.0394726,10,0.00020676,-3.46754,0.351547,0.16783,0.606599,
2,1,0,1,0,50605.6,0.611061,0.610754,0.350182,76,0.0397548,10,0.000213875,-3.45571,0.32272,0.182821,0.6106,
2,1,0,1,0,50606.4,0.615056,0.614751,0.36189,76,0.0400453,10,0.000222472,-3.44142,0.247871,0.238027,0.614592,
2,1,0,1,0,50607.2,0.619051,0.618754,0.373997,76,0.0403459,10,0.000231412,-3.42713,0.265966,0.221833,0.61859,
2,1,0,1,0,50608,0.623047,0.622716,0.390116,76,0.0406573,10,0.000242932,-3.40881,0.225211,0.261977,0.622545,
2,1,0,0,0,50608.8,0.627042,0.626714,0.406949,76,0.0409815,10,0.000255041,-3.39046,0.189384,0.311536,0.626535,
2,1,0,1,0,50609.6,0.631037,0.630768,0.427171,76,0.0413208,10,0.000269446,-3.3694,0.197752,0.298353,0.63058,
2,1,0,1,0,50610.4,0.635032,0.634757,0.449992,76,0.0416769,10,0.000285636,-3.34679,0.165998,0.355427,0.634559,
2,1,0,1,0,50611.2,0.639027,0.63869,0.476226,76,0.0420527,10,0.000304161,-3.32219,0.150347,0.392425,0.638481,
2,1,0,1,0,50612,0.643022,0.642721,0.5081,76,0.042452,10,0.000326566,-3.29405,0.136739,0.43148,0.642497,
2,1,0,0,0,50612.8,0.647018,0.646692,0.544258,76,0.0428786,10,0.000351968,-3.26419,0.126585,0.466091,0.646453,
2,1,0,1,0,50613.6,0.651013,0.65077,0.585561,76,0.043336,10,0.000381065,-3.23243,0.11887,0.496342,0.650512,
2,1,0,1,0,50614.4,0.655008,0.65468,0.636054,76,0.04383,10,0.000416412,-3.19651,0.107609,0.548281,0.6544,
2,1,0,1,0,50615.2,0.659003,0.658698,0.693184,76,0.0443669,10,0.000456599,-3.15915,0.106288,0.555093,0.658393,
2,1,0,1,0,50616,0.662998,0.662687,0.759541,76,0.0449526,10,0.000503338,-3.11945,0.0952839,0.619202,0.662353,
2,1,0,0,0,50616.8,0.666994,0.666646,0.835748,76,0.0455954,10,0.000557148,-3.07792,0.0923479,0.638889,0.666278,
2,1,0,1,0,50617.6,0.670989,0.670659,0.923531,76,0.0463038,10,0.000619374,-3.03455,0.0929128,0.635004,0.670252,
2,1,0,0,0,50618.4,0.674984,0.674706,1.02313,76,0.0470867,10,0.000690313,-2.99007,0.0869113,0.678853,0.674256,
2,1,0,1,0,50619.2,0.67898,0.678703,1.1352,76,0.047954,10,0.000770462,-2.94493,0.0863752,0.683067,0.678204,
2,1,0,1,0,50620,0.682974,0.682717,1.26238,76,0.0489172,10,0.000861849,-2.89881,0.083317,0.708139,0.682161,
2,1,0,1,0,50620.8,0.686969,0.686685,1.40546,76,0.0499881,10,0.000965107,-2.85218,0.0856142,0.689138,0.686067,
2,1,0,1,0,50621.6,0.690965,0.690684,1.56305,76,0.0511794,10,0.00107957,-2.80603,0.0847459,0.696199,0.689997,
2,1,0,0,0,50622.4,0.69496,0.694687,1.73937,76,0.0525037,10,0.00120832,-2.75961,0.0849,0.694935,0.693922,
2,1,0,1,0,50623.2,0.698955,0.698704,1.93214,76,0.0539755,10,0.00134999,-2.71396,0.0859814,0.686195,0.697854,
2,1,0,1,0,50624,0.70295,0.702631,2.14244,76,0.0556086,10,0.00150534,-2.66909,0.0870995,0.677387,0.701689,
2,1,0,1,0,50624.8,0.706945,0.706689,2.37186,76,0.0574169,10,0.00167617,-2.62491,0.0901424,0.65452,0.705646,
2,1,0,1,0,50625.6,0.71094,0.71064,2.6166,76,0.0594148,10,0.00185946,-2.58226,0.091624,0.643936,0.709488,
2,1,0,0,0,50626.4,0.714936,0.71461,2.88131,76,0.0616168,10,0.00205901,-2.54041,0.094474,0.62451,0.713343,
2,1,0,1,0,50627.2,0.718931,0.718661,3.1621,76,0.0640361,10,0.00227248,-2.50002,0.0967245,0.60998,0.71727,
2,1,0,1,0,50628,0.722927,0.722584,3.46465,76,0.0666894,10,0.0025035,-2.46034,0.0987008,0.597766,0.721059,
2,1,0,1,0,50628.8,0.726921,0.726617,3.78489,76,0.0695908,10,0.00275017,-2.42195,0.101612,0.58064,0.724952,
2,1,0,1,0,50629.6,0.730916,0.730603,4.12341,76,0.0727551,10,0.00301258,-2.38474,0.105862,0.557332,0.728789,
2,1,0,1,0,50630.4,0.734911,0.73459,4.48081,76,0.0761981,10,0.00329156,-2.34864,0.107922,0.546692,0.732618,
2,1,0,1,0,50631.2,0.738907,0.738646,4.85976,76,0.0799354,10,0.00358964,-2.31339,0.107876,0.546923,0.736508,
2,1,0,0,0,50632,0.742902,0.742609,5.25882,76,0.0839829,10,0.00390525,-2.27911,0.114488,0.515338,0.740295,
2,1,0,1,0,50632.8,0.746897,0.746591,5.67959,76,0.0883586,10,0.00424033,-2.24568,0.113962,0.517716,0.744092,
2,1,0,1,0,50633.6,0.750892,0.750576,6.12199,76,0.0930785,10,0.00459502,-2.21311,0.11952,0.493642,0.747882,
2,1,0,1,0,50634.4,0.754887,0.754645,6.58693,76,0.0981614,10,0.00497079,-2.18132,0.118747,0.496853,0.751746,
2,1,0,1,0,50635.1,0.758883,0.758646,7.07914,76,0.103627,10,0.00537056,-2.15002,0.122441,0.481866,0.755531,
2,1,0,0,0,50635.9,0.762878,0.762621,7.59671,76,0.109496,10,0.00579341,-2.11937,0.122223,0.482725,0.759279,
2,1,0,1,0,50636.7,0.766873,0.76656,8.14099,76,0.115788,10,0.00624055,-2.08932,0.128584,0.458846,0.762978,
2,1,0,1,0,50637.5,0.770868,0.770571,8.71502,76,0.122527,10,0.00671554,-2.05973,0.126006,0.46823,0.766737,
2,1,0,1,0,50638.3,0.774863,0.774554,9.31732,76,0.129736,10,0.00721676,-2.03071,0.129326,0.456212,0.770454,
2,1,0,1,0,50639.1,0.778858,0.778597,9.95673,76,0.137441,10,0.00775228,-2.00188,0.127249,0.463658,0.774216,
2,1,0,0,0,50639.9,0.782854,0.782554,10.6368,76,0.145674,10,0.00832387,-1.97319,0.130659,0.451557,0.777874,
2,1,0,1,0,50640.7,0.786849,0.786563,11.3506,76,0.154463,10,0.00892799,-1.94498,0.130295,0.45282,0.781569,
2,1,0,0,0,50641.5,0.790844,0.790565,12.1223,76,0.163844,10,0.00958347,-1.91641,0.128036,0.460808,0.785231,
2,1,0,1,0,50642.3,0.794839,0.794577,12.9416,76,0.173863,10,0.0102831,-1.88801,0.127876,0.461385,0.788882,
2,1,0,1,0,50643.1,0.798834,0.798517,13.8113,76,0.184555,10,0.0110286,-1.85977,0.126083,0.467946,0.79244,
2,1,0,1,0,50643.9,0.802829,0.802534,14.747,76,0.19597,10,0.0118349,-1.8313,0.126062,0.468025,0.796045,
2,1,0,1,0,50644.7,0.806825,0.806522,15.723,76,0.20815,10,0.012681,-1.80346,0.127038,0.464429,0.799604,
2,1,0,0,0,50645.5,0.81082,0.810537,16.7517,76,0.221129,10,0.0135779,-1.77594,0.134147,0.439815,0.803166,
2,1,0,1,0,50646.3,0.814815,0.814507,17.8165,76,0.234947,10,0.0145117,-1.74918,0.131044,0.450229,0.806668,
2,1,0,1,0,50647.1,0.81881,0.818502,18.9389,76,0.249637,10,0.0155015,-1.72265,0.12973,0.454792,0.810168,
2,1,0,1,0,50647.9,0.822805,0.82254,20.1209,76,0.265248,10,0.0165503,-1.69635,0.134636,0.438217,0.813687,
2,1,0,1,0,50648.7,0.826801,0.826491,21.344,76,0.281824,10,0.0176406,-1.67072,0.14113,0.418053,0.817099,
2,1,0,0,0,50649.5,0.830796,0.830501,22.5755,76,0.299379,10,0.018749,-1.64636,0.141006,0.418422,0.820568,
2,1,0,1,0,50650.3,0.834791,0.834544,23.8425,76,0.317928,10,0.0198976,-1.62265,0.143499,0.411152,0.824054,
2,1,0,1,0,50651.1,0.838786,0.838512,25.173,76,0.337522,10,0.0211079,-1.59906,0.14824,0.398004,0.827436,
2,1,0,1,0,50651.9,0.842781,0.842474,26.5206,76,0.358186,10,0.0223429,-1.57642,0.158065,0.373265,0.830805,
2,1,0,1,0,50652.7,0.846776,0.846538,27.887,76,0.379915,10,0.0236074,-1.5546,0.156508,0.376979,0.834268,
2,1,0,1,0,50653.4,0.849723,0.849478,28.7798,76,0.399835,10,0.0244478,-1.54091,-0.100541,-0.586823,0.836815,
2,1,0,0,0,50654.2,0.845728,0.845426,28.5321,76,0.422811,10,0.0241218,-1.54467,0.108533,0.543615,0.832872,
2,1,0,1,0,50655,0.841732,0.841475,26.6499,76,0.44484,10,0.0224253,-1.5743,0.108292,0.544823,0.829749,
2,1,0,1,0,50655.8,0.837737,0.837479,24.8827,76,0.465408,10,0.0208388,-1.6041,0.107854,0.547038,0.826531,
2,1,0,1,0,50656.6,0.833742,0.833446,23.2502,76,0.484618,10,0.0193778,-1.63357,0.117249,0.503202,0.823216,
2,1,0,1,0,50657.4,0.829747,0.829493,21.7783,76,0.502589,10,0.0180649,-1.66198,0.115192,0.512188,0.81991,
2,1,0,0,0,50658.2,0.825752,0.825502,20.3796,76,0.519415,10,0.0168234,-1.6908,0.117619,0.501618,0.816535,
2,1,0,1,0,50659,0.821757,0.821462,19.0812,76,0.535161,10,0.0156744,-1.7194,0.119189,0.495011,0.813066,
2,1,0,1,0,50659.8,0.817761,0.817452,17.824,76,0.549889,10,0.0145703,-1.74899,0.117107,0.503813,0.809609,
2,1,0,1,0,50660.6,0.813766,0.813488,16.6549,76,0.563646,10,0.0135486,-1.77846,0.117057,0.504028,0.806159,
2,1,0,1,0,50661.4,0.809771,0.809478,15.5373,76,0.576495,10,0.0125771,-1.80862,0.116133,0.508036,0.802641,
2,1,0,1,0,50662.2,0.805776,0.805511,14.4849,76,0.588474,10,0.0116678,-1.83908,0.117606,0.501677,0.799138,
2,1,0,1,0,50663,0.801781,0.80152,13.4933,76,0.59964,10,0.0108151,-1.86988,0.11368,0.518999,0.795583,
2,1,0,0,0,50663.8,0.797786,0.797498,12.5611,76,0.610036,10,0.0100175,-1.90097,0.116628,0.50588,0.791971,
2,1,0,1,0,50664.6,0.79379,0.793504,11.6834,76,0.619711,10,0.0092708,-1.93243,0.113761,0.518629,0.788363,
2,1,0,1,0,50665.4,0.789795,0.789512,10.859,76,0.628705,10,0.0085733,-1.96421,0.114276,0.516293,0.784734,
2,1,0,1,0,50666.2,0.7858,0.785447,10.0951,76,0.637065,10,0.00792917,-1.99589,0.11441,0.515689,0.781005,
2,1,0,1,0,50667,0.781805,0.78152,9.36235,76,0.644829,10,0.00731686,-2.02862,0.113895,0.518019,0.7774,
2,1,0,0,0,50667.8,0.77781,0.777562,8.68239,76,0.652027,10,0.0067511,-2.06136,0.111719,0.528111,0.773742,
2,1,0,1,0,50668.6,0.773814,0.773507,8.04584,76,0.6587,10,0.00622352,-2.09443,0.112355,0.52512,0.769967,
2,1,0,1,0,50669.4,0.769819,0.769534,7.44929,76,0.664882,10,0.00573248,-2.12789,0.109365,0.53948,0.766256,
2,1,0,1,0,50670.2,0.765824,0.765563,6.88973,76,0.6706,10,0.00527452,-2.1618,0.111734,0.528039,0.762531,
2,1,0,1,0,50671,0.761829,0.761535,6.36175,76,0.675884,10,0.0048447,-2.19642,0.106603,0.553454,0.758735,
2,1,0,0,0,50671.8,0.757834,0.757543,5.86619,76,0.68076,10,0.00444389,-2.23164,0.10734,0.549653,0.754962,
2,1,0,1,0,50672.6,0.753839,0.753534,5.39974,76,0.685251,10,0.00406889,-2.26763,0.103667,0.56913,0.751158,
2,1,0,0,0,50673.4,0.749844,0.749525,4.96282,76,0.689382,10,0.00371976,-2.30427,0.10184,0.579338,0.747342,
2,1,0,1,0,50674.2,0.745848,0.745575,4.5447,76,0.69317,10,0.00338842,-2.34249,0.1009,0.584738,0.743575,
2,1,0,1,0,50675,0.741853,0.741569,4.16183,76,0.69664,10,0.00308628,-2.38072,0.0987859,0.597251,0.739738,
2,1,0,1,0,50675.8,0.737858,0.73754,3.80296,76,0.699814,10,0.00280484,-2.41988,0.0964205,0.611903,0.735867,
2,1,0,1,0,50676.6,0.733863,0.733573,3.46461,76,0.702709,10,0.00254155,-2.46035,0.0927811,0.635905,0.732049,
2,1,0,0,0,50677.4,0.729868,0.729573,3.14537,76,0.705341,10,0.00229477,-2.50233,0.0918842,0.642113,0.728189,
2,1,0,1,0,50678.2,0.725872,0.725604,2.85043,76,0.707729,10,0.00206828,-2.54509,0.0888716,0.663879,0.72435,
2,1,0,1,0,50679,0.721877,0.721607,2.57034,76,0.709886,10,0.00185478,-2.59001,0.0837883,0.704155,0.720476,
2,1,0,1,0,50679.8,0.717882,0.717589,2.31169,76,0.711829,10,0.00165885,-2.63607,0.0825697,0.714547,0.716572,
2,1,0,1,0,50680.6,0.713887,0.713571,2.06907,76,0.713571,10,0.00147642,-2.68423,0.0796956,0.740317,0.712661,
2,1,0,0,0,50681.4,0.709892,0.709591,1.84527,76,0.715128,10,0.00130939,-2.73394,0.0777789,0.75856,0.708779,
2,1,0,1,0,50682.2,0.705897,0.705607,1.63698,76,0.716512,10,0.00115507,-2.78596,0.0738582,0.798828,0.704887,
2,1,0,1,0,50683,0.701901,0.701569,1.44687,76,0.717736,10,0.00101508,-2.83957,0.070249,0.83987,0.700932,
2,1,0,1,0,50683.8,0.697906,0.697624,1.26951,76,0.718813,10,0.00088564,-2.89636,0.0679726,0.867997,0.697066,
2,1,0,1,0,50684.6,0.693911,0.693634,1.10757,76,0.719755,10,0.000768249,-2.95563,0.0649575,0.908286,0.693146,
2,1,0,0,0,50685.4,0.689916,0.68964,0.960903,76,0.720573,10,0.000662677,-3.01732,0.062158,0.949193,0.689217,
2,1,0,1,0,50686.2,0.685921,0.685634,0.827522,76,0.72128,10,0.000567377,-3.08222,0.059695,0.988358,0.685269,
2,1,0,0,0,50687,0.681926,0.6816,0.707398,76,0.721886,10,0.000482163,-3.15034,0.0553691,1.06558,0.681289,
2,1,0,1,0,50687.8,0.67793,0.677646,0.598948,76,0.722401,10,0.000405875,-3.22261,0.0543707,1.08514,0.677383,
2,1,0,1,0,50688.6,0.673935,0.673686,0.505111,76,0.722834,10,0.000340286,-3.29661,0.0515056,1.14551,0.673464,
2,1,0,1,0,50689.4,0.66994,0.669675,0.420998,76,0.723196,10,0.000281932,-3.37572,0.0477396,1.23587,0.669489,
2,1,0,1,0,50690.2,0.665945,0.665642,0.345367,76,0.723495,10,0.000229891,-3.46172,0.0461249,1.27913,0.66549,
2,1,0,0,0,50691,0.66195,0.661648,0.281225,76,0.723738,10,0.000186072,-3.55095,0.0424212,1.39081,0.661525,
2,1,0,1,0,50691.8,0.657955,0.657626,0.224746,76,0.723932,10,0.000147799,-3.64831,0.0399226,1.47786,0.657527,
2,1,0,1,0,50692.6,0.653959,0.653627,0.175712,76,0.724086,10,0.00011485,-3.7552,0.0357507,1.65032,0.65355,
2,1,0,1,0,50693.4,0.649964,0.649667,0.135158,76,0.724203,10,8.78077e-05,-3.86916,0.0307581,1.91819,0.649607,
2,1,0,1,0,50694.2,0.64597,0.645665,0.0990143,76,0.724289,10,6.39301e-05,-4.0043,0.0292611,2.01633,0.645622,
2,1,0,0,0,50695,0.641974,0.641693,0.0687569,76,0.724349,10,4.41208e-05,-4.16268,0.0223036,2.64531,0.641662,
2,1,0,1,0,50695.8,0.637979,0.637702,0.0440915,76,0.724387,10,2.81172e-05,-4.35565,0.0166468,3.54422,0.637683,
2,1,0,1,0,50696.6,0.633983,0.63366,0.0213985,76,0.724405,10,1.35594e-05,-4.66962,0.0103175,5.71843,0.633651,
2,0,0,1,0,50697.4,0.629988,0.629689,0.0039176,76,0.724408,10,2.46687e-06,-5.40698,0.0087143,6.77048,0.629687,
2,0,0,1,0,50698.2,0.625993,0.625725,-0.0117852,76,0.724398,10,-7.37429e-06,-4.92866,-0.00659019,-8.9527,0.62573,
2,0,0,0,0,50699,0.621998,0.621692,-0.0241479,76,0.724377,10,-1.50126e-05,-4.61712,-0.0201385,-2.92971,0.621703,
2,0,0,1,0,50699.8,0.618003,0.61769,-0.0345924,76,0.724346,10,-2.13674e-05,-4.46102,-0.0302852,-1.94815,0.617705,
2,0,0,0,0,50700.6,0.614008,0.613687,-0.0432863,76,0.724308,10,-2.65642e-05,-4.36365,-0.0522753,-1.12864,0.613706,
2,0,0,1,0,50701.4,0.610012,0.609685,-0.0511358,76,0.724263,10,-3.11767e-05,-4.29127,-0.0724287,-0.814594,0.609707,
2,0,0,1,0,50702.2,0.606017,0.605685,-0.0563404,76,0.724213,10,-3.41245e-05,-4.24918,-0.0843372,-0.699573,0.60571,
2,0,0,1,0,50703,0.602022,0.601693,-0.062592,76,0.724158,10,-3.76612e-05,-4.20348,-0.129671,-0.454999,0.601721,
2,0,0,1,0,50703.8,0.598027,0.597714,-0.0667076,76,0.724099,10,-3.98721e-05,-4.17582,-0.116777,-0.505235,0.597744,
2,0,0,0,0,50704.6,0.594032,0.593772,-0.0713026,76,0.724036,10,-4.23375e-05,-4.14689,-0.219797,-0.268429,0.593803,
2,0,0,1,0,50705.4,0.590037,0.589711,-0.0751497,76,0.72397,10,-4.43167e-05,-4.12407,-0.196503,-0.30025,0.589744,
2,0,0,1,0,50706.2,0.586041,0.585735,-0.0780483,76,0.723902,10,-4.57156e-05,-4.10764,-0.209422,-0.281728,0.58577,
2,0,0,1,0,50707,0.582046,0.581747,-0.0802139,76,0.723831,10,-4.66642e-05,-4.09575,-0.404349,-0.145914,0.581782,
2,0,0,1,0,50707.8,0.578052,0.577751,-0.0824018,76,0.723759,10,-4.76078e-05,-4.08406,-0.299366,-0.197083,0.577788,
2,0,0,0,0,50708.6,0.574056,0.573741,-0.0840586,76,0.723684,10,-4.82278e-05,-4.07542,-0.683489,-0.0863218,0.573778,
2,0,0,1,0,50709.4,0.570061,0.569748,-0.0865924,76,0.723608,10,-4.93359e-05,-4.06252,-0.486166,-0.121358,0.569786,
2,0,0,1,0,50710.2,0.566065,0.56577,-0.0875617,76,0.723531,10,-4.95398e-05,-4.05769,-0.37387,-0.157809,0.565809,
2,0,0,1,0,50711,0.56207,0.561746,-0.0898646,76,0.723453,10,-5.04811e-05,-4.04641,-0.592982,-0.0994971,0.561786,
2,0,0,1,0,50711.8,0.558075,0.557757,-0.0916675,76,0.723373,10,-5.11282e-05,-4.03778,-0.474352,-0.12438,0.557798,
2,0,0,1,0,50712.6,0.55408,0.553788,-0.0919321,76,0.723292,10,-5.09109e-05,-4.03653,-0.541441,-0.108968,0.553829,
2,0,0,1,0,50713.4,0.550085,0.54978,-0.0937949,76,0.72321,10,-5.15665e-05,-4.02782,-1.08334,-0.0544611,0.549821,
2,0,0,0,0,50714.2,0.54609,0.545815,-0.0943176,76,0.723127,10,-5.14799e-05,-4.02541,-0.47758,-0.12354,0.545856,
2,0,0,1,0,50715,0.542094,0.541752,-0.0958774,76,0.723043,10,-5.19417e-05,-4.01828,-1.64044,-0.035966,0.541794,
2,0,0,1,0,50715.8,0.538099,0.537778,-0.0971939,76,0.722958,10,-5.22687e-05,-4.01236,-3.54863,-0.0166261,0.537821,
2,0,0,1,0,50716.6,0.534104,0.53383,-0.0986039,76,0.722873,10,-5.26378e-05,-4.00611,-0.801195,-0.07364,0.533874,
2,0,0,1,0,50717.4,0.530109,0.529724,-0.0996252,76,0.722786,10,-5.27739e-05,-4.00163,-0.45925,-0.12847,0.529768,
2,0,0,0,0,50718.1,0.526114,0.525794,-0.10128,76,0.722699,10,-5.32525e-05,-3.99448,-0.772966,-0.0763293,0.525839,
2,0,0,1,0,50718.9,0.522119,0.521781,-0.101722,76,0.72261,10,-5.30764e-05,-3.99259,-0.695959,-0.0847751,0.521825,
2,0,0,1,0,50719.7,0.518123,0.517784,-0.103572,76,0.722521,10,-5.36282e-05,-3.98476,-0.951953,-0.0619779,0.51783,
2,0,0,1,0,50720.5,0.514128,0.513804,-0.104641,76,0.72243,10,-5.3765e-05,-3.9803,-0.792512,-0.0744468,0.51385,
2,0,0,1,0,50721.3,0.510133,0.509826,-0.104579,76,0.722339,10,-5.33173e-05,-3.98055,-1.48496,-0.0397317,0.509872,
2,0,0,0,0,50722.1,0.506138,0.505835,-0.105959,76,0.722247,10,-5.35978e-05,-3.97486,-2.11464,-0.0279008,0.505882,
2,0,0,1,0,50722.9,0.502143,0.501822,-0.107138,76,0.722154,10,-5.37643e-05,-3.97006,-0.351094,-0.168046,0.501869,
2,0,0,0,0,50723.7,0.498148,0.497794,-0.108754,76,0.72206,10,-5.41371e-05,-3.96356,-1.10953,-0.0531758,0.497842,
2,0,0,1,0,50724.5,0.494152,0.493858,-0.109503,76,0.721965,10,-5.40791e-05,-3.96057,-1.763,-0.0334656,0.493906,
2,0,0,1,0,50725.3,0.490157,0.489895,-0.110927,76,0.721869,10,-5.43425e-05,-3.95496,-0.878656,-0.067148,0.489944,
2,0,0,1,0,50726.1,0.486162,0.485822,-0.112443,76,0.721772,10,-5.46271e-05,-3.94907,-0.499918,-0.118019,0.485871,
2,0,0,1,0,50726.9,0.482167,0.481857,-0.113387,76,0.721674,10,-5.46362e-05,-3.94544,-0.942741,-0.0625835,0.481907,
2,0,0,0,0,50727.7,0.478172,0.477837,-0.114503,76,0.721574,10,-5.47137e-05,-3.94118,-1.10941,-0.0531815,0.477888,
2,0,0,1,0,50728.5,0.474177,0.473888,-0.116415,76,0.721474,10,-5.51677e-05,-3.93399,-0.906026,-0.0651195,0.47394,
2,0,0,1,0,50729.3,0.470181,0.469866,-0.117562,76,0.721372,10,-5.52386e-05,-3.92973,-0.577246,-0.102209,0.469918,
2,0,0,1,0,50730.1,0.466186,0.465877,-0.119036,76,0.72127,10,-5.54562e-05,-3.92432,-0.873483,-0.0675456,0.46593,
2,0,0,1,0,50730.9,0.462191,0.46186,-0.120842,76,0.721166,10,-5.58122e-05,-3.91778,-0.7496,-0.0787086,0.461913,
2,0,0,0,0,50731.7,0.458196,0.457911,-0.122285,76,0.721061,10,-5.59958e-05,-3.91263,-0.759369,-0.0776961,0.457965,
2,0,0,1,0,50732.5,0.454201,0.453907,-0.123999,76,0.720954,10,-5.62841e-05,-3.90658,-1.25671,-0.046948,0.453962,
2,0,0,1,0,50733.3,0.450205,0.449871,-0.125646,76,0.720846,10,-5.65244e-05,-3.90085,-0.363571,-0.162279,0.449926,
2,0,0,1,0,50734.1,0.44621,0.44591,-0.125784,76,0.720737,10,-5.60884e-05,-3.90037,-1.02949,-0.0573102,0.445966,
2,0,0,1,0,50734.9,0.442215,0.441919,-0.128702,76,0.720627,10,-5.68759e-05,-3.89042,-1.22624,-0.0481144,0.441976,
2,0,0,0,0,50735.7,0.43822,0.437889,-0.130633,76,0.720514,10,-5.72028e-05,-3.88395,-0.575835,-0.10246,0.437946,
2,0,0,1,0,50736.5,0.434225,0.433961,-0.132538,76,0.720401,10,-5.75165e-05,-3.87766,-0.417303,-0.141384,0.434019,
2,0,0,0,0,50737.3,0.43023,0.429939,-0.134368,76,0.720286,10,-5.77702e-05,-3.8717,-1.12246,-0.0525633,0.429998,
2,0,0,1,0,50738.1,0.426234,0.425927,-0.13579,76,0.72017,10,-5.78368e-05,-3.86713,-0.533242,-0.110644,0.425987,
2,0,0,1,0,50738.9,0.422239,0.421916,-0.137488,76,0.720052,10,-5.80085e-05,-3.86173,-1.06091,-0.0556126,0.421976,
2,0,0,1,0,50739.7,0.418244,0.417982,-0.139901,76,0.719933,10,-5.84762e-05,-3.85418,-0.691138,-0.0853665,0.418044,
2,0,0,1,0,50740.5,0.414249,0.413929,-0.141407,76,0.719812,10,-5.85326e-05,-3.84953,-0.47371,-0.124549,0.413991,
2,0,0,0,0,50741.3,0.410254,0.409926,-0.143179,76,0.719689,10,-5.86926e-05,-3.84412,-4.15119,-0.0142128,0.409989,
2,0,0,1,0,50742.1,0.406259,0.405956,-0.145862,76,0.719565,10,-5.92134e-05,-3.83606,-0.400882,-0.147176,0.40602,
2,0,0,1,0,50742.9,0.402263,0.401965,-0.147367,76,0.719438,10,-5.92364e-05,-3.8316,-0.991818,-0.0594867,0.40203,
2,0,0,1,0,50743.7,0.398268,0.397956,-0.149773,76,0.719311,10,-5.9603e-05,-3.82457,-0.462293,-0.127625,0.398022,
2,0,0,1,0,50744.5,0.394274,0.393945,-0.151438,76,0.719182,10,-5.96583e-05,-3.81976,-1.01298,-0.0582442,0.394011,
2,0,0,0,0,50745.3,0.390278,0.389989,-0.154262,76,0.719051,10,-6.01605e-05,-3.81174,-0.624762,-0.094436,0.390057,
2,0,0,1,0,50746.1,0.386283,0.385957,-0.156169,76,0.718918,10,-6.02745e-05,-3.80641,-0.635141,-0.0928928,0.386026,
2,0,0,1,0,50746.9,0.382287,0.381977,-0.158254,76,0.718784,10,-6.04493e-05,-3.80065,-0.624412,-0.0944889,0.382047,
2,0,0,1,0,50747.7,0.378292,0.377987,-0.160549,76,0.718647,10,-6.06855e-05,-3.79439,-1.39957,-0.0421558,0.378058,
2,0,0,1,0,50748.5,0.374297,0.373977,-0.162162,76,0.718509,10,-6.0645e-05,-3.79005,-0.505351,-0.116751,0.374049,
2,0,0,1,0,50749.3,0.370303,0.369978,-0.164476,76,0.718369,10,-6.08524e-05,-3.7839,-0.630696,-0.0935474,0.37005,
2,0,0,1,0,50750.1,0.366307,0.366016,-0.16661,76,0.718228,10,-6.09821e-05,-3.7783,-1.09967,-0.0536524,0.36609,
2,0,0,0,0,50750.9,0.362312,0.362016,-0.169042,76,0.718084,10,-6.1196e-05,-3.772,-0.529297,-0.111469,0.36209,
2,0,0,1,0,50751.7,0.358316,0.35803,-0.170406,76,0.717939,10,-6.10104e-05,-3.76852,-0.987906,-0.0597223,0.358105,
2,0,0,1,0,50752.5,0.354321,0.353997,-0.173356,76,0.717792,10,-6.13676e-05,-3.76106,-0.650745,-0.0906653,0.354073,
2,0,0,1,0,50753.3,0.350327,0.350012,-0.174815,76,0.717643,10,-6.11874e-05,-3.75742,-0.61255,-0.0963187,0.350089,
2,0,0,1,0,50754.1,0.346331,0.345986,-0.177264,76,0.717492,10,-6.13309e-05,-3.75138,-1.46025,-0.0404041,0.346064,
2,0,0,0,0,50754.9,0.342336,0.342036,-0.180166,76,0.71734,10,-6.16232e-05,-3.74433,-0.553005,-0.10669,0.342116,
2,0,0,1,0,50755.7,0.338341,0.338019,-0.182497,76,0.717185,10,-6.16872e-05,-3.73875,-0.601221,-0.0981336,0.338099,
2,0,0,1,0,50756.5,0.334345,0.334056,-0.184513,76,0.717028,10,-6.16375e-05,-3.73397,-0.665546,-0.088649,0.334137,
2,0,0,1,0,50757.3,0.33035,0.329971,-0.187142,76,0.71687,10,-6.17516e-05,-3.72783,-0.879825,-0.0670588,0.330054,
2,0,0,1,0,50758.1,0.326355,0.326056,-0.189581,76,0.71671,10,-6.18142e-05,-3.7222,-0.724931,-0.0813871,0.32614,
2,0,0,0,0,50758.9,0.32236,0.321981,-0.192043,76,0.716547,10,-6.18341e-05,-3.7166,-0.845871,-0.0697506,0.322065,
2,0,0,1,0,50759.7,0.318365,0.318053,-0.193312,76,0.716382,10,-6.14834e-05,-3.71374,-1.00926,-0.0584588,0.318138,
2,0,0,0,0,50760.5,0.31437,0.314036,-0.196969,76,0.716216,10,-6.18554e-05,-3.7056,-1.02407,-0.0576134,0.314123,
2,0,0,1,0,50761.3,0.310374,0.310025,-0.199623,76,0.716048,10,-6.18882e-05,-3.69979,-0.478358,-0.123339,0.310113,
2,0,0,1,0,50762.1,0.306379,0.306052,-0.201968,76,0.715877,10,-6.18127e-05,-3.69472,-0.721966,-0.0817213,0.306141,
2,0,0,1,0,50762.9,0.302385,0.302073,-0.204469,76,0.715705,10,-6.17647e-05,-3.68937,-0.758623,-0.0777725,0.302163,
2,0,0,1,0,50763.7,0.298389,0.298082,-0.207303,76,0.71553,10,-6.17932e-05,-3.68339,-0.542748,-0.108706,0.298173,
2,0,0,0,0,50764.5,0.294394,0.294052,-0.209391,76,0.715353,10,-6.15718e-05,-3.67904,-0.866868,-0.0680611,0.294144,
2,0,0,1,0,50765.3,0.290398,0.29008,-0.212026,76,0.715174,10,-6.15045e-05,-3.67361,-0.844936,-0.0698278,0.290174,
2,0,0,1,0,50766.1,0.286403,0.286067,-0.21346,76,0.714993,10,-6.10639e-05,-3.67068,-0.877802,-0.0672133,0.286161,
2,0,0,1,0,50766.9,0.282408,0.282064,-0.216745,76,0.71481,10,-6.11361e-05,-3.66405,-0.813355,-0.0725391,0.28216,
2,0,0,1,0,50767.7,0.278414,0.27814,-0.220387,76,0.714625,10,-6.12983e-05,-3.65681,-0.702766,-0.083954,0.278237,
2,0,0,0,0,50768.5,0.274418,0.274097,-0.222818,76,0.714437,10,-6.10738e-05,-3.65205,-0.633585,-0.0931208,0.274195,
2,0,0,1,0,50769.3,0.270423,0.270079,-0.226087,76,0.714248,10,-6.10613e-05,-3.64573,-0.719094,-0.0820477,0.270179,
2,0,0,1,0,50770.1,0.266427,0.266089,-0.227126,76,0.714056,10,-6.04356e-05,-3.64373,-0.716007,-0.0824014,0.266189,
2,0,0,1,0,50770.9,0.262432,0.262123,-0.231138,76,0.713862,10,-6.05865e-05,-3.63613,-0.950174,-0.0620939,0.262225,
2,0,0,1,0,50771.7,0.258437,0.25808,-0.232723,76,0.713666,10,-6.00611e-05,-3.63316,-0.784078,-0.0752476,0.258182,
2,0,0,0,0,50772.5,0.254442,0.254149,-0.233829,76,0.713468,10,-5.94275e-05,-3.6311,-0.870295,-0.0677931,0.254252,
2,0,0,1,0,50773.3,0.250447,0.250159,-0.237566,76,0.713268,10,-5.94292e-05,-3.62422,-1.55508,-0.0379402,0.250263,
2,0,0,0,0,50774.1,0.246452,0.246101,-0.241058,76,0.713066,10,-5.93246e-05,-3.61788,-0.707757,-0.083362,0.246208,
2,0,0,1,0,50774.9,0.242456,0.242146,-0.243686,76,0.712861,10,-5.90075e-05,-3.61317,-0.870343,-0.0677894,0.242253,
2,0,0,1,0,50775.7,0.238461,0.238177,-0.245825,76,0.712655,10,-5.85499e-05,-3.60937,-0.868899,-0.067902,0.238285,
2,0,0,1,0,50776.5,0.234467,0.234132,-0.247962,76,0.712447,10,-5.80559e-05,-3.60561,-0.92268,-0.0639442,0.234241,
2,0,0,1,0,50777.3,0.230471,0.230099,-0.250379,76,0.712237,10,-5.7612e-05,-3.6014,-0.85332,-0.0691417,0.230209,
2,0,0,0,0,50778.1,0.226476,0.226202,-0.253502,76,0.712025,10,-5.73427e-05,-3.59602,-0.932283,-0.0632855,0.226313,
2,0,0,1,0,50778.9,0.222481,0.222212,-0.254515,76,0.711811,10,-5.65561e-05,-3.59429,-1.03985,-0.0567387,0.222324,
2,0,0,1,0,50779.7,0.218485,0.21817,-0.259074,76,0.711594,10,-5.65221e-05,-3.58658,-1.04749,-0.0563254,0.218284,
2,0,0,1,0,50780.5,0.21449,0.21417,-0.261704,76,0.711376,10,-5.60491e-05,-3.58219,-0.623698,-0.0945971,0.214285,
2,0,0,1,0,50781.3,0.210496,0.210194,-0.264185,76,0.711155,10,-5.55301e-05,-3.57809,-0.859665,-0.0686314,0.210311,
2,0,0,0,0,50782.1,0.2065,0.206144,-0.268224,76,0.710931,10,-5.52928e-05,-3.5715,-1.32068,-0.044674,0.206262,
2,0,0,1,0,50782.9,0.202505,0.202195,-0.269859,76,0.710706,10,-5.45643e-05,-3.56886,-0.659301,-0.0894887,0.202314,
2,0,0,1,0,50783.7,0.198509,0.198187,-0.273657,76,0.710478,10,-5.42352e-05,-3.56279,-0.681386,-0.0865882,0.198307,
2,0,0,1,0,50784.5,0.194514,0.194198,-0.276728,76,0.710247,10,-5.37399e-05,-3.55795,-0.902,-0.0654102,0.194319,
2,0,0,1,0,50785.3,0.190519,0.190183,-0.278652,76,0.710014,10,-5.29949e-05,-3.55494,-0.543943,-0.108467,0.190306,
2,0,0,0,0,50786.1,0.186524,0.186203,-0.284964,76,0.709777,10,-5.30612e-05,-3.54521,-1.78904,-0.0329786,0.186329,
2,0,0,1,0,50786.9,0.182529,0.182184,-0.288388,76,0.709537,10,-5.25398e-05,-3.54002,-0.412855,-0.142907,0.182311,
2,0,0,0,0,50787.7,0.178534,0.178207,-0.294254,76,0.709293,10,-5.2438e-05,-3.53128,-0.498685,-0.118311,0.178336,
2,0,0,1,0,50788.5,0.174538,0.174191,-0.299375,76,0.709045,10,-5.21483e-05,-3.52378,-0.447086,-0.131966,0.174322,
2,0,0,1,0,50789.3,0.170543,0.170203,-0.305277,76,0.708792,10,-5.1959e-05,-3.51531,-0.345198,-0.170916,0.170337,
2,0,0,1,0,50790.1,0.166549,0.166214,-0.312943,76,0.708533,10,-5.20155e-05,-3.50453,-0.355111,-0.166145,0.166352,
2,0,0,1,0,50790.9,0.162553,0.162249,-0.322306,76,0.708267,10,-5.22937e-05,-3.49173,-0.303942,-0.194116,0.162391,
2,0,0,0,0,50791.7,0.158558,0.158225,-0.332815,76,0.707993,10,-5.26595e-05,-3.4778,-0.262509,-0.224754,0.158371,
2,0,0,1,0,50792.5,0.154563,0.154223,-0.348447,76,0.707708,10,-5.37384e-05,-3.45786,-0.202352,-0.29157,0.154376,
2,0,0,1,0,50793.3,0.150567,0.150236,-0.367474,76,0.707411,10,-5.52079e-05,-3.43477,-0.142495,-0.414048,0.150398,
2,0,0,1,0,50794.1,0.146572,0.146256,-0.393155,76,0.707095,10,-5.75012e-05,-3.40544,-0.126152,-0.467691,0.146429,
2,0,0,1,0,50794.9,0.142578,0.142247,-0.426882,76,0.706757,10,-6.07226e-05,-3.36969,-0.104469,-0.564759,0.142435,
2,0,0,0,0,50795.7,0.138582,0.138242,-0.466582,76,0.706388,10,-6.45013e-05,-3.33107,-0.0961989,-0.613313,0.138448,
2,0,0,1,0,50796.5,0.134587,0.13425,-0.513501,76,0.705984,10,-6.89374e-05,-3.28946,-0.0994082,-0.593512,0.134476,
2,0,0,1,0,50797.3,0.130591,0.130271,-0.561211,76,0.705542,10,-7.31094e-05,-3.25087,-0.112616,-0.523902,0.130518,
2,0,0,1,0,50798.1,0.126596,0.126299,-0.601938,76,0.705063,10,-7.6024e-05,-3.22045,-0.140245,-0.420692,0.126564,
2,0,0,1,0,50798.9,0.122602,0.122251,-0.637447,76,0.704553,10,-7.79288e-05,-3.19556,-0.233475,-0.252704,0.122532,
2,0,0,1,0,50799.7,0.118607,0.118265,-0.657009,76,0.704023,10,-7.7701e-05,-3.18243,-0.326128,-0.180911,0.118554,
2,0,0,1,0,50800.5,0.114611,0.114283,-0.668045,76,0.70348,10,-7.63464e-05,-3.17519,-0.988756,-0.0596709,0.114577,
2,0,0,0,0,50801.2,0.110616,0.110307,-0.673899,76,0.702931,10,-7.43357e-05,-3.17141,-2.32747,-0.0253494,0.110603,
2,0,0,1,0,50802,0.10662,0.106318,-0.672669,76,0.70238,10,-7.15171e-05,-3.1722,5.35171,0.0110245,0.106614,
2,0,0,1,0,50802.8,0.102625,0.102337,-0.671149,76,0.701831,10,-6.86833e-05,-3.17318,0.979079,0.0602607,0.102632,
2,0,0,1,0,50803.6,0.0986305,0.0983384,-0.666348,76,0.701284,10,-6.55276e-05,-3.1763,2.12503,0.0277644,0.0986316,
2,0,0,1,0,50804.4,0.0946351,0.0942852,-0.658666,76,0.700741,10,-6.21025e-05,-3.18133,0.92876,0.0635256,0.094575,
2,0,0,0,0,50805.2,0.0906399,0.0902981,-0.654065,76,0.700203,10,-5.90608e-05,-3.18438,0.756469,0.0779939,0.0905859,
2,0,0,1,0,50806,0.0866448,0.0862706,-0.646002,76,0.699672,10,-5.5731e-05,-3.18977,0.742832,0.0794257,0.0865549,
2,0,0,1,0,50806.8,0.0826492,0.0823298,-0.638496,76,0.699147,10,-5.25673e-05,-3.19484,0.728584,0.080979,0.0826107,
2,0,0,1,0,50807.6,0.0786544,0.0783103,-0.630185,76,0.698628,10,-4.93499e-05,-3.20053,0.78753,0.0749178,0.0785876,
2,0,0,1,0,50808.4,0.0746596,0.0743476,-0.621306,76,0.698116,10,-4.61927e-05,-3.20669,0.807657,0.0730508,0.074621,
2,0,0,0,0,50809.2,0.0706641,0.070302,-0.613246,76,0.69761,10,-4.31124e-05,-3.21237,0.608263,0.0969976,0.0705718,
2,0,0,1,0,50810,0.0666689,0.0663668,-0.606616,76,0.697111,10,-4.02592e-05,-3.21709,0.777247,0.0759089,0.0666337,
2,0,0,0,0,50810.8,0.0626737,0.0623733,-0.594892,76,0.696618,10,-3.71054e-05,-3.22556,0.587325,0.100455,0.0626351,
2,0,0,1,0,50811.6,0.0586783,0.0583404,-0.589768,76,0.696131,10,-3.44073e-05,-3.22932,0.56977,0.103551,0.0585999,
2,0,0,1,0,50812.4,0.0546835,0.0544192,-0.580351,76,0.695652,10,-3.15823e-05,-3.23631,0.701357,0.0841226,0.0546746,
2,0,0,1,0,50813.2,0.0506886,0.0503549,-0.572146,76,0.695179,10,-2.88104e-05,-3.24249,0.565018,0.104421,0.0506067,
2,0,0,1,0,50814,0.046693,0.0463729,-0.562285,76,0.694714,10,-2.60748e-05,-3.25004,0.466766,0.126402,0.0466203,
2,0,0,0,0,50814.8,0.0426979,0.0423783,-0.551445,76,0.694258,10,-2.33693e-05,-3.2585,0.701187,0.084143,0.0426209,
2,0,0,1,0,50815.6,0.0387022,0.0383473,-0.541715,76,0.693808,10,-2.07733e-05,-3.26623,0.39704,0.1486,0.0385857,
2,0,0,1,0,50816.4,0.0347074,0.0343838,-0.532987,76,0.693367,10,-1.83261e-05,-3.27328,0.574818,0.102641,0.0346183,
2,0,0,1,0,50817.2,0.0307126,0.0303504,-0.520809,76,0.692933,10,-1.58068e-05,-3.28332,0.643696,0.0916582,0.0305795,
2,0,0,1,0,50818,0.0267172,0.0264033,-0.5157,76,0.692506,10,-1.36162e-05,-3.2876,0.436142,0.135277,0.0266302,
2,0,0,0,0,50818.8,0.022722,0.0223865,-0.507681,76,0.692086,10,-1.13652e-05,-3.29441,1.18706,0.0497028,0.0226098,
2,0,0,1,0,50819.6,0.0187268,0.0183951,-0.501263,76,0.691671,10,-9.22078e-06,-3.29993,0.664269,0.0888194,0.0186156,
2,0,0,1,0,50820.4,0.0147313,0.0144002,-0.497768,76,0.691261,10,-7.16796e-06,-3.30297,2.02316,0.0291623,0.0146192,
2,0,0,1,0,50821.2,0.0107365,0.0103932,-0.493054,76,0.690854,10,-5.12441e-06,-3.30711,1.68847,0.0349428,0.0106101,
2,0,0,1,0,50822,0.00674163,0.00644241,-0.491658,76,0.690448,10,-3.16746e-06,-3.30834,4.90993,0.0120165,0.00665874,
2,0,0,0,0,50822.8,0.00274612,0.00241583,-0.491536,76,0.690043,10,-1.18747e-06,-3.30844,-2.45427,-0.0240398,0.0026321,
2,0,0,1,0,50823.3,0.000274105,-0.000110591,-0.494875,76,0.68979,10,5.47288e-08,-3.3055, , ,0.000107154,