File: Figure_codes/Fig_3-5/workspace_calculate_alpha_eff/20221101_1-115_003_TrumpetPlot_ParaChange_from10_every3_16_CV_C01_15.csv
mode,ox/red,error,control changes,counter inc.,time/s,control/V,Ewe/V,<I>/mA,cycle number,(Q-Qo)/C,I Range,P/W,log(|I|),Tafel slope mV/dec,alpha_eff,E-IR/V,
2,0,0,1,0,11080.8,2.44065e-05,-0.000363498,-0.0376989,16,0.0000000E+000,10,1.37035e-08,-4.42367, , ,-0.000346911,
2,1,0,1,0,11081.5,0.00379485,0.00351335,0.217294,16,0.000151991,10,7.63429e-07,-3.66295,0.0628062,0.939398,0.00341774,
2,1,0,0,0,11082.3,0.00779002,0.00747821,0.239208,16,0.00034878,10,1.78884e-06,-3.62123,0.108234,0.545117,0.00737296,
2,1,0,1,0,11083.1,0.0117852,0.0114664,0.254285,16,0.000560823,10,2.91573e-06,-3.59468,0.155552,0.379294,0.0113545,
2,1,0,1,0,11083.9,0.0157806,0.0154632,0.272219,16,0.000785397,10,4.20939e-06,-3.56508,0.157327,0.375014,0.0153434,
2,1,0,1,0,11084.7,0.0197754,0.0194523,0.284598,16,0.00102127,10,5.53607e-06,-3.54577,0.186147,0.316954,0.019327,
2,1,0,1,0,11085.5,0.0237704,0.0234636,0.29743,16,0.00126857,10,6.97877e-06,-3.52661,0.195518,0.301762,0.0233327,
2,1,0,0,0,11086.3,0.0277659,0.0274679,0.314094,16,0.00152671,10,8.62752e-06,-3.50294,0.206011,0.286393,0.0273297,
2,1,0,1,0,11087.1,0.0317611,0.0314614,0.326488,16,0.00179651,10,1.02718e-05,-3.48613,0.222469,0.265205,0.0313178,
2,1,0,1,0,11087.9,0.0357567,0.0354479,0.341816,16,0.00207765,10,1.21167e-05,-3.46621,0.245782,0.24005,0.0352975,
2,1,0,1,0,11088.7,0.0397516,0.0394507,0.355219,16,0.00236986,10,1.40137e-05,-3.4495,0.189018,0.312139,0.0392944,
2,1,0,1,0,11089.5,0.0437465,0.0434057,0.368525,16,0.00267408,10,1.59961e-05,-3.43353,0.283813,0.207883,0.0432435,
2,1,0,1,0,11090.3,0.0477413,0.0474169,0.38261,16,0.00298863,10,1.81422e-05,-3.41724,0.233451,0.252729,0.0472485,
2,1,0,1,0,11091.1,0.0517369,0.0514002,0.395913,16,0.00331398,10,2.035e-05,-3.4024,0.261936,0.225245,0.051226,
2,1,0,0,0,11091.9,0.0557321,0.0554404,0.409031,16,0.00365061,10,2.26768e-05,-3.38824,0.369996,0.159461,0.0552604,
2,1,0,1,0,11092.7,0.0597277,0.0594312,0.422351,16,0.0039965,10,2.51008e-05,-3.37433,0.324688,0.181713,0.0592453,
2,1,0,1,0,11093.5,0.0637226,0.0633904,0.431616,16,0.00435173,10,2.73603e-05,-3.3649,0.381,0.154856,0.0632004,
2,1,0,1,0,11094.3,0.0677174,0.0673771,0.443554,16,0.0047164,10,2.98854e-05,-3.35305,0.480877,0.122692,0.0671819,
2,1,0,1,0,11095.1,0.0717128,0.0713624,0.453204,16,0.00508835,10,3.23417e-05,-3.34371,0.314097,0.18784,0.071163,
2,1,0,0,0,11095.9,0.075708,0.0754036,0.460803,16,0.00546866,10,3.47462e-05,-3.33648,0.522891,0.112834,0.0752009,
2,1,0,1,0,11096.7,0.0797031,0.0793844,0.472319,16,0.00585593,10,3.74948e-05,-3.32576,0.39994,0.147522,0.0791766,
2,1,0,1,0,11097.5,0.0836986,0.0833846,0.480665,16,0.00625044,10,4.00801e-05,-3.31816,0.413042,0.142843,0.0831731,
2,1,0,1,0,11098.3,0.0876935,0.0873969,0.492229,16,0.00665381,10,4.30193e-05,-3.30783,0.407204,0.14489,0.0871803,
2,1,0,1,0,11099.1,0.0916883,0.0913421,0.508272,16,0.0070674,10,4.64267e-05,-3.2939,0.251956,0.234168,0.0911185,
2,1,0,0,0,11099.9,0.0956838,0.0953573,0.524989,16,0.00749503,10,5.00615e-05,-3.27985,0.243908,0.241895,0.0951263,
2,1,0,1,0,11100.7,0.099679,0.099337,0.55023,16,0.00793929,10,5.46582e-05,-3.25946,0.250325,0.235694,0.0990949,
2,1,0,0,0,11101.5,0.103674,0.103391,0.574305,16,0.00840202,10,5.93779e-05,-3.24086,0.173296,0.340458,0.103138,
2,1,0,1,0,11102.3,0.10767,0.107339,0.598289,16,0.00888591,10,6.42197e-05,-3.22309,0.246898,0.238965,0.107076,
2,1,0,1,0,11103.1,0.111664,0.111348,0.621667,16,0.00938754,10,6.92214e-05,-3.20644,0.283246,0.2083,0.111074,
2,1,0,1,0,11103.9,0.115659,0.115296,0.636931,16,0.00990505,10,7.34353e-05,-3.19591,0.316021,0.186696,0.115015,
2,1,0,1,0,11104.7,0.119655,0.119338,0.654806,16,0.0104372,10,7.81434e-05,-3.18389,0.442483,0.133338,0.11905,
2,1,0,0,0,11105.5,0.12365,0.123333,0.672454,16,0.010982,10,8.29357e-05,-3.17234,0.339716,0.173674,0.123037,
2,1,0,1,0,11106.3,0.127646,0.127364,0.688872,16,0.0115412,10,8.77376e-05,-3.16186,0.398609,0.148015,0.127061,
2,1,0,1,0,11107.1,0.131641,0.131329,0.702338,16,0.0121129,10,9.22372e-05,-3.15345,2.70853,0.021783,0.13102,
2,1,0,1,0,11107.9,0.135635,0.135309,0.696279,16,0.0126875,10,9.42129e-05,-3.15722,-0.530736,-0.111166,0.135003,
2,1,0,1,0,11108.7,0.139631,0.139291,0.667678,16,0.01325,10,9.30015e-05,-3.17543,-0.153617,-0.384073,0.138997,
2,1,0,0,0,11109.5,0.143626,0.143315,0.617854,16,0.0137797,10,8.85479e-05,-3.20911,-0.0896411,-0.65818,0.143043,
2,1,0,1,0,11110.3,0.147621,0.147311,0.549701,16,0.01426,10,8.0977e-05,-3.25987,-0.0780087,-0.756326,0.147069,
2,1,0,1,0,11111.1,0.151617,0.151309,0.487253,16,0.0146881,10,7.37258e-05,-3.31225,-0.0758366,-0.777989,0.151094,
2,1,0,1,0,11111.9,0.155612,0.155287,0.437265,16,0.01507,10,6.79017e-05,-3.35926,-0.0961369,-0.613708,0.155095,
2,1,0,1,0,11112.7,0.159606,0.159283,0.399536,16,0.0154179,10,6.36391e-05,-3.39844,-0.121046,-0.487418,0.159107,
2,1,0,0,0,11113.5,0.163602,0.163317,0.374939,16,0.0157415,10,6.12337e-05,-3.42604,-0.149194,-0.39546,0.163152,
2,1,0,1,0,11114.3,0.167597,0.16728,0.356127,16,0.016047,10,5.95731e-05,-3.4484,-0.236778,-0.249178,0.167124,
2,1,0,0,0,11115.1,0.171592,0.171279,0.34072,16,0.01634,10,5.83583e-05,-3.4676,-0.244896,-0.240919,0.171129,
2,1,0,1,0,11115.9,0.175588,0.175323,0.331841,16,0.0166231,10,5.81794e-05,-3.47907,-0.351497,-0.167853,0.175177,
2,1,0,1,0,11116.7,0.179582,0.179277,0.324367,16,0.0168987,10,5.81515e-05,-3.48896,-0.445717,-0.132371,0.179134,
2,1,0,1,0,11117.5,0.183577,0.183274,0.317843,16,0.0171687,10,5.82525e-05,-3.49779,-0.554827,-0.106339,0.183135,
2,1,0,1,0,11118.3,0.187573,0.187266,0.313039,16,0.017434,10,5.86215e-05,-3.5044,-0.57467,-0.102668,0.187128,
2,1,0,0,0,11119.1,0.191568,0.191259,0.308928,16,0.0176953,10,5.90854e-05,-3.51014,-0.500398,-0.117906,0.191123,
2,1,0,1,0,11119.9,0.195563,0.195252,0.304868,16,0.0179538,10,5.95259e-05,-3.51589,-0.660838,-0.0892806,0.195118,
2,1,0,1,0,11120.7,0.199559,0.199238,0.301919,16,0.0182091,10,6.01537e-05,-3.52011,-1.75736,-0.033573,0.199105,
2,1,0,1,0,11121.5,0.203553,0.203229,0.297413,16,0.018462,10,6.0443e-05,-3.52664,-1.53447,-0.0384496,0.203098,
2,1,0,1,0,11122.3,0.207548,0.207239,0.29581,16,0.0187132,10,6.13034e-05,-3.52899,-0.917785,-0.0642852,0.207109,
2,1,0,0,0,11123.1,0.211544,0.211244,0.293725,16,0.0189622,10,6.20476e-05,-3.53206,-1.03178,-0.0571829,0.211115,
2,1,0,1,0,11123.9,0.215539,0.215233,0.290424,16,0.0192094,10,6.25089e-05,-3.53697,-1.2604,-0.0468104,0.215105,
2,1,0,1,0,11124.7,0.219535,0.219259,0.289757,16,0.0194549,10,6.35318e-05,-3.53797,-1.20035,-0.0491523,0.219131,
2,1,0,1,0,11125.5,0.223529,0.223204,0.287192,16,0.0196989,10,6.41025e-05,-3.54183,-2.02174,-0.0291828,0.223078,
2,1,0,1,0,11126.3,0.227524,0.227214,0.286212,16,0.0199419,10,6.50313e-05,-3.54331,-1.15871,-0.0509187,0.227088,
2,1,0,0,0,11127.1,0.23152,0.231205,0.283795,16,0.0201835,10,6.56147e-05,-3.547,-5.35092,-0.0110261,0.23108,
2,1,0,1,0,11127.9,0.235515,0.235222,0.281906,16,0.0204241,10,6.63103e-05,-3.5499,-6.92287,-0.00852247,0.235098,
2,1,0,0,0,11128.7,0.23951,0.23923,0.281985,16,0.0206635,10,6.74593e-05,-3.54977,-1.16675,-0.0505679,0.239106,
2,1,0,1,0,11129.5,0.243506,0.2432,0.281394,16,0.0209018,10,6.8435e-05,-3.55069,87.5048,0.000674248,0.243077,
2,1,0,1,0,11130.3,0.2475,0.247235,0.279595,16,0.0211397,10,6.91256e-05,-3.55347,-1.14811,-0.0513889,0.247112,
2,1,0,1,0,11131.1,0.251495,0.251216,0.277946,16,0.0213764,10,6.98247e-05,-3.55604,-2.9399,-0.0200687,0.251094,
2,1,0,1,0,11131.9,0.255491,0.255168,0.277967,16,0.0216122,10,7.09283e-05,-3.55601,-4.67564,-0.0126186,0.255046,
2,1,0,0,0,11132.7,0.259486,0.259189,0.276689,16,0.0218475,10,7.17148e-05,-3.55801,-4.17169,-0.0141429,0.259067,
2,1,0,1,0,11133.5,0.263481,0.263183,0.27743,16,0.0220819,10,7.30146e-05,-3.55685,3.41725,0.0172654,0.26306,
2,1,0,1,0,11134.3,0.267477,0.2672,0.274344,16,0.0223158,10,7.33047e-05,-3.5617,-0.808427,-0.0729812,0.267079,
2,1,0,1,0,11135.1,0.271471,0.271166,0.274507,16,0.022549,10,7.4437e-05,-3.56145,13.9584,0.00422683,0.271045,
2,1,0,1,0,11135.9,0.275466,0.27516,0.272378,16,0.0227813,10,7.49477e-05,-3.56483,-1.23648,-0.047716,0.27504,
2,1,0,0,0,11136.7,0.279462,0.279218,0.272995,16,0.0230131,10,7.62252e-05,-3.56384,-5.91223,-0.00997932,0.279098,
2,1,0,1,0,11137.5,0.283457,0.283201,0.272178,16,0.0232442,10,7.70811e-05,-3.56515,-2.63787,-0.0223666,0.283081,
2,1,0,0,0,11138.3,0.287452,0.287119,0.270703,16,0.0234746,10,7.77239e-05,-3.56751,-6.6594,-0.00885966,0.287,
2,1,0,1,0,11139.1,0.291448,0.291116,0.270374,16,0.0237044,10,7.87103e-05,-3.56803,85.0241,0.000693921,0.290997,
2,1,0,1,0,11139.9,0.295442,0.29516,0.269549,16,0.0239333,10,7.956e-05,-3.56936,-1.26486,-0.0466457,0.295041,
2,1,0,1,0,11140.7,0.299437,0.2991,0.267177,16,0.0241617,10,7.99127e-05,-3.5732,-2.90136,-0.0203353,0.298983,
2,1,0,1,0,11141.5,0.303433,0.303109,0.267655,16,0.0243892,10,8.11287e-05,-3.57242,-1.44129,-0.0409355,0.302991,
2,1,0,0,0,11142.3,0.307428,0.307127,0.265487,16,0.0246158,10,8.1538e-05,-3.57596,2.70684,0.0217966,0.30701,
2,1,0,1,0,11143.1,0.311424,0.311142,0.265209,16,0.024842,10,8.25177e-05,-3.57641,-1.14464,-0.0515445,0.311025,
2,1,0,1,0,11143.8,0.315418,0.315126,0.265162,16,0.0250671,10,8.35594e-05,-3.57649,-2.86349,-0.0206042,0.315009,
2,1,0,1,0,11144.6,0.319413,0.319103,0.26467,16,0.025292,10,8.44571e-05,-3.57729,6.73001,0.0087667,0.318986,
2,1,0,1,0,11145.4,0.323409,0.323156,0.263203,16,0.0255165,10,8.50556e-05,-3.57971,-1.11083,-0.0531135,0.32304,
2,1,0,0,0,11146.2,0.327404,0.327087,0.262767,16,0.02574,10,8.59477e-05,-3.58043,-9.37908,-0.0062906,0.326971,
2,1,0,1,0,11147,0.331399,0.331102,0.262048,16,0.0259632,10,8.67646e-05,-3.58162,1.93965,0.0304179,0.330986,
2,1,0,1,0,11147.8,0.335395,0.335077,0.262089,16,0.026186,10,8.78202e-05,-3.58155,-2.91844,-0.0202163,0.334962,
2,1,0,1,0,11148.6,0.339389,0.339121,0.261482,16,0.0264082,10,8.8674e-05,-3.58256,-2.88502,-0.0204504,0.339006,
2,1,0,1,0,11149.4,0.343384,0.343103,0.261012,16,0.0266299,10,8.95538e-05,-3.58334,-1.62425,-0.0363245,0.342988,
2,1,0,0,0,11150.2,0.34738,0.347063,0.260014,16,0.0268511,10,9.02412e-05,-3.585,-2.32819,-0.0253416,0.346948,
2,1,0,1,0,11151,0.351375,0.351058,0.260073,16,0.0270716,10,9.13008e-05,-3.5849,-4.49708,-0.0131196,0.350944,
2,1,0,0,0,11151.8,0.35537,0.355108,0.259458,16,0.0272916,10,9.21355e-05,-3.58593,-2.13072,-0.0276901,0.354994,
2,1,0,1,0,11152.6,0.359366,0.359053,0.258268,16,0.027511,10,9.2732e-05,-3.58793,1.79579,0.0328545,0.358939,
2,1,0,1,0,11153.4,0.36336,0.363111,0.256543,16,0.0277301,10,9.31534e-05,-3.59084,-1.82358,-0.0323539,0.362998,
2,1,0,1,0,11154.2,0.367355,0.367117,0.256727,16,0.0279485,10,9.42486e-05,-3.59053,-3.01243,-0.0195855,0.367004,
2,1,0,1,0,11155,0.371351,0.371049,0.256503,16,0.0281665,10,9.51751e-05,-3.59091,14.3355,0.00411567,0.370936,
2,1,0,0,0,11155.8,0.375346,0.375054,0.255906,16,0.028384,10,9.59788e-05,-3.59192,-2.53908,-0.0232368,0.374942,
2,1,0,1,0,11156.6,0.379342,0.379071,0.255339,16,0.028601,10,9.67915e-05,-3.59288,-1.24079,-0.0475504,0.378958,
2,1,0,1,0,11157.4,0.383336,0.383006,0.254603,16,0.0288175,10,9.75145e-05,-3.59414,16.8748,0.00349634,0.382894,
2,1,0,1,0,11158.2,0.387331,0.387068,0.255021,16,0.0290339,10,9.87102e-05,-3.59342,-1.40342,-0.0420402,0.386955,
2,1,0,1,0,11159,0.391327,0.391024,0.254243,16,0.0292497,10,9.9415e-05,-3.59475,1.2948,0.0455668,0.390912,
2,1,0,0,0,11159.8,0.395322,0.395002,0.252249,16,0.0294654,10,9.96388e-05,-3.59817,-1.69973,-0.0347115,0.394891,
2,1,0,1,0,11160.6,0.399317,0.399023,0.253155,16,0.0296805,10,0.000101014,-3.59661,-4.61312,-0.0127896,0.398911,
2,1,0,1,0,11161.4,0.403313,0.402997,0.253302,16,0.0298952,10,0.00010208,-3.59636,-10.5416,-0.00559688,0.402886,
2,1,0,1,0,11162.2,0.407307,0.407006,0.252926,16,0.0301097,10,0.000102942,-3.59701,-5.06914,-0.011639,0.406894,
2,1,0,1,0,11163,0.411302,0.411003,0.253024,16,0.0303237,10,0.000103994,-3.59684,804.876,7.33032e-05,0.410891,
2,1,0,0,0,11163.8,0.415298,0.415026,0.25228,16,0.0305379,10,0.000104703,-3.59812,-3.2011,-0.0184312,0.414915,
2,1,0,1,0,11164.6,0.419293,0.418975,0.251765,16,0.0307515,10,0.000105483,-3.59901,-11.6568,-0.00506143,0.418865,
2,1,0,0,0,11165.4,0.423288,0.422984,0.252907,16,0.0309649,10,0.000106975,-3.59704,7.56982,0.00779411,0.422872,
2,1,0,1,0,11166.2,0.427283,0.426977,0.249953,16,0.0311782,10,0.000106724,-3.60214,3.28961,0.0179353,0.426867,
2,1,0,1,0,11167,0.431278,0.431003,0.251428,16,0.0313913,10,0.000108366,-3.59959,-3.94698,-0.0149481,0.430893,
2,1,0,1,0,11167.8,0.435273,0.43495,0.251717,16,0.0316043,10,0.000109484,-3.59909,24.3704,0.00242097,0.434839,
2,1,0,1,0,11168.6,0.439269,0.438977,0.251196,16,0.0318175,10,0.000110269,-3.59999,-29.4665,-0.00200227,0.438866,
2,1,0,0,0,11169.4,0.443264,0.442952,0.250856,16,0.0320302,10,0.000111117,-3.60057,-3.52326,-0.0167459,0.442842,
2,1,0,1,0,11170.2,0.447259,0.446971,0.25101,16,0.0322431,10,0.000112194,-3.60031,18.0562,0.00326757,0.446861,
2,1,0,1,0,11171,0.451254,0.450982,0.252024,16,0.0324562,10,0.000113658,-3.59856,-7.97112,-0.00740172,0.450871,
2,1,0,1,0,11171.8,0.455249,0.454979,0.25188,16,0.0326692,10,0.0001146,-3.59881,2.70472,0.0218137,0.454868,
2,1,0,1,0,11172.6,0.459244,0.458982,0.250388,16,0.0328822,10,0.000114924,-3.60139,3.74347,0.0157608,0.458872,
2,1,0,0,0,11173.4,0.46324,0.462973,0.25241,16,0.0330954,10,0.000116859,-3.59789,-7.74914,-0.00761375,0.462862,
2,1,0,1,0,11174.2,0.467235,0.466909,0.251376,16,0.0333086,10,0.00011737,-3.59968,8.41512,0.00701119,0.466798,
2,1,0,1,0,11175,0.471231,0.470946,0.252623,16,0.033522,10,0.000118972,-3.59753,-4.07568,-0.0144761,0.470835,
2,1,0,1,0,11175.8,0.475225,0.474938,0.253594,16,0.0337356,10,0.000120442,-3.59586,1.70742,0.0345551,0.474827,
2,1,0,1,0,11176.6,0.47922,0.47893,0.253846,16,0.0339496,10,0.000121575,-3.59543,4.59855,0.0128301,0.478819,
2,1,0,0,0,11177.4,0.483216,0.482893,0.253685,16,0.034164,10,0.000122503,-3.59571,3.51034,0.0168075,0.482782,
2,1,0,1,0,11178.2,0.487211,0.48694,0.255222,16,0.0343784,10,0.000124278,-3.59308,-11.9764,-0.00492636,0.486828,
2,1,0,0,0,11179,0.491206,0.490921,0.254381,16,0.0345934,10,0.000124881,-3.59452,8.98124,0.00656925,0.490809,
2,1,0,1,0,11179.8,0.495201,0.494906,0.255703,16,0.0348089,10,0.000126549,-3.59226,1.02795,0.0573957,0.494794,
2,1,0,1,0,11180.6,0.499196,0.49892,0.256704,16,0.035025,10,0.000128075,-3.59057,2.11788,0.027858,0.498807,
2,1,0,1,0,11181.4,0.503191,0.502851,0.256919,16,0.0352419,10,0.000129192,-3.5902,2.76109,0.0213683,0.502738,
2,1,0,1,0,11182.2,0.507187,0.506896,0.258162,16,0.0354595,10,0.000130861,-3.58811,1.13761,0.0518632,0.506782,
2,1,0,0,0,11183,0.511182,0.510882,0.260123,16,0.0356782,10,0.000132892,-3.58482,-154.817,-0.000381094,0.510767,
2,1,0,1,0,11183.8,0.515177,0.514865,0.26173,16,0.035898,10,0.000134755,-3.58215,2.90848,0.0202855,0.51475,
2,1,0,1,0,11184.6,0.519173,0.518869,0.262416,16,0.0361185,10,0.00013616,-3.58101,0.722472,0.081664,0.518753,
2,1,0,1,0,11185.4,0.523167,0.522893,0.262524,16,0.0363403,10,0.000137272,-3.58083,-5.10263,-0.0115627,0.522777,
2,1,0,1,0,11186.2,0.527162,0.526912,0.265675,16,0.0365632,10,0.000139988,-3.57565,1.00767,0.0585511,0.526795,
2,1,0,0,0,11187,0.531158,0.530891,0.267933,16,0.0367875,10,0.000142243,-3.57197,1.23456,0.0477904,0.530773,
2,1,0,1,0,11187.8,0.535153,0.534856,0.269133,16,0.0370132,10,0.000143948,-3.57003,1.36168,0.0433288,0.534738,
2,1,0,0,0,11188.6,0.539148,0.538883,0.271137,16,0.0372399,10,0.000146111,-3.56681,1.3748,0.0429155,0.538764,
2,1,0,1,0,11189.4,0.543143,0.54284,0.272664,16,0.0374685,10,0.000148013,-3.56437,1.14437,0.0515567,0.54272,
2,1,0,1,0,11190.2,0.547138,0.546874,0.276312,16,0.0376992,10,0.000151108,-3.5586,1.16234,0.0507598,0.546753,
2,1,0,1,0,11191,0.551133,0.550843,0.279132,16,0.0379316,10,0.000153758,-3.55419,0.731013,0.0807099,0.55072,
2,1,0,1,0,11191.8,0.555129,0.554873,0.280174,16,0.0381666,10,0.000155461,-3.55257,0.901806,0.0654242,0.55475,
2,1,0,0,0,11192.6,0.559124,0.558845,0.284522,16,0.0384039,10,0.000159004,-3.54588,0.728457,0.0809931,0.55872,
2,1,0,1,0,11193.4,0.56312,0.562761,0.287491,16,0.038644,10,0.000161788,-3.54138,0.554926,0.106321,0.562634,
2,1,0,1,0,11194.2,0.567114,0.566748,0.293523,16,0.0388875,10,0.000166354,-3.53236,0.863825,0.0683009,0.566619,
2,1,0,1,0,11195,0.571109,0.570835,0.297451,16,0.0391343,10,0.000169795,-3.52658,0.431783,0.136643,0.570704,
2,1,0,1,0,11195.8,0.575105,0.574835,0.30304,16,0.0393851,10,0.000174198,-3.5185,0.655917,0.0899505,0.574702,
2,1,0,0,0,11196.6,0.5791,0.578821,0.308485,16,0.0396401,10,0.000178558,-3.51077,0.546779,0.107905,0.578685,
2,1,0,1,0,11197.4,0.583095,0.582807,0.314842,16,0.0399,10,0.000183492,-3.50191,0.346198,0.170423,0.582669,
2,1,0,1,0,11198.2,0.58709,0.586816,0.321583,16,0.0401655,10,0.00018871,-3.49271,0.37305,0.158156,0.586674,
2,1,0,1,0,11199,0.591085,0.590741,0.330491,16,0.0404371,10,0.000195235,-3.48084,0.389491,0.15148,0.590596,
2,1,0,1,0,11199.8,0.59508,0.594766,0.339974,16,0.0407159,10,0.000202205,-3.46855,0.259232,0.227595,0.594616,
2,1,0,0,0,11200.6,0.599076,0.598827,0.350709,16,0.0410032,10,0.000210014,-3.45505,0.278721,0.211681,0.598672,
2,1,0,1,0,11201.4,0.603071,0.602822,0.364909,16,0.0412999,10,0.000219975,-3.43782,0.256238,0.230255,0.602662,
2,1,0,0,0,11202.2,0.607066,0.606764,0.378855,16,0.0416077,10,0.000229876,-3.42153,0.223732,0.263708,0.606597,
2,1,0,1,0,11203,0.611061,0.610777,0.3956,16,0.0419282,10,0.000241623,-3.40274,0.207376,0.284508,0.610603,
2,1,0,1,0,11203.8,0.615056,0.614779,0.414713,16,0.0422632,10,0.000254957,-3.38225,0.162257,0.36362,0.614597,
2,1,0,1,0,11204.6,0.619051,0.618799,0.43819,16,0.0426158,10,0.000271152,-3.35834,0.169641,0.347793,0.618606,
2,1,0,1,0,11205.4,0.623047,0.622735,0.465679,16,0.0429877,10,0.000289994,-3.33191,0.14483,0.407375,0.62253,
2,1,0,0,0,11206.2,0.627042,0.62673,0.49693,16,0.0433829,10,0.000311441,-3.3037,0.130876,0.450807,0.626511,
2,1,0,1,0,11207,0.631037,0.630762,0.534637,16,0.0438059,10,0.000337229,-3.27194,0.125376,0.470583,0.630527,
2,1,0,1,0,11207.8,0.635032,0.634768,0.577314,16,0.04426,10,0.000366461,-3.23859,0.113982,0.517628,0.634514,
2,1,0,1,0,11208.6,0.639027,0.638749,0.628607,16,0.0447518,10,0.000401522,-3.20162,0.102518,0.575511,0.638472,
2,1,0,1,0,11209.4,0.643022,0.64271,0.68865,16,0.0452888,10,0.000442603,-3.162,0.0961978,0.61332,0.642407,
2,1,0,0,0,11210.2,0.647018,0.646723,0.760007,16,0.0458781,10,0.000491514,-3.11918,0.0881813,0.669076,0.646389,
2,1,0,1,0,11211,0.651013,0.650697,0.843223,16,0.0465297,10,0.000548683,-3.07406,0.0856004,0.689249,0.650326,
2,1,0,1,0,11211.8,0.655008,0.654715,0.944186,16,0.0472545,10,0.000618173,-3.02494,0.0797895,0.739446,0.654299,
2,1,0,1,0,11212.6,0.659003,0.658696,1.05922,16,0.0480646,10,0.000697705,-2.97501,0.0772653,0.763603,0.65823,
2,1,0,1,0,11213.4,0.662998,0.662719,1.19384,16,0.0489747,10,0.000791181,-2.92305,0.0732821,0.805108,0.662194,
2,1,0,0,0,11214.2,0.666994,0.666729,1.35101,16,0.0500015,10,0.00090076,-2.86934,0.0724395,0.814473,0.666134,
2,1,0,1,0,11215,0.670989,0.670688,1.53286,16,0.0511634,10,0.00102807,-2.8145,0.0715091,0.825069,0.670014,
2,1,0,0,0,11215.8,0.674984,0.674696,1.74027,16,0.0524808,10,0.00117415,-2.75938,0.0698035,0.84523,0.67393,
2,1,0,1,0,11216.6,0.67898,0.678694,1.9802,16,0.0539773,10,0.00134395,-2.70329,0.0693309,0.850992,0.677822,
2,1,0,1,0,11217.4,0.682974,0.682669,2.25015,16,0.055677,10,0.0015361,-2.64779,0.0702668,0.839656,0.681679,
2,1,0,1,0,11218.2,0.686969,0.686704,2.55395,16,0.057606,10,0.00175381,-2.59279,0.0707722,0.83366,0.685581,
2,1,0,1,0,11219,0.690965,0.690711,2.89402,16,0.0597918,10,0.00199893,-2.5385,0.0718693,0.820934,0.689438,
2,1,0,0,0,11219.8,0.69496,0.694706,3.26889,16,0.062263,10,0.00227092,-2.4856,0.0718659,0.820973,0.693268,
2,1,0,1,0,11220.6,0.698955,0.698706,3.68189,16,0.0650496,10,0.00257256,-2.43393,0.0747284,0.789525,0.697086,
2,1,0,1,0,11221.4,0.70295,0.702651,4.13336,16,0.0681826,10,0.00290431,-2.3837,0.0777341,0.758998,0.700833,
2,1,0,1,0,11222.2,0.706945,0.706687,4.62206,16,0.0716905,10,0.00326635,-2.33516,0.0787117,0.749571,0.704653,
2,1,0,1,0,11223,0.71094,0.71067,5.14743,16,0.0756037,10,0.00365812,-2.28841,0.0812217,0.726407,0.708405,
2,1,0,0,0,11223.8,0.714936,0.714663,5.70907,16,0.0799519,10,0.00408007,-2.24343,0.0857476,0.688066,0.712151,
2,1,0,1,0,11224.6,0.718931,0.718641,6.306,16,0.0847616,10,0.00453175,-2.20025,0.0877828,0.672113,0.715866,
2,1,0,1,0,11225.4,0.722927,0.722668,6.93352,16,0.0900618,10,0.00501063,-2.15905,0.0918028,0.642682,0.719617,
2,1,0,1,0,11226.1,0.726921,0.726639,7.59734,16,0.0958775,10,0.00552052,-2.11934,0.0958725,0.615401,0.723296,
2,1,0,1,0,11226.9,0.730916,0.73065,8.29235,16,0.102235,10,0.00605881,-2.08132,0.0977547,0.603552,0.727001,
2,1,0,1,0,11227.7,0.734911,0.734632,9.01478,16,0.109161,10,0.00662255,-2.04505,0.104604,0.564033,0.730666,
2,1,0,1,0,11228.5,0.738907,0.738663,9.77141,16,0.116678,10,0.00721779,-2.01004,0.105574,0.558852,0.734364,
2,1,0,0,0,11229.3,0.742902,0.742635,10.553,16,0.124807,10,0.00783701,-1.97662,0.111791,0.527771,0.737991,
2,1,0,1,0,11230.1,0.746897,0.746651,11.3646,16,0.133576,10,0.00848539,-1.94445,0.115179,0.512247,0.74165,
2,1,0,1,0,11230.9,0.750892,0.750639,12.2137,16,0.143005,10,0.00916807,-1.91315,0.116063,0.508343,0.745265,
2,1,0,1,0,11231.7,0.754887,0.754616,13.0955,16,0.153126,10,0.00988204,-1.88288,0.119476,0.493824,0.748854,
2,1,0,1,0,11232.5,0.758883,0.758625,14.0304,16,0.163975,10,0.0106438,-1.85293,0.121229,0.486684,0.752451,
2,1,0,0,0,11233.3,0.762878,0.762587,15.0188,16,0.175587,10,0.0114532,-1.82336,0.120253,0.490631,0.755979,
2,1,0,1,0,11234.1,0.766873,0.766617,16.0695,16,0.188019,10,0.0123191,-1.794,0.119594,0.493335,0.759546,
2,1,0,1,0,11234.9,0.770868,0.770604,17.181,16,0.20132,10,0.0132398,-1.76495,0.12446,0.474046,0.763044,
2,1,0,1,0,11235.7,0.774863,0.774562,18.3303,16,0.215515,10,0.0141979,-1.73683,0.121331,0.486271,0.766497,
2,1,0,1,0,11236.5,0.778858,0.778584,19.5574,16,0.230662,10,0.0152271,-1.70869,0.123315,0.47845,0.769979,
2,1,0,0,0,11237.3,0.782854,0.782539,20.8351,16,0.246812,10,0.0163043,-1.68121,0.127417,0.463047,0.773371,
2,1,0,1,0,11238.1,0.786849,0.786599,22.1347,16,0.26399,10,0.0174111,-1.65493,0.132791,0.444307,0.77686,
2,1,0,0,0,11238.9,0.790844,0.790555,23.4877,16,0.282225,10,0.0185683,-1.62916,0.130112,0.453454,0.78022,
2,1,0,1,0,11239.7,0.794839,0.794587,24.9393,16,0.301583,10,0.0198164,-1.60312,0.129175,0.456743,0.783614,
2,1,0,1,0,11240.5,0.798834,0.798558,26.4206,16,0.322119,10,0.0210984,-1.57806,0.139112,0.42412,0.786933,
2,1,0,1,0,11241.3,0.802829,0.802546,27.8925,16,0.343832,10,0.022385,-1.55451,0.143756,0.410418,0.790273,
2,1,0,1,0,11242.1,0.806825,0.806564,29.4087,16,0.366736,10,0.02372,-1.53152,0.144457,0.408427,0.793625,
2,1,0,0,0,11242.9,0.81082,0.810537,30.9612,16,0.390871,10,0.0250952,-1.50918,0.152339,0.387295,0.796914,
2,1,0,1,0,11243.7,0.814815,0.814486,32.5241,16,0.416254,10,0.0264904,-1.4878,0.15335,0.38474,0.800176,
2,1,0,1,0,11244.5,0.81881,0.818543,34.1096,16,0.442901,10,0.0279202,-1.46712,0.173048,0.340946,0.803535,
2,1,0,1,0,11245.3,0.822805,0.82257,35.6577,16,0.470787,10,0.0293309,-1.44785,0.171455,0.344113,0.80688,
2,1,0,1,0,11246.1,0.826801,0.826564,37.2911,16,0.499938,10,0.0308235,-1.42839,0.177142,0.333066,0.810156,
2,1,0,0,0,11246.9,0.830796,0.830537,38.8592,16,0.530357,10,0.032274,-1.41051,0.185117,0.318717,0.813439,
2,1,0,1,0,11247.7,0.834791,0.834572,40.442,16,0.562046,10,0.0337518,-1.39317,0.199557,0.295655,0.816777,
2,1,0,1,0,11248.5,0.838786,0.838531,42.0229,16,0.594996,10,0.0352375,-1.37651,0.196056,0.300934,0.820041,
2,1,0,1,0,11249.3,0.842781,0.842512,43.603,16,0.629223,10,0.0367361,-1.36048,0.213637,0.276169,0.823327,
2,1,0,1,0,11250.1,0.846776,0.846486,45.1162,16,0.664685,10,0.0381903,-1.34567,0.246159,0.239683,0.826635,
2,1,0,1,0,11250.8,0.849723,0.849517,45.975,16,0.696662,10,0.0390565,-1.33748,0.0405821,1.45384,0.829288,
2,1,0,0,0,11251.6,0.845728,0.845454,43.5265,16,0.732283,10,0.0367996,-1.36125,0.155278,0.379963,0.826302,
2,1,0,1,0,11252.4,0.841732,0.841511,41.6173,16,0.766261,10,0.0350214,-1.38073,0.175869,0.335477,0.8232,
2,1,0,1,0,11253.2,0.837737,0.837494,39.8084,16,0.798789,10,0.0333393,-1.40003,0.245613,0.240216,0.819978,
2,1,0,1,0,11254,0.833742,0.833515,38.5488,16,0.830189,10,0.032131,-1.41399,0.158822,0.371484,0.816553,
2,1,0,1,0,11254.8,0.829747,0.829529,36.7782,16,0.860267,10,0.0305086,-1.43441,0.15376,0.383714,0.813346,
2,1,0,0,0,11255.6,0.825752,0.825501,35.0039,16,0.888939,10,0.0288958,-1.45588,0.14661,0.402428,0.8101,
2,1,0,1,0,11256.4,0.821757,0.821495,33.2916,16,0.916201,10,0.0273489,-1.47766,0.152122,0.387847,0.806847,
2,1,0,1,0,11257.2,0.817761,0.817448,31.6323,16,0.942127,10,0.0258577,-1.49987,0.139173,0.423933,0.80353,
2,1,0,1,0,11258,0.813766,0.813444,29.869,16,0.966698,10,0.0242968,-1.52478,0.129001,0.457361,0.800302,
2,1,0,1,0,11258.8,0.809771,0.809519,28.2012,16,0.989884,10,0.0228294,-1.54973,0.125822,0.468916,0.79711,
2,1,0,1,0,11259.6,0.805776,0.805515,26.5595,16,1.01174,10,0.0213941,-1.57578,0.134095,0.439985,0.793829,
2,1,0,1,0,11260.4,0.801781,0.801507,25.0776,16,1.03237,10,0.0200998,-1.60071,0.126221,0.467435,0.790473,
2,1,0,0,0,11261.2,0.797786,0.797532,23.5697,16,1.05179,10,0.0187976,-1.62765,0.121324,0.486302,0.787161,
2,1,0,1,0,11262,0.79379,0.793561,22.063,16,1.07001,10,0.0175084,-1.65633,0.115463,0.510985,0.783853,
2,1,0,1,0,11262.8,0.789795,0.789505,20.6385,16,1.08705,10,0.0162942,-1.68532,0.113704,0.518891,0.780424,
2,1,0,1,0,11263.6,0.7858,0.785522,19.2596,16,1.10298,10,0.0151288,-1.71535,0.112949,0.522359,0.777048,
2,1,0,1,0,11264.4,0.781805,0.78154,17.9728,16,1.11784,10,0.0140465,-1.74538,0.11354,0.519639,0.773632,
2,1,0,0,0,11265.2,0.77781,0.777552,16.731,16,1.13169,10,0.0130092,-1.77648,0.107862,0.546996,0.77019,
2,1,0,1,0,11266,0.773815,0.773556,15.5272,16,1.14456,10,0.0120111,-1.80891,0.105367,0.559947,0.766724,
2,1,0,1,0,11266.8,0.769819,0.769537,14.384,16,1.15649,10,0.011069,-1.84212,0.105101,0.561363,0.763208,
2,1,0,1,0,11267.6,0.765824,0.765544,13.3017,16,1.16753,10,0.0101831,-1.87609,0.102415,0.576086,0.759691,
2,1,0,1,0,11268.4,0.761829,0.761552,12.267,16,1.17773,10,0.00934195,-1.91126,0.0991274,0.595194,0.756154,
2,1,0,0,0,11269.2,0.757834,0.757616,11.2845,16,1.18712,10,0.0085493,-1.94752,0.0969635,0.608477,0.752651,
2,1,0,1,0,11270,0.753839,0.753556,10.3488,16,1.19575,10,0.00779838,-1.98511,0.0954671,0.618014,0.749002,
2,1,0,0,0,11270.8,0.749844,0.749577,9.47479,16,1.20365,10,0.00710209,-2.02343,0.0936972,0.629688,0.745408,
2,1,0,1,0,11271.6,0.745848,0.745592,8.64937,16,1.21088,10,0.0064489,-2.06302,0.088631,0.665681,0.741786,
2,1,0,1,0,11272.4,0.741853,0.741547,7.86716,16,1.21746,10,0.00583387,-2.10418,0.0883147,0.668066,0.738085,
2,1,0,1,0,11273.2,0.737858,0.737612,7.14555,16,1.22344,10,0.00527064,-2.14596,0.0856701,0.688689,0.734468,
2,1,0,1,0,11274,0.733863,0.733598,6.4669,16,1.22887,10,0.00474411,-2.1893,0.0857776,0.687825,0.730752,
2,1,0,0,0,11274.8,0.729868,0.729599,5.91678,16,1.23378,10,0.00431687,-2.22791,0.100214,0.588739,0.726996,
2,1,0,1,0,11275.6,0.725872,0.72561,5.35159,16,1.23827,10,0.00388317,-2.27152,0.0829279,0.711461,0.723255,
2,1,0,1,0,11276.4,0.721877,0.721611,4.80046,16,1.24231,10,0.00346407,-2.31872,0.0771931,0.764317,0.719499,
2,1,0,1,0,11277.2,0.717882,0.717598,4.2859,16,1.24593,10,0.00307555,-2.36796,0.0746257,0.790612,0.715712,
2,1,0,1,0,11278,0.713887,0.713619,3.8088,16,1.24915,10,0.00271803,-2.41921,0.0728461,0.809927,0.711943,
2,1,0,0,0,11278.8,0.709892,0.709593,3.37066,16,1.252,10,0.0023918,-2.47229,0.0707524,0.833894,0.70811,
2,1,0,1,0,11279.6,0.705897,0.705594,2.97023,16,1.25452,10,0.00209578,-2.52721,0.0685235,0.861019,0.704287,
2,1,0,1,0,11280.4,0.701901,0.701606,2.6053,16,1.25673,10,0.0018279,-2.58414,0.0630403,0.93591,0.70046,
2,1,0,1,0,11281.2,0.697906,0.697626,2.25692,16,1.25866,10,0.00157449,-2.64648,0.0637038,0.926161,0.696633,
2,1,0,1,0,11282,0.693911,0.693697,1.96176,16,1.26033,10,0.00136087,-2.70735,0.0621524,0.94928,0.692834,
2,1,0,0,0,11282.8,0.689916,0.68966,1.69278,16,1.26178,10,0.00116744,-2.7714,0.0593066,0.994831,0.688915,
2,1,0,1,0,11283.6,0.685921,0.685602,1.45495,16,1.26302,10,0.000997519,-2.83715,0.0576637,1.02317,0.684962,
2,1,0,0,0,11284.4,0.681926,0.681632,1.24189,16,1.26408,10,0.000846509,-2.90592,0.056205,1.04973,0.681085,
2,1,0,1,0,11285.2,0.67793,0.67766,1.05427,16,1.26499,10,0.000714439,-2.97705,0.0541681,1.0892,0.677196,
2,1,0,1,0,11286,0.673935,0.673661,0.889152,16,1.26575,10,0.000598987,-3.05102,0.0525061,1.12368,0.673269,
2,1,0,1,0,11286.8,0.66994,0.669719,0.744615,16,1.26639,10,0.000498683,-3.12807,0.0493606,1.19529,0.669392,
2,1,0,1,0,11287.6,0.665945,0.66569,0.616673,16,1.26692,10,0.000410513,-3.20994,0.0482823,1.22198,0.665418,
2,1,0,0,0,11288.4,0.66195,0.661689,0.510272,16,1.26736,10,0.000337641,-3.2922,0.0454194,1.299,0.661464,
2,1,0,1,0,11289.2,0.657955,0.657686,0.415954,16,1.26772,10,0.000273567,-3.38095,0.0442031,1.33475,0.657503,
2,1,0,1,0,11290,0.653959,0.653671,0.336189,16,1.26801,10,0.000219757,-3.47342,0.0419357,1.40691,0.653523,
2,1,0,1,0,11290.8,0.649964,0.649722,0.269193,16,1.26824,10,0.000174901,-3.56994,0.0394232,1.49658,0.649604,
2,1,0,1,0,11291.6,0.64597,0.645702,0.211628,16,1.26842,10,0.000136649,-3.67443,0.0364748,1.61756,0.645609,
2,1,0,0,0,11292.4,0.641974,0.641668,0.163091,16,1.26855,10,0.000104651,-3.78757,0.0330619,1.78453,0.641596,
2,1,0,1,0,11293.2,0.637979,0.637728,0.123015,16,1.26866,10,7.84503e-05,-3.91004,0.0298128,1.97901,0.637673,
2,1,0,1,0,11294,0.633983,0.633698,0.0875979,16,1.26873,10,5.55106e-05,-4.05751,0.0269918,2.18585,0.633659,
2,1,0,1,0,11294.8,0.629988,0.629707,0.0595292,16,1.26878,10,3.74859e-05,-4.22527,0.0196854,2.99714,0.62968,
2,1,0,1,0,11295.6,0.625993,0.625706,0.0351862,16,1.2688,10,2.20162e-05,-4.45363,0.0137742,4.28336,0.625691,
2,1,0,0,0,11296.4,0.621998,0.621704,0.0143614,16,1.26881,10,8.92856e-06,-4.8428,0.00617139,9.56025,0.621698,
2,1,0,1,0,11297.2,0.618003,0.617743,-0.0018397,16,1.2688,10,-1.13646e-06,-5.73525,-0.0121251,-4.86593,0.617744,
2,0,0,0,0,11298,0.614008,0.613694,-0.0163786,16,1.26879,10,-1.00515e-05,-4.78572,-0.0147214,-4.00778,0.613701,
2,0,0,1,0,11298.8,0.610012,0.609774,-0.0267387,16,1.26876,10,-1.63046e-05,-4.57286,-0.0216842,-2.72088,0.609786,
2,0,0,1,0,11299.6,0.606017,0.605709,-0.0355247,16,1.26872,10,-2.15176e-05,-4.44947,-0.0401267,-1.47034,0.605724,
2,0,0,1,0,11300.4,0.602022,0.60169,-0.0439662,16,1.26868,10,-2.6454e-05,-4.35688,-0.0726304,-0.812332,0.601709,
2,0,0,1,0,11301.2,0.598027,0.597726,-0.0512043,16,1.26863,10,-3.06062e-05,-4.29069,-0.0583115,-1.01181,0.597749,
2,0,0,0,0,11302,0.594032,0.593722,-0.056961,16,1.26857,10,-3.3819e-05,-4.24442,-0.104708,-0.56347,0.593747,
2,0,0,1,0,11302.8,0.590037,0.589732,-0.0625425,16,1.26851,10,-3.68833e-05,-4.20382,-0.115919,-0.508978,0.589759,
2,0,0,1,0,11303.6,0.586041,0.585724,-0.0671787,16,1.26845,10,-3.93482e-05,-4.17277,-0.133577,-0.441693,0.585754,
2,0,0,1,0,11304.4,0.582046,0.581741,-0.0700863,16,1.26838,10,-4.07721e-05,-4.15437,-0.243119,-0.24268,0.581772,
2,0,0,1,0,11305.2,0.578052,0.577757,-0.0741279,16,1.26832,10,-4.28279e-05,-4.13002,-0.179659,-0.3284,0.577789,
2,0,0,0,0,11306,0.574056,0.573787,-0.0771697,16,1.26824,10,-4.4279e-05,-4.11255,-0.25175,-0.234359,0.573821,
2,0,0,1,0,11306.8,0.570061,0.569749,-0.0795033,16,1.26817,10,-4.5297e-05,-4.09961,-0.955035,-0.0617779,0.569784,
2,0,0,1,0,11307.6,0.566065,0.565792,-0.0814141,16,1.26809,10,-4.60635e-05,-4.0893,-0.287883,-0.204944,0.565828,
2,0,0,1,0,11308.4,0.56207,0.561756,-0.0835257,16,1.26802,10,-4.6921e-05,-4.07818,-0.341721,-0.172655,0.561792,
2,0,0,1,0,11309.1,0.558075,0.557752,-0.0848288,16,1.26794,10,-4.73134e-05,-4.07146,-0.367977,-0.160336,0.557789,
2,0,0,1,0,11309.9,0.55408,0.553749,-0.087097,16,1.26786,10,-4.82299e-05,-4.06,-0.351721,-0.167746,0.553787,
2,0,0,1,0,11310.7,0.550085,0.549811,-0.0879838,16,1.26778,10,-4.83745e-05,-4.0556,-2.23423,-0.0264073,0.54985,
2,0,0,0,0,11311.5,0.54609,0.54586,-0.0900214,16,1.26769,10,-4.91391e-05,-4.04565,-0.46414,-0.127117,0.5459,
2,0,0,1,0,11312.3,0.542094,0.541809,-0.0913096,16,1.26761,10,-4.94724e-05,-4.03948,-0.57091,-0.103344,0.541849,
2,0,0,1,0,11313.1,0.538099,0.537827,-0.0913059,16,1.26752,10,-4.91067e-05,-4.0395,2.60141,0.02268,0.537867,
2,0,0,1,0,11313.9,0.534104,0.533834,-0.0932922,16,1.26744,10,-4.98025e-05,-4.03015,-0.408904,-0.144288,0.533875,
2,0,0,1,0,11314.7,0.530109,0.529787,-0.0951362,16,1.26735,10,-5.04019e-05,-4.02165,-0.745653,-0.0791252,0.529829,
2,0,0,0,0,11315.5,0.526114,0.525825,-0.0960593,16,1.26726,10,-5.05104e-05,-4.01746,-1.20137,-0.0491108,0.525867,
2,0,0,1,0,11316.3,0.522119,0.521837,-0.0971326,16,1.26718,10,-5.06874e-05,-4.01263,-0.469152,-0.125759,0.52188,
2,0,0,1,0,11317.1,0.518123,0.517874,-0.0980235,16,1.26709,10,-5.07638e-05,-4.00867,-1.16787,-0.0505194,0.517917,
2,0,0,1,0,11317.9,0.514128,0.513821,-0.0990181,16,1.267,10,-5.08776e-05,-4.00429,-0.657853,-0.0896857,0.513865,
2,0,0,1,0,11318.7,0.510133,0.509806,-0.0982055,16,1.26691,10,-5.00657e-05,-4.00786,-1.4131,-0.0417521,0.509849,
2,0,0,0,0,11319.5,0.506138,0.505782,-0.100361,16,1.26681,10,-5.0761e-05,-3.99843,3.78183,0.0156009,0.505826,
2,0,0,1,0,11320.3,0.502143,0.501889,-0.101782,16,1.26672,10,-5.10833e-05,-3.99233,-0.273017,-0.216104,0.501933,
2,0,0,0,0,11321.1,0.498148,0.497841,-0.103774,16,1.26663,10,-5.16627e-05,-3.98391,28.5614,0.00206573,0.497887,
2,0,0,1,0,11321.9,0.494152,0.493879,-0.104695,16,1.26653,10,-5.17068e-05,-3.98007,-1.64198,-0.0359322,0.493925,
2,0,0,1,0,11322.7,0.490157,0.489851,-0.105779,16,1.26643,10,-5.18161e-05,-3.9756,-0.366614,-0.160932,0.489897,
2,0,0,1,0,11323.5,0.486162,0.485865,-0.107231,16,1.26634,10,-5.20999e-05,-3.96968,-1.62722,-0.0362581,0.485912,
2,0,0,1,0,11324.3,0.482167,0.481916,-0.107768,16,1.26624,10,-5.19353e-05,-3.96751,-2.25409,-0.0261746,0.481963,
2,0,0,0,0,11325.1,0.478172,0.47786,-0.108793,16,1.26614,10,-5.19879e-05,-3.9634,-0.38576,-0.152945,0.477908,
2,0,0,1,0,11325.9,0.474177,0.473866,-0.110995,16,1.26604,10,-5.25966e-05,-3.9547,-9.00738,-0.00655019,0.473915,
2,0,0,1,0,11326.7,0.470181,0.469888,-0.112308,16,1.26594,10,-5.27721e-05,-3.94959,-0.347302,-0.169881,0.469938,
2,0,0,1,0,11327.5,0.466186,0.465909,-0.113551,16,1.26584,10,-5.29045e-05,-3.94481,-1.26879,-0.0465009,0.465959,
2,0,0,1,0,11328.3,0.462191,0.461868,-0.115115,16,1.26573,10,-5.31678e-05,-3.93887,-0.509071,-0.115897,0.461919,
2,0,0,0,0,11329.1,0.458196,0.457907,-0.117726,16,1.26563,10,-5.39074e-05,-3.92913,-0.665361,-0.0886737,0.457959,
2,0,0,1,0,11329.9,0.454201,0.45391,-0.118981,16,1.26552,10,-5.40069e-05,-3.92452,-2.019,-0.0292224,0.453963,
2,0,0,1,0,11330.7,0.450205,0.4499,-0.120704,16,1.26542,10,-5.43047e-05,-3.91828,-0.617874,-0.0954887,0.449953,
2,0,0,1,0,11331.5,0.44621,0.445959,-0.121091,16,1.26531,10,-5.40015e-05,-3.91689,-0.4511,-0.130791,0.446013,
2,0,0,1,0,11332.3,0.442215,0.441917,-0.12314,16,1.2652,10,-5.44175e-05,-3.9096,-0.917933,-0.0642748,0.441971,
2,0,0,0,0,11333.1,0.43822,0.437938,-0.124822,16,1.26509,10,-5.46643e-05,-3.90371,-0.524698,-0.112446,0.437992,
2,0,0,1,0,11333.9,0.434225,0.433936,-0.126757,16,1.26497,10,-5.50042e-05,-3.89703,-0.986419,-0.0598123,0.433991,
2,0,0,0,0,11334.7,0.43023,0.429949,-0.128581,16,1.26486,10,-5.52833e-05,-3.89082,-0.550528,-0.10717,0.430006,
2,0,0,1,0,11335.5,0.426234,0.425915,-0.131005,16,1.26474,10,-5.57969e-05,-3.88271,-0.68158,-0.0865636,0.425973,
2,0,0,1,0,11336.3,0.422239,0.421942,-0.13349,16,1.26463,10,-5.63251e-05,-3.87455,-0.58282,-0.101232,0.422001,
2,0,0,1,0,11337.1,0.418244,0.417929,-0.134105,16,1.26451,10,-5.60465e-05,-3.87255,-0.845633,-0.0697702,0.417988,
2,0,0,1,0,11337.9,0.414249,0.414018,-0.135941,16,1.26439,10,-5.62819e-05,-3.86665,-0.76409,-0.0772161,0.414078,
2,0,0,0,0,11338.7,0.410254,0.409974,-0.138953,16,1.26427,10,-5.69671e-05,-3.85713,-1.40346,-0.0420388,0.410035,
2,0,0,1,0,11339.5,0.406259,0.405947,-0.140346,16,1.26414,10,-5.6973e-05,-3.8528,-0.312386,-0.188869,0.406009,
2,0,0,1,0,11340.3,0.402263,0.401959,-0.143103,16,1.26402,10,-5.75213e-05,-3.84435,-1.28376,-0.0459587,0.402022,
2,0,0,1,0,11341.1,0.398268,0.39799,-0.144578,16,1.26389,10,-5.75407e-05,-3.8399,-0.490215,-0.120355,0.398054,
2,0,0,1,0,11341.9,0.394274,0.393965,-0.146279,16,1.26376,10,-5.76286e-05,-3.83482,-0.632769,-0.093241,0.394029,
2,0,0,0,0,11342.7,0.390278,0.389981,-0.148823,16,1.26363,10,-5.80383e-05,-3.82733,-0.42429,-0.139056,0.390046,
2,0,0,1,0,11343.5,0.386283,0.385957,-0.150995,16,1.2635,10,-5.82777e-05,-3.82104,-0.703452,-0.0838721,0.386024,
2,0,0,1,0,11344.3,0.382287,0.382026,-0.153247,16,1.26337,10,-5.85442e-05,-3.81461,-0.690565,-0.0854373,0.382094,
2,0,0,1,0,11345.1,0.378292,0.378018,-0.155791,16,1.26323,10,-5.88918e-05,-3.80746,-0.98047,-0.0601753,0.378087,
2,0,0,1,0,11345.9,0.374297,0.374011,-0.157721,16,1.26309,10,-5.89893e-05,-3.80211,-0.821066,-0.0718578,0.37408,
2,0,0,1,0,11346.7,0.370303,0.369999,-0.160344,16,1.26295,10,-5.93271e-05,-3.79495,-0.724919,-0.0813884,0.370069,
2,0,0,1,0,11347.5,0.366307,0.365972,-0.160603,16,1.26281,10,-5.87763e-05,-3.79425,-0.649624,-0.0908217,0.366043,
2,0,0,0,0,11348.3,0.362312,0.362009,-0.164353,16,1.26267,10,-5.94974e-05,-3.78422,-0.389176,-0.151602,0.362082,
2,0,0,1,0,11349.1,0.358316,0.358012,-0.166636,16,1.26252,10,-5.96578e-05,-3.77823,-2.73853,-0.0215444,0.358085,
2,0,0,1,0,11349.9,0.354321,0.354005,-0.169241,16,1.26238,10,-5.99123e-05,-3.77149,-0.431268,-0.136806,0.35408,
2,0,0,1,0,11350.7,0.350327,0.350004,-0.171134,16,1.26223,10,-5.98975e-05,-3.76666,-0.462573,-0.127547,0.350079,
2,0,0,1,0,11351.5,0.346331,0.346033,-0.174568,16,1.26207,10,-6.04063e-05,-3.75804,-4.67627,-0.0126169,0.34611,
2,0,0,0,0,11352.3,0.342336,0.341995,-0.17602,16,1.26192,10,-6.01979e-05,-3.75444,-0.49163,-0.120009,0.342073,
2,0,0,1,0,11353.1,0.338341,0.338063,-0.178617,16,1.26177,10,-6.0384e-05,-3.74808,-0.755473,-0.0780968,0.338142,
2,0,0,1,0,11353.9,0.334345,0.33402,-0.180322,16,1.26161,10,-6.0231e-05,-3.74395,-0.727062,-0.0811485,0.334099,
2,0,0,1,0,11354.7,0.33035,0.330055,-0.183992,16,1.26145,10,-6.07274e-05,-3.7352,-0.533672,-0.110555,0.330136,
2,0,0,1,0,11355.5,0.326355,0.326035,-0.186013,16,1.26129,10,-6.06466e-05,-3.73046,-0.642177,-0.091875,0.326117,
2,0,0,0,0,11356.3,0.32236,0.322034,-0.188885,16,1.26113,10,-6.08273e-05,-3.7238,-0.799212,-0.0738227,0.322117,
2,0,0,1,0,11357.1,0.318365,0.318071,-0.190691,16,1.26096,10,-6.06534e-05,-3.71967,-0.809134,-0.0729175,0.318155,
2,0,0,0,0,11357.9,0.31437,0.314093,-0.194028,16,1.26079,10,-6.09428e-05,-3.71214,-1.12046,-0.0526568,0.314178,
2,0,0,1,0,11358.7,0.310374,0.310065,-0.196299,16,1.26063,10,-6.08655e-05,-3.70708,-0.444137,-0.132842,0.310151,
2,0,0,1,0,11359.5,0.306379,0.306053,-0.199475,16,1.26045,10,-6.10499e-05,-3.70011,-1.00105,-0.0589379,0.306141,
2,0,0,1,0,11360.3,0.302385,0.302053,-0.201218,16,1.26028,10,-6.07786e-05,-3.69633,-0.499927,-0.118017,0.302142,
2,0,0,1,0,11361.1,0.298389,0.298062,-0.204725,16,1.26011,10,-6.10209e-05,-3.68883,-0.780462,-0.0755963,0.298153,
2,0,0,0,0,11361.9,0.294394,0.294068,-0.206586,16,1.25993,10,-6.07503e-05,-3.6849,-0.93997,-0.0627679,0.294159,
2,0,0,1,0,11362.7,0.290398,0.29009,-0.20874,16,1.25975,10,-6.05535e-05,-3.68039,-0.816375,-0.0722708,0.290182,
2,0,0,1,0,11363.5,0.286403,0.286076,-0.21108,16,1.25957,10,-6.03849e-05,-3.67555,-0.547567,-0.107749,0.286169,
2,0,0,1,0,11364.3,0.282408,0.282063,-0.214778,16,1.25938,10,-6.05811e-05,-3.66801,-2.7874,-0.0211667,0.282158,
2,0,0,1,0,11365.1,0.278414,0.278117,-0.217952,16,1.2592,10,-6.06161e-05,-3.66164,-0.377063,-0.156473,0.278212,
2,0,0,0,0,11365.9,0.274418,0.274116,-0.219875,16,1.25901,10,-6.02713e-05,-3.65782,-1.15905,-0.0509037,0.274213,
2,0,0,1,0,11366.7,0.270423,0.270126,-0.222656,16,1.25882,10,-6.01452e-05,-3.65237,-0.63075,-0.0935394,0.270224,
2,0,0,1,0,11367.5,0.266427,0.26612,-0.223722,16,1.25862,10,-5.95367e-05,-3.65029,-1.22917,-0.048,0.266218,
2,0,0,1,0,11368.3,0.262432,0.262155,-0.228456,16,1.25843,10,-5.98909e-05,-3.6412,-0.750098,-0.0786564,0.262255,
2,0,0,1,0,11369.1,0.258437,0.258105,-0.230339,16,1.25823,10,-5.94517e-05,-3.63763,-0.771824,-0.0764423,0.258206,
2,0,0,0,0,11369.9,0.254442,0.254177,-0.230688,16,1.25803,10,-5.86353e-05,-3.63698,-1.25963,-0.0468392,0.254278,
2,0,0,1,0,11370.7,0.250447,0.250136,-0.235074,16,1.25783,10,-5.88004e-05,-3.6288,-1.1875,-0.0496841,0.25024,
2,0,0,0,0,11371.5,0.246452,0.246171,-0.237586,16,1.25763,10,-5.84868e-05,-3.62418,-0.499551,-0.118106,0.246276,
2,0,0,1,0,11372.3,0.242456,0.242145,-0.2409,16,1.25743,10,-5.83326e-05,-3.61816,-1.12156,-0.0526052,0.242251,
2,0,0,1,0,11373.1,0.238461,0.23819,-0.243244,16,1.25722,10,-5.79383e-05,-3.61396,-0.944802,-0.062447,0.238297,
2,0,0,1,0,11373.9,0.234467,0.234187,-0.244873,16,1.25701,10,-5.73462e-05,-3.61106,-0.541447,-0.108967,0.234295,
2,0,0,1,0,11374.7,0.230471,0.230174,-0.248881,16,1.2568,10,-5.72859e-05,-3.60401,-1.39107,-0.0424133,0.230284,
2,0,0,0,0,11375.5,0.226476,0.226194,-0.251825,16,1.25659,10,-5.69615e-05,-3.5989,-0.701354,-0.084123,0.226305,
2,0,0,1,0,11376.3,0.222481,0.222154,-0.252692,16,1.25637,10,-5.61367e-05,-3.59741,-1.88711,-0.0312647,0.222266,
2,0,0,1,0,11377.1,0.218485,0.218171,-0.256858,16,1.25615,10,-5.6039e-05,-3.59031,-1.04836,-0.0562785,0.218284,
2,0,0,1,0,11377.9,0.21449,0.214142,-0.260255,16,1.25593,10,-5.57316e-05,-3.5846,-0.592008,-0.0996607,0.214257,
2,0,0,1,0,11378.7,0.210496,0.210207,-0.263444,16,1.25571,10,-5.53778e-05,-3.57931,-0.657271,-0.089765,0.210323,
2,0,0,0,0,11379.5,0.2065,0.206182,-0.267333,16,1.25549,10,-5.51194e-05,-3.57295,-0.590728,-0.0998768,0.2063,
2,0,0,1,0,11380.3,0.202505,0.202168,-0.270395,16,1.25526,10,-5.46652e-05,-3.568,-0.703579,-0.083857,0.202287,
2,0,0,1,0,11381.1,0.198509,0.198177,-0.274423,16,1.25503,10,-5.43844e-05,-3.56158,-0.585367,-0.100792,0.198298,
2,0,0,1,0,11381.9,0.194514,0.194175,-0.278673,16,1.25479,10,-5.41114e-05,-3.55491,-0.632219,-0.0933221,0.194298,
2,0,0,1,0,11382.7,0.190519,0.190194,-0.281873,16,1.25455,10,-5.36106e-05,-3.54995,-0.501886,-0.117557,0.190318,
2,0,0,0,0,11383.5,0.186524,0.186229,-0.288405,16,1.25431,10,-5.37092e-05,-3.54,-0.870613,-0.0677683,0.186356,
2,0,0,1,0,11384.3,0.182529,0.182247,-0.294883,16,1.25406,10,-5.37415e-05,-3.53035,-0.34095,-0.173046,0.182377,
2,0,0,0,0,11385.1,0.178534,0.178206,-0.302081,16,1.25381,10,-5.38325e-05,-3.51988,-0.373871,-0.157808,0.178339,
2,0,0,1,0,11385.9,0.174538,0.174226,-0.309396,16,1.25355,10,-5.39047e-05,-3.50949,-0.300255,-0.1965,0.174362,
2,0,0,1,0,11386.7,0.170543,0.170196,-0.319844,16,1.25329,10,-5.44361e-05,-3.49506,-0.244607,-0.241203,0.170336,
2,0,0,1,0,11387.5,0.166549,0.16623,-0.330906,16,1.25301,10,-5.50065e-05,-3.4803,-0.214077,-0.275602,0.166375,
2,0,0,1,0,11388.3,0.162553,0.162241,-0.346419,16,1.25273,10,-5.62035e-05,-3.4604,-0.186163,-0.316926,0.162394,
2,0,0,0,0,11389.1,0.158558,0.158221,-0.366383,16,1.25243,10,-5.79696e-05,-3.43606,-0.149097,-0.395715,0.158383,
2,0,0,1,0,11389.9,0.154563,0.154237,-0.393471,16,1.25211,10,-6.06879e-05,-3.40509,-0.137253,-0.429864,0.154411,
2,0,0,1,0,11390.7,0.150567,0.150249,-0.425894,16,1.25177,10,-6.39901e-05,-3.3707,-0.0930096,-0.634343,0.150436,
2,0,0,1,0,11391.5,0.146572,0.146261,-0.472192,16,1.2514,10,-6.90633e-05,-3.32588,-0.0883144,-0.668067,0.146469,
2,0,0,1,0,11392.2,0.142578,0.142273,-0.528929,16,1.25099,10,-7.52525e-05,-3.2766,-0.0791012,-0.74588,0.142506,
2,0,0,0,0,11393,0.138582,0.138286,-0.59106,16,1.25053,10,-8.17352e-05,-3.22837,-0.0804096,-0.733743,0.138546,
2,0,0,1,0,11393.8,0.134587,0.134246,-0.655866,16,1.25001,10,-8.80471e-05,-3.18318,-0.10507,-0.561528,0.134534,
2,0,0,1,0,11394.6,0.130591,0.130292,-0.707181,16,1.24945,10,-9.21401e-05,-3.15047,-0.136941,-0.430843,0.130603,
2,0,0,1,0,11395.4,0.126596,0.126283,-0.741631,16,1.24886,10,-9.36553e-05,-3.12981,-0.254521,-0.231808,0.126609,
2,0,0,1,0,11396.2,0.122602,0.122301,-0.763957,16,1.24824,10,-9.3433e-05,-3.11693,-0.724546,-0.0814303,0.122637,
2,0,0,1,0,11397,0.118607,0.118335,-0.768117,16,1.24761,10,-9.08948e-05,-3.11457,-2.37096,-0.0248845,0.118672,
2,0,0,1,0,11397.8,0.114611,0.114296,-0.765077,16,1.24698,10,-8.74453e-05,-3.1163,0.877868,0.0672083,0.114633,
2,0,0,0,0,11398.6,0.110616,0.110259,-0.756016,16,1.24636,10,-8.33577e-05,-3.12147,0.778768,0.0757607,0.110592,
2,0,0,1,0,11399.4,0.10662,0.106293,-0.746169,16,1.24575,10,-7.93124e-05,-3.12716,0.615309,0.0958868,0.106621,
2,0,0,1,0,11400.2,0.102625,0.102303,-0.730792,16,1.24514,10,-7.47623e-05,-3.13621,0.392442,0.150341,0.102625,
2,0,0,1,0,11401,0.0986305,0.0982949,-0.717136,16,1.24455,10,-7.04908e-05,-3.1444,0.491825,0.119961,0.0986104,
2,0,0,1,0,11401.8,0.0946351,0.0942895,-0.699421,16,1.24397,10,-6.5948e-05,-3.15526,0.42623,0.138423,0.0945972,
2,0,0,0,0,11402.6,0.0906399,0.0902832,-0.686655,16,1.2434,10,-6.19934e-05,-3.16326,0.386133,0.152797,0.0905854,
2,0,0,1,0,11403.4,0.0866448,0.0863343,-0.673442,16,1.24284,10,-5.81411e-05,-3.1717,0.588519,0.100252,0.0866306,
2,0,0,1,0,11404.2,0.0826492,0.082313,-0.66198,16,1.24229,10,-5.44896e-05,-3.17915,0.521138,0.113214,0.0826042,
2,0,0,1,0,11405,0.0786544,0.0783452,-0.652013,16,1.24175,10,-5.10821e-05,-3.18574,0.667795,0.0883504,0.0786321,
2,0,0,1,0,11405.8,0.0746596,0.0743212,-0.641103,16,1.24122,10,-4.76475e-05,-3.19307,0.708779,0.0832417,0.0746032,
2,0,0,0,0,11406.6,0.0706641,0.0703105,-0.633983,16,1.2407,10,-4.45757e-05,-3.19792,0.558374,0.105664,0.0705894,
2,0,0,1,0,11407.4,0.0666689,0.0663668,-0.623511,16,1.24018,10,-4.13804e-05,-3.20516,0.657838,0.0896878,0.0666412,
2,0,0,0,0,11408.2,0.0626737,0.062332,-0.612991,16,1.23967,10,-3.82089e-05,-3.21255,0.688066,0.0857476,0.0626017,
2,0,0,1,0,11409,0.0586783,0.0583489,-0.606143,16,1.23917,10,-3.53678e-05,-3.21742,0.516055,0.114329,0.0586156,
2,0,0,1,0,11409.8,0.0546835,0.0543123,-0.597292,16,1.23867,10,-3.24403e-05,-3.22381,0.843835,0.0699189,0.0545751,
2,0,0,1,0,11410.6,0.0506886,0.0503931,-0.58742,16,1.23819,10,-2.96019e-05,-3.23105,0.486499,0.121275,0.0506516,
2,0,0,1,0,11411.4,0.046693,0.0463453,-0.576224,16,1.23771,10,-2.67053e-05,-3.23941,0.45728,0.129024,0.0465988,
2,0,0,0,0,11412.2,0.0426979,0.0424218,-0.565685,16,1.23724,10,-2.39974e-05,-3.24743,0.51097,0.115467,0.0426707,
2,0,0,1,0,11413,0.0387022,0.038363,-0.553902,16,1.23677,10,-2.12494e-05,-3.25657,0.39735,0.148484,0.0386067,
2,0,0,1,0,11413.8,0.0347074,0.0343721,-0.544489,16,1.23632,10,-1.87152e-05,-3.26401,0.532477,0.110803,0.0346116,
2,0,0,1,0,11414.6,0.0307126,0.0303747,-0.530921,16,1.23588,10,-1.61266e-05,-3.27497,0.509617,0.115773,0.0306083,
2,0,0,1,0,11415.4,0.0267172,0.026398,-0.524743,16,1.23544,10,-1.38522e-05,-3.28005,0.395016,0.149361,0.0266289,
2,0,0,0,0,11416.2,0.022722,0.0224268,-0.514181,16,1.23501,10,-1.15314e-05,-3.28888,0.825263,0.0714923,0.022653,
2,0,0,1,0,11417,0.0187268,0.0183802,-0.507124,16,1.23459,10,-9.32107e-06,-3.29489,0.675529,0.087339,0.0186034,
2,0,0,1,0,11417.8,0.0147313,0.0144065,-0.501961,16,1.23417,10,-7.2315e-06,-3.29933,0.7367,0.0800869,0.0146274,
2,0,0,1,0,11418.6,0.0107365,0.0104135,-0.496406,16,1.23376,10,-5.16933e-06,-3.30416,1.84925,0.0319048,0.0106319,
2,0,0,1,0,11419.4,0.00674163,0.00644247,-0.494603,16,1.23335,10,-3.18647e-06,-3.30574,2.84013,0.0207737,0.00666009,
2,0,0,0,0,11420.2,0.00274612,0.00242749,-0.492398,16,1.23294,10,-1.19529e-06,-3.30768,-3.0992,-0.0190372,0.00264415,
2,0,0,1,0,11420.7,0.000274105,-7.48025e-05,-0.494781,16,1.23269,10,3.70108e-08,-3.30559, , ,0.000142901,