File: Figure_codes/Fig_3-5/workspace_calculate_alpha_eff/20221101_1-115_003_TrumpetPlot_ParaChange_from10_every3_16_CV_C01_49.csv
mode,ox/red,error,control changes,counter inc.,time/s,control/V,Ewe/V,<I>/mA,cycle number,(Q-Qo)/C,I Range,P/W,log(|I|),Tafel slope mV/dec,alpha_eff,E-IR/V,
2,0,0,0,0,33122.2,2.44065e-05,-0.000363498,-0.0873094,50,0.0000000E+000,10,3.17368e-08,-4.05894, , ,-0.000325082,
2,1,0,0,0,33123,0.00379485,0.00351335,0.154863,50,0.000102273,10,5.44086e-07,-3.81005,0.0365061,1.61617,0.00344521,
2,1,0,1,0,33123.8,0.00779002,0.00743367,0.179092,50,0.000250324,10,1.33131e-06,-3.74692,0.0828073,0.712498,0.00735487,
2,1,0,0,0,33124.6,0.0117852,0.0114918,0.195744,50,0.000413958,10,2.24945e-06,-3.70831,0.117326,0.50287,0.0114057,
2,1,0,1,0,33125.4,0.0157806,0.0154802,0.210061,50,0.000589665,10,3.25179e-06,-3.67765,0.131009,0.45035,0.0153878,
2,1,0,1,0,33126.2,0.0197754,0.0194404,0.224685,50,0.000776448,10,4.36796e-06,-3.64843,0.141018,0.418387,0.0193416,
2,1,0,1,0,33127,0.0237704,0.0234401,0.237628,50,0.000974683,10,5.57002e-06,-3.6241,0.170114,0.346825,0.0233356,
2,1,0,1,0,33127.8,0.0277659,0.0274828,0.252555,50,0.0011836,10,6.94092e-06,-3.59764,0.162241,0.363656,0.0273717,
2,1,0,0,0,33128.6,0.0317611,0.0314635,0.264955,50,0.00140415,10,8.33642e-06,-3.57683,0.167268,0.352727,0.031347,
2,1,0,1,0,33129.4,0.0357567,0.035413,0.28165,50,0.00163648,10,9.97407e-06,-3.55029,0.206968,0.285068,0.0352891,
2,1,0,1,0,33130.2,0.0397516,0.0394242,0.296432,50,0.00187981,10,1.16866e-05,-3.52808,0.16703,0.35323,0.0392938,
2,1,0,1,0,33130.9,0.0437465,0.0434322,0.307377,50,0.00213491,10,1.335e-05,-3.51233,0.204093,0.289084,0.0432969,
2,1,0,1,0,33131.7,0.0477413,0.0474053,0.323169,50,0.00240051,10,1.53199e-05,-3.49057,0.238458,0.247423,0.0472631,
2,1,0,0,0,33132.5,0.0517369,0.051379,0.334659,50,0.00267651,10,1.71945e-05,-3.4754,0.227335,0.259529,0.0512318,
2,1,0,1,0,33133.3,0.0557321,0.0554192,0.347327,50,0.00296307,10,1.92486e-05,-3.45926,0.325176,0.18144,0.0552664,
2,1,0,1,0,33134.1,0.0597277,0.0593951,0.358359,50,0.00325842,10,2.12848e-05,-3.44568,0.281511,0.209583,0.0592374,
2,1,0,1,0,33134.9,0.0637226,0.0634254,0.36868,50,0.0035628,10,2.33837e-05,-3.43335,0.353841,0.166741,0.0632631,
2,1,0,1,0,33135.7,0.0677174,0.0674238,0.379008,50,0.00387609,10,2.55541e-05,-3.42135,0.449333,0.131306,0.067257,
2,1,0,0,0,33136.5,0.0717128,0.071355,0.388696,50,0.00419657,10,2.77354e-05,-3.41039,0.294968,0.200022,0.0711839,
2,1,0,1,0,33137.3,0.075708,0.0753707,0.395882,50,0.00452464,10,2.98379e-05,-3.40243,0.536981,0.109873,0.0751965,
2,1,0,0,0,33138.1,0.0797031,0.0793685,0.406179,50,0.00485906,10,3.22378e-05,-3.39128,0.402225,0.146684,0.0791897,
2,1,0,1,0,33138.9,0.0836986,0.0833783,0.414259,50,0.00520001,10,3.45402e-05,-3.38273,0.351593,0.167808,0.083196,
2,1,0,1,0,33139.7,0.0876935,0.0873756,0.425025,50,0.00554907,10,3.71368e-05,-3.37159,0.389847,0.151342,0.0871885,
2,1,0,1,0,33140.5,0.0916883,0.0913783,0.438058,50,0.00590749,10,4.0029e-05,-3.35847,0.243425,0.242374,0.0911856,
2,1,0,1,0,33141.3,0.0956838,0.0954018,0.454906,50,0.00627874,10,4.33989e-05,-3.34208,0.235036,0.251025,0.0952017,
2,1,0,0,0,33142.1,0.099679,0.0993624,0.477621,50,0.00666537,10,4.74576e-05,-3.32092,0.217862,0.270813,0.0991523,
2,1,0,1,0,33142.9,0.103674,0.103352,0.500304,50,0.00706927,10,5.17073e-05,-3.30077,0.163294,0.361313,0.103132,
2,1,0,1,0,33143.7,0.10767,0.107358,0.522318,50,0.00749251,10,5.6075e-05,-3.28206,0.246446,0.239404,0.107128,
2,1,0,1,0,33144.5,0.111664,0.111316,0.542448,50,0.00793225,10,6.03834e-05,-3.26564,0.271877,0.21701,0.111078,
2,1,0,1,0,33145.3,0.115659,0.115336,0.557844,50,0.00838603,10,6.43395e-05,-3.25349,0.303773,0.194224,0.115091,
2,1,0,0,0,33146.1,0.119655,0.119315,0.571608,50,0.00885232,10,6.82014e-05,-3.2429,0.546173,0.108024,0.119064,
2,1,0,1,0,33146.9,0.12365,0.123347,0.58312,50,0.0093278,10,7.19259e-05,-3.23424,0.446805,0.132049,0.12309,
2,1,0,1,0,33147.7,0.127646,0.127322,0.592837,50,0.00981241,10,7.54809e-05,-3.22706,0.633113,0.0931904,0.127061,
2,1,0,1,0,33148.5,0.131641,0.131352,0.598765,50,0.0103037,10,7.86489e-05,-3.22274,-1.26227,-0.0467411,0.131088,
2,1,0,1,0,33149.3,0.135635,0.135287,0.587283,50,0.0107927,10,7.94515e-05,-3.23115,-0.323971,-0.182115,0.135028,
2,1,0,0,0,33150.1,0.139631,0.139319,0.556362,50,0.0112662,10,7.75116e-05,-3.25464,-0.123183,-0.478964,0.139074,
2,1,0,1,0,33150.9,0.143626,0.143322,0.508724,50,0.0117071,10,7.29112e-05,-3.29352,-0.0822689,-0.71716,0.143098,
2,1,0,0,0,33151.7,0.147621,0.147333,0.447973,50,0.0121024,10,6.60013e-05,-3.34875,-0.0695971,-0.847736,0.147136,
2,1,0,1,0,33152.5,0.151617,0.151293,0.392985,50,0.0124508,10,5.94559e-05,-3.40562,-0.0752107,-0.784463,0.15112,
2,1,0,1,0,33153.3,0.155612,0.155243,0.352812,50,0.0127601,10,5.47715e-05,-3.45246,-0.0969912,-0.608302,0.155088,
2,1,0,1,0,33154.1,0.159606,0.159257,0.325874,50,0.0130433,10,5.18977e-05,-3.48695,-0.14322,-0.411954,0.159114,
2,1,0,1,0,33154.9,0.163602,0.163284,0.308243,50,0.0133093,10,5.03311e-05,-3.51111,-0.181809,-0.324516,0.163148,
2,1,0,0,0,33155.7,0.167597,0.167251,0.296171,50,0.0135634,10,4.95347e-05,-3.52846,-0.308609,-0.19118,0.16712,
2,1,0,1,0,33156.5,0.171592,0.171271,0.28699,50,0.0138097,10,4.91531e-05,-3.54213,-0.323976,-0.182112,0.171144,
2,1,0,1,0,33157.3,0.175588,0.175304,0.280969,50,0.0140498,10,4.92548e-05,-3.55134,-0.645003,-0.0914724,0.17518,
2,1,0,1,0,33158.1,0.179582,0.179249,0.275924,50,0.0142852,10,4.94591e-05,-3.55921,-0.620036,-0.0951557,0.179128,
2,1,0,1,0,33158.9,0.183577,0.183237,0.273108,50,0.0145175,10,5.00435e-05,-3.56367,-0.684344,-0.086214,0.183117,
2,1,0,0,0,33159.7,0.187573,0.18725,0.269045,50,0.0147466,10,5.03787e-05,-3.57017,-0.608142,-0.0970168,0.187132,
2,1,0,1,0,33160.5,0.191568,0.191232,0.2658,50,0.0149733,10,5.08294e-05,-3.57544,-1.41824,-0.041601,0.191115,
2,1,0,0,0,33161.3,0.195563,0.195249,0.263405,50,0.0151983,10,5.14295e-05,-3.57938,-0.697537,-0.0845834,0.195133,
2,1,0,1,0,33162.1,0.199559,0.199234,0.261614,50,0.0154211,10,5.21224e-05,-3.58234,-1.87561,-0.0314564,0.199119,
2,1,0,1,0,33162.9,0.203553,0.203229,0.25928,50,0.0156425,10,5.26933e-05,-3.58623,-1.86669,-0.0316067,0.203115,
2,1,0,1,0,33163.7,0.207548,0.207267,0.258409,50,0.0158626,10,5.35596e-05,-3.58769,-1.64815,-0.0357976,0.207153,
2,1,0,1,0,33164.5,0.211544,0.211212,0.256408,50,0.0160811,10,5.41565e-05,-3.59107,-2.06976,-0.0285057,0.211099,
2,1,0,0,0,33165.3,0.215539,0.215229,0.255326,50,0.0162984,10,5.49536e-05,-3.5929,-1.00166,-0.058902,0.215116,
2,1,0,1,0,33166.1,0.219535,0.219256,0.254493,50,0.0165144,10,5.57991e-05,-3.59432,-1.55749,-0.0378814,0.219144,
2,1,0,1,0,33166.9,0.223529,0.223189,0.252615,50,0.0167294,10,5.6381e-05,-3.59754,-3.85305,-0.0153125,0.223078,
2,1,0,1,0,33167.7,0.227524,0.227201,0.250298,50,0.0169436,10,5.6868e-05,-3.60154,-0.694981,-0.0848944,0.227091,
2,1,0,1,0,33168.5,0.23152,0.231162,0.249818,50,0.0171565,10,5.77486e-05,-3.60238,2.89501,0.0203799,0.231053,
2,1,0,0,0,33169.3,0.235515,0.235204,0.247525,50,0.0173688,10,5.82187e-05,-3.60638,-1.92723,-0.0306139,0.235095,
2,1,0,1,0,33170.1,0.23951,0.239189,0.247483,50,0.01758,10,5.91952e-05,-3.60645,-4.35072,-0.013561,0.23908,
2,1,0,1,0,33170.9,0.243506,0.243175,0.247217,50,0.0177903,10,6.0117e-05,-3.60692,-2.52202,-0.023394,0.243066,
2,1,0,1,0,33171.7,0.2475,0.247175,0.246112,50,0.0180004,10,6.08325e-05,-3.60887,-1.41601,-0.0416665,0.247066,
2,1,0,1,0,33172.5,0.251495,0.251146,0.24578,50,0.0182093,10,6.17268e-05,-3.60945,-4.39595,-0.0134214,0.251038,
2,1,0,0,0,33173.3,0.255491,0.25513,0.244749,50,0.0184173,10,6.24428e-05,-3.61128,-2.83646,-0.0208006,0.255022,
2,1,0,1,0,33174.1,0.259486,0.259141,0.244232,50,0.0186251,10,6.32907e-05,-3.6122,-1.22182,-0.0482886,0.259034,
2,1,0,0,0,33174.9,0.263481,0.263193,0.243519,50,0.018832,10,6.40924e-05,-3.61347,8.90576,0.00662493,0.263086,
2,1,0,1,0,33175.7,0.267477,0.267176,0.241084,50,0.0190382,10,6.4412e-05,-3.61783,-2.38369,-0.0247515,0.26707,
2,1,0,1,0,33176.5,0.271471,0.271167,0.241131,50,0.0192436,10,6.53868e-05,-3.61775,-2.98711,-0.0197515,0.271061,
2,1,0,1,0,33177.3,0.275466,0.275135,0.240265,50,0.019448,10,6.61052e-05,-3.61931,-2.35974,-0.0250027,0.275029,
2,1,0,1,0,33178.1,0.279462,0.279152,0.239795,50,0.0196519,10,6.69393e-05,-3.62016,-2.43432,-0.0242367,0.279047,
2,1,0,0,0,33178.9,0.283457,0.283131,0.23851,50,0.0198547,10,6.75294e-05,-3.62249,-1.49244,-0.0395326,0.283026,
2,1,0,1,0,33179.7,0.287452,0.287104,0.237614,50,0.0200567,10,6.82201e-05,-3.62413,-2.65652,-0.0222095,0.287,
2,1,0,1,0,33180.5,0.291448,0.291162,0.237459,50,0.020258,10,6.91389e-05,-3.62441,-1.79152,-0.032933,0.291057,
2,1,0,1,0,33181.3,0.295442,0.295131,0.235779,50,0.0204585,10,6.95855e-05,-3.6275,7.57978,0.00778386,0.295027,
2,1,0,1,0,33182.1,0.299437,0.299129,0.235053,50,0.0206585,10,7.03112e-05,-3.62883,-2.4275,-0.0243049,0.299025,
2,1,0,0,0,33182.9,0.303433,0.303143,0.234789,50,0.0208576,10,7.11747e-05,-3.62932,-1.221,-0.0483209,0.30304,
2,1,0,1,0,33183.7,0.307428,0.307035,0.233042,50,0.0210558,10,7.15518e-05,-3.63257,5.33922,0.0110503,0.306932,
2,1,0,1,0,33184.5,0.311424,0.311085,0.232388,50,0.0212536,10,7.22924e-05,-3.63379,-1.25914,-0.0468574,0.310982,
2,1,0,1,0,33185.3,0.315418,0.315109,0.231848,50,0.0214504,10,7.30575e-05,-3.6348,-1.22252,-0.0482608,0.315007,
2,1,0,1,0,33186.1,0.319413,0.31905,0.230768,50,0.0216464,10,7.36266e-05,-3.63682,2.08632,0.0282794,0.318948,
2,1,0,0,0,33186.9,0.323409,0.323084,0.23014,50,0.0218422,10,7.43544e-05,-3.63801,-0.630548,-0.0935694,0.322983,
2,1,0,1,0,33187.7,0.327404,0.327102,0.229646,50,0.022037,10,7.51177e-05,-3.63894,3.62177,0.0162904,0.327001,
2,1,0,0,0,33188.5,0.331399,0.331082,0.227727,50,0.0222316,10,7.53964e-05,-3.64259,2.51157,0.0234912,0.330982,
2,1,0,1,0,33189.3,0.335395,0.335089,0.228559,50,0.0224257,10,7.65876e-05,-3.641,-2.08979,-0.0282325,0.334989,
2,1,0,1,0,33190.1,0.339389,0.339099,0.228031,50,0.0226193,10,7.7325e-05,-3.64201,-2.09647,-0.0281425,0.338999,
2,1,0,1,0,33190.9,0.343384,0.343077,0.2283,50,0.0228124,10,7.83246e-05,-3.64149,-1.80295,-0.0327242,0.342977,
2,1,0,1,0,33191.7,0.34738,0.347021,0.227591,50,0.0230048,10,7.8979e-05,-3.64284,3.15217,0.0187173,0.346921,
2,1,0,0,0,33192.5,0.351375,0.351059,0.225474,50,0.0231969,10,7.91548e-05,-3.6469,-4.75649,-0.0124041,0.35096,
2,1,0,1,0,33193.3,0.35537,0.355016,0.226951,50,0.0233888,10,8.05711e-05,-3.64407,-1.0738,-0.0549453,0.354916,
2,1,0,1,0,33194.1,0.359366,0.359041,0.226292,50,0.0235802,10,8.1248e-05,-3.64533,1.87771,0.0314212,0.358942,
2,1,0,1,0,33194.9,0.36336,0.363076,0.225064,50,0.0237712,10,8.17153e-05,-3.64769,-1.93401,-0.0305066,0.362977,
2,1,0,1,0,33195.7,0.367355,0.367048,0.22463,50,0.0239618,10,8.24498e-05,-3.64853,4.89846,0.0120446,0.366949,
2,1,0,0,0,33196.5,0.371351,0.371042,0.224016,50,0.0241518,10,8.31194e-05,-3.64972,-4.7561,-0.0124051,0.370943,
2,1,0,1,0,33197.3,0.375346,0.375051,0.223918,50,0.0243417,10,8.39806e-05,-3.64991,-3.40693,-0.0173177,0.374953,
2,1,0,1,0,33198.1,0.379342,0.379041,0.224418,50,0.0245311,10,8.50636e-05,-3.64894,-1.85865,-0.0317434,0.378942,
2,1,0,1,0,33198.9,0.383336,0.382984,0.223173,50,0.0247201,10,8.54716e-05,-3.65136,8.188,0.00720567,0.382886,
2,1,0,1,0,33199.7,0.387331,0.387001,0.223143,50,0.024909,10,8.63566e-05,-3.65142,-2.50598,-0.0235437,0.386902,
2,1,0,0,0,33200.5,0.391327,0.391028,0.222797,50,0.0250975,10,8.712e-05,-3.65209,3.99882,0.0147544,0.39093,
2,1,0,1,0,33201.3,0.395322,0.395019,0.221324,50,0.0252858,10,8.74269e-05,-3.65497,6.25056,0.00943916,0.394921,
2,1,0,0,0,33202.1,0.399317,0.399024,0.222884,50,0.0254738,10,8.89361e-05,-3.65192,-5.04844,-0.0116868,0.398926,
2,1,0,1,0,33202.9,0.403313,0.402976,0.221878,50,0.0256615,10,8.94115e-05,-3.65389,-1.39407,-0.042322,0.402878,
2,1,0,1,0,33203.7,0.407307,0.406979,0.222443,50,0.0258489,10,9.05296e-05,-3.65278,2.73702,0.0215563,0.406881,
2,1,0,1,0,33204.5,0.411302,0.410999,0.222449,50,0.0260363,10,9.14263e-05,-3.65277,-14.4581,-0.00408077,0.410901,
2,1,0,1,0,33205.3,0.415298,0.414995,0.222052,50,0.0262238,10,9.21505e-05,-3.65354,-3.08867,-0.0191021,0.414897,
2,1,0,0,0,33206.1,0.419293,0.419018,0.22105,50,0.0264109,10,9.26237e-05,-3.65551,-16.6247,-0.00354895,0.41892,
2,1,0,1,0,33206.9,0.423288,0.422957,0.22164,50,0.0265978,10,9.37442e-05,-3.65435,7.08861,0.00832321,0.42286,
2,1,0,1,0,33207.7,0.427283,0.426965,0.220962,50,0.0267848,10,9.4343e-05,-3.65568,2.61359,0.0225743,0.426867,
2,1,0,1,0,33208.5,0.431278,0.430966,0.221729,50,0.0269716,10,9.55579e-05,-3.65418,-6.00282,-0.00982871,0.430869,
2,1,0,1,0,33209.3,0.435273,0.435009,0.222119,50,0.0271583,10,9.66235e-05,-3.65342,4.3488,0.013567,0.434911,
2,1,0,0,0,33210.1,0.439269,0.438997,0.221235,50,0.0273449,10,9.71215e-05,-3.65515,-1.56715,-0.0376479,0.438899,
2,1,0,1,0,33210.9,0.443264,0.442962,0.220422,50,0.0275313,10,9.76387e-05,-3.65674,2.32338,0.025394,0.442865,
2,1,0,0,0,33211.7,0.447259,0.446937,0.220495,50,0.0277177,10,9.85473e-05,-3.6566,-14.0122,-0.00421061,0.44684,
2,1,0,1,0,33212.5,0.451254,0.450954,0.221616,50,0.0279043,10,9.99386e-05,-3.6544,-5.36903,-0.010989,0.450857,
2,1,0,1,0,33213.3,0.455249,0.45496,0.22128,50,0.0280907,10,0.000100673,-3.65506,1.46641,0.0402344,0.454863,
2,1,0,1,0,33214,0.459244,0.458948,0.221679,50,0.0282776,10,0.000101739,-3.65428,-4.02451,-0.0146602,0.45885,
2,1,0,1,0,33214.8,0.46324,0.462933,0.222884,50,0.0284646,10,0.000103181,-3.65192,3.60844,0.0163506,0.462835,
2,1,0,0,0,33215.6,0.467235,0.466901,0.223445,50,0.0286517,10,0.000104327,-3.65083,4.23327,0.0139372,0.466803,
2,1,0,1,0,33216.4,0.471231,0.47094,0.223231,50,0.0288392,10,0.000105128,-3.65125,7.813,0.00755152,0.470842,
2,1,0,1,0,33217.2,0.475225,0.474879,0.224979,50,0.0290268,10,0.000106838,-3.64786,1.90626,0.0309507,0.47478,
2,1,0,1,0,33218,0.47922,0.478903,0.223862,50,0.0292149,10,0.000107208,-3.65002,4.31845,0.0136623,0.478804,
2,1,0,1,0,33218.8,0.483216,0.482923,0.22413,50,0.0294035,10,0.000108237,-3.6495,-4.51386,-0.0130709,0.482825,
2,1,0,0,0,33219.6,0.487211,0.486874,0.22492,50,0.0295925,10,0.000109508,-3.64797,1.392,0.0423852,0.486775,
2,1,0,1,0,33220.4,0.491206,0.490907,0.226347,50,0.0297821,10,0.000111115,-3.64523,2.49613,0.0236366,0.490807,
2,1,0,1,0,33221.2,0.495201,0.494916,0.226936,50,0.0299721,10,0.000112314,-3.6441,2.00279,0.0294589,0.494816,
2,1,0,1,0,33222,0.499196,0.498882,0.227382,50,0.0301626,10,0.000113437,-3.64324,3.40872,0.0173085,0.498782,
2,1,0,1,0,33222.8,0.503191,0.502887,0.229423,50,0.030354,10,0.000115374,-3.63936,2.54596,0.023174,0.502786,
2,1,0,0,0,33223.6,0.507187,0.506895,0.228985,50,0.030546,10,0.000116071,-3.64019,12.6919,0.00464863,0.506794,
2,1,0,1,0,33224.4,0.511182,0.510876,0.230487,50,0.0307387,10,0.00011775,-3.63735,1.39637,0.0422525,0.510775,
2,1,0,0,0,33225.2,0.515177,0.514883,0.232514,50,0.0309324,10,0.000119717,-3.63355,3.68525,0.0160098,0.51478,
2,1,0,1,0,33226,0.519173,0.518868,0.232799,50,0.0311268,10,0.000120792,-3.63302,0.985251,0.0598832,0.518766,
2,1,0,1,0,33226.8,0.523167,0.522862,0.233968,50,0.0313222,10,0.000122333,-3.63084,2.90436,0.0203143,0.522759,
2,1,0,1,0,33227.6,0.527162,0.526876,0.23585,50,0.0315188,10,0.000124264,-3.62736,1.12906,0.0522561,0.526772,
2,1,0,1,0,33228.4,0.531158,0.530827,0.237213,50,0.0317164,10,0.000125919,-3.62486,1.23642,0.0477184,0.530723,
2,1,0,0,0,33229.2,0.535153,0.534822,0.238569,50,0.0319152,10,0.000127592,-3.62239,1.35826,0.0434378,0.534717,
2,1,0,1,0,33230,0.539148,0.538798,0.240716,50,0.0321151,10,0.000129697,-3.6185,1.60621,0.0367324,0.538692,
2,1,0,1,0,33230.8,0.543143,0.542837,0.242378,50,0.0323166,10,0.000131572,-3.61551,1.37152,0.0430181,0.542731,
2,1,0,1,0,33231.6,0.547138,0.546831,0.243649,50,0.0325197,10,0.000133235,-3.61324,1.42101,0.0415199,0.546723,
2,1,0,1,0,33232.4,0.551133,0.550856,0.246878,50,0.0327244,10,0.000135994,-3.60752,0.574771,0.10265,0.550747,
2,1,0,0,0,33233.2,0.555129,0.554861,0.249252,50,0.0329312,10,0.0001383,-3.60336,0.926609,0.063673,0.554751,
2,1,0,1,0,33234,0.559124,0.55884,0.25223,50,0.0331401,10,0.000140956,-3.5982,0.894697,0.0659441,0.558729,
2,1,0,1,0,33234.8,0.56312,0.562779,0.25509,50,0.0333512,10,0.00014356,-3.59331,0.725818,0.0812876,0.562667,
2,1,0,1,0,33235.6,0.567114,0.566827,0.258762,50,0.033565,10,0.000146673,-3.5871,0.727919,0.081053,0.566713,
2,1,0,1,0,33236.4,0.571109,0.570782,0.262246,50,0.0337813,10,0.000149685,-3.58129,0.590482,0.0999184,0.570667,
2,1,0,0,0,33237.2,0.575105,0.574761,0.266071,50,0.0340007,10,0.000152927,-3.575,0.588534,0.100249,0.574644,
2,1,0,1,0,33238,0.5791,0.578799,0.270291,50,0.0342234,10,0.000156444,-3.56817,0.609193,0.0968495,0.57868,
2,1,0,0,0,33238.8,0.583095,0.582772,0.274522,50,0.0344496,10,0.000159984,-3.56142,0.47102,0.12526,0.582651,
2,1,0,1,0,33239.6,0.58709,0.586802,0.279482,50,0.0346801,10,0.000164,-3.55365,0.469426,0.125686,0.586679,
2,1,0,1,0,33240.4,0.591085,0.5908,0.286801,50,0.034915,10,0.000169442,-3.54242,0.382886,0.154093,0.590674,
2,1,0,1,0,33241.2,0.59508,0.594783,0.293744,50,0.0351551,10,0.000174714,-3.53203,0.348883,0.169111,0.594654,
2,1,0,1,0,33242,0.599076,0.598769,0.301134,50,0.0354012,10,0.00018031,-3.52124,0.353747,0.166786,0.598637,
2,1,0,0,0,33242.8,0.603071,0.602779,0.310334,50,0.0356536,10,0.000187063,-3.50817,0.302995,0.194723,0.602642,
2,1,0,1,0,33243.6,0.607066,0.606714,0.319644,50,0.0359136,10,0.000193933,-3.49533,0.276872,0.213095,0.606573,
2,1,0,1,0,33244.4,0.611061,0.610772,0.332045,50,0.0361822,10,0.000202804,-3.4788,0.258598,0.228153,0.610626,
2,1,0,1,0,33245.2,0.615056,0.61475,0.344543,50,0.0364603,10,0.000211808,-3.46276,0.225311,0.261861,0.614598,
2,1,0,1,0,33246,0.619051,0.618745,0.358613,50,0.0367499,10,0.00022189,-3.44537,0.199654,0.295511,0.618587,
2,1,0,0,0,33246.8,0.623047,0.622733,0.377649,50,0.0370524,10,0.000235175,-3.42291,0.177464,0.332462,0.622567,
2,1,0,1,0,33247.6,0.627042,0.62677,0.397786,50,0.0373702,10,0.00024932,-3.40035,0.164437,0.358799,0.626595,
2,1,0,1,0,33248.4,0.631037,0.630767,0.421773,50,0.0377061,10,0.000266041,-3.37492,0.152876,0.385933,0.630582,
2,1,0,1,0,33249.2,0.635032,0.634722,0.450329,50,0.0380623,10,0.000285834,-3.34647,0.142377,0.414392,0.634524,
2,1,0,1,0,33250,0.639027,0.638765,0.481909,50,0.0384426,10,0.000307826,-3.31704,0.121967,0.483739,0.638553,
2,1,0,1,0,33250.8,0.643022,0.642727,0.520775,50,0.0388512,10,0.000334716,-3.28335,0.115724,0.509832,0.642498,
2,1,0,1,0,33251.6,0.647018,0.646705,0.564463,50,0.0392923,10,0.000365041,-3.24836,0.109022,0.541176,0.646457,
2,1,0,0,0,33252.4,0.651013,0.650697,0.61583,50,0.0397716,10,0.000400719,-3.21054,0.0999582,0.590247,0.650426,
2,1,0,1,0,33253.2,0.655008,0.654807,0.677711,50,0.0402966,10,0.00044377,-3.16896,0.0941395,0.62673,0.654509,
2,1,0,1,0,33254,0.659003,0.658705,0.747734,50,0.040874,10,0.000492536,-3.12625,0.088129,0.669473,0.658376,
2,1,0,1,0,33254.8,0.662998,0.662707,0.83188,50,0.0415134,10,0.000551293,-3.07994,0.08618,0.684614,0.662341,
2,1,0,1,0,33255.6,0.666994,0.666719,0.92821,50,0.0422239,10,0.000618855,-3.03235,0.0820063,0.719457,0.666311,
2,1,0,0,0,33256.4,0.670989,0.670693,1.0381,50,0.0430169,10,0.000696249,-2.98376,0.0789139,0.747651,0.670237,
2,1,0,1,0,33257.2,0.674984,0.674692,1.16468,50,0.0439041,10,0.000785803,-2.93379,0.0783592,0.752943,0.67418,
2,1,0,1,0,33258,0.67898,0.678709,1.30945,50,0.0448997,10,0.000888732,-2.88291,0.0769593,0.766639,0.678132,
2,1,0,1,0,33258.8,0.682974,0.682715,1.47313,50,0.0460188,10,0.00100573,-2.83176,0.0763526,0.77273,0.682067,
2,1,0,1,0,33259.6,0.686969,0.686677,1.65703,50,0.0472762,10,0.00113785,-2.78067,0.0763569,0.772688,0.685948,
2,1,0,0,0,33260.4,0.690965,0.690679,1.86274,50,0.0486896,10,0.00128656,-2.72985,0.076765,0.768579,0.689859,
2,1,0,1,0,33261.2,0.69496,0.694728,2.09145,50,0.0502768,10,0.00145299,-2.67955,0.0786607,0.750057,0.693807,
2,1,0,0,0,33262,0.698955,0.698648,2.34272,50,0.0520552,10,0.00163673,-2.63028,0.0795965,0.741239,0.697617,
2,1,0,1,0,33262.8,0.70295,0.702669,2.6164,50,0.054044,10,0.00183847,-2.5823,0.0820466,0.719104,0.701518,
2,1,0,1,0,33263.6,0.706945,0.70667,2.91691,50,0.0562617,10,0.00206129,-2.53508,0.0823681,0.716296,0.705387,
2,1,0,1,0,33264.4,0.71094,0.710667,3.23812,50,0.0587271,10,0.00230123,-2.48971,0.0854467,0.690489,0.709242,
2,1,0,1,0,33265.2,0.714936,0.714666,3.58462,50,0.0614608,10,0.00256181,-2.44556,0.0890366,0.662649,0.713089,
2,1,0,0,0,33266,0.718931,0.718635,3.95675,50,0.0644811,10,0.00284346,-2.40266,0.0912349,0.646682,0.716895,
2,1,0,1,0,33266.8,0.722927,0.722614,4.35228,50,0.0678082,10,0.00314502,-2.36128,0.0931996,0.63305,0.720699,
2,1,0,1,0,33267.6,0.726921,0.726619,4.77329,50,0.0714605,10,0.00346836,-2.32118,0.0965829,0.610874,0.724518,
2,1,0,1,0,33268.4,0.730916,0.730655,5.21771,50,0.0754588,10,0.00381234,-2.28252,0.0990037,0.595937,0.728359,
2,1,0,1,0,33269.2,0.734911,0.734604,5.68965,50,0.0798235,10,0.00417964,-2.24491,0.103166,0.571894,0.7321,
2,1,0,0,0,33270,0.738907,0.738655,6.18554,50,0.0845757,10,0.00456898,-2.20862,0.105068,0.561539,0.735933,
2,1,0,1,0,33270.8,0.742902,0.742581,6.70663,50,0.0897333,10,0.00498021,-2.1735,0.109105,0.540762,0.73963,
2,1,0,1,0,33271.6,0.746897,0.746662,7.25647,50,0.0953194,10,0.00541813,-2.13927,0.111177,0.530683,0.743469,
2,1,0,1,0,33272.4,0.750892,0.750609,7.83225,50,0.101354,10,0.00587896,-2.10611,0.114046,0.517335,0.747163,
2,1,0,1,0,33273.2,0.754887,0.754639,8.43617,50,0.107861,10,0.00636627,-2.07385,0.116581,0.506086,0.750927,
2,1,0,0,0,33274,0.758883,0.758605,9.07508,50,0.114865,10,0.00688441,-2.04215,0.118435,0.498163,0.754612,
2,1,0,1,0,33274.8,0.762878,0.762577,9.7456,50,0.12239,10,0.00743177,-2.01119,0.119764,0.492637,0.758289,
2,1,0,0,0,33275.6,0.766873,0.766604,10.4556,50,0.130467,10,0.00801527,-1.98065,0.12039,0.490073,0.762004,
2,1,0,1,0,33276.4,0.770868,0.770608,11.2111,50,0.139133,10,0.00863932,-1.95035,0.123211,0.478855,0.765675,
2,1,0,1,0,33277.2,0.774863,0.774594,12.0054,50,0.148414,10,0.00929929,-1.92062,0.120497,0.489641,0.769312,
2,1,0,1,0,33278,0.778858,0.778602,12.8681,50,0.158356,10,0.0100191,-1.89049,0.118033,0.499861,0.77294,
2,1,0,1,0,33278.8,0.782854,0.782594,13.7889,50,0.169014,10,0.0107911,-1.86047,0.121147,0.487012,0.776527,
2,1,0,0,0,33279.6,0.786849,0.786556,14.7331,50,0.180427,10,0.0115884,-1.8317,0.123843,0.47641,0.780073,
2,1,0,1,0,33280.4,0.790844,0.790542,15.7774,50,0.19262,10,0.0124727,-1.80196,0.118297,0.498747,0.7836,
2,1,0,1,0,33281.2,0.794839,0.794547,16.8922,50,0.205678,10,0.0134216,-1.77231,0.119073,0.495495,0.787115,
2,1,0,1,0,33282,0.798834,0.79854,18.0699,50,0.219651,10,0.0144296,-1.74304,0.118725,0.496947,0.790589,
2,1,0,1,0,33282.8,0.802829,0.802583,19.3188,50,0.234594,10,0.0155049,-1.71402,0.120628,0.489108,0.794082,
2,1,0,0,0,33283.6,0.806825,0.806551,20.6198,50,0.250556,10,0.0166309,-1.68572,0.119132,0.495249,0.797478,
2,1,0,1,0,33284.4,0.81082,0.810534,21.9992,50,0.267594,10,0.0178311,-1.65759,0.122611,0.481197,0.800854,
2,1,0,1,0,33285.2,0.814815,0.814545,23.4232,50,0.285752,10,0.0190792,-1.63035,0.127113,0.464155,0.804238,
2,1,0,1,0,33286,0.81881,0.81852,24.8495,50,0.305044,10,0.0203398,-1.60468,0.127815,0.461606,0.807586,
2,1,0,1,0,33286.8,0.822805,0.822512,26.4264,50,0.325541,10,0.021736,-1.57796,0.127991,0.460971,0.810884,
2,1,0,0,0,33287.6,0.826801,0.82657,27.98,50,0.347288,10,0.0231274,-1.55315,0.137929,0.427757,0.814259,
2,1,0,1,0,33288.4,0.830796,0.830545,29.5439,50,0.370286,10,0.0245376,-1.52953,0.140538,0.419815,0.817546,
2,1,0,0,0,33289.2,0.834791,0.834543,31.1994,50,0.394554,10,0.0260372,-1.50585,0.140811,0.419001,0.820815,
2,1,0,1,0,33290,0.838786,0.838571,32.8165,50,0.420151,10,0.027519,-1.48391,0.153456,0.384476,0.824132,
2,1,0,1,0,33290.8,0.842781,0.842526,34.4708,50,0.447051,10,0.0290426,-1.46255,0.160288,0.368086,0.827359,
2,1,0,1,0,33291.6,0.846776,0.846517,35.3332,50,0.475194,10,0.0299102,-1.45182,0.27012,0.218421,0.830971,
2,1,0,0,0,33292.3,0.849723,0.849459,36.6168,50,0.500513,10,0.0311045,-1.43632,0.0530707,1.11173,0.833348,
2,1,0,1,0,33293.1,0.845728,0.845439,34.2917,50,0.528768,10,0.0289915,-1.46481,0.174738,0.337649,0.830351,
2,1,0,0,0,33293.9,0.841732,0.841509,32.7887,50,0.55561,10,0.027592,-1.48428,0.119753,0.492683,0.827082,
2,1,0,1,0,33294.7,0.837737,0.837493,30.9354,50,0.581059,10,0.0259082,-1.50954,0.125226,0.471148,0.823881,
2,1,0,1,0,33295.5,0.833742,0.833483,29.1633,50,0.605047,10,0.0243071,-1.53516,0.12418,0.475118,0.820651,
2,1,0,1,0,33296.3,0.829747,0.82953,27.4594,50,0.627651,10,0.0227784,-1.56131,0.124937,0.472237,0.817448,
2,1,0,1,0,33297,0.825752,0.825485,25.8261,50,0.648922,10,0.0213191,-1.58794,0.12026,0.490605,0.814122,
2,1,0,0,0,33297.8,0.821757,0.821495,24.2443,50,0.668908,10,0.0199166,-1.61539,0.122245,0.482636,0.810827,
2,1,0,1,0,33298.6,0.817761,0.817464,22.7492,50,0.68767,10,0.0185966,-1.64303,0.122436,0.481886,0.807454,
2,1,0,1,0,33299.4,0.813766,0.813471,21.3495,50,0.705275,10,0.0173672,-1.67061,0.116748,0.505362,0.804077,
2,1,0,1,0,33300.2,0.809771,0.80948,19.9612,50,0.72176,10,0.0161582,-1.69981,0.116194,0.507773,0.800697,
2,1,0,1,0,33301,0.805776,0.805488,18.6761,50,0.737182,10,0.0150434,-1.72871,0.119037,0.495644,0.797271,
2,1,0,0,0,33301.8,0.801781,0.801466,17.4434,50,0.7516,10,0.0139803,-1.75837,0.115139,0.512426,0.793791,
2,1,0,1,0,33302.6,0.797786,0.797518,16.2556,50,0.765047,10,0.0129641,-1.789,0.111403,0.52961,0.790366,
2,1,0,1,0,33303.4,0.79379,0.793497,15.1224,50,0.777568,10,0.0119996,-1.82038,0.113615,0.5193,0.786844,
2,1,0,1,0,33304.2,0.789795,0.789483,14.067,50,0.789213,10,0.0111057,-1.8518,0.111333,0.529939,0.783294,
2,1,0,1,0,33305,0.7858,0.785555,13.069,50,0.800042,10,0.0102664,-1.88376,0.109693,0.537867,0.779804,
2,1,0,0,0,33305.8,0.781805,0.78153,12.1157,50,0.81009,10,0.00946876,-1.91665,0.109759,0.537541,0.776199,
2,1,0,1,0,33306.6,0.77781,0.777567,11.2325,50,0.819406,10,0.00873402,-1.94952,0.107671,0.547968,0.772624,
2,1,0,0,0,33307.4,0.773814,0.77353,10.3905,50,0.828032,10,0.00803732,-1.98337,0.106634,0.553297,0.768958,
2,1,0,1,0,33308.2,0.769819,0.769538,9.60002,50,0.836006,10,0.00738758,-2.01773,0.106512,0.553927,0.765314,
2,1,0,1,0,33309,0.765824,0.765577,8.85611,50,0.843365,10,0.00678003,-2.05276,0.102825,0.57379,0.76168,
2,1,0,1,0,33309.8,0.761829,0.761517,8.15897,50,0.85015,10,0.00621319,-2.08836,0.104925,0.562307,0.757927,
2,1,0,1,0,33310.6,0.757834,0.757534,7.51182,50,0.856401,10,0.00569046,-2.12426,0.101126,0.583433,0.754229,
2,1,0,0,0,33311.4,0.753839,0.753546,6.89773,50,0.862144,10,0.00519776,-2.16129,0.10038,0.587769,0.750511,
2,1,0,1,0,33312.2,0.749844,0.749529,6.33028,50,0.867417,10,0.00474473,-2.19858,0.0984617,0.599218,0.746744,
2,1,0,1,0,33313,0.745848,0.745598,5.79267,50,0.872249,10,0.004319,-2.23712,0.0966539,0.610425,0.74305,
2,1,0,1,0,33313.8,0.741853,0.74158,5.28461,50,0.876663,10,0.00391896,-2.27699,0.094333,0.625444,0.739255,
2,1,0,1,0,33314.6,0.737858,0.737602,4.81126,50,0.880685,10,0.0035488,-2.31774,0.0909263,0.648877,0.735486,
2,1,0,0,0,33315.4,0.733863,0.733573,4.3656,50,0.88434,10,0.00320249,-2.35996,0.089052,0.662534,0.731653,
2,1,0,1,0,33316.2,0.729868,0.729627,3.94844,50,0.88765,10,0.00288089,-2.40357,0.0853595,0.691195,0.727889,
2,1,0,1,0,33317,0.725872,0.725607,3.55878,50,0.890639,10,0.00258228,-2.4487,0.084859,0.695271,0.724042,
2,1,0,1,0,33317.8,0.721877,0.721548,3.19764,50,0.893328,10,0.00230725,-2.49517,0.0814882,0.724031,0.720141,
2,1,0,1,0,33318.6,0.717882,0.717621,2.86362,50,0.895739,10,0.002055,-2.54308,0.0778834,0.757542,0.716361,
2,1,0,0,0,33319.4,0.713887,0.713599,2.55267,50,0.897892,10,0.00182158,-2.593,0.0762206,0.774069,0.712475,
2,1,0,1,0,33320.2,0.709892,0.709645,2.26655,50,0.899808,10,0.00160844,-2.64464,0.0742973,0.794107,0.708648,
2,1,0,0,0,33321,0.705897,0.705581,2.00252,50,0.901503,10,0.00141294,-2.69842,0.0693948,0.850208,0.7047,
2,1,0,1,0,33321.8,0.701901,0.701622,1.75889,50,0.902995,10,0.00123408,-2.75476,0.0684974,0.861346,0.700848,
2,1,0,1,0,33322.6,0.697906,0.697601,1.53601,50,0.904301,10,0.00107152,-2.81361,0.0655572,0.899977,0.696926,
2,1,0,1,0,33323.4,0.693911,0.693599,1.33485,50,0.905438,10,0.000925854,-2.87457,0.062064,0.950632,0.693011,
2,1,0,1,0,33324.2,0.689916,0.689635,1.15106,50,0.906421,10,0.000793813,-2.9389,0.0594811,0.991912,0.689128,
2,1,0,0,0,33325,0.685921,0.685622,0.986536,50,0.907266,10,0.000676391,-3.00589,0.05772,1.02218,0.685188,
2,1,0,1,0,33325.8,0.681926,0.681651,0.839196,50,0.907986,10,0.000572039,-3.07614,0.0540443,1.0917,0.681281,
2,1,0,1,0,33326.6,0.67793,0.677626,0.707316,50,0.908594,10,0.000479296,-3.15039,0.0516086,1.14322,0.677315,
2,1,0,1,0,33327.4,0.673935,0.673648,0.590859,50,0.909102,10,0.000398031,-3.22852,0.049488,1.19221,0.673388,
2,1,0,1,0,33328.2,0.66994,0.669644,0.490079,50,0.909525,10,0.000328178,-3.30973,0.0467583,1.26181,0.669428,
2,1,0,0,0,33329,0.665945,0.665654,0.39995,50,0.909871,10,0.000266228,-3.39799,0.04385,1.3455,0.665479,
2,1,0,1,0,33329.8,0.66195,0.661685,0.322709,50,0.91015,10,0.000213532,-3.49119,0.041328,1.4276,0.661543,
2,1,0,0,0,33330.6,0.657955,0.657601,0.256002,50,0.910372,10,0.000168347,-3.59176,0.0374583,1.57508,0.657488,
2,1,0,1,0,33331.4,0.653959,0.653651,0.198219,50,0.910544,10,0.000129566,-3.70285,0.034296,1.72032,0.653564,
2,1,0,1,0,33332.2,0.649964,0.649689,0.150677,50,0.910674,10,9.78935e-05,-3.82195,0.0295002,1.99998,0.649623,
2,1,0,1,0,33333,0.64597,0.645663,0.107949,50,0.910768,10,6.96989e-05,-3.96678,0.0265642,2.22104,0.645616,
2,1,0,1,0,33333.8,0.641974,0.641664,0.0725009,50,0.910831,10,4.65212e-05,-4.13966,0.0201045,2.93466,0.641632,
2,1,0,0,0,33334.6,0.637979,0.63771,0.0432361,50,0.910868,10,2.75721e-05,-4.36415,0.0137217,4.29976,0.637691,
2,1,0,1,0,33335.4,0.633983,0.633714,0.017755,50,0.910883,10,1.12516e-05,-4.75068,0.00655738,8.9975,0.633706,
2,1,0,1,0,33336.2,0.629988,0.629674,-0.00366477,50,0.91088,10,-2.30761e-06,-5.43595,-0.0167108,-3.53064,0.629675,
2,0,0,1,0,33337,0.625993,0.625686,-0.019512,50,0.910862,10,-1.22084e-05,-4.7097,-0.0118382,-4.98386,0.625694,
2,0,0,1,0,33337.8,0.621998,0.621685,-0.0341198,50,0.910832,10,-2.12118e-05,-4.46699,-0.0224775,-2.62485,0.6217,
2,0,0,0,0,33338.6,0.618003,0.617697,-0.045854,50,0.910791,10,-2.83239e-05,-4.33862,-0.0388805,-1.51747,0.617717,
2,0,0,1,0,33339.4,0.614008,0.613713,-0.0564634,50,0.910741,10,-3.46523e-05,-4.24823,-0.0630796,-0.935327,0.613737,
2,0,0,1,0,33340.2,0.610012,0.609707,-0.0650574,50,0.910684,10,-3.9666e-05,-4.1867,-0.0705268,-0.836562,0.609736,
2,0,0,1,0,33341,0.606017,0.605697,-0.0715938,50,0.910621,10,-4.33642e-05,-4.14512,-0.0968277,-0.60933,0.605729,
2,0,0,1,0,33341.8,0.602022,0.601762,-0.0782555,50,0.910552,10,-4.70912e-05,-4.10649,-0.148366,-0.397666,0.601796,
2,0,0,0,0,33342.6,0.598027,0.597693,-0.0832739,50,0.910478,10,-4.97722e-05,-4.07949,-0.136573,-0.432005,0.59773,
2,0,0,1,0,33343.4,0.594032,0.593761,-0.0877835,50,0.910401,10,-5.21224e-05,-4.05659,-0.20375,-0.289571,0.5938,
2,0,0,0,0,33344.2,0.590037,0.589728,-0.0914436,50,0.91032,10,-5.39269e-05,-4.03885,-0.231493,-0.254867,0.589768,
2,0,0,1,0,33345,0.586041,0.585719,-0.0944684,50,0.910236,10,-5.53319e-05,-4.02471,-0.363204,-0.162443,0.58576,
2,0,0,1,0,33345.8,0.582046,0.581718,-0.0977633,50,0.910151,10,-5.68707e-05,-4.00982,-0.226003,-0.261059,0.581761,
2,0,0,1,0,33346.6,0.578052,0.577755,-0.100708,50,0.910063,10,-5.81846e-05,-3.99694,-0.57337,-0.1029,0.577799,
2,0,0,1,0,33347.4,0.574056,0.573789,-0.101329,50,0.909973,10,-5.81413e-05,-3.99427,-0.701403,-0.0841171,0.573834,
2,0,0,0,0,33348.2,0.570061,0.569729,-0.103855,50,0.909882,10,-5.91693e-05,-3.98357,-0.670529,-0.0879902,0.569775,
2,0,0,1,0,33349,0.566065,0.565768,-0.105379,50,0.909789,10,-5.96201e-05,-3.97725,-0.658457,-0.0896034,0.565814,
2,0,0,1,0,33349.8,0.56207,0.56179,-0.107339,50,0.909695,10,-6.03022e-05,-3.96924,-0.433996,-0.135946,0.561837,
2,0,0,1,0,33350.6,0.558075,0.557789,-0.108824,50,0.9096,10,-6.0701e-05,-3.96327,-0.783636,-0.0752901,0.557837,
2,0,0,1,0,33351.4,0.55408,0.553795,-0.110561,50,0.909504,10,-6.12279e-05,-3.9564,-0.512851,-0.115043,0.553843,
2,0,0,0,0,33352.2,0.550085,0.549743,-0.111411,50,0.909406,10,-6.12473e-05,-3.95307,-4.99575,-0.01181,0.549792,
2,0,0,1,0,33353,0.54609,0.545771,-0.112151,50,0.909308,10,-6.12091e-05,-3.95019,-0.491652,-0.120004,0.545821,
2,0,0,1,0,33353.8,0.542094,0.5418,-0.113078,50,0.909209,10,-6.12656e-05,-3.94662,-2.2181,-0.0265994,0.541849,
2,0,0,1,0,33354.6,0.538099,0.537804,-0.113894,50,0.909109,10,-6.12527e-05,-3.9435,-6.88629,-0.00856774,0.537854,
2,0,0,1,0,33355.4,0.534104,0.533819,-0.115021,50,0.909008,10,-6.14001e-05,-3.93922,-0.463494,-0.127294,0.533869,
2,0,0,0,0,33356.2,0.530109,0.529833,-0.115778,50,0.908907,10,-6.13429e-05,-3.93637,-1.13431,-0.0520141,0.529884,
2,0,0,1,0,33357,0.526114,0.525811,-0.117297,50,0.908805,10,-6.16762e-05,-3.93071,-0.737564,-0.0799931,0.525863,
2,0,0,0,0,33357.8,0.522119,0.521801,-0.118075,50,0.908702,10,-6.16114e-05,-3.92784,-5.34291,-0.0110427,0.521853,
2,0,0,1,0,33358.6,0.518123,0.517768,-0.119015,50,0.908598,10,-6.16221e-05,-3.9244,7.12927,0.00827574,0.51782,
2,0,0,1,0,33359.4,0.514128,0.513829,-0.120128,50,0.908493,10,-6.17252e-05,-3.92036,-0.552273,-0.106831,0.513882,
2,0,0,1,0,33360.2,0.510133,0.509793,-0.120984,50,0.908388,10,-6.16769e-05,-3.91727,-1.81819,-0.0324498,0.509846,
2,0,0,1,0,33361,0.506138,0.505777,-0.122122,50,0.908282,10,-6.17664e-05,-3.91321,-3.70598,-0.0159202,0.505831,
2,0,0,0,0,33361.8,0.502143,0.501858,-0.122455,50,0.908175,10,-6.14548e-05,-3.91202,-0.671142,-0.0879099,0.501912,
2,0,0,1,0,33362.6,0.498148,0.497844,-0.124009,50,0.908067,10,-6.17372e-05,-3.90655,-0.679403,-0.0868409,0.497899,
2,0,0,1,0,33363.4,0.494152,0.493844,-0.125798,50,0.907958,10,-6.21248e-05,-3.90032,31.4006,0.00187895,0.493899,
2,0,0,1,0,33364.2,0.490157,0.489824,-0.125446,50,0.907848,10,-6.14467e-05,-3.90154,-0.635066,-0.0929038,0.489879,
2,0,0,1,0,33365,0.486162,0.485854,-0.127192,50,0.907738,10,-6.17966e-05,-3.89554,-1.63567,-0.0360708,0.48591,
2,0,0,0,0,33365.8,0.482167,0.481865,-0.128111,50,0.907627,10,-6.17323e-05,-3.89241,-0.555655,-0.106181,0.481921,
2,0,0,1,0,33366.6,0.478172,0.477879,-0.128693,50,0.907514,10,-6.14995e-05,-3.89045,-1.17589,-0.0501748,0.477935,
2,0,0,0,0,33367.4,0.474177,0.473868,-0.131023,50,0.907401,10,-6.20877e-05,-3.88265,-10.5458,-0.00559465,0.473926,
2,0,0,1,0,33368.2,0.470181,0.469823,-0.131935,50,0.907287,10,-6.19863e-05,-3.87964,-0.731865,-0.080616,0.469881,
2,0,0,1,0,33369,0.466186,0.465862,-0.133431,50,0.907171,10,-6.21603e-05,-3.87474,-0.703209,-0.0839011,0.465921,
2,0,0,1,0,33369.8,0.462191,0.461887,-0.135038,50,0.907054,10,-6.23721e-05,-3.86955,-0.60689,-0.097217,0.461947,
2,0,0,1,0,33370.6,0.458196,0.457902,-0.135926,50,0.906936,10,-6.22408e-05,-3.8667,-1.0587,-0.0557286,0.457962,
2,0,0,0,0,33371.4,0.454201,0.453914,-0.138458,50,0.906817,10,-6.28482e-05,-3.85868,-1.23483,-0.04778,0.453974,
2,0,0,1,0,33372.2,0.450205,0.449905,-0.139568,50,0.906697,10,-6.27924e-05,-3.85521,-0.751452,-0.0785146,0.449966,
2,0,0,1,0,33373,0.44621,0.445973,-0.140903,50,0.906575,10,-6.2839e-05,-3.85108,-1.05192,-0.0560877,0.446035,
2,0,0,1,0,33373.8,0.442215,0.441878,-0.141666,50,0.906452,10,-6.25992e-05,-3.84873,-0.994382,-0.0593333,0.441941,
2,0,0,1,0,33374.6,0.43822,0.437928,-0.143556,50,0.906327,10,-6.2867e-05,-3.84298,-0.819378,-0.0720059,0.437991,
2,0,0,0,0,33375.4,0.434225,0.433938,-0.14516,50,0.906202,10,-6.29905e-05,-3.83815,-0.600217,-0.0982978,0.434001,
2,0,0,1,0,33376.2,0.43023,0.429931,-0.147469,50,0.906075,10,-6.34015e-05,-3.8313,-1.75632,-0.0335929,0.429996,
2,0,0,1,0,33377,0.426234,0.425934,-0.148972,50,0.905946,10,-6.34522e-05,-3.8269,-0.551827,-0.106918,0.426,
2,0,0,1,0,33377.8,0.422239,0.42195,-0.150556,50,0.905816,10,-6.35269e-05,-3.8223,-0.620552,-0.0950766,0.422016,
2,0,0,1,0,33378.6,0.418244,0.417977,-0.153057,50,0.905685,10,-6.39744e-05,-3.81515,-0.663801,-0.0888821,0.418044,
2,0,0,0,0,33379.4,0.414249,0.413969,-0.153997,50,0.905552,10,-6.375e-05,-3.81249,-0.609216,-0.0968458,0.414037,
2,0,0,1,0,33380.1,0.410254,0.409919,-0.156808,50,0.905417,10,-6.42785e-05,-3.80463,-1.95277,-0.0302136,0.409988,
2,0,0,0,0,33380.9,0.406259,0.405979,-0.158789,50,0.905281,10,-6.4465e-05,-3.79918,-0.8732,-0.0675676,0.406049,
2,0,0,1,0,33381.7,0.402263,0.401945,-0.160111,50,0.905144,10,-6.43558e-05,-3.79558,-0.655448,-0.0900147,0.402015,
2,0,0,1,0,33382.5,0.398268,0.397897,-0.162197,50,0.905004,10,-6.45376e-05,-3.78996,-0.911602,-0.0647212,0.397968,
2,0,0,1,0,33383.3,0.394274,0.393966,-0.164149,50,0.904863,10,-6.46691e-05,-3.78476,-0.749908,-0.0786763,0.394038,
2,0,0,1,0,33384.1,0.390278,0.389976,-0.1667,50,0.904721,10,-6.50091e-05,-3.77806,-0.715709,-0.0824357,0.39005,
2,0,0,0,0,33384.9,0.386283,0.385956,-0.168318,50,0.904577,10,-6.49634e-05,-3.77387,-0.624467,-0.0944805,0.38603,
2,0,0,1,0,33385.7,0.382287,0.381976,-0.168982,50,0.904431,10,-6.45473e-05,-3.77216,-0.726068,-0.0812596,0.382051,
2,0,0,1,0,33386.5,0.378292,0.378023,-0.173045,50,0.904284,10,-6.5415e-05,-3.76184,3.89023,0.0151662,0.378099,
2,0,0,1,0,33387.3,0.374297,0.373987,-0.174003,50,0.904134,10,-6.50748e-05,-3.75944,-0.388002,-0.152061,0.374063,
2,0,0,1,0,33388.1,0.370303,0.369973,-0.176014,50,0.903983,10,-6.51204e-05,-3.75445,-0.75886,-0.0777482,0.370051,
2,0,0,0,0,33388.9,0.366307,0.36599,-0.177842,50,0.90383,10,-6.50885e-05,-3.74996,-0.58969,-0.100053,0.366068,
2,0,0,1,0,33389.7,0.362312,0.362008,-0.181015,50,0.903676,10,-6.5529e-05,-3.74228,-0.895728,-0.0658682,0.362088,
2,0,0,1,0,33390.5,0.358316,0.358022,-0.182842,50,0.90352,10,-6.54614e-05,-3.73792,-1.10673,-0.0533104,0.358102,
2,0,0,1,0,33391.3,0.354321,0.35399,-0.184769,50,0.903361,10,-6.54066e-05,-3.73337,-0.734722,-0.0803025,0.354072,
2,0,0,1,0,33392.1,0.350327,0.350006,-0.186662,50,0.903201,10,-6.53328e-05,-3.72894,-1.00416,-0.0587555,0.350088,
2,0,0,0,0,33392.9,0.346331,0.34603,-0.189688,50,0.903039,10,-6.56379e-05,-3.72196,-1.41143,-0.0418017,0.346113,
2,0,0,1,0,33393.7,0.342336,0.342075,-0.191106,50,0.902876,10,-6.53726e-05,-3.71873,-0.511538,-0.115338,0.342159,
2,0,0,0,0,33394.5,0.338341,0.338038,-0.194284,50,0.90271,10,-6.56753e-05,-3.71156,-0.661742,-0.0891586,0.338123,
2,0,0,1,0,33395.3,0.334345,0.334074,-0.197141,50,0.902543,10,-6.58596e-05,-3.70522,-0.687567,-0.0858098,0.33416,
2,0,0,1,0,33396.1,0.33035,0.33005,-0.199797,50,0.902373,10,-6.59428e-05,-3.69941,-0.660114,-0.0893785,0.330138,
2,0,0,1,0,33396.9,0.326355,0.326048,-0.200821,50,0.902202,10,-6.54771e-05,-3.69719,-0.88134,-0.0669435,0.326136,
2,0,0,1,0,33397.7,0.32236,0.322042,-0.203248,50,0.902028,10,-6.54546e-05,-3.69197,-0.807278,-0.0730851,0.322132,
2,0,0,0,0,33398.5,0.318365,0.318038,-0.204472,50,0.901853,10,-6.50299e-05,-3.68937,-0.883964,-0.0667448,0.318128,
2,0,0,1,0,33399.3,0.31437,0.314035,-0.208858,50,0.901676,10,-6.55886e-05,-3.68015,-1.26462,-0.0466545,0.314127,
2,0,0,1,0,33400.1,0.310374,0.310045,-0.210782,50,0.901496,10,-6.5352e-05,-3.67617,-0.530549,-0.111206,0.310138,
2,0,0,1,0,33400.9,0.306379,0.306038,-0.21311,50,0.901315,10,-6.52196e-05,-3.6714,-0.752842,-0.0783697,0.306132,
2,0,0,1,0,33401.7,0.302385,0.302118,-0.216539,50,0.901131,10,-6.54202e-05,-3.66446,-0.807448,-0.0730697,0.302213,
2,0,0,0,0,33402.5,0.298389,0.298097,-0.218412,50,0.900945,10,-6.51079e-05,-3.66072,-0.722648,-0.0816441,0.298194,
2,0,0,1,0,33403.3,0.294394,0.294064,-0.220663,50,0.900758,10,-6.48889e-05,-3.65627,-1.52009,-0.0388134,0.294161,
2,0,0,1,0,33404.1,0.290398,0.290096,-0.223498,50,0.900568,10,-6.4836e-05,-3.65073,-0.558552,-0.10563,0.290195,
2,0,0,1,0,33404.9,0.286403,0.286123,-0.225543,50,0.900376,10,-6.45332e-05,-3.64677,-1.04414,-0.0565058,0.286223,
2,0,0,1,0,33405.7,0.282408,0.282133,-0.228722,50,0.900182,10,-6.45301e-05,-3.64069,-0.890419,-0.066261,0.282234,
2,0,0,1,0,33406.5,0.278414,0.278087,-0.231707,50,0.899986,10,-6.44345e-05,-3.63506,-0.571564,-0.103226,0.278189,
2,0,0,1,0,33407.3,0.274418,0.274087,-0.234619,50,0.899788,10,-6.43058e-05,-3.62964,-0.985495,-0.0598684,0.27419,
2,0,0,0,0,33408.1,0.270423,0.270109,-0.237149,50,0.899588,10,-6.40562e-05,-3.62498,-0.688414,-0.0857042,0.270213,
2,0,0,1,0,33408.9,0.266427,0.266143,-0.23864,50,0.899386,10,-6.35123e-05,-3.62226,-1.19504,-0.0493709,0.266248,
2,0,0,1,0,33409.7,0.262432,0.262127,-0.242273,50,0.899181,10,-6.35065e-05,-3.61569,-0.870242,-0.0677973,0.262234,
2,0,0,1,0,33410.5,0.258437,0.258114,-0.244078,50,0.898975,10,-6.29999e-05,-3.61247,-0.737261,-0.0800259,0.258221,
2,0,0,1,0,33411.3,0.254442,0.254097,-0.245942,50,0.898767,10,-6.24931e-05,-3.60917,-0.814563,-0.0724315,0.254205,
2,0,0,0,0,33412.1,0.250447,0.250114,-0.249118,50,0.898556,10,-6.23078e-05,-3.6036,-32.1955,-0.00183256,0.250224,
2,0,0,1,0,33412.9,0.246452,0.24615,-0.251508,50,0.898344,10,-6.19088e-05,-3.59945,-0.551576,-0.106966,0.246261,
2,0,0,1,0,33413.7,0.242456,0.242134,-0.253831,50,0.898129,10,-6.14613e-05,-3.59545,-0.967182,-0.0610019,0.242246,
2,0,0,1,0,33414.5,0.238461,0.238173,-0.255298,50,0.897913,10,-6.0805e-05,-3.59295,-1.28346,-0.0459696,0.238285,
2,0,0,1,0,33415.3,0.234467,0.234185,-0.257641,50,0.897695,10,-6.03356e-05,-3.58899,-0.650715,-0.0906695,0.234298,
2,0,0,0,0,33416.1,0.230471,0.230178,-0.261354,50,0.897475,10,-6.0158e-05,-3.58277,-1.40324,-0.0420456,0.230293,
2,0,0,1,0,33416.9,0.226476,0.226199,-0.263325,50,0.897253,10,-5.95639e-05,-3.57951,-0.705607,-0.0836159,0.226315,
2,0,0,0,0,33417.7,0.222481,0.222167,-0.266204,50,0.897029,10,-5.91418e-05,-3.57479,-1.55118,-0.0380357,0.222284,
2,0,0,1,0,33418.5,0.218485,0.218168,-0.269321,50,0.896802,10,-5.87572e-05,-3.56973,-2.28616,-0.0258075,0.218287,
2,0,0,1,0,33419.3,0.21449,0.214198,-0.272463,50,0.896574,10,-5.8361e-05,-3.56469,-0.588233,-0.1003,0.214318,
2,0,0,1,0,33420.1,0.210496,0.210196,-0.274591,50,0.896343,10,-5.77177e-05,-3.56131,-0.737578,-0.0799915,0.210316,
2,0,0,1,0,33420.9,0.2065,0.206156,-0.279347,50,0.89611,10,-5.7589e-05,-3.55386,-0.80393,-0.0733895,0.206279,
2,0,0,0,0,33421.7,0.202505,0.202211,-0.280803,50,0.895874,10,-5.67815e-05,-3.5516,-0.894789,-0.0659373,0.202335,
2,0,0,1,0,33422.5,0.198509,0.198175,-0.283629,50,0.895636,10,-5.62082e-05,-3.54725,-0.768761,-0.0767469,0.1983,
2,0,0,1,0,33423.3,0.194514,0.194179,-0.287731,50,0.895395,10,-5.58712e-05,-3.54101,-0.712405,-0.0828181,0.194305,
2,0,0,1,0,33424.1,0.190519,0.190221,-0.29027,50,0.89515,10,-5.52157e-05,-3.5372,-0.779138,-0.0757247,0.190349,
2,0,0,1,0,33424.9,0.186524,0.186215,-0.29504,50,0.894903,10,-5.49409e-05,-3.53012,-0.789109,-0.0747679,0.186345,
2,0,0,0,0,33425.7,0.182529,0.182227,-0.301293,50,0.894651,10,-5.49037e-05,-3.52101,-0.338202,-0.174452,0.182359,
2,0,0,1,0,33426.5,0.178534,0.178208,-0.305982,50,0.894396,10,-5.45284e-05,-3.5143,-0.827873,-0.0712669,0.178343,
2,0,0,1,0,33427.3,0.174538,0.174259,-0.312586,50,0.894136,10,-5.44708e-05,-3.50503,-0.341149,-0.172945,0.174396,
2,0,0,1,0,33428.1,0.170543,0.170252,-0.319661,50,0.89387,10,-5.44229e-05,-3.49531,-0.343135,-0.171944,0.170392,
2,0,0,1,0,33428.9,0.166549,0.166215,-0.328083,50,0.893598,10,-5.45322e-05,-3.48402,-0.329624,-0.178992,0.166359,
2,0,0,0,0,33429.7,0.162553,0.162222,-0.339212,50,0.893318,10,-5.50277e-05,-3.46953,-0.286035,-0.206268,0.162372,
2,0,0,1,0,33430.5,0.158558,0.158201,-0.351079,50,0.893029,10,-5.55411e-05,-3.4546,-0.197862,-0.298188,0.158356,
2,0,0,0,0,33431.3,0.154563,0.15424,-0.370651,50,0.892727,10,-5.7169e-05,-3.43103,-0.198532,-0.297182,0.154403,
2,0,0,1,0,33432.1,0.150567,0.150238,-0.393506,50,0.892409,10,-5.91198e-05,-3.40505,-0.128771,-0.458176,0.150412,
2,0,0,1,0,33432.9,0.146572,0.146237,-0.423866,50,0.89207,10,-6.19848e-05,-3.37277,-0.112585,-0.524051,0.146423,
2,0,0,1,0,33433.7,0.142578,0.142291,-0.463546,50,0.891704,10,-6.59585e-05,-3.33391,-0.0928299,-0.635571,0.142495,
2,0,0,1,0,33434.5,0.138582,0.138266,-0.511837,50,0.891301,10,-7.07695e-05,-3.29087,-0.0917055,-0.643364,0.138491,
2,0,0,0,0,33435.3,0.134587,0.13424,-0.564949,50,0.890857,10,-7.58389e-05,-3.24799,-0.0963347,-0.612448,0.134489,
2,0,0,1,0,33436.1,0.130591,0.130245,-0.617252,50,0.89037,10,-8.03941e-05,-3.20954,-0.117177,-0.503512,0.130517,
2,0,0,1,0,33436.9,0.126596,0.126273,-0.656774,50,0.889845,10,-8.29331e-05,-3.18258,-0.166239,-0.354911,0.126562,
2,0,0,1,0,33437.7,0.122602,0.122281,-0.690272,50,0.889292,10,-8.44074e-05,-3.16098,-0.294544,-0.20031,0.122585,
2,0,0,1,0,33438.5,0.118607,0.118308,-0.706864,50,0.888719,10,-8.36277e-05,-3.15066,-0.43894,-0.134415,0.118619,
2,0,0,0,0,33439.3,0.114611,0.114259,-0.714737,50,0.888136,10,-8.16652e-05,-3.14585,-3.75074,-0.0157302,0.114573,
2,0,0,1,0,33440.1,0.110616,0.110294,-0.715437,50,0.887552,10,-7.89085e-05,-3.14543,10.7519,0.0054874,0.110609,
2,0,0,1,0,33440.9,0.10662,0.106351,-0.70978,50,0.886969,10,-7.54859e-05,-3.14888,1.77953,0.0331549,0.106663,
2,0,0,1,0,33441.7,0.102625,0.102295,-0.704007,50,0.886389,10,-7.20167e-05,-3.15242,0.646817,0.0912159,0.102605,
2,0,0,1,0,33442.5,0.0986305,0.0983276,-0.695286,50,0.885817,10,-6.83658e-05,-3.15784,0.74353,0.0793512,0.0986335,
2,0,0,0,0,33443.3,0.0946351,0.0943361,-0.682746,50,0.88525,10,-6.44076e-05,-3.16574,0.722905,0.0816151,0.0946365,
2,0,0,1,0,33444.1,0.0906399,0.0903256,-0.675626,50,0.884692,10,-6.10263e-05,-3.17029,0.521655,0.113102,0.0906229,
2,0,0,0,0,33444.9,0.0866448,0.086329,-0.665123,50,0.884142,10,-5.74194e-05,-3.1771,0.719102,0.0820468,0.0866216,
2,0,0,1,0,33445.7,0.0826492,0.0823382,-0.657436,50,0.883599,10,-5.41321e-05,-3.18215,0.560953,0.105178,0.0826275,
2,0,0,1,0,33446.5,0.0786544,0.0783306,-0.648152,50,0.883065,10,-5.07701e-05,-3.18832,0.834045,0.0707396,0.0786157,
2,0,0,1,0,33447.3,0.0746596,0.074299,-0.637948,50,0.882539,10,-4.73989e-05,-3.19521,0.62983,0.0936761,0.0745797,
2,0,0,1,0,33448.1,0.0706641,0.0702861,-0.629422,50,0.882019,10,-4.42396e-05,-3.20106,0.544757,0.108305,0.070563,
2,0,0,0,0,33448.9,0.0666689,0.0663403,-0.619843,50,0.881507,10,-4.11206e-05,-3.20772,0.87717,0.0672618,0.066613,
2,0,0,1,0,33449.7,0.0626737,0.0623553,-0.609674,50,0.881001,10,-3.80164e-05,-3.2149,0.591107,0.0998128,0.0626236,
2,0,0,1,0,33450.5,0.0586783,0.058349,-0.603003,50,0.880502,10,-3.51846e-05,-3.21968,0.514397,0.114697,0.0586143,
2,0,0,1,0,33451.3,0.0546835,0.0543642,-0.593312,50,0.88001,10,-3.22549e-05,-3.22672,0.760688,0.0775614,0.0546252,
2,0,0,1,0,33452.1,0.0506886,0.0503901,-0.583711,50,0.879525,10,-2.94133e-05,-3.2338,0.44784,0.131743,0.050647,
2,0,0,0,0,33452.9,0.046693,0.0463474,-0.5736,50,0.879049,10,-2.65849e-05,-3.24139,0.615958,0.0957857,0.0465998,
2,0,0,1,0,33453.7,0.0426979,0.0423931,-0.56422,50,0.878581,10,-2.39191e-05,-3.24855,0.509835,0.115724,0.0426414,
2,0,0,1,0,33454.5,0.0387022,0.0383409,-0.552747,50,0.878121,10,-2.11928e-05,-3.25747,0.442875,0.13322,0.0385841,
2,0,0,1,0,33455.3,0.0347074,0.0343765,-0.542813,50,0.87767,10,-1.866e-05,-3.26535,0.571104,0.103309,0.0346153,
2,0,0,1,0,33456.1,0.0307126,0.030377,-0.531279,50,0.877227,10,-1.61387e-05,-3.27468,0.486657,0.121235,0.0306108,
2,0,0,0,0,33456.9,0.0267172,0.0263906,-0.523938,50,0.876791,10,-1.3827e-05,-3.28072,0.467433,0.126221,0.0266211,
2,0,0,1,0,33457.7,0.022722,0.0223822,-0.515633,50,0.876363,10,-1.1541e-05,-3.28766,0.752932,0.0783603,0.0226091,
2,0,0,0,0,33458.5,0.0187268,0.0183993,-0.507289,50,0.875941,10,-9.33379e-06,-3.29474,0.789738,0.0747083,0.0186225,
2,0,0,1,0,33459.3,0.0147313,0.0144194,-0.504317,50,0.875523,10,-7.27195e-06,-3.2973,1.29503,0.0455586,0.0146413,
2,0,0,1,0,33460.1,0.0107365,0.0104082,-0.500028,50,0.875109,10,-5.2044e-06,-3.30101,1.61635,0.036502,0.0106282,
2,0,0,1,0,33460.9,0.00674163,0.00641084,-0.498501,50,0.874698,10,-3.19581e-06,-3.30233,2.22991,0.0264585,0.00663018,
2,0,0,1,0,33461.7,0.00274612,0.00239992,-0.49876,50,0.874287,10,-1.19699e-06,-3.30211,-2.04769,-0.0288129,0.00261938,
2,0,0,0,0,33462.1,0.000274105,-0.000112977,-0.499996,50,0.87403,10,5.64881e-08,-3.30103, , ,0.000107021,