File: Figure_codes/Fig_3-5/workspace_calculate_alpha_eff/20221101_1-115_003_TrumpetPlot_ParaChange_from10_every3_16_CV_C01_30.csv
mode,ox/red,error,control changes,counter inc.,time/s,control/V,Ewe/V,<I>/mA,cycle number,(Q-Qo)/C,I Range,P/W,log(|I|),Tafel slope mV/dec,alpha_eff,E-IR/V,
2,0,0,1,0,20931.4,2.44065e-05,-0.000306236,-0.0472394,31,0.0000000E+000,10,1.44664e-08,-4.3257, , ,-0.000285451,
2,1,0,1,0,20932.2,0.00379485,0.00345715,0.206712,31,0.000140298,10,7.14635e-07,-3.68463,0.0509422,1.15817,0.00336619,
2,1,0,0,0,20933,0.00779002,0.00746654,0.230896,31,0.00032825,10,1.724e-06,-3.63658,0.0987535,0.597447,0.00736495,
2,1,0,1,0,20933.8,0.0117852,0.0115078,0.246969,31,0.000532381,10,2.84206e-06,-3.60736,0.155356,0.379774,0.0113991,
2,1,0,1,0,20934.6,0.0157806,0.0154887,0.26394,31,0.000749349,10,4.08807e-06,-3.5785,0.147815,0.399148,0.0153725,
2,1,0,1,0,20935.4,0.0197754,0.0194543,0.276781,31,0.000977855,10,5.38458e-06,-3.55786,0.182975,0.322449,0.0193325,
2,1,0,1,0,20936.2,0.0237704,0.0235112,0.292182,31,0.00121799,10,6.86955e-06,-3.53435,0.196388,0.300425,0.0233826,
2,1,0,0,0,20937,0.0277659,0.0274658,0.305487,31,0.0014691,10,8.39046e-06,-3.51501,0.190797,0.309229,0.0273314,
2,1,0,1,0,20937.8,0.0317611,0.0313999,0.319492,31,0.00173192,10,1.0032e-05,-3.49554,0.203806,0.289491,0.0312593,
2,1,0,1,0,20938.6,0.0357567,0.0354469,0.335959,31,0.00200661,10,1.19087e-05,-3.47371,0.254047,0.23224,0.0352991,
2,1,0,1,0,20939.4,0.0397516,0.039421,0.349134,31,0.002292,10,1.37632e-05,-3.45701,0.206264,0.286041,0.0392674,
2,1,0,1,0,20940.2,0.0437465,0.0434779,0.361829,31,0.00258922,10,1.57316e-05,-3.4415,0.22701,0.2599,0.0433187,
2,1,0,1,0,20941,0.0477413,0.0473789,0.375304,31,0.00289677,10,1.77815e-05,-3.42562,0.290963,0.202775,0.0472137,
2,1,0,1,0,20941.8,0.0517369,0.0514109,0.387477,31,0.00321451,10,1.99205e-05,-3.41175,0.254047,0.232241,0.0512404,
2,1,0,0,0,20942.6,0.0557321,0.0553842,0.400864,31,0.00354247,10,2.22015e-05,-3.397,0.381439,0.154678,0.0552078,
2,1,0,1,0,20943.4,0.0597277,0.0593537,0.410893,31,0.00387907,10,2.4388e-05,-3.38627,0.334736,0.176258,0.0591729,
2,1,0,1,0,20944.2,0.0637226,0.0634169,0.420331,31,0.00422477,10,2.66561e-05,-3.37641,0.395125,0.14932,0.0632319,
2,1,0,1,0,20945,0.0677174,0.0673645,0.430398,31,0.00457901,10,2.89936e-05,-3.36613,0.556339,0.10605,0.0671751,
2,1,0,1,0,20945.8,0.0717128,0.0713868,0.440244,31,0.00493979,10,3.14276e-05,-3.35631,0.39586,0.149043,0.0711931,
2,1,0,0,0,20946.6,0.075708,0.0753304,0.446106,31,0.00530749,10,3.36054e-05,-3.35056,0.560319,0.105297,0.0751342,
2,1,0,1,0,20947.4,0.0797031,0.0794045,0.455383,31,0.00568099,10,3.61595e-05,-3.34162,0.497093,0.11869,0.0792041,
2,1,0,1,0,20948.2,0.0836986,0.0833633,0.464365,31,0.00606116,10,3.8711e-05,-3.33314,0.473206,0.124681,0.083159,
2,1,0,1,0,20949,0.0876935,0.0873172,0.474043,31,0.00644939,10,4.13921e-05,-3.32418,0.327626,0.180083,0.0871087,
2,1,0,1,0,20949.8,0.0916883,0.0913921,0.489885,31,0.00684705,10,4.47716e-05,-3.30991,0.282556,0.208808,0.0911765,
2,1,0,0,0,20950.6,0.0956838,0.0953573,0.506428,31,0.00725792,10,4.82916e-05,-3.29548,0.220975,0.266998,0.0951345,
2,1,0,1,0,20951.4,0.099679,0.0993688,0.52906,31,0.00768466,10,5.2572e-05,-3.2765,0.260783,0.226241,0.099136,
2,1,0,0,0,20952.2,0.103674,0.103399,0.551373,31,0.00812892,10,5.70116e-05,-3.25855,0.197116,0.299316,0.103157,
2,1,0,1,0,20953,0.10767,0.10734,0.573229,31,0.00859217,10,6.15305e-05,-3.24167,0.259094,0.227716,0.107088,
2,1,0,1,0,20953.8,0.111664,0.11134,0.593212,31,0.00907098,10,6.6048e-05,-3.22679,0.306515,0.192486,0.111079,
2,1,0,1,0,20954.5,0.115659,0.115324,0.60816,31,0.00956361,10,7.01355e-05,-3.21598,0.350429,0.168365,0.115057,
2,1,0,1,0,20955.3,0.119655,0.119347,0.621613,31,0.010069,10,7.41875e-05,-3.20648,0.481561,0.122518,0.119073,
2,1,0,0,0,20956.1,0.12365,0.123336,0.637673,31,0.0105847,10,7.86481e-05,-3.1954,0.403431,0.146246,0.123056,
2,1,0,1,0,20956.9,0.127646,0.12736,0.648078,31,0.0111115,10,8.25391e-05,-3.18837,0.528127,0.111716,0.127075,
2,1,0,1,0,20957.7,0.131641,0.131297,0.655962,31,0.0116471,10,8.61256e-05,-3.18312,-1.52915,-0.0385836,0.131008,
2,1,0,1,0,20958.5,0.135635,0.135338,0.647477,31,0.0121817,10,8.76281e-05,-3.18878,-0.385511,-0.153044,0.135053,
2,1,0,1,0,20959.3,0.139631,0.139282,0.614611,31,0.0127015,10,8.56045e-05,-3.2114,-0.129796,-0.45456,0.139012,
2,1,0,0,0,20960.1,0.143626,0.143288,0.566123,31,0.0131872,10,8.11185e-05,-3.24709,-0.0912964,-0.646247,0.143039,
2,1,0,1,0,20960.9,0.147621,0.147277,0.50291,31,0.0136261,10,7.40671e-05,-3.29851,-0.0732041,-0.805965,0.147056,
2,1,0,1,0,20961.7,0.151617,0.151309,0.445079,31,0.0140168,10,6.73443e-05,-3.35156,-0.0870638,-0.677664,0.151113,
2,1,0,1,0,20962.5,0.155612,0.155299,0.404398,31,0.0143678,10,6.28025e-05,-3.39319,-0.10722,-0.550271,0.155121,
2,1,0,1,0,20963.3,0.159606,0.15926,0.375786,31,0.0146912,10,5.98477e-05,-3.42506,-0.149669,-0.394204,0.159095,
2,1,0,0,0,20964.1,0.163602,0.163258,0.356156,31,0.0149959,10,5.81455e-05,-3.44836,-0.185239,-0.318508,0.163102,
2,1,0,1,0,20964.9,0.167597,0.167265,0.342461,31,0.0152872,10,5.72816e-05,-3.46539,-0.303453,-0.194429,0.167114,
2,1,0,0,0,20965.7,0.171592,0.171241,0.332049,31,0.0155696,10,5.68604e-05,-3.4788,-0.378054,-0.156062,0.171095,
2,1,0,1,0,20966.5,0.175588,0.175281,0.325908,31,0.0158449,10,5.71255e-05,-3.48691,-0.41734,-0.141371,0.175138,
2,1,0,1,0,20967.3,0.179582,0.179272,0.319393,31,0.0161144,10,5.72581e-05,-3.49567,-0.661725,-0.0891609,0.179131,
2,1,0,1,0,20968.1,0.183577,0.18326,0.315329,31,0.0163799,10,5.77873e-05,-3.50124,-0.712509,-0.082806,0.183122,
2,1,0,1,0,20968.9,0.187573,0.187207,0.310922,31,0.0166418,10,5.82065e-05,-3.50735,-0.672343,-0.0877529,0.18707,
2,1,0,0,0,20969.7,0.191568,0.191248,0.30816,31,0.0169006,10,5.89348e-05,-3.51122,-1.03776,-0.0568534,0.191112,
2,1,0,1,0,20970.5,0.195563,0.195266,0.305007,31,0.0171574,10,5.95574e-05,-3.51569,-0.553896,-0.106518,0.195131,
2,1,0,1,0,20971.3,0.199559,0.199215,0.302472,31,0.0174117,10,6.02568e-05,-3.51932,-13.1563,-0.00448453,0.199082,
2,1,0,1,0,20972.1,0.203553,0.203228,0.297259,31,0.0176641,10,6.04115e-05,-3.52686,-1.13971,-0.0517674,0.203097,
2,1,0,1,0,20972.9,0.207548,0.207278,0.298395,31,0.0179149,10,6.18507e-05,-3.52521,-1.05954,-0.0556843,0.207146,
2,1,0,0,0,20973.7,0.211544,0.211202,0.294941,31,0.0181636,10,6.22923e-05,-3.53026,-2.2405,-0.0263335,0.211073,
2,1,0,1,0,20974.5,0.215539,0.215244,0.292886,31,0.018411,10,6.30418e-05,-3.5333,-0.981268,-0.0601263,0.215115,
2,1,0,1,0,20975.3,0.219535,0.219223,0.292366,31,0.0186567,10,6.40934e-05,-3.53407,-1.33213,-0.0442901,0.219094,
2,1,0,1,0,20976.1,0.223529,0.223207,0.289765,31,0.0189011,10,6.46778e-05,-3.53795,-3.42119,-0.0172455,0.22308,
2,1,0,1,0,20976.9,0.227524,0.227217,0.288347,31,0.0191443,10,6.55175e-05,-3.54008,-1.48067,-0.0398467,0.227091,
2,1,0,0,0,20977.7,0.23152,0.231224,0.287013,31,0.0193861,10,6.63643e-05,-3.5421,-3.25615,-0.0181196,0.231098,
2,1,0,1,0,20978.5,0.235515,0.235193,0.286105,31,0.0196271,10,6.72898e-05,-3.54348,-2.55204,-0.0231187,0.235067,
2,1,0,0,0,20979.3,0.23951,0.239198,0.285711,31,0.019867,10,6.83417e-05,-3.54407,-1.25908,-0.0468595,0.239073,
2,1,0,1,0,20980.1,0.243506,0.243191,0.282932,31,0.0201057,10,6.88066e-05,-3.54832,-10.119,-0.00583062,0.243067,
2,1,0,1,0,20980.9,0.2475,0.247203,0.28151,31,0.0203438,10,6.95903e-05,-3.55051,-1.29524,-0.0455514,0.247079,
2,1,0,1,0,20981.7,0.251495,0.25118,0.281622,31,0.0205806,10,7.07377e-05,-3.55033,-2.59981,-0.022694,0.251056,
2,1,0,1,0,20982.5,0.255491,0.255176,0.279886,31,0.0208168,10,7.14202e-05,-3.55302,15.3604,0.00384105,0.255053,
2,1,0,0,0,20983.3,0.259486,0.259157,0.278288,31,0.0210525,10,7.21204e-05,-3.55551,-0.86324,-0.0683471,0.259035,
2,1,0,1,0,20984.1,0.263481,0.263154,0.279153,31,0.0212871,10,7.34603e-05,-3.55416,3.16176,0.0186605,0.263031,
2,1,0,1,0,20984.9,0.267477,0.267173,0.277048,31,0.0215213,10,7.40196e-05,-3.55745,-1.51329,-0.0389878,0.267051,
2,1,0,1,0,20985.7,0.271471,0.271156,0.27695,31,0.0217548,10,7.50967e-05,-3.5576,-28.378,-0.00207907,0.271034,
2,1,0,1,0,20986.5,0.275466,0.27512,0.275765,31,0.0219874,10,7.58684e-05,-3.55946,-3.5758,-0.0164998,0.274999,
2,1,0,0,0,20987.3,0.279462,0.27916,0.275221,31,0.0222193,10,7.68307e-05,-3.56032,-1.5022,-0.0392757,0.279039,
2,1,0,1,0,20988.1,0.283457,0.28316,0.274784,31,0.0224502,10,7.78077e-05,-3.56101,-6.50798,-0.00906579,0.283039,
2,1,0,0,0,20988.9,0.287452,0.287087,0.272389,31,0.0226804,10,7.81996e-05,-3.56481,-1.87006,-0.0315498,0.286967,
2,1,0,1,0,20989.7,0.291448,0.291155,0.272295,31,0.02291,10,7.92801e-05,-3.56496,-1.12247,-0.0525627,0.291035,
2,1,0,1,0,20990.5,0.295442,0.295097,0.271783,31,0.0231384,10,8.02024e-05,-3.56578,17.6415,0.00334439,0.294978,
2,1,0,1,0,20991.3,0.299437,0.299123,0.268326,31,0.0233664,10,8.02625e-05,-3.57134,-1.62143,-0.0363876,0.299005,
2,1,0,1,0,20992.1,0.303433,0.303153,0.269429,31,0.0235935,10,8.16785e-05,-3.56956,-3.58855,-0.0164412,0.303035,
2,1,0,0,0,20992.9,0.307428,0.30713,0.267749,31,0.0238197,10,8.22339e-05,-3.57227,-1.90636,-0.030949,0.307012,
2,1,0,1,0,20993.7,0.311424,0.311124,0.267141,31,0.0240451,10,8.31138e-05,-3.57326,-3.60465,-0.0163677,0.311006,
2,1,0,1,0,20994.5,0.315418,0.315145,0.2672,31,0.0242697,10,8.42067e-05,-3.57316,-11.553,-0.00510691,0.315027,
2,1,0,1,0,20995.3,0.319413,0.319092,0.266146,31,0.0244936,10,8.49253e-05,-3.57488,12.514,0.00471472,0.318975,
2,1,0,1,0,20996.1,0.323409,0.323144,0.265635,31,0.0247175,10,8.58385e-05,-3.57571,-1.0076,-0.0585548,0.323027,
2,1,0,0,0,20996.9,0.327404,0.327104,0.264444,31,0.0249403,10,8.65007e-05,-3.57767,12.1095,0.00487222,0.326987,
2,1,0,1,0,20997.7,0.331399,0.331091,0.262133,31,0.0251624,10,8.679e-05,-3.58148,-2.44705,-0.0241107,0.330976,
2,1,0,1,0,20998.5,0.335395,0.335072,0.263411,31,0.025384,10,8.82616e-05,-3.57937,-3.19279,-0.0184791,0.334956,
2,1,0,1,0,20999.3,0.339389,0.339056,0.261718,31,0.0256048,10,8.87371e-05,-3.58217,-3.55585,-0.0165924,0.338941,
2,1,0,1,0,21000.1,0.343384,0.343097,0.260763,31,0.0258253,10,8.9467e-05,-3.58375,-2.31804,-0.0254526,0.342983,
2,1,0,0,0,21000.9,0.34738,0.347069,0.260893,31,0.0260452,10,9.05479e-05,-3.58354,47.3203,0.00124682,0.346954,
2,1,0,1,0,21001.7,0.351375,0.351035,0.25974,31,0.0262645,10,9.11779e-05,-3.58546,-2.24702,-0.0262569,0.350921,
2,1,0,0,0,21002.5,0.35537,0.355061,0.258689,31,0.0264835,10,9.18506e-05,-3.58722,-6.52252,-0.00904558,0.354948,
2,1,0,1,0,21003.3,0.359366,0.359069,0.258786,31,0.0267019,10,9.2922e-05,-3.58706,-5.39497,-0.0109361,0.358955,
2,1,0,1,0,21004.1,0.36336,0.363029,0.258256,31,0.0269199,10,9.37544e-05,-3.58795,-17.6622,-0.00334047,0.362916,
2,1,0,1,0,21004.9,0.367355,0.367044,0.258492,31,0.0271373,10,9.4878e-05,-3.58755,-2.2961,-0.0256957,0.36693,
2,1,0,1,0,21005.7,0.371351,0.371022,0.257564,31,0.0273541,10,9.55619e-05,-3.58911,-3.75935,-0.0156942,0.370908,
2,1,0,0,0,21006.5,0.375346,0.37504,0.257295,31,0.0275707,10,9.64957e-05,-3.58957,-4.51498,-0.0130676,0.374926,
2,1,0,1,0,21007.3,0.379342,0.379048,0.256264,31,0.0277866,10,9.71366e-05,-3.59131,-3.18117,-0.0185467,0.378936,
2,1,0,1,0,21008.1,0.383336,0.383022,0.256199,31,0.0280021,10,9.81299e-05,-3.59142,-2.0279,-0.0290941,0.38291,
2,1,0,1,0,21008.9,0.387331,0.387041,0.255691,31,0.0282175,10,9.89629e-05,-3.59228,4.49062,0.0131385,0.386928,
2,1,0,1,0,21009.7,0.391327,0.391024,0.254967,31,0.0284324,10,9.96982e-05,-3.59352,6.63186,0.00889645,0.390912,
2,1,0,0,0,21010.5,0.395322,0.395025,0.252691,31,0.0286469,10,9.98192e-05,-3.59741,-6.36742,-0.00926592,0.394914,
2,1,0,1,0,21011.3,0.399317,0.398983,0.254418,31,0.0288612,10,0.000101508,-3.59445,-2.24671,-0.0262606,0.398872,
2,1,0,1,0,21012.1,0.403313,0.40299,0.254857,31,0.0290749,10,0.000102705,-3.5937,3.30904,0.0178299,0.402878,
2,1,0,1,0,21012.9,0.407307,0.407025,0.25363,31,0.0292884,10,0.000103234,-3.5958,-1.7817,-0.0331145,0.406913,
2,1,0,1,0,21013.7,0.411302,0.411012,0.25444,31,0.0295016,10,0.000104578,-3.59441,-37.1577,-0.00158783,0.4109,
2,1,0,0,0,21014.5,0.415298,0.41497,0.252747,31,0.0297148,10,0.000104882,-3.59731,286.557,0.000205893,0.414859,
2,1,0,1,0,21015.3,0.419293,0.418971,0.25339,31,0.0299277,10,0.000106163,-3.59621,-5.11092,-0.0115439,0.41886,
2,1,0,0,0,21016.1,0.423288,0.422974,0.253347,31,0.0301404,10,0.000107159,-3.59628,-1.74376,-0.0338348,0.422863,
2,1,0,1,0,21016.9,0.427283,0.426988,0.251975,31,0.030353,10,0.00010759,-3.59864,2.29143,0.0257481,0.426877,
2,1,0,1,0,21017.7,0.431278,0.430989,0.253303,31,0.0305654,10,0.000109171,-3.59636,-6.74495,-0.00874728,0.430877,
2,1,0,1,0,21018.5,0.435273,0.434966,0.252509,31,0.0307776,10,0.000109833,-3.59772,3.08713,0.0191116,0.434855,
2,1,0,1,0,21019.3,0.439269,0.438996,0.252233,31,0.0309899,10,0.000110729,-3.5982,-2.27818,-0.0258979,0.438885,
2,1,0,0,0,21020.1,0.443264,0.443029,0.251785,31,0.0312016,10,0.000111548,-3.59897,-25.1189,-0.00234883,0.442918,
2,1,0,1,0,21020.9,0.447259,0.446933,0.252786,31,0.0314133,10,0.000112978,-3.59725,40.0206,0.00147424,0.446822,
2,1,0,1,0,21021.7,0.451254,0.450973,0.251769,31,0.0316251,10,0.000113541,-3.599,-7.06058,-0.00835626,0.450862,
2,1,0,1,0,21022.5,0.455249,0.454999,0.252422,31,0.0318366,10,0.000114852,-3.59787,8.65758,0.00681484,0.454888,
2,1,0,1,0,21023.3,0.459244,0.458951,0.252067,31,0.0320485,10,0.000115686,-3.59848,2.77259,0.0212798,0.45884,
2,1,0,0,0,21024.1,0.46324,0.462943,0.252005,31,0.0322604,10,0.000116664,-3.59859,7.30898,0.00807226,0.462832,
2,1,0,1,0,21024.9,0.467235,0.466968,0.253132,31,0.0324724,10,0.000118205,-3.59665,11.1494,0.00529176,0.466857,
2,1,0,1,0,21025.7,0.471231,0.470972,0.253252,31,0.0326845,10,0.000119274,-3.59645,1.35234,0.0436281,0.47086,
2,1,0,1,0,21026.5,0.475225,0.474932,0.254505,31,0.0328985,10,0.000120873,-3.5943,-3.42227,-0.01724,0.47482,
2,1,0,1,0,21027.3,0.47922,0.478965,0.253972,31,0.0331118,10,0.000121644,-3.59521,503.755,0.00011712,0.478854,
2,1,0,0,0,21028.1,0.483216,0.482867,0.254805,31,0.0333249,10,0.000123037,-3.59379,-3.32873,-0.0177245,0.482755,
2,1,0,1,0,21028.9,0.487211,0.48691,0.255236,31,0.0335382,10,0.000124277,-3.59306,1.13282,0.0520822,0.486798,
2,1,0,0,0,21029.7,0.491206,0.490914,0.255086,31,0.0337521,10,0.000125226,-3.59331,3.96304,0.0148876,0.490802,
2,1,0,1,0,21030.5,0.495201,0.494943,0.25711,31,0.0339665,10,0.000127255,-3.58988,4.86995,0.0121151,0.49483,
2,1,0,1,0,21031.3,0.499196,0.498929,0.256947,31,0.0341813,10,0.000128198,-3.59016,1.39682,0.0422388,0.498816,
2,1,0,1,0,21032.1,0.503191,0.502889,0.25783,31,0.034397,10,0.00012966,-3.58867,-4.43439,-0.0133051,0.502776,
2,1,0,1,0,21032.9,0.507187,0.506893,0.258751,31,0.0346131,10,0.000131159,-3.58712,1.18881,0.0496296,0.506779,
2,1,0,0,0,21033.7,0.511182,0.510904,0.260264,31,0.03483,10,0.00013297,-3.58459,4.44134,0.0132843,0.51079,
2,1,0,1,0,21034.5,0.515177,0.514863,0.2613,31,0.0350479,10,0.000134533,-3.58286,2.08284,0.0283267,0.514748,
2,1,0,1,0,21035.3,0.519173,0.518847,0.262445,31,0.0352668,10,0.000136169,-3.58096,3.26994,0.0180431,0.518731,
2,1,0,1,0,21036.1,0.523167,0.522876,0.263477,31,0.0354864,10,0.000137766,-3.57926,1.70087,0.0346881,0.52276,
2,1,0,1,0,21036.8,0.527162,0.526892,0.264742,31,0.035707,10,0.00013949,-3.57718,3.00978,0.0196027,0.526776,
2,1,0,0,0,21037.6,0.531158,0.530881,0.265884,31,0.0359286,10,0.000141153,-3.57531,0.826842,0.0713559,0.530764,
2,1,0,1,0,21038.4,0.535153,0.534885,0.268259,31,0.0361516,10,0.000143488,-3.57145,1.73385,0.0340284,0.534767,
2,1,0,0,0,21039.2,0.539148,0.53888,0.270268,31,0.036376,10,0.000145642,-3.5682,2.60854,0.022618,0.538761,
2,1,0,1,0,21040,0.543143,0.542821,0.271308,31,0.0366018,10,0.000147272,-3.56654,0.883773,0.0667592,0.542702,
2,1,0,1,0,21040.8,0.547138,0.546862,0.273754,31,0.0368291,10,0.000149706,-3.56264,1.87247,0.0315092,0.546742,
2,1,0,1,0,21041.6,0.551133,0.550862,0.276196,31,0.0370583,10,0.000152146,-3.55878,0.729869,0.0808364,0.55074,
2,1,0,1,0,21042.4,0.555129,0.554818,0.279501,31,0.0372897,10,0.000155072,-3.55362,0.920373,0.0641045,0.554695,
2,1,0,0,0,21043.2,0.559124,0.558837,0.281755,31,0.037523,10,0.000157455,-3.55013,0.942082,0.0626273,0.558713,
2,1,0,1,0,21044,0.56312,0.562863,0.284548,31,0.0377588,10,0.000160161,-3.54585,0.562274,0.104931,0.562738,
2,1,0,1,0,21044.8,0.567114,0.566839,0.288865,31,0.0379973,10,0.00016374,-3.53931,0.792346,0.0744625,0.566712,
2,1,0,1,0,21045.6,0.571109,0.570854,0.293475,31,0.0382388,10,0.000167531,-3.53243,0.737506,0.0799993,0.570725,
2,1,0,1,0,21046.4,0.575105,0.574818,0.297182,31,0.0384837,10,0.000170826,-3.52698,0.459898,0.128289,0.574687,
2,1,0,0,0,21047.2,0.5791,0.578809,0.3024,31,0.0387323,10,0.000175032,-3.51942,0.870867,0.0677486,0.578676,
2,1,0,1,0,21048,0.583095,0.582791,0.307337,31,0.0389847,10,0.000179113,-3.51239,0.425915,0.138525,0.582656,
2,1,0,1,0,21048.8,0.58709,0.58685,0.313435,31,0.0392418,10,0.000183939,-3.50385,0.522329,0.112956,0.586712,
2,1,0,1,0,21049.6,0.591085,0.590789,0.320449,31,0.0395041,10,0.000189318,-3.49424,0.372181,0.158525,0.590648,
2,1,0,1,0,21050.4,0.59508,0.594748,0.327569,31,0.039772,10,0.000194821,-3.4847,0.384769,0.153339,0.594604,
2,1,0,0,0,21051.2,0.599076,0.598773,0.336029,31,0.0400464,10,0.000201205,-3.47362,0.356801,0.165358,0.598625,
2,1,0,1,0,21052,0.603071,0.602776,0.346192,31,0.0403279,10,0.000208676,-3.46068,0.275434,0.214208,0.602623,
2,1,0,0,0,21052.8,0.607066,0.606804,0.358121,31,0.0406183,10,0.000217309,-3.44597,0.266108,0.221714,0.606646,
2,1,0,1,0,21053.6,0.611061,0.610752,0.372116,31,0.040919,10,0.000227271,-3.42932,0.240342,0.245483,0.610588,
2,1,0,1,0,21054.4,0.615056,0.614825,0.387289,31,0.0412311,10,0.000238115,-3.41196,0.201381,0.292977,0.614655,
2,1,0,1,0,21055.2,0.619051,0.618789,0.405548,31,0.0415574,10,0.000250949,-3.39196,0.185949,0.317292,0.618611,
2,1,0,1,0,21056,0.623047,0.622756,0.427212,31,0.0418991,10,0.000266049,-3.36936,0.178098,0.331279,0.622568,
2,1,0,0,0,21056.8,0.627042,0.626786,0.451072,31,0.0422587,10,0.000282726,-3.34575,0.159454,0.370012,0.626588,
2,1,0,1,0,21057.6,0.631037,0.630746,0.479698,31,0.0426394,10,0.000302568,-3.31903,0.142815,0.413122,0.630535,
2,1,0,1,0,21058.4,0.635032,0.634696,0.513747,31,0.0430445,10,0.000326073,-3.28925,0.130783,0.451128,0.63447,
2,1,0,1,0,21059.2,0.639027,0.638742,0.551124,31,0.0434785,10,0.000352026,-3.25875,0.11799,0.500043,0.6385,
2,1,0,1,0,21060,0.643022,0.642783,0.59777,31,0.043946,10,0.000384236,-3.22347,0.111099,0.531056,0.64252,
2,1,0,0,0,21060.8,0.647018,0.646714,0.652767,31,0.0444538,10,0.000422153,-3.18524,0.0997354,0.591565,0.646426,
2,1,0,1,0,21061.6,0.651013,0.650729,0.715065,31,0.0450088,10,0.000465314,-3.14565,0.0967059,0.610097,0.650415,
2,1,0,1,0,21062.4,0.655008,0.654716,0.790544,31,0.0456187,10,0.000517581,-3.10207,0.0893796,0.660106,0.654368,
2,1,0,1,0,21063.2,0.659003,0.658693,0.876902,31,0.0462926,10,0.000577609,-3.05705,0.0852357,0.692198,0.658307,
2,1,0,1,0,21064,0.662998,0.662766,0.977357,31,0.0470419,10,0.000647759,-3.00995,0.0818082,0.721199,0.662336,
2,1,0,0,0,21064.8,0.666994,0.666702,1.09464,31,0.047878,10,0.0007298,-2.96073,0.0792019,0.744931,0.666221,
2,1,0,1,0,21065.6,0.670989,0.670677,1.22877,31,0.0488146,10,0.000824107,-2.91053,0.0762273,0.774,0.670136,
2,1,0,0,0,21066.4,0.674984,0.674751,1.38584,31,0.0498673,10,0.0009351,-2.85829,0.0764669,0.771576,0.674141,
2,1,0,1,0,21067.2,0.67898,0.678713,1.56125,31,0.0510525,10,0.00105964,-2.80653,0.0741876,0.795281,0.678026,
2,1,0,1,0,21068,0.682974,0.682689,1.76289,31,0.0523883,10,0.00120351,-2.75377,0.0747618,0.789173,0.681913,
2,1,0,1,0,21068.8,0.686969,0.686698,1.98831,31,0.0538943,10,0.00136537,-2.70152,0.0755697,0.780736,0.685823,
2,1,0,1,0,21069.6,0.690965,0.690675,2.24007,31,0.055591,10,0.00154716,-2.64974,0.0739218,0.79814,0.689689,
2,1,0,0,0,21070.4,0.69496,0.694706,2.51862,31,0.0575,10,0.0017497,-2.59884,0.0760089,0.776225,0.693598,
2,1,0,1,0,21071.2,0.698955,0.698694,2.82625,31,0.0596425,10,0.00197468,-2.54879,0.0789226,0.747568,0.69745,
2,1,0,1,0,21072,0.70295,0.702687,3.15963,31,0.0620417,10,0.00222023,-2.50036,0.0798225,0.73914,0.701297,
2,1,0,1,0,21072.8,0.706945,0.706682,3.52349,31,0.06472,10,0.00248998,-2.45303,0.0816271,0.722799,0.705131,
2,1,0,1,0,21073.6,0.71094,0.710636,3.91634,31,0.0677004,10,0.00278309,-2.40712,0.0855142,0.689944,0.708912,
2,1,0,0,0,21074.4,0.714936,0.714696,4.33771,31,0.0710065,10,0.00310014,-2.36274,0.0865962,0.681323,0.712788,
2,1,0,1,0,21075.2,0.718931,0.718639,4.78695,31,0.074659,10,0.00344009,-2.31994,0.0911664,0.647168,0.716532,
2,1,0,1,0,21076,0.722927,0.722677,5.26255,31,0.0786823,10,0.00380312,-2.2788,0.0924159,0.638418,0.720362,
2,1,0,1,0,21076.8,0.726921,0.72666,5.7668,31,0.0830969,10,0.0041905,-2.23906,0.0979387,0.602417,0.724122,
2,1,0,1,0,21077.6,0.730916,0.730649,6.29742,31,0.0879243,10,0.0046012,-2.20084,0.100877,0.584871,0.727878,
2,1,0,1,0,21078.4,0.734911,0.734659,6.85444,31,0.0931868,10,0.00503568,-2.16403,0.103222,0.571583,0.731643,
2,1,0,1,0,21079.2,0.738907,0.738658,7.43646,31,0.0989048,10,0.005493,-2.12863,0.106576,0.553597,0.735386,
2,1,0,0,0,21080,0.742902,0.742638,8.04637,31,0.105099,10,0.00597554,-2.0944,0.110816,0.532415,0.739098,
2,1,0,1,0,21080.8,0.746897,0.746618,8.68275,31,0.111792,10,0.0064827,-2.06134,0.115326,0.511594,0.742798,
2,1,0,1,0,21081.6,0.750892,0.75063,9.34454,31,0.119002,10,0.00701429,-2.02944,0.116532,0.506299,0.746519,
2,1,0,1,0,21082.4,0.754887,0.754582,10.0346,31,0.126753,10,0.00757193,-1.9985,0.120718,0.488744,0.750167,
2,1,0,1,0,21083.2,0.758883,0.75863,10.7614,31,0.135071,10,0.0081639,-1.96813,0.122678,0.480934,0.753895,
2,1,0,0,0,21084,0.762878,0.762577,11.5201,31,0.143979,10,0.00878496,-1.93854,0.124129,0.475311,0.757508,
2,1,0,1,0,21084.8,0.766873,0.766646,12.3211,31,0.153512,10,0.00944589,-1.90935,0.124539,0.473746,0.761224,
2,1,0,1,0,21085.6,0.770868,0.770611,13.1753,31,0.163706,10,0.010153,-1.88024,0.12312,0.479205,0.764814,
2,1,0,1,0,21086.4,0.774863,0.774557,14.0833,31,0.174604,10,0.0109083,-1.8513,0.125827,0.468899,0.76836,
2,1,0,1,0,21087.2,0.778858,0.778586,15.0435,31,0.186249,10,0.0117127,-1.82265,0.125171,0.471354,0.771967,
2,1,0,0,0,21088,0.782854,0.782587,16.0472,31,0.198678,10,0.0125583,-1.7946,0.123989,0.47585,0.775526,
2,1,0,1,0,21088.8,0.786849,0.786578,17.1477,31,0.211942,10,0.013488,-1.76579,0.1264,0.466772,0.779033,
2,1,0,0,0,21089.6,0.790844,0.790586,18.2626,31,0.226094,10,0.0144382,-1.73844,0.128326,0.459766,0.782551,
2,1,0,1,0,21090.4,0.794839,0.794606,19.4011,31,0.241151,10,0.0154162,-1.71217,0.131582,0.44839,0.78607,
2,1,0,1,0,21091.2,0.798834,0.798582,20.6365,31,0.257156,10,0.0164799,-1.68536,0.130081,0.453564,0.789502,
2,1,0,1,0,21092,0.802829,0.802566,21.9163,31,0.274163,10,0.0175893,-1.65923,0.136162,0.433307,0.792923,
2,1,0,1,0,21092.8,0.806825,0.806571,23.2221,31,0.292207,10,0.0187303,-1.6341,0.133547,0.441792,0.796353,
2,1,0,0,0,21093.6,0.81082,0.810578,24.4811,31,0.311294,10,0.0198438,-1.61117,0.154386,0.382158,0.799806,
2,1,0,1,0,21094.4,0.814815,0.814584,25.8516,31,0.331417,10,0.0210583,-1.58751,0.146604,0.402444,0.803209,
2,1,0,1,0,21095.2,0.81881,0.818575,27.2361,31,0.352637,10,0.0222948,-1.56486,0.150216,0.392767,0.806591,
2,1,0,1,0,21096,0.822805,0.822553,28.6374,31,0.374989,10,0.0235558,-1.54307,0.164567,0.358516,0.809952,
2,1,0,1,0,21096.8,0.826801,0.826552,30.0583,31,0.39842,10,0.0248448,-1.52203,0.155078,0.380453,0.813326,
2,1,0,0,0,21097.6,0.830796,0.830551,31.5415,31,0.423042,10,0.0261968,-1.50112,0.165358,0.356801,0.816673,
2,1,0,1,0,21098.4,0.834791,0.83456,33.04,31,0.44885,10,0.0275739,-1.48096,0.167923,0.351352,0.820023,
2,1,0,1,0,21099.2,0.838786,0.838554,34.5667,31,0.47587,10,0.028986,-1.46134,0.171757,0.343509,0.823345,
2,1,0,1,0,21100,0.842781,0.842557,36.0992,31,0.504113,10,0.0304156,-1.4425,0.184357,0.320031,0.826673,
2,1,0,1,0,21100.8,0.846776,0.846516,37.562,31,0.533556,10,0.0317969,-1.42525,0.188829,0.312452,0.829989,
2,1,0,1,0,21101.5,0.849723,0.849496,38.5075,31,0.560306,10,0.032712,-1.41445,0.0368072,1.60295,0.832553,
2,1,0,0,0,21102.3,0.845728,0.845497,36.2037,31,0.590017,10,0.0306102,-1.44125,0.144323,0.408806,0.829568,
2,1,0,1,0,21103.1,0.841732,0.841493,34.4225,31,0.618217,10,0.0289663,-1.46316,0.146131,0.403746,0.826347,
2,1,0,1,0,21103.9,0.837737,0.837503,32.686,31,0.645011,10,0.0273746,-1.48564,0.14593,0.404303,0.823121,
2,1,0,1,0,21104.7,0.833742,0.833481,31.0675,31,0.670461,10,0.0258941,-1.50769,0.144678,0.407802,0.819811,
2,1,0,1,0,21105.5,0.829747,0.829503,29.4735,31,0.694629,10,0.0244483,-1.53057,0.148919,0.396188,0.816534,
2,1,0,0,0,21106.3,0.825752,0.825487,27.9259,31,0.717553,10,0.0230525,-1.55399,0.134052,0.440128,0.8132,
2,1,0,1,0,21107.1,0.821757,0.821504,26.3753,31,0.739225,10,0.0216674,-1.5788,0.135395,0.435762,0.809898,
2,1,0,1,0,21107.9,0.817761,0.817492,24.931,31,0.759706,10,0.0203808,-1.60326,0.134513,0.43862,0.806522,
2,1,0,1,0,21108.7,0.813766,0.813472,23.488,31,0.779035,10,0.0191069,-1.62915,0.128551,0.458963,0.803137,
2,1,0,1,0,21109.5,0.809771,0.809538,22.083,31,0.797227,10,0.017877,-1.65594,0.126419,0.466704,0.799822,
2,1,0,1,0,21110.3,0.805776,0.805498,20.7761,31,0.814335,10,0.0167351,-1.68244,0.132161,0.446424,0.796357,
2,1,0,1,0,21111.1,0.801781,0.801513,19.5092,31,0.830431,10,0.0156368,-1.70976,0.118686,0.49711,0.792929,
2,1,0,0,0,21111.9,0.797786,0.797538,18.2443,31,0.845496,10,0.0145506,-1.73887,0.117637,0.501542,0.789511,
2,1,0,1,0,21112.7,0.79379,0.793528,17.044,31,0.859584,10,0.0135249,-1.76843,0.116493,0.506468,0.786028,
2,1,0,1,0,21113.5,0.789795,0.789497,15.9098,31,0.872735,10,0.0125607,-1.79834,0.115397,0.511279,0.782497,
2,1,0,1,0,21114.3,0.7858,0.785533,14.8168,31,0.884995,10,0.0116391,-1.82925,0.114198,0.516647,0.779013,
2,1,0,1,0,21115.1,0.781805,0.781554,13.7794,31,0.896409,10,0.0107693,-1.86077,0.109651,0.538073,0.775491,
2,1,0,0,0,21115.9,0.77781,0.777521,12.7845,31,0.907008,10,0.00994025,-1.89331,0.10876,0.542478,0.771896,
2,1,0,1,0,21116.7,0.773815,0.773592,11.7493,31,0.916817,10,0.0090892,-1.92999,0.0973013,0.606364,0.768423,
2,1,0,1,0,21117.5,0.769819,0.769534,10.889,31,0.925851,10,0.00837945,-1.96301,0.105582,0.558805,0.764743,
2,1,0,1,0,21118.3,0.765824,0.765588,10.0637,31,0.934207,10,0.00770466,-1.99724,0.106279,0.555142,0.76116,
2,1,0,1,0,21119.1,0.761829,0.761524,9.27871,31,0.94192,10,0.00706596,-2.03251,0.102393,0.576212,0.757441,
2,1,0,0,0,21119.9,0.757834,0.757608,8.53909,31,0.949027,10,0.00646928,-2.06859,0.101187,0.58308,0.75385,
2,1,0,1,0,21120.6,0.753839,0.753575,7.84384,31,0.955559,10,0.00591092,-2.10547,0.0999424,0.59034,0.750124,
2,1,0,0,0,21121.4,0.749844,0.749593,7.19444,31,0.961553,10,0.0053929,-2.143,0.0973675,0.605952,0.746428,
2,1,0,1,0,21122.2,0.745848,0.745568,6.57907,31,0.967044,10,0.00490514,-2.18184,0.0948914,0.621763,0.742673,
2,1,0,1,0,21123,0.741853,0.741552,5.99852,31,0.972057,10,0.00444822,-2.22196,0.0995443,0.592701,0.738913,
2,1,0,1,0,21123.8,0.737858,0.737559,5.49823,31,0.976649,10,0.00405527,-2.25978,0.091413,0.645422,0.73514,
2,1,0,1,0,21124.6,0.733863,0.733623,4.98898,31,0.980828,10,0.00366003,-2.30199,0.0881709,0.669155,0.731428,
2,1,0,0,0,21125.4,0.729868,0.729586,4.50821,31,0.98461,10,0.00328913,-2.346,0.0842105,0.700625,0.727603,
2,1,0,1,0,21126.2,0.725872,0.725586,4.06039,31,0.988023,10,0.00294616,-2.39143,0.0827895,0.712651,0.7238,
2,1,0,1,0,21127,0.721877,0.721576,3.64368,31,0.991089,10,0.00262919,-2.43846,0.0791913,0.745031,0.719973,
2,1,0,1,0,21127.8,0.717882,0.717585,3.25653,31,0.993834,10,0.00233684,-2.48724,0.0763881,0.772371,0.716152,
2,1,0,1,0,21128.6,0.713887,0.713632,2.90105,31,0.996282,10,0.00207028,-2.53744,0.0753458,0.783056,0.712355,
2,1,0,0,0,21129.4,0.709892,0.709618,2.57091,31,0.998457,10,0.00182437,-2.58991,0.0734381,0.803398,0.708487,
2,1,0,1,0,21130.2,0.705897,0.705668,2.27006,31,1.00038,10,0.00160191,-2.64396,0.0689519,0.855669,0.704669,
2,1,0,1,0,21131,0.701901,0.701592,1.99274,31,1.00207,10,0.00139809,-2.70055,0.0673953,0.875432,0.700716,
2,1,0,1,0,21131.8,0.697906,0.697602,1.74038,31,1.00355,10,0.0012141,-2.75935,0.0656959,0.898077,0.696837,
2,1,0,1,0,21132.6,0.693911,0.693624,1.51238,31,1.00484,10,0.00104903,-2.82034,0.0618194,0.954394,0.692959,
2,1,0,0,0,21133.4,0.689916,0.689684,1.30629,31,1.00595,10,0.000900928,-2.88396,0.0609345,0.968254,0.68911,
2,1,0,1,0,21134.2,0.685921,0.685674,1.12171,31,1.00691,10,0.000769125,-2.95012,0.0580182,1.01692,0.68518,
2,1,0,0,0,21135,0.681926,0.681691,0.957423,31,1.00773,10,0.000652666,-3.0189,0.0550568,1.07162,0.68127,
2,1,0,1,0,21135.8,0.67793,0.677661,0.810754,31,1.00843,10,0.000549417,-3.09111,0.054168,1.0892,0.677305,
2,1,0,1,0,21136.6,0.673935,0.673666,0.681544,31,1.00901,10,0.000459133,-3.16651,0.0501565,1.17632,0.673366,
2,1,0,1,0,21137.4,0.66994,0.66964,0.568968,31,1.0095,10,0.000381004,-3.24491,0.0494504,1.19311,0.669389,
2,1,0,1,0,21138.2,0.665945,0.665658,0.470998,31,1.00991,10,0.000313524,-3.32698,0.0471418,1.25154,0.66545,
2,1,0,0,0,21139,0.66195,0.661648,0.383759,31,1.01024,10,0.000253914,-3.41594,0.0437192,1.34952,0.661479,
2,1,0,1,0,21139.8,0.657955,0.657672,0.310362,31,1.01051,10,0.000204116,-3.50813,0.0414747,1.42255,0.657535,
2,1,0,1,0,21140.6,0.653959,0.65366,0.247973,31,1.01072,10,0.00016209,-3.6056,0.0394705,1.49479,0.653551,
2,1,0,1,0,21141.4,0.649964,0.649687,0.194757,31,1.01089,10,0.000126531,-3.71051,0.036075,1.63548,0.649601,
2,1,0,1,0,21142.2,0.64597,0.645701,0.149444,31,1.01102,10,9.64962e-05,-3.82552,0.0324246,1.81961,0.645636,
2,1,0,0,0,21143,0.641974,0.64168,0.110486,31,1.01111,10,7.08967e-05,-3.95669,0.0285659,2.0654,0.641631,
2,1,0,1,0,21143.8,0.637979,0.637718,0.0790747,31,1.01118,10,5.04274e-05,-4.10196,0.0245045,2.40772,0.637683,
2,1,0,1,0,21144.6,0.633983,0.633665,0.0503354,31,1.01122,10,3.18958e-05,-4.29813,0.0190755,3.09297,0.633643,
2,1,0,1,0,21145.4,0.629988,0.629682,0.0271685,31,1.01124,10,1.71075e-05,-4.56593,0.0110912,5.31954,0.62967,
2,1,0,1,0,21146.2,0.625993,0.625729,0.00890012,31,1.01125,10,5.56907e-06,-5.0506,0.00222991,26.4584,0.625725,
2,1,0,0,0,21147,0.621998,0.621673,-0.00677926,31,1.01124,10,-4.21448e-06,-5.16882,-0.0023714,-24.8798,0.621676,
2,0,0,1,0,21147.8,0.618003,0.617661,-0.0203376,31,1.01122,10,-1.25618e-05,-4.6917,-0.0144783,-4.07506,0.617669,
2,0,0,0,0,21148.6,0.614008,0.613702,-0.032038,31,1.01119,10,-1.96618e-05,-4.49434,-0.0322498,-1.82947,0.613716,
2,0,0,1,0,21149.4,0.610012,0.609713,-0.0408027,31,1.01115,10,-2.48779e-05,-4.38931,-0.0429181,-1.37471,0.609731,
2,0,0,1,0,21150.2,0.606017,0.605757,-0.0473636,31,1.0111,10,-2.86909e-05,-4.32456,-0.0631037,-0.934969,0.605778,
2,0,0,1,0,21151,0.602022,0.601706,-0.0544651,31,1.01105,10,-3.2772e-05,-4.26388,-0.0872516,-0.676206,0.60173,
2,0,0,1,0,21151.8,0.598027,0.597727,-0.0599718,31,1.011,10,-3.58468e-05,-4.22205,-0.099683,-0.591876,0.597753,
2,0,0,0,0,21152.6,0.594032,0.593722,-0.0653663,31,1.01094,10,-3.88094e-05,-4.18465,-0.129599,-0.455249,0.593751,
2,0,0,1,0,21153.4,0.590037,0.589722,-0.0703707,31,1.01088,10,-4.14991e-05,-4.15261,-0.172041,-0.342941,0.589753,
2,0,0,1,0,21154.2,0.586041,0.585767,-0.0732775,31,1.01081,10,-4.29235e-05,-4.13503,-0.250716,-0.235326,0.585799,
2,0,0,1,0,21155,0.582046,0.581757,-0.0759208,31,1.01074,10,-4.41675e-05,-4.11964,-0.201561,-0.292716,0.581791,
2,0,0,1,0,21155.8,0.578052,0.577776,-0.0786098,31,1.01067,10,-4.54188e-05,-4.10452,-0.19278,-0.306048,0.57781,
2,0,0,0,0,21156.6,0.574056,0.573789,-0.0807106,31,1.0106,10,-4.63109e-05,-4.09307,-1.04629,-0.0563897,0.573825,
2,0,0,1,0,21157.4,0.570061,0.569767,-0.0839364,31,1.01052,10,-4.78242e-05,-4.07605,-0.466685,-0.126424,0.569804,
2,0,0,1,0,21158.2,0.566065,0.565784,-0.0859149,31,1.01045,10,-4.86093e-05,-4.06593,-0.294482,-0.200352,0.565822,
2,0,0,1,0,21159,0.56207,0.561749,-0.0871427,31,1.01037,10,-4.89523e-05,-4.05977,-0.592874,-0.0995152,0.561788,
2,0,0,1,0,21159.8,0.558075,0.557776,-0.0881079,31,1.01029,10,-4.91445e-05,-4.05499,-0.370131,-0.159403,0.557815,
2,0,0,1,0,21160.6,0.55408,0.553779,-0.0896566,31,1.01021,10,-4.96499e-05,-4.04742,-0.416852,-0.141537,0.553818,
2,0,0,1,0,21161.4,0.550085,0.549847,-0.0909107,31,1.01012,10,-4.9987e-05,-4.04139,-13.491,-0.0043733,0.549887,
2,0,0,0,0,21162.2,0.54609,0.545802,-0.0920046,31,1.01004,10,-5.02163e-05,-4.03619,-0.778775,-0.07576,0.545843,
2,0,0,1,0,21163,0.542094,0.541824,-0.0932732,31,1.00996,10,-5.05377e-05,-4.03024,-0.550841,-0.107109,0.541865,
2,0,0,1,0,21163.8,0.538099,0.537824,-0.0949313,31,1.00987,10,-5.10564e-05,-4.02259,-0.80467,-0.073322,0.537866,
2,0,0,1,0,21164.6,0.534104,0.533795,-0.0962083,31,1.00979,10,-5.13555e-05,-4.01679,-0.459089,-0.128515,0.533838,
2,0,0,1,0,21165.4,0.530109,0.529803,-0.0968823,31,1.0097,10,-5.13285e-05,-4.01376,-5.41043,-0.0109049,0.529845,
2,0,0,0,0,21166.2,0.526114,0.52579,-0.0998784,31,1.00961,10,-5.25151e-05,-4.00053,-0.591427,-0.0997588,0.525834,
2,0,0,1,0,21167,0.522119,0.521839,-0.0996708,31,1.00953,10,-5.20121e-05,-4.00143,-0.722,-0.0817174,0.521883,
2,0,0,1,0,21167.8,0.518123,0.517825,-0.101058,31,1.00944,10,-5.23303e-05,-3.99543,-1.47655,-0.039958,0.517869,
2,0,0,1,0,21168.6,0.514128,0.513843,-0.101731,31,1.00935,10,-5.2274e-05,-3.99255,-1.00678,-0.0586029,0.513888,
2,0,0,1,0,21169.4,0.510133,0.509841,-0.102362,31,1.00925,10,-5.21886e-05,-3.98986,-1.02417,-0.0576075,0.509886,
2,0,0,0,0,21170.2,0.506138,0.505787,-0.104153,31,1.00916,10,-5.26789e-05,-3.98233,-1.48193,-0.039813,0.505832,
2,0,0,1,0,21171,0.502143,0.501847,-0.104525,31,1.00907,10,-5.24556e-05,-3.98078,-0.412067,-0.143181,0.501893,
2,0,0,0,0,21171.8,0.498148,0.497865,-0.105542,31,1.00897,10,-5.25459e-05,-3.97657,-2.23046,-0.026452,0.497912,
2,0,0,1,0,21172.6,0.494152,0.493866,-0.107611,31,1.00888,10,-5.31456e-05,-3.96814,-0.656593,-0.0898578,0.493914,
2,0,0,1,0,21173.4,0.490157,0.489828,-0.108481,31,1.00878,10,-5.31368e-05,-3.96465,-0.993297,-0.0593981,0.489875,
2,0,0,1,0,21174.2,0.486162,0.48587,-0.10918,31,1.00869,10,-5.30473e-05,-3.96186,-0.729951,-0.0808274,0.485919,
2,0,0,1,0,21175,0.482167,0.481868,-0.110963,31,1.00859,10,-5.34697e-05,-3.95482,-0.413958,-0.142527,0.481917,
2,0,0,0,0,21175.8,0.478172,0.477864,-0.111642,31,1.00849,10,-5.33497e-05,-3.95217,-3.22337,-0.0183038,0.477913,
2,0,0,1,0,21176.6,0.474177,0.473861,-0.113473,31,1.00839,10,-5.37706e-05,-3.94511,-5.80767,-0.010159,0.473911,
2,0,0,1,0,21177.4,0.470181,0.469875,-0.115954,31,1.00829,10,-5.4484e-05,-3.93571,-0.482555,-0.122266,0.469926,
2,0,0,1,0,21178.2,0.466186,0.465893,-0.116386,31,1.00819,10,-5.42233e-05,-3.9341,-0.612338,-0.096352,0.465944,
2,0,0,1,0,21179,0.462191,0.46191,-0.117444,31,1.00808,10,-5.42484e-05,-3.93017,-0.62866,-0.0938505,0.461961,
2,0,0,0,0,21179.8,0.458196,0.457913,-0.118368,31,1.00798,10,-5.42021e-05,-3.92677,-0.98426,-0.0599435,0.457966,
2,0,0,1,0,21180.6,0.454201,0.453907,-0.120644,31,1.00787,10,-5.4761e-05,-3.9185,-1.18692,-0.0497086,0.45396,
2,0,0,1,0,21181.4,0.450205,0.449872,-0.122466,31,1.00777,10,-5.50941e-05,-3.91198,-0.601753,-0.0980469,0.449926,
2,0,0,1,0,21182.2,0.44621,0.445901,-0.123509,31,1.00766,10,-5.50726e-05,-3.9083,-0.572768,-0.103009,0.445955,
2,0,0,1,0,21183,0.442215,0.441924,-0.125949,31,1.00755,10,-5.56599e-05,-3.8998,-1.15432,-0.0511125,0.441979,
2,0,0,0,0,21183.8,0.43822,0.43791,-0.126761,31,1.00744,10,-5.55099e-05,-3.89701,-0.370974,-0.159041,0.437966,
2,0,0,1,0,21184.6,0.434225,0.433936,-0.128684,31,1.00732,10,-5.58405e-05,-3.89048,-1.34982,-0.0437096,0.433992,
2,0,0,0,0,21185.4,0.43023,0.429935,-0.130283,31,1.00721,10,-5.60131e-05,-3.88511,-0.701014,-0.0841638,0.429992,
2,0,0,1,0,21186.2,0.426234,0.425936,-0.133479,31,1.00709,10,-5.68534e-05,-3.87459,-0.591818,-0.0996928,0.425994,
2,0,0,1,0,21187,0.422239,0.421907,-0.134272,31,1.00698,10,-5.66502e-05,-3.87202,-1.87473,-0.0314713,0.421966,
2,0,0,1,0,21187.8,0.418244,0.417979,-0.135599,31,1.00686,10,-5.66776e-05,-3.86774,-0.492628,-0.119766,0.418038,
2,0,0,1,0,21188.6,0.414249,0.413955,-0.137672,31,1.00674,10,-5.69902e-05,-3.86115,-0.42311,-0.139444,0.414016,
2,0,0,0,0,21189.4,0.410254,0.409941,-0.140748,31,1.00661,10,-5.76983e-05,-3.85156,-0.871682,-0.0676852,0.410003,
2,0,0,1,0,21190.2,0.406259,0.405966,-0.141708,31,1.00649,10,-5.75285e-05,-3.84861,-0.477143,-0.123653,0.406029,
2,0,0,1,0,21191,0.402263,0.401988,-0.144321,31,1.00637,10,-5.80152e-05,-3.84067,-0.613021,-0.0962447,0.402052,
2,0,0,1,0,21191.8,0.398268,0.397948,-0.147307,31,1.00624,10,-5.86203e-05,-3.83178,-1.2817,-0.0460325,0.398012,
2,0,0,1,0,21192.6,0.394274,0.394003,-0.14866,31,1.00611,10,-5.85727e-05,-3.8278,-0.598632,-0.098558,0.394069,
2,0,0,0,0,21193.4,0.390278,0.389991,-0.149994,31,1.00598,10,-5.84963e-05,-3.82393,-0.558642,-0.105613,0.390057,
2,0,0,1,0,21194.2,0.386283,0.38598,-0.153031,31,1.00585,10,-5.9067e-05,-3.81522,-0.7534,-0.0783116,0.386047,
2,0,0,1,0,21195,0.382287,0.382016,-0.154513,31,1.00571,10,-5.90264e-05,-3.81103,-0.633578,-0.0931219,0.382084,
2,0,0,1,0,21195.8,0.378292,0.378024,-0.157096,31,1.00558,10,-5.9386e-05,-3.80384,-0.867259,-0.0680304,0.378094,
2,0,0,1,0,21196.6,0.374297,0.374048,-0.158728,31,1.00544,10,-5.9372e-05,-3.79935,-0.664141,-0.0888365,0.374118,
2,0,0,1,0,21197.4,0.370303,0.369972,-0.161492,31,1.0053,10,-5.97474e-05,-3.79185,-0.561455,-0.105084,0.370043,
2,0,0,1,0,21198.2,0.366307,0.36599,-0.164777,31,1.00516,10,-6.03068e-05,-3.7831,-0.459231,-0.128476,0.366062,
2,0,0,0,0,21199,0.362312,0.362039,-0.165363,31,1.00502,10,-5.98679e-05,-3.78156,-0.589786,-0.100036,0.362112,
2,0,0,1,0,21199.8,0.358316,0.357992,-0.168707,31,1.00487,10,-6.03957e-05,-3.77287,-1.72058,-0.0342907,0.358066,
2,0,0,1,0,21200.6,0.354321,0.354019,-0.171295,31,1.00472,10,-6.06416e-05,-3.76626,-0.462634,-0.127531,0.354094,
2,0,0,1,0,21201.4,0.350327,0.350003,-0.172071,31,1.00458,10,-6.02255e-05,-3.76429,-1.43903,-0.0409998,0.350079,
2,0,0,1,0,21202.2,0.346331,0.346043,-0.175063,31,1.00442,10,-6.05792e-05,-3.75681,-0.705958,-0.0835744,0.34612,
2,0,0,0,0,21202.9,0.342336,0.342062,-0.177657,31,1.00427,10,-6.07697e-05,-3.75042,-0.656998,-0.0898023,0.34214,
2,0,0,1,0,21203.7,0.338341,0.338045,-0.180083,31,1.00412,10,-6.08763e-05,-3.74453,-0.646433,-0.0912702,0.338124,
2,0,0,1,0,21204.5,0.334345,0.334042,-0.182125,31,1.00396,10,-6.08373e-05,-3.73963,-1.02638,-0.0574835,0.334122,
2,0,0,1,0,21205.3,0.33035,0.330035,-0.184457,31,1.0038,10,-6.08772e-05,-3.7341,-0.495748,-0.119012,0.330116,
2,0,0,1,0,21206.1,0.326355,0.326059,-0.18662,31,1.00364,10,-6.08492e-05,-3.72904,-0.756352,-0.078006,0.326142,
2,0,0,0,0,21206.9,0.32236,0.322052,-0.189183,31,1.00348,10,-6.09269e-05,-3.72312,-1.02966,-0.0573007,0.322135,
2,0,0,1,0,21207.7,0.318365,0.318056,-0.191451,31,1.00332,10,-6.08922e-05,-3.71794,-0.701341,-0.0841246,0.318141,
2,0,0,0,0,21208.5,0.31437,0.314068,-0.193766,31,1.00315,10,-6.08558e-05,-3.71272,-1.6395,-0.0359865,0.314153,
2,0,0,1,0,21209.3,0.310374,0.310055,-0.196714,31,1.00298,10,-6.09923e-05,-3.70616,-0.482776,-0.12221,0.310142,
2,0,0,1,0,21210.1,0.306379,0.306051,-0.199539,31,1.00281,10,-6.10691e-05,-3.69997,-0.493384,-0.119582,0.306139,
2,0,0,1,0,21210.9,0.302385,0.302062,-0.201477,31,1.00264,10,-6.08585e-05,-3.69577,-0.697194,-0.084625,0.30215,
2,0,0,1,0,21211.7,0.298389,0.298085,-0.20302,31,1.00247,10,-6.05172e-05,-3.69246,-0.788571,-0.0748189,0.298174,
2,0,0,0,0,21212.5,0.294394,0.294091,-0.206305,31,1.00229,10,-6.06724e-05,-3.68549,-1.47518,-0.0399951,0.294182,
2,0,0,1,0,21213.3,0.290398,0.290053,-0.210957,31,1.00211,10,-6.11886e-05,-3.67581,-0.585507,-0.100767,0.290146,
2,0,0,1,0,21214.1,0.286403,0.286097,-0.211887,31,1.00193,10,-6.06201e-05,-3.6739,-0.572183,-0.103114,0.28619,
2,0,0,1,0,21214.9,0.282408,0.282104,-0.214735,31,1.00175,10,-6.05775e-05,-3.6681,-2.13443,-0.0276421,0.282198,
2,0,0,1,0,21215.7,0.278414,0.278101,-0.21785,31,1.00156,10,-6.05843e-05,-3.66184,-0.513948,-0.114798,0.278197,
2,0,0,0,0,21216.5,0.274418,0.27407,-0.220374,31,1.00138,10,-6.03979e-05,-3.65684,-0.571521,-0.103233,0.274167,
2,0,0,1,0,21217.3,0.270423,0.270113,-0.223881,31,1.00119,10,-6.04733e-05,-3.64998,-0.842552,-0.0700254,0.270212,
2,0,0,1,0,21218.1,0.266427,0.266097,-0.225795,31,1.00099,10,-6.00835e-05,-3.64629,-0.845341,-0.0697943,0.266197,
2,0,0,1,0,21218.9,0.262432,0.262106,-0.229007,31,1.0008,10,-6.00242e-05,-3.64015,-0.968297,-0.0609317,0.262207,
2,0,0,1,0,21219.7,0.258437,0.258142,-0.2318,31,1.00061,10,-5.98373e-05,-3.63489,-0.933634,-0.0631939,0.258244,
2,0,0,0,0,21220.5,0.254442,0.254132,-0.232122,31,1.00041,10,-5.89895e-05,-3.63428,-0.544234,-0.108409,0.254234,
2,0,0,1,0,21221.3,0.250447,0.250135,-0.236209,31,1.00021,10,-5.90841e-05,-3.6267,-3.16915,-0.018617,0.250239,
2,0,0,0,0,21222.1,0.246452,0.24614,-0.239765,31,1.00001,10,-5.90157e-05,-3.62021,-0.756816,-0.0779582,0.246245,
2,0,0,1,0,21222.9,0.242456,0.242129,-0.241225,31,0.999801,10,-5.84077e-05,-3.61758,-0.712556,-0.0828005,0.242235,
2,0,0,1,0,21223.7,0.238461,0.238144,-0.243933,31,0.999595,10,-5.80911e-05,-3.61273,-0.960307,-0.0614387,0.238251,
2,0,0,1,0,21224.5,0.234467,0.234132,-0.246638,31,0.999387,10,-5.7746e-05,-3.60794,-0.65976,-0.0894265,0.234241,
2,0,0,1,0,21225.3,0.230471,0.230153,-0.249246,31,0.999177,10,-5.73647e-05,-3.60337,-0.896862,-0.0657849,0.230263,
2,0,0,0,0,21226.1,0.226476,0.226149,-0.251491,31,0.998965,10,-5.68744e-05,-3.59948,-1.21173,-0.0486907,0.226259,
2,0,0,1,0,21226.9,0.222481,0.222181,-0.253826,31,0.99875,10,-5.63952e-05,-3.59546,-0.870641,-0.0677662,0.222293,
2,0,0,1,0,21227.7,0.218485,0.218186,-0.25799,31,0.998533,10,-5.629e-05,-3.5884,-0.786485,-0.0750173,0.2183,
2,0,0,1,0,21228.5,0.21449,0.214155,-0.260225,31,0.998315,10,-5.57285e-05,-3.58465,-0.757234,-0.0779151,0.214269,
2,0,0,1,0,21229.3,0.210496,0.210202,-0.263279,31,0.998093,10,-5.53417e-05,-3.57958,-0.800482,-0.0737056,0.210318,
2,0,0,0,0,21230.1,0.2065,0.206206,-0.266827,31,0.997869,10,-5.50212e-05,-3.57377,-0.681523,-0.0865708,0.206323,
2,0,0,1,0,21230.9,0.202505,0.202213,-0.269486,31,0.997643,10,-5.44936e-05,-3.56946,-0.780603,-0.0755826,0.202332,
2,0,0,1,0,21231.7,0.198509,0.198185,-0.272892,31,0.997414,10,-5.40833e-05,-3.56401,-0.716485,-0.0823465,0.198306,
2,0,0,1,0,21232.5,0.194514,0.194208,-0.277417,31,0.997182,10,-5.38766e-05,-3.55687,-0.546915,-0.107878,0.19433,
2,0,0,1,0,21233.3,0.190519,0.190199,-0.281287,31,0.996946,10,-5.35005e-05,-3.55085,-0.670719,-0.0879653,0.190323,
2,0,0,0,0,21234.1,0.186524,0.186219,-0.286168,31,0.996707,10,-5.329e-05,-3.54338,-0.594457,-0.0992503,0.186345,
2,0,0,1,0,21234.9,0.182529,0.182258,-0.291265,31,0.996464,10,-5.30853e-05,-3.53571,-0.42788,-0.137889,0.182386,
2,0,0,0,0,21235.7,0.178534,0.178194,-0.296673,31,0.996217,10,-5.28654e-05,-3.52772,-0.469201,-0.125746,0.178325,
2,0,0,1,0,21236.5,0.174538,0.174239,-0.304161,31,0.995964,10,-5.29965e-05,-3.5169,-0.33581,-0.175694,0.174372,
2,0,0,1,0,21237.3,0.170543,0.170208,-0.311789,31,0.995705,10,-5.30691e-05,-3.50614,-0.285764,-0.206464,0.170345,
2,0,0,1,0,21238.1,0.166549,0.166248,-0.322301,31,0.995438,10,-5.35819e-05,-3.49174,-0.307733,-0.191725,0.16639,
2,0,0,1,0,21238.9,0.162553,0.162235,-0.335327,31,0.995163,10,-5.44017e-05,-3.47453,-0.210312,-0.280536,0.162383,
2,0,0,0,0,21239.7,0.158558,0.158239,-0.350153,31,0.994877,10,-5.54079e-05,-3.45574,-0.18782,-0.31413,0.158393,
2,0,0,1,0,21240.5,0.154563,0.154224,-0.371119,31,0.994575,10,-5.72354e-05,-3.43049,-0.156996,-0.375805,0.154387,
2,0,0,1,0,21241.3,0.150567,0.150263,-0.396895,31,0.994256,10,-5.96385e-05,-3.40132,-0.110256,-0.535117,0.150437,
2,0,0,1,0,21242.1,0.146572,0.146225,-0.433356,31,0.993911,10,-6.33675e-05,-3.36316,-0.0962925,-0.612716,0.146416,
2,0,0,1,0,21242.9,0.142578,0.142264,-0.482051,31,0.993534,10,-6.85784e-05,-3.31691,-0.0865281,-0.68186,0.142476,
2,0,0,0,0,21243.7,0.138582,0.138255,-0.535585,31,0.993115,10,-7.40473e-05,-3.27117,-0.0854972,-0.690081,0.138491,
2,0,0,1,0,21244.5,0.134587,0.134249,-0.594658,31,0.99265,10,-7.98321e-05,-3.22573,-0.0944566,-0.624626,0.13451,
2,0,0,1,0,21245.3,0.130591,0.130286,-0.646421,31,0.992141,10,-8.42193e-05,-3.18948,-0.125603,-0.469733,0.13057,
2,0,0,1,0,21246.1,0.126596,0.126295,-0.684915,31,0.991593,10,-8.65009e-05,-3.16436,-0.185191,-0.318591,0.126596,
2,0,0,1,0,21246.9,0.122602,0.122251,-0.714702,31,0.991018,10,-8.73727e-05,-3.14587,-0.363295,-0.162403,0.122565,
2,0,0,1,0,21247.7,0.118607,0.118294,-0.726335,31,0.990428,10,-8.59213e-05,-3.13886,-0.694866,-0.0849085,0.118614,
2,0,0,1,0,21248.5,0.114611,0.114257,-0.730226,31,0.989831,10,-8.34334e-05,-3.13654,4.56432,0.0129264,0.114578,
2,0,0,0,0,21249.3,0.110616,0.110292,-0.72676,31,0.989236,10,-8.01559e-05,-3.13861,1.10355,0.0534636,0.110612,
2,0,0,1,0,21250.1,0.10662,0.106314,-0.719383,31,0.988645,10,-7.64805e-05,-3.14304,1.03819,0.0568299,0.106631,
2,0,0,1,0,21250.9,0.102625,0.102307,-0.710459,31,0.98806,10,-7.2685e-05,-3.14846,0.47691,0.123713,0.10262,
2,0,0,1,0,21251.7,0.0986305,0.0983223,-0.698534,31,0.987483,10,-6.86815e-05,-3.15581,0.737631,0.0799858,0.0986297,
2,0,0,1,0,21252.5,0.0946351,0.0943425,-0.68494,31,0.986916,10,-6.46189e-05,-3.16435,0.494085,0.119413,0.0946438,
2,0,0,0,0,21253.3,0.0906399,0.0903076,-0.676179,31,0.986358,10,-6.10641e-05,-3.16994,0.469889,0.125561,0.0906051,
2,0,0,1,0,21254.1,0.0866448,0.0862834,-0.664271,31,0.985809,10,-5.73155e-05,-3.17766,0.649165,0.090886,0.0865757,
2,0,0,1,0,21254.9,0.0826492,0.0823256,-0.654869,31,0.985269,10,-5.39125e-05,-3.18385,0.571835,0.103177,0.0826138,
2,0,0,1,0,21255.7,0.0786544,0.0783451,-0.645849,31,0.984738,10,-5.05991e-05,-3.18987,0.703652,0.0838483,0.0786292,
2,0,0,1,0,21256.5,0.0746596,0.0743065,-0.634969,31,0.984214,10,-4.71823e-05,-3.19725,0.738849,0.079854,0.0745858,
2,0,0,0,0,21257.3,0.0706641,0.0703221,-0.626473,31,0.983697,10,-4.40549e-05,-3.2031,0.529609,0.111403,0.0705978,
2,0,0,1,0,21258.1,0.0666689,0.0663318,-0.619567,31,0.983187,10,-4.1097e-05,-3.20791,0.889072,0.0663614,0.0666044,
2,0,0,0,0,21258.9,0.0626737,0.0623648,-0.607586,31,0.982683,10,-3.7892e-05,-3.21639,0.569956,0.103517,0.0626322,
2,0,0,1,0,21259.7,0.0586783,0.0583617,-0.602156,31,0.982186,10,-3.51428e-05,-3.22029,0.553241,0.106644,0.0586266,
2,0,0,1,0,21260.5,0.0546835,0.0543813,-0.59115,31,0.981696,10,-3.21475e-05,-3.2283,0.859159,0.0686718,0.0546414,
2,0,0,1,0,21261.3,0.0506886,0.0503498,-0.582426,31,0.981213,10,-2.9325e-05,-3.23476,0.478304,0.123352,0.0506061,
2,0,0,1,0,21262.1,0.046693,0.0463326,-0.573705,31,0.980739,10,-2.65812e-05,-3.24131,0.634846,0.092936,0.046585,
2,0,0,0,0,21262.9,0.0426979,0.0424006,-0.56244,31,0.980272,10,-2.38478e-05,-3.24992,0.505955,0.116611,0.042648,
2,0,0,1,0,21263.7,0.0387022,0.0383885,-0.55295,31,0.979813,10,-2.12269e-05,-3.25731,0.398206,0.148165,0.0386318,
2,0,0,1,0,21264.5,0.0347074,0.034386,-0.542727,31,0.979363,10,-1.86622e-05,-3.26542,0.582409,0.101303,0.0346248,
2,0,0,1,0,21265.3,0.0307126,0.0303577,-0.531053,31,0.978921,10,-1.61216e-05,-3.27486,0.450172,0.131061,0.0305914,
2,0,0,1,0,21266.1,0.0267172,0.0263778,-0.523564,31,0.978487,10,-1.38105e-05,-3.28103,0.552649,0.106759,0.0266082,
2,0,0,0,0,21266.9,0.022722,0.0224024,-0.514751,31,0.97806,10,-1.15316e-05,-3.2884,0.666962,0.0884608,0.0226289,
2,0,0,1,0,21267.7,0.0187268,0.0184184,-0.508608,31,0.977639,10,-9.36777e-06,-3.29362,0.625271,0.0943591,0.0186422,
2,0,0,1,0,21268.5,0.0147313,0.0143663,-0.501419,31,0.977224,10,-7.20353e-06,-3.2998,1.1159,0.052872,0.0145869,
2,0,0,1,0,21269.3,0.0107365,0.0104177,-0.497753,31,0.976813,10,-5.18543e-06,-3.30299,1.18957,0.0495979,0.0106367,
2,0,0,1,0,21270.1,0.00674163,0.00639713,-0.493834,31,0.976405,10,-3.15912e-06,-3.30642,2.54877,0.0231484,0.00661442,
2,0,0,0,0,21270.9,0.00274612,0.00241795,-0.493956,31,0.975998,10,-1.19436e-06,-3.30631,-2.62402,-0.0224846,0.00263529,
2,0,0,1,0,21271.4,0.000274105,-0.000138029,-0.493196,31,0.975744,10,6.80754e-08,-3.30698, , ,7.89768e-05,