File: Figure_codes/Fig_3-5/workspace_calculate_alpha_eff/20221101_1-115_003_TrumpetPlot_ParaChange_from10_every3_16_CV_C01_103.csv
mode,ox/red,error,control changes,counter inc.,time/s,control/V,Ewe/V,<I>/mA,cycle number,(Q-Qo)/C,I Range,P/W,log(|I|),Tafel slope mV/dec,alpha_eff,E-IR/V,
2,0,0,0,0,68584.6,2.44065e-05,-0.000287149,-0.0943058,104,0.0000000E+000,10,2.70798e-08,-4.02546, , ,-0.000245654,
2,1,0,0,0,68585.3,0.00379485,0.00348896,0.148306,104,8.85403e-05,10,5.17435e-07,-3.82884,0.0315337,1.87101,0.0034237,
2,1,0,1,0,68586.1,0.00779002,0.00747503,0.170793,104,0.000226768,10,1.27668e-06,-3.76753,0.0769266,0.766965,0.00739988,
2,1,0,0,0,68586.9,0.0117852,0.0115141,0.185818,104,0.000380531,10,2.13952e-06,-3.73091,0.109262,0.539987,0.0114324,
2,1,0,1,0,68587.7,0.0157806,0.0154538,0.202197,104,0.000545949,10,3.12472e-06,-3.69422,0.132224,0.446211,0.0153648,
2,1,0,1,0,68588.5,0.0197754,0.0194544,0.213491,104,0.000721868,10,4.15335e-06,-3.67062,0.16506,0.357446,0.0193605,
2,1,0,1,0,68589.3,0.0237704,0.0234582,0.226021,104,0.000907589,10,5.30206e-06,-3.64585,0.175063,0.337022,0.0233588,
2,1,0,1,0,68590.1,0.0277659,0.0274223,0.239172,104,0.00110336,10,6.55866e-06,-3.62129,0.158186,0.372978,0.0273171,
2,1,0,0,0,68590.9,0.0317611,0.031402,0.251021,104,0.00130964,10,7.88258e-06,-3.60029,0.1794,0.328874,0.0312916,
2,1,0,1,0,68591.7,0.0357567,0.0354215,0.265673,104,0.00152676,10,9.41054e-06,-3.57565,0.204264,0.288842,0.0353046,
2,1,0,1,0,68592.5,0.0397516,0.0394425,0.278949,104,0.00175465,10,1.10024e-05,-3.55448,0.156397,0.377245,0.0393197,
2,1,0,1,0,68593.3,0.0437465,0.0434427,0.291273,104,0.00199376,10,1.26537e-05,-3.5357,0.230231,0.256264,0.0433146,
2,1,0,1,0,68594.1,0.0477413,0.0474636,0.304793,104,0.00224242,10,1.44666e-05,-3.516,0.222178,0.265553,0.0473295,
2,1,0,0,0,68594.9,0.0517369,0.0514098,0.316902,104,0.00250077,10,1.62919e-05,-3.49907,0.230889,0.255534,0.0512703,
2,1,0,1,0,68595.7,0.0557321,0.0553937,0.329003,104,0.00276914,10,1.82247e-05,-3.4828,0.311747,0.189256,0.055249,
2,1,0,1,0,68596.5,0.0597277,0.0594152,0.339082,104,0.00304566,10,2.01467e-05,-3.46969,0.301051,0.19598,0.059266,
2,1,0,1,0,68597.3,0.0637226,0.0634052,0.348017,104,0.00333108,10,2.20661e-05,-3.4584,0.303247,0.194561,0.0632521,
2,1,0,1,0,68598.1,0.0677174,0.0673962,0.358771,104,0.00362506,10,2.41798e-05,-3.44518,0.476609,0.123791,0.0672383,
2,1,0,0,0,68598.9,0.0717128,0.0713868,0.36676,104,0.00392563,10,2.61818e-05,-3.43562,0.331855,0.177788,0.0712254,
2,1,0,1,0,68599.7,0.075708,0.0754269,0.373998,104,0.00423293,10,2.82095e-05,-3.42713,0.48637,0.121307,0.0752624,
2,1,0,0,0,68600.5,0.0797031,0.0793536,0.383092,104,0.0045462,10,3.03997e-05,-3.4167,0.414789,0.142241,0.0791851,
2,1,0,1,0,68601.3,0.0836987,0.083358,0.390578,104,0.00486622,10,3.25578e-05,-3.40829,0.409429,0.144103,0.0831862,
2,1,0,1,0,68602.1,0.0876935,0.0873691,0.401961,104,0.00519364,10,3.5119e-05,-3.39582,0.311059,0.189675,0.0871922,
2,1,0,1,0,68602.9,0.0916883,0.0913541,0.415426,104,0.00552988,10,3.79509e-05,-3.38151,0.265704,0.222051,0.0911713,
2,1,0,1,0,68603.7,0.0956838,0.0953615,0.428755,104,0.00587761,10,4.08868e-05,-3.36779,0.246951,0.238914,0.0951729,
2,1,0,0,0,68604.5,0.099679,0.0993826,0.446494,104,0.0062383,10,4.43737e-05,-3.35018,0.240047,0.245785,0.0991861,
2,1,0,1,0,68605.3,0.103674,0.103342,0.465683,104,0.00661372,10,4.81247e-05,-3.33191,0.193441,0.305002,0.103137,
2,1,0,1,0,68606.1,0.10767,0.107371,0.486319,104,0.00700599,10,5.22164e-05,-3.31308,0.233714,0.252445,0.107157,
2,1,0,1,0,68606.9,0.111664,0.111333,0.505255,104,0.00741381,10,5.62517e-05,-3.29649,0.260217,0.226734,0.111111,
2,1,0,1,0,68607.7,0.115659,0.115289,0.519924,104,0.00783498,10,5.99416e-05,-3.28406,0.317127,0.186045,0.11506,
2,1,0,0,0,68608.5,0.119655,0.119281,0.533572,104,0.00826752,10,6.36451e-05,-3.27281,0.64457,0.0915339,0.119046,
2,1,0,1,0,68609.3,0.12365,0.123329,0.541342,104,0.00870693,10,6.67629e-05,-3.26653,0.613563,0.0961596,0.12309,
2,1,0,1,0,68610.1,0.127646,0.127301,0.544729,104,0.00915199,10,6.93448e-05,-3.26382,4.85159,0.012161,0.127062,
2,1,0,1,0,68610.9,0.13164,0.131301,0.545012,104,0.00959923,10,7.15605e-05,-3.26359,-0.66814,-0.0883049,0.131061,
2,1,0,1,0,68611.7,0.135635,0.135299,0.532299,104,0.0100411,10,7.20198e-05,-3.27384,-0.284485,-0.207392,0.135065,
2,1,0,0,0,68612.5,0.139631,0.139314,0.501674,104,0.0104671,10,6.98903e-05,-3.29958,-0.1164,-0.506871,0.139094,
2,1,0,1,0,68613.3,0.143626,0.14334,0.458471,104,0.0108622,10,6.5717e-05,-3.33869,-0.0847682,-0.696015,0.143138,
2,1,0,0,0,68614.1,0.147621,0.14732,0.405989,104,0.0112174,10,5.98105e-05,-3.39149,-0.0742972,-0.794108,0.147142,
2,1,0,1,0,68614.9,0.151617,0.151276,0.360842,104,0.0115329,10,5.45868e-05,-3.44268,-0.0855114,-0.689966,0.151117,
2,1,0,1,0,68615.7,0.155612,0.155259,0.327619,104,0.0118162,10,5.08657e-05,-3.48463,-0.119705,-0.492879,0.155115,
2,1,0,1,0,68616.5,0.159606,0.159278,0.306657,104,0.012079,10,4.88438e-05,-3.51335,-0.17256,-0.34191,0.159143,
2,1,0,1,0,68617.3,0.163602,0.163281,0.293516,104,0.0123289,10,4.79255e-05,-3.53237,-0.218134,-0.270476,0.163151,
2,1,0,0,0,68618.1,0.167597,0.167237,0.284079,104,0.0125697,10,4.75084e-05,-3.54656,-0.434668,-0.135736,0.167112,
2,1,0,1,0,68618.9,0.171592,0.171269,0.277311,104,0.0128049,10,4.74947e-05,-3.55703,-0.410318,-0.143791,0.171147,
2,1,0,1,0,68619.7,0.175588,0.175262,0.272965,104,0.0130354,10,4.78405e-05,-3.56389,-0.590967,-0.0998364,0.175142,
2,1,0,1,0,68620.5,0.179582,0.179251,0.270467,104,0.0132623,10,4.84815e-05,-3.56789,-1.32073,-0.0446722,0.179132,
2,1,0,1,0,68621.3,0.183577,0.183266,0.267249,104,0.0134871,10,4.89775e-05,-3.57308,-1.30155,-0.0453305,0.183148,
2,1,0,0,0,68622.1,0.187573,0.187252,0.265341,104,0.0137101,10,4.96856e-05,-3.5762,-0.912408,-0.064664,0.187135,
2,1,0,1,0,68622.9,0.191568,0.191256,0.264378,104,0.0139314,10,5.05639e-05,-3.57777,-1.90279,-0.0310072,0.19114,
2,1,0,0,0,68623.7,0.195563,0.195219,0.262463,104,0.0141517,10,5.12378e-05,-3.58093,-0.627326,-0.09405,0.195103,
2,1,0,1,0,68624.5,0.199559,0.199245,0.259782,104,0.0143701,10,5.17602e-05,-3.58539,3.32007,0.0177707,0.19913,
2,1,0,1,0,68625.3,0.203553,0.203208,0.259036,104,0.0145877,10,5.26382e-05,-3.58664,-1.08867,-0.0541945,0.203094,
2,1,0,1,0,68626.1,0.207548,0.207293,0.258433,104,0.0148046,10,5.35714e-05,-3.58765,-7.72878,-0.0076338,0.20718,
2,1,0,1,0,68626.9,0.211544,0.211261,0.257295,104,0.0150203,10,5.43563e-05,-3.58957,-1.65274,-0.0356982,0.211148,
2,1,0,0,0,68627.7,0.215539,0.215229,0.255931,104,0.0152351,10,5.50838e-05,-3.59188,4.95961,0.0118961,0.215116,
2,1,0,1,0,68628.5,0.219535,0.219244,0.255955,104,0.015449,10,5.61165e-05,-3.59184,-1.00052,-0.0589696,0.219131,
2,1,0,1,0,68629.3,0.223529,0.223238,0.25351,104,0.015662,10,5.65931e-05,-3.596,-18.568,-0.00317751,0.223127,
2,1,0,1,0,68630.1,0.227524,0.227236,0.253801,104,0.0158746,10,5.76729e-05,-3.59551,-0.822522,-0.0717306,0.227125,
2,1,0,1,0,68630.9,0.23152,0.231223,0.251894,104,0.0160864,10,5.82437e-05,-3.59878,11.8605,0.00497448,0.231112,
2,1,0,0,0,68631.6,0.235515,0.235194,0.252463,104,0.0162975,10,5.93777e-05,-3.5978,-5.8632,-0.0100628,0.235083,
2,1,0,1,0,68632.4,0.23951,0.239175,0.250509,104,0.016508,10,5.99154e-05,-3.60118,-12.4961,-0.00472149,0.239065,
2,1,0,1,0,68633.2,0.243506,0.24318,0.250554,104,0.0167179,10,6.09299e-05,-3.6011,-3.90262,-0.015118,0.24307,
2,1,0,1,0,68634,0.2475,0.247208,0.249846,104,0.0169273,10,6.17639e-05,-3.60233,-1.61588,-0.0365125,0.247099,
2,1,0,1,0,68634.8,0.251495,0.25114,0.249238,104,0.0171359,10,6.25938e-05,-3.60339,-13.7058,-0.00430474,0.251031,
2,1,0,0,0,68635.6,0.255491,0.255164,0.247826,104,0.0173439,10,6.32363e-05,-3.60585,-2.34392,-0.0251715,0.255055,
2,1,0,1,0,68636.4,0.259486,0.259176,0.24815,104,0.0175513,10,6.43147e-05,-3.60529,-1.10858,-0.0532214,0.259067,
2,1,0,0,0,68637.2,0.263481,0.263149,0.247312,104,0.0177579,10,6.50798e-05,-3.60675,-2.36138,-0.0249854,0.26304,
2,1,0,1,0,68638,0.267476,0.267111,0.244865,104,0.0179637,10,6.5406e-05,-3.61107,90.2254,0.000653918,0.267003,
2,1,0,1,0,68638.8,0.271471,0.271178,0.244687,104,0.0181688,10,6.63538e-05,-3.61139,-4.75896,-0.0123977,0.27107,
2,1,0,1,0,68639.6,0.275466,0.275164,0.243623,104,0.018373,10,6.70362e-05,-3.61328,-1.62432,-0.0363229,0.275056,
2,1,0,1,0,68640.4,0.279462,0.279152,0.242806,104,0.0185767,10,6.77798e-05,-3.61474,-4.59724,-0.0128338,0.279045,
2,1,0,0,0,68641.2,0.283457,0.283113,0.24221,104,0.0187794,10,6.85726e-05,-3.61581,-2.87505,-0.0205214,0.283006,
2,1,0,1,0,68642,0.287452,0.287104,0.241963,104,0.0189816,10,6.94685e-05,-3.61625,-6.62853,-0.00890092,0.286998,
2,1,0,1,0,68642.8,0.291448,0.2911,0.241082,104,0.0191832,10,7.0179e-05,-3.61783,-0.806354,-0.0731689,0.290994,
2,1,0,1,0,68643.6,0.295442,0.295146,0.239515,104,0.0193838,10,7.06919e-05,-3.62067,2.38883,0.0246983,0.295041,
2,1,0,1,0,68644.4,0.299437,0.299148,0.237979,104,0.0195838,10,7.1191e-05,-3.62346,-1.79735,-0.032826,0.299043,
2,1,0,0,0,68645.2,0.303433,0.303118,0.238464,104,0.0197832,10,7.22828e-05,-3.62258,-1.11152,-0.0530806,0.303014,
2,1,0,1,0,68646,0.307428,0.30708,0.23762,104,0.0199818,10,7.29685e-05,-3.62412,2.07222,0.0284719,0.306976,
2,1,0,1,0,68646.8,0.311424,0.311102,0.237082,104,0.0201801,10,7.37566e-05,-3.6251,-1.27033,-0.0464448,0.310997,
2,1,0,1,0,68647.6,0.315418,0.315112,0.236067,104,0.0203772,10,7.43877e-05,-3.62696,-9.02232,-0.00653934,0.315008,
2,1,0,1,0,68648.4,0.319413,0.319071,0.235943,104,0.0205742,10,7.52824e-05,-3.62719,-9.53863,-0.00618537,0.318967,
2,1,0,0,0,68649.2,0.323409,0.323157,0.23626,104,0.0207709,10,7.63491e-05,-3.62661,-1.25284,-0.0470931,0.323053,
2,1,0,1,0,68650,0.327404,0.327089,0.234252,104,0.0209667,10,7.66212e-05,-3.63032,18.7593,0.00314511,0.326986,
2,1,0,0,0,68650.8,0.331399,0.331044,0.232449,104,0.021162,10,7.69511e-05,-3.63367,-2.49934,-0.0236062,0.330942,
2,1,0,1,0,68651.6,0.335395,0.335055,0.232629,104,0.0213565,10,7.79435e-05,-3.63334,-1.66455,-0.0354451,0.334953,
2,1,0,1,0,68652.4,0.339389,0.339084,0.232938,104,0.0215508,10,7.89855e-05,-3.63276,1.2826,0.0460002,0.338982,
2,1,0,1,0,68653.2,0.343384,0.343098,0.232986,104,0.0217449,10,7.9937e-05,-3.63267,-1.52704,-0.0386368,0.342995,
2,1,0,1,0,68654,0.34738,0.347032,0.231401,104,0.0219382,10,8.03037e-05,-3.63563,-1.26586,-0.0466085,0.34693,
2,1,0,0,0,68654.8,0.351375,0.35104,0.231708,104,0.0221309,10,8.13387e-05,-3.63506,2.2293,0.0264658,0.350938,
2,1,0,1,0,68655.6,0.35537,0.355087,0.229882,104,0.0223232,10,8.1628e-05,-3.6385,-0.988701,-0.0596743,0.354986,
2,1,0,1,0,68656.4,0.359366,0.359056,0.230342,104,0.0225149,10,8.27057e-05,-3.63763,10.1017,0.00584062,0.358955,
2,1,0,1,0,68657.2,0.36336,0.363055,0.229144,104,0.0227065,10,8.31918e-05,-3.63989,-27.6359,-0.0021349,0.362954,
2,1,0,1,0,68658,0.367355,0.367065,0.229474,104,0.0228977,10,8.42318e-05,-3.63927,-20.3884,-0.0028938,0.366964,
2,1,0,0,0,68658.8,0.371351,0.371031,0.228713,104,0.0230884,10,8.48597e-05,-3.64071,2.67316,0.0220712,0.370931,
2,1,0,1,0,68659.6,0.375346,0.375035,0.228392,104,0.0232789,10,8.56551e-05,-3.64132,-0.945867,-0.0623767,0.374935,
2,1,0,1,0,68660.4,0.379342,0.379057,0.228929,104,0.0234689,10,8.67771e-05,-3.6403,3.41455,0.017279,0.378956,
2,1,0,1,0,68661.2,0.383336,0.383035,0.228149,104,0.0236587,10,8.7389e-05,-3.64178,-3.35017,-0.017611,0.382935,
2,1,0,1,0,68662,0.387331,0.387015,0.227664,104,0.0238483,10,8.81093e-05,-3.64271,-3.63146,-0.0162469,0.386914,
2,1,0,0,0,68662.8,0.391327,0.390969,0.226932,104,0.0240375,10,8.87232e-05,-3.64411,2.34795,0.0251283,0.390869,
2,1,0,1,0,68663.6,0.395322,0.395042,0.226998,104,0.0242264,10,8.96736e-05,-3.64398,-2.03748,-0.0289573,0.394942,
2,1,0,0,0,68664.4,0.399317,0.398979,0.226795,104,0.0244154,10,9.04863e-05,-3.64437,-4.99666,-0.0118079,0.398879,
2,1,0,1,0,68665.2,0.403313,0.402993,0.226485,104,0.0246037,10,9.12721e-05,-3.64496,-24.8449,-0.00237474,0.402894,
2,1,0,1,0,68666,0.407307,0.407054,0.22559,104,0.0247919,10,9.18272e-05,-3.64668,-10.5859,-0.00557343,0.406955,
2,1,0,1,0,68666.8,0.411302,0.410984,0.226533,104,0.0249799,10,9.31013e-05,-3.64487,9.66295,0.0061058,0.410884,
2,1,0,1,0,68667.6,0.415298,0.415037,0.225328,104,0.025168,10,9.35195e-05,-3.64718,-3.01634,-0.0195601,0.414938,
2,1,0,0,0,68668.4,0.419293,0.418983,0.226163,104,0.0253557,10,9.47584e-05,-3.64558,-5.53352,-0.0106623,0.418883,
2,1,0,1,0,68669.2,0.423288,0.422961,0.22587,104,0.025543,10,9.55344e-05,-3.64614,4.38706,0.0134486,0.422862,
2,1,0,1,0,68670,0.427283,0.42699,0.224917,104,0.0257305,10,9.60373e-05,-3.64798,-2.29278,-0.025733,0.426891,
2,1,0,1,0,68670.8,0.431278,0.43095,0.225297,104,0.0259176,10,9.7092e-05,-3.64724,11.9088,0.00495431,0.430851,
2,1,0,1,0,68671.6,0.435273,0.434962,0.2249,104,0.0261045,10,9.78228e-05,-3.64801,-908.602,-6.49349e-05,0.434863,
2,1,0,0,0,68672.4,0.439269,0.438957,0.224523,104,0.0262914,10,9.85558e-05,-3.64874,-6.23921,-0.00945632,0.438858,
2,1,0,1,0,68673.2,0.443264,0.442965,0.225163,104,0.026478,10,9.97394e-05,-3.6475,3.36162,0.0175511,0.442866,
2,1,0,0,0,68674,0.447259,0.44695,0.225033,104,0.0266649,10,0.000100579,-3.64775,3.11711,0.0189278,0.446851,
2,1,0,1,0,68674.8,0.451254,0.450914,0.225288,104,0.0268518,10,0.000101586,-3.64726,-1.23356,-0.0478292,0.450815,
2,1,0,1,0,68675.6,0.455249,0.454915,0.225828,104,0.0270386,10,0.000102733,-3.64622,2.26781,0.0260162,0.454816,
2,1,0,1,0,68676.4,0.459244,0.458973,0.225535,104,0.0272254,10,0.000103515,-3.64679,6.73354,0.00876211,0.458874,
2,1,0,1,0,68677.2,0.46324,0.462901,0.22616,104,0.0274124,10,0.00010469,-3.64558,2.1755,0.0271202,0.462801,
2,1,0,0,0,68678,0.467235,0.466924,0.226335,104,0.0275995,10,0.000105681,-3.64525,12.3198,0.00478902,0.466824,
2,1,0,1,0,68678.8,0.471231,0.470929,0.226388,104,0.0277871,10,0.000106613,-3.64515,15.681,0.00376253,0.47083,
2,1,0,1,0,68679.6,0.475225,0.474976,0.228065,104,0.0279747,10,0.000108325,-3.64194,-15.1502,-0.00389434,0.474875,
2,1,0,1,0,68680.4,0.47922,0.478926,0.227858,104,0.0281628,10,0.000109127,-3.64233,2.38414,0.0247469,0.478826,
2,1,0,1,0,68681.2,0.483216,0.482915,0.228323,104,0.0283513,10,0.00011026,-3.64145,3.46495,0.0170277,0.482814,
2,1,0,0,0,68682,0.487211,0.486907,0.228862,104,0.0285402,10,0.000111434,-3.64043,1.7626,0.0334733,0.486806,
2,1,0,1,0,68682.8,0.491206,0.49095,0.228532,104,0.0287294,10,0.000112198,-3.64105,-12.2728,-0.00480738,0.49085,
2,1,0,1,0,68683.6,0.495201,0.494893,0.230022,104,0.0289188,10,0.000113836,-3.63823,1.26638,0.0465896,0.494792,
2,1,0,1,0,68684.4,0.499196,0.498932,0.23062,104,0.0291087,10,0.000115064,-3.6371,9.84546,0.00599261,0.498831,
2,1,0,1,0,68685.2,0.503191,0.502911,0.231346,104,0.0292994,10,0.000116347,-3.63574,-52.3735,-0.00112652,0.50281,
2,1,0,0,0,68686,0.507187,0.506883,0.231627,104,0.0294904,10,0.000117408,-3.63521,2.02074,0.0291973,0.506781,
2,1,0,1,0,68686.8,0.511182,0.510898,0.232482,104,0.0296821,10,0.000118775,-3.63361,1.87157,0.0315243,0.510795,
2,1,0,0,0,68687.6,0.515177,0.514895,0.233343,104,0.0298746,10,0.000120147,-3.63201,3.52417,0.0167415,0.514793,
2,1,0,1,0,68688.4,0.519173,0.518852,0.234829,104,0.0300676,10,0.000121841,-3.62925,1.08439,0.0544083,0.518749,
2,1,0,1,0,68689.2,0.523167,0.522863,0.23491,104,0.0302615,10,0.000122826,-3.6291,2.04449,0.028858,0.52276,
2,1,0,1,0,68690,0.527162,0.526903,0.237407,104,0.0304563,10,0.000125091,-3.62451,4.00235,0.0147413,0.526799,
2,1,0,1,0,68690.8,0.531158,0.530894,0.238289,104,0.0306523,10,0.000126506,-3.6229,1.42374,0.0414401,0.530789,
2,1,0,0,0,68691.6,0.535153,0.534856,0.239935,104,0.0308494,10,0.000128331,-3.61991,1.16162,0.0507912,0.534751,
2,1,0,1,0,68692.4,0.539148,0.538868,0.241843,104,0.0310476,10,0.000130321,-3.61647,1.59928,0.0368917,0.538762,
2,1,0,1,0,68693.2,0.543143,0.542898,0.2438,104,0.0312474,10,0.000132358,-3.61297,1.56174,0.0377784,0.542791,
2,1,0,1,0,68694,0.547138,0.546812,0.245199,104,0.0314485,10,0.000134078,-3.61048,1.14451,0.0515504,0.546705,
2,1,0,1,0,68694.8,0.551133,0.55086,0.246982,104,0.031651,10,0.000136052,-3.60734,0.683449,0.0863268,0.550751,
2,1,0,0,0,68695.6,0.555129,0.554841,0.249056,104,0.0318552,10,0.000138186,-3.6037,1.13249,0.0520975,0.554731,
2,1,0,1,0,68696.4,0.559124,0.558813,0.251534,104,0.0320609,10,0.00014056,-3.5994,1.3404,0.0440167,0.558703,
2,1,0,1,0,68697.2,0.56312,0.562811,0.254566,104,0.0322686,10,0.000143272,-3.5942,0.871173,0.0677248,0.562699,
2,1,0,1,0,68698,0.567114,0.566815,0.257161,104,0.0324784,10,0.000145763,-3.5898,0.778983,0.0757397,0.566702,
2,1,0,1,0,68698.8,0.571109,0.570828,0.260279,104,0.0326905,10,0.000148575,-3.58456,1.04483,0.0564686,0.570713,
2,1,0,0,0,68699.6,0.575105,0.574844,0.263366,104,0.0329051,10,0.000151395,-3.57944,0.586332,0.100626,0.574729,
2,1,0,1,0,68700.4,0.5791,0.578797,0.26623,104,0.0331225,10,0.000154093,-3.57474,0.595825,0.0990224,0.578679,
2,1,0,0,0,68701.2,0.583095,0.582802,0.270641,104,0.0333428,10,0.00015773,-3.56761,0.636127,0.0927488,0.582683,
2,1,0,1,0,68702,0.587091,0.586756,0.275051,104,0.0335666,10,0.000161388,-3.56059,0.550544,0.107167,0.586635,
2,1,0,1,0,68702.8,0.591085,0.590774,0.281068,104,0.0337941,10,0.000166048,-3.55119,0.463833,0.127201,0.59065,
2,1,0,1,0,68703.6,0.59508,0.594775,0.286765,104,0.0340258,10,0.00017056,-3.54247,0.502919,0.117315,0.594648,
2,1,0,1,0,68704.4,0.599076,0.598757,0.291574,104,0.0342624,10,0.000174582,-3.53525,0.402377,0.146629,0.598628,
2,1,0,0,0,68705.2,0.603071,0.602819,0.299121,104,0.0345038,10,0.000180316,-3.52415,0.362569,0.162728,0.602687,
2,1,0,1,0,68706,0.607066,0.606792,0.306179,104,0.0347513,10,0.000185787,-3.51403,0.345024,0.171002,0.606658,
2,1,0,1,0,68706.8,0.611061,0.610773,0.31622,104,0.0350055,10,0.000193139,-3.50001,0.324203,0.181985,0.610634,
2,1,0,1,0,68707.6,0.615056,0.614773,0.326029,104,0.035267,10,0.000200433,-3.48674,0.262375,0.224869,0.614629,
2,1,0,1,0,68708.4,0.619051,0.618771,0.337553,104,0.0355374,10,0.000208868,-3.47166,0.254881,0.231481,0.618623,
2,1,0,0,0,68709.2,0.623047,0.622759,0.350127,104,0.0358174,10,0.000218045,-3.45577,0.236277,0.249707,0.622605,
2,1,0,1,0,68710,0.627042,0.626745,0.365168,104,0.0361085,10,0.000228867,-3.43751,0.196975,0.29953,0.626584,
2,1,0,1,0,68710.8,0.631038,0.630728,0.38321,104,0.0364131,10,0.000241701,-3.41656,0.182777,0.322797,0.63056,
2,1,0,1,0,68711.6,0.635032,0.634765,0.404432,104,0.0367329,10,0.000256719,-3.39315,0.168756,0.349617,0.634587,
2,1,0,1,0,68712.4,0.639027,0.63874,0.427824,104,0.0370705,10,0.000273269,-3.36873,0.155814,0.378656,0.638552,
2,1,0,1,0,68713.2,0.643022,0.642764,0.455329,104,0.0374284,10,0.000292669,-3.34167,0.143205,0.411996,0.642564,
2,1,0,1,0,68714,0.647018,0.64672,0.486606,104,0.0378097,10,0.000314698,-3.31282,0.128453,0.459311,0.646506,
2,1,0,0,0,68714.7,0.651013,0.65079,0.524388,104,0.0382187,10,0.000341266,-3.28035,0.121393,0.486025,0.650559,
2,1,0,1,0,68715.5,0.655009,0.654718,0.565836,104,0.0386592,10,0.000370463,-3.24731,0.115807,0.509467,0.654469,
2,1,0,1,0,68716.3,0.659003,0.658724,0.615096,104,0.0391357,10,0.000405178,-3.21106,0.105111,0.56131,0.658453,
2,1,0,1,0,68717.1,0.662998,0.662731,0.6728,104,0.0396552,10,0.000445885,-3.17211,0.0991868,0.594837,0.662435,
2,1,0,1,0,68717.9,0.666994,0.666714,0.738345,104,0.0402236,10,0.000492265,-3.13174,0.0937396,0.629403,0.666389,
2,1,0,0,0,68718.7,0.670989,0.67067,0.814305,104,0.0408491,10,0.00054613,-3.08921,0.093442,0.631408,0.670312,
2,1,0,1,0,68719.5,0.674984,0.674724,0.90062,104,0.0415385,10,0.00060767,-3.04546,0.0900145,0.65545,0.674328,
2,1,0,1,0,68720.3,0.678979,0.678703,0.996583,104,0.0423009,10,0.000676384,-3.00149,0.0883846,0.667537,0.678265,
2,1,0,1,0,68721.1,0.682974,0.682705,1.10534,104,0.0431457,10,0.00075462,-2.9565,0.086327,0.683448,0.682218,
2,1,0,1,0,68721.9,0.686969,0.686711,1.22757,104,0.0440825,10,0.000842983,-2.91096,0.0879888,0.67054,0.686171,
2,1,0,0,0,68722.7,0.690965,0.690693,1.36398,104,0.0451227,10,0.000942093,-2.86519,0.0852942,0.691723,0.690093,
2,1,0,1,0,68723.5,0.69496,0.694693,1.51471,104,0.0462772,10,0.00105226,-2.81967,0.0888947,0.663707,0.694026,
2,1,0,0,0,68724.3,0.698955,0.698684,1.67822,104,0.0475567,10,0.00117255,-2.77515,0.0862416,0.684125,0.697946,
2,1,0,1,0,68725.1,0.70295,0.702643,1.85781,104,0.0489739,10,0.00130537,-2.731,0.0909901,0.648422,0.701825,
2,1,0,1,0,68725.9,0.706945,0.706695,2.05128,104,0.0505406,10,0.00144963,-2.68797,0.0906556,0.650814,0.705793,
2,1,0,1,0,68726.7,0.71094,0.710674,2.26222,104,0.0522684,10,0.0016077,-2.64547,0.0925459,0.637522,0.709678,
2,1,0,1,0,68727.5,0.714936,0.714668,2.48737,104,0.0541707,10,0.00177765,-2.60426,0.0958033,0.615845,0.713573,
2,1,0,0,0,68728.3,0.718931,0.71868,2.72824,104,0.0562583,10,0.00196073,-2.56412,0.0979861,0.602126,0.71748,
2,1,0,1,0,68729.1,0.722926,0.722612,2.98327,104,0.058545,10,0.00215575,-2.52531,0.101789,0.579631,0.721299,
2,1,0,1,0,68729.9,0.726921,0.726665,3.25554,104,0.0610419,10,0.00236569,-2.48738,0.10397,0.567469,0.725232,
2,1,0,1,0,68730.7,0.730916,0.730645,3.54419,104,0.0637632,10,0.00258955,-2.45048,0.105729,0.558032,0.729085,
2,1,0,1,0,68731.5,0.734911,0.734622,3.85195,104,0.0667227,10,0.00282972,-2.41432,0.109022,0.541177,0.732927,
2,1,0,0,0,68732.3,0.738907,0.738618,4.17562,104,0.0699342,10,0.00308419,-2.37928,0.110812,0.532433,0.736781,
2,1,0,1,0,68733.1,0.742902,0.742612,4.51541,104,0.0734108,10,0.0033532,-2.3453,0.114112,0.517034,0.740626,
2,1,0,1,0,68733.9,0.746897,0.746621,4.87899,104,0.0771694,10,0.00364276,-2.31167,0.114999,0.513047,0.744474,
2,1,0,1,0,68734.7,0.750892,0.750573,5.2601,104,0.0812241,10,0.00394809,-2.27901,0.118663,0.497208,0.748259,
2,1,0,1,0,68735.5,0.754887,0.754587,5.66261,104,0.0855922,10,0.00427294,-2.24698,0.11976,0.492652,0.752096,
2,1,0,0,0,68736.3,0.758883,0.758618,6.08871,104,0.0902923,10,0.004619,-2.21547,0.121648,0.485005,0.755939,
2,1,0,1,0,68737.1,0.762878,0.762612,6.53868,104,0.0953414,10,0.00498647,-2.18451,0.123285,0.478567,0.759735,
2,1,0,0,0,68737.9,0.766873,0.766578,7.01317,104,0.10076,10,0.00537614,-2.15409,0.127069,0.464314,0.763492,
2,1,0,1,0,68738.7,0.770868,0.770617,7.51576,104,0.106569,10,0.00579178,-2.12403,0.124013,0.475757,0.76731,
2,1,0,1,0,68739.5,0.774863,0.77457,8.04577,104,0.11279,10,0.00623201,-2.09443,0.128126,0.460485,0.77103,
2,1,0,1,0,68740.3,0.778858,0.778529,8.60674,104,0.119446,10,0.0067006,-2.06516,0.12867,0.458536,0.774742,
2,1,0,1,0,68741.1,0.782853,0.78256,9.20527,104,0.126566,10,0.00720368,-2.03596,0.129375,0.45604,0.77851,
2,1,0,0,0,68741.9,0.786849,0.786545,9.83563,104,0.134176,10,0.00773617,-2.0072,0.127996,0.460953,0.782217,
2,1,0,1,0,68742.7,0.790844,0.79056,10.5081,104,0.142308,10,0.00830727,-1.97848,0.128199,0.460222,0.785936,
2,1,0,1,0,68743.5,0.794839,0.794531,11.2224,104,0.150994,10,0.00891655,-1.94991,0.129723,0.454817,0.789594,
2,1,0,1,0,68744.3,0.798834,0.798564,11.9892,104,0.160269,10,0.00957417,-1.92121,0.127629,0.462277,0.793288,
2,1,0,1,0,68745.1,0.802829,0.802594,12.8016,104,0.170177,10,0.0102745,-1.89274,0.125258,0.471028,0.796961,
2,1,0,0,0,68745.9,0.806825,0.806552,13.6659,104,0.180756,10,0.0110222,-1.86436,0.130448,0.452286,0.800539,
2,1,0,1,0,68746.7,0.81082,0.810557,14.5769,104,0.192042,10,0.0118154,-1.83633,0.125677,0.469457,0.804143,
2,1,0,1,0,68747.5,0.814816,0.814605,15.558,104,0.20409,10,0.0126736,-1.80805,0.12871,0.458395,0.807759,
2,1,0,1,0,68748.3,0.81881,0.818514,16.566,104,0.216927,10,0.0135595,-1.78078,0.130825,0.450985,0.811225,
2,1,0,1,0,68749.1,0.822805,0.822558,17.6466,104,0.230598,10,0.0145154,-1.75334,0.127427,0.463012,0.814794,
2,1,0,0,0,68749.9,0.8268,0.826558,18.7794,104,0.245157,10,0.0155223,-1.72632,0.129854,0.454357,0.818296,
2,1,0,1,0,68750.7,0.830796,0.830593,19.9646,104,0.260642,10,0.0165825,-1.69974,0.134603,0.438327,0.821809,
2,1,0,0,0,68751.5,0.834791,0.834567,21.1564,104,0.277079,10,0.0176564,-1.67456,0.142277,0.414683,0.825258,
2,1,0,1,0,68752.3,0.838786,0.838545,22.3728,104,0.294474,10,0.0187606,-1.65028,0.145506,0.405483,0.828701,
2,1,0,1,0,68753.1,0.842781,0.842575,23.607,104,0.312844,10,0.0198907,-1.62696,0.14508,0.406672,0.832188,
2,1,0,1,0,68753.9,0.846776,0.846545,24.9232,104,0.332234,10,0.0210986,-1.6034,0.146574,0.402528,0.835578,
2,1,0,0,0,68754.6,0.849723,0.849503,25.7998,104,0.350074,10,0.021917,-1.58838,0.0475015,1.24207,0.838152,
2,1,0,1,0,68755.4,0.845728,0.845475,23.8712,104,0.369858,10,0.0201825,-1.62213,0.105801,0.557651,0.834972,
2,1,0,0,0,68756.2,0.841732,0.841532,22.3147,104,0.388288,10,0.0187786,-1.65141,0.117118,0.503764,0.831714,
2,1,0,1,0,68757,0.837737,0.837521,20.8893,104,0.40554,10,0.0174952,-1.68008,0.118667,0.497189,0.82833,
2,1,0,1,0,68757.8,0.833742,0.833489,19.557,104,0.421683,10,0.0163005,-1.7087,0.117551,0.501911,0.824884,
2,1,0,1,0,68758.6,0.829747,0.829454,18.2939,104,0.436787,10,0.0151739,-1.73769,0.120369,0.49016,0.821404,
2,1,0,1,0,68759.4,0.825752,0.825492,17.1145,104,0.45092,10,0.0141279,-1.76663,0.11993,0.491956,0.817961,
2,1,0,0,0,68760.2,0.821757,0.821516,16.0011,104,0.464135,10,0.0131452,-1.79585,0.120303,0.49043,0.814476,
2,1,0,1,0,68761,0.817761,0.817467,14.9529,104,0.476489,10,0.0122235,-1.82528,0.121095,0.487222,0.810888,
2,1,0,1,0,68761.8,0.813766,0.813483,13.9698,104,0.488034,10,0.0113642,-1.85481,0.120176,0.490946,0.807337,
2,1,0,1,0,68762.6,0.809771,0.809494,13.0347,104,0.498811,10,0.0105515,-1.8849,0.121249,0.486603,0.803758,
2,1,0,1,0,68763.4,0.805776,0.80553,12.1572,104,0.508866,10,0.00979299,-1.91517,0.115402,0.511258,0.800181,
2,1,0,0,0,68764.2,0.801781,0.801538,11.3309,104,0.518239,10,0.00908217,-1.94573,0.122716,0.480786,0.796552,
2,1,0,1,0,68765,0.797786,0.797557,10.5579,104,0.526976,10,0.00842053,-1.97642,0.11686,0.504876,0.792912,
2,1,0,1,0,68765.8,0.79379,0.793482,9.82879,104,0.535112,10,0.00779896,-2.0075,0.117095,0.503865,0.789157,
2,1,0,1,0,68766.6,0.789795,0.789496,9.14096,104,0.542682,10,0.00721675,-2.03901,0.117094,0.503867,0.785474,
2,1,0,1,0,68767.4,0.7858,0.785533,8.4924,104,0.549717,10,0.00667106,-2.07097,0.116642,0.505819,0.781796,
2,1,0,0,0,68768.2,0.781805,0.781543,7.89077,104,0.556253,10,0.00616698,-2.10288,0.115472,0.510948,0.778071,
2,1,0,1,0,68769,0.77781,0.777551,7.32271,104,0.562321,10,0.00569378,-2.13533,0.115601,0.510376,0.774329,
2,1,0,0,0,68769.8,0.773815,0.7735,6.78909,104,0.56795,10,0.00525136,-2.16819,0.113352,0.520503,0.770513,
2,1,0,1,0,68770.6,0.769819,0.769578,6.29014,104,0.573168,10,0.00484076,-2.20134,0.113936,0.517836,0.766811,
2,1,0,1,0,68771.4,0.765824,0.765571,5.81958,104,0.577998,10,0.0044553,-2.23511,0.111244,0.530365,0.763011,
2,1,0,1,0,68772.2,0.761829,0.761551,5.3786,104,0.582463,10,0.00409608,-2.26933,0.111171,0.530713,0.759184,
2,1,0,1,0,68773,0.757834,0.757582,4.96847,104,0.58659,10,0.00376403,-2.30378,0.111211,0.530522,0.755396,
2,1,0,0,0,68773.8,0.753839,0.753553,4.56167,104,0.590391,10,0.00343746,-2.34088,0.101473,0.581437,0.751545,
2,1,0,1,0,68774.6,0.749843,0.74959,4.20228,104,0.593886,10,0.00314999,-2.37652,0.107304,0.549841,0.747741,
2,1,0,1,0,68775.4,0.745848,0.745571,3.86417,104,0.597101,10,0.00288101,-2.41294,0.103354,0.570855,0.743871,
2,1,0,1,0,68776.2,0.741853,0.741597,3.54359,104,0.600053,10,0.00262792,-2.45056,0.102018,0.578331,0.740038,
2,1,0,1,0,68777,0.737858,0.737575,3.2455,104,0.602759,10,0.0023938,-2.48872,0.0987364,0.597551,0.736147,
2,1,0,0,0,68777.8,0.733863,0.733595,2.96322,104,0.605233,10,0.0021738,-2.52824,0.0969255,0.608715,0.732291,
2,1,0,1,0,68778.6,0.729868,0.729578,2.69668,104,0.607488,10,0.00196744,-2.56917,0.0934169,0.631577,0.728391,
2,1,0,1,0,68779.4,0.725872,0.725621,2.44817,104,0.609537,10,0.00177644,-2.61116,0.0918289,0.642499,0.724544,
2,1,0,1,0,68780.2,0.721877,0.721588,2.21387,104,0.611393,10,0.0015975,-2.65485,0.0873802,0.67521,0.720614,
2,1,0,1,0,68781,0.717882,0.717582,1.99559,104,0.613068,10,0.001432,-2.69993,0.0847518,0.69615,0.716704,
2,1,0,0,0,68781.8,0.713887,0.713625,1.79063,104,0.614574,10,0.00127784,-2.74699,0.0805387,0.732567,0.712837,
2,1,0,1,0,68782.6,0.709892,0.709623,1.59733,104,0.615921,10,0.0011335,-2.7966,0.0779387,0.757005,0.70892,
2,1,0,0,0,68783.4,0.705897,0.705627,1.42143,104,0.617121,10,0.001003,-2.84727,0.074519,0.791744,0.705002,
2,1,0,1,0,68784.2,0.701901,0.701636,1.25507,104,0.618184,10,0.0008806,-2.90133,0.0720017,0.819425,0.701084,
2,1,0,1,0,68785,0.697906,0.697612,1.1009,104,0.619119,10,0.000768002,-2.95825,0.0683476,0.863234,0.697127,
2,1,0,1,0,68785.8,0.693911,0.693639,0.962032,104,0.619937,10,0.000667303,-3.01681,0.0637926,0.924872,0.693216,
2,1,0,1,0,68786.6,0.689916,0.689633,0.833395,104,0.620648,10,0.000574737,-3.07915,0.0629833,0.936756,0.689267,
2,1,0,0,0,68787.4,0.685921,0.685594,0.716061,104,0.621262,10,0.000490927,-3.14505,0.056766,1.03936,0.685279,
2,1,0,1,0,68788.2,0.681926,0.681638,0.610607,104,0.621786,10,0.000416213,-3.21424,0.055861,1.05619,0.681369,
2,1,0,1,0,68789,0.67793,0.677642,0.51642,104,0.62223,10,0.000349948,-3.287,0.0534748,1.10332,0.677415,
2,1,0,1,0,68789.8,0.673935,0.67365,0.431209,104,0.622602,10,0.000290484,-3.36531,0.04846,1.2175,0.67346,
2,1,0,1,0,68790.6,0.66994,0.669634,0.355325,104,0.62291,10,0.000237938,-3.44937,0.0458449,1.28695,0.669478,
2,1,0,0,0,68791.4,0.665945,0.665667,0.289447,104,0.623161,10,0.000192675,-3.53843,0.0425247,1.38743,0.66554,
2,1,0,1,0,68792.2,0.66195,0.661699,0.230799,104,0.623363,10,0.00015272,-3.63677,0.0384453,1.53465,0.661598,
2,1,0,0,0,68793,0.657955,0.657651,0.179918,104,0.623521,10,0.000118323,-3.74493,0.0348004,1.69538,0.657571,
2,1,0,1,0,68793.8,0.653959,0.653707,0.134846,104,0.623641,10,8.81497e-05,-3.87016,0.0302727,1.94895,0.653647,
2,1,0,1,0,68794.6,0.649964,0.649695,0.0971304,104,0.623728,10,6.31052e-05,-4.01264,0.0261016,2.2604,0.649653,
2,1,0,1,0,68795.4,0.645969,0.645706,0.0648744,104,0.623787,10,4.18898e-05,-4.18793,0.0188798,3.12503,0.645677,
2,1,0,1,0,68796.2,0.641974,0.641701,0.03798,104,0.623822,10,2.43718e-05,-4.42044,0.0129222,4.56578,0.641684,
2,1,0,0,0,68797,0.637979,0.637757,0.0143556,104,0.623836,10,9.15536e-06,-4.84298,0.00458796,12.8598,0.637751,
2,0,0,1,0,68797.7,0.633983,0.63373,-0.00628888,104,0.623833,10,-3.98545e-06,-5.20143,-0.00627102,-9.40836,0.633733,
2,0,0,1,0,68798.5,0.629988,0.629739,-0.0234139,104,0.623816,10,-1.47446e-05,-4.63053,-0.0118321,-4.98645,0.629749,
2,0,0,1,0,68799.3,0.625993,0.625738,-0.035976,104,0.623787,10,-2.25116e-05,-4.44399,-0.0284449,-2.07419,0.625754,
2,0,0,1,0,68800.1,0.621998,0.621707,-0.0476222,104,0.623748,10,-2.96071e-05,-4.32219,-0.0369661,-1.59605,0.621728,
2,0,0,0,0,68800.9,0.618003,0.617723,-0.0571627,104,0.6237,10,-3.53107e-05,-4.24289,-0.0571919,-1.03162,0.617748,
2,0,0,1,0,68801.7,0.614008,0.613722,-0.0668622,104,0.623645,10,-4.10348e-05,-4.17482,-0.0945908,-0.623739,0.613752,
2,0,0,1,0,68802.5,0.610012,0.609682,-0.0740337,104,0.623583,10,-4.5137e-05,-4.13057,-0.096908,-0.608825,0.609714,
2,0,0,1,0,68803.3,0.606017,0.60576,-0.0779945,104,0.623517,10,-4.72459e-05,-4.10794,-0.147543,-0.399883,0.605794,
2,0,0,1,0,68804.1,0.602022,0.601714,-0.0845569,104,0.623445,10,-5.08791e-05,-4.07285,-0.16032,-0.368014,0.601752,
2,0,0,0,0,68804.9,0.598027,0.597692,-0.0886698,104,0.62337,10,-5.29972e-05,-4.05222,-0.189781,-0.310885,0.597731,
2,0,0,1,0,68805.7,0.594032,0.59371,-0.0927039,104,0.623292,10,-5.50393e-05,-4.0329,-0.216888,-0.27203,0.593751,
2,0,0,0,0,68806.5,0.590037,0.589747,-0.0961079,104,0.623211,10,-5.66794e-05,-4.01724,-0.264212,-0.223305,0.58979,
2,0,0,1,0,68807.3,0.586041,0.585698,-0.0987645,104,0.623127,10,-5.78461e-05,-4.0054,-0.426974,-0.138182,0.585741,
2,0,0,1,0,68808.1,0.582046,0.581754,-0.101481,104,0.623041,10,-5.9037e-05,-3.99362,-0.53574,-0.110128,0.581799,
2,0,0,1,0,68808.9,0.578052,0.577772,-0.102232,104,0.622954,10,-5.90669e-05,-3.99041,-0.380873,-0.154907,0.577817,
2,0,0,1,0,68809.7,0.574056,0.573762,-0.104459,104,0.622865,10,-5.99344e-05,-3.98106,-0.718819,-0.082079,0.573808,
2,0,0,0,0,68810.5,0.570061,0.569777,-0.106365,104,0.622775,10,-6.06045e-05,-3.9732,-0.504138,-0.117031,0.569824,
2,0,0,1,0,68811.3,0.566065,0.565744,-0.10726,104,0.622683,10,-6.06816e-05,-3.96956,-0.887739,-0.0664609,0.565791,
2,0,0,1,0,68812.1,0.56207,0.561739,-0.109494,104,0.62259,10,-6.1507e-05,-3.96061,-0.478046,-0.123419,0.561787,
2,0,0,1,0,68812.9,0.558075,0.55778,-0.111027,104,0.622497,10,-6.19287e-05,-3.95457,-1.03199,-0.0571709,0.557829,
2,0,0,1,0,68813.7,0.55408,0.553784,-0.112142,104,0.622402,10,-6.21024e-05,-3.95023,-0.808934,-0.0729355,0.553833,
2,0,0,0,0,68814.5,0.550085,0.549759,-0.112894,104,0.622306,10,-6.20643e-05,-3.94733,-2.92554,-0.0201672,0.549809,
2,0,0,1,0,68815.3,0.54609,0.545796,-0.113886,104,0.622209,10,-6.21584e-05,-3.94353,-0.845185,-0.0698072,0.545846,
2,0,0,1,0,68816.1,0.542094,0.541782,-0.114732,104,0.622112,10,-6.21599e-05,-3.94031,-0.861313,-0.0685,0.541832,
2,0,0,1,0,68816.9,0.538099,0.537789,-0.116643,104,0.622014,10,-6.27291e-05,-3.93314,-2.21808,-0.0265996,0.53784,
2,0,0,1,0,68817.7,0.534104,0.533824,-0.118049,104,0.621915,10,-6.30174e-05,-3.92794,-0.683887,-0.0862715,0.533876,
2,0,0,0,0,68818.5,0.530109,0.529824,-0.117534,104,0.621814,10,-6.22724e-05,-3.92984,-2.41294,-0.0244515,0.529876,
2,0,0,1,0,68819.3,0.526114,0.525785,-0.119645,104,0.621714,10,-6.29078e-05,-3.9221,-0.507567,-0.116241,0.525837,
2,0,0,0,0,68820.1,0.522119,0.521835,-0.119005,104,0.621612,10,-6.2101e-05,-3.92443,-2.23649,-0.0263806,0.521887,
2,0,0,1,0,68820.9,0.518123,0.517831,-0.120703,104,0.62151,10,-6.25036e-05,-3.91828,-4.34925,-0.0135655,0.517884,
2,0,0,1,0,68821.7,0.514128,0.513815,-0.121911,104,0.621407,10,-6.26397e-05,-3.91396,-0.938351,-0.0628762,0.513869,
2,0,0,1,0,68822.5,0.510134,0.509858,-0.122385,104,0.621303,10,-6.23988e-05,-3.91227,-0.750403,-0.0786244,0.509911,
2,0,0,1,0,68823.3,0.506138,0.505877,-0.123507,104,0.621198,10,-6.24795e-05,-3.90831,-61.5039,-0.000959288,0.505931,
2,0,0,0,0,68824.1,0.502143,0.501839,-0.125019,104,0.621092,10,-6.27395e-05,-3.90302,-2.05426,-0.0287208,0.501894,
2,0,0,1,0,68824.9,0.498148,0.49784,-0.125682,104,0.620986,10,-6.25696e-05,-3.90073,-0.475347,-0.12412,0.497895,
2,0,0,1,0,68825.7,0.494152,0.493878,-0.126899,104,0.620879,10,-6.26727e-05,-3.89654,-4.8634,-0.0121314,0.493934,
2,0,0,1,0,68826.5,0.490157,0.489846,-0.127924,104,0.620771,10,-6.26632e-05,-3.89305,-0.5978,-0.0986952,0.489903,
2,0,0,1,0,68827.3,0.486162,0.485837,-0.129494,104,0.620662,10,-6.29131e-05,-3.88775,-1.24096,-0.0475439,0.485894,
2,0,0,0,0,68828.1,0.482167,0.481893,-0.130786,104,0.620551,10,-6.30251e-05,-3.88344,-1.26481,-0.0466473,0.481951,
2,0,0,1,0,68828.9,0.478172,0.477868,-0.131193,104,0.62044,10,-6.26928e-05,-3.88209,-0.621373,-0.094951,0.477926,
2,0,0,0,0,68829.7,0.474177,0.473876,-0.132231,104,0.620328,10,-6.26609e-05,-3.87867,3.49936,0.0168602,0.473934,
2,0,0,1,0,68830.5,0.470181,0.469888,-0.133824,104,0.620215,10,-6.28825e-05,-3.87346,-0.440785,-0.133852,0.469947,
2,0,0,1,0,68831.3,0.466186,0.465869,-0.135258,104,0.6201,10,-6.30124e-05,-3.86884,-0.810016,-0.0728381,0.465928,
2,0,0,1,0,68832.1,0.462192,0.461889,-0.137528,104,0.619985,10,-6.35227e-05,-3.86161,-1.41748,-0.041623,0.46195,
2,0,0,1,0,68832.9,0.458196,0.457885,-0.139308,104,0.619868,10,-6.3787e-05,-3.85602,-0.552959,-0.106699,0.457946,
2,0,0,0,0,68833.7,0.454201,0.453902,-0.140009,104,0.619749,10,-6.35503e-05,-3.85384,-1.13034,-0.0521965,0.453963,
2,0,0,1,0,68834.5,0.450205,0.4499,-0.141456,104,0.61963,10,-6.3641e-05,-3.84938,-0.494409,-0.119334,0.449962,
2,0,0,1,0,68835.3,0.44621,0.445933,-0.142691,104,0.619509,10,-6.36308e-05,-3.8456,-9.33852,-0.00631791,0.445996,
2,0,0,1,0,68836.1,0.442215,0.441945,-0.144347,104,0.619388,10,-6.37934e-05,-3.84059,-0.913062,-0.0646177,0.442009,
2,0,0,1,0,68836.9,0.43822,0.437928,-0.146487,104,0.619264,10,-6.41507e-05,-3.8342,-0.564491,-0.104519,0.437992,
2,0,0,0,0,68837.7,0.434225,0.433945,-0.147707,104,0.61914,10,-6.40969e-05,-3.8306,-0.853184,-0.0691527,0.43401,
2,0,0,1,0,68838.5,0.43023,0.429943,-0.14967,104,0.619014,10,-6.43496e-05,-3.82487,-1.25273,-0.047097,0.430009,
2,0,0,1,0,68839.3,0.426234,0.425915,-0.151383,104,0.618886,10,-6.44765e-05,-3.81992,-0.718029,-0.0821693,0.425982,
2,0,0,1,0,68840.1,0.422239,0.421955,-0.153167,104,0.618758,10,-6.46296e-05,-3.81483,-0.755309,-0.0781137,0.422022,
2,0,0,1,0,68840.9,0.418244,0.417958,-0.155141,104,0.618628,10,-6.48424e-05,-3.80927,-0.754483,-0.0781993,0.418026,
2,0,0,0,0,68841.7,0.414249,0.413967,-0.156222,104,0.618496,10,-6.46706e-05,-3.80626,-1.04091,-0.0566809,0.414036,
2,0,0,1,0,68842.5,0.410254,0.409912,-0.15842,104,0.618362,10,-6.49382e-05,-3.80019,-0.755415,-0.0781028,0.409982,
2,0,0,0,0,68843.3,0.406259,0.405944,-0.160313,104,0.618228,10,-6.50782e-05,-3.79503,-0.615626,-0.0958374,0.406014,
2,0,0,1,0,68844.1,0.402263,0.40195,-0.162628,104,0.618092,10,-6.53684e-05,-3.7888,-0.88908,-0.0663607,0.402022,
2,0,0,1,0,68844.9,0.398268,0.397974,-0.164159,104,0.617954,10,-6.53312e-05,-3.78473,-1.28269,-0.045997,0.398046,
2,0,0,1,0,68845.7,0.394274,0.393993,-0.165502,104,0.617814,10,-6.52064e-05,-3.7812,-0.492289,-0.119848,0.394066,
2,0,0,1,0,68846.5,0.390278,0.389986,-0.168429,104,0.617673,10,-6.56847e-05,-3.77358,-0.991712,-0.0594931,0.39006,
2,0,0,0,0,68847.3,0.386283,0.386001,-0.170749,104,0.61753,10,-6.59092e-05,-3.76764,-1.01522,-0.0581154,0.386076,
2,0,0,1,0,68848.1,0.382287,0.381981,-0.172049,104,0.617386,10,-6.57195e-05,-3.76435,-0.54603,-0.108053,0.382056,
2,0,0,1,0,68848.9,0.378292,0.377949,-0.173698,104,0.617239,10,-6.56488e-05,-3.76021,-1.73201,-0.0340645,0.378025,
2,0,0,1,0,68849.7,0.374297,0.374004,-0.176101,104,0.617092,10,-6.58624e-05,-3.75424,-0.501016,-0.117761,0.374081,
2,0,0,1,0,68850.5,0.370303,0.369979,-0.178194,104,0.616942,10,-6.59279e-05,-3.74911,-1.37415,-0.0429357,0.370057,
2,0,0,0,0,68851.3,0.366307,0.366001,-0.180459,104,0.616791,10,-6.6048e-05,-3.74362,-0.793446,-0.0743592,0.36608,
2,0,0,1,0,68852.1,0.362312,0.362,-0.182502,104,0.616638,10,-6.60657e-05,-3.73873,-0.552591,-0.10677,0.36208,
2,0,0,1,0,68852.9,0.358316,0.357982,-0.184495,104,0.616483,10,-6.60458e-05,-3.73402,-1.00283,-0.0588335,0.358064,
2,0,0,1,0,68853.7,0.354321,0.353985,-0.18638,104,0.616326,10,-6.59759e-05,-3.7296,-0.672558,-0.0877248,0.354067,
2,0,0,1,0,68854.5,0.350327,0.350026,-0.18834,104,0.616168,10,-6.5924e-05,-3.72506,-0.731284,-0.08068,0.350109,
2,0,0,0,0,68855.3,0.346331,0.346045,-0.190994,104,0.616007,10,-6.60926e-05,-3.71898,-2.55499,-0.0230921,0.346129,
2,0,0,1,0,68856.1,0.342336,0.342051,-0.194387,104,0.615845,10,-6.64902e-05,-3.71133,-0.44396,-0.132895,0.342137,
2,0,0,0,0,68856.9,0.338341,0.338046,-0.195118,104,0.615681,10,-6.59589e-05,-3.7097,-2.75465,-0.0214183,0.338132,
2,0,0,1,0,68857.7,0.334345,0.334074,-0.196994,104,0.615515,10,-6.58107e-05,-3.70555,-0.589327,-0.100114,0.334161,
2,0,0,1,0,68858.5,0.33035,0.330053,-0.200977,104,0.615348,10,-6.63331e-05,-3.69685,-0.593611,-0.0993917,0.330141,
2,0,0,1,0,68859.3,0.326355,0.326049,-0.203246,104,0.615177,10,-6.62683e-05,-3.69198,-0.618915,-0.0953281,0.326138,
2,0,0,1,0,68860.1,0.32236,0.322059,-0.206175,104,0.615005,10,-6.64007e-05,-3.68576,-1.77494,-0.0332405,0.32215,
2,0,0,0,0,68860.9,0.318365,0.318037,-0.206935,104,0.614832,10,-6.5813e-05,-3.68417,-0.580816,-0.101581,0.318128,
2,0,0,1,0,68861.7,0.31437,0.314066,-0.211026,104,0.614656,10,-6.62761e-05,-3.67566,-1.90169,-0.031025,0.314159,
2,0,0,1,0,68862.5,0.310374,0.310049,-0.212872,104,0.614478,10,-6.60007e-05,-3.67188,-0.586177,-0.100652,0.310143,
2,0,0,1,0,68863.3,0.306379,0.306058,-0.215059,104,0.614298,10,-6.58205e-05,-3.66744,-0.829873,-0.0710952,0.306153,
2,0,0,1,0,68864.1,0.302385,0.302126,-0.217779,104,0.614116,10,-6.57969e-05,-3.66198,-0.905947,-0.0651252,0.302222,
2,0,0,0,0,68864.9,0.298389,0.29812,-0.219252,104,0.613932,10,-6.53634e-05,-3.65906,-0.506928,-0.116387,0.298216,
2,0,0,1,0,68865.7,0.294394,0.294073,-0.22249,104,0.613746,10,-6.54283e-05,-3.65269,-3.28556,-0.0179574,0.294171,
2,0,0,1,0,68866.5,0.290398,0.290117,-0.224944,104,0.613558,10,-6.52603e-05,-3.64792,-0.829923,-0.0710909,0.290216,
2,0,0,1,0,68867.3,0.286403,0.286087,-0.22726,104,0.613368,10,-6.50161e-05,-3.64348,-0.602994,-0.0978452,0.286187,
2,0,0,1,0,68868.1,0.282408,0.282114,-0.230439,104,0.613176,10,-6.501e-05,-3.63744,-1.10433,-0.0534261,0.282216,
2,0,0,1,0,68868.9,0.278413,0.278124,-0.233005,104,0.612982,10,-6.48042e-05,-3.63264,-0.808777,-0.0729497,0.278227,
2,0,0,1,0,68869.7,0.274418,0.274125,-0.23519,104,0.612785,10,-6.44714e-05,-3.62858,-0.716536,-0.0823406,0.274228,
2,0,0,0,0,68870.5,0.270423,0.270116,-0.238282,104,0.612587,10,-6.43638e-05,-3.62291,-1.51213,-0.0390179,0.270221,
2,0,0,1,0,68871.3,0.266427,0.266129,-0.241243,104,0.612387,10,-6.42018e-05,-3.61754,-0.699792,-0.0843108,0.266235,
2,0,0,1,0,68872.1,0.262432,0.26207,-0.243686,104,0.612184,10,-6.38628e-05,-3.61317,-1.01665,-0.0580337,0.262178,
2,0,0,1,0,68872.9,0.258437,0.25816,-0.24524,104,0.61198,10,-6.33111e-05,-3.61041,-0.822944,-0.0716938,0.258268,
2,0,0,1,0,68873.7,0.254442,0.254119,-0.246959,104,0.611773,10,-6.27571e-05,-3.60737,-0.860982,-0.0685264,0.254228,
2,0,0,0,0,68874.5,0.250447,0.250132,-0.250565,104,0.611564,10,-6.26743e-05,-3.60108,-1.33424,-0.0442199,0.250242,
2,0,0,1,0,68875.3,0.246452,0.24616,-0.252895,104,0.611354,10,-6.22526e-05,-3.59706,-0.64793,-0.0910592,0.246271,
2,0,0,1,0,68876.1,0.242456,0.242115,-0.255586,104,0.611141,10,-6.18812e-05,-3.59246,-0.96697,-0.0610154,0.242228,
2,0,0,1,0,68876.9,0.238461,0.238142,-0.257973,104,0.610927,10,-6.14342e-05,-3.58843,-0.922596,-0.06395,0.238256,
2,0,0,1,0,68877.7,0.234466,0.234162,-0.260217,104,0.610711,10,-6.09328e-05,-3.58466,-1.10427,-0.0534292,0.234276,
2,0,0,0,0,68878.5,0.230471,0.230159,-0.264196,104,0.610492,10,-6.08071e-05,-3.57807,-1.34673,-0.0438099,0.230276,
2,0,0,1,0,68879.3,0.226476,0.226228,-0.265725,104,0.610272,10,-6.01146e-05,-3.57557,-1.06291,-0.055508,0.226345,
2,0,0,0,0,68880.1,0.222481,0.222225,-0.267781,104,0.610049,10,-5.95076e-05,-3.57222,-0.807038,-0.0731069,0.222343,
2,0,0,1,0,68880.8,0.218485,0.21816,-0.270274,104,0.609825,10,-5.89629e-05,-3.5682,-1.51407,-0.0389678,0.218279,
2,0,0,1,0,68881.6,0.21449,0.21416,-0.272629,104,0.609598,10,-5.83862e-05,-3.56443,-0.711675,-0.082903,0.21428,
2,0,0,1,0,68882.4,0.210496,0.21017,-0.27453,104,0.60937,10,-5.76979e-05,-3.56141,-0.79306,-0.0743954,0.210291,
2,0,0,1,0,68883.2,0.2065,0.206156,-0.279145,104,0.609139,10,-5.75474e-05,-3.55417,-1.08273,-0.0544919,0.206279,
2,0,0,0,0,68884,0.202505,0.202149,-0.280489,104,0.608906,10,-5.67006e-05,-3.55208,-0.987528,-0.0597451,0.202272,
2,0,0,1,0,68884.8,0.198509,0.198201,-0.284042,104,0.60867,10,-5.62974e-05,-3.54662,-0.765271,-0.0770969,0.198326,
2,0,0,1,0,68885.6,0.194514,0.194161,-0.286098,104,0.608432,10,-5.55492e-05,-3.54348,-0.856521,-0.0688833,0.194287,
2,0,0,1,0,68886.4,0.19052,0.190166,-0.290153,104,0.608191,10,-5.51774e-05,-3.53737,-0.629745,-0.0936888,0.190294,
2,0,0,1,0,68887.2,0.186524,0.186192,-0.294005,104,0.607947,10,-5.47413e-05,-3.53165,-0.853144,-0.069156,0.186321,
2,0,0,0,0,68888,0.182529,0.182232,-0.298161,104,0.6077,10,-5.43346e-05,-3.52555,-0.548754,-0.107516,0.182363,
2,0,0,1,0,68888.8,0.178534,0.178187,-0.30315,104,0.607449,10,-5.40172e-05,-3.51834,-0.676871,-0.0871658,0.17832,
2,0,0,1,0,68889.6,0.174538,0.174187,-0.308678,104,0.607195,10,-5.37678e-05,-3.51049,-0.513684,-0.114857,0.174323,
2,0,0,1,0,68890.4,0.170543,0.170218,-0.313351,104,0.606936,10,-5.33379e-05,-3.50397,-0.349835,-0.168651,0.170356,
2,0,0,1,0,68891.2,0.166549,0.166169,-0.320923,104,0.606672,10,-5.33272e-05,-3.4936,-0.521584,-0.113117,0.16631,
2,0,0,0,0,68892,0.162553,0.16223,-0.329349,104,0.606403,10,-5.34302e-05,-3.48234,-0.34965,-0.16874,0.162375,
2,0,0,1,0,68892.8,0.158558,0.158226,-0.337589,104,0.606125,10,-5.34153e-05,-3.47161,-0.290537,-0.203072,0.158374,
2,0,0,0,0,68893.6,0.154563,0.154237,-0.350971,104,0.605839,10,-5.41329e-05,-3.45473,-0.2265,-0.260486,0.154392,
2,0,0,1,0,68894.4,0.150567,0.150277,-0.366626,104,0.605542,10,-5.50953e-05,-3.43578,-0.174698,-0.337725,0.150438,
2,0,0,1,0,68895.2,0.146572,0.146239,-0.388138,104,0.60523,10,-5.67609e-05,-3.41101,-0.150471,-0.392102,0.14641,
2,0,0,1,0,68896,0.142578,0.142282,-0.416436,104,0.604899,10,-5.92513e-05,-3.38045,-0.124117,-0.475357,0.142465,
2,0,0,1,0,68896.8,0.138582,0.13823,-0.450431,104,0.604543,10,-6.22628e-05,-3.34637,-0.107234,-0.550197,0.138428,
2,0,0,0,0,68897.6,0.134587,0.134252,-0.492201,104,0.604155,10,-6.60789e-05,-3.30786,-0.106997,-0.551415,0.134468,
2,0,0,1,0,68898.4,0.130591,0.130265,-0.533466,104,0.603735,10,-6.94922e-05,-3.27289,-0.113654,-0.51912,0.1305,
2,0,0,1,0,68899.2,0.126596,0.126299,-0.573237,104,0.60328,10,-7.2399e-05,-3.24167,-0.139506,-0.42292,0.126551,
2,0,0,1,0,68900,0.122602,0.122269,-0.609546,104,0.602795,10,-7.45288e-05,-3.21499,-0.197406,-0.298877,0.122538,
2,0,0,1,0,68900.8,0.118607,0.118286,-0.633476,104,0.602286,10,-7.49313e-05,-3.19827,-0.274796,-0.214705,0.118565,
2,0,0,0,0,68901.6,0.114611,0.114263,-0.647464,104,0.601763,10,-7.39813e-05,-3.18878,-0.709718,-0.0831316,0.114548,
2,0,0,1,0,68902.4,0.110616,0.110308,-0.655047,104,0.601232,10,-7.22569e-05,-3.18373,-1.02701,-0.0574481,0.110596,
2,0,0,1,0,68903.2,0.10662,0.106272,-0.657189,104,0.600696,10,-6.98405e-05,-3.18231,-2.09022,-0.0282267,0.106561,
2,0,0,1,0,68904,0.102625,0.10229,-0.658331,104,0.600159,10,-6.73407e-05,-3.18156,2.13688,0.0276104,0.10258,
2,0,0,1,0,68904.8,0.0986305,0.0983182,-0.656487,104,0.599623,10,-6.45446e-05,-3.18277,5.67411,0.0103981,0.098607,
2,0,0,0,0,68905.6,0.0946351,0.0943361,-0.652187,104,0.599088,10,-6.15248e-05,-3.18563,1.33795,0.0440973,0.0946231,
2,0,0,1,0,68906.4,0.0906399,0.0903203,-0.650093,104,0.598556,10,-5.87166e-05,-3.18702,1.11694,0.0528231,0.0906064,
2,0,0,0,0,68907.2,0.0866448,0.0863268,-0.643822,104,0.598028,10,-5.55791e-05,-3.19123,1.05185,0.0560916,0.0866101,
2,0,0,1,0,68908,0.0826493,0.0822971,-0.638963,104,0.597505,10,-5.25848e-05,-3.19452,0.877313,0.0672508,0.0825782,
2,0,0,1,0,68908.8,0.0786544,0.078343,-0.631407,104,0.596989,10,-4.94664e-05,-3.19969,0.777035,0.0759296,0.0786209,
2,0,0,1,0,68909.6,0.0746596,0.0743521,-0.622582,104,0.596477,10,-4.62903e-05,-3.2058,0.747437,0.0789365,0.0746261,
2,0,0,1,0,68910.4,0.0706641,0.0703115,-0.615279,104,0.595972,10,-4.32612e-05,-3.21093,0.769918,0.0766316,0.0705823,
2,0,0,0,0,68911.2,0.0666689,0.0663605,-0.608242,104,0.595472,10,-4.03632e-05,-3.21592,0.795236,0.0741918,0.0666281,
2,0,0,1,0,68912,0.0626737,0.0623786,-0.597784,104,0.594979,10,-3.7289e-05,-3.22346,0.617745,0.0955087,0.0626417,
2,0,0,1,0,68912.8,0.0586783,0.0583478,-0.591829,104,0.594492,10,-3.45319e-05,-3.2278,0.541522,0.108952,0.0586082,
2,0,0,1,0,68913.6,0.0546835,0.0543483,-0.58186,104,0.594012,10,-3.16231e-05,-3.23518,0.941023,0.0626977,0.0546043,
2,0,0,1,0,68914.4,0.0506886,0.0503699,-0.573383,104,0.593539,10,-2.88812e-05,-3.24156,0.482919,0.122174,0.0506222,
2,0,0,0,0,68915.2,0.046693,0.0463516,-0.564491,104,0.593074,10,-2.61651e-05,-3.24834,0.590076,0.0999871,0.0466,
2,0,0,1,0,68916,0.0426979,0.0423613,-0.555171,104,0.592616,10,-2.35178e-05,-3.25557,0.490498,0.120286,0.0426056,
2,0,0,1,0,68916.8,0.0387022,0.0383536,-0.544973,104,0.592166,10,-2.09017e-05,-3.26363,0.5176,0.113988,0.0385934,
2,0,0,1,0,68917.6,0.0347074,0.0343785,-0.535072,104,0.591724,10,-1.8395e-05,-3.27159,0.603091,0.0978293,0.0346139,
2,0,0,1,0,68918.4,0.0307126,0.0303874,-0.525736,104,0.591289,10,-1.59758e-05,-3.27923,0.607095,0.0971842,0.0306188,
2,0,0,0,0,68919.2,0.0267172,0.0263874,-0.518835,104,0.59086,10,-1.36907e-05,-3.28497,0.506993,0.116372,0.0266157,
2,0,0,1,0,68920,0.022722,0.0224204,-0.511315,104,0.590439,10,-1.14639e-05,-3.29131,0.923182,0.0639094,0.0226454,
2,0,0,0,0,68920.8,0.0187268,0.0184046,-0.505991,104,0.590022,10,-9.31258e-06,-3.29586,0.773445,0.076282,0.0186273,
2,0,0,1,0,68921.6,0.0147313,0.014415,-0.503433,104,0.589609,10,-7.25697e-06,-3.29806,1.40809,0.0419007,0.0146365,
2,0,0,1,0,68922.4,0.0107365,0.0104326,-0.498133,104,0.5892,10,-5.19683e-06,-3.30265,2.84064,0.0207699,0.0106518,
2,0,0,1,0,68923.2,0.00674163,0.00642993,-0.497156,104,0.588791,10,-3.19668e-06,-3.30351,6.41928,0.00919106,0.00664868,
2,0,0,1,0,68924,0.00274612,0.00243173,-0.498059,104,0.588384,10,-1.21115e-06,-3.30272,-1.68598,-0.0349944,0.00265088,
2,0,0,0,0,68924.5,0.000274105,-7.36095e-05,-0.499796,104,0.588129,10,3.67897e-08,-3.30121, , ,0.000146301,