File: Figure_codes/Fig_3-5/workspace_calculate_alpha_eff/20221101_1-115_002_TrumpetPlot_ParaChange_18_CV_C01_5.csv
mode,ox/red,error,control changes,counter inc.,time/s,control/V,Ewe/V,<I>/mA,cycle number,(Q-Qo)/C,I Range,P/W,log(|I|),Tafel slope mV/dec,alpha_eff,E-IR/V,
2,1,0,0,0,7408.43,2.44065e-05,-0.000306236,0.0786949,6,0.0000000E+000,10,-2.40992e-08,-4.10405, , ,-0.000369192,
2,1,0,0,0,7409.19,0.00379485,0.00353562,0.227584,6,0.000172299,10,8.04649e-07,-3.64286,0.0906517,0.650843,0.00335355,
2,1,0,1,0,7409.98,0.00779002,0.0075079,0.24304,6,0.000377014,10,1.82472e-06,-3.61432,0.1526,0.386631,0.00731347,
2,1,0,0,0,7410.78,0.0117852,0.0114685,0.252338,6,0.000592249,10,2.89395e-06,-3.59802,0.240102,0.245729,0.0112666,
2,1,0,1,0,7411.58,0.0157806,0.0155058,0.262635,6,0.000814941,10,4.07237e-06,-3.58065,0.319993,0.184379,0.0152957,
2,1,0,1,0,7412.38,0.0197754,0.0194842,0.269932,6,0.00104379,10,5.25941e-06,-3.56874,0.347547,0.169761,0.0192682,
2,1,0,1,0,7413.18,0.0237704,0.0235156,0.276736,6,0.00127908,10,6.50761e-06,-3.55794,0.314664,0.187502,0.0232942,
2,1,0,1,0,7413.98,0.0277659,0.0274647,0.286,6,0.00152013,10,7.85492e-06,-3.54363,0.341666,0.172683,0.0272359,
2,1,0,0,0,7414.78,0.0317611,0.031471,0.292855,6,0.00176736,10,9.21643e-06,-3.53335,0.286783,0.20573,0.0312367,
2,1,0,1,0,7415.58,0.0357567,0.0355009,0.304061,6,0.002022,10,1.07945e-05,-3.51704,0.401907,0.1468,0.0352577,
2,1,0,1,0,7416.38,0.0397516,0.0395112,0.314173,6,0.00228443,10,1.24134e-05,-3.50283,0.183707,0.321163,0.0392599,
2,1,0,1,0,7417.18,0.0437465,0.0434206,0.324779,6,0.00255646,10,1.41021e-05,-3.48841,0.222315,0.26539,0.0431608,
2,1,0,1,0,7417.97,0.0477413,0.0474295,0.33954,6,0.00283888,10,1.61042e-05,-3.46911,0.241108,0.244704,0.0471579,
2,1,0,0,0,7418.77,0.0517369,0.051431,0.35598,6,0.00313316,10,1.83084e-05,-3.44857,0.167208,0.352855,0.0511462,
2,1,0,1,0,7419.57,0.0557321,0.055434,0.372421,6,0.00344117,10,2.06448e-05,-3.42897,0.229544,0.257031,0.0551361,
2,1,0,1,0,7420.37,0.0597277,0.0594398,0.391131,6,0.0037632,10,2.32487e-05,-3.40768,0.175527,0.336131,0.0591269,
2,1,0,1,0,7421.17,0.0637226,0.0634752,0.407354,6,0.00410019,10,2.58569e-05,-3.39003,0.243526,0.242274,0.0631493,
2,1,0,1,0,7421.97,0.0677174,0.0674005,0.428189,6,0.00445226,10,2.88602e-05,-3.36836,0.237148,0.24879,0.0670579,
2,1,0,0,0,7422.77,0.0717128,0.0714144,0.446271,6,0.00481796,10,3.18702e-05,-3.3504,0.202358,0.291562,0.0710573,
2,1,0,1,0,7423.57,0.075708,0.0754259,0.460608,6,0.0051978,10,3.47418e-05,-3.33667,0.253136,0.233076,0.0750574,
2,1,0,0,0,7424.37,0.0797031,0.0794279,0.477644,6,0.00559002,10,3.79383e-05,-3.3209,0.291055,0.202711,0.0790457,
2,1,0,1,0,7425.17,0.0836986,0.0833919,0.491106,6,0.00599408,10,4.09543e-05,-3.30883,0.307486,0.191879,0.0829991,
2,1,0,1,0,7425.97,0.0876935,0.0873693,0.506681,6,0.00640949,10,4.42683e-05,-3.29527,0.36534,0.161494,0.086964,
2,1,0,1,0,7426.76,0.0916883,0.0913667,0.522139,6,0.00683537,10,4.77061e-05,-3.28221,0.327304,0.18026,0.090949,
2,1,0,1,0,7427.56,0.0956838,0.0953774,0.533883,6,0.00727336,10,5.09204e-05,-3.27255,0.283402,0.208185,0.0949503,
2,1,0,0,0,7428.36,0.099679,0.0994229,0.553491,6,0.00772499,10,5.50297e-05,-3.25689,0.300332,0.196449,0.0989801,
2,1,0,1,0,7429.16,0.103674,0.103391,0.577295,6,0.0081926,10,5.96871e-05,-3.2386,0.177918,0.331614,0.102929,
2,1,0,1,0,7429.96,0.10767,0.107351,0.604655,6,0.00868267,10,6.49101e-05,-3.21849,0.163124,0.361688,0.106867,
2,1,0,1,0,7430.76,0.111664,0.111339,0.642884,6,0.00919863,10,7.15778e-05,-3.19187,0.152917,0.385831,0.110824,
2,1,0,1,0,7431.56,0.115659,0.115387,0.683424,6,0.00974478,10,7.88581e-05,-3.16531,0.152214,0.387612,0.11484,
2,1,0,0,0,7432.36,0.119655,0.119329,0.723621,6,0.0103248,10,8.63488e-05,-3.14049,0.170451,0.346141,0.11875,
2,1,0,1,0,7433.16,0.12365,0.123408,0.763703,6,0.0109363,10,9.42472e-05,-3.11708,0.163171,0.361583,0.122797,
2,1,0,1,0,7433.96,0.127646,0.127348,0.801739,6,0.0115797,10,0.0001021,-3.09597,0.220569,0.26749,0.126707,
2,1,0,1,0,7434.75,0.131641,0.131344,0.833786,6,0.0122514,10,0.000109513,-3.07895,0.320137,0.184296,0.130677,
2,1,0,1,0,7435.55,0.135635,0.13536,0.85969,6,0.0129456,10,0.000116368,-3.06566,0.31382,0.188006,0.134672,
2,1,0,0,0,7436.35,0.139631,0.139369,0.866404,6,0.0136548,10,0.00012075,-3.06228,-7.28636,-0.00809732,0.138676,
2,1,0,1,0,7437.15,0.143626,0.14335,0.857981,6,0.0143634,10,0.000122992,-3.06652,-0.337914,-0.174601,0.142664,
2,1,0,0,0,7437.95,0.147621,0.147312,0.81849,6,0.0150517,10,0.000120573,-3.08699,-0.138805,-0.425056,0.146657,
2,1,0,1,0,7438.75,0.151617,0.151349,0.753062,6,0.0156985,10,0.000113975,-3.12317,-0.0934443,-0.631392,0.150747,
2,1,0,1,0,7439.55,0.155612,0.155301,0.674439,6,0.0162853,10,0.000104741,-3.17106,-0.0753197,-0.783327,0.154762,
2,1,0,1,0,7440.35,0.159606,0.159276,0.591356,6,0.0168073,10,9.4189e-05,-3.22815,-0.0736954,-0.800592,0.158803,
2,1,0,1,0,7441.15,0.163602,0.163308,0.52285,6,0.0172689,10,8.53856e-05,-3.28162,-0.0748614,-0.788123,0.16289,
2,1,0,0,0,7441.95,0.167597,0.167274,0.469142,6,0.0176808,10,7.84753e-05,-3.3287,-0.0991123,-0.595284,0.166899,
2,1,0,1,0,7442.75,0.171592,0.171291,0.426211,6,0.0180554,10,7.30061e-05,-3.37038,-0.110443,-0.53421,0.17095,
2,1,0,1,0,7443.54,0.175588,0.175297,0.398707,6,0.0184019,10,6.98923e-05,-3.39935,-0.140995,-0.418455,0.174978,
2,1,0,1,0,7444.34,0.179582,0.179275,0.374309,6,0.0187275,10,6.71042e-05,-3.42677,-0.200138,-0.294796,0.178975,
2,1,0,1,0,7445.14,0.183577,0.183261,0.359561,6,0.0190376,10,6.58934e-05,-3.44423,-0.217558,-0.271192,0.182973,
2,1,0,0,0,7445.94,0.187573,0.187274,0.345671,6,0.0193353,10,6.47353e-05,-3.46134,-0.255305,-0.231096,0.186998,
2,1,0,1,0,7446.74,0.191568,0.191229,0.335856,6,0.0196234,10,6.42254e-05,-3.47385,-0.340479,-0.173286,0.19096,
2,1,0,0,0,7447.54,0.195563,0.195265,0.326032,6,0.0199043,10,6.36625e-05,-3.48674,-0.333288,-0.177024,0.195004,
2,1,0,1,0,7448.34,0.199559,0.199252,0.321076,6,0.0201785,10,6.39751e-05,-3.49339,-0.47099,-0.125268,0.198995,
2,1,0,1,0,7449.14,0.203553,0.20326,0.311196,6,0.0204477,10,6.32536e-05,-3.50697,-0.548421,-0.107581,0.203011,
2,1,0,1,0,7449.94,0.207548,0.20727,0.308107,6,0.0207128,10,6.38612e-05,-3.5113,-0.926057,-0.063711,0.207023,
2,1,0,1,0,7450.74,0.211544,0.21124,0.303981,6,0.0209741,10,6.42129e-05,-3.51715,-0.602729,-0.0978881,0.210996,
2,1,0,0,0,7451.53,0.215539,0.215272,0.300724,6,0.0212326,10,6.47376e-05,-3.52183,-1.04467,-0.0564774,0.215032,
2,1,0,1,0,7452.33,0.219535,0.219265,0.298425,6,0.0214879,10,6.54341e-05,-3.52517,-0.772245,-0.0764006,0.219026,
2,1,0,1,0,7453.13,0.223529,0.223269,0.294908,6,0.0217409,10,6.58438e-05,-3.53031,-0.715328,-0.0824796,0.223033,
2,1,0,1,0,7453.93,0.227524,0.227282,0.292867,6,0.0219916,10,6.65635e-05,-3.53333,-1.15454,-0.0511027,0.227048,
2,1,0,1,0,7454.73,0.23152,0.231264,0.288967,6,0.0222404,10,6.68277e-05,-3.53915,-1.57925,-0.0373595,0.231033,
2,1,0,0,0,7455.53,0.235515,0.235211,0.286038,6,0.0224878,10,6.72794e-05,-3.54358,-0.847099,-0.0696494,0.234982,
2,1,0,1,0,7456.33,0.23951,0.239214,0.286147,6,0.0227335,10,6.84505e-05,-3.54341,7.2936,0.00808929,0.238985,
2,1,0,1,0,7457.13,0.243506,0.243202,0.283444,6,0.0229776,10,6.89342e-05,-3.54753,-1.32191,-0.0446325,0.242975,
2,1,0,1,0,7457.93,0.2475,0.247196,0.282754,6,0.0232207,10,6.98957e-05,-3.54859,-2.00309,-0.0294545,0.24697,
2,1,0,1,0,7458.73,0.251495,0.251226,0.281835,6,0.0234622,10,7.08044e-05,-3.55,-1.45992,-0.0404132,0.251001,
2,1,0,0,0,7459.52,0.255491,0.255189,0.280539,6,0.0237026,10,7.15906e-05,-3.55201,-1.36738,-0.0431482,0.254965,
2,1,0,1,0,7460.32,0.259486,0.259272,0.278282,6,0.0239423,10,7.21507e-05,-3.55551,-1.35248,-0.0436234,0.259049,
2,1,0,0,0,7461.12,0.263481,0.263177,0.278615,6,0.0241805,10,7.3325e-05,-3.555,3.02392,0.0195111,0.262954,
2,1,0,1,0,7461.92,0.267477,0.267194,0.273857,6,0.0244182,10,7.31731e-05,-3.56248,-1.28357,-0.0459657,0.266975,
2,1,0,1,0,7462.72,0.271471,0.271162,0.275124,6,0.024655,10,7.46032e-05,-3.56047,-1.39543,-0.0422808,0.270942,
2,1,0,1,0,7463.52,0.275466,0.275202,0.273308,6,0.0248908,10,7.5215e-05,-3.56335,-6.06515,-0.0097277,0.274983,
2,1,0,1,0,7464.32,0.279462,0.279172,0.273088,6,0.0251262,10,7.62386e-05,-3.5637,-2.31211,-0.0255178,0.278954,
2,1,0,0,0,7465.12,0.283457,0.283162,0.272564,6,0.0253606,10,7.71796e-05,-3.56453,-1.91674,-0.0307814,0.282944,
2,1,0,1,0,7465.92,0.287452,0.287155,0.2713,6,0.0255943,10,7.79051e-05,-3.56655,-1.81593,-0.0324902,0.286938,
2,1,0,1,0,7466.72,0.291448,0.291184,0.268687,6,0.0258274,10,7.82372e-05,-3.57075,-1.78439,-0.0330646,0.290969,
2,1,0,1,0,7467.52,0.295442,0.295203,0.269774,6,0.0260595,10,7.96383e-05,-3.569,-3.73304,-0.0158048,0.294988,
2,1,0,1,0,7468.31,0.299437,0.29916,0.268059,6,0.0262912,10,8.01923e-05,-3.57177,-2.05023,-0.0287773,0.298945,
2,1,0,0,0,7469.11,0.303433,0.303174,0.2684,6,0.0265219,10,8.13719e-05,-3.57122,2.55187,0.0231203,0.302959,
2,1,0,1,0,7469.91,0.307428,0.307111,0.265389,6,0.0267519,10,8.1504e-05,-3.57612,-1.94431,-0.030345,0.306899,
2,1,0,1,0,7470.71,0.311424,0.311138,0.265329,6,0.0269814,10,8.25539e-05,-3.57622,-57.8762,-0.00101942,0.310925,
2,1,0,1,0,7471.51,0.315418,0.315118,0.264909,6,0.0272097,10,8.34777e-05,-3.5769,-1.01538,-0.0581063,0.314906,
2,1,0,1,0,7472.31,0.319413,0.319148,0.264628,6,0.0274374,10,8.44555e-05,-3.57736,-5.67891,-0.0103893,0.318937,
2,1,0,0,0,7473.11,0.323409,0.323153,0.263715,6,0.0276647,10,8.52203e-05,-3.57886,-11.0703,-0.00532958,0.322942,
2,1,0,1,0,7473.91,0.327404,0.327126,0.262458,6,0.027891,10,8.58569e-05,-3.58094,-4.30165,-0.0137157,0.326916,
2,1,0,0,0,7474.71,0.331399,0.331109,0.259859,6,0.0281166,10,8.60417e-05,-3.58526,-0.936813,-0.0629795,0.330901,
2,1,0,1,0,7475.51,0.335395,0.335087,0.260403,6,0.0283416,10,8.72576e-05,-3.58435,-2.62985,-0.0224348,0.334878,
2,1,0,1,0,7476.3,0.339389,0.339135,0.260127,6,0.0285661,10,8.82184e-05,-3.58481,2.0491,0.0287931,0.338927,
2,1,0,1,0,7477.1,0.343384,0.343097,0.259036,6,0.0287902,10,8.88744e-05,-3.58664,-1.20602,-0.0489213,0.342889,
2,1,0,1,0,7477.9,0.34738,0.347078,0.259605,6,0.0290134,10,9.0103e-05,-3.58569,-2.97446,-0.0198355,0.34687,
2,1,0,0,0,7478.7,0.351375,0.351074,0.257342,6,0.0292359,10,9.03461e-05,-3.58949,-1.89405,-0.0311502,0.350868,
2,1,0,1,0,7479.5,0.35537,0.355065,0.25672,6,0.0294578,10,9.11523e-05,-3.59054,-1.78441,-0.0330641,0.354859,
2,1,0,1,0,7480.3,0.359366,0.35908,0.256623,6,0.0296792,10,9.2148e-05,-3.5907,3.46776,0.0170139,0.358874,
2,1,0,1,0,7481.1,0.36336,0.363096,0.254758,6,0.0299003,10,9.25015e-05,-3.59387,-3.40006,-0.0173526,0.362892,
2,1,0,1,0,7481.9,0.367355,0.367068,0.254183,6,0.0301205,10,9.33022e-05,-3.59485,-2.76722,-0.021321,0.366865,
2,1,0,0,0,7482.7,0.371351,0.371083,0.254724,6,0.03034,10,9.45238e-05,-3.59393,-2.6578,-0.0221988,0.370879,
2,1,0,1,0,7483.5,0.375346,0.375089,0.252539,6,0.0305591,10,9.47247e-05,-3.59767,-10.9112,-0.00540728,0.374887,
2,1,0,1,0,7484.29,0.379342,0.379025,0.253255,6,0.0307777,10,9.599e-05,-3.59644,-1.75071,-0.0337005,0.378822,
2,1,0,1,0,7485.09,0.383336,0.383075,0.253533,6,0.0309959,10,9.71221e-05,-3.59597,13.9995,0.00421445,0.382872,
2,1,0,1,0,7485.89,0.387331,0.387065,0.250898,6,0.0312136,10,9.71138e-05,-3.6005,-2.09832,-0.0281177,0.386865,
2,1,0,0,0,7486.69,0.391327,0.391008,0.252192,6,0.0314306,10,9.8609e-05,-3.59827,-4.21345,-0.0140028,0.390806,
2,1,0,1,0,7487.49,0.395322,0.395062,0.250223,6,0.0316473,10,9.88537e-05,-3.60167,-35.1557,-0.00167825,0.394862,
2,1,0,0,0,7488.29,0.399317,0.399016,0.249031,6,0.0318638,10,9.93673e-05,-3.60375,3.75544,0.0157105,0.398817,
2,1,0,1,0,7489.09,0.403313,0.402989,0.250546,6,0.0320799,10,0.000100967,-3.60111,-2.06905,-0.0285155,0.402789,
2,1,0,1,0,7489.89,0.407307,0.407017,0.249848,6,0.0322958,10,0.000101692,-3.60232,-28.1845,-0.00209335,0.406817,
2,1,0,1,0,7490.69,0.411302,0.411022,0.249908,6,0.0325114,10,0.000102718,-3.60222,15.2718,0.00386334,0.410822,
2,1,0,1,0,7491.49,0.415298,0.415044,0.248685,6,0.0327268,10,0.000103215,-3.60435,-0.889961,-0.066295,0.414845,
2,1,0,0,0,7492.29,0.419293,0.419009,0.248526,6,0.0329421,10,0.000104135,-3.60463,2.64521,0.0223045,0.41881,
2,1,0,1,0,7493.08,0.423288,0.42299,0.247219,6,0.0331567,10,0.000104571,-3.60692,1.80681,0.0326542,0.422792,
2,1,0,1,0,7493.88,0.427283,0.427041,0.248385,6,0.0333713,10,0.000106071,-3.60487,-1.49464,-0.0394744,0.426842,
2,1,0,1,0,7494.68,0.431278,0.431017,0.248813,6,0.0335857,10,0.000107243,-3.60413,3.21554,0.0183484,0.430818,
2,1,0,1,0,7495.48,0.435273,0.434962,0.24814,6,0.0337999,10,0.000107931,-3.6053,1170.37,5.04114e-05,0.434763,
2,1,0,0,0,7496.28,0.439269,0.438992,0.248922,6,0.0340147,10,0.000109275,-3.60394,-3.51513,-0.0167846,0.438792,
2,1,0,1,0,7497.08,0.443264,0.443006,0.247461,6,0.034229,10,0.000109627,-3.60649,-2.76028,-0.0213746,0.442808,
2,1,0,0,0,7497.88,0.447259,0.446982,0.247771,6,0.0344432,10,0.000110749,-3.60595,2.58798,0.0227977,0.446783,
2,1,0,1,0,7498.68,0.451254,0.450994,0.248936,6,0.0346578,10,0.000112269,-3.60391,13.1645,0.00448174,0.450795,
2,1,0,1,0,7499.48,0.455249,0.454961,0.247923,6,0.0348724,10,0.000112795,-3.60568,1.87925,0.0313955,0.454763,
2,1,0,1,0,7500.28,0.459244,0.458973,0.2471,6,0.0350873,10,0.000113412,-3.60713,3.21207,0.0183682,0.458776,
2,1,0,1,0,7501.07,0.46324,0.462951,0.248649,6,0.0353024,10,0.000115113,-3.60441,-4.49195,-0.0131346,0.462753,
2,1,0,0,0,7501.87,0.467235,0.466919,0.249547,6,0.0355173,10,0.000116519,-3.60285,-4.13635,-0.0142638,0.46672,
2,1,0,1,0,7502.67,0.471231,0.470948,0.249231,6,0.0357326,10,0.000117375,-3.6034,2.0246,0.0291415,0.470749,
2,1,0,1,0,7503.47,0.475225,0.474945,0.250426,6,0.0359481,10,0.000118938,-3.60132,-35.6424,-0.00165533,0.474744,
2,1,0,1,0,7504.27,0.47922,0.478958,0.250717,6,0.036164,10,0.000120083,-3.60082,1.71192,0.0344642,0.478757,
2,1,0,1,0,7505.07,0.483216,0.482936,0.251282,6,0.0363807,10,0.000121353,-3.59984,-2.17873,-0.02708,0.482735,
2,1,0,0,0,7505.87,0.487211,0.486893,0.252139,6,0.0365976,10,0.000122765,-3.59836,1.33708,0.044126,0.486692,
2,1,0,1,0,7506.67,0.491206,0.49094,0.252096,6,0.0368153,10,0.000123764,-3.59843,1.07308,0.054982,0.490738,
2,1,0,1,0,7507.47,0.495201,0.494911,0.253676,6,0.0370339,10,0.000125547,-3.59572,10.9157,0.00540508,0.494708,
2,1,0,1,0,7508.27,0.499196,0.498922,0.255224,6,0.0372531,10,0.000127337,-3.59308,1.03041,0.0572587,0.498717,
2,1,0,1,0,7509.06,0.503191,0.502901,0.255702,6,0.0374735,10,0.000128593,-3.59227,5.45513,0.0108155,0.502697,
2,1,0,0,0,7509.86,0.507187,0.506921,0.256678,6,0.0376948,10,0.000130115,-3.59061,1.93527,0.0304867,0.506716,
2,1,0,1,0,7510.66,0.511182,0.510871,0.259026,6,0.0379172,10,0.000132329,-3.58666,1.2432,0.0474584,0.510664,
2,1,0,0,0,7511.46,0.515177,0.514916,0.261623,6,0.0381411,10,0.000134714,-3.58232,2.02098,0.0291937,0.514706,
2,1,0,1,0,7512.26,0.519173,0.518877,0.262566,6,0.0383658,10,0.000136239,-3.58076,0.948838,0.0621813,0.518666,
2,1,0,1,0,7513.06,0.523167,0.522894,0.263263,6,0.038592,10,0.000137659,-3.57961,1.98628,0.0297037,0.522683,
2,1,0,1,0,7513.86,0.527162,0.526866,0.265736,6,0.0388199,10,0.000140007,-3.57555,0.942719,0.0625849,0.526653,
2,1,0,1,0,7514.66,0.531158,0.530872,0.269915,6,0.0390494,10,0.00014329,-3.56877,1.1171,0.0528155,0.530656,
2,1,0,0,0,7515.46,0.535153,0.534896,0.271186,6,0.0392813,10,0.000145056,-3.56673,0.836968,0.0704925,0.534679,
2,1,0,1,0,7516.26,0.539148,0.538899,0.275168,6,0.0395155,10,0.000148287,-3.5604,0.687854,0.085774,0.538679,
2,1,0,1,0,7517.06,0.543143,0.542867,0.279546,6,0.0397521,10,0.000151756,-3.55355,1.05163,0.0561032,0.542643,
2,1,0,1,0,7517.85,0.547138,0.546894,0.282286,6,0.0399916,10,0.000154381,-3.54931,0.641354,0.0919928,0.546668,
2,1,0,1,0,7518.65,0.551133,0.550868,0.286833,6,0.040234,10,0.000158007,-3.54237,0.442992,0.133185,0.550639,
2,1,0,0,0,7519.45,0.555129,0.554841,0.290664,6,0.0404802,10,0.000161272,-3.53661,0.613926,0.0961028,0.554608,
2,1,0,1,0,7520.25,0.559124,0.558852,0.296031,6,0.0407302,10,0.000165438,-3.52866,0.460313,0.128174,0.558616,
2,1,0,1,0,7521.05,0.56312,0.562865,0.302589,6,0.0409845,10,0.000170317,-3.51915,0.458557,0.128664,0.562623,
2,1,0,1,0,7521.85,0.567114,0.566832,0.308843,6,0.0412441,10,0.000175062,-3.51026,0.453685,0.130046,0.566585,
2,1,0,1,0,7522.65,0.571109,0.57082,0.317747,6,0.041509,10,0.000181376,-3.49792,0.311217,0.189579,0.570566,
2,1,0,0,0,7523.45,0.575105,0.574839,0.325006,6,0.0417802,10,0.000186826,-3.48811,0.30848,0.19126,0.574579,
2,1,0,1,0,7524.25,0.5791,0.578833,0.333978,6,0.0420588,10,0.000193317,-3.47628,0.314004,0.187895,0.578566,
2,1,0,0,0,7525.05,0.583095,0.582801,0.345425,6,0.0423455,10,0.000201314,-3.46165,0.268897,0.219414,0.582524,
2,1,0,1,0,7525.84,0.58709,0.586803,0.356736,6,0.0426419,10,0.000209334,-3.44765,0.241182,0.244628,0.586518,
2,1,0,1,0,7526.64,0.591085,0.590818,0.37325,6,0.0429493,10,0.000220523,-3.428,0.235316,0.250726,0.59052,
2,1,0,1,0,7527.44,0.59508,0.594811,0.389449,6,0.0432693,10,0.000231648,-3.40955,0.205756,0.286748,0.594499,
2,1,0,1,0,7528.24,0.599076,0.598791,0.410101,6,0.0436042,10,0.000245565,-3.38711,0.158819,0.371493,0.598463,
2,1,0,0,0,7529.04,0.603071,0.602806,0.433785,6,0.0439563,10,0.000261488,-3.36273,0.158875,0.37136,0.602459,
2,1,0,1,0,7529.84,0.607066,0.606769,0.459833,6,0.0443283,10,0.000279012,-3.3374,0.145246,0.406207,0.606401,
2,1,0,1,0,7530.64,0.611061,0.610819,0.492134,6,0.044724,10,0.000300605,-3.30792,0.130901,0.450722,0.610425,
2,1,0,1,0,7531.44,0.615056,0.614805,0.52918,6,0.0451469,10,0.000325342,-3.2764,0.122916,0.480003,0.614382,
2,1,0,1,0,7532.24,0.619051,0.61884,0.571221,6,0.045602,10,0.000353494,-3.2432,0.107313,0.549794,0.618383,
2,1,0,0,0,7533.04,0.623047,0.622795,0.624706,6,0.0460951,10,0.000389064,-3.20432,0.0990818,0.595468,0.622295,
2,1,0,1,0,7533.84,0.627042,0.626809,0.685958,6,0.046634,10,0.000429965,-3.1637,0.0935038,0.63099,0.62626,
2,1,0,1,0,7534.63,0.631037,0.630809,0.760735,6,0.0472268,10,0.000479879,-3.11877,0.0865819,0.681436,0.6302,
2,1,0,1,0,7535.43,0.635032,0.634761,0.847752,6,0.0478832,10,0.000538119,-3.07173,0.0808199,0.730019,0.634082,
2,1,0,1,0,7536.23,0.639027,0.638789,0.950533,6,0.0486154,10,0.00060719,-3.02203,0.0753765,0.782737,0.638028,
2,1,0,1,0,7537.03,0.643022,0.642769,1.07222,6,0.0494374,10,0.000689193,-2.96971,0.0729897,0.808334,0.641912,
2,1,0,1,0,7537.83,0.647018,0.646742,1.21679,6,0.050366,10,0.00078695,-2.91478,0.069203,0.852564,0.645769,
2,1,0,0,0,7538.63,0.651013,0.650754,1.3881,6,0.0514218,10,0.000903309,-2.85758,0.0653127,0.903347,0.649643,
2,1,0,1,0,7539.43,0.655008,0.654765,1.59307,6,0.0526274,10,0.00104309,-2.79776,0.0629648,0.937032,0.65349,
2,1,0,1,0,7540.23,0.659003,0.658762,1.83316,6,0.05401,10,0.00120761,-2.7368,0.061337,0.961899,0.657295,
2,1,0,1,0,7541.03,0.662998,0.662724,2.11663,6,0.0556013,10,0.00140274,-2.67435,0.0601552,0.980797,0.661031,
2,1,0,1,0,7541.83,0.666994,0.666743,2.44416,6,0.0574356,10,0.00162962,-2.61187,0.0596948,0.988361,0.664787,
2,1,0,0,0,7542.62,0.670989,0.670754,2.82201,6,0.0595519,10,0.00189287,-2.54944,0.0587381,1.00446,0.668496,
2,1,0,1,0,7543.42,0.674984,0.674722,3.25665,6,0.0619924,10,0.00219733,-2.48723,0.0579952,1.01733,0.672117,
2,1,0,1,0,7544.22,0.67898,0.678711,3.7516,6,0.0648047,10,0.00254625,-2.42578,0.0587027,1.00506,0.675709,
2,1,0,1,0,7545.02,0.682974,0.682721,4.31033,6,0.0680386,10,0.00294275,-2.36549,0.0595815,0.99024,0.679272,
2,1,0,1,0,7545.82,0.686969,0.686694,4.9359,6,0.0717448,10,0.00338945,-2.30663,0.0595319,0.991066,0.682745,
2,1,0,0,0,7546.62,0.690965,0.690687,5.62498,6,0.0759775,10,0.0038851,-2.24988,0.0615703,0.958254,0.686187,
2,1,0,1,0,7547.42,0.69496,0.694722,6.3825,6,0.0807878,10,0.00443407,-2.19501,0.0631882,0.933718,0.689616,
2,1,0,0,0,7548.22,0.698955,0.698705,7.1985,6,0.086226,10,0.00502963,-2.14276,0.0634838,0.929371,0.692947,
2,1,0,1,0,7549.02,0.70295,0.702681,8.07403,6,0.0923425,10,0.00567347,-2.09291,0.0681283,0.866013,0.696222,
2,1,0,1,0,7549.82,0.706945,0.706675,9.00511,6,0.0991799,10,0.00636369,-2.04551,0.0711317,0.829447,0.699471,
2,1,0,1,0,7550.61,0.71094,0.710682,9.97879,6,0.106779,10,0.00709175,-2.00092,0.0736768,0.800795,0.702699,
2,1,0,1,0,7551.41,0.714936,0.714661,10.9931,6,0.115175,10,0.00785631,-1.95888,0.0768106,0.768123,0.705867,
2,1,0,0,0,7552.21,0.718931,0.718672,12.046,6,0.124394,10,0.00865709,-1.91916,0.0815774,0.72324,0.709035,
2,1,0,1,0,7553.01,0.722927,0.722653,13.1294,6,0.134469,10,0.00948803,-1.88175,0.0850531,0.693685,0.712149,
2,1,0,1,0,7553.81,0.726921,0.726666,14.2504,6,0.145423,10,0.0103553,-1.84617,0.0878953,0.671253,0.715266,
2,1,0,1,0,7554.61,0.730916,0.730655,15.419,6,0.15729,10,0.0112659,-1.81194,0.0913913,0.645576,0.71832,
2,1,0,1,0,7555.41,0.734911,0.734663,16.6397,6,0.170112,10,0.0122246,-1.77885,0.0913867,0.645608,0.721351,
2,1,0,0,0,7556.21,0.738907,0.738675,17.9206,6,0.183934,10,0.0132375,-1.74665,0.0926859,0.636558,0.724339,
2,1,0,1,0,7557.01,0.742902,0.742628,19.2693,6,0.198805,10,0.0143099,-1.71514,0.0918523,0.642336,0.727213,
2,1,0,1,0,7557.81,0.746897,0.746692,20.7213,6,0.214795,10,0.0154725,-1.68358,0.0918133,0.642608,0.730115,
2,1,0,1,0,7558.61,0.750892,0.750591,22.1976,6,0.231956,10,0.0166613,-1.65369,0.0941953,0.626358,0.732833,
2,1,0,1,0,7559.4,0.754887,0.754632,23.7398,6,0.250319,10,0.0179148,-1.62452,0.0950849,0.620498,0.73564,
2,1,0,0,0,7560.2,0.758883,0.75866,24.4337,6,0.26968,10,0.0185369,-1.61201,0.263729,0.223715,0.739113,
2,1,0,1,0,7561,0.762878,0.762651,26.0741,6,0.289887,10,0.0198855,-1.58379,0.103283,0.571248,0.741792,
2,1,0,0,0,7561.8,0.766873,0.766616,27.6571,6,0.31137,10,0.0212024,-1.55819,0.109484,0.538891,0.74449,
2,1,0,1,0,7562.6,0.770868,0.770589,29.2637,6,0.334133,10,0.0225503,-1.53367,0.114266,0.516339,0.747178,
2,1,0,1,0,7563.4,0.774863,0.774621,30.8599,6,0.358169,10,0.0239048,-1.5106,0.118073,0.499691,0.749933,
2,1,0,1,0,7564.2,0.778858,0.778617,32.5098,6,0.383501,10,0.0253127,-1.48799,0.111055,0.531267,0.752609,
2,1,0,1,0,7565,0.782854,0.782563,34.329,6,0.41022,10,0.0268646,-1.46434,0.120132,0.491127,0.7551,
2,1,0,0,0,7565.8,0.786849,0.78661,36.0479,6,0.438345,10,0.0283556,-1.44312,0.120398,0.49004,0.757771,
2,1,0,1,0,7566.6,0.790844,0.790616,37.7382,6,0.467858,10,0.0298364,-1.42322,0.13957,0.422727,0.760425,
2,1,0,1,0,7567.39,0.794839,0.794596,39.4117,6,0.498708,10,0.0313164,-1.40438,0.147822,0.399129,0.763067,
2,1,0,1,0,7568.19,0.798834,0.798531,41.0502,6,0.530872,10,0.0327799,-1.38668,0.156961,0.375889,0.76569,
2,1,0,1,0,7568.99,0.802829,0.802567,42.7819,6,0.564373,10,0.0343354,-1.36874,0.149624,0.394321,0.768342,
2,1,0,0,0,7569.79,0.806825,0.806585,44.3747,6,0.599214,10,0.035792,-1.35286,0.167444,0.352357,0.771085,
2,1,0,1,0,7570.59,0.81082,0.810596,46.0461,6,0.635361,10,0.0373248,-1.33681,0.185393,0.318243,0.773759,
2,1,0,1,0,7571.39,0.814815,0.814566,47.5887,6,0.672789,10,0.0387641,-1.3225,0.203469,0.289971,0.776495,
2,1,0,1,0,7572.19,0.81881,0.818512,49.0461,6,0.711401,10,0.0401448,-1.3094,0.208086,0.283536,0.779275,
2,1,0,1,0,7572.99,0.822805,0.822571,50.4959,6,0.751196,10,0.0415365,-1.29674,0.213094,0.276874,0.782174,
2,1,0,0,0,7573.79,0.826801,0.826547,51.9977,6,0.792203,10,0.0429785,-1.28402,0.225368,0.261795,0.784949,
2,1,0,1,0,7574.59,0.830796,0.830593,53.5206,6,0.834399,10,0.0444539,-1.27148,0.255693,0.230745,0.787777,
2,1,0,0,0,7575.38,0.834791,0.834573,54.8767,6,0.8777,10,0.0457986,-1.26061,0.363222,0.162435,0.790672,
2,1,0,1,0,7576.18,0.838786,0.838542,56.0808,6,0.92195,10,0.0470261,-1.25119,0.322678,0.182845,0.793678,
2,1,0,1,0,7576.98,0.842781,0.842579,56.9427,6,0.967107,10,0.0479787,-1.24456,0.391145,0.150839,0.797025,
2,1,0,1,0,7577.78,0.846776,0.846554,58.1716,6,1.01313,10,0.0492454,-1.23529,0.37674,0.156607,0.800017,
2,1,0,0,0,7578.48,0.849723,0.849463,58.7116,6,1.05412,10,0.0498733,-1.23128,0.0150988,3.90759,0.802494,
2,1,0,1,0,7579.28,0.845728,0.845519,56.6679,6,1.1001,10,0.0479137,-1.24666,0.240322,0.245504,0.800184,
2,1,0,0,0,7580.08,0.841732,0.841525,55.1371,6,1.14481,10,0.0463992,-1.25856,0.174141,0.338805,0.797415,
2,1,0,1,0,7580.88,0.837737,0.837524,53.3004,6,1.1881,10,0.0446404,-1.27327,0.258965,0.22783,0.794883,
2,1,0,1,0,7581.68,0.833742,0.833548,51.935,6,1.23018,10,0.0432903,-1.28454,0.209339,0.28184,0.792,
2,1,0,1,0,7582.48,0.829747,0.829577,50.5095,6,1.27106,10,0.0419015,-1.29663,0.209871,0.281125,0.789169,
2,1,0,1,0,7583.28,0.825752,0.825516,48.8085,6,1.31073,10,0.0402922,-1.3115,0.185903,0.31737,0.786469,
2,1,0,0,0,7584.07,0.821757,0.821555,47.3121,6,1.3491,10,0.0388695,-1.32503,0.207927,0.283754,0.783706,
2,1,0,1,0,7584.87,0.817761,0.817487,45.7964,6,1.38629,10,0.037438,-1.33917,0.184847,0.319183,0.78085,
2,1,0,1,0,7585.67,0.813766,0.813542,44.1775,6,1.42219,10,0.0359403,-1.3548,0.142165,0.41501,0.7782,
2,1,0,1,0,7586.47,0.809771,0.809573,42.4501,6,1.45674,10,0.0343664,-1.37212,0.1583,0.372711,0.775613,
2,1,0,1,0,7587.27,0.805776,0.805547,40.7093,6,1.48988,10,0.0327933,-1.39031,0.220852,0.267147,0.772979,
2,1,0,0,0,7588.07,0.801781,0.801482,39.4043,6,1.52201,10,0.0315819,-1.40446,0.140613,0.419593,0.769958,
2,1,0,1,0,7588.87,0.797786,0.797565,37.646,6,1.55278,10,0.0300251,-1.42428,0.123923,0.476101,0.767448,
2,1,0,1,0,7589.67,0.79379,0.793554,35.9192,6,1.58215,10,0.0285038,-1.44467,0.133758,0.441094,0.764818,
2,1,0,1,0,7590.47,0.789795,0.789523,34.2926,6,1.61017,10,0.0270748,-1.4648,0.116205,0.507721,0.762089,
2,1,0,1,0,7591.27,0.7858,0.785555,32.4472,6,1.63681,10,0.0254891,-1.48882,0.107613,0.548261,0.759597,
2,1,0,0,0,7592.07,0.781805,0.781527,30.7001,6,1.66201,10,0.0239929,-1.51286,0.104018,0.567211,0.756967,
2,1,0,1,0,7592.86,0.77781,0.777557,28.9282,6,1.68581,10,0.0224933,-1.53868,0.0967741,0.609667,0.754415,
2,1,0,0,0,7593.66,0.773815,0.773578,27.1552,6,1.70819,10,0.0210067,-1.56615,0.0890904,0.662249,0.751854,
2,1,0,1,0,7594.46,0.769819,0.769559,25.436,6,1.72918,10,0.0195745,-1.59455,0.0953815,0.618568,0.74921,
2,1,0,1,0,7595.26,0.765824,0.765584,23.7763,6,1.74882,10,0.0182028,-1.62386,0.0902496,0.653743,0.746563,
2,1,0,1,0,7596.06,0.761829,0.761602,22.1414,6,1.76714,10,0.0168629,-1.65479,0.0857881,0.687741,0.743888,
2,1,0,1,0,7596.86,0.757834,0.757581,20.5617,6,1.78418,10,0.0155772,-1.68694,0.0840636,0.70185,0.741132,
2,1,0,0,0,7597.66,0.753839,0.753583,19.011,6,1.79998,10,0.0143264,-1.721,0.0779943,0.756466,0.738375,
2,1,0,1,0,7598.46,0.749844,0.749537,17.5223,6,1.81455,10,0.0131336,-1.75641,0.0794116,0.742964,0.735519,
2,1,0,1,0,7599.26,0.745848,0.745596,16.1084,6,1.82797,10,0.0120104,-1.79295,0.0773021,0.763239,0.732709,
2,1,0,1,0,7600.06,0.741853,0.741551,14.7471,6,1.84027,10,0.0109357,-1.83129,0.0750335,0.786315,0.729753,
2,1,0,1,0,7600.85,0.737858,0.737608,13.4686,6,1.85152,10,0.00993453,-1.87068,0.0738443,0.798979,0.726833,
2,1,0,0,0,7601.65,0.733863,0.733619,12.3138,6,1.86179,10,0.00903364,-1.90961,0.0805028,0.732894,0.723768,
2,1,0,1,0,7602.45,0.729868,0.729637,11.175,6,1.87116,10,0.00815373,-1.95175,0.0695539,0.848262,0.720697,
2,1,0,1,0,7603.25,0.725872,0.725575,10.0827,6,1.87963,10,0.00731575,-1.99642,0.0712564,0.827995,0.717509,
2,1,0,1,0,7604.05,0.721877,0.721649,9.06811,6,1.88726,10,0.00654399,-2.04248,0.0668515,0.882553,0.714395,
2,1,0,1,0,7604.85,0.717882,0.717645,8.10226,6,1.8941,10,0.00581455,-2.09139,0.065992,0.894048,0.711163,
2,1,0,0,0,7605.65,0.713887,0.713628,7.22,6,1.9002,10,0.0051524,-2.14146,0.0639912,0.922002,0.707852,
2,1,0,1,0,7606.45,0.709892,0.709678,6.39047,6,1.90561,10,0.00453518,-2.19447,0.0626518,0.941713,0.704566,
2,1,0,0,0,7607.25,0.705897,0.705629,5.63892,6,1.9104,10,0.00397898,-2.2488,0.0613648,0.961463,0.701117,
2,1,0,1,0,7608.05,0.701901,0.701668,4.94796,6,1.9146,10,0.00347182,-2.30557,0.0593771,0.993649,0.697709,
2,1,0,1,0,7608.84,0.697906,0.697675,4.31651,6,1.91829,10,0.00301152,-2.36487,0.0579738,1.0177,0.694221,
2,1,0,1,0,7609.64,0.693911,0.693654,3.74427,6,1.92148,10,0.00259723,-2.42663,0.0569552,1.0359,0.690658,
2,1,0,1,0,7610.44,0.689916,0.689679,3.23224,6,1.92425,10,0.00222921,-2.4905,0.0554019,1.06495,0.687093,
2,1,0,0,0,7611.24,0.685921,0.685675,2.77599,6,1.92663,10,0.00190342,-2.55658,0.0544351,1.08386,0.683454,
2,1,0,1,0,7612.04,0.681926,0.681683,2.37217,6,1.92867,10,0.00161707,-2.62485,0.0524466,1.12495,0.679785,
2,1,0,1,0,7612.84,0.67793,0.677714,2.01518,6,1.9304,10,0.00136572,-2.69569,0.0527851,1.11774,0.676102,
2,1,0,1,0,7613.64,0.673935,0.673671,1.70158,6,1.93187,10,0.00114631,-2.76915,0.0501591,1.17626,0.67231,
2,1,0,1,0,7614.44,0.66994,0.669741,1.43327,6,1.9331,10,0.000959922,-2.84367,0.0507446,1.16269,0.668594,
2,1,0,0,0,7615.24,0.665945,0.665674,1.20109,6,1.93414,10,0.000799536,-2.92042,0.0489274,1.20587,0.664713,
2,1,0,1,0,7616.04,0.66195,0.661693,1.00046,6,1.935,10,0.000661999,-2.9998,0.0478689,1.23253,0.660892,
2,1,0,0,0,7616.84,0.657955,0.657707,0.828069,6,1.93571,10,0.000544627,-3.08193,0.0461102,1.27954,0.657044,
2,1,0,1,0,7617.63,0.653959,0.653736,0.681942,6,1.9363,10,0.00044581,-3.16625,0.045045,1.3098,0.653191,
2,1,0,1,0,7618.43,0.649964,0.649707,0.559978,6,1.93678,10,0.000363821,-3.25183,0.0450883,1.30854,0.649259,
2,1,0,1,0,7619.23,0.64597,0.645729,0.455974,6,1.93717,10,0.000294435,-3.34106,0.0430857,1.36936,0.645364,
2,1,0,1,0,7620.03,0.641974,0.641708,0.36846,6,1.93748,10,0.000236444,-3.43361,0.0420511,1.40305,0.641414,
2,1,0,0,0,7620.83,0.637979,0.637727,0.29597,6,1.93773,10,0.000188748,-3.52875,0.0406291,1.45216,0.63749,
2,1,0,1,0,7621.63,0.633983,0.633701,0.233705,6,1.93793,10,0.000148099,-3.63133,0.0384208,1.53563,0.633514,
2,1,0,1,0,7622.43,0.629988,0.629748,0.184404,6,1.93808,10,0.000116128,-3.73423,0.0352557,1.67349,0.6296,
2,1,0,1,0,7623.23,0.625993,0.625698,0.139342,6,1.93819,10,8.71861e-05,-3.85592,0.0323032,1.82644,0.625586,
2,1,0,1,0,7624.03,0.621998,0.621731,0.104404,6,1.93827,10,6.49113e-05,-3.98128,0.0287877,2.04949,0.621648,
2,1,0,0,0,7624.83,0.618003,0.617755,0.075447,6,1.93833,10,4.66078e-05,-4.12236,0.0234235,2.51883,0.617695,
2,1,0,1,0,7625.62,0.614008,0.613672,0.0496053,6,1.93836,10,3.04414e-05,-4.30447,0.0200559,2.94177,0.613633,
2,1,0,1,0,7626.42,0.610012,0.609761,0.0284765,6,1.93838,10,1.73639e-05,-4.54551,0.0134348,4.39159,0.609739,
2,1,0,1,0,7627.22,0.606017,0.605754,0.0113649,6,1.93838,10,6.88436e-06,-4.94443,0.00482337,12.2321,0.605745,
2,1,0,1,0,7628.02,0.602022,0.60175,-0.0042177,6,1.93837,10,-2.538e-06,-5.37492,-0.00727363,-8.1115,0.601754,
2,1,0,0,0,7628.82,0.598027,0.597738,-0.015719,6,1.93835,10,-9.39586e-06,-4.80357,-0.0108231,-5.45131,0.59775,
2,0,0,1,0,7629.62,0.594032,0.593748,-0.02749,6,1.93831,10,-1.63222e-05,-4.56082,-0.0280975,-2.09983,0.59377,
2,0,0,0,0,7630.42,0.590037,0.589781,-0.0369864,6,1.93827,10,-2.18139e-05,-4.43196,-0.0364438,-1.61893,0.589811,
2,0,0,1,0,7631.22,0.586041,0.585742,-0.0439476,6,1.93823,10,-2.5742e-05,-4.35706,-0.0552856,-1.06719,0.585777,
2,0,0,1,0,7632.02,0.582046,0.581753,-0.050197,6,1.93817,10,-2.92022e-05,-4.29932,-0.0861228,-0.685068,0.581793,
2,0,0,1,0,7632.82,0.578052,0.57777,-0.0556806,6,1.93812,10,-3.21706e-05,-4.2543,-0.0979339,-0.602447,0.577814,
2,0,0,1,0,7633.62,0.574056,0.573778,-0.0607036,6,1.93805,10,-3.48304e-05,-4.21679,-0.121608,-0.485165,0.573826,
2,0,0,0,0,7634.41,0.570061,0.569781,-0.0650719,6,1.93799,10,-3.70767e-05,-4.18661,-0.265611,-0.22213,0.569833,
2,0,0,1,0,7635.21,0.566065,0.565802,-0.0682558,6,1.93792,10,-3.86193e-05,-4.16586,-0.123656,-0.477129,0.565857,
2,0,0,1,0,7636.01,0.56207,0.561818,-0.0732112,6,1.93785,10,-4.11314e-05,-4.13542,-0.266094,-0.221726,0.561877,
2,0,0,1,0,7636.81,0.558075,0.557803,-0.0744414,6,1.93778,10,-4.15236e-05,-4.12819,-0.250336,-0.235683,0.557862,
2,0,0,1,0,7637.61,0.55408,0.553834,-0.0765474,6,1.9377,10,-4.23946e-05,-4.11607,-0.30761,-0.191801,0.553895,
2,0,0,0,0,7638.41,0.550085,0.549804,-0.0780649,6,1.93762,10,-4.29204e-05,-4.10754,-0.438789,-0.134461,0.549866,
2,0,0,1,0,7639.21,0.54609,0.545846,-0.0803735,6,1.93754,10,-4.38715e-05,-4.09489,-0.354979,-0.166207,0.54591,
2,0,0,1,0,7640.01,0.542094,0.541829,-0.0840888,6,1.93746,10,-4.55618e-05,-4.07526,-0.572209,-0.103109,0.541897,
2,0,0,1,0,7640.81,0.538099,0.537805,-0.0848632,6,1.93738,10,-4.56399e-05,-4.07128,-0.594629,-0.0992215,0.537873,
2,0,0,1,0,7641.61,0.534104,0.533792,-0.0869918,6,1.93729,10,-4.64355e-05,-4.06052,-0.397074,-0.148587,0.533861,
2,0,0,0,0,7642.4,0.530109,0.529822,-0.0885697,6,1.93721,10,-4.69262e-05,-4.05271,-0.498867,-0.118268,0.529893,
2,0,0,1,0,7643.2,0.526114,0.525829,-0.0898388,6,1.93712,10,-4.72399e-05,-4.04654,-0.292432,-0.201757,0.525901,
2,0,0,0,0,7644,0.522119,0.521828,-0.0907208,6,1.93704,10,-4.73407e-05,-4.04229,-0.610069,-0.0967104,0.521901,
2,0,0,1,0,7644.8,0.518123,0.517855,-0.0930783,6,1.93695,10,-4.82011e-05,-4.03115,-2.29256,-0.0257354,0.517929,
2,0,0,1,0,7645.6,0.514128,0.513875,-0.0935745,6,1.93686,10,-4.80856e-05,-4.02884,-0.481076,-0.122642,0.51395,
2,0,0,1,0,7646.4,0.510133,0.509848,-0.0943048,6,1.93677,10,-4.80811e-05,-4.02547,-0.730581,-0.0807577,0.509924,
2,0,0,1,0,7647.2,0.506138,0.505855,-0.0956088,6,1.93668,10,-4.83642e-05,-4.0195,1.84304,0.0320123,0.505932,
2,0,0,0,0,7648,0.502143,0.501858,-0.0978938,6,1.93658,10,-4.91288e-05,-4.00924,-0.374845,-0.157398,0.501936,
2,0,0,1,0,7648.8,0.498148,0.497883,-0.0985608,6,1.93649,10,-4.90718e-05,-4.0063,2.33884,0.0252262,0.497962,
2,0,0,1,0,7649.6,0.494152,0.493873,-0.100456,6,1.93639,10,-4.96126e-05,-3.99802,-0.390845,-0.150955,0.493953,
2,0,0,1,0,7650.39,0.490157,0.489869,-0.099782,6,1.9363,10,-4.88801e-05,-4.00095,-0.371028,-0.159018,0.489949,
2,0,0,1,0,7651.19,0.486162,0.485899,-0.10166,6,1.9362,10,-4.93965e-05,-3.99285,-0.707602,-0.0833803,0.485981,
2,0,0,0,0,7651.99,0.482167,0.481882,-0.104658,6,1.9361,10,-5.04326e-05,-3.98023,-1.19345,-0.0494363,0.481966,
2,0,0,1,0,7652.79,0.478172,0.477884,-0.106349,6,1.936,10,-5.08226e-05,-3.97327,-0.472459,-0.124878,0.477969,
2,0,0,0,0,7653.59,0.474177,0.473866,-0.10727,6,1.9359,10,-5.08318e-05,-3.96952,15.7598,0.0037437,0.473952,
2,0,0,1,0,7654.39,0.470181,0.469883,-0.109467,6,1.9358,10,-5.14368e-05,-3.96072,-0.333338,-0.176998,0.469971,
2,0,0,1,0,7655.19,0.466186,0.465927,-0.109786,6,1.9357,10,-5.11524e-05,-3.95945,-2.4478,-0.0241032,0.466015,
2,0,0,1,0,7655.99,0.462191,0.461907,-0.110772,6,1.9356,10,-5.11664e-05,-3.95557,-0.381739,-0.154556,0.461996,
2,0,0,1,0,7656.79,0.458196,0.457951,-0.112283,6,1.93549,10,-5.14199e-05,-3.94969,-1.26422,-0.0466692,0.45804,
2,0,0,0,0,7657.59,0.454201,0.45393,-0.115003,6,1.93539,10,-5.22034e-05,-3.93929,-0.689801,-0.0855319,0.454022,
2,0,0,1,0,7658.39,0.450205,0.449931,-0.116643,6,1.93528,10,-5.24815e-05,-3.93314,-0.431809,-0.136635,0.450025,
2,0,0,1,0,7659.18,0.44621,0.445921,-0.118619,6,1.93517,10,-5.28946e-05,-3.92585,-0.549659,-0.107339,0.446016,
2,0,0,1,0,7659.98,0.442215,0.441941,-0.11996,6,1.93506,10,-5.30152e-05,-3.92096,-1.15779,-0.050959,0.442037,
2,0,0,1,0,7660.78,0.43822,0.43794,-0.121807,6,1.93495,10,-5.3344e-05,-3.91433,-0.375085,-0.157298,0.438037,
2,0,0,0,0,7661.58,0.434225,0.433948,-0.12388,6,1.93483,10,-5.37574e-05,-3.907,-11.5294,-0.00511736,0.434047,
2,0,0,1,0,7662.38,0.43023,0.429974,-0.125371,6,1.93472,10,-5.39064e-05,-3.9018,-0.370596,-0.159203,0.430074,
2,0,0,1,0,7663.18,0.426234,0.425955,-0.127491,6,1.9346,10,-5.43054e-05,-3.89452,-0.447314,-0.131898,0.426057,
2,0,0,1,0,7663.98,0.422239,0.421961,-0.129982,6,1.93448,10,-5.48471e-05,-3.88612,-2.77383,-0.0212703,0.422064,
2,0,0,1,0,7664.78,0.418244,0.417989,-0.131712,6,1.93436,10,-5.50542e-05,-3.88037,-0.280144,-0.210606,0.418095,
2,0,0,0,0,7665.58,0.414249,0.414,-0.132312,6,1.93424,10,-5.4777e-05,-3.8784,-0.602101,-0.0979902,0.414106,
2,0,0,1,0,7666.38,0.410254,0.409958,-0.13631,6,1.93412,10,-5.58815e-05,-3.86547,-1.47963,-0.0398748,0.410067,
2,0,0,0,0,7667.17,0.406259,0.405956,-0.13869,6,1.934,10,-5.6302e-05,-3.85796,-0.674329,-0.0874944,0.406067,
2,0,0,1,0,7667.97,0.402263,0.401997,-0.140868,6,1.93387,10,-5.66286e-05,-3.85119,-0.884168,-0.0667294,0.40211,
2,0,0,1,0,7668.77,0.398268,0.397995,-0.141709,6,1.93374,10,-5.63996e-05,-3.8486,-0.43545,-0.135492,0.398109,
2,0,0,1,0,7669.57,0.394274,0.393963,-0.144614,6,1.93361,10,-5.69724e-05,-3.83979,-0.669887,-0.0880745,0.394079,
2,0,0,1,0,7670.37,0.390278,0.389971,-0.146898,6,1.93348,10,-5.72858e-05,-3.83299,-0.786009,-0.0750627,0.390089,
2,0,0,0,0,7671.17,0.386283,0.386014,-0.148015,6,1.93335,10,-5.71359e-05,-3.82969,-0.503886,-0.11709,0.386132,
2,0,0,1,0,7671.97,0.382287,0.382041,-0.150775,6,1.93321,10,-5.76023e-05,-3.82167,-0.37784,-0.156151,0.382161,
2,0,0,1,0,7672.77,0.378292,0.378001,-0.154075,6,1.93307,10,-5.82406e-05,-3.81227,-2.01728,-0.0292473,0.378124,
2,0,0,1,0,7673.57,0.374297,0.374029,-0.155657,6,1.93294,10,-5.82202e-05,-3.80783,-0.377211,-0.156411,0.374154,
2,0,0,1,0,7674.37,0.370303,0.370027,-0.158281,6,1.93279,10,-5.85681e-05,-3.80057,-2.13391,-0.0276488,0.370154,
2,0,0,0,0,7675.16,0.366307,0.366029,-0.160968,6,1.93265,10,-5.89191e-05,-3.79326,-0.407656,-0.14473,0.366158,
2,0,0,1,0,7675.96,0.362312,0.362016,-0.162177,6,1.93251,10,-5.87107e-05,-3.79001,-0.959798,-0.0614713,0.362145,
2,0,0,1,0,7676.76,0.358316,0.358035,-0.165871,6,1.93236,10,-5.93874e-05,-3.78023,-0.494641,-0.119278,0.358167,
2,0,0,1,0,7677.56,0.354321,0.354024,-0.167969,6,1.93221,10,-5.94652e-05,-3.77477,-0.578552,-0.101979,0.354159,
2,0,0,1,0,7678.36,0.350327,0.350059,-0.169725,6,1.93206,10,-5.94137e-05,-3.77025,-0.829201,-0.0711528,0.350194,
2,0,0,0,0,7679.16,0.346331,0.346042,-0.173452,6,1.93191,10,-6.00216e-05,-3.76082,-0.749972,-0.0786696,0.34618,
2,0,0,1,0,7679.96,0.342336,0.342039,-0.175506,6,1.93175,10,-6.00298e-05,-3.75571,-0.820745,-0.071886,0.342179,
2,0,0,0,0,7680.76,0.338341,0.3381,-0.178046,6,1.93159,10,-6.01972e-05,-3.74947,-0.545067,-0.108244,0.338243,
2,0,0,1,0,7681.56,0.334345,0.334032,-0.179893,6,1.93143,10,-6.00902e-05,-3.74499,-0.48846,-0.120788,0.334176,
2,0,0,1,0,7682.36,0.33035,0.33005,-0.183303,6,1.93127,10,-6.0499e-05,-3.73683,-0.534183,-0.110449,0.330196,
2,0,0,1,0,7683.16,0.326355,0.326086,-0.185523,6,1.93111,10,-6.04966e-05,-3.7316,-0.953987,-0.0618457,0.326234,
2,0,0,1,0,7683.95,0.32236,0.322068,-0.188047,6,1.93095,10,-6.05639e-05,-3.72573,-0.675954,-0.087284,0.322218,
2,0,0,0,0,7684.75,0.318365,0.318052,-0.190123,6,1.93078,10,-6.0469e-05,-3.72097,-0.742944,-0.0794138,0.318204,
2,0,0,1,0,7685.55,0.31437,0.314105,-0.193432,6,1.93061,10,-6.07581e-05,-3.71347,-2.7522,-0.0214374,0.31426,
2,0,0,1,0,7686.35,0.310374,0.310047,-0.19659,6,1.93044,10,-6.09522e-05,-3.70644,-0.50079,-0.117814,0.310204,
2,0,0,1,0,7687.15,0.306379,0.306051,-0.197526,6,1.93026,10,-6.0453e-05,-3.70438,-0.464471,-0.127026,0.306209,
2,0,0,1,0,7687.95,0.302385,0.3021,-0.200501,6,1.93009,10,-6.05713e-05,-3.69788,-0.628808,-0.0938283,0.30226,
2,0,0,0,0,7688.75,0.298389,0.298099,-0.202807,6,1.92991,10,-6.04564e-05,-3.69292,-0.634817,-0.0929402,0.298261,
2,0,0,1,0,7689.55,0.294394,0.294091,-0.206641,6,1.92973,10,-6.07712e-05,-3.68478,-1.01323,-0.0582297,0.294257,
2,0,0,1,0,7690.35,0.290398,0.290109,-0.209103,6,1.92955,10,-6.06625e-05,-3.67964,-0.743438,-0.0793611,0.290276,
2,0,0,1,0,7691.15,0.286403,0.286122,-0.210306,6,1.92936,10,-6.01732e-05,-3.67715,-0.694978,-0.0848947,0.28629,
2,0,0,1,0,7691.94,0.282408,0.282073,-0.214263,6,1.92918,10,-6.04379e-05,-3.66905,-0.996203,-0.0592249,0.282244,
2,0,0,1,0,7692.74,0.278414,0.278101,-0.217124,6,1.92899,10,-6.03823e-05,-3.66329,-0.474163,-0.12443,0.278274,
2,0,0,1,0,7693.54,0.274418,0.274123,-0.219433,6,1.9288,10,-6.01517e-05,-3.6587,-1.01335,-0.0582226,0.274298,
2,0,0,0,0,7694.34,0.270423,0.270147,-0.224095,6,1.9286,10,-6.05385e-05,-3.64957,-0.920409,-0.0641019,0.270327,
2,0,0,1,0,7695.14,0.266427,0.266127,-0.225503,6,1.92841,10,-6.00125e-05,-3.64685,-0.686109,-0.0859921,0.266307,
2,0,0,1,0,7695.94,0.262432,0.262176,-0.227232,6,1.92821,10,-5.95747e-05,-3.64353,-1.02767,-0.0574114,0.262358,
2,0,0,1,0,7696.74,0.258437,0.258169,-0.229824,6,1.92801,10,-5.93334e-05,-3.6386,-0.841029,-0.0701522,0.258353,
2,0,0,1,0,7697.54,0.254442,0.25415,-0.232297,6,1.92781,10,-5.90382e-05,-3.63396,-0.786511,-0.0750148,0.254336,
2,0,0,0,0,7698.34,0.250447,0.250177,-0.236578,6,1.92761,10,-5.91863e-05,-3.62603,-1.10268,-0.053506,0.250366,
2,0,0,1,0,7699.14,0.246452,0.246171,-0.23859,6,1.9274,10,-5.8734e-05,-3.62235,-0.601041,-0.0981631,0.246362,
2,0,0,1,0,7699.93,0.242456,0.24213,-0.24243,6,1.9272,10,-5.86995e-05,-3.61541,-0.540933,-0.109071,0.242324,
2,0,0,1,0,7700.73,0.238461,0.238196,-0.243954,6,1.92699,10,-5.8109e-05,-3.61269,-0.875082,-0.0674223,0.238391,
2,0,0,1,0,7701.53,0.234467,0.234163,-0.246984,6,1.92677,10,-5.78345e-05,-3.60733,-0.674325,-0.0874948,0.23436,
2,0,0,0,0,7702.33,0.230471,0.230218,-0.250544,6,1.92656,10,-5.76797e-05,-3.60112,-1.50356,-0.0392402,0.230418,
2,0,0,1,0,7703.13,0.226476,0.22619,-0.253884,6,1.92634,10,-5.7426e-05,-3.59537,-0.406193,-0.145251,0.226393,
2,0,0,0,0,7703.93,0.222481,0.222169,-0.257144,6,1.92612,10,-5.71294e-05,-3.58982,-0.827234,-0.071322,0.222375,
2,0,0,1,0,7704.73,0.218485,0.218199,-0.262222,6,1.9259,10,-5.72165e-05,-3.58133,-1.27513,-0.0462699,0.218409,
2,0,0,1,0,7705.53,0.21449,0.214198,-0.266383,6,1.92567,10,-5.70588e-05,-3.57449,-0.503141,-0.117263,0.214411,
2,0,0,1,0,7706.33,0.210496,0.210224,-0.269663,6,1.92544,10,-5.66897e-05,-3.56918,-0.414042,-0.142497,0.21044,
2,0,0,1,0,7707.13,0.2065,0.206222,-0.274756,6,1.92521,10,-5.66607e-05,-3.56105,-0.466663,-0.12643,0.206442,
2,0,0,0,0,7707.93,0.202505,0.202262,-0.279624,6,1.92497,10,-5.65573e-05,-3.55343,-0.451312,-0.13073,0.202486,
2,0,0,1,0,7708.72,0.198509,0.198162,-0.286984,6,1.92473,10,-5.68693e-05,-3.54214,-0.425333,-0.138715,0.198392,
2,0,0,1,0,7709.52,0.194514,0.194221,-0.293557,6,1.92448,10,-5.7015e-05,-3.53231,-0.378219,-0.155994,0.194456,
2,0,0,1,0,7710.32,0.190519,0.190243,-0.300145,6,1.92423,10,-5.71003e-05,-3.52267,-0.28362,-0.208025,0.190483,
2,0,0,1,0,7711.12,0.186524,0.18626,-0.311798,6,1.92397,10,-5.80753e-05,-3.50613,-0.356093,-0.165687,0.186509,
2,0,0,0,0,7711.92,0.182529,0.182224,-0.322619,6,1.9237,10,-5.87888e-05,-3.49131,-0.180312,-0.327211,0.182482,
2,0,0,1,0,7712.72,0.178534,0.178252,-0.336736,6,1.92342,10,-6.00239e-05,-3.47271,-0.203409,-0.290056,0.178522,
2,0,0,1,0,7713.52,0.174538,0.174198,-0.355934,6,1.92312,10,-6.2003e-05,-3.44863,-0.156481,-0.377042,0.174483,
2,0,0,1,0,7714.32,0.170543,0.170212,-0.381365,6,1.92282,10,-6.49131e-05,-3.41866,-0.129134,-0.456892,0.170518,
2,0,0,1,0,7715.12,0.166549,0.166237,-0.408421,6,1.92248,10,-6.78947e-05,-3.38889,-0.114973,-0.513163,0.166564,
2,0,0,0,0,7715.92,0.162553,0.16227,-0.446426,6,1.92213,10,-7.24416e-05,-3.35025,-0.0935039,-0.63099,0.162627,
2,0,0,1,0,7716.71,0.158558,0.158288,-0.494916,6,1.92173,10,-7.83394e-05,-3.30547,-0.0783476,-0.753055,0.158684,
2,0,0,0,0,7717.51,0.154563,0.154272,-0.563274,6,1.92129,10,-8.68977e-05,-3.24928,-0.0747317,-0.789491,0.154723,
2,0,0,1,0,7718.31,0.150567,0.150268,-0.639697,6,1.9208,10,-9.61262e-05,-3.19403,-0.0704011,-0.838056,0.15078,
2,0,0,1,0,7719.11,0.146572,0.146261,-0.722164,6,1.92024,10,-0.000105624,-3.14136,-0.0801971,-0.735687,0.146839,
2,0,0,1,0,7719.91,0.142578,0.142249,-0.799322,6,1.91961,10,-0.000113703,-3.09728,-0.1014,-0.581857,0.142888,
2,0,0,1,0,7720.71,0.138582,0.13826,-0.858735,6,1.91894,10,-0.000118729,-3.06614,-0.159515,-0.369871,0.138947,
2,0,0,0,0,7721.51,0.134587,0.134285,-0.897828,6,1.91822,10,-0.000120565,-3.04681,-0.303084,-0.194666,0.135003,
2,0,0,1,0,7722.31,0.130591,0.130312,-0.918088,6,1.91747,10,-0.000119638,-3.03712,-0.815581,-0.0723411,0.131046,
2,0,0,1,0,7723.11,0.126596,0.12628,-0.91075,6,1.91673,10,-0.000115009,-3.0406,0.88177,0.0669108,0.127008,
2,0,0,1,0,7723.91,0.122602,0.122308,-0.899936,6,1.91598,10,-0.000110069,-3.04579,0.369801,0.159545,0.123028,
2,0,0,1,0,7724.7,0.118607,0.118334,-0.876278,6,1.91526,10,-0.000103693,-3.05736,0.361746,0.163098,0.119035,
2,0,0,0,0,7725.5,0.114611,0.114336,-0.846119,6,1.91455,10,-9.67422e-05,-3.07257,0.213489,0.276361,0.115013,
2,0,0,1,0,7726.3,0.110616,0.110292,-0.811553,6,1.91388,10,-8.95078e-05,-3.09068,0.23825,0.247639,0.110941,
2,0,0,1,0,7727.1,0.10662,0.106323,-0.779254,6,1.91323,10,-8.28524e-05,-3.10832,0.23652,0.249451,0.106946,
2,0,0,1,0,7727.9,0.102625,0.102319,-0.7478,6,1.9126,10,-7.65141e-05,-3.12621,0.233476,0.252702,0.102917,
2,0,0,1,0,7728.7,0.0986305,0.0983192,-0.722021,6,1.912,10,-7.09885e-05,-3.14145,0.28001,0.210707,0.0988969,
2,0,0,0,0,7729.5,0.0946351,0.0943531,-0.698239,6,1.91141,10,-6.5881e-05,-3.156,0.360038,0.163872,0.0949117,
2,0,0,1,0,7730.3,0.0906399,0.0903246,-0.684951,6,1.91084,10,-6.18679e-05,-3.16434,0.364929,0.161675,0.0908725,
2,0,0,0,0,7731.1,0.0866448,0.0863438,-0.671466,6,1.91028,10,-5.79769e-05,-3.17298,0.618519,0.0953891,0.086881,
2,0,0,1,0,7731.9,0.0826492,0.082368,-0.660668,6,1.90974,10,-5.44179e-05,-3.18002,0.528624,0.111611,0.0828965,
2,0,0,1,0,7732.7,0.0786544,0.0783164,-0.649957,6,1.9092,10,-5.09023e-05,-3.18712,0.569728,0.103558,0.0788364,
2,0,0,1,0,7733.49,0.0746596,0.0743436,-0.637262,6,1.90867,10,-4.73764e-05,-3.19568,0.527073,0.111939,0.0748534,
2,0,0,1,0,7734.29,0.0706641,0.0703773,-0.623966,6,1.90815,10,-4.3913e-05,-3.20484,0.380047,0.155244,0.0708765,
2,0,0,0,0,7735.09,0.0666689,0.0663668,-0.610312,6,1.90764,10,-4.05045e-05,-3.21445,0.385458,0.153065,0.0668551,
2,0,0,1,0,7735.89,0.0626737,0.0624051,-0.594094,6,1.90714,10,-3.70745e-05,-3.22614,0.324996,0.181541,0.0628804,
2,0,0,1,0,7736.69,0.0586783,0.0583839,-0.577385,6,1.90665,10,-3.37099e-05,-3.23853,0.298148,0.197888,0.0588458,
2,0,0,1,0,7737.49,0.0546835,0.0543758,-0.562326,6,1.90618,10,-3.05769e-05,-3.25001,0.395569,0.149152,0.0548256,
2,0,0,1,0,7738.29,0.0506886,0.0503614,-0.54612,6,1.90572,10,-2.75034e-05,-3.26271,0.310487,0.190024,0.0507983,
2,0,0,0,0,7739.09,0.046693,0.0463941,-0.530466,6,1.90528,10,-2.46105e-05,-3.27534,0.34245,0.172288,0.0468184,
2,0,0,1,0,7739.89,0.0426979,0.0423974,-0.517335,6,1.90484,10,-2.19336e-05,-3.28623,0.47509,0.124187,0.0428113,
2,0,0,1,0,7740.69,0.0387022,0.0383728,-0.507646,6,1.90442,10,-1.94798e-05,-3.29444,0.390967,0.150908,0.0387789,
2,0,0,1,0,7741.48,0.0347074,0.0344071,-0.497088,6,1.904,10,-1.71034e-05,-3.30357,0.561334,0.105107,0.0348048,
2,0,0,1,0,7742.28,0.0307126,0.0304235,-0.487635,6,1.90359,10,-1.48356e-05,-3.3119,0.763155,0.0773106,0.0308136,
2,0,0,0,0,7743.08,0.0267172,0.0264627,-0.485049,6,1.90319,10,-1.28357e-05,-3.31421,0.762675,0.0773593,0.0268507,
2,0,0,1,0,7743.88,0.022722,0.0224215,-0.481328,6,1.90278,10,-1.07921e-05,-3.31756,3.22639,0.0182867,0.0228065,
2,0,0,0,0,7744.68,0.0187268,0.0184386,-0.480629,6,1.90238,10,-8.86211e-06,-3.31819,4.08542,0.0144416,0.0188231,
2,0,0,1,0,7745.48,0.0147313,0.0144298,-0.482001,6,1.90198,10,-6.95518e-06,-3.31695,-2.4579,-0.0240042,0.0148154,
2,0,0,1,0,7746.28,0.0107365,0.0104472,-0.481469,6,1.90158,10,-5.03002e-06,-3.31743,-3.49273,-0.0168922,0.0108324,
2,0,0,1,0,7747.08,0.00674163,0.00650288,-0.483972,6,1.90118,10,-3.14721e-06,-3.31518,-2.65565,-0.0222168,0.00689005,
2,0,0,1,0,7747.88,0.00274612,0.00243067,-0.485212,6,1.90078,10,-1.17939e-06,-3.31407,-0.859032,-0.068682,0.00281884,
2,0,0,0,0,7748.37,0.000274105,-6.0487e-05,-0.49002,6,1.90053,10,2.96398e-08,-3.30979, , ,0.000331529,