File: Figure_codes/Fig_3-5/workspace_calculate_alpha_eff/20221101_1-115_002_TrumpetPlot_ParaChange_18_CV_C01_3.csv
mode,ox/red,error,control changes,counter inc.,time/s,control/V,Ewe/V,<I>/mA,cycle number,(Q-Qo)/C,I Range,P/W,log(|I|),Tafel slope mV/dec,alpha_eff,E-IR/V,
2,1,0,0,0,4945.17,2.44065e-05,-0.000363498,0.081875,4,0.0000000E+000,10,-2.97614e-08,-4.08685, , ,-0.000428998,
2,1,0,0,0,4945.93,0.00379485,0.00347623,0.226896,4,0.000173511,10,7.88744e-07,-3.64417,0.0854791,0.690227,0.00329472,
2,1,0,1,0,4946.73,0.00779002,0.00747715,0.243541,4,0.000379275,10,1.82099e-06,-3.61343,0.143022,0.412524,0.00728232,
2,1,0,0,0,4947.53,0.0117852,0.0115056,0.252686,4,0.000595527,10,2.90732e-06,-3.59742,0.35081,0.168182,0.0113035,
2,1,0,1,0,4948.33,0.0157806,0.0154571,0.26341,4,0.000818942,10,4.07154e-06,-3.57937,0.291655,0.202294,0.0152463,
2,1,0,1,0,4949.12,0.0197754,0.0194418,0.267724,4,0.0010479,10,5.20503e-06,-3.57231,0.374352,0.157606,0.0192276,
2,1,0,1,0,4949.92,0.0237704,0.0234634,0.274308,4,0.00128211,10,6.43622e-06,-3.56176,0.352865,0.167203,0.023244,
2,1,0,1,0,4950.72,0.0277659,0.0274828,0.281866,4,0.00152093,10,7.74646e-06,-3.54996,0.472833,0.12478,0.0272573,
2,1,0,0,0,4951.52,0.0317611,0.0314466,0.287176,4,0.00176506,10,9.03071e-06,-3.54185,0.453566,0.13008,0.0312168,
2,1,0,1,0,4952.32,0.0357567,0.0354967,0.296107,4,0.00201482,10,1.05108e-05,-3.52855,0.3818,0.154531,0.0352599,
2,1,0,1,0,4953.12,0.0397516,0.039439,0.303098,4,0.00227028,10,1.19539e-05,-3.51842,0.268331,0.219878,0.0391966,
2,1,0,1,0,4953.92,0.0437465,0.0434439,0.309827,4,0.00253314,10,1.34601e-05,-3.50888,0.287588,0.205154,0.043196,
2,1,0,1,0,4954.72,0.0477413,0.0474423,0.324385,4,0.00280403,10,1.53896e-05,-3.48894,0.228877,0.25778,0.0471828,
2,1,0,0,0,4955.52,0.0517369,0.0514352,0.336333,4,0.00308464,10,1.72994e-05,-3.47323,0.196807,0.299786,0.0511662,
2,1,0,1,0,4956.32,0.0557321,0.0554457,0.351728,4,0.00337696,10,1.95018e-05,-3.45379,0.232244,0.254043,0.0551643,
2,1,0,1,0,4957.12,0.0597277,0.059396,0.367699,4,0.00368124,10,2.18399e-05,-3.43451,0.193229,0.305336,0.0591018,
2,1,0,1,0,4957.91,0.0637226,0.0634316,0.387132,4,0.00399959,10,2.45564e-05,-3.41214,0.20151,0.292789,0.0631219,
2,1,0,1,0,4958.71,0.0677174,0.0674408,0.404839,4,0.00433341,10,2.73027e-05,-3.39272,0.213705,0.276081,0.067117,
2,1,0,0,0,4959.51,0.0717128,0.0713963,0.423633,4,0.00468164,10,3.02459e-05,-3.37301,0.196941,0.299581,0.0710574,
2,1,0,1,0,4960.31,0.075708,0.0754227,0.4395,4,0.00504519,10,3.31483e-05,-3.35704,0.21987,0.268341,0.0750711,
2,1,0,0,0,4961.11,0.0797031,0.0794332,0.460916,4,0.00542271,10,3.6612e-05,-3.33638,0.251873,0.234245,0.0790644,
2,1,0,1,0,4961.91,0.0836986,0.0834164,0.476952,4,0.00581342,10,3.97856e-05,-3.32153,0.273926,0.215387,0.0830348,
2,1,0,1,0,4962.71,0.0876935,0.0874159,0.491493,4,0.00621708,10,4.29643e-05,-3.30848,0.299548,0.196964,0.0870228,
2,1,0,1,0,4963.51,0.0916883,0.0913602,0.507099,4,0.0066322,10,4.63287e-05,-3.29491,0.317421,0.185873,0.0909546,
2,1,0,1,0,4964.31,0.0956838,0.09537,0.520912,4,0.00705961,10,4.96794e-05,-3.28324,0.251958,0.234166,0.0949533,
2,1,0,0,0,4965.11,0.099679,0.0994314,0.538918,4,0.00750062,10,5.35854e-05,-3.26848,0.360474,0.163673,0.0990002,
2,1,0,1,0,4965.9,0.103674,0.103431,0.560852,4,0.00795643,10,5.80096e-05,-3.25115,0.180074,0.327643,0.102983,
2,1,0,1,0,4966.7,0.10767,0.10742,0.587025,4,0.00843233,10,6.30579e-05,-3.23134,0.193491,0.304924,0.10695,
2,1,0,1,0,4967.5,0.111664,0.111385,0.622946,4,0.00893251,10,6.9387e-05,-3.20555,0.137324,0.42964,0.110887,
2,1,0,1,0,4968.3,0.115659,0.115363,0.664527,4,0.00946372,10,7.6662e-05,-3.17749,0.12583,0.468887,0.114832,
2,1,0,0,0,4969.1,0.119655,0.119394,0.713365,4,0.0100325,10,8.51711e-05,-3.14669,0.139412,0.423206,0.118823,
2,1,0,1,0,4969.9,0.12365,0.123312,0.765711,4,0.0106406,10,9.44211e-05,-3.11594,0.131901,0.447306,0.122699,
2,1,0,1,0,4970.7,0.127646,0.127372,0.813031,4,0.0112898,10,0.000103557,-3.08989,0.156054,0.378074,0.126721,
2,1,0,1,0,4971.5,0.131641,0.131332,0.861671,4,0.0119779,10,0.000113165,-3.06466,0.207378,0.284505,0.130642,
2,1,0,1,0,4972.3,0.135635,0.135335,0.89713,4,0.0126974,10,0.000121414,-3.04714,0.250365,0.235656,0.134618,
2,1,0,0,0,4973.1,0.139631,0.139339,0.912608,4,0.0134402,10,0.000127162,-3.03972,0.922095,0.0639847,0.138609,
2,1,0,1,0,4973.9,0.143626,0.143349,0.918687,4,0.014191,10,0.000131693,-3.03683,-0.692018,-0.0852579,0.142614,
2,1,0,0,0,4974.69,0.147621,0.147326,0.888888,4,0.0149309,10,0.000130956,-3.05115,-0.193112,-0.305523,0.146615,
2,1,0,1,0,4975.49,0.151617,0.151375,0.833867,4,0.0156378,10,0.000126226,-3.0789,-0.112896,-0.522605,0.150708,
2,1,0,1,0,4976.29,0.155612,0.155338,0.758269,4,0.0162905,10,0.000117788,-3.12018,-0.0843678,-0.699319,0.154731,
2,1,0,1,0,4977.09,0.159606,0.159345,0.66787,4,0.0168765,10,0.000106422,-3.17531,-0.0732462,-0.805503,0.158811,
2,1,0,1,0,4977.89,0.163602,0.163336,0.586839,4,0.0173949,10,9.58517e-05,-3.23148,-0.0712387,-0.828202,0.162866,
2,1,0,0,0,4978.69,0.167597,0.167293,0.519843,4,0.0178528,10,8.69662e-05,-3.28413,-0.0869788,-0.678326,0.166877,
2,1,0,1,0,4979.49,0.171592,0.171301,0.46617,4,0.0182646,10,7.98556e-05,-3.33146,-0.0922813,-0.639349,0.170929,
2,1,0,1,0,4980.29,0.175588,0.175311,0.431795,4,0.0186404,10,7.56985e-05,-3.36472,-0.12533,-0.470758,0.174966,
2,1,0,1,0,4981.09,0.179582,0.17926,0.401719,4,0.0189896,10,7.20121e-05,-3.39608,-0.16197,-0.364265,0.178938,
2,1,0,1,0,4981.89,0.183577,0.183288,0.379639,4,0.0193191,10,6.95832e-05,-3.42063,-0.161697,-0.364881,0.182984,
2,1,0,0,0,4982.68,0.187573,0.187278,0.364058,4,0.0196327,10,6.81799e-05,-3.43883,-0.239874,-0.245963,0.186986,
2,1,0,1,0,4983.48,0.191568,0.191252,0.348858,4,0.0199336,10,6.67198e-05,-3.45735,-0.255048,-0.231329,0.190973,
2,1,0,0,0,4984.28,0.195563,0.195262,0.339313,4,0.0202251,10,6.62551e-05,-3.4694,-0.2714,-0.217392,0.194991,
2,1,0,1,0,4985.08,0.199559,0.199266,0.329994,4,0.0205085,10,6.57566e-05,-3.48149,-0.518796,-0.113725,0.199002,
2,1,0,1,0,4985.88,0.203553,0.203287,0.321734,4,0.0207856,10,6.54045e-05,-3.4925,-0.405343,-0.145556,0.20303,
2,1,0,1,0,4986.68,0.207548,0.207286,0.315734,4,0.0210575,10,6.54473e-05,-3.50068,-0.437455,-0.134871,0.207033,
2,1,0,1,0,4987.48,0.211544,0.211247,0.31068,4,0.0213243,10,6.56302e-05,-3.50769,-0.577178,-0.102221,0.210998,
2,1,0,0,0,4988.28,0.215539,0.215253,0.30605,4,0.0215871,10,6.58782e-05,-3.51421,-0.705879,-0.0835837,0.215008,
2,1,0,1,0,4989.08,0.219535,0.219268,0.303774,4,0.0218463,10,6.66081e-05,-3.51745,-0.756264,-0.0780151,0.219025,
2,1,0,1,0,4989.88,0.223529,0.223248,0.297942,4,0.0221023,10,6.65149e-05,-3.52587,-1.08621,-0.0543174,0.223009,
2,1,0,1,0,4990.67,0.227524,0.227234,0.295561,4,0.0223561,10,6.71614e-05,-3.52935,-0.653244,-0.0903185,0.226997,
2,1,0,1,0,4991.47,0.23152,0.231254,0.292533,4,0.0226075,10,6.76492e-05,-3.53383,-1.00757,-0.0585566,0.23102,
2,1,0,0,0,4992.27,0.235515,0.235249,0.288977,4,0.0228574,10,6.79816e-05,-3.53914,-5.63184,-0.0104761,0.235018,
2,1,0,1,0,4993.07,0.23951,0.239224,0.287587,4,0.0231053,10,6.87977e-05,-3.54123,-0.846946,-0.069662,0.238994,
2,1,0,1,0,4993.87,0.243506,0.24324,0.287055,4,0.0233516,10,6.98232e-05,-3.54204,-1.93419,-0.0305037,0.24301,
2,1,0,1,0,4994.67,0.2475,0.24725,0.284449,4,0.0235966,10,7.03301e-05,-3.54599,-1.49871,-0.0393672,0.247022,
2,1,0,1,0,4995.47,0.251495,0.251197,0.281839,4,0.0238397,10,7.07972e-05,-3.55,-0.996973,-0.0591791,0.250972,
2,1,0,0,0,4996.27,0.255491,0.255224,0.280851,4,0.0240817,10,7.16801e-05,-3.55152,15.2258,0.00387501,0.254999,
2,1,0,1,0,4997.07,0.259486,0.259228,0.280729,4,0.0243231,10,7.27729e-05,-3.55171,-1.05182,-0.0560932,0.259004,
2,1,0,0,0,4997.87,0.263481,0.263185,0.279577,4,0.0245628,10,7.35804e-05,-3.5535,-0.962592,-0.0612928,0.262961,
2,1,0,1,0,4998.67,0.267477,0.267196,0.276688,4,0.0248016,10,7.393e-05,-3.55801,-12.0083,-0.00491328,0.266975,
2,1,0,1,0,4999.46,0.271471,0.271196,0.276373,4,0.0250394,10,7.49512e-05,-3.5585,-1.65504,-0.0356487,0.270975,
2,1,0,1,0,5000.26,0.275466,0.275169,0.27526,4,0.0252761,10,7.57431e-05,-3.56026,-6.44687,-0.00915173,0.274949,
2,1,0,1,0,5001.06,0.279462,0.279195,0.273692,4,0.0255123,10,7.64132e-05,-3.56274,-2.12744,-0.0277329,0.278976,
2,1,0,0,0,5001.86,0.283457,0.28319,0.272318,4,0.0257475,10,7.71178e-05,-3.56492,-2.87216,-0.020542,0.282972,
2,1,0,1,0,5002.66,0.287452,0.287147,0.272268,4,0.0259819,10,7.81807e-05,-3.565,-7.10015,-0.00830968,0.286929,
2,1,0,1,0,5003.46,0.291448,0.291156,0.271677,4,0.0262158,10,7.91004e-05,-3.56595,-3.15276,-0.0187138,0.290939,
2,1,0,1,0,5004.26,0.295442,0.295138,0.269537,4,0.0264487,10,7.95506e-05,-3.56938,-3.75439,-0.0157149,0.294922,
2,1,0,1,0,5005.06,0.299437,0.299161,0.267262,4,0.0266812,10,7.99544e-05,-3.57306,-1.20871,-0.0488123,0.298947,
2,1,0,0,0,5005.86,0.303433,0.303162,0.267992,4,0.0269128,10,8.12451e-05,-3.57188,-1.76513,-0.0334253,0.302948,
2,1,0,1,0,5006.66,0.307428,0.307148,0.267451,4,0.0271437,10,8.21469e-05,-3.57276,2.16752,0.02722,0.306934,
2,1,0,1,0,5007.45,0.311424,0.311164,0.267434,4,0.0273742,10,8.32159e-05,-3.57278,-1.82429,-0.0323413,0.31095,
2,1,0,1,0,5008.25,0.315418,0.315176,0.265076,4,0.0276038,10,8.35455e-05,-3.57663,-2.04966,-0.0287853,0.314963,
2,1,0,1,0,5009.05,0.319413,0.319138,0.26513,4,0.0278328,10,8.46132e-05,-3.57654,-2.25029,-0.0262188,0.318926,
2,1,0,0,0,5009.85,0.323409,0.323168,0.263427,4,0.0280611,10,8.5131e-05,-3.57934,-3.09764,-0.0190468,0.322957,
2,1,0,1,0,5010.65,0.327404,0.327154,0.26247,4,0.0282884,10,8.5868e-05,-3.58092,-1.28201,-0.0460214,0.326944,
2,1,0,0,0,5011.45,0.331399,0.331143,0.260525,4,0.0285149,10,8.62708e-05,-3.58415,-7.58482,-0.0077787,0.330935,
2,1,0,1,0,5012.25,0.335395,0.335138,0.260383,4,0.028741,10,8.72641e-05,-3.58439,-1.71647,-0.0343728,0.334929,
2,1,0,1,0,5013.05,0.339389,0.339143,0.261147,4,0.0289665,10,8.85659e-05,-3.58312,2.84844,0.0207131,0.338934,
2,1,0,1,0,5013.85,0.343384,0.34315,0.25982,4,0.0291913,10,8.91572e-05,-3.58533,-1.3483,-0.0437588,0.342942,
2,1,0,1,0,5014.65,0.34738,0.347123,0.258746,4,0.0294151,10,8.98169e-05,-3.58713,-2.32864,-0.0253367,0.346916,
2,1,0,0,0,5015.44,0.351375,0.351091,0.258016,4,0.0296381,10,9.05872e-05,-3.58835,-2.49353,-0.0236612,0.350885,
2,1,0,1,0,5016.24,0.35537,0.355088,0.257584,4,0.0298606,10,9.14648e-05,-3.58908,-2.30249,-0.0256244,0.354882,
2,1,0,1,0,5017.04,0.359366,0.359024,0.254847,4,0.0300823,10,9.14961e-05,-3.59372,-4.09354,-0.0144129,0.35882,
2,1,0,1,0,5017.84,0.36336,0.363106,0.253446,4,0.0303034,10,9.20276e-05,-3.59611,-2.23593,-0.0263872,0.362903,
2,1,0,1,0,5018.64,0.367355,0.367083,0.254614,4,0.030524,10,9.34645e-05,-3.59412,7.13561,0.00826838,0.366879,
2,1,0,0,0,5019.44,0.371351,0.371043,0.253054,4,0.0307439,10,9.38941e-05,-3.59679,-2.20366,-0.0267736,0.37084,
2,1,0,1,0,5020.24,0.375346,0.375088,0.252448,4,0.0309634,10,9.46903e-05,-3.59783,-6.95706,-0.00848059,0.374886,
2,1,0,1,0,5021.04,0.379342,0.379067,0.252993,4,0.0311823,10,9.59014e-05,-3.59689,-1.90889,-0.0309079,0.378865,
2,1,0,1,0,5021.84,0.383336,0.383053,0.251963,4,0.0314005,10,9.65152e-05,-3.59866,-12.7275,-0.00463564,0.382851,
2,1,0,1,0,5022.64,0.387331,0.387041,0.252197,4,0.0316185,10,9.76107e-05,-3.59826,-1.66556,-0.0354236,0.386839,
2,1,0,0,0,5023.44,0.391327,0.391045,0.250478,4,0.031836,10,9.79482e-05,-3.60123,3.68452,0.0160129,0.390845,
2,1,0,1,0,5024.23,0.395322,0.395033,0.250335,4,0.0320532,10,9.88908e-05,-3.60148,-2.9281,-0.0201496,0.394833,
2,1,0,0,0,5025.03,0.399317,0.399037,0.250279,4,0.03227,10,9.98705e-05,-3.60158,-2.09062,-0.0282213,0.398836,
2,1,0,1,0,5025.83,0.403313,0.403029,0.249451,4,0.0324863,10,0.000100536,-3.60301,-4.53717,-0.0130037,0.40283,
2,1,0,1,0,5026.63,0.407307,0.407065,0.248994,4,0.0327024,10,0.000101357,-3.60381,5.34323,0.011042,0.406866,
2,1,0,1,0,5027.43,0.411302,0.411027,0.250277,4,0.0329182,10,0.000102871,-3.60158,-16.8638,-0.00349861,0.410827,
2,1,0,1,0,5028.23,0.415298,0.415002,0.247698,4,0.0331338,10,0.000102795,-3.60608,-10.9127,-0.00540653,0.414804,
2,1,0,0,0,5029.03,0.419293,0.419019,0.248203,4,0.0333489,10,0.000104002,-3.60519,-1.89222,-0.0311803,0.41882,
2,1,0,1,0,5029.83,0.423288,0.422974,0.247774,4,0.0335637,10,0.000104802,-3.60594,-12.2301,-0.00482414,0.422776,
2,1,0,1,0,5030.63,0.427283,0.427029,0.247663,4,0.0337785,10,0.00010576,-3.60614,-3.76719,-0.0156615,0.426831,
2,1,0,1,0,5031.43,0.431278,0.431026,0.246929,4,0.033993,10,0.000106433,-3.60743,1.56431,0.0377164,0.430828,
2,1,0,1,0,5032.22,0.435273,0.434972,0.247076,4,0.0342073,10,0.000107471,-3.60717,5.69281,0.0103639,0.434775,
2,1,0,0,0,5033.02,0.439269,0.439002,0.246721,4,0.0344218,10,0.000108311,-3.60779,-4.45782,-0.0132352,0.438805,
2,1,0,1,0,5033.82,0.443264,0.443023,0.247966,4,0.0346362,10,0.000109855,-3.60561,-2.8401,-0.0207739,0.442825,
2,1,0,0,0,5034.62,0.447259,0.447012,0.247509,4,0.0348506,10,0.000110639,-3.60641,19.74,0.00298886,0.446814,
2,1,0,1,0,5035.42,0.451254,0.450989,0.247318,4,0.0350654,10,0.000111538,-3.60674,-1.90996,-0.0308908,0.450791,
2,1,0,1,0,5036.22,0.455249,0.45501,0.248284,4,0.0352799,10,0.000112972,-3.60505,1.20921,0.0487922,0.454811,
2,1,0,1,0,5037.02,0.459244,0.458963,0.24775,4,0.0354948,10,0.000113708,-3.60599,1.55849,0.0378571,0.458764,
2,1,0,1,0,5037.82,0.46324,0.462978,0.248903,4,0.0357101,10,0.000115236,-3.60397,5.41903,0.0108876,0.462779,
2,1,0,0,0,5038.62,0.467235,0.466971,0.250883,4,0.0359257,10,0.000117155,-3.60053,-4.19672,-0.0140586,0.466771,
2,1,0,1,0,5039.42,0.471231,0.470913,0.249642,4,0.0361416,10,0.00011756,-3.60268,2.15253,0.0274096,0.470714,
2,1,0,1,0,5040.21,0.475225,0.474966,0.25119,4,0.0363578,10,0.000119307,-3.6,-4.81999,-0.0122407,0.474765,
2,1,0,1,0,5041.01,0.47922,0.478976,0.251459,4,0.0365745,10,0.000120443,-3.59953,27.4344,0.00215058,0.478775,
2,1,0,1,0,5041.81,0.483216,0.482924,0.25174,4,0.0367917,10,0.000121571,-3.59905,14.6961,0.00401468,0.482723,
2,1,0,0,0,5042.61,0.487211,0.486926,0.252873,4,0.0370093,10,0.000123131,-3.5971,0.629832,0.0936758,0.486724,
2,1,0,1,0,5043.41,0.491206,0.490916,0.251906,4,0.0372278,10,0.000123665,-3.59876,-10.5026,-0.00561766,0.490715,
2,1,0,1,0,5044.21,0.495201,0.494929,0.254198,4,0.0374468,10,0.00012581,-3.59483,1.95482,0.0301817,0.494726,
2,1,0,1,0,5045.01,0.499196,0.498879,0.256409,4,0.0376665,10,0.000127917,-3.59107,1.52108,0.0387883,0.498674,
2,1,0,1,0,5045.81,0.503191,0.502907,0.255826,4,0.0378875,10,0.000128657,-3.59205,20.6259,0.00286048,0.502702,
2,1,0,0,0,5046.61,0.507187,0.5069,0.258533,4,0.0381091,10,0.00013105,-3.58748,1.07936,0.0546622,0.506693,
2,1,0,1,0,5047.41,0.511182,0.510903,0.259335,4,0.0383319,10,0.000132495,-3.58614,1.73518,0.0340022,0.510696,
2,1,0,0,0,5048.21,0.515177,0.514922,0.260059,4,0.0385563,10,0.00013391,-3.58493,1.08779,0.0542384,0.514714,
2,1,0,1,0,5049,0.519173,0.518866,0.262858,4,0.038782,10,0.000136388,-3.58028,1.68634,0.0349871,0.518656,
2,1,0,1,0,5049.8,0.523167,0.522883,0.264794,4,0.0390095,10,0.000138456,-3.57709,1.08113,0.0545723,0.522671,
2,1,0,1,0,5050.6,0.527162,0.526899,0.268527,4,0.0392389,10,0.000141487,-3.57101,0.956792,0.0616644,0.526684,
2,1,0,1,0,5051.4,0.531158,0.530896,0.270429,4,0.0394703,10,0.00014357,-3.56795,0.728406,0.0809988,0.53068,
2,1,0,0,0,5052.2,0.535153,0.534864,0.274217,4,0.039704,10,0.000146669,-3.56191,0.658179,0.0896412,0.534645,
2,1,0,1,0,5053,0.539148,0.538875,0.277592,4,0.03994,10,0.000149588,-3.55659,0.688357,0.0857113,0.538653,
2,1,0,1,0,5053.8,0.543143,0.542875,0.280909,4,0.0401793,10,0.000152499,-3.55143,0.626034,0.094244,0.542651,
2,1,0,1,0,5054.6,0.547138,0.546852,0.284538,4,0.0404221,10,0.0001556,-3.54586,0.6993,0.08437,0.546624,
2,1,0,1,0,5055.4,0.551133,0.55087,0.291047,4,0.0406682,10,0.000160329,-3.53604,0.604507,0.0976002,0.550637,
2,1,0,0,0,5056.2,0.555129,0.554866,0.294104,4,0.0409184,10,0.000163188,-3.5315,0.428602,0.137657,0.554631,
2,1,0,1,0,5056.99,0.559124,0.558827,0.301717,4,0.041173,10,0.000168607,-3.5204,0.360272,0.163765,0.558586,
2,1,0,1,0,5057.79,0.56312,0.562862,0.308578,4,0.0414327,10,0.000173687,-3.51064,0.436328,0.13522,0.562615,
2,1,0,1,0,5058.59,0.567114,0.566839,0.314881,4,0.0416981,10,0.000178487,-3.50185,0.456705,0.129186,0.566587,
2,1,0,1,0,5059.39,0.571109,0.57083,0.324791,4,0.0419694,10,0.000185401,-3.4884,0.293918,0.200736,0.57057,
2,1,0,0,0,5060.19,0.575105,0.574843,0.333239,4,0.0422479,10,0.00019156,-3.47724,0.297802,0.198118,0.574577,
2,1,0,1,0,5060.99,0.5791,0.578854,0.344645,4,0.0425348,10,0.000199499,-3.46263,0.29068,0.202972,0.578578,
2,1,0,0,0,5061.79,0.583095,0.582811,0.35657,4,0.042831,10,0.000207813,-3.44786,0.223484,0.264001,0.582526,
2,1,0,1,0,5062.59,0.58709,0.586834,0.37117,4,0.0431383,10,0.000217815,-3.43043,0.230045,0.256472,0.586537,
2,1,0,1,0,5063.39,0.591085,0.590799,0.3901,4,0.0434586,10,0.000230471,-3.40882,0.184998,0.318922,0.590487,
2,1,0,1,0,5064.19,0.59508,0.594786,0.408785,4,0.0437935,10,0.00024314,-3.3885,0.171842,0.34334,0.594459,
2,1,0,1,0,5064.99,0.599076,0.598829,0.433053,4,0.044146,10,0.000259325,-3.36346,0.158825,0.371479,0.598482,
2,1,0,0,0,5065.78,0.603071,0.602789,0.459809,4,0.0445183,10,0.000277168,-3.33742,0.141582,0.416721,0.602421,
2,1,0,1,0,5066.58,0.607066,0.606767,0.491273,4,0.0449141,10,0.000298088,-3.30868,0.132941,0.443805,0.606374,
2,1,0,1,0,5067.38,0.611061,0.610835,0.528583,4,0.0453376,10,0.000322877,-3.27689,0.120975,0.487704,0.610412,
2,1,0,1,0,5068.18,0.615056,0.614749,0.572148,4,0.0457928,10,0.000351727,-3.24249,0.108469,0.543933,0.614291,
2,1,0,1,0,5068.98,0.619051,0.618767,0.623361,4,0.0462867,10,0.000385715,-3.20526,0.0995517,0.592657,0.618268,
2,1,0,0,0,5069.78,0.623047,0.622791,0.685212,4,0.0468258,10,0.000426743,-3.16418,0.0950635,0.620638,0.622243,
2,1,0,1,0,5070.58,0.627042,0.626776,0.757593,4,0.0474177,10,0.000474841,-3.12056,0.0857505,0.688042,0.62617,
2,1,0,1,0,5071.38,0.631037,0.630779,0.843925,4,0.0480732,10,0.00053233,-3.0737,0.0823462,0.716487,0.630104,
2,1,0,1,0,5072.18,0.635032,0.634773,0.946454,4,0.048803,10,0.000600783,-3.0239,0.075961,0.776715,0.634015,
2,1,0,1,0,5072.98,0.639027,0.638744,1.06518,4,0.0496213,10,0.000680378,-2.97258,0.0741739,0.795428,0.637892,
2,1,0,1,0,5073.77,0.643022,0.64278,1.20764,4,0.0505443,10,0.000776248,-2.91806,0.0691266,0.853507,0.641814,
2,1,0,1,0,5074.57,0.647018,0.646755,1.37677,4,0.0515917,10,0.000890432,-2.86114,0.0667438,0.883978,0.645653,
2,1,0,0,0,5075.37,0.651013,0.65076,1.57479,4,0.0527861,10,0.00102481,-2.80278,0.0639834,0.922114,0.6495,
2,1,0,1,0,5076.17,0.655008,0.654759,1.81381,4,0.0541542,10,0.00118761,-2.74141,0.0619937,0.951709,0.653308,
2,1,0,1,0,5076.97,0.659003,0.658734,2.08737,4,0.055727,10,0.00137502,-2.6804,0.0601609,0.980703,0.657064,
2,1,0,1,0,5077.77,0.662998,0.662788,2.41274,4,0.0575393,10,0.00159913,-2.61749,0.0593034,0.994884,0.660858,
2,1,0,1,0,5078.57,0.666994,0.666758,2.78803,4,0.0596299,10,0.00185894,-2.5547,0.0585649,1.00743,0.664528,
2,1,0,0,0,5079.37,0.670989,0.670725,3.21846,4,0.062043,10,0.0021587,-2.49235,0.0584555,1.00932,0.668151,
2,1,0,1,0,5080.17,0.674984,0.674752,3.71642,4,0.0648265,10,0.00250766,-2.42988,0.0571834,1.03177,0.671779,
2,1,0,1,0,5080.97,0.67898,0.678681,4.27713,4,0.068033,10,0.00290281,-2.36885,0.0586382,1.00617,0.675259,
2,1,0,1,0,5081.76,0.682974,0.682758,4.91011,4,0.071717,10,0.00335242,-2.30891,0.058783,1.00369,0.67883,
2,1,0,1,0,5082.56,0.686969,0.686696,5.61396,4,0.0759341,10,0.00385509,-2.25073,0.0600883,0.981888,0.682205,
2,1,0,0,0,5083.36,0.690965,0.690702,6.38712,4,0.0807422,10,0.0044116,-2.19469,0.0599502,0.984151,0.685593,
2,1,0,1,0,5084.16,0.69496,0.694676,7.22989,4,0.0861957,10,0.00502243,-2.14087,0.0617971,0.954738,0.688892,
2,1,0,0,0,5084.96,0.698955,0.698683,8.1341,4,0.0923473,10,0.00568316,-2.08969,0.0654943,0.900842,0.692176,
2,1,0,1,0,5085.76,0.70295,0.702649,9.09827,4,0.0992481,10,0.00639289,-2.04104,0.0679382,0.868437,0.69537,
2,1,0,1,0,5086.56,0.706945,0.70668,10.1155,4,0.106939,10,0.00714842,-1.99501,0.0711237,0.829541,0.698588,
2,1,0,1,0,5087.36,0.71094,0.710679,11.1708,4,0.115459,10,0.00793886,-1.95192,0.0754396,0.782083,0.701742,
2,1,0,1,0,5088.16,0.714936,0.714664,12.267,4,0.124841,10,0.00876676,-1.91126,0.0794557,0.742552,0.704851,
2,1,0,0,0,5088.96,0.718931,0.718687,13.3959,4,0.135109,10,0.00962748,-1.87303,0.0827876,0.712667,0.707971,
2,1,0,1,0,5089.76,0.722927,0.722672,14.5521,4,0.146293,10,0.0105164,-1.83708,0.0864248,0.682675,0.71103,
2,1,0,1,0,5090.55,0.726921,0.726734,15.7634,4,0.158418,10,0.0114558,-1.80235,0.0878363,0.671704,0.714123,
2,1,0,1,0,5091.35,0.730916,0.730685,17.0287,4,0.171532,10,0.0124426,-1.76882,0.0900162,0.655438,0.717062,
2,1,0,1,0,5092.15,0.734911,0.734696,18.3503,4,0.185684,10,0.0134819,-1.73636,0.0886497,0.665541,0.720016,
2,1,0,0,0,5092.95,0.738907,0.738705,19.742,4,0.200918,10,0.0145835,-1.70461,0.0921196,0.640472,0.722911,
2,1,0,1,0,5093.75,0.742902,0.74265,21.1872,4,0.217285,10,0.0157346,-1.67393,0.0934224,0.63154,0.7257,
2,1,0,1,0,5094.55,0.746897,0.746648,22.6865,4,0.234838,10,0.0169389,-1.64423,0.0950496,0.620728,0.728498,
2,1,0,1,0,5095.35,0.750892,0.750678,24.2222,4,0.253595,10,0.0181831,-1.61579,0.0995094,0.592909,0.7313,
2,1,0,1,0,5096.15,0.754887,0.754623,25.7632,4,0.273588,10,0.0194415,-1.589,0.0987255,0.597617,0.734013,
2,1,0,0,0,5096.95,0.758883,0.758592,27.483,4,0.294887,10,0.0208484,-1.56094,0.100137,0.589194,0.736605,
2,1,0,1,0,5097.75,0.762878,0.76264,29.0459,4,0.317504,10,0.0221516,-1.53691,0.109449,0.539063,0.739404,
2,1,0,0,0,5098.54,0.766873,0.766633,30.8327,4,0.341459,10,0.0236373,-1.51099,0.108302,0.544773,0.741967,
2,1,0,1,0,5099.34,0.770868,0.770597,32.5571,4,0.366807,10,0.0250884,-1.48735,0.109435,0.539132,0.744551,
2,1,0,1,0,5100.14,0.774863,0.774595,34.2979,4,0.393542,10,0.026567,-1.46473,0.121624,0.485103,0.747157,
2,1,0,1,0,5100.94,0.778858,0.778614,35.9653,4,0.421645,10,0.0280031,-1.44412,0.127435,0.462982,0.749842,
2,1,0,1,0,5101.74,0.782854,0.782604,37.7411,4,0.451124,10,0.0295363,-1.42319,0.126147,0.467708,0.752411,
2,1,0,0,0,5102.54,0.786849,0.78663,39.5024,4,0.481989,10,0.0310737,-1.40338,0.129363,0.456081,0.755028,
2,1,0,1,0,5103.34,0.790844,0.79061,41.3186,4,0.514313,10,0.0326669,-1.38385,0.133478,0.442019,0.757555,
2,1,0,1,0,5104.14,0.794839,0.794596,43.0919,4,0.548071,10,0.0342406,-1.3656,0.160889,0.366713,0.760122,
2,1,0,1,0,5104.94,0.798834,0.798556,44.5733,4,0.583145,10,0.0355943,-1.35093,0.194148,0.303891,0.762898,
2,1,0,1,0,5105.74,0.802829,0.802583,46.2289,4,0.619441,10,0.0371026,-1.33509,0.190034,0.310471,0.7656,
2,1,0,0,0,5106.53,0.806825,0.806553,47.7438,4,0.656988,10,0.0385079,-1.32108,0.186028,0.317157,0.768358,
2,1,0,1,0,5107.33,0.81082,0.810593,49.2091,4,0.695768,10,0.0398886,-1.30795,0.232976,0.253245,0.771226,
2,1,0,1,0,5108.13,0.814815,0.814571,50.6734,4,0.735695,10,0.0412771,-1.29522,0.258429,0.228303,0.774032,
2,1,0,1,0,5108.93,0.81881,0.818581,52.1192,4,0.776724,10,0.0426638,-1.283,0.237654,0.24826,0.776886,
2,1,0,1,0,5109.73,0.822805,0.822526,53.3603,4,0.818863,10,0.0438902,-1.27278,0.401696,0.146877,0.779837,
2,1,0,0,0,5110.53,0.826801,0.826559,54.4092,4,0.861883,10,0.0449724,-1.26433,0.245472,0.240353,0.783032,
2,1,0,1,0,5111.33,0.830796,0.830577,55.7076,4,0.905934,10,0.0462695,-1.25409,0.327447,0.180182,0.786011,
2,1,0,0,0,5112.13,0.834791,0.83459,56.8674,4,0.950936,10,0.047461,-1.24514,0.39324,0.150035,0.789096,
2,1,0,1,0,5112.93,0.838786,0.838551,57.9832,4,0.996825,10,0.0486219,-1.2367,0.430447,0.137067,0.792164,
2,1,0,1,0,5113.73,0.842781,0.842538,58.9386,4,1.04352,10,0.0496579,-1.2296,0.477541,0.12355,0.795387,
2,1,0,1,0,5114.53,0.846776,0.846516,59.7531,4,1.09093,10,0.050582,-1.22364,0.102649,0.574776,0.798714,
2,1,0,0,0,5115.22,0.849723,0.849506,61.61,4,1.13404,10,0.0523381,-1.21035,0.0200173,2.94745,0.800218,
2,1,0,1,0,5116.02,0.845728,0.845545,59.8092,4,1.18253,10,0.0505714,-1.22323,0.171534,0.343955,0.797698,
2,1,0,0,0,5116.82,0.841732,0.841494,57.5641,4,1.22938,10,0.0484399,-1.23985,0.213455,0.276405,0.795443,
2,1,0,1,0,5117.62,0.837737,0.837493,56.5017,4,1.27502,10,0.0473197,-1.24794,0.263562,0.223856,0.792292,
2,1,0,1,0,5118.42,0.833742,0.83351,54.8511,4,1.31951,10,0.0457189,-1.26081,0.226428,0.260569,0.789629,
2,1,0,1,0,5119.22,0.829747,0.829533,53.5937,4,1.36279,10,0.0444578,-1.27089,0.276659,0.213259,0.786658,
2,1,0,1,0,5120.02,0.825752,0.825522,52.212,4,1.40504,10,0.0431021,-1.28223,0.23809,0.247805,0.783753,
2,1,0,0,0,5120.82,0.821757,0.821497,50.8159,4,1.44618,10,0.0417451,-1.294,0.222111,0.265633,0.780844,
2,1,0,1,0,5121.62,0.817761,0.817531,49.1311,4,1.48608,10,0.0401662,-1.30864,0.187855,0.314071,0.778226,
2,1,0,1,0,5122.42,0.813766,0.813518,47.5739,4,1.52471,10,0.0387022,-1.32263,0.0842178,0.700564,0.775459,
2,1,0,1,0,5123.22,0.809771,0.809494,45.0314,4,1.56153,10,0.0364526,-1.34648,0.183383,0.32173,0.773468,
2,1,0,1,0,5124.01,0.805776,0.8055,43.3092,4,1.59683,10,0.0348856,-1.36342,0.143739,0.410465,0.770853,
2,1,0,0,0,5124.81,0.801781,0.801515,41.5263,4,1.63072,10,0.0332839,-1.38168,0.130377,0.452533,0.768294,
2,1,0,1,0,5125.61,0.797786,0.797544,39.7853,4,1.66317,10,0.0317305,-1.40028,-1.86854,-0.0315754,0.765715,
2,1,0,1,0,5126.41,0.79379,0.793569,39.5963,4,1.69555,10,0.0314224,-1.40235,0.0904588,0.65223,0.761892,
2,1,0,1,0,5127.21,0.789795,0.789544,37.6645,4,1.72637,10,0.0297378,-1.42407,0.114088,0.517146,0.759412,
2,1,0,1,0,5128.01,0.7858,0.785568,35.7575,4,1.75568,10,0.02809,-1.44663,0.115482,0.510904,0.756962,
2,1,0,0,0,5128.81,0.781805,0.781567,32.1374,4,1.78324,10,0.0251175,-1.49299,0.0297945,1.98023,0.755857,
2,1,0,1,0,5129.61,0.77781,0.777533,30.6972,4,1.80838,10,0.0238681,-1.5129,0.110171,0.53553,0.752975,
2,1,0,0,0,5130.41,0.773815,0.773558,28.9448,4,1.83218,10,0.0223905,-1.53843,0.103452,0.570314,0.750403,
2,1,0,1,0,5131.21,0.769819,0.769566,27.2466,4,1.85463,10,0.0209681,-1.56469,0.0932447,0.632744,0.747768,
2,1,0,1,0,5132,0.765824,0.765586,25.5438,4,1.87569,10,0.019556,-1.59271,0.0934477,0.631369,0.745151,
2,1,0,1,0,5132.8,0.761829,0.761589,23.855,4,1.8954,10,0.0181677,-1.62242,0.0799556,0.73791,0.742505,
2,1,0,1,0,5133.6,0.757834,0.757577,22.1307,4,1.91372,10,0.0167657,-1.65501,0.0871831,0.676737,0.739872,
2,1,0,0,0,5134.4,0.753839,0.753559,20.5601,4,1.93076,10,0.0154932,-1.68698,0.0830855,0.710111,0.737111,
2,1,0,1,0,5135.2,0.749844,0.749592,19.018,4,1.94655,10,0.0142557,-1.72084,0.0802984,0.734759,0.734378,
2,1,0,1,0,5136,0.745848,0.745593,17.5408,4,1.96113,10,0.0130783,-1.75595,0.0793066,0.743948,0.73156,
2,1,0,1,0,5136.8,0.741853,0.741612,16.1054,4,1.97455,10,0.011944,-1.79303,0.0770166,0.766068,0.728727,
2,1,0,1,0,5137.6,0.737858,0.737625,14.7637,4,1.98686,10,0.0108901,-1.8308,0.0747961,0.788812,0.725814,
2,1,0,0,0,5138.4,0.733863,0.733641,13.472,4,1.99812,10,0.00988362,-1.87057,0.0732243,0.805743,0.722864,
2,1,0,1,0,5139.2,0.729868,0.729592,12.2325,4,2.00836,10,0.00892474,-1.91248,0.072177,0.817435,0.719806,
2,1,0,1,0,5139.99,0.725872,0.725631,11.068,4,2.01765,10,0.00803128,-1.95593,0.069687,0.846643,0.716776,
2,1,0,1,0,5140.79,0.721877,0.721622,9.96631,4,2.02604,10,0.00719191,-2.00147,0.0672688,0.877078,0.713649,
2,1,0,1,0,5141.59,0.717882,0.717618,8.93663,4,2.03357,10,0.00641309,-2.04883,0.0656389,0.898858,0.710469,
2,1,0,0,0,5142.39,0.713887,0.713646,7.9749,4,2.0403,10,0.00569126,-2.09828,0.0650921,0.906409,0.707266,
2,1,0,1,0,5143.19,0.709892,0.709637,7.09079,4,2.0463,10,0.00503188,-2.14931,0.0640835,0.920674,0.703964,
2,1,0,0,0,5143.99,0.705897,0.705668,6.26584,4,2.05161,10,0.0044216,-2.20302,0.0608299,0.969917,0.700655,
2,1,0,1,0,5144.79,0.701901,0.701639,5.50378,4,2.0563,10,0.00386167,-2.25934,0.0581374,1.01484,0.697236,
2,1,0,1,0,5145.59,0.697906,0.697603,4.80731,4,2.0604,10,0.00335359,-2.3181,0.0590136,0.999769,0.693758,
2,1,0,1,0,5146.39,0.693911,0.693676,4.18448,4,2.06397,10,0.00290267,-2.37836,0.0571766,1.03189,0.690329,
2,1,0,1,0,5147.19,0.689916,0.689667,3.61953,4,2.06706,10,0.00249627,-2.44135,0.0561995,1.04983,0.686772,
2,1,0,0,0,5147.99,0.685921,0.685617,3.1156,4,2.06974,10,0.00213611,-2.50646,0.0548628,1.07541,0.683124,
2,1,0,1,0,5148.78,0.681926,0.681695,2.67065,4,2.07203,10,0.00182057,-2.57338,0.0527505,1.11847,0.679559,
2,1,0,1,0,5149.58,0.67793,0.677696,2.27544,4,2.07399,10,0.00154206,-2.64293,0.0524335,1.12523,0.675876,
2,1,0,1,0,5150.38,0.673935,0.673691,1.92884,4,2.07565,10,0.00129944,-2.7147,0.0516734,1.14179,0.672148,
2,1,0,1,0,5151.18,0.66994,0.669729,1.62751,4,2.07705,10,0.00108999,-2.78848,0.0501691,1.17602,0.668427,
2,1,0,0,0,5151.98,0.665945,0.665677,1.36661,4,2.07823,10,0.000909723,-2.86435,0.0499675,1.18077,0.664584,
2,1,0,1,0,5152.78,0.66195,0.661681,1.1417,4,2.07921,10,0.000755441,-2.94245,0.0478818,1.2322,0.660768,
2,1,0,0,0,5153.58,0.657955,0.657692,0.951263,4,2.08003,10,0.000625638,-3.0217,0.0478492,1.23304,0.656931,
2,1,0,1,0,5154.38,0.653959,0.653689,0.787627,4,2.08071,10,0.000514863,-3.10368,0.0466762,1.26403,0.653059,
2,1,0,1,0,5155.18,0.649964,0.64975,0.649771,4,2.08126,10,0.000422189,-3.18724,0.0454887,1.29703,0.649231,
2,1,0,1,0,5155.98,0.64597,0.64571,0.532576,4,2.08172,10,0.00034389,-3.27362,0.0453034,1.30233,0.645284,
2,1,0,1,0,5156.77,0.641974,0.641717,0.435208,4,2.08209,10,0.000279281,-3.3613,0.0440604,1.33907,0.641369,
2,1,0,0,0,5157.57,0.637979,0.637757,0.351874,4,2.08239,10,0.00022441,-3.45361,0.0421224,1.40068,0.637476,
2,1,0,1,0,5158.37,0.633983,0.633705,0.28348,4,2.08262,10,0.000179643,-3.54748,0.0415724,1.41921,0.633478,
2,1,0,1,0,5159.17,0.629988,0.629739,0.224839,4,2.08281,10,0.00014159,-3.64813,0.0372988,1.58182,0.62956,
2,1,0,1,0,5159.97,0.625993,0.625739,0.174774,4,2.08295,10,0.000109363,-3.75752,0.0357206,1.65171,0.625599,
2,1,0,1,0,5160.77,0.621998,0.621695,0.134773,4,2.08306,10,8.37878e-05,-3.8704,0.0325115,1.81474,0.621588,
2,1,0,0,0,5161.57,0.618003,0.617744,0.099335,4,2.08314,10,6.13636e-05,-4.0029,0.0263601,2.23823,0.617665,
2,1,0,1,0,5162.37,0.614008,0.613699,0.0705104,4,2.08319,10,4.32721e-05,-4.15175,0.0272947,2.16159,0.613642,
2,1,0,1,0,5163.17,0.610012,0.609714,0.0459349,4,2.08323,10,2.80072e-05,-4.33786,0.0183827,3.20955,0.609677,
2,1,0,1,0,5163.97,0.606017,0.605757,0.027042,4,2.08324,10,1.63809e-05,-4.56796,0.0120614,4.89165,0.605736,
2,1,0,1,0,5164.76,0.602022,0.60174,0.00781003,4,2.08324,10,4.69961e-06,-5.10735,0.00398125,14.8195,0.601734,
2,0,0,0,0,5165.56,0.598027,0.597735,-0.00449572,4,2.08323,10,-2.68725e-06,-5.3472,-0.00449143,-13.1361,0.597739,
2,0,0,1,0,5166.36,0.594032,0.593728,-0.0181645,4,2.0832,10,-1.07848e-05,-4.74078,-0.0160956,-3.6656,0.593743,
2,0,0,0,0,5167.16,0.590037,0.589775,-0.0295203,4,2.08317,10,-1.74104e-05,-4.52988,-0.0252843,-2.33347,0.589799,
2,0,0,1,0,5167.96,0.586041,0.585774,-0.0371635,4,2.08313,10,-2.17694e-05,-4.42988,-0.0413409,-1.42716,0.585804,
2,0,0,1,0,5168.76,0.582046,0.581782,-0.0438576,4,2.08308,10,-2.55156e-05,-4.35795,-0.0638046,-0.924698,0.581817,
2,0,0,1,0,5169.56,0.578052,0.577785,-0.0511827,4,2.08303,10,-2.95726e-05,-4.29088,-0.0715121,-0.825036,0.577826,
2,0,0,1,0,5170.36,0.574056,0.573754,-0.0559157,4,2.08297,10,-3.20819e-05,-4.25247,-0.0860468,-0.685673,0.573799,
2,0,0,0,0,5171.16,0.570061,0.569762,-0.0612719,4,2.08291,10,-3.49104e-05,-4.21274,-0.193563,-0.30481,0.569811,
2,0,0,1,0,5171.96,0.566065,0.565781,-0.0651785,4,2.08284,10,-3.68767e-05,-4.1859,-0.10906,-0.540985,0.565833,
2,0,0,1,0,5172.76,0.56207,0.561807,-0.069011,4,2.08277,10,-3.87709e-05,-4.16108,-0.232959,-0.253264,0.561863,
2,0,0,1,0,5173.55,0.558075,0.557795,-0.0728422,4,2.0827,10,-4.0631e-05,-4.13762,-0.227398,-0.259457,0.557853,
2,0,0,1,0,5174.35,0.55408,0.553822,-0.0750486,4,2.08262,10,-4.15636e-05,-4.12466,-0.178075,-0.33132,0.553882,
2,0,0,0,0,5175.15,0.550085,0.549821,-0.0780458,4,2.08255,10,-4.29112e-05,-4.10765,-0.331434,-0.178014,0.549883,
2,0,0,1,0,5175.95,0.54609,0.545847,-0.0801276,4,2.08247,10,-4.37374e-05,-4.09622,-0.29383,-0.200796,0.545911,
2,0,0,1,0,5176.75,0.542094,0.541816,-0.0826717,4,2.08239,10,-4.47928e-05,-4.08264,-0.315536,-0.186983,0.541882,
2,0,0,1,0,5177.55,0.538099,0.537848,-0.0853166,4,2.0823,10,-4.58874e-05,-4.06897,1.42523,0.0413967,0.537916,
2,0,0,1,0,5178.35,0.534104,0.53382,-0.0864418,4,2.08222,10,-4.61443e-05,-4.06328,-0.301475,-0.195705,0.533889,
2,0,0,0,0,5179.15,0.530109,0.529823,-0.0879337,4,2.08214,10,-4.65893e-05,-4.05584,-0.530992,-0.111113,0.529893,
2,0,0,1,0,5179.95,0.526114,0.525792,-0.0894207,4,2.08205,10,-4.70167e-05,-4.04856,-0.312188,-0.188989,0.525864,
2,0,0,0,0,5180.75,0.522119,0.521816,-0.0915394,4,2.08196,10,-4.77667e-05,-4.03839,-1.39994,-0.0421447,0.521889,
2,0,0,1,0,5181.54,0.518123,0.51786,-0.0922762,4,2.08187,10,-4.77861e-05,-4.03491,-0.731567,-0.0806488,0.517934,
2,0,0,1,0,5182.34,0.514128,0.513855,-0.0927336,4,2.08178,10,-4.76517e-05,-4.03276,-0.394232,-0.149658,0.513929,
2,0,0,1,0,5183.14,0.510133,0.509819,-0.0943854,4,2.08169,10,-4.81194e-05,-4.0251,-0.576121,-0.102409,0.509894,
2,0,0,1,0,5183.94,0.506138,0.505893,-0.0957383,4,2.0816,10,-4.84333e-05,-4.01891,-3.82197,-0.0154371,0.505969,
2,0,0,0,0,5184.74,0.502143,0.501869,-0.0978128,4,2.08151,10,-4.90893e-05,-4.0096,-0.332637,-0.177371,0.501948,
2,0,0,1,0,5185.54,0.498148,0.497891,-0.0995922,4,2.08141,10,-4.95861e-05,-4.00177,-1.79942,-0.0327883,0.49797,
2,0,0,1,0,5186.34,0.494152,0.493883,-0.100318,4,2.08132,10,-4.95455e-05,-3.99862,-0.462356,-0.127607,0.493964,
2,0,0,1,0,5187.14,0.490157,0.489867,-0.100479,4,2.08122,10,-4.92215e-05,-3.99792,-2.02746,-0.0291005,0.489947,
2,0,0,1,0,5187.94,0.486162,0.485893,-0.102466,4,2.08112,10,-4.97875e-05,-3.98942,-0.606223,-0.0973239,0.485975,
2,0,0,0,0,5188.74,0.482167,0.481834,-0.103338,4,2.08103,10,-4.97919e-05,-3.98574,-0.722367,-0.081676,0.481917,
2,0,0,1,0,5189.54,0.478172,0.477899,-0.104815,4,2.08093,10,-5.0091e-05,-3.97958,7.01282,0.00841316,0.477983,
2,0,0,0,0,5190.33,0.474177,0.473869,-0.107363,4,2.08083,10,-5.0876e-05,-3.96915,-0.498922,-0.118255,0.473955,
2,0,0,1,0,5191.13,0.470181,0.4699,-0.108408,4,2.08073,10,-5.09409e-05,-3.96494,-0.622949,-0.0947109,0.469987,
2,0,0,1,0,5191.93,0.466186,0.465927,-0.110037,4,2.08062,10,-5.12691e-05,-3.95846,-0.46459,-0.126994,0.466015,
2,0,0,1,0,5192.73,0.462191,0.46192,-0.111993,4,2.08052,10,-5.17319e-05,-3.95081,-0.427057,-0.138155,0.462009,
2,0,0,1,0,5193.53,0.458196,0.457934,-0.11346,4,2.08041,10,-5.19573e-05,-3.94516,-0.741725,-0.0795443,0.458024,
2,0,0,0,0,5194.33,0.454201,0.45394,-0.114721,4,2.08031,10,-5.20763e-05,-3.94036,-0.75462,-0.078185,0.454032,
2,0,0,1,0,5195.13,0.450205,0.44992,-0.116623,4,2.0802,10,-5.2471e-05,-3.93322,-0.648496,-0.0909798,0.450013,
2,0,0,1,0,5195.93,0.44621,0.44594,-0.118554,4,2.08009,10,-5.28682e-05,-3.92608,-0.927368,-0.0636209,0.446035,
2,0,0,1,0,5196.73,0.442215,0.441948,-0.117989,4,2.07998,10,-5.21448e-05,-3.92816,-1.29311,-0.0456265,0.442043,
2,0,0,1,0,5197.53,0.43822,0.437963,-0.121375,4,2.07987,10,-5.31579e-05,-3.91587,-0.325626,-0.181189,0.43806,
2,0,0,0,0,5198.32,0.434225,0.433975,-0.123145,4,2.07975,10,-5.34419e-05,-3.90958,-0.813841,-0.0724958,0.434073,
2,0,0,1,0,5199.12,0.43023,0.429978,-0.12462,4,2.07964,10,-5.3584e-05,-3.90441,-0.302305,-0.195167,0.430078,
2,0,0,1,0,5199.92,0.426234,0.425991,-0.127509,4,2.07952,10,-5.43177e-05,-3.89446,-2.20371,-0.026773,0.426093,
2,0,0,1,0,5200.72,0.422239,0.421968,-0.130229,4,2.0794,10,-5.49524e-05,-3.88529,-1.07815,-0.0547235,0.422072,
2,0,0,1,0,5201.52,0.418244,0.417952,-0.131743,4,2.07929,10,-5.50623e-05,-3.88027,-0.315038,-0.187279,0.418058,
2,0,0,0,0,5202.32,0.414249,0.413986,-0.133958,4,2.07916,10,-5.54566e-05,-3.87303,-1.44901,-0.0407174,0.414093,
2,0,0,1,0,5203.12,0.410254,0.409971,-0.136939,4,2.07904,10,-5.61411e-05,-3.86347,-0.923321,-0.0638997,0.410081,
2,0,0,0,0,5203.92,0.406259,0.405993,-0.138732,4,2.07892,10,-5.63241e-05,-3.85782,-0.468915,-0.125822,0.406104,
2,0,0,1,0,5204.72,0.402263,0.401983,-0.13933,4,2.07879,10,-5.60082e-05,-3.85596,-0.3878,-0.15214,0.402095,
2,0,0,1,0,5205.52,0.398268,0.397954,-0.142459,4,2.07866,10,-5.66921e-05,-3.84631,-0.550654,-0.107145,0.398068,
2,0,0,1,0,5206.31,0.394274,0.394027,-0.14389,4,2.07853,10,-5.66963e-05,-3.84197,-1.38582,-0.042574,0.394142,
2,0,0,1,0,5207.11,0.390278,0.389986,-0.146902,4,2.0784,10,-5.72898e-05,-3.83297,-0.385529,-0.153037,0.390103,
2,0,0,0,0,5207.91,0.386283,0.385996,-0.149225,4,2.07826,10,-5.76003e-05,-3.82616,-0.803879,-0.0733942,0.386115,
2,0,0,1,0,5208.71,0.382287,0.381999,-0.151236,4,2.07813,10,-5.77721e-05,-3.82034,-0.542934,-0.108669,0.38212,
2,0,0,1,0,5209.51,0.378292,0.377967,-0.153926,4,2.07799,10,-5.81788e-05,-3.81269,27.2143,0.00216798,0.37809,
2,0,0,1,0,5210.31,0.374297,0.374011,-0.156056,4,2.07785,10,-5.83665e-05,-3.80672,-0.310178,-0.190213,0.374136,
2,0,0,1,0,5211.11,0.370303,0.369987,-0.15918,4,2.07771,10,-5.88945e-05,-3.79811,-0.569098,-0.103673,0.370114,
2,0,0,0,0,5211.91,0.366307,0.366058,-0.159783,4,2.07757,10,-5.84899e-05,-3.79647,-0.679899,-0.0867775,0.366186,
2,0,0,1,0,5212.71,0.362312,0.362033,-0.163891,4,2.07742,10,-5.93339e-05,-3.78545,-0.457159,-0.129058,0.362164,
2,0,0,1,0,5213.51,0.358316,0.358038,-0.165732,4,2.07727,10,-5.93383e-05,-3.78059,-0.643195,-0.0917296,0.35817,
2,0,0,1,0,5214.31,0.354321,0.354026,-0.169843,4,2.07712,10,-6.01288e-05,-3.76995,-0.99544,-0.0592703,0.354162,
2,0,0,1,0,5215.1,0.350327,0.350028,-0.169829,4,2.07697,10,-5.9445e-05,-3.76999,-0.673735,-0.0875716,0.350164,
2,0,0,0,0,5215.9,0.346331,0.346013,-0.172916,4,2.07682,10,-5.98312e-05,-3.76216,-1.08837,-0.0542093,0.346151,
2,0,0,1,0,5216.7,0.342336,0.342083,-0.175962,4,2.07666,10,-6.01937e-05,-3.75458,-0.352176,-0.16753,0.342224,
2,0,0,0,0,5217.5,0.338341,0.338046,-0.177571,4,2.0765,10,-6.00272e-05,-3.75063,-0.609167,-0.0968536,0.338188,
2,0,0,1,0,5218.3,0.334345,0.334062,-0.181373,4,2.07634,10,-6.05897e-05,-3.74143,-0.612833,-0.0962741,0.334207,
2,0,0,1,0,5219.1,0.33035,0.330064,-0.183568,4,2.07618,10,-6.05892e-05,-3.7362,-0.685734,-0.0860392,0.330211,
2,0,0,1,0,5219.9,0.326355,0.326089,-0.187207,4,2.07601,10,-6.10462e-05,-3.72768,-0.594693,-0.0992108,0.326239,
2,0,0,1,0,5220.7,0.32236,0.322076,-0.189559,4,2.07585,10,-6.10525e-05,-3.72226,-0.809509,-0.0728837,0.322228,
2,0,0,0,0,5221.5,0.318365,0.318052,-0.191866,4,2.07568,10,-6.10234e-05,-3.717,-0.777377,-0.0758963,0.318206,
2,0,0,1,0,5222.3,0.31437,0.314056,-0.195192,4,2.07551,10,-6.13012e-05,-3.70954,-0.905363,-0.0651673,0.314212,
2,0,0,1,0,5223.09,0.310374,0.310045,-0.197504,4,2.07533,10,-6.1235e-05,-3.70442,-0.616575,-0.0956899,0.310203,
2,0,0,1,0,5223.89,0.306379,0.306072,-0.199603,4,2.07516,10,-6.10929e-05,-3.69983,-0.485711,-0.121471,0.306231,
2,0,0,1,0,5224.69,0.302385,0.302106,-0.202566,4,2.07498,10,-6.11965e-05,-3.69343,-1.51975,-0.0388223,0.302268,
2,0,0,0,0,5225.49,0.298389,0.298102,-0.204476,4,2.0748,10,-6.09547e-05,-3.68936,-0.400049,-0.147482,0.298265,
2,0,0,1,0,5226.29,0.294394,0.294055,-0.207911,4,2.07462,10,-6.11373e-05,-3.68212,-1.68881,-0.0349358,0.294222,
2,0,0,1,0,5227.09,0.290398,0.290108,-0.210084,4,2.07444,10,-6.09472e-05,-3.67761,-0.618748,-0.0953538,0.290276,
2,0,0,1,0,5227.89,0.286403,0.286105,-0.212847,4,2.07425,10,-6.08965e-05,-3.67193,-0.801164,-0.0736428,0.286275,
2,0,0,1,0,5228.69,0.282408,0.282134,-0.215356,4,2.07406,10,-6.07593e-05,-3.66684,-3.30724,-0.0178396,0.282307,
2,0,0,1,0,5229.49,0.278414,0.278121,-0.217772,4,2.07388,10,-6.05671e-05,-3.662,-0.439276,-0.134312,0.278295,
2,0,0,1,0,5230.29,0.274418,0.274106,-0.219497,4,2.07368,10,-6.01653e-05,-3.65857,-0.675571,-0.0873335,0.274281,
2,0,0,0,0,5231.08,0.270423,0.270165,-0.223085,4,2.07349,10,-6.02697e-05,-3.65153,-1.0725,-0.0550119,0.270344,
2,0,0,1,0,5231.88,0.266427,0.266144,-0.225759,4,2.07329,10,-6.00843e-05,-3.64636,-0.808545,-0.0729706,0.266324,
2,0,0,1,0,5232.68,0.262432,0.262154,-0.229232,4,2.0731,10,-6.00941e-05,-3.63972,-0.70364,-0.0838497,0.262337,
2,0,0,1,0,5233.48,0.258437,0.258124,-0.232381,4,2.0729,10,-5.99831e-05,-3.6338,-0.646462,-0.091266,0.258309,
2,0,0,1,0,5234.28,0.254442,0.254137,-0.233367,4,2.07269,10,-5.93073e-05,-3.63196,-1.14549,-0.0515063,0.254324,
2,0,0,0,0,5235.08,0.250447,0.250121,-0.235851,4,2.07249,10,-5.89914e-05,-3.62736,-0.897973,-0.0657036,0.25031,
2,0,0,1,0,5235.88,0.246452,0.246179,-0.239957,4,2.07228,10,-5.90723e-05,-3.61987,-0.569913,-0.103525,0.246371,
2,0,0,1,0,5236.68,0.242456,0.242108,-0.243227,4,2.07207,10,-5.88872e-05,-3.61399,-0.737548,-0.0799948,0.242302,
2,0,0,1,0,5237.48,0.238461,0.23819,-0.246106,4,2.07186,10,-5.86198e-05,-3.60888,-0.608064,-0.0970292,0.238387,
2,0,0,1,0,5238.28,0.234467,0.234192,-0.24947,4,2.07165,10,-5.8424e-05,-3.60298,-0.570538,-0.103411,0.234392,
2,0,0,0,0,5239.08,0.230471,0.23013,-0.252918,4,2.07143,10,-5.82039e-05,-3.59702,-0.941757,-0.0626488,0.230332,
2,0,0,1,0,5239.87,0.226476,0.226182,-0.255387,4,2.07121,10,-5.77638e-05,-3.5928,-0.79175,-0.0745184,0.226386,
2,0,0,0,0,5240.67,0.222481,0.222179,-0.259573,4,2.07099,10,-5.76716e-05,-3.58574,-0.75799,-0.0778375,0.222386,
2,0,0,1,0,5241.47,0.218485,0.218207,-0.264733,4,2.07076,10,-5.77668e-05,-3.57719,-0.668333,-0.0882794,0.218419,
2,0,0,1,0,5242.27,0.21449,0.214201,-0.269464,4,2.07053,10,-5.77196e-05,-3.5695,-0.350218,-0.168467,0.214417,
2,0,0,1,0,5243.07,0.210496,0.210238,-0.274502,4,2.0703,10,-5.77108e-05,-3.56145,-0.497937,-0.118489,0.210458,
2,0,0,1,0,5243.87,0.2065,0.206186,-0.281601,4,2.07006,10,-5.80621e-05,-3.55037,-0.318845,-0.185043,0.206411,
2,0,0,0,0,5244.67,0.202505,0.202192,-0.286359,4,2.06982,10,-5.78996e-05,-3.54309,-0.548974,-0.107473,0.202421,
2,0,0,1,0,5245.47,0.198509,0.198208,-0.293143,4,2.06957,10,-5.81033e-05,-3.53292,-0.354457,-0.166452,0.198442,
2,0,0,1,0,5246.27,0.194514,0.194238,-0.302414,4,2.06932,10,-5.87403e-05,-3.5194,-0.290083,-0.20339,0.19448,
2,0,0,1,0,5247.07,0.190519,0.19019,-0.311423,4,2.06905,10,-5.92295e-05,-3.50665,-0.252891,-0.233302,0.190439,
2,0,0,1,0,5247.86,0.186524,0.186256,-0.32294,4,2.06878,10,-6.01497e-05,-3.49088,-0.262772,-0.22453,0.186515,
2,0,0,0,0,5248.66,0.182529,0.182254,-0.337199,4,2.0685,10,-6.14561e-05,-3.47211,-0.159901,-0.368979,0.182524,
2,0,0,1,0,5249.46,0.178534,0.17828,-0.357732,4,2.06821,10,-6.37765e-05,-3.44644,-0.162354,-0.363403,0.178566,
2,0,0,1,0,5250.26,0.174538,0.174233,-0.381104,4,2.06789,10,-6.64009e-05,-3.41896,-0.148358,-0.397686,0.174538,
2,0,0,1,0,5251.06,0.170543,0.170259,-0.409517,4,2.06756,10,-6.97239e-05,-3.38773,-0.106257,-0.55526,0.170587,
2,0,0,1,0,5251.86,0.166549,0.166281,-0.445398,4,2.06721,10,-7.40612e-05,-3.35125,-0.0985924,-0.598423,0.166637,
2,0,0,0,0,5252.66,0.162553,0.162251,-0.496547,4,2.06681,10,-8.05653e-05,-3.30404,-0.0819071,-0.720329,0.162648,
2,0,0,1,0,5253.46,0.158558,0.158251,-0.554448,4,2.06638,10,-8.77421e-05,-3.25614,-0.0717261,-0.822573,0.158695,
2,0,0,0,0,5254.26,0.154563,0.154262,-0.635681,4,2.06588,10,-9.80613e-05,-3.19676,-0.0740493,-0.796766,0.15477,
2,0,0,1,0,5255.06,0.150567,0.150253,-0.718584,4,2.06533,10,-0.00010797,-3.14352,-0.071531,-0.824817,0.150828,
2,0,0,1,0,5255.85,0.146572,0.146275,-0.803415,4,2.0647,10,-0.000117519,-3.09506,-0.0927756,-0.635943,0.146918,
2,0,0,1,0,5256.65,0.142578,0.142271,-0.879736,4,2.06401,10,-0.000125161,-3.05565,-0.122039,-0.483453,0.142975,
2,0,0,1,0,5257.45,0.138582,0.138262,-0.929581,4,2.06327,10,-0.000128526,-3.03171,-0.203551,-0.289853,0.139006,
2,0,0,0,0,5258.25,0.134587,0.134258,-0.959811,4,2.0625,10,-0.000128863,-3.01781,-0.495743,-0.119013,0.135026,
2,0,0,1,0,5259.05,0.130591,0.130298,-0.967911,4,2.06171,10,-0.000126117,-3.01416,3.95655,0.014912,0.131072,
2,0,0,1,0,5259.85,0.126596,0.126294,-0.946933,4,2.06093,10,-0.000119592,-3.02368,0.365482,0.16143,0.127051,
2,0,0,1,0,5260.65,0.122602,0.12229,-0.923333,4,2.06016,10,-0.000112914,-3.03464,0.222339,0.26536,0.123028,
2,0,0,1,0,5261.45,0.118607,0.118287,-0.885304,4,2.05942,10,-0.00010472,-3.05291,0.224553,0.262745,0.118995,
2,0,0,0,0,5262.25,0.114611,0.11433,-0.842371,4,2.05872,10,-9.63083e-05,-3.0745,0.172738,0.341558,0.115004,
2,0,0,1,0,5263.05,0.110616,0.110319,-0.800469,4,2.05804,10,-8.83066e-05,-3.09666,0.187015,0.315483,0.110959,
2,0,0,1,0,5263.85,0.10662,0.106328,-0.762267,4,2.0574,10,-8.10503e-05,-3.11789,0.229238,0.257374,0.106938,
2,0,0,1,0,5264.64,0.102625,0.102327,-0.731966,4,2.05679,10,-7.49e-05,-3.13551,0.229759,0.256791,0.102913,
2,0,0,1,0,5265.44,0.0986305,0.0983181,-0.707916,4,2.0562,10,-6.9601e-05,-3.15002,0.333523,0.176899,0.0988844,
2,0,0,0,0,5266.24,0.0946351,0.094335,-0.687089,4,2.05562,10,-6.48166e-05,-3.16299,0.359577,0.164082,0.0948847,
2,0,0,1,0,5267.04,0.0906399,0.0903575,-0.674838,4,2.05506,10,-6.09767e-05,-3.1708,0.395653,0.149121,0.0908973,
2,0,0,0,0,5267.84,0.0866448,0.0863375,-0.661587,4,2.05451,10,-5.71197e-05,-3.17941,0.637848,0.0924985,0.0868667,
2,0,0,1,0,5268.64,0.0826492,0.082348,-0.651369,4,2.05397,10,-5.36389e-05,-3.18617,0.465283,0.126805,0.0828691,
2,0,0,1,0,5269.44,0.0786544,0.0783696,-0.638086,4,2.05344,10,-5.00065e-05,-3.19512,0.470899,0.125292,0.07888,
2,0,0,1,0,5270.24,0.0746596,0.0743711,-0.623345,4,2.05292,10,-4.63589e-05,-3.20527,0.426201,0.138432,0.0748698,
2,0,0,1,0,5271.04,0.0706641,0.0703444,-0.607723,4,2.05241,10,-4.275e-05,-3.21629,0.311773,0.18924,0.0708306,
2,0,0,0,0,5271.84,0.0666689,0.0663912,-0.590262,4,2.05192,10,-3.91882e-05,-3.22896,0.343883,0.17157,0.0668634,
2,0,0,1,0,5272.63,0.0626737,0.0623892,-0.571472,4,2.05143,10,-3.56537e-05,-3.24301,0.267853,0.22027,0.0628464,
2,0,0,1,0,5273.43,0.0586783,0.0583384,-0.556269,4,2.05097,10,-3.24518e-05,-3.25472,0.285711,0.206502,0.0587834,
2,0,0,1,0,5274.23,0.0546835,0.0543612,-0.540411,4,2.05051,10,-2.93774e-05,-3.26728,0.403161,0.146343,0.0547935,
2,0,0,1,0,5275.03,0.0506886,0.0504125,-0.525879,4,2.05007,10,-2.65108e-05,-3.27911,0.385363,0.153102,0.0508332,
2,0,0,0,0,5275.83,0.046693,0.0463909,-0.512523,4,2.04964,10,-2.37764e-05,-3.29029,0.360896,0.163482,0.0468009,
2,0,0,1,0,5276.63,0.0426979,0.0424175,-0.503906,4,2.04921,10,-2.13745e-05,-3.29765,0.52741,0.111867,0.0428207,
2,0,0,1,0,5277.43,0.0387022,0.0383991,-0.495326,4,2.0488,10,-1.90201e-05,-3.30511,0.502261,0.117469,0.0387954,
2,0,0,1,0,5278.23,0.0347074,0.0343944,-0.488609,4,2.04839,10,-1.68054e-05,-3.31104,1.12287,0.0525441,0.0347853,
2,0,0,1,0,5279.03,0.0307126,0.0304128,-0.482163,4,2.04799,10,-1.46639e-05,-3.31681,1.31156,0.0449846,0.0307985,
2,0,0,0,0,5279.83,0.0267172,0.0264001,-0.479688,4,2.04759,10,-1.26638e-05,-3.31904,0.751617,0.0784975,0.0267839,
2,0,0,1,0,5280.63,0.022722,0.0224162,-0.479261,4,2.04719,10,-1.07432e-05,-3.31943,-1.49031,-0.0395891,0.0227996,
2,0,0,0,0,5281.42,0.0187268,0.0184311,-0.478155,4,2.04679,10,-8.81295e-06,-3.32043,6.93244,0.00851072,0.0188137,
2,0,0,1,0,5282.22,0.0147313,0.0144373,-0.481708,4,2.04639,10,-6.95456e-06,-3.31722,-3.3117,-0.0178156,0.0148227,
2,0,0,1,0,5283.02,0.0107365,0.0104453,-0.483127,4,2.04599,10,-5.04639e-06,-3.31594,-1.73336,-0.034038,0.0108318,
2,0,0,1,0,5283.82,0.00674163,0.00644984,-0.485278,4,2.04559,10,-3.12997e-06,-3.31401,-0.859442,-0.0686492,0.00683807,
2,0,0,1,0,5284.62,0.00274612,0.00245612,-0.489037,4,2.04518,10,-1.20114e-06,-3.31066,-0.939929,-0.0627707,0.00284735,
2,0,0,0,0,5285.11,0.000274105,-0.000122521,-0.492846,4,2.04492,10,6.03839e-08,-3.30729, , ,0.000271756,