File: Figure_codes/Fig_3-5/workspace_calculate_alpha_eff/20221101_1-115_003_TrumpetPlot_ParaChange_from10_every3_16_CV_C01_98.csv
mode,ox/red,error,control changes,counter inc.,time/s,control/V,Ewe/V,<I>/mA,cycle number,(Q-Qo)/C,I Range,P/W,log(|I|),Tafel slope mV/dec,alpha_eff,E-IR/V,
2,0,0,0,0,65014.3,2.44065e-05,-0.000382585,-0.104482,99,0.0000000E+000,10,3.99734e-08,-3.98096, , ,-0.000336613,
2,1,0,0,0,65015,0.00379485,0.00346775,0.140016,99,8.35318e-05,10,4.85541e-07,-3.85382,0.0300983,1.96024,0.00340614,
2,1,0,1,0,65015.8,0.00779002,0.00743261,0.164182,99,0.000216381,10,1.2203e-06,-3.78467,0.0750178,0.78648,0.00736037,
2,1,0,0,0,65016.6,0.0117852,0.011494,0.179593,99,0.000364768,10,2.06424e-06,-3.74571,0.11743,0.502427,0.0114149,
2,1,0,1,0,65017.4,0.0157806,0.0154515,0.194035,99,0.000524505,10,2.99814e-06,-3.71212,0.134158,0.439781,0.0153661,
2,1,0,1,0,65018.2,0.0197754,0.0194649,0.206078,99,0.000694419,10,4.01127e-06,-3.68597,0.152935,0.385784,0.0193742,
2,1,0,1,0,65019,0.0237704,0.0235069,0.218772,99,0.000874624,10,5.14266e-06,-3.66001,0.151193,0.39023,0.0234107,
2,1,0,1,0,65019.8,0.0277659,0.0274531,0.231646,99,0.00106475,10,6.35939e-06,-3.63518,0.157043,0.375693,0.0273512,
2,1,0,0,0,65020.6,0.0317611,0.0314126,0.244724,99,0.00126585,10,7.68743e-06,-3.61132,0.181372,0.325299,0.031305,
2,1,0,1,0,65021.4,0.0357567,0.0354225,0.258675,99,0.00147753,10,9.16292e-06,-3.58725,0.188175,0.313538,0.0353087,
2,1,0,1,0,65022.2,0.0397516,0.0393968,0.271832,99,0.00169988,10,1.07093e-05,-3.5657,0.176519,0.334241,0.0392772,
2,1,0,1,0,65023,0.0437465,0.0434481,0.283207,99,0.00193319,10,1.23048e-05,-3.5479,0.193048,0.305624,0.0433234,
2,1,0,1,0,65023.8,0.0477413,0.0474158,0.298382,99,0.00217688,10,1.4148e-05,-3.52523,0.213621,0.276191,0.0472846,
2,1,0,0,0,65024.6,0.0517369,0.0513812,0.310574,99,0.0024309,10,1.59577e-05,-3.50783,0.218263,0.270317,0.0512445,
2,1,0,1,0,65025.4,0.0557321,0.0553831,0.322398,99,0.0026948,10,1.78554e-05,-3.49161,0.317671,0.185727,0.0552413,
2,1,0,1,0,65026.2,0.0597277,0.0594142,0.333067,99,0.00296693,10,1.97889e-05,-3.47747,0.27236,0.216625,0.0592676,
2,1,0,1,0,65027,0.0637226,0.0634042,0.342072,99,0.00324739,10,2.16888e-05,-3.46588,0.28561,0.206576,0.0632536,
2,1,0,1,0,65027.8,0.0677174,0.0673856,0.352631,99,0.00353634,10,2.37623e-05,-3.45268,0.514611,0.11465,0.0672304,
2,1,0,0,0,65028.6,0.0717128,0.0713772,0.361265,99,0.00383213,10,2.57861e-05,-3.44217,0.328969,0.179348,0.0712183,
2,1,0,1,0,65029.4,0.075708,0.075411,0.36863,99,0.00413488,10,2.77987e-05,-3.43341,0.425203,0.138757,0.0752488,
2,1,0,0,0,65030.2,0.0797031,0.0793123,0.377066,99,0.00444366,10,2.9906e-05,-3.42358,0.47364,0.124567,0.0791463,
2,1,0,1,0,65031,0.0836986,0.0833571,0.385159,99,0.00475896,10,3.21058e-05,-3.41436,0.341737,0.172648,0.0831876,
2,1,0,1,0,65031.8,0.0876935,0.0873831,0.396347,99,0.00508197,10,3.46341e-05,-3.40192,0.343571,0.171726,0.0872088,
2,1,0,1,0,65032.6,0.0916883,0.0913835,0.409789,99,0.00541364,10,3.74479e-05,-3.38744,0.263445,0.223955,0.0912032,
2,1,0,1,0,65033.4,0.0956838,0.0953626,0.422638,99,0.0057568,10,4.03038e-05,-3.37403,0.239765,0.246074,0.0951766,
2,1,0,0,0,65034.2,0.099679,0.099338,0.442364,99,0.00611349,10,4.39435e-05,-3.35422,0.233326,0.252865,0.0991434,
2,1,0,1,0,65035,0.103674,0.103358,0.462199,99,0.0064856,10,4.7772e-05,-3.33517,0.183252,0.321961,0.103155,
2,1,0,1,0,65035.8,0.10767,0.107309,0.481753,99,0.0068751,10,5.16966e-05,-3.31718,0.220218,0.267917,0.107097,
2,1,0,1,0,65036.6,0.111664,0.111334,0.502516,99,0.00727997,10,5.59473e-05,-3.29885,0.250045,0.235957,0.111113,
2,1,0,1,0,65037.4,0.115659,0.115308,0.517335,99,0.00769855,10,5.96531e-05,-3.28623,0.31994,0.18441,0.115081,
2,1,0,0,0,65038.2,0.119655,0.119355,0.529953,99,0.00812864,10,6.32528e-05,-3.27576,0.617525,0.0955428,0.119122,
2,1,0,1,0,65039,0.12365,0.123321,0.538777,99,0.00856619,10,6.64427e-05,-3.26859,0.692254,0.0852289,0.123084,
2,1,0,1,0,65039.8,0.127646,0.127335,0.542192,99,0.00900935,10,6.90401e-05,-3.26585,1.89266,0.031173,0.127097,
2,1,0,1,0,65040.6,0.131641,0.131332,0.543256,99,0.00945487,10,7.13466e-05,-3.265,-0.645078,-0.0914618,0.131093,
2,1,0,1,0,65041.4,0.135635,0.135299,0.530417,99,0.00989522,10,7.17651e-05,-3.27538,-0.28109,-0.209897,0.135066,
2,1,0,0,0,65042.2,0.139631,0.139303,0.500279,99,0.0103197,10,6.96902e-05,-3.30079,-0.118812,-0.496582,0.139083,
2,1,0,1,0,65043,0.143626,0.143304,0.456068,99,0.0107137,10,6.53561e-05,-3.34097,-0.082904,-0.711667,0.143103,
2,1,0,0,0,65043.8,0.147621,0.147298,0.402977,99,0.0110674,10,5.93577e-05,-3.39472,-0.0716856,-0.823038,0.147121,
2,1,0,1,0,65044.6,0.151617,0.151287,0.355909,99,0.0113802,10,5.38443e-05,-3.44866,-0.0804798,-0.733104,0.15113,
2,1,0,1,0,65045.4,0.155612,0.155259,0.322199,99,0.0116598,10,5.00241e-05,-3.49188,-0.1133,-0.52074,0.155117,
2,1,0,1,0,65046.2,0.159606,0.159259,0.300271,99,0.0119178,10,4.78209e-05,-3.52249,-0.163992,-0.359775,0.159127,
2,1,0,1,0,65047,0.163602,0.163247,0.285642,99,0.0121621,10,4.66301e-05,-3.54418,-0.204766,-0.288134,0.163121,
2,1,0,0,0,65047.8,0.167597,0.167267,0.276555,99,0.0123967,10,4.62585e-05,-3.55822,-0.375922,-0.156948,0.167145,
2,1,0,1,0,65048.6,0.171592,0.17128,0.269258,99,0.0126252,10,4.61186e-05,-3.56983,-0.400668,-0.147254,0.171162,
2,1,0,1,0,65049.4,0.175588,0.175273,0.265327,99,0.0128487,10,4.65045e-05,-3.57622,-0.597787,-0.0986974,0.175156,
2,1,0,1,0,65050.2,0.179582,0.179285,0.261519,99,0.013069,10,4.68866e-05,-3.5825,-0.939027,-0.062831,0.17917,
2,1,0,1,0,65051,0.183577,0.183244,0.25907,99,0.013287,10,4.74731e-05,-3.58658,-1.33924,-0.0440548,0.18313,
2,1,0,0,0,65051.8,0.187573,0.187238,0.256132,99,0.0135029,10,4.79576e-05,-3.59154,-0.867877,-0.067982,0.187126,
2,1,0,1,0,65052.6,0.191568,0.191216,0.254901,99,0.0137172,10,4.87411e-05,-3.59363,-1.51584,-0.0389223,0.191104,
2,1,0,0,0,65053.4,0.195563,0.195201,0.253482,99,0.0139302,10,4.948e-05,-3.59605,-0.751382,-0.078522,0.195089,
2,1,0,1,0,65054.2,0.199559,0.199224,0.251969,99,0.014142,10,5.01982e-05,-3.59865,5.93671,0.00993816,0.199113,
2,1,0,1,0,65055,0.203553,0.203189,0.249699,99,0.0143529,10,5.0736e-05,-3.60258,-0.965007,-0.0611394,0.203079,
2,1,0,1,0,65055.8,0.207548,0.207231,0.250903,99,0.0145627,10,5.19948e-05,-3.60049,-4.29666,-0.0137316,0.20712,
2,1,0,1,0,65056.6,0.211544,0.21121,0.247801,99,0.0147714,10,5.23381e-05,-3.6059,-2.77276,-0.0212785,0.211101,
2,1,0,0,0,65057.4,0.215539,0.215207,0.247118,99,0.0149795,10,5.31814e-05,-3.6071,-1.22552,-0.0481429,0.215098,
2,1,0,1,0,65058.2,0.219535,0.219234,0.246979,99,0.0151864,10,5.41462e-05,-3.60734,148.478,0.000397365,0.219126,
2,1,0,1,0,65059,0.223529,0.223202,0.2462,99,0.0153928,10,5.49524e-05,-3.60871,-2.34491,-0.0251609,0.223094,
2,1,0,1,0,65059.8,0.227524,0.227201,0.244975,99,0.0155984,10,5.56584e-05,-3.61088,-1.24732,-0.0473013,0.227093,
2,1,0,1,0,65060.6,0.23152,0.231197,0.244009,99,0.0158032,10,5.64142e-05,-3.61259,-67.3433,-0.000876108,0.23109,
2,1,0,0,0,65061.4,0.235515,0.235224,0.243049,99,0.0160078,10,5.71709e-05,-3.61431,13.9138,0.00424039,0.235117,
2,1,0,1,0,65062.2,0.23951,0.239171,0.243058,99,0.0162116,10,5.81322e-05,-3.61429,-3.2084,-0.0183892,0.239064,
2,1,0,1,0,65063,0.243506,0.243183,0.241561,99,0.0164147,10,5.87435e-05,-3.61697,-5.71944,-0.0103157,0.243076,
2,1,0,1,0,65063.8,0.2475,0.247212,0.241376,99,0.0166173,10,5.96709e-05,-3.61731,-2.28616,-0.0258074,0.247106,
2,1,0,1,0,65064.6,0.251495,0.251161,0.241107,99,0.0168193,10,6.05568e-05,-3.61779,-3.99956,-0.0147516,0.251055,
2,1,0,0,0,65065.4,0.255491,0.255149,0.24039,99,0.0170207,10,6.13352e-05,-3.61908,-2.54377,-0.0231939,0.255043,
2,1,0,1,0,65066.2,0.259486,0.259165,0.238834,99,0.0172215,10,6.18972e-05,-3.6219,-0.832871,-0.0708393,0.25906,
2,1,0,0,0,65067,0.263481,0.263141,0.239316,99,0.0174215,10,6.29738e-05,-3.62103,4.6332,0.0127342,0.263036,
2,1,0,1,0,65067.8,0.267477,0.267178,0.237007,99,0.0176209,10,6.33232e-05,-3.62524,-2.14807,-0.0274665,0.267074,
2,1,0,1,0,65068.6,0.271471,0.271115,0.236961,99,0.0178198,10,6.42436e-05,-3.62532,-3.22071,-0.0183189,0.271011,
2,1,0,1,0,65069.4,0.275466,0.275163,0.236033,99,0.0180178,10,6.49475e-05,-3.62703,-1.95593,-0.0301647,0.275059,
2,1,0,1,0,65070.2,0.279462,0.279145,0.235266,99,0.0182151,10,6.56733e-05,-3.62844,-2.74313,-0.0215083,0.279041,
2,1,0,0,0,65071,0.283457,0.283137,0.234085,99,0.0184114,10,6.62783e-05,-3.63063,-3.83898,-0.0153687,0.283034,
2,1,0,1,0,65071.8,0.287452,0.287088,0.233028,99,0.0186071,10,6.68995e-05,-3.63259,-3.79884,-0.015531,0.286986,
2,1,0,1,0,65072.6,0.291448,0.291117,0.232695,99,0.0188022,10,6.77416e-05,-3.63321,-1.10266,-0.0535072,0.291015,
2,1,0,1,0,65073.4,0.295442,0.295141,0.231462,99,0.0189964,10,6.83141e-05,-3.63552,4.82535,0.0122271,0.295039,
2,1,0,1,0,65074.2,0.299437,0.299109,0.230407,99,0.0191901,10,6.89167e-05,-3.6375,-2.45081,-0.0240736,0.299007,
2,1,0,0,0,65075,0.303433,0.303093,0.23039,99,0.019383,10,6.98296e-05,-3.63754,-1.92011,-0.0307273,0.302992,
2,1,0,1,0,65075.8,0.307428,0.307136,0.229593,99,0.0195753,10,7.05165e-05,-3.63904,-7.63318,-0.00772941,0.307035,
2,1,0,1,0,65076.6,0.311424,0.311089,0.22832,99,0.0197672,10,7.10279e-05,-3.64146,-5.68917,-0.0103706,0.310988,
2,1,0,1,0,65077.4,0.315418,0.315087,0.228269,99,0.0199582,10,7.19246e-05,-3.64155,-1.38272,-0.0426695,0.314987,
2,1,0,1,0,65078.2,0.319413,0.319124,0.226958,99,0.0201486,10,7.24277e-05,-3.64406,-3.17044,-0.0186094,0.319024,
2,1,0,0,0,65079,0.323409,0.323118,0.227322,99,0.0203387,10,7.34517e-05,-3.64336,-2.03743,-0.0289581,0.323018,
2,1,0,1,0,65079.8,0.327404,0.327086,0.227118,99,0.0205282,10,7.42872e-05,-3.64375,11.9575,0.00493413,0.326986,
2,1,0,0,0,65080.6,0.331399,0.331094,0.225154,99,0.0207174,10,7.45471e-05,-3.64752,-1.94244,-0.0303742,0.330995,
2,1,0,1,0,65081.4,0.335395,0.335096,0.226152,99,0.0209061,10,7.57828e-05,-3.6456,14.1797,0.00416088,0.334997,
2,1,0,1,0,65082.2,0.339389,0.339081,0.225187,99,0.0210941,10,7.63565e-05,-3.64746,-5.44706,-0.0108315,0.338982,
2,1,0,1,0,65083,0.343384,0.343076,0.224512,99,0.0212819,10,7.70247e-05,-3.64876,-9.93643,-0.00593774,0.342978,
2,1,0,1,0,65083.8,0.34738,0.347052,0.224184,99,0.0214691,10,7.78036e-05,-3.64939,-3.00448,-0.0196373,0.346954,
2,1,0,0,0,65084.6,0.351375,0.351049,0.223784,99,0.0216561,10,7.8559e-05,-3.65017,-2.1544,-0.0273858,0.35095,
2,1,0,1,0,65085.4,0.35537,0.355032,0.222704,99,0.0218426,10,7.9067e-05,-3.65227,-1.68927,-0.0349263,0.354934,
2,1,0,1,0,65086.2,0.359366,0.359033,0.222769,99,0.0220285,10,7.99815e-05,-3.65214,1.68678,0.0349779,0.358935,
2,1,0,1,0,65087,0.36336,0.363057,0.221573,99,0.0222143,10,8.04434e-05,-3.65448,-1.98233,-0.0297629,0.362959,
2,1,0,1,0,65087.8,0.367355,0.367068,0.221717,99,0.0223995,10,8.1385e-05,-3.6542,-1.785,-0.0330533,0.36697,
2,1,0,0,0,65088.6,0.371351,0.371049,0.220552,99,0.0225842,10,8.18356e-05,-3.65649,2.23861,0.0263557,0.370952,
2,1,0,1,0,65089.4,0.375346,0.375055,0.221619,99,0.0227689,10,8.31196e-05,-3.65439,-4.22522,-0.0139638,0.374958,
2,1,0,1,0,65090.2,0.379342,0.379014,0.2206,99,0.022953,10,8.36105e-05,-3.65639,-3.65976,-0.0161213,0.378917,
2,1,0,1,0,65091,0.383336,0.383006,0.220812,99,0.0231369,10,8.45725e-05,-3.65598,-4.55317,-0.012958,0.382909,
2,1,0,1,0,65091.8,0.387331,0.387007,0.220255,99,0.0233208,10,8.52404e-05,-3.65707,-2.61174,-0.0225903,0.38691,
2,1,0,0,0,65092.6,0.391327,0.391,0.219775,99,0.0235043,10,8.59318e-05,-3.65802,2.45446,0.0240378,0.390903,
2,1,0,1,0,65093.4,0.395322,0.39498,0.219881,99,0.0236875,10,8.68486e-05,-3.65781,-4.63542,-0.0127281,0.394884,
2,1,0,0,0,65094.2,0.399317,0.398979,0.220116,99,0.0238705,10,8.78218e-05,-3.65735,-9.21184,-0.0064048,0.398882,
2,1,0,1,0,65095,0.403313,0.402973,0.219588,99,0.0240534,10,8.84882e-05,-3.65839,-14.9415,-0.00394874,0.402877,
2,1,0,1,0,65095.7,0.407307,0.407065,0.219546,99,0.0242361,10,8.93694e-05,-3.65847,-6.41328,-0.00919965,0.406968,
2,1,0,1,0,65096.5,0.411302,0.410914,0.219353,99,0.0244183,10,9.01352e-05,-3.65886,18.3294,0.00321887,0.410817,
2,1,0,1,0,65097.3,0.415298,0.415004,0.219255,99,0.0246007,10,9.09917e-05,-3.65905,-127.558,-0.000462536,0.414908,
2,1,0,0,0,65098.1,0.419293,0.418988,0.218684,99,0.0247829,10,9.16259e-05,-3.66018,-2.14213,-0.0275427,0.418892,
2,1,0,1,0,65098.9,0.423288,0.422992,0.218556,99,0.0249647,10,9.24474e-05,-3.66044,4.11831,0.0143263,0.422896,
2,1,0,1,0,65099.7,0.427283,0.426968,0.21802,99,0.0251466,10,9.30875e-05,-3.6615,-5.71444,-0.0103247,0.426872,
2,1,0,1,0,65100.5,0.431278,0.431018,0.218287,99,0.0253279,10,9.40855e-05,-3.66097,-273.337,-0.000215851,0.430922,
2,1,0,1,0,65101.3,0.435273,0.434998,0.218256,99,0.0255091,10,9.4941e-05,-3.66103,21.9841,0.00268375,0.434902,
2,1,0,0,0,65102.1,0.439269,0.438964,0.217585,99,0.0256903,10,9.55121e-05,-3.66237,-2.28647,-0.0258039,0.438868,
2,1,0,1,0,65102.9,0.443264,0.442956,0.217802,99,0.0258712,10,9.64767e-05,-3.66194,3.64362,0.0161927,0.442861,
2,1,0,0,0,65103.7,0.447259,0.446931,0.217802,99,0.0260523,10,9.73426e-05,-3.66194,-6.02002,-0.00980064,0.446835,
2,1,0,1,0,65104.5,0.451254,0.450947,0.217775,99,0.0262333,10,9.8205e-05,-3.66199,-2.43424,-0.0242376,0.450851,
2,1,0,1,0,65105.3,0.455249,0.454953,0.217605,99,0.0264142,10,9.90001e-05,-3.66233,1.55024,0.0380587,0.454857,
2,1,0,1,0,65106.1,0.459244,0.458969,0.217448,99,0.0265955,10,9.98018e-05,-3.66265,-8.46437,-0.00697039,0.458873,
2,1,0,1,0,65106.9,0.46324,0.462911,0.218927,99,0.0267767,10,0.000101344,-3.6597,2.6015,0.0226792,0.462815,
2,1,0,0,0,65107.7,0.467235,0.466906,0.218704,99,0.026958,10,0.000102114,-3.66014,2.4892,0.0237024,0.466809,
2,1,0,1,0,65108.5,0.471231,0.470915,0.220188,99,0.0271398,10,0.00010369,-3.65721,-4.01049,-0.0147114,0.470818,
2,1,0,1,0,65109.3,0.475225,0.47493,0.220276,99,0.0273216,10,0.000104616,-3.65703,1.54953,0.038076,0.474833,
2,1,0,1,0,65110.1,0.47922,0.478894,0.220405,99,0.027504,10,0.000105551,-3.65678,9.26126,0.00637063,0.478797,
2,1,0,1,0,65110.9,0.483216,0.482926,0.221056,99,0.0276867,10,0.000106754,-3.6555,-4.73476,-0.012461,0.482829,
2,1,0,0,0,65111.7,0.487211,0.486917,0.220306,99,0.0278694,10,0.000107271,-3.65697,1.64256,0.0359196,0.48682,
2,1,0,1,0,65112.5,0.491206,0.490867,0.22059,99,0.0280526,10,0.00010828,-3.65641,31.1077,0.00189664,0.49077,
2,1,0,1,0,65113.3,0.495201,0.494941,0.2226,99,0.0282362,10,0.000110174,-3.65247,1.13291,0.0520783,0.494843,
2,1,0,1,0,65114.1,0.499196,0.498889,0.223667,99,0.0284207,10,0.000111585,-3.6504,1.91226,0.0308535,0.49879,
2,1,0,1,0,65114.9,0.503191,0.502904,0.224037,99,0.0286057,10,0.000112669,-3.64968,-8.28541,-0.00712095,0.502805,
2,1,0,0,0,65115.7,0.507187,0.50692,0.22429,99,0.0287911,10,0.000113697,-3.64919,3.44608,0.0171209,0.506821,
2,1,0,1,0,65116.5,0.511182,0.510841,0.225534,99,0.0289771,10,0.000115212,-3.64679,1.5353,0.038429,0.510742,
2,1,0,0,0,65117.3,0.515177,0.514897,0.225877,99,0.0291638,10,0.000116303,-3.64613,12.094,0.00487847,0.514797,
2,1,0,1,0,65118.1,0.519173,0.518884,0.227334,99,0.0293512,10,0.00011796,-3.64334,1.01563,0.0580922,0.518784,
2,1,0,1,0,65118.9,0.523167,0.522902,0.228503,99,0.0295395,10,0.000119485,-3.64111,1.56097,0.037797,0.522802,
2,1,0,1,0,65119.7,0.527162,0.526845,0.229777,99,0.0297287,10,0.000121057,-3.63869,1.47783,0.0399233,0.526744,
2,1,0,1,0,65120.5,0.531158,0.530855,0.231532,99,0.029919,10,0.00012291,-3.63539,1.86775,0.0315889,0.530753,
2,1,0,0,0,65121.3,0.535153,0.534829,0.23265,99,0.0301103,10,0.000124428,-3.6333,1.78409,0.03307,0.534727,
2,1,0,1,0,65122.1,0.539148,0.538853,0.234085,99,0.0303027,10,0.000126137,-3.63063,1.33078,0.044335,0.53875,
2,1,0,1,0,65122.9,0.543143,0.542839,0.235489,99,0.0304964,10,0.000127833,-3.62803,1.4062,0.0419571,0.542736,
2,1,0,1,0,65123.7,0.547138,0.546807,0.238134,99,0.0306916,10,0.000130213,-3.62318,1.52045,0.0388044,0.546702,
2,1,0,1,0,65124.5,0.551133,0.550868,0.239446,99,0.0308882,10,0.000131903,-3.62079,0.655704,0.0899796,0.550763,
2,1,0,0,0,65125.3,0.555129,0.554824,0.241569,99,0.0310867,10,0.000134028,-3.61696,1.62237,0.0363665,0.554718,
2,1,0,1,0,65126.1,0.559124,0.558844,0.244858,99,0.0312866,10,0.000136838,-3.61109,0.78138,0.0755074,0.558736,
2,1,0,1,0,65126.9,0.56312,0.562834,0.246802,99,0.0314886,10,0.000138908,-3.60765,0.678165,0.0869995,0.562725,
2,1,0,1,0,65127.7,0.567114,0.566811,0.248941,99,0.0316926,10,0.000141102,-3.6039,1.13304,0.0520722,0.566701,
2,1,0,1,0,65128.5,0.571109,0.570809,0.25214,99,0.0318987,10,0.000143924,-3.59836,0.813866,0.0724935,0.570698,
2,1,0,0,0,65129.3,0.575105,0.574801,0.256264,99,0.0321076,10,0.000147301,-3.59131,0.772705,0.0763552,0.574688,
2,1,0,1,0,65130.1,0.5791,0.578841,0.259955,99,0.0323192,10,0.000150473,-3.5851,0.531479,0.111011,0.578727,
2,1,0,0,0,65130.9,0.583095,0.582783,0.263125,99,0.0325337,10,0.000153345,-3.57984,0.54095,0.109067,0.582667,
2,1,0,1,0,65131.7,0.58709,0.586808,0.267247,99,0.0327515,10,0.000156823,-3.57309,0.680778,0.0866656,0.586691,
2,1,0,1,0,65132.5,0.591085,0.590823,0.272647,99,0.0329727,10,0.000161086,-3.5644,0.442853,0.133227,0.590703,
2,1,0,1,0,65133.3,0.59508,0.59476,0.278131,99,0.0331979,10,0.000165421,-3.55575,0.414452,0.142357,0.594637,
2,1,0,1,0,65134.1,0.599076,0.59876,0.283805,99,0.0334277,10,0.000169931,-3.54698,0.52694,0.111967,0.598635,
2,1,0,0,0,65134.9,0.603071,0.602791,0.290171,99,0.0336625,10,0.000174913,-3.53735,0.342848,0.172088,0.602664,
2,1,0,1,0,65135.7,0.607066,0.606754,0.297645,99,0.0339031,10,0.000180598,-3.5263,0.334573,0.176344,0.606623,
2,1,0,1,0,65136.5,0.611061,0.61078,0.306252,99,0.0341501,10,0.000187053,-3.51392,0.331318,0.178077,0.610645,
2,1,0,1,0,65137.3,0.615056,0.614767,0.316192,99,0.0344044,10,0.000194385,-3.50005,0.267453,0.2206,0.614628,
2,1,0,1,0,65138.1,0.619051,0.618779,0.327326,99,0.034667,10,0.000202543,-3.48502,0.251537,0.234558,0.618635,
2,1,0,0,0,65138.9,0.623047,0.622793,0.34006,99,0.0349388,10,0.000211787,-3.46844,0.224566,0.262729,0.622643,
2,1,0,1,0,65139.7,0.627042,0.626732,0.354016,99,0.0352216,10,0.000221873,-3.45098,0.203092,0.290508,0.626577,
2,1,0,1,0,65140.5,0.631037,0.630755,0.37149,99,0.0355173,10,0.000234319,-3.43005,0.196701,0.299947,0.630591,
2,1,0,1,0,65141.3,0.635032,0.634747,0.391456,99,0.0358274,10,0.000248475,-3.40732,0.16441,0.358859,0.634575,
2,1,0,1,0,65142.1,0.639027,0.638791,0.4148,99,0.0361545,10,0.00026497,-3.38216,0.157273,0.375143,0.638609,
2,1,0,1,0,65142.9,0.643022,0.642732,0.441272,99,0.0365015,10,0.00028362,-3.35529,0.144334,0.408775,0.642538,
2,1,0,1,0,65143.7,0.647018,0.646719,0.471344,99,0.0368711,10,0.000304827,-3.32666,0.127834,0.461537,0.646511,
2,1,0,0,0,65144.5,0.651013,0.650692,0.507417,99,0.0372675,10,0.000330172,-3.29463,0.121336,0.486252,0.650469,
2,1,0,1,0,65145.3,0.655008,0.654745,0.548547,99,0.0376944,10,0.000359159,-3.26079,0.117722,0.501183,0.654504,
2,1,0,1,0,65146.1,0.659003,0.658731,0.594934,99,0.0381558,10,0.000391902,-3.22553,0.104822,0.562861,0.658469,
2,1,0,1,0,65146.9,0.662998,0.6627,0.651322,99,0.0386586,10,0.000431631,-3.1862,0.0999918,0.590048,0.662413,
2,1,0,1,0,65147.7,0.666994,0.666755,0.714659,99,0.039209,10,0.000476503,-3.1459,0.095878,0.615365,0.666441,
2,1,0,0,0,65148.5,0.670989,0.670688,0.787563,99,0.0398139,10,0.000528209,-3.10371,0.0916723,0.643597,0.670342,
2,1,0,1,0,65149.3,0.674984,0.674699,0.869861,99,0.0404811,10,0.000586894,-3.06055,0.090402,0.652641,0.674316,
2,1,0,1,0,65150.1,0.67898,0.678718,0.964521,99,0.0412189,10,0.000654637,-3.01569,0.0880214,0.670292,0.678293,
2,1,0,1,0,65150.9,0.682974,0.682667,1.06983,99,0.0420367,10,0.000730336,-2.97069,0.0860131,0.685942,0.682196,
2,1,0,1,0,65151.7,0.686969,0.686667,1.18875,99,0.0429436,10,0.000816274,-2.92491,0.0870094,0.678088,0.686144,
2,1,0,0,0,65152.5,0.690965,0.690695,1.32042,99,0.0439512,10,0.000912007,-2.87929,0.0863048,0.683624,0.690114,
2,1,0,1,0,65153.3,0.69496,0.694707,1.46698,99,0.0450698,10,0.00101912,-2.83358,0.0862854,0.683777,0.694062,
2,1,0,0,0,65154.1,0.698955,0.698699,1.62704,99,0.0463104,10,0.00113681,-2.7886,0.0883,0.668177,0.697983,
2,1,0,1,0,65154.9,0.70295,0.702676,1.8023,99,0.0476856,10,0.00126643,-2.74417,0.0873381,0.675536,0.701883,
2,1,0,1,0,65155.7,0.706945,0.706694,1.99402,99,0.0492073,10,0.00140916,-2.70027,0.09227,0.639427,0.705817,
2,1,0,1,0,65156.5,0.71094,0.71065,2.19932,99,0.0508867,10,0.00156295,-2.65771,0.0921858,0.640012,0.709682,
2,1,0,1,0,65157.3,0.714936,0.714605,2.41974,99,0.0527372,10,0.00172916,-2.61623,0.0925916,0.637207,0.71354,
2,1,0,0,0,65158.1,0.718931,0.718618,2.65716,99,0.0547698,10,0.00190948,-2.57558,0.0993233,0.59402,0.717448,
2,1,0,1,0,65158.9,0.722927,0.722599,2.90897,99,0.0569982,10,0.00210202,-2.53626,0.10046,0.587299,0.721319,
2,1,0,1,0,65159.7,0.726921,0.726624,3.17572,99,0.0594332,10,0.00230755,-2.49816,0.101116,0.583488,0.725226,
2,1,0,1,0,65160.5,0.730916,0.730604,3.46111,99,0.0620893,10,0.0025287,-2.46078,0.107235,0.550195,0.729081,
2,1,0,1,0,65161.3,0.734911,0.734652,3.76271,99,0.0649798,10,0.00276428,-2.4245,0.105269,0.560469,0.732996,
2,1,0,0,0,65162.1,0.738907,0.738635,4.08264,99,0.0681188,10,0.00301558,-2.38906,0.111605,0.528648,0.736838,
2,1,0,1,0,65162.9,0.742902,0.742621,4.41918,99,0.0715196,10,0.00328178,-2.35466,0.111612,0.528616,0.740676,
2,1,0,1,0,65163.7,0.746897,0.746616,4.7777,99,0.0751983,10,0.00356711,-2.32078,0.116362,0.50704,0.744514,
2,1,0,1,0,65164.5,0.750892,0.750595,5.15383,99,0.0791699,10,0.00386844,-2.28787,0.116472,0.506559,0.748328,
2,1,0,1,0,65165.3,0.754887,0.754587,5.55203,99,0.0834518,10,0.00418949,-2.25555,0.117728,0.501153,0.752145,
2,1,0,0,0,65166.1,0.758883,0.758573,5.97319,99,0.0880617,10,0.0045311,-2.22379,0.121817,0.484335,0.755944,
2,1,0,1,0,65166.9,0.762878,0.762627,6.4189,99,0.0930165,10,0.00489522,-2.19254,0.12273,0.480731,0.759802,
2,1,0,0,0,65167.7,0.766873,0.766597,6.88754,99,0.0983368,10,0.00527997,-2.16194,0.124309,0.474624,0.763566,
2,1,0,1,0,65168.5,0.770868,0.770598,7.38499,99,0.104043,10,0.00569086,-2.13165,0.125852,0.468805,0.767349,
2,1,0,1,0,65169.3,0.774863,0.774595,7.90705,99,0.110156,10,0.00612477,-2.10199,0.128051,0.460754,0.771116,
2,1,0,1,0,65170.1,0.778858,0.778535,8.4588,99,0.116699,10,0.00658547,-2.07269,0.127632,0.462266,0.774813,
2,1,0,1,0,65170.9,0.782854,0.782558,9.0413,99,0.123697,10,0.00707534,-2.04377,0.130048,0.45368,0.77858,
2,1,0,0,0,65171.7,0.786849,0.78657,9.66187,99,0.131173,10,0.00759974,-2.01494,0.128217,0.460157,0.782319,
2,1,0,1,0,65172.5,0.790844,0.790577,10.3238,99,0.139161,10,0.00816177,-1.98616,0.131115,0.449988,0.786034,
2,1,0,1,0,65173.3,0.794839,0.794562,11.0194,99,0.147692,10,0.0087556,-1.95784,0.127842,0.461508,0.789713,
2,1,0,1,0,65174.1,0.798834,0.798566,11.7593,99,0.156797,10,0.00939059,-1.92962,0.131784,0.447704,0.793391,
2,1,0,1,0,65174.9,0.802829,0.802539,12.5524,99,0.166513,10,0.0100738,-1.90127,0.128154,0.460382,0.797016,
2,1,0,0,0,65175.7,0.806825,0.806544,13.396,99,0.176884,10,0.0108045,-1.87302,0.126154,0.467682,0.80065,
2,1,0,1,0,65176.5,0.81082,0.810527,14.2938,99,0.187952,10,0.0115855,-1.84485,0.129111,0.456972,0.804238,
2,1,0,1,0,65177.3,0.814815,0.814561,15.1713,99,0.199749,10,0.012358,-1.81898,0.143015,0.412545,0.807886,
2,1,0,1,0,65178,0.81881,0.818524,16.1383,99,0.212256,10,0.0132096,-1.79214,0.130965,0.450503,0.811423,
2,1,0,1,0,65178.8,0.822805,0.82257,17.1833,99,0.225574,10,0.0141345,-1.76489,0.132334,0.445843,0.815009,
2,1,0,0,0,65179.6,0.826801,0.826566,18.2603,99,0.239741,10,0.0150934,-1.73849,0.132193,0.446318,0.818531,
2,1,0,1,0,65180.4,0.830796,0.830535,19.3903,99,0.254787,10,0.0161043,-1.71242,0.134319,0.439253,0.822003,
2,1,0,0,0,65181.2,0.834791,0.83455,20.5168,99,0.27075,10,0.0171223,-1.68789,0.152895,0.385885,0.825522,
2,1,0,1,0,65182,0.838786,0.838512,21.6693,99,0.287603,10,0.01817,-1.66415,0.145851,0.404522,0.828977,
2,1,0,1,0,65182.8,0.842781,0.842562,22.8475,99,0.305398,10,0.0192504,-1.64116,0.149936,0.3935,0.832509,
2,1,0,1,0,65183.6,0.846776,0.846541,24.0997,99,0.32416,10,0.0204014,-1.61799,0.151426,0.38963,0.835938,
2,1,0,0,0,65184.3,0.849723,0.849448,24.9613,99,0.341403,10,0.0212033,-1.60273,0.0472642,1.2483,0.838465,
2,1,0,1,0,65185.1,0.845728,0.845474,23.0928,99,0.360549,10,0.0195243,-1.63652,0.107091,0.550932,0.835313,
2,1,0,0,0,65185.9,0.841732,0.841482,21.6176,99,0.378389,10,0.0181908,-1.66519,0.119829,0.492368,0.83197,
2,1,0,1,0,65186.7,0.837737,0.837497,20.215,99,0.395092,10,0.01693,-1.69433,0.117249,0.503202,0.828603,
2,1,0,1,0,65187.5,0.833742,0.833489,18.9109,99,0.41071,10,0.015762,-1.72329,0.117327,0.502868,0.825169,
2,1,0,1,0,65188.3,0.829747,0.829541,17.6819,99,0.425313,10,0.0146679,-1.75247,0.120263,0.490591,0.821761,
2,1,0,1,0,65189.1,0.825752,0.825532,16.5364,99,0.438971,10,0.0136513,-1.78156,0.124123,0.475335,0.818256,
2,1,0,0,0,65189.9,0.821757,0.82151,15.4976,99,0.451761,10,0.0127314,-1.80974,0.119722,0.49281,0.814691,
2,1,0,1,0,65190.7,0.817761,0.817512,14.463,99,0.463719,10,0.0118237,-1.83974,0.118159,0.499325,0.811148,
2,1,0,1,0,65191.5,0.813766,0.813504,13.4916,99,0.474877,10,0.0109755,-1.86994,0.11967,0.493022,0.807567,
2,1,0,1,0,65192.3,0.809771,0.809491,12.5756,99,0.485279,10,0.0101798,-1.90047,0.116479,0.506531,0.803958,
2,1,0,1,0,65193.1,0.805776,0.805478,11.7128,99,0.494971,10,0.00943441,-1.93134,0.117477,0.502228,0.800324,
2,1,0,0,0,65193.9,0.801781,0.801523,10.9153,99,0.504001,10,0.00874886,-1.96196,0.117885,0.500487,0.796721,
2,1,0,1,0,65194.7,0.797786,0.797495,10.155,99,0.512413,10,0.00809855,-1.99332,0.118726,0.496941,0.793027,
2,1,0,1,0,65195.5,0.79379,0.793511,9.44123,99,0.520234,10,0.00749171,-2.02497,0.113334,0.520583,0.789356,
2,1,0,1,0,65196.3,0.789795,0.789511,8.77931,99,0.527504,10,0.00693137,-2.05654,0.11781,0.500808,0.785648,
2,1,0,1,0,65197.1,0.7858,0.785513,8.15707,99,0.534262,10,0.00640748,-2.08847,0.117756,0.501035,0.781923,
2,1,0,0,0,65197.9,0.781805,0.781526,7.57117,99,0.540538,10,0.00591707,-2.12084,0.114752,0.514154,0.778195,
2,1,0,1,0,65198.7,0.77781,0.77755,7.02762,99,0.546361,10,0.00546432,-2.15319,0.115763,0.509664,0.774457,
2,1,0,0,0,65199.5,0.773814,0.77353,6.51589,99,0.551763,10,0.00504023,-2.18603,0.113116,0.521589,0.770663,
2,1,0,1,0,65200.3,0.769819,0.769527,6.03479,99,0.556771,10,0.00464394,-2.21934,0.113318,0.520657,0.766872,
2,1,0,1,0,65201.1,0.765824,0.765542,5.58586,99,0.561405,10,0.00427621,-2.25291,0.114818,0.513855,0.763084,
2,1,0,1,0,65201.9,0.761829,0.761523,5.16252,99,0.565692,10,0.00393137,-2.28714,0.109179,0.540399,0.759251,
2,1,0,1,0,65202.7,0.757834,0.75758,4.76485,99,0.569651,10,0.00360975,-2.32195,0.108124,0.545672,0.755484,
2,1,0,0,0,65203.5,0.753839,0.75359,4.39091,99,0.573301,10,0.00330895,-2.35745,0.109521,0.538709,0.751658,
2,1,0,1,0,65204.3,0.749844,0.749592,4.0409,99,0.576663,10,0.00302902,-2.39352,0.104403,0.565119,0.747814,
2,1,0,1,0,65205.1,0.745848,0.745628,3.71335,99,0.579754,10,0.00276878,-2.43023,0.102467,0.575793,0.743994,
2,1,0,1,0,65205.9,0.741853,0.74157,3.40319,99,0.58259,10,0.0025237,-2.46811,0.100263,0.588454,0.740073,
2,1,0,1,0,65206.7,0.737858,0.737605,3.11063,99,0.585185,10,0.00229442,-2.50715,0.0997328,0.591581,0.736237,
2,1,0,0,0,65207.5,0.733863,0.733564,2.83879,99,0.587555,10,0.00208244,-2.54687,0.0944439,0.624709,0.732315,
2,1,0,1,0,65208.3,0.729868,0.729598,2.57974,99,0.589713,10,0.00188218,-2.58842,0.0931631,0.633298,0.728463,
2,1,0,1,0,65209.1,0.725872,0.725605,2.33934,99,0.591672,10,0.00169744,-2.63091,0.0876387,0.673219,0.724576,
2,1,0,1,0,65209.9,0.721877,0.721576,2.10864,99,0.593442,10,0.00152154,-2.676,0.0881667,0.669187,0.720648,
2,1,0,1,0,65210.7,0.717882,0.717553,1.89772,99,0.595036,10,0.00136172,-2.72177,0.0819756,0.719727,0.716718,
2,1,0,0,0,65211.5,0.713887,0.713601,1.69897,99,0.596467,10,0.00121239,-2.76981,0.0808327,0.729902,0.712853,
2,1,0,1,0,65212.3,0.709892,0.709593,1.51558,99,0.597744,10,0.00107545,-2.81942,0.0701904,0.84057,0.708927,
2,1,0,0,0,65213.1,0.705897,0.705583,1.33366,99,0.598875,10,0.000941006,-2.87496,0.0758784,0.77756,0.704996,
2,1,0,1,0,65213.9,0.701901,0.701608,1.17934,99,0.599873,10,0.000827438,-2.92836,0.0711196,0.829589,0.701089,
2,1,0,1,0,65214.7,0.697906,0.697633,1.03407,99,0.60075,10,0.000721401,-2.98545,0.0668815,0.882158,0.697178,
2,1,0,1,0,65215.5,0.693911,0.693644,0.900964,99,0.601517,10,0.000624948,-3.04529,0.0641417,0.919838,0.693248,
2,1,0,1,0,65216.3,0.689916,0.689654,0.778298,99,0.602182,10,0.000536756,-3.10885,0.0599212,0.984626,0.689311,
2,1,0,0,0,65217.1,0.685921,0.685642,0.666641,99,0.602753,10,0.000457077,-3.17611,0.0574807,1.02643,0.685349,
2,1,0,1,0,65217.9,0.681926,0.681625,0.565559,99,0.603239,10,0.000385499,-3.24752,0.054586,1.08086,0.681376,
2,1,0,1,0,65218.7,0.67793,0.677615,0.476254,99,0.60365,10,0.000322717,-3.32216,0.050953,1.15793,0.677405,
2,1,0,1,0,65219.5,0.673935,0.673664,0.395901,99,0.603993,10,0.000266704,-3.40241,0.0468524,1.25927,0.67349,
2,1,0,1,0,65220.3,0.66994,0.669658,0.32479,99,0.604274,10,0.000217498,-3.4884,0.044381,1.3294,0.669515,
2,1,0,0,0,65221.1,0.665945,0.665686,0.260406,99,0.604502,10,0.000173348,-3.58435,0.0407569,1.44761,0.665572,
2,1,0,1,0,65221.9,0.66195,0.661657,0.206026,99,0.604683,10,0.000136319,-3.68608,0.0359156,1.64274,0.661566,
2,1,0,0,0,65222.7,0.657955,0.657646,0.158074,99,0.604822,10,0.000103957,-3.80114,0.0320937,1.83837,0.657577,
2,1,0,1,0,65223.5,0.653959,0.653687,0.1154,99,0.604926,10,7.54351e-05,-3.9378,0.0269791,2.18688,0.653636,
2,1,0,1,0,65224.3,0.649964,0.649698,0.0800711,99,0.604999,10,5.2022e-05,-4.09652,0.0221693,2.66134,0.649662,
2,1,0,1,0,65225.1,0.64597,0.645661,0.0494702,99,0.605045,10,3.1941e-05,-4.30566,0.0161829,3.64583,0.645639,
2,1,0,1,0,65225.9,0.641974,0.641692,0.023712,99,0.605068,10,1.52158e-05,-4.62503,0.00804518,7.33359,0.641682,
2,0,0,0,0,65226.7,0.637979,0.637664,0.00175712,99,0.605072,10,1.12045e-06,-5.7552,0.0302573,1.94994,0.637663,
2,0,0,1,0,65227.5,0.633983,0.633691,-0.0177101,99,0.60506,10,-1.12227e-05,-4.75178,-0.00842472,-7.0032,0.633699,
2,0,0,1,0,65228.3,0.629988,0.629706,-0.0329277,99,0.605034,10,-2.07348e-05,-4.48244,-0.0207395,-2.84482,0.629721,
2,0,0,1,0,65229.1,0.625993,0.625707,-0.0458784,99,0.604998,10,-2.87064e-05,-4.33839,-0.0350777,-1.68198,0.625727,
2,0,0,1,0,65229.9,0.621998,0.621671,-0.0568859,99,0.604951,10,-3.53643e-05,-4.245,-0.0527153,-1.11922,0.621696,
2,0,0,0,0,65230.7,0.618003,0.617698,-0.0652677,99,0.604897,10,-4.03157e-05,-4.1853,-0.0711129,-0.829666,0.617726,
2,0,0,1,0,65231.5,0.614008,0.613708,-0.0743032,99,0.604835,10,-4.56005e-05,-4.12899,-0.0954647,-0.61803,0.613741,
2,0,0,1,0,65232.3,0.610012,0.609712,-0.0806246,99,0.604768,10,-4.91578e-05,-4.09353,-0.11367,-0.519045,0.609748,
2,0,0,1,0,65233.1,0.606017,0.605704,-0.0861699,99,0.604695,10,-5.21935e-05,-4.06464,-0.138545,-0.425856,0.605742,
2,0,0,1,0,65233.9,0.602022,0.601709,-0.0914059,99,0.604618,10,-5.49998e-05,-4.03903,-0.2342,-0.251921,0.601749,
2,0,0,0,0,65234.7,0.598027,0.597751,-0.0962095,99,0.604538,10,-5.75093e-05,-4.01678,-0.220883,-0.267109,0.597794,
2,0,0,1,0,65235.5,0.594032,0.593707,-0.0985018,99,0.604455,10,-5.84812e-05,-4.00656,-0.280674,-0.210208,0.59375,
2,0,0,0,0,65236.3,0.590037,0.58973,-0.101838,99,0.604369,10,-6.0057e-05,-3.99209,-0.339809,-0.173627,0.589775,
2,0,0,1,0,65237.1,0.586041,0.585728,-0.103866,99,0.604281,10,-6.0837e-05,-3.98353,-0.600927,-0.0981817,0.585774,
2,0,0,1,0,65237.9,0.582046,0.581736,-0.106938,99,0.604192,10,-6.22096e-05,-3.97087,-0.341864,-0.172583,0.581783,
2,0,0,1,0,65238.7,0.578052,0.577738,-0.107992,99,0.6041,10,-6.23912e-05,-3.96661,-0.488742,-0.120718,0.577786,
2,0,0,1,0,65239.5,0.574056,0.573752,-0.10993,99,0.604007,10,-6.30725e-05,-3.95888,-0.588434,-0.100266,0.573801,
2,0,0,0,0,65240.3,0.570061,0.569749,-0.112724,99,0.603912,10,-6.42245e-05,-3.94798,-0.685979,-0.0860084,0.569799,
2,0,0,1,0,65241.1,0.566065,0.565729,-0.114267,99,0.603817,10,-6.46441e-05,-3.94208,-0.523289,-0.112749,0.565779,
2,0,0,1,0,65241.9,0.56207,0.561764,-0.115232,99,0.603719,10,-6.47332e-05,-3.93843,-1.00169,-0.0589003,0.561815,
2,0,0,1,0,65242.7,0.558075,0.557789,-0.116689,99,0.603621,10,-6.50879e-05,-3.93297,-0.977883,-0.0603344,0.55784,
2,0,0,1,0,65243.5,0.55408,0.553785,-0.117171,99,0.603522,10,-6.48877e-05,-3.93118,-0.523846,-0.112629,0.553837,
2,0,0,0,0,65244.3,0.550085,0.549799,-0.118247,99,0.603422,10,-6.50119e-05,-3.92721,2.76043,0.0213735,0.549851,
2,0,0,1,0,65245.1,0.54609,0.545756,-0.118958,99,0.603322,10,-6.4922e-05,-3.92461,-0.862054,-0.0684412,0.545809,
2,0,0,1,0,65245.9,0.542094,0.541802,-0.120183,99,0.60322,10,-6.51154e-05,-3.92016,-1.1515,-0.0512373,0.541855,
2,0,0,1,0,65246.7,0.538099,0.53782,-0.121983,99,0.603118,10,-6.56051e-05,-3.9137,-2.79733,-0.0210916,0.537874,
2,0,0,1,0,65247.5,0.534104,0.533805,-0.121893,99,0.603015,10,-6.50669e-05,-3.91402,-0.696679,-0.0846875,0.533858,
2,0,0,0,0,65248.3,0.530109,0.529805,-0.123653,99,0.602911,10,-6.5512e-05,-3.9078,-2.29754,-0.0256796,0.529859,
2,0,0,1,0,65249.1,0.526114,0.525768,-0.124691,99,0.602806,10,-6.55585e-05,-3.90416,-0.903175,-0.0653251,0.525823,
2,0,0,0,0,65249.9,0.522119,0.521825,-0.125663,99,0.602701,10,-6.5574e-05,-3.90079,-2.68675,-0.0219596,0.52188,
2,0,0,1,0,65250.7,0.518123,0.517778,-0.126671,99,0.602594,10,-6.55875e-05,-3.89732,-0.677358,-0.0871031,0.517834,
2,0,0,1,0,65251.5,0.514128,0.513859,-0.127791,99,0.602487,10,-6.56665e-05,-3.8935,-1.38855,-0.0424903,0.513916,
2,0,0,1,0,65252.3,0.510133,0.509834,-0.128086,99,0.602379,10,-6.53029e-05,-3.8925,-0.541934,-0.108869,0.509891,
2,0,0,1,0,65253.1,0.506138,0.50579,-0.128674,99,0.60227,10,-6.50818e-05,-3.89051,1.75041,0.0337064,0.505846,
2,0,0,0,0,65253.9,0.502143,0.501843,-0.130462,99,0.60216,10,-6.54716e-05,-3.88451,-0.518672,-0.113752,0.5019,
2,0,0,1,0,65254.7,0.498148,0.49783,-0.131322,99,0.602049,10,-6.53761e-05,-3.88166,-3.33785,-0.0176761,0.497888,
2,0,0,1,0,65255.5,0.494152,0.493838,-0.132637,99,0.601938,10,-6.55011e-05,-3.87734,-1.05683,-0.0558273,0.493896,
2,0,0,1,0,65256.3,0.490157,0.489839,-0.133739,99,0.601825,10,-6.55106e-05,-3.87374,-0.660345,-0.0893472,0.489898,
2,0,0,1,0,65257.1,0.486162,0.485848,-0.135144,99,0.601712,10,-6.56597e-05,-3.8692,-1.54579,-0.0381681,0.485908,
2,0,0,0,0,65257.9,0.482167,0.481868,-0.136092,99,0.601598,10,-6.55786e-05,-3.86617,-1.44356,-0.0408712,0.481928,
2,0,0,1,0,65258.7,0.478172,0.477844,-0.137116,99,0.601482,10,-6.55199e-05,-3.86291,-1.11194,-0.0530606,0.477904,
2,0,0,0,0,65259.5,0.474177,0.47383,-0.138595,99,0.601366,10,-6.56703e-05,-3.85825,-1.44455,-0.0408432,0.473891,
2,0,0,1,0,65260.3,0.470181,0.46985,-0.13999,99,0.601248,10,-6.57745e-05,-3.8539,-0.520288,-0.113399,0.469912,
2,0,0,1,0,65261,0.466186,0.465858,-0.141308,99,0.601129,10,-6.58294e-05,-3.84983,-1.16901,-0.0504699,0.46592,
2,0,0,1,0,65261.8,0.462191,0.461863,-0.143168,99,0.601009,10,-6.61238e-05,-3.84416,-0.798341,-0.0739033,0.461926,
2,0,0,1,0,65262.6,0.458196,0.457891,-0.144449,99,0.600889,10,-6.6142e-05,-3.84028,-1.36606,-0.0431898,0.457955,
2,0,0,0,0,65263.4,0.454201,0.453923,-0.145182,99,0.600766,10,-6.59017e-05,-3.83809,-1.31812,-0.0447606,0.453987,
2,0,0,1,0,65264.2,0.450205,0.449928,-0.146623,99,0.600643,10,-6.597e-05,-3.8338,-0.730571,-0.0807587,0.449993,
2,0,0,1,0,65265,0.44621,0.445896,-0.147867,99,0.600519,10,-6.59333e-05,-3.83013,-1.13159,-0.0521391,0.445961,
2,0,0,1,0,65265.8,0.442215,0.441919,-0.14954,99,0.600393,10,-6.60848e-05,-3.82524,-1.07639,-0.0548131,0.441985,
2,0,0,1,0,65266.6,0.43822,0.437914,-0.151119,99,0.600267,10,-6.6177e-05,-3.82068,-0.603209,-0.0978102,0.437981,
2,0,0,0,0,65267.4,0.434225,0.433926,-0.153642,99,0.600138,10,-6.66694e-05,-3.81349,-1.06131,-0.0555918,0.433994,
2,0,0,1,0,65268.2,0.43023,0.429899,-0.155003,99,0.600009,10,-6.66354e-05,-3.80966,-0.824881,-0.0715255,0.429967,
2,0,0,1,0,65269,0.426234,0.425924,-0.157023,99,0.599878,10,-6.68798e-05,-3.80404,-0.686469,-0.0859471,0.425993,
2,0,0,1,0,65269.8,0.422239,0.421897,-0.157838,99,0.599746,10,-6.65912e-05,-3.80179,-1.11449,-0.0529389,0.421966,
2,0,0,1,0,65270.6,0.418244,0.41796,-0.16024,99,0.599612,10,-6.69739e-05,-3.79523,-0.808758,-0.0729514,0.41803,
2,0,0,0,0,65271.4,0.414249,0.413954,-0.160908,99,0.599476,10,-6.66086e-05,-3.79342,-0.777592,-0.0758753,0.414025,
2,0,0,1,0,65272.2,0.410254,0.409951,-0.16376,99,0.599339,10,-6.71336e-05,-3.78579,-1.02244,-0.0577049,0.410023,
2,0,0,0,0,65273,0.406259,0.405933,-0.164802,99,0.599201,10,-6.68987e-05,-3.78304,-0.621987,-0.0948574,0.406006,
2,0,0,1,0,65273.8,0.402263,0.401954,-0.167283,99,0.599061,10,-6.72401e-05,-3.77655,-0.700771,-0.0841929,0.402027,
2,0,0,1,0,65274.6,0.398268,0.397961,-0.169853,99,0.598919,10,-6.75951e-05,-3.76993,-1.07241,-0.0550165,0.398036,
2,0,0,1,0,65275.4,0.394274,0.393986,-0.170851,99,0.598776,10,-6.73131e-05,-3.76738,-0.70316,-0.083907,0.394062,
2,0,0,1,0,65276.2,0.390278,0.389977,-0.173143,99,0.598631,10,-6.75218e-05,-3.7616,-1.02963,-0.0573022,0.390054,
2,0,0,0,0,65277,0.386283,0.385953,-0.175454,99,0.598485,10,-6.77171e-05,-3.75584,-0.750078,-0.0786585,0.38603,
2,0,0,1,0,65277.8,0.382287,0.381986,-0.176889,99,0.598336,10,-6.75691e-05,-3.7523,-1.03691,-0.0568996,0.382064,
2,0,0,1,0,65278.6,0.378292,0.37798,-0.179373,99,0.598187,10,-6.77993e-05,-3.74624,-0.787258,-0.0749436,0.378059,
2,0,0,1,0,65279.4,0.374297,0.373984,-0.1819,99,0.598035,10,-6.80278e-05,-3.74017,-0.60192,-0.0980197,0.374064,
2,0,0,1,0,65280.2,0.370303,0.36998,-0.18418,99,0.597882,10,-6.81427e-05,-3.73476,-0.758263,-0.0778094,0.370061,
2,0,0,0,0,65281,0.366307,0.365967,-0.185258,99,0.597727,10,-6.77984e-05,-3.73222,-0.972985,-0.0606381,0.366048,
2,0,0,1,0,65281.8,0.362312,0.36193,-0.187938,99,0.59757,10,-6.80203e-05,-3.72599,-0.797292,-0.0740005,0.362012,
2,0,0,1,0,65282.6,0.358316,0.357982,-0.189456,99,0.597411,10,-6.78219e-05,-3.72249,-0.755869,-0.0780558,0.358066,
2,0,0,1,0,65283.4,0.354321,0.353989,-0.191949,99,0.597251,10,-6.79477e-05,-3.71681,-0.959173,-0.0615113,0.354073,
2,0,0,1,0,65284.2,0.350327,0.350012,-0.193337,99,0.597089,10,-6.76702e-05,-3.71369,-0.627688,-0.0939957,0.350097,
2,0,0,0,0,65285,0.346331,0.346041,-0.196648,99,0.596925,10,-6.80482e-05,-3.70631,-1.27791,-0.0461692,0.346127,
2,0,0,1,0,65285.8,0.342336,0.342022,-0.198789,99,0.596759,10,-6.799e-05,-3.70161,-0.488462,-0.120787,0.342109,
2,0,0,0,0,65286.6,0.338341,0.337994,-0.201612,99,0.596591,10,-6.81438e-05,-3.69548,-1.42325,-0.0414544,0.338083,
2,0,0,1,0,65287.4,0.334345,0.334082,-0.204234,99,0.596421,10,-6.82309e-05,-3.68987,-1.0187,-0.0579167,0.334172,
2,0,0,1,0,65288.2,0.33035,0.330024,-0.205216,99,0.59625,10,-6.77263e-05,-3.68779,-0.679473,-0.086832,0.330114,
2,0,0,1,0,65289,0.326355,0.326047,-0.20772,99,0.596076,10,-6.77264e-05,-3.68252,-0.990846,-0.0595451,0.326138,
2,0,0,1,0,65289.8,0.32236,0.32205,-0.20995,99,0.595901,10,-6.76144e-05,-3.67788,-0.532151,-0.110871,0.322142,
2,0,0,0,0,65290.6,0.318365,0.318036,-0.212675,99,0.595723,10,-6.76385e-05,-3.67228,-0.886783,-0.0665327,0.31813,
2,0,0,1,0,65291.4,0.31437,0.314041,-0.215495,99,0.595544,10,-6.76743e-05,-3.66656,-1.76179,-0.0334886,0.314135,
2,0,0,1,0,65292.2,0.310374,0.310068,-0.217959,99,0.595362,10,-6.75821e-05,-3.66163,-0.520177,-0.113423,0.310164,
2,0,0,1,0,65293,0.306379,0.306004,-0.220611,99,0.595179,10,-6.75079e-05,-3.65637,-1.06588,-0.0553533,0.306101,
2,0,0,1,0,65293.8,0.302385,0.302038,-0.223322,99,0.594993,10,-6.74518e-05,-3.65107,-0.946266,-0.0623503,0.302136,
2,0,0,0,0,65294.6,0.298389,0.298056,-0.22514,99,0.594806,10,-6.71043e-05,-3.64755,-0.629576,-0.0937138,0.298155,
2,0,0,1,0,65295.4,0.294394,0.294052,-0.227554,99,0.594616,10,-6.69128e-05,-3.64291,-1.12674,-0.0523635,0.294152,
2,0,0,1,0,65296.2,0.290398,0.290029,-0.229469,99,0.594425,10,-6.65528e-05,-3.63928,-0.655329,-0.0900312,0.29013,
2,0,0,1,0,65297,0.286403,0.286086,-0.232327,99,0.594231,10,-6.64654e-05,-3.6339,-0.841968,-0.0700739,0.286188,
2,0,0,1,0,65297.8,0.282408,0.28205,-0.235469,99,0.594035,10,-6.64142e-05,-3.62807,-1.51884,-0.0388455,0.282154,
2,0,0,1,0,65298.6,0.278414,0.278101,-0.238131,99,0.593838,10,-6.62243e-05,-3.62318,-0.584576,-0.100928,0.278205,
2,0,0,1,0,65299.4,0.274418,0.274101,-0.240699,99,0.593638,10,-6.5976e-05,-3.61853,-1.01372,-0.0582016,0.274207,
2,0,0,0,0,65300.2,0.270423,0.270094,-0.244378,99,0.593436,10,-6.60052e-05,-3.61194,-1.39481,-0.0422996,0.270202,
2,0,0,1,0,65301,0.266427,0.266094,-0.245645,99,0.593232,10,-6.53646e-05,-3.60969,-0.562411,-0.104906,0.266202,
2,0,0,1,0,65301.8,0.262432,0.262098,-0.248728,99,0.593026,10,-6.5191e-05,-3.60428,-1.40498,-0.0419934,0.262207,
2,0,0,1,0,65302.6,0.258437,0.258103,-0.250524,99,0.592818,10,-6.4661e-05,-3.60115,-0.672312,-0.0877568,0.258213,
2,0,0,1,0,65303.4,0.254442,0.254099,-0.252891,99,0.592608,10,-6.42594e-05,-3.59707,-1.01613,-0.0580636,0.25421,
2,0,0,0,0,65304.2,0.250447,0.250144,-0.255759,99,0.592396,10,-6.39766e-05,-3.59217,-11.1995,-0.00526808,0.250256,
2,0,0,1,0,65305,0.246452,0.246174,-0.257724,99,0.592182,10,-6.34448e-05,-3.58885,-0.510115,-0.11566,0.246287,
2,0,0,1,0,65305.8,0.242456,0.24209,-0.26069,99,0.591966,10,-6.31104e-05,-3.58387,-1.41129,-0.0418056,0.242204,
2,0,0,1,0,65306.6,0.238461,0.238157,-0.262664,99,0.591749,10,-6.25553e-05,-3.5806,-0.739772,-0.0797543,0.238273,
2,0,0,1,0,65307.4,0.234467,0.234182,-0.264386,99,0.591529,10,-6.19143e-05,-3.57776,-1.15865,-0.0509215,0.234298,
2,0,0,0,0,65308.2,0.230471,0.230108,-0.26786,99,0.591307,10,-6.16369e-05,-3.57209,-1.12603,-0.0523965,0.230226,
2,0,0,1,0,65309,0.226476,0.226135,-0.269254,99,0.591084,10,-6.08878e-05,-3.56984,-1.24473,-0.0473998,0.226254,
2,0,0,0,0,65309.8,0.222481,0.222133,-0.271047,99,0.590859,10,-6.02085e-05,-3.56696,-1.08596,-0.0543296,0.222252,
2,0,0,1,0,65310.6,0.218485,0.218151,-0.27463,99,0.590632,10,-5.99109e-05,-3.56125,-1.59094,-0.0370849,0.218272,
2,0,0,1,0,65311.4,0.21449,0.214139,-0.277394,99,0.590402,10,-5.94007e-05,-3.5569,-0.622814,-0.0947314,0.214261,
2,0,0,1,0,65312.2,0.210496,0.210189,-0.279957,99,0.590171,10,-5.88438e-05,-3.55291,-0.882388,-0.066864,0.210312,
2,0,0,1,0,65313,0.2065,0.206173,-0.284142,99,0.589937,10,-5.85824e-05,-3.54646,-1.09467,-0.0538975,0.206298,
2,0,0,0,0,65313.8,0.202505,0.202177,-0.285374,99,0.589701,10,-5.76962e-05,-3.54458,-0.853754,-0.0691065,0.202303,
2,0,0,1,0,65314.6,0.198509,0.198175,-0.288235,99,0.589462,10,-5.7121e-05,-3.54025,-1.08002,-0.0546289,0.198302,
2,0,0,1,0,65315.4,0.194514,0.194205,-0.291481,99,0.589221,10,-5.66071e-05,-3.53539,-0.696195,-0.0847464,0.194333,
2,0,0,1,0,65316.2,0.190519,0.190237,-0.294694,99,0.588977,10,-5.60619e-05,-3.53063,-0.685837,-0.0860263,0.190367,
2,0,0,1,0,65317,0.186524,0.186219,-0.299039,99,0.58873,10,-5.56868e-05,-3.52427,-0.860072,-0.0685989,0.186351,
2,0,0,0,0,65317.8,0.182529,0.182254,-0.303176,99,0.58848,10,-5.52552e-05,-3.51831,-0.572197,-0.103111,0.182388,
2,0,0,1,0,65318.6,0.178534,0.178186,-0.308537,99,0.588226,10,-5.49768e-05,-3.51069,-0.61799,-0.0954708,0.178321,
2,0,0,1,0,65319.4,0.174538,0.174143,-0.314082,99,0.587968,10,-5.46953e-05,-3.50296,-0.52277,-0.11286,0.174281,
2,0,0,1,0,65320.2,0.170543,0.17019,-0.319437,99,0.587706,10,-5.4365e-05,-3.49561,-0.42437,-0.13903,0.170331,
2,0,0,1,0,65321,0.166549,0.166204,-0.326178,99,0.587438,10,-5.42122e-05,-3.48655,-0.389724,-0.151389,0.166348,
2,0,0,0,0,65321.8,0.162553,0.162213,-0.334983,99,0.587164,10,-5.43386e-05,-3.47498,-0.31481,-0.187415,0.16236,
2,0,0,1,0,65322.6,0.158558,0.15825,-0.34396,99,0.586883,10,-5.44317e-05,-3.46349,-0.291168,-0.202632,0.158401,
2,0,0,0,0,65323.4,0.154563,0.154161,-0.358519,99,0.586592,10,-5.52697e-05,-3.44549,-0.244968,-0.240848,0.154319,
2,0,0,1,0,65324.2,0.150567,0.150257,-0.374751,99,0.586289,10,-5.63091e-05,-3.42626,-0.168251,-0.350667,0.150422,
2,0,0,1,0,65325,0.146572,0.146285,-0.397172,99,0.585972,10,-5.81002e-05,-3.40102,-0.143904,-0.409995,0.146459,
2,0,0,1,0,65325.8,0.142578,0.142233,-0.42627,99,0.585634,10,-6.06296e-05,-3.37032,-0.121179,-0.486884,0.14242,
2,0,0,1,0,65326.6,0.138582,0.138201,-0.461623,99,0.58527,10,-6.37967e-05,-3.33571,-0.10521,-0.560781,0.138404,
2,0,0,0,0,65327.4,0.134587,0.134267,-0.503949,99,0.584874,10,-6.76635e-05,-3.29761,-0.109074,-0.540915,0.134488,
2,0,0,1,0,65328.2,0.130591,0.130241,-0.547633,99,0.584443,10,-7.13244e-05,-3.26151,-0.11174,-0.528012,0.130482,
2,0,0,1,0,65329,0.126596,0.126277,-0.58829,99,0.583977,10,-7.42872e-05,-3.23041,-0.139568,-0.422733,0.126535,
2,0,0,1,0,65329.8,0.122602,0.122262,-0.624603,99,0.583481,10,-7.63652e-05,-3.2044,-0.208694,-0.282711,0.122537,
2,0,0,1,0,65330.6,0.118607,0.118313,-0.64741,99,0.582963,10,-7.65973e-05,-3.18882,-0.297224,-0.198503,0.118598,
2,0,0,0,0,65331.4,0.114611,0.114257,-0.661051,99,0.582429,10,-7.55297e-05,-3.17976,-0.773938,-0.0762335,0.114548,
2,0,0,1,0,65332.2,0.110616,0.110305,-0.66679,99,0.581888,10,-7.35502e-05,-3.17601,-1.19354,-0.0494329,0.110598,
2,0,0,1,0,65333,0.10662,0.106276,-0.669355,99,0.581344,10,-7.11364e-05,-3.17434,-3.18168,-0.0185437,0.106571,
2,0,0,1,0,65333.8,0.102625,0.102279,-0.668171,99,0.580798,10,-6.83396e-05,-3.17511,2.46869,0.0238993,0.102573,
2,0,0,1,0,65334.6,0.0986305,0.0983434,-0.666793,99,0.580254,10,-6.55747e-05,-3.17601,1.97478,0.0298767,0.0986368,
2,0,0,0,0,65335.4,0.0946351,0.0942969,-0.660367,99,0.579712,10,-6.22705e-05,-3.18021,1.16441,0.0506695,0.0945874,
2,0,0,1,0,65336.2,0.0906399,0.0902991,-0.657633,99,0.579175,10,-5.93837e-05,-3.18202,0.930161,0.0634299,0.0905885,
2,0,0,0,0,65337,0.0866448,0.0863088,-0.650998,99,0.578642,10,-5.61869e-05,-3.18642,0.899381,0.0656007,0.0865953,
2,0,0,1,0,65337.8,0.0826492,0.0823341,-0.643578,99,0.578114,10,-5.29884e-05,-3.1914,0.848807,0.0695093,0.0826172,
2,0,0,1,0,65338.6,0.0786544,0.0783228,-0.636126,99,0.577594,10,-4.98232e-05,-3.19646,0.731521,0.0806538,0.0786027,
2,0,0,1,0,65339.4,0.0746596,0.0743743,-0.626882,99,0.577079,10,-4.66239e-05,-3.20281,0.756864,0.0779532,0.0746501,
2,0,0,1,0,65340.2,0.0706641,0.0703243,-0.618819,99,0.576571,10,-4.3518e-05,-3.20844,0.611077,0.0965509,0.0705965,
2,0,0,0,0,65341,0.0666689,0.0663498,-0.611092,99,0.576069,10,-4.05459e-05,-3.21389,0.832165,0.0708994,0.0666187,
2,0,0,1,0,65341.8,0.0626737,0.0623362,-0.602014,99,0.575573,10,-3.75273e-05,-3.22039,0.609819,0.09675,0.0626011,
2,0,0,1,0,65342.6,0.0586783,0.0583797,-0.595634,99,0.575083,10,-3.47729e-05,-3.22502,0.564898,0.104444,0.0586418,
2,0,0,1,0,65343.4,0.0546835,0.0543399,-0.586343,99,0.574601,10,-3.18618e-05,-3.23185,0.775118,0.0761175,0.0545979,
2,0,0,1,0,65344.1,0.0506886,0.0503753,-0.576796,99,0.574126,10,-2.90563e-05,-3.23898,0.538829,0.109497,0.0506291,
2,0,0,0,0,65344.9,0.046693,0.0463495,-0.567447,99,0.573659,10,-2.63009e-05,-3.24607,0.505088,0.116811,0.0465992,
2,0,0,1,0,65345.7,0.0426979,0.0423815,-0.556657,99,0.5732,10,-2.35919e-05,-3.25441,0.54001,0.109257,0.0426264,
2,0,0,1,0,65346.5,0.0387022,0.038325,-0.547799,99,0.572748,10,-2.09944e-05,-3.26138,0.490438,0.120301,0.038566,
2,0,0,1,0,65347.3,0.0347074,0.034386,-0.537539,99,0.572305,10,-1.84838e-05,-3.26959,0.517954,0.11391,0.0346225,
2,0,0,1,0,65348.1,0.0307126,0.030379,-0.525682,99,0.57187,10,-1.59697e-05,-3.27928,0.519465,0.113578,0.0306103,
2,0,0,0,0,65348.9,0.0267172,0.0264489,-0.519389,99,0.571442,10,-1.37372e-05,-3.28451,0.607745,0.0970802,0.0266774,
2,0,0,1,0,65349.7,0.022722,0.0223928,-0.511987,99,0.57102,10,-1.14648e-05,-3.29074,0.811195,0.0727322,0.0226181,
2,0,0,0,0,65350.5,0.0187268,0.0184428,-0.506454,99,0.570603,10,-9.34044e-06,-3.29546,0.672809,0.0876921,0.0186657,
2,0,0,1,0,65351.3,0.0147313,0.0143705,-0.502715,99,0.570191,10,-7.22429e-06,-3.29868,1.93437,0.0305008,0.0145917,
2,0,0,1,0,65352.1,0.0107365,0.010387,-0.497844,99,0.569782,10,-5.17108e-06,-3.30291,1.36537,0.0432116,0.010606,
2,0,0,1,0,65352.9,0.00674163,0.00644893,-0.496438,99,0.569375,10,-3.2015e-06,-3.30413,-38.9253,-0.00151572,0.00666736,
2,0,0,1,0,65353.7,0.00274612,0.00242961,-0.49659,99,0.568968,10,-1.20652e-06,-3.304,-1.57057,-0.0375661,0.00264811,
2,0,0,0,0,65354.2,0.000274105,-0.000135643,-0.499536,99,0.568713,10,6.77587e-08,-3.30143, , ,8.41525e-05,