File: Figure_codes/Fig_3-5/workspace_calculate_alpha_eff/20221101_1-115_003_TrumpetPlot_ParaChange_from10_every3_16_CV_C01_68.csv
mode,ox/red,error,control changes,counter inc.,time/s,control/V,Ewe/V,<I>/mA,cycle number,(Q-Qo)/C,I Range,P/W,log(|I|),Tafel slope mV/dec,alpha_eff,E-IR/V,
2,0,0,0,0,45313,2.44065e-05,-0.000306236,-0.10639,69,0.0000000E+000,10,3.25806e-08,-3.9731, , ,-0.000259424,
2,1,0,0,0,45313.7,0.00379485,0.00351017,0.14419,69,9.12251e-05,10,5.06131e-07,-3.84107,0.0333007,1.77174,0.00344672,
2,1,0,1,0,45314.5,0.00779002,0.00747609,0.168218,69,0.000228979,10,1.25761e-06,-3.77413,0.0780535,0.755891,0.00740207,
2,1,0,0,0,45315.3,0.0117852,0.0114378,0.182362,69,0.000382004,10,2.08581e-06,-3.73907,0.11462,0.514746,0.0113575,
2,1,0,1,0,45316.1,0.0157806,0.0154824,0.197304,69,0.000546637,10,3.05474e-06,-3.70486,0.124452,0.47408,0.0153956,
2,1,0,1,0,45316.9,0.0197754,0.01945,0.21103,69,0.00072181,10,4.10454e-06,-3.67565,0.166436,0.35449,0.0193572,
2,1,0,1,0,45317.7,0.0237704,0.0234581,0.223969,69,0.000907887,10,5.25389e-06,-3.64981,0.15233,0.387317,0.0233595,
2,1,0,1,0,45318.5,0.0277659,0.0274573,0.237747,69,0.00110425,10,6.5279e-06,-3.62388,0.158958,0.371167,0.0273527,
2,1,0,0,0,45319.3,0.0317611,0.0314264,0.250609,69,0.00131151,10,7.87574e-06,-3.601,0.172534,0.341961,0.0313162,
2,1,0,1,0,45320.1,0.0357567,0.0354097,0.266362,69,0.00153003,10,9.43178e-06,-3.57453,0.193237,0.305325,0.0352925,
2,1,0,1,0,45320.9,0.0397516,0.0394073,0.279411,69,0.00175976,10,1.10108e-05,-3.55376,0.151256,0.390068,0.0392843,
2,1,0,1,0,45321.7,0.0437465,0.0434259,0.293188,69,0.00200142,10,1.27319e-05,-3.53285,0.214188,0.275459,0.0432969,
2,1,0,1,0,45322.5,0.0477413,0.0473925,0.306698,69,0.00225329,10,1.45352e-05,-3.51329,0.214766,0.274718,0.0472576,
2,1,0,0,0,45323.3,0.0517369,0.0513854,0.318209,69,0.00251537,10,1.63513e-05,-3.49729,0.198476,0.297265,0.0512454,
2,1,0,1,0,45324.1,0.0557321,0.0554234,0.33198,69,0.00278803,10,1.83995e-05,-3.47889,0.360076,0.163855,0.0552774,
2,1,0,1,0,45324.9,0.0597277,0.0594355,0.343248,69,0.00306947,10,2.04011e-05,-3.46439,0.265075,0.222578,0.0592845,
2,1,0,1,0,45325.7,0.0637226,0.0633851,0.352955,69,0.00335981,10,2.23721e-05,-3.45228,0.309686,0.190516,0.0632298,
2,1,0,1,0,45326.5,0.0677174,0.067394,0.363734,69,0.00365913,10,2.45135e-05,-3.43922,0.404741,0.145772,0.067234,
2,1,0,0,0,45327.3,0.0717128,0.0713391,0.372581,69,0.00396532,10,2.65796e-05,-3.42878,0.344823,0.171102,0.0711751,
2,1,0,1,0,45328.1,0.075708,0.0753972,0.379875,69,0.00427913,10,2.86415e-05,-3.42036,0.413925,0.142538,0.0752301,
2,1,0,0,0,45328.9,0.0797031,0.0794162,0.389915,69,0.00459937,10,3.09655e-05,-3.40903,0.397836,0.148302,0.0792446,
2,1,0,1,0,45329.7,0.0836986,0.0833738,0.397828,69,0.00492639,10,3.31685e-05,-3.4003,0.41126,0.143462,0.0831988,
2,1,0,1,0,45330.5,0.0876935,0.0873554,0.407848,69,0.00526144,10,3.56277e-05,-3.3895,0.298531,0.197634,0.087176,
2,1,0,1,0,45331.3,0.0916883,0.0913803,0.422278,69,0.00560534,10,3.85879e-05,-3.3744,0.25718,0.229411,0.0911945,
2,1,0,1,0,45332.1,0.0956838,0.0953382,0.437187,69,0.00596155,10,4.16806e-05,-3.35933,0.222541,0.26512,0.0951458,
2,1,0,0,0,45332.9,0.099679,0.0993645,0.458502,69,0.0063325,10,4.55588e-05,-3.33866,0.241633,0.244172,0.0991628,
2,1,0,1,0,45333.7,0.103674,0.103332,0.480155,69,0.00671978,10,4.96152e-05,-3.31862,0.169165,0.348772,0.10312,
2,1,0,1,0,45334.5,0.10767,0.10731,0.501581,69,0.00712564,10,5.38249e-05,-3.29966,0.229042,0.257595,0.10709,
2,1,0,1,0,45335.3,0.111664,0.11134,0.522771,69,0.00754771,10,5.82051e-05,-3.28169,0.259002,0.227797,0.11111,
2,1,0,1,0,45336.1,0.115659,0.11532,0.537274,69,0.00798383,10,6.19585e-05,-3.2698,0.331073,0.178209,0.115084,
2,1,0,0,0,45336.9,0.119655,0.119359,0.549148,69,0.00843182,10,6.55455e-05,-3.26031,0.559372,0.105475,0.119117,
2,1,0,1,0,45337.7,0.12365,0.123305,0.561333,69,0.00888804,10,6.92153e-05,-3.25078,0.494838,0.119231,0.123058,
2,1,0,1,0,45338.5,0.127646,0.127326,0.567605,69,0.00935207,10,7.22708e-05,-3.24595,1.04437,0.0564934,0.127076,
2,1,0,1,0,45339.3,0.131641,0.131292,0.570448,69,0.00982044,10,7.48949e-05,-3.24378,-0.93898,-0.0628341,0.131041,
2,1,0,1,0,45340.1,0.135635,0.135299,0.559103,69,0.0102851,10,7.56463e-05,-3.25251,-0.306494,-0.1925,0.135053,
2,1,0,0,0,45340.9,0.139631,0.13931,0.528172,69,0.0107339,10,7.35797e-05,-3.27722,-0.118327,-0.49862,0.139078,
2,1,0,1,0,45341.7,0.143626,0.14335,0.480119,69,0.0111507,10,6.88252e-05,-3.31865,-0.0781554,-0.754907,0.143139,
2,1,0,0,0,45342.5,0.147621,0.147321,0.421086,69,0.0115228,10,6.2035e-05,-3.37563,-0.0690323,-0.854673,0.147136,
2,1,0,1,0,45343.3,0.151617,0.151334,0.369349,69,0.01185,10,5.58953e-05,-3.43256,-0.075878,-0.777564,0.151172,
2,1,0,1,0,45344.1,0.155612,0.155317,0.33323,69,0.0121405,10,5.17562e-05,-3.47726,-0.106366,-0.554687,0.15517,
2,1,0,1,0,45344.9,0.159606,0.159288,0.307916,69,0.0124074,10,4.90473e-05,-3.51157,-0.146274,-0.403352,0.159152,
2,1,0,1,0,45345.7,0.163602,0.163272,0.2925,69,0.0126586,10,4.77571e-05,-3.53387,-0.186928,-0.315629,0.163143,
2,1,0,0,0,45346.5,0.167597,0.167256,0.281153,69,0.0128993,10,4.70246e-05,-3.55106,-0.311501,-0.189405,0.167132,
2,1,0,1,0,45347.3,0.171592,0.171287,0.272827,69,0.0131331,10,4.67317e-05,-3.56411,-0.386458,-0.152669,0.171167,
2,1,0,1,0,45348.1,0.175588,0.175262,0.268455,69,0.0133613,10,4.705e-05,-3.57113,-0.70164,-0.0840887,0.175144,
2,1,0,1,0,45348.9,0.179582,0.179258,0.2645,69,0.0135858,10,4.74136e-05,-3.57757,-0.535403,-0.110197,0.179141,
2,1,0,1,0,45349.7,0.183577,0.183233,0.260851,69,0.0138074,10,4.77964e-05,-3.58361,-0.804309,-0.0733549,0.183118,
2,1,0,0,0,45350.5,0.187573,0.187289,0.258518,69,0.0140266,10,4.84177e-05,-3.58751,-0.882577,-0.0668497,0.187175,
2,1,0,1,0,45351.3,0.191568,0.19124,0.255694,69,0.0142437,10,4.8899e-05,-3.59228,-1.18341,-0.0498558,0.191128,
2,1,0,0,0,45352.1,0.195563,0.19529,0.254858,69,0.0144595,10,4.97713e-05,-3.5937,-0.879566,-0.0670785,0.195178,
2,1,0,1,0,45352.9,0.199559,0.19922,0.252839,69,0.0146735,10,5.03706e-05,-3.59716,-3.8674,-0.0152557,0.199109,
2,1,0,1,0,45353.7,0.203553,0.203257,0.249933,69,0.0148862,10,5.08006e-05,-3.60218,-1.71681,-0.034366,0.203147,
2,1,0,1,0,45354.5,0.207548,0.207219,0.250049,69,0.0150979,10,5.18149e-05,-3.60198,-2.0226,-0.0291704,0.207109,
2,1,0,1,0,45355.3,0.211544,0.211219,0.248694,69,0.0153082,10,5.25289e-05,-3.60434,-1.85869,-0.0317428,0.21111,
2,1,0,0,0,45356.1,0.215539,0.21526,0.24679,69,0.0155176,10,5.31239e-05,-3.60767,-1.05999,-0.0556608,0.215151,
2,1,0,1,0,45356.9,0.219535,0.219254,0.246352,69,0.0157258,10,5.40136e-05,-3.60844,-2.21648,-0.0266188,0.219145,
2,1,0,1,0,45357.7,0.223529,0.223221,0.244205,69,0.0159332,10,5.45118e-05,-3.61225,-4.49715,-0.0131194,0.223114,
2,1,0,1,0,45358.5,0.227524,0.227251,0.244627,69,0.0161397,10,5.55919e-05,-3.6115,-1.48965,-0.0396067,0.227144,
2,1,0,1,0,45359.3,0.23152,0.231245,0.244034,69,0.0163453,10,5.64316e-05,-3.61255,7.81751,0.00754716,0.231138,
2,1,0,0,0,45360.1,0.235515,0.235173,0.241625,69,0.0165507,10,5.68237e-05,-3.61686,-4.56847,-0.0129146,0.235067,
2,1,0,1,0,45360.9,0.23951,0.239195,0.240642,69,0.016755,10,5.75603e-05,-3.61863,-1.27717,-0.0461959,0.239089,
2,1,0,1,0,45361.7,0.243506,0.243208,0.240769,69,0.0169585,10,5.8557e-05,-3.6184,1.90529,0.0309664,0.243102,
2,1,0,1,0,45362.5,0.2475,0.247231,0.239512,69,0.0171617,10,5.92148e-05,-3.62067,-0.756734,-0.0779666,0.247126,
2,1,0,1,0,45363.3,0.251495,0.251181,0.239573,69,0.0173641,10,6.01763e-05,-3.62056,-4.24774,-0.0138897,0.251076,
2,1,0,0,0,45364.1,0.255491,0.255194,0.239043,69,0.0175661,10,6.10023e-05,-3.62152,19.9961,0.00295057,0.255089,
2,1,0,1,0,45364.9,0.259486,0.25919,0.237416,69,0.0177675,10,6.15358e-05,-3.62449,-0.899345,-0.0656033,0.259086,
2,1,0,0,0,45365.7,0.263481,0.263161,0.236146,69,0.0179677,10,6.21446e-05,-3.62682,-909.648,-6.48602e-05,0.263057,
2,1,0,1,0,45366.5,0.267477,0.267147,0.235706,69,0.0181674,10,6.29681e-05,-3.62763,-1.37195,-0.0430045,0.267043,
2,1,0,1,0,45367.3,0.271471,0.271142,0.235922,69,0.0183663,10,6.39683e-05,-3.62723,2.8304,0.0208451,0.271038,
2,1,0,1,0,45368.1,0.275466,0.275133,0.234388,69,0.0185645,10,6.44878e-05,-3.63006,-3.41401,-0.0172817,0.27503,
2,1,0,1,0,45368.9,0.279462,0.279151,0.233133,69,0.0187623,10,6.50793e-05,-3.6324,-1.24308,-0.0474627,0.279049,
2,1,0,0,0,45369.7,0.283457,0.283178,0.233249,69,0.018959,10,6.60509e-05,-3.63218,-1.74428,-0.0338249,0.283075,
2,1,0,1,0,45370.5,0.287452,0.287126,0.232132,69,0.0191551,10,6.66514e-05,-3.63426,-4.75954,-0.0123961,0.287024,
2,1,0,1,0,45371.3,0.291448,0.291142,0.231435,69,0.0193505,10,6.73807e-05,-3.63557,-0.91097,-0.0647662,0.291041,
2,1,0,1,0,45372.1,0.295442,0.295136,0.230355,69,0.019545,10,6.79859e-05,-3.6376,1.7537,0.0336432,0.295034,
2,1,0,1,0,45372.9,0.299437,0.299152,0.228168,69,0.0197392,10,6.8257e-05,-3.64174,-2.54971,-0.0231399,0.299052,
2,1,0,0,0,45373.7,0.303433,0.303118,0.228828,69,0.0199324,10,6.93619e-05,-3.64049,-1.79313,-0.0329033,0.303018,
2,1,0,1,0,45374.5,0.307428,0.307154,0.227348,69,0.0201248,10,6.9831e-05,-3.64331,-4.25372,-0.0138702,0.307054,
2,1,0,1,0,45375.3,0.311424,0.311121,0.227482,69,0.0203173,10,7.07744e-05,-3.64305,-1.68561,-0.0350021,0.311021,
2,1,0,1,0,45376.1,0.315418,0.315107,0.226399,69,0.0205086,10,7.13399e-05,-3.64513,-9.25769,-0.00637308,0.315007,
2,1,0,1,0,45376.9,0.319413,0.319126,0.225843,69,0.0206995,10,7.20723e-05,-3.64619,-2.31446,-0.0254919,0.319027,
2,1,0,0,0,45377.7,0.323409,0.323071,0.22554,69,0.02089,10,7.28655e-05,-3.64678,-1.10159,-0.0535592,0.322972,
2,1,0,1,0,45378.5,0.327404,0.327106,0.225316,69,0.0210799,10,7.37023e-05,-3.64721,1.63421,0.0361031,0.327007,
2,1,0,0,0,45379.3,0.331399,0.331091,0.223404,69,0.0212696,10,7.39669e-05,-3.65091,-1.19272,-0.0494668,0.330993,
2,1,0,1,0,45380.1,0.335395,0.335076,0.224124,69,0.0214586,10,7.50986e-05,-3.64951,32.9258,0.00179191,0.334978,
2,1,0,1,0,45380.9,0.339389,0.339075,0.22336,69,0.021647,10,7.57357e-05,-3.651,-13.7671,-0.00428557,0.338977,
2,1,0,1,0,45381.7,0.343384,0.343072,0.222603,69,0.021835,10,7.63689e-05,-3.65247,-3.12956,-0.0188525,0.342974,
2,1,0,1,0,45382.5,0.34738,0.347075,0.222697,69,0.0220223,10,7.72927e-05,-3.65229,-1.51931,-0.0388335,0.346978,
2,1,0,0,0,45383.3,0.351375,0.351072,0.221481,69,0.0222093,10,7.77558e-05,-3.65466,-15.2612,-0.00386603,0.350975,
2,1,0,1,0,45384.1,0.35537,0.355042,0.221383,69,0.0223959,10,7.86004e-05,-3.65486,-5.38941,-0.0109474,0.354945,
2,1,0,1,0,45384.9,0.359366,0.359039,0.220245,69,0.022582,10,7.90764e-05,-3.65709,-42.5949,-0.00138514,0.358942,
2,1,0,1,0,45385.7,0.36336,0.36309,0.219091,69,0.022768,10,7.95499e-05,-3.65937,-4.23696,-0.0139251,0.362993,
2,1,0,1,0,45386.5,0.367355,0.36702,0.220288,69,0.0229536,10,8.08503e-05,-3.65701,-11.7438,-0.00502391,0.366923,
2,1,0,0,0,45387.3,0.371351,0.371025,0.221129,69,0.023139,10,8.20444e-05,-3.65535,6.53557,0.00902753,0.370927,
2,1,0,1,0,45388.1,0.375346,0.375073,0.219601,69,0.0233243,10,8.23665e-05,-3.65837,-10.9182,-0.00540383,0.374977,
2,1,0,1,0,45388.9,0.379342,0.379011,0.220138,69,0.0235092,10,8.34348e-05,-3.6573,-3.95447,-0.0149198,0.378914,
2,1,0,1,0,45389.7,0.383336,0.383015,0.218973,69,0.0236936,10,8.387e-05,-3.65961,-3.2486,-0.0181617,0.382918,
2,1,0,1,0,45390.4,0.387331,0.38704,0.219421,69,0.0238781,10,8.49246e-05,-3.65872,-2.36279,-0.0249705,0.386943,
2,1,0,0,0,45391.2,0.391327,0.391003,0.218562,69,0.0240622,10,8.54582e-05,-3.66043,3.44218,0.0171403,0.390907,
2,1,0,1,0,45392,0.395322,0.395067,0.217914,69,0.0242462,10,8.60906e-05,-3.66172,3.32851,0.0177257,0.394971,
2,1,0,0,0,45392.8,0.399317,0.399021,0.218819,69,0.0244299,10,8.73134e-05,-3.65991,-2.40422,-0.0245401,0.398924,
2,1,0,1,0,45393.6,0.403313,0.403011,0.218698,69,0.0246133,10,8.81378e-05,-3.66016,143.912,0.000409972,0.402915,
2,1,0,1,0,45394.4,0.407307,0.407028,0.218462,69,0.0247968,10,8.892e-05,-3.66062,7.81131,0.00755316,0.406932,
2,1,0,1,0,45395.2,0.411302,0.411003,0.218719,69,0.0249799,10,8.98942e-05,-3.66011,-9.76367,-0.00604281,0.410907,
2,1,0,1,0,45396,0.415298,0.415004,0.217641,69,0.0251631,10,9.0322e-05,-3.66226,-1.97518,-0.0298707,0.414908,
2,1,0,0,0,45396.8,0.419293,0.419012,0.217923,69,0.0253457,10,9.13122e-05,-3.6617,-7.28653,-0.00809714,0.418917,
2,1,0,1,0,45397.6,0.423288,0.422998,0.217352,69,0.0255281,10,9.19395e-05,-3.66284,9.76676,0.0060409,0.422903,
2,1,0,1,0,45398.4,0.427283,0.427003,0.217222,69,0.0257106,10,9.27545e-05,-3.6631,4.41738,0.0133563,0.426907,
2,1,0,1,0,45399.2,0.431278,0.430988,0.21728,69,0.0258926,10,9.36451e-05,-3.66298,-1.9743,-0.029884,0.430892,
2,1,0,1,0,45400,0.435273,0.434944,0.216956,69,0.0260745,10,9.43637e-05,-3.66363,4.33563,0.0136082,0.434848,
2,1,0,0,0,45400.8,0.439269,0.438944,0.216678,69,0.0262566,10,9.51097e-05,-3.66418,-4.84303,-0.0121824,0.438848,
2,1,0,1,0,45401.6,0.443264,0.442971,0.216692,69,0.0264385,10,9.59882e-05,-3.66416,3.06435,0.0192537,0.442876,
2,1,0,0,0,45402.4,0.447259,0.446955,0.21751,69,0.0266204,10,9.72171e-05,-3.66252,167.832,0.000351542,0.446859,
2,1,0,1,0,45403.2,0.451254,0.450977,0.217037,69,0.0268026,10,9.78789e-05,-3.66347,-1.76048,-0.0335136,0.450882,
2,1,0,1,0,45404,0.455249,0.454939,0.21791,69,0.0269846,10,9.91358e-05,-3.66172,1.60119,0.0368477,0.454843,
2,1,0,1,0,45404.8,0.459244,0.458956,0.217967,69,0.0271667,10,0.000100037,-3.66161,2.62546,0.0224723,0.458861,
2,1,0,1,0,45405.6,0.46324,0.462884,0.218453,69,0.0273494,10,0.000101118,-3.66064,-13.0073,-0.00453592,0.462787,
2,1,0,0,0,45406.4,0.467235,0.466925,0.218991,69,0.0275321,10,0.000102253,-3.65957,2.25713,0.0261394,0.466828,
2,1,0,1,0,45407.2,0.471231,0.470891,0.219097,69,0.0277151,10,0.000103171,-3.65936,1.95077,0.0302445,0.470795,
2,1,0,1,0,45408,0.475225,0.474899,0.219465,69,0.0278984,10,0.000104224,-3.65864,-4.64719,-0.0126958,0.474803,
2,1,0,1,0,45408.8,0.47922,0.478907,0.220032,69,0.0280819,10,0.000105375,-3.65751,1.60162,0.0368376,0.478811,
2,1,0,1,0,45409.6,0.483216,0.48292,0.220629,69,0.0282658,10,0.000106546,-3.65634,-2.30751,-0.0255687,0.482823,
2,1,0,0,0,45410.4,0.487211,0.486916,0.22179,69,0.02845,10,0.000107993,-3.65406,2.64301,0.0223231,0.486818,
2,1,0,1,0,45411.2,0.491206,0.490925,0.221167,69,0.0286347,10,0.000108577,-3.65528,1.47428,0.0400196,0.490828,
2,1,0,1,0,45412,0.495201,0.494941,0.223338,69,0.0288199,10,0.000110539,-3.65104,4.3366,0.0136051,0.494843,
2,1,0,1,0,45412.8,0.499196,0.498897,0.223489,69,0.0290055,10,0.000111498,-3.65074,1.15158,0.0512338,0.498799,
2,1,0,1,0,45413.6,0.503191,0.502885,0.22453,69,0.0291921,10,0.000112913,-3.64873,19.086,0.00309128,0.502786,
2,1,0,0,0,45414.4,0.507187,0.506926,0.225343,69,0.0293791,10,0.000114232,-3.64716,1.77018,0.0333299,0.506827,
2,1,0,1,0,45415.2,0.511182,0.51088,0.226363,69,0.0295669,10,0.000115644,-3.64519,2.06409,0.0285841,0.51078,
2,1,0,0,0,45416,0.515177,0.514887,0.226725,69,0.0297555,10,0.000116738,-3.6445,-19.8477,-0.00297264,0.514787,
2,1,0,1,0,45416.8,0.519173,0.518888,0.228471,69,0.0299448,10,0.000118551,-3.64117,0.984904,0.0599043,0.518788,
2,1,0,1,0,45417.6,0.523167,0.522859,0.22948,69,0.0301351,10,0.000119986,-3.63925,1.67056,0.0353176,0.522758,
2,1,0,1,0,45418.4,0.527162,0.526893,0.231047,69,0.0303264,10,0.000121737,-3.6363,2.47889,0.023801,0.526791,
2,1,0,1,0,45419.2,0.531158,0.530876,0.231725,69,0.0305186,10,0.000123017,-3.63503,1.18542,0.0497713,0.530774,
2,1,0,0,0,45420,0.535153,0.534847,0.233549,69,0.0307121,10,0.000124913,-3.63162,1.2472,0.0473059,0.534744,
2,1,0,1,0,45420.8,0.539148,0.538873,0.235646,69,0.030907,10,0.000126983,-3.62774,1.16217,0.050767,0.53877,
2,1,0,1,0,45421.6,0.543143,0.542849,0.236847,69,0.0311033,10,0.000128572,-3.62553,1.91976,0.0307331,0.542745,
2,1,0,1,0,45422.4,0.547138,0.546842,0.238526,69,0.0313011,10,0.000130436,-3.62246,0.686468,0.0859471,0.546737,
2,1,0,1,0,45423.2,0.551133,0.55083,0.241358,69,0.0315006,10,0.000132947,-3.61734,0.850479,0.0693727,0.550724,
2,1,0,0,0,45424,0.555129,0.554808,0.243197,69,0.0317022,10,0.000134928,-3.61404,1.29613,0.04552,0.554701,
2,1,0,1,0,45424.8,0.559124,0.558821,0.246756,69,0.0319055,10,0.000137892,-3.60773,0.79364,0.074341,0.558712,
2,1,0,1,0,45425.6,0.56312,0.562834,0.248387,69,0.0321107,10,0.0001398,-3.60487,0.666037,0.0885836,0.562724,
2,1,0,1,0,45426.4,0.567114,0.566861,0.252092,69,0.0323183,10,0.000142901,-3.59844,0.802666,0.0735051,0.56675,
2,1,0,1,0,45427.2,0.571109,0.570839,0.255189,69,0.0325284,10,0.000145672,-3.59314,0.750681,0.0785953,0.570727,
2,1,0,0,0,45428,0.575105,0.574823,0.259608,69,0.0327413,10,0.000149228,-3.58568,0.598796,0.0985311,0.574709,
2,1,0,1,0,45428.8,0.5791,0.57884,0.26416,69,0.0329575,10,0.000152906,-3.57813,0.641665,0.0919483,0.578724,
2,1,0,0,0,45429.6,0.583095,0.582818,0.269434,69,0.0331772,10,0.000157031,-3.56955,0.440907,0.133815,0.582699,
2,1,0,1,0,45430.4,0.58709,0.586804,0.272588,69,0.0334008,10,0.000159956,-3.56449,0.451266,0.130743,0.586684,
2,1,0,1,0,45431.2,0.591085,0.590761,0.279499,69,0.0336286,10,0.000165117,-3.55362,0.39758,0.148398,0.590638,
2,1,0,1,0,45432,0.59508,0.594773,0.286193,69,0.0338613,10,0.00017022,-3.54334,0.37584,0.156982,0.594647,
2,1,0,1,0,45432.8,0.599076,0.598736,0.292565,69,0.0340998,10,0.000175169,-3.53378,0.369545,0.159656,0.598608,
2,1,0,0,0,45433.6,0.603071,0.602754,0.301873,69,0.0343441,10,0.000181955,-3.52018,0.310555,0.189982,0.602621,
2,1,0,1,0,45434.4,0.607066,0.606774,0.309692,69,0.0345954,10,0.000187913,-3.50907,0.291696,0.202265,0.606638,
2,1,0,1,0,45435.2,0.611061,0.610824,0.320707,69,0.0348546,10,0.000195896,-3.49389,0.287418,0.205276,0.610683,
2,1,0,1,0,45436,0.615056,0.614796,0.333707,69,0.0351226,10,0.000205162,-3.47663,0.225007,0.262214,0.61465,
2,1,0,1,0,45436.8,0.619051,0.61878,0.346244,69,0.0354012,10,0.000214249,-3.46062,0.208915,0.282412,0.618628,
2,1,0,0,0,45437.6,0.623047,0.622797,0.362418,69,0.0356916,10,0.000225713,-3.44079,0.195808,0.301315,0.622638,
2,1,0,1,0,45438.4,0.627042,0.626758,0.381291,69,0.0359956,10,0.000238977,-3.41874,0.175955,0.335312,0.62659,
2,1,0,1,0,45439.2,0.631037,0.630728,0.403498,69,0.036316,10,0.000254498,-3.39416,0.157722,0.374076,0.630551,
2,1,0,1,0,45440,0.635032,0.634702,0.428614,69,0.036655,10,0.000272042,-3.36793,0.144536,0.408203,0.634514,
2,1,0,1,0,45440.8,0.639027,0.638738,0.457941,69,0.0370156,10,0.000292505,-3.33919,0.135958,0.433959,0.638536,
2,1,0,1,0,45441.6,0.643022,0.642737,0.492275,69,0.0374016,10,0.000316404,-3.30779,0.12048,0.489708,0.642521,
2,1,0,1,0,45442.4,0.647018,0.646748,0.533355,69,0.0378173,10,0.000344946,-3.27298,0.112568,0.524129,0.646514,
2,1,0,0,0,45443.2,0.651013,0.650743,0.577363,69,0.0382671,10,0.000375715,-3.23855,0.107757,0.54753,0.650489,
2,1,0,1,0,45444,0.655008,0.654769,0.633314,69,0.0387568,10,0.000414675,-3.19838,0.0962587,0.612932,0.65449,
2,1,0,1,0,45444.8,0.659003,0.658759,0.69606,69,0.039294,10,0.000458536,-3.15735,0.0942004,0.626324,0.658452,
2,1,0,1,0,45445.6,0.662998,0.662721,0.769456,69,0.0398855,10,0.000509935,-3.11382,0.0878381,0.67169,0.662383,
2,1,0,1,0,45446.4,0.666994,0.666705,0.85424,69,0.0405403,10,0.000569526,-3.06842,0.0865274,0.681865,0.66633,
2,1,0,0,0,45447.2,0.670989,0.670688,0.951172,69,0.0412681,10,0.00063794,-3.02174,0.0838665,0.703499,0.67027,
2,1,0,1,0,45448,0.674984,0.674715,1.06269,69,0.0420788,10,0.000717012,-2.97359,0.0823871,0.716132,0.674247,
2,1,0,1,0,45448.8,0.67898,0.678697,1.18802,69,0.0429839,10,0.000806302,-2.92518,0.0782503,0.753991,0.678174,
2,1,0,1,0,45449.6,0.682974,0.682705,1.3302,69,0.0439964,10,0.000908137,-2.87608,0.0806503,0.731553,0.682119,
2,1,0,1,0,45450.4,0.686969,0.686677,1.49067,69,0.0451293,10,0.00102361,-2.82662,0.0809534,0.728815,0.686021,
2,1,0,0,0,45451.2,0.690965,0.69072,1.66693,69,0.0463965,10,0.00115138,-2.77808,0.0794745,0.742376,0.689987,
2,1,0,1,0,45452,0.69496,0.694706,1.86396,69,0.047813,10,0.0012949,-2.72956,0.0811598,0.726961,0.693886,
2,1,0,0,0,45452.8,0.698955,0.698689,2.07757,69,0.0493937,10,0.00145158,-2.68244,0.0851005,0.693298,0.697775,
2,1,0,1,0,45453.6,0.70295,0.702635,2.31293,69,0.0511544,10,0.00162515,-2.63584,0.083785,0.704183,0.701618,
2,1,0,1,0,45454.4,0.706945,0.706668,2.56746,69,0.0531105,10,0.00181434,-2.5905,0.0868931,0.678995,0.705538,
2,1,0,1,0,45455.2,0.71094,0.710676,2.8428,69,0.0552777,10,0.00202031,-2.54625,0.0889936,0.662969,0.709425,
2,1,0,1,0,45456,0.714936,0.71467,3.13521,69,0.0576721,10,0.00224064,-2.50373,0.091126,0.647455,0.71329,
2,1,0,0,0,45456.8,0.718931,0.71866,3.45154,69,0.0603092,10,0.00248048,-2.46199,0.0942503,0.625993,0.717141,
2,1,0,1,0,45457.6,0.722927,0.722632,3.78542,69,0.0632062,10,0.00273546,-2.42189,0.0968346,0.609286,0.720966,
2,1,0,1,0,45458.4,0.726921,0.726634,4.14186,69,0.0663791,10,0.00300961,-2.38281,0.100559,0.586723,0.724812,
2,1,0,1,0,45459.2,0.730916,0.730639,4.51733,69,0.0698444,10,0.00330054,-2.34512,0.101671,0.580305,0.728652,
2,1,0,1,0,45460,0.734911,0.734675,4.91734,69,0.07362,10,0.00361264,-2.30827,0.105689,0.558243,0.732511,
2,1,0,0,0,45460.8,0.738907,0.738656,5.3384,69,0.0777235,10,0.00394324,-2.27259,0.107623,0.548208,0.736307,
2,1,0,1,0,45461.6,0.742902,0.74262,5.78238,69,0.0821714,10,0.00429411,-2.23789,0.111765,0.527892,0.740076,
2,1,0,1,0,45462.4,0.746897,0.746667,6.25056,69,0.0869847,10,0.00466709,-2.20408,0.113508,0.519788,0.743917,
2,1,0,1,0,45463.2,0.750892,0.750631,6.74356,69,0.092181,10,0.00506193,-2.17111,0.114274,0.516303,0.747664,
2,1,0,1,0,45464,0.754887,0.75461,7.26329,69,0.0977823,10,0.00548095,-2.13887,0.117977,0.500099,0.751414,
2,1,0,0,0,45464.8,0.758883,0.7586,7.8119,69,0.103811,10,0.0059261,-2.10724,0.118529,0.497767,0.755163,
2,1,0,1,0,45465.6,0.762878,0.762599,8.38963,69,0.11029,10,0.00639792,-2.07626,0.123044,0.479502,0.758908,
2,1,0,0,0,45466.4,0.766873,0.76664,9.00255,69,0.117244,10,0.00690172,-2.04563,0.122677,0.480937,0.762679,
2,1,0,1,0,45467.2,0.770868,0.770586,9.65326,69,0.124702,10,0.00743867,-2.01533,0.122279,0.482504,0.766339,
2,1,0,1,0,45468,0.774863,0.774585,10.3436,69,0.132695,10,0.00801202,-1.98533,0.123543,0.477567,0.770034,
2,1,0,1,0,45468.8,0.778858,0.778614,11.0748,69,0.141258,10,0.00862296,-1.95567,0.123183,0.478962,0.773741,
2,1,0,1,0,45469.6,0.782854,0.78261,11.8604,69,0.150426,10,0.00928208,-1.9259,0.122824,0.480364,0.777391,
2,1,0,0,0,45470.4,0.786849,0.786564,12.6911,69,0.160239,10,0.00998236,-1.8965,0.12275,0.480652,0.78098,
2,1,0,1,0,45471.2,0.790844,0.790592,13.5882,69,0.170739,10,0.0107427,-1.86684,0.122047,0.48342,0.784613,
2,1,0,1,0,45472,0.794839,0.794575,14.535,69,0.181979,10,0.0115492,-1.83758,0.121553,0.485387,0.788179,
2,1,0,1,0,45472.8,0.798834,0.798577,15.5394,69,0.193999,10,0.0124094,-1.80857,0.123036,0.479535,0.79174,
2,1,0,1,0,45473.5,0.802829,0.802557,16.6095,69,0.206846,10,0.0133301,-1.77964,0.122648,0.48105,0.795249,
2,1,0,0,0,45474.3,0.806825,0.806563,17.7447,69,0.220575,10,0.0143122,-1.75093,0.121221,0.486715,0.798756,
2,1,0,1,0,45475.1,0.81082,0.810604,18.947,69,0.235242,10,0.0153585,-1.72246,0.12476,0.472909,0.802267,
2,1,0,1,0,45475.9,0.814815,0.814558,20.1885,69,0.250885,10,0.0164447,-1.6949,0.125076,0.471713,0.805675,
2,1,0,1,0,45476.7,0.81881,0.818526,21.4851,69,0.267539,10,0.0175861,-1.66786,0.125562,0.469887,0.809073,
2,1,0,1,0,45477.5,0.822805,0.822552,22.8524,69,0.285256,10,0.0187973,-1.64107,0.13067,0.451519,0.812497,
2,1,0,0,0,45478.3,0.826801,0.826551,24.1971,69,0.304064,10,0.0200001,-1.61624,0.137721,0.428403,0.815904,
2,1,0,1,0,45479.1,0.830796,0.830525,25.6192,69,0.323973,10,0.0212774,-1.59144,0.140407,0.420208,0.819253,
2,1,0,0,0,45479.9,0.834791,0.834523,27.0514,69,0.34502,10,0.022575,-1.56781,0.144802,0.407452,0.82262,
2,1,0,1,0,45480.7,0.838786,0.838563,28.4899,69,0.36722,10,0.0238906,-1.54531,0.150646,0.391647,0.826027,
2,1,0,1,0,45481.5,0.842781,0.842544,29.9866,69,0.390588,10,0.025265,-1.52307,0.155812,0.378662,0.82935,
2,1,0,1,0,45482.3,0.846776,0.846499,31.4393,69,0.415138,10,0.0266134,-1.50253,0.161457,0.365423,0.832666,
2,1,0,0,0,45483,0.849723,0.849476,32.439,69,0.437598,10,0.0275562,-1.48893,0.0431545,1.36718,0.835203,
2,1,0,1,0,45483.8,0.845728,0.845492,30.1813,69,0.462541,10,0.0255181,-1.52026,0.110048,0.536128,0.832212,
2,1,0,0,0,45484.6,0.841732,0.841508,28.2815,69,0.48587,10,0.0237991,-1.5485,0.0463539,1.27282,0.829064,
2,1,0,1,0,45485.4,0.837737,0.83749,25.0961,69,0.507039,10,0.0210178,-1.60039,0.136984,0.430707,0.826447,
2,1,0,1,0,45486.2,0.833742,0.833491,23.657,69,0.526513,10,0.0197179,-1.62604,0.127476,0.462831,0.823082,
2,1,0,1,0,45487,0.829747,0.829482,22.2545,69,0.544838,10,0.0184597,-1.65258,0.126137,0.467745,0.81969,
2,1,0,1,0,45487.8,0.825752,0.82545,20.9169,69,0.562074,10,0.0172658,-1.6795,0.129163,0.456787,0.816247,
2,1,0,0,0,45488.6,0.821757,0.821477,19.6642,69,0.578277,10,0.0161536,-1.70632,0.125474,0.470216,0.812825,
2,1,0,1,0,45489.4,0.817761,0.817476,18.4366,69,0.593488,10,0.0150715,-1.73432,0.123764,0.476715,0.809364,
2,1,0,1,0,45490.2,0.813766,0.813518,17.2866,69,0.607748,10,0.0140629,-1.76229,0.120046,0.491479,0.805912,
2,1,0,1,0,45491,0.809771,0.809508,16.1545,69,0.621093,10,0.0130772,-1.79171,0.118782,0.496707,0.8024,
2,1,0,1,0,45491.8,0.805776,0.805501,15.0951,69,0.633565,10,0.0121591,-1.82116,0.122761,0.480609,0.798859,
2,1,0,0,0,45492.6,0.801781,0.80149,14.1039,69,0.645219,10,0.0113041,-1.85066,0.118942,0.496041,0.795285,
2,1,0,1,0,45493.4,0.797786,0.797566,13.1687,69,0.656103,10,0.0105029,-1.88046,0.120136,0.491111,0.791772,
2,1,0,1,0,45494.2,0.79379,0.793522,12.2789,69,0.666258,10,0.00974357,-1.91084,0.119285,0.494614,0.788119,
2,1,0,1,0,45495,0.789795,0.789534,11.4434,69,0.675725,10,0.00903497,-1.94144,0.118588,0.497523,0.784499,
2,1,0,1,0,45495.8,0.7858,0.785516,10.647,69,0.68454,10,0.00836342,-1.97277,0.113979,0.517637,0.780831,
2,1,0,0,0,45496.6,0.781805,0.781543,9.89155,69,0.692736,10,0.00773067,-2.00474,0.116166,0.507896,0.777191,
2,1,0,1,0,45497.4,0.77781,0.777555,9.18398,69,0.700346,10,0.00714105,-2.03697,0.11286,0.522773,0.773514,
2,1,0,0,0,45498.2,0.773814,0.773538,8.51522,69,0.707407,10,0.00658685,-2.0698,0.111945,0.527045,0.769791,
2,1,0,1,0,45499,0.769819,0.769493,7.89084,69,0.713953,10,0.00607195,-2.10288,0.111681,0.528288,0.766021,
2,1,0,1,0,45499.8,0.765824,0.765577,7.30194,69,0.720013,10,0.00559019,-2.13656,0.110652,0.533202,0.762364,
2,1,0,1,0,45500.6,0.761829,0.761524,6.7457,69,0.725616,10,0.00513702,-2.17097,0.107373,0.549486,0.758556,
2,1,0,1,0,45501.4,0.757834,0.757585,6.23438,69,0.730792,10,0.00472307,-2.20521,0.109597,0.538335,0.754842,
2,1,0,0,0,45502.2,0.753839,0.753571,5.74463,69,0.735568,10,0.00432898,-2.24074,0.106501,0.553985,0.751043,
2,1,0,1,0,45503,0.749844,0.749553,5.28695,69,0.739967,10,0.00396285,-2.27679,0.102126,0.577718,0.747227,
2,1,0,1,0,45503.8,0.745848,0.745594,4.85387,69,0.74401,10,0.00361901,-2.31391,0.101278,0.582554,0.743458,
2,1,0,1,0,45504.6,0.741853,0.741549,4.44468,69,0.747715,10,0.00329595,-2.35216,0.0993912,0.593614,0.739593,
2,1,0,1,0,45505.4,0.737858,0.737582,4.06101,69,0.751105,10,0.00299533,-2.39137,0.0961469,0.613645,0.735796,
2,1,0,0,0,45506.2,0.733863,0.733585,3.70065,69,0.754197,10,0.00271474,-2.43172,0.0933469,0.632051,0.731957,
2,1,0,1,0,45507,0.729868,0.729602,3.36113,69,0.757009,10,0.00245229,-2.47352,0.0914889,0.644887,0.728123,
2,1,0,1,0,45507.8,0.725872,0.725574,3.04544,69,0.75956,10,0.0022097,-2.51635,0.0870705,0.677612,0.724234,
2,1,0,1,0,45508.6,0.721877,0.721609,2.74948,69,0.761867,10,0.00198405,-2.56075,0.0867205,0.680346,0.720399,
2,1,0,1,0,45509.4,0.717882,0.717578,2.47214,69,0.763945,10,0.00177396,-2.60693,0.0822223,0.717567,0.716491,
2,1,0,0,0,45510.2,0.713887,0.713621,2.21257,69,0.765809,10,0.00157894,-2.6551,0.0796215,0.741006,0.712647,
2,1,0,1,0,45511,0.709892,0.709644,1.97124,69,0.767473,10,0.00139888,-2.70526,0.0762404,0.773868,0.708777,
2,1,0,0,0,45511.8,0.705897,0.705638,1.7497,69,0.768952,10,0.00123466,-2.75704,0.0733512,0.80435,0.704868,
2,1,0,1,0,45512.6,0.701901,0.701614,1.54178,69,0.770258,10,0.00108173,-2.81198,0.0695291,0.848565,0.700935,
2,1,0,1,0,45513.4,0.697906,0.697607,1.35143,69,0.771406,10,0.000942768,-2.86921,0.0668969,0.881954,0.697012,
2,1,0,1,0,45514.2,0.693911,0.693672,1.17839,69,0.772409,10,0.000817414,-2.92871,0.0633595,0.931194,0.693153,
2,1,0,1,0,45515,0.689916,0.689606,1.02023,69,0.773279,10,0.000703555,-2.9913,0.061559,0.958431,0.689157,
2,1,0,0,0,45515.8,0.685921,0.685666,0.875774,69,0.774029,10,0.000600489,-3.05761,0.0587156,1.00484,0.685281,
2,1,0,1,0,45516.6,0.681926,0.681613,0.745986,69,0.77467,10,0.000508474,-3.12727,0.0540735,1.09111,0.681285,
2,1,0,1,0,45517.4,0.67793,0.677643,0.628988,69,0.775212,10,0.00042623,-3.20136,0.0524141,1.12565,0.677366,
2,1,0,1,0,45518.2,0.673935,0.673661,0.527019,69,0.775666,10,0.000355032,-3.27817,0.0502256,1.1747,0.673429,
2,1,0,1,0,45519,0.66994,0.669674,0.436103,69,0.776043,10,0.000292047,-3.36041,0.0463062,1.27413,0.669482,
2,1,0,0,0,45519.8,0.665945,0.665656,0.355373,69,0.776352,10,0.000236556,-3.44932,0.0438564,1.3453,0.665499,
2,1,0,1,0,45520.6,0.66195,0.661686,0.285731,69,0.776601,10,0.000189064,-3.54404,0.0395609,1.49137,0.661561,
2,1,0,0,0,45521.4,0.657955,0.657642,0.22507,69,0.776797,10,0.000148015,-3.64768,0.0368062,1.60299,0.657543,
2,1,0,1,0,45522.2,0.653959,0.65367,0.17179,69,0.776949,10,0.000112294,-3.765,0.0316583,1.86365,0.653595,
2,1,0,1,0,45523,0.649964,0.649679,0.127396,69,0.777061,10,8.27668e-05,-3.89484,0.02818,2.09368,0.649623,
2,1,0,1,0,45523.8,0.64597,0.645691,0.0894712,69,0.77714,10,5.77707e-05,-4.04832,0.0233269,2.52927,0.645651,
2,1,0,1,0,45524.6,0.641974,0.641711,0.0561172,69,0.777191,10,3.6011e-05,-4.2509,0.0166134,3.55135,0.641686,
2,1,0,0,0,45525.4,0.637979,0.63771,0.0291359,69,0.777218,10,1.85803e-05,-4.53557,0.0101076,5.83722,0.637697,
2,1,0,1,0,45526.2,0.633983,0.633724,0.00531417,69,0.777224,10,3.36772e-06,-5.27456,0.00679102,8.68795,0.633722,
2,0,0,1,0,45527,0.629988,0.629663,-0.0140785,69,0.777214,10,-8.86469e-06,-4.85145,-0.00569856,-10.3535,0.629669,
2,0,0,1,0,45527.8,0.625993,0.62574,-0.0301644,69,0.77719,10,-1.88751e-05,-4.52051,-0.0191088,-3.08757,0.625753,
2,0,0,1,0,45528.6,0.621998,0.621708,-0.0434041,69,0.777154,10,-2.69847e-05,-4.36247,-0.0313234,-1.88358,0.621727,
2,0,0,0,0,45529.4,0.618003,0.617694,-0.0545891,69,0.777108,10,-3.37194e-05,-4.26289,-0.0462636,-1.2753,0.617718,
2,0,0,1,0,45530.2,0.614008,0.613652,-0.0646802,69,0.777053,10,-3.96912e-05,-4.18923,-0.0744418,-0.792565,0.613681,
2,0,0,1,0,45531,0.610012,0.60975,-0.0720973,69,0.776992,10,-4.39613e-05,-4.14208,-0.0852227,-0.692304,0.609781,
2,0,0,1,0,45531.8,0.606017,0.60571,-0.0783759,69,0.776924,10,-4.7473e-05,-4.10582,-0.116412,-0.506822,0.605744,
2,0,0,1,0,45532.6,0.602022,0.601714,-0.0849127,69,0.776852,10,-5.10932e-05,-4.07103,-0.168257,-0.350654,0.601752,
2,0,0,0,0,45533.4,0.598027,0.597704,-0.0901024,69,0.776775,10,-5.38545e-05,-4.04526,-0.137531,-0.428995,0.597743,
2,0,0,1,0,45534.2,0.594032,0.593772,-0.093792,69,0.776694,10,-5.5691e-05,-4.02783,-0.235786,-0.250227,0.593813,
2,0,0,0,0,45535,0.590037,0.589773,-0.0980101,69,0.77661,10,-5.78037e-05,-4.00873,-0.275036,-0.214517,0.589816,
2,0,0,1,0,45535.8,0.586041,0.585763,-0.101445,69,0.776524,10,-5.94226e-05,-3.99377,-0.285034,-0.206993,0.585808,
2,0,0,1,0,45536.6,0.582046,0.58173,-0.104048,69,0.776435,10,-6.05277e-05,-3.98277,-0.551242,-0.107031,0.581775,
2,0,0,1,0,45537.4,0.578052,0.577776,-0.106092,69,0.776344,10,-6.12972e-05,-3.97432,-0.369822,-0.159536,0.577822,
2,0,0,1,0,45538.2,0.574056,0.573726,-0.107601,69,0.776251,10,-6.17332e-05,-3.96819,-0.500757,-0.117822,0.573773,
2,0,0,0,0,45539,0.570061,0.569789,-0.109858,69,0.776157,10,-6.25957e-05,-3.95917,-1.34971,-0.0437129,0.569838,
2,0,0,1,0,45539.8,0.566065,0.565744,-0.110647,69,0.776062,10,-6.2598e-05,-3.95606,-0.393895,-0.149786,0.565792,
2,0,0,1,0,45540.6,0.56207,0.56176,-0.113051,69,0.775965,10,-6.35074e-05,-3.94673,-0.825937,-0.071434,0.56181,
2,0,0,1,0,45541.4,0.558075,0.557748,-0.114076,69,0.775867,10,-6.36258e-05,-3.9428,-0.812933,-0.0725767,0.557798,
2,0,0,1,0,45542.2,0.55408,0.553741,-0.115192,69,0.775768,10,-6.37868e-05,-3.93858,-0.500476,-0.117888,0.553791,
2,0,0,0,0,45543,0.550085,0.549804,-0.116698,69,0.775668,10,-6.4161e-05,-3.93294,-1.63685,-0.0360449,0.549855,
2,0,0,1,0,45543.8,0.54609,0.545765,-0.117804,69,0.775567,10,-6.42931e-05,-3.92884,-1.93554,-0.0304824,0.545817,
2,0,0,1,0,45544.6,0.542094,0.541772,-0.118163,69,0.775465,10,-6.40176e-05,-3.92752,-1.02081,-0.0577971,0.541824,
2,0,0,1,0,45545.4,0.538099,0.537817,-0.120242,69,0.775362,10,-6.46681e-05,-3.91994,-1.85576,-0.0317929,0.53787,
2,0,0,1,0,45546.2,0.534104,0.533783,-0.121387,69,0.775258,10,-6.47943e-05,-3.91583,-0.526312,-0.112101,0.533836,
2,0,0,0,0,45547,0.530109,0.529826,-0.122784,69,0.775154,10,-6.50544e-05,-3.91086,-8.5576,-0.00689445,0.52988,
2,0,0,1,0,45547.8,0.526114,0.525795,-0.12393,69,0.775049,10,-6.51617e-05,-3.90682,-0.658732,-0.0895661,0.52585,
2,0,0,0,0,45548.6,0.522119,0.521812,-0.124115,69,0.774943,10,-6.47649e-05,-3.90617,-14.3022,-0.00412525,0.521867,
2,0,0,1,0,45549.4,0.518123,0.517805,-0.124667,69,0.774836,10,-6.45533e-05,-3.90425,-0.977483,-0.0603591,0.51786,
2,0,0,1,0,45550.2,0.514128,0.513835,-0.126005,69,0.774728,10,-6.47456e-05,-3.89961,-1.61187,-0.0366034,0.51389,
2,0,0,1,0,45551,0.510133,0.509838,-0.126364,69,0.77462,10,-6.44251e-05,-3.89838,-1.62394,-0.0363313,0.509893,
2,0,0,1,0,45551.8,0.506138,0.505835,-0.128429,69,0.774511,10,-6.4964e-05,-3.89134,-1.21181,-0.0486875,0.505892,
2,0,0,0,0,45552.6,0.502143,0.501885,-0.128584,69,0.774401,10,-6.45343e-05,-3.89081,-0.645533,-0.0913973,0.501942,
2,0,0,1,0,45553.4,0.498148,0.497816,-0.130425,69,0.77429,10,-6.49276e-05,-3.88464,-1.07579,-0.0548435,0.497874,
2,0,0,1,0,45554.2,0.494152,0.493842,-0.131449,69,0.774178,10,-6.49151e-05,-3.88124,-0.901272,-0.065463,0.4939,
2,0,0,1,0,45555,0.490157,0.489831,-0.131997,69,0.774065,10,-6.46564e-05,-3.87943,-0.787525,-0.0749182,0.489889,
2,0,0,1,0,45555.8,0.486162,0.485827,-0.133842,69,0.773952,10,-6.50241e-05,-3.87341,-1.58772,-0.0371602,0.485886,
2,0,0,0,0,45556.5,0.482167,0.481866,-0.135021,69,0.773837,10,-6.50618e-05,-3.8696,-0.754367,-0.0782112,0.481925,
2,0,0,1,0,45557.3,0.478172,0.477912,-0.135066,69,0.773721,10,-6.45498e-05,-3.86945,-2.19924,-0.0268274,0.477971,
2,0,0,0,0,45558.1,0.474177,0.473878,-0.137199,69,0.773604,10,-6.50157e-05,-3.86265,-0.989705,-0.0596137,0.473938,
2,0,0,1,0,45558.9,0.470181,0.469868,-0.138954,69,0.773486,10,-6.529e-05,-3.85713,-0.787115,-0.0749573,0.469929,
2,0,0,1,0,45559.7,0.466186,0.465885,-0.140007,69,0.773367,10,-6.52273e-05,-3.85385,-0.839204,-0.0703047,0.465946,
2,0,0,1,0,45560.5,0.462191,0.46189,-0.141731,69,0.773247,10,-6.54642e-05,-3.84853,-1.62565,-0.0362933,0.461952,
2,0,0,1,0,45561.3,0.458196,0.457919,-0.142341,69,0.773125,10,-6.51806e-05,-3.84667,-0.740184,-0.0797099,0.457981,
2,0,0,0,0,45562.1,0.454201,0.453898,-0.144574,69,0.773003,10,-6.5622e-05,-3.83991,-0.852941,-0.0691724,0.453961,
2,0,0,1,0,45562.9,0.450205,0.449902,-0.146362,69,0.772879,10,-6.58484e-05,-3.83457,-1.40902,-0.0418732,0.449966,
2,0,0,1,0,45563.7,0.44621,0.445915,-0.146859,69,0.772754,10,-6.54864e-05,-3.8331,-0.858773,-0.0687027,0.445979,
2,0,0,1,0,45564.5,0.442215,0.44193,-0.148846,69,0.772628,10,-6.57797e-05,-3.82726,-1.07762,-0.0547504,0.441996,
2,0,0,1,0,45565.3,0.43822,0.437916,-0.150374,69,0.7725,10,-6.58511e-05,-3.82283,-0.663616,-0.0889069,0.437982,
2,0,0,0,0,45566.1,0.434225,0.433874,-0.151328,69,0.772371,10,-6.56572e-05,-3.82008,-0.715353,-0.0824768,0.433941,
2,0,0,1,0,45566.9,0.43023,0.429919,-0.153697,69,0.772241,10,-6.60771e-05,-3.81334,-0.641334,-0.0919957,0.429986,
2,0,0,1,0,45567.7,0.426234,0.425956,-0.155479,69,0.77211,10,-6.62273e-05,-3.80833,-1.0766,-0.0548024,0.426024,
2,0,0,1,0,45568.5,0.422239,0.421993,-0.157254,69,0.771976,10,-6.636e-05,-3.8034,-1.24804,-0.047274,0.422062,
2,0,0,1,0,45569.3,0.418244,0.417948,-0.159361,69,0.771842,10,-6.66046e-05,-3.79762,-0.536838,-0.109903,0.418018,
2,0,0,0,0,45570.1,0.414249,0.413988,-0.16006,69,0.771706,10,-6.62629e-05,-3.79572,-0.743908,-0.0793109,0.414059,
2,0,0,1,0,45570.9,0.410254,0.409951,-0.161964,69,0.771568,10,-6.63972e-05,-3.79058,-4.89671,-0.0120489,0.410022,
2,0,0,0,0,45571.7,0.406259,0.405948,-0.164597,69,0.771429,10,-6.68177e-05,-3.78358,-0.494784,-0.119244,0.406021,
2,0,0,1,0,45572.5,0.402263,0.401938,-0.166249,69,0.771288,10,-6.68218e-05,-3.77924,-0.755043,-0.0781413,0.402011,
2,0,0,1,0,45573.3,0.398268,0.397917,-0.169017,69,0.771146,10,-6.72547e-05,-3.77207,-0.894874,-0.0659311,0.397991,
2,0,0,1,0,45574.1,0.394274,0.394011,-0.169883,69,0.771002,10,-6.69359e-05,-3.76985,-0.802644,-0.073507,0.394085,
2,0,0,1,0,45574.9,0.390278,0.389947,-0.171579,69,0.770856,10,-6.69068e-05,-3.76554,-0.916318,-0.0643882,0.390022,
2,0,0,0,0,45575.7,0.386283,0.385962,-0.175002,69,0.770709,10,-6.75442e-05,-3.75696,-0.636424,-0.0927056,0.386039,
2,0,0,1,0,45576.5,0.382287,0.381959,-0.175775,69,0.77056,10,-6.7139e-05,-3.75504,-0.7141,-0.0826215,0.382037,
2,0,0,1,0,45577.3,0.378292,0.377979,-0.178723,69,0.770409,10,-6.75534e-05,-3.74782,-5.57838,-0.0105765,0.378057,
2,0,0,1,0,45578.1,0.374297,0.373999,-0.179476,69,0.770257,10,-6.71237e-05,-3.74599,-0.6215,-0.0949316,0.374077,
2,0,0,1,0,45578.9,0.370303,0.369941,-0.182389,69,0.770103,10,-6.74732e-05,-3.739,-0.644335,-0.0915673,0.370022,
2,0,0,0,0,45579.7,0.366307,0.365999,-0.184606,69,0.769948,10,-6.75657e-05,-3.73375,-0.866138,-0.0681185,0.366081,
2,0,0,1,0,45580.5,0.362312,0.361994,-0.186561,69,0.76979,10,-6.75341e-05,-3.72918,-0.653545,-0.0902769,0.362076,
2,0,0,1,0,45581.3,0.358316,0.358025,-0.188692,69,0.769631,10,-6.75566e-05,-3.72425,-1.20833,-0.0488276,0.358108,
2,0,0,1,0,45582.1,0.354321,0.354021,-0.190792,69,0.76947,10,-6.75444e-05,-3.71944,-0.601329,-0.0981161,0.354105,
2,0,0,1,0,45582.9,0.350327,0.350025,-0.192989,69,0.769307,10,-6.75509e-05,-3.71447,-1.05456,-0.0559472,0.35011,
2,0,0,0,0,45583.7,0.346331,0.346021,-0.194871,69,0.769142,10,-6.74295e-05,-3.71025,-1.60599,-0.0367375,0.346107,
2,0,0,1,0,45584.5,0.342336,0.342028,-0.197259,69,0.768976,10,-6.74681e-05,-3.70496,-0.463398,-0.12732,0.342115,
2,0,0,0,0,45585.3,0.338341,0.33803,-0.199838,69,0.768807,10,-6.75512e-05,-3.69932,-1.0516,-0.0561051,0.338118,
2,0,0,1,0,45586.1,0.334345,0.334071,-0.202193,69,0.768637,10,-6.7547e-05,-3.69423,-0.66809,-0.0883114,0.33416,
2,0,0,1,0,45586.9,0.33035,0.330049,-0.204546,69,0.768464,10,-6.751e-05,-3.68921,-0.927797,-0.0635915,0.330139,
2,0,0,1,0,45587.7,0.326355,0.326059,-0.207101,69,0.76829,10,-6.75269e-05,-3.68382,-0.76444,-0.0771806,0.32615,
2,0,0,1,0,45588.5,0.32236,0.322066,-0.20892,69,0.768114,10,-6.72859e-05,-3.68002,-0.880902,-0.0669768,0.322158,
2,0,0,0,0,45589.3,0.318365,0.318065,-0.209785,69,0.767936,10,-6.67253e-05,-3.67822,-0.694778,-0.0849192,0.318157,
2,0,0,1,0,45590.1,0.31437,0.314052,-0.213923,69,0.767756,10,-6.7183e-05,-3.66974,-1.07683,-0.0547905,0.314146,
2,0,0,1,0,45590.9,0.310374,0.310067,-0.215509,69,0.767574,10,-6.68222e-05,-3.66653,-0.591,-0.0998307,0.310162,
2,0,0,1,0,45591.7,0.306379,0.306023,-0.218709,69,0.76739,10,-6.693e-05,-3.66013,-1.1716,-0.0503585,0.306119,
2,0,0,1,0,45592.5,0.302385,0.302036,-0.221145,69,0.767205,10,-6.67938e-05,-3.65532,-0.803678,-0.0734125,0.302134,
2,0,0,0,0,45593.3,0.298389,0.298055,-0.223846,69,0.767017,10,-6.67184e-05,-3.65005,-0.655734,-0.0899755,0.298154,
2,0,0,1,0,45594.1,0.294394,0.294079,-0.226115,69,0.766827,10,-6.64954e-05,-3.64567,-2.59565,-0.0227303,0.294178,
2,0,0,1,0,45594.9,0.290398,0.290083,-0.228848,69,0.766635,10,-6.63851e-05,-3.64045,-0.610065,-0.096711,0.290184,
2,0,0,1,0,45595.7,0.286403,0.286106,-0.230504,69,0.766441,10,-6.59487e-05,-3.63732,-0.634775,-0.0929462,0.286208,
2,0,0,1,0,45596.5,0.282408,0.2821,-0.234126,69,0.766245,10,-6.6047e-05,-3.63055,-1.43704,-0.0410566,0.282203,
2,0,0,1,0,45597.3,0.278414,0.278099,-0.236073,69,0.766047,10,-6.56517e-05,-3.62695,-0.645195,-0.0914452,0.278203,
2,0,0,1,0,45598.1,0.274418,0.274108,-0.23913,69,0.765846,10,-6.55473e-05,-3.62137,-1.27089,-0.0464242,0.274213,
2,0,0,0,0,45598.9,0.270423,0.27016,-0.24299,69,0.765644,10,-6.56462e-05,-3.61441,-0.670664,-0.0879725,0.270267,
2,0,0,1,0,45599.7,0.266427,0.266101,-0.244097,69,0.76544,10,-6.49545e-05,-3.61244,-1.35069,-0.0436815,0.266209,
2,0,0,1,0,45600.5,0.262432,0.262073,-0.247039,69,0.765233,10,-6.47423e-05,-3.60723,-0.705995,-0.08357,0.262182,
2,0,0,1,0,45601.3,0.258437,0.258102,-0.249543,69,0.765025,10,-6.44076e-05,-3.60285,-1.02072,-0.0578021,0.258212,
2,0,0,1,0,45602.1,0.254442,0.254171,-0.250362,69,0.764815,10,-6.36348e-05,-3.60143,-0.747637,-0.0789153,0.254281,
2,0,0,0,0,45602.9,0.250447,0.25011,-0.253705,69,0.764602,10,-6.34542e-05,-3.59567,-1.77685,-0.0332049,0.250221,
2,0,0,1,0,45603.7,0.246452,0.246148,-0.256901,69,0.764388,10,-6.32358e-05,-3.59023,-0.652481,-0.0904242,0.246261,
2,0,0,1,0,45604.5,0.242456,0.242187,-0.259146,69,0.764171,10,-6.2762e-05,-3.58645,-0.98775,-0.0597317,0.242301,
2,0,0,1,0,45605.3,0.238461,0.238139,-0.261613,69,0.763953,10,-6.23002e-05,-3.58234,-1.11643,-0.052847,0.238254,
2,0,0,1,0,45606.1,0.234467,0.234089,-0.26465,69,0.763733,10,-6.19518e-05,-3.57733,-0.851105,-0.0693217,0.234206,
2,0,0,0,0,45606.9,0.230471,0.230137,-0.265992,69,0.763511,10,-6.12145e-05,-3.57513,-1.64642,-0.0358354,0.230254,
2,0,0,1,0,45607.7,0.226476,0.226142,-0.268802,69,0.763287,10,-6.07876e-05,-3.57057,-1.33399,-0.0442281,0.226261,
2,0,0,0,0,45608.5,0.222481,0.222131,-0.269975,69,0.76306,10,-5.99698e-05,-3.56868,-0.843882,-0.069915,0.22225,
2,0,0,1,0,45609.3,0.218485,0.218149,-0.274675,69,0.762832,10,-5.992e-05,-3.56118,-1.62793,-0.0362423,0.21827,
2,0,0,1,0,45610.1,0.21449,0.214129,-0.276775,69,0.762602,10,-5.92657e-05,-3.55787,-0.587133,-0.100488,0.214251,
2,0,0,1,0,45610.9,0.210496,0.210158,-0.279436,69,0.762369,10,-5.87258e-05,-3.55372,-1.12363,-0.0525086,0.210281,
2,0,0,1,0,45611.7,0.2065,0.206192,-0.283602,69,0.762134,10,-5.84764e-05,-3.54729,-0.681017,-0.0866352,0.206317,
2,0,0,0,0,45612.5,0.202505,0.202169,-0.285202,69,0.761896,10,-5.7659e-05,-3.54485,-0.800697,-0.0736858,0.202294,
2,0,0,1,0,45613.3,0.198509,0.198187,-0.289228,69,0.761656,10,-5.73211e-05,-3.53876,-1.45666,-0.0405036,0.198314,
2,0,0,1,0,45614.1,0.194514,0.194204,-0.292626,69,0.761414,10,-5.68291e-05,-3.53369,-0.595074,-0.0991474,0.194333,
2,0,0,1,0,45614.9,0.190519,0.190219,-0.294789,69,0.761168,10,-5.60746e-05,-3.53049,-0.615629,-0.0958369,0.190349,
2,0,0,1,0,45615.7,0.186524,0.186215,-0.300321,69,0.760919,10,-5.59243e-05,-3.52241,-1.0951,-0.0538765,0.186347,
2,0,0,0,0,45616.5,0.182529,0.182246,-0.30416,69,0.760667,10,-5.54318e-05,-3.5169,-0.43449,-0.135791,0.18238,
2,0,0,1,0,45617.3,0.178534,0.178186,-0.308669,69,0.76041,10,-5.50004e-05,-3.51051,-0.632576,-0.0932694,0.178321,
2,0,0,1,0,45618.1,0.174538,0.174224,-0.314137,69,0.76015,10,-5.47301e-05,-3.50288,-0.467598,-0.126177,0.174362,
2,0,0,1,0,45618.9,0.170543,0.170213,-0.320823,69,0.759884,10,-5.46081e-05,-3.49373,-0.35559,-0.165922,0.170354,
2,0,0,1,0,45619.7,0.166549,0.166258,-0.330628,69,0.759613,10,-5.49697e-05,-3.48066,-0.389356,-0.151532,0.166404,
2,0,0,0,0,45620.5,0.162553,0.162207,-0.338652,69,0.759334,10,-5.49319e-05,-3.47025,-0.273932,-0.215382,0.162356,
2,0,0,1,0,45621.3,0.158558,0.158223,-0.349461,69,0.759047,10,-5.52929e-05,-3.4566,-0.271835,-0.217044,0.158377,
2,0,0,0,0,45622.1,0.154563,0.154243,-0.365827,69,0.758749,10,-5.64262e-05,-3.43672,-0.187799,-0.314166,0.154404,
2,0,0,1,0,45622.9,0.150567,0.150214,-0.387019,69,0.758438,10,-5.81356e-05,-3.41227,-0.157147,-0.375444,0.150384,
2,0,0,1,0,45623.7,0.146572,0.146246,-0.41246,69,0.758108,10,-6.03207e-05,-3.38462,-0.119851,-0.492276,0.146428,
2,0,0,1,0,45624.5,0.142578,0.142248,-0.448552,69,0.757753,10,-6.38055e-05,-3.34819,-0.102171,-0.577461,0.142445,
2,0,0,1,0,45625.3,0.138582,0.138253,-0.491104,69,0.757367,10,-6.78966e-05,-3.30883,-0.0966065,-0.610725,0.138469,
2,0,0,0,0,45626.1,0.134587,0.134233,-0.539742,69,0.756943,10,-7.24511e-05,-3.26781,-0.102416,-0.57608,0.13447,
2,0,0,1,0,45626.9,0.130591,0.130303,-0.588229,69,0.75648,10,-7.66477e-05,-3.23045,-0.113497,-0.519839,0.130561,
2,0,0,1,0,45627.7,0.126596,0.126259,-0.629886,69,0.755979,10,-7.95286e-05,-3.20074,-0.157923,-0.373599,0.126536,
2,0,0,1,0,45628.5,0.122602,0.12231,-0.662005,69,0.75545,10,-8.09698e-05,-3.17914,-0.24511,-0.240708,0.122601,
2,0,0,1,0,45629.3,0.118607,0.118249,-0.681081,69,0.7549,10,-8.05369e-05,-3.1668,-0.404211,-0.145963,0.118548,
2,0,0,0,0,45630.1,0.114611,0.114291,-0.690739,69,0.754337,10,-7.89451e-05,-3.16069,-1.37258,-0.0429847,0.114595,
2,0,0,1,0,45630.9,0.110616,0.110285,-0.694763,69,0.753771,10,-7.66216e-05,-3.15816,-4.51417,-0.01307,0.11059,
2,0,0,1,0,45631.7,0.10662,0.106276,-0.694041,69,0.753204,10,-7.37599e-05,-3.15861,2.65617,0.0222124,0.106581,
2,0,0,1,0,45632.5,0.102625,0.102299,-0.689754,69,0.752638,10,-7.05609e-05,-3.16131,1.08452,0.054402,0.102602,
2,0,0,1,0,45633.3,0.0986305,0.0983085,-0.685554,69,0.752076,10,-6.73958e-05,-3.16396,1.98946,0.0296563,0.0986102,
2,0,0,0,0,45634.1,0.0946351,0.0943287,-0.67769,69,0.751518,10,-6.39256e-05,-3.16897,0.847179,0.0696429,0.0946269,
2,0,0,1,0,45634.9,0.0906399,0.0902981,-0.67107,69,0.750967,10,-6.05964e-05,-3.17323,0.596065,0.0989825,0.0905933,
2,0,0,0,0,45635.7,0.0866448,0.0862855,-0.662652,69,0.750422,10,-5.71773e-05,-3.17871,0.873684,0.0675302,0.0865771,
2,0,0,1,0,45636.5,0.0826492,0.0823172,-0.654185,69,0.749884,10,-5.38507e-05,-3.1843,0.511724,0.115297,0.082605,
2,0,0,1,0,45637.3,0.0786544,0.0783515,-0.644936,69,0.749354,10,-5.05316e-05,-3.19048,0.971038,0.0607597,0.0786352,
2,0,0,1,0,45638.1,0.0746596,0.0743276,-0.635589,69,0.748831,10,-4.72418e-05,-3.19682,0.684495,0.0861949,0.0746073,
2,0,0,1,0,45638.9,0.0706641,0.0703582,-0.62785,69,0.748314,10,-4.41744e-05,-3.20214,0.568511,0.10378,0.0706344,
2,0,0,0,0,45639.6,0.0666689,0.0663361,-0.619,69,0.747805,10,-4.1062e-05,-3.20831,0.742848,0.0794241,0.0666084,
2,0,0,1,0,45640.4,0.0626737,0.0623585,-0.608681,69,0.747302,10,-3.79564e-05,-3.21561,0.637755,0.092512,0.0626263,
2,0,0,1,0,45641.2,0.0586783,0.0583457,-0.601974,69,0.746806,10,-3.51225e-05,-3.22042,0.555756,0.106162,0.0586105,
2,0,0,1,0,45642,0.0546835,0.0543557,-0.591615,69,0.746318,10,-3.21576e-05,-3.22796,0.741028,0.0796191,0.054616,
2,0,0,1,0,45642.8,0.0506886,0.0503646,-0.581983,69,0.745837,10,-2.93114e-05,-3.23509,0.436262,0.13524,0.0506207,
2,0,0,0,0,45643.6,0.046693,0.0463506,-0.572006,69,0.745364,10,-2.65128e-05,-3.2426,0.597291,0.0987794,0.0466023,
2,0,0,1,0,45644.4,0.0426979,0.0423709,-0.560514,69,0.7449,10,-2.37495e-05,-3.25141,0.603203,0.0978112,0.0426175,
2,0,0,1,0,45645.2,0.0387022,0.0383482,-0.550083,69,0.744444,10,-2.10947e-05,-3.25957,0.368597,0.160066,0.0385902,
2,0,0,1,0,45646,0.0347074,0.0343826,-0.540919,69,0.743996,10,-1.85982e-05,-3.26687,0.578223,0.102037,0.0346206,
2,0,0,1,0,45646.8,0.0307126,0.030378,-0.529791,69,0.743556,10,-1.6094e-05,-3.2759,0.533251,0.110642,0.0306111,
2,0,0,0,0,45647.6,0.0267172,0.0263757,-0.522204,69,0.743124,10,-1.37735e-05,-3.28216,0.434229,0.135873,0.0266055,
2,0,0,1,0,45648.4,0.022722,0.022414,-0.513923,69,0.742698,10,-1.15191e-05,-3.2891,1.03824,0.0568269,0.0226402,
2,0,0,0,0,45649.2,0.0187268,0.0184184,-0.507837,69,0.742279,10,-9.35355e-06,-3.29428,0.776753,0.0759572,0.0186419,
2,0,0,1,0,45650,0.0147313,0.0143716,-0.504447,69,0.741864,10,-7.2497e-06,-3.29718,1.31473,0.044876,0.0145935,
2,0,0,1,0,45650.8,0.0107365,0.0103837,-0.500395,69,0.741452,10,-5.19593e-06,-3.30069,2.14954,0.0274478,0.0106038,
2,0,0,1,0,45651.6,0.00674163,0.00640334,-0.498253,69,0.741041,10,-3.19048e-06,-3.30255,8.76282,0.00673299,0.00662257,
2,0,0,1,0,45652.4,0.00274612,0.00240522,-0.499012,69,0.740631,10,-1.20024e-06,-3.30189,-1.77403,-0.0332576,0.00262479,
2,0,0,0,0,45652.9,0.000274105,-5.33292e-05,-0.49992,69,0.740375,10,2.66604e-08,-3.3011, , ,0.000166636,