File: Figure_codes/Fig_3-5/workspace_calculate_alpha_eff/20221101_1-115_003_TrumpetPlot_ParaChange_from10_every3_16_CV_C01_72.csv
mode,ox/red,error,control changes,counter inc.,time/s,control/V,Ewe/V,<I>/mA,cycle number,(Q-Qo)/C,I Range,P/W,log(|I|),Tafel slope mV/dec,alpha_eff,E-IR/V,
2,0,0,1,0,48513.2,2.44065e-05,-0.000325324,-0.0453313,73,0.0000000E+000,10,1.47473e-08,-4.3436, , ,-0.000305378,
2,1,0,1,0,48514,0.00379485,0.00347517,0.20153,73,0.000129927,10,7.00352e-07,-3.69566,0.0464482,1.27023,0.0033865,
2,1,0,0,0,48514.8,0.00779002,0.00744533,0.224099,73,0.000310758,10,1.66849e-06,-3.64956,0.10088,0.584853,0.00734673,
2,1,0,1,0,48515.6,0.0117852,0.011459,0.238261,73,0.000506755,10,2.73023e-06,-3.62295,0.157969,0.373491,0.0113541,
2,1,0,1,0,48516.4,0.0157806,0.0154706,0.255279,73,0.00071457,10,3.94934e-06,-3.59298,0.169625,0.347825,0.0153583,
2,1,0,1,0,48517.2,0.0197754,0.0194523,0.267061,73,0.000933221,10,5.19494e-06,-3.57339,0.181733,0.324652,0.0193348,
2,1,0,1,0,48518,0.0237704,0.0234676,0.281041,73,0.00116303,10,6.59535e-06,-3.55123,0.197505,0.298726,0.0233439,
2,1,0,0,0,48518.8,0.0277659,0.0274478,0.294635,73,0.00140304,10,8.08708e-06,-3.53072,0.184147,0.320396,0.0273181,
2,1,0,1,0,48519.6,0.0317611,0.031471,0.306849,73,0.00165409,10,9.65684e-06,-3.51308,0.227134,0.259758,0.031336,
2,1,0,1,0,48520.4,0.0357567,0.0354087,0.321443,73,0.00191602,10,1.13819e-05,-3.4929,0.254617,0.23172,0.0352673,
2,1,0,1,0,48521.2,0.0397516,0.0393723,0.334997,73,0.00218832,10,1.31896e-05,-3.47496,0.1967,0.299949,0.0392249,
2,1,0,1,0,48522,0.0437465,0.0434407,0.346088,73,0.00247183,10,1.50343e-05,-3.46081,0.253221,0.232998,0.0432884,
2,1,0,1,0,48522.8,0.0477413,0.047403,0.361215,73,0.00276504,10,1.71227e-05,-3.44223,0.268462,0.21977,0.0472441,
2,1,0,1,0,48523.6,0.0517369,0.051379,0.371978,73,0.00306817,10,1.91119e-05,-3.42948,0.259932,0.226982,0.0512154,
2,1,0,0,0,48524.4,0.0557321,0.0553906,0.383425,73,0.0033811,10,2.12381e-05,-3.41632,0.39464,0.149503,0.0552218,
2,1,0,1,0,48525.2,0.0597277,0.0593812,0.394782,73,0.0037026,10,2.34426e-05,-3.40364,0.326299,0.180816,0.0592075,
2,1,0,1,0,48526,0.0637226,0.0633819,0.403468,73,0.00403248,10,2.55726e-05,-3.39419,0.390953,0.150913,0.0632044,
2,1,0,1,0,48526.8,0.0677174,0.0674336,0.415025,73,0.00437039,10,2.79866e-05,-3.38193,0.552404,0.106806,0.067251,
2,1,0,1,0,48527.6,0.0717128,0.0713666,0.421356,73,0.00471472,10,3.00707e-05,-3.37535,0.40852,0.144424,0.0711812,
2,1,0,0,0,48528.4,0.075708,0.0753898,0.428496,73,0.0050655,10,3.23042e-05,-3.36805,0.509344,0.115835,0.0752013,
2,1,0,1,0,48529.2,0.0797031,0.0793716,0.436246,73,0.0054219,10,3.46256e-05,-3.36027,0.656255,0.0899041,0.0791797,
2,1,0,1,0,48530,0.0836986,0.0833601,0.444407,73,0.00578396,10,3.70458e-05,-3.35222,0.426354,0.138383,0.0831646,
2,1,0,1,0,48530.8,0.0876935,0.0873766,0.453903,73,0.00615339,10,3.96605e-05,-3.34304,0.384094,0.153608,0.0871769,
2,1,0,1,0,48531.6,0.0916883,0.0913601,0.467568,73,0.00653162,10,4.27171e-05,-3.33016,0.292735,0.201547,0.0911544,
2,1,0,0,0,48532.4,0.0956838,0.095352,0.481444,73,0.00692182,10,4.59067e-05,-3.31745,0.249846,0.236146,0.0951401,
2,1,0,1,0,48533.2,0.099679,0.0993455,0.502656,73,0.00732623,10,4.99366e-05,-3.29873,0.255518,0.230904,0.0991243,
2,1,0,0,0,48534,0.103674,0.103343,0.52351,73,0.00774667,10,5.41012e-05,-3.28107,0.202453,0.291425,0.103113,
2,1,0,1,0,48534.8,0.10767,0.10732,0.542454,73,0.00818451,10,5.82162e-05,-3.26564,0.262999,0.224336,0.107081,
2,1,0,1,0,48535.6,0.111664,0.111353,0.562404,73,0.00863725,10,6.26256e-05,-3.24995,0.280015,0.210703,0.111106,
2,1,0,1,0,48536.4,0.115659,0.115296,0.577197,73,0.00910317,10,6.65484e-05,-3.23868,0.401539,0.146935,0.115042,
2,1,0,1,0,48537.2,0.119655,0.11933,0.587757,73,0.00958023,10,7.0137e-05,-3.2308,0.805811,0.0732182,0.119071,
2,1,0,0,0,48538,0.12365,0.123343,0.597224,73,0.0100645,10,7.36637e-05,-3.22386,0.565869,0.104264,0.123081,
2,1,0,1,0,48538.8,0.127646,0.127321,0.603728,73,0.0105559,10,7.68669e-05,-3.21916,1.2421,0.0475003,0.127055,
2,1,0,1,0,48539.6,0.131641,0.131335,0.60629,73,0.0110511,10,7.9627e-05,-3.21732,-0.754826,-0.0781637,0.131068,
2,1,0,1,0,48540.4,0.135635,0.13529,0.59191,73,0.0115414,10,8.00794e-05,-3.22774,-0.295566,-0.199617,0.135029,
2,1,0,1,0,48541.2,0.139631,0.139296,0.560181,73,0.0120145,10,7.80312e-05,-3.25167,-0.122785,-0.480514,0.13905,
2,1,0,0,0,48542,0.143626,0.143263,0.511797,73,0.0124546,10,7.33217e-05,-3.2909,-0.0879297,-0.67099,0.143038,
2,1,0,1,0,48542.8,0.147621,0.147303,0.454147,73,0.0128513,10,6.68973e-05,-3.3428,-0.0759745,-0.776577,0.147104,
2,1,0,1,0,48543.6,0.151617,0.151273,0.405219,73,0.0132047,10,6.12987e-05,-3.39231,-0.0880118,-0.670365,0.151095,
2,1,0,1,0,48544.4,0.155612,0.155289,0.371481,73,0.0135244,10,5.76872e-05,-3.43006,-0.127777,-0.461743,0.155126,
2,1,0,1,0,48545.2,0.159606,0.159262,0.348385,73,0.013822,10,5.54847e-05,-3.45794,-0.180062,-0.327664,0.159109,
2,1,0,0,0,48546,0.163602,0.163279,0.335041,73,0.0141052,10,5.47053e-05,-3.4749,-0.242963,-0.242835,0.163132,
2,1,0,1,0,48546.8,0.167597,0.167274,0.325327,73,0.0143786,10,5.44187e-05,-3.48768,-0.475099,-0.124185,0.167131,
2,1,0,0,0,48547.6,0.171592,0.171263,0.317399,73,0.0146458,10,5.43587e-05,-3.49839,-0.429332,-0.137423,0.171124,
2,1,0,1,0,48548.4,0.175588,0.175224,0.312601,73,0.0149075,10,5.47753e-05,-3.50501,-0.664682,-0.0887643,0.175087,
2,1,0,1,0,48549.2,0.179582,0.17922,0.308824,73,0.0151657,10,5.53473e-05,-3.51029,-0.837694,-0.0704314,0.179084,
2,1,0,1,0,48550,0.183577,0.183235,0.305015,73,0.0154212,10,5.58894e-05,-3.51568,-0.969637,-0.0608475,0.183101,
2,1,0,1,0,48550.8,0.187573,0.187234,0.303201,73,0.0156742,10,5.67695e-05,-3.51827,-1.03351,-0.0570872,0.187101,
2,1,0,0,0,48551.6,0.191568,0.191234,0.301073,73,0.0159254,10,5.75754e-05,-3.52133,-1.2143,-0.0485878,0.191101,
2,1,0,1,0,48552.4,0.195563,0.195203,0.298123,73,0.016175,10,5.81945e-05,-3.5256,-0.928159,-0.0635667,0.195072,
2,1,0,1,0,48553.2,0.199559,0.199221,0.297308,73,0.0164226,10,5.92299e-05,-3.52679,-2.86008,-0.0206288,0.19909,
2,1,0,1,0,48554,0.203553,0.203198,0.294815,73,0.0166693,10,5.9906e-05,-3.53045,-2.33195,-0.0253007,0.203069,
2,1,0,1,0,48554.8,0.207548,0.207229,0.294474,73,0.0169147,10,6.10234e-05,-3.53095,-1.60051,-0.0368633,0.207099,
2,1,0,0,0,48555.6,0.211544,0.211218,0.292374,73,0.0171591,10,6.17547e-05,-3.53406,-2.91781,-0.0202206,0.21109,
2,1,0,1,0,48556.4,0.215539,0.215168,0.291334,73,0.0174024,10,6.26859e-05,-3.53561,-4.21458,-0.013999,0.21504,
2,1,0,1,0,48557.1,0.219535,0.219253,0.290912,73,0.0176446,10,6.37834e-05,-3.53624,-1.53661,-0.0383962,0.219125,
2,1,0,1,0,48557.9,0.223529,0.223232,0.288951,73,0.0178861,10,6.45029e-05,-3.53918,-2.09461,-0.0281675,0.223105,
2,1,0,1,0,48558.7,0.227524,0.227232,0.288545,73,0.0181268,10,6.55668e-05,-3.53979,-3.60662,-0.0163588,0.227105,
2,1,0,0,0,48559.5,0.23152,0.231207,0.287542,73,0.0183667,10,6.64816e-05,-3.5413,-4.26234,-0.0138422,0.23108,
2,1,0,1,0,48560.3,0.235515,0.235207,0.285364,73,0.0186059,10,6.71196e-05,-3.5446,-3.32158,-0.0177626,0.235081,
2,1,0,0,0,48561.1,0.23951,0.239197,0.286102,73,0.0188443,10,6.84347e-05,-3.54348,-2.77384,-0.0212701,0.239071,
2,1,0,1,0,48561.9,0.243506,0.243173,0.285085,73,0.0190823,10,6.9325e-05,-3.54503,6.37813,0.00925035,0.243048,
2,1,0,1,0,48562.7,0.2475,0.247172,0.284761,73,0.0193198,10,7.0385e-05,-3.54552,-2.00099,-0.0294854,0.247047,
2,1,0,1,0,48563.5,0.251495,0.251179,0.283083,73,0.0195563,10,7.11045e-05,-3.54809,-2.69634,-0.0218815,0.251055,
2,1,0,1,0,48564.3,0.255491,0.255185,0.281714,73,0.0197923,10,7.18892e-05,-3.55019,72.8886,0.000809454,0.255061,
2,1,0,0,0,48565.1,0.259486,0.259138,0.282397,73,0.0200278,10,7.31799e-05,-3.54914,-0.983201,-0.060008,0.259014,
2,1,0,1,0,48565.9,0.263481,0.26316,0.280904,73,0.0202623,10,7.39228e-05,-3.55144,-11.7278,-0.00503077,0.263037,
2,1,0,1,0,48566.7,0.267477,0.267173,0.280023,73,0.0204962,10,7.48147e-05,-3.55281,60.2406,0.000979405,0.26705,
2,1,0,1,0,48567.5,0.271471,0.271128,0.279253,73,0.0207292,10,7.57133e-05,-3.554,-4.23131,-0.0139437,0.271005,
2,1,0,1,0,48568.3,0.275466,0.275131,0.278133,73,0.0209616,10,7.65229e-05,-3.55575,-1.72782,-0.0341471,0.275008,
2,1,0,0,0,48569.1,0.279462,0.279155,0.278711,73,0.0211931,10,7.78036e-05,-3.55485,-1.93518,-0.0304882,0.279033,
2,1,0,1,0,48569.9,0.283457,0.283143,0.276928,73,0.0214238,10,7.841e-05,-3.55763,-8.45903,-0.00697479,0.283021,
2,1,0,0,0,48570.7,0.287452,0.287122,0.275412,73,0.021654,10,7.9077e-05,-3.56002,-2.00025,-0.0294963,0.287001,
2,1,0,1,0,48571.5,0.291448,0.29111,0.274714,73,0.0218834,10,7.99719e-05,-3.56112,-1.17233,-0.0503269,0.290989,
2,1,0,1,0,48572.3,0.295442,0.29514,0.274164,73,0.022112,10,8.09168e-05,-3.56199,-8.5236,-0.00692195,0.295019,
2,1,0,1,0,48573.1,0.299437,0.299123,0.27276,73,0.0223401,10,8.15886e-05,-3.56422,-3.65236,-0.0161539,0.299003,
2,1,0,1,0,48573.9,0.303433,0.303106,0.271806,73,0.0225673,10,8.23858e-05,-3.56574,-2.53139,-0.0233074,0.302986,
2,1,0,0,0,48574.7,0.307428,0.307106,0.270662,73,0.0227935,10,8.31217e-05,-3.56757,2.85498,0.0206657,0.306987,
2,1,0,1,0,48575.5,0.311424,0.311079,0.270743,73,0.0230195,10,8.42227e-05,-3.56744,-2.66498,-0.022139,0.31096,
2,1,0,1,0,48576.3,0.315418,0.315068,0.271234,73,0.023245,10,8.54573e-05,-3.56666,18.5629,0.00317838,0.314949,
2,1,0,1,0,48577.1,0.319413,0.319063,0.269887,73,0.02347,10,8.61109e-05,-3.56882,-1.7348,-0.0340097,0.318944,
2,1,0,1,0,48577.9,0.323409,0.323086,0.269393,73,0.0236945,10,8.70369e-05,-3.56961,-1.58832,-0.0371461,0.322967,
2,1,0,0,0,48578.7,0.327404,0.327108,0.269169,73,0.0239183,10,8.80472e-05,-3.56998,6.05651,0.00974158,0.32699,
2,1,0,1,0,48579.5,0.331399,0.331063,0.26676,73,0.0241417,10,8.83144e-05,-3.57388,-1.44106,-0.040942,0.330946,
2,1,0,1,0,48580.3,0.335395,0.335097,0.267821,73,0.0243645,10,8.9746e-05,-3.57216,-5.18997,-0.0113681,0.334979,
2,1,0,1,0,48581.1,0.339389,0.339054,0.266632,73,0.0245866,10,9.04026e-05,-3.57409,-3.92287,-0.01504,0.338936,
2,1,0,1,0,48581.9,0.343384,0.343037,0.265382,73,0.0248082,10,9.10358e-05,-3.57613,-3.10499,-0.0190016,0.34292,
2,1,0,0,0,48582.7,0.34738,0.347079,0.265952,73,0.0250292,10,9.23062e-05,-3.5752,-10.7337,-0.00549669,0.346962,
2,1,0,1,0,48583.5,0.351375,0.351028,0.264301,73,0.0252497,10,9.27771e-05,-3.5779,-3.0368,-0.0194283,0.350911,
2,1,0,0,0,48584.3,0.35537,0.355068,0.264207,73,0.0254699,10,9.38113e-05,-3.57806,-1.61597,-0.0365107,0.354952,
2,1,0,1,0,48585.1,0.359366,0.359018,0.263748,73,0.0256892,10,9.46902e-05,-3.57881,2.58121,0.0228575,0.358902,
2,1,0,1,0,48585.9,0.36336,0.363069,0.262913,73,0.0259082,10,9.54557e-05,-3.58019,-10.9701,-0.00537823,0.362954,
2,1,0,1,0,48586.7,0.367355,0.367022,0.263221,73,0.0261268,10,9.6608e-05,-3.57968,-2.39978,-0.0245856,0.366906,
2,1,0,1,0,48587.5,0.371351,0.371036,0.26238,73,0.026345,10,9.73525e-05,-3.58107,-23.913,-0.00246728,0.370921,
2,1,0,0,0,48588.3,0.375346,0.375039,0.262379,73,0.0265628,10,9.84023e-05,-3.58107,-2.52877,-0.0233315,0.374924,
2,1,0,1,0,48589.1,0.379342,0.379008,0.26126,73,0.0267799,10,9.90197e-05,-3.58293,-3.21311,-0.0183623,0.378893,
2,1,0,1,0,48589.9,0.383336,0.382955,0.260992,73,0.0269966,10,9.9948e-05,-3.58337,-9.1148,-0.00647299,0.38284,
2,1,0,1,0,48590.7,0.387331,0.386997,0.260569,73,0.0272133,10,0.000100839,-3.58408,-2.6412,-0.0223383,0.386882,
2,1,0,1,0,48591.5,0.391327,0.390974,0.259736,73,0.0274295,10,0.00010155,-3.58547,27.8305,0.00211998,0.39086,
2,1,0,0,0,48592.3,0.395322,0.395024,0.259331,73,0.0276451,10,0.000102442,-3.58615,-3.11417,-0.0189457,0.39491,
2,1,0,1,0,48593.1,0.399317,0.399005,0.259347,73,0.0278603,10,0.000103481,-3.58612,-47.6846,-0.0012373,0.398891,
2,1,0,1,0,48593.9,0.403313,0.403021,0.258434,73,0.0280752,10,0.000104154,-3.58765,50.6559,0.00116472,0.402907,
2,1,0,1,0,48594.7,0.407307,0.406999,0.259179,73,0.0282899,10,0.000105486,-3.5864,-6.19864,-0.00951822,0.406885,
2,1,0,1,0,48595.5,0.411302,0.410987,0.25924,73,0.0285042,10,0.000106544,-3.5863,-4.54535,-0.0129803,0.410873,
2,1,0,0,0,48596.3,0.415298,0.415007,0.257766,73,0.0287183,10,0.000106975,-3.58877,-2.58333,-0.0228388,0.414894,
2,1,0,1,0,48597.1,0.419293,0.419003,0.258104,73,0.0289319,10,0.000108146,-3.5882,-8.3313,-0.00708173,0.418889,
2,1,0,0,0,48597.9,0.423288,0.422991,0.257237,73,0.0291453,10,0.000108809,-3.58967,2.60883,0.0226155,0.422878,
2,1,0,1,0,48598.7,0.427283,0.426982,0.256688,73,0.0293587,10,0.000109601,-3.59059,-8.56815,-0.00688597,0.426869,
2,1,0,1,0,48599.5,0.431278,0.430951,0.256574,73,0.0295717,10,0.00011057,-3.59079,-5.14792,-0.0114609,0.430838,
2,1,0,1,0,48600.3,0.435273,0.434982,0.256341,73,0.0297843,10,0.000111504,-3.59118,-4.47946,-0.0131712,0.434869,
2,1,0,1,0,48601.1,0.439269,0.43898,0.256286,73,0.0299969,10,0.000112504,-3.59127,5.22965,0.0112818,0.438867,
2,1,0,0,0,48601.9,0.443264,0.442967,0.256006,73,0.0302092,10,0.000113402,-3.59175,19.3782,0.00304466,0.442854,
2,1,0,1,0,48602.7,0.447259,0.446921,0.256654,73,0.0304214,10,0.000114704,-3.59065,-5.30747,-0.0111164,0.446808,
2,1,0,1,0,48603.5,0.451254,0.450924,0.25659,73,0.0306339,10,0.000115703,-3.59076,-2.00895,-0.0293686,0.450811,
2,1,0,1,0,48604.3,0.455249,0.454945,0.256521,73,0.0308461,10,0.000116703,-3.59088,1.05729,0.0558033,0.454832,
2,1,0,1,0,48605.1,0.459244,0.458914,0.255654,73,0.0310585,10,0.000117323,-3.59235,-5.75311,-0.0102553,0.458801,
2,1,0,0,0,48605.9,0.46324,0.462927,0.2569,73,0.031271,10,0.000118926,-3.59024,6.08508,0.00969584,0.462814,
2,1,0,1,0,48606.7,0.467235,0.466884,0.256601,73,0.0314833,10,0.000119803,-3.59074,-3.74095,-0.0157714,0.466772,
2,1,0,1,0,48607.5,0.471231,0.470901,0.256866,73,0.0316959,10,0.000120959,-3.59029,47.0677,0.00125351,0.470788,
2,1,0,1,0,48608.3,0.475225,0.47493,0.257388,73,0.0319085,10,0.000122241,-3.58941,9.84589,0.00599235,0.474817,
2,1,0,1,0,48609.1,0.47922,0.47892,0.257602,73,0.0321212,10,0.000123371,-3.58905,2.61722,0.022543,0.478806,
2,1,0,0,0,48609.9,0.483216,0.482883,0.258075,73,0.0323342,10,0.00012462,-3.58825,-9.49315,-0.00621501,0.482769,
2,1,0,1,0,48610.7,0.487211,0.486856,0.258814,73,0.0325474,10,0.000126005,-3.58701,2.91534,0.0202378,0.486742,
2,1,0,0,0,48611.5,0.491206,0.490902,0.258281,73,0.032761,10,0.000126791,-3.58791,3.17683,0.018572,0.490788,
2,1,0,1,0,48612.3,0.495201,0.494884,0.259142,73,0.0329748,10,0.000128245,-3.58646,7.20673,0.00818679,0.49477,
2,1,0,1,0,48613.1,0.499196,0.49886,0.259792,73,0.0331889,10,0.0001296,-3.58538,3.17405,0.0185882,0.498746,
2,1,0,1,0,48613.9,0.503191,0.502838,0.260187,73,0.0334038,10,0.000130832,-3.58471,-19.0511,-0.00309693,0.502724,
2,1,0,1,0,48614.7,0.507187,0.506826,0.260868,73,0.033619,10,0.000132215,-3.58358,1.81115,0.032576,0.506711,
2,1,0,0,0,48615.5,0.511182,0.510881,0.262745,73,0.0338348,10,0.000134231,-3.58047,2.91413,0.0202462,0.510765,
2,1,0,1,0,48616.3,0.515177,0.51482,0.263414,73,0.0340514,10,0.000135611,-3.57936,2.98224,0.0197838,0.514704,
2,1,0,1,0,48617.1,0.519173,0.518854,0.263532,73,0.0342686,10,0.000136735,-3.57917,1.29699,0.0454898,0.518738,
2,1,0,1,0,48617.9,0.523167,0.522811,0.26484,73,0.0344868,10,0.000138461,-3.57702,2.80767,0.0210139,0.522695,
2,1,0,1,0,48618.7,0.527162,0.526839,0.26702,73,0.0347059,10,0.000140677,-3.57346,1.49614,0.0394349,0.526722,
2,1,0,0,0,48619.5,0.531158,0.530825,0.267833,73,0.0349263,10,0.000142173,-3.57214,2.18651,0.0269837,0.530707,
2,1,0,1,0,48620.3,0.535153,0.534827,0.269557,73,0.0351476,10,0.000144167,-3.56935,1.46132,0.0403744,0.534708,
2,1,0,0,0,48621.1,0.539148,0.538851,0.271975,73,0.0353699,10,0.000146554,-3.56547,1.45169,0.0406423,0.538731,
2,1,0,1,0,48621.9,0.543143,0.542813,0.272816,73,0.0355936,10,0.000148088,-3.56413,1.96695,0.0299956,0.542693,
2,1,0,1,0,48622.7,0.547138,0.546785,0.275155,73,0.0358188,10,0.000150451,-3.56042,2.87015,0.0205564,0.546664,
2,1,0,1,0,48623.5,0.551133,0.550793,0.277061,73,0.0360453,10,0.000152603,-3.55743,0.629734,0.0936904,0.550671,
2,1,0,1,0,48624.3,0.555129,0.554795,0.278639,73,0.0362738,10,0.000154587,-3.55496,1.24316,0.0474599,0.554673,
2,1,0,0,0,48625.1,0.559124,0.558802,0.280859,73,0.0365038,10,0.000156944,-3.55151,1.30299,0.0452805,0.558678,
2,1,0,1,0,48625.9,0.56312,0.56279,0.283813,73,0.0367357,10,0.000159727,-3.54697,0.768702,0.0767528,0.562666,
2,1,0,1,0,48626.7,0.567114,0.566802,0.286673,73,0.0369701,10,0.000162487,-3.54261,1.30113,0.0453452,0.566676,
2,1,0,1,0,48627.5,0.571109,0.570779,0.289861,73,0.0372065,10,0.000165447,-3.53781,0.616086,0.0957658,0.570651,
2,1,0,1,0,48628.3,0.575105,0.574826,0.29355,73,0.0374456,10,0.00016874,-3.53232,0.732485,0.0805477,0.574697,
2,1,0,0,0,48629.1,0.5791,0.578788,0.297201,73,0.0376878,10,0.000172017,-3.52695,0.770778,0.0765461,0.578657,
2,1,0,1,0,48629.9,0.583095,0.58275,0.301468,73,0.0379331,10,0.00017568,-3.52076,0.578878,0.101921,0.582617,
2,1,0,1,0,48630.7,0.58709,0.586746,0.306018,73,0.0381821,10,0.000179555,-3.51425,0.631901,0.0933691,0.586611,
2,1,0,1,0,48631.5,0.591085,0.590804,0.311923,73,0.0384349,10,0.000184285,-3.50595,0.527071,0.111939,0.590666,
2,1,0,1,0,48632.3,0.59508,0.594771,0.317105,73,0.038692,10,0.000188605,-3.4988,0.418441,0.140999,0.594632,
2,1,0,0,0,48633.1,0.599076,0.598773,0.324688,73,0.0389544,10,0.000194414,-3.48853,0.443507,0.13303,0.59863,
2,1,0,1,0,48633.9,0.603071,0.602735,0.332158,73,0.0392224,10,0.000200203,-3.47866,0.380872,0.154908,0.602589,
2,1,0,0,0,48634.7,0.607066,0.606755,0.340062,73,0.039497,10,0.000206334,-3.46844,0.341031,0.173005,0.606606,
2,1,0,1,0,48635.5,0.611061,0.610763,0.349783,73,0.0397788,10,0.000213635,-3.4562,0.335583,0.175813,0.610609,
2,1,0,1,0,48636.3,0.615056,0.614743,0.360916,73,0.0400687,10,0.00022187,-3.44259,0.26226,0.224968,0.614584,
2,1,0,1,0,48637.1,0.619051,0.618718,0.374505,73,0.0403689,10,0.000231713,-3.42654,0.235974,0.250027,0.618554,
2,1,0,1,0,48637.9,0.623047,0.622736,0.389879,73,0.0406803,10,0.000242792,-3.40907,0.212125,0.278138,0.622564,
2,1,0,0,0,48638.7,0.627042,0.626692,0.407669,73,0.0410049,10,0.000255483,-3.38969,0.193888,0.304299,0.626513,
2,1,0,1,0,48639.5,0.631037,0.630786,0.427708,73,0.0413447,10,0.000269792,-3.36885,0.186521,0.316318,0.630597,
2,1,0,1,0,48640.2,0.635032,0.634696,0.451033,73,0.0417014,10,0.000286269,-3.34579,0.16595,0.355528,0.634498,
2,1,0,1,0,48641,0.639027,0.638712,0.478502,73,0.0420784,10,0.000305625,-3.32012,0.150027,0.393262,0.638501,
2,1,0,1,0,48641.8,0.643022,0.642691,0.510646,73,0.0424791,10,0.000328188,-3.29188,0.136052,0.433656,0.642466,
2,1,0,0,0,48642.6,0.647018,0.646715,0.546633,73,0.0429072,10,0.000353516,-3.2623,0.128739,0.458292,0.646474,
2,1,0,1,0,48643.4,0.651013,0.650689,0.588435,73,0.0433663,10,0.000382888,-3.2303,0.120607,0.489191,0.65043,
2,1,0,1,0,48644.2,0.655008,0.65467,0.639587,73,0.0438626,10,0.000418719,-3.1941,0.10413,0.566602,0.654389,
2,1,0,1,0,48645,0.659003,0.658665,0.69785,73,0.0444025,10,0.000459649,-3.15624,0.102611,0.574986,0.658358,
2,1,0,1,0,48645.8,0.662998,0.662703,0.765273,73,0.0449921,10,0.000507149,-3.11618,0.095976,0.614737,0.662367,
2,1,0,0,0,48646.6,0.666994,0.66667,0.842476,73,0.0456397,10,0.000561654,-3.07444,0.0932902,0.632435,0.6663,
2,1,0,1,0,48647.4,0.670989,0.670696,0.931198,73,0.0463537,10,0.000624551,-3.03096,0.0901339,0.654582,0.670286,
2,1,0,0,0,48648.2,0.674984,0.674695,1.03233,73,0.0471432,10,0.000696508,-2.98618,0.0860747,0.685451,0.674241,
2,1,0,1,0,48649,0.67898,0.678715,1.14655,73,0.0480186,10,0.00077818,-2.94061,0.0871536,0.676965,0.67821,
2,1,0,1,0,48649.8,0.682974,0.682687,1.27602,73,0.0489913,10,0.000871123,-2.89414,0.0837143,0.704778,0.682125,
2,1,0,1,0,48650.6,0.686969,0.686613,1.42036,73,0.050073,10,0.000975239,-2.8476,0.0846086,0.697328,0.685988,
2,1,0,1,0,48651.4,0.690965,0.690712,1.57915,73,0.0512763,10,0.00109074,-2.80158,0.0841187,0.70139,0.690017,
2,1,0,0,0,48652.2,0.69496,0.694671,1.75763,73,0.052614,10,0.00122097,-2.75507,0.0844249,0.698846,0.693898,
2,1,0,1,0,48653,0.698955,0.698633,1.95104,73,0.0541005,10,0.00136306,-2.70973,0.0882113,0.668848,0.697775,
2,1,0,1,0,48653.8,0.70295,0.702628,2.16291,73,0.0557493,10,0.00151972,-2.66496,0.0880878,0.669786,0.701676,
2,1,0,1,0,48654.6,0.706945,0.706677,2.39312,73,0.0575745,10,0.00169116,-2.62104,0.0896115,0.658397,0.705624,
2,1,0,1,0,48655.4,0.71094,0.710676,2.64068,73,0.0595901,10,0.00187667,-2.57828,0.0918309,0.642485,0.709514,
2,1,0,0,0,48656.2,0.714936,0.714639,2.90509,73,0.0618108,10,0.00207609,-2.53684,0.0948576,0.621985,0.713361,
2,1,0,1,0,48657,0.718931,0.718624,3.18732,73,0.0642493,10,0.00229049,-2.49657,0.0968158,0.609405,0.717221,
2,1,0,1,0,48657.8,0.722927,0.722603,3.48899,73,0.066922,10,0.00252116,-2.4573,0.100404,0.587625,0.721068,
2,1,0,1,0,48658.6,0.726921,0.726627,3.80929,73,0.0698424,10,0.00276793,-2.41916,0.101682,0.580239,0.724951,
2,1,0,1,0,48659.4,0.730916,0.730607,4.14604,73,0.0730255,10,0.00302913,-2.38237,0.105793,0.55769,0.728783,
2,1,0,1,0,48660.2,0.734911,0.734561,4.50182,73,0.0764863,10,0.00330686,-2.34661,0.109341,0.539598,0.732581,
2,1,0,1,0,48661,0.738907,0.7386,4.87945,73,0.08024,10,0.00360396,-2.31163,0.11075,0.532732,0.736453,
2,1,0,0,0,48661.8,0.742902,0.742576,5.27543,73,0.0843022,10,0.00391741,-2.27774,0.11407,0.517225,0.740255,
2,1,0,1,0,48662.6,0.746897,0.746639,5.69194,73,0.0886894,10,0.00424982,-2.24474,0.117086,0.503905,0.744135,
2,1,0,1,0,48663.4,0.750892,0.75059,6.12901,73,0.0934171,10,0.00460037,-2.21261,0.119765,0.492631,0.747893,
2,1,0,1,0,48664.2,0.754887,0.754543,6.58798,73,0.0985032,10,0.00497091,-2.18125,0.122252,0.482608,0.751644,
2,1,0,1,0,48665,0.758883,0.758578,7.07142,73,0.103967,10,0.00536422,-2.15049,0.123703,0.476948,0.755466,
2,1,0,0,0,48665.8,0.762878,0.762578,7.57835,73,0.109824,10,0.00577908,-2.12043,0.127178,0.463916,0.759243,
2,1,0,1,0,48666.6,0.766873,0.76662,8.10813,73,0.116096,10,0.00621586,-2.09108,0.130192,0.453178,0.763052,
2,1,0,1,0,48667.4,0.770868,0.770572,8.66739,73,0.122804,10,0.00667885,-2.06211,0.129905,0.45418,0.766758,
2,1,0,1,0,48668.2,0.774863,0.774577,9.25224,73,0.129968,10,0.00716658,-2.03375,0.131606,0.448309,0.770506,
2,1,0,1,0,48669,0.778858,0.778559,9.87174,73,0.137613,10,0.00768573,-2.00561,0.131164,0.449819,0.774215,
2,1,0,0,0,48669.8,0.782854,0.782541,10.5263,73,0.145767,10,0.00823727,-1.97772,0.136444,0.432412,0.777909,
2,1,0,1,0,48670.6,0.786849,0.786556,11.2184,73,0.154459,10,0.00882391,-1.95007,0.131146,0.44988,0.78162,
2,1,0,0,0,48671.4,0.790844,0.790504,11.964,73,0.163724,10,0.00945759,-1.92212,0.13142,0.448941,0.78524,
2,1,0,1,0,48672.2,0.794839,0.794534,12.7568,73,0.173603,10,0.0101357,-1.89426,0.12966,0.455037,0.788921,
2,1,0,1,0,48673,0.798834,0.798534,13.5922,73,0.184135,10,0.0108539,-1.86671,0.131436,0.448888,0.792553,
2,1,0,1,0,48673.8,0.802829,0.802518,14.4887,73,0.195358,10,0.0116274,-1.83897,0.130737,0.451286,0.796143,
2,1,0,1,0,48674.6,0.806825,0.806529,15.4193,73,0.207318,10,0.0124361,-1.81194,0.133827,0.440867,0.799745,
2,1,0,0,0,48675.4,0.81082,0.810539,16.3951,73,0.220033,10,0.0132889,-1.78529,0.133582,0.441677,0.803325,
2,1,0,1,0,48676.2,0.814815,0.814523,17.4498,73,0.233556,10,0.0142133,-1.75821,0.130208,0.45312,0.806845,
2,1,0,1,0,48677,0.81881,0.818485,18.53,73,0.247938,10,0.0151665,-1.73213,0.13886,0.424887,0.810331,
2,1,0,1,0,48677.8,0.822805,0.822545,19.6642,73,0.263199,10,0.0161747,-1.70632,0.135794,0.434483,0.813893,
2,1,0,1,0,48678.6,0.826801,0.826499,20.8367,73,0.279383,10,0.0172215,-1.68117,0.140179,0.420891,0.817331,
2,1,0,0,0,48679.4,0.830796,0.830539,22.0231,73,0.296512,10,0.018291,-1.65712,0.146089,0.403863,0.820849,
2,1,0,1,0,48680.2,0.834791,0.834489,23.2549,73,0.314607,10,0.019406,-1.63349,0.148019,0.398598,0.824257,
2,1,0,1,0,48681,0.838786,0.838493,24.4897,73,0.333691,10,0.0205344,-1.61102,0.157636,0.374281,0.827718,
2,1,0,1,0,48681.8,0.842781,0.842466,25.7364,73,0.353761,10,0.021682,-1.58945,0.158857,0.371402,0.831142,
2,1,0,1,0,48682.6,0.846776,0.846536,27.0591,73,0.374858,10,0.0229065,-1.56769,0.16081,0.366892,0.83463,
2,1,0,1,0,48683.3,0.849723,0.849457,27.9512,73,0.394194,10,0.0237433,-1.5536,0.055535,1.06239,0.837158,
2,1,0,0,0,48684.1,0.845728,0.845376,26.0251,73,0.415697,10,0.022001,-1.58461,0.115666,0.510089,0.833925,
2,1,0,1,0,48684.9,0.841732,0.841486,24.4392,73,0.43583,10,0.0205652,-1.61191,0.124436,0.474139,0.830732,
2,1,0,1,0,48685.7,0.837737,0.837484,22.9857,73,0.454763,10,0.0192501,-1.63854,0.125247,0.471071,0.827371,
2,1,0,1,0,48686.5,0.833742,0.833441,21.5883,73,0.472553,10,0.0179925,-1.66578,0.124127,0.475321,0.823943,
2,1,0,1,0,48687.3,0.829747,0.829492,20.2728,73,0.489261,10,0.0168161,-1.69309,0.127069,0.464314,0.820572,
2,1,0,0,0,48688.1,0.825752,0.825481,19.0358,73,0.504956,10,0.0157137,-1.72043,0.12695,0.46475,0.817105,
2,1,0,1,0,48688.9,0.821757,0.821479,17.8562,73,0.519679,10,0.0146685,-1.74821,0.123565,0.477483,0.813622,
2,1,0,1,0,48689.7,0.817761,0.817486,16.727,73,0.533485,10,0.0136741,-1.77658,0.122338,0.48227,0.810126,
2,1,0,1,0,48690.5,0.813766,0.813488,15.6706,73,0.546415,10,0.0127479,-1.80491,0.121974,0.48371,0.806593,
2,1,0,1,0,48691.3,0.809771,0.809464,14.6314,73,0.558509,10,0.0118436,-1.83471,0.119286,0.494609,0.803026,
2,1,0,1,0,48692.1,0.805776,0.805488,13.6663,73,0.569801,10,0.0110081,-1.86435,0.123209,0.478863,0.799474,
2,1,0,1,0,48692.9,0.801781,0.801505,12.771,73,0.580354,10,0.010236,-1.89378,0.119354,0.494328,0.795886,
2,1,0,0,0,48693.7,0.797786,0.797487,11.9068,73,0.590201,10,0.00949552,-1.92421,0.118633,0.497333,0.792248,
2,1,0,1,0,48694.5,0.79379,0.793505,11.0928,73,0.599379,10,0.00880219,-1.95496,0.119721,0.492812,0.788624,
2,1,0,1,0,48695.3,0.789795,0.78948,10.3304,73,0.607928,10,0.00815565,-1.98588,0.116154,0.507945,0.784935,
2,1,0,1,0,48696.1,0.7858,0.785509,9.61078,73,0.615884,10,0.00754936,-2.01724,0.117745,0.501085,0.781281,
2,1,0,1,0,48696.9,0.781805,0.781486,8.935,73,0.623286,10,0.00698257,-2.04891,0.115338,0.51154,0.777554,
2,1,0,0,0,48697.7,0.77781,0.777503,8.29205,73,0.63016,10,0.00644709,-2.08134,0.115326,0.511592,0.773854,
2,1,0,1,0,48698.5,0.773814,0.773501,7.69269,73,0.636537,10,0.0059503,-2.11392,0.112396,0.524928,0.770116,
2,1,0,1,0,48699.3,0.769819,0.769481,7.12934,73,0.64245,10,0.00548589,-2.14695,0.113199,0.521205,0.766344,
2,1,0,1,0,48700.1,0.765824,0.765516,6.6039,73,0.647927,10,0.00505539,-2.1802,0.112507,0.52441,0.76261,
2,1,0,1,0,48700.9,0.761829,0.761516,6.10598,73,0.652996,10,0.00464981,-2.21424,0.110597,0.53347,0.75883,
2,1,0,0,0,48701.7,0.757834,0.757532,5.63636,73,0.65768,10,0.00426972,-2.249,0.108626,0.54315,0.755052,
2,1,0,1,0,48702.5,0.753839,0.753529,5.19432,73,0.661998,10,0.00391407,-2.28447,0.105832,0.557486,0.751244,
2,1,0,0,0,48703.3,0.749844,0.74952,4.77927,73,0.665975,10,0.00358215,-2.32064,0.105759,0.557873,0.747417,
2,1,0,1,0,48704.1,0.745848,0.745552,4.38846,73,0.66963,10,0.00327182,-2.35769,0.100165,0.589026,0.743621,
2,1,0,1,0,48704.9,0.741853,0.741533,4.02032,73,0.672981,10,0.0029812,-2.39574,0.09955,0.592667,0.739764,
2,1,0,1,0,48705.7,0.737858,0.737573,3.6736,73,0.676047,10,0.00270955,-2.43491,0.0976834,0.603992,0.735956,
2,1,0,1,0,48706.5,0.733863,0.733579,3.34879,73,0.678845,10,0.0024566,-2.47511,0.0937744,0.629169,0.732105,
2,1,0,0,0,48707.3,0.729868,0.729583,3.04092,73,0.68139,10,0.00221861,-2.51699,0.0906741,0.650682,0.728245,
2,1,0,1,0,48708.1,0.725872,0.725568,2.75566,73,0.683698,10,0.00199942,-2.55977,0.0897745,0.657202,0.724355,
2,1,0,1,0,48708.9,0.721877,0.721586,2.48668,73,0.685785,10,0.00179436,-2.60438,0.0852328,0.692222,0.720492,
2,1,0,1,0,48709.7,0.717882,0.717564,2.23692,73,0.687665,10,0.00160513,-2.65035,0.0829144,0.711577,0.71658,
2,1,0,1,0,48710.5,0.713887,0.713578,2.00559,73,0.689352,10,0.00143114,-2.69776,0.0803138,0.734619,0.712696,
2,1,0,0,0,48711.3,0.709892,0.709606,1.78818,73,0.69086,10,0.00126891,-2.74759,0.0773282,0.762982,0.708819,
2,1,0,1,0,48712.1,0.705897,0.705578,1.58626,73,0.692202,10,0.00111923,-2.79962,0.0736593,0.800986,0.70488,
2,1,0,1,0,48712.9,0.701901,0.701546,1.4026,73,0.693389,10,0.000983989,-2.85307,0.0710777,0.830078,0.700929,
2,1,0,1,0,48713.7,0.697906,0.69761,1.23068,73,0.694433,10,0.000858532,-2.90986,0.067562,0.873272,0.697068,
2,1,0,1,0,48714.5,0.693911,0.693625,1.07385,73,0.695347,10,0.000744847,-2.96906,0.0650517,0.906971,0.693153,
2,1,0,0,0,48715.3,0.689916,0.689622,0.931778,73,0.696141,10,0.000642575,-3.03069,0.0619505,0.952374,0.689212,
2,1,0,1,0,48716.1,0.685921,0.685645,0.802505,73,0.696827,10,0.000550234,-3.09555,0.0594846,0.991853,0.685292,
2,1,0,0,0,48716.9,0.681926,0.681611,0.685435,73,0.697414,10,0.0004672,-3.16403,0.0566696,1.04112,0.68131,
2,1,0,1,0,48717.7,0.67793,0.677622,0.580017,73,0.697913,10,0.000393032,-3.23656,0.0542624,1.08731,0.677367,
2,1,0,1,0,48718.5,0.673935,0.673577,0.488345,73,0.698333,10,0.000328938,-3.31127,0.0504247,1.17006,0.673362,
2,1,0,1,0,48719.3,0.66994,0.669647,0.407066,73,0.698684,10,0.000272591,-3.39033,0.0475588,1.24057,0.669468,
2,1,0,1,0,48720.1,0.665945,0.665612,0.333941,73,0.698972,10,0.000222275,-3.47633,0.0461636,1.27806,0.665465,
2,1,0,0,0,48720.9,0.66195,0.661651,0.271058,73,0.699207,10,0.000179346,-3.56694,0.0419157,1.40759,0.661532,
2,1,0,1,0,48721.7,0.657955,0.657629,0.21576,73,0.699395,10,0.00014189,-3.66603,0.0386843,1.52517,0.657534,
2,1,0,1,0,48722.5,0.653959,0.653621,0.168023,73,0.699543,10,0.000109823,-3.77463,0.0352555,1.6735,0.653547,
2,1,0,1,0,48723.2,0.649964,0.649639,0.128,73,0.699655,10,8.31538e-05,-3.89279,0.0319301,1.84779,0.649583,
2,1,0,1,0,48724,0.64597,0.645663,0.0937829,73,0.699737,10,6.05521e-05,-4.02788,0.0274545,2.14901,0.645622,
2,1,0,0,0,48724.8,0.641974,0.641672,0.0646035,73,0.699794,10,4.14543e-05,-4.18974,0.0208599,2.82839,0.641644,
2,1,0,1,0,48725.6,0.637979,0.63762,0.0403298,73,0.699829,10,2.57151e-05,-4.39437,0.015636,3.77333,0.637602,
2,1,0,1,0,48726.4,0.633983,0.633671,0.0189018,73,0.699846,10,1.19775e-05,-4.7235,0.00904535,6.52269,0.633663,
2,1,0,1,0,48727.2,0.629988,0.629725,0.00179925,73,0.699848,10,1.13303e-06,-5.74491,0.0187084,3.15366,0.629724,
2,0,0,1,0,48728,0.625993,0.625612,-0.0138358,73,0.699836,10,-8.65586e-06,-4.85899,-0.00796197,-7.41022,0.625618,
2,0,0,0,0,48728.8,0.621998,0.621694,-0.026349,73,0.699814,10,-1.6381e-05,-4.57924,-0.020351,-2.89912,0.621706,
2,0,0,1,0,48729.6,0.618003,0.617694,-0.0356377,73,0.699783,10,-2.20132e-05,-4.44809,-0.032593,-1.8102,0.61771,
2,0,0,0,0,48730.4,0.614008,0.613696,-0.0445451,73,0.699744,10,-2.73371e-05,-4.3512,-0.0579393,-1.01831,0.613715,
2,0,0,1,0,48731.2,0.610012,0.609671,-0.0516441,73,0.699699,10,-3.14859e-05,-4.28698,-0.0791174,-0.745727,0.609694,
2,0,0,1,0,48732,0.606017,0.605687,-0.0578252,73,0.699649,10,-3.5024e-05,-4.23788,-0.0896835,-0.657869,0.605713,
2,0,0,1,0,48732.8,0.602022,0.60168,-0.0640547,73,0.699594,10,-3.85404e-05,-4.19345,-0.106056,-0.556308,0.601709,
2,0,0,1,0,48733.6,0.598027,0.597723,-0.0686422,73,0.699535,10,-4.1029e-05,-4.16341,-0.159846,-0.369105,0.597753,
2,0,0,0,0,48734.4,0.594032,0.593666,-0.0721374,73,0.699472,10,-4.28255e-05,-4.14184,-0.158808,-0.371517,0.593697,
2,0,0,1,0,48735.2,0.590037,0.589746,-0.0762554,73,0.699407,10,-4.49714e-05,-4.11773,-0.228798,-0.25787,0.58978,
2,0,0,1,0,48736,0.586041,0.585708,-0.0784861,73,0.699338,10,-4.59699e-05,-4.10521,-0.269317,-0.219072,0.585743,
2,0,0,1,0,48736.8,0.582046,0.581717,-0.0810651,73,0.699268,10,-4.7157e-05,-4.09117,-0.316672,-0.186313,0.581753,
2,0,0,1,0,48737.6,0.578052,0.577731,-0.0831409,73,0.699196,10,-4.80331e-05,-4.08019,-0.292405,-0.201775,0.577768,
2,0,0,0,0,48738.4,0.574056,0.573686,-0.0847638,73,0.699121,10,-4.86279e-05,-4.07179,-0.592982,-0.0994971,0.573724,
2,0,0,1,0,48739.2,0.570061,0.56975,-0.0871755,73,0.699046,10,-4.96682e-05,-4.05961,-0.615981,-0.0957822,0.569789,
2,0,0,1,0,48740,0.566065,0.565724,-0.0891428,73,0.698969,10,-5.04302e-05,-4.04991,-0.359992,-0.163893,0.565763,
2,0,0,1,0,48740.8,0.56207,0.561694,-0.0905056,73,0.698891,10,-5.08365e-05,-4.04332,-0.541885,-0.108879,0.561734,
2,0,0,1,0,48741.6,0.558075,0.557726,-0.0916114,73,0.698811,10,-5.10941e-05,-4.03805,-3.36573,-0.0175296,0.557767,
2,0,0,1,0,48742.4,0.55408,0.553777,-0.0928663,73,0.698731,10,-5.14272e-05,-4.03214,-0.352251,-0.167494,0.553818,
2,0,0,1,0,48743.2,0.550085,0.549765,-0.0944162,73,0.698649,10,-5.19067e-05,-4.02495,-2.41349,-0.0244459,0.549806,
2,0,0,0,0,48744,0.54609,0.545755,-0.0958296,73,0.698566,10,-5.22995e-05,-4.0185,-0.520332,-0.113389,0.545797,
2,0,0,1,0,48744.8,0.542094,0.541787,-0.0966481,73,0.698483,10,-5.23627e-05,-4.01481,-0.920441,-0.0640997,0.541829,
2,0,0,1,0,48745.6,0.538099,0.537792,-0.0985226,73,0.698398,10,-5.29847e-05,-4.00646,-0.683615,-0.0863058,0.537835,
2,0,0,1,0,48746.4,0.534104,0.533764,-0.0987179,73,0.698313,10,-5.26921e-05,-4.0056,-1.82325,-0.0323598,0.533808,
2,0,0,1,0,48747.2,0.530109,0.529797,-0.0997165,73,0.698227,10,-5.28295e-05,-4.00123,-0.654758,-0.0901097,0.529841,
2,0,0,0,0,48748,0.526114,0.52579,-0.10133,73,0.698139,10,-5.32784e-05,-3.99426,-0.647321,-0.0911449,0.525835,
2,0,0,1,0,48748.8,0.522119,0.521797,-0.10161,73,0.698052,10,-5.30197e-05,-3.99306,4.84508,0.0121773,0.521841,
2,0,0,1,0,48749.6,0.518123,0.517794,-0.102788,73,0.697963,10,-5.32232e-05,-3.98806,-0.517926,-0.113916,0.517839,
2,0,0,1,0,48750.4,0.514128,0.513789,-0.103542,73,0.697874,10,-5.3199e-05,-3.98488,-1.57995,-0.037343,0.513835,
2,0,0,1,0,48751.2,0.510133,0.509827,-0.103993,73,0.697783,10,-5.30183e-05,-3.983,-0.509837,-0.115723,0.509873,
2,0,0,0,0,48752,0.506138,0.505773,-0.106427,73,0.697692,10,-5.3828e-05,-3.97295,-1.41331,-0.041746,0.50582,
2,0,0,1,0,48752.8,0.502143,0.501802,-0.107078,73,0.6976,10,-5.37319e-05,-3.9703,-0.592843,-0.0995204,0.501849,
2,0,0,0,0,48753.6,0.498148,0.497848,-0.108131,73,0.697507,10,-5.38329e-05,-3.96605,-1.56624,-0.0376699,0.497896,
2,0,0,1,0,48754.4,0.494152,0.493823,-0.109806,73,0.697413,10,-5.42245e-05,-3.95938,-0.645705,-0.091373,0.493871,
2,0,0,1,0,48755.2,0.490157,0.489837,-0.110644,73,0.697318,10,-5.41974e-05,-3.95607,-0.897268,-0.0657552,0.489886,
2,0,0,1,0,48756,0.486162,0.485841,-0.111604,73,0.697222,10,-5.42216e-05,-3.95232,-1.09711,-0.0537776,0.48589,
2,0,0,1,0,48756.8,0.482167,0.48185,-0.113684,73,0.697125,10,-5.47787e-05,-3.9443,-0.795753,-0.0741436,0.4819,
2,0,0,0,0,48757.6,0.478172,0.477864,-0.114439,73,0.697026,10,-5.46865e-05,-3.94142,-0.621706,-0.0949002,0.477914,
2,0,0,1,0,48758.4,0.474177,0.473833,-0.116362,73,0.696927,10,-5.51362e-05,-3.93419,-0.765842,-0.0770393,0.473884,
2,0,0,1,0,48759.2,0.470181,0.469848,-0.117591,73,0.696827,10,-5.52497e-05,-3.92963,-1.09763,-0.0537521,0.4699,
2,0,0,1,0,48760,0.466186,0.465886,-0.119392,73,0.696725,10,-5.5623e-05,-3.92302,-0.60404,-0.0976756,0.465938,
2,0,0,1,0,48760.8,0.462191,0.461869,-0.12015,73,0.696622,10,-5.54937e-05,-3.92028,-0.409403,-0.144112,0.461922,
2,0,0,0,0,48761.6,0.458196,0.457875,-0.121471,73,0.696518,10,-5.56186e-05,-3.91553,-1.1551,-0.0510777,0.457929,
2,0,0,1,0,48762.4,0.454201,0.453897,-0.123354,73,0.696413,10,-5.599e-05,-3.90885,-2.03411,-0.0290053,0.453951,
2,0,0,1,0,48763.2,0.450205,0.449849,-0.126057,73,0.696306,10,-5.67067e-05,-3.89943,-0.455267,-0.129594,0.449904,
2,0,0,1,0,48764,0.44621,0.445926,-0.126033,73,0.696198,10,-5.62014e-05,-3.89952,-0.762545,-0.0773725,0.445982,
2,0,0,1,0,48764.8,0.442215,0.441853,-0.128341,73,0.696088,10,-5.6708e-05,-3.89163,-1.10748,-0.0532742,0.441909,
2,0,0,0,0,48765.6,0.43822,0.437905,-0.130692,73,0.695977,10,-5.72307e-05,-3.88375,-0.376724,-0.156613,0.437962,
2,0,0,1,0,48766.4,0.434225,0.433919,-0.132796,73,0.695864,10,-5.76227e-05,-3.87681,-0.805987,-0.0732022,0.433977,
2,0,0,0,0,48767.2,0.43023,0.42991,-0.134505,73,0.69575,10,-5.78252e-05,-3.87126,-0.85928,-0.0686621,0.429969,
2,0,0,1,0,48768,0.426234,0.425931,-0.136417,73,0.695635,10,-5.81041e-05,-3.86513,-0.663316,-0.0889471,0.425991,
2,0,0,1,0,48768.8,0.422239,0.421914,-0.138182,73,0.695518,10,-5.83007e-05,-3.85955,-1.07006,-0.0551372,0.421974,
2,0,0,1,0,48769.6,0.418244,0.417902,-0.138863,73,0.6954,10,-5.80312e-05,-3.85741,-0.520858,-0.113275,0.417963,
2,0,0,1,0,48770.4,0.414249,0.41396,-0.140897,73,0.69528,10,-5.83255e-05,-3.8511,-0.770979,-0.0765261,0.414022,
2,0,0,0,0,48771.2,0.410254,0.409934,-0.144225,73,0.695158,10,-5.9123e-05,-3.84096,-1.0503,-0.0561742,0.409998,
2,0,0,1,0,48772,0.406259,0.405932,-0.145723,73,0.695035,10,-5.91536e-05,-3.83647,-0.381712,-0.154567,0.405996,
2,0,0,1,0,48772.8,0.402263,0.401955,-0.147533,73,0.69491,10,-5.93018e-05,-3.83111,-0.856457,-0.0688884,0.40202,
2,0,0,1,0,48773.6,0.398268,0.39789,-0.149711,73,0.694783,10,-5.95685e-05,-3.82475,-0.610884,-0.0965813,0.397956,
2,0,0,1,0,48774.4,0.394274,0.393937,-0.152098,73,0.694655,10,-5.99172e-05,-3.81788,-0.635161,-0.0928898,0.394004,
2,0,0,0,0,48775.2,0.390278,0.389953,-0.153982,73,0.694524,10,-6.00459e-05,-3.81253,-0.657539,-0.0897285,0.390021,
2,0,0,1,0,48776,0.386283,0.385908,-0.155868,73,0.694393,10,-6.01508e-05,-3.80724,-0.76515,-0.077109,0.385976,
2,0,0,1,0,48776.8,0.382287,0.381989,-0.157737,73,0.694259,10,-6.02538e-05,-3.80207,-0.852165,-0.0692354,0.382058,
2,0,0,1,0,48777.6,0.378292,0.377952,-0.159382,73,0.694124,10,-6.02387e-05,-3.79756,-0.947339,-0.0622797,0.378022,
2,0,0,1,0,48778.4,0.374297,0.373999,-0.161354,73,0.693987,10,-6.03462e-05,-3.79222,-0.472244,-0.124935,0.37407,
2,0,0,1,0,48779.2,0.370303,0.369951,-0.164115,73,0.693848,10,-6.07145e-05,-3.78485,-0.687774,-0.085784,0.370023,
2,0,0,1,0,48780,0.366307,0.365967,-0.167131,73,0.693707,10,-6.11645e-05,-3.77694,-1.12805,-0.0523028,0.36604,
2,0,0,0,0,48780.8,0.362312,0.361955,-0.168642,73,0.693565,10,-6.10408e-05,-3.77303,-0.499223,-0.118184,0.362029,
2,0,0,1,0,48781.6,0.358316,0.35798,-0.171428,73,0.693421,10,-6.1368e-05,-3.76592,-1.24076,-0.0475514,0.358056,
2,0,0,1,0,48782.4,0.354321,0.353995,-0.172754,73,0.693275,10,-6.11541e-05,-3.76257,-0.507479,-0.116261,0.354071,
2,0,0,1,0,48783.2,0.350327,0.349974,-0.174379,73,0.693127,10,-6.10283e-05,-3.7585,-0.63596,-0.0927731,0.350051,
2,0,0,1,0,48784,0.346331,0.345984,-0.177374,73,0.692977,10,-6.13687e-05,-3.75111,-2.04721,-0.0288197,0.346062,
2,0,0,0,0,48784.8,0.342336,0.342018,-0.179409,73,0.692825,10,-6.13611e-05,-3.74616,-0.51455,-0.114663,0.342097,
2,0,0,1,0,48785.6,0.338341,0.338021,-0.182065,73,0.692672,10,-6.15416e-05,-3.73977,-0.799539,-0.0737926,0.338101,
2,0,0,1,0,48786.4,0.334345,0.334007,-0.185858,73,0.692516,10,-6.20777e-05,-3.73082,-0.913271,-0.0646029,0.334088,
2,0,0,1,0,48787.2,0.33035,0.330046,-0.186703,73,0.692359,10,-6.16207e-05,-3.72885,-0.501844,-0.117566,0.330129,
2,0,0,1,0,48788,0.326355,0.326024,-0.189268,73,0.692199,10,-6.1706e-05,-3.72292,-0.738289,-0.0799145,0.326108,
2,0,0,0,0,48788.8,0.32236,0.322043,-0.191733,73,0.692038,10,-6.17463e-05,-3.7173,-0.853372,-0.0691375,0.322127,
2,0,0,1,0,48789.6,0.318365,0.318054,-0.193649,73,0.691874,10,-6.15909e-05,-3.71298,-0.61057,-0.096631,0.318139,
2,0,0,0,0,48790.4,0.31437,0.314048,-0.197207,73,0.691709,10,-6.19325e-05,-3.70508,-1.66929,-0.0353443,0.314135,
2,0,0,1,0,48791.2,0.310374,0.310042,-0.200099,73,0.691541,10,-6.20391e-05,-3.69875,-0.456635,-0.129206,0.31013,
2,0,0,1,0,48792,0.306379,0.306059,-0.202141,73,0.691371,10,-6.18671e-05,-3.69435,-1.5093,-0.0390911,0.306148,
2,0,0,1,0,48792.8,0.302385,0.302063,-0.204983,73,0.6912,10,-6.19177e-05,-3.68828,-0.463294,-0.127349,0.302153,
2,0,0,1,0,48793.6,0.298389,0.298057,-0.207003,73,0.691026,10,-6.16986e-05,-3.68402,-0.837917,-0.0704127,0.298148,
2,0,0,0,0,48794.4,0.294394,0.294057,-0.20914,73,0.69085,10,-6.14993e-05,-3.67956,-0.660628,-0.089309,0.294149,
2,0,0,1,0,48795.2,0.290398,0.290065,-0.212927,73,0.690671,10,-6.17626e-05,-3.67177,-0.842214,-0.0700534,0.290158,
2,0,0,1,0,48796,0.286403,0.286063,-0.214442,73,0.690491,10,-6.1344e-05,-3.66869,-1.1918,-0.0495049,0.286157,
2,0,0,1,0,48796.8,0.282408,0.282058,-0.217907,73,0.690309,10,-6.14625e-05,-3.66173,-0.615257,-0.0958949,0.282154,
2,0,0,1,0,48797.6,0.278414,0.278029,-0.22047,73,0.690124,10,-6.1297e-05,-3.65665,-0.635273,-0.0928734,0.278126,
2,0,0,0,0,48798.4,0.274418,0.274069,-0.223644,73,0.689937,10,-6.12938e-05,-3.65044,-0.738821,-0.079857,0.274167,
2,0,0,1,0,48799.2,0.270423,0.270066,-0.226592,73,0.689749,10,-6.11946e-05,-3.64476,-0.899815,-0.0655691,0.270165,
2,0,0,1,0,48800,0.266427,0.266117,-0.228595,73,0.689558,10,-6.0833e-05,-3.64093,-0.688069,-0.0857472,0.266218,
2,0,0,1,0,48800.8,0.262432,0.262121,-0.23096,73,0.689364,10,-6.05395e-05,-3.63646,-1.43878,-0.0410071,0.262223,
2,0,0,1,0,48801.6,0.258437,0.25814,-0.233458,73,0.689169,10,-6.02649e-05,-3.63179,-0.5524,-0.106807,0.258243,
2,0,0,0,0,48802.4,0.254442,0.254085,-0.23477,73,0.688972,10,-5.96516e-05,-3.62936,-1.00561,-0.0586708,0.254189,
2,0,0,1,0,48803.2,0.250447,0.25009,-0.238179,73,0.688773,10,-5.9566e-05,-3.6231,-1.61502,-0.0365321,0.250194,
2,0,0,0,0,48804,0.246452,0.246079,-0.241161,73,0.688571,10,-5.93446e-05,-3.61769,-0.620285,-0.0951176,0.246185,
2,0,0,1,0,48804.8,0.242456,0.242096,-0.243983,73,0.688368,10,-5.90672e-05,-3.61264,-1.03176,-0.0571837,0.242204,
2,0,0,1,0,48805.6,0.238461,0.238167,-0.246077,73,0.688163,10,-5.86072e-05,-3.60893,-0.873657,-0.0675322,0.238275,
2,0,0,1,0,48806.3,0.234467,0.23406,-0.248411,73,0.687956,10,-5.81429e-05,-3.60483,-0.863821,-0.0683012,0.234169,
2,0,0,1,0,48807.1,0.230471,0.230149,-0.250826,73,0.687747,10,-5.77272e-05,-3.60063,-1.02981,-0.0572924,0.230259,
2,0,0,0,0,48807.9,0.226476,0.226161,-0.25313,73,0.687536,10,-5.7248e-05,-3.59666,-1.23389,-0.0478161,0.226272,
2,0,0,1,0,48808.7,0.222481,0.222162,-0.254438,73,0.687323,10,-5.65264e-05,-3.59442,-0.712248,-0.0828363,0.222274,
2,0,0,1,0,48809.5,0.218485,0.218165,-0.259098,73,0.687107,10,-5.65261e-05,-3.58654,-3.97112,-0.0148573,0.218279,
2,0,0,1,0,48810.3,0.21449,0.214102,-0.260979,73,0.68689,10,-5.58761e-05,-3.58339,-0.545287,-0.1082,0.214217,
2,0,0,1,0,48811.1,0.210496,0.210141,-0.263599,73,0.68667,10,-5.5393e-05,-3.57906,-1.12403,-0.0524896,0.210257,
2,0,0,0,0,48811.9,0.2065,0.206149,-0.268079,73,0.686449,10,-5.52642e-05,-3.57174,-0.553717,-0.106553,0.206267,
2,0,0,1,0,48812.7,0.202505,0.202151,-0.271189,73,0.686224,10,-5.4821e-05,-3.56673,-0.682993,-0.0863845,0.20227,
2,0,0,1,0,48813.5,0.198509,0.19817,-0.272984,73,0.685997,10,-5.40973e-05,-3.56386,-1.03341,-0.0570924,0.19829,
2,0,0,1,0,48814.3,0.194514,0.194159,-0.276756,73,0.685767,10,-5.37346e-05,-3.5579,-0.65217,-0.0904672,0.19428,
2,0,0,1,0,48815.1,0.190519,0.190197,-0.279947,73,0.685535,10,-5.3245e-05,-3.55292,-0.657507,-0.0897329,0.19032,
2,0,0,0,0,48815.9,0.186524,0.186166,-0.284148,73,0.685299,10,-5.28988e-05,-3.54646,-0.848751,-0.0695139,0.186291,
2,0,0,1,0,48816.7,0.182529,0.182218,-0.290101,73,0.68506,10,-5.28616e-05,-3.53745,-0.454131,-0.129918,0.182346,
2,0,0,0,0,48817.5,0.178534,0.178199,-0.294601,73,0.684817,10,-5.24978e-05,-3.53077,-0.512075,-0.115218,0.178329,
2,0,0,1,0,48818.3,0.174538,0.17419,-0.300377,73,0.684569,10,-5.23226e-05,-3.52233,-0.50271,-0.117364,0.174322,
2,0,0,1,0,48819.1,0.170543,0.170221,-0.30612,73,0.684317,10,-5.21081e-05,-3.51411,-0.391622,-0.150655,0.170356,
2,0,0,1,0,48819.9,0.166549,0.166173,-0.3138,73,0.684059,10,-5.2145e-05,-3.50335,-0.349684,-0.168724,0.166311,
2,0,0,1,0,48820.7,0.162553,0.162217,-0.322364,73,0.683795,10,-5.2293e-05,-3.49165,-0.298709,-0.197517,0.162359,
2,0,0,0,0,48821.5,0.158558,0.158209,-0.332944,73,0.683522,10,-5.26747e-05,-3.47763,-0.2279,-0.258885,0.158355,
2,0,0,1,0,48822.3,0.154563,0.154208,-0.349414,73,0.683239,10,-5.38823e-05,-3.45666,-0.215345,-0.273978,0.154361,
2,0,0,1,0,48823.1,0.150567,0.150243,-0.368264,73,0.682942,10,-5.53291e-05,-3.43384,-0.144957,-0.407016,0.150405,
2,0,0,1,0,48823.9,0.146572,0.146211,-0.394872,73,0.682627,10,-5.77347e-05,-3.40354,-0.122487,-0.481685,0.146385,
2,0,0,1,0,48824.7,0.142578,0.142228,-0.427293,73,0.68229,10,-6.07729e-05,-3.36927,-0.102442,-0.575935,0.142416,
2,0,0,0,0,48825.5,0.138582,0.138271,-0.467885,73,0.681922,10,-6.46948e-05,-3.32986,-0.095767,-0.616078,0.138477,
2,0,0,1,0,48826.3,0.134587,0.134237,-0.515421,73,0.681518,10,-6.91886e-05,-3.28784,-0.101521,-0.581158,0.134464,
2,0,0,1,0,48827.1,0.130591,0.130226,-0.562498,73,0.681076,10,-7.32519e-05,-3.24988,-0.113328,-0.520611,0.130474,
2,0,0,1,0,48827.9,0.126596,0.12626,-0.603124,73,0.680598,10,-7.61502e-05,-3.21959,-0.14341,-0.411408,0.126525,
2,0,0,1,0,48828.7,0.122602,0.122278,-0.638089,73,0.680089,10,-7.80244e-05,-3.19512,-0.232293,-0.253989,0.122559,
2,0,0,1,0,48829.5,0.118607,0.118272,-0.657843,73,0.679561,10,-7.78044e-05,-3.18188,-0.382391,-0.154292,0.118562,
2,0,0,1,0,48830.3,0.114611,0.114259,-0.668603,73,0.679019,10,-7.63939e-05,-3.17483,-0.818439,-0.0720885,0.114553,
2,0,0,0,0,48831.1,0.110616,0.110238,-0.673305,73,0.678472,10,-7.42238e-05,-3.17179,-3.35437,-0.017589,0.110534,
2,0,0,1,0,48831.9,0.10662,0.106305,-0.671976,73,0.677923,10,-7.14341e-05,-3.17265,75.9355,0.000776975,0.1066,
2,0,0,1,0,48832.7,0.102625,0.102266,-0.670579,73,0.677375,10,-6.85773e-05,-3.17355,1.32289,0.0445993,0.102561,
2,0,0,1,0,48833.5,0.0986305,0.098278,-0.666124,73,0.676829,10,-6.54653e-05,-3.17644,1.53222,0.0385061,0.0985711,
2,0,0,1,0,48834.3,0.0946351,0.0943107,-0.659944,73,0.676288,10,-6.22398e-05,-3.18049,1.05251,0.0560564,0.094601,
2,0,0,0,0,48835.1,0.0906399,0.0902811,-0.655471,73,0.675751,10,-5.91767e-05,-3.18345,0.646941,0.0911984,0.0905695,
2,0,0,1,0,48835.9,0.0866448,0.0863088,-0.646459,73,0.675221,10,-5.57952e-05,-3.18946,1.03436,0.0570399,0.0865933,
2,0,0,1,0,48836.7,0.0826492,0.0822916,-0.63925,73,0.674696,10,-5.26049e-05,-3.19433,0.702209,0.0840206,0.0825729,
2,0,0,1,0,48837.5,0.0786544,0.0783727,-0.631121,73,0.674179,10,-4.94627e-05,-3.19989,0.71969,0.0819797,0.0786504,
2,0,0,1,0,48838.3,0.0746596,0.0743573,-0.621368,73,0.673668,10,-4.62033e-05,-3.20665,0.776519,0.0759801,0.0746307,
2,0,0,0,0,48839.1,0.0706641,0.0703433,-0.61391,73,0.673163,10,-4.31845e-05,-3.2119,0.579357,0.101837,0.0706135,
2,0,0,1,0,48839.9,0.0666689,0.0663371,-0.605534,73,0.672665,10,-4.01694e-05,-3.21786,0.837679,0.0704327,0.0666036,
2,0,0,0,0,48840.7,0.0626737,0.0623479,-0.596763,73,0.672173,10,-3.72069e-05,-3.2242,0.57853,0.101983,0.0626105,
2,0,0,1,0,48841.5,0.0586783,0.0583267,-0.59077,73,0.671687,10,-3.44577e-05,-3.22858,0.652877,0.0903693,0.0585866,
2,0,0,1,0,48842.3,0.0546835,0.0543503,-0.58119,73,0.671208,10,-3.15879e-05,-3.23568,0.808031,0.073017,0.0546061,
2,0,0,1,0,48843.1,0.0506886,0.0502958,-0.571897,73,0.670736,10,-2.8764e-05,-3.24268,0.454592,0.129787,0.0505474,
2,0,0,1,0,48843.9,0.046693,0.0463591,-0.562623,73,0.670272,10,-2.60827e-05,-3.24978,0.603341,0.0977889,0.0466066,
2,0,0,0,0,48844.7,0.0426979,0.042391,-0.5532,73,0.669816,10,-2.34507e-05,-3.25712,0.49529,0.119122,0.0426344,
2,0,0,1,0,48845.5,0.0387022,0.0383133,-0.542672,73,0.669367,10,-2.07916e-05,-3.26546,0.470821,0.125313,0.0385521,
2,0,0,1,0,48846.3,0.0347074,0.0343552,-0.533055,73,0.668927,10,-1.83132e-05,-3.27323,0.521755,0.11308,0.0345898,
2,0,0,1,0,48847.1,0.0307126,0.0303821,-0.522533,73,0.668494,10,-1.58757e-05,-3.28189,0.66414,0.0888367,0.030612,
2,0,0,1,0,48847.9,0.0267172,0.0263344,-0.515539,73,0.668068,10,-1.35764e-05,-3.28774,0.51278,0.115059,0.0265612,
2,0,0,0,0,48848.7,0.022722,0.0223663,-0.508734,73,0.667648,10,-1.13785e-05,-3.29351,0.738078,0.0799374,0.0225902,
2,0,0,1,0,48849.5,0.0187268,0.0184449,-0.502225,73,0.667234,10,-9.2635e-06,-3.2991,0.724584,0.081426,0.0186659,
2,0,0,1,0,48850.3,0.0147313,0.0144012,-0.498152,73,0.666825,10,-7.174e-06,-3.30264,1.26832,0.0465181,0.0146204,
2,0,0,1,0,48851.1,0.0107365,0.0104123,-0.493718,73,0.666418,10,-5.14075e-06,-3.30652,4.02134,0.0146717,0.0106296,
2,0,0,1,0,48851.9,0.00674163,0.0064128,-0.492563,73,0.666014,10,-3.15871e-06,-3.30754,4.25208,0.0138756,0.00662952,
2,0,0,0,0,48852.7,0.00274612,0.00243173,-0.493017,73,0.66561,10,-1.19889e-06,-3.30714,-1.58332,-0.0372635,0.00264866,
2,0,0,1,0,48853.2,0.000274105,-9.26968e-05,-0.495211,73,0.665357,10,4.59045e-08,-3.30521, , ,0.000125196,