File: Figure_codes/Fig_3-5/workspace_calculate_alpha_eff/20221101_1-115_003_TrumpetPlot_ParaChange_from10_every3_16_CV_C01_18.csv
mode,ox/red,error,control changes,counter inc.,time/s,control/V,Ewe/V,<I>/mA,cycle number,(Q-Qo)/C,I Range,P/W,log(|I|),Tafel slope mV/dec,alpha_eff,E-IR/V,
2,0,0,1,0,13050.9,2.44065e-05,-0.00042076,-0.0478754,19,0.0000000E+000,10,2.01441e-08,-4.31989, , ,-0.000399695,
2,1,0,1,0,13051.7,0.00379485,0.00346139,0.212781,19,0.000145911,10,7.36519e-07,-3.67207,0.0531546,1.10997,0.00336776,
2,1,0,0,0,13052.5,0.00779002,0.00749305,0.23529,19,0.000338116,10,1.76304e-06,-3.6284,0.103484,0.570138,0.00738953,
2,1,0,1,0,13053.3,0.0117852,0.0114876,0.251236,19,0.00054647,10,2.8861e-06,-3.59992,0.150549,0.391899,0.0113771,
2,1,0,1,0,13054.1,0.0157806,0.0154769,0.268449,19,0.000767473,10,4.15476e-06,-3.57114,0.166824,0.353665,0.0153588,
2,1,0,1,0,13054.9,0.0197754,0.0194491,0.282101,19,0.000999907,10,5.48662e-06,-3.54959,0.171714,0.343594,0.019325,
2,1,0,1,0,13055.6,0.0237704,0.0234465,0.296524,19,0.00124432,10,6.95246e-06,-3.52794,0.205584,0.286987,0.023316,
2,1,0,0,0,13056.4,0.0277659,0.027452,0.310399,19,0.00149962,10,8.52108e-06,-3.50808,0.1902,0.310199,0.0273154,
2,1,0,1,0,13057.2,0.0317611,0.0314307,0.324689,19,0.00176637,10,1.02052e-05,-3.48853,0.194726,0.30299,0.0312878,
2,1,0,1,0,13058,0.0357567,0.0354692,0.33971,19,0.00204512,10,1.20492e-05,-3.46889,0.291006,0.202745,0.0353198,
2,1,0,1,0,13058.8,0.0397516,0.039401,0.353596,19,0.00233472,10,1.3932e-05,-3.45149,0.202655,0.291135,0.0392454,
2,1,0,1,0,13059.6,0.0437465,0.0433877,0.365513,19,0.00263633,10,1.58588e-05,-3.4371,0.25774,0.228913,0.0432268,
2,1,0,1,0,13060.4,0.0477413,0.0474128,0.380819,19,0.00294831,10,1.80557e-05,-3.41928,0.259956,0.226961,0.0472452,
2,1,0,1,0,13061.2,0.0517369,0.051413,0.393706,19,0.00327062,10,2.02416e-05,-3.40483,0.256714,0.229827,0.0512397,
2,1,0,0,0,13062,0.0557321,0.0553683,0.406213,19,0.00360365,10,2.24913e-05,-3.39125,0.327463,0.180173,0.0551896,
2,1,0,1,0,13062.8,0.0597277,0.0594099,0.418441,19,0.00394562,10,2.48595e-05,-3.37837,0.359942,0.163915,0.0592258,
2,1,0,1,0,13063.6,0.0637226,0.0633617,0.428565,19,0.00429681,10,2.71546e-05,-3.36798,0.340251,0.173401,0.0631732,
2,1,0,1,0,13064.4,0.0677174,0.0673856,0.439185,19,0.00465707,10,2.95948e-05,-3.35735,0.609689,0.0967707,0.0671924,
2,1,0,1,0,13065.2,0.0717128,0.0713963,0.448643,19,0.00502468,10,3.20315e-05,-3.3481,0.354966,0.166213,0.0711989,
2,1,0,0,0,13066,0.075708,0.0753697,0.455645,19,0.00539991,10,3.43418e-05,-3.34137,0.493316,0.119599,0.0751692,
2,1,0,1,0,13066.8,0.0797031,0.0794098,0.46673,19,0.00578183,10,3.7063e-05,-3.33093,0.504256,0.117004,0.0792045,
2,1,0,1,0,13067.6,0.0836986,0.0833474,0.475028,19,0.00617093,10,3.95923e-05,-3.32328,0.363084,0.162497,0.0831384,
2,1,0,1,0,13068.4,0.0876935,0.0874114,0.487401,19,0.00656873,10,4.26044e-05,-3.31211,0.371885,0.158651,0.087197,
2,1,0,1,0,13069.2,0.0916883,0.0913507,0.501607,19,0.00697667,10,4.58222e-05,-3.29964,0.258838,0.227942,0.09113,
2,1,0,0,0,13070,0.0956838,0.0953912,0.519215,19,0.00739804,10,4.95285e-05,-3.28465,0.239868,0.245969,0.0951628,
2,1,0,1,0,13070.8,0.099679,0.099355,0.543051,19,0.00783573,10,5.39548e-05,-3.26516,0.252535,0.233631,0.0991161,
2,1,0,0,0,13071.6,0.103674,0.103336,0.566387,19,0.00829147,10,5.8528e-05,-3.24689,0.193795,0.304445,0.103087,
2,1,0,1,0,13072.4,0.10767,0.107325,0.588981,19,0.00876764,10,6.32125e-05,-3.2299,0.237002,0.248943,0.107066,
2,1,0,1,0,13073.2,0.111664,0.111367,0.61182,19,0.00926104,10,6.81367e-05,-3.21338,0.31557,0.186963,0.111098,
2,1,0,1,0,13074,0.115659,0.115326,0.627794,19,0.00976936,10,7.24006e-05,-3.20218,0.318999,0.184953,0.115049,
2,1,0,1,0,13074.8,0.119655,0.119362,0.643817,19,0.0102916,10,7.6847e-05,-3.19124,0.400089,0.147467,0.119078,
2,1,0,0,0,13075.6,0.12365,0.123315,0.660646,19,0.0108254,10,8.14675e-05,-3.18003,0.38928,0.151562,0.123024,
2,1,0,1,0,13076.4,0.127646,0.127316,0.674338,19,0.0113726,10,8.58542e-05,-3.17112,0.407637,0.144737,0.12702,
2,1,0,1,0,13077.2,0.131641,0.13134,0.686362,19,0.011931,10,9.01469e-05,-3.16345,-21.333,-0.00276567,0.131038,
2,1,0,1,0,13078,0.135635,0.135308,0.681447,19,0.0124911,10,9.2205e-05,-3.16657,-0.533799,-0.110529,0.135008,
2,1,0,1,0,13078.8,0.139631,0.13935,0.650917,19,0.0130389,10,9.07056e-05,-3.18647,-0.146525,-0.402661,0.139064,
2,1,0,0,0,13079.6,0.143626,0.143365,0.602165,19,0.013554,10,8.63295e-05,-3.22028,-0.0910671,-0.647874,0.1431,
2,1,0,1,0,13080.4,0.147621,0.147328,0.536719,19,0.0140212,10,7.90736e-05,-3.27025,-0.075677,-0.779629,0.147092,
2,1,0,1,0,13081.2,0.151617,0.151288,0.473819,19,0.0144377,10,7.1683e-05,-3.32439,-0.0815189,-0.723759,0.151079,
2,1,0,1,0,13082,0.155612,0.155269,0.428701,19,0.0148097,10,6.65641e-05,-3.36785,-0.0961068,-0.6139,0.155081,
2,1,0,1,0,13082.8,0.159606,0.159322,0.392982,19,0.0151495,10,6.26106e-05,-3.40563,-0.13225,-0.446123,0.159149,
2,1,0,0,0,13083.6,0.163602,0.1633,0.369507,19,0.0154667,10,6.03404e-05,-3.43238,-0.150056,-0.393187,0.163137,
2,1,0,1,0,13084.4,0.167597,0.167281,0.352421,19,0.0157674,10,5.89535e-05,-3.45294,-0.277514,-0.212602,0.167126,
2,1,0,0,0,13085.2,0.171592,0.171283,0.339127,19,0.0160568,10,5.80869e-05,-3.46964,-0.288403,-0.204575,0.171134,
2,1,0,1,0,13086,0.175588,0.175307,0.330383,19,0.0163371,10,5.79184e-05,-3.48098,-0.326685,-0.180602,0.175162,
2,1,0,1,0,13086.8,0.179582,0.179265,0.323823,19,0.0166106,10,5.80502e-05,-3.48969,-0.604809,-0.0975515,0.179123,
2,1,0,1,0,13087.6,0.183577,0.18333,0.317025,19,0.0168794,10,5.81204e-05,-3.49891,-0.467937,-0.126085,0.183191,
2,1,0,1,0,13088.4,0.187573,0.187248,0.312791,19,0.0171438,10,5.85695e-05,-3.50475,-0.669087,-0.0881798,0.18711,
2,1,0,0,0,13089.2,0.191568,0.191249,0.30889,19,0.0174045,10,5.90748e-05,-3.5102,-0.588843,-0.100196,0.191113,
2,1,0,1,0,13090,0.195563,0.195255,0.305833,19,0.0176624,10,5.97155e-05,-3.51452,-0.942767,-0.0625817,0.19512,
2,1,0,1,0,13090.8,0.199559,0.199278,0.30191,19,0.0179174,10,6.01642e-05,-3.52012,-1.68376,-0.0350405,0.199145,
2,1,0,1,0,13091.6,0.203553,0.203266,0.298164,19,0.0181701,10,6.06066e-05,-3.52555,-0.679248,-0.0868608,0.203135,
2,1,0,1,0,13092.4,0.207548,0.207267,0.297034,19,0.018421,10,6.15652e-05,-3.52719,-4.89256,-0.0120591,0.207136,
2,1,0,0,0,13093.2,0.211544,0.211218,0.294962,19,0.0186698,10,6.23014e-05,-3.53023,-1.14972,-0.0513169,0.211089,
2,1,0,1,0,13094,0.215539,0.215244,0.293233,19,0.0189172,10,6.31166e-05,-3.53279,-1.19312,-0.0494502,0.215115,
2,1,0,1,0,13094.8,0.219535,0.219252,0.291411,19,0.0191629,10,6.38925e-05,-3.53549,-1.08623,-0.0543161,0.219124,
2,1,0,1,0,13095.6,0.223529,0.223205,0.288864,19,0.0194074,10,6.44761e-05,-3.53931,-2.80115,-0.0210627,0.223078,
2,1,0,1,0,13096.4,0.227524,0.227205,0.287518,19,0.0196505,10,6.53254e-05,-3.54134,-1.07828,-0.0547166,0.227078,
2,1,0,0,0,13097.2,0.23152,0.231213,0.286501,19,0.0198921,10,6.62428e-05,-3.54287,-3.55338,-0.0166039,0.231087,
2,1,0,1,0,13098,0.235515,0.235217,0.283276,19,0.0201328,10,6.66315e-05,-3.54779,-2.30933,-0.0255486,0.235093,
2,1,0,0,0,13098.8,0.23951,0.239178,0.284033,19,0.0203724,10,6.79345e-05,-3.54663,-1.80379,-0.032709,0.239053,
2,1,0,1,0,13099.6,0.243506,0.243192,0.282903,19,0.0206112,10,6.87997e-05,-3.54836,8.94199,0.00659808,0.243068,
2,1,0,1,0,13100.4,0.2475,0.2472,0.282725,19,0.0208493,10,6.98895e-05,-3.54864,-1.00062,-0.0589633,0.247075,
2,1,0,1,0,13101.2,0.251495,0.251211,0.281278,19,0.0210862,10,7.06601e-05,-3.55086,-3.30148,-0.0178708,0.251087,
2,1,0,1,0,13102,0.255491,0.255136,0.279376,19,0.0213222,10,7.1279e-05,-3.55381,30.7304,0.00191993,0.255013,
2,1,0,0,0,13102.8,0.259486,0.259167,0.279582,19,0.0215577,10,7.24584e-05,-3.55349,-0.757699,-0.0778673,0.259044,
2,1,0,1,0,13103.6,0.263481,0.263155,0.276721,19,0.0217921,10,7.28204e-05,-3.55796,1.82536,0.0323224,0.263033,
2,1,0,1,0,13104.4,0.267477,0.267184,0.275273,19,0.0220257,10,7.35485e-05,-3.56024,-1.03364,-0.0570801,0.267063,
2,1,0,1,0,13105.2,0.271471,0.271164,0.27543,19,0.0222585,10,7.46867e-05,-3.55999,43.1077,0.00136867,0.271043,
2,1,0,1,0,13106,0.275466,0.27514,0.274163,19,0.0224901,10,7.54332e-05,-3.56199,-1.19055,-0.0495567,0.27502,
2,1,0,0,0,13106.8,0.279462,0.27917,0.272926,19,0.0227212,10,7.61928e-05,-3.56396,-3.11391,-0.0189473,0.27905,
2,1,0,1,0,13107.6,0.283457,0.28318,0.271979,19,0.0229514,10,7.7019e-05,-3.56546,-15.8726,-0.00371711,0.28306,
2,1,0,0,0,13108.4,0.287452,0.287141,0.271782,19,0.0231808,10,7.80399e-05,-3.56578,-1.71765,-0.0343492,0.287022,
2,1,0,1,0,13109.2,0.291448,0.291136,0.270426,19,0.0234094,10,7.87307e-05,-3.56795,-1.7809,-0.0331293,0.291017,
2,1,0,1,0,13110,0.295442,0.295114,0.268896,19,0.0236373,10,7.93552e-05,-3.57041,-12.3717,-0.00476894,0.294996,
2,1,0,1,0,13110.8,0.299437,0.299154,0.267751,19,0.0238646,10,8.00988e-05,-3.57227,-2.02122,-0.0291903,0.299036,
2,1,0,1,0,13111.6,0.303433,0.303133,0.267726,19,0.024091,10,8.11566e-05,-3.57231,-3.46822,-0.0170116,0.303016,
2,1,0,0,0,13112.4,0.307428,0.307151,0.266227,19,0.0243166,10,8.1772e-05,-3.57475,-3.4971,-0.0168711,0.307034,
2,1,0,1,0,13113.2,0.311424,0.311086,0.265779,19,0.0245419,10,8.268e-05,-3.57548,-1.13813,-0.0518392,0.310969,
2,1,0,1,0,13114,0.315418,0.315133,0.264688,19,0.0247662,10,8.34121e-05,-3.57727,8.63672,0.0068313,0.315017,
2,1,0,1,0,13114.8,0.319413,0.319113,0.265013,19,0.02499,10,8.45693e-05,-3.57673,3.21467,0.0183534,0.318997,
2,1,0,1,0,13115.6,0.323409,0.323122,0.263899,19,0.0252134,10,8.52717e-05,-3.57856,-1.23855,-0.0476364,0.323006,
2,1,0,0,0,13116.4,0.327404,0.327129,0.26252,19,0.0254358,10,8.58779e-05,-3.58084,-4.00678,-0.014725,0.327014,
2,1,0,1,0,13117.2,0.331399,0.331112,0.261582,19,0.025658,10,8.66129e-05,-3.58239,-1.91909,-0.0307437,0.330997,
2,1,0,1,0,13118,0.335395,0.335136,0.261252,19,0.0258796,10,8.75549e-05,-3.58294,-4.11943,-0.0143224,0.335021,
2,1,0,1,0,13118.8,0.339389,0.339115,0.2603,19,0.0261005,10,8.82716e-05,-3.58453,6.59402,0.0089475,0.339001,
2,1,0,1,0,13119.6,0.343384,0.343083,0.260753,19,0.0263211,10,8.94599e-05,-3.58377,-6.51563,-0.00905515,0.342968,
2,1,0,0,0,13120.4,0.34738,0.347044,0.260202,19,0.0265409,10,9.03016e-05,-3.58469,-1.43034,-0.0412488,0.346929,
2,1,0,1,0,13121.2,0.351375,0.351079,0.258955,19,0.0267602,10,9.09137e-05,-3.58677,-5.99937,-0.00983436,0.350965,
2,1,0,0,0,13122,0.35537,0.355031,0.25764,19,0.0269791,10,9.147e-05,-3.58899,-1.16554,-0.0506203,0.354917,
2,1,0,1,0,13122.8,0.359366,0.359085,0.258167,19,0.0271972,10,9.27039e-05,-3.5881,1.38911,0.0424733,0.358971,
2,1,0,1,0,13123.6,0.36336,0.363104,0.256327,19,0.0274152,10,9.30737e-05,-3.5912,-1.73445,-0.0340165,0.362992,
2,1,0,1,0,13124.4,0.367355,0.367034,0.25757,19,0.0276325,10,9.4537e-05,-3.5891,-4.17854,-0.0141198,0.366921,
2,1,0,1,0,13125.2,0.371351,0.371033,0.256806,19,0.0278494,10,9.52835e-05,-3.5904,2.65603,0.0222136,0.37092,
2,1,0,0,0,13126,0.375346,0.375069,0.256124,19,0.0280662,10,9.60643e-05,-3.59155,-1.56144,-0.0377855,0.374956,
2,1,0,1,0,13126.8,0.379342,0.379072,0.256105,19,0.0282823,10,9.70822e-05,-3.59158,-4.04101,-0.0146003,0.378959,
2,1,0,1,0,13127.6,0.383336,0.383035,0.254375,19,0.028498,10,9.74345e-05,-3.59453,-3.06547,-0.0192467,0.382923,
2,1,0,1,0,13128.4,0.387331,0.387057,0.254666,19,0.0287134,10,9.857e-05,-3.59403,-3.6918,-0.0159814,0.386945,
2,1,0,1,0,13129.2,0.391327,0.391037,0.25478,19,0.0289282,10,9.96284e-05,-3.59383,6.54482,0.00901476,0.390925,
2,1,0,0,0,13130,0.395322,0.395089,0.253321,19,0.0291429,10,0.000100084,-3.59633,-4.41967,-0.0133494,0.394977,
2,1,0,1,0,13130.8,0.399317,0.399021,0.254443,19,0.0293571,10,0.000101528,-3.59441,30.1292,0.00195823,0.398909,
2,1,0,1,0,13131.6,0.403313,0.402974,0.253496,19,0.0295709,10,0.000102153,-3.59603,-2.76588,-0.0213314,0.402863,
2,1,0,1,0,13132.4,0.407307,0.407034,0.25271,19,0.0297844,10,0.000102862,-3.59738,-2.03702,-0.0289639,0.406923,
2,1,0,1,0,13133.2,0.411302,0.411005,0.253838,19,0.0299976,10,0.000104329,-3.59544,1.69215,0.034867,0.410893,
2,1,0,0,0,13134,0.415298,0.414967,0.252252,19,0.030211,10,0.000104676,-3.59817,121.846,0.000484217,0.414856,
2,1,0,1,0,13134.8,0.419293,0.419042,0.252115,19,0.0304241,10,0.000105647,-3.5984,-0.870401,-0.0677849,0.418931,
2,1,0,0,0,13135.6,0.423288,0.422967,0.251526,19,0.0306364,10,0.000106387,-3.59942,3.12719,0.0188668,0.422856,
2,1,0,1,0,13136.4,0.427283,0.426999,0.25092,19,0.0308489,10,0.000107143,-3.60046,8.18779,0.00720585,0.426888,
2,1,0,1,0,13137.2,0.431278,0.431009,0.251932,19,0.0310611,10,0.000108585,-3.59872,-5.16453,-0.0114241,0.430898,
2,1,0,1,0,13138,0.435273,0.434972,0.251285,19,0.0312729,10,0.000109302,-3.59983,-7.702,-0.00766035,0.434862,
2,1,0,1,0,13138.7,0.439269,0.438953,0.251342,19,0.0314849,10,0.000110328,-3.59973,13.1641,0.00448187,0.438843,
2,1,0,0,0,13139.5,0.443264,0.442996,0.250945,19,0.0316968,10,0.000111167,-3.60042,-5.34266,-0.0110432,0.442885,
2,1,0,1,0,13140.3,0.447259,0.446934,0.251466,19,0.0319085,10,0.000112389,-3.59952,2.10931,0.0279712,0.446823,
2,1,0,1,0,13141.1,0.451254,0.450942,0.250973,19,0.0321206,10,0.000113175,-3.60037,-1.39848,-0.0421886,0.450832,
2,1,0,1,0,13141.9,0.455249,0.454912,0.252003,19,0.0323325,10,0.000114639,-3.59859,1.81841,0.032446,0.454801,
2,1,0,1,0,13142.7,0.459244,0.458944,0.250353,19,0.0325446,10,0.000114898,-3.60145,33.1498,0.0017798,0.458834,
2,1,0,0,0,13143.5,0.46324,0.46292,0.25184,19,0.0327568,10,0.000116582,-3.59888,6.44979,0.00914759,0.462809,
2,1,0,1,0,13144.3,0.467235,0.466945,0.252376,19,0.0329694,10,0.000117846,-3.59795,1.15526,0.0510708,0.466834,
2,1,0,1,0,13145.1,0.471231,0.470935,0.252847,19,0.033182,10,0.000119074,-3.59714,-2.31687,-0.0254654,0.470823,
2,1,0,1,0,13145.9,0.475225,0.474931,0.253591,19,0.0333948,10,0.000120438,-3.59587,5.90205,0.00999653,0.474819,
2,1,0,1,0,13146.7,0.47922,0.478947,0.253544,19,0.0336078,10,0.000121434,-3.59595,-38.1006,-0.00154853,0.478836,
2,1,0,0,0,13147.5,0.483216,0.482914,0.254318,19,0.0338214,10,0.000122813,-3.59462,16.8451,0.0035025,0.482802,
2,1,0,1,0,13148.3,0.487211,0.486899,0.254541,19,0.0340351,10,0.000123936,-3.59424,2.1412,0.0275547,0.486787,
2,1,0,0,0,13149.1,0.491206,0.490953,0.254874,19,0.0342495,10,0.000125131,-3.59367,5.95937,0.00990038,0.49084,
2,1,0,1,0,13149.9,0.495201,0.494908,0.25552,19,0.0344642,10,0.000126459,-3.59258,2.2749,0.0259352,0.494796,
2,1,0,1,0,13150.7,0.499196,0.498859,0.255842,19,0.0346792,10,0.000127629,-3.59203,1.8501,0.0318902,0.498746,
2,1,0,1,0,13151.5,0.503191,0.502894,0.257626,19,0.0348951,10,0.000129559,-3.58901,11.2299,0.00525382,0.502781,
2,1,0,1,0,13152.3,0.507187,0.506899,0.257845,19,0.0351116,10,0.000130702,-3.58864,1.96192,0.0300726,0.506785,
2,1,0,0,0,13153.1,0.511182,0.510908,0.258405,19,0.0353289,10,0.000132021,-3.5877,3.11228,0.0189572,0.510795,
2,1,0,1,0,13153.9,0.515177,0.514902,0.260641,19,0.0355472,10,0.000134204,-3.58396,1.61984,0.0364233,0.514787,
2,1,0,1,0,13154.7,0.519173,0.518887,0.262073,19,0.0357663,10,0.000135986,-3.58158,1.2441,0.0474238,0.518772,
2,1,0,1,0,13155.5,0.523167,0.522839,0.262461,19,0.0359865,10,0.000137225,-3.58094,-36.5641,-0.0016136,0.522723,
2,1,0,1,0,13156.3,0.527162,0.526853,0.263793,19,0.0362076,10,0.00013898,-3.57874,0.872135,0.0676501,0.526737,
2,1,0,0,0,13157.1,0.531158,0.530856,0.266042,19,0.03643,10,0.00014123,-3.57505,1.77469,0.0332452,0.530739,
2,1,0,1,0,13157.9,0.535153,0.534877,0.267919,19,0.0366539,10,0.000143304,-3.572,1.77891,0.0331664,0.534759,
2,1,0,0,0,13158.7,0.539148,0.538848,0.269449,19,0.0368789,10,0.000145192,-3.56952,0.856137,0.0689142,0.538729,
2,1,0,1,0,13159.5,0.543143,0.542855,0.272089,19,0.0371057,10,0.000147705,-3.56529,1.59804,0.0369203,0.542736,
2,1,0,1,0,13160.3,0.547138,0.546825,0.27415,19,0.0373342,10,0.000149912,-3.56201,1.11788,0.0527783,0.546705,
2,1,0,1,0,13161.1,0.551133,0.550844,0.276884,19,0.0375646,10,0.00015252,-3.5577,0.739018,0.0798356,0.550722,
2,1,0,1,0,13161.9,0.555129,0.554819,0.279702,19,0.0377975,10,0.000155184,-3.55331,0.749968,0.07867,0.554696,
2,1,0,0,0,13162.7,0.559124,0.558821,0.283072,19,0.0380327,10,0.000158186,-3.5481,0.956997,0.0616512,0.558696,
2,1,0,1,0,13163.5,0.56312,0.562824,0.286763,19,0.0382706,10,0.000161397,-3.54248,0.563348,0.104731,0.562698,
2,1,0,1,0,13164.3,0.567114,0.566871,0.290607,19,0.0385116,10,0.000164737,-3.53669,0.86994,0.0678208,0.566743,
2,1,0,1,0,13165.1,0.571109,0.570854,0.295159,19,0.0387556,10,0.000168493,-3.52994,0.57691,0.102269,0.570724,
2,1,0,1,0,13165.9,0.575105,0.574836,0.298663,19,0.0390032,10,0.000171682,-3.52482,0.552099,0.106865,0.574705,
2,1,0,0,0,13166.7,0.5791,0.578799,0.305948,19,0.0392552,10,0.000177082,-3.51435,0.479002,0.123173,0.578664,
2,1,0,1,0,13167.5,0.583095,0.582827,0.311644,19,0.0395116,10,0.000181635,-3.50634,0.373273,0.158061,0.58269,
2,1,0,1,0,13168.3,0.58709,0.586823,0.317487,19,0.0397734,10,0.000186309,-3.49827,0.483172,0.12211,0.586683,
2,1,0,1,0,13169.1,0.591085,0.59079,0.325873,19,0.0400408,10,0.000192522,-3.48695,0.324817,0.18164,0.590646,
2,1,0,1,0,13169.9,0.59508,0.594797,0.335407,19,0.0403148,10,0.000199499,-3.47443,0.351239,0.167977,0.594649,
2,1,0,0,0,13170.7,0.599076,0.598769,0.345397,19,0.0405967,10,0.000206813,-3.46168,0.273018,0.216103,0.598617,
2,1,0,1,0,13171.5,0.603071,0.602754,0.357346,19,0.0408871,10,0.000215392,-3.44691,0.279746,0.210906,0.602597,
2,1,0,0,0,13172.3,0.607066,0.606773,0.370434,19,0.041188,10,0.000224769,-3.43129,0.227209,0.259673,0.60661,
2,1,0,1,0,13173.1,0.611061,0.610763,0.386362,19,0.0415006,10,0.000235975,-3.41301,0.221026,0.266937,0.610593,
2,1,0,1,0,13173.9,0.615056,0.614748,0.405062,19,0.0418269,10,0.000249011,-3.39248,0.169396,0.348297,0.614569,
2,1,0,1,0,13174.7,0.619051,0.618839,0.426986,19,0.0421697,10,0.000264236,-3.36959,0.169347,0.348398,0.618651,
2,1,0,1,0,13175.5,0.623047,0.622787,0.451909,19,0.0425306,10,0.000281443,-3.34495,0.160643,0.367274,0.622588,
2,1,0,0,0,13176.3,0.627042,0.626731,0.480546,19,0.0429126,10,0.000301173,-3.31826,0.134948,0.437206,0.62652,
2,1,0,1,0,13177.1,0.631037,0.63075,0.514795,19,0.0433204,10,0.000324707,-3.28837,0.13089,0.45076,0.630524,
2,1,0,1,0,13177.9,0.635032,0.634751,0.553729,19,0.0437571,10,0.00035148,-3.2567,0.120352,0.490231,0.634507,
2,1,0,1,0,13178.7,0.639027,0.638728,0.60095,19,0.044228,10,0.000383844,-3.22116,0.109302,0.539787,0.638464,
2,1,0,1,0,13179.5,0.643022,0.642742,0.65646,19,0.0447401,10,0.000421935,-3.18279,0.0976912,0.603944,0.642453,
2,1,0,0,0,13180.3,0.647018,0.646756,0.720084,19,0.0453003,10,0.000465719,-3.14262,0.0928609,0.635359,0.646439,
2,1,0,1,0,13181.1,0.651013,0.650729,0.797669,19,0.0459172,10,0.000519066,-3.09818,0.0877091,0.672678,0.650378,
2,1,0,1,0,13181.9,0.655008,0.654774,0.889287,19,0.0466008,10,0.000582282,-3.05096,0.0819365,0.72007,0.654383,
2,1,0,1,0,13182.7,0.659003,0.658691,0.994499,19,0.0473625,10,0.000655067,-3.0024,0.0795114,0.742032,0.658253,
2,1,0,1,0,13183.5,0.662998,0.662759,1.11787,19,0.0482154,10,0.000740877,-2.95161,0.0768001,0.768228,0.662267,
2,1,0,0,0,13184.3,0.666994,0.666713,1.26147,19,0.0491745,10,0.000841038,-2.89912,0.0743792,0.793233,0.666158,
2,1,0,1,0,13185.1,0.670989,0.670721,1.42645,19,0.0502571,10,0.000956752,-2.84574,0.0718836,0.820771,0.670093,
2,1,0,0,0,13185.9,0.674984,0.674711,1.61603,19,0.0514814,10,0.00109036,-2.79155,0.072743,0.811074,0.674,
2,1,0,1,0,13186.7,0.67898,0.678707,1.83239,19,0.0528682,10,0.00124366,-2.73698,0.0703764,0.838349,0.677901,
2,1,0,1,0,13187.5,0.682974,0.682688,2.07843,19,0.0544405,10,0.00141892,-2.68226,0.0707589,0.833818,0.681773,
2,1,0,1,0,13188.3,0.686969,0.686709,2.35682,19,0.0562216,10,0.00161845,-2.62767,0.0712984,0.827508,0.685672,
2,1,0,1,0,13189.1,0.690965,0.690657,2.66454,19,0.0582372,10,0.00184028,-2.57438,0.0722923,0.816131,0.689484,
2,1,0,0,0,13189.9,0.69496,0.694668,3.00864,19,0.0605134,10,0.00209001,-2.52163,0.0747896,0.78888,0.693344,
2,1,0,1,0,13190.7,0.698955,0.698674,3.38617,19,0.0630765,10,0.00236583,-2.47029,0.0755124,0.781329,0.697185,
2,1,0,1,0,13191.5,0.70295,0.702663,3.79773,19,0.0659558,10,0.00266853,-2.42048,0.0775677,0.760626,0.700992,
2,1,0,1,0,13192.3,0.706945,0.706663,4.24563,19,0.069178,10,0.00300023,-2.37206,0.0798362,0.739014,0.704795,
2,1,0,1,0,13193.1,0.71094,0.71067,4.7259,19,0.0727708,10,0.00335855,-2.32552,0.0821805,0.717932,0.70859,
2,1,0,0,0,13193.9,0.714936,0.71471,5.24081,19,0.0767626,10,0.00374566,-2.2806,0.085661,0.688761,0.712404,
2,1,0,1,0,13194.7,0.718931,0.718666,5.78898,19,0.0811779,10,0.00416035,-2.2374,0.0884611,0.66696,0.716119,
2,1,0,1,0,13195.5,0.722927,0.722647,6.36859,19,0.0860444,10,0.00460224,-2.19596,0.0919651,0.641548,0.719844,
2,1,0,1,0,13196.3,0.726921,0.72667,6.97728,19,0.0913855,10,0.00507018,-2.15631,0.0956067,0.617112,0.7236,
2,1,0,1,0,13197.1,0.730916,0.730639,7.6196,19,0.0972261,10,0.00556718,-2.11807,0.0990331,0.595761,0.727286,
2,1,0,1,0,13197.9,0.734911,0.734665,8.28693,19,0.103591,10,0.00608812,-2.08161,0.103454,0.5703,0.731019,
2,1,0,1,0,13198.7,0.738907,0.738668,8.98517,19,0.110502,10,0.00663706,-2.04647,0.105176,0.560965,0.734714,
2,1,0,0,0,13199.5,0.742902,0.742656,9.70836,19,0.11798,10,0.00720997,-2.01285,0.112978,0.522224,0.738384,
2,1,0,1,0,13200.3,0.746897,0.746624,10.462,19,0.12605,10,0.00781119,-1.98039,0.115536,0.510662,0.742021,
2,1,0,1,0,13201.1,0.750892,0.750691,11.2454,19,0.134731,10,0.00844179,-1.94903,0.116354,0.507074,0.745743,
2,1,0,1,0,13201.9,0.754887,0.754568,12.0624,19,0.144052,10,0.00910188,-1.91857,0.120422,0.489945,0.749261,
2,1,0,1,0,13202.7,0.758883,0.758609,12.9202,19,0.154043,10,0.00980136,-1.88873,0.120686,0.488873,0.752924,
2,1,0,0,0,13203.5,0.762878,0.762606,13.8261,19,0.164737,10,0.0105438,-1.8593,0.125626,0.469648,0.756523,
2,1,0,1,0,13204.3,0.766873,0.76658,14.7859,19,0.176177,10,0.0113346,-1.83015,0.122454,0.481812,0.760074,
2,1,0,1,0,13205.1,0.770868,0.770591,15.8133,19,0.18841,10,0.0121856,-1.80098,0.120859,0.48817,0.763633,
2,1,0,1,0,13205.9,0.774863,0.774526,16.8865,19,0.201482,10,0.013079,-1.77246,0.121207,0.486771,0.767096,
2,1,0,1,0,13206.7,0.778858,0.778621,18.0229,19,0.21544,10,0.014033,-1.74417,0.127222,0.463756,0.770691,
2,1,0,0,0,13207.5,0.782854,0.782559,19.1979,19,0.230321,10,0.0150235,-1.71675,0.125597,0.469757,0.774112,
2,1,0,1,0,13208.3,0.786849,0.786538,20.4716,19,0.246179,10,0.0161017,-1.68885,0.128186,0.46027,0.77753,
2,1,0,0,0,13209.1,0.790844,0.790564,21.7343,19,0.263046,10,0.0171824,-1.66285,0.131576,0.448412,0.781001,
2,1,0,1,0,13209.9,0.794839,0.794589,23.0684,19,0.280954,10,0.0183299,-1.63698,0.133523,0.441873,0.784439,
2,1,0,1,0,13210.7,0.798834,0.798548,24.439,19,0.299943,10,0.0195157,-1.61192,0.132871,0.444039,0.787794,
2,1,0,1,0,13211.5,0.802829,0.802533,25.9046,19,0.320064,10,0.0207893,-1.58662,0.136587,0.431961,0.791135,
2,1,0,1,0,13212.3,0.806825,0.806549,27.3028,19,0.341347,10,0.022021,-1.56379,0.151495,0.389451,0.794535,
2,1,0,0,0,13213.1,0.81082,0.810528,28.7559,19,0.363757,10,0.0233075,-1.54127,0.150189,0.392838,0.797876,
2,1,0,1,0,13213.9,0.814815,0.814549,30.328,19,0.38736,10,0.0247036,-1.51816,0.145818,0.404613,0.801204,
2,1,0,1,0,13214.7,0.81881,0.818523,31.8293,19,0.412208,10,0.026053,-1.49717,0.157885,0.373689,0.804518,
2,1,0,1,0,13215.5,0.822805,0.822558,33.4127,19,0.438289,10,0.0274839,-1.47609,0.16784,0.351526,0.807857,
2,1,0,1,0,13216.3,0.826801,0.82658,34.9256,19,0.4656,10,0.0288688,-1.45686,0.16969,0.347694,0.811212,
2,1,0,0,0,13217.1,0.830796,0.83056,36.542,19,0.494168,10,0.0303504,-1.43721,0.175171,0.336815,0.814482,
2,1,0,1,0,13217.9,0.834791,0.834592,38.0992,19,0.524001,10,0.0317973,-1.41908,0.185806,0.317535,0.817828,
2,1,0,1,0,13218.7,0.838786,0.838528,39.6372,19,0.555084,10,0.0332369,-1.4019,0.203962,0.289269,0.821087,
2,1,0,1,0,13219.5,0.842781,0.842547,41.1586,19,0.587364,10,0.034678,-1.38554,0.194406,0.303488,0.824437,
2,1,0,1,0,13220.3,0.846776,0.8465,42.7417,19,0.620905,10,0.0361809,-1.36915,0.212045,0.278243,0.827694,
2,1,0,1,0,13221,0.849723,0.849473,43.5637,19,0.651259,10,0.0370062,-1.36088,0.0413318,1.42747,0.830305,
2,1,0,0,0,13221.7,0.845728,0.84549,41.34,19,0.685085,10,0.0349525,-1.38363,0.161376,0.365606,0.8273,
2,1,0,1,0,13222.5,0.841732,0.841482,39.5011,19,0.717372,10,0.0332394,-1.40339,0.158387,0.372505,0.824101,
2,1,0,1,0,13223.3,0.837737,0.837483,37.7533,19,0.748206,10,0.0316177,-1.42305,0.165001,0.357573,0.820871,
2,1,0,1,0,13224.1,0.833742,0.8335,36.0204,19,0.777677,10,0.030023,-1.44345,0.15403,0.383042,0.817651,
2,1,0,1,0,13224.9,0.829747,0.829555,34.3536,19,0.805766,10,0.0284982,-1.46403,0.151954,0.388276,0.814439,
2,1,0,0,0,13225.7,0.825752,0.825499,32.6447,19,0.832516,10,0.0269482,-1.48619,0.147364,0.40037,0.811135,
2,1,0,1,0,13226.5,0.821757,0.821527,31.0604,19,0.857931,10,0.025517,-1.50779,0.15408,0.382917,0.80786,
2,1,0,1,0,13227.3,0.817761,0.81753,29.3337,19,0.882087,10,0.0239812,-1.53263,0.13164,0.448191,0.804623,
2,1,0,1,0,13228.1,0.813766,0.813509,27.8183,19,0.904908,10,0.0226304,-1.55567,0.137996,0.427549,0.801269,
2,1,0,1,0,13228.9,0.809771,0.809526,26.243,19,0.926494,10,0.0212444,-1.58099,0.129609,0.455216,0.797979,
2,1,0,1,0,13229.7,0.805776,0.805542,24.7183,19,0.946836,10,0.0199116,-1.60698,0.131086,0.450085,0.794666,
2,1,0,1,0,13230.5,0.801781,0.801547,23.3247,19,0.966031,10,0.0186958,-1.63218,0.126136,0.467748,0.791284,
2,1,0,0,0,13231.3,0.797786,0.797533,21.8938,19,0.984086,10,0.017461,-1.65968,0.119439,0.493976,0.7879,
2,1,0,1,0,13232.1,0.79379,0.793532,20.5191,19,1.00101,10,0.0162826,-1.68784,0.121123,0.48711,0.784503,
2,1,0,1,0,13232.9,0.789795,0.789497,19.2223,19,1.01687,10,0.0151759,-1.7162,0.118258,0.498908,0.78104,
2,1,0,1,0,13233.7,0.7858,0.785533,17.9396,19,1.0317,10,0.0140922,-1.74619,0.115915,0.508995,0.777639,
2,1,0,1,0,13234.5,0.781805,0.781541,16.7367,19,1.04554,10,0.0130804,-1.77633,0.112353,0.525128,0.774177,
2,1,0,0,0,13235.3,0.77781,0.777551,15.5828,19,1.05844,10,0.0121164,-1.80735,0.109007,0.54125,0.770694,
2,1,0,1,0,13236.1,0.773815,0.773568,14.4634,19,1.07042,10,0.0111884,-1.83973,0.108305,0.544756,0.767204,
2,1,0,1,0,13236.9,0.769819,0.769519,13.3967,19,1.08154,10,0.010309,-1.873,0.103961,0.567518,0.763624,
2,1,0,1,0,13237.7,0.765824,0.765565,12.3794,19,1.09182,10,0.00947723,-1.9073,0.104319,0.565575,0.760118,
2,1,0,1,0,13238.5,0.761829,0.761572,11.4269,19,1.10132,10,0.00870238,-1.94207,0.100397,0.587669,0.756544,
2,1,0,0,0,13239.3,0.757834,0.757601,10.5119,19,1.11007,10,0.00796379,-1.97832,0.0648153,0.910279,0.752976,
2,1,0,1,0,13240.1,0.753839,0.753552,9.3153,19,1.11787,10,0.00701956,-2.0308,0.100294,0.58827,0.749453,
2,1,0,0,0,13240.9,0.749844,0.749609,8.55591,19,1.125,10,0.00641359,-2.06773,0.100237,0.588607,0.745844,
2,1,0,1,0,13241.7,0.745848,0.745573,7.84181,19,1.13154,10,0.00584664,-2.10558,0.111645,0.528459,0.742122,
2,1,0,1,0,13242.5,0.741853,0.741562,7.25328,19,1.13757,10,0.00537875,-2.13947,0.0924153,0.638422,0.73837,
2,1,0,1,0,13243.3,0.737858,0.737606,6.60767,19,1.1431,10,0.00487386,-2.17995,0.0903064,0.653331,0.734698,
2,1,0,1,0,13244.1,0.733863,0.733609,5.99053,19,1.14812,10,0.00439471,-2.22253,0.085199,0.692496,0.730973,
2,1,0,0,0,13244.9,0.729868,0.729631,5.41449,19,1.15266,10,0.00395058,-2.26644,0.0845575,0.69775,0.727249,
2,1,0,1,0,13245.7,0.725872,0.72563,4.87427,19,1.15676,10,0.00353692,-2.31209,0.0807796,0.730382,0.723485,
2,1,0,1,0,13246.5,0.721877,0.72163,4.37343,19,1.16044,10,0.003156,-2.35918,0.079691,0.74036,0.719706,
2,1,0,1,0,13247.3,0.717882,0.717597,3.91003,19,1.16374,10,0.00280582,-2.40782,0.0763764,0.77249,0.715876,
2,1,0,1,0,13248.1,0.713887,0.713628,3.48048,19,1.16668,10,0.00248377,-2.45836,0.0823645,0.716328,0.712097,
2,1,0,0,0,13248.9,0.709892,0.709633,3.15093,19,1.16932,10,0.002236,-2.50156,0.0786104,0.750537,0.708246,
2,1,0,1,0,13249.7,0.705897,0.705646,2.78434,19,1.17168,10,0.00196476,-2.55528,0.0702546,0.839803,0.704421,
2,1,0,1,0,13250.5,0.701901,0.701645,2.44858,19,1.17375,10,0.00171804,-2.61109,0.0677494,0.870857,0.700568,
2,1,0,1,0,13251.3,0.697906,0.697586,2.14162,19,1.17557,10,0.00149397,-2.66926,0.06501,0.907553,0.696644,
2,1,0,1,0,13252.1,0.693911,0.693644,1.86368,19,1.17716,10,0.00129273,-2.72963,0.0616808,0.956538,0.692824,
2,1,0,0,0,13252.9,0.689916,0.689641,1.60945,19,1.17854,10,0.00110994,-2.79332,0.0609302,0.968322,0.688933,
2,1,0,1,0,13253.7,0.685921,0.685629,1.38431,19,1.17972,10,0.000949124,-2.85877,0.0585475,1.00773,0.68502,
2,1,0,0,0,13254.5,0.681926,0.681716,1.18259,19,1.18073,10,0.000806193,-2.92716,0.0559333,1.05483,0.681196,
2,1,0,1,0,13255.3,0.67793,0.677648,1.00439,19,1.18159,10,0.000680627,-2.9981,0.0546084,1.08042,0.677206,
2,1,0,1,0,13256.1,0.673935,0.673647,0.846946,19,1.18232,10,0.000570543,-3.07214,0.0514864,1.14593,0.673274,
2,1,0,1,0,13256.9,0.66994,0.669682,0.708861,19,1.18293,10,0.000474712,-3.14944,0.0499568,1.18102,0.66937,
2,1,0,1,0,13257.7,0.665945,0.665663,0.587694,19,1.18344,10,0.000391206,-3.23085,0.0486758,1.2121,0.665404,
2,1,0,0,0,13258.5,0.66195,0.661685,0.486221,19,1.18386,10,0.000321725,-3.31317,0.0454263,1.29881,0.661472,
2,1,0,1,0,13259.3,0.657955,0.657626,0.396076,19,1.1842,10,0.00026047,-3.40222,0.0438217,1.34637,0.657452,
2,1,0,1,0,13260.1,0.653959,0.653673,0.320398,19,1.18447,10,0.000209436,-3.49431,0.0417831,1.41205,0.653532,
2,1,0,1,0,13260.9,0.649964,0.649709,0.254932,19,1.18469,10,0.000165632,-3.59357,0.0383988,1.53651,0.649597,
2,1,0,1,0,13261.7,0.64597,0.645692,0.20098,19,1.18486,10,0.000129771,-3.69685,0.0365777,1.61301,0.645603,
2,1,0,0,0,13262.5,0.641974,0.641701,0.153228,19,1.18499,10,9.83268e-05,-3.81466,0.0325485,1.81268,0.641634,
2,1,0,1,0,13263.3,0.637979,0.637718,0.114341,19,1.18509,10,7.29171e-05,-3.9418,0.0294578,2.00286,0.637668,
2,1,0,1,0,13264.1,0.633983,0.633749,0.0813529,19,1.18515,10,5.15573e-05,-4.08963,0.0241296,2.44513,0.633713,
2,1,0,1,0,13264.9,0.629988,0.629714,0.0538646,19,1.1852,10,3.39193e-05,-4.2687,0.0191539,3.08032,0.62969,
2,1,0,1,0,13265.7,0.625993,0.625768,0.0306832,19,1.18522,10,1.92006e-05,-4.5131,0.0126051,4.68064,0.625754,
2,1,0,0,0,13266.5,0.621998,0.621705,0.0107985,19,1.18523,10,6.71347e-06,-4.96664,0.00405133,14.5631,0.6217,
2,1,0,1,0,13267.3,0.618003,0.617708,-0.00504195,19,1.18522,10,-3.11445e-06,-5.2974,-0.00478854,-12.3211,0.61771,
2,0,0,0,0,13268.1,0.614008,0.613714,-0.0187431,19,1.1852,10,-1.15029e-05,-4.72716,-0.0163487,-3.60884,0.613722,
2,0,0,1,0,13268.9,0.610012,0.609732,-0.0295245,19,1.18517,10,-1.8002e-05,-4.52982,-0.0259189,-2.27633,0.609745,
2,0,0,1,0,13269.7,0.606017,0.605711,-0.0377719,19,1.18513,10,-2.28789e-05,-4.42283,-0.0511924,-1.15251,0.605727,
2,0,0,1,0,13270.5,0.602022,0.601729,-0.0462593,19,1.18508,10,-2.78356e-05,-4.3348,-0.0553402,-1.06613,0.60175,
2,0,0,1,0,13271.3,0.598027,0.597745,-0.052818,19,1.18503,10,-3.15717e-05,-4.27722,-0.0697097,-0.846368,0.597768,
2,0,0,0,0,13272.1,0.594032,0.593754,-0.0591783,19,1.18498,10,-3.51373e-05,-4.22784,-0.109559,-0.538522,0.59378,
2,0,0,1,0,13272.9,0.590037,0.589811,-0.0641546,19,1.18492,10,-3.78391e-05,-4.19277,-0.116195,-0.507767,0.589839,
2,0,0,1,0,13273.7,0.586041,0.58574,-0.0682872,19,1.18486,10,-3.99985e-05,-4.16566,-0.15853,-0.372168,0.58577,
2,0,0,1,0,13274.5,0.582046,0.581767,-0.0721669,19,1.18479,10,-4.19843e-05,-4.14166,-0.20618,-0.286157,0.581799,
2,0,0,1,0,13275.3,0.578052,0.577789,-0.0747831,19,1.18472,10,-4.32088e-05,-4.1262,-0.22183,-0.26597,0.577821,
2,0,0,0,0,13276.1,0.574056,0.57374,-0.07742,19,1.18465,10,-4.44189e-05,-4.11115,-0.338369,-0.174366,0.573774,
2,0,0,1,0,13276.9,0.570061,0.569775,-0.0806031,19,1.18457,10,-4.59256e-05,-4.09365,-0.329178,-0.179234,0.56981,
2,0,0,1,0,13277.7,0.566065,0.565786,-0.0826539,19,1.1845,10,-4.67644e-05,-4.08274,-0.287963,-0.204888,0.565822,
2,0,0,1,0,13278.5,0.56207,0.561744,-0.0852803,19,1.18442,10,-4.79057e-05,-4.06915,-0.395509,-0.149175,0.561782,
2,0,0,1,0,13279.3,0.558075,0.557762,-0.0863877,19,1.18434,10,-4.81838e-05,-4.06355,-0.485569,-0.121507,0.5578,
2,0,0,1,0,13280.1,0.55408,0.553782,-0.088845,19,1.18426,10,-4.92008e-05,-4.05137,-0.386897,-0.152495,0.553821,
2,0,0,1,0,13280.9,0.550085,0.549791,-0.0892632,19,1.18418,10,-4.90761e-05,-4.04933,-1.04202,-0.0566209,0.549831,
2,0,0,0,0,13281.7,0.54609,0.545743,-0.0903718,19,1.1841,10,-4.93198e-05,-4.04397,-0.662007,-0.0891229,0.545783,
2,0,0,1,0,13282.5,0.542094,0.541784,-0.0913817,19,1.18401,10,-4.95091e-05,-4.03914,-0.578921,-0.101914,0.541824,
2,0,0,1,0,13283.3,0.538099,0.537861,-0.093076,19,1.18393,10,-5.00619e-05,-4.03116,-41.8854,-0.00140861,0.537902,
2,0,0,1,0,13284.1,0.534104,0.533804,-0.0946941,19,1.18384,10,-5.0548e-05,-4.02368,-0.345319,-0.170857,0.533845,
2,0,0,1,0,13284.9,0.530109,0.529846,-0.0955042,19,1.18375,10,-5.06025e-05,-4.01998,-1.66652,-0.0354032,0.529888,
2,0,0,0,0,13285.7,0.526114,0.525808,-0.0969044,19,1.18367,10,-5.09531e-05,-4.01366,-0.578698,-0.101953,0.525851,
2,0,0,1,0,13286.5,0.522119,0.521796,-0.0981809,19,1.18358,10,-5.12303e-05,-4.00797,-0.689881,-0.085522,0.521839,
2,0,0,1,0,13287.3,0.518123,0.517837,-0.0987028,19,1.18349,10,-5.1112e-05,-4.00567,-1.27515,-0.0462691,0.51788,
2,0,0,1,0,13288.1,0.514128,0.513852,-0.0995339,19,1.1834,10,-5.11457e-05,-4.00203,-1.47043,-0.0401244,0.513896,
2,0,0,1,0,13288.9,0.510133,0.509838,-0.10063,19,1.18331,10,-5.13048e-05,-3.99727,-0.439547,-0.134229,0.509882,
2,0,0,0,0,13289.7,0.506138,0.505831,-0.102607,19,1.18321,10,-5.19016e-05,-3.98882,-1.74669,-0.0337782,0.505876,
2,0,0,1,0,13290.5,0.502143,0.501868,-0.103129,19,1.18312,10,-5.17573e-05,-3.98662,-1.25526,-0.0470022,0.501914,
2,0,0,0,0,13291.3,0.498148,0.497857,-0.105179,19,1.18303,10,-5.23639e-05,-3.97807,-0.490048,-0.120396,0.497903,
2,0,0,1,0,13292.1,0.494152,0.493851,-0.105983,19,1.18293,10,-5.23398e-05,-3.97476,-3.16715,-0.0186287,0.493897,
2,0,0,1,0,13292.9,0.490157,0.48984,-0.105575,19,1.18284,10,-5.17148e-05,-3.97644,-0.859984,-0.0686059,0.489887,
2,0,0,1,0,13293.7,0.486162,0.485863,-0.107801,19,1.18274,10,-5.23764e-05,-3.96738,-0.55255,-0.106778,0.48591,
2,0,0,1,0,13294.5,0.482167,0.481889,-0.109183,19,1.18264,10,-5.26143e-05,-3.96184,-0.605928,-0.0973713,0.481937,
2,0,0,0,0,13295.3,0.478172,0.477904,-0.110369,19,1.18254,10,-5.27456e-05,-3.95715,-127.252,-0.000463646,0.477953,
2,0,0,1,0,13296.1,0.474177,0.473903,-0.111499,19,1.18244,10,-5.28398e-05,-3.95273,-1.61059,-0.0366325,0.473952,
2,0,0,1,0,13296.9,0.470181,0.469916,-0.114404,19,1.18234,10,-5.37603e-05,-3.94156,-0.341909,-0.172561,0.469966,
2,0,0,1,0,13297.7,0.466186,0.465874,-0.115919,19,1.18224,10,-5.40038e-05,-3.93584,-0.634193,-0.0930316,0.465925,
2,0,0,1,0,13298.5,0.462191,0.461869,-0.116425,19,1.18213,10,-5.3773e-05,-3.93395,-0.810491,-0.0727954,0.461921,
2,0,0,0,0,13299.3,0.458196,0.457878,-0.11801,19,1.18203,10,-5.40341e-05,-3.92808,-0.514844,-0.114598,0.45793,
2,0,0,1,0,13300.1,0.454201,0.453963,-0.119264,19,1.18192,10,-5.41416e-05,-3.92349,-1.19372,-0.0494254,0.454016,
2,0,0,1,0,13300.9,0.450205,0.449893,-0.121172,19,1.18181,10,-5.45145e-05,-3.9166,-0.622693,-0.0947497,0.449946,
2,0,0,1,0,13301.7,0.44621,0.445892,-0.122418,19,1.1817,10,-5.45851e-05,-3.91216,-0.685528,-0.0860651,0.445945,
2,0,0,1,0,13302.5,0.442215,0.441911,-0.123802,19,1.18159,10,-5.47096e-05,-3.90727,-1.69954,-0.0347153,0.441965,
2,0,0,0,0,13303.3,0.43822,0.43791,-0.126305,19,1.18148,10,-5.53101e-05,-3.89858,-0.363373,-0.162368,0.437965,
2,0,0,1,0,13304.1,0.434225,0.433936,-0.128571,19,1.18137,10,-5.57913e-05,-3.89086,-0.690626,-0.0854297,0.433992,
2,0,0,0,0,13304.8,0.43023,0.429924,-0.129975,19,1.18125,10,-5.58794e-05,-3.88614,-2.34221,-0.0251899,0.429981,
2,0,0,1,0,13305.6,0.426234,0.425929,-0.131454,19,1.18114,10,-5.599e-05,-3.88123,-0.401154,-0.147076,0.425987,
2,0,0,1,0,13306.4,0.422239,0.42198,-0.133214,19,1.18102,10,-5.62139e-05,-3.87545,-1.42018,-0.0415442,0.422039,
2,0,0,1,0,13307.2,0.418244,0.417913,-0.134511,19,1.1809,10,-5.62138e-05,-3.87124,-0.452092,-0.130504,0.417972,
2,0,0,1,0,13308,0.414249,0.413941,-0.136873,19,1.18078,10,-5.66572e-05,-3.86368,-1.00913,-0.0584662,0.414001,
2,0,0,0,0,13308.8,0.410254,0.409948,-0.138986,19,1.18066,10,-5.69769e-05,-3.85703,-2.03675,-0.0289678,0.410009,
2,0,0,1,0,13309.6,0.406259,0.405925,-0.140237,19,1.18053,10,-5.69257e-05,-3.85314,-0.320455,-0.184113,0.405987,
2,0,0,1,0,13310.4,0.402263,0.401982,-0.143378,19,1.18041,10,-5.76355e-05,-3.84352,-0.770331,-0.0765904,0.402045,
2,0,0,1,0,13311.2,0.398268,0.39796,-0.146205,19,1.18028,10,-5.81837e-05,-3.83504,-0.73803,-0.0799426,0.398025,
2,0,0,1,0,13312,0.394274,0.393942,-0.147532,19,1.18015,10,-5.81189e-05,-3.83111,-0.585467,-0.100774,0.394007,
2,0,0,0,0,13312.8,0.390278,0.389977,-0.149906,19,1.18002,10,-5.84598e-05,-3.82418,-0.553581,-0.106579,0.390043,
2,0,0,1,0,13313.6,0.386283,0.385943,-0.151865,19,1.17989,10,-5.86113e-05,-3.81854,-0.576461,-0.102349,0.386009,
2,0,0,1,0,13314.4,0.382287,0.38198,-0.153094,19,1.17975,10,-5.84787e-05,-3.81504,-0.891753,-0.0661618,0.382048,
2,0,0,1,0,13315.2,0.378292,0.377974,-0.156537,19,1.17962,10,-5.91667e-05,-3.80538,-1.37424,-0.0429327,0.378042,
2,0,0,1,0,13316,0.374297,0.37398,-0.157984,19,1.17948,10,-5.90828e-05,-3.80139,-0.440605,-0.133907,0.37405,
2,0,0,1,0,13316.8,0.370303,0.369975,-0.16036,19,1.17934,10,-5.93292e-05,-3.7949,-0.701088,-0.0841549,0.370046,
2,0,0,1,0,13317.6,0.366307,0.366024,-0.16257,19,1.1792,10,-5.95046e-05,-3.78896,-0.489741,-0.120472,0.366095,
2,0,0,0,0,13318.4,0.362312,0.362023,-0.16524,19,1.17906,10,-5.98205e-05,-3.78189,-0.698942,-0.0844133,0.362096,
2,0,0,1,0,13319.2,0.358316,0.357989,-0.168023,19,1.17891,10,-6.01505e-05,-3.77463,-0.755513,-0.0780927,0.358063,
2,0,0,1,0,13320,0.354321,0.353981,-0.169803,19,1.17876,10,-6.01071e-05,-3.77005,-0.529345,-0.111458,0.354056,
2,0,0,1,0,13320.8,0.350327,0.350028,-0.171643,19,1.17861,10,-6.008e-05,-3.76537,-0.827052,-0.0713377,0.350104,
2,0,0,1,0,13321.6,0.346331,0.346009,-0.173773,19,1.17846,10,-6.0127e-05,-3.76002,-1.89209,-0.0311824,0.346085,
2,0,0,0,0,13322.4,0.342336,0.342041,-0.176473,19,1.17831,10,-6.0361e-05,-3.75332,-0.463913,-0.127179,0.342118,
2,0,0,1,0,13323.2,0.338341,0.338044,-0.178362,19,1.17816,10,-6.02943e-05,-3.7487,-0.802452,-0.0735246,0.338123,
2,0,0,1,0,13324,0.334345,0.33404,-0.182177,19,1.178,10,-6.08545e-05,-3.73951,-0.711311,-0.0829454,0.33412,
2,0,0,1,0,13324.8,0.33035,0.330076,-0.182884,19,1.17784,10,-6.03657e-05,-3.73782,-0.546466,-0.107967,0.330157,
2,0,0,1,0,13325.6,0.326355,0.326058,-0.187386,19,1.17768,10,-6.10987e-05,-3.72726,-0.618146,-0.0954467,0.32614,
2,0,0,0,0,13326.4,0.32236,0.322033,-0.188702,19,1.17751,10,-6.07683e-05,-3.72422,-1.22529,-0.048152,0.322116,
2,0,0,1,0,13327.2,0.318365,0.318064,-0.190729,19,1.17735,10,-6.06641e-05,-3.71958,-0.466238,-0.126545,0.318148,
2,0,0,0,0,13328,0.31437,0.314065,-0.193777,19,1.17718,10,-6.08587e-05,-3.7127,-1.12921,-0.052249,0.31415,
2,0,0,1,0,13328.8,0.310374,0.310094,-0.196333,19,1.17701,10,-6.08817e-05,-3.70701,-0.506719,-0.116435,0.31018,
2,0,0,1,0,13329.6,0.306379,0.306066,-0.199582,19,1.17684,10,-6.10853e-05,-3.69988,-0.559775,-0.105399,0.306154,
2,0,0,1,0,13330.4,0.302385,0.302072,-0.2019,19,1.17667,10,-6.09884e-05,-3.69486,-7.45473,-0.00791444,0.302161,
2,0,0,1,0,13331.2,0.298389,0.298125,-0.203658,19,1.17649,10,-6.07154e-05,-3.6911,-0.411136,-0.143505,0.298215,
2,0,0,0,0,13332,0.294394,0.294087,-0.206502,19,1.17632,10,-6.07296e-05,-3.68508,-1.0968,-0.0537931,0.294178,
2,0,0,1,0,13332.8,0.290398,0.290084,-0.209769,19,1.17614,10,-6.08504e-05,-3.67826,-0.728902,-0.0809436,0.290176,
2,0,0,1,0,13333.6,0.286403,0.286099,-0.210678,19,1.17595,10,-6.02747e-05,-3.67638,-0.831542,-0.0709525,0.286191,
2,0,0,1,0,13334.4,0.282408,0.28209,-0.214942,19,1.17577,10,-6.06329e-05,-3.66768,-0.964187,-0.0611914,0.282184,
2,0,0,1,0,13335.2,0.278414,0.278116,-0.217069,19,1.17558,10,-6.03704e-05,-3.6634,-0.534156,-0.110455,0.278211,
2,0,0,0,0,13336,0.274418,0.274117,-0.220211,19,1.1754,10,-6.03636e-05,-3.65716,-0.592975,-0.0994984,0.274214,
2,0,0,1,0,13336.8,0.270423,0.270109,-0.223701,19,1.1752,10,-6.04238e-05,-3.65033,-0.894007,-0.065995,0.270208,
2,0,0,1,0,13337.6,0.266427,0.266102,-0.225297,19,1.17501,10,-5.99518e-05,-3.64724,-0.825819,-0.0714442,0.266201,
2,0,0,1,0,13338.4,0.262432,0.262145,-0.228534,19,1.17482,10,-5.99091e-05,-3.64105,-0.649992,-0.0907704,0.262246,
2,0,0,1,0,13339.2,0.258437,0.258129,-0.231797,19,1.17462,10,-5.98334e-05,-3.63489,-1.24576,-0.0473606,0.258231,
2,0,0,0,0,13340,0.254442,0.254135,-0.232909,19,1.17442,10,-5.91904e-05,-3.63281,-0.798413,-0.0738966,0.254238,
2,0,0,1,0,13340.8,0.250447,0.250169,-0.236097,19,1.17422,10,-5.90641e-05,-3.62691,-1.54852,-0.0381008,0.250273,
2,0,0,0,0,13341.6,0.246452,0.246173,-0.238955,19,1.17402,10,-5.8824e-05,-3.62168,-0.587482,-0.100429,0.246278,
2,0,0,1,0,13342.4,0.242456,0.242137,-0.241893,19,1.17381,10,-5.85713e-05,-3.61638,-0.725117,-0.0813662,0.242244,
2,0,0,1,0,13343.2,0.238461,0.2382,-0.244325,19,1.1736,10,-5.81982e-05,-3.61203,-1.60964,-0.0366541,0.238308,
2,0,0,1,0,13344,0.234467,0.234201,-0.245641,19,1.1734,10,-5.75294e-05,-3.6097,-0.514646,-0.114642,0.234309,
2,0,0,1,0,13344.8,0.230471,0.230206,-0.248507,19,1.17318,10,-5.72077e-05,-3.60466,-1.36475,-0.0432314,0.230315,
2,0,0,0,0,13345.6,0.226476,0.226186,-0.251822,19,1.17297,10,-5.69587e-05,-3.59891,-0.742306,-0.079482,0.226297,
2,0,0,1,0,13346.4,0.222481,0.222139,-0.254708,19,1.17275,10,-5.65808e-05,-3.59396,-0.746708,-0.0790134,0.222252,
2,0,0,1,0,13347.2,0.218485,0.218155,-0.257214,19,1.17254,10,-5.61126e-05,-3.58971,-1.26533,-0.0466283,0.218269,
2,0,0,1,0,13348,0.21449,0.214177,-0.259641,19,1.17232,10,-5.56091e-05,-3.58563,-0.73856,-0.0798852,0.214291,
2,0,0,1,0,13348.8,0.210496,0.210209,-0.263241,19,1.17209,10,-5.53357e-05,-3.57965,-0.624689,-0.0944471,0.210325,
2,0,0,0,0,13349.6,0.2065,0.206185,-0.267919,19,1.17187,10,-5.52408e-05,-3.572,-0.825793,-0.0714465,0.206302,
2,0,0,1,0,13350.4,0.202505,0.202193,-0.27025,19,1.17164,10,-5.46426e-05,-3.56823,-0.534346,-0.110415,0.202312,
2,0,0,1,0,13351.2,0.198509,0.198219,-0.273794,19,1.17141,10,-5.42714e-05,-3.56258,-0.619008,-0.0953137,0.19834,
2,0,0,1,0,13352,0.194514,0.194184,-0.278497,19,1.17117,10,-5.40795e-05,-3.55518,-0.791004,-0.0745888,0.194306,
2,0,0,1,0,13352.8,0.190519,0.190257,-0.282952,19,1.17093,10,-5.38336e-05,-3.54829,-0.45634,-0.12929,0.190382,
2,0,0,0,0,13353.6,0.186524,0.186218,-0.288862,19,1.17069,10,-5.37914e-05,-3.53931,-0.676088,-0.0872667,0.186345,
2,0,0,1,0,13354.4,0.182529,0.182241,-0.295159,19,1.17044,10,-5.379e-05,-3.52994,-0.349568,-0.16878,0.18237,
2,0,0,0,0,13355.2,0.178534,0.178226,-0.301266,19,1.17019,10,-5.36935e-05,-3.52105,-0.395397,-0.149217,0.178358,
2,0,0,1,0,13356,0.174538,0.174236,-0.310236,19,1.16993,10,-5.40544e-05,-3.50831,-0.286657,-0.205821,0.174373,
2,0,0,1,0,13356.8,0.170543,0.170245,-0.320406,19,1.16967,10,-5.45476e-05,-3.4943,-0.229387,-0.257208,0.170386,
2,0,0,1,0,13357.6,0.166549,0.166268,-0.332778,19,1.16939,10,-5.53303e-05,-3.47785,-0.288752,-0.204327,0.166415,
2,0,0,1,0,13358.4,0.162553,0.162265,-0.348141,19,1.16911,10,-5.64911e-05,-3.45824,-0.169907,-0.347248,0.162418,
2,0,0,0,0,13359.2,0.158558,0.158239,-0.366448,19,1.16881,10,-5.79865e-05,-3.43599,-0.146748,-0.402051,0.158401,
2,0,0,1,0,13360,0.154563,0.154261,-0.392927,19,1.16849,10,-6.06131e-05,-3.40569,-0.140545,-0.419794,0.154434,
2,0,0,1,0,13360.8,0.150567,0.150222,-0.42517,19,1.16815,10,-6.38701e-05,-3.37144,-0.0989733,-0.59612,0.15041,
2,0,0,1,0,13361.6,0.146572,0.146237,-0.469386,19,1.16778,10,-6.86415e-05,-3.32847,-0.0855517,-0.689641,0.146443,
2,0,0,1,0,13362.4,0.142578,0.142259,-0.525795,19,1.16737,10,-7.47988e-05,-3.27918,-0.0810604,-0.727852,0.14249,
2,0,0,0,0,13363.2,0.138582,0.138286,-0.587831,19,1.16691,10,-8.12887e-05,-3.23075,-0.0812234,-0.726392,0.138544,
2,0,0,1,0,13364,0.134587,0.13426,-0.651177,19,1.1664,10,-8.74273e-05,-3.1863,-0.102835,-0.573735,0.134547,
2,0,0,1,0,13364.8,0.130591,0.130267,-0.704734,19,1.16585,10,-9.18039e-05,-3.15197,-0.136877,-0.431043,0.130578,
2,0,0,1,0,13365.6,0.126596,0.126252,-0.74025,19,1.16525,10,-9.34581e-05,-3.13062,-0.229978,-0.256547,0.126578,
2,0,0,1,0,13366.4,0.122602,0.122294,-0.761829,19,1.16463,10,-9.3167e-05,-3.11814,-0.693961,-0.0850192,0.122629,
2,0,0,1,0,13367.2,0.118607,0.118288,-0.767178,19,1.16401,10,-9.0748e-05,-3.1151,-2.11414,-0.0279073,0.118626,
2,0,0,1,0,13368,0.114611,0.114283,-0.766148,19,1.16338,10,-8.75581e-05,-3.11569,0.842421,0.0700363,0.114621,
2,0,0,0,0,13368.8,0.110616,0.110255,-0.756182,19,1.16276,10,-8.33728e-05,-3.12137,0.697384,0.0846019,0.110588,
2,0,0,1,0,13369.6,0.10662,0.106334,-0.74425,19,1.16215,10,-7.91393e-05,-3.12828,0.585814,0.100715,0.106662,
2,0,0,1,0,13370.4,0.102625,0.102286,-0.730717,19,1.16154,10,-7.47421e-05,-3.13625,0.450529,0.130957,0.102608,
2,0,0,1,0,13371.2,0.0986305,0.0983224,-0.716032,19,1.16095,10,-7.0402e-05,-3.14507,0.509992,0.115688,0.0986375,
2,0,0,1,0,13372,0.0946351,0.0943478,-0.697476,19,1.16037,10,-6.58053e-05,-3.15647,0.380468,0.155072,0.0946547,
2,0,0,0,0,13372.8,0.0906399,0.0902938,-0.686462,19,1.1598,10,-6.19833e-05,-3.16338,0.391781,0.150594,0.0905959,
2,0,0,1,0,13373.6,0.0866448,0.0863311,-0.672459,19,1.15924,10,-5.80541e-05,-3.17233,0.57962,0.101791,0.086627,
2,0,0,1,0,13374.4,0.0826492,0.0823404,-0.661238,19,1.15869,10,-5.44466e-05,-3.17964,0.51153,0.11534,0.0826313,
2,0,0,1,0,13375.2,0.0786544,0.0783408,-0.65165,19,1.15815,10,-5.10507e-05,-3.18599,0.692127,0.0852444,0.0786275,
2,0,0,1,0,13376,0.0746596,0.0743138,-0.640664,19,1.15762,10,-4.76101e-05,-3.19337,0.690101,0.0854948,0.0745957,
2,0,0,0,0,13376.8,0.0706641,0.0703571,-0.631523,19,1.1571,10,-4.44322e-05,-3.19961,0.487384,0.121054,0.070635,
2,0,0,1,0,13377.6,0.0666689,0.0663424,-0.622202,19,1.15659,10,-4.12784e-05,-3.20607,0.860234,0.068586,0.0666162,
2,0,0,0,0,13378.4,0.0626737,0.0623436,-0.611489,19,1.15608,10,-3.81225e-05,-3.21361,0.572271,0.103098,0.0626127,
2,0,0,1,0,13379.2,0.0586783,0.0583731,-0.604401,19,1.15558,10,-3.52808e-05,-3.21867,0.456076,0.129364,0.0586391,
2,0,0,1,0,13380,0.0546835,0.0543834,-0.593666,19,1.15508,10,-3.22856e-05,-3.22646,0.682945,0.0863905,0.0546446,
2,0,0,1,0,13380.8,0.0506886,0.0503263,-0.583188,19,1.1546,10,-2.93497e-05,-3.23419,0.513206,0.114964,0.0505829,
2,0,0,1,0,13381.6,0.046693,0.0464047,-0.574311,19,1.15412,10,-2.66507e-05,-3.24085,0.511276,0.115398,0.0466574,
2,0,0,0,0,13382.4,0.0426979,0.0423656,-0.562134,19,1.15365,10,-2.38151e-05,-3.25016,0.534634,0.110356,0.0426129,
2,0,0,1,0,13383.2,0.0387022,0.0383663,-0.552021,19,1.15319,10,-2.1179e-05,-3.25804,0.414146,0.142462,0.0386092,
2,0,0,1,0,13384,0.0347074,0.0343681,-0.542156,19,1.15274,10,-1.86329e-05,-3.26588,0.467442,0.126219,0.0346067,
2,0,0,1,0,13384.8,0.0307126,0.0303969,-0.529064,19,1.1523,10,-1.60819e-05,-3.27649,0.567801,0.10391,0.0306297,
2,0,0,1,0,13385.6,0.0267172,0.0263831,-0.521697,19,1.15187,10,-1.3764e-05,-3.28258,0.376452,0.156726,0.0266127,
2,0,0,0,0,13386.4,0.022722,0.0223706,-0.5125,19,1.15144,10,-1.14649e-05,-3.29031,1.04455,0.0564838,0.0225961,
2,0,0,1,0,13387.1,0.0187268,0.0183792,-0.504677,19,1.15102,10,-9.27556e-06,-3.29699,0.650236,0.0907363,0.0186012,
2,0,0,1,0,13387.9,0.0147313,0.0144404,-0.501495,19,1.1506,10,-7.24179e-06,-3.29973,0.866702,0.0680741,0.0146611,
2,0,0,1,0,13388.7,0.0107365,0.0104062,-0.495938,19,1.15019,10,-5.16081e-06,-3.30457,1.42172,0.0414992,0.0106244,
2,0,0,1,0,13389.5,0.00674163,0.0064224,-0.492957,19,1.14978,10,-3.16597e-06,-3.30719,3.03247,0.0194561,0.00663931,
2,0,0,0,0,13390.3,0.00274612,0.00243067,-0.493464,19,1.14937,10,-1.19945e-06,-3.30674,-3.38351,-0.0174375,0.0026478,
2,0,0,1,0,13390.8,0.000274105,-0.000110591,-0.493991,19,1.14912,10,5.4631e-08,-3.30628, , ,0.000106765,