File: Figure_codes/Fig_3-5/workspace_calculate_alpha_eff/20221101_1-115_003_TrumpetPlot_ParaChange_from10_every3_16_CV_C01_80.csv
mode,ox/red,error,control changes,counter inc.,time/s,control/V,Ewe/V,<I>/mA,cycle number,(Q-Qo)/C,I Range,P/W,log(|I|),Tafel slope mV/dec,alpha_eff,E-IR/V,
2,0,0,0,0,53193.5,2.44065e-05,-0.000306236,-0.104482,81,0.0000000E+000,10,3.19963e-08,-3.98096, , ,-0.000260264,
2,1,0,0,0,53194.3,0.00379485,0.00347199,0.140412,81,8.40761e-05,10,4.87509e-07,-3.8526,0.0303644,1.94306,0.00341021,
2,1,0,1,0,53195.1,0.00779002,0.00744958,0.164306,81,0.000217284,10,1.22401e-06,-3.78435,0.0667429,0.883989,0.00737728,
2,1,0,0,0,53195.9,0.0117852,0.011459,0.18047,81,0.000366499,10,2.068e-06,-3.74359,0.118159,0.499327,0.0113796,
2,1,0,1,0,53196.7,0.0157806,0.0154059,0.195169,81,0.00052738,10,3.00676e-06,-3.70959,0.141055,0.418277,0.0153201,
2,1,0,1,0,53197.5,0.0197754,0.0194268,0.208312,81,0.000698723,10,4.04682e-06,-3.68129,0.134152,0.439801,0.0193351,
2,1,0,1,0,53198.3,0.0237704,0.0234115,0.221161,81,0.000880598,10,5.1777e-06,-3.65529,0.168709,0.349715,0.0233142,
2,1,0,1,0,53199.1,0.0277659,0.0274138,0.234506,81,0.00107262,10,6.42873e-06,-3.62985,0.15879,0.371559,0.0273107,
2,1,0,0,0,53199.9,0.0317611,0.0314232,0.246556,81,0.00127558,10,7.74758e-06,-3.60808,0.162747,0.362526,0.0313148,
2,1,0,1,0,53200.7,0.0357567,0.0354246,0.260647,81,0.0014898,10,9.23333e-06,-3.58395,0.206955,0.285086,0.03531,
2,1,0,1,0,53201.5,0.0397516,0.0394021,0.275251,81,0.00171491,10,1.08455e-05,-3.56027,0.154398,0.382129,0.039281,
2,1,0,1,0,53202.3,0.0437465,0.0434269,0.287778,81,0.00195132,10,1.24973e-05,-3.54094,0.192355,0.306724,0.0433003,
2,1,0,1,0,53203.1,0.0477413,0.0473841,0.302567,81,0.00219789,10,1.43369e-05,-3.51918,0.239273,0.24658,0.047251,
2,1,0,0,0,53203.9,0.0517369,0.0514416,0.31321,81,0.00245436,10,1.6112e-05,-3.50417,0.232036,0.254271,0.0513038,
2,1,0,1,0,53204.7,0.0557321,0.0554033,0.326519,81,0.00272121,10,1.80902e-05,-3.48609,0.273987,0.215338,0.0552596,
2,1,0,1,0,53205.5,0.0597277,0.0593749,0.338055,81,0.00299681,10,2.00719e-05,-3.47101,0.298842,0.197429,0.0592261,
2,1,0,1,0,53206.2,0.0637226,0.0634327,0.346965,81,0.00328103,10,2.2009e-05,-3.45971,0.337559,0.174784,0.06328,
2,1,0,1,0,53207,0.0677174,0.0674164,0.358452,81,0.00357354,10,2.41656e-05,-3.44557,0.383289,0.153931,0.0672587,
2,1,0,0,0,53207.8,0.0717128,0.0713433,0.365249,81,0.00387331,10,2.60581e-05,-3.43741,0.303692,0.194276,0.0711826,
2,1,0,1,0,53208.6,0.075708,0.0753877,0.372431,81,0.00418039,10,2.80767e-05,-3.42895,0.428188,0.13779,0.0752238,
2,1,0,0,0,53209.4,0.0797031,0.0793833,0.383052,81,0.00449381,10,3.0408e-05,-3.41674,0.46382,0.127205,0.0792148,
2,1,0,1,0,53210.2,0.0836986,0.0833241,0.392016,81,0.00481405,10,3.26644e-05,-3.4067,0.362438,0.162787,0.0831517,
2,1,0,1,0,53211,0.0876935,0.0873206,0.402159,81,0.0051418,10,3.51168e-05,-3.3956,0.34027,0.173392,0.0871436,
2,1,0,1,0,53211.8,0.0916883,0.0913317,0.415493,81,0.00547851,10,3.79477e-05,-3.38144,0.280987,0.209974,0.0911489,
2,1,0,1,0,53212.6,0.0956838,0.0953233,0.429187,81,0.00582718,10,4.09115e-05,-3.36735,0.216558,0.272444,0.0951345,
2,1,0,0,0,53213.4,0.099679,0.0993009,0.448753,81,0.0061897,10,4.45616e-05,-3.34799,0.227903,0.258882,0.0991035,
2,1,0,1,0,53214.2,0.103674,0.103328,0.469879,81,0.00656773,10,4.85519e-05,-3.32801,0.180648,0.326603,0.103122,
2,1,0,1,0,53215,0.10767,0.107299,0.490458,81,0.00696379,10,5.26256e-05,-3.3094,0.222877,0.26472,0.107083,
2,1,0,1,0,53215.8,0.111664,0.111293,0.511293,81,0.00737568,10,5.69033e-05,-3.29133,0.275804,0.21392,0.111068,
2,1,0,1,0,53216.6,0.115659,0.115296,0.526142,81,0.00780136,10,6.06619e-05,-3.2789,0.277923,0.212289,0.115064,
2,1,0,0,0,53217.4,0.119655,0.119328,0.538883,81,0.00823893,10,6.43037e-05,-3.26851,0.576721,0.102302,0.119091,
2,1,0,1,0,53218.2,0.12365,0.123271,0.548587,81,0.00868419,10,6.76251e-05,-3.26075,0.65521,0.0900475,0.12303,
2,1,0,1,0,53219,0.127646,0.12729,0.55466,81,0.00913606,10,7.06027e-05,-3.25597,1.34411,0.0438952,0.127046,
2,1,0,1,0,53219.8,0.131641,0.131289,0.555411,81,0.00959124,10,7.29195e-05,-3.25539,-0.837186,-0.0704742,0.131045,
2,1,0,1,0,53220.6,0.135635,0.135265,0.544656,81,0.0100421,10,7.36731e-05,-3.26388,-0.301674,-0.195576,0.135026,
2,1,0,0,0,53221.4,0.139631,0.139298,0.513988,81,0.010478,10,7.15977e-05,-3.28905,-0.121853,-0.484189,0.139072,
2,1,0,1,0,53222.2,0.143626,0.14329,0.469931,81,0.0108833,10,6.73363e-05,-3.32797,-0.0822559,-0.717274,0.143083,
2,1,0,0,0,53223,0.147621,0.147285,0.414312,81,0.0112468,10,6.10221e-05,-3.38267,-0.0707097,-0.834397,0.147103,
2,1,0,1,0,53223.8,0.151617,0.15128,0.364967,81,0.0115679,10,5.52123e-05,-3.43775,-0.0778541,-0.757828,0.15112,
2,1,0,1,0,53224.6,0.155612,0.155265,0.329656,81,0.0118544,10,5.11841e-05,-3.48194,-0.109311,-0.539745,0.15512,
2,1,0,1,0,53225.4,0.159606,0.15923,0.305362,81,0.0121179,10,4.86227e-05,-3.51518,-0.161667,-0.364947,0.159095,
2,1,0,1,0,53226.2,0.163602,0.163203,0.291091,81,0.0123665,10,4.7507e-05,-3.53597,-0.187778,-0.314201,0.163075,
2,1,0,0,0,53227,0.167597,0.167271,0.280388,81,0.0126047,10,4.69007e-05,-3.55224,-0.325462,-0.181281,0.167147,
2,1,0,1,0,53227.8,0.171592,0.171271,0.271812,81,0.012836,10,4.65535e-05,-3.56573,-0.34096,-0.173041,0.171151,
2,1,0,1,0,53228.6,0.175588,0.1752,0.266926,81,0.013062,10,4.67653e-05,-3.57361,-0.532224,-0.110856,0.175082,
2,1,0,1,0,53229.4,0.179582,0.179228,0.26271,81,0.0132839,10,4.7085e-05,-3.58052,-1.50053,-0.0393194,0.179112,
2,1,0,1,0,53230.2,0.183577,0.183208,0.259748,81,0.0135034,10,4.75881e-05,-3.58545,-0.576066,-0.102419,0.183094,
2,1,0,0,0,53231,0.187573,0.187262,0.256167,81,0.0137202,10,4.79702e-05,-3.59148,-0.855239,-0.0689866,0.187149,
2,1,0,1,0,53231.8,0.191568,0.191194,0.254646,81,0.0139348,10,4.86867e-05,-3.59406,-1.73744,-0.033958,0.191082,
2,1,0,0,0,53232.6,0.195563,0.19524,0.25326,81,0.0141483,10,4.94466e-05,-3.59643,-0.690434,-0.0854535,0.195129,
2,1,0,1,0,53233.4,0.199559,0.199201,0.251642,81,0.0143601,10,5.01273e-05,-3.59922,-4.03111,-0.0146362,0.19909,
2,1,0,1,0,53234.2,0.203553,0.203179,0.249092,81,0.0145707,10,5.06103e-05,-3.60364,-4.66501,-0.0126473,0.20307,
2,1,0,1,0,53235,0.207548,0.207215,0.248781,81,0.0147804,10,5.15512e-05,-3.60418,-1.60444,-0.036773,0.207105,
2,1,0,1,0,53235.8,0.211544,0.211199,0.248009,81,0.0149887,10,5.23793e-05,-3.60553,-3.65187,-0.0161561,0.21109,
2,1,0,0,0,53236.6,0.215539,0.215166,0.246572,81,0.0151963,10,5.3054e-05,-3.60806,-1.29231,-0.0456547,0.215058,
2,1,0,1,0,53237.4,0.219535,0.219182,0.245713,81,0.015403,10,5.38559e-05,-3.60957,-2.38817,-0.0247051,0.219074,
2,1,0,1,0,53238.2,0.223529,0.223213,0.245228,81,0.0156089,10,5.47379e-05,-3.61043,-2.04721,-0.0288198,0.223105,
2,1,0,1,0,53239,0.227524,0.227168,0.243666,81,0.0158139,10,5.5353e-05,-3.61321,-1.14748,-0.051417,0.22706,
2,1,0,1,0,53239.8,0.23152,0.231186,0.242728,81,0.0160181,10,5.61152e-05,-3.61488,3.35145,0.0176043,0.231079,
2,1,0,0,0,53240.6,0.235515,0.235155,0.240452,81,0.0162218,10,5.65434e-05,-3.61897,-2.19451,-0.0268853,0.235049,
2,1,0,1,0,53241.4,0.23951,0.239199,0.240893,81,0.0164244,10,5.76215e-05,-3.61818,-2.50608,-0.0235428,0.239093,
2,1,0,1,0,53242.2,0.243506,0.243136,0.240466,81,0.0166265,10,5.8466e-05,-3.61895,-7.76726,-0.00759599,0.24303,
2,1,0,1,0,53243,0.2475,0.247169,0.239695,81,0.0168281,10,5.92454e-05,-3.62034,-6.42785,-0.00917881,0.247064,
2,1,0,1,0,53243.8,0.251495,0.25115,0.239343,81,0.017029,10,6.01108e-05,-3.62098,-1.43056,-0.0412424,0.251044,
2,1,0,0,0,53244.6,0.255491,0.255132,0.237925,81,0.0172293,10,6.07023e-05,-3.62356,-2.17747,-0.0270957,0.255027,
2,1,0,1,0,53245.4,0.259486,0.259138,0.238128,81,0.0174291,10,6.17081e-05,-3.62319,-1.48752,-0.0396634,0.259033,
2,1,0,0,0,53246.2,0.263481,0.263137,0.236905,81,0.0176282,10,6.23384e-05,-3.62543,-28.8029,-0.00204841,0.263033,
2,1,0,1,0,53247,0.267477,0.267125,0.235629,81,0.0178268,10,6.29426e-05,-3.62777,-7.08697,-0.00832514,0.267022,
2,1,0,1,0,53247.8,0.271471,0.271096,0.235247,81,0.0180249,10,6.37746e-05,-3.62848,-1.86069,-0.0317087,0.270993,
2,1,0,1,0,53248.6,0.275466,0.275068,0.234447,81,0.018222,10,6.44888e-05,-3.62996,-1.53738,-0.0383769,0.274965,
2,1,0,1,0,53249.4,0.279462,0.279126,0.233906,81,0.0184185,10,6.52891e-05,-3.63096,-1.66726,-0.0353874,0.279023,
2,1,0,0,0,53250.2,0.283457,0.283125,0.232378,81,0.0186139,10,6.57918e-05,-3.63381,7.61311,0.00774979,0.283022,
2,1,0,1,0,53251,0.287452,0.287093,0.231358,81,0.0188087,10,6.64212e-05,-3.63572,-1.53931,-0.0383287,0.286991,
2,1,0,1,0,53251.8,0.291448,0.291088,0.231627,81,0.0190028,10,6.7424e-05,-3.63521,-1.01629,-0.0580545,0.290986,
2,1,0,1,0,53252.6,0.295442,0.295092,0.230487,81,0.019196,10,6.80148e-05,-3.63735,1.69115,0.0348875,0.294991,
2,1,0,1,0,53253.4,0.299437,0.299095,0.228471,81,0.0193887,10,6.83345e-05,-3.64117,-1.90735,-0.0309329,0.298994,
2,1,0,0,0,53254.2,0.303433,0.303075,0.228416,81,0.0195805,10,6.92271e-05,-3.64127,-2.49034,-0.0236915,0.302975,
2,1,0,1,0,53255,0.307428,0.307077,0.227713,81,0.0197716,10,6.99255e-05,-3.64261,-2.2645,-0.0260543,0.306977,
2,1,0,1,0,53255.8,0.311424,0.311081,0.227831,81,0.0199621,10,7.08741e-05,-3.64239,-1.92514,-0.030647,0.310981,
2,1,0,1,0,53256.6,0.315418,0.315088,0.22667,81,0.0201517,10,7.1421e-05,-3.64461,-1.94346,-0.0303583,0.314989,
2,1,0,1,0,53257.4,0.319413,0.319075,0.226132,81,0.0203408,10,7.21531e-05,-3.64564,3.5306,0.0167111,0.318976,
2,1,0,0,0,53258.2,0.323409,0.323072,0.224776,81,0.0205299,10,7.26189e-05,-3.64825,-2.07124,-0.0284853,0.322973,
2,1,0,1,0,53259,0.327404,0.327057,0.223893,81,0.0207183,10,7.32257e-05,-3.64996,-7.60318,-0.00775991,0.326959,
2,1,0,0,0,53259.8,0.331399,0.331069,0.222407,81,0.020906,10,7.3632e-05,-3.65285,-1.87924,-0.0313956,0.330971,
2,1,0,1,0,53260.6,0.335395,0.33506,0.223456,81,0.0210931,10,7.48711e-05,-3.65081,-3.75861,-0.0156973,0.334962,
2,1,0,1,0,53261.4,0.339389,0.339093,0.222626,81,0.0212797,10,7.54909e-05,-3.65242,-3.2464,-0.018174,0.338995,
2,1,0,1,0,53262.2,0.343384,0.34303,0.22211,81,0.021466,10,7.61902e-05,-3.65343,-14.2563,-0.00413852,0.342932,
2,1,0,1,0,53263,0.34738,0.347036,0.221288,81,0.0216517,10,7.6795e-05,-3.65504,-18.5679,-0.00317754,0.346939,
2,1,0,0,0,53263.8,0.351375,0.35105,0.22048,81,0.021837,10,7.73994e-05,-3.65663,-1.56552,-0.0376872,0.350953,
2,1,0,1,0,53264.6,0.35537,0.355051,0.220112,81,0.0220218,10,7.81509e-05,-3.65736,-2.63204,-0.0224161,0.354954,
2,1,0,1,0,53265.4,0.359366,0.359016,0.220673,81,0.0222064,10,7.92252e-05,-3.65625,8.50269,0.00693898,0.358919,
2,1,0,1,0,53266.2,0.36336,0.363047,0.219384,81,0.0223907,10,7.96468e-05,-3.6588,-1.82473,-0.0323335,0.362951,
2,1,0,1,0,53267,0.367355,0.366979,0.21913,81,0.0225744,10,8.04159e-05,-3.6593,2.04365,0.02887,0.366882,
2,1,0,0,0,53267.8,0.371351,0.370995,0.218436,81,0.0227578,10,8.10388e-05,-3.66068,-2.09806,-0.0281213,0.370899,
2,1,0,1,0,53268.6,0.375346,0.374984,0.218831,81,0.0229411,10,8.20582e-05,-3.65989,46.4991,0.00126884,0.374888,
2,1,0,1,0,53269.4,0.379342,0.378985,0.218689,81,0.0231239,10,8.28797e-05,-3.66017,-1.86189,-0.0316882,0.378888,
2,1,0,1,0,53270.2,0.383336,0.383025,0.217791,81,0.0233062,10,8.34195e-05,-3.66196,-4.43849,-0.0132928,0.38293,
2,1,0,1,0,53271,0.387331,0.387014,0.218525,81,0.0234884,10,8.45723e-05,-3.6605,-2.72184,-0.0216765,0.386918,
2,1,0,0,0,53271.8,0.391327,0.390992,0.217619,81,0.0236702,10,8.50874e-05,-3.6623,2.35526,0.0250503,0.390896,
2,1,0,1,0,53272.6,0.395322,0.394981,0.217066,81,0.023852,10,8.57369e-05,-3.66341,-1.6827,-0.0350626,0.394886,
2,1,0,0,0,53273.4,0.399317,0.398965,0.217434,81,0.0240335,10,8.67485e-05,-3.66267,3.42332,0.0172347,0.39887,
2,1,0,1,0,53274.2,0.403313,0.402967,0.217548,81,0.0242146,10,8.76648e-05,-3.66244,-2.10567,-0.0280195,0.402871,
2,1,0,1,0,53275,0.407307,0.406986,0.216101,81,0.0243954,10,8.795e-05,-3.66534,-8.85854,-0.00666024,0.40689,
2,1,0,1,0,53275.8,0.411302,0.410967,0.2175,81,0.0245761,10,8.93854e-05,-3.66254,2.50149,0.0235859,0.410871,
2,1,0,1,0,53276.6,0.415298,0.414989,0.216597,81,0.0247568,10,8.98856e-05,-3.66435,-3.31433,-0.0178015,0.414894,
2,1,0,0,0,53277.4,0.419293,0.41897,0.215443,81,0.0249371,10,9.02642e-05,-3.66667,-1.48548,-0.0397178,0.418875,
2,1,0,1,0,53278.2,0.423288,0.422993,0.215662,81,0.025117,10,9.12234e-05,-3.66623,1.54282,0.0382417,0.422898,
2,1,0,1,0,53279,0.427283,0.426974,0.215117,81,0.025297,10,9.18495e-05,-3.66732,-6.19558,-0.00952291,0.42688,
2,1,0,1,0,53279.8,0.431278,0.430984,0.216501,81,0.0254766,10,9.33087e-05,-3.66454,-20.746,-0.00284393,0.430889,
2,1,0,1,0,53280.6,0.435273,0.434929,0.216204,81,0.0256563,10,9.40334e-05,-3.66514,356.219,0.000165629,0.434834,
2,1,0,0,0,53281.4,0.439269,0.43893,0.216131,81,0.0258359,10,9.48663e-05,-3.66528,-3.74931,-0.0157362,0.438835,
2,1,0,1,0,53282.2,0.443264,0.44293,0.215589,81,0.0260154,10,9.54908e-05,-3.66637,3.41239,0.0172899,0.442835,
2,1,0,0,0,53283,0.447259,0.446864,0.215785,81,0.0261949,10,9.64267e-05,-3.66598,5.08769,0.0115966,0.446769,
2,1,0,1,0,53283.8,0.451254,0.450938,0.215388,81,0.0263744,10,9.71268e-05,-3.66678,-12.8044,-0.00460781,0.450843,
2,1,0,1,0,53284.6,0.455249,0.454932,0.216752,81,0.026554,10,9.86073e-05,-3.66404,-6.71827,-0.00878203,0.454837,
2,1,0,1,0,53285.4,0.459244,0.458923,0.215941,81,0.0267336,10,9.91004e-05,-3.66566,3.99499,0.0147685,0.458828,
2,1,0,1,0,53286.2,0.46324,0.462924,0.216731,81,0.0269134,10,0.00010033,-3.66408,2.89512,0.0203792,0.462828,
2,1,0,0,0,53287,0.467235,0.466934,0.216929,81,0.0270936,10,0.000101291,-3.66368,-6.4914,-0.00908895,0.466839,
2,1,0,1,0,53287.8,0.471231,0.470892,0.217458,81,0.027274,10,0.000102399,-3.66262,2.32633,0.0253619,0.470796,
2,1,0,1,0,53288.6,0.475225,0.474916,0.217864,81,0.0274544,10,0.000103467,-3.66181,2.31009,0.0255402,0.47482,
2,1,0,1,0,53289.3,0.47922,0.478877,0.217969,81,0.0276351,10,0.00010438,-3.66161,-34.333,-0.00171846,0.478782,
2,1,0,1,0,53290.1,0.483216,0.48287,0.218834,81,0.0278164,10,0.000105668,-3.65989,3.25429,0.0181299,0.482774,
2,1,0,0,0,53290.9,0.487211,0.486823,0.219563,81,0.0279979,10,0.000106888,-3.65844,1.77328,0.0332716,0.486727,
2,1,0,1,0,53291.7,0.491206,0.490845,0.219786,81,0.02818,10,0.000107881,-3.658,-25.2226,-0.00233917,0.490749,
2,1,0,1,0,53292.5,0.495201,0.494875,0.220773,81,0.0283624,10,0.000109255,-3.65605,5.3226,0.0110848,0.494778,
2,1,0,1,0,53293.3,0.499196,0.498839,0.220964,81,0.0285451,10,0.000110226,-3.65568,1.63923,0.0359926,0.498742,
2,1,0,1,0,53294.1,0.503191,0.502871,0.221416,81,0.0287288,10,0.000111344,-3.65479,2.26786,0.0260158,0.502774,
2,1,0,0,0,53294.9,0.507187,0.506841,0.222925,81,0.0289128,10,0.000112988,-3.65184,7.68523,0.00767706,0.506742,
2,1,0,1,0,53295.7,0.511182,0.510822,0.223394,81,0.0290976,10,0.000114114,-3.65093,1.46363,0.0403107,0.510724,
2,1,0,0,0,53296.5,0.515177,0.514829,0.224673,81,0.0292833,10,0.000115668,-3.64845,-17.0101,-0.00346852,0.51473,
2,1,0,1,0,53297.3,0.519173,0.518856,0.22557,81,0.0294694,10,0.000117039,-3.64672,0.93165,0.0633285,0.518757,
2,1,0,1,0,53298.1,0.523167,0.522823,0.226431,81,0.0296565,10,0.000118384,-3.64506,3.99935,0.0147524,0.522724,
2,1,0,1,0,53298.9,0.527162,0.526824,0.228057,81,0.0298446,10,0.000120146,-3.64196,0.984821,0.0599094,0.526723,
2,1,0,1,0,53299.7,0.531158,0.530808,0.228871,81,0.0300336,10,0.000121486,-3.64041,2.34773,0.0251306,0.530707,
2,1,0,0,0,53300.5,0.535153,0.534806,0.231319,81,0.0302239,10,0.000123711,-3.63579,0.907835,0.0649898,0.534704,
2,1,0,1,0,53301.3,0.539148,0.538794,0.232595,81,0.0304153,10,0.00012532,-3.6334,2.30056,0.025646,0.538691,
2,1,0,1,0,53302.1,0.543143,0.542822,0.233543,81,0.030608,10,0.000126772,-3.63163,0.952942,0.0619135,0.54272,
2,1,0,1,0,53302.9,0.547138,0.546798,0.236031,81,0.0308021,10,0.000129061,-3.62703,1.47716,0.0399414,0.546694,
2,1,0,1,0,53303.7,0.551133,0.55079,0.238397,81,0.0309977,10,0.000131307,-3.6227,0.650345,0.0907211,0.550685,
2,1,0,0,0,53304.5,0.555129,0.55481,0.239699,81,0.0311954,10,0.000132988,-3.62033,1.3632,0.0432805,0.554705,
2,1,0,1,0,53305.3,0.559124,0.558804,0.242583,81,0.0313946,10,0.000135557,-3.61514,1.06617,0.0553381,0.558697,
2,1,0,1,0,53306.1,0.56312,0.562769,0.245534,81,0.0315956,10,0.000138179,-3.60989,0.584197,0.100993,0.562661,
2,1,0,1,0,53306.9,0.567114,0.566786,0.24808,81,0.0317988,10,0.000140608,-3.60541,1.25151,0.0471431,0.566677,
2,1,0,1,0,53307.7,0.571109,0.570761,0.25151,81,0.0320044,10,0.000143552,-3.59945,0.567876,0.103896,0.57065,
2,1,0,0,0,53308.5,0.575105,0.574744,0.254169,81,0.0322125,10,0.000146082,-3.59488,0.702499,0.0839859,0.574632,
2,1,0,1,0,53309.3,0.5791,0.578771,0.258807,81,0.0324236,10,0.00014979,-3.58702,0.749235,0.078747,0.578657,
2,1,0,0,0,53310.1,0.583095,0.582745,0.262433,81,0.0326377,10,0.000152932,-3.58098,0.52826,0.111687,0.58263,
2,1,0,1,0,53310.9,0.58709,0.586748,0.266758,81,0.0328553,10,0.00015652,-3.57388,0.474839,0.124253,0.58663,
2,1,0,1,0,53311.7,0.591085,0.590724,0.272455,81,0.0330767,10,0.000160946,-3.5647,0.483272,0.122085,0.590604,
2,1,0,1,0,53312.5,0.59508,0.594699,0.276845,81,0.0333023,10,0.000164639,-3.55776,0.49742,0.118612,0.594577,
2,1,0,1,0,53313.3,0.599076,0.598773,0.283927,81,0.0335326,10,0.000170008,-3.54679,0.363835,0.162161,0.598648,
2,1,0,0,0,53314.1,0.603071,0.602718,0.290979,81,0.0337681,10,0.000175379,-3.53614,0.338229,0.174438,0.60259,
2,1,0,1,0,53314.9,0.607066,0.606688,0.298766,81,0.0340097,10,0.000181258,-3.52467,0.324519,0.181808,0.606557,
2,1,0,1,0,53315.7,0.611061,0.610741,0.307984,81,0.0342582,10,0.000188098,-3.51147,0.331884,0.177773,0.610605,
2,1,0,1,0,53316.5,0.615056,0.614718,0.318115,81,0.0345141,10,0.000195551,-3.49742,0.245358,0.240465,0.614578,
2,1,0,1,0,53317.3,0.619051,0.618752,0.329458,81,0.0347789,10,0.000203853,-3.4822,0.257639,0.229002,0.618607,
2,1,0,0,0,53318.1,0.623047,0.622701,0.343227,81,0.0350532,10,0.000213727,-3.46442,0.211685,0.278716,0.62255,
2,1,0,1,0,53318.9,0.627042,0.626742,0.358665,81,0.035339,10,0.00022479,-3.44531,0.191147,0.308663,0.626584,
2,1,0,1,0,53319.7,0.631037,0.630708,0.376644,81,0.0356385,10,0.000237553,-3.42407,0.191736,0.307714,0.630542,
2,1,0,1,0,53320.5,0.635032,0.634697,0.397029,81,0.0359533,10,0.000251993,-3.40118,0.161119,0.366188,0.634523,
2,1,0,1,0,53321.3,0.639027,0.638703,0.421043,81,0.0362861,10,0.000268921,-3.37567,0.145534,0.405405,0.638518,
2,1,0,1,0,53322.1,0.643022,0.642714,0.449684,81,0.03664,10,0.000289018,-3.34709,0.141274,0.417628,0.642516,
2,1,0,1,0,53322.9,0.647018,0.646703,0.481902,81,0.0370176,10,0.000311648,-3.31704,0.123757,0.476742,0.646491,
2,1,0,0,0,53323.7,0.651013,0.65071,0.520272,81,0.0374235,10,0.000338546,-3.28377,0.114384,0.515805,0.650481,
2,1,0,1,0,53324.5,0.655008,0.654707,0.564111,81,0.0378619,10,0.000369328,-3.24864,0.112575,0.524097,0.654459,
2,1,0,1,0,53325.3,0.659003,0.658662,0.614551,81,0.0383377,10,0.000404782,-3.21144,0.102708,0.574443,0.658392,
2,1,0,1,0,53326.1,0.662998,0.662685,0.675031,81,0.0388582,10,0.000447333,-3.17068,0.0955764,0.617307,0.662388,
2,1,0,1,0,53326.9,0.666994,0.66668,0.742721,81,0.0394295,10,0.000495157,-3.12917,0.0909449,0.648744,0.666353,
2,1,0,0,0,53327.7,0.670989,0.670703,0.821297,81,0.0400598,10,0.000550847,-3.0855,0.0905783,0.65137,0.670342,
2,1,0,1,0,53328.5,0.674984,0.674637,0.911963,81,0.0407573,10,0.000615244,-3.04002,0.0873907,0.675129,0.674236,
2,1,0,1,0,53329.3,0.67898,0.678639,1.01351,81,0.0415315,10,0.000687808,-2.99417,0.0836696,0.705154,0.678194,
2,1,0,1,0,53330.1,0.682974,0.68261,1.12737,81,0.042392,10,0.000769555,-2.94793,0.0846972,0.696599,0.682114,
2,1,0,1,0,53330.9,0.686969,0.686618,1.25747,81,0.0433497,10,0.000863405,-2.9005,0.0844536,0.698608,0.686065,
2,1,0,0,0,53331.7,0.690965,0.690693,1.40104,81,0.0444169,10,0.000967686,-2.85355,0.0834305,0.707176,0.690076,
2,1,0,1,0,53332.5,0.69496,0.694628,1.56033,81,0.0456047,10,0.00108385,-2.80678,0.0841439,0.70118,0.693941,
2,1,0,0,0,53333.3,0.698955,0.698635,1.73492,81,0.0469255,10,0.00121208,-2.76072,0.0844121,0.698952,0.697872,
2,1,0,1,0,53334.1,0.70295,0.702612,1.9264,81,0.0483936,10,0.00135351,-2.71525,0.0869698,0.678396,0.701765,
2,1,0,1,0,53334.9,0.706945,0.706642,2.13448,81,0.0500206,10,0.00150831,-2.67071,0.088913,0.66357,0.705703,
2,1,0,1,0,53335.7,0.71094,0.710586,2.35801,81,0.0518202,10,0.00167557,-2.62745,0.0902884,0.653462,0.709548,
2,1,0,1,0,53336.5,0.714936,0.714627,2.5988,81,0.0538062,10,0.00185717,-2.58523,0.0941162,0.626884,0.713484,
2,1,0,0,0,53337.3,0.718931,0.718611,2.85754,81,0.0559908,10,0.00205346,-2.54401,0.0952344,0.619524,0.717354,
2,1,0,1,0,53338.1,0.722927,0.722604,3.1314,81,0.0583884,10,0.00226276,-2.50426,0.0994994,0.592968,0.721226,
2,1,0,1,0,53338.9,0.726921,0.726645,3.42479,81,0.0610123,10,0.00248861,-2.46537,0.10183,0.579399,0.725138,
2,1,0,1,0,53339.7,0.730916,0.730623,3.73471,81,0.0638769,10,0.00272866,-2.42774,0.10197,0.578599,0.72898,
2,1,0,1,0,53340.5,0.734911,0.734593,4.06298,81,0.0669973,10,0.00298463,-2.39116,0.107546,0.548601,0.732805,
2,1,0,0,0,53341.3,0.738907,0.738572,4.41001,81,0.0703876,10,0.00325711,-2.35556,0.109598,0.53833,0.736632,
2,1,0,1,0,53342.1,0.742902,0.742524,4.77692,81,0.0740622,10,0.00354698,-2.32085,0.110245,0.535174,0.740423,
2,1,0,1,0,53342.9,0.746897,0.746617,5.16402,81,0.0780391,10,0.00385554,-2.28701,0.116151,0.50796,0.744345,
2,1,0,1,0,53343.7,0.750892,0.750603,5.57201,81,0.0823328,10,0.00418237,-2.25399,0.116119,0.5081,0.748151,
2,1,0,1,0,53344.5,0.754887,0.754591,6.00059,81,0.0869615,10,0.00452799,-2.22181,0.117554,0.501897,0.751951,
2,1,0,0,0,53345.3,0.758883,0.758519,6.45538,81,0.0919441,10,0.00489653,-2.19008,0.121235,0.486656,0.755678,
2,1,0,1,0,53346.1,0.762878,0.762535,6.93245,81,0.0972977,10,0.00528624,-2.15911,0.125062,0.471768,0.759485,
2,1,0,0,0,53346.9,0.766873,0.766537,7.43439,81,0.103043,10,0.00569874,-2.12875,0.124287,0.474708,0.763266,
2,1,0,1,0,53347.7,0.770868,0.770587,7.96715,81,0.109202,10,0.00613939,-2.0987,0.126287,0.467189,0.767082,
2,1,0,1,0,53348.5,0.774863,0.774583,8.52405,81,0.115795,10,0.00660258,-2.06935,0.128618,0.458722,0.770832,
2,1,0,1,0,53349.3,0.778858,0.778549,9.11516,81,0.122846,10,0.0070966,-2.04024,0.129242,0.456508,0.774539,
2,1,0,1,0,53350.1,0.782854,0.782529,9.74013,81,0.130383,10,0.00762194,-2.01144,0.129058,0.457157,0.778244,
2,1,0,0,0,53350.9,0.786849,0.786519,10.3863,81,0.138432,10,0.00816903,-1.98354,0.130224,0.453065,0.781949,
2,1,0,1,0,53351.7,0.790844,0.790523,11.0917,81,0.147017,10,0.00876825,-1.955,0.130519,0.45204,0.785642,
2,1,0,1,0,53352.5,0.794839,0.794531,11.8511,81,0.156188,10,0.00941603,-1.92624,0.127162,0.463975,0.789317,
2,1,0,1,0,53353.3,0.798834,0.798533,12.6514,81,0.165981,10,0.0101025,-1.89786,0.128321,0.459784,0.792966,
2,1,0,1,0,53354.1,0.802829,0.802544,13.4716,81,0.176435,10,0.0108116,-1.87058,0.138505,0.425978,0.796617,
2,1,0,0,0,53354.9,0.806825,0.806501,14.3672,81,0.187545,10,0.0115871,-1.84263,0.125174,0.471342,0.800179,
2,1,0,1,0,53355.7,0.81082,0.810522,15.3239,81,0.199411,10,0.0124203,-1.81463,0.134865,0.437475,0.803779,
2,1,0,1,0,53356.5,0.814815,0.814509,16.2894,81,0.212038,10,0.0132678,-1.7881,0.124482,0.473965,0.807341,
2,1,0,1,0,53357.3,0.81881,0.818442,17.3539,81,0.225487,10,0.0142031,-1.7606,0.132487,0.445326,0.810807,
2,1,0,1,0,53358.1,0.822805,0.822507,18.4642,81,0.2398,10,0.0151869,-1.73367,0.129916,0.454141,0.814383,
2,1,0,0,0,53358.9,0.826801,0.826482,19.6282,81,0.255026,10,0.0162224,-1.70712,0.133532,0.441842,0.817846,
2,1,0,1,0,53359.7,0.830796,0.830476,20.8118,81,0.27119,10,0.0172837,-1.68169,0.138864,0.424875,0.821318,
2,1,0,0,0,53360.5,0.834791,0.834497,22.0209,81,0.288312,10,0.0183764,-1.65716,0.143307,0.411705,0.824807,
2,1,0,1,0,53361.3,0.838786,0.83849,23.2672,81,0.306411,10,0.0195094,-1.63326,0.145962,0.404215,0.828253,
2,1,0,1,0,53362.1,0.842781,0.842493,24.5338,81,0.325515,10,0.0206696,-1.61024,0.153855,0.383478,0.831698,
2,1,0,1,0,53362.9,0.846776,0.846509,25.8312,81,0.345634,10,0.0218663,-1.58786,0.15665,0.376635,0.835143,
2,1,0,0,0,53363.6,0.849723,0.84939,26.7167,81,0.364103,10,0.0226929,-1.57322,0.0532739,1.10748,0.837635,
2,1,0,1,0,53364.4,0.845728,0.845414,24.8094,81,0.384629,10,0.0209742,-1.60538,0.113256,0.520943,0.834497,
2,1,0,0,0,53365.2,0.841732,0.841449,23.2824,81,0.40382,10,0.019591,-1.63297,0.124332,0.474537,0.831204,
2,1,0,1,0,53366,0.837737,0.83742,21.8437,81,0.421837,10,0.0182924,-1.66067,0.120741,0.48865,0.827808,
2,1,0,1,0,53366.8,0.833742,0.833464,20.4639,81,0.438726,10,0.017056,-1.68901,0.117835,0.500699,0.82446,
2,1,0,1,0,53367.6,0.829747,0.829397,19.1819,81,0.454548,10,0.0159094,-1.71711,0.122263,0.482567,0.820957,
2,1,0,1,0,53368.4,0.825752,0.825471,17.9521,81,0.469371,10,0.014819,-1.74588,0.121384,0.48606,0.817573,
2,1,0,0,0,53369.2,0.821757,0.821462,16.809,81,0.483248,10,0.013808,-1.77446,0.121766,0.484537,0.814066,
2,1,0,1,0,53370,0.817761,0.817448,15.7091,81,0.496227,10,0.0128414,-1.80385,0.118789,0.496679,0.810536,
2,1,0,1,0,53370.8,0.813766,0.813423,14.6777,81,0.508356,10,0.0119392,-1.83334,0.118077,0.499676,0.806965,
2,1,0,1,0,53371.6,0.809771,0.809476,13.6931,81,0.519678,10,0.0110843,-1.8635,0.120092,0.491289,0.803452,
2,1,0,1,0,53372.3,0.805776,0.805455,12.7726,81,0.530238,10,0.0102878,-1.89372,0.120077,0.49135,0.799835,
2,1,0,0,0,53373.1,0.801781,0.801476,11.9229,81,0.540096,10,0.00955588,-1.92362,0.120027,0.491555,0.796229,
2,1,0,1,0,53373.9,0.797786,0.797471,11.104,81,0.549284,10,0.0088551,-1.95452,0.116572,0.506124,0.792586,
2,1,0,1,0,53374.7,0.79379,0.793456,10.3371,81,0.557841,10,0.00820203,-1.9856,0.11901,0.495757,0.788908,
2,1,0,1,0,53375.5,0.789795,0.789477,9.62208,81,0.565804,10,0.00759641,-2.01673,0.114939,0.513314,0.785243,
2,1,0,1,0,53376.3,0.7858,0.785471,8.92244,81,0.573204,10,0.00700832,-2.04952,0.11351,0.51978,0.781545,
2,1,0,0,0,53377.1,0.781805,0.781469,8.27957,81,0.580068,10,0.00647023,-2.08199,0.115086,0.51266,0.777826,
2,1,0,1,0,53377.9,0.77781,0.777483,7.68415,81,0.586437,10,0.00597429,-2.1144,0.113424,0.520171,0.774102,
2,1,0,0,0,53378.7,0.773814,0.773514,7.12271,81,0.592343,10,0.00550951,-2.14735,0.113491,0.519866,0.77038,
2,1,0,1,0,53379.5,0.769819,0.769496,6.59875,81,0.597817,10,0.00507771,-2.18054,0.113058,0.521857,0.766592,
2,1,0,1,0,53380.3,0.765824,0.765532,6.10544,81,0.602884,10,0.00467391,-2.21428,0.113233,0.521047,0.762846,
2,1,0,1,0,53381.1,0.761829,0.76151,5.64705,81,0.607572,10,0.00430028,-2.24818,0.109823,0.53723,0.759026,
2,1,0,1,0,53381.9,0.757834,0.757486,5.2097,81,0.611901,10,0.00394627,-2.28319,0.107121,0.550778,0.755193,
2,1,0,0,0,53382.7,0.753839,0.753537,4.79636,81,0.615891,10,0.00361424,-2.31909,0.104851,0.562702,0.751426,
2,1,0,1,0,53383.5,0.749844,0.749492,4.40736,81,0.61956,10,0.00330328,-2.35582,0.103383,0.570692,0.747553,
2,1,0,1,0,53384.3,0.745848,0.745543,4.04329,81,0.622929,10,0.00301445,-2.39327,0.101619,0.580599,0.743764,
2,1,0,1,0,53385.1,0.741853,0.741499,3.69991,81,0.626015,10,0.00274348,-2.43181,0.0976927,0.603935,0.739871,
2,1,0,1,0,53385.9,0.737858,0.737561,3.37831,81,0.628835,10,0.00249171,-2.4713,0.0969661,0.60846,0.736075,
2,1,0,0,0,53386.7,0.733863,0.733534,3.07591,81,0.631406,10,0.00225628,-2.51203,0.0933938,0.631734,0.732181,
2,1,0,1,0,53387.5,0.729868,0.729527,2.79202,81,0.633743,10,0.00203685,-2.55408,0.0897695,0.657239,0.728299,
2,1,0,1,0,53388.3,0.725872,0.725553,2.52595,81,0.63586,10,0.00183271,-2.59758,0.0877195,0.672598,0.724442,
2,1,0,1,0,53389.1,0.721877,0.721534,2.2771,81,0.637772,10,0.001643,-2.64262,0.0849265,0.694719,0.720532,
2,1,0,1,0,53389.9,0.717882,0.717534,2.04366,81,0.639491,10,0.0014664,-2.68959,0.0822079,0.717693,0.716635,
2,1,0,0,0,53390.7,0.713887,0.713583,1.82658,81,0.641031,10,0.00130341,-2.73836,0.0767839,0.76839,0.712779,
2,1,0,1,0,53391.5,0.709892,0.709574,1.6242,81,0.642402,10,0.00115249,-2.78936,0.0753788,0.782713,0.70886,
2,1,0,0,0,53392.3,0.705897,0.705586,1.43864,81,0.643619,10,0.00101508,-2.84205,0.0727823,0.810637,0.704953,
2,1,0,1,0,53393.1,0.701901,0.701573,1.26638,81,0.644692,10,0.000888459,-2.89744,0.0690276,0.854731,0.701016,
2,1,0,1,0,53393.9,0.697906,0.69755,1.10577,81,0.645632,10,0.000771328,-2.95634,0.0666838,0.884772,0.697064,
2,1,0,1,0,53394.7,0.693911,0.693576,0.961517,81,0.646451,10,0.000666886,-3.01704,0.0618435,0.95402,0.693153,
2,1,0,1,0,53395.5,0.689916,0.689598,0.828088,81,0.647159,10,0.000571048,-3.08192,0.060013,0.983121,0.689234,
2,1,0,0,0,53396.3,0.685921,0.685585,0.708201,81,0.647767,10,0.000485532,-3.14984,0.0568697,1.03746,0.685273,
2,1,0,1,0,53397.1,0.681926,0.681602,0.599686,81,0.648282,10,0.000408747,-3.22208,0.0528383,1.11662,0.681338,
2,1,0,1,0,53397.9,0.67793,0.677564,0.50444,81,0.648717,10,0.00034179,-3.29719,0.0505694,1.16671,0.677342,
2,1,0,1,0,53398.7,0.673935,0.673574,0.418523,81,0.649079,10,0.000281906,-3.37828,0.0471768,1.25061,0.67339,
2,1,0,1,0,53399.5,0.66994,0.669626,0.342674,81,0.649376,10,0.000229463,-3.46512,0.0445709,1.32373,0.669475,
2,1,0,0,0,53400.3,0.665945,0.665624,0.275385,81,0.649616,10,0.000183303,-3.56006,0.0400015,1.47494,0.665503,
2,1,0,1,0,53401.1,0.66195,0.661561,0.217578,81,0.649806,10,0.000143941,-3.66238,0.0360867,1.63495,0.661466,
2,1,0,0,0,53401.9,0.657955,0.657628,0.166595,81,0.649953,10,0.000109558,-3.77834,0.032564,1.81182,0.657555,
2,1,0,1,0,53402.7,0.653959,0.653666,0.122609,81,0.650063,10,8.01452e-05,-3.91148,0.0279382,2.11181,0.653612,
2,1,0,1,0,53403.5,0.649964,0.649645,0.0856606,81,0.65014,10,5.5649e-05,-4.06722,0.0222253,2.65463,0.649607,
2,1,0,1,0,53404.3,0.64597,0.645622,0.0541455,81,0.650189,10,3.49575e-05,-4.26644,0.0165205,3.57131,0.645598,
2,1,0,1,0,53405.1,0.641974,0.641633,0.0267376,81,0.650214,10,1.71557e-05,-4.57288,0.00947545,6.22662,0.641621,
2,1,0,0,0,53405.9,0.637979,0.637661,0.00442197,81,0.65022,10,2.81972e-06,-5.35438,0.0107922,5.46694,0.637659,
2,0,0,1,0,53406.7,0.633983,0.633604,-0.0155944,81,0.650209,10,-9.88071e-06,-4.80703,-0.0071211,-8.28523,0.633611,
2,0,0,1,0,53407.5,0.629988,0.629657,-0.0306586,81,0.650185,10,-1.93044e-05,-4.51345,-0.0183038,-3.22337,0.62967,
2,0,0,1,0,53408.3,0.625993,0.62565,-0.0442649,81,0.650149,10,-2.76943e-05,-4.35394,-0.0367321,-1.60623,0.625669,
2,0,0,1,0,53409.1,0.621998,0.621645,-0.054492,81,0.650103,10,-3.38747e-05,-4.26367,-0.0461425,-1.27865,0.621669,
2,0,0,0,0,53409.9,0.618003,0.617708,-0.0647598,81,0.650049,10,-4.00026e-05,-4.18869,-0.0610654,-0.966178,0.617737,
2,0,0,1,0,53410.7,0.614008,0.613627,-0.0734169,81,0.649987,10,-4.50505e-05,-4.1342,-0.101583,-0.580808,0.613659,
2,0,0,1,0,53411.5,0.610012,0.609687,-0.0797759,81,0.64992,10,-4.86383e-05,-4.09813,-0.124334,-0.474528,0.609722,
2,0,0,1,0,53412.3,0.606017,0.605719,-0.0851476,81,0.649848,10,-5.15755e-05,-4.06983,-0.156087,-0.377994,0.605757,
2,0,0,1,0,53413.1,0.602022,0.601678,-0.0905365,81,0.649771,10,-5.44739e-05,-4.04318,-0.186285,-0.31672,0.601718,
2,0,0,0,0,53413.9,0.598027,0.597654,-0.0941748,81,0.649691,10,-5.62839e-05,-4.02607,-0.228616,-0.258075,0.597695,
2,0,0,1,0,53414.7,0.594032,0.593648,-0.0980439,81,0.649608,10,-5.82036e-05,-4.00858,-0.201449,-0.292878,0.593691,
2,0,0,0,0,53415.5,0.590037,0.58969,-0.101417,81,0.649522,10,-5.98046e-05,-3.99389,-0.356128,-0.165671,0.589735,
2,0,0,1,0,53416.3,0.586041,0.585675,-0.104101,81,0.649434,10,-6.09694e-05,-3.98254,-0.383387,-0.153891,0.585721,
2,0,0,1,0,53417.1,0.582046,0.58167,-0.106614,81,0.649344,10,-6.20143e-05,-3.97218,-0.446975,-0.131998,0.581717,
2,0,0,1,0,53417.9,0.578052,0.57775,-0.108425,81,0.649252,10,-6.26424e-05,-3.96487,-0.709802,-0.0831217,0.577798,
2,0,0,1,0,53418.7,0.574056,0.5737,-0.109662,81,0.649158,10,-6.2913e-05,-3.95994,-0.64338,-0.0917032,0.573749,
2,0,0,0,0,53419.5,0.570061,0.569695,-0.111963,81,0.649063,10,-6.37848e-05,-3.95093,-0.543473,-0.108561,0.569744,
2,0,0,1,0,53420.3,0.566065,0.565718,-0.113283,81,0.648967,10,-6.40862e-05,-3.94584,-0.529324,-0.111463,0.565768,
2,0,0,1,0,53421.1,0.56207,0.56172,-0.11403,81,0.64887,10,-6.4053e-05,-3.94298,-2.2559,-0.0261536,0.56177,
2,0,0,1,0,53421.9,0.558075,0.557768,-0.115266,81,0.648771,10,-6.42916e-05,-3.9383,-0.554867,-0.106332,0.557819,
2,0,0,1,0,53422.7,0.55408,0.553766,-0.116618,81,0.648672,10,-6.45791e-05,-3.93323,-2.03155,-0.0290419,0.553817,
2,0,0,0,0,53423.5,0.550085,0.549753,-0.117472,81,0.648572,10,-6.45808e-05,-3.93006,-3.09593,-0.0190573,0.549805,
2,0,0,1,0,53424.3,0.54609,0.545698,-0.118532,81,0.648471,10,-6.46829e-05,-3.92616,-0.640753,-0.0920792,0.54575,
2,0,0,1,0,53425.1,0.542094,0.541721,-0.118646,81,0.64837,10,-6.42733e-05,-3.92575,-1.34122,-0.0439897,0.541773,
2,0,0,1,0,53425.9,0.538099,0.537744,-0.120275,81,0.648267,10,-6.46773e-05,-3.91982,9.12986,0.00646231,0.537797,
2,0,0,1,0,53426.7,0.534104,0.533773,-0.121004,81,0.648164,10,-6.45887e-05,-3.9172,-0.865352,-0.0681803,0.533826,
2,0,0,0,0,53427.5,0.530109,0.529756,-0.121876,81,0.648061,10,-6.45645e-05,-3.91408,-1.52129,-0.0387828,0.52981,
2,0,0,1,0,53428.3,0.526114,0.525755,-0.122804,81,0.647956,10,-6.45646e-05,-3.91079,-0.593175,-0.0994648,0.525809,
2,0,0,0,0,53429.1,0.522119,0.521791,-0.124773,81,0.647851,10,-6.51057e-05,-3.90388,-2.9316,-0.0201255,0.521846,
2,0,0,1,0,53429.9,0.518123,0.517769,-0.124818,81,0.647745,10,-6.46269e-05,-3.90372,-2.00029,-0.0294958,0.517824,
2,0,0,1,0,53430.7,0.514128,0.513793,-0.126213,81,0.647638,10,-6.48473e-05,-3.8989,-0.584362,-0.100965,0.513848,
2,0,0,1,0,53431.5,0.510133,0.509798,-0.126881,81,0.64753,10,-6.46836e-05,-3.8966,-1.29132,-0.0456896,0.509854,
2,0,0,1,0,53432.3,0.506138,0.505761,-0.127705,81,0.647422,10,-6.45881e-05,-3.89379,-2.78224,-0.021206,0.505817,
2,0,0,0,0,53433.1,0.502143,0.50181,-0.12903,81,0.647312,10,-6.47485e-05,-3.88931,-0.785129,-0.0751469,0.501867,
2,0,0,1,0,53433.9,0.498148,0.497766,-0.130132,81,0.647202,10,-6.4775e-05,-3.88562,-1.49575,-0.039445,0.497823,
2,0,0,1,0,53434.7,0.494152,0.493796,-0.130409,81,0.647091,10,-6.43956e-05,-3.88469,-1.27039,-0.0464423,0.493854,
2,0,0,1,0,53435.5,0.490157,0.48984,-0.131839,81,0.64698,10,-6.45802e-05,-3.87996,-0.7407,-0.0796544,0.489898,
2,0,0,1,0,53436.3,0.486162,0.485807,-0.133083,81,0.646867,10,-6.46527e-05,-3.87588,9.00799,0.00654974,0.485865,
2,0,0,0,0,53437.1,0.482167,0.481841,-0.134416,81,0.646754,10,-6.4767e-05,-3.87155,-0.698578,-0.0844573,0.481901,
2,0,0,1,0,53437.9,0.478172,0.477827,-0.135066,81,0.646639,10,-6.45383e-05,-3.86945,-0.825688,-0.0714556,0.477886,
2,0,0,0,0,53438.7,0.474177,0.473861,-0.136999,81,0.646523,10,-6.49184e-05,-3.86328,-2.46395,-0.0239453,0.473921,
2,0,0,1,0,53439.5,0.470181,0.469829,-0.138274,81,0.646407,10,-6.4965e-05,-3.85926,-0.598265,-0.0986185,0.46989,
2,0,0,1,0,53440.3,0.466186,0.465898,-0.139888,81,0.646289,10,-6.51735e-05,-3.85422,-1.1961,-0.0493271,0.46596,
2,0,0,1,0,53441.1,0.462191,0.461831,-0.141324,81,0.64617,10,-6.5268e-05,-3.84978,-0.66791,-0.0883352,0.461893,
2,0,0,1,0,53441.9,0.458196,0.457835,-0.14201,81,0.64605,10,-6.5017e-05,-3.84768,-1.37597,-0.0428788,0.457897,
2,0,0,0,0,53442.7,0.454201,0.453819,-0.143551,81,0.645929,10,-6.51463e-05,-3.84299,-1.47768,-0.0399275,0.453882,
2,0,0,1,0,53443.5,0.450205,0.449839,-0.145429,81,0.645806,10,-6.54196e-05,-3.83735,-0.660909,-0.089271,0.449903,
2,0,0,1,0,53444.3,0.44621,0.44588,-0.146128,81,0.645683,10,-6.51556e-05,-3.83527,-0.858727,-0.0687064,0.445944,
2,0,0,1,0,53445.1,0.442215,0.441851,-0.147698,81,0.645558,10,-6.52604e-05,-3.83063,-1.40839,-0.0418917,0.441916,
2,0,0,1,0,53445.9,0.43822,0.437879,-0.150771,81,0.645432,10,-6.60196e-05,-3.82168,-0.552422,-0.106803,0.437945,
2,0,0,0,0,53446.7,0.434225,0.433853,-0.151437,81,0.645304,10,-6.57013e-05,-3.81977,-0.839664,-0.0702662,0.433919,
2,0,0,1,0,53447.5,0.43023,0.42989,-0.153075,81,0.645175,10,-6.58056e-05,-3.81509,-0.995449,-0.0592697,0.429957,
2,0,0,1,0,53448.3,0.426234,0.425921,-0.154068,81,0.645045,10,-6.56207e-05,-3.81229,-0.637995,-0.0924772,0.425988,
2,0,0,1,0,53449.1,0.422239,0.421913,-0.156378,81,0.644913,10,-6.59779e-05,-3.80582,-0.746028,-0.0790855,0.421981,
2,0,0,1,0,53449.9,0.418244,0.417883,-0.157479,81,0.64478,10,-6.58077e-05,-3.80278,-1.05054,-0.0561618,0.417953,
2,0,0,0,0,53450.7,0.414249,0.413902,-0.159651,81,0.644646,10,-6.60798e-05,-3.79683,-1.03717,-0.0568857,0.413973,
2,0,0,1,0,53451.5,0.410254,0.409862,-0.161222,81,0.644509,10,-6.60786e-05,-3.79258,-1.0874,-0.0542578,0.409933,
2,0,0,0,0,53452.3,0.406259,0.405905,-0.163622,81,0.644372,10,-6.64151e-05,-3.78616,-0.582048,-0.101366,0.405977,
2,0,0,1,0,53453.1,0.402263,0.401898,-0.165919,81,0.644232,10,-6.66827e-05,-3.7801,-0.917957,-0.0642732,0.401971,
2,0,0,1,0,53453.9,0.398268,0.397899,-0.16774,81,0.644091,10,-6.67436e-05,-3.77536,-0.631049,-0.0934951,0.397973,
2,0,0,1,0,53454.7,0.394274,0.393906,-0.169391,81,0.643949,10,-6.67242e-05,-3.77111,-0.709959,-0.0831034,0.39398,
2,0,0,1,0,53455.4,0.390278,0.389924,-0.171257,81,0.643805,10,-6.67772e-05,-3.76635,-1.22971,-0.0479787,0.39,
2,0,0,0,0,53456.2,0.386283,0.38594,-0.17349,81,0.643659,10,-6.69569e-05,-3.76072,-0.829029,-0.0711676,0.386017,
2,0,0,1,0,53457,0.382287,0.381979,-0.174409,81,0.643512,10,-6.66207e-05,-3.75843,-0.839553,-0.0702755,0.382056,
2,0,0,1,0,53457.8,0.378292,0.377937,-0.177699,81,0.643363,10,-6.71589e-05,-3.75032,-0.880952,-0.066973,0.378016,
2,0,0,1,0,53458.6,0.374297,0.373961,-0.178188,81,0.643212,10,-6.66353e-05,-3.74912,-0.643492,-0.0916873,0.37404,
2,0,0,1,0,53459.4,0.370303,0.369914,-0.181708,81,0.643059,10,-6.72164e-05,-3.74063,-0.849245,-0.0694735,0.369994,
2,0,0,0,0,53460.2,0.366307,0.365971,-0.183677,81,0.642905,10,-6.72205e-05,-3.73595,-0.867648,-0.0679999,0.366052,
2,0,0,1,0,53461,0.362312,0.361939,-0.185157,81,0.642749,10,-6.70155e-05,-3.73246,-0.660388,-0.0893414,0.362021,
2,0,0,1,0,53461.8,0.358316,0.357955,-0.188093,81,0.642591,10,-6.73287e-05,-3.72563,-0.988588,-0.0596811,0.358038,
2,0,0,1,0,53462.6,0.354321,0.353944,-0.190006,81,0.642431,10,-6.72513e-05,-3.72123,-0.740198,-0.0797084,0.354027,
2,0,0,1,0,53463.4,0.350327,0.349938,-0.191804,81,0.64227,10,-6.71195e-05,-3.71714,-0.783283,-0.075324,0.350022,
2,0,0,0,0,53464.2,0.346331,0.346001,-0.194306,81,0.642107,10,-6.723e-05,-3.71151,-0.895908,-0.0658549,0.346087,
2,0,0,1,0,53465,0.342336,0.341959,-0.197233,81,0.641942,10,-6.74454e-05,-3.70502,-0.652446,-0.090429,0.342046,
2,0,0,0,0,53465.8,0.338341,0.337983,-0.198466,81,0.641775,10,-6.7078e-05,-3.70231,-1.03334,-0.0570965,0.33807,
2,0,0,1,0,53466.6,0.334345,0.334002,-0.201774,81,0.641606,10,-6.73929e-05,-3.69514,-0.944677,-0.0624552,0.334091,
2,0,0,1,0,53467.4,0.33035,0.329981,-0.203728,81,0.641435,10,-6.72264e-05,-3.69095,-0.571157,-0.103299,0.33007,
2,0,0,1,0,53468.2,0.326355,0.326004,-0.205589,81,0.641263,10,-6.70229e-05,-3.687,-1.3525,-0.0436229,0.326095,
2,0,0,1,0,53469,0.32236,0.321994,-0.208094,81,0.641088,10,-6.70048e-05,-3.68174,-0.644058,-0.0916066,0.322085,
2,0,0,0,0,53469.8,0.318365,0.318015,-0.209645,81,0.640912,10,-6.66704e-05,-3.67851,-0.703954,-0.0838123,0.318107,
2,0,0,1,0,53470.6,0.31437,0.314036,-0.212151,81,0.640734,10,-6.66232e-05,-3.67335,-3.72985,-0.0158183,0.31413,
2,0,0,1,0,53471.4,0.310374,0.310017,-0.214881,81,0.640553,10,-6.66167e-05,-3.6678,-0.712997,-0.0827493,0.310112,
2,0,0,1,0,53472.2,0.306379,0.306003,-0.217749,81,0.640371,10,-6.66317e-05,-3.66204,-0.545683,-0.108121,0.306099,
2,0,0,1,0,53473,0.302385,0.301988,-0.220633,81,0.640187,10,-6.66283e-05,-3.65633,-0.64254,-0.0918231,0.302085,
2,0,0,0,0,53473.8,0.298389,0.298038,-0.222138,81,0.640001,10,-6.62055e-05,-3.65338,-0.955365,-0.0617565,0.298136,
2,0,0,1,0,53474.6,0.294394,0.294021,-0.225264,81,0.639812,10,-6.62323e-05,-3.64731,-1.42132,-0.0415106,0.29412,
2,0,0,1,0,53475.4,0.290398,0.290027,-0.22773,81,0.639622,10,-6.60478e-05,-3.64258,-0.534641,-0.110354,0.290128,
2,0,0,1,0,53476.2,0.286403,0.286083,-0.230271,81,0.639429,10,-6.58765e-05,-3.63776,-1.41926,-0.0415709,0.286184,
2,0,0,1,0,53477,0.282408,0.282057,-0.233302,81,0.639234,10,-6.58044e-05,-3.63208,-1.29629,-0.0455144,0.282159,
2,0,0,1,0,53477.8,0.278414,0.278104,-0.236454,81,0.639038,10,-6.57589e-05,-3.62625,-0.537422,-0.109783,0.278208,
2,0,0,1,0,53478.6,0.274418,0.274057,-0.238086,81,0.638839,10,-6.52491e-05,-3.62327,-1.06827,-0.0552297,0.274162,
2,0,0,0,0,53479.4,0.270423,0.270037,-0.242151,81,0.638638,10,-6.53897e-05,-3.61591,-0.604089,-0.0976678,0.270144,
2,0,0,1,0,53480.2,0.266427,0.266107,-0.244262,81,0.638435,10,-6.49999e-05,-3.61214,-1.17882,-0.0500502,0.266214,
2,0,0,1,0,53481,0.262432,0.262071,-0.246269,81,0.63823,10,-6.45399e-05,-3.60859,-1.0063,-0.0586308,0.26218,
2,0,0,1,0,53481.8,0.258437,0.25806,-0.248291,81,0.638023,10,-6.40739e-05,-3.60504,-0.628835,-0.0938243,0.258169,
2,0,0,1,0,53482.6,0.254442,0.25408,-0.250497,81,0.637814,10,-6.36463e-05,-3.6012,-1.2159,-0.0485238,0.25419,
2,0,0,0,0,53483.4,0.250447,0.250079,-0.253464,81,0.637603,10,-6.3386e-05,-3.59608,-1.52071,-0.0387977,0.250191,
2,0,0,1,0,53484.2,0.246452,0.246111,-0.255061,81,0.637391,10,-6.27733e-05,-3.59336,-0.69349,-0.0850769,0.246223,
2,0,0,1,0,53485,0.242456,0.242073,-0.257678,81,0.637176,10,-6.23769e-05,-3.58892,-1.74049,-0.0338986,0.242186,
2,0,0,1,0,53485.8,0.238461,0.238127,-0.261078,81,0.636959,10,-6.21697e-05,-3.58323,-0.860301,-0.0685807,0.238242,
2,0,0,1,0,53486.6,0.234467,0.234099,-0.262991,81,0.636741,10,-6.15658e-05,-3.58006,-0.768243,-0.0767986,0.234215,
2,0,0,0,0,53487.4,0.230471,0.230128,-0.264826,81,0.63652,10,-6.09437e-05,-3.57704,-1.82333,-0.0323584,0.230244,
2,0,0,1,0,53488.2,0.226476,0.226109,-0.266988,81,0.636298,10,-6.03684e-05,-3.57351,-0.936931,-0.0629716,0.226226,
2,0,0,0,0,53489,0.222481,0.222112,-0.268436,81,0.636073,10,-5.96229e-05,-3.57116,-1.17295,-0.0503006,0.22223,
2,0,0,1,0,53489.8,0.218485,0.218128,-0.272764,81,0.635847,10,-5.94975e-05,-3.56421,-1.27801,-0.0461657,0.218248,
2,0,0,1,0,53490.6,0.21449,0.214109,-0.275186,81,0.635618,10,-5.89198e-05,-3.56037,-0.857207,-0.0688282,0.21423,
2,0,0,1,0,53491.4,0.210496,0.210137,-0.277025,81,0.635388,10,-5.82134e-05,-3.55748,-0.781769,-0.0754698,0.210259,
2,0,0,1,0,53492.2,0.2065,0.206144,-0.281572,81,0.635155,10,-5.80444e-05,-3.55041,-0.797103,-0.0740181,0.206268,
2,0,0,0,0,53493,0.202505,0.202141,-0.28293,81,0.63492,10,-5.71919e-05,-3.54832,-0.977874,-0.060335,0.202266,
2,0,0,1,0,53493.8,0.198509,0.198114,-0.286065,81,0.634682,10,-5.66735e-05,-3.54354,-0.9525,-0.0619422,0.19824,
2,0,0,1,0,53494.6,0.194514,0.194122,-0.288774,81,0.634442,10,-5.60575e-05,-3.53944,-0.609867,-0.0967424,0.19425,
2,0,0,1,0,53495.4,0.190519,0.190184,-0.292021,81,0.634199,10,-5.55378e-05,-3.53459,-0.810567,-0.0727886,0.190313,
2,0,0,1,0,53496.2,0.186524,0.186153,-0.29691,81,0.633953,10,-5.52708e-05,-3.52738,-0.838625,-0.0703532,0.186284,
2,0,0,0,0,53497,0.182529,0.18219,-0.301063,81,0.633703,10,-5.48506e-05,-3.52134,-0.589139,-0.100146,0.182322,
2,0,0,1,0,53497.8,0.178534,0.178165,-0.307222,81,0.63345,10,-5.47363e-05,-3.51255,-0.539902,-0.109279,0.178301,
2,0,0,1,0,53498.6,0.174538,0.174151,-0.311844,81,0.633193,10,-5.43077e-05,-3.50606,-0.50137,-0.117677,0.174288,
2,0,0,1,0,53499.4,0.170543,0.170205,-0.317558,81,0.632931,10,-5.405e-05,-3.49818,-0.339282,-0.173897,0.170345,
2,0,0,1,0,53500.2,0.166549,0.166171,-0.325646,81,0.632664,10,-5.41129e-05,-3.48725,-0.45211,-0.130499,0.166314,
2,0,0,0,0,53501,0.162553,0.162183,-0.334225,81,0.63239,10,-5.42057e-05,-3.47596,-0.330939,-0.178281,0.16233,
2,0,0,1,0,53501.8,0.158558,0.158192,-0.344353,81,0.632108,10,-5.44738e-05,-3.463,-0.252648,-0.233526,0.158343,
2,0,0,0,0,53502.6,0.154563,0.154225,-0.359866,81,0.631816,10,-5.55002e-05,-3.44386,-0.233659,-0.252504,0.154383,
2,0,0,1,0,53503.4,0.150567,0.150206,-0.37672,81,0.631512,10,-5.65857e-05,-3.42398,-0.154482,-0.381921,0.150372,
2,0,0,1,0,53504.2,0.146572,0.14618,-0.401306,81,0.631191,10,-5.86627e-05,-3.39652,-0.13486,-0.437492,0.146356,
2,0,0,1,0,53505,0.142578,0.142207,-0.432996,81,0.630848,10,-6.15752e-05,-3.36352,-0.108819,-0.542182,0.142398,
2,0,0,1,0,53505.8,0.138582,0.138271,-0.471499,81,0.630476,10,-6.51946e-05,-3.32652,-0.101106,-0.583547,0.138478,
2,0,0,0,0,53506.6,0.134587,0.134204,-0.51699,81,0.63007,10,-6.93823e-05,-3.28652,-0.105951,-0.556859,0.134432,
2,0,0,1,0,53507.4,0.130591,0.130211,-0.562684,81,0.629628,10,-7.32679e-05,-3.24974,-0.113252,-0.520963,0.130459,
2,0,0,1,0,53508.2,0.126596,0.126257,-0.60328,81,0.62915,10,-7.61684e-05,-3.21948,-0.141444,-0.417125,0.126523,
2,0,0,1,0,53509,0.122602,0.122232,-0.638239,81,0.628641,10,-7.80135e-05,-3.19502,-0.223685,-0.263763,0.122513,
2,0,0,1,0,53509.8,0.118607,0.118245,-0.65908,81,0.628111,10,-7.79332e-05,-3.18106,-0.34662,-0.170215,0.118535,
2,0,0,0,0,53510.6,0.114611,0.114249,-0.670925,81,0.627567,10,-7.66528e-05,-3.17333,-0.852414,-0.0692152,0.114545,
2,0,0,1,0,53511.4,0.110616,0.110266,-0.676212,81,0.627017,10,-7.45628e-05,-3.16992,-2.02681,-0.0291098,0.110563,
2,0,0,1,0,53512.2,0.10662,0.106244,-0.677503,81,0.626465,10,-7.19808e-05,-3.16909,-16.1287,-0.00365808,0.106542,
2,0,0,1,0,53513,0.102625,0.102302,-0.675695,81,0.625912,10,-6.91249e-05,-3.17025,1.43718,0.0410526,0.102599,
2,0,0,1,0,53513.8,0.0986305,0.0982673,-0.67213,81,0.625363,10,-6.60484e-05,-3.17255,1.47143,0.0400969,0.098563,
2,0,0,0,0,53514.6,0.0946351,0.0942778,-0.664819,81,0.624816,10,-6.26777e-05,-3.1773,1.18008,0.0499967,0.0945703,
2,0,0,1,0,53515.4,0.0906399,0.0902694,-0.66061,81,0.624275,10,-5.96329e-05,-3.18006,0.751632,0.0784958,0.0905601,
2,0,0,0,0,53516.2,0.0866448,0.086276,-0.65331,81,0.623739,10,-5.6365e-05,-3.18488,0.905697,0.0651432,0.0865634,
2,0,0,1,0,53517,0.0826492,0.0822746,-0.645633,81,0.623209,10,-5.31192e-05,-3.19001,0.681128,0.086621,0.0825586,
2,0,0,1,0,53517.8,0.0786544,0.0782729,-0.637364,81,0.622687,10,-4.98883e-05,-3.19561,0.757193,0.0779193,0.0785533,
2,0,0,1,0,53518.6,0.0746596,0.0743488,-0.628027,81,0.622171,10,-4.6693e-05,-3.20202,0.776973,0.0759357,0.0746251,
2,0,0,1,0,53519.4,0.0706641,0.070303,-0.620198,81,0.621661,10,-4.36018e-05,-3.20747,0.64041,0.0921285,0.0705759,
2,0,0,0,0,53520.2,0.0666689,0.0662926,-0.611931,81,0.621158,10,-4.05665e-05,-3.2133,0.728809,0.080954,0.0665618,
2,0,0,1,0,53521,0.0626737,0.0623383,-0.601753,81,0.620661,10,-3.75123e-05,-3.22058,0.677255,0.0871163,0.0626031,
2,0,0,1,0,53521.8,0.0586783,0.0583097,-0.595266,81,0.620171,10,-3.47098e-05,-3.22529,0.445946,0.132303,0.0585716,
2,0,0,1,0,53522.6,0.0546835,0.0543176,-0.584834,81,0.619688,10,-3.17668e-05,-3.23297,0.847922,0.0695818,0.0545749,
2,0,0,1,0,53523.4,0.0506886,0.0503243,-0.576345,81,0.619213,10,-2.90042e-05,-3.23932,0.470704,0.125344,0.0505779,
2,0,0,0,0,53524.2,0.046693,0.0463188,-0.566802,81,0.618745,10,-2.62536e-05,-3.24657,0.527018,0.111951,0.0465682,
2,0,0,1,0,53525,0.0426979,0.0422945,-0.555787,81,0.618286,10,-2.35067e-05,-3.25509,0.603291,0.097797,0.0425391,
2,0,0,1,0,53525.8,0.0387022,0.0383113,-0.546438,81,0.617834,10,-2.09348e-05,-3.26246,0.456173,0.129337,0.0385518,
2,0,0,1,0,53526.6,0.0347074,0.0343319,-0.536818,81,0.617391,10,-1.843e-05,-3.27017,0.565752,0.104286,0.0345681,
2,0,0,1,0,53527.4,0.0307126,0.0303386,-0.5259,81,0.616955,10,-1.59551e-05,-3.2791,0.536153,0.110043,0.03057,
2,0,0,0,0,53528.2,0.0267172,0.0263831,-0.517411,81,0.616527,10,-1.36509e-05,-3.28616,0.482884,0.122182,0.0266108,
2,0,0,1,0,53529,0.022722,0.0223377,-0.511496,81,0.616105,10,-1.14256e-05,-3.29116,0.767319,0.0768911,0.0225627,
2,0,0,0,0,53529.8,0.0187268,0.0183368,-0.504948,81,0.615689,10,-9.25912e-06,-3.29675,0.877134,0.0672646,0.0185589,
2,0,0,1,0,53530.6,0.0147313,0.0143758,-0.500818,81,0.615277,10,-7.19967e-06,-3.30032,1.2999,0.045388,0.0145962,
2,0,0,1,0,53531.4,0.0107365,0.0104018,-0.49686,81,0.614868,10,-5.16824e-06,-3.30377,2.46015,0.0239823,0.0106204,
2,0,0,1,0,53532.2,0.00674163,0.00635766,-0.496257,81,0.614461,10,-3.15504e-06,-3.30429,3.92673,0.0150252,0.00657601,
2,0,0,1,0,53533,0.00274612,0.00235432,-0.496689,81,0.614054,10,-1.16937e-06,-3.30392,-1.09167,-0.0540458,0.00257287,
2,0,0,0,0,53533.4,0.000274105,-0.000148766,-0.498386,81,0.6138,10,7.41429e-08,-3.30243, , ,7.05242e-05,