File: Figure_codes/Fig_3-5/workspace_calculate_alpha_eff/20221101_1-115_003_TrumpetPlot_ParaChange_from10_every3_16_CV_C01_69.csv
mode,ox/red,error,control changes,counter inc.,time/s,control/V,Ewe/V,<I>/mA,cycle number,(Q-Qo)/C,I Range,P/W,log(|I|),Tafel slope mV/dec,alpha_eff,E-IR/V,
2,0,0,1,0,46543.1,2.44065e-05,-0.000287149,-0.0338828,70,0.0000000E+000,10,9.7294e-09,-4.47002, , ,-0.00027224,
2,1,0,1,0,46543.9,0.00379485,0.00347411,0.200145,70,0.000130697,10,6.95325e-07,-3.69866,0.0463873,1.2719,0.00338605,
2,1,0,0,0,46544.7,0.00779002,0.00747927,0.223776,70,0.000311795,10,1.67368e-06,-3.65019,0.10087,0.584911,0.00738081,
2,1,0,1,0,46545.5,0.0117852,0.0114505,0.238766,70,0.000508238,10,2.73399e-06,-3.62203,0.152225,0.387583,0.0113454,
2,1,0,1,0,46546.3,0.0157806,0.0155047,0.254206,70,0.000716841,10,3.94138e-06,-3.59481,0.161856,0.364521,0.0153928,
2,1,0,1,0,46547.1,0.0197754,0.0194172,0.26722,70,0.00093633,10,5.18865e-06,-3.57313,0.184221,0.320267,0.0192996,
2,1,0,1,0,46547.9,0.0237704,0.023473,0.279638,70,0.00116679,10,6.56394e-06,-3.5534,0.191663,0.307831,0.0233499,
2,1,0,0,0,46548.7,0.0277659,0.0274393,0.29467,70,0.0014074,10,8.08555e-06,-3.53066,0.209217,0.282004,0.0273096,
2,1,0,1,0,46549.5,0.0317611,0.031436,0.307099,70,0.00165876,10,9.65397e-06,-3.51272,0.193768,0.304488,0.0313008,
2,1,0,1,0,46550.3,0.0357567,0.0354606,0.321498,70,0.00192134,10,1.14005e-05,-3.49282,0.238841,0.247026,0.0353191,
2,1,0,1,0,46551.1,0.0397516,0.0393978,0.33479,70,0.00219447,10,1.319e-05,-3.47523,0.217522,0.271237,0.0392505,
2,1,0,1,0,46551.9,0.0437465,0.0434153,0.347862,70,0.00247884,10,1.51025e-05,-3.45859,0.235413,0.250624,0.0432622,
2,1,0,1,0,46552.7,0.0477413,0.047379,0.361456,70,0.00277343,10,1.71254e-05,-3.44194,0.26843,0.219796,0.0472199,
2,1,0,1,0,46553.5,0.0517369,0.0514151,0.372383,70,0.00307788,10,1.91461e-05,-3.42901,0.26695,0.221015,0.0512512,
2,1,0,0,0,46554.3,0.0557321,0.0554255,0.38471,70,0.00339243,10,2.13228e-05,-3.41487,0.336852,0.175151,0.0552563,
2,1,0,1,0,46555.1,0.0597277,0.0594416,0.396587,70,0.00371548,10,2.35737e-05,-3.40166,0.351923,0.16765,0.0592671,
2,1,0,1,0,46555.9,0.0637226,0.0633817,0.404408,70,0.0040469,10,2.56321e-05,-3.39318,0.382789,0.154132,0.0632038,
2,1,0,1,0,46556.7,0.0677174,0.0673497,0.414774,70,0.00438638,10,2.79349e-05,-3.38219,0.607871,0.0970601,0.0671672,
2,1,0,1,0,46557.5,0.0717128,0.0714122,0.423408,70,0.00473221,10,3.02365e-05,-3.37324,0.353718,0.166799,0.0712259,
2,1,0,0,0,46558.3,0.075708,0.0754195,0.429134,70,0.00508474,10,3.23651e-05,-3.36741,0.587462,0.100432,0.0752307,
2,1,0,1,0,46559.1,0.0797031,0.079413,0.437878,70,0.00544287,10,3.47732e-05,-3.35865,0.563161,0.104766,0.0792203,
2,1,0,1,0,46559.9,0.0836986,0.0833951,0.445817,70,0.00580698,10,3.7179e-05,-3.35084,0.463655,0.12725,0.083199,
2,1,0,1,0,46560.7,0.0876935,0.0873884,0.455223,70,0.00617821,10,3.97812e-05,-3.34178,0.395343,0.149237,0.0871881,
2,1,0,1,0,46561.5,0.0916883,0.0913678,0.467917,70,0.006558,10,4.27525e-05,-3.32983,0.321466,0.183534,0.0911619,
2,1,0,0,0,46562.2,0.0956838,0.0953732,0.483029,70,0.00694975,10,4.6068e-05,-3.31603,0.231439,0.254927,0.0951607,
2,1,0,1,0,46563,0.099679,0.0993338,0.504676,70,0.00735622,10,5.01314e-05,-3.29699,0.239595,0.246249,0.0991117,
2,1,0,0,0,46563.8,0.103674,0.10337,0.524829,70,0.00777867,10,5.42514e-05,-3.27998,0.215365,0.273953,0.103139,
2,1,0,1,0,46564.6,0.10767,0.10736,0.544898,70,0.00821847,10,5.85003e-05,-3.26369,0.244937,0.240879,0.107121,
2,1,0,1,0,46565.4,0.111664,0.111282,0.564316,70,0.00867332,10,6.27984e-05,-3.24848,0.334611,0.176324,0.111034,
2,1,0,1,0,46566.2,0.115659,0.115364,0.577712,70,0.00914122,10,6.66469e-05,-3.23829,0.35959,0.164076,0.115109,
2,1,0,1,0,46567,0.119655,0.11932,0.589835,70,0.00962023,10,7.03793e-05,-3.22927,0.64745,0.0911268,0.119061,
2,1,0,0,0,46567.8,0.12365,0.123364,0.599954,70,0.0101072,10,7.40125e-05,-3.22188,0.669826,0.0880826,0.1231,
2,1,0,1,0,46568.6,0.127646,0.127311,0.606719,70,0.0106014,10,7.72419e-05,-3.21701,0.856791,0.0688616,0.127044,
2,1,0,1,0,46569.4,0.131641,0.131327,0.609888,70,0.0110999,10,8.00951e-05,-3.21475,-0.834079,-0.0707367,0.131059,
2,1,0,1,0,46570.2,0.135635,0.135295,0.596465,70,0.0115943,10,8.06989e-05,-3.22441,-0.315436,-0.187043,0.135033,
2,1,0,1,0,46571,0.139631,0.139276,0.564233,70,0.0120721,10,7.85842e-05,-3.24854,-0.125317,-0.470805,0.139028,
2,1,0,0,0,46571.8,0.143626,0.143308,0.518397,70,0.0125174,10,7.42904e-05,-3.28534,-0.0891005,-0.662173,0.14308,
2,1,0,1,0,46572.6,0.147621,0.147335,0.459376,70,0.012919,10,6.76823e-05,-3.33783,-0.0743471,-0.793575,0.147133,
2,1,0,1,0,46573.4,0.151617,0.151307,0.409077,70,0.0132767,10,6.1896e-05,-3.3882,-0.0866281,-0.681072,0.151127,
2,1,0,1,0,46574.2,0.155612,0.155285,0.374462,70,0.0135997,10,5.81484e-05,-3.42659,-0.126889,-0.464975,0.15512,
2,1,0,1,0,46575,0.159606,0.159265,0.350624,70,0.0138996,10,5.58422e-05,-3.45516,-0.173307,-0.340436,0.159111,
2,1,0,0,0,46575.8,0.163602,0.163305,0.335789,70,0.0141845,10,5.48359e-05,-3.47393,-0.228445,-0.258267,0.163157,
2,1,0,1,0,46576.6,0.167597,0.167303,0.326275,70,0.0144591,10,5.45866e-05,-3.48642,-0.389214,-0.151588,0.167159,
2,1,0,0,0,46577.4,0.171592,0.17128,0.317319,70,0.0147271,10,5.43504e-05,-3.4985,-0.463555,-0.127277,0.171141,
2,1,0,1,0,46578.2,0.175588,0.175239,0.312891,70,0.0149898,10,5.48308e-05,-3.50461,-0.598372,-0.0986009,0.175101,
2,1,0,1,0,46579,0.179582,0.179273,0.30914,70,0.0152483,10,5.54204e-05,-3.50984,-1.05017,-0.0561816,0.179136,
2,1,0,1,0,46579.8,0.183577,0.183229,0.30507,70,0.0155043,10,5.58976e-05,-3.5156,-1.01888,-0.0579068,0.183094,
2,1,0,1,0,46580.6,0.187573,0.187264,0.303385,70,0.0157575,10,5.6813e-05,-3.51801,-0.800154,-0.0737358,0.18713,
2,1,0,0,0,46581.4,0.191568,0.191272,0.299212,70,0.016009,10,5.7231e-05,-3.52402,-1.90034,-0.031047,0.19114,
2,1,0,1,0,46582.2,0.195563,0.195251,0.298349,70,0.0162589,10,5.82528e-05,-3.52528,-0.84545,-0.0697853,0.195119,
2,1,0,1,0,46583,0.199559,0.199238,0.297439,70,0.0165071,10,5.92611e-05,-3.5266,-2.18415,-0.0270128,0.199107,
2,1,0,1,0,46583.8,0.203553,0.20326,0.294273,70,0.0167543,10,5.98139e-05,-3.53125,-1.75621,-0.033595,0.20313,
2,1,0,1,0,46584.6,0.207548,0.207233,0.293623,70,0.0170005,10,6.08484e-05,-3.53221,-88.6911,-0.00066523,0.207104,
2,1,0,0,0,46585.4,0.211544,0.211185,0.292834,70,0.0172455,10,6.18424e-05,-3.53338,-2.18267,-0.0270311,0.211057,
2,1,0,1,0,46586.2,0.215539,0.215218,0.291748,70,0.0174895,10,6.27894e-05,-3.53499,-1.28876,-0.0457803,0.21509,
2,1,0,1,0,46587,0.219535,0.219249,0.29102,70,0.0177324,10,6.3806e-05,-3.53608,-3.58319,-0.0164658,0.219121,
2,1,0,1,0,46587.8,0.223529,0.223219,0.289449,70,0.0179745,10,6.46106e-05,-3.53843,-4.86291,-0.0121327,0.223092,
2,1,0,1,0,46588.6,0.227524,0.227227,0.289287,70,0.0182159,10,6.57338e-05,-3.53867,-1.23849,-0.0476385,0.2271,
2,1,0,0,0,46589.4,0.23152,0.231192,0.288594,70,0.0184565,10,6.67207e-05,-3.53971,3.29319,0.0179157,0.231065,
2,1,0,1,0,46590.2,0.235515,0.235261,0.285769,70,0.0186967,10,6.72303e-05,-3.54399,-1.68686,-0.0349762,0.235135,
2,1,0,0,0,46591,0.23951,0.239202,0.285838,70,0.0189359,10,6.83732e-05,-3.54388,-11.0018,-0.00536274,0.239077,
2,1,0,1,0,46591.8,0.243506,0.243208,0.285238,70,0.0191742,10,6.93723e-05,-3.54479,-2.68679,-0.0219593,0.243083,
2,1,0,1,0,46592.6,0.2475,0.247176,0.284812,70,0.0194124,10,7.03985e-05,-3.54544,-3.05454,-0.0193155,0.24705,
2,1,0,1,0,46593.4,0.251495,0.251174,0.284205,70,0.0196499,10,7.1385e-05,-3.54637,-4.08867,-0.0144301,0.251049,
2,1,0,1,0,46594.2,0.255491,0.255143,0.282902,70,0.0198866,10,7.21804e-05,-3.54836,-2.65565,-0.0222168,0.255018,
2,1,0,0,0,46595,0.259486,0.259202,0.281345,70,0.0201228,10,7.2925e-05,-3.55076,-1.36456,-0.0432374,0.259078,
2,1,0,1,0,46595.8,0.263481,0.263158,0.281136,70,0.020358,10,7.39831e-05,-3.55108,-2.92672,-0.0201591,0.263034,
2,1,0,1,0,46596.6,0.267477,0.267215,0.27953,70,0.0205926,10,7.46948e-05,-3.55357,3.71435,0.0158843,0.267092,
2,1,0,1,0,46597.4,0.271471,0.271151,0.27958,70,0.0208265,10,7.58084e-05,-3.55349,-3.37486,-0.0174822,0.271028,
2,1,0,1,0,46598.2,0.275466,0.275115,0.278735,70,0.0210596,10,7.6684e-05,-3.55481,-6.06618,-0.00972605,0.274992,
2,1,0,0,0,46599,0.279462,0.279125,0.278696,70,0.0212922,10,7.77909e-05,-3.55487,-1.18727,-0.0496939,0.279002,
2,1,0,1,0,46599.8,0.283457,0.283105,0.277966,70,0.0215238,10,7.86936e-05,-3.55601,-5.34739,-0.0110334,0.282983,
2,1,0,0,0,46600.6,0.287452,0.287169,0.275725,70,0.0217548,10,7.91795e-05,-3.55952,-2.25817,-0.0261274,0.287048,
2,1,0,1,0,46601.4,0.291448,0.291136,0.275704,70,0.0219851,10,8.02673e-05,-3.55956,-1.22896,-0.0480081,0.291015,
2,1,0,1,0,46602.2,0.295442,0.295133,0.273795,70,0.0222145,10,8.0806e-05,-3.56257,5.83226,0.0101162,0.295013,
2,1,0,1,0,46603,0.299437,0.299151,0.273589,70,0.0224435,10,8.18445e-05,-3.5629,-6.87021,-0.0085878,0.299031,
2,1,0,1,0,46603.8,0.303433,0.303073,0.273076,70,0.0226717,10,8.2762e-05,-3.56372,-2.04121,-0.0289044,0.302953,
2,1,0,0,0,46604.6,0.307428,0.30711,0.272512,70,0.0228991,10,8.36912e-05,-3.56461,-9.31516,-0.00633376,0.30699,
2,1,0,1,0,46605.4,0.311424,0.311075,0.2703,70,0.0231259,10,8.40836e-05,-3.56815,-1.21816,-0.0484337,0.310956,
2,1,0,1,0,46606.2,0.315418,0.315065,0.270819,70,0.0233517,10,8.53255e-05,-3.56732,-22.3713,-0.0026373,0.314946,
2,1,0,1,0,46607,0.319413,0.319069,0.269874,70,0.0235771,10,8.61085e-05,-3.56884,-2.80229,-0.0210542,0.31895,
2,1,0,1,0,46607.8,0.323409,0.323089,0.268316,70,0.023802,10,8.66901e-05,-3.57135,-1.11735,-0.0528035,0.322971,
2,1,0,0,0,46608.6,0.327404,0.327069,0.268047,70,0.0240261,10,8.76698e-05,-3.57179,2.02792,0.0290938,0.326951,
2,1,0,1,0,46609.4,0.331399,0.33107,0.266741,70,0.0242497,10,8.83099e-05,-3.57391,-1.50222,-0.0392752,0.330952,
2,1,0,1,0,46610.2,0.335395,0.335089,0.267261,70,0.0244726,10,8.95561e-05,-3.57306,8.12551,0.00726109,0.334971,
2,1,0,1,0,46611,0.339389,0.33907,0.266365,70,0.0246948,10,9.03165e-05,-3.57452,-4.10306,-0.0143795,0.338953,
2,1,0,1,0,46611.8,0.343384,0.34311,0.266185,70,0.0249169,10,9.13306e-05,-3.57482,-11.058,-0.0053355,0.342993,
2,1,0,0,0,46612.6,0.34738,0.347052,0.265731,70,0.0251383,10,9.22225e-05,-3.57556,-2.25115,-0.0262088,0.346935,
2,1,0,1,0,46613.4,0.351375,0.351082,0.263522,70,0.0253592,10,9.25179e-05,-3.57918,-2.44055,-0.0241749,0.350966,
2,1,0,0,0,46614.2,0.35537,0.355032,0.26342,70,0.0255794,10,9.35223e-05,-3.57935,-1.43113,-0.0412261,0.354916,
2,1,0,1,0,46615,0.359366,0.359081,0.263558,70,0.0257991,10,9.46384e-05,-3.57912,1.6951,0.0348063,0.358965,
2,1,0,1,0,46615.8,0.36336,0.363052,0.262414,70,0.0260186,10,9.527e-05,-3.58101,-2.67135,-0.0220862,0.362936,
2,1,0,1,0,46616.6,0.367355,0.367044,0.262706,70,0.0262374,10,9.64244e-05,-3.58053,9.08521,0.00649407,0.366928,
2,1,0,1,0,46617.4,0.371351,0.371047,0.262124,70,0.0264557,10,9.72603e-05,-3.58149,-5.42515,-0.0108753,0.370932,
2,1,0,0,0,46618.2,0.375346,0.374993,0.261776,70,0.0266738,10,9.81642e-05,-3.58207,-1.61289,-0.0365804,0.374878,
2,1,0,1,0,46619,0.379342,0.379067,0.261665,70,0.0268914,10,9.91885e-05,-3.58225,-148.784,-0.000396549,0.378952,
2,1,0,1,0,46619.8,0.383336,0.383016,0.260738,70,0.0271088,10,9.98666e-05,-3.5838,-2.05949,-0.0286478,0.382901,
2,1,0,1,0,46620.6,0.387331,0.387063,0.259806,70,0.027326,10,0.000100561,-3.58535,-3.97897,-0.014828,0.386949,
2,1,0,1,0,46621.4,0.391327,0.390993,0.260142,70,0.0275426,10,0.000101714,-3.58479,2.92956,0.0201395,0.390879,
2,1,0,0,0,46622.2,0.395322,0.394996,0.259293,70,0.0277592,10,0.00010242,-3.58621,-7.85645,-0.00750975,0.394882,
2,1,0,1,0,46623,0.399317,0.399034,0.259802,70,0.0279753,10,0.00010367,-3.58536,-29.1219,-0.00202597,0.39892,
2,1,0,1,0,46623.8,0.403313,0.403044,0.259739,70,0.028191,10,0.000104686,-3.58546,-3.96706,-0.0148725,0.40293,
2,1,0,1,0,46624.6,0.407307,0.407038,0.258632,70,0.0284063,10,0.000105273,-3.58732,-1.48783,-0.039655,0.406925,
2,1,0,1,0,46625.4,0.411302,0.411,0.258695,70,0.0286211,10,0.000106323,-3.58721,2.08627,0.0282801,0.410886,
2,1,0,0,0,46626.2,0.415298,0.415015,0.258007,70,0.0288359,10,0.000107077,-3.58837,-3.56423,-0.0165534,0.414901,
2,1,0,1,0,46627,0.419293,0.418983,0.257555,70,0.0290503,10,0.000107911,-3.58913,-2.85273,-0.0206819,0.418869,
2,1,0,0,0,46627.8,0.423288,0.423008,0.257384,70,0.0292644,10,0.000108876,-3.58942,11.5503,0.00510811,0.422895,
2,1,0,1,0,46628.6,0.427283,0.426985,0.257129,70,0.0294785,10,0.00010979,-3.58985,-17.2207,-0.00342611,0.426872,
2,1,0,1,0,46629.4,0.431278,0.430965,0.258037,70,0.0296924,10,0.000111205,-3.58832,-14.2641,-0.00413626,0.430852,
2,1,0,1,0,46630.2,0.435273,0.434932,0.257539,70,0.029906,10,0.000112012,-3.58916,3.76401,0.0156748,0.434818,
2,1,0,1,0,46631,0.439269,0.438967,0.257311,70,0.0301197,10,0.000112951,-3.58954,28.147,0.00209614,0.438854,
2,1,0,0,0,46631.8,0.443264,0.443022,0.256706,70,0.030333,10,0.000113726,-3.59056,-1.9427,-0.0303701,0.442909,
2,1,0,1,0,46632.6,0.447259,0.446961,0.255732,70,0.0305459,10,0.000114302,-3.59221,-6.15008,-0.00959337,0.446849,
2,1,0,1,0,46633.4,0.451254,0.450984,0.257342,70,0.030759,10,0.000116057,-3.58949,270.449,0.000218156,0.450871,
2,1,0,1,0,46634.2,0.455249,0.454944,0.256478,70,0.030972,10,0.000116683,-3.59095,1.5184,0.0388566,0.454831,
2,1,0,1,0,46635,0.459244,0.458951,0.256944,70,0.0311854,10,0.000117925,-3.59016,-3.65772,-0.0161303,0.458838,
2,1,0,0,0,46635.8,0.46324,0.462903,0.25709,70,0.0313987,10,0.000119008,-3.58991,7.99957,0.0073754,0.462789,
2,1,0,1,0,46636.6,0.467235,0.466941,0.256692,70,0.031612,10,0.00011986,-3.59059,19.1006,0.00308892,0.466828,
2,1,0,1,0,46637.4,0.471231,0.470891,0.257397,70,0.0318256,10,0.000121206,-3.5894,5.26075,0.0112151,0.470778,
2,1,0,1,0,46638.2,0.475225,0.47496,0.259257,70,0.0320392,10,0.000123137,-3.58627,7.43306,0.00793751,0.474846,
2,1,0,1,0,46639,0.47922,0.47896,0.258713,70,0.0322532,10,0.000123913,-3.58718,10.4127,0.00566616,0.478846,
2,1,0,0,0,46639.8,0.483216,0.482945,0.258864,70,0.0324675,10,0.000125017,-3.58693,41.6847,0.00141539,0.482831,
2,1,0,1,0,46640.6,0.487211,0.486907,0.259432,70,0.0326819,10,0.000126319,-3.58598,19.8295,0.00297536,0.486793,
2,1,0,0,0,46641.4,0.491206,0.49092,0.259468,70,0.0328967,10,0.000127378,-3.58592,1.2131,0.0486357,0.490805,
2,1,0,1,0,46642.2,0.495201,0.494911,0.260942,70,0.033112,10,0.000129143,-3.58346,6.18888,0.00953322,0.494796,
2,1,0,1,0,46643,0.499196,0.498906,0.260969,70,0.0333278,10,0.000130199,-3.58341,3.34075,0.0176607,0.498791,
2,1,0,1,0,46643.8,0.503191,0.502872,0.261984,70,0.0335443,10,0.000131745,-3.58172,5.20175,0.0113423,0.502757,
2,1,0,1,0,46644.5,0.507187,0.506844,0.263073,70,0.0337611,10,0.000133337,-3.57992,1.77574,0.0332256,0.506728,
2,1,0,0,0,46645.3,0.511182,0.510867,0.263388,70,0.0339787,10,0.000134556,-3.5794,9.15932,0.00644153,0.510751,
2,1,0,1,0,46646.1,0.515177,0.514851,0.2647,70,0.0341968,10,0.000136281,-3.57725,6.7268,0.00877089,0.514734,
2,1,0,1,0,46646.9,0.519173,0.518876,0.265295,70,0.0344156,10,0.000137655,-3.57627,1.28347,0.045969,0.51876,
2,1,0,1,0,46647.7,0.523167,0.522814,0.265343,70,0.0346352,10,0.000138725,-3.57619,2.38016,0.0247882,0.522698,
2,1,0,1,0,46648.5,0.527162,0.526896,0.267894,70,0.0348558,10,0.000141152,-3.57204,1.85154,0.0318654,0.526778,
2,1,0,0,0,46649.3,0.531158,0.530919,0.269033,70,0.0350774,10,0.000142835,-3.57019,1.22249,0.0482623,0.530801,
2,1,0,1,0,46650.1,0.535153,0.534872,0.270997,70,0.0353003,10,0.000144949,-3.56704,2.24382,0.0262945,0.534753,
2,1,0,0,0,46650.9,0.539148,0.53887,0.272655,70,0.0355242,10,0.000146925,-3.56439,1.81694,0.0324723,0.53875,
2,1,0,1,0,46651.7,0.543143,0.542874,0.273418,70,0.0357494,10,0.000148432,-3.56317,1.81449,0.0325161,0.542754,
2,1,0,1,0,46652.5,0.547138,0.54684,0.275599,70,0.0359757,10,0.000150709,-3.55972,1.73527,0.0340005,0.546719,
2,1,0,1,0,46653.3,0.551133,0.550851,0.277213,70,0.0362035,10,0.000152703,-3.55719,0.730766,0.0807372,0.550729,
2,1,0,1,0,46654.1,0.555129,0.554823,0.279682,70,0.0364337,10,0.000155174,-3.55333,1.36742,0.043147,0.5547,
2,1,0,0,0,46654.9,0.559124,0.558828,0.281901,70,0.0366654,10,0.000157534,-3.5499,1.13114,0.05216,0.558704,
2,1,0,1,0,46655.7,0.56312,0.562827,0.285884,70,0.036899,10,0.000160904,-3.54381,0.63574,0.0928052,0.562702,
2,1,0,1,0,46656.5,0.567114,0.566835,0.289218,70,0.0371351,10,0.000163939,-3.53878,1.15535,0.0510668,0.566708,
2,1,0,1,0,46657.3,0.571109,0.570817,0.292079,70,0.0373736,10,0.000166724,-3.5345,0.730923,0.0807199,0.570688,
2,1,0,1,0,46658.1,0.575105,0.574805,0.295168,70,0.0376148,10,0.000169664,-3.52993,0.756103,0.0780317,0.574675,
2,1,0,0,0,46658.9,0.5791,0.578886,0.299242,70,0.0378591,10,0.000173227,-3.52398,0.635265,0.0928746,0.578754,
2,1,0,1,0,46659.7,0.583095,0.582858,0.303732,70,0.0381067,10,0.000177033,-3.51751,0.625345,0.094348,0.582724,
2,1,0,1,0,46660.5,0.58709,0.586816,0.30801,70,0.0383581,10,0.000180745,-3.51144,0.535016,0.110277,0.58668,
2,1,0,1,0,46661.3,0.591085,0.590814,0.314407,70,0.0386135,10,0.000185756,-3.50251,0.490727,0.12023,0.590676,
2,1,0,1,0,46662.1,0.59508,0.594822,0.320014,70,0.0388736,10,0.000190352,-3.49483,0.41351,0.142681,0.594681,
2,1,0,0,0,46662.9,0.599076,0.598763,0.327473,70,0.0391391,10,0.000196079,-3.48482,0.412273,0.143109,0.598619,
2,1,0,1,0,46663.7,0.603071,0.602787,0.336164,70,0.0394105,10,0.000202635,-3.47345,0.355038,0.166179,0.602639,
2,1,0,0,0,46664.5,0.607066,0.606811,0.345449,70,0.0396889,10,0.000209623,-3.46162,0.343191,0.171916,0.606659,
2,1,0,1,0,46665.3,0.611061,0.61073,0.355093,70,0.0399752,10,0.000216866,-3.44966,0.288399,0.204578,0.610574,
2,1,0,1,0,46666.1,0.615056,0.614741,0.367349,70,0.0402703,10,0.000225825,-3.43492,0.250929,0.235126,0.61458,
2,1,0,1,0,46666.9,0.619051,0.618795,0.380859,70,0.0405763,10,0.000235673,-3.41924,0.229789,0.256757,0.618627,
2,1,0,1,0,46667.7,0.623047,0.622788,0.397833,70,0.0408941,10,0.000247765,-3.4003,0.207995,0.28366,0.622612,
2,1,0,0,0,46668.5,0.627042,0.626761,0.416585,70,0.041226,10,0.000261099,-3.3803,0.187251,0.315085,0.626578,
2,1,0,1,0,46669.3,0.631037,0.630733,0.438666,70,0.0415742,10,0.000276681,-3.35787,0.172515,0.341998,0.63054,
2,1,0,1,0,46670.1,0.635032,0.63475,0.46336,70,0.0419405,10,0.000294118,-3.33408,0.158489,0.372265,0.634546,
2,1,0,1,0,46670.9,0.639027,0.638752,0.491953,70,0.0423284,10,0.000314236,-3.30808,0.144776,0.407525,0.638535,
2,1,0,1,0,46671.7,0.643022,0.642739,0.527004,70,0.0427419,10,0.000338726,-3.27819,0.133368,0.442386,0.642507,
2,1,0,0,0,46672.5,0.647018,0.646762,0.565166,70,0.0431845,10,0.000365528,-3.24782,0.121513,0.485546,0.646514,
2,1,0,1,0,46673.3,0.651013,0.650781,0.61199,70,0.043661,10,0.000398272,-3.21326,0.110774,0.532616,0.650512,
2,1,0,1,0,46674.1,0.655008,0.654723,0.667159,70,0.0441779,10,0.000436804,-3.17577,0.104496,0.564617,0.65443,
2,1,0,1,0,46674.9,0.659003,0.658696,0.728594,70,0.0447413,10,0.000479922,-3.13751,0.0992712,0.594331,0.658376,
2,1,0,1,0,46675.7,0.662998,0.662721,0.802335,70,0.0453589,10,0.000531725,-3.09564,0.0953028,0.61908,0.662368,
2,1,0,0,0,46676.5,0.666994,0.666734,0.885834,70,0.0460386,10,0.000590616,-3.05265,0.0889382,0.663382,0.666344,
2,1,0,1,0,46677.3,0.670989,0.670752,0.981208,70,0.0467899,10,0.000658147,-3.00824,0.0870024,0.678142,0.67032,
2,1,0,0,0,46678.1,0.674984,0.674705,1.08934,70,0.047623,10,0.000734987,-2.96283,0.0864476,0.682495,0.674226,
2,1,0,1,0,46678.9,0.67898,0.678734,1.21348,70,0.0485489,10,0.000823629,-2.91597,0.0824757,0.715362,0.6782,
2,1,0,1,0,46679.7,0.682974,0.682686,1.3538,70,0.0495806,10,0.000924221,-2.86844,0.0829879,0.710947,0.68209,
2,1,0,1,0,46680.5,0.686969,0.686718,1.51138,70,0.0507304,10,0.00103789,-2.82063,0.0840243,0.702178,0.686053,
2,1,0,1,0,46681.3,0.690965,0.690696,1.68305,70,0.0520118,10,0.00116248,-2.7739,0.0823833,0.716164,0.689955,
2,1,0,0,0,46682.1,0.69496,0.694738,1.87602,70,0.0534395,10,0.00130335,-2.72676,0.0838759,0.70342,0.693913,
2,1,0,1,0,46682.9,0.698955,0.698659,2.0855,70,0.0550279,10,0.00145705,-2.68079,0.0855562,0.689605,0.697741,
2,1,0,1,0,46683.7,0.70295,0.702688,2.31536,70,0.0567924,10,0.00162697,-2.63538,0.086186,0.684566,0.701669,
2,1,0,1,0,46684.5,0.706945,0.70671,2.56434,70,0.0587477,10,0.00181225,-2.59102,0.0891045,0.662144,0.705582,
2,1,0,1,0,46685.3,0.71094,0.710666,2.83241,70,0.0609089,10,0.0020129,-2.54784,0.0907312,0.650272,0.70942,
2,1,0,0,0,46686.1,0.714936,0.714689,3.11769,70,0.0632919,10,0.00222818,-2.50617,0.0932803,0.632502,0.713317,
2,1,0,1,0,46686.9,0.718931,0.718689,3.42461,70,0.0659114,10,0.00246123,-2.46539,0.0977011,0.603883,0.717182,
2,1,0,1,0,46687.7,0.722927,0.722629,3.75083,70,0.068784,10,0.00271046,-2.42587,0.0981194,0.601308,0.720979,
2,1,0,1,0,46688.5,0.726921,0.726663,4.09715,70,0.0719248,10,0.00297724,-2.38752,0.102564,0.575251,0.72486,
2,1,0,1,0,46689.3,0.730916,0.7306,4.46137,70,0.0753495,10,0.00325948,-2.35053,0.104792,0.563022,0.728637,
2,1,0,1,0,46690.1,0.734911,0.73464,4.84791,70,0.0790745,10,0.00356147,-2.31445,0.107788,0.547371,0.732507,
2,1,0,1,0,46690.9,0.738907,0.73861,5.2545,70,0.0831167,10,0.00388103,-2.27947,0.109652,0.538065,0.736298,
2,1,0,0,0,46691.7,0.742902,0.742606,5.68248,70,0.0874917,10,0.00421985,-2.24546,0.111781,0.527817,0.740106,
2,1,0,1,0,46692.5,0.746897,0.746628,6.13333,70,0.0922189,10,0.00457932,-2.2123,0.116513,0.506382,0.74393,
2,1,0,1,0,46693.3,0.750892,0.750657,6.6064,70,0.0973141,10,0.00495914,-2.18004,0.119658,0.493071,0.74775,
2,1,0,1,0,46694.1,0.754887,0.754594,7.10372,70,0.102797,10,0.00536042,-2.14851,0.119633,0.493176,0.751469,
2,1,0,1,0,46694.9,0.758883,0.758613,7.62841,70,0.108689,10,0.00578701,-2.11757,0.123049,0.479485,0.755256,
2,1,0,0,0,46695.7,0.762878,0.76262,8.17571,70,0.115008,10,0.00623496,-2.08747,0.128365,0.459628,0.759023,
2,1,0,1,0,46696.5,0.766873,0.766555,8.75289,70,0.121776,10,0.00670958,-2.05785,0.124972,0.472105,0.762704,
2,1,0,1,0,46697.3,0.770868,0.77058,9.36138,70,0.129019,10,0.00721369,-2.02866,0.127877,0.46138,0.766461,
2,1,0,1,0,46698.1,0.774863,0.774594,10.0023,70,0.13676,10,0.00774775,-1.9999,0.129594,0.455269,0.770193,
2,1,0,1,0,46698.9,0.778858,0.778574,10.6856,70,0.145029,10,0.00831957,-1.9712,0.128859,0.457864,0.773872,
2,1,0,0,0,46699.7,0.782854,0.78261,11.4087,70,0.15386,10,0.00892855,-1.94276,0.12737,0.463216,0.77759,
2,1,0,1,0,46700.5,0.786849,0.786602,12.1862,70,0.163294,10,0.00958567,-1.91413,0.12953,0.455493,0.78124,
2,1,0,0,0,46701.3,0.790844,0.790561,13.0107,70,0.173365,10,0.0102858,-1.8857,0.127047,0.464393,0.784836,
2,1,0,1,0,46702.1,0.794839,0.794558,13.8935,70,0.184117,10,0.0110392,-1.85719,0.125943,0.468464,0.788445,
2,1,0,1,0,46702.9,0.798834,0.798531,14.8257,70,0.195598,10,0.0118388,-1.82899,0.128193,0.460244,0.792007,
2,1,0,1,0,46703.7,0.802829,0.802613,15.8062,70,0.207842,10,0.0126863,-1.80117,0.129686,0.454946,0.795658,
2,1,0,1,0,46704.5,0.806825,0.806591,16.8427,70,0.22089,10,0.0135852,-1.77359,0.126357,0.466932,0.79918,
2,1,0,0,0,46705.3,0.81082,0.810542,17.9597,70,0.234798,10,0.0145571,-1.7457,0.127423,0.463025,0.80264,
2,1,0,1,0,46706.1,0.814815,0.814531,19.1043,70,0.249612,10,0.0155611,-1.71887,0.129759,0.454689,0.806125,
2,1,0,1,0,46706.9,0.81881,0.818528,20.3115,70,0.265365,10,0.0166255,-1.69226,0.132319,0.445891,0.809591,
2,1,0,1,0,46707.7,0.822805,0.822616,21.5238,70,0.282088,10,0.0177058,-1.66708,0.142573,0.413822,0.813145,
2,1,0,1,0,46708.5,0.826801,0.826585,22.7576,70,0.299786,10,0.0188111,-1.64287,0.144011,0.40969,0.816572,
2,1,0,0,0,46709.3,0.830796,0.830542,24.0376,70,0.318489,10,0.0199642,-1.61911,0.147206,0.400799,0.819966,
2,1,0,1,0,46710.1,0.834791,0.834581,25.3502,70,0.338224,10,0.0211568,-1.59602,0.144502,0.4083,0.823427,
2,1,0,1,0,46710.9,0.838786,0.838521,26.5035,70,0.358962,10,0.0222237,-1.5767,0.182828,0.322708,0.826859,
2,1,0,1,0,46711.7,0.842781,0.842558,27.9204,70,0.380712,10,0.0235245,-1.55408,0.153006,0.385605,0.830273,
2,1,0,1,0,46712.5,0.846776,0.846591,29.3383,70,0.403595,10,0.0248375,-1.53257,0.161614,0.365067,0.833682,
2,1,0,1,0,46713.2,0.849723,0.849477,30.2743,70,0.424553,10,0.0257173,-1.51893,0.0469701,1.25612,0.836156,
2,1,0,0,0,46714,0.845728,0.845472,28.1498,70,0.447826,10,0.0237999,-1.55052,0.112613,0.523919,0.833086,
2,1,0,1,0,46714.8,0.841732,0.841522,26.4104,70,0.469598,10,0.022225,-1.57822,0.121968,0.483732,0.829901,
2,1,0,1,0,46715.6,0.837737,0.837486,24.8238,70,0.490055,10,0.0207895,-1.60513,0.123508,0.477704,0.826563,
2,1,0,1,0,46716.4,0.833742,0.833489,23.3406,70,0.509281,10,0.0194542,-1.63189,0.120982,0.487677,0.823219,
2,1,0,1,0,46717.2,0.829747,0.829465,21.9159,70,0.527342,10,0.0181785,-1.65924,0.122051,0.483405,0.819822,
2,1,0,0,0,46718,0.825752,0.825526,20.5841,70,0.544303,10,0.0169927,-1.68647,0.130252,0.452968,0.816469,
2,1,0,1,0,46718.8,0.821757,0.821546,19.3299,70,0.560233,10,0.0158804,-1.71377,0.124711,0.473095,0.813041,
2,1,0,1,0,46719.6,0.817761,0.817507,18.1134,70,0.57518,10,0.0148079,-1.742,0.123786,0.47663,0.809538,
2,1,0,1,0,46720.4,0.813766,0.813493,16.9672,70,0.589185,10,0.0138027,-1.77039,0.121573,0.485305,0.806027,
2,1,0,1,0,46721.2,0.809771,0.809511,15.876,70,0.602295,10,0.0128518,-1.79926,0.121533,0.485466,0.802525,
2,1,0,1,0,46722,0.805776,0.805484,14.8188,70,0.614549,10,0.0119363,-1.82919,0.11514,0.51242,0.798964,
2,1,0,1,0,46722.8,0.801781,0.80152,13.8171,70,0.625974,10,0.0110747,-1.85958,0.117082,0.503921,0.795441,
2,1,0,0,0,46723.6,0.797786,0.797536,12.8839,70,0.63663,10,0.0102754,-1.88995,0.11838,0.498397,0.791867,
2,1,0,1,0,46724.4,0.79379,0.793505,12.0035,70,0.646562,10,0.00952486,-1.92069,0.117058,0.504026,0.788224,
2,1,0,1,0,46725.2,0.789795,0.789514,11.1802,70,0.655814,10,0.00882693,-1.95155,0.117452,0.502331,0.784595,
2,1,0,1,0,46726,0.7858,0.785528,10.3957,70,0.664423,10,0.00816615,-1.98314,0.114585,0.514901,0.780954,
2,1,0,1,0,46726.8,0.781805,0.781522,9.65368,70,0.672424,10,0.00754456,-2.01531,0.114676,0.514494,0.777274,
2,1,0,0,0,46727.5,0.77781,0.777524,8.96359,70,0.679851,10,0.00696941,-2.04752,0.112842,0.522855,0.77358,
2,1,0,1,0,46728.3,0.773814,0.773558,8.3116,70,0.686743,10,0.00642951,-2.08032,0.112772,0.523178,0.769901,
2,1,0,1,0,46729.1,0.769819,0.769562,7.69981,70,0.693131,10,0.00592549,-2.11352,0.111868,0.527409,0.766174,
2,1,0,1,0,46729.9,0.765824,0.765603,7.12413,70,0.699043,10,0.00545426,-2.14727,0.110731,0.532821,0.762469,
2,1,0,1,0,46730.7,0.761829,0.761556,6.58271,70,0.704509,10,0.0050131,-2.18159,0.108664,0.54296,0.758659,
2,1,0,0,0,46731.5,0.757834,0.757563,6.07455,70,0.709558,10,0.00460185,-2.21649,0.107703,0.547805,0.75489,
2,1,0,1,0,46732.3,0.753839,0.753586,5.59491,70,0.714211,10,0.00421624,-2.25221,0.104035,0.567118,0.751124,
2,1,0,0,0,46733.1,0.749844,0.749577,5.14395,70,0.718493,10,0.00385578,-2.2887,0.103973,0.567457,0.747314,
2,1,0,1,0,46733.9,0.745848,0.745602,4.72255,70,0.722427,10,0.00352114,-2.32582,0.100311,0.588171,0.743524,
2,1,0,1,0,46734.7,0.741853,0.74156,4.32286,70,0.726031,10,0.00320566,-2.36423,0.0984023,0.599579,0.739658,
2,1,0,1,0,46735.5,0.737858,0.737601,3.94891,70,0.729328,10,0.00291272,-2.40352,0.100187,0.588897,0.735864,
2,1,0,1,0,46736.3,0.733863,0.733606,3.61781,70,0.732344,10,0.00265405,-2.44155,0.0973793,0.605878,0.732015,
2,1,0,0,0,46737.1,0.729868,0.729576,3.28905,70,0.735095,10,0.00239961,-2.48293,0.0904045,0.652623,0.728129,
2,1,0,1,0,46737.9,0.725872,0.725611,2.98128,70,0.737592,10,0.00216325,-2.5256,0.0883553,0.667759,0.7243,
2,1,0,1,0,46738.7,0.721877,0.721636,2.69092,70,0.73985,10,0.00194187,-2.5701,0.0873882,0.675149,0.720452,
2,1,0,1,0,46739.5,0.717882,0.717587,2.42214,70,0.741885,10,0.0017381,-2.6158,0.0828646,0.712005,0.716521,
2,1,0,1,0,46740.3,0.713887,0.713643,2.16969,70,0.743712,10,0.00154838,-2.6636,0.0790685,0.746188,0.712688,
2,1,0,0,0,46741.1,0.709892,0.709611,1.93479,70,0.745344,10,0.00137295,-2.71337,0.0775962,0.760347,0.70876,
2,1,0,1,0,46741.9,0.705897,0.705593,1.71667,70,0.746795,10,0.00121127,-2.76531,0.0729586,0.808678,0.704837,
2,1,0,1,0,46742.7,0.701901,0.701602,1.51737,70,0.748078,10,0.00106459,-2.81891,0.0710829,0.830017,0.700934,
2,1,0,1,0,46743.5,0.697906,0.69769,1.3319,70,0.749209,10,0.000929254,-2.87553,0.0686019,0.860035,0.697104,
2,1,0,1,0,46744.3,0.693911,0.693668,1.1634,70,0.750197,10,0.000807012,-2.93427,0.0655619,0.899914,0.693156,
2,1,0,0,0,46745.1,0.689916,0.689673,1.00934,70,0.751057,10,0.000696115,-2.99596,0.0669005,0.881907,0.689229,
2,1,0,1,0,46745.9,0.685921,0.685682,0.878422,70,0.751807,10,0.000602319,-3.0563,0.0592075,0.996496,0.685296,
2,1,0,0,0,46746.7,0.681926,0.681646,0.75212,70,0.752451,10,0.00051268,-3.12371,0.0573135,1.02943,0.681316,
2,1,0,1,0,46747.5,0.67793,0.677677,0.639429,70,0.752999,10,0.000433326,-3.19421,0.0538628,1.09538,0.677396,
2,1,0,1,0,46748.3,0.673935,0.673627,0.53821,70,0.753462,10,0.000362552,-3.26905,0.0525486,1.12277,0.67339,
2,1,0,1,0,46749.1,0.66994,0.6697,0.450865,70,0.753849,10,0.000301945,-3.34595,0.0495957,1.18962,0.669502,
2,1,0,1,0,46749.9,0.665945,0.665657,0.370882,70,0.75417,10,0.00024688,-3.43076,0.0460692,1.28068,0.665493,
2,1,0,0,0,46750.7,0.66195,0.661666,0.303173,70,0.754432,10,0.000200599,-3.51831,0.043065,1.37002,0.661533,
2,1,0,1,0,46751.5,0.657955,0.657677,0.243214,70,0.754643,10,0.000159956,-3.61401,0.0402485,1.46589,0.65757,
2,1,0,1,0,46752.3,0.653959,0.653694,0.192537,70,0.75481,10,0.00012586,-3.71549,0.0374201,1.57669,0.653609,
2,1,0,1,0,46753.1,0.649964,0.649681,0.148438,70,0.754939,10,9.64375e-05,-3.82845,0.0327318,1.80253,0.649615,
2,1,0,1,0,46753.9,0.64597,0.645717,0.110488,70,0.755035,10,7.13438e-05,-3.95669,0.0293047,2.01333,0.645669,
2,1,0,0,0,46754.7,0.641974,0.641664,0.0783371,70,0.755103,10,5.02661e-05,-4.10603,0.0237603,2.48314,0.641629,
2,1,0,1,0,46755.5,0.637979,0.637703,0.0521936,70,0.755147,10,3.3284e-05,-4.28238,0.0263914,2.23558,0.63768,
2,1,0,1,0,46756.3,0.633983,0.633731,0.0304338,70,0.755176,10,1.92868e-05,-4.51664,0.0116439,5.06704,0.633718,
2,1,0,1,0,46757.1,0.629988,0.629712,0.00972626,70,0.755185,10,6.12474e-06,-5.01205,0.00280632,21.0239,0.629708,
2,0,0,1,0,46757.9,0.625993,0.625716,-0.00701401,70,0.755179,10,-4.38878e-06,-5.15403,-0.00314627,-18.7524,0.62572,
2,0,0,0,0,46758.7,0.621998,0.62167,-0.0196309,70,0.755162,10,-1.2204e-05,-4.70706,-0.0137035,-4.30546,0.621678,
2,0,0,1,0,46759.5,0.618003,0.617719,-0.0308071,70,0.755135,10,-1.90301e-05,-4.51135,-0.0287599,-2.05147,0.617732,
2,0,0,0,0,46760.3,0.614008,0.613708,-0.0402033,70,0.755099,10,-2.46731e-05,-4.39574,-0.049647,-1.18839,0.613726,
2,0,0,1,0,46761.1,0.610012,0.609738,-0.0489074,70,0.755057,10,-2.98207e-05,-4.31063,-0.0632285,-0.933124,0.609759,
2,0,0,1,0,46761.9,0.606017,0.605763,-0.0542345,70,0.755008,10,-3.28533e-05,-4.26572,-0.0825728,-0.714521,0.605787,
2,0,0,1,0,46762.7,0.602022,0.601748,-0.0607911,70,0.754955,10,-3.65809e-05,-4.21616,-0.0907714,-0.649984,0.601775,
2,0,0,1,0,46763.5,0.598027,0.597718,-0.0659965,70,0.754897,10,-3.94473e-05,-4.18048,-0.11624,-0.507569,0.597748,
2,0,0,0,0,46764.3,0.594032,0.593719,-0.0707991,70,0.754835,10,-4.20348e-05,-4.14997,-0.169235,-0.348627,0.59375,
2,0,0,1,0,46765.1,0.590037,0.589768,-0.0748155,70,0.75477,10,-4.41238e-05,-4.12601,-0.178293,-0.330915,0.5898,
2,0,0,1,0,46765.9,0.586041,0.585764,-0.0772526,70,0.754703,10,-4.52518e-05,-4.11209,-0.241404,-0.244403,0.585798,
2,0,0,1,0,46766.7,0.582046,0.581775,-0.0803257,70,0.754632,10,-4.67315e-05,-4.09515,-0.414167,-0.142455,0.58181,
2,0,0,1,0,46767.5,0.578052,0.577753,-0.083079,70,0.75456,10,-4.79991e-05,-4.08051,-0.280959,-0.209995,0.577789,
2,0,0,0,0,46768.3,0.574056,0.573811,-0.0846372,70,0.754485,10,-4.85657e-05,-4.07244,-0.371578,-0.158782,0.573848,
2,0,0,1,0,46769.1,0.570061,0.569777,-0.0872461,70,0.754409,10,-4.97108e-05,-4.05925,-0.683995,-0.0862579,0.569815,
2,0,0,1,0,46769.9,0.566065,0.565743,-0.0892049,70,0.754332,10,-5.0467e-05,-4.04961,-0.349958,-0.168592,0.565782,
2,0,0,1,0,46770.7,0.56207,0.561772,-0.0908908,70,0.754253,10,-5.10599e-05,-4.04148,-0.584614,-0.100921,0.561812,
2,0,0,1,0,46771.5,0.558075,0.557778,-0.0919457,70,0.754173,10,-5.12853e-05,-4.03647,-0.787604,-0.0749107,0.557819,
2,0,0,1,0,46772.3,0.55408,0.553818,-0.0934044,70,0.754092,10,-5.1729e-05,-4.02963,-0.34809,-0.169497,0.553859,
2,0,0,1,0,46773.1,0.550085,0.549798,-0.0944236,70,0.754009,10,-5.19139e-05,-4.02492,-3.59904,-0.0163933,0.549839,
2,0,0,0,0,46773.9,0.54609,0.54582,-0.0952598,70,0.753926,10,-5.19947e-05,-4.02109,-0.710468,-0.0830439,0.545862,
2,0,0,1,0,46774.7,0.542094,0.541793,-0.0966927,70,0.753842,10,-5.23874e-05,-4.01461,-0.640451,-0.0921227,0.541836,
2,0,0,1,0,46775.5,0.538099,0.537805,-0.0971451,70,0.753757,10,-5.22452e-05,-4.01258,-2.29882,-0.0256654,0.537848,
2,0,0,1,0,46776.3,0.534104,0.533804,-0.0983883,70,0.753671,10,-5.252e-05,-4.00706,-0.601962,-0.0980128,0.533847,
2,0,0,1,0,46777.1,0.530109,0.529835,-0.0989038,70,0.753584,10,-5.24027e-05,-4.00479,-0.687095,-0.0858688,0.529879,
2,0,0,0,0,46777.9,0.526114,0.525776,-0.100701,70,0.753497,10,-5.29464e-05,-3.99696,-0.720255,-0.0819154,0.525821,
2,0,0,1,0,46778.7,0.522119,0.521824,-0.102309,70,0.753408,10,-5.33874e-05,-3.99009,-0.872242,-0.0676418,0.521869,
2,0,0,1,0,46779.5,0.518123,0.517794,-0.10385,70,0.753318,10,-5.3773e-05,-3.98359,-1.77313,-0.0332745,0.51784,
2,0,0,1,0,46780.3,0.514128,0.513806,-0.103993,70,0.753228,10,-5.34323e-05,-3.983,-0.624427,-0.0944866,0.513852,
2,0,0,1,0,46781.1,0.510133,0.509875,-0.104809,70,0.753136,10,-5.34392e-05,-3.9796,-1.03252,-0.0571417,0.509921,
2,0,0,0,0,46781.9,0.506138,0.505836,-0.106881,70,0.753044,10,-5.40641e-05,-3.9711,-0.943729,-0.062518,0.505883,
2,0,0,1,0,46782.7,0.502143,0.501844,-0.107274,70,0.752951,10,-5.38347e-05,-3.96951,-1.12696,-0.0523533,0.501891,
2,0,0,0,0,46783.5,0.498148,0.497845,-0.108819,70,0.752857,10,-5.41748e-05,-3.9633,-0.536697,-0.109932,0.497893,
2,0,0,1,0,46784.3,0.494152,0.493886,-0.110573,70,0.752761,10,-5.46105e-05,-3.95635,-0.937448,-0.0629368,0.493935,
2,0,0,1,0,46785.1,0.490157,0.489854,-0.111079,70,0.752665,10,-5.44127e-05,-3.95437,-0.672865,-0.0876848,0.489903,
2,0,0,1,0,46785.9,0.486162,0.485852,-0.113121,70,0.752568,10,-5.49603e-05,-3.94646,-1.25827,-0.0468896,0.485902,
2,0,0,1,0,46786.7,0.482167,0.481831,-0.114843,70,0.752469,10,-5.53348e-05,-3.9399,-0.765266,-0.0770973,0.481881,
2,0,0,0,0,46787.5,0.478172,0.477908,-0.115479,70,0.75237,10,-5.51883e-05,-3.9375,-0.76434,-0.0771907,0.477959,
2,0,0,1,0,46788.3,0.474177,0.473865,-0.117244,70,0.752269,10,-5.55579e-05,-3.93091,-1.44873,-0.0407253,0.473917,
2,0,0,1,0,46789.1,0.470181,0.469918,-0.117465,70,0.752168,10,-5.51989e-05,-3.93009,-0.48294,-0.122168,0.46997,
2,0,0,1,0,46789.9,0.466186,0.46588,-0.119665,70,0.752065,10,-5.57494e-05,-3.92203,-0.690693,-0.0854214,0.465933,
2,0,0,1,0,46790.7,0.462191,0.461924,-0.122375,70,0.75196,10,-5.65278e-05,-3.91231,-0.609431,-0.0968115,0.461978,
2,0,0,0,0,46791.5,0.458196,0.45789,-0.12283,70,0.751855,10,-5.62427e-05,-3.9107,-0.97767,-0.0603476,0.457944,
2,0,0,1,0,46792.3,0.454201,0.453959,-0.123482,70,0.751748,10,-5.60559e-05,-3.9084,-0.988935,-0.0596601,0.454013,
2,0,0,1,0,46793.1,0.450205,0.449908,-0.125973,70,0.75164,10,-5.66761e-05,-3.89972,-0.625722,-0.0942911,0.449963,
2,0,0,1,0,46793.9,0.44621,0.445935,-0.127434,70,0.751531,10,-5.68273e-05,-3.89471,-0.51832,-0.113829,0.445991,
2,0,0,1,0,46794.7,0.442215,0.441929,-0.128776,70,0.75142,10,-5.69097e-05,-3.89017,-1.28746,-0.0458268,0.441986,
2,0,0,0,0,46795.5,0.43822,0.437897,-0.130655,70,0.751308,10,-5.72136e-05,-3.88387,-0.455155,-0.129626,0.437955,
2,0,0,1,0,46796.3,0.434225,0.433899,-0.132396,70,0.751195,10,-5.74464e-05,-3.87813,-1.3811,-0.0427197,0.433958,
2,0,0,0,0,46797.1,0.43023,0.429932,-0.134441,70,0.75108,10,-5.78004e-05,-3.87147,-0.728799,-0.0809551,0.429992,
2,0,0,1,0,46797.9,0.426234,0.425892,-0.136587,70,0.750963,10,-5.81713e-05,-3.86459,-0.381213,-0.154769,0.425952,
2,0,0,1,0,46798.7,0.422239,0.421961,-0.138575,70,0.750845,10,-5.84735e-05,-3.85831,-1.47123,-0.0401026,0.422022,
2,0,0,1,0,46799.5,0.418244,0.417907,-0.140424,70,0.750726,10,-5.86841e-05,-3.85256,-0.409298,-0.144149,0.417968,
2,0,0,1,0,46800.3,0.414249,0.413967,-0.141631,70,0.750604,10,-5.86307e-05,-3.84884,-1.85146,-0.0318667,0.414029,
2,0,0,0,0,46801.1,0.410254,0.40995,-0.143762,70,0.750481,10,-5.89351e-05,-3.84236,-0.649777,-0.0908004,0.410013,
2,0,0,1,0,46801.9,0.406259,0.405958,-0.14634,70,0.750356,10,-5.94077e-05,-3.83464,-0.538075,-0.10965,0.406022,
2,0,0,1,0,46802.7,0.402263,0.401953,-0.148355,70,0.75023,10,-5.96318e-05,-3.8287,-1.25463,-0.047026,0.402019,
2,0,0,1,0,46803.5,0.398268,0.397942,-0.150762,70,0.750102,10,-5.99945e-05,-3.82171,-0.390459,-0.151104,0.398009,
2,0,0,1,0,46804.3,0.394274,0.393934,-0.152295,70,0.749972,10,-5.99942e-05,-3.81731,-1.13083,-0.0521739,0.394001,
2,0,0,0,0,46805.1,0.390278,0.389958,-0.154278,70,0.749841,10,-6.01621e-05,-3.8117,-0.965998,-0.0610767,0.390026,
2,0,0,1,0,46805.9,0.386283,0.385995,-0.157137,70,0.749708,10,-6.06542e-05,-3.80372,-0.59126,-0.0997868,0.386064,
2,0,0,1,0,46806.7,0.382287,0.381979,-0.158646,70,0.749573,10,-6.05996e-05,-3.79957,-0.586545,-0.100589,0.382049,
2,0,0,1,0,46807.5,0.378292,0.377961,-0.160651,70,0.749437,10,-6.07199e-05,-3.79412,-2.1633,-0.0272732,0.378032,
2,0,0,1,0,46808.3,0.374297,0.373989,-0.16305,70,0.749298,10,-6.09789e-05,-3.78768,-0.42065,-0.140259,0.37406,
2,0,0,1,0,46809.1,0.370303,0.369986,-0.164799,70,0.749158,10,-6.09733e-05,-3.78305,-0.733702,-0.0804141,0.370059,
2,0,0,1,0,46809.9,0.366307,0.365946,-0.167544,70,0.749016,10,-6.1312e-05,-3.77587,-0.644502,-0.0915435,0.36602,
2,0,0,0,0,46810.6,0.362312,0.362029,-0.169487,70,0.748872,10,-6.13593e-05,-3.77086,-0.68661,-0.0859294,0.362104,
2,0,0,1,0,46811.4,0.358316,0.358021,-0.171358,70,0.748727,10,-6.13496e-05,-3.7661,-0.974522,-0.0605425,0.358096,
2,0,0,1,0,46812.2,0.354321,0.354032,-0.172957,70,0.748579,10,-6.12321e-05,-3.76206,-0.625551,-0.0943169,0.354108,
2,0,0,1,0,46813,0.350327,0.350039,-0.175752,70,0.74843,10,-6.152e-05,-3.7551,-0.597754,-0.0987028,0.350116,
2,0,0,1,0,46813.8,0.346331,0.346017,-0.177184,70,0.748279,10,-6.13088e-05,-3.75157,-1.60251,-0.0368171,0.346095,
2,0,0,0,0,46814.6,0.342336,0.342025,-0.180342,70,0.748126,10,-6.16816e-05,-3.7439,-0.500947,-0.117777,0.342104,
2,0,0,1,0,46815.4,0.338341,0.33806,-0.183396,70,0.747971,10,-6.19987e-05,-3.73661,-0.801229,-0.0736369,0.338141,
2,0,0,1,0,46816.2,0.334345,0.33403,-0.186004,70,0.747814,10,-6.21308e-05,-3.73048,-0.608741,-0.0969213,0.334112,
2,0,0,1,0,46817,0.33035,0.330049,-0.188521,70,0.747654,10,-6.22211e-05,-3.72464,-0.747031,-0.0789793,0.330131,
2,0,0,1,0,46817.8,0.326355,0.326061,-0.190197,70,0.747493,10,-6.20157e-05,-3.7208,-0.773614,-0.0762654,0.326144,
2,0,0,0,0,46818.6,0.32236,0.322085,-0.191893,70,0.74733,10,-6.18057e-05,-3.71694,-0.714309,-0.0825973,0.322169,
2,0,0,1,0,46819.4,0.318365,0.31803,-0.194454,70,0.747165,10,-6.18423e-05,-3.71118,-0.680668,-0.0866795,0.318115,
2,0,0,0,0,46820.2,0.31437,0.314045,-0.196973,70,0.746998,10,-6.18583e-05,-3.70559,-1.84346,-0.032005,0.314132,
2,0,0,1,0,46821,0.310374,0.31005,-0.200328,70,0.74683,10,-6.21118e-05,-3.69826,-0.410835,-0.14361,0.310138,
2,0,0,1,0,46821.8,0.306379,0.306042,-0.202308,70,0.746658,10,-6.19147e-05,-3.69399,-1.12788,-0.0523103,0.306131,
2,0,0,1,0,46822.6,0.302385,0.302082,-0.205516,70,0.746486,10,-6.20826e-05,-3.68715,-0.509939,-0.1157,0.302172,
2,0,0,1,0,46823.4,0.298389,0.298058,-0.208647,70,0.746311,10,-6.2189e-05,-3.68059,-1.11652,-0.0528428,0.29815,
2,0,0,0,0,46824.2,0.294394,0.294082,-0.20967,70,0.746133,10,-6.16602e-05,-3.67846,-0.830742,-0.0710209,0.294174,
2,0,0,1,0,46825,0.290398,0.29008,-0.213321,70,0.745954,10,-6.18803e-05,-3.67097,-0.582945,-0.10121,0.290174,
2,0,0,1,0,46825.8,0.286403,0.286099,-0.214301,70,0.745773,10,-6.13112e-05,-3.66898,-1.25973,-0.0468355,0.286193,
2,0,0,1,0,46826.6,0.282408,0.282089,-0.218536,70,0.745589,10,-6.16466e-05,-3.66048,-0.886503,-0.0665537,0.282185,
2,0,0,1,0,46827.4,0.278414,0.278119,-0.220481,70,0.745403,10,-6.13199e-05,-3.65663,-0.445606,-0.132404,0.278216,
2,0,0,0,0,46828.2,0.274418,0.274098,-0.223327,70,0.745215,10,-6.12137e-05,-3.65106,-1.40673,-0.0419413,0.274197,
2,0,0,1,0,46829,0.270423,0.270128,-0.226341,70,0.745025,10,-6.11412e-05,-3.64524,-0.792571,-0.0744413,0.270228,
2,0,0,1,0,46829.8,0.266427,0.266129,-0.228879,70,0.744832,10,-6.09113e-05,-3.64039,-0.776875,-0.0759453,0.26623,
2,0,0,1,0,46830.6,0.262432,0.262106,-0.231076,70,0.744638,10,-6.05665e-05,-3.63625,-0.774527,-0.0761755,0.262208,
2,0,0,1,0,46831.4,0.258437,0.258144,-0.233879,70,0.744442,10,-6.03744e-05,-3.63101,-1.01169,-0.0583183,0.258246,
2,0,0,0,0,46832.2,0.254442,0.254127,-0.23571,70,0.744243,10,-5.99001e-05,-3.62762,-0.832635,-0.0708594,0.25423,
2,0,0,1,0,46833,0.250447,0.250165,-0.238904,70,0.744042,10,-5.97655e-05,-3.62178,-1.25429,-0.0470387,0.25027,
2,0,0,0,0,46833.8,0.246452,0.246151,-0.241182,70,0.74384,10,-5.93673e-05,-3.61766,-0.513785,-0.114834,0.246257,
2,0,0,1,0,46834.6,0.242456,0.242142,-0.243928,70,0.743635,10,-5.90652e-05,-3.61274,-1.24689,-0.0473178,0.242249,
2,0,0,1,0,46835.4,0.238461,0.238129,-0.246255,70,0.743429,10,-5.86406e-05,-3.60861,-1.10153,-0.0535617,0.238238,
2,0,0,1,0,46836.2,0.234467,0.23416,-0.248344,70,0.74322,10,-5.81522e-05,-3.60495,-0.913517,-0.0645855,0.234269,
2,0,0,1,0,46837,0.230471,0.230191,-0.250933,70,0.74301,10,-5.77626e-05,-3.60044,-1.15501,-0.0510818,0.230302,
2,0,0,0,0,46837.8,0.226476,0.226169,-0.253303,70,0.742797,10,-5.72894e-05,-3.59636,-1.70976,-0.0345077,0.22628,
2,0,0,1,0,46838.6,0.222481,0.222163,-0.255278,70,0.742583,10,-5.67134e-05,-3.59299,-0.491295,-0.120091,0.222275,
2,0,0,1,0,46839.4,0.218485,0.218194,-0.258496,70,0.742366,10,-5.64025e-05,-3.58755,-114.817,-0.000513862,0.218308,
2,0,0,1,0,46840.2,0.21449,0.214191,-0.261595,70,0.742147,10,-5.60312e-05,-3.58237,-0.444151,-0.132838,0.214306,
2,0,0,1,0,46841,0.210496,0.210183,-0.264015,70,0.741926,10,-5.54914e-05,-3.57837,-0.704857,-0.0837049,0.210299,
2,0,0,0,0,46841.8,0.2065,0.206159,-0.269061,70,0.741702,10,-5.54695e-05,-3.57015,-0.757918,-0.0778449,0.206278,
2,0,0,1,0,46842.6,0.202505,0.202184,-0.271787,70,0.741476,10,-5.49508e-05,-3.56577,-0.748936,-0.0787784,0.202303,
2,0,0,1,0,46843.4,0.198509,0.198205,-0.274451,70,0.741247,10,-5.43974e-05,-3.56154,-1.13496,-0.0519844,0.198325,
2,0,0,1,0,46844.2,0.194514,0.194179,-0.276926,70,0.741016,10,-5.37731e-05,-3.55764,-0.765164,-0.0771076,0.1943,
2,0,0,1,0,46845,0.190519,0.190205,-0.280111,70,0.740782,10,-5.32785e-05,-3.55267,-0.673522,-0.0875993,0.190328,
2,0,0,0,0,46845.8,0.186524,0.1862,-0.285079,70,0.740544,10,-5.30817e-05,-3.54504,-0.617632,-0.0955262,0.186326,
2,0,0,1,0,46846.6,0.182529,0.182242,-0.289715,70,0.740303,10,-5.27981e-05,-3.53803,-0.48629,-0.121327,0.182369,
2,0,0,0,0,46847.4,0.178534,0.178233,-0.295302,70,0.740057,10,-5.26327e-05,-3.52973,-0.543184,-0.108619,0.178363,
2,0,0,1,0,46848.2,0.174538,0.174217,-0.300749,70,0.739808,10,-5.23956e-05,-3.5218,-0.377941,-0.156109,0.17435,
2,0,0,1,0,46849,0.170543,0.17021,-0.307076,70,0.739554,10,-5.22675e-05,-3.51275,-0.363266,-0.162415,0.170345,
2,0,0,1,0,46849.8,0.166549,0.166238,-0.315609,70,0.739293,10,-5.24663e-05,-3.50085,-0.426435,-0.138356,0.166377,
2,0,0,1,0,46850.6,0.162553,0.162249,-0.324426,70,0.739025,10,-5.26377e-05,-3.48888,-0.273582,-0.215658,0.162392,
2,0,0,0,0,46851.4,0.158558,0.158307,-0.335163,70,0.73875,10,-5.30587e-05,-3.47474,-0.241078,-0.244734,0.158455,
2,0,0,1,0,46852.2,0.154563,0.154237,-0.352174,70,0.738463,10,-5.43184e-05,-3.45324,-0.19512,-0.302378,0.154392,
2,0,0,1,0,46853,0.150567,0.150264,-0.371693,70,0.738162,10,-5.58521e-05,-3.42982,-0.136914,-0.430926,0.150428,
2,0,0,1,0,46853.8,0.146572,0.146193,-0.397358,70,0.737843,10,-5.8091e-05,-3.40082,-0.123842,-0.476415,0.146368,
2,0,0,1,0,46854.6,0.142578,0.142274,-0.433313,70,0.7375,10,-6.16493e-05,-3.3632,-0.102637,-0.574844,0.142465,
2,0,0,0,0,46855.4,0.138582,0.13826,-0.475034,70,0.737125,10,-6.56783e-05,-3.32328,-0.0919573,-0.641602,0.138469,
2,0,0,1,0,46856.2,0.134587,0.134249,-0.524312,70,0.736713,10,-7.03882e-05,-3.28041,-0.0993505,-0.593857,0.134479,
2,0,0,1,0,46857,0.130591,0.130272,-0.573595,70,0.736262,10,-7.47231e-05,-3.24139,-0.110943,-0.531806,0.130524,
2,0,0,1,0,46857.8,0.126596,0.126256,-0.61548,70,0.735773,10,-7.77083e-05,-3.21079,-0.15151,-0.389414,0.126527,
2,0,0,1,0,46858.6,0.122602,0.122299,-0.648826,70,0.735254,10,-7.93508e-05,-3.18787,-0.235813,-0.250198,0.122585,
2,0,0,1,0,46859.4,0.118607,0.118297,-0.667674,70,0.734715,10,-7.89841e-05,-3.17544,-0.372833,-0.158248,0.118591,
2,0,0,1,0,46860.2,0.114611,0.114352,-0.678042,70,0.734164,10,-7.75357e-05,-3.16874,-1.65776,-0.0355903,0.114651,
2,0,0,0,0,46861,0.110616,0.110316,-0.681619,70,0.733608,10,-7.51938e-05,-3.16646,-2.4112,-0.0244692,0.110616,
2,0,0,1,0,46861.8,0.10662,0.106296,-0.680407,70,0.733052,10,-7.23246e-05,-3.16723,5.18736,0.0113738,0.106595,
2,0,0,1,0,46862.6,0.102625,0.102336,-0.677456,70,0.732496,10,-6.9328e-05,-3.16912,1.03838,0.0568193,0.102634,
2,0,0,1,0,46863.4,0.0986305,0.0983214,-0.671462,70,0.731944,10,-6.60191e-05,-3.17298,1.57674,0.037419,0.0986169,
2,0,0,1,0,46864.2,0.0946351,0.0943456,-0.664271,70,0.731397,10,-6.26711e-05,-3.17765,0.855688,0.0689503,0.0946379,
2,0,0,0,0,46865,0.0906399,0.0902949,-0.659405,70,0.730855,10,-5.95409e-05,-3.18085,0.653401,0.0902967,0.090585,
2,0,0,1,0,46865.8,0.0866448,0.08633,-0.650257,70,0.73032,10,-5.61367e-05,-3.18691,0.796429,0.0740807,0.0866161,
2,0,0,1,0,46866.6,0.0826492,0.0823489,-0.641996,70,0.729791,10,-5.28677e-05,-3.19247,0.681996,0.0865108,0.0826314,
2,0,0,1,0,46867.4,0.0786544,0.0783506,-0.634291,70,0.72927,10,-4.96971e-05,-3.19771,0.769162,0.0767069,0.0786297,
2,0,0,1,0,46868.2,0.0746596,0.0743541,-0.62533,70,0.728756,10,-4.64958e-05,-3.20389,0.684347,0.0862136,0.0746292,
2,0,0,0,0,46869,0.0706641,0.0703486,-0.616863,70,0.728247,10,-4.33955e-05,-3.20981,0.643325,0.0917111,0.0706201,
2,0,0,1,0,46869.8,0.0666689,0.0663318,-0.607631,70,0.727746,10,-4.03052e-05,-3.21636,0.755155,0.0781297,0.0665992,
2,0,0,0,0,46870.6,0.0626737,0.0623405,-0.59852,70,0.72725,10,-3.7312e-05,-3.22292,0.54675,0.10791,0.0626038,
2,0,0,1,0,46871.4,0.0586783,0.0583351,-0.591329,70,0.726762,10,-3.44952e-05,-3.22817,0.590714,0.0998792,0.0585953,
2,0,0,1,0,46872.2,0.0546835,0.0543789,-0.581776,70,0.726281,10,-3.16363e-05,-3.23524,0.690184,0.0854844,0.0546349,
2,0,0,1,0,46873,0.0506886,0.0504091,-0.572999,70,0.725807,10,-2.88844e-05,-3.24185,0.525595,0.112254,0.0506612,
2,0,0,1,0,46873.8,0.046693,0.0463389,-0.563242,70,0.725341,10,-2.61e-05,-3.2493,0.499451,0.11813,0.0465867,
2,0,0,0,0,46874.6,0.0426979,0.0424334,-0.552752,70,0.724883,10,-2.34552e-05,-3.25747,0.603337,0.0977895,0.0426767,
2,0,0,1,0,46875.4,0.0387022,0.0383516,-0.543531,70,0.724433,10,-2.08453e-05,-3.26478,0.427602,0.137979,0.0385907,
2,0,0,1,0,46876.2,0.0347074,0.0343828,-0.533313,70,0.723991,10,-1.83368e-05,-3.27302,0.594556,0.0992336,0.0346175,
2,0,0,1,0,46877,0.0307126,0.0303822,-0.522398,70,0.723557,10,-1.58716e-05,-3.282,0.500304,0.117928,0.0306121,
2,0,0,1,0,46877.8,0.0267172,0.0264128,-0.515243,70,0.72313,10,-1.3609e-05,-3.28799,0.53628,0.110017,0.0266395,
2,0,0,0,0,46878.6,0.022722,0.0223886,-0.508349,70,0.72271,10,-1.13812e-05,-3.29384,0.809139,0.0729171,0.0226123,
2,0,0,1,0,46879.4,0.0187268,0.0184015,-0.501973,70,0.722295,10,-9.23703e-06,-3.29932,0.706516,0.0835084,0.0186223,
2,0,0,1,0,46880.2,0.0147313,0.0144202,-0.498168,70,0.721885,10,-7.1837e-06,-3.30262,1.48132,0.0398293,0.0146394,
2,0,0,1,0,46881,0.0107365,0.0103742,-0.493976,70,0.721478,10,-5.1246e-06,-3.30629,1.94606,0.0303177,0.0105916,
2,0,0,1,0,46881.8,0.00674163,0.00638516,-0.490872,70,0.721072,10,-3.1343e-06,-3.30903,2.85309,0.0206793,0.00660115,
2,0,0,0,0,46882.6,0.00274612,0.00241053,-0.492042,70,0.720668,10,-1.18608e-06,-3.308,-1.28751,-0.0458249,0.00262702,
2,0,0,1,0,46883.1,0.000274105,-7.24165e-05,-0.494347,70,0.720414,10,3.57989e-08,-3.30597, , ,0.000145096,