File: Figure_codes/Fig_3-5/workspace_calculate_alpha_eff/20221101_1-115_002_TrumpetPlot_ParaChange_18_CV_C01_4.csv
mode,ox/red,error,control changes,counter inc.,time/s,control/V,Ewe/V,<I>/mA,cycle number,(Q-Qo)/C,I Range,P/W,log(|I|),Tafel slope mV/dec,alpha_eff,E-IR/V,
2,1,0,0,0,6176.8,2.44065e-05,-0.000172625,0.0850552,5,0.0000000E+000,10,-1.46827e-08,-4.0703, , ,-0.000240669,
2,1,0,0,0,6177.56,0.00379485,0.0034879,0.226326,5,0.000171453,10,7.89404e-07,-3.64526,0.082385,0.71615,0.00330684,
2,1,0,1,0,6178.36,0.00779002,0.00748987,0.243415,5,0.000376512,10,1.82315e-06,-3.61365,0.147958,0.398761,0.00729514,
2,1,0,0,0,6179.16,0.0117852,0.0115205,0.252643,5,0.000592149,10,2.91057e-06,-3.59749,0.314575,0.187554,0.0113184,
2,1,0,1,0,6179.95,0.0157806,0.0154802,0.263812,5,0.000815233,10,4.08387e-06,-3.57871,0.307565,0.191829,0.0152692,
2,1,0,1,0,6180.75,0.0197754,0.019486,0.269365,5,0.00104393,10,5.24886e-06,-3.56966,0.307003,0.19218,0.0192705,
2,1,0,1,0,6181.55,0.0237704,0.0234909,0.275907,5,0.00127867,10,6.4813e-06,-3.55924,0.411465,0.14339,0.0232702,
2,1,0,1,0,6182.35,0.0277659,0.027505,0.282985,5,0.00151849,10,7.78351e-06,-3.54824,0.381946,0.154472,0.0272787,
2,1,0,0,0,6183.15,0.0317611,0.0314996,0.28789,5,0.00176368,10,9.06844e-06,-3.54077,0.351812,0.167703,0.0312693,
2,1,0,1,0,6183.95,0.0357567,0.0354511,0.298427,5,0.00201528,10,1.05795e-05,-3.52516,0.471523,0.125126,0.0352123,
2,1,0,1,0,6184.75,0.0397516,0.0394454,0.307647,5,0.00227351,10,1.21352e-05,-3.51195,0.215936,0.273229,0.0391993,
2,1,0,1,0,6185.55,0.0437465,0.0434493,0.31705,5,0.00254028,10,1.37756e-05,-3.49887,0.220846,0.267154,0.0431957,
2,1,0,1,0,6186.35,0.0477413,0.047436,0.331109,5,0.00281613,10,1.57065e-05,-3.48003,0.222411,0.265275,0.0471711,
2,1,0,0,0,6187.15,0.0517369,0.0514596,0.345569,5,0.00310268,10,1.77829e-05,-3.46147,0.203647,0.289717,0.0511832,
2,1,0,1,0,6187.94,0.0557321,0.0554521,0.363031,5,0.003402,10,2.01308e-05,-3.44006,0.215728,0.273493,0.0551616,
2,1,0,1,0,6188.74,0.0597277,0.0593941,0.379667,5,0.0037143,10,2.255e-05,-3.4206,0.221043,0.266916,0.0590904,
2,1,0,1,0,6189.54,0.0637226,0.0634116,0.397767,5,0.00404121,10,2.5223e-05,-3.40037,0.152772,0.386195,0.0630934,
2,1,0,1,0,6190.34,0.0677174,0.06739,0.417862,5,0.00438407,10,2.81597e-05,-3.37897,0.272374,0.216614,0.0670557,
2,1,0,0,0,6191.14,0.0717128,0.0714451,0.435232,5,0.00474105,10,3.10952e-05,-3.36128,0.208181,0.283407,0.0710969,
2,1,0,1,0,6191.94,0.075708,0.0753983,0.451651,5,0.00511254,10,3.40537e-05,-3.3452,0.255253,0.231144,0.075037,
2,1,0,0,0,6192.74,0.0797031,0.079377,0.470399,5,0.00549766,10,3.73389e-05,-3.32753,0.231451,0.254914,0.0790006,
2,1,0,1,0,6193.54,0.0836986,0.0833677,0.483157,5,0.00589531,10,4.02796e-05,-3.31591,0.337171,0.174985,0.0829811,
2,1,0,1,0,6194.34,0.0876935,0.0874297,0.497386,5,0.00630521,10,4.34863e-05,-3.30331,0.341464,0.172785,0.0870318,
2,1,0,1,0,6195.14,0.0916883,0.0914058,0.513301,5,0.00672554,10,4.69187e-05,-3.28963,0.303462,0.194423,0.0909952,
2,1,0,1,0,6195.94,0.0956838,0.0953594,0.526461,5,0.00715788,10,5.0203e-05,-3.27863,0.275727,0.21398,0.0949382,
2,1,0,0,0,6196.73,0.099679,0.0993932,0.546137,5,0.0076038,10,5.42823e-05,-3.2627,0.333416,0.176956,0.0989563,
2,1,0,1,0,6197.53,0.103674,0.103373,0.569109,5,0.00806465,10,5.88305e-05,-3.2448,0.184036,0.32059,0.102918,
2,1,0,1,0,6198.33,0.10767,0.107374,0.593708,5,0.00854668,10,6.37488e-05,-3.22643,0.171585,0.343853,0.106899,
2,1,0,1,0,6199.13,0.111664,0.111347,0.632098,5,0.00905357,10,7.03822e-05,-3.19922,0.142982,0.412641,0.110841,
2,1,0,1,0,6199.93,0.115659,0.115385,0.674009,5,0.00959157,10,7.77704e-05,-3.17133,0.13199,0.447003,0.114846,
2,1,0,0,0,6200.73,0.119655,0.119345,0.718547,5,0.0101657,10,8.57549e-05,-3.14354,0.15002,0.393281,0.11877,
2,1,0,1,0,6201.53,0.12365,0.123365,0.766753,5,0.0107758,10,9.45903e-05,-3.11534,0.155227,0.380089,0.122751,
2,1,0,1,0,6202.33,0.127646,0.127349,0.808758,5,0.011422,10,0.000102995,-3.09218,0.179344,0.328976,0.126702,
2,1,0,1,0,6203.13,0.131641,0.131375,0.848561,5,0.0121021,10,0.00011148,-3.07132,0.259514,0.227348,0.130696,
2,1,0,1,0,6203.93,0.135635,0.135331,0.877113,5,0.0128086,10,0.000118701,-3.05694,0.261074,0.225989,0.13463,
2,1,0,0,0,6204.72,0.139631,0.13929,0.892002,5,0.0135351,10,0.000124247,-3.04963,1.73336,0.0340378,0.138576,
2,1,0,1,0,6205.52,0.143626,0.14334,0.889867,5,0.0142655,10,0.000127553,-3.05068,-0.418793,-0.140881,0.142628,
2,1,0,0,0,6206.32,0.147621,0.147308,0.857039,5,0.0149808,10,0.000126248,-3.067,-0.175089,-0.336971,0.146622,
2,1,0,1,0,6207.12,0.151617,0.151316,0.797612,5,0.0156596,10,0.000120692,-3.09821,-0.0989984,-0.595969,0.150678,
2,1,0,1,0,6207.92,0.155612,0.155294,0.716608,5,0.0162806,10,0.000111285,-3.14472,-0.0811384,-0.727153,0.15472,
2,1,0,1,0,6208.72,0.159606,0.159321,0.629935,5,0.0168355,10,0.000100362,-3.2007,-0.0731128,-0.806972,0.158817,
2,1,0,1,0,6209.52,0.163602,0.163328,0.554813,5,0.017325,10,9.06167e-05,-3.25585,-0.0695437,-0.848388,0.162884,
2,1,0,0,0,6210.32,0.167597,0.167331,0.494445,5,0.0177592,10,8.27361e-05,-3.30588,-0.0950121,-0.620973,0.166936,
2,1,0,1,0,6211.12,0.171592,0.17129,0.445751,5,0.0181513,10,7.63526e-05,-3.35091,-0.10157,-0.580878,0.170933,
2,1,0,1,0,6211.92,0.175588,0.175268,0.41288,5,0.0185114,10,7.23645e-05,-3.38418,-0.134804,-0.437672,0.174937,
2,1,0,1,0,6212.71,0.179582,0.179254,0.388376,5,0.018848,10,6.96178e-05,-3.41075,-0.156373,-0.377303,0.178943,
2,1,0,1,0,6213.51,0.183577,0.18332,0.367712,5,0.0191671,10,6.74089e-05,-3.43449,-0.190339,-0.309973,0.183026,
2,1,0,0,0,6214.31,0.187573,0.187274,0.3515,5,0.0194716,10,6.58269e-05,-3.45408,-0.266472,-0.221411,0.186993,
2,1,0,1,0,6215.11,0.191568,0.191255,0.340453,5,0.0197654,10,6.51134e-05,-3.46794,-0.28045,-0.210376,0.190983,
2,1,0,0,0,6215.91,0.195563,0.195249,0.331253,5,0.0200505,10,6.46768e-05,-3.47984,-0.309549,-0.1906,0.194984,
2,1,0,1,0,6216.71,0.199559,0.199277,0.323395,5,0.0203283,10,6.44454e-05,-3.49027,-0.520857,-0.113275,0.199019,
2,1,0,1,0,6217.51,0.203553,0.20321,0.315382,5,0.0206005,10,6.40889e-05,-3.50116,-0.425263,-0.138738,0.202958,
2,1,0,1,0,6218.31,0.207548,0.207305,0.312159,5,0.0208683,10,6.47121e-05,-3.50562,-0.674517,-0.08747,0.207055,
2,1,0,1,0,6219.11,0.211544,0.211287,0.306597,5,0.0211313,10,6.47801e-05,-3.51343,-0.690299,-0.0854703,0.211042,
2,1,0,0,0,6219.91,0.215539,0.215257,0.301905,5,0.0213911,10,6.49873e-05,-3.52013,-0.495667,-0.119031,0.215016,
2,1,0,1,0,6220.71,0.219535,0.219253,0.299531,5,0.0216475,10,6.56732e-05,-3.52356,-1.0095,-0.0584447,0.219014,
2,1,0,1,0,6221.5,0.223529,0.223235,0.29447,5,0.0219013,10,6.57359e-05,-3.53096,-0.656165,-0.0899164,0.222999,
2,1,0,1,0,6222.3,0.227524,0.227196,0.293631,5,0.022153,10,6.67119e-05,-3.5322,-0.935025,-0.0630999,0.226961,
2,1,0,1,0,6223.1,0.23152,0.231253,0.290476,5,0.0224026,10,6.71733e-05,-3.53689,-1.42642,-0.0413623,0.23102,
2,1,0,0,0,6223.9,0.235515,0.235205,0.286782,5,0.0226505,10,6.74524e-05,-3.54245,-6.50316,-0.00907251,0.234975,
2,1,0,1,0,6224.7,0.23951,0.239228,0.286707,5,0.0228966,10,6.85883e-05,-3.54256,-0.962456,-0.0613015,0.238999,
2,1,0,1,0,6225.5,0.243506,0.243184,0.284774,5,0.0231411,10,6.92524e-05,-3.5455,-1.24947,-0.0472199,0.242956,
2,1,0,1,0,6226.3,0.2475,0.247193,0.283414,5,0.0233844,10,7.0058e-05,-3.54758,-1.50326,-0.039248,0.246966,
2,1,0,1,0,6227.1,0.251495,0.251225,0.281465,5,0.0236262,10,7.07111e-05,-3.55058,-2.72661,-0.0216386,0.251,
2,1,0,0,0,6227.9,0.255491,0.255217,0.279216,5,0.0238668,10,7.12605e-05,-3.55406,-3.41761,-0.0172635,0.254993,
2,1,0,1,0,6228.7,0.259486,0.259178,0.277634,5,0.0241065,10,7.19569e-05,-3.55653,-0.730631,-0.0807521,0.258956,
2,1,0,0,0,6229.49,0.263481,0.26315,0.277618,5,0.0243445,10,7.30552e-05,-3.55655,14.4858,0.00407295,0.262928,
2,1,0,1,0,6230.29,0.267477,0.267209,0.273825,5,0.0245821,10,7.31685e-05,-3.56253,-4.83593,-0.0122003,0.26699,
2,1,0,1,0,6231.09,0.271471,0.271165,0.275705,5,0.0248186,10,7.47615e-05,-3.55956,-1.22399,-0.0482031,0.270945,
2,1,0,1,0,6231.89,0.275466,0.275168,0.272778,5,0.025054,10,7.50598e-05,-3.56419,-4.8724,-0.012109,0.27495,
2,1,0,1,0,6232.69,0.279462,0.279197,0.271614,5,0.025289,10,7.58338e-05,-3.56605,-267.73,-0.000220371,0.278979,
2,1,0,0,0,6233.49,0.283457,0.283193,0.272655,5,0.0255229,10,7.72141e-05,-3.56439,-1.19237,-0.0494811,0.282975,
2,1,0,1,0,6234.29,0.287452,0.28717,0.271675,5,0.0257564,10,7.80169e-05,-3.56595,26.7545,0.00220524,0.286953,
2,1,0,1,0,6235.09,0.291448,0.291189,0.271697,5,0.0259892,10,7.91153e-05,-3.56591,-0.965348,-0.0611178,0.290972,
2,1,0,1,0,6235.89,0.295442,0.295128,0.269193,5,0.0262211,10,7.94465e-05,-3.56994,2.89321,0.0203926,0.294913,
2,1,0,1,0,6236.69,0.299437,0.299169,0.266537,5,0.0264525,10,7.97395e-05,-3.57424,-2.37226,-0.0248708,0.298956,
2,1,0,0,0,6237.48,0.303433,0.303163,0.26734,5,0.0266833,10,8.10477e-05,-3.57294,-1.53548,-0.0384246,0.302949,
2,1,0,1,0,6238.28,0.307428,0.307153,0.266442,5,0.0269133,10,8.18386e-05,-3.5744,31.2521,0.00188787,0.30694,
2,1,0,1,0,6239.08,0.311424,0.311179,0.266631,5,0.0271428,10,8.297e-05,-3.57409,-1.8448,-0.0319817,0.310966,
2,1,0,1,0,6239.88,0.315418,0.315115,0.264525,5,0.0273712,10,8.33556e-05,-3.57753,-2.51642,-0.023446,0.314903,
2,1,0,1,0,6240.68,0.319413,0.319126,0.264874,5,0.0275989,10,8.45283e-05,-3.57696,-1.41034,-0.041834,0.318914,
2,1,0,0,0,6241.48,0.323409,0.323106,0.262782,5,0.0278261,10,8.49065e-05,-3.5804,-11.6045,-0.00508423,0.322896,
2,1,0,1,0,6242.28,0.327404,0.327112,0.26175,5,0.0280527,10,8.56216e-05,-3.58211,14.415,0.00409296,0.326903,
2,1,0,0,0,6243.08,0.331399,0.331119,0.260631,5,0.0282786,10,8.62998e-05,-3.58397,-2.05517,-0.0287081,0.33091,
2,1,0,1,0,6243.88,0.335395,0.335112,0.260532,5,0.0285039,10,8.73076e-05,-3.58414,-1.62192,-0.0363767,0.334904,
2,1,0,1,0,6244.68,0.339389,0.339151,0.259343,5,0.0287282,10,8.79563e-05,-3.58613,-2.26979,-0.0259936,0.338944,
2,1,0,1,0,6245.48,0.343384,0.343106,0.259039,5,0.0289521,10,8.88778e-05,-3.58664,-1.48247,-0.0397986,0.342899,
2,1,0,1,0,6246.27,0.34738,0.347099,0.259505,5,0.0291749,10,9.00738e-05,-3.58585,2.29218,0.0257397,0.346891,
2,1,0,0,0,6247.07,0.351375,0.351043,0.257488,5,0.0293975,10,9.03891e-05,-3.58924,-2.17931,-0.0270728,0.350837,
2,1,0,1,0,6247.87,0.35537,0.355069,0.258221,5,0.0296198,10,9.16862e-05,-3.58801,-2.86773,-0.0205738,0.354862,
2,1,0,1,0,6248.67,0.359366,0.35907,0.256903,5,0.0298413,10,9.22462e-05,-3.59023,-4.27681,-0.0137953,0.358865,
2,1,0,1,0,6249.47,0.36336,0.363098,0.255344,5,0.0300623,10,9.2715e-05,-3.59287,-8.44361,-0.00698753,0.362894,
2,1,0,1,0,6250.27,0.367355,0.367024,0.254736,5,0.0302827,10,9.34941e-05,-3.59391,-35.4327,-0.00166513,0.36682,
2,1,0,0,0,6251.07,0.371351,0.371076,0.252707,5,0.0305024,10,9.37734e-05,-3.59738,-1.84803,-0.0319259,0.370873,
2,1,0,1,0,6251.87,0.375346,0.375101,0.254109,5,0.0307218,10,9.53164e-05,-3.59498,-4.13432,-0.0142708,0.374898,
2,1,0,1,0,6252.67,0.379342,0.379028,0.253433,5,0.0309404,10,9.60584e-05,-3.59614,-1.3235,-0.0445788,0.378825,
2,1,0,1,0,6253.47,0.383336,0.383021,0.253285,5,0.0311587,10,9.70135e-05,-3.59639,59.8063,0.000986518,0.382819,
2,1,0,1,0,6254.26,0.387331,0.387051,0.251933,5,0.0313766,10,9.75109e-05,-3.59871,-3.5999,-0.0163894,0.386849,
2,1,0,0,0,6255.06,0.391327,0.391031,0.25164,5,0.0315939,10,9.8399e-05,-3.59922,-4.86684,-0.0121229,0.39083,
2,1,0,1,0,6255.86,0.395322,0.395024,0.248907,5,0.0318107,10,9.83242e-05,-3.60396,-7.22133,-0.00817024,0.394825,
2,1,0,0,0,6256.66,0.399317,0.399037,0.251107,5,0.0320273,10,0.000100201,-3.60014,6.23248,0.00946653,0.398836,
2,1,0,1,0,6257.46,0.403313,0.403044,0.251085,5,0.0322435,10,0.000101198,-3.60018,-2.1656,-0.0272441,0.402843,
2,1,0,1,0,6258.26,0.407307,0.407037,0.24868,5,0.0324595,10,0.000101222,-3.60436,-76.7085,-0.000769145,0.406838,
2,1,0,1,0,6259.06,0.411302,0.410991,0.250261,5,0.0326749,10,0.000102855,-3.60161,-3.63634,-0.0162251,0.410791,
2,1,0,1,0,6259.86,0.415298,0.415017,0.249135,5,0.0328903,10,0.000103395,-3.60356,-4.4901,-0.01314,0.414818,
2,1,0,0,0,6260.66,0.419293,0.419007,0.248642,5,0.0331055,10,0.000104183,-3.60443,-3.50462,-0.0168349,0.418808,
2,1,0,1,0,6261.46,0.423288,0.423001,0.248208,5,0.0333202,10,0.000104992,-3.60518,-5.06815,-0.0116413,0.422802,
2,1,0,1,0,6262.25,0.427283,0.426993,0.246518,5,0.0335347,10,0.000105261,-3.60815,3.08974,0.0190954,0.426796,
2,1,0,1,0,6263.05,0.431278,0.431015,0.248458,5,0.0337488,10,0.000107089,-3.60475,34.5577,0.00170729,0.430816,
2,1,0,1,0,6263.85,0.435273,0.43501,0.248886,5,0.0339628,10,0.000108268,-3.604,9.71337,0.0060741,0.434811,
2,1,0,0,0,6264.65,0.439269,0.438967,0.248342,5,0.034177,10,0.000109014,-3.60495,-1.67169,-0.0352936,0.438769,
2,1,0,1,0,6265.45,0.443264,0.442985,0.247804,5,0.0343907,10,0.000109774,-3.60589,-3.63295,-0.0162402,0.442787,
2,1,0,0,0,6266.25,0.447259,0.446972,0.247443,5,0.0346044,10,0.0001106,-3.60652,2.32348,0.0253929,0.446774,
2,1,0,1,0,6267.05,0.451254,0.451016,0.24754,5,0.0348185,10,0.000111644,-3.60635,10.3843,0.00568168,0.450818,
2,1,0,1,0,6267.85,0.455249,0.45495,0.247263,5,0.0350324,10,0.000112492,-3.60684,4.42675,0.0133281,0.454753,
2,1,0,1,0,6268.65,0.459244,0.459005,0.247351,5,0.0352469,10,0.000113536,-3.60669,3.41681,0.0172676,0.458807,
2,1,0,1,0,6269.45,0.46324,0.462946,0.249752,5,0.0354616,10,0.000115622,-3.60249,-14.6422,-0.00402945,0.462746,
2,1,0,0,0,6270.25,0.467235,0.466926,0.248103,5,0.0356764,10,0.000115846,-3.60537,5.04155,0.0117028,0.466727,
2,1,0,1,0,6271.04,0.471231,0.470931,0.250333,5,0.0358915,10,0.00011789,-3.60148,-5.4959,-0.0107353,0.470731,
2,1,0,1,0,6271.84,0.475225,0.474954,0.250573,5,0.0361068,10,0.000119011,-3.60107,2.25015,0.0262204,0.474754,
2,1,0,1,0,6272.64,0.47922,0.478927,0.249841,5,0.0363228,10,0.000119656,-3.60234,1.74386,0.0338329,0.478727,
2,1,0,1,0,6273.44,0.483216,0.482968,0.250658,5,0.0365393,10,0.000121059,-3.60092,-6.34346,-0.00930092,0.482767,
2,1,0,0,0,6274.24,0.487211,0.486929,0.251644,5,0.0367563,10,0.000122533,-3.59921,1.57543,0.03745,0.486728,
2,1,0,1,0,6275.04,0.491206,0.490934,0.251149,5,0.0369738,10,0.000123298,-3.60007,1.36868,0.0431072,0.490734,
2,1,0,1,0,6275.84,0.495201,0.494927,0.253704,5,0.037192,10,0.000125565,-3.59567,5.02485,0.0117416,0.494724,
2,1,0,1,0,6276.64,0.499196,0.498892,0.256915,5,0.037411,10,0.000128173,-3.59021,1.68101,0.0350979,0.498686,
2,1,0,1,0,6277.44,0.503191,0.502946,0.257108,5,0.0376311,10,0.000129311,-3.58989,1.65756,0.0355945,0.502741,
2,1,0,0,0,6278.24,0.507187,0.506907,0.258225,5,0.0378518,10,0.000130896,-3.588,4.7288,0.0124767,0.506701,
2,1,0,1,0,6279.03,0.511182,0.51088,0.259806,5,0.0380737,10,0.00013273,-3.58535,1.17537,0.050197,0.510672,
2,1,0,0,0,6279.83,0.515177,0.514917,0.261006,5,0.0382972,10,0.000134397,-3.58335,1.76028,0.0335173,0.514708,
2,1,0,1,0,6280.63,0.519173,0.518907,0.263646,5,0.0385219,10,0.000136808,-3.57898,1.71754,0.0343515,0.518696,
2,1,0,1,0,6281.43,0.523167,0.52288,0.264321,5,0.0387481,10,0.000138208,-3.57787,0.76752,0.076871,0.522669,
2,1,0,1,0,6282.23,0.527162,0.526881,0.267022,5,0.0389762,10,0.000140689,-3.57345,0.660573,0.0893164,0.526667,
2,1,0,1,0,6283.03,0.531158,0.530895,0.269772,5,0.0392063,10,0.000143221,-3.569,1.77146,0.0333058,0.530679,
2,1,0,0,0,6283.83,0.535153,0.534902,0.272805,5,0.0394387,10,0.000145924,-3.56415,0.833702,0.0707687,0.534684,
2,1,0,1,0,6284.63,0.539148,0.53888,0.275924,5,0.0396733,10,0.00014869,-3.55921,0.78607,0.0750569,0.538659,
2,1,0,1,0,6285.43,0.543143,0.542865,0.278772,5,0.0399105,10,0.000151336,-3.55475,0.630817,0.0935296,0.542642,
2,1,0,1,0,6286.23,0.547138,0.546849,0.283207,5,0.0401509,10,0.000154872,-3.5479,0.756884,0.0779511,0.546622,
2,1,0,1,0,6287.02,0.551133,0.550834,0.288704,5,0.0403944,10,0.000159028,-3.53955,0.486546,0.121263,0.550603,
2,1,0,0,0,6287.82,0.555129,0.554869,0.293238,5,0.0406418,10,0.000162708,-3.53278,0.534811,0.110319,0.554634,
2,1,0,1,0,6288.62,0.559124,0.558838,0.299126,5,0.0408934,10,0.000167163,-3.52415,0.408688,0.144365,0.558598,
2,1,0,1,0,6289.42,0.56312,0.562855,0.304504,5,0.0411496,10,0.000171392,-3.51641,0.471982,0.125005,0.562611,
2,1,0,1,0,6290.22,0.567114,0.566824,0.310663,5,0.0414112,10,0.000176091,-3.50771,0.356997,0.165268,0.566575,
2,1,0,1,0,6291.02,0.571109,0.570849,0.320484,5,0.0416783,10,0.000182948,-3.49419,0.37907,0.155644,0.570592,
2,1,0,0,0,6291.82,0.575105,0.574826,0.328395,5,0.0419523,10,0.00018877,-3.4836,0.28406,0.207703,0.574564,
2,1,0,1,0,6292.62,0.5791,0.578806,0.339193,5,0.0422342,10,0.000196327,-3.46955,0.31882,0.185057,0.578535,
2,1,0,0,0,6293.42,0.583095,0.582817,0.350519,5,0.0425245,10,0.000204288,-3.45529,0.252686,0.233491,0.582536,
2,1,0,1,0,6294.22,0.58709,0.586784,0.363984,5,0.0428252,10,0.00021358,-3.43892,0.227403,0.259451,0.586493,
2,1,0,1,0,6295.02,0.591085,0.590833,0.380497,5,0.0431377,10,0.00022481,-3.41965,0.203132,0.290451,0.590529,
2,1,0,1,0,6295.81,0.59508,0.594842,0.397562,5,0.0434639,10,0.000236487,-3.4006,0.176019,0.335191,0.594524,
2,1,0,1,0,6296.61,0.599076,0.598826,0.419012,5,0.0438063,10,0.000250915,-3.37777,0.167047,0.353194,0.59849,
2,1,0,0,0,6297.41,0.603071,0.602795,0.445161,5,0.044167,10,0.000268341,-3.35148,0.149199,0.395446,0.602439,
2,1,0,1,0,6298.21,0.607066,0.606769,0.473352,5,0.0445494,10,0.000287216,-3.32482,0.140207,0.420806,0.60639,
2,1,0,1,0,6299.01,0.611061,0.610818,0.50841,5,0.0449575,10,0.000310546,-3.29379,0.124878,0.472463,0.610411,
2,1,0,1,0,6299.81,0.615056,0.614808,0.548261,5,0.0453949,10,0.000337075,-3.26101,0.114333,0.516035,0.614369,
2,1,0,1,0,6300.61,0.619051,0.618775,0.594434,5,0.0458671,10,0.000367821,-3.2259,0.10688,0.552023,0.618299,
2,1,0,0,0,6301.41,0.623047,0.622755,0.652493,5,0.0463808,10,0.000406343,-3.18542,0.0977154,0.603794,0.622233,
2,1,0,1,0,6302.21,0.627042,0.626795,0.717995,5,0.0469434,10,0.000450036,-3.14388,0.0873643,0.675333,0.62622,
2,1,0,1,0,6303.01,0.631037,0.630805,0.798509,5,0.0475646,10,0.000503703,-3.09772,0.0851018,0.693287,0.630166,
2,1,0,1,0,6303.8,0.635032,0.634798,0.892227,5,0.048254,10,0.000566384,-3.04952,0.0793602,0.743446,0.634084,
2,1,0,1,0,6304.6,0.639027,0.638767,1.00292,5,0.0490249,10,0.000640631,-2.99873,0.0747001,0.789825,0.637964,
2,1,0,1,0,6305.4,0.643022,0.642772,1.133,5,0.0498921,10,0.000728259,-2.94577,0.0710804,0.830046,0.641866,
2,1,0,1,0,6306.2,0.647018,0.646787,1.28951,5,0.050874,10,0.00083404,-2.88957,0.0676948,0.871559,0.645755,
2,1,0,0,0,6307,0.651013,0.650753,1.47218,5,0.0519917,10,0.000958023,-2.83204,0.0645695,0.913744,0.649575,
2,1,0,1,0,6307.8,0.655008,0.654712,1.69139,5,0.0532697,10,0.00110738,-2.77176,0.063245,0.932879,0.653358,
2,1,0,1,0,6308.6,0.659003,0.65875,1.94838,5,0.054737,10,0.00128349,-2.71033,0.0613082,0.962351,0.657191,
2,1,0,1,0,6309.4,0.662998,0.662731,2.24751,5,0.0564261,10,0.00148949,-2.6483,0.0595773,0.99031,0.660933,
2,1,0,1,0,6310.2,0.666994,0.666734,2.59457,5,0.058373,10,0.00172989,-2.58593,0.0584923,1.00868,0.664658,
2,1,0,0,0,6311,0.670989,0.670743,2.99441,5,0.0606191,10,0.00200848,-2.52369,0.0595367,0.990986,0.668348,
2,1,0,1,0,6311.8,0.674984,0.674715,3.45581,5,0.0632083,10,0.00233168,-2.46145,0.0579984,1.01727,0.67195,
2,1,0,1,0,6312.59,0.67898,0.678717,3.9763,5,0.0661898,10,0.00269878,-2.40052,0.0586181,1.00652,0.675536,
2,1,0,1,0,6313.39,0.682974,0.682712,4.56356,5,0.0696151,10,0.0031156,-2.3407,0.0588219,1.00303,0.679061,
2,1,0,1,0,6314.19,0.686969,0.686696,5.2228,5,0.0735372,10,0.00358647,-2.2821,0.061072,0.966073,0.682518,
2,1,0,0,0,6314.99,0.690965,0.690718,5.94319,5,0.0780109,10,0.00410507,-2.22598,0.0601753,0.980468,0.685964,
2,1,0,1,0,6315.79,0.69496,0.694714,6.73211,5,0.0830884,10,0.00467689,-2.17185,0.0633762,0.930949,0.689328,
2,1,0,0,0,6316.59,0.698955,0.698687,7.58268,5,0.0888203,10,0.00529792,-2.12018,0.0660629,0.893088,0.692621,
2,1,0,1,0,6317.39,0.70295,0.702661,8.48888,5,0.0952557,10,0.0059648,-2.07115,0.0673571,0.875929,0.69587,
2,1,0,1,0,6318.19,0.706945,0.706723,9.45029,5,0.102437,10,0.00667873,-2.02455,0.071542,0.824691,0.699163,
2,1,0,1,0,6318.99,0.71094,0.710671,10.4539,5,0.110404,10,0.0074293,-1.98072,0.0744629,0.79234,0.702308,
2,1,0,1,0,6319.79,0.714936,0.714679,11.4938,5,0.119189,10,0.00821439,-1.93954,0.0785419,0.751191,0.705484,
2,1,0,0,0,6320.58,0.718931,0.718677,12.5735,5,0.12882,10,0.00903628,-1.90054,0.0819305,0.720123,0.708618,
2,1,0,1,0,6321.38,0.722927,0.722647,13.6805,5,0.139325,10,0.0098862,-1.8639,0.0879652,0.67072,0.711703,
2,1,0,1,0,6322.18,0.726921,0.726679,14.8264,5,0.150727,10,0.010774,-1.82897,0.088802,0.6644,0.714818,
2,1,0,1,0,6322.98,0.730916,0.730657,16.016,5,0.163062,10,0.0117022,-1.79545,0.0897788,0.657171,0.717844,
2,1,0,1,0,6323.78,0.734911,0.734645,17.2765,5,0.176381,10,0.0126921,-1.76254,0.0920122,0.64122,0.720824,
2,1,0,0,0,6324.58,0.738907,0.738671,18.6011,5,0.190729,10,0.0137401,-1.73046,0.0930935,0.633772,0.72379,
2,1,0,1,0,6325.38,0.742902,0.742622,19.9862,5,0.206156,10,0.0148422,-1.69927,0.0936499,0.630006,0.726633,
2,1,0,1,0,6326.18,0.746897,0.746621,21.4234,5,0.222716,10,0.0159951,-1.66911,0.0942925,0.625712,0.729482,
2,1,0,1,0,6326.98,0.750892,0.750683,22.9095,5,0.240444,10,0.0171978,-1.63998,0.0982473,0.600525,0.732356,
2,1,0,1,0,6327.78,0.754887,0.754627,24.4613,5,0.259381,10,0.0184592,-1.61152,0.0940297,0.627461,0.735058,
2,1,0,0,0,6328.57,0.758883,0.758624,26.0993,5,0.279598,10,0.0197996,-1.58337,0.100225,0.588676,0.737744,
2,1,0,1,0,6329.37,0.762878,0.762641,27.7363,5,0.301112,10,0.0211528,-1.55695,0.10647,0.554145,0.740452,
2,1,0,0,0,6330.17,0.766873,0.766671,29.3737,5,0.323932,10,0.02252,-1.53204,0.104902,0.562427,0.743172,
2,1,0,1,0,6330.97,0.770868,0.770638,31.0689,5,0.348106,10,0.0239429,-1.50767,0.108302,0.544771,0.745783,
2,1,0,1,0,6331.77,0.774863,0.774592,32.7735,5,0.373635,10,0.0253861,-1.48448,0.120763,0.488561,0.748373,
2,1,0,1,0,6332.57,0.778858,0.778649,34.5383,5,0.400528,10,0.0268932,-1.4617,0.115039,0.512871,0.751018,
2,1,0,1,0,6333.37,0.782854,0.782618,36.2153,5,0.428814,10,0.0283427,-1.44111,0.134744,0.437868,0.753646,
2,1,0,0,0,6334.17,0.786849,0.786641,37.4966,5,0.458409,10,0.0294963,-1.42601,0.175485,0.336212,0.756643,
2,1,0,1,0,6334.97,0.790844,0.790597,39.2817,5,0.489144,10,0.031056,-1.40581,0.143949,0.409869,0.759172,
2,1,0,1,0,6335.77,0.794839,0.794594,40.983,5,0.521229,10,0.0325648,-1.3874,0.150476,0.39209,0.761807,
2,1,0,1,0,6336.57,0.798834,0.798571,42.5994,5,0.554652,10,0.0340186,-1.3706,0.162348,0.363416,0.764492,
2,1,0,1,0,6337.36,0.802829,0.802655,44.2719,5,0.589373,10,0.0355351,-1.35387,0.164084,0.359571,0.767238,
2,1,0,0,0,6338.16,0.806825,0.806569,45.8119,5,0.62541,10,0.0369505,-1.33902,0.188963,0.31223,0.769919,
2,1,0,1,0,6338.96,0.81082,0.810576,47.4411,5,0.662689,10,0.0384546,-1.32385,0.20686,0.285217,0.772623,
2,1,0,1,0,6339.76,0.814815,0.814548,48.9554,5,0.701181,10,0.0398765,-1.3102,0.203651,0.289712,0.775383,
2,1,0,1,0,6340.56,0.81881,0.818561,50.3342,5,0.740869,10,0.0412016,-1.29814,0.284788,0.207172,0.778294,
2,1,0,1,0,6341.36,0.822805,0.822568,51.5744,5,0.7815,10,0.0424234,-1.28757,0.228342,0.258385,0.781308,
2,1,0,0,0,6342.16,0.826801,0.826591,53.015,5,0.823308,10,0.0438217,-1.2756,0.231178,0.255215,0.784179,
2,1,0,1,0,6342.96,0.830796,0.830548,54.4019,5,0.866308,10,0.0451834,-1.26439,0.323379,0.182448,0.787026,
2,1,0,0,0,6343.76,0.834791,0.834531,57.1704,5,0.91045,10,0.0477104,-1.24283,0.167122,0.353035,0.788794,
2,1,0,1,0,6344.56,0.838786,0.838595,58.0725,5,0.95615,10,0.0486993,-1.23603,0.207698,0.284067,0.792137,
2,1,0,1,0,6345.35,0.842781,0.842523,59.2723,5,1.00299,10,0.0499382,-1.22715,0.377931,0.156113,0.795105,
2,1,0,1,0,6346.15,0.846776,0.846561,60.3375,5,1.05078,10,0.0510794,-1.21941,0.454653,0.129769,0.798291,
2,1,0,0,0,6346.85,0.849723,0.849512,60.7468,5,1.09322,10,0.0516051,-1.21648,0.00465349,12.6787,0.800915,
2,1,0,1,0,6347.65,0.845728,0.845491,58.8321,5,1.14081,10,0.0497421,-1.23039,0.226004,0.261058,0.798425,
2,1,0,0,0,6348.45,0.841732,0.841477,57.0388,5,1.18703,10,0.0479968,-1.24383,0.220495,0.26758,0.795846,
2,1,0,1,0,6349.25,0.837737,0.837505,55.3317,5,1.23189,10,0.0463406,-1.25703,0.235019,0.251044,0.793239,
2,1,0,1,0,6350.05,0.833742,0.833525,53.891,5,1.27554,10,0.0449195,-1.26848,0.224889,0.262351,0.790413,
2,1,0,1,0,6350.85,0.829747,0.82952,52.487,5,1.31801,10,0.043539,-1.27995,0.227295,0.259575,0.78753,
2,1,0,1,0,6351.65,0.825752,0.825512,50.8201,5,1.35926,10,0.0419526,-1.29396,0.19613,0.300821,0.784856,
2,1,0,0,0,6352.45,0.821757,0.821521,49.3341,5,1.39924,10,0.040529,-1.30685,0.204481,0.288536,0.782053,
2,1,0,1,0,6353.25,0.817761,0.817528,47.6481,5,1.43797,10,0.0389536,-1.32195,0.219642,0.268619,0.779409,
2,1,0,1,0,6354.04,0.813766,0.813515,46.1993,5,1.47551,10,0.0375838,-1.33536,0.161259,0.365871,0.776556,
2,1,0,1,0,6354.84,0.809771,0.809517,44.4205,5,1.51171,10,0.0359592,-1.35242,0.14204,0.415377,0.77398,
2,1,0,1,0,6355.64,0.805776,0.805536,42.6229,5,1.54647,10,0.0343343,-1.37036,0.139222,0.423783,0.771438,
2,1,0,0,0,6356.44,0.801781,0.80153,40.7218,5,1.57979,10,0.0326398,-1.39017,0.135957,0.43396,0.768952,
2,1,0,1,0,6357.24,0.797786,0.797591,39.1287,5,1.61168,10,0.0312087,-1.4075,0.132275,0.446039,0.766288,
2,1,0,1,0,6358.04,0.79379,0.79349,37.274,5,1.64219,10,0.0295765,-1.42859,0.123124,0.479191,0.763671,
2,1,0,1,0,6358.84,0.789795,0.789558,35.5252,5,1.67125,10,0.0280492,-1.44946,0.11742,0.502469,0.761137,
2,1,0,1,0,6359.64,0.7858,0.785572,33.7693,5,1.69891,10,0.0265282,-1.47148,0.113512,0.51977,0.758556,
2,1,0,0,0,6360.44,0.781805,0.781582,32.1131,5,1.72515,10,0.025099,-1.49332,0.116882,0.504782,0.755892,
2,1,0,1,0,6361.24,0.77781,0.777555,30.2362,5,1.75004,10,0.0235103,-1.51947,0.0945603,0.62394,0.753366,
2,1,0,0,0,6362.03,0.773815,0.773566,28.4082,5,1.77344,10,0.0219756,-1.54656,0.0942091,0.626266,0.750839,
2,1,0,1,0,6362.83,0.769819,0.769605,26.6937,5,1.79544,10,0.0205436,-1.57359,0.0934621,0.631272,0.74825,
2,1,0,1,0,6363.63,0.765824,0.765572,24.9822,5,1.81607,10,0.0191257,-1.60237,0.0913941,0.645556,0.745587,
2,1,0,1,0,6364.43,0.761829,0.761573,23.3208,5,1.83535,10,0.0177605,-1.63226,0.0889448,0.663333,0.742916,
2,1,0,1,0,6365.23,0.757834,0.757606,21.6947,5,1.85332,10,0.016436,-1.66365,0.0823155,0.716754,0.74025,
2,1,0,0,0,6366.03,0.753839,0.753604,20.099,5,1.87,10,0.0151467,-1.69683,0.0822628,0.717214,0.737524,
2,1,0,1,0,6366.83,0.749844,0.749653,18.5542,5,1.88542,10,0.0139092,-1.73156,0.0756145,0.780274,0.734809,
2,1,0,1,0,6367.63,0.745848,0.745608,17.0788,5,1.89964,10,0.0127341,-1.76754,0.0784175,0.752383,0.731945,
2,1,0,1,0,6368.43,0.741853,0.741558,15.6446,5,1.91269,10,0.0116014,-1.80564,0.0734527,0.803238,0.729043,
2,1,0,1,0,6369.23,0.737858,0.737612,14.3025,5,1.92463,10,0.0105497,-1.84459,0.0735204,0.802498,0.72617,
2,1,0,0,0,6370.03,0.733863,0.733638,13.0023,5,1.93551,10,0.00953896,-1.88598,0.070774,0.83364,0.723236,
2,1,0,1,0,6370.82,0.729868,0.729564,11.7673,5,1.94538,10,0.00858502,-1.92932,0.0693451,0.850817,0.72015,
2,1,0,1,0,6371.62,0.725872,0.725578,10.6089,5,1.9543,10,0.00769762,-1.97433,0.0668746,0.882249,0.717091,
2,1,0,1,0,6372.42,0.721877,0.721582,9.54311,5,1.96233,10,0.00688614,-2.02031,0.0682226,0.864817,0.713948,
2,1,0,1,0,6373.22,0.717882,0.717619,8.52713,5,1.96952,10,0.00611923,-2.0692,0.0646503,0.912601,0.710797,
2,1,0,0,0,6374.02,0.713887,0.713594,7.59815,5,1.97594,10,0.005422,-2.11929,0.0638749,0.923681,0.707516,
2,1,0,1,0,6374.82,0.709892,0.709638,6.7298,5,1.98165,10,0.00477572,-2.172,0.0637427,0.925596,0.704254,
2,1,0,0,0,6375.62,0.705897,0.705663,6.02422,5,1.98672,10,0.00425107,-2.2201,0.070119,0.841427,0.700843,
2,1,0,1,0,6376.42,0.701901,0.701709,5.3126,5,1.99123,10,0.0037279,-2.27469,0.0602293,0.97959,0.697459,
2,1,0,1,0,6377.22,0.697906,0.697649,4.63715,5,1.99518,10,0.00323511,-2.33375,0.0576198,1.02395,0.693939,
2,1,0,1,0,6378.02,0.693911,0.693654,4.02564,5,1.99862,10,0.0027924,-2.39516,0.0569245,1.03646,0.690433,
2,1,0,1,0,6378.81,0.689916,0.689642,3.472,5,2.00159,10,0.00239444,-2.45942,0.0541074,1.09042,0.686864,
2,1,0,0,0,6379.61,0.685921,0.685643,2.9822,5,2.00415,10,0.00204472,-2.52546,0.0544272,1.08402,0.683257,
2,1,0,1,0,6380.41,0.681926,0.681683,2.54708,5,2.00634,10,0.0017363,-2.59396,0.0526601,1.12039,0.679645,
2,1,0,1,0,6381.21,0.67793,0.677693,2.16428,5,2.0082,10,0.00146671,-2.66469,0.0516236,1.14289,0.675962,
2,1,0,1,0,6382.01,0.673935,0.673641,1.82993,5,2.00978,10,0.00123272,-2.73757,0.0513037,1.15001,0.672177,
2,1,0,1,0,6382.81,0.66994,0.669695,1.54062,5,2.0111,10,0.00103175,-2.8123,0.0494219,1.1938,0.668463,
2,1,0,0,0,6383.61,0.665945,0.665669,1.29002,5,2.01222,10,0.000858729,-2.8894,0.0486023,1.21393,0.664637,
2,1,0,1,0,6384.41,0.66195,0.661709,1.07598,5,2.01314,10,0.000711988,-2.96819,0.0473061,1.2472,0.660848,
2,1,0,0,0,6385.21,0.657955,0.657694,0.892389,5,2.01391,10,0.000586919,-3.04945,0.0471696,1.25081,0.65698,
2,1,0,1,0,6386.01,0.653959,0.653707,0.736299,5,2.01454,10,0.000481323,-3.13295,0.0464155,1.27113,0.653118,
2,1,0,1,0,6386.8,0.649964,0.649689,0.60447,5,2.01506,10,0.000392718,-3.21863,0.0454101,1.29927,0.649205,
2,1,0,1,0,6387.6,0.64597,0.645721,0.495338,5,2.01548,10,0.000319851,-3.3051,0.0439208,1.34333,0.645325,
2,1,0,1,0,6388.4,0.641974,0.641746,0.403383,5,2.01582,10,0.000258869,-3.39428,0.0418159,1.41095,0.641423,
2,1,0,0,0,6389.2,0.637979,0.637716,0.324037,5,2.01609,10,0.000206643,-3.48941,0.041276,1.4294,0.637457,
2,1,0,1,0,6390,0.633983,0.633718,0.25974,5,2.01631,10,0.000164602,-3.58546,0.0409152,1.44201,0.63351,
2,1,0,1,0,6390.8,0.629988,0.629733,0.203956,5,2.01648,10,0.000128438,-3.69046,0.0357784,1.64904,0.62957,
2,1,0,1,0,6391.6,0.625993,0.625746,0.158342,5,2.0166,10,9.9082e-05,-3.8004,0.0335736,1.75734,0.62562,
2,1,0,1,0,6392.4,0.621998,0.621778,0.119394,5,2.0167,10,7.42363e-05,-3.92302,0.0304669,1.93653,0.621683,
2,1,0,0,0,6393.2,0.618003,0.617722,0.0873167,5,2.01676,10,5.39374e-05,-4.0589,0.0251082,2.34983,0.617652,
2,1,0,1,0,6394,0.614008,0.613748,0.0603869,5,2.01681,10,3.70623e-05,-4.21906,0.0223089,2.64468,0.613699,
2,1,0,1,0,6394.8,0.610012,0.60973,0.036472,5,2.01683,10,2.22381e-05,-4.43804,0.0154774,3.81201,0.609701,
2,1,0,1,0,6395.59,0.606017,0.605773,0.0164474,5,2.01684,10,9.9634e-06,-4.7839,0.00772034,7.64215,0.60576,
2,1,0,1,0,6396.39,0.602022,0.60173,0.000771004,5,2.01683,10,4.63936e-07,-6.11294,0.019467,3.03076,0.601729,
2,0,0,0,0,6397.19,0.598027,0.597777,-0.0119176,5,2.01681,10,-7.12405e-06,-4.92381,-0.00677543,-8.70793,0.597786,
2,0,0,1,0,6397.99,0.594032,0.59379,-0.023029,5,2.01678,10,-1.36744e-05,-4.63773,-0.0223474,-2.64013,0.593808,
2,0,0,0,0,6398.79,0.590037,0.589751,-0.0335058,5,2.01674,10,-1.97601e-05,-4.47488,-0.0321887,-1.83294,0.589777,
2,0,0,1,0,6399.59,0.586041,0.585769,-0.0412942,5,2.0167,10,-2.41888e-05,-4.38411,-0.0558528,-1.05635,0.585802,
2,0,0,1,0,6400.39,0.582046,0.581784,-0.0479149,5,2.01664,10,-2.78761e-05,-4.31953,-0.0732536,-0.805421,0.581822,
2,0,0,1,0,6401.19,0.578052,0.57777,-0.054209,5,2.01659,10,-3.13204e-05,-4.26593,-0.0872134,-0.676501,0.577814,
2,0,0,1,0,6401.99,0.574056,0.573814,-0.0594389,5,2.01653,10,-3.41068e-05,-4.22593,-0.0894178,-0.659824,0.573861,
2,0,0,0,0,6402.79,0.570061,0.569784,-0.0642032,5,2.01646,10,-3.6582e-05,-4.19244,-0.224043,-0.263342,0.569836,
2,0,0,1,0,6403.58,0.566065,0.565825,-0.0676811,5,2.01639,10,-3.82957e-05,-4.16953,-0.11546,-0.511,0.565879,
2,0,0,1,0,6404.38,0.56207,0.561793,-0.0719389,5,2.01632,10,-4.04148e-05,-4.14304,-0.160385,-0.367864,0.56185,
2,0,0,1,0,6405.18,0.558075,0.55779,-0.0746872,5,2.01625,10,-4.16598e-05,-4.12675,-0.459895,-0.12829,0.55785,
2,0,0,1,0,6405.98,0.55408,0.553827,-0.0770062,5,2.01617,10,-4.26481e-05,-4.11347,-0.188894,-0.312344,0.553888,
2,0,0,0,0,6406.78,0.550085,0.54981,-0.0796226,5,2.01609,10,-4.37773e-05,-4.09896,-0.407358,-0.144836,0.549874,
2,0,0,1,0,6407.58,0.54609,0.545816,-0.0826555,5,2.01601,10,-4.51147e-05,-4.08273,-0.579014,-0.101897,0.545882,
2,0,0,1,0,6408.38,0.542094,0.541811,-0.0841822,5,2.01593,10,-4.56108e-05,-4.07478,-0.511487,-0.11535,0.541879,
2,0,0,1,0,6409.18,0.538099,0.537897,-0.0852608,5,2.01585,10,-4.58615e-05,-4.06925,-2.45168,-0.0240652,0.537965,
2,0,0,1,0,6409.98,0.534104,0.533814,-0.0873253,5,2.01576,10,-4.66155e-05,-4.05886,-0.355101,-0.16615,0.533884,
2,0,0,0,0,6410.78,0.530109,0.529852,-0.0880235,5,2.01568,10,-4.66394e-05,-4.0554,-0.404966,-0.145691,0.529922,
2,0,0,1,0,6411.58,0.526114,0.525812,-0.0901937,5,2.01559,10,-4.74249e-05,-4.04482,-0.43644,-0.135185,0.525884,
2,0,0,0,0,6412.37,0.522119,0.521872,-0.0918691,5,2.0155,10,-4.79439e-05,-4.03683,-0.358989,-0.16435,0.521945,
2,0,0,1,0,6413.17,0.518123,0.517867,-0.0923048,5,2.01541,10,-4.78016e-05,-4.03478,58.6681,0.00100566,0.517941,
2,0,0,1,0,6413.97,0.514128,0.513875,-0.0935442,5,2.01532,10,-4.807e-05,-4.02898,-0.560974,-0.105174,0.51395,
2,0,0,1,0,6414.77,0.510133,0.509842,-0.0939263,5,2.01523,10,-4.78875e-05,-4.02721,-1.15001,-0.0513041,0.509917,
2,0,0,1,0,6415.57,0.506138,0.505863,-0.0968779,5,2.01514,10,-4.90069e-05,-4.01378,-2.66445,-0.0221434,0.50594,
2,0,0,0,0,6416.37,0.502143,0.501884,-0.0985917,5,2.01505,10,-4.94816e-05,-4.00616,-0.238783,-0.247086,0.501963,
2,0,0,1,0,6417.17,0.498148,0.497816,-0.0989239,5,2.01495,10,-4.92458e-05,-4.0047,-2.05246,-0.028746,0.497895,
2,0,0,1,0,6417.97,0.494152,0.493853,-0.100598,5,2.01486,10,-4.96807e-05,-3.99741,-0.965572,-0.0611037,0.493934,
2,0,0,1,0,6418.77,0.490157,0.489899,-0.102634,5,2.01476,10,-5.02802e-05,-3.98871,-0.335864,-0.175666,0.489982,
2,0,0,1,0,6419.57,0.486162,0.485873,-0.103618,5,2.01466,10,-5.03451e-05,-3.98457,-7.25282,-0.00813477,0.485956,
2,0,0,0,0,6420.36,0.482167,0.481857,-0.104534,5,2.01457,10,-5.03704e-05,-3.98074,-1.3667,-0.0431697,0.481941,
2,0,0,1,0,6421.16,0.478172,0.477905,-0.106105,5,2.01447,10,-5.0708e-05,-3.97427,-0.712597,-0.0827957,0.47799,
2,0,0,0,0,6421.96,0.474177,0.473905,-0.106827,5,2.01437,10,-5.06258e-05,-3.97132,-0.676047,-0.087272,0.473991,
2,0,0,1,0,6422.76,0.470181,0.469877,-0.109582,5,2.01426,10,-5.14899e-05,-3.96026,-0.540244,-0.10921,0.469964,
2,0,0,1,0,6423.56,0.466186,0.46594,-0.110097,5,2.01416,10,-5.12985e-05,-3.95823,-0.944803,-0.0624469,0.466028,
2,0,0,1,0,6424.36,0.462191,0.461906,-0.112648,5,2.01406,10,-5.20329e-05,-3.94828,-0.515248,-0.114508,0.461996,
2,0,0,1,0,6425.16,0.458196,0.457934,-0.113341,5,2.01395,10,-5.19027e-05,-3.94561,-0.448818,-0.131457,0.458024,
2,0,0,0,0,6425.96,0.454201,0.453971,-0.114597,5,2.01384,10,-5.20237e-05,-3.94083,-0.946842,-0.0623124,0.454063,
2,0,0,1,0,6426.76,0.450205,0.449914,-0.116881,5,2.01374,10,-5.25863e-05,-3.93226,-0.649571,-0.0908292,0.450008,
2,0,0,1,0,6427.56,0.44621,0.445967,-0.118712,5,2.01363,10,-5.29414e-05,-3.92551,-0.451273,-0.130741,0.446062,
2,0,0,1,0,6428.35,0.442215,0.441935,-0.119795,5,2.01351,10,-5.29418e-05,-3.92156,2.06873,0.02852,0.442031,
2,0,0,1,0,6429.15,0.43822,0.437949,-0.12104,5,2.0134,10,-5.30093e-05,-3.91707,-0.328551,-0.179576,0.438046,
2,0,0,0,0,6429.95,0.434225,0.433946,-0.123285,5,2.01329,10,-5.34991e-05,-3.90909,-0.5096,-0.115777,0.434045,
2,0,0,1,0,6430.75,0.43023,0.429978,-0.124648,5,2.01317,10,-5.35961e-05,-3.90431,-0.469159,-0.125757,0.430078,
2,0,0,1,0,6431.55,0.426234,0.42597,-0.127549,5,2.01306,10,-5.4332e-05,-3.89432,-0.45655,-0.12923,0.426072,
2,0,0,1,0,6432.35,0.422239,0.421978,-0.12943,5,2.01294,10,-5.46168e-05,-3.88796,-3.46604,-0.0170223,0.422082,
2,0,0,1,0,6433.15,0.418244,0.417953,-0.132001,5,2.01282,10,-5.51702e-05,-3.87942,-0.429484,-0.137374,0.418059,
2,0,0,0,0,6433.95,0.414249,0.413989,-0.133101,5,2.0127,10,-5.51023e-05,-3.87582,-0.668474,-0.0882608,0.414096,
2,0,0,1,0,6434.75,0.410254,0.409986,-0.136695,5,2.01257,10,-5.60429e-05,-3.86425,-2.35786,-0.0250227,0.410096,
2,0,0,0,0,6435.55,0.406259,0.405976,-0.138382,5,2.01245,10,-5.61799e-05,-3.85892,-0.33758,-0.174774,0.406087,
2,0,0,1,0,6436.35,0.402263,0.401995,-0.141373,5,2.01232,10,-5.68311e-05,-3.84963,-1.1847,-0.0498015,0.402108,
2,0,0,1,0,6437.14,0.398268,0.398007,-0.143076,5,2.01219,10,-5.69454e-05,-3.84443,-0.380503,-0.155058,0.398122,
2,0,0,1,0,6437.94,0.394274,0.394005,-0.145058,5,2.01206,10,-5.71537e-05,-3.83846,-1.02791,-0.057398,0.394121,
2,0,0,1,0,6438.74,0.390278,0.389984,-0.146485,5,2.01193,10,-5.71269e-05,-3.83421,-0.403193,-0.146332,0.390101,
2,0,0,0,0,6439.54,0.386283,0.386004,-0.149401,5,2.0118,10,-5.76692e-05,-3.82565,-0.516362,-0.114261,0.386124,
2,0,0,1,0,6440.34,0.382287,0.381994,-0.151961,5,2.01166,10,-5.80483e-05,-3.81827,-1.11057,-0.0531258,0.382116,
2,0,0,1,0,6441.14,0.378292,0.37808,-0.154058,5,2.01152,10,-5.82463e-05,-3.81231,-2.35506,-0.0250524,0.378203,
2,0,0,1,0,6441.94,0.374297,0.374041,-0.156098,5,2.01138,10,-5.83871e-05,-3.8066,-0.259536,-0.227329,0.374166,
2,0,0,1,0,6442.74,0.370303,0.370026,-0.159182,5,2.01124,10,-5.89014e-05,-3.79811,3.43534,0.0171744,0.370154,
2,0,0,0,0,6443.54,0.366307,0.366022,-0.161011,5,2.0111,10,-5.89336e-05,-3.79314,-0.404718,-0.145781,0.366151,
2,0,0,1,0,6444.34,0.362312,0.362023,-0.163249,5,2.01095,10,-5.90999e-05,-3.78715,-0.412419,-0.143058,0.362154,
2,0,0,1,0,6445.13,0.358316,0.357993,-0.166597,5,2.0108,10,-5.96405e-05,-3.77833,-3.00006,-0.0196663,0.358126,
2,0,0,1,0,6445.93,0.354321,0.35405,-0.169033,5,2.01065,10,-5.98461e-05,-3.77203,-0.367162,-0.160692,0.354185,
2,0,0,1,0,6446.73,0.350327,0.350045,-0.171374,5,2.0105,10,-5.99887e-05,-3.76605,-0.482942,-0.122168,0.350182,
2,0,0,0,0,6447.53,0.346331,0.346061,-0.173891,5,2.01035,10,-6.01768e-05,-3.75972,-1.44131,-0.0409349,0.3462,
2,0,0,1,0,6448.33,0.342336,0.342074,-0.176401,5,2.01019,10,-6.03421e-05,-3.7535,-0.541145,-0.109028,0.342215,
2,0,0,0,0,6449.13,0.338341,0.338048,-0.179953,5,2.01003,10,-6.08327e-05,-3.74484,-0.964801,-0.0611525,0.338192,
2,0,0,1,0,6449.93,0.334345,0.334036,-0.180924,5,2.00987,10,-6.04351e-05,-3.7425,-0.691739,-0.0852923,0.334181,
2,0,0,1,0,6450.73,0.33035,0.330062,-0.183516,5,2.00971,10,-6.05717e-05,-3.73633,-0.523097,-0.11279,0.330209,
2,0,0,1,0,6451.53,0.326355,0.326078,-0.186198,5,2.00955,10,-6.0715e-05,-3.73003,-1.00393,-0.0587691,0.326227,
2,0,0,1,0,6452.33,0.32236,0.322079,-0.189443,5,2.00938,10,-6.10154e-05,-3.72252,-0.36871,-0.160017,0.32223,
2,0,0,0,0,6453.12,0.318365,0.318054,-0.192231,5,2.00921,10,-6.114e-05,-3.71618,-1.42935,-0.0412775,0.318208,
2,0,0,1,0,6453.92,0.31437,0.31407,-0.194796,5,2.00904,10,-6.11796e-05,-3.71042,-1.42907,-0.0412855,0.314226,
2,0,0,1,0,6454.72,0.310374,0.310077,-0.197439,5,2.00887,10,-6.12213e-05,-3.70457,-0.303638,-0.19431,0.310235,
2,0,0,1,0,6455.52,0.306379,0.306062,-0.200309,5,2.00869,10,-6.13071e-05,-3.6983,-2.1526,-0.0274087,0.306223,
2,0,0,1,0,6456.32,0.302385,0.302093,-0.201243,5,2.00851,10,-6.07941e-05,-3.69628,-0.703084,-0.083916,0.302254,
2,0,0,0,0,6457.12,0.298389,0.298122,-0.205763,5,2.00833,10,-6.13425e-05,-3.68663,-0.329381,-0.179124,0.298286,
2,0,0,1,0,6457.92,0.294394,0.29409,-0.208378,5,2.00815,10,-6.12819e-05,-3.68115,-1.72486,-0.0342056,0.294257,
2,0,0,1,0,6458.72,0.290398,0.290096,-0.21078,5,2.00797,10,-6.11465e-05,-3.67617,-0.960772,-0.0614089,0.290265,
2,0,0,1,0,6459.52,0.286403,0.286138,-0.213775,5,2.00778,10,-6.11692e-05,-3.67004,-1.39982,-0.0421482,0.286309,
2,0,0,1,0,6460.32,0.282408,0.282107,-0.215731,5,2.0076,10,-6.08593e-05,-3.66609,-0.754481,-0.0781994,0.282279,
2,0,0,1,0,6461.12,0.278414,0.278122,-0.219148,5,2.00741,10,-6.09499e-05,-3.65926,-0.797629,-0.0739692,0.278297,
2,0,0,1,0,6461.91,0.274418,0.27411,-0.220155,5,2.00721,10,-6.03466e-05,-3.65727,-0.665812,-0.0886136,0.274286,
2,0,0,0,0,6462.71,0.270423,0.270107,-0.225237,5,2.00702,10,-6.08381e-05,-3.64736,-0.646581,-0.0912491,0.270287,
2,0,0,1,0,6463.51,0.266427,0.266152,-0.226985,5,2.00682,10,-6.04125e-05,-3.644,-1.14807,-0.0513904,0.266334,
2,0,0,1,0,6464.31,0.262432,0.262148,-0.228579,5,2.00662,10,-5.99214e-05,-3.64096,-0.596458,-0.0989173,0.262331,
2,0,0,1,0,6465.11,0.258437,0.258169,-0.230827,5,2.00642,10,-5.95923e-05,-3.63671,-1.45461,-0.0405607,0.258354,
2,0,0,1,0,6465.91,0.254442,0.25415,-0.233124,5,2.00622,10,-5.92485e-05,-3.63241,-0.407651,-0.144732,0.254336,
2,0,0,0,0,6466.71,0.250447,0.250124,-0.236637,5,2.00602,10,-5.91885e-05,-3.62592,-6.05281,-0.00974755,0.250313,
2,0,0,1,0,6467.51,0.246452,0.246144,-0.240384,5,2.00581,10,-5.9169e-05,-3.61909,-0.635924,-0.0927784,0.246336,
2,0,0,1,0,6468.31,0.242456,0.242152,-0.243953,5,2.0056,10,-5.90738e-05,-3.61269,-0.766445,-0.0769787,0.242347,
2,0,0,1,0,6469.11,0.238461,0.238172,-0.24666,5,2.00539,10,-5.87474e-05,-3.6079,-0.676853,-0.0871682,0.238369,
2,0,0,1,0,6469.9,0.234467,0.234147,-0.248838,5,2.00518,10,-5.82645e-05,-3.60408,-0.506891,-0.116396,0.234346,
2,0,0,0,0,6470.7,0.230471,0.230201,-0.252235,5,2.00496,10,-5.80646e-05,-3.5982,-0.846796,-0.0696744,0.230402,
2,0,0,1,0,6471.5,0.226476,0.226185,-0.256036,5,2.00474,10,-5.79115e-05,-3.5917,-0.745269,-0.079166,0.22639,
2,0,0,0,0,6472.3,0.222481,0.222198,-0.259144,5,2.00452,10,-5.75812e-05,-3.58646,-1.16106,-0.0508158,0.222405,
2,0,0,1,0,6473.1,0.218485,0.218195,-0.264543,5,2.00429,10,-5.77219e-05,-3.5775,-0.495653,-0.119035,0.218406,
2,0,0,1,0,6473.9,0.21449,0.214198,-0.267378,5,2.00407,10,-5.72719e-05,-3.57287,-0.465569,-0.126727,0.214412,
2,0,0,1,0,6474.7,0.210496,0.210182,-0.272395,5,2.00383,10,-5.72525e-05,-3.5648,-0.467341,-0.126246,0.2104,
2,0,0,1,0,6475.5,0.2065,0.206187,-0.278603,5,2.0036,10,-5.74443e-05,-3.55501,-0.513532,-0.114891,0.20641,
2,0,0,0,0,6476.3,0.202505,0.20217,-0.282686,5,2.00336,10,-5.71506e-05,-3.5487,-0.414818,-0.142231,0.202396,
2,0,0,1,0,6477.1,0.198509,0.198198,-0.29026,5,2.00311,10,-5.7529e-05,-3.53721,-0.407354,-0.144837,0.19843,
2,0,0,1,0,6477.89,0.194514,0.194199,-0.298379,5,2.00286,10,-5.79448e-05,-3.52523,-0.315355,-0.187091,0.194437,
2,0,0,1,0,6478.69,0.190519,0.190197,-0.305864,5,2.0026,10,-5.81746e-05,-3.51447,-0.254686,-0.231658,0.190442,
2,0,0,1,0,6479.49,0.186524,0.186216,-0.319268,5,2.00234,10,-5.94529e-05,-3.49584,-0.305242,-0.193289,0.186472,
2,0,0,0,0,6480.29,0.182529,0.182251,-0.331965,5,2.00206,10,-6.05011e-05,-3.47891,-0.173738,-0.339591,0.182517,
2,0,0,1,0,6481.09,0.178534,0.178229,-0.348695,5,2.00177,10,-6.21476e-05,-3.45755,-0.16966,-0.347755,0.178508,
2,0,0,1,0,6481.89,0.174538,0.174225,-0.369637,5,2.00147,10,-6.43999e-05,-3.43222,-0.158968,-0.371144,0.17452,
2,0,0,1,0,6482.69,0.170543,0.170292,-0.394872,5,2.00115,10,-6.72435e-05,-3.40354,-0.113596,-0.519386,0.170608,
2,0,0,1,0,6483.49,0.166549,0.166263,-0.428121,5,2.0008,10,-7.11807e-05,-3.36843,-0.111127,-0.530922,0.166605,
2,0,0,0,0,6484.29,0.162553,0.162255,-0.471071,5,2.00043,10,-7.64337e-05,-3.32691,-0.0857127,-0.688346,0.162632,
2,0,0,1,0,6485.09,0.158558,0.158269,-0.525316,5,2.00001,10,-8.31413e-05,-3.27958,-0.0747187,-0.789629,0.158689,
2,0,0,0,0,6485.89,0.154563,0.154267,-0.599769,5,1.99955,10,-9.25246e-05,-3.22202,-0.0724857,-0.813954,0.154747,
2,0,0,1,0,6486.68,0.150567,0.150272,-0.679524,5,1.99902,10,-0.000102114,-3.1678,-0.0708733,-0.832471,0.150816,
2,0,0,1,0,6487.48,0.146572,0.146272,-0.76254,5,1.99843,10,-0.000111538,-3.11774,-0.0879206,-0.67106,0.146882,
2,0,0,1,0,6488.28,0.142578,0.142275,-0.840951,5,1.99777,10,-0.000119647,-3.07523,-0.109538,-0.538628,0.142948,
2,0,0,1,0,6489.08,0.138582,0.138271,-0.895621,5,1.99706,10,-0.000123838,-3.04788,-0.177223,-0.332913,0.138987,
2,0,0,0,0,6489.88,0.134587,0.134277,-0.930586,5,1.99631,10,-0.000124957,-3.03124,-0.412929,-0.142882,0.135022,
2,0,0,1,0,6490.68,0.130591,0.130248,-0.942782,5,1.99554,10,-0.000122796,-3.02559,-3.71596,-0.0158774,0.131003,
2,0,0,1,0,6491.48,0.126596,0.12627,-0.931265,5,1.99477,10,-0.000117591,-3.03093,0.567872,0.103897,0.127015,
2,0,0,1,0,6492.28,0.122602,0.122296,-0.913375,5,1.99402,10,-0.000111702,-3.03935,0.285087,0.206954,0.123027,
2,0,0,1,0,6493.08,0.118607,0.118347,-0.882805,5,1.99329,10,-0.000104478,-3.05414,0.266369,0.221497,0.119053,
2,0,0,0,0,6493.88,0.114611,0.114288,-0.8459,5,1.99258,10,-9.66759e-05,-3.07268,0.196957,0.299558,0.114964,
2,0,0,1,0,6494.67,0.110616,0.110319,-0.806981,5,1.9919,10,-8.9025e-05,-3.09314,0.19791,0.298115,0.110964,
2,0,0,1,0,6495.47,0.10662,0.106341,-0.768404,5,1.99126,10,-8.17126e-05,-3.11441,0.226179,0.260856,0.106955,
2,0,0,1,0,6496.27,0.102625,0.102337,-0.74119,5,1.99064,10,-7.5851e-05,-3.13007,0.222168,0.265565,0.10293,
2,0,0,1,0,6497.07,0.0986305,0.0983086,-0.715549,5,1.99004,10,-7.03447e-05,-3.14536,0.320981,0.183812,0.0988811,
2,0,0,0,0,6497.87,0.0946351,0.0943096,-0.690773,5,1.98946,10,-6.51465e-05,-3.16066,0.352545,0.167355,0.0948622,
2,0,0,1,0,6498.67,0.0906399,0.0903373,-0.679443,5,1.9889,10,-6.13791e-05,-3.16785,0.36674,0.160877,0.0908809,
2,0,0,0,0,6499.47,0.0866448,0.0863608,-0.666789,5,1.98834,10,-5.75844e-05,-3.17601,0.802894,0.0734842,0.0868942,
2,0,0,1,0,6500.27,0.0826492,0.0823372,-0.655304,5,1.9878,10,-5.39559e-05,-3.18356,0.458447,0.128695,0.0828615,
2,0,0,1,0,6501.07,0.0786544,0.0783388,-0.645695,5,1.98726,10,-5.05829e-05,-3.18997,0.562089,0.104966,0.0788553,
2,0,0,1,0,6501.87,0.0746596,0.0743711,-0.630281,5,1.98674,10,-4.68747e-05,-3.20047,0.466813,0.126389,0.0748753,
2,0,0,1,0,6502.67,0.0706641,0.0703497,-0.617631,5,1.98622,10,-4.34501e-05,-3.20927,0.333906,0.176696,0.0708438,
2,0,0,0,0,6503.46,0.0666689,0.0663594,-0.602594,5,1.98572,10,-3.99878e-05,-3.21998,0.390159,0.151221,0.0668415,
2,0,0,1,0,6504.26,0.0626737,0.0623553,-0.583175,5,1.98523,10,-3.63641e-05,-3.2342,0.299205,0.19719,0.0628218,
2,0,0,1,0,6505.06,0.0586783,0.058352,-0.568503,5,1.98475,10,-3.31733e-05,-3.24527,0.282246,0.209038,0.0588068,
2,0,0,1,0,6505.86,0.0546835,0.0543832,-0.551919,5,1.98429,10,-3.00151e-05,-3.25812,0.390201,0.151204,0.0548248,
2,0,0,1,0,6506.66,0.0506886,0.0503923,-0.535645,5,1.98384,10,-2.69924e-05,-3.27112,0.330904,0.178299,0.0508208,
2,0,0,0,0,6507.46,0.046693,0.0463824,-0.521959,5,1.9834,10,-2.42097e-05,-3.28236,0.351575,0.167816,0.0468,
2,0,0,1,0,6508.26,0.0426979,0.0423794,-0.510416,5,1.98297,10,-2.16311e-05,-3.29208,0.471488,0.125136,0.0427877,
2,0,0,1,0,6509.06,0.0387022,0.0383885,-0.499405,5,1.98255,10,-1.91714e-05,-3.30155,0.47727,0.12362,0.038788,
2,0,0,1,0,6509.86,0.0347074,0.0344316,-0.492685,5,1.98214,10,-1.69639e-05,-3.30743,0.591321,0.0997766,0.0348257,
2,0,0,1,0,6510.66,0.0307126,0.0304044,-0.484151,5,1.98173,10,-1.47203e-05,-3.31502,1.40206,0.0420809,0.0307917,
2,0,0,0,0,6511.45,0.0267172,0.0264383,-0.482724,5,1.98133,10,-1.27624e-05,-3.3163,0.749501,0.0787191,0.0268245,
2,0,0,1,0,6512.25,0.022722,0.0224331,-0.478903,5,1.98093,10,-1.07433e-05,-3.31975,-3.34531,-0.0176366,0.0228162,
2,0,0,0,0,6513.05,0.0187268,0.018394,-0.480389,5,1.98053,10,-8.83629e-06,-3.31841,24.0268,0.0024556,0.0187783,
2,0,0,1,0,6513.85,0.0147313,0.0144181,-0.481649,5,1.98013,10,-6.94446e-06,-3.31727,-4.08065,-0.0144585,0.0148034,
2,0,0,1,0,6514.65,0.0107365,0.0104071,-0.483222,5,1.97973,10,-5.02893e-06,-3.31585,-1.32397,-0.0445628,0.0107937,
2,0,0,1,0,6515.45,0.00674163,0.0064287,-0.48557,5,1.97932,10,-3.12158e-06,-3.31375,-1.37989,-0.042757,0.00681715,
2,0,0,1,0,6516.25,0.00274612,0.00243067,-0.487162,5,1.97892,10,-1.18413e-06,-3.31233,-1.12095,-0.0526339,0.0028204,
2,0,0,0,0,6516.74,0.000274105,-0.000109398,-0.491928,5,1.97867,10,5.38161e-08,-3.3081, , ,0.000284145,