File: Figure_codes/Fig_3-5/workspace_calculate_alpha_eff/20221101_1-115_003_TrumpetPlot_ParaChange_from10_every3_16_CV_C01_35.csv
mode,ox/red,error,control changes,counter inc.,time/s,control/V,Ewe/V,<I>/mA,cycle number,(Q-Qo)/C,I Range,P/W,log(|I|),Tafel slope mV/dec,alpha_eff,E-IR/V,
2,0,0,0,0,23641.6,2.44065e-05,-0.000363498,-0.102574,36,0.0000000E+000,10,3.72855e-08,-3.98896, , ,-0.000318366,
2,1,0,0,0,23642.3,0.00379485,0.00351123,0.151326,36,9.94972e-05,10,5.31341e-07,-3.82009,0.0368477,1.60118,0.00344464,
2,1,0,1,0,23643.1,0.00779002,0.00745912,0.175494,36,0.000243689,10,1.30903e-06,-3.75574,0.0741414,0.795777,0.0073819,
2,1,0,0,0,23643.9,0.0117852,0.0114611,0.191037,36,0.000403669,10,2.1895e-06,-3.71888,0.114288,0.516238,0.011377,
2,1,0,1,0,23644.7,0.0157806,0.0154739,0.206554,36,0.000575904,10,3.19619e-06,-3.68497,0.130635,0.45164,0.015383,
2,1,0,1,0,23645.5,0.0197754,0.0194046,0.219675,36,0.00075909,10,4.26272e-06,-3.65822,0.151513,0.389405,0.019308,
2,1,0,1,0,23646.3,0.0237704,0.0234487,0.233422,36,0.000953749,10,5.47343e-06,-3.63186,0.163139,0.361656,0.023346,
2,1,0,1,0,23647.1,0.0277659,0.0274382,0.248735,36,0.00115937,10,6.82484e-06,-3.60426,0.160291,0.368081,0.0273288,
2,1,0,0,0,23647.9,0.0317611,0.0314508,0.26172,36,0.00137682,10,8.23132e-06,-3.58216,0.147607,0.399711,0.0313357,
2,1,0,1,0,23648.7,0.0357567,0.0354288,0.277492,36,0.0016063,10,9.83121e-06,-3.55675,0.213234,0.276692,0.0353067,
2,1,0,1,0,23649.5,0.0397516,0.0394645,0.292693,36,0.00184724,10,1.1551e-05,-3.53359,0.161824,0.364594,0.0393357,
2,1,0,1,0,23650.3,0.0437465,0.0434342,0.305356,36,0.00210006,10,1.32629e-05,-3.51519,0.197625,0.298545,0.0432998,
2,1,0,1,0,23651.1,0.0477413,0.0474032,0.32063,36,0.00236345,10,1.51989e-05,-3.494,0.199234,0.296134,0.0472621,
2,1,0,0,0,23651.9,0.0517369,0.051413,0.333682,36,0.00263775,10,1.71556e-05,-3.47667,0.231833,0.254493,0.0512662,
2,1,0,1,0,23652.7,0.0557321,0.0554118,0.346023,36,0.0029227,10,1.91737e-05,-3.4609,0.331697,0.177873,0.0552595,
2,1,0,1,0,23653.5,0.0597277,0.059446,0.357904,36,0.00321698,10,2.12759e-05,-3.44623,0.277232,0.212818,0.0592885,
2,1,0,1,0,23654.3,0.0637226,0.0633872,0.368806,36,0.00352077,10,2.33776e-05,-3.4332,0.302609,0.194971,0.063225,
2,1,0,1,0,23655.1,0.0677174,0.0674248,0.380045,36,0.00383405,10,2.56245e-05,-3.42017,0.438672,0.134497,0.0672576,
2,1,0,0,0,23655.9,0.0717128,0.0714038,0.389426,36,0.00415499,10,2.78065e-05,-3.40958,0.300561,0.1963,0.0712324,
2,1,0,1,0,23656.7,0.075708,0.0753538,0.397008,36,0.00448337,10,2.99161e-05,-3.4012,0.458561,0.128663,0.0751791,
2,1,0,0,0,23657.5,0.0797031,0.0793982,0.407781,36,0.00481847,10,3.23771e-05,-3.38957,0.410708,0.143655,0.0792187,
2,1,0,1,0,23658.3,0.0836986,0.0834174,0.416332,36,0.00516054,10,3.47294e-05,-3.38056,0.397965,0.148254,0.0832342,
2,1,0,1,0,23659.1,0.0876935,0.0873916,0.428377,36,0.00551114,10,3.74365e-05,-3.36817,0.308554,0.191214,0.0872031,
2,1,0,1,0,23659.9,0.0916883,0.0913824,0.442327,36,0.00587162,10,4.04209e-05,-3.35426,0.233898,0.252247,0.0911878,
2,1,0,1,0,23660.7,0.0956838,0.0953774,0.459668,36,0.00624544,10,4.38419e-05,-3.33756,0.214094,0.275579,0.0951752,
2,1,0,0,0,23661.5,0.099679,0.0993497,0.481967,36,0.0066353,10,4.78833e-05,-3.31698,0.21708,0.271789,0.0991376,
2,1,0,1,0,23662.3,0.103674,0.103355,0.506557,36,0.00704323,10,5.23552e-05,-3.29537,0.171544,0.343935,0.103132,
2,1,0,1,0,23663.1,0.10767,0.107312,0.528175,36,0.00747138,10,5.66797e-05,-3.27722,0.225946,0.261124,0.10708,
2,1,0,1,0,23663.9,0.111664,0.111367,0.550158,36,0.0079159,10,6.12696e-05,-3.25951,0.26685,0.221098,0.111125,
2,1,0,1,0,23664.7,0.115659,0.115318,0.565789,36,0.00837514,10,6.52457e-05,-3.24735,0.299095,0.197262,0.115069,
2,1,0,0,0,23665.5,0.119655,0.119324,0.580496,36,0.0088478,10,6.92668e-05,-3.2362,0.462446,0.127582,0.119068,
2,1,0,1,0,23666.3,0.12365,0.123329,0.595608,36,0.00933118,10,7.34555e-05,-3.22504,0.370991,0.159034,0.123067,
2,1,0,1,0,23667.1,0.127646,0.127341,0.606949,36,0.00982602,10,7.72893e-05,-3.21685,0.512231,0.115182,0.127074,
2,1,0,1,0,23667.9,0.131641,0.131316,0.615578,36,0.0103295,10,8.08352e-05,-3.21072,-2.03152,-0.0290423,0.131045,
2,1,0,1,0,23668.7,0.135635,0.135322,0.606923,36,0.0108328,10,8.213e-05,-3.21687,-0.365353,-0.161487,0.135055,
2,1,0,0,0,23669.5,0.139631,0.139324,0.576421,36,0.0113217,10,8.03092e-05,-3.23926,-0.131895,-0.447327,0.13907,
2,1,0,1,0,23670.3,0.143626,0.143296,0.527699,36,0.0117776,10,7.56173e-05,-3.27761,-0.0803608,-0.734188,0.143064,
2,1,0,0,0,23671.1,0.147621,0.147298,0.462651,36,0.0121862,10,6.81475e-05,-3.33475,-0.0682081,-0.865,0.147095,
2,1,0,1,0,23671.9,0.151617,0.151297,0.404379,36,0.0125449,10,6.11814e-05,-3.39321,-0.0714948,-0.825235,0.151119,
2,1,0,1,0,23672.7,0.155612,0.15529,0.36107,36,0.0128616,10,5.60707e-05,-3.44241,-0.0928406,-0.635498,0.155132,
2,1,0,1,0,23673.5,0.159606,0.15927,0.330043,36,0.0131492,10,5.25658e-05,-3.48143,-0.126863,-0.465069,0.159125,
2,1,0,1,0,23674.3,0.163602,0.163301,0.309859,36,0.0134175,10,5.06001e-05,-3.50884,-0.154448,-0.382005,0.163164,
2,1,0,0,0,23675.1,0.167597,0.16723,0.295555,36,0.013672,10,4.94256e-05,-3.52936,-0.247301,-0.238576,0.167099,
2,1,0,1,0,23675.9,0.171592,0.17127,0.284386,36,0.0139174,10,4.87067e-05,-3.54609,-0.32924,-0.1792,0.171145,
2,1,0,1,0,23676.7,0.175588,0.175271,0.278772,36,0.0141554,10,4.88606e-05,-3.55475,-0.410647,-0.143676,0.175148,
2,1,0,1,0,23677.5,0.179582,0.179267,0.271837,36,0.0143878,10,4.87315e-05,-3.56569,-0.455614,-0.129496,0.179148,
2,1,0,1,0,23678.3,0.183577,0.183246,0.267314,36,0.0146163,10,4.89841e-05,-3.57298,-0.38779,-0.152144,0.183128,
2,1,0,0,0,23679.1,0.187573,0.187234,0.263966,36,0.0148409,10,4.94234e-05,-3.57845,-1.13257,-0.0520941,0.187118,
2,1,0,1,0,23679.9,0.191568,0.191236,0.259958,36,0.0150627,10,4.97134e-05,-3.5851,-0.664684,-0.088764,0.191122,
2,1,0,0,0,23680.7,0.195563,0.195289,0.25692,36,0.0152822,10,5.01737e-05,-3.5902,-0.711255,-0.082952,0.195176,
2,1,0,1,0,23681.5,0.199559,0.199253,0.255302,36,0.0154993,10,5.08697e-05,-3.59295,-2.00036,-0.0294947,0.199141,
2,1,0,1,0,23682.3,0.203553,0.203222,0.251849,36,0.0157149,10,5.11812e-05,-3.59886,-1.25164,-0.047138,0.203111,
2,1,0,1,0,23683.1,0.207548,0.207248,0.251023,36,0.0159289,10,5.20239e-05,-3.60029,-1.14952,-0.0513257,0.207137,
2,1,0,1,0,23683.9,0.211544,0.211154,0.24911,36,0.0161411,10,5.26005e-05,-3.60361,-2.371,-0.024884,0.211044,
2,1,0,0,0,23684.7,0.215539,0.215244,0.247735,36,0.0163521,10,5.33234e-05,-3.60601,-0.809842,-0.0728537,0.215135,
2,1,0,1,0,23685.5,0.219535,0.219194,0.245808,36,0.0165617,10,5.38796e-05,-3.6094,-2.0176,-0.0292427,0.219086,
2,1,0,1,0,23686.3,0.223529,0.223224,0.244281,36,0.0167702,10,5.45296e-05,-3.61211,-1.48312,-0.0397809,0.223117,
2,1,0,1,0,23687.1,0.227524,0.227225,0.243412,36,0.0169778,10,5.53092e-05,-3.61366,-1.54212,-0.038259,0.227118,
2,1,0,1,0,23687.9,0.23152,0.231204,0.241456,36,0.017184,10,5.58255e-05,-3.61716,-1.73178,-0.034069,0.231098,
2,1,0,0,0,23688.7,0.235515,0.235237,0.240188,36,0.0173895,10,5.6501e-05,-3.61945,-29.5127,-0.00199914,0.235131,
2,1,0,1,0,23689.5,0.23951,0.239221,0.240263,36,0.017594,10,5.74759e-05,-3.61931,-4.66889,-0.0126368,0.239115,
2,1,0,1,0,23690.3,0.243506,0.243201,0.238815,36,0.0177979,10,5.808e-05,-3.62194,-2.19795,-0.0268432,0.243096,
2,1,0,1,0,23691,0.2475,0.247185,0.239774,36,0.0180012,10,5.92687e-05,-3.6202,-1.04664,-0.0563706,0.24708,
2,1,0,1,0,23691.8,0.251495,0.251186,0.236939,36,0.0182033,10,5.95158e-05,-3.62536,-12.4506,-0.00473872,0.251081,
2,1,0,0,0,23692.6,0.255491,0.255194,0.23588,36,0.0184049,10,6.01953e-05,-3.62731,-3.78012,-0.015608,0.255091,
2,1,0,1,0,23693.4,0.259486,0.259186,0.23635,36,0.0186063,10,6.12585e-05,-3.62644,-0.788213,-0.0748529,0.259082,
2,1,0,0,0,23694.2,0.263481,0.263158,0.236106,36,0.0188065,10,6.21333e-05,-3.62689,3.53594,0.0166858,0.263054,
2,1,0,1,0,23695,0.267477,0.267166,0.233647,36,0.0190063,10,6.24225e-05,-3.63144,-1.53847,-0.0383497,0.267063,
2,1,0,1,0,23695.8,0.271471,0.271181,0.233011,36,0.0192052,10,6.31881e-05,-3.63262,5.48818,0.0107504,0.271078,
2,1,0,1,0,23696.6,0.275466,0.275161,0.232331,36,0.0194033,10,6.39284e-05,-3.63389,-1.80054,-0.0327679,0.275059,
2,1,0,1,0,23697.4,0.279462,0.279181,0.232085,36,0.0196011,10,6.47936e-05,-3.63435,-1.31795,-0.0447665,0.279079,
2,1,0,0,0,23698.2,0.283457,0.283149,0.230796,36,0.0197977,10,6.53497e-05,-3.63677,-4.11883,-0.0143244,0.283047,
2,1,0,1,0,23699,0.287452,0.287156,0.229511,36,0.0199938,10,6.59054e-05,-3.6392,-4.68746,-0.0125868,0.287055,
2,1,0,1,0,23699.8,0.291448,0.291164,0.229746,36,0.0201894,10,6.68937e-05,-3.63875,-1.18885,-0.0496278,0.291063,
2,1,0,1,0,23700.6,0.295442,0.295092,0.229204,36,0.020384,10,6.76363e-05,-3.63978,-26.4618,-0.00222963,0.294992,
2,1,0,1,0,23701.4,0.299437,0.299144,0.226539,36,0.020578,10,6.77678e-05,-3.64486,-1.5799,-0.0373441,0.299044,
2,1,0,0,0,23702.2,0.303433,0.303208,0.226525,36,0.0207711,10,6.86841e-05,-3.64488,4.0354,0.0146206,0.303108,
2,1,0,1,0,23703,0.307428,0.30711,0.22562,36,0.0209635,10,6.929e-05,-3.64662,-1.23597,-0.0477356,0.307011,
2,1,0,1,0,23703.8,0.311424,0.311097,0.22562,36,0.0211554,10,7.01898e-05,-3.64662,-7.95812,-0.00741381,0.310998,
2,1,0,1,0,23704.6,0.315418,0.315134,0.224685,36,0.0213464,10,7.08057e-05,-3.64843,-1.66844,-0.0353624,0.315035,
2,1,0,1,0,23705.4,0.319413,0.319121,0.223016,36,0.021537,10,7.11689e-05,-3.65166,2.65548,0.0222182,0.319023,
2,1,0,0,0,23706.2,0.323409,0.323163,0.223768,36,0.0217272,10,7.23135e-05,-3.6502,-0.924338,-0.0638295,0.323065,
2,1,0,1,0,23707,0.327404,0.327102,0.222463,36,0.0219167,10,7.27681e-05,-3.65274,-7.90942,-0.00745946,0.327004,
2,1,0,0,0,23707.8,0.331399,0.331116,0.221586,36,0.0221057,10,7.33706e-05,-3.65446,-1.81239,-0.0325537,0.331019,
2,1,0,1,0,23708.6,0.335395,0.335113,0.221913,36,0.0222944,10,7.43662e-05,-3.65382,2.82975,0.0208499,0.335016,
2,1,0,1,0,23709.4,0.339389,0.339101,0.220338,36,0.0224824,10,7.47169e-05,-3.65691,-3.84861,-0.0153302,0.339004,
2,1,0,1,0,23710.2,0.343384,0.34313,0.220239,36,0.0226701,10,7.55706e-05,-3.65711,-3.4095,-0.0173046,0.343033,
2,1,0,1,0,23711,0.34738,0.347137,0.22059,36,0.0228574,10,7.65751e-05,-3.65641,-5.31684,-0.0110968,0.34704,
2,1,0,0,0,23711.8,0.351375,0.351062,0.219155,36,0.0230446,10,7.69369e-05,-3.65925,-2.00053,-0.0294921,0.350965,
2,1,0,1,0,23712.6,0.35537,0.35512,0.219329,36,0.0232312,10,7.78881e-05,-3.6589,-1.16642,-0.0505822,0.355023,
2,1,0,1,0,23713.4,0.359366,0.359089,0.218676,36,0.0234171,10,7.8524e-05,-3.6602,2.68826,0.0219473,0.358993,
2,1,0,1,0,23714.2,0.36336,0.363063,0.216669,36,0.0236028,10,7.86646e-05,-3.6642,-2.82368,-0.0208947,0.362968,
2,1,0,1,0,23715,0.367355,0.367094,0.217359,36,0.023788,10,7.97911e-05,-3.66282,4.12908,0.0142889,0.366998,
2,1,0,0,0,23715.8,0.371351,0.371043,0.216893,36,0.0239729,10,8.04767e-05,-3.66375,11.2535,0.0052428,0.370947,
2,1,0,1,0,23716.6,0.375346,0.375071,0.217172,36,0.0241576,10,8.14549e-05,-3.6632,-7.03985,-0.00838086,0.374976,
2,1,0,1,0,23717.4,0.379342,0.379042,0.217403,36,0.0243417,10,8.24049e-05,-3.66273,-1.55224,-0.0380095,0.378946,
2,1,0,1,0,23718.2,0.383336,0.383036,0.217129,36,0.0245255,10,8.31682e-05,-3.66328,-4.01896,-0.0146804,0.382941,
2,1,0,1,0,23719,0.387331,0.387058,0.21611,36,0.0247092,10,8.36471e-05,-3.66533,-4.167,-0.0141589,0.386963,
2,1,0,0,0,23719.8,0.391327,0.391016,0.216135,36,0.0248924,10,8.45122e-05,-3.66527,-6.85979,-0.00860085,0.39092,
2,1,0,1,0,23720.6,0.395322,0.39502,0.215037,36,0.0250754,10,8.49438e-05,-3.66749,-2.67741,-0.0220362,0.394925,
2,1,0,0,0,23721.4,0.399317,0.399069,0.215367,36,0.0252583,10,8.59462e-05,-3.66682,3.9195,0.0150529,0.398975,
2,1,0,1,0,23722.2,0.403313,0.40305,0.215764,36,0.0254408,10,8.69638e-05,-3.66602,11.2226,0.00525727,0.402955,
2,1,0,1,0,23723,0.407307,0.406985,0.215509,36,0.0256235,10,8.77092e-05,-3.66653,12.5505,0.00470101,0.406891,
2,1,0,1,0,23723.8,0.411302,0.410995,0.215885,36,0.0258057,10,8.87279e-05,-3.66578,-5.08534,-0.011602,0.4109,
2,1,0,1,0,23724.6,0.415298,0.414991,0.21433,36,0.025988,10,8.89452e-05,-3.66892,7.38382,0.00799044,0.414897,
2,1,0,0,0,23725.4,0.419293,0.418968,0.214522,36,0.0261701,10,8.98776e-05,-3.66853,-1.58953,-0.0371179,0.418873,
2,1,0,1,0,23726.2,0.423288,0.423,0.214943,36,0.0263521,10,9.09209e-05,-3.66768,2.50024,0.0235977,0.422905,
2,1,0,1,0,23727,0.427283,0.426989,0.213987,36,0.0265342,10,9.137e-05,-3.66961,-2.27634,-0.0259188,0.426895,
2,1,0,1,0,23727.8,0.431278,0.431011,0.214374,36,0.0267162,10,9.23974e-05,-3.66883,5.84429,0.0100953,0.430917,
2,1,0,1,0,23728.6,0.435273,0.434971,0.214091,36,0.026898,10,9.31236e-05,-3.6694,1.65161,0.0357226,0.434877,
2,1,0,0,0,23729.4,0.439269,0.43897,0.214931,36,0.02708,10,9.43483e-05,-3.6677,-5.01423,-0.0117665,0.438876,
2,1,0,1,0,23730.2,0.443264,0.442969,0.214848,36,0.0272621,10,9.51712e-05,-3.66787,8.13936,0.00724873,0.442875,
2,1,0,0,0,23731,0.447259,0.446941,0.214665,36,0.0274443,10,9.59426e-05,-3.66824,5.87581,0.0100412,0.446847,
2,1,0,1,0,23731.8,0.451254,0.450938,0.21581,36,0.0276266,10,9.7317e-05,-3.66593,-1.78245,-0.0331005,0.450843,
2,1,0,1,0,23732.6,0.455249,0.454989,0.215773,36,0.0278087,10,9.81742e-05,-3.666,1.32701,0.0444608,0.454894,
2,1,0,1,0,23733.4,0.459244,0.458971,0.214978,36,0.0279909,10,9.86689e-05,-3.66761,-22.5554,-0.00261579,0.458877,
2,1,0,1,0,23734.2,0.46324,0.462961,0.21577,36,0.0281736,10,9.98931e-05,-3.66601,-36.1045,-0.00163414,0.462866,
2,1,0,0,0,23735,0.467235,0.466915,0.216165,36,0.0283562,10,0.000100931,-3.66522,5.68391,0.0103802,0.46682,
2,1,0,1,0,23735.8,0.471231,0.470945,0.217144,36,0.028539,10,0.000102263,-3.66325,5.86301,0.0100631,0.470849,
2,1,0,1,0,23736.6,0.475225,0.474968,0.217189,36,0.0287223,10,0.000103158,-3.66316,1.03209,0.0571656,0.474872,
2,1,0,1,0,23737.4,0.47922,0.478944,0.217806,36,0.0289059,10,0.000104317,-3.66193,240.927,0.000244888,0.478848,
2,1,0,1,0,23738.2,0.483216,0.482926,0.21831,36,0.02909,10,0.000105428,-3.66093,-2.70728,-0.0217931,0.48283,
2,1,0,0,0,23739,0.487211,0.486936,0.219183,36,0.0292743,10,0.000106728,-3.65919,0.808648,0.0729613,0.486839,
2,1,0,1,0,23739.8,0.491206,0.490927,0.219056,36,0.0294596,10,0.000107541,-3.65944,-14.3522,-0.00411088,0.490831,
2,1,0,1,0,23740.6,0.495201,0.494936,0.220933,36,0.0296454,10,0.000109347,-3.65574,1.17018,0.0504197,0.494839,
2,1,0,1,0,23741.4,0.499196,0.498883,0.22207,36,0.0298319,10,0.000110787,-3.65351,1.98267,0.0297578,0.498785,
2,1,0,1,0,23742.2,0.503191,0.502866,0.222,36,0.0300191,10,0.000111636,-3.65365,36.8311,0.00160191,0.502768,
2,1,0,0,0,23743,0.507187,0.506935,0.223952,36,0.0302069,10,0.000113529,-3.64985,1.18833,0.0496496,0.506836,
2,1,0,1,0,23743.8,0.511182,0.510904,0.224596,36,0.0303954,10,0.000114747,-3.6486,2.1172,0.027867,0.510805,
2,1,0,0,0,23744.6,0.515177,0.514864,0.226182,36,0.030585,10,0.000116453,-3.64554,3.61823,0.0163063,0.514764,
2,1,0,1,0,23745.4,0.519173,0.518951,0.227715,36,0.0307756,10,0.000118173,-3.64261,0.841903,0.0700793,0.51885,
2,1,0,1,0,23746.2,0.523167,0.522828,0.228581,36,0.0309673,10,0.000119509,-3.64096,4.70008,0.012553,0.522728,
2,1,0,1,0,23747,0.527162,0.526851,0.231158,36,0.03116,10,0.000121786,-3.63609,0.868007,0.0679718,0.526749,
2,1,0,1,0,23747.8,0.531158,0.53088,0.232043,36,0.0313536,10,0.000123187,-3.63443,1.98476,0.0297266,0.530778,
2,1,0,0,0,23748.6,0.535153,0.534808,0.233709,36,0.0315487,10,0.000124989,-3.63133,0.889741,0.0663114,0.534705,
2,1,0,1,0,23749.4,0.539148,0.538868,0.235788,36,0.0317452,10,0.000127059,-3.62748,2.76292,0.0213542,0.538764,
2,1,0,1,0,23750.2,0.543143,0.542849,0.236862,36,0.0319432,10,0.00012858,-3.6255,0.888917,0.0663729,0.542745,
2,1,0,1,0,23751,0.547138,0.546874,0.240235,36,0.0321429,10,0.000131378,-3.61936,0.977766,0.0603416,0.546768,
2,1,0,1,0,23751.8,0.551133,0.550864,0.24207,36,0.0323444,10,0.000133348,-3.61606,0.824708,0.0715405,0.550758,
2,1,0,0,0,23752.6,0.555129,0.554867,0.244364,36,0.0325481,10,0.000135589,-3.61196,1.06829,0.0552283,0.55476,
2,1,0,1,0,23753.4,0.559124,0.558833,0.247351,36,0.0327538,10,0.000138228,-3.60669,0.603042,0.0978374,0.558725,
2,1,0,1,0,23754.2,0.56312,0.56281,0.250127,36,0.0329618,10,0.000140774,-3.60184,0.586288,0.100633,0.5627,
2,1,0,1,0,23755,0.567114,0.566837,0.253564,36,0.0331727,10,0.000143729,-3.59591,0.719087,0.0820484,0.566726,
2,1,0,1,0,23755.8,0.571109,0.570796,0.258665,36,0.0333863,10,0.000147645,-3.58726,0.564215,0.10457,0.570682,
2,1,0,0,0,23756.6,0.575105,0.574841,0.2632,36,0.0336036,10,0.000151298,-3.57971,0.46225,0.127637,0.574725,
2,1,0,1,0,23757.4,0.5791,0.578827,0.26735,36,0.0338247,10,0.00015475,-3.57292,0.643287,0.0917164,0.57871,
2,1,0,0,0,23758.2,0.583095,0.582778,0.272284,36,0.0340493,10,0.000158681,-3.56498,0.426363,0.13838,0.582659,
2,1,0,1,0,23759,0.58709,0.586802,0.278093,36,0.0342786,10,0.000163186,-3.55581,0.436346,0.135214,0.58668,
2,1,0,1,0,23759.8,0.591085,0.590821,0.28513,36,0.034513,10,0.000168461,-3.54496,0.309245,0.190787,0.590695,
2,1,0,1,0,23760.6,0.59508,0.594793,0.292742,36,0.0347531,10,0.000174121,-3.53352,0.343074,0.171974,0.594665,
2,1,0,1,0,23761.4,0.599076,0.598759,0.30169,36,0.0349999,10,0.00018064,-3.52044,0.297647,0.198222,0.598626,
2,1,0,0,0,23762.2,0.603071,0.602795,0.312077,36,0.0352537,10,0.000188119,-3.50574,0.269626,0.218822,0.602657,
2,1,0,1,0,23763,0.607066,0.606785,0.322564,36,0.0355159,10,0.000195727,-3.49138,0.265616,0.222125,0.606643,
2,1,0,1,0,23763.8,0.611061,0.610813,0.335566,36,0.0357874,10,0.000204968,-3.47422,0.235649,0.250373,0.610665,
2,1,0,1,0,23764.6,0.615056,0.614765,0.349573,36,0.0360697,10,0.000214905,-3.45646,0.193401,0.305066,0.614611,
2,1,0,1,0,23765.4,0.619051,0.618741,0.366747,36,0.036365,10,0.000226922,-3.43563,0.188755,0.312575,0.618579,
2,1,0,0,0,23766.2,0.623047,0.622823,0.388052,36,0.0366749,10,0.000241688,-3.41111,0.157466,0.374685,0.622652,
2,1,0,1,0,23767,0.627042,0.62676,0.410617,36,0.0370023,10,0.000257358,-3.38656,0.149874,0.393664,0.626579,
2,1,0,1,0,23767.8,0.631037,0.630771,0.437306,36,0.0373502,10,0.00027584,-3.35921,0.138175,0.426994,0.630578,
2,1,0,1,0,23768.6,0.635032,0.634749,0.469751,36,0.0377213,10,0.000298174,-3.32813,0.126303,0.467131,0.634542,
2,1,0,1,0,23769.4,0.639027,0.638761,0.507153,36,0.0381201,10,0.000323949,-3.29486,0.11184,0.527542,0.638538,
2,1,0,1,0,23770.2,0.643022,0.642725,0.551146,36,0.0385514,10,0.000354235,-3.25873,0.109306,0.539769,0.642482,
2,1,0,1,0,23771,0.647018,0.646798,0.60189,36,0.0390203,10,0.000389301,-3.22048,0.0962866,0.612754,0.646534,
2,1,0,0,0,23771.8,0.651013,0.650755,0.663741,36,0.0395347,10,0.000431933,-3.178,0.0905641,0.651472,0.650463,
2,1,0,1,0,23772.6,0.655008,0.654718,0.733758,36,0.0401019,10,0.000480404,-3.13445,0.0878507,0.671594,0.654395,
2,1,0,1,0,23773.3,0.659003,0.658711,0.818,36,0.0407307,10,0.000538826,-3.08725,0.082686,0.713543,0.658351,
2,1,0,1,0,23774.1,0.662998,0.662695,0.916742,36,0.0414316,10,0.00060752,-3.03775,0.0807294,0.730837,0.662291,
2,1,0,1,0,23774.9,0.666994,0.666739,1.02851,36,0.042216,10,0.000685747,-2.98779,0.0776609,0.759713,0.666287,
2,1,0,0,0,23775.7,0.670989,0.670679,1.15736,36,0.043097,10,0.000776215,-2.93653,0.0756601,0.779803,0.670169,
2,1,0,1,0,23776.5,0.674984,0.674746,1.30657,36,0.0440892,10,0.000881606,-2.88387,0.0733807,0.804026,0.674171,
2,1,0,1,0,23777.3,0.67898,0.678652,1.47531,36,0.0452088,10,0.00100122,-2.83112,0.0743514,0.793529,0.678003,
2,1,0,1,0,23778.1,0.682974,0.682708,1.66795,36,0.0464729,10,0.00113872,-2.77782,0.0721499,0.817742,0.681974,
2,1,0,1,0,23778.9,0.686969,0.686711,1.88535,36,0.0479002,10,0.00129469,-2.72461,0.0747032,0.789792,0.685881,
2,1,0,0,0,23779.7,0.690965,0.690693,2.12677,36,0.0495109,10,0.00146894,-2.67228,0.0744086,0.792919,0.689757,
2,1,0,1,0,23780.5,0.69496,0.694691,2.39559,36,0.0513254,10,0.00166419,-2.62059,0.076431,0.771938,0.693637,
2,1,0,0,0,23781.3,0.698955,0.698653,2.68859,36,0.053364,10,0.00187839,-2.57048,0.0766044,0.770191,0.69747,
2,1,0,1,0,23782.1,0.70295,0.702653,3.00991,36,0.0556497,10,0.00211492,-2.52145,0.0792943,0.744064,0.701329,
2,1,0,1,0,23782.9,0.706945,0.706725,3.36196,36,0.058203,10,0.00237598,-2.47341,0.0830396,0.710505,0.705246,
2,1,0,1,0,23783.7,0.71094,0.710649,3.73859,36,0.0610467,10,0.00265683,-2.42729,0.0840419,0.702031,0.709005,
2,1,0,1,0,23784.5,0.714936,0.714678,4.14219,36,0.0642034,10,0.00296033,-2.38277,0.0854985,0.69007,0.712856,
2,1,0,0,0,23785.3,0.718931,0.718652,4.57375,36,0.067693,10,0.00328693,-2.33973,0.0904958,0.651964,0.716639,
2,1,0,1,0,23786.1,0.722927,0.722673,5.03257,36,0.0715394,10,0.00363691,-2.29821,0.0929808,0.63454,0.720459,
2,1,0,1,0,23786.9,0.726921,0.726674,5.51745,36,0.0757629,10,0.00400938,-2.25826,0.0967548,0.609789,0.724246,
2,1,0,1,0,23787.7,0.730916,0.730661,6.03066,36,0.0803848,10,0.00440636,-2.21964,0.0987561,0.597432,0.728007,
2,1,0,1,0,23788.5,0.734911,0.734601,6.56937,36,0.0854275,10,0.00482587,-2.18248,0.103633,0.569315,0.73171,
2,1,0,0,0,23789.3,0.738907,0.738647,7.13697,36,0.0909125,10,0.0052717,-2.14649,0.10504,0.561688,0.735506,
2,1,0,1,0,23790.1,0.742902,0.742654,7.73166,36,0.0968604,10,0.00574195,-2.11173,0.109924,0.536732,0.739252,
2,1,0,1,0,23790.9,0.746897,0.746628,8.35246,36,0.103296,10,0.00623618,-2.07819,0.113086,0.521725,0.742953,
2,1,0,1,0,23791.7,0.750892,0.750655,9.00329,36,0.110237,10,0.00675836,-2.0456,0.114468,0.515428,0.746693,
2,1,0,1,0,23792.5,0.754887,0.754615,9.68301,36,0.11771,10,0.00730694,-2.01399,0.116458,0.506622,0.750354,
2,1,0,0,0,23793.3,0.758883,0.758574,10.4078,36,0.125746,10,0.00789508,-1.98264,0.119317,0.494482,0.753994,
2,1,0,1,0,23794.1,0.762878,0.762647,11.1634,36,0.134371,10,0.0085137,-1.95221,0.120349,0.490243,0.757735,
2,1,0,0,0,23794.9,0.766873,0.766637,11.9593,36,0.143617,10,0.00916845,-1.92229,0.12388,0.476269,0.761375,
2,1,0,1,0,23795.7,0.770868,0.770602,12.8049,36,0.153517,10,0.00986752,-1.89262,0.119348,0.494354,0.764968,
2,1,0,1,0,23796.5,0.774863,0.774597,13.7057,36,0.164114,10,0.0106164,-1.8631,0.124956,0.472165,0.768566,
2,1,0,1,0,23797.3,0.778858,0.778567,14.6516,36,0.175448,10,0.0114072,-1.83412,0.122109,0.483174,0.772121,
2,1,0,1,0,23798.1,0.782854,0.782599,15.6745,36,0.187569,10,0.0122668,-1.80481,0.122352,0.482215,0.775703,
2,1,0,0,0,23798.9,0.786849,0.786576,16.7603,36,0.200535,10,0.0131832,-1.77572,0.119191,0.495003,0.779201,
2,1,0,1,0,23799.7,0.790844,0.79056,17.9122,36,0.214389,10,0.0141607,-1.74685,0.121472,0.48571,0.782678,
2,1,0,1,0,23800.5,0.794839,0.794536,19.1396,36,0.2292,10,0.0152071,-1.71807,0.119861,0.492239,0.786115,
2,1,0,1,0,23801.3,0.798834,0.798572,20.4156,36,0.24501,10,0.0163033,-1.69004,0.122148,0.483019,0.789589,
2,1,0,1,0,23802.1,0.802829,0.802523,21.7751,36,0.261868,10,0.017475,-1.66204,0.123541,0.477575,0.792942,
2,1,0,0,0,23802.9,0.806825,0.806552,23.1695,36,0.279834,10,0.0186874,-1.63508,0.126245,0.467344,0.796357,
2,1,0,1,0,23803.7,0.81082,0.810542,24.5711,36,0.298928,10,0.0199159,-1.60957,0.13447,0.438759,0.799731,
2,1,0,1,0,23804.5,0.814815,0.814567,26.0257,36,0.319149,10,0.0211997,-1.5846,0.131567,0.448439,0.803115,
2,1,0,1,0,23805.3,0.81881,0.81853,27.577,36,0.340577,10,0.0225726,-1.55945,0.137503,0.429081,0.806396,
2,1,0,1,0,23806.1,0.822805,0.822585,29.2306,36,0.363254,10,0.0240447,-1.53416,0.135227,0.436304,0.809724,
2,1,0,0,0,23806.9,0.826801,0.826535,30.7596,36,0.387226,10,0.0254239,-1.51202,0.150081,0.393122,0.813001,
2,1,0,1,0,23807.7,0.830796,0.830548,32.3359,36,0.412447,10,0.0268565,-1.49031,0.152265,0.387483,0.81632,
2,1,0,0,0,23808.5,0.834791,0.834562,33.9764,36,0.438957,10,0.0283554,-1.46882,0.161609,0.36508,0.819613,
2,1,0,1,0,23809.3,0.838786,0.838546,35.573,36,0.466758,10,0.0298296,-1.44888,0.167562,0.352109,0.822894,
2,1,0,1,0,23810.1,0.842781,0.842531,37.1117,36,0.495819,10,0.0312678,-1.43049,0.183187,0.322074,0.826202,
2,1,0,1,0,23810.9,0.846776,0.846556,38.7521,36,0.52614,10,0.0328058,-1.41171,0.17355,0.33996,0.829505,
2,1,0,0,0,23811.6,0.849723,0.849482,39.8093,36,0.553752,10,0.0338173,-1.40002,0.0440778,1.33854,0.831966,
2,1,0,1,0,23812.4,0.845728,0.845473,37.4052,36,0.584496,10,0.0316251,-1.42707,0.12752,0.462673,0.829015,
2,1,0,0,0,23813.2,0.841732,0.841497,35.3705,36,0.613555,10,0.0297642,-1.45136,0.128681,0.458499,0.825934,
2,1,0,1,0,23814,0.837737,0.837463,33.5259,36,0.641055,10,0.0280767,-1.47462,0.14021,0.420798,0.822712,
2,1,0,1,0,23814.8,0.833742,0.833482,31.6955,36,0.667102,10,0.0264177,-1.499,0.125604,0.469731,0.819536,
2,1,0,1,0,23815.6,0.829747,0.829468,29.9347,36,0.691699,10,0.0248299,-1.52382,0.133134,0.443164,0.816296,
2,1,0,1,0,23816.4,0.825752,0.825517,28.2641,36,0.714932,10,0.0233325,-1.54877,0.130532,0.451996,0.813081,
2,1,0,0,0,23817.2,0.821757,0.821513,26.6372,36,0.736851,10,0.0218828,-1.57451,0.125532,0.470001,0.809793,
2,1,0,1,0,23818,0.817761,0.81749,25.0863,36,0.757499,10,0.0205078,-1.60056,0.13315,0.443109,0.806452,
2,1,0,1,0,23818.8,0.813766,0.813563,23.6319,36,0.776949,10,0.019226,-1.6265,0.122893,0.480092,0.803165,
2,1,0,1,0,23819.6,0.809771,0.809522,22.1986,36,0.795243,10,0.0179703,-1.65367,0.121939,0.483849,0.799755,
2,1,0,1,0,23820.4,0.805776,0.805489,20.8076,36,0.81241,10,0.0167603,-1.68178,0.118298,0.498742,0.796333,
2,1,0,0,0,23821.2,0.801781,0.801497,19.4418,36,0.828479,10,0.0155826,-1.71126,0.115685,0.510006,0.792942,
2,1,0,1,0,23822,0.797786,0.797498,18.1664,36,0.843485,10,0.0144877,-1.74073,0.113054,0.521875,0.789505,
2,1,0,1,0,23822.8,0.79379,0.793484,16.9335,36,0.857492,10,0.0134365,-1.77125,0.139686,0.422375,0.786033,
2,1,0,1,0,23823.6,0.789795,0.789578,15.9905,36,0.870657,10,0.0126258,-1.79614,0.119871,0.492195,0.782542,
2,1,0,1,0,23824.4,0.7858,0.785503,14.8938,36,0.882986,10,0.0116992,-1.82699,0.108787,0.542342,0.778949,
2,1,0,0,0,23825.2,0.781805,0.781492,13.8115,36,0.894441,10,0.0107936,-1.85976,0.108036,0.546116,0.775415,
2,1,0,1,0,23826,0.77781,0.77753,12.808,36,0.905059,10,0.00995857,-1.89252,0.110466,0.534103,0.771894,
2,1,0,0,0,23826.8,0.773815,0.773541,11.8825,36,0.91491,10,0.00919161,-1.92509,0.106275,0.555165,0.768313,
2,1,0,1,0,23827.6,0.769819,0.769553,10.9866,36,0.924034,10,0.00845476,-1.95914,0.105624,0.558584,0.764719,
2,1,0,1,0,23828.4,0.765824,0.765563,10.1414,36,0.932459,10,0.00776387,-1.9939,0.104191,0.566268,0.761101,
2,1,0,1,0,23829.2,0.761829,0.76151,9.34796,36,0.940231,10,0.00711857,-2.02928,0.100258,0.58848,0.757397,
2,1,0,1,0,23830,0.757834,0.75754,8.60351,36,0.94739,10,0.0065175,-2.06532,0.103732,0.568774,0.753754,
2,1,0,0,0,23830.8,0.753839,0.753582,7.90126,36,0.953971,10,0.00595425,-2.1023,0.0971115,0.607549,0.750106,
2,1,0,1,0,23831.6,0.749844,0.74956,7.23969,36,0.960009,10,0.00542658,-2.14028,0.0962132,0.613221,0.746375,
2,1,0,1,0,23832.4,0.745848,0.745566,6.61673,36,0.965531,10,0.00493321,-2.17936,0.0934631,0.631265,0.742655,
2,1,0,1,0,23833.2,0.741853,0.74156,6.02422,36,0.97057,10,0.00446732,-2.2201,0.0931223,0.633575,0.738909,
2,1,0,1,0,23834,0.737858,0.737564,5.48152,36,0.975155,10,0.00404297,-2.2611,0.0900017,0.655543,0.735152,
2,1,0,0,0,23834.8,0.733863,0.733605,4.97526,36,0.979321,10,0.00364988,-2.30318,0.0884223,0.667253,0.731416,
2,1,0,1,0,23835.6,0.729868,0.729582,4.49584,36,0.983093,10,0.00328008,-2.34719,0.0841475,0.70115,0.727604,
2,1,0,1,0,23836.4,0.725872,0.725653,4.05446,36,0.986498,10,0.00294213,-2.39207,0.082808,0.712491,0.723869,
2,1,0,1,0,23837.2,0.721877,0.721593,3.64,36,0.98956,10,0.0026266,-2.4389,0.0819047,0.720349,0.719991,
2,1,0,1,0,23838,0.717882,0.717619,3.26662,36,0.99231,10,0.00234419,-2.4859,0.0785595,0.751023,0.716181,
2,1,0,0,0,23838.8,0.713887,0.713614,2.91312,36,0.994767,10,0.00207884,-2.53564,0.0763882,0.77237,0.712332,
2,1,0,1,0,23839.6,0.709892,0.709588,2.58125,36,0.996951,10,0.00183162,-2.58817,0.0724852,0.813959,0.708452,
2,1,0,0,0,23840.4,0.705897,0.705639,2.27946,36,0.998882,10,0.00160848,-2.64217,0.0696402,0.847212,0.704636,
2,1,0,1,0,23841.2,0.701901,0.701653,2.00139,36,1.00058,10,0.00140428,-2.69867,0.06616,0.891777,0.700772,
2,1,0,1,0,23842,0.697906,0.697621,1.74516,36,1.00206,10,0.00121746,-2.75816,0.0652418,0.904328,0.696854,
2,1,0,1,0,23842.8,0.693911,0.693685,1.51503,36,1.00336,10,0.00105096,-2.81958,0.0616823,0.956515,0.693018,
2,1,0,1,0,23843.6,0.689916,0.689623,1.3053,36,1.00447,10,0.000900165,-2.88429,0.0593582,0.993966,0.689049,
2,1,0,0,0,23844.4,0.685921,0.685615,1.11842,36,1.00543,10,0.000766808,-2.95139,0.0573459,1.02884,0.685122,
2,1,0,1,0,23845.2,0.681926,0.681634,0.951839,36,1.00625,10,0.000648806,-3.02144,0.054021,1.09217,0.681215,
2,1,0,1,0,23846,0.67793,0.677651,0.803315,36,1.00694,10,0.000544368,-3.09511,0.0521018,1.1324,0.677298,
2,1,0,1,0,23846.8,0.673935,0.673643,0.670919,36,1.00752,10,0.00045196,-3.17333,0.0491108,1.20136,0.673347,
2,1,0,1,0,23847.6,0.66994,0.66964,0.558106,36,1.008,10,0.00037373,-3.25328,0.0484288,1.21828,0.669394,
2,1,0,0,0,23848.4,0.665945,0.665681,0.456867,36,1.00839,10,0.000304128,-3.34021,0.0443313,1.33089,0.66548,
2,1,0,1,0,23849.2,0.66195,0.661712,0.37,36,1.00871,10,0.000244834,-3.4318,0.0407292,1.44859,0.661549,
2,1,0,0,0,23850,0.657955,0.657622,0.294923,36,1.00897,10,0.000193948,-3.53029,0.0394145,1.49691,0.657492,
2,1,0,1,0,23850.8,0.653959,0.653665,0.230547,36,1.00917,10,0.0001507,-3.63724,0.0361056,1.6341,0.653564,
2,1,0,1,0,23851.6,0.649964,0.649664,0.175911,36,1.00932,10,0.000114283,-3.75471,0.0310581,1.89967,0.649586,
2,1,0,1,0,23852.4,0.64597,0.645682,0.128978,36,1.00943,10,8.32791e-05,-3.88948,0.0275705,2.13996,0.645625,
2,1,0,1,0,23853.2,0.641974,0.641673,0.0898107,36,1.00951,10,5.76292e-05,-4.04667,0.0227505,2.59335,0.641634,
2,1,0,0,0,23854,0.637979,0.637734,0.0575822,36,1.00956,10,3.67221e-05,-4.23971,0.016514,3.57272,0.637709,
2,1,0,1,0,23854.8,0.633983,0.633683,0.0290445,36,1.00958,10,1.8405e-05,-4.53694,0.0101152,5.83281,0.63367,
2,1,0,1,0,23855.6,0.629988,0.629731,0.00533908,36,1.00959,10,3.36219e-06,-5.27253,0.00749269,7.87435,0.629729,
2,1,0,1,0,23856.4,0.625993,0.62567,-0.0132595,36,1.00957,10,-8.29607e-06,-4.87747,-0.0060987,-9.67419,0.625676,
2,0,0,1,0,23857.1,0.621998,0.62173,-0.0292877,36,1.00955,10,-1.82091e-05,-4.53331,-0.0177192,-3.32972,0.621743,
2,0,0,0,0,23857.9,0.618003,0.617754,-0.0429271,36,1.00951,10,-2.65184e-05,-4.36727,-0.029733,-1.98433,0.617773,
2,0,0,1,0,23858.7,0.614008,0.613691,-0.0533715,36,1.00946,10,-3.27537e-05,-4.27269,-0.0540279,-1.09203,0.613715,
2,0,0,1,0,23859.5,0.610012,0.609723,-0.0630339,36,1.00941,10,-3.84332e-05,-4.20043,-0.0686877,-0.85896,0.609751,
2,0,0,1,0,23860.3,0.606017,0.605715,-0.0710371,36,1.00934,10,-4.30283e-05,-4.14851,-0.0870168,-0.67803,0.605746,
2,0,0,1,0,23861.1,0.602022,0.601714,-0.0783873,36,1.00927,10,-4.71668e-05,-4.10575,-0.113014,-0.522057,0.601749,
2,0,0,0,0,23861.9,0.598027,0.597729,-0.0842309,36,1.0092,10,-5.03473e-05,-4.07453,-0.148506,-0.39729,0.597766,
2,0,0,1,0,23862.7,0.594032,0.593684,-0.0887788,36,1.00912,10,-5.27065e-05,-4.05169,-0.169687,-0.347699,0.593723,
2,0,0,0,0,23863.5,0.590037,0.58975,-0.0932914,36,1.00904,10,-5.50186e-05,-4.03016,-0.217049,-0.271828,0.589791,
2,0,0,1,0,23864.3,0.586041,0.585727,-0.0960569,36,1.00895,10,-5.62632e-05,-4.01747,-0.295184,-0.199875,0.585769,
2,0,0,1,0,23865.1,0.582046,0.581754,-0.099375,36,1.00886,10,-5.78118e-05,-4.00272,-0.299803,-0.196796,0.581798,
2,0,0,1,0,23865.9,0.578052,0.577778,-0.101678,36,1.00877,10,-5.87472e-05,-3.99277,-0.350115,-0.168516,0.577823,
2,0,0,1,0,23866.7,0.574056,0.573761,-0.104454,36,1.00868,10,-5.99318e-05,-3.98107,-0.457852,-0.128863,0.573807,
2,0,0,0,0,23867.5,0.570061,0.569716,-0.106779,36,1.00859,10,-6.08338e-05,-3.97151,-9.84088,-0.0059954,0.569763,
2,0,0,1,0,23868.3,0.566065,0.565766,-0.108414,36,1.00849,10,-6.13368e-05,-3.96492,-0.311293,-0.189532,0.565814,
2,0,0,1,0,23869.1,0.56207,0.561725,-0.109757,36,1.0084,10,-6.16534e-05,-3.95957,-1.51587,-0.0389217,0.561773,
2,0,0,1,0,23869.9,0.558075,0.557746,-0.111522,36,1.0083,10,-6.22007e-05,-3.95264,-0.414932,-0.142192,0.557795,
2,0,0,1,0,23870.7,0.55408,0.553815,-0.111837,36,1.0082,10,-6.19371e-05,-3.95141,-0.501777,-0.117582,0.553864,
2,0,0,0,0,23871.5,0.550085,0.549783,-0.113979,36,1.0081,10,-6.26635e-05,-3.94318,8.5241,0.00692155,0.549833,
2,0,0,1,0,23872.3,0.54609,0.545789,-0.114805,36,1.008,10,-6.26591e-05,-3.94004,-0.661432,-0.0892004,0.54584,
2,0,0,1,0,23873.1,0.542094,0.541768,-0.116663,36,1.0079,10,-6.3204e-05,-3.93307,-0.997894,-0.0591245,0.541819,
2,0,0,1,0,23873.9,0.538099,0.537804,-0.117251,36,1.00779,10,-6.30581e-05,-3.93088,-12.5258,-0.00471028,0.537856,
2,0,0,1,0,23874.7,0.534104,0.533818,-0.119134,36,1.00769,10,-6.35959e-05,-3.92396,-0.48397,-0.121908,0.533871,
2,0,0,0,0,23875.5,0.530109,0.529811,-0.119143,36,1.00758,10,-6.31235e-05,-3.92393,-1.39408,-0.0423218,0.529864,
2,0,0,1,0,23876.3,0.526114,0.525802,-0.12105,36,1.00748,10,-6.36483e-05,-3.91704,-1.36579,-0.0431984,0.525855,
2,0,0,0,0,23877.1,0.522119,0.521819,-0.122228,36,1.00737,10,-6.37808e-05,-3.91283,-0.633304,-0.0931623,0.521873,
2,0,0,1,0,23877.9,0.518123,0.517842,-0.121914,36,1.00727,10,-6.31323e-05,-3.91395,2.26634,0.0260331,0.517896,
2,0,0,1,0,23878.7,0.514128,0.513814,-0.122397,36,1.00716,10,-6.28893e-05,-3.91223,-0.693017,-0.085135,0.513868,
2,0,0,1,0,23879.5,0.510133,0.509827,-0.123625,36,1.00705,10,-6.30274e-05,-3.90789,-1.14336,-0.0516025,0.509881,
2,0,0,1,0,23880.3,0.506138,0.505829,-0.125172,36,1.00694,10,-6.33159e-05,-3.90249,-4.88016,-0.0120898,0.505884,
2,0,0,0,0,23881.1,0.502143,0.501838,-0.126512,36,1.00683,10,-6.34886e-05,-3.89787,-0.498843,-0.118274,0.501893,
2,0,0,1,0,23881.9,0.498148,0.497858,-0.127764,36,1.00672,10,-6.36081e-05,-3.89359,6.98531,0.00844629,0.497914,
2,0,0,1,0,23882.7,0.494152,0.493889,-0.128295,36,1.00661,10,-6.33636e-05,-3.89179,-0.730296,-0.0807892,0.493945,
2,0,0,1,0,23883.5,0.490157,0.489869,-0.129414,36,1.00649,10,-6.3396e-05,-3.88802,-0.953955,-0.0618478,0.489926,
2,0,0,1,0,23884.3,0.486162,0.485837,-0.130651,36,1.00638,10,-6.3475e-05,-3.88389,-0.669701,-0.088099,0.485895,
2,0,0,0,0,23885.1,0.482167,0.481878,-0.131207,36,1.00627,10,-6.32259e-05,-3.88204,-1.24966,-0.0472127,0.481935,
2,0,0,1,0,23885.9,0.478172,0.477885,-0.132396,36,1.00615,10,-6.32699e-05,-3.87813,-1.80571,-0.0326742,0.477943,
2,0,0,0,0,23886.7,0.474177,0.473855,-0.134213,36,1.00603,10,-6.35973e-05,-3.87221,-7.53785,-0.00782716,0.473914,
2,0,0,1,0,23887.5,0.470181,0.469892,-0.134961,36,1.00591,10,-6.34168e-05,-3.86979,-0.403862,-0.14609,0.469951,
2,0,0,1,0,23888.3,0.466186,0.465877,-0.137515,36,1.0058,10,-6.40652e-05,-3.86165,-1.51102,-0.0390465,0.465938,
2,0,0,1,0,23889.1,0.462191,0.461897,-0.138814,36,1.00568,10,-6.41177e-05,-3.85757,-0.8161,-0.072295,0.461958,
2,0,0,1,0,23889.9,0.458196,0.457963,-0.139364,36,1.00555,10,-6.38236e-05,-3.85585,-1.22708,-0.0480815,0.458025,
2,0,0,0,0,23890.7,0.454201,0.453926,-0.141064,36,1.00543,10,-6.40329e-05,-3.85058,-0.754224,-0.0782261,0.453988,
2,0,0,1,0,23891.5,0.450205,0.449879,-0.142886,36,1.00531,10,-6.42815e-05,-3.84501,-1.42273,-0.0414696,0.449942,
2,0,0,1,0,23892.3,0.44621,0.44591,-0.143361,36,1.00518,10,-6.39259e-05,-3.84357,-0.869379,-0.0678645,0.445973,
2,0,0,1,0,23893.1,0.442215,0.441881,-0.145812,36,1.00506,10,-6.44318e-05,-3.83621,-0.95786,-0.0615957,0.441946,
2,0,0,1,0,23893.9,0.43822,0.437904,-0.146356,36,1.00493,10,-6.40898e-05,-3.83459,-0.453622,-0.130064,0.437968,
2,0,0,0,0,23894.7,0.434225,0.433943,-0.148235,36,1.0048,10,-6.43253e-05,-3.82905,-2.45183,-0.0240637,0.434008,
2,0,0,1,0,23895.5,0.43023,0.429937,-0.14914,36,1.00467,10,-6.41208e-05,-3.82641,-0.77545,-0.0760848,0.430002,
2,0,0,1,0,23896.3,0.426234,0.425933,-0.151029,36,1.00454,10,-6.43283e-05,-3.82094,-0.741521,-0.0795662,0.426,
2,0,0,1,0,23897.1,0.422239,0.42191,-0.153452,36,1.00441,10,-6.47429e-05,-3.81403,-0.954196,-0.0618321,0.421977,
2,0,0,1,0,23897.9,0.418244,0.417966,-0.154888,36,1.00427,10,-6.4738e-05,-3.80998,-0.656802,-0.0898291,0.418034,
2,0,0,0,0,23898.7,0.414249,0.413979,-0.156125,36,1.00414,10,-6.46322e-05,-3.80653,-0.653715,-0.0902534,0.414047,
2,0,0,1,0,23899.5,0.410254,0.409941,-0.159713,36,1.004,10,-6.54727e-05,-3.79666,-1.34504,-0.0438649,0.410011,
2,0,0,0,0,23900.3,0.406259,0.405968,-0.161807,36,1.00386,10,-6.56886e-05,-3.791,-0.561517,-0.105073,0.40604,
2,0,0,1,0,23901.1,0.402263,0.40193,-0.163709,36,1.00372,10,-6.57995e-05,-3.78593,-1.75681,-0.0335836,0.402002,
2,0,0,1,0,23901.9,0.398268,0.397971,-0.165657,36,1.00358,10,-6.59266e-05,-3.78079,-0.585308,-0.100802,0.398044,
2,0,0,1,0,23902.7,0.394274,0.393931,-0.167591,36,1.00344,10,-6.60195e-05,-3.77575,-0.69709,-0.0846375,0.394005,
2,0,0,1,0,23903.5,0.390278,0.389913,-0.168523,36,1.00329,10,-6.57092e-05,-3.77334,-0.798767,-0.0738638,0.389987,
2,0,0,0,0,23904.3,0.386283,0.385954,-0.171292,36,1.00314,10,-6.61109e-05,-3.76626,-0.716292,-0.0823686,0.38603,
2,0,0,1,0,23905.1,0.382287,0.381945,-0.171977,36,1.00299,10,-6.56858e-05,-3.76453,-0.90302,-0.0653363,0.382021,
2,0,0,1,0,23905.9,0.378292,0.377978,-0.174818,36,1.00284,10,-6.60773e-05,-3.75741,-2.6118,-0.0225898,0.378055,
2,0,0,1,0,23906.7,0.374297,0.373997,-0.176782,36,1.00269,10,-6.61161e-05,-3.75256,-0.481505,-0.122533,0.374075,
2,0,0,1,0,23907.5,0.370303,0.369956,-0.178788,36,1.00254,10,-6.61439e-05,-3.74766,-0.765816,-0.077042,0.370035,
2,0,0,0,0,23908.3,0.366307,0.365947,-0.182376,36,1.00238,10,-6.67397e-05,-3.73903,-0.535213,-0.110237,0.366027,
2,0,0,1,0,23909.1,0.362312,0.361969,-0.184269,36,1.00222,10,-6.66996e-05,-3.73455,-0.743348,-0.0793707,0.36205,
2,0,0,1,0,23909.9,0.358316,0.358013,-0.187059,36,1.00206,10,-6.69697e-05,-3.72802,-1.14492,-0.051532,0.358096,
2,0,0,1,0,23910.7,0.354321,0.354003,-0.187899,36,1.0019,10,-6.65168e-05,-3.72608,-0.656544,-0.0898645,0.354086,
2,0,0,1,0,23911.5,0.350327,0.350002,-0.189288,36,1.00174,10,-6.6251e-05,-3.72288,-0.848287,-0.0695519,0.350085,
2,0,0,0,0,23912.3,0.346331,0.34601,-0.192633,36,1.00157,10,-6.66529e-05,-3.71527,-1.10746,-0.0532751,0.346095,
2,0,0,1,0,23913.1,0.342336,0.342013,-0.193334,36,1.00141,10,-6.61227e-05,-3.71369,-0.436968,-0.135021,0.342098,
2,0,0,0,0,23913.9,0.338341,0.338046,-0.197082,36,1.00124,10,-6.66227e-05,-3.70535,-1.21905,-0.0483984,0.338133,
2,0,0,1,0,23914.7,0.334345,0.334002,-0.200387,36,1.00107,10,-6.69297e-05,-3.69813,-1.0892,-0.054168,0.33409,
2,0,0,1,0,23915.5,0.33035,0.330057,-0.202502,36,1.0009,10,-6.68371e-05,-3.69357,-0.584905,-0.100871,0.330146,
2,0,0,1,0,23916.3,0.326355,0.32604,-0.204132,36,1.00072,10,-6.65553e-05,-3.69009,-0.869694,-0.0678399,0.32613,
2,0,0,1,0,23917.1,0.32236,0.322096,-0.206608,36,1.00054,10,-6.65476e-05,-3.68485,-0.601182,-0.0981399,0.322186,
2,0,0,0,0,23917.9,0.318365,0.318026,-0.208535,36,1.00036,10,-6.63196e-05,-3.68082,-1.62163,-0.036383,0.318117,
2,0,0,1,0,23918.7,0.31437,0.314071,-0.211787,36,1.00018,10,-6.65163e-05,-3.6741,-7.0172,-0.00840792,0.314165,
2,0,0,1,0,23919.5,0.310374,0.310078,-0.214339,36,1,10,-6.64617e-05,-3.6689,-0.419143,-0.140763,0.310172,
2,0,0,1,0,23920.3,0.306379,0.306072,-0.217451,36,0.999817,10,-6.65556e-05,-3.66264,-0.635493,-0.0928413,0.306168,
2,0,0,1,0,23921.1,0.302385,0.302076,-0.219412,36,0.99963,10,-6.62793e-05,-3.65874,-0.994887,-0.0593032,0.302173,
2,0,0,0,0,23921.9,0.298389,0.298102,-0.221754,36,0.999442,10,-6.61051e-05,-3.65413,-0.468172,-0.126022,0.298199,
2,0,0,1,0,23922.7,0.294394,0.294029,-0.224152,36,0.999251,10,-6.59071e-05,-3.64946,-8.17705,-0.00721531,0.294127,
2,0,0,1,0,23923.5,0.290398,0.290072,-0.22738,36,0.999058,10,-6.59566e-05,-3.64325,-0.503303,-0.117226,0.290172,
2,0,0,1,0,23924.3,0.286403,0.286088,-0.229135,36,0.998862,10,-6.55528e-05,-3.63991,-0.966694,-0.0610327,0.286189,
2,0,0,1,0,23925.1,0.282408,0.282061,-0.231438,36,0.998665,10,-6.52796e-05,-3.63557,-1.71537,-0.0343949,0.282163,
2,0,0,1,0,23925.9,0.278414,0.27805,-0.235232,36,0.998466,10,-6.54062e-05,-3.6285,-0.568766,-0.103733,0.278153,
2,0,0,1,0,23926.7,0.274418,0.274056,-0.238056,36,0.998264,10,-6.52408e-05,-3.62332,-0.85748,-0.0688063,0.274161,
2,0,0,0,0,23927.5,0.270423,0.270113,-0.241144,36,0.998061,10,-6.51361e-05,-3.61772,-0.777914,-0.0758439,0.270219,
2,0,0,1,0,23928.3,0.266427,0.266116,-0.241875,36,0.997856,10,-6.43669e-05,-3.61641,-0.662792,-0.0890174,0.266223,
2,0,0,1,0,23929.1,0.262432,0.262139,-0.244607,36,0.997648,10,-6.41209e-05,-3.61153,-1.4784,-0.0399079,0.262247,
2,0,0,1,0,23929.9,0.258437,0.258131,-0.247777,36,0.997439,10,-6.39588e-05,-3.60594,-1.18534,-0.0497747,0.25824,
2,0,0,1,0,23930.7,0.254442,0.254119,-0.248149,36,0.997228,10,-6.30594e-05,-3.60529,-0.754275,-0.0782208,0.254228,
2,0,0,0,0,23931.5,0.250447,0.250118,-0.252186,36,0.997015,10,-6.30763e-05,-3.59828,-2.27448,-0.0259399,0.250229,
2,0,0,1,0,23932.3,0.246452,0.246174,-0.253772,36,0.9968,10,-6.2472e-05,-3.59556,-0.641273,-0.0920045,0.246285,
2,0,0,1,0,23933.1,0.242456,0.242129,-0.256614,36,0.996583,10,-6.21336e-05,-3.59072,-1.43693,-0.0410596,0.242242,
2,0,0,1,0,23933.9,0.238461,0.238174,-0.259431,36,0.996364,10,-6.17897e-05,-3.58598,-0.790099,-0.0746742,0.238288,
2,0,0,1,0,23934.7,0.234467,0.234122,-0.261893,36,0.996143,10,-6.1315e-05,-3.58188,-0.803426,-0.0734355,0.234238,
2,0,0,0,0,23935.5,0.230471,0.23019,-0.263696,36,0.99592,10,-6.07003e-05,-3.5789,-1.18627,-0.0497357,0.230306,
2,0,0,1,0,23936.3,0.226476,0.226156,-0.267005,36,0.995695,10,-6.03848e-05,-3.57348,-1.0868,-0.0542876,0.226274,
2,0,0,0,0,23937.1,0.222481,0.222195,-0.268885,36,0.995468,10,-5.97447e-05,-3.57043,-0.845973,-0.0697422,0.222313,
2,0,0,1,0,23937.9,0.218485,0.218131,-0.272049,36,0.995239,10,-5.93424e-05,-3.56535,-1.59334,-0.0370291,0.218251,
2,0,0,1,0,23938.7,0.21449,0.214181,-0.27412,36,0.995007,10,-5.87114e-05,-3.56206,-0.659036,-0.0895246,0.214302,
2,0,0,1,0,23939.4,0.210496,0.210144,-0.277544,36,0.994773,10,-5.8324e-05,-3.55667,-0.803049,-0.07347,0.210266,
2,0,0,1,0,23940.2,0.2065,0.206171,-0.282571,36,0.994537,10,-5.82579e-05,-3.54887,-0.947424,-0.0622741,0.206295,
2,0,0,0,0,23941,0.202505,0.202181,-0.283639,36,0.994298,10,-5.73462e-05,-3.54723,-0.806444,-0.0731607,0.202305,
2,0,0,1,0,23941.8,0.198509,0.198186,-0.28761,36,0.994056,10,-5.70002e-05,-3.5412,-0.698846,-0.0844249,0.198312,
2,0,0,1,0,23942.6,0.194514,0.194181,-0.291167,36,0.993812,10,-5.65391e-05,-3.53586,-0.723535,-0.0815441,0.194309,
2,0,0,1,0,23943.4,0.190519,0.190196,-0.294312,36,0.993564,10,-5.5977e-05,-3.53119,-0.557309,-0.105866,0.190326,
2,0,0,1,0,23944.2,0.186524,0.186202,-0.298899,36,0.993313,10,-5.56557e-05,-3.52448,-0.848717,-0.0695167,0.186334,
2,0,0,0,0,23945,0.182529,0.182243,-0.303893,36,0.993058,10,-5.53823e-05,-3.51728,-0.398731,-0.14797,0.182376,
2,0,0,1,0,23945.8,0.178534,0.178193,-0.31107,36,0.992799,10,-5.54306e-05,-3.50714,-0.484419,-0.121795,0.17833,
2,0,0,1,0,23946.6,0.174538,0.174195,-0.317701,36,0.992534,10,-5.5342e-05,-3.49798,-0.353306,-0.166994,0.174335,
2,0,0,1,0,23947.4,0.170543,0.170255,-0.325854,36,0.992264,10,-5.54783e-05,-3.48698,-0.311482,-0.189417,0.170398,
2,0,0,1,0,23948.2,0.166549,0.166263,-0.335118,36,0.991986,10,-5.57177e-05,-3.4748,-0.31357,-0.188156,0.16641,
2,0,0,0,0,23949,0.162553,0.16225,-0.348298,36,0.991699,10,-5.65112e-05,-3.45805,-0.214149,-0.275508,0.162403,
2,0,0,1,0,23949.8,0.158558,0.158235,-0.36223,36,0.991402,10,-5.73175e-05,-3.44102,-0.217235,-0.271595,0.158395,
2,0,0,0,0,23950.6,0.154563,0.154212,-0.38349,36,0.991091,10,-5.91388e-05,-3.41625,-0.167344,-0.352567,0.154381,
2,0,0,1,0,23951.4,0.150567,0.150262,-0.41035,36,0.990762,10,-6.16599e-05,-3.38685,-0.125368,-0.470615,0.150442,
2,0,0,1,0,23952.2,0.146572,0.146239,-0.442219,36,0.990408,10,-6.46696e-05,-3.35436,-0.0990385,-0.595728,0.146433,
2,0,0,1,0,23953,0.142578,0.142251,-0.490816,36,0.990022,10,-6.9819e-05,-3.30908,-0.0866039,-0.681262,0.142467,
2,0,0,1,0,23953.8,0.138582,0.138288,-0.542359,36,0.989596,10,-7.50017e-05,-3.26571,-0.0871281,-0.677164,0.138526,
2,0,0,0,0,23954.6,0.134587,0.134288,-0.60381,36,0.989123,10,-8.10845e-05,-3.2191,-0.0968775,-0.609017,0.134554,
2,0,0,1,0,23955.4,0.130591,0.130266,-0.655382,36,0.988606,10,-8.53742e-05,-3.18351,-0.12387,-0.476306,0.130555,
2,0,0,1,0,23956.2,0.126596,0.12627,-0.694881,36,0.988051,10,-8.77427e-05,-3.15809,-0.194085,-0.30399,0.126576,
2,0,0,1,0,23957,0.122602,0.122236,-0.725451,36,0.987468,10,-8.8676e-05,-3.13939,-0.338497,-0.1743,0.122555,
2,0,0,1,0,23957.8,0.118607,0.118294,-0.73805,36,0.986869,10,-8.73069e-05,-3.13191,-0.619979,-0.0951646,0.118619,
2,0,0,0,0,23958.6,0.114611,0.114275,-0.74119,36,0.986263,10,-8.46994e-05,-3.13007,3.02932,0.0194763,0.114601,
2,0,0,1,0,23959.4,0.110616,0.110267,-0.738332,36,0.985658,10,-8.14134e-05,-3.13175,1.89456,0.0311418,0.110591,
2,0,0,1,0,23960.2,0.10662,0.106316,-0.730094,36,0.985057,10,-7.76209e-05,-3.13662,0.863603,0.0683184,0.106637,
2,0,0,1,0,23961,0.102625,0.102297,-0.721934,36,0.984462,10,-7.38514e-05,-3.1415,0.522388,0.112943,0.102614,
2,0,0,1,0,23961.8,0.0986305,0.0983065,-0.711115,36,0.983876,10,-6.99072e-05,-3.14806,0.691969,0.085264,0.0986194,
2,0,0,0,0,23962.6,0.0946351,0.0943202,-0.696652,36,0.983298,10,-6.57083e-05,-3.15698,0.566244,0.104195,0.0946267,
2,0,0,1,0,23963.4,0.0906399,0.0902567,-0.68798,36,0.982729,10,-6.20948e-05,-3.16242,0.488335,0.120819,0.0905594,
2,0,0,0,0,23964.2,0.0866448,0.0862972,-0.676466,36,0.98217,10,-5.83771e-05,-3.16975,0.614245,0.0960528,0.0865948,
2,0,0,1,0,23965,0.0826492,0.0822908,-0.665734,36,0.98162,10,-5.47838e-05,-3.1767,0.505856,0.116634,0.0825837,
2,0,0,1,0,23965.8,0.0786544,0.0783049,-0.655228,36,0.981079,10,-5.13075e-05,-3.18361,0.797061,0.0740219,0.0785932,
2,0,0,1,0,23966.6,0.0746596,0.0743201,-0.645572,36,0.980546,10,-4.79789e-05,-3.19006,0.588585,0.10024,0.0746041,
2,0,0,1,0,23967.4,0.0706641,0.0703624,-0.636346,36,0.980021,10,-4.47749e-05,-3.19631,0.648457,0.0909853,0.0706424,
2,0,0,0,0,23968.2,0.0666689,0.0663658,-0.627189,36,0.979502,10,-4.16239e-05,-3.2026,0.652758,0.0903858,0.0666417,
2,0,0,1,0,23969,0.0626737,0.0623309,-0.616539,36,0.97899,10,-3.84295e-05,-3.21004,0.596197,0.0989605,0.0626022,
2,0,0,1,0,23969.8,0.0586783,0.0583679,-0.610244,36,0.978486,10,-3.56187e-05,-3.2145,0.51101,0.115458,0.0586364,
2,0,0,1,0,23970.6,0.0546835,0.0543219,-0.600443,36,0.977989,10,-3.26172e-05,-3.22153,0.664739,0.0887567,0.0545861,
2,0,0,1,0,23971.4,0.0506886,0.0503509,-0.589241,36,0.977499,10,-2.96688e-05,-3.22971,0.504644,0.116914,0.0506101,
2,0,0,0,0,23972.2,0.046693,0.0463326,-0.579812,36,0.977019,10,-2.68642e-05,-3.23671,0.478378,0.123333,0.0465877,
2,0,0,1,0,23973,0.0426979,0.0423889,-0.567944,36,0.976547,10,-2.40745e-05,-3.24569,0.584688,0.100909,0.0426388,
2,0,0,1,0,23973.8,0.0387022,0.0383599,-0.557064,36,0.976083,10,-2.13689e-05,-3.2541,0.363036,0.162518,0.038605,
2,0,0,1,0,23974.6,0.0347074,0.0343531,-0.545411,36,0.975629,10,-1.87366e-05,-3.26328,0.56398,0.104614,0.0345931,
2,0,0,1,0,23975.4,0.0307126,0.0304129,-0.533455,36,0.975183,10,-1.62239e-05,-3.2729,0.567146,0.10403,0.0306476,
2,0,0,0,0,23976.2,0.0267172,0.02638,-0.525853,36,0.974745,10,-1.3872e-05,-3.27914,0.411273,0.143457,0.0266113,
2,0,0,1,0,23977,0.022722,0.0223674,-0.517376,36,0.974314,10,-1.15723e-05,-3.28619,0.738904,0.079848,0.022595,
2,0,0,0,0,23977.8,0.0187268,0.0184407,-0.510916,36,0.97389,10,-9.42164e-06,-3.29165,0.603268,0.0978006,0.0186655,
2,0,0,1,0,23978.6,0.0147313,0.0143516,-0.505798,36,0.973471,10,-7.259e-06,-3.29602,1.17094,0.0503868,0.0145741,
2,0,0,1,0,23979.4,0.0107365,0.0104082,-0.501979,36,0.973056,10,-5.22471e-06,-3.29931,1.98227,0.0297638,0.0106291,
2,0,0,1,0,23980.2,0.00674163,0.00639902,-0.497938,36,0.972644,10,-3.18631e-06,-3.30283,4.16449,0.0141674,0.00661812,
2,0,0,1,0,23981,0.00274612,0.00239992,-0.499972,36,0.972232,10,-1.19989e-06,-3.30105,-1.91001,-0.0308898,0.00261991,
2,0,0,0,0,23981.5,0.000274105,-0.000105819,-0.500626,36,0.971974,10,5.29759e-08,-3.30049, , ,0.000114456,