File: Figure_codes/Fig_3-5/workspace_calculate_alpha_eff/20221101_1-115_003_TrumpetPlot_ParaChange_from10_every3_16_CV_C01_17.csv
mode,ox/red,error,control changes,counter inc.,time/s,control/V,Ewe/V,<I>/mA,cycle number,(Q-Qo)/C,I Range,P/W,log(|I|),Tafel slope mV/dec,alpha_eff,E-IR/V,
2,0,0,0,0,11820.8,2.44065e-05,-0.000306236,-0.118475,18,0.0000000E+000,10,3.62813e-08,-3.92637, , ,-0.000254107,
2,1,0,0,0,11821.5,0.00379485,0.00349108,0.15428,18,0.000103692,10,5.38602e-07,-3.81169,0.0378115,1.56037,0.0034232,
2,1,0,1,0,11822.3,0.00779002,0.00751002,0.177099,18,0.000250932,10,1.33001e-06,-3.75178,0.0770493,0.765744,0.0074321,
2,1,0,0,0,11823.1,0.0117852,0.0114897,0.193406,18,0.00041384,10,2.22219e-06,-3.71353,0.119318,0.494477,0.0114046,
2,1,0,1,0,11823.9,0.0157806,0.0154591,0.210096,18,0.000589113,10,3.24789e-06,-3.67758,0.139158,0.423978,0.0153666,
2,1,0,1,0,11824.7,0.0197754,0.0194661,0.222564,18,0.000775757,10,4.33244e-06,-3.65255,0.141546,0.416826,0.0193681,
2,1,0,1,0,11825.5,0.0237704,0.0234667,0.237935,18,0.000973826,10,5.58353e-06,-3.62354,0.157242,0.375218,0.023362,
2,1,0,1,0,11826.3,0.0277659,0.0274213,0.251074,18,0.00118305,10,6.88478e-06,-3.6002,0.146432,0.402916,0.0273108,
2,1,0,0,0,11827.1,0.0317611,0.0314402,0.266629,18,0.00140423,10,8.38287e-06,-3.57409,0.177804,0.331826,0.0313229,
2,1,0,1,0,11827.9,0.0357567,0.0354425,0.281923,18,0.00163721,10,9.99205e-06,-3.54987,0.211622,0.278799,0.0353185,
2,1,0,1,0,11828.7,0.0397516,0.0394251,0.296656,18,0.00188172,10,1.16957e-05,-3.52775,0.160515,0.367567,0.0392946,
2,1,0,1,0,11829.5,0.0437465,0.0434258,0.309454,18,0.0021383,10,1.34383e-05,-3.5094,0.179641,0.328433,0.0432897,
2,1,0,1,0,11830.3,0.0477413,0.0474073,0.324017,18,0.00240584,10,1.53608e-05,-3.48943,0.214977,0.274448,0.0472648,
2,1,0,0,0,11831.1,0.0517369,0.0514151,0.337795,18,0.00268433,10,1.73678e-05,-3.47135,0.216574,0.272424,0.0512665,
2,1,0,1,0,11831.9,0.0557321,0.0554256,0.352493,18,0.00297422,10,1.95371e-05,-3.45285,0.311954,0.189131,0.0552705,
2,1,0,1,0,11832.7,0.0597277,0.0594491,0.365228,18,0.00327369,10,2.17125e-05,-3.43744,0.267618,0.220463,0.0592884,
2,1,0,1,0,11833.5,0.0637226,0.0634073,0.374607,18,0.00358296,10,2.37528e-05,-3.42642,0.303256,0.194555,0.0632424,
2,1,0,1,0,11834.3,0.0677174,0.0673834,0.387065,18,0.00390222,10,2.60818e-05,-3.41222,0.472903,0.124761,0.0672131,
2,1,0,0,0,11835.1,0.0717128,0.0713762,0.397631,18,0.00422949,10,2.83814e-05,-3.40052,0.256259,0.230236,0.0712012,
2,1,0,1,0,11835.9,0.075708,0.0753845,0.405157,18,0.00456524,10,3.05426e-05,-3.39238,0.419542,0.140629,0.0752063,
2,1,0,0,0,11836.7,0.0797031,0.0793579,0.41851,18,0.00490848,10,3.3212e-05,-3.37829,0.427814,0.13791,0.0791737,
2,1,0,1,0,11837.5,0.0836986,0.0833854,0.426989,18,0.00525974,10,3.56046e-05,-3.36958,0.339059,0.174011,0.0831976,
2,1,0,1,0,11838.3,0.0876935,0.0873639,0.43932,18,0.00562014,10,3.83807e-05,-3.35722,0.290653,0.202991,0.0871706,
2,1,0,1,0,11839.1,0.0916883,0.0913613,0.456106,18,0.00599114,10,4.16705e-05,-3.34093,0.231199,0.255191,0.0911606,
2,1,0,1,0,11839.9,0.0956838,0.0953711,0.473401,18,0.00637622,10,4.51488e-05,-3.32477,0.210992,0.279632,0.0951628,
2,1,0,0,0,11840.7,0.099679,0.0993147,0.497469,18,0.00677826,10,4.9406e-05,-3.30323,0.2273,0.259569,0.0990958,
2,1,0,1,0,11841.5,0.103674,0.103378,0.522359,18,0.00719941,10,5.40005e-05,-3.28203,0.159865,0.369061,0.103148,
2,1,0,1,0,11842.3,0.10767,0.107387,0.546222,18,0.00764116,10,5.86571e-05,-3.26263,0.222095,0.265652,0.107147,
2,1,0,1,0,11843.1,0.111664,0.111308,0.56905,18,0.00810086,10,6.33398e-05,-3.24485,0.265553,0.222178,0.111058,
2,1,0,1,0,11843.9,0.115659,0.115302,0.585489,18,0.00857623,10,6.75081e-05,-3.23248,0.273758,0.215519,0.115044,
2,1,0,0,0,11844.7,0.119655,0.119363,0.603375,18,0.00906647,10,7.20206e-05,-3.21941,0.418221,0.141074,0.119097,
2,1,0,1,0,11845.5,0.12365,0.123357,0.619917,18,0.00956961,10,7.64713e-05,-3.20767,0.297429,0.198367,0.123085,
2,1,0,1,0,11846.3,0.127646,0.127335,0.636529,18,0.0100869,10,8.10526e-05,-3.19618,0.383221,0.153958,0.127055,
2,1,0,1,0,11847.1,0.131641,0.131377,0.649986,18,0.010617,10,8.53934e-05,-3.1871,3.35508,0.0175853,0.131091,
2,1,0,1,0,11847.9,0.135635,0.135312,0.645926,18,0.0111497,10,8.74016e-05,-3.18982,-0.492907,-0.119698,0.135028,
2,1,0,0,0,11848.7,0.139631,0.139294,0.615252,18,0.0116707,10,8.57011e-05,-3.21095,-0.140184,-0.420876,0.139023,
2,1,0,1,0,11849.5,0.143626,0.143292,0.567915,18,0.0121598,10,8.13777e-05,-3.24572,-0.0884831,-0.666794,0.143042,
2,1,0,0,0,11850.3,0.147621,0.147274,0.503337,18,0.0126018,10,7.41284e-05,-3.29814,-0.0714928,-0.825258,0.147052,
2,1,0,1,0,11851.1,0.151617,0.151284,0.441334,18,0.0129921,10,6.67669e-05,-3.35523,-0.0716558,-0.823381,0.15109,
2,1,0,1,0,11851.9,0.155612,0.155274,0.391539,18,0.0133368,10,6.07957e-05,-3.40722,-0.0876734,-0.672952,0.155101,
2,1,0,1,0,11852.7,0.159606,0.159327,0.355308,18,0.0136481,10,5.66103e-05,-3.44939,-0.114997,-0.513056,0.159171,
2,1,0,1,0,11853.5,0.163602,0.163293,0.329948,18,0.0139355,10,5.38783e-05,-3.48155,-0.134667,-0.438118,0.163148,
2,1,0,0,0,11854.3,0.167597,0.16726,0.313336,18,0.0142054,10,5.24087e-05,-3.50399,-0.194678,-0.303065,0.167122,
2,1,0,1,0,11855.1,0.171592,0.171263,0.29769,18,0.0144633,10,5.09834e-05,-3.52624,-0.228439,-0.258275,0.171132,
2,1,0,1,0,11855.9,0.175588,0.175255,0.289582,18,0.0147115,10,5.07506e-05,-3.53823,-0.281523,-0.209574,0.175128,
2,1,0,1,0,11856.7,0.179582,0.179263,0.28133,18,0.0149526,10,5.0432e-05,-3.55078,-0.401135,-0.147083,0.179139,
2,1,0,1,0,11857.5,0.183577,0.183291,0.273987,18,0.015188,10,5.02194e-05,-3.56227,-0.448835,-0.131451,0.183171,
2,1,0,0,0,11858.3,0.187573,0.187242,0.270052,18,0.0154185,10,5.0565e-05,-3.56855,-0.476677,-0.123773,0.187123,
2,1,0,1,0,11859.1,0.191568,0.191262,0.26545,18,0.0156454,10,5.07703e-05,-3.57602,-0.562298,-0.104926,0.191145,
2,1,0,0,0,11859.9,0.195563,0.195235,0.261581,18,0.0158695,10,5.10697e-05,-3.58239,-0.640265,-0.0921494,0.19512,
2,1,0,1,0,11860.7,0.199559,0.199288,0.258537,18,0.0160903,10,5.15232e-05,-3.58748,-0.786322,-0.0750329,0.199174,
2,1,0,1,0,11861.5,0.203553,0.203252,0.25375,18,0.016309,10,5.15753e-05,-3.59559,-1.92881,-0.0305888,0.203141,
2,1,0,1,0,11862.3,0.207548,0.207315,0.252622,18,0.0165259,10,5.23723e-05,-3.59753,-0.685824,-0.0860279,0.207203,
2,1,0,1,0,11863.1,0.211544,0.211238,0.251641,18,0.0167405,10,5.31563e-05,-3.59922,-2.35164,-0.0250889,0.211128,
2,1,0,0,0,11863.9,0.215539,0.21526,0.248449,18,0.0169532,10,5.34811e-05,-3.60476,-0.657104,-0.0897879,0.21515,
2,1,0,1,0,11864.7,0.219535,0.219256,0.246836,18,0.0171641,10,5.41203e-05,-3.60759,-1.44158,-0.0409272,0.219147,
2,1,0,1,0,11865.5,0.223529,0.223243,0.243581,18,0.0173736,10,5.43776e-05,-3.61336,-1.76468,-0.0334339,0.223135,
2,1,0,1,0,11866.3,0.227524,0.227238,0.242291,18,0.017582,10,5.50576e-05,-3.61566,-0.93602,-0.0630328,0.227131,
2,1,0,1,0,11867.1,0.23152,0.231225,0.241032,18,0.017789,10,5.57326e-05,-3.61793,2.53672,0.0232584,0.231119,
2,1,0,0,0,11867.9,0.235515,0.235202,0.239322,18,0.0179951,10,5.6289e-05,-3.62102,-0.881507,-0.0669308,0.235096,
2,1,0,1,0,11868.7,0.23951,0.23923,0.239293,18,0.0182,10,5.72461e-05,-3.62107,-1.32824,-0.0444196,0.239125,
2,1,0,1,0,11869.5,0.243506,0.243206,0.237779,18,0.0184039,10,5.78292e-05,-3.62383,2.48673,0.023726,0.243101,
2,1,0,1,0,11870.3,0.2475,0.24721,0.237681,18,0.0186071,10,5.8757e-05,-3.62401,-0.651833,-0.0905139,0.247105,
2,1,0,1,0,11871.1,0.251495,0.251224,0.235756,18,0.0188093,10,5.92277e-05,-3.62754,-12.9008,-0.00457335,0.25112,
2,1,0,0,0,11871.9,0.255491,0.255143,0.234682,18,0.0190106,10,5.98773e-05,-3.62952,-1.97297,-0.0299042,0.255039,
2,1,0,1,0,11872.7,0.259486,0.259203,0.234439,18,0.0192112,10,6.07672e-05,-3.62997,-1.14564,-0.0514997,0.2591,
2,1,0,0,0,11873.5,0.263481,0.263159,0.233196,18,0.0194109,10,6.13675e-05,-3.63228,5.76263,0.0102384,0.263057,
2,1,0,1,0,11874.3,0.267477,0.267145,0.231582,18,0.0196101,10,6.18661e-05,-3.63529,-2.0034,-0.02945,0.267044,
2,1,0,1,0,11875.1,0.271471,0.271202,0.231051,18,0.0198086,10,6.26617e-05,-3.63629,-3.29619,-0.0178994,0.271101,
2,1,0,1,0,11875.9,0.275466,0.275133,0.230193,18,0.0200063,10,6.33337e-05,-3.63791,-2.08633,-0.0282793,0.275031,
2,1,0,1,0,11876.7,0.279462,0.279137,0.230712,18,0.0202036,10,6.44005e-05,-3.63693,-1.60429,-0.0367764,0.279036,
2,1,0,0,0,11877.5,0.283457,0.283128,0.229392,18,0.0204001,10,6.49472e-05,-3.63942,6.43005,0.00917566,0.283027,
2,1,0,1,0,11878.3,0.287452,0.287169,0.228146,18,0.0205957,10,6.55166e-05,-3.64179,-1.56503,-0.037699,0.287069,
2,1,0,1,0,11879.1,0.291448,0.29117,0.227911,18,0.0207907,10,6.6361e-05,-3.64223,-0.940899,-0.062706,0.29107,
2,1,0,1,0,11879.9,0.295442,0.295119,0.227041,18,0.0209846,10,6.70041e-05,-3.6439,5.26743,0.0112009,0.295019,
2,1,0,1,0,11880.7,0.299437,0.299113,0.224212,18,0.0211783,10,6.70647e-05,-3.64934,-1.925,-0.0306493,0.299014,
2,1,0,0,0,11881.5,0.303433,0.30311,0.22466,18,0.021371,10,6.80966e-05,-3.64847,-1.22303,-0.0482407,0.303011,
2,1,0,1,0,11882.3,0.307428,0.30713,0.223273,18,0.0215628,10,6.85738e-05,-3.65116,7.48351,0.007884,0.307032,
2,1,0,1,0,11883.1,0.311424,0.311109,0.223432,18,0.021754,10,6.95117e-05,-3.65086,-1.51103,-0.0390463,0.311011,
2,1,0,1,0,11883.9,0.315418,0.31514,0.221635,18,0.0219442,10,6.98463e-05,-3.65436,-20.1071,-0.00293429,0.315043,
2,1,0,1,0,11884.6,0.319413,0.319118,0.221625,18,0.0221341,10,7.07244e-05,-3.65438,-2.64219,-0.02233,0.31902,
2,1,0,0,0,11885.4,0.323409,0.32312,0.220682,18,0.0223238,10,7.13066e-05,-3.65623,-0.894174,-0.0659827,0.323023,
2,1,0,1,0,11886.2,0.327404,0.327091,0.220084,18,0.0225125,10,7.19875e-05,-3.65741,3.03979,0.0194093,0.326994,
2,1,0,0,0,11887,0.331399,0.331123,0.219563,18,0.0227009,10,7.27022e-05,-3.65844,-2.41735,-0.0244069,0.331026,
2,1,0,1,0,11887.8,0.335395,0.335052,0.218975,18,0.0228887,10,7.3368e-05,-3.65961,-18.9871,-0.00310737,0.334956,
2,1,0,1,0,11888.6,0.339389,0.339095,0.21887,18,0.023076,10,7.42177e-05,-3.65981,-4.70157,-0.012549,0.338999,
2,1,0,1,0,11889.4,0.343384,0.34308,0.218326,18,0.0232629,10,7.49032e-05,-3.66089,-1.53155,-0.038523,0.342984,
2,1,0,1,0,11890.2,0.34738,0.347035,0.217472,18,0.0234491,10,7.54705e-05,-3.6626,-2.4161,-0.0244195,0.34694,
2,1,0,0,0,11891,0.351375,0.351024,0.215552,18,0.0236347,10,7.56641e-05,-3.66645,2.57407,0.0229209,0.35093,
2,1,0,1,0,11891.8,0.35537,0.355078,0.215821,18,0.02382,10,7.66334e-05,-3.66591,-0.83211,-0.0709041,0.354983,
2,1,0,1,0,11892.6,0.359366,0.359047,0.215809,18,0.024005,10,7.74854e-05,-3.66593,1.81612,0.0324868,0.358952,
2,1,0,1,0,11893.4,0.36336,0.363035,0.214666,18,0.0241898,10,7.79312e-05,-3.66824,-2.31743,-0.0254593,0.36294,
2,1,0,1,0,11894.2,0.367355,0.367054,0.215465,18,0.0243738,10,7.90872e-05,-3.66662,-1.80079,-0.0327635,0.366959,
2,1,0,0,0,11895,0.371351,0.371078,0.215342,18,0.0245575,10,7.99085e-05,-3.66687,1.73173,0.0340699,0.370983,
2,1,0,1,0,11895.8,0.375346,0.375052,0.214651,18,0.0247412,10,8.05054e-05,-3.66827,-1.98703,-0.0296926,0.374958,
2,1,0,1,0,11896.6,0.379342,0.379037,0.214006,18,0.0249244,10,8.11162e-05,-3.66957,-4.33452,-0.0136117,0.378942,
2,1,0,1,0,11897.4,0.383336,0.383031,0.213074,18,0.0251072,10,8.1614e-05,-3.67147,-3.95451,-0.0149197,0.382937,
2,1,0,1,0,11898.2,0.387331,0.387041,0.212468,18,0.0252896,10,8.22338e-05,-3.67271,-0.941934,-0.0626371,0.386947,
2,1,0,0,0,11899,0.391327,0.391005,0.21162,18,0.0254716,10,8.27443e-05,-3.67444,1.57359,0.0374938,0.390912,
2,1,0,1,0,11899.8,0.395322,0.395028,0.211144,18,0.0256534,10,8.34079e-05,-3.67542,-51.6955,-0.0011413,0.394935,
2,1,0,0,0,11900.6,0.399317,0.39902,0.212637,18,0.0258349,10,8.48463e-05,-3.67236,-1.72241,-0.0342544,0.398926,
2,1,0,1,0,11901.4,0.403313,0.403024,0.212135,18,0.0260162,10,8.54954e-05,-3.67339,3.79122,0.0155623,0.402931,
2,1,0,1,0,11902.2,0.407307,0.407006,0.211962,18,0.0261973,10,8.627e-05,-3.67374,-7.469,-0.00789932,0.406913,
2,1,0,1,0,11903,0.411302,0.411004,0.212789,18,0.0263781,10,8.74572e-05,-3.67205,1.90867,0.0309115,0.41091,
2,1,0,1,0,11903.8,0.415298,0.415014,0.211995,18,0.0265592,10,8.79808e-05,-3.67367,-2.55651,-0.0230784,0.41492,
2,1,0,0,0,11904.6,0.419293,0.419007,0.211384,18,0.0267401,10,8.85714e-05,-3.67493,-3.42217,-0.0172405,0.418914,
2,1,0,1,0,11905.4,0.423288,0.422965,0.211641,18,0.0269207,10,8.95166e-05,-3.6744,3.81506,0.015465,0.422871,
2,1,0,1,0,11906.2,0.427283,0.426996,0.210447,18,0.0271016,10,8.98599e-05,-3.67686,6.49379,0.0090856,0.426904,
2,1,0,1,0,11907,0.431278,0.430994,0.210961,18,0.0272825,10,9.09229e-05,-3.6758,9.61131,0.0061386,0.430901,
2,1,0,1,0,11907.8,0.435273,0.434968,0.211257,18,0.0274632,10,9.18901e-05,-3.67519,-3.02622,-0.0194963,0.434875,
2,1,0,0,0,11908.6,0.439269,0.438949,0.211344,18,0.027644,10,9.27694e-05,-3.67501,7.49324,0.00787376,0.438856,
2,1,0,1,0,11909.4,0.443264,0.44296,0.211185,18,0.0278246,10,9.35466e-05,-3.67534,-47.9079,-0.00123153,0.442867,
2,1,0,0,0,11910.2,0.447259,0.446936,0.212287,18,0.0280054,10,9.48786e-05,-3.67308,1.80273,0.0327281,0.446843,
2,1,0,1,0,11911,0.451254,0.450948,0.212664,18,0.0281865,10,9.59005e-05,-3.67231,-1.77185,-0.0332985,0.450854,
2,1,0,1,0,11911.8,0.455249,0.454942,0.212922,18,0.0283677,10,9.6867e-05,-3.67178,1.48817,0.039646,0.454848,
2,1,0,1,0,11912.6,0.459244,0.45897,0.212524,18,0.0285491,10,9.7542e-05,-3.67259,-5.72701,-0.0103021,0.458877,
2,1,0,1,0,11913.4,0.46324,0.462945,0.212251,18,0.0287308,10,9.82607e-05,-3.67315,5.12054,0.0115222,0.462852,
2,1,0,0,0,11914.2,0.467235,0.46689,0.213685,18,0.0289125,10,9.97675e-05,-3.67023,1.59532,0.0369831,0.466796,
2,1,0,1,0,11915,0.471231,0.470918,0.215264,18,0.0290949,10,0.000101372,-3.66703,-40.3543,-0.00146205,0.470823,
2,1,0,1,0,11915.8,0.475225,0.474946,0.215478,18,0.0292776,10,0.00010234,-3.6666,1.45091,0.0406642,0.474851,
2,1,0,1,0,11916.6,0.47922,0.478932,0.21506,18,0.0294606,10,0.000102999,-3.66744,4.17092,0.0141456,0.478838,
2,1,0,1,0,11917.4,0.483216,0.482927,0.216331,18,0.0296443,10,0.000104472,-3.66488,-16.8467,-0.00350218,0.482832,
2,1,0,0,0,11918.2,0.487211,0.486901,0.216584,18,0.0298284,10,0.000105455,-3.66437,2.54323,0.0231988,0.486805,
2,1,0,1,0,11919,0.491206,0.49091,0.21683,18,0.0300133,10,0.000106444,-3.66388,1.28284,0.0459917,0.490815,
2,1,0,1,0,11919.8,0.495201,0.494922,0.219185,18,0.0301988,10,0.000108479,-3.65919,1.58158,0.0373046,0.494825,
2,1,0,1,0,11920.6,0.499196,0.498937,0.219527,18,0.0303849,10,0.00010953,-3.65851,2.09476,0.0281655,0.498841,
2,1,0,1,0,11921.4,0.503191,0.502901,0.220288,18,0.0305719,10,0.000110783,-3.65701,2.28788,0.025788,0.502804,
2,1,0,0,0,11922.2,0.507187,0.50693,0.221578,18,0.0307596,10,0.000112325,-3.65447,1.56339,0.0377384,0.506832,
2,1,0,1,0,11923,0.511182,0.510916,0.223302,18,0.0309484,10,0.000114089,-3.65111,1.19453,0.0493919,0.510818,
2,1,0,0,0,11923.8,0.515177,0.514925,0.224651,18,0.0311383,10,0.000115678,-3.64849,14.0314,0.00420486,0.514826,
2,1,0,1,0,11924.6,0.519173,0.518912,0.225931,18,0.0313291,10,0.000117239,-3.64602,1.47547,0.0399872,0.518813,
2,1,0,1,0,11925.4,0.523167,0.522833,0.226778,18,0.0315211,10,0.000118567,-3.6444,0.997144,0.059169,0.522734,
2,1,0,1,0,11926.2,0.527162,0.526872,0.228809,18,0.0317146,10,0.000120553,-3.64053,1.10375,0.053454,0.526772,
2,1,0,1,0,11927,0.531158,0.530875,0.230801,18,0.0319092,10,0.000122526,-3.63676,1.02597,0.0575067,0.530773,
2,1,0,0,0,11927.8,0.535153,0.534828,0.232067,18,0.0321054,10,0.000124116,-3.63439,2.47397,0.0238483,0.534726,
2,1,0,1,0,11928.6,0.539148,0.538829,0.234448,18,0.0323029,10,0.000126327,-3.62995,0.874533,0.0674646,0.538726,
2,1,0,1,0,11929.4,0.543143,0.542828,0.236529,18,0.032502,10,0.000128394,-3.62612,0.95936,0.0614993,0.542724,
2,1,0,1,0,11930.2,0.547138,0.546856,0.238956,18,0.0327031,10,0.000130675,-3.62168,1.33915,0.0440579,0.546751,
2,1,0,1,0,11931,0.551133,0.550862,0.24243,18,0.0329062,10,0.000133545,-3.61541,0.531646,0.110976,0.550755,
2,1,0,0,0,11931.8,0.555129,0.554828,0.244154,18,0.0331117,10,0.000135464,-3.61234,0.711472,0.0829266,0.554721,
2,1,0,1,0,11932.6,0.559124,0.558838,0.247748,18,0.0333195,10,0.000138451,-3.60599,0.590806,0.0998636,0.558729,
2,1,0,1,0,11933.4,0.56312,0.562807,0.251403,18,0.0335301,10,0.000141491,-3.59963,0.698144,0.0845098,0.562696,
2,1,0,1,0,11934.2,0.567114,0.56682,0.25598,18,0.0337438,10,0.000145095,-3.59179,0.584565,0.10093,0.566708,
2,1,0,1,0,11935,0.571109,0.570828,0.259695,18,0.0339606,10,0.000148241,-3.58554,0.507851,0.116176,0.570714,
2,1,0,0,0,11935.8,0.575105,0.574815,0.265924,18,0.0341815,10,0.000152857,-3.57524,0.483603,0.122001,0.574698,
2,1,0,1,0,11936.6,0.5791,0.578806,0.271047,18,0.0344067,10,0.000156884,-3.56695,0.407906,0.144641,0.578687,
2,1,0,0,0,11937.4,0.583095,0.58281,0.277365,18,0.0346366,10,0.000161651,-3.55695,0.377757,0.156185,0.582688,
2,1,0,1,0,11938.2,0.58709,0.586843,0.283429,18,0.0348719,10,0.000166328,-3.54756,0.325865,0.181057,0.586719,
2,1,0,1,0,11939,0.591085,0.590829,0.29188,18,0.0351133,10,0.000172451,-3.5348,0.320136,0.184297,0.590701,
2,1,0,1,0,11939.8,0.59508,0.594774,0.300786,18,0.0353612,10,0.0001789,-3.52174,0.265067,0.222585,0.594642,
2,1,0,1,0,11940.6,0.599076,0.598763,0.312269,18,0.035617,10,0.000186975,-3.50547,0.277632,0.212512,0.598626,
2,1,0,0,0,11941.4,0.603071,0.602819,0.324028,18,0.0358815,10,0.00019533,-3.48942,0.244991,0.240825,0.602677,
2,1,0,1,0,11942.2,0.607066,0.606825,0.337798,18,0.0361561,10,0.000204984,-3.47134,0.213254,0.276666,0.606677,
2,1,0,1,0,11943,0.611061,0.610791,0.352591,18,0.0364423,10,0.000215359,-3.45273,0.212214,0.278021,0.610635,
2,1,0,1,0,11943.8,0.615056,0.614783,0.370101,18,0.0367418,10,0.000227532,-3.43168,0.153578,0.384171,0.61462,
2,1,0,1,0,11944.6,0.619051,0.61881,0.391772,18,0.0370579,10,0.000242432,-3.40697,0.152222,0.387593,0.618637,
2,1,0,0,0,11945.4,0.623047,0.622775,0.419185,18,0.0373924,10,0.000261058,-3.37759,0.146066,0.403926,0.62259,
2,1,0,1,0,11946.2,0.627042,0.62676,0.446865,18,0.0377484,10,0.000280077,-3.34982,0.13143,0.448908,0.626563,
2,1,0,1,0,11947,0.631037,0.63081,0.481672,18,0.03813,10,0.000303843,-3.31725,0.114775,0.514051,0.630598,
2,1,0,1,0,11947.8,0.635032,0.634759,0.522694,18,0.0385413,10,0.000331785,-3.28175,0.111397,0.529636,0.634529,
2,1,0,1,0,11948.6,0.639027,0.638742,0.568648,18,0.0389874,10,0.000363219,-3.24516,0.100473,0.58722,0.638492,
2,1,0,1,0,11949.4,0.643022,0.642748,0.625404,18,0.0394748,10,0.000401977,-3.20384,0.0933926,0.631742,0.642473,
2,1,0,1,0,11950.2,0.647018,0.646763,0.6921,18,0.0400118,10,0.000447625,-3.15983,0.0879289,0.670997,0.646459,
2,1,0,0,0,11951,0.651013,0.650782,0.770671,18,0.0406068,10,0.000501539,-3.11313,0.0816078,0.72297,0.650443,
2,1,0,1,0,11951.8,0.655008,0.654753,0.863282,18,0.04127,10,0.000565237,-3.06385,0.0768807,0.767423,0.654373,
2,1,0,1,0,11952.6,0.659003,0.658741,0.971493,18,0.0420137,10,0.000639962,-3.01256,0.0767515,0.768715,0.658313,
2,1,0,1,0,11953.4,0.662998,0.662706,1.09808,18,0.0428506,10,0.000727705,-2.95937,0.0729035,0.809289,0.662223,
2,1,0,1,0,11954.2,0.666994,0.666719,1.24518,18,0.0437964,10,0.000830188,-2.90477,0.0711625,0.829088,0.666171,
2,1,0,0,0,11955,0.670989,0.670726,1.41657,18,0.0448694,10,0.000950131,-2.84876,0.0700181,0.842639,0.670103,
2,1,0,1,0,11955.8,0.674984,0.674698,1.61101,18,0.0460884,10,0.00108694,-2.7929,0.0691184,0.853608,0.673989,
2,1,0,1,0,11956.6,0.67898,0.678694,1.83553,18,0.0474749,10,0.00124577,-2.73624,0.0686909,0.85892,0.677887,
2,1,0,1,0,11957.4,0.682974,0.682668,2.08953,18,0.0490531,10,0.00142645,-2.67995,0.0694328,0.849743,0.681749,
2,1,0,1,0,11958.2,0.686969,0.686759,2.37742,18,0.0508471,10,0.00163271,-2.62389,0.0692789,0.85163,0.685712,
2,1,0,0,0,11959,0.690965,0.690687,2.69654,18,0.0528835,10,0.00186246,-2.56919,0.0716613,0.823317,0.6895,
2,1,0,1,0,11959.8,0.69496,0.694713,3.05028,18,0.0551892,10,0.00211907,-2.51566,0.0720629,0.818729,0.693371,
2,1,0,0,0,11960.6,0.698955,0.698705,3.44201,18,0.0577921,10,0.00240495,-2.46319,0.0744756,0.792206,0.697191,
2,1,0,1,0,11961.4,0.70295,0.702695,3.86773,18,0.060722,10,0.00271783,-2.41254,0.0755184,0.781266,0.700993,
2,1,0,1,0,11962.2,0.706945,0.706672,4.33186,18,0.0640065,10,0.0030612,-2.36333,0.0789338,0.747462,0.704766,
2,1,0,1,0,11963,0.71094,0.710678,4.82698,18,0.0676741,10,0.00343043,-2.31632,0.0810161,0.72825,0.708554,
2,1,0,1,0,11963.8,0.714936,0.714647,5.35821,18,0.0717538,10,0.00382923,-2.27098,0.0845226,0.698038,0.71229,
2,1,0,0,0,11964.6,0.718931,0.718664,5.92495,18,0.076271,10,0.00425805,-2.22732,0.0874863,0.674391,0.716057,
2,1,0,1,0,11965.4,0.722927,0.722658,6.52314,18,0.0812543,10,0.004714,-2.18554,0.0910996,0.647643,0.719788,
2,1,0,1,0,11966.2,0.726921,0.726629,7.15352,18,0.0867277,10,0.00519795,-2.14548,0.0952611,0.619351,0.723481,
2,1,0,1,0,11967,0.730916,0.730628,7.81582,18,0.0927175,10,0.00571045,-2.10703,0.0984989,0.598991,0.727189,
2,1,0,1,0,11967.7,0.734911,0.734637,8.50685,18,0.0992491,10,0.00624944,-2.07023,0.101872,0.579158,0.730894,
2,1,0,0,0,11968.5,0.738907,0.738626,9.23038,18,0.106346,10,0.0068178,-2.03478,0.105314,0.560232,0.734565,
2,1,0,1,0,11969.3,0.742902,0.742625,9.9786,18,0.11403,10,0.00741036,-2.00093,0.108946,0.541553,0.738235,
2,1,0,1,0,11970.1,0.746897,0.746628,10.7641,18,0.12233,10,0.00803681,-1.96802,0.11342,0.520188,0.741891,
2,1,0,1,0,11970.9,0.750892,0.750638,11.5865,18,0.131268,10,0.00869727,-1.93605,0.113569,0.519507,0.74554,
2,1,0,1,0,11971.7,0.754887,0.754588,12.443,18,0.140879,10,0.00938936,-1.90507,0.120464,0.489772,0.749113,
2,1,0,0,0,11972.5,0.758883,0.758619,13.3546,18,0.151195,10,0.010131,-1.87437,0.117036,0.504119,0.752743,
2,1,0,1,0,11973.3,0.762878,0.762613,14.3178,18,0.162259,10,0.0109189,-1.84412,0.121106,0.487175,0.756313,
2,1,0,0,0,11974.1,0.766873,0.76666,15.3206,18,0.1741,10,0.0117457,-1.81472,0.116533,0.506295,0.759919,
2,1,0,1,0,11974.9,0.770868,0.770619,16.4005,18,0.186782,10,0.0126386,-1.78514,0.119533,0.493588,0.763403,
2,1,0,1,0,11975.7,0.774863,0.774628,17.5444,18,0.200351,10,0.0135904,-1.75586,0.117592,0.501736,0.766909,
2,1,0,1,0,11976.5,0.778858,0.778562,18.7516,18,0.214864,10,0.0145993,-1.72696,0.121502,0.485588,0.770311,
2,1,0,1,0,11977.3,0.782854,0.782555,19.9634,18,0.230346,10,0.0156224,-1.69977,0.126594,0.466057,0.773771,
2,1,0,0,0,11978.1,0.786849,0.786563,21.3291,18,0.246854,10,0.0167767,-1.67103,0.120366,0.490172,0.777178,
2,1,0,1,0,11978.9,0.790844,0.790612,22.7345,18,0.264466,10,0.0179742,-1.64331,0.123208,0.478864,0.780609,
2,1,0,1,0,11979.7,0.794839,0.794573,24.1813,18,0.283222,10,0.0192138,-1.61652,0.127106,0.46418,0.783933,
2,1,0,1,0,11980.5,0.798834,0.798567,25.7109,18,0.303159,10,0.0205318,-1.58988,0.123001,0.479669,0.787254,
2,1,0,1,0,11981.3,0.802829,0.80253,27.6871,18,0.324395,10,0.0222198,-1.55772,0.101301,0.582421,0.790348,
2,1,0,0,0,11982.1,0.806825,0.806579,29.2881,18,0.347169,10,0.0236232,-1.53331,0.134882,0.43742,0.793693,
2,1,0,1,0,11982.9,0.81082,0.810573,30.7237,18,0.371215,10,0.0249038,-1.51253,0.167518,0.352201,0.797054,
2,1,0,1,0,11983.7,0.814815,0.814513,32.284,18,0.396421,10,0.0262957,-1.49101,0.155958,0.378308,0.800308,
2,1,0,1,0,11984.5,0.81881,0.818568,33.8477,18,0.422862,10,0.0277067,-1.47047,0.164377,0.358932,0.803675,
2,1,0,1,0,11985.3,0.822805,0.822547,35.1226,18,0.450464,10,0.02889,-1.45441,0.21364,0.276166,0.807093,
2,1,0,0,0,11986.1,0.826801,0.826515,36.7495,18,0.479211,10,0.030374,-1.43475,0.171567,0.343888,0.810345,
2,1,0,1,0,11986.9,0.830796,0.830545,38.408,18,0.509257,10,0.0318996,-1.41558,0.173975,0.339129,0.813645,
2,1,0,0,0,11987.7,0.834791,0.834556,40.0729,18,0.540636,10,0.0334431,-1.39715,0.185127,0.3187,0.816924,
2,1,0,1,0,11988.5,0.838786,0.838556,41.7023,18,0.573328,10,0.0349698,-1.37984,0.196223,0.300679,0.820207,
2,1,0,1,0,11989.3,0.842781,0.842552,43.3032,18,0.6073,10,0.0364852,-1.36348,0.212034,0.278257,0.823499,
2,1,0,1,0,11990.1,0.846776,0.846546,44.8955,18,0.642542,10,0.0380061,-1.3478,0.223995,0.263398,0.826792,
2,1,0,0,0,11990.8,0.849723,0.849524,45.6919,18,0.674373,10,0.0388164,-1.34016,0.0388823,1.5174,0.829419,
2,1,0,1,0,11991.6,0.845728,0.845491,43.3219,18,0.709848,10,0.0366283,-1.36329,0.156365,0.377322,0.826429,
2,1,0,0,0,11992.4,0.841732,0.841459,41.4173,18,0.743664,10,0.0348509,-1.38282,0.168516,0.350116,0.823236,
2,1,0,1,0,11993.2,0.837737,0.837496,39.5497,18,0.776018,10,0.0331227,-1.40286,0.153242,0.385012,0.820094,
2,1,0,1,0,11994,0.833742,0.833494,37.7887,18,0.806906,10,0.0314967,-1.42264,0.155816,0.378651,0.816867,
2,1,0,1,0,11994.8,0.829747,0.829523,35.9577,18,0.836348,10,0.0298277,-1.44421,0.138513,0.425954,0.813701,
2,1,0,1,0,11995.6,0.825752,0.825492,34.1023,18,0.864311,10,0.0281511,-1.46722,0.146301,0.403279,0.810487,
2,1,0,0,0,11996.4,0.821757,0.821473,32.3942,18,0.890862,10,0.026611,-1.48953,0.14439,0.408615,0.807219,
2,1,0,1,0,11997.2,0.817761,0.817499,30.6842,18,0.916052,10,0.0250843,-1.51309,0.136014,0.433777,0.803998,
2,1,0,1,0,11998,0.813766,0.813476,29.031,18,0.939901,10,0.023616,-1.53714,0.135104,0.436701,0.800702,
2,1,0,1,0,11998.8,0.809771,0.809503,27.4163,18,0.962435,10,0.0221936,-1.56199,0.126317,0.467079,0.79744,
2,1,0,1,0,11999.6,0.805776,0.805507,25.8039,18,0.98368,10,0.0207852,-1.58832,0.125822,0.468916,0.794153,
2,1,0,0,0,12000.4,0.801781,0.80149,24.2801,18,1.00367,10,0.0194603,-1.61475,0.12519,0.471282,0.790807,
2,1,0,1,0,12001.2,0.797786,0.797469,22.8217,18,1.02247,10,0.0181996,-1.64165,0.125253,0.471045,0.787428,
2,1,0,1,0,12002,0.79379,0.793516,21.453,18,1.04014,10,0.0170233,-1.66851,0.12132,0.486316,0.784077,
2,1,0,1,0,12002.8,0.789795,0.789497,20.0715,18,1.05672,10,0.0158464,-1.69742,0.114275,0.516298,0.780666,
2,1,0,1,0,12003.6,0.7858,0.785529,18.7151,18,1.0722,10,0.0147013,-1.72781,0.113133,0.521509,0.777295,
2,1,0,0,0,12004.4,0.781805,0.781521,17.4428,18,1.08663,10,0.0136319,-1.75838,0.110313,0.534839,0.773846,
2,1,0,1,0,12005.2,0.77781,0.77754,16.2226,18,1.10006,10,0.0126138,-1.78988,0.10898,0.541383,0.770402,
2,1,0,0,0,12006,0.773815,0.77353,15.0628,18,1.11254,10,0.0116516,-1.82209,0.105876,0.557257,0.766902,
2,1,0,1,0,12006.8,0.769819,0.769576,13.9485,18,1.12412,10,0.0107345,-1.85547,0.103433,0.57042,0.763439,
2,1,0,1,0,12007.6,0.765824,0.765551,12.8855,18,1.13482,10,0.00986454,-1.8899,0.101181,0.583116,0.759882,
2,1,0,1,0,12008.4,0.761829,0.76156,11.8731,18,1.14469,10,0.00904207,-1.92544,0.100054,0.589681,0.756336,
2,1,0,1,0,12009.2,0.757834,0.757557,10.926,18,1.15379,10,0.00827705,-1.96154,0.0985043,0.598958,0.752749,
2,1,0,0,0,12010,0.753839,0.753594,10.0321,18,1.16214,10,0.00756016,-1.99861,0.0959079,0.615173,0.74918,
2,1,0,1,0,12010.8,0.749844,0.749585,9.1869,18,1.16981,10,0.00688636,-2.03683,0.0928497,0.635435,0.745542,
2,1,0,1,0,12011.6,0.745848,0.745637,8.38448,18,1.17681,10,0.00625177,-2.07652,0.0912718,0.646421,0.741947,
2,1,0,1,0,12012.4,0.741853,0.741572,7.63538,18,1.1832,10,0.00566219,-2.11717,0.0897218,0.657588,0.738213,
2,1,0,1,0,12013.2,0.737858,0.737582,6.93414,18,1.189,10,0.0051145,-2.15901,0.0865916,0.681359,0.734531,
2,1,0,0,0,12014,0.733863,0.733599,6.27688,18,1.19427,10,0.00460471,-2.20226,0.0842174,0.700567,0.730837,
2,1,0,1,0,12014.8,0.729868,0.729615,5.6613,18,1.19902,10,0.00413057,-2.24708,0.0821609,0.718103,0.727124,
2,1,0,1,0,12015.6,0.725872,0.72559,5.08778,18,1.2033,10,0.00369164,-2.29347,0.0786625,0.75004,0.723351,
2,1,0,1,0,12016.4,0.721877,0.721606,4.55403,18,1.20714,10,0.00328621,-2.3416,0.0786155,0.750488,0.719602,
2,1,0,1,0,12017.2,0.717882,0.717585,4.06105,18,1.21057,10,0.00291415,-2.39136,0.0733943,0.803877,0.715798,
2,1,0,0,0,12018,0.713887,0.713641,3.60683,18,1.21362,10,0.00257398,-2.44287,0.0726688,0.811903,0.712054,
2,1,0,1,0,12018.8,0.709892,0.709625,3.18586,18,1.21632,10,0.00226076,-2.49677,0.0698005,0.845266,0.708224,
2,1,0,0,0,12019.6,0.705897,0.705648,2.80602,18,1.2187,10,0.00198006,-2.55191,0.0692568,0.851901,0.704413,
2,1,0,1,0,12020.4,0.701901,0.701571,2.46469,18,1.22079,10,0.00172916,-2.60824,0.0665597,0.886422,0.700487,
2,1,0,1,0,12021.2,0.697906,0.697649,2.14724,18,1.22262,10,0.00149802,-2.66812,0.0630527,0.935724,0.696704,
2,1,0,1,0,12022,0.693911,0.693647,1.86135,18,1.22421,10,0.00129112,-2.73017,0.0608489,0.969615,0.692828,
2,1,0,1,0,12022.8,0.689916,0.68967,1.60305,18,1.22558,10,0.00110558,-2.79505,0.0591006,0.998298,0.688964,
2,1,0,0,0,12023.6,0.685921,0.685663,1.3747,18,1.22676,10,0.000942583,-2.86179,0.0578875,1.01922,0.685059,
2,1,0,1,0,12024.4,0.681926,0.681635,1.16985,18,1.22776,10,0.000797408,-2.93187,0.0539419,1.09377,0.68112,
2,1,0,1,0,12025.2,0.67793,0.677647,0.988271,18,1.22861,10,0.000669699,-3.00512,0.0530582,1.11199,0.677213,
2,1,0,1,0,12026,0.673935,0.673682,0.828001,18,1.22932,10,0.000557809,-3.08197,0.0484551,1.21762,0.673318,
2,1,0,1,0,12026.8,0.66994,0.669669,0.689253,18,1.22991,10,0.000461571,-3.16162,0.0488873,1.20686,0.669365,
2,1,0,0,0,12027.6,0.665945,0.665657,0.566126,18,1.2304,10,0.000376846,-3.24709,0.0488965,1.20663,0.665408,
2,1,0,1,0,12028.4,0.66195,0.661678,0.464912,18,1.23081,10,0.000307622,-3.33263,0.0420411,1.40339,0.661473,
2,1,0,0,0,12029.2,0.657955,0.657685,0.373963,18,1.23113,10,0.000245949,-3.42717,0.0401481,1.46956,0.65752,
2,1,0,1,0,12030,0.653959,0.653672,0.297141,18,1.23139,10,0.000194233,-3.52704,0.038363,1.53794,0.653541,
2,1,0,1,0,12030.8,0.649964,0.64971,0.232513,18,1.23158,10,0.000151066,-3.63355,0.0351274,1.6796,0.649608,
2,1,0,1,0,12031.6,0.64597,0.645702,0.176872,18,1.23174,10,0.000114207,-3.75234,0.0327673,1.80058,0.645625,
2,1,0,1,0,12032.4,0.641974,0.641672,0.129326,18,1.23185,10,8.29847e-05,-3.88832,0.0268686,2.19587,0.641615,
2,1,0,0,0,12033.2,0.637979,0.637695,0.0915657,18,1.23192,10,5.8391e-05,-4.03827,0.0229931,2.56598,0.637655,
2,1,0,1,0,12034,0.633983,0.633671,0.0577687,18,1.23197,10,3.66063e-05,-4.23831,0.0176246,3.34759,0.633646,
2,1,0,1,0,12034.8,0.629988,0.629721,0.0305775,18,1.232,10,1.92553e-05,-4.5146,0.0101516,5.81189,0.629707,
2,1,0,1,0,12035.6,0.625993,0.625718,0.00719333,18,1.232,10,4.50099e-06,-5.14307,0.00535355,11.0207,0.625715,
2,0,0,1,0,12036.4,0.621998,0.621716,-0.0120589,18,1.23199,10,-7.49721e-06,-4.91869,-0.004945,-11.9312,0.621721,
2,0,0,0,0,12037.2,0.618003,0.617721,-0.0290242,18,1.23196,10,-1.79288e-05,-4.53724,-0.0155789,-3.78718,0.617734,
2,0,0,1,0,12038,0.614008,0.613754,-0.0412118,18,1.23192,10,-2.52939e-05,-4.38498,-0.0364877,-1.61698,0.613772,
2,0,0,1,0,12038.8,0.610012,0.609697,-0.0520775,18,1.23187,10,-3.17514e-05,-4.28335,-0.0507381,-1.16283,0.609719,
2,0,0,1,0,12039.6,0.606017,0.60574,-0.0606733,18,1.23182,10,-3.67523e-05,-4.217,-0.0589442,-1.00095,0.605767,
2,0,0,1,0,12040.4,0.602022,0.601718,-0.0688412,18,1.23175,10,-4.1423e-05,-4.16215,-0.103417,-0.570505,0.601749,
2,0,0,0,0,12041.2,0.598027,0.59772,-0.0762746,18,1.23168,10,-4.55908e-05,-4.11762,-0.0881401,-0.669389,0.597753,
2,0,0,1,0,12042,0.594032,0.593711,-0.0817501,18,1.23161,10,-4.85359e-05,-4.08751,-0.155501,-0.379419,0.593747,
2,0,0,0,0,12042.8,0.590037,0.589743,-0.0872196,18,1.23153,10,-5.14372e-05,-4.05939,-0.187963,-0.313891,0.589782,
2,0,0,1,0,12043.6,0.586041,0.585733,-0.0918091,18,1.23145,10,-5.37756e-05,-4.03711,-0.234635,-0.251455,0.585773,
2,0,0,1,0,12044.4,0.582046,0.581768,-0.0945894,18,1.23136,10,-5.50291e-05,-4.02416,-0.182446,-0.323384,0.58181,
2,0,0,1,0,12045.2,0.578052,0.577774,-0.0976944,18,1.23128,10,-5.64452e-05,-4.01013,-0.336974,-0.175088,0.577817,
2,0,0,1,0,12046,0.574056,0.57376,-0.100189,18,1.23118,10,-5.74845e-05,-3.99918,-0.42476,-0.138902,0.573804,
2,0,0,0,0,12046.8,0.570061,0.569819,-0.102839,18,1.23109,10,-5.85998e-05,-3.98784,-0.951569,-0.0620029,0.569865,
2,0,0,1,0,12047.6,0.566065,0.56576,-0.104989,18,1.231,10,-5.93987e-05,-3.97886,-0.232901,-0.253327,0.565806,
2,0,0,1,0,12048.4,0.56207,0.561782,-0.106158,18,1.2309,10,-5.96375e-05,-3.97405,-1.4079,-0.0419064,0.561829,
2,0,0,1,0,12049.2,0.558075,0.557835,-0.108926,18,1.23081,10,-6.07625e-05,-3.96287,-0.55763,-0.105805,0.557882,
2,0,0,1,0,12050,0.55408,0.553799,-0.110355,18,1.23071,10,-6.11147e-05,-3.95721,-0.315753,-0.186855,0.553848,
2,0,0,0,0,12050.7,0.550085,0.549806,-0.110483,18,1.23061,10,-6.07444e-05,-3.9567,2.84191,0.0207607,0.549855,
2,0,0,1,0,12051.5,0.54609,0.545826,-0.112196,18,1.23051,10,-6.12394e-05,-3.95002,-1.79386,-0.0328899,0.545876,
2,0,0,1,0,12052.3,0.542094,0.541817,-0.11323,18,1.2304,10,-6.13497e-05,-3.94604,-1.48404,-0.0397563,0.541866,
2,0,0,1,0,12053.1,0.538099,0.537794,-0.114884,18,1.2303,10,-6.17837e-05,-3.93974,-0.635464,-0.0928456,0.537844,
2,0,0,1,0,12053.9,0.534104,0.53384,-0.115232,18,1.2302,10,-6.15153e-05,-3.93843,-0.70551,-0.0836275,0.533891,
2,0,0,0,0,12054.7,0.530109,0.529799,-0.117254,18,1.23009,10,-6.21214e-05,-3.93087,-0.865581,-0.0681623,0.529851,
2,0,0,1,0,12055.5,0.526114,0.525839,-0.11813,18,1.22999,10,-6.21176e-05,-3.92764,-0.849219,-0.0694756,0.525891,
2,0,0,0,0,12056.3,0.522119,0.521792,-0.119009,18,1.22988,10,-6.20982e-05,-3.92442,-1.57311,-0.0375054,0.521845,
2,0,0,1,0,12057.1,0.518123,0.517831,-0.119884,18,1.22978,10,-6.20795e-05,-3.92124,-0.846111,-0.0697308,0.517884,
2,0,0,1,0,12057.9,0.514128,0.513828,-0.122082,18,1.22967,10,-6.27291e-05,-3.91335,-2.5802,-0.0228665,0.513881,
2,0,0,1,0,12058.7,0.510133,0.509857,-0.12099,18,1.22956,10,-6.16877e-05,-3.91725,-1.16304,-0.050729,0.50991,
2,0,0,1,0,12059.5,0.506138,0.505791,-0.12373,18,1.22945,10,-6.25813e-05,-3.90753,-2.29961,-0.0256566,0.505845,
2,0,0,0,0,12060.3,0.502143,0.501873,-0.124461,18,1.22934,10,-6.24638e-05,-3.90497,-0.539295,-0.109402,0.501927,
2,0,0,1,0,12061.1,0.498148,0.497849,-0.125601,18,1.22923,10,-6.25304e-05,-3.90101,-2.42456,-0.0243344,0.497905,
2,0,0,1,0,12061.9,0.494152,0.493849,-0.126126,18,1.22912,10,-6.22873e-05,-3.8992,-0.707067,-0.0834433,0.493905,
2,0,0,1,0,12062.7,0.490157,0.489894,-0.126286,18,1.22901,10,-6.18667e-05,-3.89865,-2.28075,-0.0258687,0.48995,
2,0,0,1,0,12063.5,0.486162,0.485888,-0.12742,18,1.22889,10,-6.1912e-05,-3.89476,-0.811424,-0.0727116,0.485944,
2,0,0,0,0,12064.3,0.482167,0.481874,-0.129725,18,1.22878,10,-6.25111e-05,-3.88698,-0.843649,-0.0699343,0.481931,
2,0,0,1,0,12065.1,0.478172,0.47786,-0.129479,18,1.22866,10,-6.18728e-05,-3.8878,-2.42047,-0.0243754,0.477917,
2,0,0,0,0,12065.9,0.474177,0.47387,-0.132522,18,1.22855,10,-6.27984e-05,-3.87771,-3.37881,-0.0174618,0.473929,
2,0,0,1,0,12066.7,0.470181,0.469897,-0.132828,18,1.22843,10,-6.24153e-05,-3.87671,-0.517465,-0.114017,0.469955,
2,0,0,1,0,12067.5,0.466186,0.465934,-0.134485,18,1.22831,10,-6.26611e-05,-3.87133,-0.941849,-0.0626428,0.465993,
2,0,0,1,0,12068.3,0.462191,0.461905,-0.135728,18,1.22819,10,-6.26933e-05,-3.86733,-1.01678,-0.0580265,0.461965,
2,0,0,1,0,12069.1,0.458196,0.457939,-0.137359,18,1.22807,10,-6.29019e-05,-3.86214,-0.554352,-0.10643,0.457999,
2,0,0,0,0,12069.9,0.454201,0.453891,-0.138485,18,1.22795,10,-6.28571e-05,-3.8586,-1.0912,-0.0540691,0.453952,
2,0,0,1,0,12070.7,0.450205,0.449926,-0.141475,18,1.22782,10,-6.36533e-05,-3.84932,-0.878946,-0.0671259,0.449988,
2,0,0,1,0,12071.5,0.44621,0.445898,-0.142068,18,1.2277,10,-6.33476e-05,-3.84751,-0.738547,-0.0798866,0.44596,
2,0,0,1,0,12072.3,0.442215,0.441929,-0.143736,18,1.22757,10,-6.35209e-05,-3.84244,-4.00478,-0.0147324,0.441992,
2,0,0,1,0,12073.1,0.43822,0.437924,-0.144901,18,1.22745,10,-6.34557e-05,-3.83893,-0.43454,-0.135776,0.437987,
2,0,0,0,0,12073.9,0.434225,0.433942,-0.147114,18,1.22732,10,-6.3839e-05,-3.83235,-1.59245,-0.0370498,0.434007,
2,0,0,1,0,12074.7,0.43023,0.429934,-0.148536,18,1.22719,10,-6.38608e-05,-3.82817,-0.474629,-0.124308,0.429999,
2,0,0,1,0,12075.5,0.426234,0.425954,-0.151295,18,1.22706,10,-6.44448e-05,-3.82017,-1.68104,-0.0350972,0.42602,
2,0,0,1,0,12076.3,0.422239,0.421948,-0.152282,18,1.22692,10,-6.4255e-05,-3.81735,-0.641546,-0.0919654,0.422015,
2,0,0,1,0,12077.1,0.418244,0.417946,-0.154023,18,1.22679,10,-6.43735e-05,-3.81241,-1.2422,-0.0474963,0.418014,
2,0,0,0,0,12077.9,0.414249,0.413966,-0.156129,18,1.22665,10,-6.46321e-05,-3.80652,-0.65898,-0.0895323,0.414035,
2,0,0,1,0,12078.7,0.410254,0.409977,-0.158117,18,1.22651,10,-6.48241e-05,-3.80102,-2.27952,-0.0258826,0.410046,
2,0,0,0,0,12079.5,0.406259,0.405949,-0.160015,18,1.22638,10,-6.4958e-05,-3.79584,-0.390038,-0.151267,0.40602,
2,0,0,1,0,12080.3,0.402263,0.401988,-0.161488,18,1.22624,10,-6.49165e-05,-3.79186,-0.834592,-0.0706932,0.402059,
2,0,0,1,0,12081.1,0.398268,0.39795,-0.163957,18,1.22609,10,-6.52467e-05,-3.78527,-0.754287,-0.0782195,0.398022,
2,0,0,1,0,12081.9,0.394274,0.393983,-0.165301,18,1.22595,10,-6.51258e-05,-3.78172,-0.583431,-0.101126,0.394056,
2,0,0,1,0,12082.7,0.390278,0.389952,-0.167563,18,1.2258,10,-6.53415e-05,-3.77582,-0.876183,-0.0673376,0.390026,
2,0,0,0,0,12083.5,0.386283,0.38601,-0.170469,18,1.22566,10,-6.58029e-05,-3.76835,-1.19222,-0.0494874,0.386085,
2,0,0,1,0,12084.3,0.382287,0.382016,-0.170799,18,1.22551,10,-6.5248e-05,-3.76751,-0.697946,-0.0845337,0.382091,
2,0,0,1,0,12085.1,0.378292,0.377985,-0.173722,18,1.22536,10,-6.56645e-05,-3.76014,-1.70517,-0.0346007,0.378062,
2,0,0,1,0,12085.9,0.374297,0.374009,-0.175499,18,1.22521,10,-6.5638e-05,-3.75573,-0.523108,-0.112788,0.374086,
2,0,0,1,0,12086.7,0.370303,0.37002,-0.177971,18,1.22505,10,-6.5853e-05,-3.74965,-0.732314,-0.0805665,0.370098,
2,0,0,0,0,12087.5,0.366307,0.366032,-0.180899,18,1.2249,10,-6.62149e-05,-3.74256,-0.508638,-0.115996,0.366112,
2,0,0,1,0,12088.3,0.362312,0.362004,-0.183472,18,1.22474,10,-6.64177e-05,-3.73643,-1.61835,-0.036457,0.362085,
2,0,0,1,0,12089.1,0.358316,0.358044,-0.185197,18,1.22458,10,-6.63087e-05,-3.73237,-0.667398,-0.088403,0.358125,
2,0,0,1,0,12089.9,0.354321,0.354008,-0.18641,18,1.22442,10,-6.59908e-05,-3.72953,-0.81661,-0.0722499,0.35409,
2,0,0,1,0,12090.7,0.350327,0.350044,-0.18819,18,1.22425,10,-6.58747e-05,-3.7254,-0.661728,-0.0891605,0.350127,
2,0,0,0,0,12091.5,0.346331,0.346005,-0.191357,18,1.22409,10,-6.62103e-05,-3.71816,-1.83547,-0.0321444,0.346089,
2,0,0,1,0,12092.3,0.342336,0.342049,-0.194122,18,1.22392,10,-6.63991e-05,-3.71193,-0.416723,-0.141581,0.342135,
2,0,0,0,0,12093.1,0.338341,0.338039,-0.196744,18,1.22375,10,-6.6507e-05,-3.7061,-2.00252,-0.0294629,0.338125,
2,0,0,1,0,12093.9,0.334345,0.334066,-0.198314,18,1.22358,10,-6.62501e-05,-3.70265,-0.500511,-0.11788,0.334153,
2,0,0,1,0,12094.7,0.33035,0.330023,-0.200003,18,1.22341,10,-6.60056e-05,-3.69896,-0.9103,-0.0648138,0.330111,
2,0,0,1,0,12095.5,0.326355,0.326071,-0.202825,18,1.22324,10,-6.61355e-05,-3.69288,-1.03268,-0.057133,0.326161,
2,0,0,1,0,12096.3,0.32236,0.322052,-0.206558,18,1.22306,10,-6.65225e-05,-3.68496,-0.592389,-0.0995968,0.322143,
2,0,0,0,0,12097.1,0.318365,0.318054,-0.208172,18,1.22288,10,-6.62099e-05,-3.68158,-0.586542,-0.10059,0.318146,
2,0,0,1,0,12097.9,0.31437,0.314058,-0.211504,18,1.2227,10,-6.64244e-05,-3.67468,-4.50344,-0.0131011,0.314151,
2,0,0,1,0,12098.7,0.310374,0.310071,-0.213349,18,1.22252,10,-6.61534e-05,-3.67091,-0.723484,-0.0815498,0.310165,
2,0,0,1,0,12099.5,0.306379,0.306082,-0.216008,18,1.22233,10,-6.61163e-05,-3.66553,-0.748096,-0.0788669,0.306177,
2,0,0,1,0,12100.3,0.302385,0.302064,-0.218137,18,1.22215,10,-6.58914e-05,-3.66127,-0.598291,-0.0986142,0.30216,
2,0,0,0,0,12101.1,0.298389,0.298111,-0.220365,18,1.22196,10,-6.56934e-05,-3.65686,-0.536942,-0.109882,0.298208,
2,0,0,1,0,12101.9,0.294394,0.294074,-0.223553,18,1.22177,10,-6.57411e-05,-3.65062,-1.35175,-0.0436473,0.294173,
2,0,0,1,0,12102.7,0.290398,0.290089,-0.226561,18,1.22157,10,-6.57227e-05,-3.64482,-0.667846,-0.0883437,0.290188,
2,0,0,1,0,12103.5,0.286403,0.286094,-0.227659,18,1.22138,10,-6.51319e-05,-3.64271,-0.808539,-0.0729712,0.286194,
2,0,0,1,0,12104.3,0.282408,0.282049,-0.231427,18,1.22118,10,-6.52738e-05,-3.63559,-3.18586,-0.0185193,0.282151,
2,0,0,1,0,12105.1,0.278414,0.278134,-0.233078,18,1.22098,10,-6.48269e-05,-3.6325,-0.541493,-0.108958,0.278236,
2,0,0,1,0,12105.9,0.274418,0.274088,-0.236668,18,1.22078,10,-6.48678e-05,-3.62586,-0.749076,-0.0787637,0.274192,
2,0,0,0,0,12106.7,0.270423,0.270128,-0.240284,18,1.22058,10,-6.49075e-05,-3.61928,-0.82994,-0.0710894,0.270234,
2,0,0,1,0,12107.5,0.266427,0.266152,-0.24147,18,1.22037,10,-6.42678e-05,-3.61714,-0.934025,-0.0631674,0.266259,
2,0,0,1,0,12108.3,0.262432,0.262171,-0.244632,18,1.22016,10,-6.41354e-05,-3.61149,-1.03672,-0.0569102,0.262278,
2,0,0,1,0,12109.1,0.258437,0.258168,-0.24693,18,1.21996,10,-6.37494e-05,-3.60743,-1.04244,-0.0565977,0.258277,
2,0,0,1,0,12109.9,0.254442,0.2541,-0.248312,18,1.21974,10,-6.30962e-05,-3.605,-0.863453,-0.0683303,0.254209,
2,0,0,0,0,12110.7,0.250447,0.250145,-0.250926,18,1.21953,10,-6.27678e-05,-3.60045,-2.15024,-0.0274388,0.250255,
2,0,0,1,0,12111.5,0.246452,0.246143,-0.25402,18,1.21932,10,-6.25253e-05,-3.59513,-0.562983,-0.104799,0.246255,
2,0,0,1,0,12112.3,0.242456,0.242123,-0.2566,18,1.2191,10,-6.21287e-05,-3.59074,-1.3785,-0.0428002,0.242236,
2,0,0,1,0,12113.1,0.238461,0.238149,-0.258716,18,1.21888,10,-6.16129e-05,-3.58718,-0.758821,-0.0777522,0.238262,
2,0,0,1,0,12113.9,0.234467,0.234171,-0.262275,18,1.21866,10,-6.14173e-05,-3.58124,-0.750344,-0.0786306,0.234287,
2,0,0,0,0,12114.7,0.230471,0.230148,-0.263293,18,1.21844,10,-6.05963e-05,-3.57956,-1.99379,-0.0295919,0.230264,
2,0,0,1,0,12115.5,0.226476,0.226189,-0.266638,18,1.21821,10,-6.03106e-05,-3.57408,-0.759195,-0.0777139,0.226307,
2,0,0,0,0,12116.3,0.222481,0.222144,-0.267808,18,1.21798,10,-5.94918e-05,-3.57218,-1.7926,-0.0329131,0.222262,
2,0,0,1,0,12117.1,0.218485,0.218165,-0.27174,18,1.21775,10,-5.92842e-05,-3.56585,-0.742191,-0.0794944,0.218285,
2,0,0,1,0,12117.9,0.21449,0.214153,-0.273778,18,1.21752,10,-5.86302e-05,-3.5626,-0.67308,-0.0876568,0.214273,
2,0,0,1,0,12118.7,0.210496,0.210162,-0.277915,18,1.21729,10,-5.84071e-05,-3.55609,-0.614861,-0.0959567,0.210284,
2,0,0,1,0,12119.5,0.2065,0.206215,-0.28177,18,1.21705,10,-5.81054e-05,-3.5501,-1.72417,-0.0342193,0.206339,
2,0,0,0,0,12120.3,0.202505,0.202212,-0.285263,18,1.21681,10,-5.76836e-05,-3.54476,-0.565626,-0.104309,0.202338,
2,0,0,1,0,12121.1,0.198509,0.198183,-0.288202,18,1.21657,10,-5.71169e-05,-3.5403,-0.650618,-0.090683,0.19831,
2,0,0,1,0,12121.9,0.194514,0.194167,-0.291926,18,1.21632,10,-5.66824e-05,-3.53473,-0.549978,-0.107277,0.194295,
2,0,0,1,0,12122.7,0.190519,0.190199,-0.296617,18,1.21607,10,-5.64163e-05,-3.5278,-0.601466,-0.0980936,0.19033,
2,0,0,1,0,12123.5,0.186524,0.186222,-0.302658,18,1.21582,10,-5.63617e-05,-3.51905,-0.657587,-0.0897219,0.186356,
2,0,0,0,0,12124.3,0.182529,0.182219,-0.307653,18,1.21556,10,-5.60604e-05,-3.51194,-0.358702,-0.164482,0.182355,
2,0,0,1,0,12125.1,0.178534,0.178234,-0.315317,18,1.2153,10,-5.62003e-05,-3.50125,-0.416715,-0.141584,0.178373,
2,0,0,1,0,12125.9,0.174538,0.174243,-0.323679,18,1.21503,10,-5.63987e-05,-3.48989,-0.343946,-0.171539,0.174385,
2,0,0,1,0,12126.7,0.170543,0.17025,-0.333985,18,1.21475,10,-5.68608e-05,-3.47627,-0.270416,-0.218182,0.170397,
2,0,0,1,0,12127.5,0.166549,0.166245,-0.346582,18,1.21447,10,-5.76176e-05,-3.46019,-0.239546,-0.246299,0.166397,
2,0,0,0,0,12128.3,0.162553,0.16224,-0.361681,18,1.21417,10,-5.86792e-05,-3.44167,-0.196053,-0.300938,0.162399,
2,0,0,1,0,12129.1,0.158558,0.158245,-0.379438,18,1.21386,10,-6.00441e-05,-3.42086,-0.160014,-0.368719,0.158412,
2,0,0,0,0,12129.9,0.154563,0.154244,-0.405886,18,1.21353,10,-6.26054e-05,-3.3916,-0.135159,-0.436523,0.154422,
2,0,0,1,0,12130.7,0.150567,0.150253,-0.438611,18,1.21318,10,-6.59026e-05,-3.35792,-0.0978096,-0.603213,0.150446,
2,0,0,1,0,12131.5,0.146572,0.146251,-0.483059,18,1.2128,10,-7.06476e-05,-3.316,-0.0926176,-0.637028,0.146463,
2,0,0,1,0,12132.3,0.142578,0.142271,-0.538017,18,1.21238,10,-7.65444e-05,-3.2692,-0.0792686,-0.744305,0.142508,
2,0,0,1,0,12133.1,0.138582,0.138294,-0.601534,18,1.21191,10,-8.31887e-05,-3.22074,-0.0850111,-0.694027,0.138559,
2,0,0,0,0,12133.8,0.134587,0.13426,-0.664195,18,1.21139,10,-8.91751e-05,-3.1777,-0.10543,-0.559612,0.134553,
2,0,0,1,0,12134.6,0.130591,0.130272,-0.718032,18,1.21082,10,-9.35392e-05,-3.14386,-0.139699,-0.422336,0.130588,
2,0,0,1,0,12135.4,0.126596,0.126246,-0.753266,18,1.21022,10,-9.50966e-05,-3.12305,-0.245764,-0.240067,0.126577,
2,0,0,1,0,12136.2,0.122602,0.122275,-0.776043,18,1.20959,10,-9.48907e-05,-3.11011,-0.763532,-0.0772725,0.122616,
2,0,0,1,0,12137,0.118607,0.118311,-0.779713,18,1.20895,10,-9.22488e-05,-3.10807,-1.79091,-0.0329441,0.118654,
2,0,0,0,0,12137.8,0.114611,0.114261,-0.77728,18,1.20832,10,-8.8813e-05,-3.10942,0.751083,0.0785533,0.114603,
2,0,0,1,0,12138.6,0.110616,0.110301,-0.768373,18,1.20769,10,-8.4752e-05,-3.11443,0.779485,0.075691,0.110639,
2,0,0,1,0,12139.4,0.10662,0.1063,-0.756737,18,1.20706,10,-8.04413e-05,-3.12106,0.722664,0.0816424,0.106633,
2,0,0,1,0,12140.2,0.102625,0.102332,-0.74448,18,1.20645,10,-7.61838e-05,-3.12815,0.388714,0.151783,0.102659,
2,0,0,1,0,12141,0.0986305,0.0982906,-0.730265,18,1.20584,10,-7.17782e-05,-3.13652,0.475495,0.124081,0.0986119,
2,0,0,0,0,12141.8,0.0946351,0.0943467,-0.710331,18,1.20525,10,-6.70174e-05,-3.14854,0.439042,0.134383,0.0946593,
2,0,0,1,0,12142.6,0.0906399,0.0902938,-0.698695,18,1.20467,10,-6.30879e-05,-3.15571,0.376061,0.15689,0.0906013,
2,0,0,0,0,12143.4,0.0866448,0.0863237,-0.684102,18,1.20411,10,-5.90542e-05,-3.16488,0.63256,0.0932718,0.0866247,
2,0,0,1,0,12144.2,0.0826492,0.08233,-0.672231,18,1.20355,10,-5.53448e-05,-3.17248,0.456231,0.12932,0.0826258,
2,0,0,1,0,12145,0.0786544,0.0783441,-0.661763,18,1.20301,10,-5.18452e-05,-3.1793,0.624256,0.0945124,0.0786353,
2,0,0,1,0,12145.8,0.0746596,0.0743499,-0.650021,18,1.20247,10,-4.8329e-05,-3.18707,0.677982,0.087023,0.0746359,
2,0,0,1,0,12146.6,0.0706641,0.0703836,-0.642315,18,1.20194,10,-4.52085e-05,-3.19225,0.532794,0.110737,0.0706663,
2,0,0,0,0,12147.4,0.0666689,0.0663774,-0.633113,18,1.20142,10,-4.20244e-05,-3.19852,0.913172,0.06461,0.066656,
2,0,0,1,0,12148.2,0.0626737,0.0623829,-0.622819,18,1.2009,10,-3.88532e-05,-3.20564,0.601356,0.0981116,0.0626569,
2,0,0,1,0,12149,0.0586783,0.0583478,-0.61435,18,1.20039,10,-3.5846e-05,-3.21158,0.464374,0.127053,0.0586181,
2,0,0,1,0,12149.8,0.0546835,0.0543621,-0.604042,18,1.19989,10,-3.2837e-05,-3.21893,0.739938,0.0797365,0.0546279,
2,0,0,1,0,12150.6,0.0506886,0.0503806,-0.59354,18,1.1994,10,-2.99029e-05,-3.22655,0.467005,0.126337,0.0506417,
2,0,0,0,0,12151.4,0.046693,0.0463813,-0.582912,18,1.19891,10,-2.70363e-05,-3.2344,0.485034,0.121641,0.0466378,
2,0,0,1,0,12152.2,0.0426979,0.0423868,-0.570564,18,1.19844,10,-2.41844e-05,-3.2437,0.447078,0.131968,0.0426378,
2,0,0,1,0,12153,0.0387022,0.0383588,-0.56032,18,1.19797,10,-2.14932e-05,-3.25156,0.405351,0.145553,0.0386053,
2,0,0,1,0,12153.8,0.0347074,0.034385,-0.547996,18,1.19752,10,-1.88428e-05,-3.26122,0.498127,0.118444,0.0346261,
2,0,0,1,0,12154.6,0.0307126,0.0304023,-0.534423,18,1.19707,10,-1.62477e-05,-3.27211,0.432086,0.136547,0.0306374,
2,0,0,0,0,12155.4,0.0267172,0.0263651,-0.527118,18,1.19663,10,-1.38975e-05,-3.27809,0.45056,0.130948,0.026597,
2,0,0,1,0,12156.2,0.022722,0.0223801,-0.517816,18,1.1962,10,-1.15888e-05,-3.28582,0.846077,0.0697336,0.0226079,
2,0,0,0,0,12157,0.0187268,0.0183856,-0.510306,18,1.19578,10,-9.38226e-06,-3.29217,0.615874,0.0957988,0.0186101,
2,0,0,1,0,12157.8,0.0147313,0.0144161,-0.506467,18,1.19536,10,-7.30128e-06,-3.29545,1.20477,0.0489722,0.0146389,
2,0,0,1,0,12158.6,0.0107365,0.010442,-0.500362,18,1.19494,10,-5.22479e-06,-3.30072,2.08572,0.0282875,0.0106622,
2,0,0,1,0,12159.4,0.00674163,0.00642432,-0.49811,18,1.19453,10,-3.20002e-06,-3.30267,2.07707,0.0284054,0.00664349,
2,0,0,1,0,12160.2,0.00274612,0.00242113,-0.498762,18,1.19412,10,-1.20757e-06,-3.30211,-2.05612,-0.0286948,0.00264058,
2,0,0,0,0,12160.7,0.000274105,-7.95743e-05,-0.50004,18,1.19386,10,3.97903e-08,-3.301, , ,0.000140443,