File: Figure_codes/Fig_3-5/workspace_calculate_alpha_eff/20221101_1-115_003_TrumpetPlot_ParaChange_from10_every3_16_CV_C01_27.csv
mode,ox/red,error,control changes,counter inc.,time/s,control/V,Ewe/V,<I>/mA,cycle number,(Q-Qo)/C,I Range,P/W,log(|I|),Tafel slope mV/dec,alpha_eff,E-IR/V,
2,0,0,1,0,18961.3,2.44065e-05,-0.000497109,-0.059324,28,0.0000000E+000,10,2.94905e-08,-4.22677, , ,-0.000471007,
2,1,0,1,0,18962,0.00379485,0.00346245,0.212186,28,0.000144781,10,7.34685e-07,-3.67328,0.051081,1.15503,0.00336909,
2,1,0,0,0,18962.8,0.00779002,0.00752487,0.236175,28,0.000337515,10,1.77718e-06,-3.62677,0.100163,0.589038,0.00742095,
2,1,0,1,0,18963.6,0.0117852,0.0114759,0.252589,28,0.000546252,10,2.89869e-06,-3.59759,0.163967,0.359828,0.0113648,
2,1,0,1,0,18964.4,0.0157806,0.0154928,0.268942,28,0.000767393,10,4.16666e-06,-3.57034,0.179559,0.328584,0.0153745,
2,1,0,1,0,18965.2,0.0197754,0.0194427,0.28172,28,0.00100013,10,5.4774e-06,-3.55018,0.161899,0.364424,0.0193188,
2,1,0,1,0,18966,0.0237704,0.0234614,0.296292,28,0.00124439,10,6.95144e-06,-3.52828,0.193087,0.305561,0.0233311,
2,1,0,0,0,18966.8,0.0277659,0.0274149,0.311007,28,0.00149975,10,8.52623e-06,-3.50723,0.209507,0.281613,0.0272781,
2,1,0,1,0,18967.6,0.0317611,0.0314201,0.32587,28,0.00176682,10,1.02389e-05,-3.48696,0.203245,0.290291,0.0312767,
2,1,0,1,0,18968.4,0.0357567,0.0354607,0.340237,28,0.00204536,10,1.2065e-05,-3.46822,0.268616,0.219644,0.035311,
2,1,0,1,0,18969.2,0.0397516,0.039421,0.354177,28,0.00233494,10,1.3962e-05,-3.45078,0.201865,0.292275,0.0392651,
2,1,0,1,0,18970,0.0437465,0.0434313,0.365251,28,0.00263644,10,1.58633e-05,-3.43741,0.251596,0.234503,0.0432706,
2,1,0,1,0,18970.8,0.0477413,0.0474212,0.37958,28,0.00294808,10,1.80001e-05,-3.4207,0.246139,0.239702,0.0472542,
2,1,0,1,0,18971.6,0.0517369,0.0514066,0.393663,28,0.00327013,10,2.02369e-05,-3.40488,0.281321,0.209725,0.0512334,
2,1,0,0,0,18972.4,0.0557321,0.0554224,0.406373,28,0.00360261,10,2.25222e-05,-3.39107,0.352151,0.167542,0.0552436,
2,1,0,1,0,18973.2,0.0597277,0.0593801,0.417773,28,0.00394403,10,2.48074e-05,-3.37906,0.358766,0.164452,0.0591963,
2,1,0,1,0,18974,0.0637226,0.0634043,0.427315,28,0.00429438,10,2.70936e-05,-3.36925,0.379126,0.155621,0.0632163,
2,1,0,1,0,18974.8,0.0677174,0.0673952,0.437328,28,0.0046534,10,2.94739e-05,-3.35919,0.673833,0.0875588,0.0672028,
2,1,0,1,0,18975.6,0.0717128,0.0713592,0.446446,28,0.00501928,10,3.18581e-05,-3.35023,0.356599,0.165452,0.0711628,
2,1,0,0,0,18976.4,0.075708,0.0754025,0.451848,28,0.00539223,10,3.40705e-05,-3.34501,0.444252,0.132807,0.0752037,
2,1,0,1,0,18977.2,0.0797031,0.0793621,0.46282,28,0.00577147,10,3.67304e-05,-3.33459,0.598688,0.0985489,0.0791585,
2,1,0,1,0,18978,0.0836986,0.0833643,0.470906,28,0.00615706,10,3.92567e-05,-3.32707,0.414058,0.142492,0.0831571,
2,1,0,1,0,18978.8,0.0876935,0.0873755,0.482075,28,0.00655084,10,4.21216e-05,-3.31688,0.379131,0.155619,0.0871634,
2,1,0,1,0,18979.6,0.0916883,0.0913507,0.497172,28,0.00695443,10,4.5417e-05,-3.30349,0.255555,0.23087,0.0911319,
2,1,0,0,0,18980.4,0.0956838,0.0953552,0.51443,28,0.00737177,10,4.90535e-05,-3.28867,0.241729,0.244075,0.0951288,
2,1,0,1,0,18981.2,0.099679,0.099373,0.536822,28,0.00780503,10,5.33456e-05,-3.27017,0.2307,0.255744,0.0991368,
2,1,0,0,0,18982,0.103674,0.103365,0.561696,28,0.00825619,10,5.80599e-05,-3.2505,0.205214,0.287505,0.103118,
2,1,0,1,0,18982.8,0.10767,0.107391,0.582177,28,0.00872694,10,6.25205e-05,-3.23494,0.244554,0.241255,0.107135,
2,1,0,1,0,18983.6,0.111664,0.111349,0.603421,28,0.00921457,10,6.71903e-05,-3.21938,0.312575,0.188755,0.111084,
2,1,0,1,0,18984.4,0.115659,0.115309,0.619797,28,0.00971667,10,7.14684e-05,-3.20775,0.347822,0.169627,0.115037,
2,1,0,1,0,18985.2,0.119655,0.119319,0.634426,28,0.0102319,10,7.56993e-05,-3.19762,0.484692,0.121727,0.11904,
2,1,0,0,0,18986,0.12365,0.123344,0.648812,28,0.0107576,10,8.00268e-05,-3.18788,0.362829,0.162611,0.123058,
2,1,0,1,0,18986.8,0.127646,0.127346,0.661784,28,0.0112953,10,8.42755e-05,-3.17928,0.57513,0.102585,0.127055,
2,1,0,1,0,18987.6,0.131641,0.131295,0.670521,28,0.0118424,10,8.80358e-05,-3.17359,-4.67441,-0.0126219,0.131,
2,1,0,1,0,18988.4,0.135635,0.135319,0.662163,28,0.0123894,10,8.9603e-05,-3.17903,-0.426104,-0.138464,0.135027,
2,1,0,1,0,18989.2,0.139631,0.139326,0.630642,28,0.0129227,10,8.78649e-05,-3.20022,-0.13574,-0.434654,0.139048,
2,1,0,0,0,18990,0.143626,0.143306,0.581618,28,0.0134218,10,8.33491e-05,-3.23536,-0.0882837,-0.6683,0.14305,
2,1,0,1,0,18990.8,0.147621,0.147325,0.517215,28,0.013873,10,7.61985e-05,-3.28633,-0.0752885,-0.783652,0.147097,
2,1,0,1,0,18991.6,0.151617,0.151281,0.457527,28,0.0142746,10,6.92153e-05,-3.33958,-0.0798436,-0.738945,0.15108,
2,1,0,1,0,18992.4,0.155612,0.155292,0.412734,28,0.014634,10,6.40942e-05,-3.38433,-0.104204,-0.566197,0.15511,
2,1,0,1,0,18993.2,0.159606,0.159293,0.381567,28,0.0149635,10,6.07811e-05,-3.41843,-0.137272,-0.429803,0.159125,
2,1,0,0,0,18994,0.163602,0.16324,0.360363,28,0.0152724,10,5.88257e-05,-3.44326,-0.172265,-0.342495,0.163082,
2,1,0,1,0,18994.8,0.167597,0.167233,0.345425,28,0.0155666,10,5.77663e-05,-3.46165,-0.326893,-0.180487,0.167081,
2,1,0,0,0,18995.6,0.171592,0.171268,0.333649,28,0.0158509,10,5.71433e-05,-3.47671,-0.298632,-0.197567,0.171121,
2,1,0,1,0,18996.4,0.175588,0.175246,0.326422,28,0.0161272,10,5.72044e-05,-3.48622,-0.402249,-0.146675,0.175103,
2,1,0,1,0,18997.2,0.179582,0.179239,0.319124,28,0.0163973,10,5.71993e-05,-3.49604,-0.518447,-0.113801,0.179098,
2,1,0,1,0,18998,0.183577,0.183239,0.314324,28,0.0166632,10,5.75966e-05,-3.50262,-0.595734,-0.0990375,0.183101,
2,1,0,1,0,18998.8,0.187573,0.187261,0.310281,28,0.0169249,10,5.81034e-05,-3.50824,-0.809448,-0.0728892,0.187124,
2,1,0,0,0,18999.6,0.191568,0.191256,0.306234,28,0.0171835,10,5.85691e-05,-3.51395,-0.578345,-0.102015,0.191121,
2,1,0,1,0,19000.4,0.195563,0.195224,0.303359,28,0.0174396,10,5.9223e-05,-3.51804,-0.760854,-0.0775445,0.195091,
2,1,0,1,0,19001.2,0.199559,0.199243,0.30055,28,0.0176929,10,5.98826e-05,-3.52208,-1.59219,-0.037056,0.199111,
2,1,0,1,0,19002,0.203553,0.203258,0.296738,28,0.0179441,10,6.03143e-05,-3.52763,-1.55854,-0.0378561,0.203127,
2,1,0,1,0,19002.8,0.207548,0.207231,0.295469,28,0.0181938,10,6.12303e-05,-3.52949,-1.04781,-0.0563078,0.207101,
2,1,0,0,0,19003.6,0.211544,0.21125,0.293145,28,0.0184414,10,6.19269e-05,-3.53292,-7.79628,-0.00756771,0.211121,
2,1,0,1,0,19004.4,0.215539,0.215211,0.29152,28,0.0186877,10,6.27382e-05,-3.53533,-0.73155,-0.0806507,0.215083,
2,1,0,1,0,19005.2,0.219535,0.219182,0.290702,28,0.0189324,10,6.37167e-05,-3.53655,-2.31006,-0.0255404,0.219054,
2,1,0,1,0,19006,0.223529,0.223216,0.287996,28,0.0191759,10,6.42853e-05,-3.54061,-2.05999,-0.0286409,0.223089,
2,1,0,1,0,19006.8,0.227524,0.2272,0.286939,28,0.0194183,10,6.51924e-05,-3.54221,-1.56851,-0.0376152,0.227073,
2,1,0,0,0,19007.6,0.23152,0.231236,0.286414,28,0.0196596,10,6.62291e-05,-3.54301,-3.68974,-0.0159903,0.23111,
2,1,0,1,0,19008.4,0.235515,0.235241,0.284104,28,0.0199,10,6.68328e-05,-3.54652,-1.30673,-0.0451508,0.235116,
2,1,0,0,0,19009.2,0.23951,0.239215,0.28353,28,0.0201393,10,6.78246e-05,-3.5474,-4.01208,-0.0147056,0.23909,
2,1,0,1,0,19010,0.243506,0.243175,0.28254,28,0.0203777,10,6.87066e-05,-3.54892,-4.51128,-0.0130783,0.243051,
2,1,0,1,0,19010.8,0.2475,0.247177,0.281888,28,0.0206157,10,6.96762e-05,-3.54992,-2.0059,-0.0294132,0.247053,
2,1,0,1,0,19011.6,0.251495,0.251169,0.280178,28,0.0208523,10,7.0372e-05,-3.55257,-2.75379,-0.021425,0.251046,
2,1,0,1,0,19012.4,0.255491,0.255197,0.279763,28,0.0210884,10,7.13947e-05,-3.55321,-4.00905,-0.0147167,0.255074,
2,1,0,0,0,19013.2,0.259486,0.259207,0.278338,28,0.021324,10,7.21472e-05,-3.55543,-1.57927,-0.037359,0.259085,
2,1,0,1,0,19014,0.263481,0.263185,0.278365,28,0.0215587,10,7.32613e-05,-3.55539,6.68611,0.00882427,0.263062,
2,1,0,1,0,19014.8,0.267477,0.267173,0.276782,28,0.0217929,10,7.39488e-05,-3.55786,-1.24992,-0.0472029,0.267051,
2,1,0,1,0,19015.6,0.271471,0.271111,0.276517,28,0.0220262,10,7.49668e-05,-3.55828,102.464,0.000575814,0.270989,
2,1,0,1,0,19016.4,0.275466,0.275126,0.274793,28,0.0222584,10,7.56025e-05,-3.56099,-1.98994,-0.0296492,0.275005,
2,1,0,0,0,19017.2,0.279462,0.279153,0.272836,28,0.0224899,10,7.61631e-05,-3.5641,-3.01275,-0.0195834,0.279033,
2,1,0,1,0,19018,0.283457,0.28315,0.273413,28,0.0227206,10,7.7417e-05,-3.56318,-1.73264,-0.0340522,0.28303,
2,1,0,0,0,19018.8,0.287452,0.28712,0.271891,28,0.0229506,10,7.80655e-05,-3.5656,-4.0351,-0.0146217,0.287,
2,1,0,1,0,19019.6,0.291448,0.291113,0.271873,28,0.02318,10,7.91458e-05,-3.56563,-2.46698,-0.0239159,0.290993,
2,1,0,1,0,19020.4,0.295442,0.295089,0.270733,28,0.0234085,10,7.98903e-05,-3.56746,-9.92518,-0.00594448,0.29497,
2,1,0,1,0,19021.2,0.299437,0.299105,0.268712,28,0.0236364,10,8.03731e-05,-3.57071,-2.29251,-0.0257359,0.298987,
2,1,0,1,0,19022,0.303433,0.30312,0.269387,28,0.0238635,10,8.16564e-05,-3.56962,-3.80148,-0.0155203,0.303001,
2,1,0,0,0,19022.8,0.307428,0.307124,0.267786,28,0.0240899,10,8.22435e-05,-3.57221,-1.18603,-0.0497457,0.307006,
2,1,0,1,0,19023.6,0.311424,0.311122,0.266213,28,0.0243158,10,8.28245e-05,-3.57477,-22.4289,-0.00263053,0.311005,
2,1,0,1,0,19024.4,0.315418,0.315103,0.265664,28,0.0245407,10,8.37115e-05,-3.57567,-1.60725,-0.0367085,0.314986,
2,1,0,1,0,19025.2,0.319413,0.319127,0.265981,28,0.0247653,10,8.48818e-05,-3.57515,47.5618,0.00124049,0.31901,
2,1,0,1,0,19026,0.323409,0.323121,0.266184,28,0.0249899,10,8.60098e-05,-3.57482,-8.75758,-0.00673702,0.323004,
2,1,0,0,0,19026.8,0.327404,0.327094,0.265051,28,0.0252134,10,8.66966e-05,-3.57667,-2.99351,-0.0197093,0.326978,
2,1,0,1,0,19027.6,0.331399,0.331116,0.263634,28,0.0254363,10,8.72936e-05,-3.579,-4.063,-0.0145213,0.331,
2,1,0,1,0,19028.4,0.335395,0.335094,0.262835,28,0.0256588,10,8.80744e-05,-3.58032,4.31049,0.0136875,0.334979,
2,1,0,1,0,19029.2,0.339389,0.339109,0.262619,28,0.0258807,10,8.90563e-05,-3.58067,-1.30419,-0.0452389,0.338993,
2,1,0,1,0,19030,0.343384,0.343098,0.261735,28,0.0261022,10,8.98008e-05,-3.58214,-2.55473,-0.0230944,0.342983,
2,1,0,0,0,19030.8,0.34738,0.347081,0.262081,28,0.0263228,10,9.09633e-05,-3.58156,-3.37866,-0.0174625,0.346966,
2,1,0,1,0,19031.6,0.351375,0.35109,0.260333,28,0.026543,10,9.14005e-05,-3.58447,6.15472,0.00958613,0.350976,
2,1,0,0,0,19032.4,0.35537,0.355063,0.259993,28,0.0267627,10,9.23138e-05,-3.58504,-1.73081,-0.0340881,0.354948,
2,1,0,1,0,19033.2,0.359366,0.359076,0.259625,28,0.0269819,10,9.32252e-05,-3.58565,-13.8193,-0.00426938,0.358962,
2,1,0,1,0,19034,0.36336,0.36306,0.258352,28,0.0272008,10,9.37974e-05,-3.58779,-15.1886,-0.0038845,0.362946,
2,1,0,1,0,19034.8,0.367355,0.367099,0.258381,28,0.027419,10,9.48515e-05,-3.58774,-33.4997,-0.00176121,0.366985,
2,1,0,1,0,19035.6,0.371351,0.371024,0.258284,28,0.0276368,10,9.58295e-05,-3.5879,-7.76209,-0.00760105,0.37091,
2,1,0,0,0,19036.4,0.375346,0.375094,0.257221,28,0.0278546,10,9.6482e-05,-3.58969,-2.05449,-0.0287176,0.37498,
2,1,0,1,0,19037.2,0.379342,0.379029,0.256739,28,0.0280716,10,9.73115e-05,-3.59051,-3.25391,-0.018132,0.378916,
2,1,0,1,0,19038,0.383336,0.383008,0.2575,28,0.0282882,10,9.86244e-05,-3.58922,5.46916,0.0107878,0.382894,
2,1,0,1,0,19038.8,0.387331,0.387056,0.25655,28,0.0285047,10,9.92993e-05,-3.59083,-1.34972,-0.0437129,0.386943,
2,1,0,1,0,19039.6,0.391327,0.390991,0.255541,28,0.0287205,10,9.99144e-05,-3.59254,1.99948,0.0295076,0.390879,
2,1,0,0,0,19040.4,0.395322,0.394974,0.255085,28,0.028936,10,0.000100752,-3.59332,-1.32392,-0.0445647,0.394862,
2,1,0,1,0,19041.2,0.399317,0.399025,0.255297,28,0.0291514,10,0.00010187,-3.59295,14.2272,0.00414698,0.398913,
2,1,0,1,0,19041.9,0.403313,0.403057,0.255228,28,0.0293663,10,0.000102872,-3.59307,-4.41819,-0.0133539,0.402945,
2,1,0,1,0,19042.7,0.407307,0.407029,0.253819,28,0.0295809,10,0.000103312,-3.59548,-3.97087,-0.0148582,0.406917,
2,1,0,1,0,19043.5,0.411302,0.410993,0.255153,28,0.0297951,10,0.000104866,-3.5932,-8.55072,-0.0069,0.410881,
2,1,0,0,0,19044.3,0.415298,0.414967,0.253857,28,0.0300093,10,0.000105342,-3.59541,9.76036,0.00604486,0.414855,
2,1,0,1,0,19045.1,0.419293,0.418981,0.253894,28,0.0302232,10,0.000106377,-3.59535,-1.19324,-0.0494453,0.418869,
2,1,0,0,0,19045.9,0.423288,0.422951,0.253981,28,0.0304369,10,0.000107422,-3.5952,1.48462,0.0397409,0.422839,
2,1,0,1,0,19046.7,0.427283,0.427017,0.252919,28,0.0306504,10,0.000108001,-3.59702,-1.68447,-0.0350259,0.426905,
2,1,0,1,0,19047.5,0.431278,0.430965,0.253214,28,0.0308634,10,0.000109126,-3.59651,1.69162,0.0348778,0.430854,
2,1,0,1,0,19048.3,0.435273,0.434971,0.253324,28,0.0310765,10,0.000110189,-3.59632,-13.1374,-0.00449101,0.43486,
2,1,0,1,0,19049.1,0.439269,0.438951,0.253777,28,0.0312897,10,0.000111396,-3.59555,-11.932,-0.0049447,0.43884,
2,1,0,0,0,19049.9,0.443264,0.442971,0.252633,28,0.0315027,10,0.000111909,-3.59751,6.2532,0.00943517,0.44286,
2,1,0,1,0,19050.7,0.447259,0.446987,0.253216,28,0.0317155,10,0.000113184,-3.59651,-5.57397,-0.0105849,0.446876,
2,1,0,1,0,19051.5,0.451254,0.450954,0.253363,28,0.0319288,10,0.000114255,-3.59626,4.36071,0.0135299,0.450843,
2,1,0,1,0,19052.3,0.455249,0.454963,0.253072,28,0.0321416,10,0.000115138,-3.59676,13.0606,0.00451739,0.454852,
2,1,0,1,0,19053.1,0.459244,0.458972,0.252911,28,0.0323545,10,0.000116079,-3.59703,14.263,0.00413658,0.458861,
2,1,0,0,0,19053.9,0.46324,0.462927,0.253741,28,0.0325675,10,0.000117463,-3.59561,-16.1508,-0.00365308,0.462815,
2,1,0,1,0,19054.7,0.467235,0.46693,0.253355,28,0.0327805,10,0.000118299,-3.59627,2.13615,0.0276198,0.466819,
2,1,0,1,0,19055.5,0.471231,0.470936,0.2543,28,0.032994,10,0.000119759,-3.59465,-4.9976,-0.0118057,0.470824,
2,1,0,1,0,19056.3,0.475225,0.474931,0.254767,28,0.0332076,10,0.000120997,-3.59386,7.51652,0.00784938,0.474819,
2,1,0,1,0,19057.1,0.47922,0.478944,0.254632,28,0.0334214,10,0.000121955,-3.59409,-3.61521,-0.0163199,0.478832,
2,1,0,0,0,19057.9,0.483216,0.482915,0.255116,28,0.0336355,10,0.000123199,-3.59326,9.19129,0.00641912,0.482802,
2,1,0,1,0,19058.7,0.487211,0.486885,0.255825,28,0.0338497,10,0.000124557,-3.59206,0.763468,0.0772789,0.486772,
2,1,0,0,0,19059.5,0.491206,0.490946,0.255482,28,0.0340648,10,0.000125428,-3.59264,-10.1748,-0.00579866,0.490834,
2,1,0,1,0,19060.3,0.495201,0.494887,0.25728,28,0.0342802,10,0.000127324,-3.58959,3.33482,0.0176921,0.494774,
2,1,0,1,0,19061.1,0.499196,0.498885,0.257931,28,0.0344962,10,0.000128678,-3.5885,6.1903,0.00953103,0.498772,
2,1,0,1,0,19061.9,0.503191,0.502917,0.258676,28,0.0347128,10,0.000130093,-3.58724,10.3831,0.00568233,0.502803,
2,1,0,1,0,19062.7,0.507187,0.506859,0.259144,28,0.0349298,10,0.000131349,-3.58646,1.45662,0.0405048,0.506745,
2,1,0,0,0,19063.5,0.511182,0.510864,0.260041,28,0.0351477,10,0.000132845,-3.58496,3.84466,0.015346,0.510749,
2,1,0,1,0,19064.3,0.515177,0.514852,0.260899,28,0.0353665,10,0.000134325,-3.58353,2.01686,0.0292533,0.514737,
2,1,0,1,0,19065.1,0.519173,0.518866,0.263342,28,0.035586,10,0.000136639,-3.57948,1.13907,0.0517966,0.51875,
2,1,0,1,0,19065.9,0.523167,0.522885,0.263354,28,0.0358068,10,0.000137704,-3.57946,2.59215,0.022761,0.522769,
2,1,0,1,0,19066.7,0.527162,0.526846,0.265941,28,0.0360285,10,0.00014011,-3.57521,1.71966,0.0343091,0.526729,
2,1,0,0,0,19067.5,0.531158,0.530846,0.267278,28,0.0362515,10,0.000141884,-3.57304,1.28205,0.0460201,0.530728,
2,1,0,1,0,19068.3,0.535153,0.534814,0.269241,28,0.0364759,10,0.000143994,-3.56986,1.28099,0.046058,0.534696,
2,1,0,0,0,19069.1,0.539148,0.538849,0.270962,28,0.0367015,10,0.000146008,-3.56709,2.15458,0.0273835,0.53873,
2,1,0,1,0,19069.9,0.543143,0.542861,0.273058,28,0.0369289,10,0.000148233,-3.56374,1.00279,0.058836,0.542741,
2,1,0,1,0,19070.7,0.547138,0.546874,0.275089,28,0.0371582,10,0.000150439,-3.56053,1.11814,0.0527664,0.546753,
2,1,0,1,0,19071.5,0.551133,0.550833,0.278043,28,0.0373891,10,0.000153156,-3.55589,0.800107,0.0737401,0.550711,
2,1,0,1,0,19072.3,0.555129,0.554847,0.279974,28,0.0376223,10,0.000155343,-3.55288,0.931122,0.0633644,0.554724,
2,1,0,0,0,19073.1,0.559124,0.558831,0.283964,28,0.0378573,10,0.000158688,-3.54674,0.898956,0.0656317,0.558706,
2,1,0,1,0,19073.9,0.56312,0.56284,0.287361,28,0.0380951,10,0.000161738,-3.54157,0.669322,0.0881489,0.562714,
2,1,0,1,0,19074.7,0.567114,0.566815,0.291938,28,0.0383359,10,0.000165475,-3.53471,0.662288,0.0890851,0.566687,
2,1,0,1,0,19075.5,0.571109,0.570858,0.295604,28,0.0385797,10,0.000168748,-3.52929,0.625139,0.0943791,0.570728,
2,1,0,1,0,19076.3,0.575105,0.574814,0.30005,28,0.038827,10,0.000172473,-3.52281,0.617468,0.0955515,0.574682,
2,1,0,0,0,19077.1,0.5791,0.578862,0.304439,28,0.039078,10,0.000176228,-3.5165,0.519183,0.11364,0.578728,
2,1,0,1,0,19077.9,0.583095,0.582793,0.31038,28,0.0393331,10,0.000180887,-3.50811,0.475857,0.123987,0.582657,
2,1,0,1,0,19078.7,0.58709,0.58681,0.31627,28,0.0395932,10,0.000185591,-3.49994,0.403574,0.146194,0.586671,
2,1,0,1,0,19079.5,0.591085,0.590798,0.324251,28,0.0398585,10,0.000191567,-3.48912,0.398827,0.147934,0.590656,
2,1,0,1,0,19080.3,0.59508,0.594806,0.332242,28,0.0401299,10,0.00019762,-3.47855,0.344811,0.171108,0.59466,
2,1,0,0,0,19081.1,0.599076,0.598734,0.340622,28,0.0404083,10,0.000203942,-3.46773,0.341593,0.17272,0.598585,
2,1,0,1,0,19081.9,0.603071,0.602798,0.351719,28,0.0406943,10,0.000212015,-3.4538,0.282393,0.208928,0.602643,
2,1,0,0,0,19082.7,0.607066,0.606749,0.363738,28,0.0409896,10,0.000220697,-3.43921,0.261627,0.225512,0.606589,
2,1,0,1,0,19083.5,0.611061,0.610796,0.37777,28,0.0412955,10,0.00023074,-3.42277,0.240228,0.2456,0.61063,
2,1,0,1,0,19084.3,0.615056,0.614779,0.394437,28,0.0416134,10,0.000242492,-3.40402,0.187518,0.314637,0.614606,
2,1,0,1,0,19085.1,0.619051,0.618786,0.41341,28,0.0419461,10,0.000255812,-3.38362,0.179427,0.328825,0.618604,
2,1,0,1,0,19085.9,0.623047,0.622762,0.43704,28,0.0422953,10,0.000272172,-3.35948,0.165156,0.357239,0.62257,
2,1,0,0,0,19086.7,0.627042,0.626786,0.461814,28,0.0426636,10,0.000289459,-3.33553,0.156055,0.378073,0.626583,
2,1,0,1,0,19087.5,0.631037,0.630749,0.492648,28,0.0430543,10,0.000310737,-3.30746,0.135834,0.434353,0.630533,
2,1,0,1,0,19088.3,0.635032,0.634713,0.527649,28,0.0434708,10,0.000334906,-3.27766,0.130391,0.452486,0.634481,
2,1,0,1,0,19089.1,0.639027,0.638736,0.567615,28,0.0439176,10,0.000362556,-3.24595,0.115246,0.51195,0.638486,
2,1,0,1,0,19089.9,0.643022,0.642751,0.617784,28,0.0444006,10,0.000397081,-3.20916,0.108129,0.545645,0.64248,
2,1,0,0,0,19090.7,0.647018,0.646734,0.675416,28,0.0449265,10,0.000436815,-3.17043,0.0981089,0.601373,0.646437,
2,1,0,1,0,19091.5,0.651013,0.650743,0.741917,28,0.0455022,10,0.000482797,-3.12964,0.0921964,0.639938,0.650417,
2,1,0,1,0,19092.3,0.655008,0.654792,0.823048,28,0.0461369,10,0.000538925,-3.08457,0.0863042,0.683628,0.65443,
2,1,0,1,0,19093.1,0.659003,0.658729,0.915003,28,0.0468398,10,0.000602739,-3.03858,0.0848905,0.695013,0.658326,
2,1,0,1,0,19093.9,0.662998,0.662723,1.02338,28,0.0476228,10,0.000678215,-2.98996,0.0800169,0.737344,0.662273,
2,1,0,0,0,19094.7,0.666994,0.666711,1.14752,28,0.0484981,10,0.000765062,-2.94024,0.076908,0.76715,0.666206,
2,1,0,1,0,19095.5,0.670989,0.67075,1.29218,28,0.049481,10,0.000866727,-2.88868,0.0761746,0.774536,0.670181,
2,1,0,0,0,19096.3,0.674984,0.674659,1.45803,28,0.0505877,10,0.000983675,-2.83623,0.0745615,0.791293,0.674018,
2,1,0,1,0,19097.1,0.67898,0.678702,1.64565,28,0.0518355,10,0.00111691,-2.78366,0.0733162,0.804734,0.677978,
2,1,0,1,0,19097.9,0.682974,0.682675,1.86021,28,0.0532445,10,0.00126992,-2.73044,0.0727791,0.810672,0.681856,
2,1,0,1,0,19098.7,0.686969,0.68672,2.10135,28,0.0548351,10,0.00144304,-2.6775,0.0749078,0.787635,0.685796,
2,1,0,1,0,19099.5,0.690965,0.690724,2.36966,28,0.0566294,10,0.00163678,-2.62531,0.0740913,0.796315,0.689681,
2,1,0,0,0,19100.3,0.69496,0.694661,2.66704,28,0.05865,10,0.00185269,-2.57397,0.0769867,0.766366,0.693487,
2,1,0,1,0,19101.1,0.698955,0.698661,2.99533,28,0.0609202,10,0.00209272,-2.52356,0.0770805,0.765433,0.697343,
2,1,0,1,0,19101.9,0.70295,0.702671,3.35241,28,0.0634641,10,0.00235564,-2.47464,0.0790089,0.746752,0.701196,
2,1,0,1,0,19102.7,0.706945,0.706669,3.74202,28,0.066306,10,0.00264437,-2.42689,0.080784,0.730343,0.705022,
2,1,0,1,0,19103.5,0.71094,0.710672,4.1598,28,0.0694707,10,0.00295626,-2.38093,0.0838484,0.703651,0.708842,
2,1,0,0,0,19104.3,0.714936,0.714687,4.60786,28,0.0729824,10,0.00329317,-2.3365,0.0865183,0.681937,0.712659,
2,1,0,1,0,19105.1,0.718931,0.718675,5.08878,28,0.0768643,10,0.00365717,-2.29339,0.0898382,0.656736,0.716436,
2,1,0,1,0,19105.9,0.722927,0.722656,5.59476,28,0.0811413,10,0.00404309,-2.25222,0.0943562,0.62529,0.720195,
2,1,0,1,0,19106.7,0.726921,0.726658,6.13195,28,0.0858349,10,0.00445583,-2.2124,0.0941739,0.626501,0.723959,
2,1,0,1,0,19107.5,0.730916,0.730656,6.69652,28,0.0909681,10,0.00489285,-2.17415,0.102083,0.57796,0.72771,
2,1,0,1,0,19108.3,0.734911,0.734623,7.28844,28,0.0965641,10,0.00535425,-2.13737,0.102396,0.576196,0.731416,
2,1,0,1,0,19109.1,0.738907,0.738681,7.90859,28,0.102645,10,0.00584192,-2.1019,0.10625,0.555296,0.735201,
2,1,0,0,0,19109.9,0.742902,0.742619,8.55377,28,0.10923,10,0.00635219,-2.06784,0.110793,0.532523,0.738855,
2,1,0,1,0,19110.7,0.746897,0.746616,9.2271,28,0.116344,10,0.0068891,-2.03493,0.113867,0.518147,0.742556,
2,1,0,1,0,19111.5,0.750892,0.750614,9.92631,28,0.124004,10,0.00745083,-2.00321,0.118789,0.496679,0.746247,
2,1,0,1,0,19112.3,0.754887,0.754576,10.6561,28,0.132236,10,0.00804082,-1.9724,0.119633,0.493175,0.749887,
2,1,0,1,0,19113.1,0.758883,0.758631,11.4212,28,0.141066,10,0.00866451,-1.94229,0.124125,0.475328,0.753606,
2,1,0,0,0,19113.9,0.762878,0.7626,12.2208,28,0.150518,10,0.00931955,-1.9129,0.123335,0.478372,0.757223,
2,1,0,1,0,19114.7,0.766873,0.766602,13.068,28,0.160629,10,0.010018,-1.88379,0.125639,0.469598,0.760852,
2,1,0,1,0,19115.5,0.770868,0.770634,13.9675,28,0.17144,10,0.0107639,-1.85488,0.124092,0.475454,0.764488,
2,1,0,1,0,19116.3,0.774863,0.774578,14.9192,28,0.182988,10,0.0115561,-1.82626,0.124505,0.473876,0.768014,
2,1,0,1,0,19117.1,0.778858,0.778613,15.935,28,0.195322,10,0.0124072,-1.79765,0.125196,0.471263,0.771602,
2,1,0,0,0,19117.9,0.782854,0.782591,16.991,28,0.208485,10,0.013297,-1.76978,0.128761,0.458213,0.775115,
2,1,0,1,0,19118.7,0.786849,0.786587,18.1052,28,0.222516,10,0.0142414,-1.7422,0.123353,0.478304,0.778621,
2,1,0,0,0,19119.5,0.790844,0.790562,19.2867,28,0.237467,10,0.0152473,-1.71474,0.127514,0.462693,0.782076,
2,1,0,1,0,19120.3,0.794839,0.794528,20.5176,28,0.253381,10,0.0163018,-1.68787,0.131621,0.448256,0.7855,
2,1,0,1,0,19121.1,0.798834,0.798538,21.7918,28,0.270292,10,0.0174016,-1.66171,0.133898,0.440635,0.78895,
2,1,0,1,0,19121.9,0.802829,0.802574,23.1088,28,0.288229,10,0.0185465,-1.63622,0.133029,0.443512,0.792406,
2,1,0,1,0,19122.7,0.806825,0.806562,24.4917,28,0.307257,10,0.0197541,-1.61098,0.135976,0.4339,0.795786,
2,1,0,0,0,19123.5,0.81082,0.810576,25.8787,28,0.327394,10,0.0209766,-1.58706,0.144962,0.407004,0.799189,
2,1,0,1,0,19124.3,0.814815,0.814528,27.3092,28,0.348653,10,0.0222441,-1.56369,0.141888,0.415821,0.802511,
2,1,0,1,0,19125,0.81881,0.818541,28.801,28,0.371078,10,0.0235748,-1.54059,0.147262,0.400647,0.805868,
2,1,0,1,0,19125.8,0.822805,0.822561,30.3402,28,0.394711,10,0.0249567,-1.51798,0.148021,0.398592,0.809212,
2,1,0,1,0,19126.6,0.826801,0.82654,31.9214,28,0.4196,10,0.0263844,-1.49592,0.157145,0.375449,0.812495,
2,1,0,0,0,19127.4,0.830796,0.830534,33.467,28,0.445732,10,0.0277954,-1.47538,0.170522,0.345997,0.815808,
2,1,0,1,0,19128.2,0.834791,0.834557,34.9271,28,0.473064,10,0.0291486,-1.45684,0.180171,0.327467,0.819189,
2,1,0,1,0,19129,0.838786,0.838519,36.4363,28,0.501574,10,0.0305526,-1.43847,0.176777,0.333754,0.822487,
2,1,0,1,0,19129.8,0.842781,0.842562,38.0482,28,0.531354,10,0.032058,-1.41967,0.192623,0.306298,0.825821,
2,1,0,1,0,19130.6,0.846776,0.846553,39.5598,28,0.562364,10,0.0334895,-1.40275,0.20065,0.294045,0.829147,
2,1,0,1,0,19131.3,0.849723,0.849465,40.4822,28,0.590474,10,0.0343882,-1.39274,0.0504348,1.16983,0.831653,
2,1,0,0,0,19132.1,0.845728,0.845445,38.2482,28,0.621827,10,0.0323367,-1.41739,0.147356,0.400391,0.828616,
2,1,0,1,0,19132.9,0.841732,0.841493,36.3943,28,0.651626,10,0.0306256,-1.43897,0.144783,0.407507,0.82548,
2,1,0,1,0,19133.7,0.837737,0.837481,34.5729,28,0.679967,10,0.0289542,-1.46126,0.148033,0.39856,0.822269,
2,1,0,1,0,19134.5,0.833742,0.833496,32.8876,28,0.706904,10,0.0274117,-1.48297,0.145299,0.40606,0.819025,
2,1,0,1,0,19135.3,0.829747,0.829478,31.2262,28,0.732496,10,0.0259015,-1.50548,0.146893,0.401653,0.815738,
2,1,0,0,0,19136.1,0.825752,0.825507,29.6035,28,0.756787,10,0.0244379,-1.52866,0.131235,0.449574,0.812481,
2,1,0,1,0,19136.9,0.821757,0.821498,27.9811,28,0.779753,10,0.0229864,-1.55314,0.138235,0.42681,0.809186,
2,1,0,1,0,19137.7,0.817761,0.817531,25.2454,28,0.801387,10,0.0206389,-1.59782,0.0617288,0.955794,0.806423,
2,1,0,1,0,19138.5,0.813766,0.813495,23.8547,28,0.820967,10,0.0194057,-1.62243,0.143852,0.410143,0.802999,
2,1,0,1,0,19139.3,0.809771,0.80953,22.5342,28,0.839493,10,0.0182421,-1.64716,0.133557,0.441758,0.799614,
2,1,0,1,0,19140.1,0.805776,0.80548,21.232,28,0.85696,10,0.0171019,-1.67301,0.133837,0.440834,0.796138,
2,1,0,1,0,19140.9,0.801781,0.801504,19.9778,28,0.873415,10,0.0160123,-1.69945,0.127584,0.46244,0.792714,
2,1,0,0,0,19141.7,0.797786,0.797545,18.7387,28,0.888869,10,0.014945,-1.72726,0.119965,0.49181,0.7893,
2,1,0,1,0,19142.5,0.79379,0.793544,17.5546,28,0.903358,10,0.0139304,-1.75561,0.122659,0.481009,0.78582,
2,1,0,1,0,19143.3,0.789795,0.789532,16.4163,28,0.916914,10,0.0129612,-1.78472,0.116843,0.504953,0.782309,
2,1,0,1,0,19144.1,0.7858,0.785541,15.334,28,0.929581,10,0.0120455,-1.81434,0.119528,0.493608,0.778794,
2,1,0,1,0,19144.9,0.781805,0.78154,14.2943,28,0.941404,10,0.0111716,-1.84484,0.116576,0.506109,0.77525,
2,1,0,0,0,19145.7,0.77781,0.777568,13.3262,28,0.952423,10,0.010362,-1.87529,0.115327,0.51159,0.771704,
2,1,0,1,0,19146.5,0.773815,0.773556,12.5042,28,0.962709,10,0.00967272,-1.90294,0.130641,0.451621,0.768054,
2,1,0,1,0,19147.3,0.769819,0.769558,11.6039,28,0.972331,10,0.0089299,-1.9354,0.109184,0.540372,0.764452,
2,1,0,1,0,19148.1,0.765824,0.765606,10.7359,28,0.981241,10,0.00821944,-1.96916,0.105669,0.558348,0.760883,
2,1,0,1,0,19148.9,0.761829,0.761593,9.90477,28,0.989475,10,0.0075434,-2.00416,0.102264,0.576941,0.757235,
2,1,0,0,0,19149.7,0.757834,0.757556,9.11725,28,0.997062,10,0.00690683,-2.04014,0.100973,0.584313,0.753544,
2,1,0,1,0,19150.5,0.753839,0.753597,8.38198,28,1.00404,10,0.00631664,-2.07665,0.099016,0.595864,0.749909,
2,1,0,0,0,19151.3,0.749844,0.749579,7.68811,28,1.01045,10,0.00576285,-2.11418,0.0971377,0.607385,0.746197,
2,1,0,1,0,19152.1,0.745848,0.745608,7.0242,28,1.01632,10,0.0052373,-2.1534,0.09419,0.626394,0.742517,
2,1,0,1,0,19152.9,0.741853,0.74157,6.41591,28,1.02167,10,0.00475785,-2.19274,0.0927967,0.635799,0.738747,
2,1,0,1,0,19153.7,0.737858,0.737614,5.84401,28,1.02656,10,0.00431062,-2.23329,0.0914863,0.644905,0.735043,
2,1,0,1,0,19154.5,0.733863,0.733603,5.30459,28,1.031,10,0.00389147,-2.27535,0.0882052,0.668895,0.731269,
2,1,0,0,0,19155.3,0.729868,0.729607,4.79816,28,1.03502,10,0.00350077,-2.31893,0.0847293,0.696335,0.727495,
2,1,0,1,0,19156.1,0.725872,0.725623,4.32595,28,1.03866,10,0.00313901,-2.36392,0.083153,0.709535,0.72372,
2,1,0,1,0,19156.9,0.721877,0.721575,3.88414,28,1.04192,10,0.0028027,-2.4107,0.0799662,0.737812,0.719866,
2,1,0,1,0,19157.7,0.717882,0.717608,3.47703,28,1.04485,10,0.00249514,-2.45879,0.0783739,0.752802,0.716078,
2,1,0,1,0,19158.5,0.713887,0.713627,3.09898,28,1.04747,10,0.00221152,-2.50878,0.075492,0.78154,0.712264,
2,1,0,0,0,19159.3,0.709892,0.709688,2.75262,28,1.0498,10,0.0019535,-2.56025,0.073476,0.802984,0.708477,
2,1,0,1,0,19160.1,0.705897,0.705631,2.43423,28,1.05186,10,0.00171767,-2.61364,0.0700013,0.842842,0.70456,
2,1,0,1,0,19160.9,0.701901,0.70163,2.14148,28,1.05367,10,0.00150253,-2.66929,0.0689948,0.855137,0.700688,
2,1,0,1,0,19161.7,0.697906,0.697631,1.87383,28,1.05526,10,0.00130724,-2.72727,0.0651284,0.905903,0.696807,
2,1,0,1,0,19162.5,0.693911,0.693652,1.63009,28,1.05665,10,0.00113072,-2.78779,0.0635456,0.928467,0.692934,
2,1,0,0,0,19163.3,0.689916,0.689641,1.41047,28,1.05786,10,0.000972715,-2.85064,0.0603047,0.978365,0.68902,
2,1,0,1,0,19164.1,0.685921,0.685648,1.21241,28,1.05889,10,0.000831285,-2.91635,0.0593716,0.993741,0.685115,
2,1,0,0,0,19164.9,0.681926,0.681667,1.03707,28,1.05978,10,0.000706936,-2.98419,0.0554955,1.06315,0.68121,
2,1,0,1,0,19165.7,0.67793,0.677631,0.880615,28,1.06054,10,0.000596732,-3.05521,0.0548688,1.07529,0.677244,
2,1,0,1,0,19166.5,0.673935,0.673701,0.741337,28,1.06118,10,0.00049944,-3.12998,0.0521121,1.13218,0.673375,
2,1,0,1,0,19167.3,0.66994,0.669676,0.620717,28,1.06171,10,0.000415679,-3.20711,0.0489868,1.20441,0.669403,
2,1,0,1,0,19168.1,0.665945,0.6657,0.515049,28,1.06215,10,0.000342868,-3.28815,0.0479225,1.23115,0.665473,
2,1,0,0,0,19168.9,0.66195,0.661666,0.423461,28,1.06252,10,0.00028019,-3.37319,0.0447029,1.31982,0.66148,
2,1,0,1,0,19169.7,0.657955,0.657726,0.343224,28,1.06281,10,0.000225747,-3.46442,0.0435524,1.35469,0.657575,
2,1,0,1,0,19170.5,0.653959,0.653662,0.27556,28,1.06305,10,0.000180123,-3.55978,0.040112,1.47088,0.653541,
2,1,0,1,0,19171.3,0.649964,0.649742,0.219015,28,1.06324,10,0.000142303,-3.65953,0.0378905,1.55712,0.649646,
2,1,0,1,0,19172.1,0.64597,0.645699,0.170526,28,1.06338,10,0.000110108,-3.76821,0.0337121,1.75011,0.645624,
2,1,0,0,0,19172.9,0.641974,0.641687,0.127401,28,1.06349,10,8.17518e-05,-3.89483,0.0303908,1.94138,0.641631,
2,1,0,1,0,19173.7,0.637979,0.637731,0.0925168,28,1.06357,10,5.90008e-05,-4.03378,0.0269199,2.19169,0.63769,
2,1,0,1,0,19174.5,0.633983,0.633678,0.0626542,28,1.06362,10,3.97026e-05,-4.20305,0.0211346,2.79163,0.63365,
2,1,0,1,0,19175.3,0.629988,0.629722,0.037272,28,1.06365,10,2.3471e-05,-4.42862,0.0145476,4.05564,0.629705,
2,1,0,1,0,19176.1,0.625993,0.625696,0.0168788,28,1.06367,10,1.0561e-05,-4.77266,0.00693817,8.50369,0.625689,
2,1,0,0,0,19176.9,0.621998,0.621741,-0.000390963,28,1.06366,10,-2.43078e-07,-6.40786,-0.0673045,-0.876613,0.621741,
2,1,0,1,0,19177.7,0.618003,0.617692,-0.0137918,28,1.06365,10,-8.51909e-06,-4.86038,-0.00899439,-6.55965,0.617698,
2,0,0,0,0,19178.5,0.614008,0.613702,-0.0268717,28,1.06362,10,-1.64912e-05,-4.57071,-0.0268282,-2.19918,0.613714,
2,0,0,1,0,19179.3,0.610012,0.609738,-0.0370967,28,1.06359,10,-2.26192e-05,-4.43067,-0.0370575,-1.59212,0.609754,
2,0,0,1,0,19180.1,0.606017,0.60573,-0.044641,28,1.06354,10,-2.70404e-05,-4.35027,-0.0492388,-1.19824,0.605749,
2,0,0,1,0,19180.9,0.602022,0.601747,-0.0525427,28,1.0635,10,-3.16174e-05,-4.27949,-0.0759204,-0.77713,0.60177,
2,0,0,1,0,19181.7,0.598027,0.597758,-0.0586365,28,1.06344,10,-3.50504e-05,-4.23183,-0.0800125,-0.737385,0.597784,
2,0,0,0,0,19182.5,0.594032,0.593739,-0.0634892,28,1.06338,10,-3.7696e-05,-4.1973,-0.162825,-0.362353,0.593767,
2,0,0,1,0,19183.3,0.590037,0.589744,-0.0677309,28,1.06332,10,-3.99439e-05,-4.16921,-0.141674,-0.41645,0.589774,
2,0,0,1,0,19184.1,0.586041,0.585771,-0.071934,28,1.06326,10,-4.21368e-05,-4.14307,-0.159458,-0.370003,0.585802,
2,0,0,1,0,19184.9,0.582046,0.581767,-0.0753717,28,1.06319,10,-4.38488e-05,-4.12279,-0.4798,-0.122968,0.5818,
2,0,0,1,0,19185.7,0.578052,0.577775,-0.0779544,28,1.06312,10,-4.50401e-05,-4.10816,-0.145987,-0.404146,0.577809,
2,0,0,0,0,19186.5,0.574056,0.573767,-0.0802468,28,1.06304,10,-4.6043e-05,-4.09557,-0.347091,-0.169984,0.573802,
2,0,0,1,0,19187.3,0.570061,0.569769,-0.0835698,28,1.06297,10,-4.76155e-05,-4.07795,-0.361275,-0.16331,0.569806,
2,0,0,1,0,19188.1,0.566065,0.565785,-0.0855924,28,1.06289,10,-4.84269e-05,-4.06757,-0.396159,-0.14893,0.565823,
2,0,0,1,0,19188.9,0.56207,0.561813,-0.0876559,28,1.06281,10,-4.92462e-05,-4.05722,-0.480879,-0.122692,0.561852,
2,0,0,1,0,19189.7,0.558075,0.557739,-0.0885959,28,1.06273,10,-4.94134e-05,-4.05259,-0.568385,-0.103803,0.557778,
2,0,0,1,0,19190.5,0.55408,0.553775,-0.0902728,28,1.06265,10,-4.99908e-05,-4.04444,-0.579726,-0.101772,0.553814,
2,0,0,1,0,19191.3,0.550085,0.549816,-0.0917573,28,1.06257,10,-5.04496e-05,-4.03736,-0.774738,-0.0761547,0.549856,
2,0,0,0,0,19192.1,0.54609,0.545783,-0.0926053,28,1.06249,10,-5.05424e-05,-4.03336,-0.774285,-0.0761994,0.545824,
2,0,0,1,0,19192.9,0.542094,0.541751,-0.0934958,28,1.0624,10,-5.06514e-05,-4.02921,-0.498458,-0.118365,0.541792,
2,0,0,1,0,19193.7,0.538099,0.537794,-0.0961912,28,1.06232,10,-5.17311e-05,-4.01686,-4.90261,-0.0120344,0.537836,
2,0,0,1,0,19194.5,0.534104,0.533813,-0.0963297,28,1.06223,10,-5.14221e-05,-4.01624,-0.362046,-0.162963,0.533856,
2,0,0,1,0,19195.3,0.530109,0.529811,-0.0966306,28,1.06214,10,-5.11959e-05,-4.01489,-0.809859,-0.0728522,0.529854,
2,0,0,0,0,19196.1,0.526114,0.525812,-0.0993543,28,1.06206,10,-5.22417e-05,-4.00281,-0.631057,-0.093494,0.525856,
2,0,0,1,0,19196.9,0.522119,0.521849,-0.099263,28,1.06197,10,-5.18003e-05,-4.00321,-1.54987,-0.0380676,0.521892,
2,0,0,1,0,19197.7,0.518123,0.517846,-0.10087,28,1.06188,10,-5.22353e-05,-3.99624,-8.48791,-0.00695106,0.51789,
2,0,0,1,0,19198.5,0.514128,0.513867,-0.101747,28,1.06178,10,-5.22846e-05,-3.99248,-0.458223,-0.128758,0.513912,
2,0,0,1,0,19199.3,0.510133,0.509866,-0.102425,28,1.06169,10,-5.22233e-05,-3.98959,-0.814288,-0.072456,0.509911,
2,0,0,0,0,19200.1,0.506138,0.505802,-0.104409,28,1.0616,10,-5.28102e-05,-3.98126,-1.06471,-0.055414,0.505848,
2,0,0,1,0,19200.9,0.502143,0.501862,-0.105538,28,1.06151,10,-5.29655e-05,-3.97659,-0.651203,-0.0906016,0.501908,
2,0,0,0,0,19201.7,0.498148,0.497814,-0.107363,28,1.06141,10,-5.34468e-05,-3.96915,-0.786761,-0.074991,0.497862,
2,0,0,1,0,19202.5,0.494152,0.493843,-0.107062,28,1.06132,10,-5.2872e-05,-3.97036,-18.3509,-0.0032151,0.49389,
2,0,0,1,0,19203.3,0.490157,0.48987,-0.108349,28,1.06122,10,-5.30768e-05,-3.96518,-0.987511,-0.0597462,0.489917,
2,0,0,1,0,19204.1,0.486162,0.485841,-0.109995,28,1.06112,10,-5.344e-05,-3.95863,-0.786065,-0.0750574,0.485889,
2,0,0,1,0,19204.9,0.482167,0.481812,-0.110564,28,1.06102,10,-5.32712e-05,-3.95638,-0.802585,-0.0735124,0.48186,
2,0,0,0,0,19205.7,0.478172,0.477847,-0.11127,28,1.06092,10,-5.31698e-05,-3.95362,-0.767347,-0.0768883,0.477896,
2,0,0,1,0,19206.5,0.474177,0.473876,-0.113851,28,1.06082,10,-5.39514e-05,-3.94366,-1.54685,-0.0381421,0.473926,
2,0,0,1,0,19207.3,0.470181,0.469854,-0.115777,28,1.06072,10,-5.43984e-05,-3.93638,-0.394108,-0.149705,0.469905,
2,0,0,1,0,19208,0.466186,0.465889,-0.117414,28,1.06062,10,-5.4702e-05,-3.93028,-0.734262,-0.0803528,0.465941,
2,0,0,1,0,19208.8,0.462191,0.46186,-0.11826,28,1.06051,10,-5.46194e-05,-3.92716,-0.474526,-0.124335,0.461912,
2,0,0,0,0,19209.6,0.458196,0.457953,-0.120339,28,1.06041,10,-5.51095e-05,-3.91959,-1.57061,-0.0375651,0.458006,
2,0,0,1,0,19210.4,0.454201,0.453892,-0.121349,28,1.0603,10,-5.50794e-05,-3.91596,-0.654973,-0.09008,0.453946,
2,0,0,1,0,19211.2,0.450205,0.449917,-0.123961,28,1.06019,10,-5.5772e-05,-3.90672,-0.710703,-0.0830164,0.449971,
2,0,0,1,0,19212,0.44621,0.445926,-0.124678,28,1.06008,10,-5.5597e-05,-3.90421,-0.702837,-0.0839455,0.445981,
2,0,0,1,0,19212.8,0.442215,0.441942,-0.126711,28,1.05997,10,-5.59987e-05,-3.89719,-1.48823,-0.0396444,0.441997,
2,0,0,0,0,19213.6,0.43822,0.437926,-0.127167,28,1.05986,10,-5.56899e-05,-3.89562,-0.521138,-0.113214,0.437982,
2,0,0,1,0,19214.4,0.434225,0.433934,-0.128943,28,1.05975,10,-5.59528e-05,-3.8896,-0.573983,-0.102791,0.433991,
2,0,0,0,0,19215.2,0.43023,0.429898,-0.131829,28,1.05963,10,-5.66728e-05,-3.87999,-0.787815,-0.0748907,0.429956,
2,0,0,1,0,19216,0.426234,0.425895,-0.133646,28,1.05951,10,-5.69192e-05,-3.87404,-0.567388,-0.103985,0.425954,
2,0,0,1,0,19216.8,0.422239,0.421949,-0.135515,28,1.0594,10,-5.71804e-05,-3.86801,-0.615885,-0.0957972,0.422009,
2,0,0,1,0,19217.6,0.418244,0.41795,-0.137833,28,1.05928,10,-5.76075e-05,-3.86065,-0.67415,-0.0875176,0.418011,
2,0,0,1,0,19218.4,0.414249,0.413997,-0.138447,28,1.05915,10,-5.73165e-05,-3.85872,-0.586362,-0.100621,0.414058,
2,0,0,0,0,19219.2,0.410254,0.409942,-0.141039,28,1.05903,10,-5.78179e-05,-3.85066,-1.44244,-0.0409028,0.410004,
2,0,0,1,0,19220,0.406259,0.405972,-0.141752,28,1.05891,10,-5.75475e-05,-3.84847,-0.400472,-0.147326,0.406034,
2,0,0,1,0,19220.8,0.402263,0.401974,-0.14468,28,1.05878,10,-5.81576e-05,-3.83959,-2.02482,-0.0291383,0.402037,
2,0,0,1,0,19221.6,0.398268,0.397931,-0.147266,28,1.05865,10,-5.86017e-05,-3.8319,-0.37042,-0.159279,0.397995,
2,0,0,1,0,19222.4,0.394274,0.393954,-0.15019,28,1.05852,10,-5.91682e-05,-3.82336,-1.01003,-0.0584139,0.39402,
2,0,0,0,0,19223.2,0.390278,0.389972,-0.151656,28,1.05839,10,-5.91417e-05,-3.81914,-0.79512,-0.0742026,0.390039,
2,0,0,1,0,19224,0.386283,0.385974,-0.154439,28,1.05826,10,-5.96094e-05,-3.81124,-0.361772,-0.163086,0.386042,
2,0,0,1,0,19224.8,0.382287,0.381979,-0.155186,28,1.05812,10,-5.9278e-05,-3.80915,-1.21454,-0.048578,0.382048,
2,0,0,1,0,19225.6,0.378292,0.378011,-0.157619,28,1.05799,10,-5.95818e-05,-3.80239,-1.54864,-0.038098,0.37808,
2,0,0,1,0,19226.4,0.374297,0.373976,-0.160069,28,1.05785,10,-5.98621e-05,-3.79569,-0.422348,-0.139695,0.374046,
2,0,0,1,0,19227.2,0.370303,0.36999,-0.162826,28,1.05771,10,-6.02441e-05,-3.78828,-0.745631,-0.0791276,0.370062,
2,0,0,1,0,19228,0.366307,0.365969,-0.164509,28,1.05757,10,-6.02053e-05,-3.78381,-0.694332,-0.0849737,0.366041,
2,0,0,0,0,19228.8,0.362312,0.362028,-0.16657,28,1.05742,10,-6.03032e-05,-3.7784,-0.49631,-0.118877,0.362102,
2,0,0,1,0,19229.6,0.358316,0.358043,-0.169414,28,1.05728,10,-6.06574e-05,-3.77105,-0.671726,-0.0878334,0.358117,
2,0,0,1,0,19230.4,0.354321,0.354042,-0.170969,28,1.05713,10,-6.05302e-05,-3.76708,-1.1158,-0.0528769,0.354118,
2,0,0,1,0,19231.2,0.350327,0.350039,-0.173178,28,1.05698,10,-6.06191e-05,-3.76151,-0.927055,-0.0636424,0.350115,
2,0,0,1,0,19232,0.346331,0.346026,-0.175759,28,1.05683,10,-6.08172e-05,-3.75508,-1.53015,-0.0385582,0.346103,
2,0,0,0,0,19232.8,0.342336,0.342036,-0.178922,28,1.05668,10,-6.11977e-05,-3.74734,-0.325376,-0.181329,0.342115,
2,0,0,1,0,19233.6,0.338341,0.338036,-0.180822,28,1.05652,10,-6.11243e-05,-3.74275,-0.869403,-0.0678627,0.338115,
2,0,0,1,0,19234.4,0.334345,0.334061,-0.183209,28,1.05636,10,-6.12029e-05,-3.73705,-0.87465,-0.0674556,0.334141,
2,0,0,1,0,19235.2,0.33035,0.330043,-0.185564,28,1.0562,10,-6.1244e-05,-3.73151,-0.60934,-0.0968261,0.330125,
2,0,0,1,0,19236,0.326355,0.326075,-0.187238,28,1.05604,10,-6.10536e-05,-3.72761,-0.678915,-0.0869034,0.326157,
2,0,0,0,0,19236.8,0.32236,0.322049,-0.189871,28,1.05588,10,-6.11478e-05,-3.72154,-0.789769,-0.0747054,0.322132,
2,0,0,1,0,19237.6,0.318365,0.318052,-0.192135,28,1.05571,10,-6.11091e-05,-3.71639,-0.61421,-0.0960583,0.318137,
2,0,0,0,0,19238.4,0.31437,0.314051,-0.1955,28,1.05555,10,-6.1397e-05,-3.70885,-1.86144,-0.031696,0.314137,
2,0,0,1,0,19239.2,0.310374,0.3101,-0.198493,28,1.05538,10,-6.15528e-05,-3.70225,-0.593782,-0.0993631,0.310187,
2,0,0,1,0,19240,0.306379,0.30609,-0.200425,28,1.0552,10,-6.13479e-05,-3.69805,-0.480176,-0.122871,0.306178,
2,0,0,1,0,19240.8,0.302385,0.302063,-0.203855,28,1.05503,10,-6.1577e-05,-3.69068,-0.795391,-0.0741774,0.302153,
2,0,0,1,0,19241.6,0.298389,0.29809,-0.205388,28,1.05486,10,-6.1224e-05,-3.68743,-0.615889,-0.0957964,0.29818,
2,0,0,0,0,19242.4,0.294394,0.294105,-0.207835,28,1.05468,10,-6.11252e-05,-3.68228,-1.34954,-0.0437185,0.294196,
2,0,0,1,0,19243.2,0.290398,0.290099,-0.210543,28,1.0545,10,-6.10783e-05,-3.67666,-0.446504,-0.132138,0.290191,
2,0,0,1,0,19244,0.286403,0.286107,-0.212305,28,1.05431,10,-6.0742e-05,-3.67304,-0.751956,-0.078462,0.286201,
2,0,0,1,0,19244.8,0.282408,0.282068,-0.216562,28,1.05413,10,-6.10853e-05,-3.66442,4.37236,0.0134939,0.282164,
2,0,0,1,0,19245.6,0.278414,0.27812,-0.219327,28,1.05394,10,-6.09992e-05,-3.65891,-0.353281,-0.167006,0.278216,
2,0,0,0,0,19246.4,0.274418,0.274125,-0.221705,28,1.05375,10,-6.07749e-05,-3.65422,-0.870032,-0.0678136,0.274222,
2,0,0,1,0,19247.2,0.270423,0.270143,-0.225289,28,1.05356,10,-6.08602e-05,-3.64726,-0.587964,-0.100346,0.270242,
2,0,0,1,0,19248,0.266427,0.266129,-0.228141,28,1.05337,10,-6.0715e-05,-3.6418,-0.6617,-0.0891643,0.266229,
2,0,0,1,0,19248.8,0.262432,0.262091,-0.230344,28,1.05317,10,-6.03713e-05,-3.63762,-1.23639,-0.0477197,0.262193,
2,0,0,1,0,19249.6,0.258437,0.25813,-0.234448,28,1.05298,10,-6.0518e-05,-3.62995,-1.02699,-0.0574496,0.258233,
2,0,0,0,0,19250.4,0.254442,0.254138,-0.235356,28,1.05278,10,-5.9813e-05,-3.62827,-0.630981,-0.0935052,0.254242,
2,0,0,1,0,19251.2,0.250447,0.250144,-0.239376,28,1.05257,10,-5.98783e-05,-3.62092,-1.88589,-0.031285,0.250249,
2,0,0,0,0,19252,0.246452,0.24613,-0.240727,28,1.05237,10,-5.92503e-05,-3.61847,-0.526369,-0.112089,0.246236,
2,0,0,1,0,19252.8,0.242456,0.242134,-0.243867,28,1.05216,10,-5.90485e-05,-3.61285,-1.50196,-0.0392819,0.242241,
2,0,0,1,0,19253.6,0.238461,0.238141,-0.24629,28,1.05196,10,-5.86517e-05,-3.60855,-0.728375,-0.0810022,0.238249,
2,0,0,1,0,19254.4,0.234467,0.234189,-0.247961,28,1.05175,10,-5.80697e-05,-3.60562,-1.13721,-0.0518815,0.234298,
2,0,0,1,0,19255.2,0.230471,0.230176,-0.250951,28,1.05153,10,-5.77629e-05,-3.60041,-0.790397,-0.0746461,0.230287,
2,0,0,0,0,19256,0.226476,0.226166,-0.253966,28,1.05132,10,-5.74384e-05,-3.59522,-0.961927,-0.0613352,0.226278,
2,0,0,1,0,19256.8,0.222481,0.22217,-0.255098,28,1.0511,10,-5.66751e-05,-3.59329,-0.755185,-0.0781265,0.222282,
2,0,0,1,0,19257.6,0.218485,0.218163,-0.259555,28,1.05089,10,-5.66252e-05,-3.58577,-2.59555,-0.0227312,0.218277,
2,0,0,1,0,19258.4,0.21449,0.214163,-0.262237,28,1.05066,10,-5.61615e-05,-3.58131,-0.565677,-0.1043,0.214279,
2,0,0,1,0,19259.2,0.210496,0.210198,-0.265668,28,1.05044,10,-5.58428e-05,-3.57566,-0.764218,-0.0772031,0.210315,
2,0,0,0,0,19260,0.2065,0.206193,-0.269505,28,1.05022,10,-5.557e-05,-3.56943,-0.763694,-0.0772561,0.206312,
2,0,0,1,0,19260.8,0.202505,0.202176,-0.271445,28,1.04999,10,-5.48798e-05,-3.56632,-0.712215,-0.0828402,0.202296,
2,0,0,1,0,19261.6,0.198509,0.198145,-0.275344,28,1.04976,10,-5.45581e-05,-3.56012,-0.699629,-0.0843304,0.198266,
2,0,0,1,0,19262.4,0.194514,0.194163,-0.278402,28,1.04952,10,-5.40553e-05,-3.55533,-0.525148,-0.112349,0.194285,
2,0,0,1,0,19263.2,0.190519,0.190174,-0.282979,28,1.04928,10,-5.38153e-05,-3.54825,-0.671564,-0.0878546,0.190298,
2,0,0,0,0,19264,0.186524,0.186205,-0.288516,28,1.04904,10,-5.37233e-05,-3.53983,-0.612046,-0.096398,0.186332,
2,0,0,1,0,19264.8,0.182529,0.182215,-0.294363,28,1.0488,10,-5.36374e-05,-3.53112,-0.382009,-0.154447,0.182345,
2,0,0,0,0,19265.6,0.178534,0.178167,-0.300716,28,1.04855,10,-5.35775e-05,-3.52184,-0.369552,-0.159653,0.178299,
2,0,0,1,0,19266.4,0.174538,0.174229,-0.3081,28,1.04829,10,-5.368e-05,-3.51131,-0.357292,-0.165131,0.174365,
2,0,0,1,0,19267.2,0.170543,0.17021,-0.316498,28,1.04803,10,-5.38711e-05,-3.49963,-0.27505,-0.214506,0.17035,
2,0,0,1,0,19268,0.166549,0.166232,-0.327566,28,1.04776,10,-5.44519e-05,-3.4847,-0.305451,-0.193157,0.166376,
2,0,0,1,0,19268.8,0.162553,0.162252,-0.341017,28,1.04748,10,-5.53307e-05,-3.46722,-0.207487,-0.284356,0.162402,
2,0,0,0,0,19269.6,0.158558,0.158244,-0.356912,28,1.04718,10,-5.6479e-05,-3.44744,-0.162534,-0.363001,0.158401,
2,0,0,1,0,19270.4,0.154563,0.154185,-0.38073,28,1.04688,10,-5.8703e-05,-3.41938,-0.142302,-0.41461,0.154353,
2,0,0,1,0,19271.2,0.150567,0.150237,-0.409883,28,1.04655,10,-6.15797e-05,-3.38734,-0.109225,-0.540172,0.150418,
2,0,0,1,0,19272,0.146572,0.146252,-0.447221,28,1.04619,10,-6.54072e-05,-3.34948,-0.0936826,-0.629786,0.146449,
2,0,0,1,0,19272.8,0.142578,0.142253,-0.498901,28,1.0458,10,-7.09702e-05,-3.30199,-0.0825736,-0.714514,0.142473,
2,0,0,0,0,19273.6,0.138582,0.138272,-0.554479,28,1.04537,10,-7.66689e-05,-3.25611,-0.0834258,-0.707215,0.138516,
2,0,0,1,0,19274.4,0.134587,0.134305,-0.616616,28,1.04489,10,-8.28146e-05,-3.20999,-0.0985268,-0.598822,0.134576,
2,0,0,1,0,19275.2,0.130591,0.130244,-0.669283,28,1.04436,10,-8.71703e-05,-3.17439,-0.129728,-0.454797,0.130539,
2,0,0,1,0,19276,0.126596,0.126225,-0.707599,28,1.04379,10,-8.93165e-05,-3.15021,-0.190174,-0.310242,0.126536,
2,0,0,1,0,19276.8,0.122602,0.122313,-0.737726,28,1.0432,10,-9.02336e-05,-3.1321,-0.445725,-0.132369,0.122638,
2,0,0,1,0,19277.6,0.118607,0.118288,-0.747244,28,1.04259,10,-8.83899e-05,-3.12654,-0.842446,-0.0700342,0.118617,
2,0,0,1,0,19278.4,0.114611,0.114272,-0.748245,28,1.04198,10,-8.55033e-05,-3.12596,1.47844,0.0399069,0.114601,
2,0,0,0,0,19279.2,0.110616,0.110319,-0.742668,28,1.04137,10,-8.19301e-05,-3.12921,1.01622,0.0580584,0.110645,
2,0,0,1,0,19280,0.10662,0.106331,-0.73148,28,1.04077,10,-7.77789e-05,-3.1358,0.784032,0.075252,0.106653,
2,0,0,1,0,19280.8,0.102625,0.102284,-0.722401,28,1.04017,10,-7.38899e-05,-3.14122,0.496094,0.118929,0.102602,
2,0,0,1,0,19281.6,0.0986305,0.0982864,-0.709326,28,1.03959,10,-6.97171e-05,-3.14915,0.473931,0.124491,0.0985985,
2,0,0,1,0,19282.4,0.0946351,0.0943531,-0.694951,28,1.03901,10,-6.55708e-05,-3.15805,0.611486,0.0964863,0.0946589,
2,0,0,0,0,19283.2,0.0906399,0.0902737,-0.683274,28,1.03845,10,-6.16817e-05,-3.1654,0.412994,0.142859,0.0905743,
2,0,0,1,0,19284,0.0866448,0.0863109,-0.671786,28,1.03789,10,-5.79825e-05,-3.17277,0.602979,0.0978475,0.0866065,
2,0,0,1,0,19284.8,0.0826492,0.0823437,-0.662065,28,1.03735,10,-5.45169e-05,-3.1791,0.591205,0.0997962,0.0826351,
2,0,0,1,0,19285.6,0.0786544,0.0783389,-0.652556,28,1.03681,10,-5.11206e-05,-3.18538,0.650105,0.0907545,0.0786261,
2,0,0,1,0,19286.4,0.0746596,0.0743869,-0.640649,28,1.03628,10,-4.76559e-05,-3.19338,0.649217,0.0908786,0.0746688,
2,0,0,0,0,19287.2,0.0706641,0.0703433,-0.631185,28,1.03576,10,-4.43996e-05,-3.19984,0.609631,0.0967799,0.0706211,
2,0,0,1,0,19288,0.0666689,0.0663212,-0.624319,28,1.03524,10,-4.14056e-05,-3.20459,0.759267,0.0777065,0.0665959,
2,0,0,0,0,19288.8,0.0626737,0.0623511,-0.613551,28,1.03473,10,-3.82556e-05,-3.21215,0.539681,0.109324,0.062621,
2,0,0,1,0,19289.6,0.0586783,0.0583329,-0.604993,28,1.03423,10,-3.5291e-05,-3.21825,0.509861,0.115718,0.0585991,
2,0,0,1,0,19290.3,0.0546835,0.0543591,-0.596226,28,1.03374,10,-3.24103e-05,-3.22459,0.776256,0.0760059,0.0546214,
2,0,0,1,0,19291.1,0.0506886,0.0503754,-0.585708,28,1.03325,10,-2.95052e-05,-3.23232,0.464543,0.127006,0.0506331,
2,0,0,1,0,19291.9,0.046693,0.0463856,-0.574492,28,1.03278,10,-2.66482e-05,-3.24072,0.516659,0.114195,0.0466384,
2,0,0,0,0,19292.7,0.0426979,0.0423518,-0.565198,28,1.03231,10,-2.39371e-05,-3.2478,0.582409,0.101303,0.0426005,
2,0,0,1,0,19293.5,0.0387022,0.0383834,-0.554791,28,1.03185,10,-2.12948e-05,-3.25587,0.380638,0.155003,0.0386275,
2,0,0,1,0,19294.3,0.0347074,0.0344156,-0.544274,28,1.03139,10,-1.87315e-05,-3.26418,0.669925,0.0880695,0.0346551,
2,0,0,1,0,19295.1,0.0307126,0.0303831,-0.532334,28,1.03095,10,-1.6174e-05,-3.27382,0.513848,0.11482,0.0306173,
2,0,0,1,0,19295.9,0.0267172,0.0264118,-0.524551,28,1.03051,10,-1.38543e-05,-3.28021,0.403859,0.146091,0.0266426,
2,0,0,0,0,19296.7,0.022722,0.0223981,-0.515885,28,1.03009,10,-1.15548e-05,-3.28745,0.770478,0.0765758,0.0226251,
2,0,0,1,0,19297.5,0.0187268,0.0183824,-0.508682,28,1.02966,10,-9.35078e-06,-3.29355,0.824138,0.0715899,0.0186062,
2,0,0,1,0,19298.3,0.0147313,0.0143801,-0.503507,28,1.02925,10,-7.24046e-06,-3.29799,0.808099,0.0730108,0.0146016,
2,0,0,1,0,19299.1,0.0107365,0.0104315,-0.498247,28,1.02883,10,-5.19745e-06,-3.30255,1.34908,0.0437335,0.0106507,
2,0,0,1,0,19299.9,0.00674163,0.00638317,-0.496622,28,1.02842,10,-3.17002e-06,-3.30397,2.86653,0.0205824,0.00660168,
2,0,0,0,0,19300.7,0.00274612,0.00237765,-0.495577,28,1.02801,10,-1.17831e-06,-3.30489,-3.0596,-0.0192836,0.00259571,
2,0,0,1,0,19301.2,0.000274105,-8.07672e-05,-0.49707,28,1.02776,10,4.0147e-08,-3.30358, , ,0.000137943,