File: Figure_codes/Fig_3-5/workspace_calculate_alpha_eff/20221101_1-115_003_TrumpetPlot_ParaChange_from10_every3_16_CV_C01_22.csv
mode,ox/red,error,control changes,counter inc.,time/s,control/V,Ewe/V,<I>/mA,cycle number,(Q-Qo)/C,I Range,P/W,log(|I|),Tafel slope mV/dec,alpha_eff,E-IR/V,
2,0,0,0,0,15391,2.44065e-05,-0.000344411,-0.116567,23,0.0000000E+000,10,4.01469e-08,-3.93342, , ,-0.000293121,
2,1,0,0,0,15391.8,0.00379485,0.00348472,0.163911,23,0.000110716,10,5.71185e-07,-3.78539,0.0416654,1.41604,0.0034126,
2,1,0,1,0,15392.6,0.00779002,0.0074167,0.187383,23,0.000265481,10,1.38976e-06,-3.72727,0.0855796,0.689417,0.00733426,
2,1,0,0,0,15393.4,0.0117852,0.0114537,0.202869,23,0.00043595,10,2.3236e-06,-3.69278,0.121284,0.486461,0.0113644,
2,1,0,1,0,15394.2,0.0157806,0.0154389,0.219673,23,0.000618721,10,3.39152e-06,-3.65822,0.128794,0.458096,0.0153423,
2,1,0,1,0,15395,0.0197754,0.0194566,0.233123,23,0.000813123,10,4.53579e-06,-3.63241,0.15101,0.390703,0.019354,
2,1,0,1,0,15395.8,0.0237704,0.0234498,0.247939,23,0.00101907,10,5.81411e-06,-3.60566,0.158921,0.371254,0.0233407,
2,1,0,1,0,15396.6,0.0277659,0.0274001,0.262334,23,0.00123635,10,7.18798e-06,-3.58114,0.162341,0.363432,0.0272846,
2,1,0,0,0,15397.4,0.0317611,0.0313936,0.276405,23,0.00146555,10,8.67734e-06,-3.55845,0.176076,0.335083,0.0312719,
2,1,0,1,0,15398.2,0.0357567,0.0354446,0.291622,23,0.00170647,10,1.03364e-05,-3.53518,0.232242,0.254046,0.0353163,
2,1,0,1,0,15399,0.0397516,0.0394434,0.307545,23,0.00195861,10,1.21306e-05,-3.51209,0.15239,0.387166,0.0393081,
2,1,0,1,0,15399.8,0.0437465,0.0434259,0.318768,23,0.00222297,10,1.38428e-05,-3.49653,0.22111,0.266835,0.0432856,
2,1,0,1,0,15400.6,0.0477413,0.0473682,0.333695,23,0.00249768,10,1.58065e-05,-3.47665,0.236314,0.249668,0.0472214,
2,1,0,0,0,15401.4,0.0517369,0.0514151,0.347109,23,0.00278325,10,1.78466e-05,-3.45953,0.209549,0.281558,0.0512624,
2,1,0,1,0,15402.2,0.0557321,0.055399,0.359522,23,0.00307996,10,1.99172e-05,-3.44427,0.373982,0.157762,0.0552409,
2,1,0,1,0,15403,0.0597277,0.0594003,0.371677,23,0.00338578,10,2.20777e-05,-3.42983,0.283945,0.207787,0.0592367,
2,1,0,1,0,15403.8,0.0637226,0.0634063,0.382577,23,0.00370127,10,2.42578e-05,-3.41728,0.277584,0.212548,0.063238,
2,1,0,1,0,15404.6,0.0677174,0.0674195,0.39329,23,0.00402635,10,2.65154e-05,-3.40529,0.531754,0.110954,0.0672464,
2,1,0,0,0,15405.4,0.0717128,0.071391,0.402871,23,0.00435918,10,2.87614e-05,-3.39483,0.313089,0.188445,0.0712138,
2,1,0,1,0,15406.2,0.075708,0.0753941,0.411568,23,0.00470027,10,3.10298e-05,-3.38556,0.359177,0.164264,0.075213,
2,1,0,0,0,15407,0.0797031,0.0793876,0.424228,23,0.0050486,10,3.36784e-05,-3.3724,0.409435,0.144101,0.0792009,
2,1,0,1,0,15407.8,0.0836986,0.0833634,0.432952,23,0.00540445,10,3.60923e-05,-3.36356,0.400735,0.14723,0.0831729,
2,1,0,1,0,15408.6,0.0876935,0.0873968,0.444551,23,0.00576917,10,3.88524e-05,-3.35208,0.295095,0.199936,0.0872012,
2,1,0,1,0,15409.4,0.0916883,0.0913826,0.460807,23,0.00614384,10,4.21098e-05,-3.33648,0.25372,0.23254,0.0911798,
2,1,0,1,0,15410.2,0.0956838,0.0953795,0.478294,23,0.00653259,10,4.56194e-05,-3.32031,0.203276,0.290245,0.0951691,
2,1,0,0,0,15411,0.099679,0.0993624,0.501722,23,0.00693833,10,4.98523e-05,-3.29954,0.226431,0.260564,0.0991417,
2,1,0,1,0,15411.8,0.103674,0.103352,0.525523,23,0.00736259,10,5.43136e-05,-3.27941,0.17224,0.342545,0.10312,
2,1,0,1,0,15412.6,0.10767,0.107327,0.54808,23,0.0078073,10,5.8824e-05,-3.26116,0.230417,0.256057,0.107086,
2,1,0,1,0,15413.4,0.111664,0.11134,0.570773,23,0.00826914,10,6.35497e-05,-3.24354,0.27317,0.215983,0.111089,
2,1,0,1,0,15414.2,0.115659,0.11531,0.587266,23,0.00874597,10,6.77179e-05,-3.23117,0.277984,0.212242,0.115052,
2,1,0,0,0,15415,0.119655,0.119295,0.604037,23,0.00923755,10,7.20585e-05,-3.21894,0.430183,0.137151,0.119029,
2,1,0,1,0,15415.8,0.12365,0.12336,0.620787,23,0.00974079,10,7.65806e-05,-3.20706,0.327096,0.180375,0.123087,
2,1,0,1,0,15416.6,0.127646,0.127316,0.636198,23,0.0102577,10,8.09984e-05,-3.19641,0.418342,0.141033,0.127036,
2,1,0,1,0,15417.4,0.131641,0.131302,0.647105,23,0.0107855,10,8.49663e-05,-3.18902,13.7586,0.00428823,0.131017,
2,1,0,1,0,15418.2,0.135635,0.13529,0.640405,23,0.0113151,10,8.66403e-05,-3.19354,-0.466352,-0.126514,0.135008,
2,1,0,0,0,15419,0.139631,0.139342,0.608548,23,0.0118318,10,8.47962e-05,-3.21571,-0.129143,-0.456857,0.139074,
2,1,0,1,0,15419.8,0.143626,0.143312,0.56071,23,0.0123152,10,8.03565e-05,-3.25126,-0.0879048,-0.671181,0.143065,
2,1,0,0,0,15420.6,0.147621,0.147298,0.494937,23,0.0127505,10,7.29032e-05,-3.30545,-0.0696126,-0.847548,0.14708,
2,1,0,1,0,15421.4,0.151617,0.15135,0.432854,23,0.0131346,10,6.55126e-05,-3.36366,-0.0736832,-0.800725,0.15116,
2,1,0,1,0,15422.1,0.155612,0.155318,0.386846,23,0.0134744,10,6.00842e-05,-3.41246,-0.0918596,-0.642285,0.155148,
2,1,0,1,0,15422.9,0.159606,0.159262,0.353083,23,0.0137825,10,5.62328e-05,-3.45212,-0.12067,-0.488936,0.159107,
2,1,0,1,0,15423.7,0.163602,0.163283,0.330371,23,0.0140687,10,5.39438e-05,-3.481,-0.145311,-0.406025,0.163137,
2,1,0,0,0,15424.5,0.167597,0.167272,0.31337,23,0.0143389,10,5.2418e-05,-3.50394,-0.216333,-0.272727,0.167134,
2,1,0,1,0,15425.3,0.171592,0.171292,0.301055,23,0.0145985,10,5.15683e-05,-3.52135,-0.260264,-0.226693,0.171159,
2,1,0,1,0,15426.1,0.175588,0.175263,0.292192,23,0.0148495,10,5.12105e-05,-3.53433,-0.29748,-0.198333,0.175135,
2,1,0,1,0,15426.9,0.179582,0.179258,0.284952,23,0.0150938,10,5.10799e-05,-3.54523,-0.507499,-0.116256,0.179132,
2,1,0,1,0,15427.7,0.183577,0.183267,0.280711,23,0.0153333,10,5.1445e-05,-3.55174,-0.597683,-0.0987145,0.183143,
2,1,0,0,0,15428.5,0.187573,0.187274,0.27614,23,0.0155686,10,5.1714e-05,-3.55887,-0.511046,-0.11545,0.187153,
2,1,0,1,0,15429.3,0.191568,0.191272,0.271417,23,0.0158003,10,5.19145e-05,-3.56636,-0.822164,-0.0717619,0.191153,
2,1,0,0,0,15430.1,0.195563,0.195244,0.267557,23,0.0160294,10,5.22389e-05,-3.57258,-0.427512,-0.138008,0.195127,
2,1,0,1,0,15430.9,0.199559,0.199207,0.265307,23,0.0162556,10,5.28511e-05,-3.57625,-1.69558,-0.0347963,0.19909,
2,1,0,1,0,15431.7,0.203553,0.203221,0.261244,23,0.0164795,10,5.30903e-05,-3.58295,-1.33208,-0.0442917,0.203106,
2,1,0,1,0,15432.5,0.207548,0.207247,0.259626,23,0.0167018,10,5.38066e-05,-3.58565,-0.891118,-0.066209,0.207132,
2,1,0,1,0,15433.3,0.211544,0.211211,0.257146,23,0.0169219,10,5.4312e-05,-3.58982,-1.54713,-0.0381351,0.211098,
2,1,0,0,0,15434.1,0.215539,0.215191,0.255211,23,0.0171404,10,5.49191e-05,-3.5931,-1.14897,-0.0513503,0.215078,
2,1,0,1,0,15434.9,0.219535,0.219223,0.255956,23,0.0173573,10,5.61114e-05,-3.59183,-0.791587,-0.0745338,0.21911,
2,1,0,1,0,15435.7,0.223529,0.223243,0.252804,23,0.0175727,10,5.64369e-05,-3.59722,7.8035,0.00756071,0.223132,
2,1,0,1,0,15436.5,0.227524,0.227199,0.251799,23,0.0177872,10,5.72084e-05,-3.59895,-0.706963,-0.0834556,0.227088,
2,1,0,1,0,15437.3,0.23152,0.231199,0.25016,23,0.0180005,10,5.78366e-05,-3.60178,-41.0083,-0.00143873,0.231088,
2,1,0,0,0,15438.1,0.235515,0.235178,0.246581,23,0.0182128,10,5.79904e-05,-3.60804,-1.99701,-0.0295442,0.23507,
2,1,0,1,0,15438.9,0.23951,0.239192,0.246621,23,0.0184237,10,5.89896e-05,-3.60797,-1.34282,-0.0439372,0.239083,
2,1,0,1,0,15439.7,0.243506,0.243176,0.245285,23,0.0186338,10,5.96475e-05,-3.61033,-8.38359,-0.00703756,0.243068,
2,1,0,1,0,15440.5,0.2475,0.247225,0.244992,23,0.0188432,10,6.05681e-05,-3.61085,-1.31378,-0.0449086,0.247117,
2,1,0,1,0,15441.3,0.251495,0.251209,0.244439,23,0.0190517,10,6.14053e-05,-3.61183,2.98377,0.0197737,0.251102,
2,1,0,0,0,15442.1,0.255491,0.25515,0.242759,23,0.0192592,10,6.19399e-05,-3.61483,-1.15806,-0.0509474,0.255043,
2,1,0,1,0,15442.9,0.259486,0.259219,0.242357,23,0.0194663,10,6.28234e-05,-3.61554,-0.953116,-0.0619022,0.259112,
2,1,0,0,0,15443.7,0.263481,0.263157,0.241404,23,0.0196721,10,6.3527e-05,-3.61726,-3.44362,-0.0171331,0.263051,
2,1,0,1,0,15444.5,0.267477,0.267188,0.23935,23,0.0198778,10,6.39514e-05,-3.62097,18.2095,0.00324006,0.267083,
2,1,0,1,0,15445.3,0.271471,0.271083,0.239383,23,0.0200826,10,6.48927e-05,-3.62091,-1.6372,-0.0360371,0.270978,
2,1,0,1,0,15446.1,0.275466,0.275138,0.238045,23,0.0202866,10,6.54954e-05,-3.62334,-1.52169,-0.0387726,0.275033,
2,1,0,1,0,15446.9,0.279462,0.279185,0.237735,23,0.02049,10,6.63721e-05,-3.62391,-2.10941,-0.0279699,0.279081,
2,1,0,0,0,15447.7,0.283457,0.283163,0.236337,23,0.0206924,10,6.69217e-05,-3.62647,-2.7402,-0.0215312,0.283059,
2,1,0,1,0,15448.5,0.287452,0.287127,0.236483,23,0.0208939,10,6.79004e-05,-3.6262,22.4486,0.00262823,0.287022,
2,1,0,1,0,15449.3,0.291448,0.291091,0.235241,23,0.0210949,10,6.84765e-05,-3.62849,-1.18116,-0.0499509,0.290988,
2,1,0,1,0,15450.1,0.295442,0.295164,0.233695,23,0.021295,10,6.89785e-05,-3.63135,1.95034,0.0302512,0.295061,
2,1,0,1,0,15450.9,0.299437,0.299156,0.231875,23,0.0214946,10,6.93668e-05,-3.63475,-1.22922,-0.0479978,0.299054,
2,1,0,0,0,15451.7,0.303433,0.303147,0.233295,23,0.0216935,10,7.07227e-05,-3.63209,-4.48969,-0.0131412,0.303045,
2,1,0,1,0,15452.5,0.307428,0.307088,0.231343,23,0.0218918,10,7.10424e-05,-3.63574,-2.20668,-0.026737,0.306986,
2,1,0,1,0,15453.3,0.311424,0.311152,0.231017,23,0.0220895,10,7.18814e-05,-3.63636,-1.59918,-0.0368939,0.311051,
2,1,0,1,0,15454.1,0.315418,0.315114,0.230629,23,0.0222864,10,7.26744e-05,-3.63709,358.966,0.000164361,0.315012,
2,1,0,1,0,15454.9,0.319413,0.319076,0.229729,23,0.0224828,10,7.33011e-05,-3.63878,-1.64413,-0.0358852,0.318975,
2,1,0,0,0,15455.7,0.323409,0.323123,0.229177,23,0.0226789,10,7.40523e-05,-3.63983,-1.72741,-0.0341552,0.323022,
2,1,0,1,0,15456.5,0.327404,0.32714,0.2278,23,0.0228741,10,7.45225e-05,-3.64245,1.72927,0.0341185,0.32704,
2,1,0,0,0,15457.3,0.331399,0.331119,0.226913,23,0.0230689,10,7.5135e-05,-3.64414,-1.09132,-0.0540628,0.331019,
2,1,0,1,0,15458.1,0.335395,0.33506,0.226847,23,0.0232632,10,7.60074e-05,-3.64427,-2.45405,-0.0240419,0.334961,
2,1,0,1,0,15458.9,0.339389,0.339085,0.225981,23,0.0234565,10,7.66269e-05,-3.64593,-3.58704,-0.0164481,0.338986,
2,1,0,1,0,15459.7,0.343384,0.343065,0.22546,23,0.0236496,10,7.73472e-05,-3.64693,-2.16358,-0.0272697,0.342966,
2,1,0,1,0,15460.5,0.34738,0.347099,0.225838,23,0.023842,10,7.8388e-05,-3.6462,2.53137,0.0233076,0.346999,
2,1,0,0,0,15461.3,0.351375,0.351063,0.225425,23,0.0240343,10,7.91384e-05,-3.647,-2.94582,-0.0200284,0.350963,
2,1,0,1,0,15462.1,0.35537,0.35505,0.224354,23,0.0242261,10,7.96569e-05,-3.64907,-0.925242,-0.0637671,0.354951,
2,1,0,1,0,15462.9,0.359366,0.358995,0.223361,23,0.0244173,10,8.01855e-05,-3.65099,4.54268,0.0129879,0.358896,
2,1,0,1,0,15463.7,0.36336,0.363058,0.221838,23,0.0246081,10,8.05401e-05,-3.65396,-2.45459,-0.0240366,0.36296,
2,1,0,1,0,15464.5,0.367355,0.367051,0.222292,23,0.0247983,10,8.15925e-05,-3.65308,20.0389,0.00294428,0.366953,
2,1,0,0,0,15465.3,0.371351,0.371027,0.222197,23,0.0249881,10,8.24409e-05,-3.65326,1.5668,0.0376563,0.370929,
2,1,0,1,0,15466.1,0.375346,0.375046,0.22192,23,0.0251779,10,8.32301e-05,-3.6538,-0.681542,-0.0865684,0.374948,
2,1,0,1,0,15466.9,0.379342,0.379065,0.221482,23,0.025367,10,8.39559e-05,-3.65466,1.95843,0.0301261,0.378968,
2,1,0,1,0,15467.7,0.383336,0.383031,0.221293,23,0.0255559,10,8.4762e-05,-3.65503,-1.87592,-0.0314513,0.382934,
2,1,0,1,0,15468.5,0.387331,0.387043,0.221115,23,0.0257446,10,8.55811e-05,-3.65538,-5.8288,-0.0101221,0.386946,
2,1,0,0,0,15469.3,0.391327,0.391042,0.220181,23,0.0259327,10,8.61001e-05,-3.65722,-60.1852,-0.000980307,0.390945,
2,1,0,1,0,15470.1,0.395322,0.39504,0.219078,23,0.0261205,10,8.65446e-05,-3.6594,-5.23845,-0.0112629,0.394943,
2,1,0,0,0,15470.9,0.399317,0.399016,0.219947,23,0.0263081,10,8.77624e-05,-3.65768,21.129,0.00279238,0.39892,
2,1,0,1,0,15471.7,0.403313,0.40301,0.220177,23,0.0264954,10,8.87335e-05,-3.65723,-4.11397,-0.0143414,0.402913,
2,1,0,1,0,15472.5,0.407307,0.406998,0.219649,23,0.0266825,10,8.93967e-05,-3.65827,-4.34563,-0.0135769,0.406901,
2,1,0,1,0,15473.3,0.411302,0.41101,0.220774,23,0.0268693,10,9.07405e-05,-3.65605,3.45859,0.017059,0.410913,
2,1,0,1,0,15474.1,0.415298,0.415008,0.219885,23,0.0270564,10,9.12542e-05,-3.6578,-1.8867,-0.0312715,0.414912,
2,1,0,0,0,15474.9,0.419293,0.419038,0.219014,23,0.0272432,10,9.1775e-05,-3.65953,-13.9689,-0.00422366,0.418942,
2,1,0,1,0,15475.7,0.423288,0.422982,0.218961,23,0.0274294,10,9.26163e-05,-3.65963,1.48243,0.0397996,0.422885,
2,1,0,1,0,15476.5,0.427283,0.427026,0.219394,23,0.0276161,10,9.36868e-05,-3.65878,-1.62771,-0.0362472,0.42693,
2,1,0,1,0,15477.3,0.431278,0.431018,0.219637,23,0.0278027,10,9.46676e-05,-3.65829,2.0451,0.0288495,0.430921,
2,1,0,1,0,15478.1,0.435273,0.43498,0.21936,23,0.0279892,10,9.5417e-05,-3.65884,27.5364,0.00214262,0.434883,
2,1,0,0,0,15478.9,0.439269,0.439006,0.219427,23,0.0281758,10,9.633e-05,-3.65871,-5.24655,-0.0112455,0.43891,
2,1,0,1,0,15479.7,0.443264,0.44296,0.219797,23,0.0283622,10,9.73611e-05,-3.65798,63.1425,0.000934395,0.442863,
2,1,0,0,0,15480.5,0.447259,0.446936,0.219942,23,0.0285486,10,9.83002e-05,-3.65769,-10.0821,-0.00585197,0.446839,
2,1,0,1,0,15481.3,0.451254,0.450982,0.2193,23,0.0287353,10,9.89002e-05,-3.65896,-10.5644,-0.0055848,0.450885,
2,1,0,1,0,15482.1,0.455249,0.455012,0.220165,23,0.0289221,10,0.000100178,-3.65725,1.96696,0.0299956,0.454915,
2,1,0,1,0,15482.9,0.459244,0.458937,0.219057,23,0.0291093,10,0.000100533,-3.65944,-20.7718,-0.0028404,0.458841,
2,1,0,1,0,15483.7,0.46324,0.462955,0.220443,23,0.0292965,10,0.000102055,-3.6567,2.32397,0.0253876,0.462858,
2,1,0,0,0,15484.5,0.467235,0.466948,0.21971,23,0.0294836,10,0.000102593,-3.65815,5.1494,0.0114577,0.466851,
2,1,0,1,0,15485.3,0.471231,0.470996,0.220898,23,0.0296712,10,0.000104042,-3.65581,14.6455,0.00402855,0.470899,
2,1,0,1,0,15486.1,0.475225,0.474922,0.222588,23,0.0298592,10,0.000105712,-3.6525,1.41997,0.0415502,0.474825,
2,1,0,1,0,15486.9,0.47922,0.47897,0.22189,23,0.0300475,10,0.000106278,-3.65386,-76.9716,-0.000766517,0.478872,
2,1,0,1,0,15487.7,0.483216,0.482931,0.223017,23,0.030236,10,0.000107702,-3.65166,5.52455,0.0106796,0.482832,
2,1,0,0,0,15488.5,0.487211,0.486931,0.223168,23,0.0304249,10,0.000108668,-3.65137,-50.0277,-0.00117935,0.486833,
2,1,0,1,0,15489.3,0.491206,0.490873,0.223372,23,0.0306143,10,0.000109647,-3.65097,1.9963,0.0295546,0.490775,
2,1,0,1,0,15490.1,0.495201,0.4949,0.224412,23,0.0308042,10,0.000111061,-3.64895,1.61443,0.0365454,0.494801,
2,1,0,1,0,15490.9,0.499196,0.498894,0.225387,23,0.0309949,10,0.000112444,-3.64707,2.25625,0.0261496,0.498795,
2,1,0,1,0,15491.7,0.503191,0.502879,0.227008,23,0.0311864,10,0.000114158,-3.64396,2.49719,0.0236266,0.502779,
2,1,0,0,0,15492.5,0.507187,0.506885,0.227597,23,0.0313786,10,0.000115366,-3.64283,4.55064,0.0129652,0.506785,
2,1,0,1,0,15493.3,0.511182,0.5109,0.229025,23,0.0315715,10,0.000117009,-3.64012,1.19012,0.0495748,0.510799,
2,1,0,0,0,15494.1,0.515177,0.514866,0.229364,23,0.0317657,10,0.000118092,-3.63947,2.12168,0.0278081,0.514765,
2,1,0,1,0,15494.9,0.519173,0.518881,0.230491,23,0.0319606,10,0.000119597,-3.63735,0.973918,0.0605801,0.51878,
2,1,0,1,0,15495.7,0.523167,0.522845,0.232237,23,0.0321567,10,0.000121424,-3.63407,2.48599,0.023733,0.522743,
2,1,0,1,0,15496.5,0.527162,0.526868,0.234398,23,0.0323539,10,0.000123497,-3.63005,0.852771,0.0691862,0.526765,
2,1,0,1,0,15497.3,0.531158,0.530877,0.237266,23,0.0325527,10,0.000125959,-3.62477,1.44595,0.0408037,0.530772,
2,1,0,0,0,15498.1,0.535153,0.534859,0.238789,23,0.032753,10,0.000127719,-3.62198,0.839176,0.070307,0.534754,
2,1,0,1,0,15498.9,0.539148,0.538913,0.240895,23,0.0329548,10,0.000129822,-3.61817,2.12848,0.0277194,0.538807,
2,1,0,1,0,15499.7,0.543143,0.542822,0.242507,23,0.0331581,10,0.000131638,-3.61527,0.696513,0.0847077,0.542716,
2,1,0,1,0,15500.5,0.547138,0.546802,0.244546,23,0.0333634,10,0.000133718,-3.61164,1.33756,0.0441103,0.546694,
2,1,0,1,0,15501.3,0.551133,0.550851,0.247432,23,0.0335706,10,0.000136298,-3.60654,0.707096,0.0834399,0.550743,
2,1,0,0,0,15502.1,0.555129,0.554874,0.249955,23,0.0337802,10,0.000138694,-3.60214,0.936776,0.0629819,0.554764,
2,1,0,1,0,15502.9,0.559124,0.558855,0.252731,23,0.033992,10,0.00014124,-3.59734,0.815912,0.0723118,0.558743,
2,1,0,1,0,15503.7,0.56312,0.562859,0.255986,23,0.0342062,10,0.000144084,-3.59178,0.54044,0.10917,0.562747,
2,1,0,1,0,15504.4,0.567114,0.566898,0.259948,23,0.0344233,10,0.000147364,-3.58511,0.716684,0.0823236,0.566783,
2,1,0,1,0,15505.2,0.571109,0.570848,0.264883,23,0.0346435,10,0.000151208,-3.57695,0.449354,0.1313,0.570731,
2,1,0,0,0,15506,0.575105,0.574832,0.269024,23,0.0348676,10,0.000154644,-3.57021,0.523489,0.112705,0.574713,
2,1,0,1,0,15506.8,0.5791,0.578819,0.274878,23,0.0350958,10,0.000159105,-3.56086,0.533833,0.110522,0.578698,
2,1,0,0,0,15507.6,0.583095,0.582801,0.281742,23,0.0353282,10,0.0001642,-3.55015,0.349422,0.16885,0.582677,
2,1,0,1,0,15508.4,0.58709,0.58679,0.286941,23,0.0355658,10,0.000168374,-3.54221,0.352798,0.167234,0.586664,
2,1,0,1,0,15509.2,0.591085,0.590827,0.295375,23,0.035809,10,0.000174515,-3.52963,0.349875,0.168632,0.590697,
2,1,0,1,0,15510,0.59508,0.594778,0.303666,23,0.0360584,10,0.000180614,-3.5176,0.290764,0.202914,0.594644,
2,1,0,1,0,15510.8,0.599076,0.598794,0.313302,23,0.0363153,10,0.000187603,-3.50404,0.290536,0.203073,0.598656,
2,1,0,0,0,15511.6,0.603071,0.602794,0.325019,23,0.0365803,10,0.000195919,-3.48809,0.270548,0.218076,0.602651,
2,1,0,1,0,15512.4,0.607066,0.606775,0.336434,23,0.0368549,10,0.00020414,-3.4731,0.212412,0.277762,0.606627,
2,1,0,1,0,15513.2,0.611061,0.610773,0.352133,23,0.0371407,10,0.000215073,-3.45329,0.218733,0.269736,0.610618,
2,1,0,1,0,15514,0.615056,0.614761,0.36873,23,0.0374391,10,0.000226681,-3.43329,0.170157,0.346738,0.614599,
2,1,0,1,0,15514.8,0.619051,0.618757,0.388753,23,0.0377529,10,0.000240543,-3.41033,0.16803,0.351128,0.618586,
2,1,0,0,0,15515.6,0.623047,0.622769,0.413301,23,0.0380838,10,0.000257391,-3.38373,0.147288,0.400576,0.622587,
2,1,0,1,0,15516.4,0.627042,0.626778,0.439865,23,0.038435,10,0.000275698,-3.35668,0.134956,0.437179,0.626584,
2,1,0,1,0,15517.2,0.631037,0.630791,0.472164,23,0.03881,10,0.000297837,-3.32591,0.128763,0.458207,0.630583,
2,1,0,1,0,15518,0.635032,0.634767,0.510593,23,0.0392124,10,0.000324108,-3.29193,0.113327,0.520617,0.634543,
2,1,0,1,0,15518.8,0.639027,0.638758,0.553118,23,0.0396473,10,0.000353309,-3.25718,0.107941,0.546593,0.638515,
2,1,0,1,0,15519.6,0.643022,0.642755,0.605301,23,0.0401201,10,0.00038906,-3.21803,0.100081,0.589521,0.642488,
2,1,0,1,0,15520.4,0.647018,0.646763,0.666589,23,0.0406384,10,0.000431125,-3.17614,0.0888942,0.663711,0.64647,
2,1,0,0,0,15521.2,0.651013,0.650778,0.738105,23,0.0412101,10,0.000480343,-3.13188,0.0862933,0.683715,0.650453,
2,1,0,1,0,15522,0.655008,0.65475,0.825256,23,0.0418446,10,0.000540336,-3.08341,0.0827874,0.712669,0.654386,
2,1,0,1,0,15522.8,0.659003,0.658755,0.924846,23,0.0425526,10,0.000609246,-3.03393,0.0769356,0.766875,0.658348,
2,1,0,1,0,15523.6,0.662998,0.662739,1.04073,23,0.0433469,10,0.000689735,-2.98266,0.0759216,0.777117,0.662281,
2,1,0,1,0,15524.4,0.666994,0.666746,1.17553,23,0.044241,10,0.000783782,-2.92977,0.0736261,0.801346,0.666228,
2,1,0,0,0,15525.2,0.670989,0.670713,1.32969,23,0.0452514,10,0.000891841,-2.87625,0.0712097,0.828539,0.670128,
2,1,0,1,0,15526,0.674984,0.674715,1.51155,23,0.0463959,10,0.00101986,-2.82058,0.0719835,0.819632,0.67405,
2,1,0,1,0,15526.8,0.67898,0.678721,1.71522,23,0.0476939,10,0.00116416,-2.76568,0.0694259,0.849827,0.677966,
2,1,0,1,0,15527.6,0.682974,0.682735,1.94981,23,0.0491682,10,0.0013312,-2.71001,0.0709503,0.831568,0.681877,
2,1,0,1,0,15528.4,0.686969,0.68669,2.21185,23,0.0508399,10,0.00151885,-2.65524,0.0704733,0.837197,0.685716,
2,1,0,0,0,15529.2,0.690965,0.690716,2.5068,23,0.0527344,10,0.00173149,-2.60088,0.0721339,0.817923,0.689613,
2,1,0,1,0,15530,0.69496,0.6947,2.8331,23,0.054876,10,0.00196815,-2.54774,0.0735918,0.80172,0.693453,
2,1,0,0,0,15530.8,0.698955,0.698701,3.19033,23,0.0572906,10,0.00222909,-2.49616,0.0733632,0.804217,0.697297,
2,1,0,1,0,15531.6,0.70295,0.702676,3.5836,23,0.0600072,10,0.00251811,-2.44568,0.077343,0.762836,0.701099,
2,1,0,1,0,15532.4,0.706945,0.706662,4.01097,23,0.0630509,10,0.0028344,-2.39675,0.0807491,0.730659,0.704897,
2,1,0,1,0,15533.2,0.71094,0.710679,4.46971,23,0.0664485,10,0.00317653,-2.34972,0.0816266,0.722803,0.708712,
2,1,0,1,0,15534,0.714936,0.71471,4.96212,23,0.0702271,10,0.00354647,-2.30433,0.0838595,0.703558,0.712527,
2,1,0,0,0,15534.8,0.718931,0.71865,5.48781,23,0.0744116,10,0.00394382,-2.2606,0.0871291,0.677156,0.716236,
2,1,0,1,0,15535.6,0.722927,0.722634,6.04384,23,0.0790291,10,0.00436748,-2.21869,0.0910241,0.64818,0.719974,
2,1,0,1,0,15536.4,0.726921,0.726623,6.6337,23,0.0841037,10,0.0048202,-2.17824,0.094702,0.623007,0.723704,
2,1,0,1,0,15537.2,0.730916,0.730677,7.2523,23,0.0896602,10,0.00529909,-2.13952,0.0978246,0.60312,0.727486,
2,1,0,1,0,15538,0.734911,0.734645,7.9017,23,0.0957243,10,0.00580495,-2.10228,0.101032,0.583973,0.731169,
2,1,0,0,0,15538.8,0.738907,0.738672,8.58142,23,0.10232,10,0.00633886,-2.06644,0.104984,0.561992,0.734896,
2,1,0,1,0,15539.6,0.742902,0.742618,9.29089,23,0.10947,10,0.00689958,-2.03194,0.108023,0.546182,0.73853,
2,1,0,1,0,15540.4,0.746897,0.746651,10.0317,23,0.117202,10,0.00749019,-1.99862,0.113896,0.518016,0.742237,
2,1,0,1,0,15541.2,0.750892,0.750597,10.8019,23,0.125535,10,0.00810786,-1.9665,0.113468,0.51997,0.745844,
2,1,0,1,0,15542,0.754887,0.75464,11.5944,23,0.134497,10,0.00874959,-1.93575,0.119047,0.495601,0.749539,
2,1,0,0,0,15542.8,0.758883,0.758617,12.4479,23,0.144114,10,0.00944315,-1.90491,0.120012,0.491617,0.75314,
2,1,0,1,0,15543.6,0.762878,0.762614,13.3342,23,0.154423,10,0.0101688,-1.87503,0.120306,0.490416,0.756747,
2,1,0,0,0,15544.4,0.766873,0.766607,14.287,23,0.165467,10,0.0109525,-1.84506,0.119873,0.492186,0.760321,
2,1,0,1,0,15545.2,0.770868,0.770584,15.3011,23,0.177297,10,0.0117908,-1.81528,0.118877,0.496313,0.763852,
2,1,0,1,0,15546,0.774863,0.774559,16.3641,23,0.189956,10,0.012675,-1.78611,0.121052,0.487392,0.767359,
2,1,0,1,0,15546.8,0.778858,0.778603,17.5108,23,0.203496,10,0.0136339,-1.75669,0.116764,0.505291,0.770898,
2,1,0,1,0,15547.6,0.782854,0.782607,18.7582,23,0.217988,10,0.0146803,-1.72681,0.123272,0.478617,0.774353,
2,1,0,0,0,15548.4,0.786849,0.786591,19.9923,23,0.23347,10,0.0157258,-1.69914,0.12372,0.476885,0.777794,
2,1,0,1,0,15549.2,0.790844,0.790599,21.2901,23,0.249955,10,0.0168319,-1.67182,0.119448,0.49394,0.781231,
2,1,0,1,0,15550,0.794839,0.794585,22.6242,23,0.267516,10,0.0179768,-1.64543,0.132221,0.446223,0.784631,
2,1,0,1,0,15550.8,0.798834,0.798528,24.1104,23,0.286189,10,0.0192528,-1.6178,0.131505,0.448651,0.787919,
2,1,0,1,0,15551.6,0.802829,0.802556,25.5194,23,0.306001,10,0.0204807,-1.59313,0.129137,0.456879,0.791327,
2,1,0,0,0,15552.4,0.806825,0.80657,27.0406,23,0.327017,10,0.0218101,-1.56798,0.132099,0.446636,0.794672,
2,1,0,1,0,15553.2,0.81082,0.810559,28.6324,23,0.349271,10,0.0232083,-1.54314,0.133574,0.441704,0.797961,
2,1,0,1,0,15554,0.814815,0.814561,30.2367,23,0.372808,10,0.0246296,-1.51947,0.143426,0.411362,0.801257,
2,1,0,1,0,15554.8,0.81881,0.818551,31.8724,23,0.397636,10,0.0260892,-1.49659,0.144876,0.407244,0.804528,
2,1,0,1,0,15555.6,0.822805,0.822545,33.4189,23,0.423768,10,0.0274885,-1.47601,0.165805,0.35584,0.807841,
2,1,0,0,0,15556.4,0.826801,0.826551,35.0697,23,0.451153,10,0.0289869,-1.45507,0.165368,0.35678,0.81112,
2,1,0,1,0,15557.2,0.830796,0.830527,36.6607,23,0.479827,10,0.0304477,-1.4358,0.171703,0.343616,0.814396,
2,1,0,0,0,15558,0.834791,0.834541,38.3224,23,0.50978,10,0.0319816,-1.41655,0.177367,0.332643,0.817679,
2,1,0,1,0,15558.8,0.838786,0.838528,39.899,23,0.541047,10,0.0334565,-1.39904,0.185241,0.318504,0.820973,
2,1,0,1,0,15559.6,0.842781,0.842547,41.5574,23,0.573608,10,0.0350141,-1.38135,0.203611,0.289768,0.824262,
2,1,0,1,0,15560.4,0.846776,0.846554,43.0413,23,0.607414,10,0.0364368,-1.36611,0.210557,0.280209,0.827616,
2,1,0,0,0,15561.1,0.849723,0.849464,43.9967,23,0.638003,10,0.0373736,-1.35658,0.0425529,1.38651,0.830106,
2,1,0,1,0,15561.9,0.845728,0.845473,41.536,23,0.672085,10,0.0351176,-1.38157,0.143197,0.412021,0.827197,
2,1,0,0,0,15562.7,0.841732,0.841513,39.5958,23,0.70448,10,0.0333204,-1.40235,0.149659,0.394228,0.824091,
2,1,0,1,0,15563.5,0.837737,0.837474,37.7133,23,0.735358,10,0.0315839,-1.42351,0.148443,0.39746,0.82088,
2,1,0,1,0,15564.3,0.833742,0.833503,35.9508,23,0.764771,10,0.0299651,-1.44429,0.155928,0.378379,0.817685,
2,1,0,1,0,15565.1,0.829747,0.829522,34.2143,23,0.792771,10,0.0283815,-1.46579,0.144198,0.40916,0.814467,
2,1,0,1,0,15565.9,0.825752,0.825469,32.4068,23,0.819383,10,0.0267508,-1.48936,0.131068,0.450148,0.81121,
2,1,0,0,0,15566.7,0.821757,0.821525,30.6433,23,0.844543,10,0.0251743,-1.51366,0.135349,0.43591,0.808042,
2,1,0,1,0,15567.5,0.817761,0.817495,28.9715,23,0.868344,10,0.023684,-1.53803,0.134526,0.438576,0.804747,
2,1,0,1,0,15568.3,0.813766,0.813481,27.3547,23,0.890834,10,0.0222525,-1.56297,0.128418,0.459439,0.801445,
2,1,0,1,0,15569.1,0.809771,0.809538,25.8217,23,0.91206,10,0.0209037,-1.58802,0.133958,0.440436,0.798176,
2,1,0,1,0,15569.9,0.805776,0.805508,24.3287,23,0.932085,10,0.0195969,-1.61388,0.429747,0.13729,0.794803,
2,1,0,0,0,15570.7,0.801781,0.801534,23.8662,23,0.951485,10,0.0191296,-1.62222,0.125735,0.46924,0.791033,
2,1,0,1,0,15571.5,0.797786,0.797518,22.3507,23,0.969937,10,0.0178251,-1.65071,0.115969,0.508756,0.787684,
2,1,0,1,0,15572.3,0.79379,0.793531,20.8751,23,0.987197,10,0.016565,-1.68037,0.11205,0.526553,0.784346,
2,1,0,1,0,15573.1,0.789795,0.789511,19.5144,23,1.00332,10,0.0154068,-1.70964,0.115562,0.510549,0.780925,
2,1,0,1,0,15573.9,0.7858,0.785518,18.2055,23,1.01837,10,0.0143008,-1.7398,0.110846,0.532269,0.777507,
2,1,0,0,0,15574.7,0.781805,0.781567,16.9365,23,1.0324,10,0.013237,-1.77118,0.109974,0.536488,0.774114,
2,1,0,1,0,15575.5,0.77781,0.777508,15.7461,23,1.04544,10,0.0122427,-1.80283,0.108226,0.545158,0.77058,
2,1,0,0,0,15576.3,0.773815,0.77358,14.5877,23,1.05754,10,0.0112848,-1.83601,0.104394,0.565166,0.767161,
2,1,0,1,0,15577.1,0.769819,0.769532,13.4968,23,1.06875,10,0.0103863,-1.86977,0.102065,0.578064,0.763593,
2,1,0,1,0,15577.9,0.765824,0.765607,12.463,23,1.0791,10,0.00954175,-1.90438,0.101604,0.580688,0.760124,
2,1,0,1,0,15578.7,0.761829,0.761555,11.486,23,1.08865,10,0.00874722,-1.93983,0.0991075,0.595313,0.756501,
2,1,0,1,0,15579.5,0.757834,0.757556,10.5663,23,1.09745,10,0.00800458,-1.97608,0.09782,0.603149,0.752906,
2,1,0,0,0,15580.3,0.753839,0.75356,9.69511,23,1.10553,10,0.00730585,-2.01345,0.0968342,0.609289,0.749294,
2,1,0,1,0,15581.1,0.749844,0.749575,8.87752,23,1.11293,10,0.00665437,-2.05171,0.0927803,0.635911,0.745669,
2,1,0,1,0,15581.9,0.745848,0.745559,8.10459,23,1.1197,10,0.00604245,-2.09127,0.092364,0.638777,0.741993,
2,1,0,1,0,15582.7,0.741853,0.741587,7.37467,23,1.12587,10,0.00546896,-2.13226,0.0870721,0.677599,0.738342,
2,1,0,1,0,15583.5,0.737858,0.737585,6.69291,23,1.13147,10,0.00493658,-2.17439,0.0878118,0.671892,0.73464,
2,1,0,0,0,15584.3,0.733863,0.733623,6.05895,23,1.13655,10,0.00444499,-2.2176,0.0843654,0.699339,0.730957,
2,1,0,1,0,15585.1,0.729868,0.729589,5.46616,23,1.14114,10,0.00398804,-2.26232,0.0823359,0.716577,0.727183,
2,1,0,1,0,15585.9,0.725872,0.725615,4.9186,23,1.14528,10,0.00356901,-2.30816,0.0802339,0.73535,0.723451,
2,1,0,1,0,15586.7,0.721877,0.721604,4.40815,23,1.14899,10,0.00318094,-2.35574,0.0791426,0.745489,0.719664,
2,1,0,1,0,15587.5,0.717882,0.717585,3.93667,23,1.15231,10,0.00282489,-2.40487,0.0767211,0.76902,0.715853,
2,1,0,0,0,15588.2,0.713887,0.713638,3.50213,23,1.15527,10,0.00249925,-2.45567,0.0731173,0.806922,0.712097,
2,1,0,1,0,15589,0.709892,0.70964,3.10072,23,1.15789,10,0.00220039,-2.50854,0.0705303,0.83652,0.708276,
2,1,0,0,0,15589.8,0.705897,0.705624,2.73413,23,1.16021,10,0.00192927,-2.56318,0.068966,0.855494,0.704421,
2,1,0,1,0,15590.6,0.701901,0.701653,2.39789,23,1.16224,10,0.00168248,-2.62017,0.0664969,0.88726,0.700598,
2,1,0,1,0,15591.4,0.697906,0.697626,2.0904,23,1.16402,10,0.00145832,-2.67977,0.0642098,0.918862,0.696706,
2,1,0,1,0,15592.2,0.693911,0.693682,1.81351,23,1.16557,10,0.001258,-2.74148,0.0605846,0.973846,0.692884,
2,1,0,1,0,15593,0.689916,0.689641,1.56316,23,1.16691,10,0.00107802,-2.806,0.0596422,0.989233,0.688953,
2,1,0,0,0,15593.8,0.685921,0.685674,1.34121,23,1.16806,10,0.000919633,-2.8725,0.0574268,1.0274,0.685084,
2,1,0,1,0,15594.6,0.681926,0.681704,1.14169,23,1.16903,10,0.000778295,-2.94245,0.0541702,1.08916,0.681201,
2,1,0,1,0,15595.4,0.67793,0.677653,0.965298,23,1.16986,10,0.000654137,-3.01534,0.0534229,1.10439,0.677228,
2,1,0,1,0,15596.2,0.673935,0.673633,0.810316,23,1.17056,10,0.000545856,-3.09135,0.0493825,1.19476,0.673276,
2,1,0,1,0,15597,0.66994,0.669684,0.675566,23,1.17114,10,0.000452416,-3.17033,0.0480657,1.22749,0.669387,
2,1,0,0,0,15597.8,0.665945,0.665697,0.556153,23,1.17162,10,0.000370229,-3.25481,0.0478781,1.2323,0.665452,
2,1,0,1,0,15598.6,0.66195,0.661661,0.454634,23,1.17201,10,0.000300814,-3.34234,0.0433354,1.36147,0.661461,
2,1,0,0,0,15599.4,0.657955,0.657675,0.365547,23,1.17233,10,0.000240411,-3.43706,0.0410399,1.43763,0.657514,
2,1,0,1,0,15600.2,0.653959,0.653683,0.291557,23,1.17258,10,0.000190586,-3.53528,0.0384402,1.53485,0.653555,
2,1,0,1,0,15601,0.649964,0.649676,0.228336,23,1.17277,10,0.000148344,-3.64143,0.0353625,1.66843,0.649576,
2,1,0,1,0,15601.8,0.64597,0.645681,0.174145,23,1.17292,10,0.000112442,-3.75909,0.0322073,1.83188,0.645604,
2,1,0,1,0,15602.6,0.641974,0.641712,0.128277,23,1.17303,10,8.23171e-05,-3.89185,0.027243,2.16569,0.641655,
2,1,0,0,0,15603.4,0.637979,0.637696,0.0894809,23,1.17311,10,5.70616e-05,-4.04827,0.0237992,2.47907,0.637657,
2,1,0,1,0,15604.2,0.633983,0.633692,0.0571968,23,1.17316,10,3.62452e-05,-4.24263,0.0182476,3.2333,0.633667,
2,1,0,1,0,15605,0.629988,0.629811,0.0301241,23,1.17318,10,1.89725e-05,-4.52109,0.0100106,5.89374,0.629797,
2,1,0,1,0,15605.8,0.625993,0.625711,0.00757061,23,1.17318,10,4.73702e-06,-5.12087,0.00439364,13.4285,0.625708,
2,1,0,1,0,15606.6,0.621998,0.621769,-0.0105056,23,1.17317,10,-6.53207e-06,-4.97858,-0.00427328,-13.8067,0.621773,
2,0,0,0,0,15607.4,0.618003,0.617744,-0.0262033,23,1.17315,10,-1.61869e-05,-4.58164,-0.0158382,-3.72517,0.617756,
2,0,0,1,0,15608.2,0.614008,0.613706,-0.0387752,23,1.17311,10,-2.37966e-05,-4.41145,-0.0353831,-1.66746,0.613723,
2,0,0,1,0,15609,0.610012,0.609695,-0.0495821,23,1.17306,10,-3.023e-05,-4.30467,-0.0458166,-1.28774,0.609717,
2,0,0,1,0,15609.8,0.606017,0.6057,-0.0567792,23,1.17301,10,-3.43912e-05,-4.24581,-0.0651504,-0.905596,0.605725,
2,0,0,1,0,15610.6,0.602022,0.601724,-0.0662996,23,1.17295,10,-3.98941e-05,-4.17849,-0.0817498,-0.721714,0.601753,
2,0,0,0,0,15611.4,0.598027,0.597755,-0.0729752,23,1.17288,10,-4.36212e-05,-4.13682,-0.0942391,-0.626067,0.597787,
2,0,0,1,0,15612.2,0.594032,0.593771,-0.0779398,23,1.17281,10,-4.62783e-05,-4.10824,-0.133357,-0.442422,0.593805,
2,0,0,0,0,15613,0.590037,0.589736,-0.0838996,23,1.17273,10,-4.94786e-05,-4.07624,-0.205024,-0.287771,0.589773,
2,0,0,1,0,15613.8,0.586041,0.585732,-0.0873695,23,1.17265,10,-5.11751e-05,-4.05864,-0.175804,-0.3356,0.58577,
2,0,0,1,0,15614.6,0.582046,0.581751,-0.0896345,23,1.17257,10,-5.2145e-05,-4.04752,-0.280024,-0.210696,0.58179,
2,0,0,1,0,15615.4,0.578052,0.577775,-0.0941936,23,1.17248,10,-5.44227e-05,-4.02598,-0.309608,-0.190563,0.577816,
2,0,0,1,0,15616.2,0.574056,0.573767,-0.0960667,23,1.1724,10,-5.51199e-05,-4.01743,-0.449223,-0.131338,0.573809,
2,0,0,0,0,15617,0.570061,0.569748,-0.0988846,23,1.17231,10,-5.63393e-05,-4.00487,-0.358042,-0.164785,0.569792,
2,0,0,1,0,15617.8,0.566065,0.565782,-0.101393,23,1.17222,10,-5.73666e-05,-3.99399,-0.437166,-0.13496,0.565826,
2,0,0,1,0,15618.6,0.56207,0.561795,-0.10292,23,1.17212,10,-5.78201e-05,-3.9875,-0.718281,-0.0821406,0.56184,
2,0,0,1,0,15619.4,0.558075,0.557809,-0.104301,23,1.17203,10,-5.81802e-05,-3.98171,-0.955415,-0.0617533,0.557855,
2,0,0,1,0,15620.2,0.55408,0.553759,-0.105068,23,1.17193,10,-5.81822e-05,-3.97853,-0.359717,-0.164018,0.553805,
2,0,0,0,0,15621,0.550085,0.549779,-0.107371,23,1.17184,10,-5.90303e-05,-3.96911,-0.98065,-0.0601642,0.549826,
2,0,0,1,0,15621.8,0.54609,0.545772,-0.107601,23,1.17174,10,-5.87255e-05,-3.96819,-36.9754,-0.00159565,0.54582,
2,0,0,1,0,15622.6,0.542094,0.541795,-0.109069,23,1.17164,10,-5.90929e-05,-3.9623,-0.492125,-0.119888,0.541843,
2,0,0,1,0,15623.4,0.538099,0.537799,-0.111555,23,1.17154,10,-5.99942e-05,-3.95251,-1.76629,-0.0334033,0.537848,
2,0,0,1,0,15624.2,0.534104,0.533874,-0.112346,23,1.17144,10,-5.99786e-05,-3.94944,-0.446996,-0.131992,0.533923,
2,0,0,0,0,15625,0.530109,0.529803,-0.113659,23,1.17134,10,-6.02169e-05,-3.9444,-1.28593,-0.0458812,0.529853,
2,0,0,1,0,15625.8,0.526114,0.525795,-0.113684,23,1.17124,10,-5.97746e-05,-3.9443,-0.95829,-0.061568,0.525845,
2,0,0,0,0,15626.6,0.522119,0.521775,-0.115583,23,1.17113,10,-6.03086e-05,-3.9371,-0.84389,-0.0699143,0.521826,
2,0,0,1,0,15627.4,0.518123,0.517859,-0.117304,23,1.17103,10,-6.07467e-05,-3.93069,-0.975057,-0.0605093,0.517911,
2,0,0,1,0,15628.2,0.514128,0.513812,-0.117831,23,1.17092,10,-6.0543e-05,-3.92874,-2.31107,-0.0255293,0.513863,
2,0,0,1,0,15629,0.510133,0.509792,-0.117931,23,1.17082,10,-6.01201e-05,-3.92837,-0.609784,-0.0967555,0.509844,
2,0,0,1,0,15629.8,0.506138,0.505823,-0.118827,23,1.17071,10,-6.01053e-05,-3.92509,1.22265,0.0482559,0.505875,
2,0,0,0,0,15630.6,0.502143,0.501875,-0.120274,23,1.17061,10,-6.03626e-05,-3.91983,-0.459992,-0.128263,0.501928,
2,0,0,1,0,15631.4,0.498148,0.49787,-0.122163,23,1.1705,10,-6.08213e-05,-3.91306,-1.69717,-0.0347637,0.497923,
2,0,0,1,0,15632.2,0.494152,0.493873,-0.122603,23,1.17039,10,-6.05503e-05,-3.9115,-0.761879,-0.0774401,0.493926,
2,0,0,1,0,15633,0.490157,0.489865,-0.123892,23,1.17028,10,-6.06905e-05,-3.90696,-0.726175,-0.0812477,0.489919,
2,0,0,1,0,15633.8,0.486162,0.485871,-0.125304,23,1.17017,10,-6.08815e-05,-3.90204,-5.3662,-0.0109948,0.485926,
2,0,0,0,0,15634.6,0.482167,0.481888,-0.126309,23,1.17005,10,-6.08669e-05,-3.89857,-0.514426,-0.114691,0.481944,
2,0,0,1,0,15635.4,0.478172,0.477906,-0.126845,23,1.16994,10,-6.062e-05,-3.89673,-1.66487,-0.0354383,0.477962,
2,0,0,0,0,15636.2,0.474177,0.473896,-0.129229,23,1.16983,10,-6.12412e-05,-3.88864,4.52983,0.0130248,0.473953,
2,0,0,1,0,15637,0.470181,0.469897,-0.128544,23,1.16971,10,-6.04025e-05,-3.89095,-0.461821,-0.127755,0.469953,
2,0,0,1,0,15637.8,0.466186,0.465888,-0.131681,23,1.1696,10,-6.13487e-05,-3.88048,-0.938234,-0.0628841,0.465946,
2,0,0,1,0,15638.6,0.462191,0.461878,-0.1322,23,1.16948,10,-6.10603e-05,-3.87877,-0.947615,-0.0622616,0.461936,
2,0,0,1,0,15639.4,0.458196,0.457943,-0.1347,23,1.16936,10,-6.16848e-05,-3.87063,-0.533679,-0.110553,0.458002,
2,0,0,0,0,15640.2,0.454201,0.453887,-0.13523,23,1.16924,10,-6.1379e-05,-3.86893,-1.99886,-0.0295168,0.453947,
2,0,0,1,0,15641,0.450205,0.449944,-0.137869,23,1.16912,10,-6.20332e-05,-3.86053,-0.526314,-0.1121,0.450005,
2,0,0,1,0,15641.8,0.44621,0.445942,-0.138151,23,1.169,10,-6.16072e-05,-3.85965,-1.378,-0.0428157,0.446003,
2,0,0,1,0,15642.6,0.442215,0.441929,-0.139417,23,1.16888,10,-6.16123e-05,-3.85568,-2.94479,-0.0200354,0.44199,
2,0,0,1,0,15643.4,0.43822,0.437901,-0.142074,23,1.16875,10,-6.22146e-05,-3.84748,-0.430927,-0.136914,0.437964,
2,0,0,0,0,15644.2,0.434225,0.433948,-0.142968,23,1.16863,10,-6.20408e-05,-3.84476,-0.949974,-0.0621069,0.434011,
2,0,0,1,0,15645,0.43023,0.429938,-0.145612,23,1.1685,10,-6.26043e-05,-3.8368,-0.56945,-0.103609,0.430002,
2,0,0,1,0,15645.8,0.426234,0.425943,-0.147201,23,1.16837,10,-6.26992e-05,-3.83209,-0.724873,-0.0813936,0.426008,
2,0,0,1,0,15646.6,0.422239,0.42194,-0.149303,23,1.16824,10,-6.29968e-05,-3.82593,-0.553393,-0.106615,0.422006,
2,0,0,1,0,15647.4,0.418244,0.417963,-0.150344,23,1.16811,10,-6.28383e-05,-3.82291,-3.38157,-0.0174475,0.418029,
2,0,0,0,0,15648.2,0.414249,0.413942,-0.152404,23,1.16797,10,-6.30864e-05,-3.817,-0.706912,-0.0834615,0.414009,
2,0,0,1,0,15649,0.410254,0.409983,-0.154423,23,1.16784,10,-6.33106e-05,-3.81129,-0.921762,-0.0640078,0.410051,
2,0,0,0,0,15649.8,0.406259,0.405972,-0.15678,23,1.1677,10,-6.36482e-05,-3.80471,-0.476878,-0.123721,0.406041,
2,0,0,1,0,15650.6,0.402263,0.401971,-0.158776,23,1.16756,10,-6.38235e-05,-3.79921,-1.05047,-0.0561652,0.402041,
2,0,0,1,0,15651.4,0.398268,0.397997,-0.161874,23,1.16742,10,-6.44253e-05,-3.79082,-0.84775,-0.069596,0.398068,
2,0,0,1,0,15652.2,0.394274,0.393941,-0.16244,23,1.16728,10,-6.39915e-05,-3.78931,-0.520896,-0.113266,0.394012,
2,0,0,1,0,15653,0.390278,0.38991,-0.164252,23,1.16714,10,-6.40433e-05,-3.78449,-0.949335,-0.0621488,0.389982,
2,0,0,0,0,15653.8,0.386283,0.38598,-0.16623,23,1.16699,10,-6.41616e-05,-3.77929,-1.15254,-0.0511911,0.386053,
2,0,0,1,0,15654.6,0.382287,0.382012,-0.167476,23,1.16685,10,-6.39779e-05,-3.77605,-0.465573,-0.126726,0.382086,
2,0,0,1,0,15655.4,0.378292,0.378028,-0.170075,23,1.1667,10,-6.4293e-05,-3.76936,-6.74389,-0.00874866,0.378102,
2,0,0,1,0,15656.2,0.374297,0.373993,-0.172206,23,1.16655,10,-6.44039e-05,-3.76395,-0.459525,-0.128394,0.374069,
2,0,0,1,0,15657,0.370303,0.369972,-0.173628,23,1.1664,10,-6.42376e-05,-3.76038,-1.08795,-0.0542305,0.370049,
2,0,0,0,0,15657.8,0.366307,0.365992,-0.17643,23,1.16624,10,-6.45722e-05,-3.75343,-0.506183,-0.116559,0.36607,
2,0,0,1,0,15658.6,0.362312,0.362015,-0.179187,23,1.16609,10,-6.48682e-05,-3.74669,-0.736335,-0.0801266,0.362093,
2,0,0,1,0,15659.4,0.358316,0.358043,-0.180873,23,1.16593,10,-6.47603e-05,-3.74263,-1.75632,-0.033593,0.358122,
2,0,0,1,0,15660.2,0.354321,0.354014,-0.183258,23,1.16577,10,-6.48759e-05,-3.73694,-0.616527,-0.0956973,0.354094,
2,0,0,1,0,15661,0.350327,0.350003,-0.185426,23,1.16561,10,-6.48996e-05,-3.73183,-0.783155,-0.0753363,0.350084,
2,0,0,0,0,15661.8,0.346331,0.346045,-0.188306,23,1.16545,10,-6.51623e-05,-3.72514,-1.51068,-0.0390552,0.346128,
2,0,0,1,0,15662.6,0.342336,0.342038,-0.190604,23,1.16528,10,-6.51938e-05,-3.71987,-0.378241,-0.155985,0.342121,
2,0,0,0,0,15663.4,0.338341,0.33803,-0.192248,23,1.16512,10,-6.49855e-05,-3.71614,-1.97233,-0.0299139,0.338115,
2,0,0,1,0,15664.2,0.334345,0.334033,-0.196663,23,1.16495,10,-6.5692e-05,-3.70628,-0.657246,-0.0897685,0.33412,
2,0,0,1,0,15665,0.33035,0.330057,-0.198107,23,1.16478,10,-6.53865e-05,-3.7031,-0.604104,-0.0976653,0.330144,
2,0,0,1,0,15665.8,0.326355,0.326018,-0.200839,23,1.16461,10,-6.54773e-05,-3.69715,-1.61045,-0.0366357,0.326107,
2,0,0,1,0,15666.6,0.32236,0.322069,-0.201255,23,1.16443,10,-6.4818e-05,-3.69625,-0.569233,-0.103648,0.322158,
2,0,0,0,0,15667.4,0.318365,0.318071,-0.203641,23,1.16426,10,-6.47725e-05,-3.69113,-0.765561,-0.0770677,0.318161,
2,0,0,1,0,15668.2,0.31437,0.314065,-0.207632,23,1.16408,10,-6.52099e-05,-3.68271,-0.956868,-0.0616595,0.314156,
2,0,0,1,0,15669,0.310374,0.310053,-0.210055,23,1.1639,10,-6.51284e-05,-3.67767,-0.429408,-0.137398,0.310146,
2,0,0,1,0,15669.8,0.306379,0.306056,-0.212441,23,1.16371,10,-6.50189e-05,-3.67276,-1.16532,-0.0506301,0.306149,
2,0,0,1,0,15670.5,0.302385,0.302089,-0.215195,23,1.16353,10,-6.50082e-05,-3.66717,-0.640482,-0.0921182,0.302184,
2,0,0,0,0,15671.3,0.298389,0.298128,-0.217652,23,1.16334,10,-6.48881e-05,-3.66224,-1.0948,-0.0538913,0.298224,
2,0,0,1,0,15672.1,0.294394,0.294063,-0.220299,23,1.16315,10,-6.47817e-05,-3.65699,-0.951358,-0.0620166,0.29416,
2,0,0,1,0,15672.9,0.290398,0.290073,-0.222577,23,1.16296,10,-6.45636e-05,-3.65252,-0.691225,-0.0853557,0.290171,
2,0,0,1,0,15673.7,0.286403,0.28609,-0.22374,23,1.16277,10,-6.40099e-05,-3.65026,-0.659138,-0.0895108,0.286189,
2,0,0,1,0,15674.5,0.282408,0.282107,-0.227972,23,1.16258,10,-6.43123e-05,-3.64212,-1.31933,-0.0447196,0.282207,
2,0,0,1,0,15675.3,0.278414,0.278151,-0.229907,23,1.16238,10,-6.39488e-05,-3.63845,-0.580568,-0.101625,0.278252,
2,0,0,1,0,15676.1,0.274418,0.274118,-0.23278,23,1.16218,10,-6.38092e-05,-3.63305,-1.12109,-0.0526275,0.274221,
2,0,0,0,0,15676.9,0.270423,0.270101,-0.236201,23,1.16198,10,-6.37981e-05,-3.62672,-0.645899,-0.0913455,0.270205,
2,0,0,1,0,15677.7,0.266427,0.266109,-0.238819,23,1.16178,10,-6.35517e-05,-3.62193,-0.825247,-0.0714938,0.266214,
2,0,0,1,0,15678.5,0.262432,0.262125,-0.240947,23,1.16157,10,-6.31584e-05,-3.61808,-0.946616,-0.0623273,0.262231,
2,0,0,1,0,15679.3,0.258437,0.258161,-0.243633,23,1.16136,10,-6.28964e-05,-3.61326,-0.888856,-0.0663775,0.258268,
2,0,0,1,0,15680.1,0.254442,0.25412,-0.245571,23,1.16115,10,-6.24046e-05,-3.60982,-0.830867,-0.0710102,0.254228,
2,0,0,0,0,15680.9,0.250447,0.250116,-0.248404,23,1.16094,10,-6.21298e-05,-3.60484,-2.00693,-0.0293982,0.250225,
2,0,0,1,0,15681.7,0.246452,0.246148,-0.25221,23,1.16073,10,-6.20811e-05,-3.59824,-0.639183,-0.0923053,0.246259,
2,0,0,1,0,15682.5,0.242456,0.242165,-0.253147,23,1.16051,10,-6.13034e-05,-3.59663,-1.26487,-0.0466453,0.242276,
2,0,0,1,0,15683.3,0.238461,0.238142,-0.256402,23,1.16029,10,-6.106e-05,-3.59108,-0.714698,-0.0825524,0.238255,
2,0,0,1,0,15684.1,0.234467,0.234117,-0.259114,23,1.16008,10,-6.0663e-05,-3.58651,-0.586348,-0.100623,0.234231,
2,0,0,0,0,15684.9,0.230471,0.230182,-0.261501,23,1.15985,10,-6.01928e-05,-3.58253,-1.85195,-0.0318583,0.230297,
2,0,0,1,0,15685.7,0.226476,0.226179,-0.264621,23,1.15963,10,-5.98516e-05,-3.57738,-0.885956,-0.0665948,0.226295,
2,0,0,0,0,15686.5,0.222481,0.222183,-0.265583,23,1.15941,10,-5.90079e-05,-3.5758,-1.29674,-0.0454986,0.2223,
2,0,0,1,0,15687.3,0.218485,0.218202,-0.269272,23,1.15918,10,-5.87557e-05,-3.56981,-1.01379,-0.0581974,0.218321,
2,0,0,1,0,15688.1,0.21449,0.21418,-0.27233,23,1.15895,10,-5.83275e-05,-3.56491,-0.661933,-0.0891329,0.2143,
2,0,0,1,0,15688.9,0.210496,0.210187,-0.276216,23,1.15871,10,-5.80571e-05,-3.55875,-0.964541,-0.061169,0.210309,
2,0,0,1,0,15689.7,0.2065,0.206147,-0.279328,23,1.15848,10,-5.75827e-05,-3.55389,-0.708543,-0.0832694,0.20627,
2,0,0,0,0,15690.5,0.202505,0.202184,-0.281891,23,1.15824,10,-5.69938e-05,-3.54992,-0.615442,-0.095866,0.202308,
2,0,0,1,0,15691.3,0.198509,0.198163,-0.286294,23,1.158,10,-5.6733e-05,-3.54319,-0.661843,-0.089145,0.198289,
2,0,0,1,0,15692.1,0.194514,0.194193,-0.289831,23,1.15776,10,-5.62832e-05,-3.53786,-0.685546,-0.0860628,0.194321,
2,0,0,1,0,15692.9,0.190519,0.190209,-0.293743,23,1.15751,10,-5.58725e-05,-3.53203,-0.524071,-0.11258,0.190338,
2,0,0,1,0,15693.7,0.186524,0.186218,-0.299557,23,1.15726,10,-5.5783e-05,-3.52352,-0.796295,-0.0740932,0.18635,
2,0,0,0,0,15694.5,0.182529,0.182199,-0.305119,23,1.157,10,-5.55925e-05,-3.51553,-0.419296,-0.140712,0.182334,
2,0,0,1,0,15695.3,0.178534,0.178206,-0.312014,23,1.15674,10,-5.56027e-05,-3.50583,-0.376808,-0.156578,0.178343,
2,0,0,1,0,15696.1,0.174538,0.174195,-0.320101,23,1.15648,10,-5.576e-05,-3.49471,-0.327315,-0.180254,0.174336,
2,0,0,1,0,15696.9,0.170543,0.170268,-0.330095,23,1.1562,10,-5.62045e-05,-3.48136,-0.26278,-0.224523,0.170413,
2,0,0,1,0,15697.7,0.166549,0.166235,-0.34094,23,1.15592,10,-5.66762e-05,-3.46732,-0.244169,-0.241635,0.166385,
2,0,0,0,0,15698.5,0.162553,0.162247,-0.356372,23,1.15563,10,-5.78201e-05,-3.4481,-0.23052,-0.255943,0.162403,
2,0,0,1,0,15699.3,0.158558,0.158301,-0.371698,23,1.15532,10,-5.88402e-05,-3.42981,-0.158852,-0.371415,0.158464,
2,0,0,0,0,15700.1,0.154563,0.15423,-0.39791,23,1.155,10,-6.13697e-05,-3.40021,-0.140306,-0.420509,0.154405,
2,0,0,1,0,15700.9,0.150567,0.150244,-0.426396,23,1.15466,10,-6.40633e-05,-3.37019,-0.110345,-0.534688,0.150431,
2,0,0,1,0,15701.7,0.146572,0.146241,-0.469007,23,1.15429,10,-6.85881e-05,-3.32882,-0.0907756,-0.649954,0.146447,
2,0,0,1,0,15702.5,0.142578,0.142273,-0.522315,23,1.15388,10,-7.43115e-05,-3.28207,-0.0826152,-0.714154,0.142503,
2,0,0,1,0,15703.3,0.138582,0.138265,-0.581397,23,1.15342,10,-8.03866e-05,-3.23553,-0.0830594,-0.710335,0.13852,
2,0,0,0,0,15704.1,0.134587,0.134261,-0.645255,23,1.15292,10,-8.66329e-05,-3.19027,-0.101838,-0.579352,0.134545,
2,0,0,1,0,15704.9,0.130591,0.130295,-0.698986,23,1.15237,10,-9.10744e-05,-3.15553,-0.133798,-0.440963,0.130603,
2,0,0,1,0,15705.7,0.126596,0.126304,-0.73679,23,1.15177,10,-9.30595e-05,-3.13266,-0.209642,-0.281432,0.126628,
2,0,0,1,0,15706.5,0.122602,0.122235,-0.761511,23,1.15116,10,-9.30829e-05,-3.11832,-0.620925,-0.0950195,0.12257,
2,0,0,1,0,15707.3,0.118607,0.118269,-0.768995,23,1.15053,10,-9.09481e-05,-3.11408,-1.12131,-0.0526171,0.118607,
2,0,0,0,0,15708.1,0.114611,0.114288,-0.76875,23,1.1499,10,-8.78586e-05,-3.11421,0.905073,0.0651881,0.114626,
2,0,0,1,0,15708.9,0.110616,0.110248,-0.760682,23,1.14928,10,-8.38633e-05,-3.1188,0.909373,0.0648798,0.110582,
2,0,0,1,0,15709.7,0.10662,0.10634,-0.750589,23,1.14866,10,-7.98173e-05,-3.1246,0.678845,0.0869124,0.10667,
2,0,0,1,0,15710.5,0.102625,0.102334,-0.737159,23,1.14805,10,-7.54363e-05,-3.13244,0.444394,0.132765,0.102658,
2,0,0,1,0,15711.3,0.0986305,0.0982884,-0.724608,23,1.14745,10,-7.12205e-05,-3.1399,0.512691,0.115079,0.0986072,
2,0,0,0,0,15712.1,0.0946351,0.0942799,-0.706741,23,1.14687,10,-6.66315e-05,-3.15074,0.43064,0.137005,0.0945909,
2,0,0,1,0,15712.9,0.0906399,0.0902769,-0.694769,23,1.14629,10,-6.27215e-05,-3.15816,0.448578,0.131527,0.0905826,
2,0,0,0,0,15713.7,0.0866448,0.086311,-0.681074,23,1.14573,10,-5.87842e-05,-3.16681,0.52818,0.111704,0.0866106,
2,0,0,1,0,15714.5,0.0826492,0.0823106,-0.670397,23,1.14517,10,-5.51808e-05,-3.17367,0.493764,0.11949,0.0826056,
2,0,0,1,0,15715.3,0.0786544,0.0783238,-0.659567,23,1.14463,10,-5.16598e-05,-3.18074,0.651072,0.0906198,0.078614,
2,0,0,1,0,15716.1,0.0746596,0.0743618,-0.649164,23,1.14409,10,-4.8273e-05,-3.18765,0.641655,0.0919497,0.0746474,
2,0,0,1,0,15716.9,0.0706641,0.0703635,-0.64017,23,1.14356,10,-4.50446e-05,-3.1937,0.655705,0.0899795,0.0706452,
2,0,0,0,0,15717.7,0.0666689,0.066352,-0.631268,23,1.14304,10,-4.18859e-05,-3.19979,0.668442,0.0882649,0.0666297,
2,0,0,1,0,15718.5,0.0626737,0.0623659,-0.621383,23,1.14253,10,-3.87531e-05,-3.20664,0.722711,0.081637,0.0626393,
2,0,0,1,0,15719.3,0.0586783,0.0583222,-0.613215,23,1.14202,10,-3.5764e-05,-3.21239,0.431826,0.136629,0.058592,
2,0,0,1,0,15720.1,0.0546835,0.0543567,-0.602671,23,1.14152,10,-3.27592e-05,-3.21992,0.68344,0.086328,0.0546219,
2,0,0,1,0,15720.9,0.0506886,0.0503477,-0.592968,23,1.14103,10,-2.98546e-05,-3.22697,0.550664,0.107143,0.0506086,
2,0,0,0,0,15721.7,0.046693,0.0463676,-0.582652,23,1.14054,10,-2.70161e-05,-3.23459,0.510587,0.115553,0.0466239,
2,0,0,1,0,15722.5,0.0426979,0.0424271,-0.57047,23,1.14007,10,-2.42034e-05,-3.24377,0.524533,0.112481,0.0426781,
2,0,0,1,0,15723.3,0.0387022,0.0383336,-0.560857,23,1.1396,10,-2.14997e-05,-3.25115,0.416849,0.141538,0.0385804,
2,0,0,1,0,15724.1,0.0347074,0.0343784,-0.550221,23,1.13914,10,-1.89157e-05,-3.25946,0.524138,0.112566,0.0346205,
2,0,0,1,0,15724.9,0.0307126,0.0304054,-0.537088,23,1.1387,10,-1.63304e-05,-3.26995,0.505996,0.116602,0.0306418,
2,0,0,0,0,15725.7,0.0267172,0.0264202,-0.53135,23,1.13825,10,-1.40384e-05,-3.27462,0.424706,0.13892,0.026654,
2,0,0,1,0,15726.5,0.022722,0.0223939,-0.522414,23,1.13782,10,-1.16989e-05,-3.28199,0.767504,0.0768726,0.0226237,
2,0,0,0,0,15727.3,0.0187268,0.0183951,-0.513709,23,1.13739,10,-9.44972e-06,-3.28928,0.70251,0.0839846,0.0186211,
2,0,0,1,0,15728.1,0.0147313,0.0144022,-0.509651,23,1.13697,10,-7.34009e-06,-3.29273,0.799626,0.0737845,0.0146264,
2,0,0,1,0,15728.9,0.0107365,0.0103838,-0.504113,23,1.13656,10,-5.23462e-06,-3.29747,1.88378,0.03132,0.0106056,
2,0,0,1,0,15729.7,0.00674163,0.00641484,-0.502002,23,1.13614,10,-3.22026e-06,-3.29929,27.8846,0.00211586,0.00663572,
2,0,0,1,0,15730.5,0.00274612,0.00240947,-0.501681,23,1.13573,10,-1.20878e-06,-3.29957,-13.6381,-0.00432612,0.0026302,
2,0,0,0,0,15731,0.000274105,-0.000115363,-0.502903,23,1.13547,10,5.80164e-08,-3.29852, , ,0.000105914,