File: Figure_codes/Fig_3-5/workspace_calculate_alpha_eff/20221101_1-115_003_TrumpetPlot_ParaChange_from10_every3_16_CV_C01_14.csv
mode,ox/red,error,control changes,counter inc.,time/s,control/V,Ewe/V,<I>/mA,cycle number,(Q-Qo)/C,I Range,P/W,log(|I|),Tafel slope mV/dec,alpha_eff,E-IR/V,
2,0,0,0,0,9850.64,2.44065e-05,-0.000363498,-0.0885815,15,0.0000000E+000,10,3.21992e-08,-4.05266, , ,-0.000324522,
2,1,0,0,0,9851.4,0.00379485,0.00349638,0.156029,15,0.000105446,10,5.45536e-07,-3.8068,0.0399899,1.47537,0.00342773,
2,1,0,1,0,9852.19,0.00779002,0.00749199,0.179418,15,0.000254225,10,1.3442e-06,-3.74613,0.0800678,0.736875,0.00741305,
2,1,0,0,0,9852.99,0.0117852,0.011495,0.195453,15,0.000418464,10,2.24674e-06,-3.70896,0.119641,0.493141,0.011409,
2,1,0,1,0,9853.79,0.0157806,0.015475,0.212431,15,0.000595004,10,3.28737e-06,-3.67278,0.142735,0.413354,0.0153815,
2,1,0,1,0,9854.59,0.0197754,0.019466,0.22548,15,0.000782617,10,4.38919e-06,-3.64689,0.135215,0.436341,0.0193668,
2,1,0,1,0,9855.39,0.0237704,0.0234868,0.237551,15,0.000981456,10,5.5793e-06,-3.62424,0.156646,0.376646,0.0233822,
2,1,0,1,0,9856.19,0.0277659,0.0274499,0.252563,15,0.00119108,10,6.93282e-06,-3.59763,0.182895,0.322589,0.0273388,
2,1,0,0,0,9856.99,0.0317611,0.031454,0.26676,15,0.0014122,10,8.39067e-06,-3.57388,0.151113,0.390436,0.0313366,
2,1,0,1,0,9857.79,0.0357567,0.0354598,0.281936,15,0.00164553,10,9.99738e-06,-3.54985,0.205936,0.286497,0.0353357,
2,1,0,1,0,9858.59,0.0397516,0.0394157,0.297114,15,0.00189015,10,1.1711e-05,-3.52708,0.163113,0.361713,0.0392849,
2,1,0,1,0,9859.39,0.0437465,0.0434587,0.311309,15,0.00214724,10,1.35291e-05,-3.50681,0.191997,0.307297,0.0433217,
2,1,0,1,0,9860.18,0.0477413,0.0474424,0.327314,15,0.00241553,10,1.55285e-05,-3.48504,0.213073,0.276901,0.0472984,
2,1,0,0,0,9860.98,0.0517369,0.0514289,0.339839,15,0.00269454,10,1.74775e-05,-3.46873,0.216155,0.272953,0.0512793,
2,1,0,1,0,9861.78,0.0557321,0.0554054,0.353461,15,0.00298508,10,1.95836e-05,-3.45166,0.295736,0.199502,0.0552499,
2,1,0,1,0,9862.58,0.0597277,0.0593792,0.365298,15,0.00328527,10,2.16911e-05,-3.43735,0.268963,0.219361,0.0592185,
2,1,0,1,0,9863.38,0.0637226,0.0634041,0.378536,15,0.003596,10,2.40007e-05,-3.42189,0.266701,0.221222,0.0632376,
2,1,0,1,0,9864.18,0.0677174,0.067374,0.390327,15,0.00391696,10,2.62979e-05,-3.40857,0.379025,0.155662,0.0672023,
2,1,0,0,0,9864.98,0.0717128,0.0713963,0.401194,15,0.00424644,10,2.86438e-05,-3.39665,0.316709,0.186291,0.0712198,
2,1,0,1,0,9865.78,0.075708,0.0753877,0.410702,15,0.004585,10,3.09619e-05,-3.38647,0.345774,0.170632,0.075207,
2,1,0,0,0,9866.58,0.0797031,0.0794056,0.422647,15,0.00493148,10,3.35605e-05,-3.37402,0.387879,0.152109,0.0792196,
2,1,0,1,0,9867.38,0.0836986,0.0834058,0.431741,15,0.00528605,10,3.60097e-05,-3.36478,0.307941,0.191595,0.0832158,
2,1,0,1,0,9868.18,0.0876935,0.0873682,0.445288,15,0.00565053,10,3.8904e-05,-3.35136,0.329747,0.178925,0.0871723,
2,1,0,1,0,9868.97,0.0916883,0.0914249,0.461525,15,0.00602568,10,4.21948e-05,-3.33581,0.247826,0.238071,0.0912218,
2,1,0,1,0,9869.77,0.0956838,0.09537,0.478099,15,0.00641469,10,4.55963e-05,-3.32048,0.201282,0.293121,0.0951596,
2,1,0,0,0,9870.57,0.099679,0.0993709,0.50163,15,0.00682089,10,4.98474e-05,-3.29962,0.195448,0.30187,0.0991502,
2,1,0,1,0,9871.37,0.103674,0.103356,0.527899,15,0.00724641,10,5.45615e-05,-3.27745,0.177887,0.331671,0.103124,
2,1,0,1,0,9872.17,0.10767,0.107374,0.5501,15,0.0076929,10,5.90665e-05,-3.25956,0.216015,0.273129,0.107132,
2,1,0,1,0,9872.97,0.111664,0.111352,0.575155,15,0.00815783,10,6.40448e-05,-3.24022,0.24144,0.244367,0.111099,
2,1,0,1,0,9873.77,0.115659,0.115283,0.593992,15,0.00863927,10,6.84771e-05,-3.22622,0.265962,0.221836,0.115022,
2,1,0,0,0,9874.57,0.119655,0.119349,0.61369,15,0.00913668,10,7.32433e-05,-3.21205,0.397289,0.148507,0.119079,
2,1,0,1,0,9875.37,0.12365,0.123337,0.630745,15,0.00964741,10,7.77944e-05,-3.20015,0.292523,0.201693,0.12306,
2,1,0,1,0,9876.17,0.127646,0.127296,0.648469,15,0.0101734,10,8.25476e-05,-3.18811,0.361311,0.163294,0.127011,
2,1,0,1,0,9876.96,0.131641,0.131326,0.663015,15,0.0107128,10,8.70713e-05,-3.17848,1.70448,0.0346147,0.131035,
2,1,0,1,0,9877.76,0.135635,0.135305,0.661593,15,0.0112563,10,8.95165e-05,-3.17941,-0.651772,-0.0905225,0.135013,
2,1,0,0,0,9878.56,0.139631,0.139342,0.63432,15,0.0117899,10,8.83874e-05,-3.19769,-0.146737,-0.40208,0.139063,
2,1,0,1,0,9879.36,0.143626,0.143314,0.585174,15,0.0122924,10,8.38637e-05,-3.23272,-0.0940905,-0.627056,0.143057,
2,1,0,0,0,9880.16,0.147621,0.147332,0.521488,15,0.0127482,10,7.68319e-05,-3.28276,-0.0727569,-0.81092,0.147103,
2,1,0,1,0,9880.96,0.151617,0.151322,0.455357,15,0.0131511,10,6.89054e-05,-3.34165,-0.0697431,-0.845962,0.151121,
2,1,0,1,0,9881.76,0.155612,0.155321,0.403905,15,0.0135063,10,6.2735e-05,-3.39372,-0.083984,-0.702515,0.155143,
2,1,0,1,0,9882.56,0.159606,0.159307,0.364856,15,0.013826,10,5.81241e-05,-3.43788,-0.103678,-0.569068,0.159147,
2,1,0,1,0,9883.36,0.163602,0.163304,0.338212,15,0.0141198,10,5.52314e-05,-3.47081,-0.130366,-0.452571,0.163155,
2,1,0,0,0,9884.16,0.167597,0.167265,0.317943,15,0.0143947,10,5.31806e-05,-3.49765,-0.190697,-0.309391,0.167125,
2,1,0,1,0,9884.96,0.171592,0.171263,0.302109,15,0.0146564,10,5.17402e-05,-3.51984,-0.207586,-0.28422,0.17113,
2,1,0,1,0,9885.75,0.175588,0.175278,0.29239,15,0.0149074,10,5.12495e-05,-3.53404,-0.278593,-0.211778,0.17515,
2,1,0,1,0,9886.55,0.179582,0.179251,0.283168,15,0.0151503,10,5.07582e-05,-3.54796,-0.323793,-0.182215,0.179127,
2,1,0,1,0,9887.35,0.183577,0.183274,0.275548,15,0.0153872,10,5.05007e-05,-3.5598,-0.424136,-0.139106,0.183153,
2,1,0,0,0,9888.15,0.187573,0.187257,0.270108,15,0.0156191,10,5.05797e-05,-3.56846,-0.39684,-0.148675,0.187139,
2,1,0,1,0,9888.95,0.191568,0.191256,0.266408,15,0.0158466,10,5.09522e-05,-3.57445,-0.548417,-0.107582,0.191139,
2,1,0,0,0,9889.75,0.195563,0.195266,0.261219,15,0.0160709,10,5.1007e-05,-3.583,-0.457154,-0.129059,0.195151,
2,1,0,1,0,9890.55,0.199559,0.199273,0.258095,15,0.0162919,10,5.14314e-05,-3.58822,-3.32769,-0.01773,0.19916,
2,1,0,1,0,9891.35,0.203553,0.203243,0.253483,15,0.0165106,10,5.15186e-05,-3.59605,-0.720467,-0.0818913,0.203131,
2,1,0,1,0,9892.15,0.207548,0.207223,0.252617,15,0.016727,10,5.23481e-05,-3.59754,-1.32705,-0.0444596,0.207112,
2,1,0,1,0,9892.95,0.211544,0.211254,0.249748,15,0.016941,10,5.27603e-05,-3.6025,-0.862601,-0.0683978,0.211145,
2,1,0,0,0,9893.74,0.215539,0.215215,0.247726,15,0.0171533,10,5.33144e-05,-3.60603,-1.11877,-0.0527363,0.215106,
2,1,0,1,0,9894.54,0.219535,0.219201,0.246707,15,0.0173639,10,5.40783e-05,-3.60782,-0.712262,-0.0828347,0.219092,
2,1,0,1,0,9895.34,0.223529,0.223198,0.243429,15,0.017573,10,5.43327e-05,-3.61363,-18.507,-0.00318798,0.223091,
2,1,0,1,0,9896.14,0.227524,0.22719,0.242081,15,0.017781,10,5.49985e-05,-3.61604,-0.746889,-0.0789944,0.227083,
2,1,0,1,0,9896.94,0.23152,0.231206,0.241635,15,0.0179876,10,5.58675e-05,-3.61684,11.3156,0.00521403,0.2311,
2,1,0,0,0,9897.74,0.235515,0.235182,0.238121,15,0.0181934,10,5.60019e-05,-3.6232,-3.1612,-0.0186638,0.235078,
2,1,0,1,0,9898.54,0.23951,0.239193,0.238383,15,0.0183981,10,5.70195e-05,-3.62272,-1.13511,-0.0519776,0.239088,
2,1,0,1,0,9899.34,0.243506,0.243185,0.237865,15,0.018602,10,5.78452e-05,-3.62367,-2.73154,-0.0215996,0.24308,
2,1,0,1,0,9900.14,0.2475,0.247169,0.237626,15,0.0188053,10,5.87338e-05,-3.62411,-2.34938,-0.025113,0.247065,
2,1,0,1,0,9900.94,0.251495,0.251196,0.23629,15,0.0190074,10,5.93551e-05,-3.62655,-1.95916,-0.030115,0.251092,
2,1,0,0,0,9901.73,0.255491,0.255202,0.234543,15,0.0192089,10,5.98559e-05,-3.62978,-1.6488,-0.0357835,0.255099,
2,1,0,1,0,9902.53,0.259486,0.259199,0.234007,15,0.0194097,10,6.06544e-05,-3.63077,-1.76375,-0.0334514,0.259096,
2,1,0,0,0,9903.33,0.263481,0.26324,0.232766,15,0.0196096,10,6.12734e-05,-3.63308,-3.70666,-0.0159173,0.263137,
2,1,0,1,0,9904.13,0.267477,0.267133,0.231831,15,0.019809,10,6.19296e-05,-3.63483,-2.50935,-0.0235121,0.267031,
2,1,0,1,0,9904.93,0.271471,0.271185,0.230802,15,0.0200073,10,6.25902e-05,-3.63676,-1.74258,-0.0338578,0.271084,
2,1,0,1,0,9905.73,0.275466,0.275151,0.230996,15,0.020205,10,6.35587e-05,-3.6364,3.29272,0.0179183,0.275049,
2,1,0,1,0,9906.53,0.279462,0.27919,0.230257,15,0.020402,10,6.42857e-05,-3.63779,-1.27662,-0.0462157,0.279089,
2,1,0,0,0,9907.33,0.283457,0.283151,0.229253,15,0.0205982,10,6.49133e-05,-3.63968,-4.991,-0.0118213,0.28305,
2,1,0,1,0,9908.13,0.287452,0.287106,0.228404,15,0.0207937,10,6.55762e-05,-3.6413,-2.69305,-0.0219082,0.287006,
2,1,0,1,0,9908.93,0.291448,0.291147,0.22739,15,0.0209886,10,6.6204e-05,-3.64323,-0.966536,-0.0610427,0.291047,
2,1,0,1,0,9909.73,0.295442,0.295154,0.226968,15,0.0211825,10,6.69903e-05,-3.64404,-8.98616,-0.00656565,0.295054,
2,1,0,1,0,9910.52,0.299437,0.299143,0.223756,15,0.021376,10,6.69349e-05,-3.65023,-14.28,-0.00413164,0.299044,
2,1,0,0,0,9911.32,0.303433,0.30314,0.22543,15,0.0215688,10,6.83367e-05,-3.64699,-2.0396,-0.0289272,0.303041,
2,1,0,1,0,9912.12,0.307428,0.307101,0.223413,15,0.0217607,10,6.86104e-05,-3.65089,20.273,0.00291028,0.307003,
2,1,0,1,0,9912.92,0.311424,0.311142,0.223243,15,0.0219522,10,6.94603e-05,-3.65122,-1.18026,-0.0499888,0.311044,
2,1,0,1,0,9913.72,0.315418,0.315115,0.221916,15,0.0221429,10,6.99289e-05,-3.65381,-2.60653,-0.0226355,0.315017,
2,1,0,1,0,9914.52,0.319413,0.319114,0.221788,15,0.0223333,10,7.07756e-05,-3.65406,-43.8847,-0.00134443,0.319016,
2,1,0,0,0,9915.32,0.323409,0.323082,0.221986,15,0.0225234,10,7.17197e-05,-3.65367,-1.26599,-0.0466037,0.322984,
2,1,0,1,0,9916.12,0.327404,0.327102,0.220579,15,0.0227125,10,7.21516e-05,-3.65644,51.2852,0.00115043,0.327005,
2,1,0,0,0,9916.92,0.331399,0.331116,0.219922,15,0.0229013,10,7.28199e-05,-3.65773,-1.41093,-0.0418165,0.33102,
2,1,0,1,0,9917.72,0.335395,0.335077,0.219993,15,0.0230895,10,7.37148e-05,-3.65759,10.4289,0.00565738,0.334981,
2,1,0,1,0,9918.51,0.339389,0.339086,0.219375,15,0.0232771,10,7.43871e-05,-3.65881,-2.32224,-0.0254065,0.33899,
2,1,0,1,0,9919.31,0.343384,0.343089,0.217527,15,0.0234645,10,7.46311e-05,-3.66249,-1.24643,-0.0473352,0.342993,
2,1,0,1,0,9920.11,0.34738,0.347048,0.219548,15,0.0236511,10,7.61937e-05,-3.65847,7.92831,0.00744169,0.346951,
2,1,0,0,0,9920.91,0.351375,0.351046,0.217089,15,0.0238373,10,7.62082e-05,-3.66336,-11.9182,-0.00495041,0.35095,
2,1,0,1,0,9921.71,0.35537,0.355094,0.216541,15,0.0240231,10,7.68925e-05,-3.66446,-1.92921,-0.0305824,0.354999,
2,1,0,1,0,9922.51,0.359366,0.35902,0.2153,15,0.0242083,10,7.72972e-05,-3.66696,5.1714,0.0114089,0.358925,
2,1,0,1,0,9923.31,0.36336,0.363054,0.21547,15,0.0243931,10,7.82271e-05,-3.66661,-1.91061,-0.0308801,0.362959,
2,1,0,1,0,9924.11,0.367355,0.367075,0.21601,15,0.0245775,10,7.9292e-05,-3.66553,-2.8304,-0.0208451,0.36698,
2,1,0,0,0,9924.91,0.371351,0.371064,0.21544,15,0.0247613,10,7.99421e-05,-3.66667,2.29164,0.0257457,0.370969,
2,1,0,1,0,9925.71,0.375346,0.37508,0.214065,15,0.024945,10,8.02915e-05,-3.66945,-1.58612,-0.0371976,0.374986,
2,1,0,1,0,9926.5,0.379342,0.37905,0.214617,15,0.0251283,10,8.13506e-05,-3.66834,80.7087,0.000731024,0.378956,
2,1,0,1,0,9927.3,0.383336,0.383002,0.213586,15,0.0253112,10,8.18039e-05,-3.67043,6.6726,0.00884213,0.382908,
2,1,0,1,0,9928.1,0.387331,0.387018,0.214124,15,0.0254941,10,8.28697e-05,-3.66934,-0.87401,-0.0675049,0.386923,
2,1,0,0,0,9928.9,0.391327,0.391051,0.212834,15,0.0256764,10,8.3229e-05,-3.67196,7.98847,0.00738564,0.390957,
2,1,0,1,0,9929.7,0.395322,0.395037,0.211386,15,0.0258588,10,8.3505e-05,-3.67492,-41.6872,-0.0014153,0.394944,
2,1,0,0,0,9930.5,0.399317,0.399009,0.212675,15,0.026041,10,8.48593e-05,-3.67228,-3.52003,-0.0167612,0.398915,
2,1,0,1,0,9931.3,0.403313,0.40303,0.212246,15,0.0262228,10,8.55414e-05,-3.67316,-4.16871,-0.0141531,0.402937,
2,1,0,1,0,9932.1,0.407307,0.407012,0.212164,15,0.0264045,10,8.63531e-05,-3.67333,11.3025,0.00522009,0.406918,
2,1,0,1,0,9932.9,0.411302,0.411007,0.213031,15,0.026586,10,8.75572e-05,-3.67156,1.25281,0.0470943,0.410913,
2,1,0,1,0,9933.7,0.415298,0.415021,0.211718,15,0.0267676,10,8.78675e-05,-3.67424,-2.26494,-0.0260493,0.414928,
2,1,0,0,0,9934.5,0.419293,0.419015,0.212493,15,0.0269489,10,8.90375e-05,-3.67266,-1.0225,-0.0577015,0.418921,
2,1,0,1,0,9935.29,0.423288,0.423009,0.211392,15,0.0271299,10,8.94209e-05,-3.67491,1.01367,0.0582043,0.422916,
2,1,0,1,0,9936.09,0.427283,0.427028,0.211529,15,0.027311,10,9.03288e-05,-3.67463,-3.11408,-0.0189462,0.426935,
2,1,0,1,0,9936.89,0.431278,0.430953,0.211593,15,0.0274917,10,9.11867e-05,-3.6745,-2.27111,-0.0259785,0.43086,
2,1,0,1,0,9937.69,0.435273,0.435019,0.211819,15,0.0276723,10,9.21453e-05,-3.67404,3.23154,0.0182576,0.434926,
2,1,0,0,0,9938.49,0.439269,0.438924,0.211184,15,0.027853,10,9.26936e-05,-3.67534,19.7942,0.00298067,0.438831,
2,1,0,1,0,9939.29,0.443264,0.442995,0.212242,15,0.0280338,10,9.40223e-05,-3.67317,4.01882,0.0146809,0.442901,
2,1,0,0,0,9940.09,0.447259,0.446937,0.211727,15,0.0282147,10,9.46286e-05,-3.67422,-31.329,-0.00188324,0.446844,
2,1,0,1,0,9940.89,0.451254,0.450948,0.21207,15,0.0283957,10,9.56326e-05,-3.67352,-7.44639,-0.0079233,0.450855,
2,1,0,1,0,9941.69,0.455249,0.454979,0.211954,15,0.0285767,10,9.64346e-05,-3.67376,6.55873,0.00899565,0.454886,
2,1,0,1,0,9942.49,0.459244,0.458959,0.212275,15,0.028758,10,9.74256e-05,-3.6731,2.22635,0.0265008,0.458866,
2,1,0,1,0,9943.28,0.46324,0.462944,0.212902,15,0.0289397,10,9.85617e-05,-3.67182,-5.0693,-0.0116387,0.46285,
2,1,0,0,0,9944.08,0.467235,0.466914,0.213436,15,0.0291215,10,9.96565e-05,-3.67073,1.47149,0.0400955,0.46682,
2,1,0,1,0,9944.88,0.471231,0.470891,0.214133,15,0.0293039,10,0.000100834,-3.66932,10.1076,0.00583717,0.470797,
2,1,0,1,0,9945.68,0.475225,0.474896,0.215402,15,0.0294866,10,0.000102293,-3.66675,9.80474,0.0060175,0.474801,
2,1,0,1,0,9946.48,0.47922,0.478933,0.214839,15,0.0296696,10,0.000102893,-3.66789,2.53599,0.0232651,0.478838,
2,1,0,1,0,9947.28,0.483216,0.482893,0.21678,15,0.0298533,10,0.000104682,-3.66398,2.47269,0.0238607,0.482798,
2,1,0,0,0,9948.08,0.487211,0.486916,0.216765,15,0.0300374,10,0.000105546,-3.66401,2.37175,0.0248762,0.48682,
2,1,0,1,0,9948.88,0.491206,0.490934,0.217042,15,0.0302222,10,0.000106553,-3.66346,1.64347,0.0358996,0.490839,
2,1,0,1,0,9949.68,0.495201,0.494907,0.218592,15,0.0304076,10,0.000108183,-3.66037,2.38182,0.0247709,0.494811,
2,1,0,1,0,9950.48,0.499196,0.498907,0.218816,15,0.0305937,10,0.000109169,-3.65992,1.47176,0.0400879,0.49881,
2,1,0,1,0,9951.27,0.503191,0.502859,0.220313,15,0.0307809,10,0.000110787,-3.65696,1.92405,0.0306645,0.502763,
2,1,0,0,0,9952.07,0.507187,0.50686,0.221346,15,0.0309686,10,0.000112191,-3.65493,1.35741,0.043465,0.506762,
2,1,0,1,0,9952.87,0.511182,0.510936,0.222925,15,0.0311571,10,0.000113901,-3.65184,5.31601,0.0110986,0.510838,
2,1,0,0,0,9953.67,0.515177,0.514894,0.224215,15,0.0313469,10,0.000115447,-3.64934,2.67787,0.0220324,0.514796,
2,1,0,1,0,9954.47,0.519173,0.51892,0.225112,15,0.0315375,10,0.000116815,-3.6476,1.56533,0.0376916,0.518821,
2,1,0,1,0,9955.27,0.523167,0.52289,0.226104,15,0.0317293,10,0.000118228,-3.64569,0.871443,0.0677038,0.52279,
2,1,0,1,0,9956.07,0.527162,0.526856,0.228818,15,0.0319223,10,0.000120554,-3.64051,0.839052,0.0703175,0.526756,
2,1,0,1,0,9956.87,0.531158,0.530836,0.229972,15,0.0321167,10,0.000122077,-3.63833,1.04234,0.0566032,0.530734,
2,1,0,0,0,9957.67,0.535153,0.534851,0.231837,15,0.0323126,10,0.000123998,-3.63482,2.27247,0.025963,0.534749,
2,1,0,1,0,9958.47,0.539148,0.538848,0.234119,15,0.0325101,10,0.000126154,-3.63056,0.910778,0.0647798,0.538745,
2,1,0,1,0,9959.27,0.543143,0.542853,0.237062,15,0.0327093,10,0.00012869,-3.62514,0.900357,0.0655295,0.542749,
2,1,0,1,0,9960.06,0.547138,0.546852,0.239452,15,0.0329106,10,0.000130945,-3.62078,0.907526,0.0650119,0.546747,
2,1,0,1,0,9960.86,0.551133,0.550833,0.242191,15,0.0331138,10,0.000133407,-3.61584,0.564351,0.104545,0.550727,
2,1,0,0,0,9961.66,0.555129,0.554804,0.244592,15,0.0333197,10,0.0001357,-3.61156,0.920467,0.0640979,0.554696,
2,1,0,1,0,9962.46,0.559124,0.558851,0.248785,15,0.0335281,10,0.000139034,-3.60418,0.542029,0.10885,0.558742,
2,1,0,1,0,9963.26,0.56312,0.562838,0.252238,15,0.0337395,10,0.000141969,-3.59819,0.527081,0.111937,0.562727,
2,1,0,1,0,9964.06,0.567114,0.566844,0.2564,15,0.0339542,10,0.000145339,-3.59108,0.600757,0.0982095,0.566731,
2,1,0,1,0,9964.86,0.571109,0.570806,0.261675,15,0.0341722,10,0.000149365,-3.58224,0.504383,0.116975,0.570691,
2,1,0,0,0,9965.66,0.575105,0.574779,0.266084,15,0.0343941,10,0.00015294,-3.57498,0.456235,0.129319,0.574662,
2,1,0,1,0,9966.46,0.5791,0.578809,0.272667,15,0.0346205,10,0.000157822,-3.56437,0.397456,0.148444,0.578689,
2,1,0,0,0,9967.26,0.583095,0.582783,0.279298,15,0.0348517,10,0.00016277,-3.55393,0.359791,0.163984,0.58266,
2,1,0,1,0,9968.05,0.58709,0.586769,0.285339,15,0.0350888,10,0.000167428,-3.54464,0.362654,0.16269,0.586643,
2,1,0,1,0,9968.85,0.591085,0.590793,0.295194,15,0.035332,10,0.000174399,-3.52989,0.312934,0.188538,0.590663,
2,1,0,1,0,9969.65,0.59508,0.594796,0.304959,15,0.0355822,10,0.000181388,-3.51576,0.241049,0.244764,0.594661,
2,1,0,1,0,9970.45,0.599076,0.598786,0.316602,15,0.0358407,10,0.000189577,-3.49949,0.247646,0.238244,0.598647,
2,1,0,0,0,9971.25,0.603071,0.602801,0.32968,15,0.0361085,10,0.000198732,-3.48191,0.243223,0.242576,0.602656,
2,1,0,1,0,9972.05,0.607066,0.60678,0.341915,15,0.0363869,10,0.000207467,-3.46608,0.19697,0.299538,0.606629,
2,1,0,1,0,9972.85,0.611061,0.610803,0.358772,15,0.0366779,10,0.000219139,-3.44518,0.199792,0.295307,0.610645,
2,1,0,1,0,9973.65,0.615056,0.614741,0.378438,15,0.036983,10,0.000232642,-3.422,0.156323,0.377423,0.614575,
2,1,0,1,0,9974.45,0.619051,0.618759,0.40193,15,0.0373059,10,0.000248698,-3.39585,0.14308,0.412356,0.618582,
2,1,0,0,0,9975.25,0.623047,0.622736,0.428664,15,0.0376484,10,0.000266944,-3.36788,0.141053,0.418283,0.622547,
2,1,0,1,0,9976.05,0.627042,0.626792,0.460233,15,0.0380137,10,0.00028847,-3.33702,0.123317,0.478443,0.626589,
2,1,0,1,0,9976.84,0.631037,0.630783,0.496883,15,0.0384062,10,0.000313425,-3.30375,0.114268,0.51633,0.630564,
2,1,0,1,0,9977.64,0.635032,0.63481,0.540119,15,0.0388306,10,0.000342873,-3.26751,0.107359,0.549558,0.634572,
2,1,0,1,0,9978.44,0.639027,0.638724,0.589587,15,0.0392918,10,0.000376584,-3.22945,0.0965923,0.610815,0.638465,
2,1,0,1,0,9979.24,0.643022,0.642715,0.650013,15,0.0397977,10,0.000417774,-3.18708,0.0927878,0.63586,0.642429,
2,1,0,1,0,9980.04,0.647018,0.646743,0.720766,15,0.0403561,10,0.000466151,-3.14221,0.0825785,0.714471,0.646426,
2,1,0,0,0,9980.84,0.651013,0.650744,0.80499,15,0.0409767,10,0.000523843,-3.09421,0.0828226,0.712366,0.65039,
2,1,0,1,0,9981.64,0.655008,0.654722,0.905766,15,0.0416704,10,0.000593025,-3.04298,0.0751716,0.78487,0.654324,
2,1,0,1,0,9982.44,0.659003,0.658725,1.0217,15,0.04245,10,0.00067302,-2.99068,0.0744902,0.79205,0.658275,
2,1,0,1,0,9983.24,0.662998,0.662685,1.15697,15,0.0433297,10,0.000766709,-2.93668,0.0716157,0.823842,0.662176,
2,1,0,1,0,9984.04,0.666994,0.666715,1.31501,15,0.0443267,10,0.000876736,-2.88107,0.0689467,0.855734,0.666136,
2,1,0,0,0,9984.83,0.670989,0.670699,1.49725,15,0.04546,10,0.0010042,-2.82471,0.0689701,0.855443,0.67004,
2,1,0,1,0,9985.63,0.674984,0.674744,1.70826,15,0.0467499,10,0.00115264,-2.76745,0.0685521,0.860659,0.673993,
2,1,0,1,0,9986.43,0.67898,0.678695,1.94934,15,0.0482203,10,0.00132301,-2.71011,0.0676456,0.872193,0.677837,
2,1,0,1,0,9987.23,0.682974,0.682686,2.2205,15,0.0498958,10,0.0015159,-2.65355,0.0673726,0.875727,0.681709,
2,1,0,1,0,9988.03,0.686969,0.686674,2.52802,15,0.0518028,10,0.00173592,-2.59722,0.0698422,0.844762,0.685561,
2,1,0,0,0,9988.83,0.690965,0.690698,2.87139,15,0.0539694,10,0.00198326,-2.54191,0.0700225,0.842586,0.689435,
2,1,0,1,0,9989.63,0.69496,0.694707,3.25143,15,0.0564242,10,0.00225879,-2.48793,0.071872,0.820904,0.693277,
2,1,0,0,0,9990.43,0.698955,0.698689,3.6671,15,0.0591973,10,0.00256217,-2.43568,0.0738436,0.798986,0.697076,
2,1,0,1,0,9991.23,0.70295,0.702668,4.12262,15,0.0623199,10,0.00289684,-2.38483,0.0750392,0.786256,0.700854,
2,1,0,1,0,9992.03,0.706945,0.706685,4.61529,15,0.0658203,10,0.00326155,-2.3358,0.0785006,0.751587,0.704654,
2,1,0,1,0,9992.82,0.71094,0.710668,5.14384,15,0.0697288,10,0.00365556,-2.28871,0.0814219,0.724621,0.708405,
2,1,0,1,0,9993.62,0.714936,0.71464,5.70818,15,0.0740748,10,0.0040793,-2.2435,0.0855787,0.689424,0.712128,
2,1,0,0,0,9994.42,0.718931,0.718655,6.30845,15,0.0788846,10,0.0045336,-2.20008,0.0880662,0.66995,0.715879,
2,1,0,1,0,9995.22,0.722927,0.722648,6.93702,15,0.0841868,10,0.00501302,-2.15883,0.0908183,0.649649,0.719595,
2,1,0,1,0,9996.02,0.726921,0.72667,7.60123,15,0.0900056,10,0.00552359,-2.11912,0.096458,0.611665,0.723326,
2,1,0,1,0,9996.82,0.730916,0.730654,8.29716,15,0.0963671,10,0.00606235,-2.08107,0.101505,0.581254,0.727003,
2,1,0,1,0,9997.62,0.734911,0.73463,8.99889,15,0.103287,10,0.00661086,-2.04581,0.102284,0.576827,0.730671,
2,1,0,0,0,9998.42,0.738907,0.738622,9.75267,15,0.110789,10,0.00720354,-2.01088,0.106433,0.554337,0.734331,
2,1,0,1,0,9999.22,0.742902,0.742649,10.5359,15,0.118905,10,0.00782444,-1.97733,0.111922,0.527153,0.738013,
2,1,0,1,0,10000,0.746897,0.746645,11.3536,15,0.127661,10,0.00847712,-1.94487,0.112553,0.5242,0.741649,
2,1,0,1,0,10000.8,0.750892,0.750631,12.2095,15,0.137085,10,0.00916485,-1.9133,0.116209,0.507708,0.745259,
2,1,0,1,0,10001.6,0.754887,0.75464,13.1043,15,0.147208,10,0.00988901,-1.88259,0.117715,0.501211,0.748875,
2,1,0,0,0,10002.4,0.758883,0.758622,14.0607,15,0.15807,10,0.0106667,-1.85199,0.117522,0.502032,0.752436,
2,1,0,1,0,10003.2,0.762878,0.762614,15.0538,15,0.169711,10,0.0114803,-1.82235,0.121212,0.486752,0.75599,
2,1,0,0,0,10004,0.766873,0.766599,16.1079,15,0.182168,10,0.0123483,-1.79296,0.119011,0.495752,0.759511,
2,1,0,1,0,10004.8,0.770868,0.770603,17.2241,15,0.195497,10,0.0132729,-1.76386,0.122849,0.480264,0.763025,
2,1,0,1,0,10005.6,0.774863,0.774608,18.3853,15,0.20973,10,0.0142414,-1.73553,0.1226,0.48124,0.766518,
2,1,0,1,0,10006.4,0.778858,0.778552,19.6316,15,0.224923,10,0.0152842,-1.70704,0.120497,0.489641,0.769914,
2,1,0,1,0,10007.2,0.782854,0.782573,20.9579,15,0.241144,10,0.0164011,-1.67865,0.120582,0.489293,0.773351,
2,1,0,0,0,10008,0.786849,0.786537,22.2515,15,0.258439,10,0.0175016,-1.65264,0.130671,0.451514,0.776746,
2,1,0,1,0,10008.8,0.790844,0.790594,23.6896,15,0.276808,10,0.0187288,-1.62544,0.128833,0.457959,0.78017,
2,1,0,1,0,10009.6,0.794839,0.794569,25.1216,15,0.296324,10,0.0199608,-1.59995,0.128832,0.457961,0.783516,
2,1,0,1,0,10010.4,0.798834,0.798594,26.6482,15,0.317017,10,0.0212811,-1.57433,0.131378,0.449086,0.786869,
2,1,0,1,0,10011.2,0.802829,0.802546,28.2301,15,0.338953,10,0.022656,-1.54929,0.136478,0.432304,0.790125,
2,1,0,0,0,10012,0.806825,0.806566,29.8126,15,0.362159,10,0.0240458,-1.5256,0.140777,0.419103,0.793448,
2,1,0,1,0,10012.8,0.81082,0.810523,31.4097,15,0.386643,10,0.0254583,-1.50294,0.151071,0.390545,0.796703,
2,1,0,1,0,10013.6,0.814815,0.814553,33.0229,15,0.412403,10,0.0268989,-1.48118,0.159126,0.370774,0.800023,
2,1,0,1,0,10014.4,0.81881,0.818558,34.5634,15,0.43942,10,0.0282922,-1.46138,0.171309,0.344406,0.80335,
2,1,0,1,0,10015.2,0.822805,0.822562,36.1906,15,0.467677,10,0.029769,-1.4414,0.160645,0.367269,0.806639,
2,1,0,0,0,10016,0.826801,0.826587,37.818,15,0.497259,10,0.0312598,-1.4223,0.192708,0.306163,0.809947,
2,1,0,1,0,10016.8,0.830796,0.830548,39.3765,15,0.528093,10,0.0327041,-1.40476,0.173509,0.340039,0.813222,
2,1,0,0,0,10017.6,0.834791,0.834545,41.0393,15,0.560232,10,0.0342491,-1.3868,0.138887,0.424805,0.816488,
2,1,0,1,0,10018.4,0.838786,0.838492,43.0112,15,0.59401,10,0.0360645,-1.36642,0.220944,0.267036,0.819568,
2,1,0,1,0,10019.2,0.842781,0.84249,44.5262,15,0.629015,10,0.0375129,-1.35138,0.238357,0.247528,0.822898,
2,1,0,1,0,10020,0.846776,0.846585,46.0609,15,0.665204,10,0.0389945,-1.33667,0.233716,0.252444,0.826318,
2,1,0,0,0,10020.7,0.849723,0.849452,46.9438,15,0.69787,10,0.0398765,-1.32842,0.0516918,1.14138,0.828796,
2,1,0,1,0,10021.5,0.845728,0.845462,44.1932,15,0.734171,10,0.0373637,-1.35464,0.133756,0.441103,0.826017,
2,1,0,0,0,10022.3,0.841732,0.841503,42.336,15,0.768735,10,0.0356259,-1.37329,0.149901,0.393592,0.822875,
2,1,0,1,0,10023.1,0.837737,0.837499,40.4038,15,0.801734,10,0.0338381,-1.39358,0.166246,0.354895,0.819722,
2,1,0,1,0,10023.9,0.833742,0.833504,38.6233,15,0.833291,10,0.0321927,-1.41315,0.162222,0.363699,0.81651,
2,1,0,1,0,10024.7,0.829747,0.829489,36.8486,15,0.86343,10,0.0305655,-1.43358,0.156585,0.376793,0.813275,
2,1,0,1,0,10025.5,0.825752,0.825466,35.1066,15,0.892169,10,0.0289793,-1.45461,0.150465,0.392117,0.810019,
2,1,0,0,0,10026.3,0.821757,0.821536,33.4577,15,0.919538,10,0.0274867,-1.4755,0.152135,0.387814,0.806815,
2,1,0,1,0,10027.1,0.817761,0.817448,31.787,15,0.945586,10,0.0259842,-1.49775,0.146536,0.40263,0.803462,
2,1,0,1,0,10027.9,0.813766,0.813476,30.1446,15,0.970307,10,0.0245219,-1.52079,0.138018,0.427479,0.800212,
2,1,0,1,0,10028.7,0.809771,0.809521,28.5057,15,0.993725,10,0.023076,-1.54507,0.132919,0.443879,0.796979,
2,1,0,1,0,10029.5,0.805776,0.805507,26.9184,15,1.01585,10,0.021683,-1.56995,0.131397,0.449023,0.793662,
2,1,0,0,0,10030.3,0.801781,0.801501,25.374,15,1.03673,10,0.0203373,-1.59561,0.132969,0.443713,0.790337,
2,1,0,1,0,10031.1,0.797786,0.79755,23.947,15,1.05641,10,0.0190989,-1.62075,0.128565,0.458912,0.787013,
2,1,0,1,0,10031.9,0.79379,0.793504,22.513,15,1.07496,10,0.0178642,-1.64757,0.122834,0.480325,0.783598,
2,1,0,1,0,10032.7,0.789795,0.789513,21.1201,15,1.09237,10,0.0166746,-1.6753,0.119564,0.49346,0.78022,
2,1,0,1,0,10033.5,0.7858,0.78552,19.7453,15,1.10868,10,0.0155103,-1.70454,0.112619,0.523891,0.776832,
2,1,0,0,0,10034.3,0.781805,0.78152,18.4096,15,1.1239,10,0.0143875,-1.73496,0.115088,0.512653,0.77342,
2,1,0,1,0,10035.1,0.77781,0.777536,17.1709,15,1.1381,10,0.013351,-1.76521,0.110464,0.534111,0.769981,
2,1,0,0,0,10035.9,0.773815,0.773513,15.9624,15,1.15132,10,0.0123471,-1.7969,0.107021,0.551295,0.766489,
2,1,0,1,0,10036.7,0.769819,0.769582,14.798,15,1.1636,10,0.0113883,-1.8298,0.105454,0.559486,0.763071,
2,1,0,1,0,10037.5,0.765824,0.765529,13.6785,15,1.17496,10,0.0104713,-1.86396,0.0991224,0.595224,0.75951,
2,1,0,1,0,10038.3,0.761829,0.76154,12.5941,15,1.18544,10,0.00959091,-1.89983,0.0943655,0.625229,0.755998,
2,1,0,1,0,10039.1,0.757834,0.757564,11.5334,15,1.19505,10,0.00873731,-1.93804,0.0973073,0.606327,0.752489,
2,1,0,0,0,10039.9,0.753839,0.753576,10.6019,15,1.20387,10,0.00798931,-1.97462,0.0960863,0.614032,0.748911,
2,1,0,1,0,10040.7,0.749844,0.74956,9.72099,15,1.21198,10,0.00728647,-2.01229,0.0936832,0.629782,0.745283,
2,1,0,1,0,10041.5,0.745848,0.74562,8.84877,15,1.21939,10,0.00659782,-2.05312,0.0887663,0.664667,0.741726,
2,1,0,1,0,10042.3,0.741853,0.741594,8.0695,15,1.22613,10,0.00598429,-2.09315,0.0884632,0.666944,0.738043,
2,1,0,1,0,10043.1,0.737858,0.737637,7.33566,15,1.23227,10,0.00541105,-2.13456,0.0877871,0.67208,0.734409,
2,1,0,0,0,10043.9,0.733863,0.733572,6.64617,15,1.23784,10,0.00487545,-2.17743,0.0855021,0.690042,0.730648,
2,1,0,1,0,10044.7,0.729868,0.729593,5.99716,15,1.24288,10,0.00437549,-2.22205,0.0815311,0.723651,0.726954,
2,1,0,1,0,10045.5,0.725872,0.725603,5.39422,15,1.24742,10,0.00391406,-2.26807,0.0811116,0.727393,0.72323,
2,1,0,1,0,10046.3,0.721877,0.721622,4.83049,15,1.25149,10,0.00348579,-2.31601,0.075449,0.781985,0.719496,
2,1,0,1,0,10047.1,0.717882,0.717623,4.30911,15,1.25512,10,0.00309232,-2.36561,0.0755121,0.781332,0.715727,
2,1,0,0,0,10047.9,0.713887,0.713624,3.82966,15,1.25836,10,0.00273294,-2.41684,0.0723712,0.815242,0.711939,
2,1,0,1,0,10048.7,0.709892,0.709634,3.38686,15,1.26123,10,0.00240343,-2.4702,0.0699527,0.843427,0.708144,
2,1,0,0,0,10049.5,0.705897,0.705615,2.98105,15,1.26376,10,0.00210347,-2.52563,0.0682203,0.864845,0.704303,
2,1,0,1,0,10050.3,0.701901,0.701609,2.61298,15,1.26598,10,0.00183329,-2.58286,0.0813633,0.725143,0.70046,
2,1,0,1,0,10051.1,0.697906,0.697627,2.3232,15,1.26794,10,0.00162073,-2.63391,0.0620068,0.951508,0.696605,
2,1,0,1,0,10051.9,0.693911,0.693642,2.01994,15,1.26967,10,0.00140112,-2.69466,0.0615329,0.958837,0.692753,
2,1,0,1,0,10052.7,0.689916,0.689628,1.74327,15,1.27116,10,0.00120221,-2.75864,0.0595752,0.990345,0.688861,
2,1,0,0,0,10053.5,0.685921,0.685672,1.49518,15,1.27244,10,0.0010252,-2.82531,0.0572437,1.03068,0.685014,
2,1,0,1,0,10054.3,0.681926,0.68164,1.27432,15,1.27353,10,0.000868629,-2.89472,0.0545868,1.08085,0.681079,
2,1,0,1,0,10055.1,0.67793,0.677629,1.07714,15,1.27445,10,0.000729904,-2.96773,0.0532043,1.10893,0.677155,
2,1,0,1,0,10055.8,0.673935,0.673645,0.905939,15,1.27523,10,0.000610281,-3.0429,0.0502706,1.17365,0.673246,
2,1,0,1,0,10056.6,0.66994,0.669701,0.754952,15,1.27588,10,0.000505592,-3.12208,0.0492612,1.1977,0.669369,
2,1,0,0,0,10057.4,0.665945,0.665697,0.621697,15,1.27642,10,0.000413862,-3.20642,0.0455972,1.29394,0.665423,
2,1,0,1,0,10058.2,0.66195,0.661696,0.51146,15,1.27686,10,0.000338431,-3.29119,0.0448515,1.31545,0.661471,
2,1,0,0,0,10059,0.657955,0.657652,0.413198,15,1.27722,10,0.00027174,-3.38384,0.0413823,1.42573,0.65747,
2,1,0,1,0,10059.8,0.653959,0.653677,0.329919,15,1.2775,10,0.00021566,-3.48159,0.0398802,1.47943,0.653532,
2,1,0,1,0,10060.6,0.649964,0.649645,0.259366,15,1.27772,10,0.000168496,-3.58609,0.0355882,1.65785,0.64953,
2,1,0,1,0,10061.4,0.64597,0.645685,0.200387,15,1.2779,10,0.000129387,-3.69813,0.0339412,1.7383,0.645597,
2,1,0,1,0,10062.2,0.641974,0.641729,0.149577,15,1.27802,10,9.59879e-05,-3.82513,0.0292206,2.01912,0.641663,
2,1,0,0,0,10063,0.637979,0.637692,0.108013,15,1.27811,10,6.88788e-05,-3.96653,0.0255409,2.31002,0.637644,
2,1,0,1,0,10063.8,0.633983,0.633705,0.0718835,15,1.27817,10,4.55529e-05,-4.14337,0.0208337,2.83196,0.633673,
2,1,0,1,0,10064.6,0.629988,0.629749,0.0417868,15,1.27821,10,2.63152e-05,-4.37896,0.0129359,4.56095,0.629731,
2,1,0,1,0,10065.4,0.625993,0.625768,0.0164235,15,1.27822,10,1.02773e-05,-4.78453,0.00579027,10.1895,0.625761,
2,0,0,1,0,10066.2,0.621998,0.621712,-0.00462823,15,1.27821,10,-2.87743e-06,-5.33458,-0.0108145,-5.45563,0.621714,
2,0,0,0,0,10067,0.618003,0.617692,-0.0214566,15,1.27819,10,-1.32536e-05,-4.66844,-0.0117293,-5.03013,0.617702,
2,0,0,1,0,10067.8,0.614008,0.61369,-0.0354066,15,1.27816,10,-2.17287e-05,-4.45092,-0.0280059,-2.1067,0.613706,
2,0,0,1,0,10068.6,0.610012,0.609702,-0.047868,15,1.27811,10,-2.91852e-05,-4.31995,-0.0409783,-1.43979,0.609723,
2,0,0,1,0,10069.4,0.606017,0.605722,-0.0566941,15,1.27806,10,-3.43409e-05,-4.24646,-0.051492,-1.14581,0.605747,
2,0,0,1,0,10070.2,0.602022,0.601743,-0.0656031,15,1.278,10,-3.94762e-05,-4.18308,-0.0909368,-0.648802,0.601772,
2,0,0,0,0,10071,0.598027,0.597711,-0.0723185,15,1.27793,10,-4.32256e-05,-4.14075,-0.0822576,-0.717259,0.597743,
2,0,0,1,0,10071.8,0.594032,0.593749,-0.078433,15,1.27786,10,-4.65695e-05,-4.1055,-0.131111,-0.450002,0.593784,
2,0,0,0,0,10072.6,0.590037,0.589738,-0.0839556,15,1.27778,10,-4.95118e-05,-4.07595,-0.164875,-0.357847,0.589775,
2,0,0,1,0,10073.4,0.586041,0.58578,-0.0885995,15,1.2777,10,-5.18998e-05,-4.05257,-0.209019,-0.28227,0.585819,
2,0,0,1,0,10074.2,0.582046,0.581741,-0.0925857,15,1.27761,10,-5.38609e-05,-4.03346,-0.31527,-0.187141,0.581782,
2,0,0,1,0,10075,0.578052,0.577771,-0.0956985,15,1.27753,10,-5.52919e-05,-4.01909,-0.216615,-0.272372,0.577814,
2,0,0,1,0,10075.8,0.574056,0.573744,-0.0971223,15,1.27744,10,-5.57233e-05,-4.01268,-0.268376,-0.219841,0.573786,
2,0,0,0,0,10076.6,0.570061,0.569853,-0.100916,15,1.27735,10,-5.75075e-05,-3.99604,-3.92568,-0.0150293,0.569898,
2,0,0,1,0,10077.4,0.566065,0.565747,-0.103268,15,1.27725,10,-5.84237e-05,-3.98603,-0.250409,-0.235614,0.565792,
2,0,0,1,0,10078.2,0.56207,0.561771,-0.10527,15,1.27716,10,-5.91379e-05,-3.97769,-1.09683,-0.0537915,0.561818,
2,0,0,1,0,10079,0.558075,0.557787,-0.106482,15,1.27706,10,-5.93943e-05,-3.97272,-0.358187,-0.164718,0.557834,
2,0,0,1,0,10079.8,0.55408,0.553815,-0.109208,15,1.27696,10,-6.04812e-05,-3.96174,-0.612518,-0.0963237,0.553863,
2,0,0,0,0,10080.6,0.550085,0.54982,-0.1105,15,1.27686,10,-6.07549e-05,-3.95664,-4.50794,-0.013088,0.549869,
2,0,0,1,0,10081.4,0.54609,0.545817,-0.110307,15,1.27676,10,-6.02073e-05,-3.9574,-0.842521,-0.0700279,0.545865,
2,0,0,1,0,10082.2,0.542094,0.541791,-0.113201,15,1.27666,10,-6.13312e-05,-3.94615,-0.463722,-0.127231,0.541841,
2,0,0,1,0,10083,0.538099,0.537778,-0.11341,15,1.27656,10,-6.09892e-05,-3.94535,0.943788,0.062514,0.537828,
2,0,0,1,0,10083.8,0.534104,0.533829,-0.114983,15,1.27645,10,-6.13814e-05,-3.93937,-0.452969,-0.130252,0.53388,
2,0,0,0,0,10084.6,0.530109,0.52983,-0.116268,15,1.27635,10,-6.16023e-05,-3.93454,-0.57964,-0.101787,0.529881,
2,0,0,1,0,10085.4,0.526114,0.525803,-0.116969,15,1.27624,10,-6.15025e-05,-3.93193,-41.1845,-0.00143258,0.525854,
2,0,0,0,0,10086.2,0.522119,0.521776,-0.118082,15,1.27614,10,-6.16124e-05,-3.92782,-0.532848,-0.110726,0.521828,
2,0,0,1,0,10087,0.518123,0.517855,-0.119816,15,1.27603,10,-6.20471e-05,-3.92149,-1.03679,-0.0569063,0.517908,
2,0,0,1,0,10087.8,0.514128,0.51382,-0.119846,15,1.27592,10,-6.15794e-05,-3.92138,-5.83838,-0.0101055,0.513873,
2,0,0,1,0,10088.6,0.510133,0.509825,-0.120657,15,1.27582,10,-6.15139e-05,-3.91845,-1.06928,-0.0551774,0.509878,
2,0,0,1,0,10089.4,0.506138,0.505829,-0.122536,15,1.27571,10,-6.19821e-05,-3.91174,13.0438,0.00452321,0.505883,
2,0,0,0,0,10090.2,0.502143,0.501873,-0.123379,15,1.2756,10,-6.19207e-05,-3.90876,-0.522829,-0.112848,0.501927,
2,0,0,1,0,10091,0.498148,0.497837,-0.123558,15,1.27549,10,-6.15116e-05,-3.90813,-0.517583,-0.113991,0.497891,
2,0,0,1,0,10091.8,0.494152,0.493867,-0.12531,15,1.27537,10,-6.18865e-05,-3.90201,6.14874,0.00959546,0.493923,
2,0,0,1,0,10092.6,0.490157,0.48984,-0.127091,15,1.27526,10,-6.22543e-05,-3.89588,-0.656321,-0.089895,0.489896,
2,0,0,1,0,10093.4,0.486162,0.485863,-0.127656,15,1.27515,10,-6.20233e-05,-3.89396,-0.862884,-0.0683754,0.485919,
2,0,0,0,0,10094.2,0.482167,0.481887,-0.128865,15,1.27503,10,-6.20984e-05,-3.88987,-1.59892,-0.0368998,0.481944,
2,0,0,1,0,10095,0.478172,0.4779,-0.130021,15,1.27492,10,-6.21369e-05,-3.88599,-0.731466,-0.0806599,0.477957,
2,0,0,0,0,10095.8,0.474177,0.473888,-0.130562,15,1.2748,10,-6.18721e-05,-3.88418,-2.3963,-0.0246213,0.473946,
2,0,0,1,0,10096.6,0.470181,0.469865,-0.132944,15,1.27468,10,-6.24659e-05,-3.87633,-0.798183,-0.0739179,0.469923,
2,0,0,1,0,10097.4,0.466186,0.465901,-0.133661,15,1.27456,10,-6.22728e-05,-3.874,-1.17641,-0.0501525,0.46596,
2,0,0,1,0,10098.2,0.462191,0.461888,-0.135264,15,1.27444,10,-6.24767e-05,-3.86882,-0.532649,-0.110767,0.461948,
2,0,0,1,0,10099,0.458196,0.457906,-0.136583,15,1.27432,10,-6.25421e-05,-3.8646,-0.975878,-0.0604584,0.457966,
2,0,0,0,0,10099.8,0.454201,0.453929,-0.138333,15,1.2742,10,-6.27936e-05,-3.85907,-0.759131,-0.0777205,0.45399,
2,0,0,1,0,10100.6,0.450205,0.449898,-0.140381,15,1.27408,10,-6.31571e-05,-3.85269,-1.28261,-0.046,0.44996,
2,0,0,1,0,10101.4,0.44621,0.445906,-0.141481,15,1.27395,10,-6.30875e-05,-3.8493,-0.636496,-0.092695,0.445969,
2,0,0,1,0,10102.2,0.442215,0.44196,-0.143277,15,1.27383,10,-6.33225e-05,-3.84382,-1.96862,-0.0299702,0.442023,
2,0,0,1,0,10103,0.43822,0.437899,-0.144114,15,1.2737,10,-6.31072e-05,-3.8413,-0.608701,-0.0969277,0.437963,
2,0,0,0,0,10103.8,0.434225,0.433875,-0.146016,15,1.27357,10,-6.33526e-05,-3.8356,-0.70019,-0.0842629,0.433939,
2,0,0,1,0,10104.6,0.43023,0.429918,-0.147984,15,1.27344,10,-6.3621e-05,-3.82978,-1.79724,-0.032828,0.429983,
2,0,0,1,0,10105.4,0.426234,0.425962,-0.149267,15,1.27331,10,-6.35819e-05,-3.82604,-0.421784,-0.139882,0.426028,
2,0,0,1,0,10106.2,0.422239,0.421918,-0.151622,15,1.27318,10,-6.39719e-05,-3.81924,-0.954629,-0.0618041,0.421985,
2,0,0,1,0,10107,0.418244,0.417957,-0.153547,15,1.27304,10,-6.41761e-05,-3.81376,-0.684347,-0.0862135,0.418024,
2,0,0,0,0,10107.8,0.414249,0.413942,-0.154772,15,1.27291,10,-6.40664e-05,-3.81031,-1.49391,-0.0394938,0.41401,
2,0,0,1,0,10108.6,0.410254,0.409907,-0.157143,15,1.27277,10,-6.44141e-05,-3.8037,-0.672876,-0.0876833,0.409976,
2,0,0,0,0,10109.4,0.406259,0.405969,-0.158091,15,1.27263,10,-6.41801e-05,-3.80109,-0.916818,-0.064353,0.406039,
2,0,0,1,0,10110.2,0.402263,0.401938,-0.160422,15,1.27249,10,-6.44798e-05,-3.79474,-0.515799,-0.114386,0.402008,
2,0,0,1,0,10111,0.398268,0.397951,-0.163516,15,1.27235,10,-6.50714e-05,-3.78644,-1.19599,-0.0493314,0.398023,
2,0,0,1,0,10111.8,0.394274,0.393974,-0.16434,15,1.2722,10,-6.47456e-05,-3.78426,-0.587758,-0.100381,0.394047,
2,0,0,1,0,10112.6,0.390278,0.38994,-0.16703,15,1.27206,10,-6.51317e-05,-3.77721,-0.637956,-0.0924829,0.390014,
2,0,0,0,0,10113.4,0.386283,0.38597,-0.169157,15,1.27191,10,-6.52897e-05,-3.77171,-0.735802,-0.0801846,0.386045,
2,0,0,1,0,10114.2,0.382287,0.381966,-0.170164,15,1.27176,10,-6.49967e-05,-3.76913,-0.934933,-0.0631061,0.382041,
2,0,0,1,0,10115,0.378292,0.377968,-0.173989,15,1.27161,10,-6.57623e-05,-3.75948,-3.47331,-0.0169867,0.378045,
2,0,0,1,0,10115.8,0.374297,0.374058,-0.174771,15,1.27146,10,-6.53744e-05,-3.75753,-0.448831,-0.131452,0.374135,
2,0,0,1,0,10116.6,0.370303,0.369964,-0.176095,15,1.2713,10,-6.51489e-05,-3.75425,-0.706962,-0.0834557,0.370041,
2,0,0,0,0,10117.4,0.366307,0.366039,-0.179999,15,1.27115,10,-6.58867e-05,-3.74473,-0.618536,-0.0953866,0.366118,
2,0,0,1,0,10118.2,0.362312,0.362014,-0.181801,15,1.27099,10,-6.58147e-05,-3.7404,-0.646888,-0.0912059,0.362094,
2,0,0,1,0,10119,0.358316,0.358031,-0.18428,15,1.27083,10,-6.59779e-05,-3.73452,-1.11104,-0.0531034,0.358112,
2,0,0,1,0,10119.8,0.354321,0.354051,-0.186619,15,1.27067,10,-6.60727e-05,-3.72904,-0.693619,-0.0850611,0.354133,
2,0,0,1,0,10120.6,0.350327,0.350021,-0.187887,15,1.2705,10,-6.57642e-05,-3.7261,-0.577586,-0.102149,0.350103,
2,0,0,0,0,10121.4,0.346331,0.346023,-0.191897,15,1.27034,10,-6.64007e-05,-3.71693,-7.50239,-0.00786416,0.346107,
2,0,0,1,0,10122.2,0.342336,0.342094,-0.193391,15,1.27017,10,-6.6158e-05,-3.71356,-0.43122,-0.136821,0.342179,
2,0,0,0,0,10123,0.338341,0.338053,-0.196547,15,1.27,10,-6.64433e-05,-3.70653,-1.94868,-0.0302769,0.338139,
2,0,0,1,0,10123.8,0.334345,0.334062,-0.198437,15,1.26983,10,-6.62903e-05,-3.70238,-0.689897,-0.08552,0.334149,
2,0,0,1,0,10124.6,0.33035,0.330067,-0.199854,15,1.26966,10,-6.59651e-05,-3.69929,-0.512716,-0.115073,0.330155,
2,0,0,1,0,10125.4,0.326355,0.326045,-0.202733,15,1.26948,10,-6.61e-05,-3.69308,-0.675416,-0.0873535,0.326134,
2,0,0,1,0,10126.2,0.32236,0.322051,-0.205279,15,1.2693,10,-6.61102e-05,-3.68766,-0.813216,-0.0725515,0.322141,
2,0,0,0,0,10127,0.318365,0.318035,-0.206646,15,1.26913,10,-6.57208e-05,-3.68477,-0.935326,-0.0630796,0.318126,
2,0,0,1,0,10127.8,0.31437,0.314067,-0.210788,15,1.26894,10,-6.62016e-05,-3.67615,-1.75538,-0.033611,0.31416,
2,0,0,1,0,10128.6,0.310374,0.310097,-0.213214,15,1.26876,10,-6.6117e-05,-3.67118,-0.582623,-0.101266,0.310191,
2,0,0,1,0,10129.4,0.306379,0.30603,-0.216141,15,1.26858,10,-6.61456e-05,-3.66526,-0.800982,-0.0736596,0.306126,
2,0,0,1,0,10130.2,0.302385,0.302101,-0.217944,15,1.26839,10,-6.58412e-05,-3.66165,-0.840964,-0.0701576,0.302197,
2,0,0,0,0,10131,0.298389,0.298081,-0.220669,15,1.2682,10,-6.5777e-05,-3.65626,-0.520006,-0.11346,0.298178,
2,0,0,1,0,10131.8,0.294394,0.294117,-0.222139,15,1.26801,10,-6.53349e-05,-3.65337,-2.14326,-0.0275282,0.294214,
2,0,0,1,0,10132.6,0.290398,0.290107,-0.225868,15,1.26781,10,-6.55259e-05,-3.64615,-0.512518,-0.115118,0.290206,
2,0,0,1,0,10133.4,0.286403,0.28611,-0.227306,15,1.26762,10,-6.50345e-05,-3.64339,-1.19686,-0.0492956,0.286211,
2,0,0,1,0,10134.2,0.282408,0.282096,-0.230964,15,1.26742,10,-6.5154e-05,-3.63646,-1.14807,-0.0513908,0.282198,
2,0,0,1,0,10135,0.278414,0.27811,-0.233228,15,1.26722,10,-6.4863e-05,-3.63222,-0.537695,-0.109728,0.278213,
2,0,0,1,0,10135.8,0.274418,0.274104,-0.235523,15,1.26702,10,-6.45576e-05,-3.62797,-1.02356,-0.0576417,0.274207,
2,0,0,0,0,10136.6,0.270423,0.270086,-0.239621,15,1.26682,10,-6.47183e-05,-3.62047,-0.681104,-0.086624,0.270191,
2,0,0,1,0,10137.4,0.266427,0.266121,-0.24187,15,1.26661,10,-6.43666e-05,-3.61642,-1.01388,-0.0581923,0.266227,
2,0,0,1,0,10138.1,0.262432,0.262139,-0.243694,15,1.2664,10,-6.38817e-05,-3.61316,-1.11774,-0.0527851,0.262246,
2,0,0,1,0,10138.9,0.258437,0.258127,-0.247015,15,1.26619,10,-6.37612e-05,-3.60728,-0.727058,-0.081149,0.258235,
2,0,0,1,0,10139.7,0.254442,0.254133,-0.247678,15,1.26598,10,-6.29431e-05,-3.60611,-0.746402,-0.0790458,0.254242,
2,0,0,0,0,10140.5,0.250447,0.25012,-0.25089,15,1.26576,10,-6.27528e-05,-3.60052,-3.68221,-0.016023,0.250231,
2,0,0,1,0,10141.3,0.246452,0.246177,-0.254681,15,1.26555,10,-6.26965e-05,-3.594,-0.656136,-0.0899204,0.246289,
2,0,0,1,0,10142.1,0.242456,0.242135,-0.256487,15,1.26533,10,-6.21044e-05,-3.59094,-0.890265,-0.0662724,0.242248,
2,0,0,1,0,10142.9,0.238461,0.238156,-0.258072,15,1.26511,10,-6.14615e-05,-3.58826,-1.1892,-0.0496133,0.238269,
2,0,0,1,0,10143.7,0.234467,0.234192,-0.261135,15,1.26489,10,-6.11557e-05,-3.58314,-0.674839,-0.0874282,0.234307,
2,0,0,0,0,10144.5,0.230471,0.230159,-0.26474,15,1.26466,10,-6.09324e-05,-3.57718,-1.7552,-0.0336145,0.230276,
2,0,0,1,0,10145.3,0.226476,0.226186,-0.267906,15,1.26444,10,-6.05965e-05,-3.57202,-0.622193,-0.0948259,0.226304,
2,0,0,0,0,10146.1,0.222481,0.222202,-0.268178,15,1.26421,10,-5.95897e-05,-3.57158,-1.14898,-0.0513499,0.22232,
2,0,0,1,0,10146.9,0.218485,0.218189,-0.272083,15,1.26398,10,-5.93655e-05,-3.5653,-2.18542,-0.0269971,0.218309,
2,0,0,1,0,10147.7,0.21449,0.214176,-0.275024,15,1.26375,10,-5.89036e-05,-3.56063,-0.425859,-0.138543,0.214297,
2,0,0,1,0,10148.5,0.210496,0.210158,-0.278272,15,1.26351,10,-5.84811e-05,-3.55553,-1.43258,-0.0411844,0.210281,
2,0,0,1,0,10149.3,0.2065,0.206205,-0.282231,15,1.26327,10,-5.81974e-05,-3.5494,-0.61094,-0.0965725,0.206329,
2,0,0,0,0,10150.1,0.202505,0.202214,-0.286108,15,1.26303,10,-5.78551e-05,-3.54347,-0.668829,-0.0882139,0.20234,
2,0,0,1,0,10150.9,0.198509,0.19821,-0.289218,15,1.26279,10,-5.73259e-05,-3.53877,-0.898011,-0.0657008,0.198337,
2,0,0,1,0,10151.7,0.194514,0.194214,-0.293602,15,1.26254,10,-5.70218e-05,-3.53224,-0.601938,-0.0980167,0.194344,
2,0,0,1,0,10152.5,0.190519,0.190223,-0.297449,15,1.26229,10,-5.65815e-05,-3.52659,-0.574859,-0.102634,0.190353,
2,0,0,1,0,10153.3,0.186524,0.186207,-0.304012,15,1.26204,10,-5.66091e-05,-3.51711,-0.693658,-0.0850564,0.18634,
2,0,0,0,0,10154.1,0.182529,0.182218,-0.309131,15,1.26178,10,-5.63294e-05,-3.50986,-0.296148,-0.199224,0.182354,
2,0,0,1,0,10154.9,0.178534,0.178212,-0.316565,15,1.26151,10,-5.64157e-05,-3.49954,-0.496483,-0.118836,0.178351,
2,0,0,1,0,10155.7,0.174538,0.174178,-0.325578,15,1.26124,10,-5.67084e-05,-3.48735,-0.268543,-0.219704,0.174321,
2,0,0,1,0,10156.5,0.170543,0.170219,-0.336315,15,1.26096,10,-5.72472e-05,-3.47325,-0.238182,-0.24771,0.170367,
2,0,0,1,0,10157.3,0.166549,0.16623,-0.34829,15,1.26067,10,-5.78963e-05,-3.45806,-0.246982,-0.238884,0.166383,
2,0,0,0,0,10158.1,0.162553,0.162248,-0.3645,15,1.26037,10,-5.91393e-05,-3.4383,-0.175414,-0.336348,0.162408,
2,0,0,1,0,10158.9,0.158558,0.158236,-0.386244,15,1.26005,10,-6.11179e-05,-3.41314,-0.148403,-0.397565,0.158406,
2,0,0,0,0,10159.7,0.154563,0.154215,-0.415946,15,1.25972,10,-6.41452e-05,-3.38096,-0.134068,-0.440075,0.154398,
2,0,0,1,0,10160.5,0.150567,0.150249,-0.450823,15,1.25936,10,-6.77357e-05,-3.34599,-0.0960904,-0.614005,0.150448,
2,0,0,1,0,10161.3,0.146572,0.14624,-0.49837,15,1.25897,10,-7.28816e-05,-3.30245,-0.0857444,-0.688092,0.146459,
2,0,0,1,0,10162.1,0.142578,0.142262,-0.557462,15,1.25853,10,-7.93055e-05,-3.25378,-0.0775048,-0.761243,0.142507,
2,0,0,1,0,10162.9,0.138582,0.138266,-0.622966,15,1.25804,10,-8.61348e-05,-3.20554,-0.0848203,-0.695589,0.13854,
2,0,0,0,0,10163.7,0.134587,0.134235,-0.687915,15,1.2575,10,-9.23422e-05,-3.16247,-0.109313,-0.539737,0.134538,
2,0,0,1,0,10164.5,0.130591,0.130251,-0.741269,15,1.25692,10,-9.65508e-05,-3.13002,-0.147033,-0.401269,0.130577,
2,0,0,1,0,10165.3,0.126596,0.126238,-0.77161,15,1.2563,10,-9.74068e-05,-3.1126,-0.289561,-0.203757,0.126578,
2,0,0,1,0,10166.1,0.122602,0.122264,-0.792684,15,1.25565,10,-9.69168e-05,-3.1009,-0.896421,-0.0658173,0.122613,
2,0,0,1,0,10166.9,0.118607,0.118267,-0.795011,15,1.255,10,-9.40234e-05,-3.09963,-21.9128,-0.00269248,0.118617,
2,0,0,0,0,10167.7,0.114611,0.114253,-0.78934,15,1.25435,10,-9.01842e-05,-3.10274,0.669121,0.0881754,0.1146,
2,0,0,1,0,10168.5,0.110616,0.110303,-0.778037,15,1.25371,10,-8.58196e-05,-3.109,0.622898,0.0947186,0.110645,
2,0,0,1,0,10169.3,0.10662,0.106353,-0.7653,15,1.25308,10,-8.13922e-05,-3.11617,0.57291,0.102983,0.10669,
2,0,0,1,0,10170.1,0.102625,0.10228,-0.751117,15,1.25246,10,-7.68241e-05,-3.12429,0.386493,0.152655,0.10261,
2,0,0,1,0,10170.9,0.0986305,0.0982684,-0.73505,15,1.25185,10,-7.22321e-05,-3.13368,0.490399,0.12031,0.0985918,
2,0,0,0,0,10171.7,0.0946351,0.0942926,-0.71579,15,1.25126,10,-6.74937e-05,-3.14521,0.375421,0.157157,0.0946076,
2,0,0,1,0,10172.5,0.0906399,0.0902917,-0.703134,15,1.25067,10,-6.34872e-05,-3.15296,0.344476,0.171274,0.0906011,
2,0,0,0,0,10173.3,0.0866448,0.0863067,-0.687755,15,1.2501,10,-5.93579e-05,-3.16257,0.612184,0.0963762,0.0866093,
2,0,0,1,0,10174.1,0.0826492,0.0823436,-0.674279,15,1.24955,10,-5.55226e-05,-3.17116,0.45202,0.130525,0.0826402,
2,0,0,1,0,10174.9,0.0786544,0.078356,-0.663204,15,1.249,10,-5.1966e-05,-3.17835,0.62439,0.0944921,0.0786478,
2,0,0,1,0,10175.7,0.0746596,0.0743373,-0.652887,15,1.24846,10,-4.85339e-05,-3.18516,0.722941,0.0816111,0.0746246,
2,0,0,1,0,10176.5,0.0706641,0.0703879,-0.643047,15,1.24792,10,-4.52627e-05,-3.19176,0.486796,0.121201,0.0706708,
2,0,0,0,0,10177.3,0.0666689,0.0663583,-0.633288,15,1.2474,10,-4.2024e-05,-3.1984,0.805981,0.0732027,0.066637,
2,0,0,1,0,10178.1,0.0626737,0.0623765,-0.623126,15,1.24688,10,-3.88684e-05,-3.20542,0.508919,0.115932,0.0626507,
2,0,0,1,0,10178.9,0.0586783,0.058352,-0.614042,15,1.24637,10,-3.58306e-05,-3.2118,0.504475,0.116953,0.0586222,
2,0,0,1,0,10179.7,0.0546835,0.0543514,-0.603447,15,1.24587,10,-3.27982e-05,-3.21936,0.681111,0.0866232,0.0546169,
2,0,0,1,0,10180.5,0.0506886,0.0503934,-0.592298,15,1.24538,10,-2.98479e-05,-3.22746,0.469432,0.125684,0.0506541,
2,0,0,0,0,10181.3,0.046693,0.046376,-0.581677,15,1.2449,10,-2.69759e-05,-3.23532,0.452513,0.130383,0.046632,
2,0,0,1,0,10182.1,0.0426979,0.0423677,-0.568992,15,1.24442,10,-2.41069e-05,-3.24489,0.529961,0.111329,0.0426181,
2,0,0,1,0,10182.9,0.0387022,0.0383462,-0.557564,15,1.24395,10,-2.13804e-05,-3.25371,0.375853,0.156976,0.0385915,
2,0,0,1,0,10183.7,0.0347074,0.0343848,-0.547383,15,1.2435,10,-1.88217e-05,-3.26171,0.431449,0.136748,0.0346257,
2,0,0,1,0,10184.5,0.0307126,0.0304371,-0.533628,15,1.24305,10,-1.62421e-05,-3.27276,0.544262,0.108404,0.0306719,
2,0,0,0,0,10185.3,0.0267172,0.0263863,-0.526208,15,1.24261,10,-1.38847e-05,-3.27884,0.4309,0.136923,0.0266178,
2,0,0,1,0,10186.1,0.022722,0.0224331,-0.517073,15,1.24218,10,-1.15996e-05,-3.28645,0.775024,0.0761266,0.0226606,
2,0,0,0,0,10186.9,0.0187268,0.0183877,-0.51038,15,1.24176,10,-9.38469e-06,-3.29211,0.589236,0.10013,0.0186122,
2,0,0,1,0,10187.7,0.0147313,0.0144226,-0.505763,15,1.24134,10,-7.29444e-06,-3.29605,1.75081,0.0336988,0.0146452,
2,0,0,1,0,10188.5,0.0107365,0.010388,-0.500725,15,1.24092,10,-5.20152e-06,-3.3004,1.53042,0.0385515,0.0106083,
2,0,0,1,0,10189.3,0.00674163,0.00648381,-0.49936,15,1.24051,10,-3.23775e-06,-3.30159,2.65505,0.0222218,0.00670353,
2,0,0,1,0,10190.1,0.00274612,0.00247627,-0.498517,15,1.24009,10,-1.23446e-06,-3.30232,-1.65024,-0.0357523,0.00269562,
2,0,0,0,0,10190.6,0.000274105,-0.00011417,-0.499514,15,1.23984,10,5.70296e-08,-3.30145, , ,0.000105616,