File: Figure_codes/Fig_3-5/workspace_calculate_alpha_eff/20221101_1-115_003_TrumpetPlot_ParaChange_from10_every3_16_CV_C01_42.csv
mode,ox/red,error,control changes,counter inc.,time/s,control/V,Ewe/V,<I>/mA,cycle number,(Q-Qo)/C,I Range,P/W,log(|I|),Tafel slope mV/dec,alpha_eff,E-IR/V,
2,0,0,1,0,28811.9,2.44065e-05,-0.000344411,-0.0453313,43,0.0000000E+000,10,1.56126e-08,-4.3436, , ,-0.000324465,
2,1,0,1,0,28812.7,0.00379485,0.00350699,0.203066,43,0.000133841,10,7.12148e-07,-3.69236,0.0463536,1.27282,0.00341764,
2,1,0,0,0,28813.5,0.00779002,0.00745594,0.226468,43,0.000317178,10,1.68853e-06,-3.64499,0.0987325,0.597574,0.00735629,
2,1,0,1,0,28814.3,0.0117852,0.01146,0.24316,43,0.000516942,10,2.78663e-06,-3.61411,0.141981,0.415547,0.011353,
2,1,0,1,0,28815.1,0.0157806,0.0154219,0.26028,43,0.000729416,10,4.01403e-06,-3.58456,0.167314,0.35263,0.0153074,
2,1,0,1,0,28815.9,0.0197754,0.0194724,0.273557,43,0.000953273,10,5.3268e-06,-3.56295,0.185581,0.31792,0.019352,
2,1,0,1,0,28816.7,0.0237704,0.0234878,0.2881,43,0.00118844,10,6.76685e-06,-3.54046,0.189636,0.311122,0.023361,
2,1,0,0,0,28817.5,0.0277659,0.0274319,0.302836,43,0.0014346,10,8.30735e-06,-3.51879,0.177387,0.332607,0.0272986,
2,1,0,1,0,28818.3,0.0317611,0.0314498,0.315308,43,0.00169242,10,9.91635e-06,-3.50127,0.211798,0.278567,0.031311,
2,1,0,1,0,28819.1,0.0357567,0.0353991,0.32968,43,0.00196159,10,1.16704e-05,-3.48191,0.280155,0.210598,0.035254,
2,1,0,1,0,28819.9,0.0397516,0.0394518,0.343574,43,0.00224133,10,1.35546e-05,-3.46398,0.200304,0.294553,0.0393006,
2,1,0,1,0,28820.7,0.0437465,0.0434387,0.355705,43,0.00253242,10,1.54514e-05,-3.44891,0.223231,0.2643,0.0432822,
2,1,0,1,0,28821.5,0.0477413,0.0474232,0.369331,43,0.00283399,10,1.75149e-05,-3.43258,0.262293,0.224939,0.0472607,
2,1,0,1,0,28822.3,0.0517369,0.051413,0.382157,43,0.00314597,10,1.96478e-05,-3.41776,0.295673,0.199545,0.0512448,
2,1,0,0,0,28823.1,0.0557321,0.0554171,0.393158,43,0.00346795,10,2.17877e-05,-3.40543,0.378084,0.15605,0.0552441,
2,1,0,1,0,28823.9,0.0597277,0.0593866,0.40469,43,0.00379854,10,2.40332e-05,-3.39288,0.343236,0.171894,0.0592086,
2,1,0,1,0,28824.7,0.0637226,0.0634179,0.41399,43,0.0041376,10,2.62544e-05,-3.38301,0.390952,0.150914,0.0632357,
2,1,0,1,0,28825.5,0.0677174,0.0673315,0.424394,43,0.00448512,10,2.8575e-05,-3.37223,0.481136,0.122626,0.0671447,
2,1,0,1,0,28826.3,0.0717128,0.0714101,0.433015,43,0.00483942,10,3.09216e-05,-3.3635,0.398511,0.148051,0.0712196,
2,1,0,0,0,28827.1,0.075708,0.0753665,0.439122,43,0.00520006,10,3.30951e-05,-3.35742,0.684672,0.0861726,0.0751733,
2,1,0,1,0,28827.9,0.0797031,0.0793865,0.448256,43,0.00556635,10,3.55855e-05,-3.34847,0.509531,0.115793,0.0791893,
2,1,0,1,0,28828.7,0.0836986,0.0833675,0.456434,43,0.00593894,10,3.80518e-05,-3.34062,0.41492,0.142196,0.0831667,
2,1,0,1,0,28829.5,0.0876935,0.0873872,0.466894,43,0.00631927,10,4.08006e-05,-3.33078,0.403979,0.146047,0.0871818,
2,1,0,1,0,28830.3,0.0916883,0.0913962,0.480059,43,0.00670889,10,4.38756e-05,-3.31871,0.289607,0.203724,0.091185,
2,1,0,0,0,28831.1,0.0956838,0.0953997,0.496219,43,0.00711117,10,4.73391e-05,-3.30433,0.223925,0.263481,0.0951813,
2,1,0,1,0,28831.9,0.099679,0.099355,0.517736,43,0.00752843,10,5.14397e-05,-3.28589,0.252544,0.233623,0.0991272,
2,1,0,0,0,28832.7,0.103674,0.103347,0.540227,43,0.00796259,10,5.58311e-05,-3.26742,0.198228,0.297637,0.10311,
2,1,0,1,0,28833.5,0.10767,0.10738,0.560812,43,0.00841515,10,6.02203e-05,-3.25118,0.253797,0.23247,0.107134,
2,1,0,1,0,28834.3,0.111664,0.111326,0.580367,43,0.008883,10,6.46099e-05,-3.2363,0.301903,0.195427,0.11107,
2,1,0,1,0,28835.1,0.115659,0.115336,0.595679,43,0.0093646,10,6.87032e-05,-3.22499,0.363754,0.162198,0.115074,
2,1,0,1,0,28835.9,0.119655,0.119312,0.608498,43,0.00985797,10,7.2601e-05,-3.21574,0.662619,0.0890406,0.119044,
2,1,0,0,0,28836.7,0.12365,0.123312,0.620282,43,0.0103603,10,7.6488e-05,-3.20741,0.414907,0.1422,0.123039,
2,1,0,1,0,28837.5,0.127646,0.127292,0.628784,43,0.0108725,10,8.00391e-05,-3.2015,0.816615,0.0722494,0.127015,
2,1,0,1,0,28838.3,0.131641,0.131312,0.635477,43,0.0113915,10,8.34455e-05,-3.1969,-2.11356,-0.027915,0.131032,
2,1,0,1,0,28839.1,0.135635,0.13533,0.627205,43,0.0119091,10,8.48797e-05,-3.20259,-0.348888,-0.169109,0.135054,
2,1,0,1,0,28839.9,0.139631,0.139356,0.594652,43,0.0124113,10,8.28681e-05,-3.22574,-0.132118,-0.44657,0.139094,
2,1,0,0,0,28840.7,0.143626,0.143316,0.547341,43,0.0128807,10,7.84429e-05,-3.26174,-0.0922123,-0.639828,0.143075,
2,1,0,1,0,28841.5,0.147621,0.147284,0.486807,43,0.0133053,10,7.1699e-05,-3.31264,-0.0753363,-0.783155,0.14707,
2,1,0,1,0,28842.3,0.151617,0.151264,0.432217,43,0.0136832,10,6.5379e-05,-3.3643,-0.0832828,-0.70843,0.151074,
2,1,0,1,0,28843.1,0.155612,0.155288,0.393506,43,0.0140233,10,6.11069e-05,-3.40505,-0.111964,-0.526956,0.155115,
2,1,0,1,0,28843.9,0.159606,0.159301,0.366372,43,0.0143372,10,5.83634e-05,-3.43608,-0.159591,-0.369696,0.159139,
2,1,0,0,0,28844.7,0.163602,0.163273,0.349137,43,0.014634,10,5.70046e-05,-3.457,-0.212487,-0.277665,0.16312,
2,1,0,1,0,28845.5,0.167597,0.167254,0.336937,43,0.0149188,10,5.6354e-05,-3.47245,-0.354337,-0.166508,0.167106,
2,1,0,0,0,28846.3,0.171592,0.171253,0.32679,43,0.0151954,10,5.59637e-05,-3.48573,-0.340348,-0.173352,0.171109,
2,1,0,1,0,28847.1,0.175588,0.175219,0.321727,43,0.0154655,10,5.63727e-05,-3.49251,-0.516512,-0.114228,0.175077,
2,1,0,1,0,28847.9,0.179582,0.179302,0.315951,43,0.0157306,10,5.66508e-05,-3.50038,-0.927421,-0.0636173,0.179163,
2,1,0,1,0,28848.7,0.183577,0.183263,0.311541,43,0.0159923,10,5.70939e-05,-3.50648,-0.593761,-0.0993666,0.183126,
2,1,0,1,0,28849.5,0.187573,0.187197,0.30833,43,0.0162508,10,5.77185e-05,-3.51098,-0.649344,-0.0908609,0.187061,
2,1,0,0,0,28850.3,0.191568,0.191285,0.304915,43,0.0165066,10,5.83255e-05,-3.51582,-1.63673,-0.0360475,0.191151,
2,1,0,1,0,28851.1,0.195563,0.195228,0.303926,43,0.0167605,10,5.9335e-05,-3.51723,-0.825499,-0.0714719,0.195095,
2,1,0,1,0,28851.9,0.199559,0.199208,0.300689,43,0.0170122,10,5.98999e-05,-3.52188,-3.79191,-0.0155594,0.199076,
2,1,0,1,0,28852.6,0.203553,0.203216,0.297187,43,0.0172624,10,6.03932e-05,-3.52697,-1.18722,-0.0496961,0.203086,
2,1,0,1,0,28853.4,0.207548,0.207236,0.297199,43,0.0175113,10,6.15903e-05,-3.52695,-1.54743,-0.0381277,0.207105,
2,1,0,0,0,28854.2,0.211544,0.211232,0.293989,43,0.0177584,10,6.20999e-05,-3.53167,-1.92899,-0.030586,0.211103,
2,1,0,1,0,28855,0.215539,0.215248,0.29269,43,0.0180042,10,6.30009e-05,-3.53359,-1.33597,-0.0441627,0.215119,
2,1,0,1,0,28855.8,0.219535,0.219241,0.292147,43,0.0182485,10,6.40505e-05,-3.5344,-1.75695,-0.0335809,0.219112,
2,1,0,1,0,28856.6,0.223529,0.22325,0.289941,43,0.0184917,10,6.47293e-05,-3.53769,-4.09786,-0.0143978,0.223122,
2,1,0,1,0,28857.4,0.227524,0.227247,0.289656,43,0.0187341,10,6.58236e-05,-3.53812,-0.998949,-0.0590621,0.22712,
2,1,0,0,0,28858.2,0.23152,0.231211,0.288197,43,0.0189753,10,6.66343e-05,-3.54031,-6.3973,-0.00922264,0.231084,
2,1,0,1,0,28859,0.235515,0.235245,0.28589,43,0.0192157,10,6.72541e-05,-3.5438,-3.68244,-0.016022,0.235119,
2,1,0,0,0,28859.8,0.23951,0.239172,0.285817,43,0.0194551,10,6.83595e-05,-3.54391,-2.16344,-0.0272714,0.239046,
2,1,0,1,0,28860.6,0.243506,0.243197,0.284834,43,0.0196936,10,6.92708e-05,-3.54541,-2.78982,-0.0211483,0.243072,
2,1,0,1,0,28861.4,0.2475,0.247164,0.282704,43,0.0199313,10,6.98742e-05,-3.54867,-2.27064,-0.0259839,0.24704,
2,1,0,1,0,28862.2,0.251495,0.251178,0.282878,43,0.0201678,10,7.10527e-05,-3.5484,-2.12205,-0.0278034,0.251054,
2,1,0,1,0,28863,0.255491,0.255205,0.281496,43,0.0204039,10,7.18393e-05,-3.55053,-2.77834,-0.0212357,0.255081,
2,1,0,0,0,28863.8,0.259486,0.259191,0.281133,43,0.0206394,10,7.28671e-05,-3.55109,-1.40511,-0.0419894,0.259067,
2,1,0,1,0,28864.6,0.263481,0.26319,0.279898,43,0.0208737,10,7.36664e-05,-3.553,-23.2746,-0.00253496,0.263067,
2,1,0,1,0,28865.4,0.267477,0.267169,0.279176,43,0.0211075,10,7.45871e-05,-3.55412,-1.60321,-0.0368012,0.267046,
2,1,0,1,0,28866.2,0.271471,0.271148,0.278884,43,0.0213404,10,7.56189e-05,-3.55458,287.106,0.000205499,0.271025,
2,1,0,1,0,28867,0.275466,0.275122,0.276237,43,0.0215725,10,7.59991e-05,-3.55872,-6.29902,-0.00936653,0.275001,
2,1,0,0,0,28867.8,0.279462,0.279175,0.27585,43,0.021804,10,7.70103e-05,-3.55933,-1.70484,-0.0346073,0.279053,
2,1,0,1,0,28868.6,0.283457,0.283125,0.275604,43,0.0220345,10,7.80303e-05,-3.55971,-3.98313,-0.0148125,0.283003,
2,1,0,0,0,28869.4,0.287452,0.287097,0.273945,43,0.0222643,10,7.86487e-05,-3.56234,-2.0836,-0.0283164,0.286976,
2,1,0,1,0,28870.2,0.291448,0.291102,0.273221,43,0.0224934,10,7.95354e-05,-3.56349,-1.14411,-0.0515684,0.290982,
2,1,0,1,0,28871,0.295442,0.295135,0.272335,43,0.0227216,10,8.03755e-05,-3.5649,-4.39219,-0.0134329,0.295015,
2,1,0,1,0,28871.8,0.299437,0.299123,0.270239,43,0.0229492,10,8.08347e-05,-3.56825,-11.2597,-0.00523994,0.299005,
2,1,0,1,0,28872.6,0.303433,0.303087,0.269693,43,0.0231761,10,8.17403e-05,-3.56913,-2.53681,-0.0232575,0.302968,
2,1,0,0,0,28873.4,0.307428,0.307085,0.269928,43,0.0234019,10,8.28911e-05,-3.56875,49.3363,0.00119587,0.306967,
2,1,0,1,0,28874.2,0.311424,0.311141,0.26934,43,0.0236275,10,8.38026e-05,-3.5697,-3.01555,-0.0195653,0.311023,
2,1,0,1,0,28875,0.315418,0.315066,0.26881,43,0.0238522,10,8.46929e-05,-3.57055,-2.8062,-0.0210248,0.314948,
2,1,0,1,0,28875.8,0.319413,0.319102,0.267936,43,0.0240763,10,8.54989e-05,-3.57197,-3.19556,-0.0184631,0.318984,
2,1,0,1,0,28876.6,0.323409,0.323101,0.266613,43,0.0243,10,8.61428e-05,-3.57412,-1.58542,-0.0372142,0.322983,
2,1,0,0,0,28877.4,0.327404,0.32712,0.266689,43,0.0245229,10,8.72394e-05,-3.57399,250.377,0.000235645,0.327002,
2,1,0,1,0,28878.2,0.331399,0.33113,0.26438,43,0.0247456,10,8.75441e-05,-3.57777,-2.20566,-0.0267494,0.331014,
2,1,0,1,0,28879,0.335395,0.335135,0.264759,43,0.0249675,10,8.87299e-05,-3.57715,-1.88486,-0.031302,0.335018,
2,1,0,1,0,28879.8,0.339389,0.339086,0.263791,43,0.0251887,10,8.94478e-05,-3.57874,-47.1641,-0.00125095,0.33897,
2,1,0,1,0,28880.6,0.343384,0.343091,0.26338,43,0.0254092,10,9.03635e-05,-3.57942,-2.94255,-0.0200507,0.342975,
2,1,0,0,0,28881.4,0.34738,0.34708,0.263464,43,0.025629,10,9.14429e-05,-3.57928,-3.40844,-0.01731,0.346964,
2,1,0,1,0,28882.2,0.351375,0.351074,0.261611,43,0.0258484,10,9.18451e-05,-3.58234,-4.76831,-0.0123734,0.350959,
2,1,0,0,0,28883,0.35537,0.355033,0.261007,43,0.0260672,10,9.26662e-05,-3.58335,-1.42965,-0.0412689,0.354918,
2,1,0,1,0,28883.8,0.359366,0.359079,0.260692,43,0.0262854,10,9.36089e-05,-3.58387,1.97774,0.0298321,0.358964,
2,1,0,1,0,28884.6,0.36336,0.363056,0.259031,43,0.0265035,10,9.40427e-05,-3.58665,-1.67393,-0.0352463,0.362942,
2,1,0,1,0,28885.4,0.367355,0.3671,0.259652,43,0.0267211,10,9.5318e-05,-3.58561,-3.42108,-0.017246,0.366986,
2,1,0,1,0,28886.2,0.371351,0.371025,0.258832,43,0.0269379,10,9.6033e-05,-3.58698,2.2744,0.0259409,0.370911,
2,1,0,0,0,28887,0.375346,0.375042,0.259374,43,0.0271545,10,9.72759e-05,-3.58607,-1.49504,-0.0394638,0.374927,
2,1,0,1,0,28887.8,0.379342,0.379051,0.25781,43,0.0273706,10,9.77234e-05,-3.5887,-4.61183,-0.0127932,0.378938,
2,1,0,1,0,28888.6,0.383336,0.383023,0.257842,43,0.0275862,10,9.87595e-05,-3.58865,24.5523,0.00240303,0.38291,
2,1,0,1,0,28889.4,0.387331,0.38701,0.25757,43,0.0278018,10,9.96822e-05,-3.5891,-1.4502,-0.0406839,0.386897,
2,1,0,1,0,28890.2,0.391327,0.391046,0.256949,43,0.0280169,10,0.000100479,-3.59015,141.298,0.000417557,0.390933,
2,1,0,0,0,28891,0.395322,0.395047,0.25597,43,0.0282314,10,0.00010112,-3.59181,-4.21203,-0.0140075,0.394935,
2,1,0,1,0,28891.8,0.399317,0.399004,0.255684,43,0.0284455,10,0.000102019,-3.5923,4.14041,0.0142498,0.398891,
2,1,0,1,0,28892.6,0.403313,0.403009,0.255182,43,0.0286593,10,0.000102841,-3.59315,-4.92145,-0.0119883,0.402897,
2,1,0,1,0,28893.4,0.407307,0.40699,0.255906,43,0.028873,10,0.000104151,-3.59192,-6.50565,-0.00906904,0.406877,
2,1,0,1,0,28894.2,0.411302,0.411026,0.256244,43,0.0290862,10,0.000105323,-3.59135,-4.30039,-0.0137197,0.410914,
2,1,0,0,0,28895,0.415298,0.415037,0.254905,43,0.0292992,10,0.000105795,-3.59362,-14.8457,-0.00397422,0.414925,
2,1,0,1,0,28895.8,0.419293,0.419007,0.254374,43,0.0295118,10,0.000106584,-3.59453,-1.72668,-0.0341697,0.418895,
2,1,0,0,0,28896.6,0.423288,0.422904,0.254871,43,0.029724,10,0.000107786,-3.59368,2.53429,0.0232806,0.422792,
2,1,0,1,0,28897.4,0.427283,0.426981,0.253825,43,0.0299363,10,0.000108378,-3.59547,-6.69021,-0.00881886,0.426869,
2,1,0,1,0,28898.2,0.431278,0.430948,0.254825,43,0.0301481,10,0.000109817,-3.59376,4.0185,0.0146821,0.430836,
2,1,0,1,0,28899,0.435273,0.434933,0.253856,43,0.0303601,10,0.00011041,-3.59541,-138.476,-0.000426067,0.434821,
2,1,0,1,0,28899.8,0.439269,0.438956,0.254755,43,0.0305721,10,0.000111826,-3.59388,-150.818,-0.0003912,0.438843,
2,1,0,0,0,28900.6,0.443264,0.442964,0.254244,43,0.0307839,10,0.000112621,-3.59475,-4.27621,-0.0137973,0.442852,
2,1,0,1,0,28901.4,0.447259,0.446957,0.254065,43,0.0309956,10,0.000113556,-3.59505,2.86692,0.0205796,0.446846,
2,1,0,1,0,28902.2,0.451254,0.450957,0.253698,43,0.0312075,10,0.000114407,-3.59568,-1.82835,-0.0322696,0.450846,
2,1,0,1,0,28903,0.455249,0.454943,0.253403,43,0.031419,10,0.000115284,-3.59619,16.7192,0.00352889,0.454831,
2,1,0,1,0,28903.8,0.459244,0.458946,0.253446,43,0.0316308,10,0.000116318,-3.59611,3.39758,0.0173653,0.458834,
2,1,0,0,0,28904.6,0.46324,0.462978,0.254178,43,0.0318428,10,0.000117679,-3.59486,8.18809,0.00720559,0.462866,
2,1,0,1,0,28905.4,0.467235,0.466893,0.255225,43,0.0320548,10,0.000119163,-3.59308,16.5464,0.00356573,0.466781,
2,1,0,1,0,28906.2,0.471231,0.470961,0.255149,43,0.0322671,10,0.000120165,-3.59321,17.0597,0.00345844,0.470849,
2,1,0,1,0,28907,0.475225,0.47491,0.256123,43,0.0324794,10,0.000121635,-3.59155,3.38283,0.017441,0.474797,
2,1,0,1,0,28907.8,0.47922,0.478893,0.255335,43,0.032692,10,0.000122278,-3.59289,20.0612,0.002941,0.478781,
2,1,0,0,0,28908.6,0.483216,0.482936,0.256796,43,0.0329053,10,0.000124016,-3.59041,-93.915,-0.000628228,0.482823,
2,1,0,1,0,28909.4,0.487211,0.48691,0.25661,43,0.0331188,10,0.000124946,-3.59073,1.46036,0.040401,0.486797,
2,1,0,0,0,28910.2,0.491206,0.490929,0.256987,43,0.0333327,10,0.000126162,-3.59009,-61.8723,-0.000953576,0.490816,
2,1,0,1,0,28911,0.495201,0.494937,0.25793,43,0.0335469,10,0.000127659,-3.5885,6.45669,0.0091378,0.494823,
2,1,0,1,0,28911.8,0.499196,0.49891,0.258899,43,0.0337613,10,0.000129167,-3.58687,1.82694,0.0322945,0.498796,
2,1,0,1,0,28912.6,0.503191,0.502869,0.259069,43,0.0339764,10,0.000130278,-3.58658,169.256,0.000348584,0.502755,
2,1,0,1,0,28913.4,0.507187,0.506898,0.25968,43,0.0341919,10,0.000131631,-3.58556,2.72765,0.0216303,0.506784,
2,1,0,0,0,28914.2,0.511182,0.510932,0.260263,43,0.034408,10,0.000132977,-3.58459,2.37284,0.0248647,0.510817,
2,1,0,1,0,28915,0.515177,0.514916,0.261485,43,0.0346251,10,0.000134643,-3.58255,3.54319,0.0166517,0.514801,
2,1,0,1,0,28915.8,0.519173,0.51886,0.262401,43,0.0348428,10,0.000136149,-3.58103,1.05278,0.0560422,0.518744,
2,1,0,1,0,28916.6,0.523167,0.522819,0.26323,43,0.0350614,10,0.000137622,-3.57966,2.90362,0.0203195,0.522703,
2,1,0,1,0,28917.4,0.527162,0.52687,0.265063,43,0.035281,10,0.000139654,-3.57665,2.2785,0.0258942,0.526754,
2,1,0,0,0,28918.2,0.531158,0.530863,0.266494,43,0.0355015,10,0.000141472,-3.57431,1.09989,0.0536417,0.530746,
2,1,0,1,0,28919,0.535153,0.534884,0.268505,43,0.0357234,10,0.000143619,-3.57105,1.91535,0.0308038,0.534766,
2,1,0,0,0,28919.8,0.539148,0.538832,0.270562,43,0.0359467,10,0.000145787,-3.56773,1.61468,0.0365398,0.538713,
2,1,0,1,0,28920.6,0.543143,0.542833,0.271354,43,0.0361715,10,0.0001473,-3.56646,1.07069,0.0551049,0.542714,
2,1,0,1,0,28921.4,0.547138,0.546812,0.273794,43,0.036398,10,0.000149714,-3.56258,1.77142,0.0333065,0.546691,
2,1,0,1,0,28922.2,0.551133,0.550831,0.276024,43,0.0366258,10,0.000152043,-3.55905,0.737368,0.0800143,0.55071,
2,1,0,1,0,28923,0.555129,0.554819,0.277852,43,0.0368557,10,0.000154158,-3.55619,1.52128,0.0387831,0.554696,
2,1,0,0,0,28923.8,0.559124,0.558841,0.282149,43,0.0370874,10,0.000157676,-3.54952,0.674533,0.0874679,0.558717,
2,1,0,1,0,28924.6,0.56312,0.562803,0.284637,43,0.0373214,10,0.000160195,-3.54571,0.72772,0.0810751,0.562678,
2,1,0,1,0,28925.4,0.567114,0.566803,0.287631,43,0.037558,10,0.00016303,-3.54116,1.11401,0.052962,0.566677,
2,1,0,1,0,28926.2,0.571109,0.570816,0.291908,43,0.0377971,10,0.000166626,-3.53475,0.693832,0.085035,0.570687,
2,1,0,1,0,28927,0.575105,0.574835,0.294874,43,0.0380392,10,0.000169504,-3.53036,0.74049,0.079677,0.574705,
2,1,0,0,0,28927.8,0.5791,0.578819,0.299798,43,0.0382847,10,0.000173529,-3.52317,0.708425,0.0832833,0.578687,
2,1,0,1,0,28928.6,0.583095,0.582808,0.304921,43,0.0385338,10,0.00017771,-3.51581,0.402509,0.14658,0.582674,
2,1,0,1,0,28929.4,0.58709,0.586805,0.310026,43,0.0387872,10,0.000181925,-3.5086,0.581657,0.101434,0.586669,
2,1,0,1,0,28930.2,0.591085,0.590821,0.316906,43,0.0390451,10,0.000187234,-3.49907,0.427309,0.138074,0.590681,
2,1,0,1,0,28931,0.59508,0.594755,0.323415,43,0.0393082,10,0.000192353,-3.49024,0.383164,0.153981,0.594613,
2,1,0,0,0,28931.8,0.599076,0.598831,0.331875,43,0.0395776,10,0.000198737,-3.47903,0.363216,0.162438,0.598685,
2,1,0,1,0,28932.6,0.603071,0.602793,0.340173,43,0.0398534,10,0.000205054,-3.4683,0.347217,0.169922,0.602643,
2,1,0,0,0,28933.4,0.607066,0.606747,0.350149,43,0.0401368,10,0.000212452,-3.45575,0.268736,0.219547,0.606593,
2,1,0,1,0,28934.2,0.611061,0.610763,0.362146,43,0.0404292,10,0.000221185,-3.44112,0.272395,0.216597,0.610603,
2,1,0,1,0,28935,0.615056,0.614762,0.375709,43,0.0407317,10,0.000230972,-3.42515,0.229091,0.257539,0.614597,
2,1,0,1,0,28935.7,0.619051,0.618746,0.392383,43,0.0410468,10,0.000242786,-3.40629,0.207496,0.284342,0.618573,
2,1,0,1,0,28936.5,0.623047,0.622774,0.410867,43,0.0413753,10,0.000255877,-3.3863,0.184547,0.319703,0.622593,
2,1,0,0,0,28937.3,0.627042,0.626756,0.431968,43,0.0417195,10,0.000270738,-3.36455,0.175693,0.335813,0.626566,
2,1,0,1,0,28938.1,0.631037,0.630751,0.457235,43,0.0420821,10,0.000288401,-3.33986,0.156368,0.377315,0.630549,
2,1,0,1,0,28938.9,0.635032,0.634785,0.485948,43,0.042466,10,0.000308473,-3.31341,0.143563,0.41097,0.634572,
2,1,0,1,0,28939.7,0.639027,0.638718,0.51924,43,0.0428752,10,0.000331648,-3.28463,0.129968,0.453956,0.638489,
2,1,0,1,0,28940.5,0.643022,0.642704,0.55911,43,0.0433134,10,0.000359342,-3.2525,0.125718,0.469303,0.642458,
2,1,0,0,0,28941.3,0.647018,0.646749,0.604122,43,0.0437854,10,0.000390715,-3.21888,0.107559,0.548536,0.646483,
2,1,0,1,0,28942.1,0.651013,0.650722,0.660445,43,0.0442981,10,0.000429766,-3.18016,0.100194,0.588858,0.650431,
2,1,0,1,0,28942.9,0.655008,0.654757,0.723934,43,0.0448583,10,0.000474001,-3.1403,0.0973213,0.60624,0.654439,
2,1,0,1,0,28943.7,0.659003,0.658714,0.799076,43,0.0454735,10,0.000526362,-3.09741,0.0915902,0.644174,0.658362,
2,1,0,1,0,28944.5,0.662998,0.662728,0.88543,43,0.046153,10,0.000586799,-3.05285,0.0862758,0.683853,0.662338,
2,1,0,0,0,28945.3,0.666994,0.666723,0.984931,43,0.0469067,10,0.000656677,-3.00659,0.0829412,0.711347,0.66629,
2,1,0,1,0,28946.1,0.670989,0.670725,1.0986,43,0.0477461,10,0.000736858,-2.95916,0.0813793,0.725,0.670242,
2,1,0,0,0,28946.9,0.674984,0.674712,1.23033,43,0.0486836,10,0.000830121,-2.90998,0.0805257,0.732685,0.674171,
2,1,0,1,0,28947.7,0.67898,0.678666,1.38131,43,0.0497336,10,0.000937451,-2.85971,0.0767818,0.768411,0.678058,
2,1,0,1,0,28948.5,0.682974,0.682682,1.55003,43,0.0509113,10,0.00105818,-2.80966,0.0789268,0.747528,0.682,
2,1,0,1,0,28949.3,0.686969,0.686736,1.7404,43,0.052232,10,0.00119519,-2.75935,0.0780588,0.75584,0.68597,
2,1,0,1,0,28950.1,0.690965,0.690729,1.95303,43,0.0537145,10,0.00134901,-2.70929,0.0778409,0.757957,0.68987,
2,1,0,0,0,28950.9,0.69496,0.694651,2.18727,43,0.0553754,10,0.00151939,-2.6601,0.0795907,0.741293,0.693689,
2,1,0,1,0,28951.7,0.698955,0.698709,2.44709,43,0.0572336,10,0.00170981,-2.61135,0.080001,0.737491,0.697633,
2,1,0,1,0,28952.5,0.70295,0.702701,2.728,43,0.0593076,10,0.00191697,-2.56416,0.0831699,0.709391,0.701501,
2,1,0,1,0,28953.3,0.706945,0.706698,3.03315,43,0.0616162,10,0.00214353,-2.51811,0.0850163,0.693985,0.705364,
2,1,0,1,0,28954.1,0.71094,0.710665,3.36394,43,0.0641784,10,0.00239064,-2.47315,0.0858772,0.687027,0.709185,
2,1,0,0,0,28954.9,0.714936,0.714647,3.71769,43,0.0670144,10,0.00265684,-2.42973,0.0910669,0.647875,0.713012,
2,1,0,1,0,28955.7,0.718931,0.718633,4.09502,43,0.0701418,10,0.00294281,-2.38774,0.0918699,0.642212,0.716832,
2,1,0,1,0,28956.5,0.722927,0.722638,4.49446,43,0.0735809,10,0.00324787,-2.34732,0.0965783,0.610903,0.720661,
2,1,0,1,0,28957.3,0.726921,0.726666,4.92063,43,0.0773492,10,0.00357566,-2.30798,0.0980297,0.601858,0.724501,
2,1,0,1,0,28958.1,0.730916,0.730635,5.36784,43,0.0814656,10,0.00392193,-2.2702,0.101991,0.578484,0.728273,
2,1,0,1,0,28958.9,0.734911,0.734639,5.83911,43,0.0859494,10,0.00428963,-2.23365,0.10501,0.561854,0.732069,
2,1,0,1,0,28959.7,0.738907,0.738645,6.33404,43,0.0908197,10,0.00467861,-2.19832,0.109932,0.536695,0.735859,
2,1,0,0,0,28960.5,0.742902,0.742642,6.84964,43,0.0960935,10,0.00508683,-2.16433,0.111366,0.529786,0.739628,
2,1,0,1,0,28961.3,0.746897,0.74661,7.39207,43,0.101791,10,0.005519,-2.13123,0.11557,0.510515,0.743358,
2,1,0,1,0,28962.1,0.750892,0.750612,7.95783,43,0.10793,10,0.00597325,-2.09921,0.12055,0.489424,0.747111,
2,1,0,1,0,28962.9,0.754887,0.754603,8.54707,43,0.114532,10,0.00644965,-2.06818,0.118738,0.496892,0.750843,
2,1,0,1,0,28963.7,0.758883,0.758602,9.1657,43,0.121616,10,0.00695312,-2.03783,0.123743,0.476793,0.754569,
2,1,0,0,0,28964.5,0.762878,0.762587,9.8121,43,0.129204,10,0.00748258,-2.00824,0.128376,0.459587,0.75827,
2,1,0,1,0,28965.3,0.766873,0.766599,10.4892,43,0.137321,10,0.00804102,-1.97926,0.129689,0.454934,0.761984,
2,1,0,1,0,28966.1,0.770868,0.77063,11.2046,43,0.145995,10,0.00863458,-1.9506,0.12742,0.463035,0.7657,
2,1,0,1,0,28966.9,0.774863,0.774586,11.958,43,0.155254,10,0.00926251,-1.92234,0.1291,0.457009,0.769324,
2,1,0,1,0,28967.7,0.778858,0.778581,12.764,43,0.165136,10,0.00993782,-1.89401,0.127811,0.46162,0.772965,
2,1,0,0,0,28968.5,0.782854,0.782563,13.6312,43,0.175687,10,0.0106673,-1.86547,0.127432,0.462993,0.776565,
2,1,0,1,0,28969.3,0.786849,0.786575,14.5401,43,0.186948,10,0.0114368,-1.83743,0.126964,0.464698,0.780177,
2,1,0,0,0,28970.1,0.790844,0.790565,15.5207,43,0.198962,10,0.0122701,-1.80909,0.123361,0.478272,0.783736,
2,1,0,1,0,28970.9,0.794839,0.79461,16.5463,43,0.211782,10,0.0131478,-1.7813,0.129568,0.45536,0.787329,
2,1,0,1,0,28971.7,0.798834,0.798576,17.6169,43,0.225438,10,0.0140684,-1.75407,0.131123,0.449961,0.790825,
2,1,0,1,0,28972.5,0.802829,0.802512,18.7654,43,0.239972,10,0.0150595,-1.72664,0.125201,0.471244,0.794256,
2,1,0,1,0,28973.3,0.806825,0.806573,19.9554,43,0.25546,10,0.0160955,-1.69994,0.133255,0.44276,0.797793,
2,1,0,0,0,28974.1,0.81082,0.810502,21.1601,43,0.271896,10,0.0171503,-1.67448,0.140657,0.41946,0.801191,
2,1,0,1,0,28974.9,0.814815,0.814546,22.4093,43,0.289308,10,0.0182534,-1.64957,0.135685,0.434832,0.804685,
2,1,0,1,0,28975.7,0.81881,0.81856,23.7418,43,0.307754,10,0.0194341,-1.62449,0.13684,0.431161,0.808113,
2,1,0,1,0,28976.5,0.822805,0.822563,25.1075,43,0.327279,10,0.0206525,-1.6002,0.149184,0.395485,0.811516,
2,1,0,1,0,28977.3,0.826801,0.826568,26.4235,43,0.347877,10,0.0218408,-1.57801,0.158974,0.37113,0.814942,
2,1,0,0,0,28978.1,0.830796,0.830552,27.7466,43,0.369527,10,0.023045,-1.55679,0.154789,0.381164,0.818343,
2,1,0,1,0,28978.9,0.834791,0.834591,29.2068,43,0.392285,10,0.0243757,-1.53452,0.150567,0.391853,0.82174,
2,1,0,1,0,28979.7,0.838786,0.838554,30.6757,43,0.416217,10,0.0257232,-1.51321,0.160049,0.368638,0.825057,
2,1,0,1,0,28980.5,0.842781,0.84255,32.1518,43,0.441332,10,0.0270895,-1.4928,0.172978,0.341084,0.828403,
2,1,0,1,0,28981.3,0.846776,0.846532,33.5382,43,0.467592,10,0.0283912,-1.47446,0.189759,0.310921,0.831775,
2,1,0,1,0,28982,0.849723,0.849465,34.4488,43,0.491485,10,0.0292631,-1.46283,0.0479777,1.22974,0.834308,
2,1,0,0,0,28982.8,0.845728,0.845463,32.286,43,0.518054,10,0.0272966,-1.49099,0.12753,0.462637,0.831258,
2,1,0,1,0,28983.6,0.841732,0.841468,30.5255,43,0.54313,10,0.0256862,-1.51534,0.119824,0.492389,0.828037,
2,1,0,1,0,28984.4,0.837737,0.837451,28.7239,43,0.566744,10,0.0240548,-1.54176,0.136837,0.431169,0.824812,
2,1,0,1,0,28985.2,0.833742,0.833477,27.1898,43,0.589067,10,0.0226621,-1.56559,0.141105,0.418128,0.821514,
2,1,0,1,0,28986,0.829747,0.829471,25.6919,43,0.610182,10,0.0213106,-1.5902,0.133572,0.441709,0.818166,
2,1,0,0,0,28986.8,0.825752,0.825514,24.1837,43,0.630113,10,0.019964,-1.61648,0.126353,0.466946,0.814873,
2,1,0,1,0,28987.6,0.821757,0.821509,22.8082,43,0.648872,10,0.0187372,-1.64191,0.131556,0.448478,0.811473,
2,1,0,1,0,28988.4,0.817761,0.817505,21.4889,43,0.666553,10,0.0175673,-1.66779,0.13276,0.444411,0.80805,
2,1,0,1,0,28989.2,0.813766,0.813491,20.2346,43,0.683206,10,0.0164607,-1.69391,0.131296,0.449366,0.804588,
2,1,0,1,0,28990,0.809771,0.809467,19.0236,43,0.698875,10,0.015399,-1.72071,0.125911,0.468584,0.801097,
2,1,0,1,0,28990.8,0.805776,0.805527,17.8189,43,0.713581,10,0.0143536,-1.74912,0.119677,0.492992,0.797686,
2,1,0,1,0,28991.6,0.801781,0.801512,16.6746,43,0.727347,10,0.0133649,-1.77794,0.1229,0.480063,0.794175,
2,1,0,0,0,28992.4,0.797786,0.797494,15.5984,43,0.740227,10,0.0124396,-1.80692,0.117962,0.500163,0.790631,
2,1,0,1,0,28993.2,0.79379,0.793519,14.5593,43,0.752262,10,0.011553,-1.83686,0.11891,0.496172,0.787113,
2,1,0,1,0,28994,0.789795,0.789574,13.5742,43,0.763489,10,0.0107179,-1.86728,0.117016,0.504203,0.783602,
2,1,0,1,0,28994.8,0.7858,0.785541,12.6489,43,0.77395,10,0.00993622,-1.89795,0.116052,0.508391,0.779975,
2,1,0,1,0,28995.6,0.781805,0.781553,11.7698,43,0.783695,10,0.00919875,-1.92923,0.114833,0.513789,0.776374,
2,1,0,0,0,28996.4,0.77781,0.777548,10.9284,43,0.79275,10,0.00849734,-1.96144,0.112463,0.524617,0.772739,
2,1,0,1,0,28997.2,0.773815,0.773564,10.1396,43,0.801156,10,0.00784364,-1.99398,0.110416,0.534341,0.769102,
2,1,0,1,0,28998,0.769819,0.769593,9.38397,43,0.808944,10,0.00722184,-2.02761,0.107315,0.549781,0.765464,
2,1,0,1,0,28998.8,0.765824,0.765615,8.67256,43,0.816146,10,0.00663984,-2.06185,0.106707,0.552914,0.761799,
2,1,0,1,0,28999.6,0.761829,0.761579,7.99833,43,0.822794,10,0.00609137,-2.097,0.105161,0.561046,0.75806,
2,1,0,0,0,29000.4,0.757834,0.757549,7.36824,43,0.828923,10,0.0055818,-2.13264,0.102277,0.576862,0.754307,
2,1,0,1,0,29001.2,0.753839,0.753526,6.77321,43,0.834561,10,0.00510379,-2.16921,0.102047,0.578163,0.750546,
2,1,0,0,0,29002,0.749844,0.749575,6.21807,43,0.839741,10,0.00466091,-2.20634,0.0994115,0.593493,0.746839,
2,1,0,1,0,29002.8,0.745848,0.745574,5.69913,43,0.844492,10,0.00424912,-2.24419,0.0984969,0.599004,0.743066,
2,1,0,1,0,29003.6,0.741853,0.741532,5.20562,43,0.848839,10,0.00386014,-2.28353,0.0948238,0.622207,0.739242,
2,1,0,1,0,29004.4,0.737858,0.73762,4.74241,43,0.852803,10,0.0034981,-2.324,0.0926908,0.636525,0.735534,
2,1,0,1,0,29005.2,0.733863,0.733602,4.30938,43,0.856409,10,0.00316137,-2.36559,0.0898119,0.656928,0.731706,
2,1,0,0,0,29006,0.729868,0.729623,3.90176,43,0.859679,10,0.00284682,-2.40874,0.0861344,0.684976,0.727906,
2,1,0,1,0,29006.8,0.725872,0.725617,3.5199,43,0.862635,10,0.0025541,-2.45347,0.0854556,0.690417,0.724068,
2,1,0,1,0,29007.6,0.721877,0.72161,3.16324,43,0.865295,10,0.00228263,-2.49987,0.0812321,0.726314,0.720218,
2,1,0,1,0,29008.4,0.717882,0.717608,2.83378,43,0.867682,10,0.00203355,-2.54763,0.079834,0.739034,0.716362,
2,1,0,1,0,29009.2,0.713887,0.71363,2.52702,43,0.869814,10,0.00180336,-2.59739,0.0760279,0.776031,0.712519,
2,1,0,0,0,29010,0.709892,0.709622,2.24417,43,0.871711,10,0.00159251,-2.64894,0.0734519,0.803247,0.708635,
2,1,0,1,0,29010.8,0.705897,0.705612,1.98491,43,0.87339,10,0.00140058,-2.70226,0.0714196,0.826104,0.704738,
2,1,0,1,0,29011.6,0.701901,0.701615,1.74553,43,0.87487,10,0.00122469,-2.75807,0.067936,0.868465,0.700847,
2,1,0,1,0,29012.4,0.697906,0.697674,1.52703,43,0.876167,10,0.00106537,-2.81615,0.0665919,0.885993,0.697002,
2,1,0,1,0,29013.2,0.693911,0.693647,1.34284,43,0.877302,10,0.000931461,-2.87197,0.0678734,0.869265,0.693057,
2,1,0,0,0,29014,0.689916,0.689643,1.16178,43,0.878292,10,0.000801216,-2.93487,0.0608989,0.968818,0.689132,
2,1,0,1,0,29014.8,0.685921,0.685603,0.998956,43,0.879146,10,0.000684887,-3.00045,0.0595166,0.99132,0.685163,
2,1,0,0,0,29015.6,0.681926,0.681654,0.853528,43,0.879878,10,0.000581811,-3.06878,0.0560891,1.0519,0.681278,
2,1,0,1,0,29016.4,0.67793,0.677638,0.72249,43,0.880499,10,0.000489586,-3.14117,0.0539104,1.09441,0.67732,
2,1,0,1,0,29017.2,0.673935,0.673672,0.607575,43,0.881022,10,0.000409306,-3.2164,0.0514893,1.14587,0.673405,
2,1,0,1,0,29018,0.66994,0.669678,0.508865,43,0.881458,10,0.000340776,-3.2934,0.0479051,1.2316,0.669454,
2,1,0,1,0,29018.7,0.665945,0.665683,0.418984,43,0.88182,10,0.00027891,-3.3778,0.0469445,1.2568,0.665499,
2,1,0,0,0,29019.5,0.66195,0.661659,0.341511,43,0.882114,10,0.000225964,-3.46659,0.0435766,1.35394,0.661509,
2,1,0,1,0,29020.3,0.657955,0.657717,0.275956,43,0.882353,10,0.000181501,-3.55916,0.0407495,1.44787,0.657596,
2,1,0,1,0,29021.1,0.653959,0.653653,0.218647,43,0.882542,10,0.000142919,-3.66026,0.0378768,1.55768,0.653557,
2,1,0,1,0,29021.9,0.649964,0.649722,0.171441,43,0.882689,10,0.000111389,-3.76589,0.0346502,1.70273,0.649647,
2,1,0,1,0,29022.7,0.64597,0.645649,0.128634,43,0.8828,10,8.30527e-05,-3.89064,0.031133,1.8951,0.645593,
2,1,0,0,0,29023.5,0.641974,0.641726,0.0939655,43,0.88288,10,6.03002e-05,-4.02703,0.0270989,2.17721,0.641685,
2,1,0,1,0,29024.3,0.637979,0.637718,0.0649142,43,0.882935,10,4.1397e-05,-4.18766,0.0215237,2.74117,0.63769,
2,1,0,1,0,29025.1,0.633983,0.633722,0.0382602,43,0.882968,10,2.42463e-05,-4.41725,0.0162845,3.62307,0.633705,
2,1,0,1,0,29025.9,0.629988,0.629734,0.0174357,43,0.882982,10,1.09799e-05,-4.75856,0.00751861,7.8472,0.629726,
2,1,0,1,0,29026.7,0.625993,0.62571,0.000357925,43,0.882982,10,2.23957e-07,-6.44621,0.0911956,0.646961,0.62571,
2,0,0,0,0,29027.5,0.621998,0.621749,-0.0139258,43,0.882968,10,-8.65834e-06,-4.85618,-0.00987989,-5.97173,0.621756,
2,0,0,1,0,29028.3,0.618003,0.617731,-0.0255584,43,0.882944,10,-1.57882e-05,-4.59247,-0.0181601,-3.24889,0.617742,
2,0,0,0,0,29029.1,0.614008,0.6137,-0.0365918,43,0.882911,10,-2.24564e-05,-4.43662,-0.0451693,-1.3062,0.613716,
2,0,0,1,0,29029.9,0.610012,0.609755,-0.0451086,43,0.882871,10,-2.75052e-05,-4.34574,-0.0476512,-1.23816,0.609775,
2,0,0,1,0,29030.7,0.606017,0.605733,-0.0509208,43,0.882824,10,-3.08444e-05,-4.2931,-0.0745129,-0.79181,0.605756,
2,0,0,1,0,29031.5,0.602022,0.601665,-0.0582334,43,0.882772,10,-3.5037e-05,-4.23483,-0.0981117,-0.601355,0.60169,
2,0,0,1,0,29032.3,0.598027,0.597753,-0.0627751,43,0.882715,10,-3.7524e-05,-4.20221,-0.106626,-0.553337,0.597781,
2,0,0,0,0,29033.1,0.594032,0.593731,-0.0679178,43,0.882655,10,-4.03249e-05,-4.16802,-0.154735,-0.381297,0.593761,
2,0,0,1,0,29033.9,0.590037,0.589729,-0.0723833,43,0.88259,10,-4.26866e-05,-4.14036,-0.17329,-0.34047,0.589761,
2,0,0,1,0,29034.7,0.586041,0.585764,-0.0749044,43,0.882523,10,-4.38763e-05,-4.12549,-0.260047,-0.226882,0.585797,
2,0,0,1,0,29035.5,0.582046,0.581764,-0.0789745,43,0.882454,10,-4.59445e-05,-4.10251,-0.199848,-0.295225,0.581798,
2,0,0,1,0,29036.3,0.578052,0.577753,-0.0807196,43,0.882382,10,-4.6636e-05,-4.09302,-0.375879,-0.156965,0.577788,
2,0,0,0,0,29037.1,0.574056,0.573807,-0.0818988,43,0.882309,10,-4.69941e-05,-4.08672,-0.472189,-0.12495,0.573844,
2,0,0,1,0,29037.9,0.570061,0.569775,-0.084811,43,0.882234,10,-4.83231e-05,-4.07155,-0.641355,-0.0919928,0.569812,
2,0,0,1,0,29038.7,0.566065,0.565799,-0.08611,43,0.882157,10,-4.87209e-05,-4.06495,-0.244265,-0.241541,0.565837,
2,0,0,1,0,29039.5,0.56207,0.56177,-0.0880259,43,0.882078,10,-4.94504e-05,-4.05539,-2.8589,-0.0206373,0.561809,
2,0,0,1,0,29040.3,0.558075,0.557815,-0.0900299,43,0.881999,10,-5.022e-05,-4.04561,-0.341593,-0.17272,0.557854,
2,0,0,1,0,29041.1,0.55408,0.553795,-0.0912354,43,0.881919,10,-5.05257e-05,-4.03984,-0.441399,-0.133666,0.553835,
2,0,0,1,0,29041.9,0.550085,0.549826,-0.0925405,43,0.881837,10,-5.08812e-05,-4.03367,-1.44292,-0.0408894,0.549867,
2,0,0,0,0,29042.7,0.54609,0.545828,-0.0939304,43,0.881754,10,-5.12698e-05,-4.02719,-0.639454,-0.0922663,0.545869,
2,0,0,1,0,29043.5,0.542094,0.541777,-0.0937843,43,0.88167,10,-5.08102e-05,-4.02787,-0.737114,-0.0800419,0.541819,
2,0,0,1,0,29044.3,0.538099,0.537802,-0.0963965,43,0.881586,10,-5.18423e-05,-4.01594,0.244554,0.241256,0.537845,
2,0,0,1,0,29045.1,0.534104,0.533812,-0.0948659,43,0.881502,10,-5.06405e-05,-4.02289,-0.178948,-0.329705,0.533854,
2,0,0,1,0,29045.9,0.530109,0.529774,-0.0971782,43,0.881416,10,-5.14825e-05,-4.01243,-1.42086,-0.0415242,0.529817,
2,0,0,0,0,29046.7,0.526114,0.525813,-0.0991143,43,0.881329,10,-5.21156e-05,-4.00386,-0.506245,-0.116544,0.525857,
2,0,0,1,0,29047.5,0.522119,0.521781,-0.0996605,43,0.881242,10,-5.20009e-05,-4.00148,-40.0626,-0.0014727,0.521824,
2,0,0,1,0,29048.3,0.518123,0.517839,-0.100555,43,0.881153,10,-5.20714e-05,-3.9976,-0.484761,-0.121709,0.517883,
2,0,0,1,0,29049.1,0.514128,0.513836,-0.102156,43,0.881063,10,-5.24916e-05,-3.99073,-0.63577,-0.0928009,0.513881,
2,0,0,1,0,29049.9,0.510133,0.50982,-0.10272,43,0.880972,10,-5.23688e-05,-3.98834,-0.920915,-0.0640667,0.509865,
2,0,0,0,0,29050.7,0.506138,0.505823,-0.104295,43,0.880881,10,-5.27549e-05,-3.98174,-1.0693,-0.0551765,0.505868,
2,0,0,1,0,29051.5,0.502143,0.501822,-0.105117,43,0.880788,10,-5.27499e-05,-3.97833,-0.761127,-0.0775166,0.501868,
2,0,0,0,0,29052.3,0.498148,0.497892,-0.106109,43,0.880695,10,-5.2831e-05,-3.97425,-1.73884,-0.0339306,0.497939,
2,0,0,1,0,29053.1,0.494152,0.493805,-0.107901,43,0.8806,10,-5.32818e-05,-3.96698,-0.388334,-0.151931,0.493852,
2,0,0,1,0,29053.9,0.490157,0.489836,-0.108686,43,0.880505,10,-5.32385e-05,-3.96382,-1.38271,-0.0426697,0.489884,
2,0,0,1,0,29054.7,0.486162,0.485872,-0.109636,43,0.880408,10,-5.3269e-05,-3.96005,-0.661421,-0.0892019,0.485921,
2,0,0,1,0,29055.5,0.482167,0.481815,-0.111183,43,0.88031,10,-5.35695e-05,-3.95396,-0.620305,-0.0951145,0.481864,
2,0,0,0,0,29056.3,0.478172,0.477845,-0.113085,43,0.880212,10,-5.4037e-05,-3.9466,-0.767441,-0.0768788,0.477895,
2,0,0,1,0,29057.1,0.474177,0.473824,-0.114772,43,0.880111,10,-5.43817e-05,-3.94016,-4.20485,-0.0140314,0.473874,
2,0,0,1,0,29057.9,0.470181,0.469876,-0.115942,43,0.88001,10,-5.44783e-05,-3.93576,-0.627084,-0.0940863,0.469927,
2,0,0,1,0,29058.7,0.466186,0.46589,-0.117612,43,0.879908,10,-5.47944e-05,-3.92955,-1.19812,-0.0492437,0.465942,
2,0,0,1,0,29059.5,0.462191,0.461889,-0.11867,43,0.879805,10,-5.48123e-05,-3.92566,-0.411486,-0.143383,0.461941,
2,0,0,0,0,29060.3,0.458196,0.45786,-0.120271,43,0.8797,10,-5.50674e-05,-3.91984,-0.762706,-0.0773561,0.457913,
2,0,0,1,0,29061.1,0.454201,0.453876,-0.121356,43,0.879594,10,-5.50808e-05,-3.91594,-1.87243,-0.0315099,0.45393,
2,0,0,1,0,29061.9,0.450205,0.449864,-0.12408,43,0.879487,10,-5.58193e-05,-3.9063,-0.412265,-0.143112,0.449919,
2,0,0,1,0,29062.7,0.44621,0.445928,-0.125039,43,0.879379,10,-5.57585e-05,-3.90295,-2.42585,-0.0243214,0.445983,
2,0,0,1,0,29063.5,0.442215,0.441924,-0.127293,43,0.879269,10,-5.62538e-05,-3.8952,-0.961162,-0.0613841,0.44198,
2,0,0,0,0,29064.3,0.43822,0.437893,-0.12772,43,0.879158,10,-5.59275e-05,-3.89374,-0.416153,-0.141775,0.437949,
2,0,0,1,0,29065.1,0.434225,0.433934,-0.130246,43,0.879045,10,-5.65182e-05,-3.88524,-0.627337,-0.0940483,0.433992,
2,0,0,0,0,29065.9,0.43023,0.429955,-0.132307,43,0.878931,10,-5.68861e-05,-3.87842,-0.734885,-0.0802847,0.430013,
2,0,0,1,0,29066.7,0.426234,0.425915,-0.133613,43,0.878815,10,-5.69079e-05,-3.87415,-0.428744,-0.137611,0.425974,
2,0,0,1,0,29067.5,0.422239,0.421896,-0.136471,43,0.878698,10,-5.75765e-05,-3.86496,-1.10266,-0.0535069,0.421956,
2,0,0,1,0,29068.3,0.418244,0.417919,-0.137888,43,0.878579,10,-5.76262e-05,-3.86047,-0.704456,-0.0837525,0.41798,
2,0,0,1,0,29069.1,0.414249,0.413949,-0.139795,43,0.878459,10,-5.78681e-05,-3.85451,-0.4852,-0.121599,0.41401,
2,0,0,0,0,29069.9,0.410254,0.40995,-0.141695,43,0.878337,10,-5.80877e-05,-3.84865,-7.13823,-0.00826535,0.410013,
2,0,0,1,0,29070.7,0.406259,0.405944,-0.143297,43,0.878213,10,-5.81705e-05,-3.84376,-0.336826,-0.175165,0.406007,
2,0,0,1,0,29071.5,0.402263,0.401937,-0.146775,43,0.878088,10,-5.89941e-05,-3.83335,-0.899353,-0.0656027,0.402001,
2,0,0,1,0,29072.3,0.398268,0.397941,-0.148843,43,0.877961,10,-5.92309e-05,-3.82727,-0.590072,-0.0999877,0.398007,
2,0,0,1,0,29073.1,0.394274,0.393965,-0.150404,43,0.877832,10,-5.92541e-05,-3.82274,-0.495804,-0.118999,0.394031,
2,0,0,0,0,29073.9,0.390278,0.389939,-0.152874,43,0.877701,10,-5.96115e-05,-3.81567,-2.23513,-0.0263967,0.390007,
2,0,0,1,0,29074.7,0.386283,0.38598,-0.153972,43,0.877569,10,-5.94301e-05,-3.81256,-0.510689,-0.11553,0.386047,
2,0,0,1,0,29075.5,0.382287,0.381994,-0.155507,43,0.877435,10,-5.94027e-05,-3.80825,-0.948733,-0.0621882,0.382063,
2,0,0,1,0,29076.3,0.378292,0.37801,-0.158373,43,0.877299,10,-5.98665e-05,-3.80032,-0.651292,-0.0905892,0.378079,
2,0,0,1,0,29077.1,0.374297,0.373997,-0.160572,43,0.877162,10,-6.00534e-05,-3.79433,-0.583472,-0.101119,0.374068,
2,0,0,1,0,29077.9,0.370303,0.370002,-0.162569,43,0.877022,10,-6.01509e-05,-3.78896,-0.689392,-0.0855827,0.370073,
2,0,0,1,0,29078.7,0.366307,0.365967,-0.165435,43,0.876881,10,-6.05438e-05,-3.78137,-0.564994,-0.104426,0.366039,
2,0,0,0,0,29079.5,0.362312,0.361962,-0.167617,43,0.876739,10,-6.0671e-05,-3.77568,-0.621862,-0.0948763,0.362035,
2,0,0,1,0,29080.3,0.358316,0.357996,-0.169608,43,0.876594,10,-6.0719e-05,-3.77055,-0.670476,-0.0879972,0.358071,
2,0,0,1,0,29081.1,0.354321,0.353989,-0.17212,43,0.876447,10,-6.09288e-05,-3.76417,-0.978759,-0.0602804,0.354065,
2,0,0,1,0,29081.9,0.350327,0.350022,-0.174334,43,0.876299,10,-6.10207e-05,-3.75862,-0.568758,-0.103735,0.350098,
2,0,0,1,0,29082.7,0.346331,0.345968,-0.17641,43,0.876148,10,-6.10322e-05,-3.75348,-1.02504,-0.0575588,0.346046,
2,0,0,0,0,29083.5,0.342336,0.341998,-0.178751,43,0.875995,10,-6.11325e-05,-3.74775,-0.564321,-0.10455,0.342077,
2,0,0,1,0,29084.3,0.338341,0.338019,-0.180604,43,0.875841,10,-6.10475e-05,-3.74327,-0.752066,-0.0784506,0.338098,
2,0,0,1,0,29085.1,0.334345,0.334021,-0.184832,43,0.875684,10,-6.17376e-05,-3.73322,-0.495002,-0.119192,0.334102,
2,0,0,1,0,29085.9,0.33035,0.33005,-0.186419,43,0.875526,10,-6.15274e-05,-3.72951,-0.837369,-0.0704587,0.330132,
2,0,0,1,0,29086.7,0.326355,0.326017,-0.188353,43,0.875365,10,-6.14064e-05,-3.72503,-0.748225,-0.0788532,0.3261,
2,0,0,0,0,29087.5,0.32236,0.322063,-0.191049,43,0.875203,10,-6.15297e-05,-3.71886,-0.693869,-0.0850304,0.322147,
2,0,0,1,0,29088.3,0.318365,0.318059,-0.192767,43,0.875038,10,-6.13112e-05,-3.71497,-0.743097,-0.0793975,0.318143,
2,0,0,0,0,29089.1,0.31437,0.314066,-0.19524,43,0.874872,10,-6.13182e-05,-3.70943,-19.3393,-0.00305079,0.314152,
2,0,0,1,0,29089.9,0.310374,0.31003,-0.197681,43,0.874704,10,-6.12872e-05,-3.70403,-0.379702,-0.155385,0.310117,
2,0,0,1,0,29090.7,0.306379,0.306087,-0.199498,43,0.874534,10,-6.10636e-05,-3.70006,-0.797689,-0.0739637,0.306174,
2,0,0,1,0,29091.5,0.302385,0.302054,-0.202857,43,0.874361,10,-6.12738e-05,-3.69281,-0.639109,-0.092316,0.302144,
2,0,0,1,0,29092.3,0.298389,0.298065,-0.206053,43,0.874187,10,-6.14171e-05,-3.68602,-0.554768,-0.106351,0.298155,
2,0,0,0,0,29093.1,0.294394,0.294035,-0.208309,43,0.87401,10,-6.125e-05,-3.68129,-2.25811,-0.0261281,0.294127,
2,0,0,1,0,29093.9,0.290398,0.290111,-0.211598,43,0.873831,10,-6.13869e-05,-3.67449,-0.651171,-0.0906059,0.290204,
2,0,0,1,0,29094.7,0.286403,0.286111,-0.212613,43,0.87365,10,-6.08308e-05,-3.67241,-0.604479,-0.0976048,0.286204,
2,0,0,1,0,29095.5,0.282408,0.282063,-0.216715,43,0.873467,10,-6.11273e-05,-3.66411,-3.26404,-0.0180758,0.282159,
2,0,0,1,0,29096.3,0.278414,0.278092,-0.219385,43,0.873281,10,-6.10092e-05,-3.65879,-0.439307,-0.134302,0.278189,
2,0,0,0,0,29097.1,0.274418,0.274118,-0.221667,43,0.873094,10,-6.0763e-05,-3.6543,-0.83224,-0.0708931,0.274216,
2,0,0,1,0,29097.9,0.270423,0.270069,-0.225917,43,0.872904,10,-6.10132e-05,-3.64605,-0.778503,-0.0757864,0.270168,
2,0,0,1,0,29098.7,0.266427,0.266112,-0.227684,43,0.872712,10,-6.05896e-05,-3.64267,-0.602536,-0.0979195,0.266212,
2,0,0,1,0,29099.5,0.262432,0.262096,-0.230789,43,0.872518,10,-6.04887e-05,-3.63679,-1.25376,-0.0470583,0.262197,
2,0,0,1,0,29100.3,0.258437,0.258103,-0.233105,43,0.872322,10,-6.0165e-05,-3.63245,-1.01567,-0.0580895,0.258206,
2,0,0,0,0,29101,0.254442,0.254137,-0.234483,43,0.872124,10,-5.95909e-05,-3.62989,-0.541349,-0.108987,0.25424,
2,0,0,1,0,29101.8,0.250447,0.250176,-0.237643,43,0.871924,10,-5.94524e-05,-3.62408,-4.18079,-0.0141122,0.25028,
2,0,0,0,0,29102.6,0.246452,0.24612,-0.239799,43,0.871722,10,-5.90192e-05,-3.62015,-0.548889,-0.10749,0.246225,
2,0,0,1,0,29103.4,0.242456,0.242113,-0.24299,43,0.871517,10,-5.88312e-05,-3.61441,-0.996994,-0.0591779,0.24222,
2,0,0,1,0,29104.2,0.238461,0.238145,-0.245179,43,0.871311,10,-5.83882e-05,-3.61052,-0.971765,-0.0607143,0.238253,
2,0,0,1,0,29105,0.234467,0.234188,-0.248249,43,0.871103,10,-5.81369e-05,-3.60511,-0.777209,-0.0759127,0.234297,
2,0,0,1,0,29105.8,0.230471,0.230147,-0.250087,43,0.870893,10,-5.75566e-05,-3.60191,-1.16037,-0.0508459,0.230257,
2,0,0,0,0,29106.6,0.226476,0.226132,-0.253972,43,0.870681,10,-5.74312e-05,-3.59521,-0.68119,-0.0866131,0.226244,
2,0,0,1,0,29107.4,0.222481,0.222172,-0.254879,43,0.870466,10,-5.66271e-05,-3.59367,-1.32202,-0.0446288,0.222285,
2,0,0,1,0,29108.2,0.218485,0.218197,-0.258614,43,0.870249,10,-5.64287e-05,-3.58735,-1.25883,-0.0468688,0.21831,
2,0,0,1,0,29109,0.21449,0.214166,-0.260883,43,0.870031,10,-5.58723e-05,-3.58355,-0.508569,-0.116012,0.214281,
2,0,0,1,0,29109.8,0.210496,0.210165,-0.263513,43,0.86981,10,-5.53811e-05,-3.5792,-1.04238,-0.0566012,0.210281,
2,0,0,0,0,29110.6,0.2065,0.206178,-0.268832,43,0.869586,10,-5.54273e-05,-3.57052,-0.716497,-0.0823451,0.206297,
2,0,0,1,0,29111.4,0.202505,0.202193,-0.270816,43,0.86936,10,-5.47573e-05,-3.56732,-0.630329,-0.0936019,0.202312,
2,0,0,1,0,29112.2,0.198509,0.19819,-0.274397,43,0.86913,10,-5.43827e-05,-3.56162,-0.978852,-0.0602747,0.198311,
2,0,0,1,0,29113,0.194514,0.194192,-0.278637,43,0.868899,10,-5.41091e-05,-3.55496,-0.65307,-0.0903425,0.194315,
2,0,0,1,0,29113.8,0.190519,0.190198,-0.280636,43,0.868663,10,-5.33764e-05,-3.55186,-0.583969,-0.101033,0.190322,
2,0,0,0,0,29114.6,0.186524,0.186177,-0.286465,43,0.868425,10,-5.33332e-05,-3.54293,-0.645093,-0.0914597,0.186303,
2,0,0,1,0,29115.4,0.182529,0.182199,-0.290645,43,0.868183,10,-5.29554e-05,-3.53664,-0.422076,-0.139785,0.182327,
2,0,0,0,0,29116.2,0.178534,0.178233,-0.29782,43,0.867936,10,-5.30814e-05,-3.52605,-0.451955,-0.130544,0.178364,
2,0,0,1,0,29117,0.174538,0.174177,-0.303668,43,0.867684,10,-5.28919e-05,-3.5176,-0.422463,-0.139657,0.174311,
2,0,0,1,0,29117.8,0.170543,0.1702,-0.310766,43,0.867427,10,-5.28923e-05,-3.50757,-0.300508,-0.196334,0.170337,
2,0,0,1,0,29118.6,0.166549,0.166209,-0.320108,43,0.867163,10,-5.32047e-05,-3.4947,-0.338422,-0.174339,0.16635,
2,0,0,1,0,29119.4,0.162553,0.162223,-0.331959,43,0.86689,10,-5.38516e-05,-3.47891,-0.213624,-0.276186,0.162369,
2,0,0,0,0,29120.2,0.158558,0.15828,-0.345197,43,0.866607,10,-5.46376e-05,-3.46193,-0.205071,-0.287705,0.158432,
2,0,0,1,0,29121,0.154563,0.154227,-0.365278,43,0.866311,10,-5.63356e-05,-3.43738,-0.176462,-0.33435,0.154388,
2,0,0,1,0,29121.8,0.150567,0.150209,-0.389423,43,0.865998,10,-5.84948e-05,-3.40958,-0.121068,-0.487329,0.15038,
2,0,0,1,0,29122.6,0.146572,0.14624,-0.421028,43,0.865663,10,-6.15712e-05,-3.37569,-0.105649,-0.558454,0.146425,
2,0,0,1,0,29123.4,0.142578,0.142226,-0.463209,43,0.865299,10,-6.58801e-05,-3.33422,-0.0879412,-0.670903,0.142429,
2,0,0,0,0,29124.2,0.138582,0.13828,-0.513385,43,0.864897,10,-7.0991e-05,-3.28956,-0.0913895,-0.645588,0.138506,
2,0,0,1,0,29125,0.134587,0.134238,-0.567754,43,0.864453,10,-7.62142e-05,-3.24584,-0.0963586,-0.612296,0.134488,
2,0,0,1,0,29125.8,0.130591,0.130257,-0.620056,43,0.863965,10,-8.07666e-05,-3.20757,-0.115052,-0.51281,0.13053,
2,0,0,1,0,29126.6,0.126596,0.126249,-0.659751,43,0.863439,10,-8.32929e-05,-3.18062,-0.172741,-0.341552,0.126539,
2,0,0,1,0,29127.4,0.122602,0.122278,-0.691173,43,0.862885,10,-8.45152e-05,-3.16041,-0.295934,-0.199369,0.122582,
2,0,0,1,0,29128.2,0.118607,0.118276,-0.706641,43,0.862313,10,-8.35788e-05,-3.1508,-0.50245,-0.117425,0.118587,
2,0,0,1,0,29129,0.114611,0.114247,-0.713816,43,0.861732,10,-8.15516e-05,-3.14641,-8.14582,-0.00724298,0.114561,
2,0,0,0,0,29129.8,0.110616,0.110241,-0.712165,43,0.86115,10,-7.85099e-05,-3.14742,1.3511,0.0436681,0.110554,
2,0,0,1,0,29130.6,0.10662,0.106263,-0.706044,43,0.860571,10,-7.50265e-05,-3.15117,1.58737,0.0371684,0.106574,
2,0,0,1,0,29131.4,0.102625,0.10231,-0.699671,43,0.859996,10,-7.15836e-05,-3.15511,0.708442,0.0832813,0.102618,
2,0,0,1,0,29132.2,0.0986305,0.0983128,-0.691443,43,0.859428,10,-6.79777e-05,-3.16024,0.681986,0.0865121,0.098617,
2,0,0,1,0,29133,0.0946351,0.0943276,-0.679202,43,0.858867,10,-6.40675e-05,-3.168,0.699791,0.0843109,0.0946265,
2,0,0,0,0,29133.8,0.0906399,0.0903034,-0.670814,43,0.858314,10,-6.05768e-05,-3.1734,0.507878,0.11617,0.0905985,
2,0,0,1,0,29134.6,0.0866448,0.0863406,-0.66018,43,0.85777,10,-5.70003e-05,-3.18034,0.708451,0.0832803,0.0866311,
2,0,0,1,0,29135.4,0.0826492,0.0823077,-0.650677,43,0.857234,10,-5.35557e-05,-3.18663,0.572278,0.103097,0.082594,
2,0,0,1,0,29136.2,0.0786544,0.0783621,-0.642375,43,0.856706,10,-5.03378e-05,-3.19221,0.804476,0.0733397,0.0786447,
2,0,0,1,0,29137,0.0746596,0.0743161,-0.633049,43,0.856185,10,-4.70457e-05,-3.19856,0.628675,0.0938481,0.0745946,
2,0,0,0,0,29137.8,0.0706641,0.070338,-0.624727,43,0.855671,10,-4.39421e-05,-3.20431,0.650139,0.0907498,0.0706129,
2,0,0,1,0,29138.6,0.0666689,0.0664156,-0.617149,43,0.855163,10,-4.09883e-05,-3.20961,0.750449,0.0786196,0.0666872,
2,0,0,0,0,29139.4,0.0626737,0.0623299,-0.605366,43,0.854662,10,-3.77324e-05,-3.21798,0.613155,0.0962236,0.0625962,
2,0,0,1,0,29140.2,0.0586783,0.0583425,-0.600077,43,0.854168,10,-3.501e-05,-3.22179,0.504572,0.116931,0.0586065,
2,0,0,1,0,29141,0.0546835,0.0543387,-0.589553,43,0.853681,10,-3.20355e-05,-3.22948,0.783643,0.0752894,0.0545981,
2,0,0,1,0,29141.8,0.0506886,0.0503562,-0.580366,43,0.853202,10,-2.9225e-05,-3.2363,0.50082,0.117807,0.0506116,
2,0,0,1,0,29142.6,0.046693,0.0463665,-0.569347,43,0.852731,10,-2.63986e-05,-3.24462,0.519637,0.113541,0.046617,
2,0,0,0,0,29143.4,0.0426979,0.0423444,-0.559864,43,0.852267,10,-2.37071e-05,-3.25192,0.506147,0.116567,0.0425907,
2,0,0,1,0,29144.2,0.0387022,0.0383154,-0.549927,43,0.851812,10,-2.10707e-05,-3.2597,0.440498,0.133939,0.0385574,
2,0,0,1,0,29145,0.0347074,0.0343828,-0.538612,43,0.851365,10,-1.8519e-05,-3.26872,0.607729,0.0970827,0.0346198,
2,0,0,1,0,29145.8,0.0307126,0.0303907,-0.527677,43,0.850926,10,-1.60365e-05,-3.27763,0.506024,0.116595,0.0306229,
2,0,0,1,0,29146.6,0.0267172,0.0264128,-0.521013,43,0.850494,10,-1.37614e-05,-3.28315,0.509799,0.115732,0.0266421,
2,0,0,0,0,29147.4,0.022722,0.0223843,-0.512226,43,0.850069,10,-1.14658e-05,-3.29054,0.65569,0.0899815,0.0226097,
2,0,0,1,0,29148.2,0.0187268,0.0183771,-0.505967,43,0.849651,10,-9.29819e-06,-3.29588,0.758841,0.0777502,0.0185997,
2,0,0,1,0,29149,0.0147313,0.0144118,-0.501208,43,0.849237,10,-7.22331e-06,-3.29998,0.932543,0.0632678,0.0146323,
2,0,0,1,0,29149.8,0.0107365,0.0103595,-0.495905,43,0.848828,10,-5.13733e-06,-3.3046,1.66829,0.0353656,0.0105777,
2,0,0,1,0,29150.6,0.00674163,0.00644041,-0.494733,43,0.848421,10,-3.18628e-06,-3.30563,2.13715,0.0276069,0.00665809,
2,0,0,0,0,29151.4,0.00274612,0.00240098,-0.492553,43,0.848015,10,-1.18261e-06,-3.30755,-2.03572,-0.0289824,0.00261771,
2,0,0,1,0,29151.9,0.000274105,-9.74687e-05,-0.494292,43,0.847762,10,4.8178e-08,-3.30602, , ,0.00012002,