File: Figure_codes/Fig_3-5/workspace_calculate_alpha_eff/20221101_1-115_003_TrumpetPlot_ParaChange_from10_every3_16_CV_C01_76.csv
mode,ox/red,error,control changes,counter inc.,time/s,control/V,Ewe/V,<I>/mA,cycle number,(Q-Qo)/C,I Range,P/W,log(|I|),Tafel slope mV/dec,alpha_eff,E-IR/V,
2,0,0,0,0,50853.4,2.44065e-05,-0.000344411,-0.0949418,77,0.0000000E+000,10,3.2699e-08,-4.02254, , ,-0.000302636,
2,1,0,0,0,50854.1,0.00379485,0.00347623,0.151794,77,9.42523e-05,10,5.27673e-07,-3.81874,0.034036,1.73346,0.00340944,
2,1,0,1,0,50854.9,0.00779002,0.00746336,0.174873,77,0.000236656,10,1.30514e-06,-3.75728,0.0710761,0.830096,0.00738642,
2,1,0,0,0,50855.7,0.0117852,0.0114685,0.189407,77,0.00039458,10,2.17222e-06,-3.7226,0.132572,0.445041,0.0113852,
2,1,0,1,0,50856.5,0.0157806,0.0154526,0.204512,77,0.000564292,10,3.16024e-06,-3.68928,0.127968,0.461052,0.0153626,
2,1,0,1,0,50857.3,0.0197754,0.0194045,0.217694,77,0.000744634,10,4.22424e-06,-3.66215,0.168228,0.350715,0.0193087,
2,1,0,1,0,50858.1,0.0237704,0.0234285,0.230377,77,0.000935508,10,5.39739e-06,-3.63756,0.150153,0.392932,0.0233272,
2,1,0,1,0,50858.9,0.0277659,0.0274414,0.244523,77,0.00113688,10,6.71004e-06,-3.61168,0.182701,0.322932,0.0273338,
2,1,0,0,0,50859.7,0.0317611,0.0314084,0.257414,77,0.00134907,10,8.08496e-06,-3.58937,0.163695,0.360427,0.0312951,
2,1,0,1,0,50860.5,0.0357567,0.0354044,0.271593,77,0.00157264,10,9.6156e-06,-3.56608,0.219323,0.26901,0.0352849,
2,1,0,1,0,50861.3,0.0397516,0.0394357,0.285119,77,0.00180679,10,1.12439e-05,-3.54497,0.151682,0.388972,0.0393103,
2,1,0,1,0,50862.1,0.0437465,0.0434217,0.298155,77,0.00205249,10,1.29464e-05,-3.52556,0.212102,0.278169,0.0432905,
2,1,0,1,0,50862.9,0.0477413,0.0474646,0.311712,77,0.00230855,10,1.47953e-05,-3.50625,0.24486,0.240954,0.0473274,
2,1,0,0,0,50863.7,0.0517369,0.0514161,0.325319,77,0.00257476,10,1.67267e-05,-3.48769,0.201681,0.292542,0.051273,
2,1,0,1,0,50864.5,0.0557321,0.0553842,0.336606,77,0.00285125,10,1.86426e-05,-3.47288,0.302921,0.19477,0.0552361,
2,1,0,1,0,50865.3,0.0597277,0.0594216,0.347888,77,0.00313632,10,2.06721e-05,-3.45856,0.322617,0.182879,0.0592685,
2,1,0,1,0,50866.1,0.0637226,0.0634147,0.356802,77,0.00343017,10,2.26265e-05,-3.44757,0.338605,0.174244,0.0632577,
2,1,0,1,0,50866.9,0.0677174,0.0674302,0.369071,77,0.00373261,10,2.48865e-05,-3.43289,0.412962,0.14287,0.0672678,
2,1,0,0,0,50867.7,0.0717128,0.0714133,0.377284,77,0.00404192,10,2.69431e-05,-3.42333,0.32233,0.183043,0.0712473,
2,1,0,1,0,50868.5,0.075708,0.0753686,0.384127,77,0.00435836,10,2.89511e-05,-3.41553,0.480268,0.122848,0.0751996,
2,1,0,0,0,50869.3,0.0797031,0.0793854,0.393803,77,0.00468107,10,3.12622e-05,-3.40472,0.415198,0.142101,0.0792121,
2,1,0,1,0,50870.1,0.0836986,0.0833496,0.401821,77,0.0050104,10,3.34916e-05,-3.39597,0.41549,0.142001,0.0831728,
2,1,0,1,0,50870.9,0.0876935,0.0873332,0.412165,77,0.00534745,10,3.59957e-05,-3.38493,0.323902,0.182154,0.0871518,
2,1,0,1,0,50871.7,0.0916883,0.0913507,0.425678,77,0.00569326,10,3.8886e-05,-3.37092,0.278159,0.212109,0.0911634,
2,1,0,1,0,50872.5,0.0956838,0.0953233,0.439465,77,0.00605098,10,4.18912e-05,-3.35708,0.23208,0.254222,0.09513,
2,1,0,0,0,50873.3,0.099679,0.099337,0.460679,77,0.0064228,10,4.57625e-05,-3.3366,0.226453,0.260539,0.0991343,
2,1,0,1,0,50874.1,0.103674,0.103338,0.481215,77,0.00681055,10,4.97278e-05,-3.31766,0.187122,0.315303,0.103126,
2,1,0,1,0,50874.9,0.10767,0.10735,0.501408,77,0.0072163,10,5.38259e-05,-3.29981,0.217459,0.271316,0.107129,
2,1,0,1,0,50875.7,0.111664,0.111349,0.522447,77,0.00763763,10,5.8174e-05,-3.28196,0.277312,0.212757,0.111119,
2,1,0,1,0,50876.5,0.115659,0.11533,0.537343,77,0.00807303,10,6.19716e-05,-3.26975,0.318537,0.185222,0.115093,
2,1,0,0,0,50877.3,0.119655,0.119329,0.54994,77,0.0085204,10,6.56237e-05,-3.25968,0.65296,0.0903577,0.119087,
2,1,0,1,0,50878.1,0.12365,0.123311,0.560436,77,0.00897548,10,6.91077e-05,-3.25147,0.514301,0.114719,0.123064,
2,1,0,1,0,50878.9,0.127646,0.127304,0.565721,77,0.00943742,10,7.20188e-05,-3.2474,1.20059,0.0491424,0.127056,
2,1,0,1,0,50879.7,0.131641,0.131338,0.567938,77,0.00990313,10,7.45918e-05,-3.2457,-0.837984,-0.0704071,0.131088,
2,1,0,1,0,50880.5,0.135635,0.135296,0.556843,77,0.010365,10,7.53386e-05,-3.25427,-0.312622,-0.188726,0.135051,
2,1,0,0,0,50881.3,0.139631,0.139295,0.526628,77,0.0108115,10,7.33567e-05,-3.2785,-0.127882,-0.461362,0.139064,
2,1,0,1,0,50882.1,0.143626,0.143308,0.481821,77,0.0112279,10,6.90487e-05,-3.31711,-0.0830756,-0.710197,0.143096,
2,1,0,0,0,50882.9,0.147621,0.147311,0.426434,77,0.0116023,10,6.28183e-05,-3.37015,-0.0713883,-0.826466,0.147123,
2,1,0,1,0,50883.7,0.151617,0.151243,0.375785,77,0.0119335,10,5.68349e-05,-3.42506,-0.0786911,-0.749767,0.151078,
2,1,0,1,0,50884.5,0.155612,0.15527,0.341016,77,0.0122297,10,5.29497e-05,-3.46722,-0.110438,-0.534236,0.15512,
2,1,0,1,0,50885.3,0.159606,0.159284,0.316217,77,0.0125027,10,5.03682e-05,-3.50001,-0.165854,-0.355735,0.159144,
2,1,0,1,0,50886.1,0.163602,0.163309,0.301534,77,0.0127608,10,4.92433e-05,-3.52066,-0.18855,-0.312914,0.163177,
2,1,0,0,0,50886.9,0.167597,0.167308,0.291473,77,0.0130082,10,4.87657e-05,-3.5354,-0.429695,-0.137307,0.16718,
2,1,0,1,0,50887.7,0.171592,0.171288,0.282393,77,0.0132491,10,4.83705e-05,-3.54915,-0.323422,-0.182424,0.171163,
2,1,0,1,0,50888.5,0.175588,0.175263,0.278983,77,0.0134846,10,4.88955e-05,-3.55442,-0.709804,-0.0831216,0.175141,
2,1,0,1,0,50889.3,0.179582,0.17927,0.274456,77,0.0137164,10,4.92019e-05,-3.56153,-0.901251,-0.0654646,0.17915,
2,1,0,1,0,50890.1,0.183577,0.183299,0.271899,77,0.0139454,10,4.98386e-05,-3.56559,-0.568308,-0.103817,0.183179,
2,1,0,0,0,50890.9,0.187573,0.18726,0.268297,77,0.0141717,10,5.02412e-05,-3.57138,-1.38991,-0.0424487,0.187141,
2,1,0,1,0,50891.7,0.191568,0.191248,0.26565,77,0.0143961,10,5.08049e-05,-3.57569,-1.21705,-0.0484781,0.191131,
2,1,0,0,0,50892.5,0.195563,0.195293,0.2633,77,0.014619,10,5.14207e-05,-3.57955,-0.72795,-0.0810495,0.195177,
2,1,0,1,0,50893.3,0.199559,0.199263,0.262126,77,0.0148403,10,5.2232e-05,-3.58149,-5.76996,-0.0102254,0.199147,
2,1,0,1,0,50894.1,0.203553,0.203254,0.260697,77,0.0150605,10,5.29875e-05,-3.58386,-1.62575,-0.036291,0.203139,
2,1,0,1,0,50894.9,0.207548,0.207211,0.260236,77,0.0152797,10,5.39237e-05,-3.58463,-5.44214,-0.0108413,0.207096,
2,1,0,1,0,50895.7,0.211544,0.211225,0.259008,77,0.0154974,10,5.4709e-05,-3.58669,-2.06669,-0.0285481,0.211111,
2,1,0,0,0,50896.5,0.215539,0.215196,0.256319,77,0.0157144,10,5.51587e-05,-3.59122,-1.67885,-0.0351432,0.215083,
2,1,0,1,0,50897.3,0.219535,0.219211,0.25653,77,0.0159304,10,5.62342e-05,-3.59086,-1.77814,-0.0331807,0.219098,
2,1,0,1,0,50898.1,0.223529,0.223221,0.254606,77,0.0161453,10,5.68335e-05,-3.59413,-1.83117,-0.0322198,0.223109,
2,1,0,1,0,50898.9,0.227524,0.227237,0.254085,77,0.0163595,10,5.77374e-05,-3.59502,-1.29315,-0.0456249,0.227125,
2,1,0,1,0,50899.7,0.23152,0.231217,0.252729,77,0.0165727,10,5.84351e-05,-3.59734,5.36715,0.0109928,0.231105,
2,1,0,0,0,50900.5,0.235515,0.235182,0.251494,77,0.0167854,10,5.91469e-05,-3.59947,-1.71596,-0.0343831,0.235072,
2,1,0,1,0,50901.3,0.23951,0.239212,0.251307,77,0.016997,10,6.01156e-05,-3.5998,-7.0925,-0.00831864,0.239101,
2,1,0,1,0,50902.1,0.243506,0.243193,0.251367,77,0.017208,10,6.11307e-05,-3.59969,-5.63291,-0.0104742,0.243082,
2,1,0,1,0,50902.9,0.2475,0.2472,0.249647,77,0.0174186,10,6.17128e-05,-3.60267,-4.70731,-0.0125337,0.24709,
2,1,0,1,0,50903.7,0.251495,0.251167,0.248811,77,0.0176283,10,6.24929e-05,-3.60413,-3.36027,-0.0175581,0.251057,
2,1,0,0,0,50904.5,0.255491,0.255169,0.248396,77,0.0178372,10,6.3383e-05,-3.60486,-1.76123,-0.0334993,0.25506,
2,1,0,1,0,50905.3,0.259486,0.259222,0.247848,77,0.0180456,10,6.42477e-05,-3.60581,-0.677663,-0.0870639,0.259113,
2,1,0,0,0,50906.1,0.263481,0.263201,0.24622,77,0.0182529,10,6.48051e-05,-3.60868,2.53023,0.023318,0.263092,
2,1,0,1,0,50906.9,0.267477,0.267165,0.244428,77,0.0184596,10,6.53026e-05,-3.61185,-2.18332,-0.0270231,0.267058,
2,1,0,1,0,50907.7,0.271471,0.271134,0.244077,77,0.0186656,10,6.61778e-05,-3.61247,-2.75648,-0.0214041,0.271027,
2,1,0,1,0,50908.5,0.275466,0.275147,0.242816,77,0.0188706,10,6.681e-05,-3.61472,-1.89097,-0.0312009,0.27504,
2,1,0,1,0,50909.3,0.279462,0.279094,0.242503,77,0.0190751,10,6.7681e-05,-3.61528,-2.65477,-0.0222242,0.278987,
2,1,0,0,0,50910.1,0.283457,0.283163,0.242133,77,0.0192785,10,6.8563e-05,-3.61595,-1.9456,-0.0303249,0.283056,
2,1,0,1,0,50910.9,0.287452,0.287164,0.240907,77,0.0194813,10,6.91796e-05,-3.61815,-1.67432,-0.0352382,0.287058,
2,1,0,1,0,50911.7,0.291448,0.291152,0.23982,77,0.0196836,10,6.98241e-05,-3.62011,-1.87167,-0.0315227,0.291047,
2,1,0,1,0,50912.5,0.295442,0.295098,0.239162,77,0.0198848,10,7.05761e-05,-3.62131,22.3805,0.00263622,0.294992,
2,1,0,1,0,50913.3,0.299437,0.299092,0.237304,77,0.0200856,10,7.09756e-05,-3.6247,-2.57404,-0.0229212,0.298987,
2,1,0,0,0,50914.1,0.303433,0.303111,0.238052,77,0.0202855,10,7.21561e-05,-3.62333,-2.92267,-0.020187,0.303006,
2,1,0,1,0,50914.9,0.307428,0.307097,0.23743,77,0.0204848,10,7.29142e-05,-3.62446,5.1031,0.0115616,0.306993,
2,1,0,1,0,50915.7,0.311424,0.311097,0.236645,77,0.0206838,10,7.36197e-05,-3.6259,-0.969019,-0.0608863,0.310993,
2,1,0,1,0,50916.5,0.315418,0.315102,0.235302,77,0.0208817,10,7.41442e-05,-3.62837,-7.46624,-0.00790224,0.314999,
2,1,0,1,0,50917.3,0.319413,0.319092,0.235003,77,0.0210792,10,7.49876e-05,-3.62893,58.7711,0.0010039,0.318989,
2,1,0,0,0,50918.1,0.323409,0.32311,0.234816,77,0.0212763,10,7.58714e-05,-3.62927,-1.02263,-0.0576944,0.323007,
2,1,0,1,0,50918.9,0.327404,0.327113,0.233501,77,0.0214724,10,7.63813e-05,-3.63171,2.46185,0.0239657,0.327011,
2,1,0,0,0,50919.7,0.331399,0.331091,0.232349,77,0.0216683,10,7.69287e-05,-3.63386,-3.21788,-0.0183351,0.330989,
2,1,0,1,0,50920.5,0.335395,0.33507,0.232295,77,0.0218637,10,7.78351e-05,-3.63396,-1.42951,-0.0412729,0.334968,
2,1,0,1,0,50921.3,0.339389,0.339084,0.231176,77,0.0220584,10,7.83883e-05,-3.63606,-62.3707,-0.000945957,0.338983,
2,1,0,1,0,50922.1,0.343384,0.343042,0.231279,77,0.0222527,10,7.93386e-05,-3.63586,-7.30922,-0.008072,0.342941,
2,1,0,1,0,50922.8,0.34738,0.347109,0.230801,77,0.0224464,10,8.01131e-05,-3.63676,-4.6518,-0.0126833,0.347008,
2,1,0,0,0,50923.6,0.351375,0.351056,0.229679,77,0.0226397,10,8.06302e-05,-3.63888,-2.72958,-0.0216151,0.350955,
2,1,0,1,0,50924.4,0.35537,0.35507,0.229313,77,0.0228327,10,8.14221e-05,-3.63957,-1.6798,-0.0351231,0.354969,
2,1,0,1,0,50925.2,0.359366,0.359046,0.229162,77,0.0230252,10,8.22797e-05,-3.63986,4.33853,0.0135991,0.358945,
2,1,0,1,0,50926,0.36336,0.363074,0.228022,77,0.0232174,10,8.2789e-05,-3.64202,-2.02513,-0.0291339,0.362974,
2,1,0,1,0,50926.8,0.367355,0.367018,0.228592,77,0.0234088,10,8.38973e-05,-3.64094,19.9016,0.00296459,0.366918,
2,1,0,0,0,50927.6,0.371351,0.371039,0.227681,77,0.0235999,10,8.44784e-05,-3.64267,6.02978,0.00978477,0.370938,
2,1,0,1,0,50928.4,0.375346,0.375097,0.227407,77,0.0237908,10,8.52996e-05,-3.6432,-1.41142,-0.0418019,0.374997,
2,1,0,1,0,50929.2,0.379342,0.379079,0.227618,77,0.023981,10,8.62854e-05,-3.64279,-26.5519,-0.00222206,0.378979,
2,1,0,1,0,50930,0.383336,0.383033,0.227486,77,0.024171,10,8.71345e-05,-3.64305,-15.4707,-0.00381365,0.382933,
2,1,0,1,0,50930.8,0.387331,0.387015,0.226579,77,0.024361,10,8.76896e-05,-3.64478,-1.38884,-0.0424814,0.386916,
2,1,0,0,0,50931.6,0.391327,0.391002,0.227288,77,0.0245504,10,8.88699e-05,-3.64342,2.07754,0.028399,0.390902,
2,1,0,1,0,50932.4,0.395322,0.394984,0.225604,77,0.0247396,10,8.91097e-05,-3.64665,-3.43354,-0.0171835,0.394884,
2,1,0,0,0,50933.2,0.399317,0.398989,0.22568,77,0.0249286,10,9.00438e-05,-3.64651,-9.2109,-0.00640545,0.398889,
2,1,0,1,0,50934,0.403313,0.402974,0.225037,77,0.0251173,10,9.06841e-05,-3.64775,-60.8681,-0.000969309,0.402875,
2,1,0,1,0,50934.8,0.407307,0.407023,0.2245,77,0.0253059,10,9.13767e-05,-3.64878,-3.78103,-0.0156042,0.406924,
2,1,0,1,0,50935.6,0.411302,0.410911,0.22538,77,0.0254938,10,9.26112e-05,-3.64708,-2.67281,-0.0220742,0.410811,
2,1,0,1,0,50936.4,0.415298,0.414998,0.224012,77,0.0256819,10,9.29644e-05,-3.64973,8.07339,0.00730796,0.414899,
2,1,0,0,0,50937.2,0.419293,0.418984,0.224598,77,0.0258699,10,9.41029e-05,-3.64859,-2.84723,-0.0207219,0.418885,
2,1,0,1,0,50938,0.423288,0.422965,0.224547,77,0.0260576,10,9.49754e-05,-3.64869,1.46616,0.0402411,0.422866,
2,1,0,1,0,50938.8,0.427283,0.42699,0.223912,77,0.0262454,10,9.56081e-05,-3.64992,-3.93395,-0.0149977,0.426892,
2,1,0,1,0,50939.6,0.431278,0.43096,0.224286,77,0.0264329,10,9.66581e-05,-3.6492,5.24674,0.0112451,0.430861,
2,1,0,1,0,50940.4,0.435273,0.435,0.224583,77,0.0266203,10,9.76937e-05,-3.64862,31.0253,0.00190167,0.434901,
2,1,0,0,0,50941.2,0.439269,0.439003,0.225062,77,0.0268078,10,9.88028e-05,-3.6477,-3.16874,-0.0186194,0.438904,
2,1,0,1,0,50942,0.443264,0.442955,0.224108,77,0.026995,10,9.92697e-05,-3.64954,15.4716,0.00381344,0.442857,
2,1,0,0,0,50942.8,0.447259,0.446945,0.22464,77,0.027182,10,0.000100402,-3.64851,-6.37631,-0.00925299,0.446846,
2,1,0,1,0,50943.6,0.451254,0.450947,0.224359,77,0.0273691,10,0.000101174,-3.64906,-4.13271,-0.0142763,0.450848,
2,1,0,1,0,50944.4,0.455249,0.454935,0.224711,77,0.0275562,10,0.000102229,-3.64838,1.61644,0.0364999,0.454836,
2,1,0,1,0,50945.2,0.459244,0.458962,0.224391,77,0.0277436,10,0.000102987,-3.649,2.92341,0.0201819,0.458863,
2,1,0,1,0,50946,0.46324,0.462926,0.226058,77,0.0279312,10,0.000104648,-3.64578,-9.12461,-0.00646603,0.462827,
2,1,0,0,0,50946.8,0.467235,0.466929,0.225414,77,0.0281187,10,0.000105252,-3.64702,-14.0709,-0.00419304,0.46683,
2,1,0,1,0,50947.6,0.471231,0.470933,0.225369,77,0.0283064,10,0.000106133,-3.64711,11.4981,0.0051313,0.470833,
2,1,0,1,0,50948.4,0.475225,0.474943,0.226459,77,0.0284942,10,0.000107555,-3.64501,2.15657,0.0273582,0.474843,
2,1,0,1,0,50949.2,0.47922,0.478905,0.225716,77,0.0286826,10,0.000108097,-3.64644,11.1617,0.00528592,0.478806,
2,1,0,1,0,50950,0.483216,0.482921,0.22698,77,0.0288712,10,0.000109613,-3.64401,-5.04489,-0.011695,0.482821,
2,1,0,0,0,50950.8,0.487211,0.486891,0.226977,77,0.0290599,10,0.000110513,-3.64402,1.30431,0.0452347,0.486791,
2,1,0,1,0,50951.6,0.491206,0.490927,0.22708,77,0.0292491,10,0.00011148,-3.64382,-16.8212,-0.00350747,0.490827,
2,1,0,1,0,50952.4,0.495201,0.4949,0.228299,77,0.0294386,10,0.000112985,-3.6415,3.86119,0.0152802,0.494799,
2,1,0,1,0,50953.2,0.499196,0.498908,0.229058,77,0.0296286,10,0.000114279,-3.64005,1.30752,0.0451237,0.498807,
2,1,0,1,0,50954,0.503191,0.502904,0.230155,77,0.0298195,10,0.000115746,-3.63798,3.21693,0.0183405,0.502803,
2,1,0,0,0,50954.8,0.507187,0.506868,0.231875,77,0.0300108,10,0.00011753,-3.63475,2.00127,0.0294813,0.506766,
2,1,0,1,0,50955.6,0.511182,0.510859,0.231926,77,0.030203,10,0.000118481,-3.63465,1.65329,0.0356864,0.510757,
2,1,0,0,0,50956.4,0.515177,0.514861,0.233596,77,0.0303959,10,0.00012027,-3.63153,-33.8628,-0.00174232,0.514759,
2,1,0,1,0,50957.2,0.519173,0.518887,0.234009,77,0.0305893,10,0.000121424,-3.63077,1.22145,0.0483034,0.518784,
2,1,0,1,0,50958,0.523167,0.522861,0.234831,77,0.0307839,10,0.000122784,-3.62924,1.52911,0.0385846,0.522758,
2,1,0,1,0,50958.8,0.527162,0.526838,0.237542,77,0.0309795,10,0.000125146,-3.62426,1.17528,0.050201,0.526733,
2,1,0,1,0,50959.6,0.531158,0.530861,0.238785,77,0.0311763,10,0.000126762,-3.62199,1.90705,0.0309378,0.530756,
2,1,0,0,0,50960.4,0.535153,0.534882,0.240263,77,0.0313745,10,0.000128512,-3.61931,1.03285,0.0571233,0.534776,
2,1,0,1,0,50961.2,0.539148,0.538832,0.242039,77,0.0315738,10,0.000130418,-3.61612,1.526,0.0386631,0.538726,
2,1,0,1,0,50962,0.543143,0.542825,0.243574,77,0.0317744,10,0.000132218,-3.61337,1.17064,0.0503996,0.542717,
2,1,0,1,0,50962.8,0.547138,0.54685,0.245844,77,0.0319766,10,0.00013444,-3.60934,1.56233,0.037764,0.546742,
2,1,0,1,0,50963.6,0.551133,0.55086,0.248173,77,0.0321803,10,0.000136708,-3.60525,0.72415,0.0814748,0.550751,
2,1,0,0,0,50964.4,0.555129,0.554841,0.250186,77,0.0323864,10,0.000138814,-3.60174,0.884396,0.0667122,0.554731,
2,1,0,1,0,50965.2,0.559124,0.558824,0.252214,77,0.0325942,10,0.000140943,-3.59823,1.00647,0.0586206,0.558713,
2,1,0,1,0,50966,0.56312,0.562827,0.2556,77,0.0328038,10,0.000143858,-3.59244,0.754973,0.0781485,0.562715,
2,1,0,1,0,50966.8,0.567114,0.566857,0.25757,77,0.0330157,10,0.000146005,-3.58911,1.26295,0.0467161,0.566743,
2,1,0,1,0,50967.6,0.571109,0.570792,0.261729,77,0.0332299,10,0.000149393,-3.58215,0.674315,0.0874962,0.570677,
2,1,0,0,0,50968.4,0.575105,0.574827,0.264287,77,0.0334465,10,0.000151919,-3.57792,0.586655,0.10057,0.574711,
2,1,0,1,0,50969.2,0.5791,0.578766,0.269413,77,0.0336664,10,0.000155927,-3.56958,0.744633,0.0792337,0.578647,
2,1,0,0,0,50970,0.583095,0.582782,0.272863,77,0.0338894,10,0.000159019,-3.56406,0.461457,0.127856,0.582661,
2,1,0,1,0,50970.8,0.58709,0.586824,0.277331,77,0.0341162,10,0.000162745,-3.557,0.56105,0.10516,0.586702,
2,1,0,1,0,50971.6,0.591085,0.590798,0.283281,77,0.0343469,10,0.000167362,-3.54778,0.443947,0.132899,0.590674,
2,1,0,1,0,50972.4,0.59508,0.594769,0.289213,77,0.0345821,10,0.000172015,-3.53878,0.366837,0.160834,0.594642,
2,1,0,1,0,50973.2,0.599076,0.598772,0.296053,77,0.0348227,10,0.000177268,-3.52863,0.401656,0.146892,0.598642,
2,1,0,0,0,50974,0.603071,0.602751,0.303894,77,0.0350688,10,0.000183173,-3.51728,0.343515,0.171754,0.602617,
2,1,0,1,0,50974.8,0.607066,0.606739,0.312831,77,0.0353214,10,0.000189807,-3.50469,0.31969,0.184554,0.606602,
2,1,0,1,0,50975.6,0.611061,0.610758,0.322604,77,0.0355816,10,0.000197033,-3.49133,0.274872,0.214646,0.610616,
2,1,0,1,0,50976.4,0.615056,0.614788,0.3332,77,0.03585,10,0.000204848,-3.47729,0.253762,0.232501,0.614641,
2,1,0,1,0,50977.2,0.619051,0.618758,0.346013,77,0.036128,10,0.000214098,-3.46091,0.244339,0.241467,0.618605,
2,1,0,0,0,50978,0.623047,0.62274,0.361279,77,0.0364167,10,0.000224983,-3.44216,0.199289,0.296052,0.622581,
2,1,0,1,0,50978.8,0.627042,0.62675,0.378138,77,0.0367182,10,0.000236998,-3.42235,0.180944,0.326067,0.626584,
2,1,0,1,0,50979.6,0.631037,0.630736,0.398785,77,0.0370353,10,0.000251528,-3.39926,0.171648,0.343728,0.63056,
2,1,0,1,0,50980.4,0.635032,0.634712,0.422333,77,0.0373693,10,0.00026806,-3.37434,0.160616,0.367335,0.634526,
2,1,0,1,0,50981.2,0.639027,0.638728,0.448285,77,0.0377234,10,0.000286333,-3.34845,0.141722,0.416307,0.638531,
2,1,0,1,0,50982,0.643022,0.642727,0.480439,77,0.0381005,10,0.000308791,-3.31836,0.129282,0.456367,0.642516,
2,1,0,1,0,50982.8,0.647018,0.646712,0.517713,77,0.0385051,10,0.000334811,-3.28591,0.117905,0.500403,0.646485,
2,1,0,0,0,50983.6,0.651013,0.650772,0.558397,77,0.0389408,10,0.000363389,-3.25306,0.115931,0.508922,0.650526,
2,1,0,1,0,50984.4,0.655008,0.65474,0.607714,77,0.0394127,10,0.000397895,-3.2163,0.101289,0.582494,0.654473,
2,1,0,1,0,50985.2,0.659003,0.658698,0.666506,77,0.0399279,10,0.000439026,-3.1762,0.098745,0.597498,0.658405,
2,1,0,1,0,50986,0.662998,0.662719,0.732003,77,0.0404926,10,0.000485112,-3.13549,0.0931957,0.633076,0.662397,
2,1,0,1,0,50986.8,0.666994,0.666727,0.810301,77,0.0411147,10,0.000540249,-3.09135,0.0899223,0.656122,0.66637,
2,1,0,0,0,50987.6,0.670989,0.670742,0.898509,77,0.0418028,10,0.000602668,-3.04648,0.0864726,0.682297,0.670347,
2,1,0,1,0,50988.4,0.674984,0.674687,0.999146,77,0.0425664,10,0.000674111,-3.00037,0.0860731,0.685464,0.674247,
2,1,0,1,0,50989.2,0.67898,0.678697,1.1126,77,0.0434155,10,0.000755116,-2.95366,0.0829238,0.711497,0.678207,
2,1,0,1,0,50990,0.682974,0.682687,1.24109,77,0.0443618,10,0.000847273,-2.9062,0.0807692,0.730476,0.682141,
2,1,0,1,0,50990.8,0.686969,0.68671,1.38692,77,0.0454176,10,0.000952413,-2.85795,0.0822741,0.717115,0.6861,
2,1,0,0,0,50991.6,0.690965,0.690662,1.54703,77,0.0465956,10,0.00106848,-2.8105,0.0832151,0.709006,0.689981,
2,1,0,1,0,50992.4,0.69496,0.694703,1.72604,77,0.0479086,10,0.00119909,-2.76295,0.0835105,0.706498,0.693944,
2,1,0,0,0,50993.2,0.698955,0.698692,1.92248,77,0.0493714,10,0.00134322,-2.71614,0.0836765,0.705097,0.697847,
2,1,0,1,0,50994,0.70295,0.70265,2.13615,77,0.050998,10,0.00150097,-2.67037,0.0849614,0.694433,0.70171,
2,1,0,1,0,50994.8,0.706945,0.706658,2.36888,77,0.0528031,10,0.00167399,-2.62546,0.0887814,0.664553,0.705616,
2,1,0,1,0,50995.6,0.71094,0.710635,2.61892,77,0.0548009,10,0.0018611,-2.58188,0.0905281,0.651731,0.709483,
2,1,0,1,0,50996.4,0.714936,0.714628,2.8884,77,0.0570067,10,0.00206413,-2.53934,0.0921857,0.640012,0.713357,
2,1,0,0,0,50997.2,0.718931,0.718657,3.17493,77,0.0594343,10,0.00228169,-2.49827,0.0963024,0.612653,0.71726,
2,1,0,1,0,50998,0.722927,0.722599,3.48314,77,0.0621004,10,0.00251692,-2.45803,0.0958051,0.615834,0.721066,
2,1,0,1,0,50998.8,0.726921,0.726674,3.81133,77,0.0650193,10,0.0027696,-2.41892,0.100841,0.585078,0.724997,
2,1,0,1,0,50999.6,0.730916,0.73061,4.15682,77,0.0682077,10,0.00303701,-2.38124,0.103143,0.572022,0.728781,
2,1,0,1,0,51000.4,0.734911,0.734651,4.52237,77,0.0716814,10,0.00332236,-2.34463,0.104586,0.564128,0.732661,
2,1,0,0,0,51001.2,0.738907,0.738595,4.91296,77,0.075457,10,0.00362868,-2.30866,0.109361,0.539497,0.736433,
2,1,0,1,0,51002,0.742902,0.742623,5.32162,77,0.0795508,10,0.00395196,-2.27396,0.110575,0.533577,0.740282,
2,1,0,1,0,51002.8,0.746897,0.746635,5.75281,77,0.0839813,10,0.00429525,-2.24012,0.114041,0.517358,0.744104,
2,1,0,1,0,51003.6,0.750892,0.750612,6.20931,77,0.0887655,10,0.00466078,-2.20696,0.11591,0.509014,0.74788,
2,1,0,1,0,51004.4,0.754887,0.754605,6.68886,77,0.0939236,10,0.00504745,-2.17465,0.118553,0.497667,0.751662,
2,1,0,0,0,51005.2,0.758883,0.758579,7.19606,77,0.0994767,10,0.00545878,-2.14291,0.120151,0.49105,0.755413,
2,1,0,1,0,51005.9,0.762878,0.762615,7.72933,77,0.105444,10,0.0058945,-2.11186,0.121482,0.485668,0.759214,
2,1,0,0,0,51006.7,0.766873,0.766577,8.28951,77,0.111849,10,0.00635454,-2.08147,0.12375,0.476767,0.762929,
2,1,0,1,0,51007.5,0.770868,0.770581,8.88298,77,0.118716,10,0.00684505,-2.05144,0.126932,0.464816,0.766672,
2,1,0,1,0,51008.3,0.774863,0.774605,9.50778,77,0.126068,10,0.00736477,-2.02192,0.124651,0.473322,0.770421,
2,1,0,1,0,51009.1,0.778858,0.778589,10.1728,77,0.133935,10,0.00792042,-1.99256,0.125206,0.471224,0.774113,
2,1,0,1,0,51009.9,0.782854,0.782605,10.8757,77,0.14235,10,0.00851141,-1.96354,0.129713,0.454852,0.777819,
2,1,0,0,0,51010.7,0.786849,0.786517,11.6248,77,0.151343,10,0.0091431,-1.93461,0.124993,0.472026,0.781402,
2,1,0,1,0,51011.5,0.790844,0.790582,12.4275,77,0.160955,10,0.00982494,-1.90562,0.125139,0.471476,0.785114,
2,1,0,1,0,51012.3,0.794839,0.794537,13.2833,77,0.171233,10,0.0105541,-1.87669,0.123646,0.477168,0.788692,
2,1,0,1,0,51013.1,0.798834,0.798526,14.1895,77,0.182215,10,0.0113307,-1.84803,0.124006,0.475783,0.792282,
2,1,0,1,0,51013.9,0.802829,0.80255,15.1622,77,0.193951,10,0.0121684,-1.81924,0.125576,0.469834,0.795879,
2,1,0,0,0,51014.7,0.806825,0.806557,16.1831,77,0.206478,10,0.0130526,-1.79094,0.125802,0.468993,0.799436,
2,1,0,1,0,51015.5,0.81082,0.810561,17.2646,77,0.219846,10,0.013994,-1.76284,0.128177,0.460299,0.802965,
2,1,0,1,0,51016.3,0.814815,0.814526,18.4053,77,0.2341,10,0.0149916,-1.73506,0.12288,0.480145,0.806428,
2,1,0,1,0,51017.1,0.81881,0.818549,19.6104,77,0.249293,10,0.0160521,-1.70751,0.126999,0.464572,0.809921,
2,1,0,1,0,51017.9,0.822805,0.822556,20.8457,77,0.265467,10,0.0171467,-1.68098,0.135856,0.434284,0.813384,
2,1,0,0,0,51018.7,0.826801,0.826569,22.1021,77,0.282635,10,0.0182689,-1.65557,0.134824,0.437609,0.816844,
2,1,0,1,0,51019.5,0.830796,0.830554,23.3855,77,0.300817,10,0.0194229,-1.63105,0.13951,0.422909,0.820264,
2,1,0,0,0,51020.3,0.834791,0.834531,24.4726,77,0.320038,10,0.0204232,-1.61132,0.186768,0.315901,0.823763,
2,1,0,1,0,51021.1,0.838786,0.838528,25.8346,77,0.340151,10,0.0216631,-1.5878,0.144775,0.407529,0.82716,
2,1,0,1,0,51021.9,0.842781,0.842537,27.2454,77,0.361366,10,0.0229552,-1.56471,0.148456,0.397425,0.830549,
2,1,0,1,0,51022.7,0.846776,0.846528,28.6914,77,0.383715,10,0.024288,-1.54225,0.152848,0.386003,0.833904,
2,1,0,0,0,51023.4,0.849723,0.84945,29.6355,77,0.404216,10,0.0251739,-1.52819,0.0441763,1.33556,0.836411,
2,1,0,1,0,51024.2,0.845728,0.845443,27.5532,77,0.426993,10,0.0232947,-1.55983,0.111429,0.529484,0.83332,
2,1,0,0,0,51025,0.841732,0.841415,25.7938,77,0.448285,10,0.0217033,-1.58849,0.115621,0.510287,0.830065,
2,1,0,1,0,51025.8,0.837737,0.837511,24.2063,77,0.468236,10,0.0202731,-1.61607,0.121716,0.484733,0.82686,
2,1,0,1,0,51026.6,0.833742,0.833501,22.7508,77,0.486983,10,0.0189628,-1.643,0.123749,0.476772,0.823491,
2,1,0,1,0,51027.4,0.829747,0.829481,21.3318,77,0.50458,10,0.0176943,-1.67097,0.117258,0.503164,0.820095,
2,1,0,1,0,51028.2,0.825752,0.825482,19.9668,77,0.521063,10,0.0164822,-1.69969,0.122388,0.482073,0.816697,
2,1,0,0,0,51029,0.821757,0.821501,18.7199,77,0.536507,10,0.0153784,-1.7277,0.123197,0.478906,0.813265,
2,1,0,1,0,51029.8,0.817761,0.817512,17.5163,77,0.55097,10,0.0143198,-1.75656,0.119333,0.494414,0.809804,
2,1,0,1,0,51030.6,0.813766,0.813454,16.3728,77,0.564498,10,0.0133185,-1.78588,0.117515,0.502063,0.80625,
2,1,0,1,0,51031.4,0.809771,0.809486,15.3043,77,0.577138,10,0.0123886,-1.81519,0.120554,0.489409,0.802753,
2,1,0,1,0,51032.2,0.805776,0.805505,14.2768,77,0.588945,10,0.0115,-1.84537,0.114767,0.514087,0.799223,
2,1,0,0,0,51033,0.801781,0.80153,13.2969,77,0.599949,10,0.0106578,-1.87625,0.117293,0.503015,0.795679,
2,1,0,1,0,51033.8,0.797786,0.797487,12.3718,77,0.610192,10,0.00986637,-1.90757,0.114869,0.513628,0.792044,
2,1,0,1,0,51034.6,0.79379,0.793559,11.5125,77,0.619723,10,0.00913585,-1.93883,0.116022,0.508524,0.788494,
2,1,0,1,0,51035.4,0.789795,0.789496,10.7024,77,0.628586,10,0.00844949,-1.97052,0.113776,0.518564,0.784787,
2,1,0,1,0,51036.2,0.7858,0.785503,9.9355,77,0.636819,10,0.00780436,-2.00281,0.111828,0.527596,0.781131,
2,1,0,0,0,51037,0.781805,0.781581,9.22061,77,0.644464,10,0.00720666,-2.03524,0.114514,0.515221,0.777524,
2,1,0,1,0,51037.8,0.77781,0.777506,8.55006,77,0.651553,10,0.00664772,-2.06803,0.11179,0.527776,0.773744,
2,1,0,0,0,51038.6,0.773814,0.773539,7.91908,77,0.658123,10,0.00612572,-2.10133,0.112528,0.524315,0.770055,
2,1,0,1,0,51039.4,0.769819,0.769526,7.34084,77,0.664208,10,0.00564897,-2.13425,0.105613,0.558644,0.766297,
2,1,0,1,0,51040.2,0.765824,0.765533,6.76974,77,0.669833,10,0.00518246,-2.16943,0.112729,0.523381,0.762554,
2,1,0,1,0,51041,0.761829,0.761517,6.25775,77,0.675027,10,0.00476538,-2.20358,0.109505,0.538789,0.758763,
2,1,0,1,0,51041.8,0.757834,0.757577,5.77393,77,0.679825,10,0.0043742,-2.23853,0.106357,0.554737,0.755036,
2,1,0,0,0,51042.6,0.753839,0.753547,5.31674,77,0.684247,10,0.00400641,-2.27435,0.104749,0.563254,0.751208,
2,1,0,1,0,51043.4,0.749844,0.749568,4.88899,77,0.688316,10,0.00366463,-2.31078,0.104226,0.566079,0.747416,
2,1,0,1,0,51044.2,0.745848,0.745552,4.48422,77,0.692053,10,0.00334322,-2.34831,0.100796,0.585341,0.743579,
2,1,0,1,0,51045,0.741853,0.741567,4.10786,77,0.695476,10,0.00304625,-2.38638,0.0995358,0.592752,0.739759,
2,1,0,1,0,51045.8,0.737858,0.737557,3.75408,77,0.698609,10,0.00276885,-2.4255,0.0963443,0.612387,0.735905,
2,1,0,0,0,51046.6,0.733863,0.73359,3.42017,77,0.701467,10,0.00250901,-2.46595,0.0945387,0.624083,0.732086,
2,1,0,1,0,51047.4,0.729868,0.729539,3.10494,77,0.704066,10,0.00226518,-2.50795,0.0907653,0.650028,0.728172,
2,1,0,1,0,51048.2,0.725872,0.725555,2.81211,77,0.706422,10,0.00204034,-2.55097,0.0867697,0.679961,0.724318,
2,1,0,1,0,51049,0.721877,0.72159,2.53518,77,0.70855,10,0.00182936,-2.59599,0.0857887,0.687736,0.720474,
2,1,0,1,0,51049.8,0.717882,0.717588,2.27904,77,0.710466,10,0.00163541,-2.64225,0.0821327,0.71835,0.716585,
2,1,0,0,0,51050.6,0.713887,0.713576,2.04034,77,0.712183,10,0.00145594,-2.6903,0.0794331,0.742763,0.712679,
2,1,0,1,0,51051.4,0.709892,0.709641,1.81737,77,0.713717,10,0.00128968,-2.74056,0.0758173,0.778187,0.708842,
2,1,0,0,0,51052.2,0.705897,0.705665,1.61019,77,0.715079,10,0.00113625,-2.79312,0.0738738,0.798659,0.704956,
2,1,0,1,0,51053,0.701901,0.701622,1.42176,77,0.716282,10,0.000997541,-2.84717,0.0698072,0.845185,0.700996,
2,1,0,1,0,51053.8,0.697906,0.697626,1.24526,77,0.71734,10,0.000868727,-2.90474,0.0670761,0.879598,0.697078,
2,1,0,1,0,51054.6,0.693911,0.693621,1.08456,77,0.718263,10,0.000752271,-2.96475,0.0639071,0.923215,0.693144,
2,1,0,1,0,51055.4,0.689916,0.68965,0.939124,77,0.719064,10,0.000647667,-3.02728,0.0605621,0.974207,0.689237,
2,1,0,0,0,51056.2,0.685921,0.685664,0.807063,77,0.719754,10,0.000553374,-3.09309,0.0584287,1.00978,0.685309,
2,1,0,1,0,51057,0.681926,0.681608,0.687057,77,0.720344,10,0.000468304,-3.16301,0.0550048,1.07263,0.681306,
2,1,0,1,0,51057.8,0.67793,0.677602,0.578717,77,0.720842,10,0.00039214,-3.23753,0.052858,1.1162,0.677347,
2,1,0,1,0,51058.6,0.673935,0.673617,0.484661,77,0.72126,10,0.000326476,-3.31456,0.0489725,1.20476,0.673404,
2,1,0,1,0,51059.4,0.66994,0.669678,0.400269,77,0.721606,10,0.000268051,-3.39765,0.0448323,1.31602,0.669502,
2,1,0,0,0,51060.2,0.665945,0.665623,0.325541,77,0.721888,10,0.000216688,-3.48739,0.0442986,1.33187,0.665479,
2,1,0,1,0,51061,0.66195,0.661704,0.26123,77,0.722116,10,0.000172857,-3.58298,0.0391235,1.50804,0.66159,
2,1,0,0,0,51061.8,0.657955,0.657645,0.204041,77,0.722294,10,0.000134187,-3.69028,0.0360436,1.63691,0.657555,
2,1,0,1,0,51062.6,0.653959,0.653697,0.156335,77,0.722432,10,0.000102196,-3.80594,0.0307316,1.91985,0.653629,
2,1,0,1,0,51063.4,0.649964,0.649726,0.114948,77,0.722533,10,7.46846e-05,-3.9395,0.0276644,2.13271,0.649676,
2,1,0,1,0,51064.2,0.64597,0.645682,0.079724,77,0.722603,10,5.14763e-05,-4.09841,0.0220325,2.67787,0.645647,
2,1,0,1,0,51065,0.641974,0.641689,0.0498467,77,0.722647,10,3.19861e-05,-4.30236,0.0164069,3.59605,0.641667,
2,1,0,0,0,51065.8,0.637979,0.637666,0.0248692,77,0.72267,10,1.58583e-05,-4.60434,0.00878764,6.71398,0.637655,
2,0,0,1,0,51066.6,0.633983,0.633657,0.00234415,77,0.722674,10,1.48539e-06,-5.63002,0.0115947,5.08853,0.633656,
2,0,0,1,0,51067.4,0.629988,0.62972,-0.0141012,77,0.722663,10,-8.87982e-06,-4.85074,-0.00683486,-8.63222,0.629727,
2,0,0,1,0,51068.2,0.625993,0.625706,-0.0302373,77,0.722638,10,-1.89197e-05,-4.51946,-0.0191621,-3.07899,0.625719,
2,0,0,1,0,51069,0.621998,0.621723,-0.0418243,77,0.722603,10,-2.60031e-05,-4.37857,-0.0354642,-1.66365,0.621741,
2,0,0,0,0,51069.8,0.618003,0.61768,-0.0525927,77,0.722558,10,-3.24854e-05,-4.27907,-0.0473423,-1.24624,0.617703,
2,0,0,1,0,51070.6,0.614008,0.613699,-0.0616782,77,0.722505,10,-3.78519e-05,-4.20987,-0.0782019,-0.754458,0.613726,
2,0,0,1,0,51071.4,0.610012,0.609713,-0.0692489,77,0.722446,10,-4.2222e-05,-4.15959,-0.0793722,-0.743333,0.609744,
2,0,0,1,0,51072.2,0.606017,0.60572,-0.0745478,77,0.722381,10,-4.51551e-05,-4.12756,-0.117097,-0.503854,0.605753,
2,0,0,1,0,51073,0.602022,0.601737,-0.0819851,77,0.722311,10,-4.93335e-05,-4.08626,-0.17327,-0.340508,0.601773,
2,0,0,0,0,51073.8,0.598027,0.597695,-0.0861375,77,0.722237,10,-5.1484e-05,-4.06481,-0.160506,-0.367588,0.597733,
2,0,0,1,0,51074.6,0.594032,0.593747,-0.0899183,77,0.72216,10,-5.33888e-05,-4.04615,-0.229983,-0.256541,0.593787,
2,0,0,0,0,51075.4,0.590037,0.589743,-0.0938155,77,0.72208,10,-5.53271e-05,-4.02773,-0.254443,-0.231879,0.589784,
2,0,0,1,0,51076.2,0.586041,0.585781,-0.0960681,77,0.721997,10,-5.62749e-05,-4.01742,-0.337692,-0.174715,0.585824,
2,0,0,1,0,51077,0.582046,0.581718,-0.0989312,77,0.721912,10,-5.75501e-05,-4.00467,-0.45816,-0.128776,0.581762,
2,0,0,1,0,51077.8,0.578052,0.577759,-0.101383,77,0.721825,10,-5.85749e-05,-3.99404,-0.403621,-0.146177,0.577803,
2,0,0,1,0,51078.6,0.574056,0.573779,-0.103207,77,0.721736,10,-5.92181e-05,-3.98629,-0.369331,-0.159748,0.573824,
2,0,0,0,0,51079.4,0.570061,0.569683,-0.105688,77,0.721646,10,-6.02088e-05,-3.97597,-0.798959,-0.0738461,0.56973,
2,0,0,1,0,51080.2,0.566065,0.565731,-0.106772,77,0.721554,10,-6.04042e-05,-3.97154,-0.483739,-0.121967,0.565778,
2,0,0,1,0,51081,0.56207,0.561724,-0.107984,77,0.721461,10,-6.06574e-05,-3.96664,-0.640426,-0.0921262,0.561771,
2,0,0,1,0,51081.8,0.558075,0.557807,-0.109372,77,0.721367,10,-6.10084e-05,-3.96109,-0.614448,-0.0960211,0.557855,
2,0,0,1,0,51082.6,0.55408,0.553781,-0.111431,77,0.721271,10,-6.17086e-05,-3.95299,-0.8121,-0.0726512,0.55383,
2,0,0,0,0,51083.4,0.550085,0.549805,-0.112022,77,0.721175,10,-6.15902e-05,-3.9507,53.6158,0.00110042,0.549854,
2,0,0,1,0,51084.2,0.54609,0.545738,-0.112548,77,0.721078,10,-6.14215e-05,-3.94866,-0.722651,-0.0816438,0.545788,
2,0,0,1,0,51085,0.542094,0.541799,-0.113594,77,0.72098,10,-6.15451e-05,-3.94464,-0.951441,-0.0620112,0.541849,
2,0,0,1,0,51085.8,0.538099,0.537782,-0.11526,77,0.720881,10,-6.19849e-05,-3.93832,-1.36509,-0.0432207,0.537833,
2,0,0,1,0,51086.6,0.534104,0.533796,-0.115996,77,0.720782,10,-6.19181e-05,-3.93556,-0.579589,-0.101796,0.533847,
2,0,0,0,0,51087.4,0.530109,0.529753,-0.116751,77,0.720681,10,-6.18491e-05,-3.93274,1.65881,0.0355677,0.529804,
2,0,0,1,0,51088.2,0.526114,0.52582,-0.118468,77,0.72058,10,-6.22926e-05,-3.9264,-0.514437,-0.114689,0.525872,
2,0,0,0,0,51088.9,0.522119,0.521816,-0.119383,77,0.720478,10,-6.22961e-05,-3.92306,-2.99297,-0.0197129,0.521868,
2,0,0,1,0,51089.7,0.518123,0.51784,-0.120126,77,0.720376,10,-6.2206e-05,-3.92036,-0.866239,-0.0681106,0.517893,
2,0,0,1,0,51090.5,0.514128,0.5138,-0.121493,77,0.720272,10,-6.2423e-05,-3.91545,11.3915,0.00517932,0.513853,
2,0,0,1,0,51091.3,0.510133,0.50984,-0.121157,77,0.720168,10,-6.17706e-05,-3.91665,-0.417399,-0.141351,0.509893,
2,0,0,1,0,51092.1,0.506138,0.505813,-0.122855,77,0.720063,10,-6.21417e-05,-3.91061,9.25564,0.00637449,0.505867,
2,0,0,0,0,51092.9,0.502143,0.501856,-0.123407,77,0.719957,10,-6.19326e-05,-3.90866,-0.725371,-0.0813377,0.50191,
2,0,0,1,0,51093.7,0.498148,0.497833,-0.124578,77,0.71985,10,-6.20191e-05,-3.90456,-4.21859,-0.0139857,0.497888,
2,0,0,1,0,51094.5,0.494152,0.493857,-0.126308,77,0.719742,10,-6.23781e-05,-3.89857,-0.700996,-0.0841659,0.493912,
2,0,0,1,0,51095.3,0.490157,0.489864,-0.12793,77,0.719634,10,-6.26682e-05,-3.89303,-0.787367,-0.0749333,0.489921,
2,0,0,1,0,51096.1,0.486162,0.485861,-0.1287,77,0.719524,10,-6.25304e-05,-3.89042,-0.898153,-0.0656904,0.485917,
2,0,0,0,0,51096.9,0.482167,0.481867,-0.129806,77,0.719413,10,-6.25491e-05,-3.88671,-0.654193,-0.0901875,0.481924,
2,0,0,1,0,51097.7,0.478172,0.477846,-0.130255,77,0.719302,10,-6.22417e-05,-3.88521,-1.73208,-0.034063,0.477903,
2,0,0,0,0,51098.5,0.474177,0.473843,-0.132959,77,0.719189,10,-6.30019e-05,-3.87628,-1.1894,-0.049605,0.473901,
2,0,0,1,0,51099.3,0.470181,0.46985,-0.133137,77,0.719075,10,-6.25543e-05,-3.8757,-0.938681,-0.0628541,0.469909,
2,0,0,1,0,51100.1,0.466186,0.465873,-0.134698,77,0.71896,10,-6.27522e-05,-3.87064,-0.533054,-0.110683,0.465932,
2,0,0,1,0,51100.9,0.462191,0.461886,-0.136244,77,0.718844,10,-6.29292e-05,-3.86568,-1.83516,-0.0321498,0.461946,
2,0,0,1,0,51101.7,0.458196,0.457901,-0.137369,77,0.718726,10,-6.29013e-05,-3.86211,-1.30115,-0.0453443,0.457961,
2,0,0,0,0,51102.5,0.454201,0.453893,-0.138612,77,0.718608,10,-6.29149e-05,-3.8582,-1.35467,-0.0435531,0.453954,
2,0,0,1,0,51103.3,0.450205,0.449905,-0.140201,77,0.718488,10,-6.30769e-05,-3.85325,-0.492293,-0.119847,0.449966,
2,0,0,1,0,51104.1,0.44621,0.445918,-0.141365,77,0.718367,10,-6.3037e-05,-3.84966,-0.785714,-0.0750909,0.44598,
2,0,0,1,0,51104.9,0.442215,0.441927,-0.144517,77,0.718245,10,-6.38659e-05,-3.84008,-0.768876,-0.0767353,0.441991,
2,0,0,1,0,51105.7,0.43822,0.437957,-0.145908,77,0.718121,10,-6.39015e-05,-3.83592,-0.627402,-0.0940385,0.438021,
2,0,0,0,0,51106.5,0.434225,0.433929,-0.148137,77,0.717996,10,-6.42811e-05,-3.82934,-0.9882,-0.0597045,0.433994,
2,0,0,1,0,51107.3,0.43023,0.429926,-0.149295,77,0.71787,10,-6.41856e-05,-3.82596,-1.0861,-0.0543227,0.429992,
2,0,0,1,0,51108.1,0.426234,0.425958,-0.151391,77,0.717742,10,-6.44864e-05,-3.8199,-0.805743,-0.0732243,0.426024,
2,0,0,1,0,51108.9,0.422239,0.421939,-0.152319,77,0.717612,10,-6.42695e-05,-3.81724,-1.06896,-0.0551936,0.422006,
2,0,0,1,0,51109.7,0.418244,0.417968,-0.153391,77,0.717482,10,-6.41127e-05,-3.8142,-0.724413,-0.0814453,0.418036,
2,0,0,0,0,51110.5,0.414249,0.413963,-0.154733,77,0.71735,10,-6.40538e-05,-3.81042,-0.960559,-0.0614226,0.414031,
2,0,0,1,0,51111.3,0.410254,0.409929,-0.157289,77,0.717216,10,-6.44774e-05,-3.8033,-1.04093,-0.0566802,0.409998,
2,0,0,0,0,51112.1,0.406259,0.405931,-0.159709,77,0.717081,10,-6.48308e-05,-3.79667,-0.429149,-0.137481,0.406002,
2,0,0,1,0,51112.9,0.402263,0.401936,-0.160949,77,0.716944,10,-6.46911e-05,-3.79331,-0.949273,-0.0621528,0.402007,
2,0,0,1,0,51113.7,0.398268,0.397995,-0.163693,77,0.716805,10,-6.51489e-05,-3.78597,-1.07869,-0.0546962,0.398067,
2,0,0,1,0,51114.5,0.394274,0.393946,-0.165587,77,0.716666,10,-6.52323e-05,-3.78097,-0.694927,-0.084901,0.394019,
2,0,0,1,0,51115.3,0.390278,0.389955,-0.16806,77,0.716524,10,-6.5536e-05,-3.77453,-0.709277,-0.0831833,0.390029,
2,0,0,0,0,51116.1,0.386283,0.385948,-0.169246,77,0.716381,10,-6.532e-05,-3.77148,-0.544517,-0.108353,0.386022,
2,0,0,1,0,51116.9,0.382287,0.381987,-0.170896,77,0.716236,10,-6.528e-05,-3.76727,-1.53676,-0.0383924,0.382062,
2,0,0,1,0,51117.7,0.378292,0.377995,-0.17295,77,0.716089,10,-6.53743e-05,-3.76208,-1.29561,-0.0455384,0.378071,
2,0,0,1,0,51118.5,0.374297,0.373974,-0.174617,77,0.715941,10,-6.53022e-05,-3.75791,-0.57625,-0.102386,0.374051,
2,0,0,1,0,51119.3,0.370303,0.369979,-0.177194,77,0.715791,10,-6.55581e-05,-3.75155,-0.670022,-0.0880569,0.370057,
2,0,0,0,0,51120.1,0.366307,0.365954,-0.179123,77,0.715639,10,-6.55509e-05,-3.74685,-0.910029,-0.0648331,0.366033,
2,0,0,1,0,51120.9,0.362312,0.361965,-0.182448,77,0.715486,10,-6.60396e-05,-3.73886,-0.569667,-0.103569,0.362045,
2,0,0,1,0,51121.7,0.358316,0.357991,-0.183087,77,0.71533,10,-6.55435e-05,-3.73734,-1.11458,-0.0529346,0.358072,
2,0,0,1,0,51122.5,0.354321,0.354009,-0.186148,77,0.715173,10,-6.58981e-05,-3.73014,-1.11301,-0.0530096,0.354091,
2,0,0,1,0,51123.3,0.350327,0.350014,-0.187958,77,0.715014,10,-6.57881e-05,-3.72594,-0.644371,-0.0915621,0.350097,
2,0,0,0,0,51124.1,0.346331,0.345989,-0.190454,77,0.714853,10,-6.58949e-05,-3.72021,-1.73415,-0.0340225,0.346072,
2,0,0,1,0,51124.9,0.342336,0.342062,-0.192913,77,0.71469,10,-6.59881e-05,-3.71464,-0.454183,-0.129904,0.342147,
2,0,0,0,0,51125.7,0.338341,0.338013,-0.194326,77,0.714525,10,-6.56846e-05,-3.71147,-1.30974,-0.0450472,0.338099,
2,0,0,1,0,51126.5,0.334345,0.334026,-0.197271,77,0.714358,10,-6.58937e-05,-3.70494,-0.45769,-0.128908,0.334113,
2,0,0,1,0,51127.3,0.33035,0.329979,-0.199177,77,0.71419,10,-6.57242e-05,-3.70076,-1.08109,-0.0545745,0.330066,
2,0,0,1,0,51128.1,0.326355,0.326029,-0.202196,77,0.714019,10,-6.59217e-05,-3.69423,-1.10055,-0.0536095,0.326118,
2,0,0,1,0,51128.9,0.32236,0.322089,-0.204076,77,0.713847,10,-6.57306e-05,-3.69021,-0.749868,-0.0786805,0.322179,
2,0,0,0,0,51129.7,0.318365,0.318087,-0.205966,77,0.713672,10,-6.55152e-05,-3.6862,-0.993286,-0.0593988,0.318178,
2,0,0,1,0,51130.5,0.31437,0.314051,-0.20906,77,0.713496,10,-6.56555e-05,-3.67973,-0.946084,-0.0623623,0.314143,
2,0,0,1,0,51131.3,0.310374,0.310049,-0.211034,77,0.713318,10,-6.5431e-05,-3.67565,-0.546654,-0.107929,0.310142,
2,0,0,1,0,51132.1,0.306379,0.306066,-0.214489,77,0.713137,10,-6.56478e-05,-3.66859,-0.719818,-0.0819652,0.30616,
2,0,0,1,0,51132.9,0.302385,0.302041,-0.216656,77,0.712955,10,-6.54391e-05,-3.66423,-0.629061,-0.0937905,0.302137,
2,0,0,0,0,51133.7,0.298389,0.298101,-0.219102,77,0.712771,10,-6.53144e-05,-3.65935,-0.786736,-0.0749934,0.298197,
2,0,0,1,0,51134.5,0.294394,0.294062,-0.221793,77,0.712584,10,-6.52209e-05,-3.65405,-1.93816,-0.0304413,0.294159,
2,0,0,1,0,51135.3,0.290398,0.290044,-0.224648,77,0.712396,10,-6.5158e-05,-3.6485,-0.53138,-0.111032,0.290143,
2,0,0,1,0,51136.1,0.286403,0.286075,-0.226949,77,0.712205,10,-6.49246e-05,-3.64407,-1.20561,-0.0489379,0.286175,
2,0,0,1,0,51136.9,0.282408,0.282055,-0.229435,77,0.712013,10,-6.47132e-05,-3.63934,-1.43655,-0.0410708,0.282156,
2,0,0,1,0,51137.7,0.278414,0.278081,-0.23212,77,0.711818,10,-6.4548e-05,-3.63429,-0.494628,-0.119281,0.278183,
2,0,0,1,0,51138.5,0.274418,0.27406,-0.234753,77,0.711621,10,-6.43363e-05,-3.62939,-1.19035,-0.0495654,0.274163,
2,0,0,0,0,51139.3,0.270423,0.270074,-0.238055,77,0.711422,10,-6.42925e-05,-3.62332,-0.720881,-0.0818443,0.270179,
2,0,0,1,0,51140.1,0.266427,0.266103,-0.239394,77,0.711221,10,-6.37036e-05,-3.62089,-0.983848,-0.0599686,0.266209,
2,0,0,1,0,51140.9,0.262432,0.262124,-0.242708,77,0.711018,10,-6.36196e-05,-3.61492,-0.806414,-0.0731634,0.262231,
2,0,0,1,0,51141.7,0.258437,0.258109,-0.245349,77,0.710812,10,-6.33266e-05,-3.61022,-0.90305,-0.0653342,0.258217,
2,0,0,1,0,51142.5,0.254442,0.254127,-0.246051,77,0.710605,10,-6.25281e-05,-3.60898,-0.856269,-0.0689036,0.254235,
2,0,0,0,0,51143.3,0.250447,0.250096,-0.248788,77,0.710396,10,-6.22209e-05,-3.60417,-2.19924,-0.0268274,0.250205,
2,0,0,1,0,51144.1,0.246452,0.246147,-0.252406,77,0.710185,10,-6.21291e-05,-3.5979,-0.617393,-0.0955631,0.246258,
2,0,0,1,0,51144.9,0.242456,0.24211,-0.254882,77,0.709971,10,-6.17094e-05,-3.59366,-1.55231,-0.0380079,0.242222,
2,0,0,1,0,51145.7,0.238461,0.238132,-0.256531,77,0.709757,10,-6.10883e-05,-3.59086,-0.678246,-0.0869891,0.238245,
2,0,0,1,0,51146.5,0.234467,0.234175,-0.258737,77,0.70954,10,-6.05898e-05,-3.58714,-1.0193,-0.0578831,0.234289,
2,0,0,0,0,51147.3,0.230471,0.230139,-0.261815,77,0.709321,10,-6.02538e-05,-3.58201,-1.62472,-0.0363139,0.230254,
2,0,0,1,0,51148.1,0.226476,0.226135,-0.263813,77,0.709101,10,-5.96573e-05,-3.5787,-0.999876,-0.0590073,0.226251,
2,0,0,0,0,51148.9,0.222481,0.222172,-0.264821,77,0.708878,10,-5.88358e-05,-3.57705,-0.785344,-0.0751263,0.222289,
2,0,0,1,0,51149.7,0.218485,0.218213,-0.269232,77,0.708654,10,-5.87498e-05,-3.56987,-1.73196,-0.0340654,0.218331,
2,0,0,1,0,51150.5,0.21449,0.21416,-0.271409,77,0.708427,10,-5.81249e-05,-3.56638,-0.652251,-0.090456,0.21428,
2,0,0,1,0,51151.3,0.210496,0.210176,-0.275011,77,0.708198,10,-5.78009e-05,-3.56065,-0.894361,-0.0659689,0.210297,
2,0,0,1,0,51152.1,0.2065,0.206117,-0.279195,77,0.707967,10,-5.75468e-05,-3.55409,-0.631412,-0.0934413,0.20624,
2,0,0,0,0,51152.9,0.202505,0.202166,-0.28122,77,0.707733,10,-5.6853e-05,-3.55095,-2.18283,-0.0270291,0.202289,
2,0,0,1,0,51153.7,0.198509,0.198162,-0.283796,77,0.707497,10,-5.62378e-05,-3.54699,-0.680399,-0.0867138,0.198287,
2,0,0,1,0,51154.5,0.194514,0.194171,-0.288289,77,0.707258,10,-5.59774e-05,-3.54017,-0.759548,-0.0776778,0.194298,
2,0,0,1,0,51155.3,0.190519,0.190213,-0.289738,77,0.707016,10,-5.51118e-05,-3.538,-0.857364,-0.0688156,0.19034,
2,0,0,1,0,51156.1,0.186524,0.186156,-0.294581,77,0.706771,10,-5.48379e-05,-3.5308,-0.822734,-0.0717121,0.186285,
2,0,0,0,0,51156.9,0.182529,0.182207,-0.299251,77,0.706523,10,-5.45255e-05,-3.52396,-0.435116,-0.135596,0.182338,
2,0,0,1,0,51157.7,0.178534,0.1782,-0.30354,77,0.706271,10,-5.40909e-05,-3.51778,-0.591084,-0.0998166,0.178334,
2,0,0,1,0,51158.5,0.174538,0.174219,-0.310093,77,0.706015,10,-5.40242e-05,-3.50851,-0.473718,-0.124547,0.174356,
2,0,0,1,0,51159.3,0.170543,0.170207,-0.315303,77,0.705755,10,-5.36668e-05,-3.50127,-0.370295,-0.159333,0.170346,
2,0,0,1,0,51160.1,0.166549,0.166218,-0.322088,77,0.705488,10,-5.35369e-05,-3.49203,-0.431191,-0.13683,0.16636,
2,0,0,0,0,51160.9,0.162553,0.162243,-0.331602,77,0.705215,10,-5.38002e-05,-3.47938,-0.343005,-0.172009,0.162389,
2,0,0,1,0,51161.7,0.158558,0.158204,-0.341329,77,0.704934,10,-5.39998e-05,-3.46683,-0.241516,-0.24429,0.158355,
2,0,0,0,0,51162.5,0.154563,0.154232,-0.357947,77,0.704643,10,-5.52069e-05,-3.44618,-0.217937,-0.270721,0.15439,
2,0,0,1,0,51163.3,0.150567,0.150248,-0.375366,77,0.704339,10,-5.6398e-05,-3.42554,-0.144781,-0.407511,0.150413,
2,0,0,1,0,51164.1,0.146572,0.146171,-0.399273,77,0.704018,10,-5.83621e-05,-3.39873,-0.131572,-0.448423,0.146347,
2,0,0,1,0,51164.9,0.142578,0.142262,-0.432317,77,0.703674,10,-6.15021e-05,-3.3642,-0.111762,-0.527907,0.142452,
2,0,0,1,0,51165.7,0.138582,0.138202,-0.472751,77,0.703301,10,-6.5335e-05,-3.32537,-0.0953385,-0.618847,0.13841,
2,0,0,0,0,51166.5,0.134587,0.134204,-0.518797,77,0.702892,10,-6.96247e-05,-3.285,-0.104419,-0.565029,0.134432,
2,0,0,1,0,51167.3,0.130591,0.130247,-0.567203,77,0.702446,10,-7.38767e-05,-3.24626,-0.111945,-0.527046,0.130497,
2,0,0,1,0,51168.1,0.126596,0.126263,-0.608377,77,0.701963,10,-7.68152e-05,-3.21583,-0.140241,-0.420704,0.12653,
2,0,0,1,0,51168.9,0.122602,0.122219,-0.6426,77,0.701449,10,-7.85376e-05,-3.19206,-0.22824,-0.2585,0.122501,
2,0,0,1,0,51169.7,0.118607,0.118297,-0.664173,77,0.700914,10,-7.85693e-05,-3.17772,-0.337104,-0.17502,0.118589,
2,0,0,0,0,51170.5,0.114611,0.114262,-0.675465,77,0.700365,10,-7.71801e-05,-3.1704,-0.988786,-0.0596692,0.114559,
2,0,0,1,0,51171.3,0.110616,0.110239,-0.681415,77,0.699811,10,-7.51185e-05,-3.16659,-2.23292,-0.0264228,0.110539,
2,0,0,1,0,51172,0.10662,0.106302,-0.681819,77,0.699254,10,-7.2479e-05,-3.16633,3.62073,0.0162951,0.106602,
2,0,0,1,0,51172.8,0.102625,0.102285,-0.678376,77,0.698698,10,-6.93876e-05,-3.16853,1.55048,0.0380527,0.102583,
2,0,0,1,0,51173.6,0.0986305,0.0982821,-0.67477,77,0.698146,10,-6.63178e-05,-3.17084,1.99302,0.0296033,0.098579,
2,0,0,0,0,51174.4,0.0946351,0.094299,-0.666275,77,0.697596,10,-6.28291e-05,-3.17635,0.917391,0.0643128,0.0945922,
2,0,0,1,0,51175.2,0.0906399,0.0902769,-0.661885,77,0.697052,10,-5.97529e-05,-3.17922,0.776588,0.0759734,0.0905681,
2,0,0,0,0,51176,0.0866448,0.0862972,-0.653499,77,0.696515,10,-5.63951e-05,-3.18475,0.817097,0.0722069,0.0865847,
2,0,0,1,0,51176.8,0.0826492,0.0822812,-0.645892,77,0.695983,10,-5.31448e-05,-3.18984,0.687658,0.0857985,0.0825654,
2,0,0,1,0,51177.6,0.0786544,0.0782678,-0.638474,77,0.695458,10,-4.99719e-05,-3.19486,0.716836,0.0823062,0.0785487,
2,0,0,1,0,51178.4,0.0746596,0.0743161,-0.628808,77,0.69494,10,-4.67305e-05,-3.20148,0.753268,0.0783254,0.0745927,
2,0,0,1,0,51179.2,0.0706641,0.0702691,-0.622368,77,0.694428,10,-4.37333e-05,-3.20595,0.647943,0.0910573,0.070543,
2,0,0,0,0,51180,0.0666689,0.0663159,-0.612848,77,0.693923,10,-4.06416e-05,-3.21265,0.743779,0.0793246,0.0665856,
2,0,0,1,0,51180.8,0.0626737,0.0623468,-0.603715,77,0.693424,10,-3.76397e-05,-3.21917,0.659508,0.0894606,0.0626124,
2,0,0,1,0,51181.6,0.0586783,0.0583223,-0.596748,77,0.692932,10,-3.48037e-05,-3.22421,0.530761,0.111161,0.0585849,
2,0,0,1,0,51182.4,0.0546835,0.0543665,-0.587526,77,0.692447,10,-3.19417e-05,-3.23097,0.89582,0.0658615,0.054625,
2,0,0,1,0,51183.2,0.0506886,0.05032,-0.577697,77,0.691969,10,-2.90697e-05,-3.2383,0.483054,0.12214,0.0505741,
2,0,0,0,0,51184,0.046693,0.0463623,-0.568127,77,0.691499,10,-2.63397e-05,-3.24555,0.565188,0.10439,0.0466122,
2,0,0,1,0,51184.8,0.0426979,0.042355,-0.558081,77,0.691037,10,-2.36375e-05,-3.2533,0.489258,0.120591,0.0426005,
2,0,0,1,0,51185.6,0.0387022,0.0383399,-0.548313,77,0.690582,10,-2.10223e-05,-3.26097,0.467633,0.126167,0.0385812,
2,0,0,1,0,51186.4,0.0347074,0.0343721,-0.538305,77,0.690136,10,-1.85027e-05,-3.26897,0.602218,0.0979712,0.034609,
2,0,0,1,0,51187.2,0.0307126,0.0303854,-0.528068,77,0.689697,10,-1.60456e-05,-3.27731,0.506901,0.116394,0.0306178,
2,0,0,0,0,51188,0.0267172,0.0263831,-0.521202,77,0.689266,10,-1.3751e-05,-3.28299,0.518072,0.113884,0.0266125,
2,0,0,1,0,51188.8,0.022722,0.0223568,-0.513016,77,0.688841,10,-1.14694e-05,-3.28987,0.93023,0.0634252,0.0225825,
2,0,0,0,0,51189.6,0.0187268,0.0183612,-0.506778,77,0.688422,10,-9.30504e-06,-3.29518,0.862439,0.0684106,0.0185841,
2,0,0,1,0,51190.4,0.0147313,0.0143906,-0.503943,77,0.688008,10,-7.25205e-06,-3.29762,0.927371,0.0636207,0.0146124,
2,0,0,1,0,51191.2,0.0107365,0.0103901,-0.499681,77,0.687596,10,-5.19174e-06,-3.30131,3.79706,0.0155383,0.01061,
2,0,0,1,0,51192,0.00674163,0.00642546,-0.497596,77,0.687186,10,-3.19729e-06,-3.30312,3.09668,0.0190527,0.00664441,
2,0,0,1,0,51192.8,0.00274612,0.00241159,-0.498224,77,0.686777,10,-1.20151e-06,-3.30258,-1.25995,-0.0468273,0.0026308,
2,0,0,0,0,51193.3,0.000274105,-5.8101e-05,-0.499278,77,0.686522,10,2.90085e-08,-3.30166, , ,0.000161581,