File: Figure_codes/Fig_3-5/workspace_calculate_alpha_eff/20221101_1-115_003_TrumpetPlot_ParaChange_from10_every3_16_CV_C01_24.csv
mode,ox/red,error,control changes,counter inc.,time/s,control/V,Ewe/V,<I>/mA,cycle number,(Q-Qo)/C,I Range,P/W,log(|I|),Tafel slope mV/dec,alpha_eff,E-IR/V,
2,0,0,1,0,16991.2,2.44065e-05,-0.000382585,-0.0472394,25,0.0000000E+000,10,1.80731e-08,-4.3257, , ,-0.0003618,
2,1,0,1,0,16991.9,0.00379485,0.00348048,0.215668,25,0.000151461,10,7.50629e-07,-3.66621,0.0589132,1.00147,0.00338558,
2,1,0,0,0,16992.7,0.00779002,0.007457,0.237165,25,0.000347671,10,1.76854e-06,-3.62495,0.11975,0.492691,0.00735265,
2,1,0,1,0,16993.5,0.0117852,0.0114664,0.252464,25,0.000559184,10,2.89485e-06,-3.5978,0.139086,0.424197,0.0113553,
2,1,0,1,0,16994.3,0.0157806,0.0154887,0.269797,25,0.000783441,10,4.17879e-06,-3.56896,0.168804,0.349517,0.01537,
2,1,0,1,0,16995.1,0.0197754,0.019467,0.284015,25,0.00101921,10,5.52892e-06,-3.54666,0.18109,0.325805,0.019342,
2,1,0,1,0,16995.9,0.0237704,0.0234603,0.298038,25,0.00126677,10,6.99206e-06,-3.52573,0.180342,0.327156,0.0233292,
2,1,0,0,0,16996.7,0.0277659,0.0274266,0.312229,25,0.00152522,10,8.56337e-06,-3.50553,0.199166,0.296235,0.0272892,
2,1,0,1,0,16997.5,0.0317611,0.0314413,0.325823,25,0.00179527,10,1.02443e-05,-3.48702,0.224542,0.262757,0.0312979,
2,1,0,1,0,16998.3,0.0357567,0.0354522,0.339933,25,0.00207687,10,1.20514e-05,-3.46861,0.269323,0.219068,0.0353027,
2,1,0,1,0,16999.1,0.0397516,0.039454,0.355746,25,0.00236937,10,1.40356e-05,-3.44886,0.198424,0.297343,0.0392974,
2,1,0,1,0,16999.9,0.0437465,0.0434291,0.367578,25,0.0026737,10,1.59636e-05,-3.43465,0.23425,0.251868,0.0432673,
2,1,0,1,0,17000.7,0.0477413,0.0474191,0.382292,25,0.00298862,10,1.81279e-05,-3.4176,0.277343,0.212733,0.0472509,
2,1,0,1,0,17001.5,0.0517369,0.0514257,0.394184,25,0.00331367,10,2.02712e-05,-3.4043,0.257181,0.22941,0.0512523,
2,1,0,0,0,17002.3,0.0557321,0.0553524,0.406506,25,0.0036493,10,2.25011e-05,-3.39093,0.396223,0.148906,0.0551735,
2,1,0,1,0,17003.1,0.0597277,0.0593982,0.417804,25,0.00399381,10,2.48168e-05,-3.37903,0.32647,0.180721,0.0592144,
2,1,0,1,0,17003.9,0.0637226,0.0634255,0.428051,25,0.00434726,10,2.71494e-05,-3.3685,0.399823,0.147565,0.0632371,
2,1,0,1,0,17004.7,0.0677174,0.0674111,0.439757,25,0.00470972,10,2.96445e-05,-3.35679,0.48904,0.120645,0.0672176,
2,1,0,1,0,17005.5,0.0717128,0.0713889,0.448003,25,0.00507917,10,3.19824e-05,-3.34872,0.388389,0.151909,0.0711918,
2,1,0,0,0,17006.3,0.075708,0.0753919,0.453946,25,0.00545565,10,3.42239e-05,-3.343,0.651609,0.0905451,0.0751922,
2,1,0,1,0,17007.1,0.0797031,0.0793451,0.464915,25,0.00583854,10,3.68887e-05,-3.33263,0.477087,0.123667,0.0791406,
2,1,0,1,0,17007.9,0.0836986,0.0833782,0.473327,25,0.00622815,10,3.94651e-05,-3.32484,0.413309,0.14275,0.08317,
2,1,0,1,0,17008.7,0.0876935,0.0873691,0.485431,25,0.00662605,10,4.24116e-05,-3.31387,0.360173,0.16381,0.0871555,
2,1,0,1,0,17009.5,0.0916883,0.0913858,0.50054,25,0.00703376,10,4.57422e-05,-3.30056,0.293602,0.200952,0.0911656,
2,1,0,0,0,17010.3,0.0956838,0.0953255,0.516994,25,0.00745523,10,4.92827e-05,-3.28651,0.212615,0.277497,0.095098,
2,1,0,1,0,17011.1,0.099679,0.0993794,0.540835,25,0.00789301,10,5.37479e-05,-3.26693,0.24264,0.243159,0.0991414,
2,1,0,0,0,17011.9,0.103674,0.103328,0.564507,25,0.00834915,10,5.83296e-05,-3.24833,0.194999,0.302566,0.10308,
2,1,0,1,0,17012.7,0.10767,0.107397,0.586724,25,0.00882518,10,6.30126e-05,-3.23157,0.256125,0.230356,0.107139,
2,1,0,1,0,17013.5,0.111664,0.111358,0.607674,25,0.00931814,10,6.76692e-05,-3.21633,0.27541,0.214226,0.11109,
2,1,0,1,0,17014.3,0.115659,0.115304,0.624341,25,0.00982578,10,7.19891e-05,-3.20458,0.325209,0.181422,0.11503,
2,1,0,1,0,17015.1,0.119655,0.119353,0.63858,25,0.0103468,10,7.62165e-05,-3.19478,0.52029,0.113398,0.119072,
2,1,0,0,0,17015.9,0.12365,0.123344,0.653679,25,0.0108787,10,8.06271e-05,-3.18464,0.392939,0.15015,0.123056,
2,1,0,1,0,17016.7,0.127646,0.127344,0.667337,25,0.011423,10,8.49813e-05,-3.17565,0.504,0.117063,0.12705,
2,1,0,1,0,17017.5,0.131641,0.131336,0.677756,25,0.0119772,10,8.90137e-05,-3.16893,-3.8537,-0.01531,0.131038,
2,1,0,1,0,17018.3,0.135635,0.135332,0.668605,25,0.0125312,10,9.0484e-05,-3.17483,-0.400639,-0.147265,0.135038,
2,1,0,1,0,17019.1,0.139631,0.139297,0.634593,25,0.0130699,10,8.83971e-05,-3.19751,-0.124483,-0.473959,0.139018,
2,1,0,0,0,17019.9,0.143626,0.143329,0.582417,25,0.0135732,10,8.34773e-05,-3.23477,-0.0899417,-0.655981,0.143073,
2,1,0,1,0,17020.7,0.147621,0.14736,0.517027,25,0.0140268,10,7.61889e-05,-3.28649,-0.0728649,-0.809718,0.147132,
2,1,0,1,0,17021.5,0.151617,0.151335,0.455073,25,0.0144297,10,6.88682e-05,-3.34192,-0.078112,-0.755326,0.151134,
2,1,0,1,0,17022.3,0.155612,0.155289,0.411365,25,0.0147893,10,6.38805e-05,-3.38577,-0.100141,-0.589168,0.155108,
2,1,0,1,0,17023.1,0.159606,0.159303,0.378672,25,0.0151189,10,6.03235e-05,-3.42174,-0.141837,-0.415971,0.159136,
2,1,0,0,0,17023.9,0.163602,0.163296,0.35719,25,0.0154278,10,5.83279e-05,-3.4471,-0.16214,-0.363883,0.163139,
2,1,0,1,0,17024.7,0.167597,0.167285,0.341644,25,0.0157214,10,5.71518e-05,-3.46643,-0.308671,-0.191142,0.167134,
2,1,0,0,0,17025.5,0.171592,0.171304,0.329913,25,0.0160051,10,5.65153e-05,-3.4816,-0.280731,-0.210166,0.171158,
2,1,0,1,0,17026.3,0.175588,0.175264,0.323732,25,0.0162805,10,5.67388e-05,-3.48981,-0.512249,-0.115178,0.175122,
2,1,0,1,0,17027.1,0.179582,0.179314,0.317216,25,0.0165498,10,5.68812e-05,-3.49865,-0.428219,-0.13778,0.179174,
2,1,0,1,0,17027.9,0.183577,0.183264,0.310842,25,0.0168147,10,5.69661e-05,-3.50746,-0.604284,-0.0976361,0.183127,
2,1,0,1,0,17028.7,0.187573,0.187271,0.307341,25,0.0170756,10,5.75561e-05,-3.51238,-0.825011,-0.0715142,0.187136,
2,1,0,0,0,17029.5,0.191568,0.191266,0.303525,25,0.0173335,10,5.80539e-05,-3.51781,-0.664356,-0.0888077,0.191132,
2,1,0,1,0,17030.3,0.195563,0.195227,0.300535,25,0.0175889,10,5.86726e-05,-3.52211,-0.631284,-0.0934603,0.195095,
2,1,0,1,0,17031.1,0.199559,0.199219,0.297279,25,0.0178417,10,5.92236e-05,-3.52684,-20.1519,-0.00292777,0.199088,
2,1,0,1,0,17031.9,0.203553,0.203244,0.294408,25,0.0180925,10,5.98366e-05,-3.53105,-1.24333,-0.0474531,0.203115,
2,1,0,1,0,17032.7,0.207548,0.207248,0.293875,25,0.0183417,10,6.09049e-05,-3.53184,-1.19393,-0.0494166,0.207118,
2,1,0,0,0,17033.5,0.211544,0.211268,0.292017,25,0.0185892,10,6.1694e-05,-3.53459,-1.49006,-0.0395958,0.21114,
2,1,0,1,0,17034.3,0.215539,0.215256,0.290108,25,0.0188353,10,6.24475e-05,-3.53744,-0.934946,-0.0631052,0.215129,
2,1,0,1,0,17035.1,0.219535,0.219248,0.289987,25,0.01908,10,6.3579e-05,-3.53762,5.90026,0.00999956,0.219121,
2,1,0,1,0,17035.9,0.223529,0.22323,0.28747,25,0.0193236,10,6.4172e-05,-3.54141,-1.57467,-0.0374683,0.223103,
2,1,0,1,0,17036.7,0.227524,0.227226,0.285497,25,0.0195663,10,6.48724e-05,-3.5444,-0.970854,-0.0607713,0.2271,
2,1,0,0,0,17037.5,0.23152,0.231236,0.284373,25,0.0198074,10,6.57572e-05,-3.54611,9.22044,0.00639883,0.231111,
2,1,0,1,0,17038.3,0.235515,0.235219,0.281823,25,0.0200478,10,6.629e-05,-3.55002,-2.07619,-0.0284175,0.235095,
2,1,0,0,0,17039.1,0.23951,0.239197,0.282673,25,0.020287,10,6.76145e-05,-3.54872,-1.76382,-0.0334502,0.239073,
2,1,0,1,0,17039.9,0.243506,0.243155,0.280461,25,0.0205253,10,6.81955e-05,-3.55213,-2.89208,-0.0204005,0.243032,
2,1,0,1,0,17040.7,0.2475,0.247202,0.279401,25,0.0207631,10,6.90686e-05,-3.55377,-1.05933,-0.0556957,0.247079,
2,1,0,1,0,17041.5,0.251495,0.251225,0.278913,25,0.0209997,10,7.007e-05,-3.55453,-15.1429,-0.00389623,0.251102,
2,1,0,1,0,17042.3,0.255491,0.255191,0.277425,25,0.0212355,10,7.07965e-05,-3.55685,-6.57156,-0.00897807,0.255069,
2,1,0,0,0,17043.1,0.259486,0.259214,0.276897,25,0.0214709,10,7.17757e-05,-3.55768,-1.29292,-0.0456332,0.259093,
2,1,0,1,0,17043.9,0.263481,0.263156,0.276444,25,0.0217055,10,7.2748e-05,-3.55839,19.2493,0.00306504,0.263034,
2,1,0,1,0,17044.7,0.267477,0.267161,0.275288,25,0.0219396,10,7.35462e-05,-3.56021,16.1069,0.00366303,0.26704,
2,1,0,1,0,17045.5,0.271471,0.271196,0.275712,25,0.0221728,10,7.47718e-05,-3.55955,-1.6356,-0.0360725,0.271074,
2,1,0,1,0,17046.2,0.275466,0.275184,0.274248,25,0.0224053,10,7.54686e-05,-3.56186,-1.38234,-0.0426812,0.275063,
2,1,0,0,0,17047,0.279462,0.279145,0.273422,25,0.0226371,10,7.63244e-05,-3.56317,-3.2567,-0.0181165,0.279025,
2,1,0,1,0,17047.8,0.283457,0.28318,0.271848,25,0.0228678,10,7.69819e-05,-3.56567,-2.84193,-0.0207605,0.28306,
2,1,0,0,0,17048.6,0.287452,0.287134,0.27086,25,0.023098,10,7.77732e-05,-3.56725,-7.2748,-0.00811018,0.287015,
2,1,0,1,0,17049.4,0.291448,0.291119,0.269789,25,0.0233276,10,7.85408e-05,-3.56898,-0.913926,-0.0645567,0.291,
2,1,0,1,0,17050.2,0.295442,0.295146,0.268903,25,0.0235565,10,7.93656e-05,-3.57041,1.07844,0.0547088,0.295028,
2,1,0,1,0,17051,0.299437,0.299115,0.267514,25,0.0237848,10,8.00174e-05,-3.57265,-1.26694,-0.046569,0.298997,
2,1,0,1,0,17051.8,0.303433,0.303138,0.267549,25,0.0240123,10,8.11042e-05,-3.5726,-1.79877,-0.0328002,0.30302,
2,1,0,0,0,17052.6,0.307428,0.307115,0.266681,25,0.024239,10,8.19017e-05,-3.57401,-7.67068,-0.00769162,0.306998,
2,1,0,1,0,17053.4,0.311424,0.311116,0.266563,25,0.0244651,10,8.29322e-05,-3.5742,-2.54581,-0.0231754,0.310999,
2,1,0,1,0,17054.2,0.315418,0.315097,0.265137,25,0.0246906,10,8.35437e-05,-3.57653,-5.89618,-0.0100065,0.31498,
2,1,0,1,0,17055,0.319413,0.319118,0.265452,25,0.0249154,10,8.47105e-05,-3.57601,-1.32443,-0.0445475,0.319001,
2,1,0,1,0,17055.8,0.323409,0.323116,0.263813,25,0.0251397,10,8.5242e-05,-3.5787,-3.1039,-0.0190083,0.323,
2,1,0,0,0,17056.6,0.327404,0.327136,0.262851,25,0.0253632,10,8.5988e-05,-3.58029,2.96671,0.0198873,0.32702,
2,1,0,1,0,17057.4,0.331399,0.331121,0.262043,25,0.0255863,10,8.67677e-05,-3.58163,-1.79182,-0.0329275,0.331005,
2,1,0,1,0,17058.2,0.335395,0.335102,0.262246,25,0.0258091,10,8.78789e-05,-3.58129,176.878,0.000333563,0.334986,
2,1,0,1,0,17059,0.339389,0.33909,0.261418,25,0.0260313,10,8.86441e-05,-3.58266,-1.89923,-0.0310652,0.338975,
2,1,0,1,0,17059.8,0.343384,0.343089,0.260357,25,0.026253,10,8.93258e-05,-3.58443,-2.19799,-0.0268427,0.342975,
2,1,0,0,0,17060.6,0.34738,0.347031,0.260849,25,0.0264739,10,9.05226e-05,-3.58361,-3.36735,-0.0175212,0.346916,
2,1,0,1,0,17061.4,0.351375,0.351032,0.258221,25,0.0266945,10,9.06437e-05,-3.58801,-20.1823,-0.00292336,0.350918,
2,1,0,0,0,17062.2,0.35537,0.355065,0.25809,25,0.0269145,10,9.16386e-05,-3.58823,-2.03891,-0.028937,0.354951,
2,1,0,1,0,17063,0.359366,0.359018,0.259058,25,0.027134,10,9.30066e-05,-3.5866,2.8237,0.0208945,0.358904,
2,1,0,1,0,17063.8,0.36336,0.363033,0.256964,25,0.0273532,10,9.32864e-05,-3.59013,-1.18565,-0.0497619,0.36292,
2,1,0,1,0,17064.6,0.367355,0.367048,0.257255,25,0.0275716,10,9.44248e-05,-3.58964,1.05734,0.0558002,0.366935,
2,1,0,1,0,17065.4,0.371351,0.371049,0.256425,25,0.0277897,10,9.51461e-05,-3.59104,-1.23951,-0.0475994,0.370936,
2,1,0,0,0,17066.2,0.375346,0.375041,0.256251,25,0.0280075,10,9.61045e-05,-3.59133,-2.67303,-0.0220723,0.374928,
2,1,0,1,0,17067,0.379342,0.379064,0.256417,25,0.0282248,10,9.71983e-05,-3.59105,-10.9376,-0.00539425,0.378951,
2,1,0,1,0,17067.8,0.383336,0.383037,0.254522,25,0.0284417,10,9.74913e-05,-3.59427,-2.32172,-0.0254122,0.382925,
2,1,0,1,0,17068.6,0.387331,0.387043,0.254737,25,0.0286583,10,9.85944e-05,-3.59391,-7.63354,-0.00772905,0.386931,
2,1,0,1,0,17069.4,0.391327,0.390989,0.255516,25,0.0288746,10,9.9904e-05,-3.59258,6.27072,0.00940881,0.390877,
2,1,0,0,0,17070.2,0.395322,0.395042,0.253135,25,0.0290904,10,9.99991e-05,-3.59665,-2.9999,-0.0196673,0.394931,
2,1,0,1,0,17071,0.399317,0.399039,0.253582,25,0.0293057,10,0.000101189,-3.59588,-5.4077,-0.0109104,0.398927,
2,1,0,1,0,17071.8,0.403313,0.403038,0.252461,25,0.0295206,10,0.000101751,-3.59781,-4.31972,-0.0136583,0.402927,
2,1,0,1,0,17072.6,0.407307,0.407079,0.252304,25,0.0297354,10,0.000102708,-3.59808,6.06107,0.00973426,0.406967,
2,1,0,1,0,17073.4,0.411302,0.411016,0.254256,25,0.0299496,10,0.000104503,-3.59473,-148.197,-0.000398119,0.410904,
2,1,0,0,0,17074.2,0.415298,0.415027,0.251857,25,0.0301639,10,0.000104528,-3.59885,-3.99709,-0.0147607,0.414917,
2,1,0,1,0,17075,0.419293,0.419006,0.251912,25,0.0303778,10,0.000105553,-3.59875,-2.48306,-0.023761,0.418895,
2,1,0,0,0,17075.8,0.423288,0.422985,0.252057,25,0.0305915,10,0.000106616,-3.5985,42.0627,0.00140267,0.422874,
2,1,0,1,0,17076.6,0.427283,0.426966,0.251305,25,0.0308051,10,0.000107298,-3.5998,-3.2962,-0.0178994,0.426855,
2,1,0,1,0,17077.4,0.431278,0.430976,0.251286,25,0.0310183,10,0.000108298,-3.59983,29.5044,0.0019997,0.430865,
2,1,0,1,0,17078.2,0.435273,0.43498,0.251086,25,0.0312314,10,0.000109217,-3.60018,6.45521,0.00913991,0.434869,
2,1,0,1,0,17079,0.439269,0.438971,0.252254,25,0.0314444,10,0.000110732,-3.59816,-3.2028,-0.0184214,0.43886,
2,1,0,0,0,17079.8,0.443264,0.442979,0.252339,25,0.0316574,10,0.000111781,-3.59802,4.98777,0.0118289,0.442868,
2,1,0,1,0,17080.6,0.447259,0.446919,0.252666,25,0.0318706,10,0.000112921,-3.59745,41.1524,0.0014337,0.446808,
2,1,0,1,0,17081.4,0.451254,0.45101,0.251528,25,0.0320838,10,0.000113442,-3.59941,-14.1448,-0.00417113,0.4509,
2,1,0,1,0,17082.2,0.455249,0.454969,0.252317,25,0.0322968,10,0.000114796,-3.59805,3.58559,0.0164547,0.454858,
2,1,0,1,0,17083,0.459244,0.458944,0.251507,25,0.03251,10,0.000115428,-3.59945,3.41678,0.0172677,0.458833,
2,1,0,0,0,17083.8,0.46324,0.462945,0.252622,25,0.0327235,10,0.00011695,-3.59753,2.33239,0.025296,0.462834,
2,1,0,1,0,17084.6,0.467235,0.466925,0.25266,25,0.0329372,10,0.000117973,-3.59746,-7.73739,-0.00762532,0.466814,
2,1,0,1,0,17085.4,0.471231,0.470931,0.25371,25,0.0331511,10,0.00011948,-3.59566,-6.57371,-0.00897514,0.47082,
2,1,0,1,0,17086.2,0.475225,0.474878,0.253424,25,0.0333652,10,0.000120346,-3.59615,-22.0329,-0.00267782,0.474767,
2,1,0,1,0,17087,0.47922,0.478883,0.253831,25,0.0335794,10,0.000121555,-3.59546,2.07627,0.0284163,0.478771,
2,1,0,0,0,17087.8,0.483216,0.482903,0.254131,25,0.0337941,10,0.00012272,-3.59494,3.01449,0.0195721,0.482791,
2,1,0,1,0,17088.6,0.487211,0.486899,0.255257,25,0.034009,10,0.000124284,-3.59302,8.85764,0.00666092,0.486786,
2,1,0,0,0,17089.4,0.491206,0.490886,0.254879,25,0.0342244,10,0.000125116,-3.59367,2.52337,0.0233815,0.490774,
2,1,0,1,0,17090.2,0.495201,0.494931,0.255952,25,0.0344404,10,0.000126679,-3.59184,3.0444,0.0193798,0.494819,
2,1,0,1,0,17091,0.499196,0.498882,0.256817,25,0.0346568,10,0.000128121,-3.59038,1.82337,0.0323576,0.498769,
2,1,0,1,0,17091.8,0.503191,0.50291,0.257951,25,0.0348739,10,0.000129726,-3.58846,3.66405,0.0161024,0.502797,
2,1,0,1,0,17092.6,0.507187,0.506857,0.257959,25,0.0350916,10,0.000130748,-3.58845,2.58881,0.0227904,0.506743,
2,1,0,0,0,17093.4,0.511182,0.510882,0.260102,25,0.0353102,10,0.000132882,-3.58486,3.59196,0.0164256,0.510767,
2,1,0,1,0,17094.2,0.515177,0.514866,0.260906,25,0.0355298,10,0.000134332,-3.58352,1.72374,0.0342279,0.514751,
2,1,0,1,0,17095,0.519173,0.518913,0.262761,25,0.0357503,10,0.00013635,-3.58044,1.271,0.0464202,0.518797,
2,1,0,1,0,17095.8,0.523167,0.522903,0.264007,25,0.0359723,10,0.00013805,-3.57839,2.26369,0.0260636,0.522787,
2,1,0,1,0,17096.6,0.527162,0.526867,0.265123,25,0.0361953,10,0.000139685,-3.57655,1.02237,0.0577088,0.52675,
2,1,0,0,0,17097.4,0.531158,0.530892,0.267015,25,0.0364193,10,0.000141756,-3.57346,2.58052,0.0228636,0.530774,
2,1,0,1,0,17098.2,0.535153,0.534861,0.269107,25,0.0366448,10,0.000143935,-3.57008,0.963409,0.0612408,0.534742,
2,1,0,0,0,17099,0.539148,0.538881,0.272154,25,0.0368719,10,0.000146658,-3.56519,1.37293,0.0429739,0.538761,
2,1,0,1,0,17099.8,0.543143,0.542873,0.27369,25,0.0371006,10,0.000148579,-3.56274,1.07417,0.0549262,0.542753,
2,1,0,1,0,17100.6,0.547138,0.546845,0.275238,25,0.037331,10,0.000150512,-3.56029,1.85793,0.0317557,0.546724,
2,1,0,1,0,17101.4,0.551133,0.550858,0.278081,25,0.037563,10,0.000153183,-3.55583,0.677061,0.0871413,0.550735,
2,1,0,1,0,17102.2,0.555129,0.554871,0.280558,25,0.0377975,10,0.000155674,-3.55198,1.42404,0.0414314,0.554747,
2,1,0,0,0,17103,0.559124,0.558822,0.284058,25,0.0380341,10,0.000158738,-3.54659,0.622458,0.0947856,0.558697,
2,1,0,1,0,17103.8,0.56312,0.56281,0.287366,25,0.0382731,10,0.000161732,-3.54156,0.948244,0.0622202,0.562684,
2,1,0,1,0,17104.6,0.567114,0.566796,0.292063,25,0.0385152,10,0.00016554,-3.53452,0.480205,0.122864,0.566668,
2,1,0,1,0,17105.4,0.571109,0.570819,0.296895,25,0.0387603,10,0.000169474,-3.5274,0.714799,0.0825407,0.570688,
2,1,0,1,0,17106.2,0.575105,0.574822,0.29991,25,0.039009,10,0.000172395,-3.52301,0.534449,0.110394,0.57469,
2,1,0,0,0,17107,0.5791,0.578809,0.305297,25,0.0392619,10,0.000176709,-3.51528,0.78484,0.0751746,0.578675,
2,1,0,1,0,17107.8,0.583095,0.582818,0.31148,25,0.0395189,10,0.000181536,-3.50657,0.37536,0.157182,0.582681,
2,1,0,1,0,17108.6,0.58709,0.586783,0.317078,25,0.0397811,10,0.000186056,-3.49883,0.404573,0.145833,0.586643,
2,1,0,1,0,17109.4,0.591085,0.590829,0.326988,25,0.0400487,10,0.000193194,-3.48547,0.380641,0.155002,0.590685,
2,1,0,1,0,17110.2,0.59508,0.594818,0.334887,25,0.0403229,10,0.000199197,-3.4751,0.312979,0.188511,0.594671,
2,1,0,0,0,17111,0.599076,0.598803,0.344796,25,0.0406047,10,0.000206465,-3.46244,0.302404,0.195103,0.598652,
2,1,0,1,0,17111.8,0.603071,0.602799,0.35576,25,0.0408944,10,0.000214452,-3.44884,0.310138,0.190238,0.602642,
2,1,0,0,0,17112.6,0.607066,0.606777,0.368026,25,0.0411937,10,0.00022331,-3.43412,0.23936,0.24649,0.606616,
2,1,0,1,0,17113.4,0.611061,0.610794,0.382716,25,0.041504,10,0.000233761,-3.41712,0.217633,0.271099,0.610625,
2,1,0,1,0,17114.2,0.615056,0.614794,0.399472,25,0.0418275,10,0.000245593,-3.39851,0.197078,0.299374,0.614619,
2,1,0,1,0,17115,0.619051,0.6188,0.420169,25,0.0421665,10,0.000260001,-3.37658,0.169936,0.34719,0.618615,
2,1,0,1,0,17115.8,0.623047,0.622778,0.444453,25,0.0425226,10,0.000276796,-3.35217,0.164442,0.35879,0.622582,
2,1,0,0,0,17116.6,0.627042,0.626788,0.470987,25,0.0428985,10,0.000295209,-3.32699,0.141066,0.418244,0.626581,
2,1,0,1,0,17117.4,0.631037,0.630768,0.503086,25,0.0432986,10,0.000317331,-3.29836,0.13632,0.432804,0.630547,
2,1,0,1,0,17118.2,0.635032,0.634768,0.540667,25,0.0437262,10,0.000343198,-3.26707,0.1221,0.483209,0.63453,
2,1,0,1,0,17119,0.639027,0.63876,0.584136,25,0.0441857,10,0.000373123,-3.23349,0.113532,0.519676,0.638503,
2,1,0,1,0,17119.8,0.643022,0.642719,0.637043,25,0.0446836,10,0.000409439,-3.19583,0.102766,0.574121,0.642438,
2,1,0,0,0,17120.6,0.647018,0.646742,0.697692,25,0.0452274,10,0.000451227,-3.15634,0.0943194,0.625534,0.646435,
2,1,0,1,0,17121.4,0.651013,0.65074,0.770062,25,0.0458244,10,0.00050111,-3.11347,0.0907167,0.650377,0.650401,
2,1,0,1,0,17122.2,0.655008,0.654734,0.856145,25,0.0464845,10,0.000560547,-3.06745,0.0838293,0.703811,0.654357,
2,1,0,1,0,17123,0.659003,0.65873,0.955522,25,0.0472182,10,0.000629431,-3.01976,0.0800307,0.737217,0.65831,
2,1,0,1,0,17123.8,0.662998,0.662719,1.07112,25,0.0480376,10,0.000709849,-2.97016,0.0788153,0.748586,0.662248,
2,1,0,0,0,17124.6,0.666994,0.666699,1.20606,25,0.0489567,10,0.000804082,-2.91863,0.0752129,0.78444,0.666168,
2,1,0,1,0,17125.4,0.670989,0.67067,1.36189,25,0.0499922,10,0.00091338,-2.86586,0.0744,0.793011,0.670071,
2,1,0,0,0,17126.2,0.674984,0.6747,1.54038,25,0.0511615,10,0.00103929,-2.81237,0.0721672,0.817546,0.674022,
2,1,0,1,0,17127,0.67898,0.678689,1.7448,25,0.0524831,10,0.00118418,-2.75825,0.0711936,0.828726,0.677922,
2,1,0,1,0,17127.8,0.682974,0.682734,1.97709,25,0.0539801,10,0.00134983,-2.70397,0.0721638,0.817584,0.681865,
2,1,0,1,0,17128.6,0.686969,0.686671,2.2394,25,0.0556738,10,0.00153773,-2.64987,0.0730163,0.808038,0.685685,
2,1,0,1,0,17129.3,0.690965,0.690698,2.53115,25,0.0575895,10,0.00174826,-2.59668,0.072222,0.816925,0.689584,
2,1,0,0,0,17130.1,0.69496,0.694697,2.85765,25,0.0597517,10,0.0019852,-2.54399,0.0746721,0.790121,0.69344,
2,1,0,1,0,17130.9,0.698955,0.698706,3.21446,25,0.0621862,10,0.00224597,-2.49289,0.0746896,0.789936,0.697292,
2,1,0,1,0,17131.7,0.70295,0.702646,3.60667,25,0.0649208,10,0.00253421,-2.44289,0.0768059,0.768171,0.701059,
2,1,0,1,0,17132.5,0.706945,0.706658,4.03291,25,0.0679824,10,0.00284989,-2.39438,0.0803922,0.733902,0.704884,
2,1,0,1,0,17133.3,0.71094,0.710646,4.49196,25,0.0713979,10,0.00319219,-2.34756,0.0813675,0.725106,0.708669,
2,1,0,0,0,17134.1,0.714936,0.714632,4.98537,25,0.0751948,10,0.0035627,-2.3023,0.0863529,0.683243,0.712438,
2,1,0,1,0,17134.9,0.718931,0.718676,5.51279,25,0.0793988,10,0.00396191,-2.25863,0.0875284,0.674067,0.71625,
2,1,0,1,0,17135.7,0.722927,0.722633,6.07205,25,0.0840379,10,0.00438787,-2.21666,0.091243,0.646625,0.719961,
2,1,0,1,0,17136.5,0.726921,0.726644,6.6647,25,0.0891363,10,0.00484286,-2.17622,0.0939785,0.627803,0.723711,
2,1,0,1,0,17137.3,0.730916,0.730615,7.28792,25,0.0947197,10,0.00532467,-2.1374,0.0977175,0.603781,0.727408,
2,1,0,1,0,17138.1,0.734911,0.73464,7.94201,25,0.100814,10,0.00583452,-2.10007,0.100906,0.5847,0.731145,
2,1,0,1,0,17138.9,0.738907,0.738659,8.62796,25,0.107445,10,0.00637312,-2.06409,0.103666,0.569134,0.734863,
2,1,0,0,0,17139.7,0.742902,0.742646,9.34277,25,0.114633,10,0.00693837,-2.02952,0.10896,0.541482,0.738536,
2,1,0,1,0,17140.5,0.746897,0.746673,10.0894,25,0.122407,10,0.00753349,-1.99613,0.111095,0.531077,0.742234,
2,1,0,1,0,17141.3,0.750892,0.750629,10.8649,25,0.130788,10,0.00815548,-1.96398,0.11501,0.512998,0.745848,
2,1,0,1,0,17142.1,0.754887,0.754578,11.6771,25,0.139805,10,0.00881127,-1.93267,0.118237,0.498997,0.74944,
2,1,0,1,0,17142.9,0.758883,0.75861,12.5269,25,0.149484,10,0.00950303,-1.90216,0.119301,0.494548,0.753098,
2,1,0,0,0,17143.7,0.762878,0.762649,13.4296,25,0.159862,10,0.0102421,-1.87194,0.118603,0.497459,0.75674,
2,1,0,1,0,17144.5,0.766873,0.76659,14.3851,25,0.170984,10,0.0110275,-1.84209,0.119627,0.4932,0.760261,
2,1,0,1,0,17145.3,0.770868,0.770599,15.4021,25,0.182895,10,0.0118688,-1.81242,0.119982,0.491739,0.763822,
2,1,0,1,0,17146.1,0.774863,0.774594,16.4799,25,0.195641,10,0.0127652,-1.78305,0.120232,0.490717,0.767343,
2,1,0,1,0,17146.9,0.778858,0.778587,17.6187,25,0.209272,10,0.0137177,-1.75403,0.120414,0.489977,0.770835,
2,1,0,0,0,17147.7,0.782854,0.782587,18.8327,25,0.223842,10,0.0147382,-1.72509,0.121935,0.483865,0.7743,
2,1,0,1,0,17148.5,0.786849,0.786581,19.9995,25,0.239379,10,0.0157312,-1.69898,0.13604,0.433696,0.777781,
2,1,0,0,0,17149.3,0.790844,0.790618,21.2931,25,0.255875,10,0.0168347,-1.67176,0.125246,0.471072,0.781249,
2,1,0,1,0,17150.1,0.794839,0.794572,22.6638,25,0.273441,10,0.018008,-1.64467,0.123889,0.476233,0.784599,
2,1,0,1,0,17150.9,0.798834,0.798599,24.0804,25,0.292128,10,0.0192306,-1.61834,0.127341,0.463323,0.788004,
2,1,0,1,0,17151.7,0.802829,0.802575,25.5609,25,0.311975,10,0.0205146,-1.59242,0.134411,0.438954,0.791328,
2,1,0,1,0,17152.5,0.806825,0.806589,27.044,25,0.33301,10,0.0218134,-1.56793,0.137851,0.427997,0.794689,
2,1,0,0,0,17153.3,0.81082,0.810587,28.554,25,0.355236,10,0.0231455,-1.54433,0.143561,0.410976,0.798023,
2,1,0,1,0,17154.1,0.814815,0.814573,30.1538,25,0.378694,10,0.0245624,-1.52066,0.135547,0.435275,0.801306,
2,1,0,1,0,17154.9,0.81881,0.818533,31.7938,25,0.403471,10,0.0260243,-1.49766,0.148134,0.398287,0.804544,
2,1,0,1,0,17155.7,0.822805,0.82257,33.4022,25,0.429536,10,0.0274757,-1.47622,0.163953,0.359859,0.807873,
2,1,0,1,0,17156.5,0.826801,0.826591,34.9856,25,0.456873,10,0.0289188,-1.45611,0.161356,0.365652,0.811198,
2,1,0,0,0,17157.3,0.830796,0.830538,36.6277,25,0.485499,10,0.0304207,-1.43619,0.175774,0.335659,0.814422,
2,1,0,1,0,17158.1,0.834791,0.834571,38.2322,25,0.515405,10,0.0319075,-1.41757,0.17119,0.344645,0.817749,
2,1,0,1,0,17158.9,0.838786,0.838503,39.8672,25,0.54664,10,0.0334288,-1.39938,0.183677,0.321216,0.820961,
2,1,0,1,0,17159.7,0.842781,0.842537,41.4538,25,0.579159,10,0.0349264,-1.38244,0.208959,0.282351,0.824297,
2,1,0,1,0,17160.5,0.846776,0.846529,43.0498,25,0.612923,10,0.0364429,-1.36603,0.20089,0.293693,0.827587,
2,1,0,1,0,17161.2,0.849723,0.849487,44.1146,25,0.643537,10,0.0374747,-1.35542,0.0539181,1.09425,0.830076,
2,1,0,0,0,17162,0.845728,0.845494,41.7441,25,0.677733,10,0.0352944,-1.37941,0.0448959,1.31415,0.827127,
2,1,0,1,0,17162.8,0.841732,0.841503,37.6947,25,0.708677,10,0.0317202,-1.42372,0.174838,0.337456,0.824917,
2,1,0,1,0,17163.6,0.837737,0.83754,35.9367,25,0.738086,10,0.0300984,-1.44446,0.159003,0.371063,0.821728,
2,1,0,1,0,17164.4,0.833742,0.833473,34.2525,25,0.766114,10,0.0285485,-1.46531,0.147672,0.399535,0.818402,
2,1,0,1,0,17165.2,0.829747,0.8295,32.5763,25,0.792789,10,0.0270221,-1.4871,0.151589,0.38921,0.815167,
2,1,0,0,0,17166,0.825752,0.825527,30.9339,25,0.81815,10,0.0255368,-1.50956,0.142267,0.414713,0.811916,
2,1,0,1,0,17166.8,0.821757,0.821546,29.3589,25,0.842218,10,0.0241196,-1.53226,0.141048,0.418296,0.808628,
2,1,0,1,0,17167.6,0.817761,0.817487,27.7563,25,0.865019,10,0.0226904,-1.55664,0.141209,0.41782,0.805275,
2,1,0,1,0,17168.4,0.813766,0.8135,26.3565,25,0.886603,10,0.021441,-1.57911,0.145669,0.405029,0.801904,
2,1,0,1,0,17169.2,0.809771,0.809503,24.8726,25,0.907062,10,0.0201345,-1.60428,0.129573,0.455341,0.798559,
2,1,0,1,0,17170,0.805776,0.80548,23.3891,25,0.92633,10,0.0188394,-1.63099,0.122135,0.483071,0.795189,
2,1,0,1,0,17170.8,0.801781,0.801494,21.9558,25,0.944429,10,0.0175975,-1.65845,0.121996,0.483624,0.791833,
2,1,0,0,0,17171.6,0.797786,0.797509,20.59,25,0.961409,10,0.0164207,-1.68634,0.120715,0.488754,0.788449,
2,1,0,1,0,17172.4,0.79379,0.793508,19.2481,25,0.977314,10,0.0152735,-1.71561,0.111723,0.52809,0.785039,
2,1,0,1,0,17173.2,0.789795,0.789519,17.9625,25,0.992159,10,0.0141817,-1.74563,0.115296,0.511728,0.781616,
2,1,0,1,0,17174,0.7858,0.785494,16.7569,25,1.00601,10,0.0131625,-1.77581,0.1148,0.513936,0.778121,
2,1,0,1,0,17174.8,0.781805,0.781503,15.6063,25,1.01893,10,0.0121963,-1.8067,0.112523,0.524335,0.774636,
2,1,0,0,0,17175.6,0.77781,0.777501,14.5159,25,1.03094,10,0.0112861,-1.83816,0.111322,0.529994,0.771114,
2,1,0,1,0,17176.4,0.773815,0.773539,13.4703,25,1.04211,10,0.0104198,-1.87062,0.106523,0.553872,0.767612,
2,1,0,1,0,17177.2,0.769819,0.769527,12.4752,25,1.05246,10,0.00959999,-1.90395,0.104923,0.562318,0.764038,
2,1,0,1,0,17178,0.765824,0.76556,11.521,25,1.06203,10,0.00882001,-1.93851,0.10327,0.57132,0.76049,
2,1,0,1,0,17178.8,0.761829,0.761541,10.6139,25,1.07086,10,0.00808291,-1.97413,0.100286,0.588315,0.756871,
2,1,0,0,0,17179.6,0.757834,0.757547,9.76813,25,1.07899,10,0.00739982,-2.01019,0.100767,0.585509,0.753249,
2,1,0,1,0,17180.4,0.753839,0.753551,8.97002,25,1.08646,10,0.00675936,-2.04721,0.096284,0.612771,0.749604,
2,1,0,0,0,17181.2,0.749844,0.749538,8.22121,25,1.09331,10,0.00616211,-2.08506,0.096439,0.611786,0.745921,
2,1,0,1,0,17182,0.745848,0.745543,7.51684,25,1.09959,10,0.00560413,-2.12396,0.0938225,0.628847,0.742236,
2,1,0,1,0,17182.8,0.741853,0.74158,6.85488,25,1.10531,10,0.00508344,-2.164,0.0904695,0.652154,0.738563,
2,1,0,1,0,17183.6,0.737858,0.737556,6.22887,25,1.11053,10,0.00459414,-2.20559,0.0887916,0.664477,0.734815,
2,1,0,1,0,17184.4,0.733863,0.73361,5.64461,25,1.11526,10,0.00414094,-2.24837,0.0859006,0.686841,0.731126,
2,1,0,0,0,17185.2,0.729868,0.729597,5.09818,25,1.11954,10,0.00371962,-2.29258,0.0835488,0.706174,0.727354,
2,1,0,1,0,17186,0.725872,0.725549,4.58977,25,1.12339,10,0.0033301,-2.33821,0.0816453,0.722638,0.723529,
2,1,0,1,0,17186.8,0.721877,0.72161,4.11785,25,1.12686,10,0.00297148,-2.38533,0.0793918,0.74315,0.719798,
2,1,0,1,0,17187.6,0.717882,0.717612,3.67886,25,1.12996,10,0.00264,-2.43429,0.0756606,0.779798,0.715994,
2,1,0,1,0,17188.4,0.713887,0.713615,3.27342,25,1.13272,10,0.00233596,-2.485,0.0739568,0.797763,0.712174,
2,1,0,0,0,17189.2,0.709892,0.709662,2.9006,25,1.13518,10,0.00205845,-2.53751,0.0720419,0.818968,0.708386,
2,1,0,1,0,17190,0.705897,0.705641,2.55748,25,1.13735,10,0.00180466,-2.59219,0.0695288,0.848569,0.704516,
2,1,0,1,0,17190.8,0.701901,0.701617,2.24562,25,1.13925,10,0.00157557,-2.64866,0.0649598,0.908255,0.700629,
2,1,0,1,0,17191.6,0.697906,0.697656,1.95881,25,1.14092,10,0.00136657,-2.70801,0.0659928,0.894037,0.696794,
2,1,0,1,0,17192.4,0.693911,0.693661,1.70058,25,1.14237,10,0.00117963,-2.7694,0.0619684,0.952099,0.692913,
2,1,0,0,0,17193.2,0.689916,0.689667,1.46954,25,1.14362,10,0.00101349,-2.83282,0.0605542,0.974334,0.689021,
2,1,0,1,0,17194,0.685921,0.685629,1.26192,25,1.1447,10,0.00086521,-2.89897,0.0577859,1.02101,0.685074,
2,1,0,0,0,17194.8,0.681926,0.681641,1.07628,25,1.14562,10,0.000733639,-2.96807,0.0554915,1.06323,0.681168,
2,1,0,1,0,17195.6,0.67793,0.677654,0.912947,25,1.14641,10,0.000618662,-3.03955,0.0534265,1.10432,0.677252,
2,1,0,1,0,17196.4,0.673935,0.673656,0.768354,25,1.14707,10,0.000517606,-3.11444,0.0514264,1.14727,0.673318,
2,1,0,1,0,17197.2,0.66994,0.669673,0.641933,25,1.14762,10,0.000429885,-3.19251,0.0483957,1.21912,0.66939,
2,1,0,1,0,17198,0.665945,0.665647,0.531762,25,1.14807,10,0.000353965,-3.27428,0.0490529,1.20278,0.665413,
2,1,0,0,0,17198.8,0.66195,0.661653,0.437817,25,1.14845,10,0.000289683,-3.35871,0.0446114,1.32253,0.66146,
2,1,0,1,0,17199.6,0.657955,0.657638,0.354372,25,1.14876,10,0.000233048,-3.45054,0.0427843,1.37901,0.657482,
2,1,0,1,0,17200.4,0.653959,0.65371,0.284883,25,1.149,10,0.000186231,-3.54533,0.040278,1.46482,0.653584,
2,1,0,1,0,17201.2,0.649964,0.649649,0.225314,25,1.14919,10,0.000146375,-3.64721,0.0369976,1.5947,0.64955,
2,1,0,1,0,17202,0.64597,0.645692,0.176296,25,1.14934,10,0.000113833,-3.75376,0.0356863,1.65329,0.645614,
2,1,0,0,0,17202.8,0.641974,0.641705,0.132653,25,1.14945,10,8.51242e-05,-3.87728,0.0304757,1.93597,0.641647,
2,1,0,1,0,17203.6,0.637979,0.637703,0.0972443,25,1.14953,10,6.2013e-05,-4.01214,0.027134,2.17439,0.63766,
2,1,0,1,0,17204.4,0.633983,0.633707,0.0659866,25,1.14959,10,4.18162e-05,-4.18054,0.0220328,2.67783,0.633678,
2,1,0,1,0,17205.2,0.629988,0.62967,0.0411148,25,1.14962,10,2.58887e-05,-4.386,0.0163999,3.59757,0.629651,
2,1,0,1,0,17206,0.625993,0.625684,0.0201813,25,1.14963,10,1.26271e-05,-4.69505,0.00820532,7.19046,0.625675,
2,1,0,0,0,17206.8,0.621998,0.62172,0.00175859,25,1.14963,10,1.09335e-06,-5.75484,0.0163183,3.61556,0.621719,
2,0,0,1,0,17207.6,0.618003,0.617751,-0.0121355,25,1.14962,10,-7.49669e-06,-4.91594,-0.00715951,-8.24079,0.617756,
2,0,0,0,0,17208.4,0.614008,0.613751,-0.025342,25,1.14959,10,-1.55537e-05,-4.59616,-0.0234827,-2.51248,0.613762,
2,0,0,1,0,17209.2,0.610012,0.609767,-0.0352262,25,1.14956,10,-2.14798e-05,-4.45313,-0.0352713,-1.67275,0.609782,
2,0,0,1,0,17210,0.606017,0.605742,-0.0437619,25,1.14952,10,-2.65084e-05,-4.3589,-0.0482237,-1.22346,0.605761,
2,0,0,1,0,17210.8,0.602022,0.60178,-0.0504947,25,1.14947,10,-3.03867e-05,-4.29675,-0.0823519,-0.716438,0.601802,
2,0,0,1,0,17211.6,0.598027,0.597759,-0.0571863,25,1.14942,10,-3.41836e-05,-4.24271,-0.080967,-0.728692,0.597784,
2,0,0,0,0,17212.3,0.594032,0.593705,-0.0629886,25,1.14936,10,-3.73966e-05,-4.20074,-0.1039,-0.567853,0.593733,
2,0,0,1,0,17213.1,0.590037,0.589738,-0.066556,25,1.14929,10,-3.92506e-05,-4.17681,-0.123863,-0.476331,0.589767,
2,0,0,1,0,17213.9,0.586041,0.58575,-0.0708122,25,1.14923,10,-4.14783e-05,-4.14989,-0.260817,-0.226212,0.585782,
2,0,0,1,0,17214.7,0.582046,0.581701,-0.0743595,25,1.14916,10,-4.3255e-05,-4.12866,-0.315891,-0.186773,0.581734,
2,0,0,1,0,17215.5,0.578052,0.577749,-0.0772016,25,1.14909,10,-4.46031e-05,-4.11237,-0.179872,-0.328011,0.577783,
2,0,0,0,0,17216.3,0.574056,0.573754,-0.0789821,25,1.14902,10,-4.53163e-05,-4.10247,-0.360954,-0.163456,0.573789,
2,0,0,1,0,17217.1,0.570061,0.56975,-0.0813879,25,1.14894,10,-4.63708e-05,-4.08944,-0.724996,-0.0813797,0.569786,
2,0,0,1,0,17217.9,0.566065,0.565766,-0.0831319,25,1.14886,10,-4.70332e-05,-4.08023,-0.268379,-0.219838,0.565802,
2,0,0,1,0,17218.7,0.56207,0.561732,-0.0858794,25,1.14879,10,-4.82412e-05,-4.06611,-0.769299,-0.0766932,0.56177,
2,0,0,1,0,17219.5,0.558075,0.557801,-0.086742,25,1.14871,10,-4.83847e-05,-4.06177,-0.25033,-0.235689,0.557839,
2,0,0,1,0,17220.3,0.55408,0.553783,-0.0879645,25,1.14862,10,-4.87132e-05,-4.05569,-0.445003,-0.132583,0.553822,
2,0,0,1,0,17221.1,0.550085,0.549797,-0.0899979,25,1.14854,10,-4.94805e-05,-4.04577,-0.773986,-0.0762288,0.549836,
2,0,0,0,0,17221.9,0.54609,0.545799,-0.0911094,25,1.14846,10,-4.97274e-05,-4.04044,-1.32748,-0.0444452,0.545839,
2,0,0,1,0,17222.7,0.542094,0.541788,-0.0919589,25,1.14837,10,-4.98222e-05,-4.03641,-0.629581,-0.0937131,0.541829,
2,0,0,1,0,17223.5,0.538099,0.537826,-0.0942551,25,1.14829,10,-5.06928e-05,-4.0257,0.805387,0.0732567,0.537867,
2,0,0,1,0,17224.3,0.534104,0.53382,-0.0958448,25,1.1482,10,-5.11639e-05,-4.01843,-0.244563,-0.241246,0.533862,
2,0,0,1,0,17225.1,0.530109,0.529821,-0.0959165,25,1.14812,10,-5.08185e-05,-4.01811,-0.886474,-0.0665558,0.529863,
2,0,0,0,0,17225.9,0.526114,0.525756,-0.0978305,25,1.14803,10,-5.1435e-05,-4.00953,-0.976475,-0.0604214,0.525799,
2,0,0,1,0,17226.7,0.522119,0.521834,-0.0980763,25,1.14794,10,-5.11795e-05,-4.00844,-0.586426,-0.100609,0.521877,
2,0,0,1,0,17227.5,0.518123,0.517822,-0.100056,25,1.14785,10,-5.18114e-05,-3.99976,-2.44921,-0.0240894,0.517866,
2,0,0,1,0,17228.3,0.514128,0.51383,-0.100052,25,1.14776,10,-5.14098e-05,-3.99977,-0.860626,-0.0685547,0.513874,
2,0,0,1,0,17229.1,0.510133,0.509807,-0.101105,25,1.14767,10,-5.15439e-05,-3.99523,-0.442297,-0.133395,0.509851,
2,0,0,0,0,17229.9,0.506138,0.505824,-0.102486,25,1.14757,10,-5.18398e-05,-3.98934,1.53174,0.0385184,0.505869,
2,0,0,1,0,17230.7,0.502143,0.501854,-0.104004,25,1.14748,10,-5.21947e-05,-3.98295,-0.415684,-0.141935,0.501899,
2,0,0,0,0,17231.5,0.498148,0.497826,-0.105777,25,1.14739,10,-5.26588e-05,-3.97561,-0.845433,-0.0697867,0.497873,
2,0,0,1,0,17232.3,0.494152,0.493837,-0.10588,25,1.14729,10,-5.22876e-05,-3.97518,-0.474901,-0.124237,0.493883,
2,0,0,1,0,17233.1,0.490157,0.48987,-0.107569,25,1.14719,10,-5.2695e-05,-3.96831,-1.40065,-0.0421232,0.489917,
2,0,0,1,0,17233.9,0.486162,0.485848,-0.109007,25,1.1471,10,-5.2961e-05,-3.96254,-0.909136,-0.0648968,0.485896,
2,0,0,1,0,17234.7,0.482167,0.481822,-0.109663,25,1.147,10,-5.28382e-05,-3.95994,-0.626134,-0.094229,0.481871,
2,0,0,0,0,17235.5,0.478172,0.47785,-0.111716,25,1.1469,10,-5.33834e-05,-3.95189,-0.860148,-0.0685928,0.477899,
2,0,0,1,0,17236.3,0.474177,0.473838,-0.113245,25,1.1468,10,-5.36595e-05,-3.94598,-14.2513,-0.00413998,0.473887,
2,0,0,1,0,17237.1,0.470181,0.469877,-0.113759,25,1.14669,10,-5.34525e-05,-3.94402,-0.416968,-0.141498,0.469927,
2,0,0,1,0,17237.9,0.466186,0.465897,-0.116576,25,1.14659,10,-5.43125e-05,-3.93339,-0.457712,-0.128902,0.465948,
2,0,0,1,0,17238.7,0.462191,0.461839,-0.118621,25,1.14649,10,-5.47836e-05,-3.92584,-0.58351,-0.101112,0.461891,
2,0,0,0,0,17239.5,0.458196,0.457865,-0.1185,25,1.14638,10,-5.4257e-05,-3.92628,-1.41805,-0.0416065,0.457917,
2,0,0,1,0,17240.3,0.454201,0.453896,-0.120508,25,1.14627,10,-5.46982e-05,-3.91898,-0.803272,-0.0734496,0.453949,
2,0,0,1,0,17241.1,0.450205,0.449911,-0.121981,25,1.14617,10,-5.48808e-05,-3.91371,-0.614594,-0.0959983,0.449965,
2,0,0,1,0,17241.9,0.44621,0.445936,-0.122813,25,1.14606,10,-5.47666e-05,-3.91076,-0.528622,-0.111611,0.44599,
2,0,0,1,0,17242.7,0.442215,0.441959,-0.125034,25,1.14595,10,-5.52597e-05,-3.90297,-4.45458,-0.0132448,0.442014,
2,0,0,0,0,17243.5,0.43822,0.437903,-0.126761,25,1.14583,10,-5.5509e-05,-3.89701,-0.459859,-0.1283,0.437958,
2,0,0,1,0,17244.3,0.434225,0.433937,-0.128783,25,1.14572,10,-5.58835e-05,-3.89014,-0.924614,-0.0638104,0.433993,
2,0,0,0,0,17245.1,0.43023,0.429943,-0.130314,25,1.1456,10,-5.60275e-05,-3.88501,-0.486874,-0.121181,0.43,
2,0,0,1,0,17245.9,0.426234,0.425924,-0.132442,25,1.14549,10,-5.641e-05,-3.87798,-0.726752,-0.0811831,0.425982,
2,0,0,1,0,17246.7,0.422239,0.42195,-0.133849,25,1.14537,10,-5.64775e-05,-3.87339,-0.787463,-0.0749242,0.422009,
2,0,0,1,0,17247.5,0.418244,0.417997,-0.136308,25,1.14525,10,-5.69763e-05,-3.86548,-0.521165,-0.113208,0.418057,
2,0,0,1,0,17248.3,0.414249,0.413956,-0.137898,25,1.14513,10,-5.70836e-05,-3.86044,-0.532747,-0.110747,0.414017,
2,0,0,0,0,17249.1,0.410254,0.409981,-0.140752,25,1.14501,10,-5.77058e-05,-3.85154,14.7067,0.00401178,0.410043,
2,0,0,1,0,17249.9,0.406259,0.40593,-0.141715,25,1.14488,10,-5.75266e-05,-3.84858,-0.457687,-0.128909,0.405993,
2,0,0,1,0,17250.7,0.402263,0.401945,-0.144364,25,1.14476,10,-5.80262e-05,-3.84054,-0.496383,-0.11886,0.402008,
2,0,0,1,0,17251.5,0.398268,0.397983,-0.146898,25,1.14463,10,-5.8463e-05,-3.83298,-0.523815,-0.112635,0.398048,
2,0,0,1,0,17252.3,0.394274,0.393957,-0.148363,25,1.1445,10,-5.84485e-05,-3.82868,-0.783649,-0.0752888,0.394022,
2,0,0,0,0,17253.1,0.390278,0.389956,-0.150742,25,1.14437,10,-5.87827e-05,-3.82177,-0.754377,-0.0782102,0.390023,
2,0,0,1,0,17253.9,0.386283,0.385977,-0.152682,25,1.14423,10,-5.89318e-05,-3.81621,-0.55309,-0.106673,0.386044,
2,0,0,1,0,17254.7,0.382287,0.381968,-0.153658,25,1.1441,10,-5.86925e-05,-3.81344,-0.680296,-0.086727,0.382035,
2,0,0,1,0,17255.5,0.378292,0.378035,-0.157724,25,1.14396,10,-5.96253e-05,-3.8021,-1.68359,-0.0350442,0.378104,
2,0,0,1,0,17256.3,0.374297,0.37403,-0.158751,25,1.14383,10,-5.93776e-05,-3.79928,-0.543352,-0.108585,0.3741,
2,0,0,1,0,17257.1,0.370303,0.36996,-0.161112,25,1.14369,10,-5.96049e-05,-3.79287,-0.661259,-0.0892238,0.370031,
2,0,0,1,0,17257.9,0.366307,0.36603,-0.163672,25,1.14354,10,-5.99087e-05,-3.78603,-0.588522,-0.100251,0.366102,
2,0,0,0,0,17258.7,0.362312,0.362016,-0.166438,25,1.1434,10,-6.02532e-05,-3.77875,-0.790734,-0.0746142,0.362089,
2,0,0,1,0,17259.5,0.358316,0.358028,-0.167163,25,1.14325,10,-5.98492e-05,-3.77686,-0.486845,-0.121188,0.358102,
2,0,0,1,0,17260.3,0.354321,0.354041,-0.170258,25,1.14311,10,-6.02785e-05,-3.76889,-0.676075,-0.0872684,0.354116,
2,0,0,1,0,17261.1,0.350327,0.350012,-0.172398,25,1.14296,10,-6.03414e-05,-3.76347,-0.972585,-0.0606631,0.350088,
2,0,0,1,0,17261.9,0.346331,0.345947,-0.175247,25,1.14281,10,-6.06261e-05,-3.75635,-0.809477,-0.0728866,0.346024,
2,0,0,0,0,17262.7,0.342336,0.342039,-0.177448,25,1.14265,10,-6.0694e-05,-3.75093,-0.576377,-0.102364,0.342117,
2,0,0,1,0,17263.5,0.338341,0.338072,-0.180533,25,1.1425,10,-6.10331e-05,-3.74344,-0.560031,-0.105351,0.338151,
2,0,0,1,0,17264.3,0.334345,0.33405,-0.181585,25,1.14234,10,-6.06585e-05,-3.74092,-1.03865,-0.0568047,0.33413,
2,0,0,1,0,17265.1,0.33035,0.330047,-0.185121,25,1.14218,10,-6.10986e-05,-3.73255,-0.856904,-0.0688525,0.330129,
2,0,0,1,0,17265.9,0.326355,0.326052,-0.188085,25,1.14202,10,-6.13257e-05,-3.72564,-0.494844,-0.11923,0.326135,
2,0,0,0,0,17266.7,0.32236,0.322036,-0.189927,25,1.14186,10,-6.11634e-05,-3.72141,-0.621284,-0.0949647,0.32212,
2,0,0,1,0,17267.5,0.318365,0.318064,-0.191005,25,1.14169,10,-6.07517e-05,-3.71896,-1.00215,-0.0588734,0.318148,
2,0,0,0,0,17268.3,0.31437,0.314089,-0.194546,25,1.14153,10,-6.11048e-05,-3.71098,-5.93525,-0.0099406,0.314175,
2,0,0,1,0,17269.1,0.310374,0.310085,-0.196229,25,1.14136,10,-6.08478e-05,-3.70724,-0.428018,-0.137845,0.310171,
2,0,0,1,0,17269.9,0.306379,0.30604,-0.198968,25,1.14119,10,-6.08922e-05,-3.70122,-0.7735,-0.0762767,0.306128,
2,0,0,1,0,17270.7,0.302385,0.302061,-0.20071,25,1.14102,10,-6.06266e-05,-3.69743,-0.681045,-0.0866316,0.302149,
2,0,0,1,0,17271.5,0.298389,0.298046,-0.204445,25,1.14084,10,-6.0934e-05,-3.68942,-0.563695,-0.104667,0.298136,
2,0,0,0,0,17272.3,0.294394,0.294063,-0.206864,25,1.14066,10,-6.08311e-05,-3.68431,-1.05095,-0.0561397,0.294154,
2,0,0,1,0,17273.1,0.290398,0.290069,-0.210128,25,1.14048,10,-6.09516e-05,-3.67752,-1.12387,-0.052497,0.290161,
2,0,0,1,0,17273.9,0.286403,0.286091,-0.210547,25,1.1403,10,-6.02355e-05,-3.67665,-0.368993,-0.159895,0.286184,
2,0,0,1,0,17274.7,0.282408,0.282059,-0.21484,25,1.14012,10,-6.05976e-05,-3.66788,5.39883,0.0109283,0.282153,
2,0,0,1,0,17275.5,0.278414,0.278062,-0.218938,25,1.13993,10,-6.08784e-05,-3.65968,-0.408587,-0.1444,0.278159,
2,0,0,0,0,17276.3,0.274418,0.27409,-0.220579,25,1.13975,10,-6.04584e-05,-3.65644,-0.626171,-0.0942235,0.274187,
2,0,0,1,0,17277.1,0.270423,0.270121,-0.223376,25,1.13956,10,-6.03385e-05,-3.65096,-1.30408,-0.0452426,0.270219,
2,0,0,1,0,17277.9,0.266427,0.266117,-0.226085,25,1.13936,10,-6.01651e-05,-3.64573,-0.470468,-0.125407,0.266217,
2,0,0,1,0,17278.7,0.262432,0.262161,-0.227868,25,1.13917,10,-5.97382e-05,-3.64232,-1.66237,-0.0354916,0.262262,
2,0,0,1,0,17279.5,0.258437,0.258168,-0.231136,25,1.13897,10,-5.96719e-05,-3.63613,-0.687244,-0.0858501,0.25827,
2,0,0,0,0,17280.3,0.254442,0.254167,-0.233748,25,1.13877,10,-5.94111e-05,-3.63125,-1.10536,-0.0533765,0.25427,
2,0,0,1,0,17281.1,0.250447,0.25017,-0.23602,25,1.13857,10,-5.90452e-05,-3.62705,-2.67897,-0.0220234,0.250274,
2,0,0,0,0,17281.9,0.246452,0.246141,-0.238971,25,1.13837,10,-5.88205e-05,-3.62165,-0.53456,-0.110371,0.246246,
2,0,0,1,0,17282.7,0.242456,0.242164,-0.241213,25,1.13816,10,-5.84131e-05,-3.6176,-0.638325,-0.0924293,0.24227,
2,0,0,1,0,17283.5,0.238461,0.238151,-0.243413,25,1.13796,10,-5.7969e-05,-3.61366,-3.37676,-0.0174724,0.238258,
2,0,0,1,0,17284.3,0.234467,0.234182,-0.245703,25,1.13775,10,-5.75391e-05,-3.60959,-0.63345,-0.0931408,0.23429,
2,0,0,1,0,17285.1,0.230471,0.23017,-0.248574,25,1.13754,10,-5.72144e-05,-3.60454,-0.944233,-0.0624846,0.230279,
2,0,0,0,0,17285.9,0.226476,0.226169,-0.250809,25,1.13732,10,-5.67253e-05,-3.60066,-1.2322,-0.047882,0.226279,
2,0,0,1,0,17286.7,0.222481,0.2222,-0.252772,25,1.13711,10,-5.6166e-05,-3.59727,-0.706917,-0.083461,0.222311,
2,0,0,1,0,17287.5,0.218485,0.218203,-0.257344,25,1.13689,10,-5.61532e-05,-3.58949,-1.73785,-0.03395,0.218316,
2,0,0,1,0,17288.3,0.21449,0.214195,-0.259864,25,1.13667,10,-5.56616e-05,-3.58525,-0.548037,-0.107657,0.214309,
2,0,0,1,0,17289.1,0.210496,0.210202,-0.262095,25,1.13645,10,-5.50928e-05,-3.58154,-0.549655,-0.10734,0.210317,
2,0,0,0,0,17289.9,0.2065,0.206186,-0.268509,25,1.13623,10,-5.53628e-05,-3.57104,-0.874941,-0.0674331,0.206304,
2,0,0,1,0,17290.7,0.202505,0.202147,-0.26931,25,1.136,10,-5.44401e-05,-3.56975,-0.762344,-0.0773929,0.202265,
2,0,0,1,0,17291.5,0.198509,0.198195,-0.273408,25,1.13577,10,-5.41881e-05,-3.56319,-0.644768,-0.0915057,0.198316,
2,0,0,1,0,17292.3,0.194514,0.194186,-0.278053,25,1.13554,10,-5.3994e-05,-3.55587,-0.56864,-0.103756,0.194308,
2,0,0,1,0,17293.1,0.190519,0.190176,-0.281051,25,1.1353,10,-5.34493e-05,-3.55121,-0.577711,-0.102127,0.1903,
2,0,0,0,0,17293.9,0.186524,0.186197,-0.286072,25,1.13506,10,-5.32658e-05,-3.54352,-0.811112,-0.0727396,0.186323,
2,0,0,1,0,17294.7,0.182529,0.182215,-0.292026,25,1.13482,10,-5.32116e-05,-3.53458,-0.406476,-0.14515,0.182344,
2,0,0,0,0,17295.4,0.178534,0.178251,-0.297408,25,1.13457,10,-5.30133e-05,-3.52665,-0.382196,-0.154371,0.178382,
2,0,0,1,0,17296.2,0.174538,0.174207,-0.305717,25,1.13431,10,-5.32579e-05,-3.51468,-0.362502,-0.162758,0.174341,
2,0,0,1,0,17297,0.170543,0.170251,-0.314939,25,1.13405,10,-5.36186e-05,-3.50177,-0.285726,-0.206491,0.170389,
2,0,0,1,0,17297.8,0.166549,0.166264,-0.324476,25,1.13378,10,-5.39487e-05,-3.48882,-0.257365,-0.229246,0.166407,
2,0,0,1,0,17298.6,0.162553,0.162271,-0.338809,25,1.1335,10,-5.49788e-05,-3.47005,-0.206662,-0.285491,0.16242,
2,0,0,0,0,17299.4,0.158558,0.158293,-0.354624,25,1.13321,10,-5.61347e-05,-3.45023,-0.157661,-0.37422,0.15845,
2,0,0,1,0,17300.2,0.154563,0.154272,-0.378097,25,1.13291,10,-5.83299e-05,-3.4224,-0.148297,-0.397851,0.154439,
2,0,0,1,0,17301,0.150567,0.150252,-0.406882,25,1.13258,10,-6.11349e-05,-3.39053,-0.107567,-0.548498,0.150431,
2,0,0,1,0,17301.8,0.146572,0.14626,-0.445203,25,1.13223,10,-6.51155e-05,-3.35144,-0.0950776,-0.620546,0.146456,
2,0,0,1,0,17302.6,0.142578,0.142275,-0.495964,25,1.13184,10,-7.05635e-05,-3.30455,-0.0803939,-0.733887,0.142494,
2,0,0,0,0,17303.4,0.138582,0.138267,-0.553175,25,1.13141,10,-7.64856e-05,-3.25714,-0.0829179,-0.711547,0.13851,
2,0,0,1,0,17304.2,0.134587,0.134272,-0.614431,25,1.13093,10,-8.2501e-05,-3.21153,-0.0961489,-0.613632,0.134542,
2,0,0,1,0,17305,0.130591,0.130299,-0.667998,25,1.1304,10,-8.70398e-05,-3.17522,-0.130363,-0.452584,0.130593,
2,0,0,1,0,17305.8,0.126596,0.126261,-0.704738,25,1.12983,10,-8.89812e-05,-3.15197,-0.195545,-0.301721,0.126572,
2,0,0,1,0,17306.6,0.122602,0.12228,-0.732581,25,1.12924,10,-8.95801e-05,-3.13514,-0.48463,-0.121742,0.122602,
2,0,0,1,0,17307.4,0.118607,0.118294,-0.742197,25,1.12864,10,-8.77978e-05,-3.12948,-0.972844,-0.0606469,0.118621,
2,0,0,1,0,17308.2,0.114611,0.114269,-0.743671,25,1.12803,10,-8.49782e-05,-3.12862,2.42268,0.0243532,0.114596,
2,0,0,0,0,17309,0.110616,0.110267,-0.739045,25,1.12742,10,-8.1492e-05,-3.13133,1.00743,0.0585651,0.110592,
2,0,0,1,0,17309.8,0.10662,0.106337,-0.729162,25,1.12682,10,-7.75372e-05,-3.13718,0.698466,0.0844708,0.106658,
2,0,0,1,0,17310.6,0.102625,0.102327,-0.717727,25,1.12623,10,-7.34431e-05,-3.14404,0.45191,0.130557,0.102643,
2,0,0,1,0,17311.4,0.0986305,0.0982811,-0.705938,25,1.12565,10,-6.93804e-05,-3.15123,0.628264,0.0939095,0.0985917,
2,0,0,1,0,17312.2,0.0946351,0.0943054,-0.689532,25,1.12508,10,-6.50265e-05,-3.16145,0.468031,0.12606,0.0946087,
2,0,0,0,0,17313,0.0906399,0.0902875,-0.681232,25,1.12451,10,-6.15067e-05,-3.1667,0.44272,0.133267,0.0905872,
2,0,0,1,0,17313.8,0.0866448,0.0862866,-0.668114,25,1.12396,10,-5.76493e-05,-3.17515,0.680783,0.0866649,0.0865805,
2,0,0,1,0,17314.6,0.0826492,0.0822779,-0.657159,25,1.12342,10,-5.40696e-05,-3.18233,0.555149,0.106278,0.082567,
2,0,0,1,0,17315.4,0.0786544,0.0783747,-0.647838,25,1.12288,10,-5.07742e-05,-3.18853,0.796092,0.0741121,0.0786598,
2,0,0,1,0,17316.2,0.0746596,0.074298,-0.638825,25,1.12235,10,-4.74634e-05,-3.19462,0.608597,0.0969442,0.0745791,
2,0,0,0,0,17317,0.0706641,0.0703423,-0.63017,25,1.12183,10,-4.43276e-05,-3.20054,0.606048,0.097352,0.0706196,
2,0,0,1,0,17317.8,0.0666689,0.0663615,-0.624078,25,1.12132,10,-4.14148e-05,-3.20476,0.784811,0.0751773,0.0666361,
2,0,0,0,0,17318.6,0.0626737,0.0623214,-0.611065,25,1.12081,10,-3.80824e-05,-3.21391,0.634988,0.0929151,0.0625902,
2,0,0,1,0,17319.4,0.0586783,0.0583479,-0.604175,25,1.12031,10,-3.52524e-05,-3.21884,0.515986,0.114344,0.0586138,
2,0,0,1,0,17320.2,0.0546835,0.0543642,-0.594924,25,1.11982,10,-3.23426e-05,-3.22554,0.746087,0.0790792,0.054626,
2,0,0,1,0,17321,0.0506886,0.0503732,-0.585116,25,1.11933,10,-2.94741e-05,-3.23276,0.473106,0.124708,0.0506306,
2,0,0,1,0,17321.8,0.046693,0.0463633,-0.574928,25,1.11885,10,-2.66556e-05,-3.24039,0.510503,0.115572,0.0466163,
2,0,0,0,0,17322.6,0.0426979,0.0423391,-0.564893,25,1.11838,10,-2.3917e-05,-3.24803,0.658937,0.0895382,0.0425876,
2,0,0,1,0,17323.4,0.0387022,0.0383354,-0.555263,25,1.11792,10,-2.12863e-05,-3.2555,0.431891,0.136608,0.0385797,
2,0,0,1,0,17324.2,0.0347074,0.0343498,-0.545437,25,1.11747,10,-1.87356e-05,-3.26326,0.501898,0.117554,0.0345898,
2,0,0,1,0,17325,0.0307126,0.030431,-0.531929,25,1.11702,10,-1.61871e-05,-3.27415,0.50317,0.117257,0.030665,
2,0,0,1,0,17325.8,0.0267172,0.0263768,-0.52502,25,1.11659,10,-1.38483e-05,-3.27982,0.430209,0.137143,0.0266078,
2,0,0,0,0,17326.6,0.022722,0.0223939,-0.51485,25,1.11616,10,-1.15295e-05,-3.28832,0.811676,0.0726891,0.0226204,
2,0,0,1,0,17327.4,0.0187268,0.0183622,-0.508863,25,1.11574,10,-9.34386e-06,-3.2934,0.587894,0.100358,0.0185861,
2,0,0,1,0,17328.2,0.0147313,0.0144172,-0.502758,25,1.11532,10,-7.24838e-06,-3.29864,0.871249,0.0677189,0.0146384,
2,0,0,1,0,17329,0.0107365,0.010425,-0.497569,25,1.11491,10,-5.18716e-06,-3.30315,1.46459,0.0402844,0.010644,
2,0,0,1,0,17329.8,0.00674163,0.00640952,-0.494356,25,1.1145,10,-3.16859e-06,-3.30596,4.3283,0.0136312,0.00662704,
2,0,0,0,0,17330.6,0.00274612,0.00240946,-0.494083,25,1.11409,10,-1.19048e-06,-3.3062,-20.2541,-0.00291299,0.00262686,
2,0,0,1,0,17331.1,0.000274105,-8.07672e-05,-0.495097,25,1.11383,10,3.99876e-08,-3.30531, , ,0.000137075,