File: Figure_codes/Fig_3-5/workspace_calculate_alpha_eff/20221101_1-115_003_TrumpetPlot_ParaChange_from10_every3_16_CV_C01_101.csv
mode,ox/red,error,control changes,counter inc.,time/s,control/V,Ewe/V,<I>/mA,cycle number,(Q-Qo)/C,I Range,P/W,log(|I|),Tafel slope mV/dec,alpha_eff,E-IR/V,
2,0,0,0,0,66984.4,2.44065e-05,-0.000268062,-0.102574,102,0.0000000E+000,10,2.74962e-08,-3.98896, , ,-0.000222929,
2,1,0,0,0,66985.2,0.00379485,0.00350699,0.1378,102,8.1128e-05,10,4.83263e-07,-3.86075,0.0292503,2.01707,0.00344635,
2,1,0,1,0,66986,0.00779002,0.00743473,0.163315,102,0.000212384,10,1.2142e-06,-3.78697,0.070998,0.831009,0.00736287,
2,1,0,0,0,66986.8,0.0117852,0.0114696,0.177401,102,0.000359263,10,2.03472e-06,-3.75104,0.110151,0.535628,0.0113915,
2,1,0,1,0,66987.6,0.0157806,0.0154412,0.192359,102,0.000517771,10,2.97024e-06,-3.71589,0.137469,0.429187,0.0153565,
2,1,0,1,0,66988.4,0.0197754,0.0194331,0.204557,102,0.000686288,10,3.97518e-06,-3.68919,0.154681,0.381431,0.0193431,
2,1,0,1,0,66989.2,0.0237704,0.023438,0.216743,102,0.000865019,10,5.08001e-06,-3.66406,0.170829,0.345376,0.0233426,
2,1,0,1,0,66990,0.0277659,0.0274563,0.2298,102,0.00105355,10,6.30944e-06,-3.63865,0.156019,0.378159,0.0273552,
2,1,0,0,0,66990.8,0.0317611,0.0314476,0.243033,102,0.00125273,10,7.6428e-06,-3.61434,0.164011,0.359733,0.0313407,
2,1,0,1,0,66991.6,0.0357567,0.0354054,0.257301,102,0.00146267,10,9.10984e-06,-3.58956,0.187226,0.315127,0.0352922,
2,1,0,1,0,66992.4,0.0397516,0.0394284,0.269645,102,0.00168322,10,1.06317e-05,-3.56921,0.165753,0.355952,0.0393098,
2,1,0,1,0,66993.2,0.0437465,0.043411,0.283423,102,0.00191498,10,1.23037e-05,-3.54756,0.216174,0.272928,0.0432863,
2,1,0,1,0,66994,0.0477413,0.0473947,0.29665,102,0.00215673,10,1.40596e-05,-3.52776,0.210781,0.279911,0.0472642,
2,1,0,0,0,66994.8,0.0517369,0.0514427,0.308728,102,0.00240847,10,1.58818e-05,-3.51042,0.212576,0.277548,0.0513068,
2,1,0,1,0,66995.6,0.0557321,0.055398,0.321201,102,0.00267015,10,1.77939e-05,-3.49322,0.325893,0.181041,0.0552566,
2,1,0,1,0,66996.4,0.0597277,0.0594048,0.33136,102,0.00294007,10,1.96844e-05,-3.4797,0.249628,0.236352,0.059259,
2,1,0,1,0,66997.2,0.0637226,0.0634128,0.340362,102,0.00321865,10,2.15833e-05,-3.46806,0.319093,0.184899,0.0632631,
2,1,0,1,0,66998,0.0677174,0.0673464,0.350981,102,0.00350584,10,2.36373e-05,-3.45472,0.508191,0.116098,0.0671919,
2,1,0,0,0,66998.8,0.0717128,0.071425,0.359575,102,0.00379983,10,2.56826e-05,-3.44421,0.331602,0.177924,0.0712667,
2,1,0,1,0,66999.6,0.075708,0.0753729,0.366568,102,0.00410049,10,2.76293e-05,-3.43584,0.414322,0.142401,0.0752116,
2,1,0,0,0,67000.4,0.0797031,0.0794003,0.375592,102,0.00440725,10,2.98221e-05,-3.42528,0.488019,0.120897,0.079235,
2,1,0,1,0,67001.2,0.0836986,0.0833825,0.38346,102,0.00472054,10,3.19739e-05,-3.41628,0.36133,0.163285,0.0832137,
2,1,0,1,0,67002,0.0876935,0.0873662,0.392834,102,0.00504153,10,3.43204e-05,-3.40579,0.324746,0.18168,0.0871933,
2,1,0,1,0,67002.8,0.0916883,0.0913581,0.407057,102,0.00537105,10,3.7188e-05,-3.39034,0.272531,0.216489,0.091179,
2,1,0,1,0,67003.6,0.0956838,0.0953806,0.419908,102,0.0057119,10,4.00511e-05,-3.37685,0.234833,0.251243,0.0951959,
2,1,0,0,0,67004.4,0.099679,0.0993677,0.439229,102,0.00606599,10,4.36452e-05,-3.35731,0.23204,0.254266,0.0991745,
2,1,0,1,0,67005.2,0.103674,0.103394,0.459408,102,0.00643514,10,4.75001e-05,-3.3378,0.185002,0.318916,0.103192,
2,1,0,1,0,67006,0.10767,0.107354,0.477683,102,0.00682105,10,5.12811e-05,-3.32086,0.231044,0.255362,0.107144,
2,1,0,1,0,67006.8,0.111664,0.111334,0.498959,102,0.00722207,10,5.55513e-05,-3.30193,0.257261,0.229339,0.111115,
2,1,0,1,0,67007.5,0.115659,0.115295,0.513173,102,0.00763699,10,5.91661e-05,-3.28974,0.301949,0.195397,0.115069,
2,1,0,0,0,67008.3,0.119655,0.119319,0.527189,102,0.0080637,10,6.29038e-05,-3.27803,0.606093,0.0973448,0.119087,
2,1,0,1,0,67009.1,0.12365,0.123335,0.535182,102,0.00849791,10,6.60066e-05,-3.2715,0.725246,0.0813517,0.1231,
2,1,0,1,0,67009.9,0.127646,0.127328,0.539879,102,0.00893788,10,6.87416e-05,-3.2677,1.52791,0.0386148,0.12709,
2,1,0,1,0,67010.7,0.131641,0.131314,0.540906,102,0.00938062,10,7.10284e-05,-3.26688,-0.708937,-0.0832232,0.131076,
2,1,0,1,0,67011.5,0.135635,0.135325,0.527839,102,0.00981824,10,7.14297e-05,-3.2775,-0.270285,-0.218288,0.135093,
2,1,0,0,0,67012.3,0.139631,0.139274,0.497526,102,0.0102399,10,6.92925e-05,-3.30318,-0.120292,-0.490475,0.139055,
2,1,0,1,0,67013.1,0.143626,0.143326,0.453306,102,0.0106308,10,6.49704e-05,-3.34361,-0.0814994,-0.723932,0.143126,
2,1,0,0,0,67013.9,0.147621,0.147272,0.400079,102,0.0109811,10,5.89203e-05,-3.39785,-0.0735597,-0.802069,0.147096,
2,1,0,1,0,67014.7,0.151617,0.151321,0.353095,102,0.0112912,10,5.34306e-05,-3.45211,-0.080982,-0.728557,0.151165,
2,1,0,1,0,67015.5,0.155612,0.155322,0.321164,102,0.011569,10,4.98839e-05,-3.49327,-0.116522,-0.50634,0.155181,
2,1,0,1,0,67016.3,0.159606,0.159306,0.29975,102,0.0118263,10,4.77519e-05,-3.52324,-0.165823,-0.355801,0.159174,
2,1,0,1,0,67017.1,0.163602,0.163286,0.285948,102,0.0120702,10,4.66913e-05,-3.54371,-0.200617,-0.294093,0.16316,
2,1,0,0,0,67017.9,0.167597,0.167265,0.276811,102,0.0123047,10,4.63007e-05,-3.55782,-0.445452,-0.13245,0.167143,
2,1,0,1,0,67018.7,0.171592,0.171316,0.269303,102,0.0125332,10,4.6136e-05,-3.56976,-0.399912,-0.147532,0.171198,
2,1,0,1,0,67019.5,0.175588,0.175287,0.266115,102,0.0127568,10,4.66463e-05,-3.57493,-0.720143,-0.0819281,0.17517,
2,1,0,1,0,67020.3,0.179582,0.179221,0.261021,102,0.0129769,10,4.67803e-05,-3.58332,-0.673164,-0.0876458,0.179106,
2,1,0,1,0,67021.1,0.183577,0.183281,0.258594,102,0.0131948,10,4.73952e-05,-3.58738,-0.907313,-0.0650271,0.183167,
2,1,0,0,0,67021.9,0.187573,0.187254,0.256935,102,0.0134105,10,4.81122e-05,-3.59018,-1.06863,-0.0552107,0.187141,
2,1,0,1,0,67022.7,0.191568,0.191267,0.254159,102,0.0136245,10,4.86121e-05,-3.5949,-1.23564,-0.0477486,0.191155,
2,1,0,0,0,67023.5,0.195563,0.195235,0.253473,102,0.0138373,10,4.94868e-05,-3.59607,-0.833488,-0.0707869,0.195123,
2,1,0,1,0,67024.3,0.199559,0.19924,0.2519,102,0.0140485,10,5.01885e-05,-3.59877,7.79909,0.00756499,0.199129,
2,1,0,1,0,67025.1,0.203553,0.20323,0.250013,102,0.0142588,10,5.08101e-05,-3.60204,-4.8583,-0.0121442,0.20312,
2,1,0,1,0,67025.9,0.207548,0.20723,0.250069,102,0.0144684,10,5.18217e-05,-3.60194,-1.78548,-0.0330444,0.20712,
2,1,0,1,0,67026.7,0.211544,0.211205,0.247841,102,0.0146768,10,5.23452e-05,-3.60583,-0.901681,-0.0654333,0.211095,
2,1,0,0,0,67027.5,0.215539,0.215202,0.247227,102,0.0148845,10,5.32038e-05,-3.6069,-11.5867,-0.00509205,0.215093,
2,1,0,1,0,67028.3,0.219535,0.219248,0.248023,102,0.0150914,10,5.43786e-05,-3.60551,-6.29839,-0.00936747,0.219139,
2,1,0,1,0,67029.1,0.223529,0.223203,0.246403,102,0.0152979,10,5.49979e-05,-3.60835,-5.63199,-0.0104759,0.223095,
2,1,0,1,0,67029.9,0.227524,0.227211,0.245869,102,0.0155036,10,5.58642e-05,-3.6093,-1.05419,-0.0559671,0.227103,
2,1,0,1,0,67030.7,0.23152,0.231175,0.244615,102,0.0157085,10,5.6549e-05,-3.61152,4.38837,0.0134446,0.231068,
2,1,0,0,0,67031.5,0.235515,0.235181,0.242703,102,0.0159129,10,5.70792e-05,-3.61493,-2.10575,-0.0280186,0.235075,
2,1,0,1,0,67032.3,0.23951,0.239189,0.24274,102,0.0161166,10,5.80606e-05,-3.61486,-2.28539,-0.0258162,0.239082,
2,1,0,1,0,67033.1,0.243506,0.243183,0.242595,102,0.0163198,10,5.89949e-05,-3.61512,4.02298,0.0146657,0.243076,
2,1,0,1,0,67033.9,0.2475,0.247196,0.241764,102,0.0165225,10,5.97631e-05,-3.61661,-1.47688,-0.039949,0.247089,
2,1,0,1,0,67034.7,0.251495,0.251203,0.241245,102,0.0167244,10,6.06013e-05,-3.61754,-2.14147,-0.0275511,0.251097,
2,1,0,0,0,67035.5,0.255491,0.255167,0.240462,102,0.0169257,10,6.13579e-05,-3.61895,-2.25162,-0.0262034,0.255061,
2,1,0,1,0,67036.3,0.259486,0.259229,0.23987,102,0.0171265,10,6.21813e-05,-3.62002,-1.2112,-0.0487119,0.259124,
2,1,0,0,0,67037.1,0.263481,0.263179,0.23913,102,0.0173263,10,6.2934e-05,-3.62137,2.90107,0.0203373,0.263074,
2,1,0,1,0,67037.9,0.267476,0.267156,0.236711,102,0.0175256,10,6.32389e-05,-3.62578,-1.9251,-0.0306477,0.267052,
2,1,0,1,0,67038.7,0.271471,0.271142,0.237435,102,0.0177241,10,6.43786e-05,-3.62445,-4.46401,-0.0132168,0.271037,
2,1,0,1,0,67039.5,0.275466,0.275156,0.236417,102,0.017922,10,6.50515e-05,-3.62632,-1.82701,-0.0322931,0.275052,
2,1,0,1,0,67040.3,0.279462,0.279185,0.234982,102,0.0181194,10,6.56035e-05,-3.62897,-6.90398,-0.00854579,0.279082,
2,1,0,0,0,67041.1,0.283457,0.283171,0.23464,102,0.0183159,10,6.64434e-05,-3.6296,-1.69432,-0.0348223,0.283068,
2,1,0,1,0,67041.9,0.287452,0.287156,0.233932,102,0.0185116,10,6.7175e-05,-3.63091,-2.45142,-0.0240677,0.287053,
2,1,0,1,0,67042.7,0.291448,0.291136,0.233663,102,0.0187071,10,6.80277e-05,-3.63141,-1.44793,-0.040748,0.291033,
2,1,0,1,0,67043.5,0.295442,0.295125,0.23242,102,0.0189016,10,6.85929e-05,-3.63373,8.00485,0.00737053,0.295023,
2,1,0,1,0,67044.3,0.299437,0.299115,0.231299,102,0.0190956,10,6.91851e-05,-3.63583,-5.43277,-0.01086,0.299013,
2,1,0,0,0,67045.1,0.303433,0.303122,0.231836,102,0.0192888,10,7.02744e-05,-3.63482,-1.55454,-0.0379533,0.30302,
2,1,0,1,0,67045.9,0.307428,0.307129,0.231004,102,0.0194814,10,7.0948e-05,-3.63638,-38.0918,-0.00154889,0.307027,
2,1,0,1,0,67046.7,0.311424,0.311071,0.229448,102,0.0196738,10,7.13747e-05,-3.63932,-1.11108,-0.0531017,0.31097,
2,1,0,1,0,67047.5,0.315418,0.315106,0.228466,102,0.0198651,10,7.19911e-05,-3.64118,-27.911,-0.00211386,0.315006,
2,1,0,1,0,67048.3,0.319413,0.319095,0.227548,102,0.0200557,10,7.26094e-05,-3.64293,-2.68892,-0.0219419,0.318995,
2,1,0,0,0,67049.1,0.323409,0.323077,0.226846,102,0.0202458,10,7.32889e-05,-3.64427,-6.47223,-0.00911587,0.322978,
2,1,0,1,0,67049.9,0.327404,0.327103,0.22687,102,0.0204353,10,7.42097e-05,-3.64422,-1.83395,-0.0321709,0.327003,
2,1,0,0,0,67050.7,0.331399,0.33108,0.226074,102,0.0206244,10,7.48488e-05,-3.64575,8.29563,0.00711218,0.330981,
2,1,0,1,0,67051.5,0.335395,0.33509,0.226221,102,0.020813,10,7.58044e-05,-3.64547,-2.84733,-0.0207212,0.334991,
2,1,0,1,0,67052.3,0.339389,0.339074,0.225421,102,0.0210009,10,7.64343e-05,-3.64701,-2.53294,-0.0232931,0.338974,
2,1,0,1,0,67053.1,0.343384,0.343047,0.224432,102,0.0211886,10,7.69908e-05,-3.64891,-3.53621,-0.0166845,0.342948,
2,1,0,1,0,67053.9,0.34738,0.347066,0.2253,102,0.0213758,10,7.8194e-05,-3.64724,14.9465,0.00394741,0.346967,
2,1,0,0,0,67054.7,0.351375,0.351092,0.223628,102,0.0215627,10,7.8514e-05,-3.65047,-1.50333,-0.0392463,0.350994,
2,1,0,1,0,67055.5,0.35537,0.355052,0.223368,102,0.0217491,10,7.93073e-05,-3.65098,-2.15617,-0.0273633,0.354954,
2,1,0,1,0,67056.3,0.359365,0.359093,0.223216,102,0.0219351,10,8.01552e-05,-3.65128,2.03414,0.0290049,0.358995,
2,1,0,1,0,67057.1,0.36336,0.363026,0.222246,102,0.022121,10,8.0681e-05,-3.65317,-2.57825,-0.0228838,0.362928,
2,1,0,1,0,67057.9,0.367355,0.367019,0.2224,102,0.0223063,10,8.16252e-05,-3.65286,-29.9981,-0.00196679,0.366921,
2,1,0,0,0,67058.7,0.371351,0.370998,0.221432,102,0.0224913,10,8.21511e-05,-3.65476,8.48904,0.00695014,0.370901,
2,1,0,1,0,67059.5,0.375346,0.375066,0.221487,102,0.0226761,10,8.30722e-05,-3.65465,-1.64847,-0.0357908,0.374969,
2,1,0,1,0,67060.3,0.379342,0.379059,0.222589,102,0.0228604,10,8.43744e-05,-3.6525,-14.831,-0.00397814,0.378961,
2,1,0,1,0,67061.1,0.383336,0.383058,0.22136,102,0.0230446,10,8.47938e-05,-3.6549,4.50212,0.0131049,0.382961,
2,1,0,1,0,67061.9,0.387331,0.38703,0.221224,102,0.0232286,10,8.56206e-05,-3.65517,-1.07092,-0.0550927,0.386933,
2,1,0,0,0,67062.7,0.391327,0.391025,0.220842,102,0.023412,10,8.63548e-05,-3.65592,11.6779,0.00505228,0.390928,
2,1,0,1,0,67063.5,0.395322,0.395032,0.219186,102,0.0235952,10,8.65855e-05,-3.65919,-30.4135,-0.00193993,0.394936,
2,1,0,0,0,67064.3,0.399317,0.399039,0.219782,102,0.0237781,10,8.77015e-05,-3.65801,52.0291,0.00113398,0.398942,
2,1,0,1,0,67065.1,0.403313,0.402995,0.219879,102,0.0239607,10,8.86103e-05,-3.65782,12.2615,0.00481183,0.402899,
2,1,0,1,0,67065.9,0.407307,0.407023,0.219493,102,0.0241433,10,8.93388e-05,-3.65858,-2.49214,-0.0236745,0.406926,
2,1,0,1,0,67066.7,0.411302,0.41097,0.219976,102,0.0243255,10,9.04035e-05,-3.65762,8.37272,0.00704669,0.410873,
2,1,0,1,0,67067.5,0.415298,0.415019,0.219429,102,0.0245077,10,9.10671e-05,-3.65871,-6.18792,-0.00953471,0.414922,
2,1,0,0,0,67068.3,0.419293,0.418995,0.219554,102,0.0246898,10,9.1992e-05,-3.65846,-1.78536,-0.0330466,0.418899,
2,1,0,1,0,67069.1,0.423288,0.422984,0.219444,102,0.0248716,10,9.28214e-05,-3.65868,1.28835,0.0457949,0.422887,
2,1,0,1,0,67069.9,0.427283,0.426983,0.219283,102,0.0250535,10,9.363e-05,-3.659,-2.54686,-0.0231658,0.426886,
2,1,0,1,0,67070.7,0.431278,0.430971,0.219156,102,0.0252351,10,9.44496e-05,-3.65925,11.9718,0.00492826,0.430874,
2,1,0,1,0,67071.5,0.435273,0.43499,0.218801,102,0.0254165,10,9.51762e-05,-3.65995,-5.77902,-0.0102093,0.434894,
2,1,0,0,0,67072.3,0.439269,0.438971,0.21865,102,0.0255979,10,9.5981e-05,-3.66025,-4.39256,-0.0134318,0.438875,
2,1,0,1,0,67073.1,0.443264,0.442914,0.219149,102,0.0257793,10,9.70641e-05,-3.65926,2.39978,0.0245856,0.442818,
2,1,0,0,0,67073.9,0.447259,0.446941,0.218709,102,0.0259608,10,9.77502e-05,-3.66013,-8.70697,-0.00677618,0.446845,
2,1,0,1,0,67074.7,0.451254,0.450962,0.219456,102,0.0261422,10,9.89662e-05,-3.65865,-3.8716,-0.0152392,0.450865,
2,1,0,1,0,67075.5,0.455249,0.45494,0.218932,102,0.0263235,10,9.96008e-05,-3.65969,1.66623,0.0354094,0.454844,
2,1,0,1,0,67076.3,0.459244,0.458932,0.218962,102,0.0265051,10,0.000100489,-3.65963,-21.6639,-0.00272342,0.458836,
2,1,0,1,0,67077.1,0.46324,0.462926,0.220262,102,0.0266868,10,0.000101965,-3.65706,4.07,0.0144963,0.462829,
2,1,0,0,0,67077.9,0.467235,0.466905,0.219473,102,0.0268684,10,0.000102473,-3.65862,7.77036,0.00759295,0.466808,
2,1,0,1,0,67078.7,0.471231,0.470907,0.219802,102,0.0270503,10,0.000103506,-3.65797,-4.07542,-0.014477,0.47081,
2,1,0,1,0,67079.5,0.475225,0.474896,0.219879,102,0.027232,10,0.00010442,-3.65782,1.92122,0.0307097,0.474799,
2,1,0,1,0,67080.3,0.47922,0.478956,0.220931,102,0.0274143,10,0.000105816,-3.65574,12.4597,0.00473527,0.478859,
2,1,0,1,0,67081.1,0.483216,0.482893,0.221145,102,0.0275969,10,0.00010679,-3.65532,164.222,0.00035927,0.482796,
2,1,0,0,0,67081.9,0.487211,0.486882,0.22155,102,0.0277797,10,0.000107869,-3.65453,1.72914,0.0341211,0.486784,
2,1,0,1,0,67082.7,0.491206,0.490877,0.221665,102,0.027963,10,0.00010881,-3.6543,3.75013,0.0157328,0.49078,
2,1,0,1,0,67083.5,0.495202,0.49488,0.222807,102,0.0281468,10,0.000110263,-3.65207,4.57064,0.0129085,0.494782,
2,1,0,1,0,67084.3,0.499196,0.498925,0.22332,102,0.028331,10,0.00011142,-3.65107,1.29035,0.0457241,0.498826,
2,1,0,1,0,67085.1,0.503191,0.502882,0.225088,102,0.028516,10,0.000113193,-3.64765,-498.092,-0.000118452,0.502783,
2,1,0,0,0,67085.9,0.507187,0.506889,0.225022,102,0.0287014,10,0.000114061,-3.64778,2.7307,0.0216061,0.50679,
2,1,0,1,0,67086.7,0.511182,0.510899,0.226795,102,0.0288875,10,0.000115869,-3.64437,0.930408,0.063413,0.510799,
2,1,0,0,0,67087.5,0.515177,0.514892,0.227579,102,0.0290746,10,0.000117179,-3.64287,5.96721,0.00988738,0.514792,
2,1,0,1,0,67088.3,0.519173,0.518943,0.229043,102,0.0292625,10,0.000118861,-3.64008,1.26824,0.0465212,0.518842,
2,1,0,1,0,67089.1,0.523167,0.52287,0.229649,102,0.0294514,10,0.000120077,-3.63893,3.34595,0.0176333,0.522769,
2,1,0,1,0,67089.9,0.527162,0.526899,0.230805,102,0.0296412,10,0.000121611,-3.63675,1.73839,0.0339394,0.526797,
2,1,0,1,0,67090.6,0.531158,0.53086,0.232123,102,0.0298317,10,0.000123225,-3.63428,1.34156,0.0439788,0.530758,
2,1,0,0,0,67091.4,0.535153,0.534862,0.233522,102,0.0300234,10,0.000124902,-3.63167,0.99729,0.0591603,0.534759,
2,1,0,1,0,67092.2,0.539148,0.538872,0.23552,102,0.0302162,10,0.000126915,-3.62797,2.32261,0.0254025,0.538769,
2,1,0,1,0,67093,0.543143,0.542856,0.237035,102,0.0304105,10,0.000128676,-3.62519,1.39407,0.0423222,0.542752,
2,1,0,1,0,67093.8,0.547138,0.546819,0.238642,102,0.0306062,10,0.000130494,-3.62225,2.30081,0.0256432,0.546714,
2,1,0,1,0,67094.6,0.551133,0.550858,0.240671,102,0.0308033,10,0.000132575,-3.61858,0.710644,0.0830233,0.550752,
2,1,0,0,0,67095.4,0.555129,0.554809,0.242348,102,0.031002,10,0.000134457,-3.61556,1.27448,0.0462934,0.554702,
2,1,0,1,0,67096.2,0.559124,0.558829,0.244908,102,0.0312026,10,0.000136862,-3.611,0.740555,0.07967,0.558721,
2,1,0,1,0,67097,0.56312,0.56285,0.247705,102,0.031405,10,0.000139421,-3.60606,0.76667,0.0769562,0.562741,
2,1,0,1,0,67097.8,0.567114,0.566856,0.249608,102,0.0316096,10,0.000141492,-3.60274,1.00429,0.0587481,0.566747,
2,1,0,1,0,67098.6,0.571109,0.570802,0.254043,102,0.0318164,10,0.000145008,-3.59509,0.58229,0.101324,0.57069,
2,1,0,0,0,67099.4,0.575105,0.574808,0.256463,102,0.0320259,10,0.000147417,-3.59098,0.865359,0.0681798,0.574696,
2,1,0,1,0,67100.2,0.5791,0.57882,0.260752,102,0.0322382,10,0.000150928,-3.58377,0.608078,0.097027,0.578705,
2,1,0,0,0,67101,0.583095,0.582861,0.264653,102,0.0324535,10,0.000154256,-3.57732,0.581345,0.101489,0.582745,
2,1,0,1,0,67101.8,0.587091,0.586798,0.268404,102,0.0326721,10,0.000157499,-3.57121,0.485122,0.121619,0.58668,
2,1,0,1,0,67102.6,0.591085,0.590791,0.274715,102,0.0328944,10,0.000162299,-3.56112,0.432186,0.136515,0.59067,
2,1,0,1,0,67103.4,0.59508,0.594757,0.279297,102,0.033121,10,0.000166114,-3.55393,0.544953,0.108266,0.594635,
2,1,0,1,0,67104.2,0.599076,0.598793,0.285408,102,0.0333523,10,0.0001709,-3.54453,0.406563,0.145119,0.598667,
2,1,0,0,0,67105,0.603071,0.602788,0.293394,102,0.0335884,10,0.000176854,-3.53255,0.376482,0.156714,0.602659,
2,1,0,1,0,67105.8,0.607066,0.606747,0.300637,102,0.0338306,10,0.00018241,-3.52196,0.308155,0.191462,0.606615,
2,1,0,1,0,67106.6,0.611061,0.610784,0.309659,102,0.0340795,10,0.000189135,-3.50912,0.302056,0.195328,0.610648,
2,1,0,1,0,67107.4,0.615056,0.614807,0.319698,102,0.034336,10,0.000196553,-3.49526,0.266349,0.221514,0.614666,
2,1,0,1,0,67108.2,0.619051,0.618758,0.330746,102,0.034601,10,0.000204652,-3.4805,0.26926,0.219119,0.618613,
2,1,0,0,0,67109,0.623047,0.622728,0.343293,102,0.0348754,10,0.000213778,-3.46434,0.227976,0.2588,0.622577,
2,1,0,1,0,67109.8,0.627042,0.626732,0.358118,102,0.0351608,10,0.000224444,-3.44597,0.198235,0.297627,0.626575,
2,1,0,1,0,67110.6,0.631038,0.630807,0.376526,102,0.0354594,10,0.000237515,-3.42421,0.181555,0.324971,0.630641,
2,1,0,1,0,67111.4,0.635032,0.63476,0.39649,102,0.0357731,10,0.000251676,-3.40177,0.163909,0.359956,0.634585,
2,1,0,1,0,67112.2,0.639027,0.638736,0.419853,102,0.0361045,10,0.000268175,-3.3769,0.15619,0.377746,0.638551,
2,1,0,1,0,67113,0.643022,0.642745,0.44728,102,0.036456,10,0.000287487,-3.34942,0.145096,0.406628,0.642548,
2,1,0,1,0,67113.8,0.647018,0.646747,0.477977,102,0.0368306,10,0.00030913,-3.32059,0.125142,0.471466,0.646537,
2,1,0,0,0,67114.6,0.651013,0.65075,0.51496,102,0.0372324,10,0.00033511,-3.28823,0.120593,0.489249,0.650524,
2,1,0,1,0,67115.4,0.655009,0.654722,0.557059,102,0.0376655,10,0.000364719,-3.2541,0.115898,0.509067,0.654477,
2,1,0,1,0,67116.2,0.659003,0.658715,0.604389,102,0.0381342,10,0.00039812,-3.21868,0.104206,0.566187,0.658449,
2,1,0,1,0,67117,0.662998,0.662719,0.662668,102,0.0386451,10,0.000439163,-3.1787,0.100999,0.584167,0.662428,
2,1,0,1,0,67117.8,0.666994,0.66672,0.726268,102,0.0392045,10,0.000484218,-3.1389,0.0944768,0.624492,0.666401,
2,1,0,0,0,67118.6,0.670989,0.670667,0.801682,102,0.0398197,10,0.000537662,-3.096,0.0920941,0.640649,0.670314,
2,1,0,1,0,67119.4,0.674984,0.674705,0.885308,102,0.040498,10,0.000597322,-3.05291,0.0906337,0.650972,0.674315,
2,1,0,1,0,67120.2,0.678979,0.678677,0.980749,102,0.0412483,10,0.000665612,-3.00844,0.0883855,0.667531,0.678245,
2,1,0,1,0,67121,0.682974,0.682671,1.08689,102,0.0420791,10,0.00074199,-2.96381,0.0866324,0.681039,0.682193,
2,1,0,1,0,67121.8,0.686969,0.686707,1.20787,102,0.0430006,10,0.000829453,-2.91798,0.087303,0.675807,0.686176,
2,1,0,0,0,67122.6,0.690965,0.690737,1.34106,102,0.0440235,10,0.000926322,-2.87255,0.086586,0.681403,0.690147,
2,1,0,1,0,67123.4,0.69496,0.694731,1.48901,102,0.0451582,10,0.00103446,-2.8271,0.0885158,0.666547,0.694076,
2,1,0,0,0,67124.2,0.698955,0.698684,1.64796,102,0.0464152,10,0.0011514,-2.78305,0.0889091,0.663599,0.697959,
2,1,0,1,0,67125,0.70295,0.702668,1.82345,102,0.0478068,10,0.00128128,-2.73911,0.0886991,0.66517,0.701866,
2,1,0,1,0,67125.8,0.706945,0.706703,2.01462,102,0.0493446,10,0.00142374,-2.69581,0.0931286,0.633532,0.705816,
2,1,0,1,0,67126.6,0.71094,0.710639,2.21765,102,0.0510392,10,0.00157595,-2.65411,0.0936191,0.630213,0.709664,
2,1,0,1,0,67127.4,0.714936,0.714663,2.43785,102,0.0529042,10,0.00174224,-2.61299,0.0962575,0.612939,0.713591,
2,1,0,0,0,67128.2,0.718931,0.718693,2.67147,102,0.0549494,10,0.00191997,-2.57325,0.0989509,0.596256,0.717517,
2,1,0,1,0,67129,0.722926,0.722627,2.92022,102,0.0571884,10,0.00211023,-2.53458,0.102376,0.576307,0.721342,
2,1,0,1,0,67129.8,0.726921,0.726659,3.18323,102,0.059631,10,0.00231312,-2.49713,0.103338,0.570939,0.725258,
2,1,0,1,0,67130.6,0.730916,0.730629,3.46457,102,0.0622916,10,0.00253132,-2.46035,0.107188,0.550437,0.729104,
2,1,0,1,0,67131.4,0.734911,0.734658,3.76114,102,0.0651826,10,0.00276315,-2.42468,0.111356,0.529831,0.733003,
2,1,0,0,0,67132.2,0.738907,0.73865,4.07445,102,0.0683175,10,0.00300959,-2.38993,0.110453,0.534164,0.736857,
2,1,0,1,0,67133,0.742902,0.742625,4.40405,102,0.0717087,10,0.00327056,-2.35615,0.116236,0.507589,0.740687,
2,1,0,1,0,67133.8,0.746897,0.746638,4.75317,102,0.0753716,10,0.00354889,-2.32302,0.116958,0.504454,0.744547,
2,1,0,1,0,67134.6,0.750892,0.750656,5.12015,102,0.0793203,10,0.00384347,-2.29072,0.119193,0.494996,0.748403,
2,1,0,1,0,67135.4,0.754887,0.7546,5.50724,102,0.0835707,10,0.00415577,-2.25907,0.122258,0.482586,0.752177,
2,1,0,0,0,67136.2,0.758883,0.758634,5.91461,102,0.0881396,10,0.00448703,-2.22807,0.123729,0.476847,0.756032,
2,1,0,1,0,67137,0.762878,0.762614,6.34418,102,0.0930402,10,0.00483816,-2.19762,0.131706,0.447967,0.759822,
2,1,0,0,0,67137.8,0.766873,0.766601,6.78176,102,0.0982871,10,0.0051989,-2.16866,0.126684,0.465726,0.763617,
2,1,0,1,0,67138.6,0.770868,0.770596,7.259,102,0.1039,10,0.00559375,-2.13912,0.130757,0.451218,0.767402,
2,1,0,1,0,67139.4,0.774863,0.774584,7.7609,102,0.109905,10,0.00601146,-2.11009,0.128196,0.460232,0.771169,
2,1,0,1,0,67140.2,0.778858,0.778605,8.29319,102,0.116322,10,0.00645713,-2.08128,0.130924,0.450644,0.774956,
2,1,0,1,0,67141,0.782853,0.78256,8.85791,102,0.123178,10,0.00693184,-2.05267,0.131727,0.447895,0.778662,
2,1,0,0,0,67141.8,0.786849,0.786578,9.45508,102,0.130498,10,0.00743716,-2.02433,0.131234,0.449579,0.782418,
2,1,0,1,0,67142.6,0.790844,0.790576,10.0884,102,0.138309,10,0.00797568,-1.99618,0.134013,0.440255,0.786137,
2,1,0,1,0,67143.4,0.794839,0.794539,10.7627,102,0.146644,10,0.00855141,-1.96808,0.13077,0.451175,0.789803,
2,1,0,1,0,67144.2,0.798834,0.798543,11.4807,102,0.155534,10,0.00916782,-1.94003,0.13003,0.45374,0.793492,
2,1,0,1,0,67145,0.802829,0.802615,12.2466,102,0.165017,10,0.00982927,-1.91199,0.130354,0.452612,0.797227,
2,1,0,0,0,67145.8,0.806825,0.806552,13.0655,102,0.175133,10,0.010538,-1.88387,0.128634,0.458667,0.800803,
2,1,0,1,0,67146.6,0.81082,0.810571,13.9325,102,0.185923,10,0.0112933,-1.85597,0.129283,0.456363,0.80444,
2,1,0,1,0,67147.4,0.814816,0.814513,14.8461,102,0.197425,10,0.0120923,-1.82839,0.133288,0.44265,0.80798,
2,1,0,1,0,67148.2,0.81881,0.818527,15.8014,102,0.209672,10,0.0129339,-1.8013,0.137783,0.428211,0.811574,
2,1,0,1,0,67149,0.822805,0.822539,16.7721,102,0.222686,10,0.0137957,-1.77541,0.131818,0.447588,0.815159,
2,1,0,0,0,67149.8,0.826801,0.826562,17.8264,102,0.236513,10,0.0147346,-1.74894,0.135509,0.435394,0.818718,
2,1,0,1,0,67150.6,0.830796,0.830547,18.6972,102,0.251189,10,0.0155289,-1.72822,0.182519,0.323254,0.82232,
2,1,0,0,0,67151.4,0.834791,0.834534,19.7864,102,0.26656,10,0.0165124,-1.70363,0.144333,0.408778,0.825828,
2,1,0,1,0,67152.2,0.838786,0.83851,20.9103,102,0.282826,10,0.0175335,-1.67964,0.145882,0.404437,0.82931,
2,1,0,1,0,67153,0.842781,0.842542,22.0545,102,0.299996,10,0.0185818,-1.6565,0.153674,0.383929,0.832838,
2,1,0,1,0,67153.8,0.846776,0.846538,23.2158,102,0.318085,10,0.0196531,-1.63422,0.155721,0.378882,0.836323,
2,1,0,0,0,67154.5,0.849723,0.849517,24.022,102,0.334691,10,0.0204071,-1.61939,0.0511713,1.15299,0.838948,
2,1,0,1,0,67155.3,0.845728,0.845477,22.3033,102,0.353143,10,0.018857,-1.65163,0.115117,0.512521,0.835664,
2,1,0,0,0,67156.1,0.841732,0.841472,20.9042,102,0.370388,10,0.0175903,-1.67977,0.120248,0.490653,0.832274,
2,1,0,1,0,67156.9,0.837737,0.837505,19.579,102,0.38655,10,0.0163975,-1.70821,0.118794,0.496657,0.82889,
2,1,0,1,0,67157.7,0.833742,0.833468,18.3182,102,0.401675,10,0.0152676,-1.73712,0.121393,0.486023,0.825408,
2,1,0,1,0,67158.5,0.829747,0.829504,17.1621,102,0.415839,10,0.0142361,-1.76543,0.124303,0.474647,0.821952,
2,1,0,1,0,67159.3,0.825752,0.82555,16.0757,102,0.429108,10,0.0132713,-1.79383,0.124202,0.475033,0.818477,
2,1,0,0,0,67160.1,0.821757,0.821478,15.0429,102,0.441529,10,0.0123574,-1.82267,0.122034,0.48347,0.814859,
2,1,0,1,0,67160.9,0.817761,0.817514,14.0544,102,0.453141,10,0.0114897,-1.85219,0.122649,0.481049,0.81133,
2,1,0,1,0,67161.7,0.813766,0.813522,13.1485,102,0.463998,10,0.0106966,-1.88112,0.122918,0.479997,0.807736,
2,1,0,1,0,67162.5,0.809771,0.809482,12.2882,102,0.474149,10,0.00994707,-1.91051,0.446175,0.132235,0.804075,
2,1,0,1,0,67163.3,0.805776,0.805506,12.0753,102,0.484038,10,0.00972673,-1.9181,0.126033,0.46813,0.800193,
2,1,0,0,0,67164.1,0.801781,0.801566,11.2542,102,0.493352,10,0.00902095,-1.94869,0.117534,0.501984,0.796614,
2,1,0,1,0,67164.9,0.797786,0.797505,10.4651,102,0.502019,10,0.00834598,-1.98026,0.116385,0.506939,0.792901,
2,1,0,1,0,67165.7,0.79379,0.793485,9.73704,102,0.51008,10,0.0077262,-2.01157,0.118211,0.499108,0.7892,
2,1,0,1,0,67166.5,0.789795,0.789499,9.0633,102,0.517579,10,0.00715547,-2.04271,0.115255,0.51191,0.785512,
2,1,0,1,0,67167.3,0.7858,0.785547,8.41178,102,0.524553,10,0.00660785,-2.07511,0.117627,0.501585,0.781846,
2,1,0,0,0,67168.1,0.781805,0.781522,7.8139,102,0.531029,10,0.00610674,-2.10713,0.115164,0.512312,0.778084,
2,1,0,1,0,67168.9,0.77781,0.777543,7.24845,102,0.537037,10,0.00563598,-2.13976,0.114333,0.516035,0.774354,
2,1,0,0,0,67169.7,0.773815,0.773559,6.71956,102,0.54261,10,0.00519798,-2.17266,0.113647,0.519152,0.770603,
2,1,0,1,0,67170.5,0.769819,0.769506,6.22458,102,0.547773,10,0.00478986,-2.20589,0.112216,0.525772,0.766767,
2,1,0,1,0,67171.3,0.765824,0.765518,5.76181,102,0.552554,10,0.00441077,-2.23944,0.113407,0.520252,0.762983,
2,1,0,1,0,67172.1,0.761829,0.761575,5.32869,102,0.556976,10,0.00405819,-2.27338,0.112367,0.525067,0.75923,
2,1,0,1,0,67172.9,0.757834,0.757557,4.9238,102,0.561064,10,0.00373005,-2.3077,0.110685,0.533047,0.75539,
2,1,0,0,0,67173.6,0.753839,0.753534,4.54379,102,0.56484,10,0.0034239,-2.34258,0.109108,0.540747,0.751534,
2,1,0,1,0,67174.4,0.749843,0.749549,4.18701,102,0.568322,10,0.00313836,-2.3781,0.106951,0.551654,0.747706,
2,1,0,1,0,67175.2,0.745848,0.745575,3.84946,102,0.571526,10,0.00287006,-2.4146,0.103585,0.569579,0.743881,
2,1,0,1,0,67176,0.741853,0.74159,3.52864,102,0.574466,10,0.00261681,-2.45239,0.100551,0.586766,0.740038,
2,1,0,1,0,67176.8,0.737858,0.737565,3.23239,102,0.577161,10,0.0023841,-2.49048,0.100159,0.589065,0.736143,
2,1,0,0,0,67177.6,0.733863,0.733562,2.9518,102,0.579624,10,0.00216533,-2.52991,0.0962921,0.612719,0.732263,
2,1,0,1,0,67178.4,0.729868,0.729551,2.68573,102,0.58187,10,0.00195938,-2.57094,0.0940017,0.627648,0.72837,
2,1,0,1,0,67179.2,0.725872,0.725605,2.43832,102,0.583911,10,0.00176926,-2.61291,0.0906892,0.650574,0.724532,
2,1,0,1,0,67180,0.721877,0.721592,2.20298,102,0.585759,10,0.00158965,-2.65699,0.0867039,0.680477,0.720622,
2,1,0,1,0,67180.8,0.717882,0.717606,1.98521,102,0.587426,10,0.0014246,-2.70219,0.0854699,0.690302,0.716733,
2,1,0,0,0,67181.6,0.713887,0.713614,1.78028,102,0.588924,10,0.00127043,-2.74951,0.0802137,0.735535,0.71283,
2,1,0,1,0,67182.4,0.709892,0.709619,1.58764,102,0.590262,10,0.00112662,-2.79925,0.0777706,0.758642,0.70892,
2,1,0,0,0,67183.2,0.705897,0.705586,1.41094,102,0.591454,10,0.000995538,-2.85049,0.0737259,0.800262,0.704965,
2,1,0,1,0,67184,0.701901,0.701607,1.2458,102,0.592509,10,0.000874059,-2.90455,0.0709973,0.831017,0.701059,
2,1,0,1,0,67184.8,0.697906,0.697628,1.09281,102,0.593437,10,0.000762375,-2.96146,0.0681725,0.865452,0.697147,
2,1,0,1,0,67185.6,0.693911,0.693643,0.954199,102,0.594249,10,0.000661874,-3.02036,0.0650686,0.906735,0.693223,
2,1,0,1,0,67186.4,0.689916,0.689665,0.825776,102,0.594954,10,0.000569509,-3.08314,0.0605308,0.97471,0.689302,
2,1,0,0,0,67187.2,0.685921,0.685642,0.706642,102,0.595561,10,0.000484504,-3.1508,0.0573758,1.02831,0.685331,
2,1,0,1,0,67188,0.681926,0.681651,0.602424,102,0.596079,10,0.000410643,-3.2201,0.0553768,1.06543,0.681386,
2,1,0,1,0,67188.8,0.67793,0.677665,0.509036,102,0.596517,10,0.000344956,-3.29325,0.0519976,1.13467,0.677441,
2,1,0,1,0,67189.6,0.673935,0.673632,0.423503,102,0.596883,10,0.000285285,-3.37314,0.047887,1.23207,0.673446,
2,1,0,1,0,67190.4,0.66994,0.669671,0.348988,102,0.597186,10,0.000233707,-3.45719,0.0455703,1.2947,0.669517,
2,1,0,0,0,67191.2,0.665945,0.665647,0.282241,102,0.597432,10,0.000187873,-3.54938,0.0414014,1.42507,0.665523,
2,1,0,1,0,67192,0.66195,0.661649,0.224655,102,0.597629,10,0.000148643,-3.64848,0.0378776,1.55765,0.661551,
2,1,0,0,0,67192.8,0.657955,0.657671,0.173684,102,0.597782,10,0.000114227,-3.76024,0.033805,1.74531,0.657594,
2,1,0,1,0,67193.6,0.653959,0.653672,0.129212,102,0.597897,10,8.44625e-05,-3.8887,0.0288098,2.04792,0.653615,
2,1,0,1,0,67194.4,0.649964,0.649678,0.0916394,102,0.59798,10,5.95362e-05,-4.03792,0.0243619,2.42181,0.649638,
2,1,0,1,0,67195.2,0.645969,0.645703,0.0599503,102,0.598035,10,3.87101e-05,-4.22221,0.0181964,3.24241,0.645677,
2,1,0,1,0,67196,0.641974,0.641662,0.0317228,102,0.598065,10,2.03553e-05,-4.49863,0.0101674,5.80285,0.641648,
2,1,0,0,0,67196.8,0.637979,0.637713,0.00831325,102,0.598075,10,5.30146e-06,-5.08023,0.00437642,13.4813,0.637709,
2,0,0,1,0,67197.6,0.633983,0.633688,-0.0120351,102,0.598068,10,-7.62648e-06,-4.91955,-0.00436891,-13.5045,0.633694,
2,0,0,1,0,67198.4,0.629988,0.629712,-0.0270389,102,0.598047,10,-1.70267e-05,-4.56801,-0.0155905,-3.78435,0.629724,
2,0,0,1,0,67199.2,0.625993,0.625694,-0.0405572,102,0.598014,10,-2.53764e-05,-4.39193,-0.0298092,-1.97926,0.625712,
2,0,0,1,0,67200,0.621998,0.621697,-0.0524896,102,0.597971,10,-3.26327e-05,-4.27993,-0.0463361,-1.27331,0.621721,
2,0,0,0,0,67200.8,0.618003,0.61772,-0.062145,102,0.59792,10,-3.83882e-05,-4.20659,-0.0540475,-1.09163,0.617747,
2,0,0,1,0,67201.6,0.614008,0.613705,-0.071285,102,0.59786,10,-4.3748e-05,-4.147,-0.08981,-0.656943,0.613737,
2,0,0,1,0,67202.4,0.610012,0.609713,-0.0788171,102,0.597795,10,-4.80559e-05,-4.10338,-0.117906,-0.500397,0.609748,
2,0,0,1,0,67203.2,0.606017,0.605717,-0.0835162,102,0.597724,10,-5.05872e-05,-4.07823,-0.1355,-0.435423,0.605754,
2,0,0,1,0,67204,0.602022,0.60172,-0.0894786,102,0.597649,10,-5.3841e-05,-4.04828,-0.214265,-0.27536,0.601759,
2,0,0,0,0,67204.8,0.598027,0.597704,-0.093309,102,0.597571,10,-5.57711e-05,-4.03008,-0.186443,-0.316451,0.597745,
2,0,0,1,0,67205.6,0.594032,0.593697,-0.0973741,102,0.597489,10,-5.78107e-05,-4.01156,-0.279359,-0.211197,0.59374,
2,0,0,0,0,67206.4,0.590037,0.589747,-0.100251,102,0.597404,10,-5.91227e-05,-3.99891,-0.331554,-0.17795,0.589792,
2,0,0,1,0,67207.2,0.586041,0.585717,-0.102713,102,0.597317,10,-6.01608e-05,-3.98837,-0.330127,-0.178719,0.585762,
2,0,0,1,0,67208,0.582046,0.581752,-0.105135,102,0.597228,10,-6.11623e-05,-3.97825,-0.404995,-0.145681,0.581798,
2,0,0,1,0,67208.8,0.578052,0.577802,-0.108194,102,0.597137,10,-6.25148e-05,-3.9658,-0.439003,-0.134395,0.57785,
2,0,0,1,0,67209.6,0.574056,0.573781,-0.109656,102,0.597044,10,-6.29185e-05,-3.95997,-0.444547,-0.132719,0.573829,
2,0,0,0,0,67210.4,0.570061,0.569746,-0.111046,102,0.59695,10,-6.32679e-05,-3.9545,-3.45697,-0.017067,0.569795,
2,0,0,1,0,67211.2,0.566065,0.565741,-0.112884,102,0.596855,10,-6.3863e-05,-3.94737,-0.902291,-0.0653891,0.565791,
2,0,0,1,0,67212,0.56207,0.56175,-0.114186,102,0.596758,10,-6.41442e-05,-3.94239,-0.425363,-0.138705,0.5618,
2,0,0,1,0,67212.8,0.558075,0.557765,-0.115269,102,0.59666,10,-6.42932e-05,-3.93829,-0.784151,-0.0752406,0.557815,
2,0,0,1,0,67213.6,0.55408,0.553828,-0.116843,102,0.596562,10,-6.47111e-05,-3.9324,-1.43147,-0.0412163,0.553879,
2,0,0,0,0,67214.4,0.550085,0.54978,-0.117383,102,0.596462,10,-6.45345e-05,-3.9304,-8.49753,-0.0069432,0.549831,
2,0,0,1,0,67215.2,0.54609,0.545776,-0.119108,102,0.596362,10,-6.50063e-05,-3.92406,-0.513336,-0.114935,0.545828,
2,0,0,1,0,67216,0.542094,0.541789,-0.119656,102,0.596261,10,-6.48281e-05,-3.92207,-1.70107,-0.0346841,0.541842,
2,0,0,1,0,67216.8,0.538099,0.537818,-0.12132,102,0.596158,10,-6.52483e-05,-3.91607,-1.5377,-0.0383689,0.537872,
2,0,0,1,0,67217.6,0.534104,0.53381,-0.121368,102,0.596055,10,-6.47874e-05,-3.9159,-0.890525,-0.0662531,0.533864,
2,0,0,0,0,67218.4,0.530109,0.529795,-0.122546,102,0.595951,10,-6.49242e-05,-3.9117,-0.758248,-0.077811,0.529849,
2,0,0,1,0,67219.2,0.526114,0.52578,-0.124903,102,0.595847,10,-6.56716e-05,-3.90343,-2.32604,-0.025365,0.525835,
2,0,0,0,0,67220,0.522119,0.521782,-0.125315,102,0.595741,10,-6.53872e-05,-3.902,-0.812382,-0.0726259,0.521837,
2,0,0,1,0,67220.8,0.518123,0.517814,-0.126051,102,0.595635,10,-6.52713e-05,-3.89945,-5.70503,-0.0103418,0.51787,
2,0,0,1,0,67221.6,0.514128,0.513856,-0.126848,102,0.595528,10,-6.51817e-05,-3.89672,-0.794206,-0.074288,0.513912,
2,0,0,1,0,67222.4,0.510133,0.509806,-0.12755,102,0.59542,10,-6.50256e-05,-3.89432,-1.12727,-0.0523387,0.509862,
2,0,0,1,0,67223.2,0.506138,0.505819,-0.12792,102,0.595312,10,-6.47043e-05,-3.89306,5.24148,0.0112564,0.505876,
2,0,0,0,0,67224,0.502143,0.501828,-0.130333,102,0.595202,10,-6.54047e-05,-3.88495,-0.440188,-0.134034,0.501885,
2,0,0,1,0,67224.8,0.498148,0.497818,-0.131369,102,0.595092,10,-6.53976e-05,-3.88151,8.67584,0.00680049,0.497875,
2,0,0,1,0,67225.6,0.494152,0.493869,-0.131927,102,0.594981,10,-6.51544e-05,-3.87967,-0.549426,-0.107385,0.493927,
2,0,0,1,0,67226.4,0.490157,0.489835,-0.132726,102,0.594869,10,-6.50139e-05,-3.87704,-11.2479,-0.00524541,0.489893,
2,0,0,1,0,67227.2,0.486162,0.485881,-0.134237,102,0.594756,10,-6.52233e-05,-3.87213,-1.51783,-0.0388714,0.48594,
2,0,0,0,0,67228,0.482167,0.481828,-0.13438,102,0.594642,10,-6.47481e-05,-3.87166,-1.00664,-0.0586108,0.481887,
2,0,0,1,0,67228.8,0.478172,0.477898,-0.13626,102,0.594527,10,-6.51185e-05,-3.86563,-0.509312,-0.115843,0.477958,
2,0,0,0,0,67229.6,0.474177,0.473839,-0.13699,102,0.594411,10,-6.49113e-05,-3.86331,-10.8538,-0.00543591,0.473899,
2,0,0,1,0,67230.4,0.470181,0.469897,-0.139696,102,0.594295,10,-6.56428e-05,-3.85482,-0.681101,-0.0866245,0.469958,
2,0,0,1,0,67231.2,0.466186,0.465855,-0.140339,102,0.594177,10,-6.53776e-05,-3.85282,-1.08784,-0.0542361,0.465917,
2,0,0,1,0,67232,0.462191,0.461878,-0.141847,102,0.594058,10,-6.55161e-05,-3.84818,-0.858621,-0.0687149,0.46194,
2,0,0,1,0,67232.8,0.458196,0.457861,-0.142911,102,0.593938,10,-6.54333e-05,-3.84494,-0.999842,-0.0590093,0.457924,
2,0,0,0,0,67233.6,0.454201,0.453875,-0.144554,102,0.593816,10,-6.56094e-05,-3.83997,-0.751553,-0.0785041,0.453939,
2,0,0,1,0,67234.4,0.450205,0.449929,-0.145832,102,0.593693,10,-6.56141e-05,-3.83615,-1.01228,-0.0582844,0.449994,
2,0,0,1,0,67235.2,0.44621,0.445893,-0.147585,102,0.593569,10,-6.5807e-05,-3.83096,-0.974048,-0.060572,0.445957,
2,0,0,1,0,67236,0.442215,0.441946,-0.149011,102,0.593444,10,-6.58549e-05,-3.82678,-1.40446,-0.042009,0.442012,
2,0,0,1,0,67236.8,0.43822,0.4379,-0.150456,102,0.593318,10,-6.58848e-05,-3.82259,-0.623695,-0.0945976,0.437967,
2,0,0,0,0,67237.6,0.434225,0.433968,-0.152338,102,0.59319,10,-6.61098e-05,-3.81719,-1.11316,-0.0530021,0.434035,
2,0,0,1,0,67238.4,0.43023,0.429925,-0.154024,102,0.593061,10,-6.62186e-05,-3.81241,-0.806333,-0.0731708,0.429993,
2,0,0,1,0,67239.2,0.426234,0.425919,-0.155521,102,0.59293,10,-6.62394e-05,-3.80821,-0.839848,-0.0702508,0.425987,
2,0,0,1,0,67240,0.422239,0.42194,-0.157301,102,0.592798,10,-6.63718e-05,-3.80327,-0.706058,-0.0835626,0.422009,
2,0,0,1,0,67240.8,0.418244,0.417964,-0.158398,102,0.592665,10,-6.62048e-05,-3.80025,-0.642148,-0.0918791,0.418034,
2,0,0,0,0,67241.6,0.414249,0.413954,-0.160365,102,0.59253,10,-6.63837e-05,-3.79489,-0.723236,-0.0815778,0.414025,
2,0,0,1,0,67242.4,0.410254,0.409916,-0.164207,102,0.592393,10,-6.73113e-05,-3.78461,-3.23025,-0.0182649,0.409988,
2,0,0,0,0,67243.2,0.406259,0.405938,-0.164997,102,0.592255,10,-6.69784e-05,-3.78252,-0.591476,-0.0997505,0.40601,
2,0,0,1,0,67244,0.402263,0.401926,-0.167056,102,0.592115,10,-6.7144e-05,-3.77714,-0.68788,-0.0857708,0.401999,
2,0,0,1,0,67244.8,0.398268,0.397981,-0.16916,102,0.591974,10,-6.73227e-05,-3.7717,-0.523009,-0.112809,0.398056,
2,0,0,1,0,67245.6,0.394274,0.393967,-0.171471,102,0.59183,10,-6.75539e-05,-3.76581,-0.941414,-0.0626717,0.394042,
2,0,0,1,0,67246.4,0.390278,0.38999,-0.172913,102,0.591686,10,-6.74344e-05,-3.76217,-0.800282,-0.073724,0.390066,
2,0,0,0,0,67247.2,0.386283,0.386001,-0.174693,102,0.591539,10,-6.74317e-05,-3.75772,-0.872831,-0.0675961,0.386078,
2,0,0,1,0,67248,0.382287,0.381964,-0.175953,102,0.591391,10,-6.72079e-05,-3.7546,-1.0864,-0.0543076,0.382042,
2,0,0,1,0,67248.8,0.378292,0.377995,-0.178898,102,0.591241,10,-6.76225e-05,-3.74739,-0.922949,-0.0639255,0.378073,
2,0,0,1,0,67249.6,0.374297,0.374032,-0.180875,102,0.59109,10,-6.7653e-05,-3.74262,-0.583431,-0.101126,0.374112,
2,0,0,1,0,67250.4,0.370302,0.369972,-0.183476,102,0.590937,10,-6.78809e-05,-3.73642,-0.795824,-0.074137,0.370053,
2,0,0,0,0,67251.2,0.366307,0.365983,-0.184904,102,0.590782,10,-6.76715e-05,-3.73305,-0.907749,-0.064996,0.366064,
2,0,0,1,0,67252,0.362312,0.36201,-0.186791,102,0.590625,10,-6.76203e-05,-3.72864,-0.959137,-0.0615136,0.362092,
2,0,0,1,0,67252.8,0.358316,0.358046,-0.189324,102,0.590467,10,-6.77869e-05,-3.72279,-2.25844,-0.0261243,0.35813,
2,0,0,1,0,67253.6,0.354321,0.353985,-0.191139,102,0.590307,10,-6.76605e-05,-3.71865,-0.53621,-0.110032,0.354069,
2,0,0,1,0,67254.4,0.350327,0.350024,-0.1926,102,0.590145,10,-6.74145e-05,-3.71534,-0.579386,-0.101832,0.350108,
2,0,0,0,0,67255.2,0.346331,0.346043,-0.195952,102,0.589981,10,-6.78076e-05,-3.70785,-1.07223,-0.0550255,0.346129,
2,0,0,1,0,67256,0.342336,0.342043,-0.198054,102,0.589815,10,-6.7743e-05,-3.70322,-0.547108,-0.10784,0.34213,
2,0,0,0,0,67256.7,0.338341,0.338014,-0.200972,102,0.589647,10,-6.79315e-05,-3.69686,-1.56642,-0.0376655,0.338103,
2,0,0,1,0,67257.5,0.334345,0.334072,-0.2027,102,0.589478,10,-6.77164e-05,-3.69315,-0.794255,-0.0742834,0.334162,
2,0,0,1,0,67258.3,0.33035,0.330048,-0.204893,102,0.589306,10,-6.76243e-05,-3.68847,-0.867364,-0.0680222,0.330138,
2,0,0,1,0,67259.1,0.326355,0.326028,-0.206991,102,0.589133,10,-6.74847e-05,-3.68405,-0.785515,-0.07511,0.326119,
2,0,0,1,0,67259.9,0.32236,0.322091,-0.20916,102,0.588958,10,-6.73685e-05,-3.67952,-0.668271,-0.0882876,0.322183,
2,0,0,0,0,67260.7,0.318365,0.318066,-0.211428,102,0.58878,10,-6.72482e-05,-3.67484,-1.04943,-0.0562208,0.318159,
2,0,0,1,0,67261.5,0.31437,0.314039,-0.214456,102,0.588601,10,-6.73475e-05,-3.66866,-1.12242,-0.0525649,0.314133,
2,0,0,1,0,67262.3,0.310374,0.31004,-0.216229,102,0.588421,10,-6.70394e-05,-3.66509,-0.670979,-0.0879313,0.310135,
2,0,0,1,0,67263.1,0.306379,0.306084,-0.219042,102,0.588237,10,-6.70451e-05,-3.65947,-0.855729,-0.0689471,0.30618,
2,0,0,1,0,67263.9,0.302385,0.302098,-0.220908,102,0.588053,10,-6.67358e-05,-3.65579,-0.553975,-0.106503,0.302195,
2,0,0,0,0,67264.7,0.298389,0.298085,-0.2236,102,0.587866,10,-6.66517e-05,-3.65053,-1.24284,-0.047472,0.298183,
2,0,0,1,0,67265.5,0.294394,0.294092,-0.226109,102,0.587677,10,-6.64968e-05,-3.64568,-1.08401,-0.0544277,0.294192,
2,0,0,1,0,67266.3,0.290398,0.29008,-0.229635,102,0.587486,10,-6.66126e-05,-3.63896,-0.630681,-0.0935497,0.290181,
2,0,0,1,0,67267.1,0.286403,0.286088,-0.230453,102,0.587293,10,-6.593e-05,-3.63742,-0.975164,-0.0605026,0.286189,
2,0,0,1,0,67267.9,0.282408,0.282079,-0.234541,102,0.587098,10,-6.6159e-05,-3.62978,-0.995529,-0.059265,0.282183,
2,0,0,1,0,67268.7,0.278413,0.278118,-0.236246,102,0.586901,10,-6.57042e-05,-3.62664,-0.584633,-0.100918,0.278222,
2,0,0,1,0,67269.5,0.274418,0.274104,-0.238607,102,0.586702,10,-6.5403e-05,-3.62232,-1.12491,-0.0524488,0.274209,
2,0,0,0,0,67270.3,0.270423,0.270087,-0.242126,102,0.5865,10,-6.5395e-05,-3.61596,-0.753088,-0.0783441,0.270193,
2,0,0,1,0,67271.1,0.266427,0.266103,-0.244593,102,0.586297,10,-6.50868e-05,-3.61156,-1.181,-0.0499577,0.26621,
2,0,0,1,0,67271.9,0.262432,0.26208,-0.246745,102,0.586091,10,-6.46668e-05,-3.60775,-1.2249,-0.0481672,0.262188,
2,0,0,1,0,67272.7,0.258437,0.258118,-0.24957,102,0.585884,10,-6.44186e-05,-3.60281,-0.85096,-0.0693335,0.258228,
2,0,0,1,0,67273.5,0.254442,0.254148,-0.250655,102,0.585674,10,-6.37034e-05,-3.60092,-0.888005,-0.0664411,0.254258,
2,0,0,0,0,67274.3,0.250447,0.250089,-0.254096,102,0.585463,10,-6.35464e-05,-3.595,-1.73857,-0.0339359,0.2502,
2,0,0,1,0,67275.1,0.246452,0.246115,-0.256167,102,0.58525,10,-6.30466e-05,-3.59148,-0.665426,-0.088665,0.246228,
2,0,0,1,0,67275.9,0.242456,0.242131,-0.25893,102,0.585035,10,-6.2695e-05,-3.58682,-1.4601,-0.0404082,0.242245,
2,0,0,1,0,67276.7,0.238461,0.238157,-0.260343,102,0.584819,10,-6.20025e-05,-3.58445,-1.06661,-0.0553154,0.238271,
2,0,0,1,0,67277.5,0.234466,0.234122,-0.263518,102,0.5846,10,-6.16951e-05,-3.57919,-0.848055,-0.0695709,0.234237,
2,0,0,0,0,67278.3,0.230471,0.230131,-0.26539,102,0.58438,10,-6.10743e-05,-3.57612,-1.50443,-0.0392175,0.230247,
2,0,0,1,0,67279.1,0.226476,0.226179,-0.268632,102,0.584157,10,-6.07587e-05,-3.57084,-0.595898,-0.0990102,0.226297,
2,0,0,0,0,67279.9,0.222481,0.222211,-0.269385,102,0.583933,10,-5.98602e-05,-3.56963,-2.21216,-0.0266707,0.222329,
2,0,0,1,0,67280.7,0.218485,0.21818,-0.273214,102,0.583707,10,-5.96098e-05,-3.5635,-1.13075,-0.0521776,0.2183,
2,0,0,1,0,67281.5,0.21449,0.214172,-0.275441,102,0.583478,10,-5.89918e-05,-3.55997,-0.875859,-0.0673624,0.214293,
2,0,0,1,0,67282.3,0.210496,0.210154,-0.278505,102,0.583248,10,-5.85288e-05,-3.55517,-0.735812,-0.0801835,0.210276,
2,0,0,1,0,67283.1,0.2065,0.206166,-0.282533,102,0.583015,10,-5.82486e-05,-3.54893,-0.911807,-0.0647067,0.20629,
2,0,0,0,0,67283.9,0.202505,0.202191,-0.28329,102,0.58278,10,-5.72787e-05,-3.54777,-0.929256,-0.0634917,0.202316,
2,0,0,1,0,67284.7,0.198509,0.198183,-0.287118,102,0.582542,10,-5.69019e-05,-3.54194,-1.06721,-0.0552842,0.19831,
2,0,0,1,0,67285.5,0.194514,0.194153,-0.289308,102,0.582302,10,-5.617e-05,-3.53864,-0.625865,-0.0942695,0.19428,
2,0,0,1,0,67286.3,0.19052,0.190159,-0.292106,102,0.582058,10,-5.55466e-05,-3.53446,-0.775785,-0.076052,0.190287,
2,0,0,1,0,67287.1,0.186524,0.18621,-0.296632,102,0.581812,10,-5.52357e-05,-3.52778,-0.737171,-0.0800357,0.18634,
2,0,0,0,0,67287.9,0.182529,0.182213,-0.30217,102,0.581563,10,-5.50594e-05,-3.51975,-0.571069,-0.103315,0.182346,
2,0,0,1,0,67288.7,0.178534,0.178198,-0.30711,102,0.58131,10,-5.47265e-05,-3.51271,-0.869626,-0.0678453,0.178333,
2,0,0,1,0,67289.5,0.174538,0.174236,-0.311459,102,0.581053,10,-5.42674e-05,-3.5066,-0.464358,-0.127057,0.174374,
2,0,0,1,0,67290.3,0.170543,0.170214,-0.317023,102,0.580792,10,-5.39616e-05,-3.49891,-0.434984,-0.135637,0.170353,
2,0,0,1,0,67291.1,0.166549,0.166211,-0.322932,102,0.580526,10,-5.36748e-05,-3.49089,-0.448037,-0.131686,0.166353,
2,0,0,0,0,67291.9,0.162553,0.162242,-0.331394,102,0.580254,10,-5.37662e-05,-3.47966,-0.316141,-0.186626,0.162388,
2,0,0,1,0,67292.7,0.158558,0.158192,-0.340525,102,0.579975,10,-5.38683e-05,-3.46785,-0.287209,-0.205425,0.158342,
2,0,0,0,0,67293.5,0.154563,0.154203,-0.354698,102,0.579686,10,-5.46957e-05,-3.45014,-0.250342,-0.235677,0.15436,
2,0,0,1,0,67294.3,0.150567,0.150234,-0.370636,102,0.579386,10,-5.56823e-05,-3.43105,-0.17527,-0.336623,0.150397,
2,0,0,1,0,67295.1,0.146572,0.146254,-0.393059,102,0.579072,10,-5.74864e-05,-3.40554,-0.148247,-0.397985,0.146427,
2,0,0,1,0,67295.9,0.142578,0.14222,-0.420092,102,0.578738,10,-5.97455e-05,-3.37666,-0.12192,-0.483926,0.142405,
2,0,0,1,0,67296.7,0.138582,0.13824,-0.454681,102,0.578378,10,-6.28552e-05,-3.34229,-0.107117,-0.550801,0.13844,
2,0,0,0,0,67297.5,0.134587,0.134248,-0.49802,102,0.577987,10,-6.6858e-05,-3.30275,-0.106953,-0.551643,0.134467,
2,0,0,1,0,67298.3,0.130591,0.130282,-0.539758,102,0.577562,10,-7.03209e-05,-3.2678,-0.112562,-0.524154,0.13052,
2,0,0,1,0,67299.1,0.126596,0.126298,-0.579199,102,0.577103,10,-7.31516e-05,-3.23717,-0.140267,-0.420627,0.126553,
2,0,0,1,0,67299.9,0.122602,0.122313,-0.616047,102,0.576613,10,-7.53506e-05,-3.21039,-0.203421,-0.290039,0.122584,
2,0,0,1,0,67300.7,0.118607,0.118269,-0.638444,102,0.576101,10,-7.55081e-05,-3.19488,-0.283093,-0.208412,0.11855,
2,0,0,0,0,67301.5,0.114611,0.114287,-0.652148,102,0.575574,10,-7.45318e-05,-3.18565,-0.641404,-0.0919857,0.114574,
2,0,0,1,0,67302.3,0.110616,0.110299,-0.659788,102,0.575039,10,-7.27743e-05,-3.1806,-1.47271,-0.0400621,0.11059,
2,0,0,1,0,67303.1,0.10662,0.106284,-0.660921,102,0.5745,10,-7.02457e-05,-3.17985,-2.60766,-0.0226257,0.106575,
2,0,0,1,0,67303.9,0.102625,0.102288,-0.662096,102,0.57396,10,-6.77244e-05,-3.17908,2.42226,0.0243574,0.102579,
2,0,0,1,0,67304.7,0.0986305,0.0982854,-0.660861,102,0.573421,10,-6.4953e-05,-3.17989,6.70943,0.00879359,0.0985762,
2,0,0,0,0,67305.5,0.0946351,0.0943117,-0.655411,102,0.572883,10,-6.18129e-05,-3.18349,1.31432,0.0448902,0.0946001,
2,0,0,1,0,67306.3,0.0906399,0.0903013,-0.653428,102,0.572349,10,-5.90054e-05,-3.1848,1.02845,0.057368,0.0905888,
2,0,0,0,0,67307.1,0.0866448,0.0862738,-0.64726,102,0.571819,10,-5.58416e-05,-3.18892,0.989035,0.0596541,0.0865586,
2,0,0,1,0,67307.9,0.0826493,0.082296,-0.640261,102,0.571294,10,-5.26909e-05,-3.19364,0.837098,0.0704816,0.0825777,
2,0,0,1,0,67308.7,0.0786544,0.0783071,-0.633406,102,0.570774,10,-4.96002e-05,-3.19832,0.933059,0.0632329,0.0785858,
2,0,0,1,0,67309.5,0.0746596,0.0743946,-0.625044,102,0.570261,10,-4.64999e-05,-3.20409,0.689202,0.0856062,0.0746696,
2,0,0,1,0,67310.3,0.0706641,0.0703317,-0.61761,102,0.569754,10,-4.34375e-05,-3.20929,0.61303,0.0962432,0.0706034,
2,0,0,0,0,67311.1,0.0666689,0.0663573,-0.609652,102,0.569253,10,-4.04549e-05,-3.21492,1.02757,0.0574169,0.0666255,
2,0,0,1,0,67311.9,0.0626737,0.0623606,-0.600527,102,0.568757,10,-3.74492e-05,-3.22147,0.565809,0.104275,0.0626248,
2,0,0,1,0,67312.7,0.0586783,0.0583329,-0.593743,102,0.568269,10,-3.46348e-05,-3.2264,0.61217,0.0963785,0.0585942,
2,0,0,1,0,67313.5,0.0546835,0.0543462,-0.584591,102,0.567787,10,-3.17703e-05,-3.23315,0.759366,0.0776964,0.0546034,
2,0,0,1,0,67314.3,0.0506886,0.0503829,-0.575473,102,0.567312,10,-2.8994e-05,-3.23998,0.495288,0.119123,0.0506361,
2,0,0,0,0,67315.1,0.046693,0.0463983,-0.565536,102,0.566845,10,-2.62399e-05,-3.24754,0.621188,0.0949792,0.0466471,
2,0,0,1,0,67315.9,0.0426978,0.0423391,-0.556351,102,0.566386,10,-2.35554e-05,-3.25465,0.500103,0.117976,0.0425839,
2,0,0,1,0,67316.7,0.0387022,0.0383335,-0.547694,102,0.565934,10,-2.0995e-05,-3.26146,0.475443,0.124095,0.0385744,
2,0,0,1,0,67317.5,0.0347074,0.0344048,-0.537731,102,0.56549,10,-1.85005e-05,-3.26943,0.616547,0.0956942,0.0346414,
2,0,0,1,0,67318.3,0.0307126,0.030433,-0.526666,102,0.565054,10,-1.60281e-05,-3.27846,0.558177,0.105701,0.0306648,
2,0,0,0,0,67319.1,0.0267172,0.0264118,-0.5204,102,0.564625,10,-1.37447e-05,-3.28366,0.511456,0.115357,0.0266407,
2,0,0,1,0,67319.9,0.022722,0.0223918,-0.51284,102,0.564202,10,-1.14834e-05,-3.29002,1.02492,0.0575655,0.0226174,
2,0,0,0,0,67320.7,0.0187268,0.0183951,-0.506394,102,0.563784,10,-9.31517e-06,-3.29551,0.793784,0.0743276,0.0186179,
2,0,0,1,0,67321.5,0.0147313,0.0143843,-0.5033,102,0.563371,10,-7.23965e-06,-3.29817,1.45393,0.0405796,0.0146058,
2,0,0,1,0,67322.3,0.0107365,0.0103742,-0.49877,102,0.562961,10,-5.17435e-06,-3.3021,2.17057,0.0271818,0.0105937,
2,0,0,1,0,67323.1,0.00674163,0.00643195,-0.497773,102,0.562552,10,-3.20165e-06,-3.30297,2.43134,0.0242664,0.00665097,
2,0,0,1,0,67323.9,0.00274612,0.00240522,-0.498772,102,0.562144,10,-1.19966e-06,-3.3021,-1.00698,-0.0585908,0.00262468,
2,0,0,0,0,67324.4,0.000274105,-9.38898e-05,-0.501245,102,0.561889,10,4.70618e-08,-3.29995, , ,0.000126658,