File: Figure_codes/Fig_3-5/workspace_calculate_alpha_eff/20221101_1-115_003_TrumpetPlot_ParaChange_from10_every3_16_CV_C01_79.csv
mode,ox/red,error,control changes,counter inc.,time/s,control/V,Ewe/V,<I>/mA,cycle number,(Q-Qo)/C,I Range,P/W,log(|I|),Tafel slope mV/dec,alpha_eff,E-IR/V,
2,0,0,0,0,52823.5,2.44065e-05,-0.000382585,-0.10003,80,0.0000000E+000,10,3.82701e-08,-3.99987, , ,-0.000338572,
2,1,0,0,0,52824.3,0.00379485,0.00349002,0.151216,80,9.2546e-05,10,5.27746e-07,-3.8204,0.0329095,1.79279,0.00342348,
2,1,0,1,0,52825.1,0.00779002,0.00747609,0.174134,80,0.000234356,10,1.30184e-06,-3.75912,0.0736701,0.800867,0.00739947,
2,1,0,0,0,52825.9,0.0117852,0.0114409,0.190179,80,0.000391663,10,2.17583e-06,-3.72084,0.119539,0.493564,0.0113573,
2,1,0,1,0,52826.7,0.0157806,0.0154431,0.205637,80,0.000560608,10,3.17569e-06,-3.6869,0.143662,0.410687,0.0153527,
2,1,0,1,0,52827.5,0.0197754,0.0194087,0.216821,80,0.000740003,10,4.20821e-06,-3.6639,0.162776,0.36246,0.0193133,
2,1,0,1,0,52828.3,0.0237704,0.0234446,0.231766,80,0.000930002,10,5.43366e-06,-3.63495,0.144611,0.40799,0.0233426,
2,1,0,1,0,52829.1,0.0277659,0.0274435,0.244802,80,0.00113039,10,6.71824e-06,-3.61118,0.177079,0.333184,0.0273358,
2,1,0,0,0,52829.9,0.0317611,0.0314296,0.257187,80,0.00134183,10,8.08329e-06,-3.58975,0.170176,0.3467,0.0313164,
2,1,0,1,0,52830.7,0.0357567,0.0354353,0.271605,80,0.00156438,10,9.62439e-06,-3.56606,0.215685,0.273547,0.0353157,
2,1,0,1,0,52831.5,0.0397516,0.0393829,0.284373,80,0.00179771,10,1.11995e-05,-3.54611,0.163441,0.360987,0.0392578,
2,1,0,1,0,52832.3,0.0437465,0.0434226,0.298418,80,0.00204259,10,1.29581e-05,-3.52517,0.204409,0.288637,0.0432913,
2,1,0,1,0,52833.1,0.0477413,0.0474054,0.312077,80,0.00229745,10,1.47942e-05,-3.50574,0.210955,0.279681,0.0472681,
2,1,0,0,0,52833.9,0.0517369,0.0513939,0.324702,80,0.00256245,10,1.66877e-05,-3.48851,0.262306,0.224928,0.051251,
2,1,0,1,0,52834.7,0.0557321,0.0554202,0.336939,80,0.00283726,10,1.86732e-05,-3.47245,0.298647,0.197558,0.055272,
2,1,0,1,0,52835.4,0.0597277,0.0594119,0.346735,80,0.00312058,10,2.06002e-05,-3.46,0.309732,0.190487,0.0592594,
2,1,0,1,0,52836.2,0.0637226,0.0634043,0.356819,80,0.00341262,10,2.26238e-05,-3.44755,0.324766,0.181669,0.0632473,
2,1,0,1,0,52837,0.0677174,0.067392,0.366905,80,0.003713,10,2.47264e-05,-3.43545,0.415184,0.142106,0.0672306,
2,1,0,0,0,52837.8,0.0717128,0.0713454,0.375287,80,0.00402032,10,2.6775e-05,-3.42564,0.343567,0.171728,0.0711803,
2,1,0,1,0,52838.6,0.075708,0.0753612,0.382656,80,0.00433466,10,2.88374e-05,-3.41719,0.487495,0.121027,0.0751928,
2,1,0,0,0,52839.4,0.0797031,0.0793897,0.391413,80,0.00465494,10,3.10742e-05,-3.40736,0.404075,0.146012,0.0792174,
2,1,0,1,0,52840.2,0.0836986,0.0833559,0.399998,80,0.00498173,10,3.33421e-05,-3.39794,0.421102,0.140109,0.0831799,
2,1,0,1,0,52841,0.0876935,0.0873746,0.409988,80,0.00531624,10,3.58225e-05,-3.38723,0.346751,0.170151,0.0871942,
2,1,0,1,0,52841.8,0.0916883,0.0913422,0.423238,80,0.00565963,10,3.86595e-05,-3.37342,0.256026,0.230446,0.0911559,
2,1,0,1,0,52842.6,0.0956838,0.0953477,0.436891,80,0.00601452,10,4.16566e-05,-3.35963,0.237567,0.248351,0.0951555,
2,1,0,0,0,52843.4,0.099679,0.0993836,0.45759,80,0.00638337,10,4.5477e-05,-3.33952,0.228506,0.258199,0.0991823,
2,1,0,1,0,52844.2,0.103674,0.103345,0.477713,80,0.00676802,10,4.93694e-05,-3.32083,0.18623,0.316812,0.103135,
2,1,0,1,0,52845,0.10767,0.10735,0.499468,80,0.00717028,10,5.36177e-05,-3.30149,0.226728,0.260224,0.10713,
2,1,0,1,0,52845.8,0.111664,0.111352,0.519569,80,0.00758846,10,5.78552e-05,-3.28436,0.269044,0.219295,0.111124,
2,1,0,1,0,52846.6,0.115659,0.115289,0.533797,80,0.00802006,10,6.15411e-05,-3.27262,0.329101,0.179276,0.115054,
2,1,0,0,0,52847.4,0.119655,0.119336,0.54623,80,0.0084634,10,6.5185e-05,-3.26262,0.6844,0.0862069,0.119096,
2,1,0,1,0,52848.2,0.12365,0.123329,0.556369,80,0.00891457,10,6.86163e-05,-3.25464,0.530745,0.111164,0.123084,
2,1,0,1,0,52849,0.127646,0.127301,0.561735,80,0.00937284,10,7.15097e-05,-3.25047,1.06322,0.0554919,0.127054,
2,1,0,1,0,52849.8,0.131641,0.131283,0.56387,80,0.00983476,10,7.40265e-05,-3.24882,-0.843362,-0.0699581,0.131035,
2,1,0,1,0,52850.6,0.135635,0.135302,0.554303,80,0.0102927,10,7.4998e-05,-3.25625,-0.319476,-0.184677,0.135058,
2,1,0,0,0,52851.4,0.139631,0.139298,0.523617,80,0.0107356,10,7.2939e-05,-3.28099,-0.126815,-0.465245,0.139068,
2,1,0,1,0,52852.2,0.143626,0.143322,0.477577,80,0.0111481,10,6.8447e-05,-3.32096,-0.0824659,-0.715447,0.143111,
2,1,0,0,0,52853,0.147621,0.147294,0.423199,80,0.0115188,10,6.23346e-05,-3.37346,-0.0732737,-0.8052,0.147108,
2,1,0,1,0,52853.8,0.151617,0.151288,0.372962,80,0.0118469,10,5.64246e-05,-3.42834,-0.0786269,-0.75038,0.151124,
2,1,0,1,0,52854.6,0.155612,0.155237,0.338714,80,0.0121405,10,5.25808e-05,-3.47017,-0.118014,-0.49994,0.155088,
2,1,0,1,0,52855.4,0.159606,0.15929,0.315688,80,0.0124115,10,5.02859e-05,-3.50074,-0.151088,-0.390501,0.159151,
2,1,0,1,0,52856.2,0.163602,0.163277,0.300016,80,0.0126676,10,4.89859e-05,-3.52286,-0.205027,-0.287767,0.163145,
2,1,0,0,0,52857,0.167597,0.16731,0.290451,80,0.0129136,10,4.85953e-05,-3.53693,-0.367617,-0.160493,0.167182,
2,1,0,1,0,52857.8,0.171592,0.171284,0.282487,80,0.0131528,10,4.83856e-05,-3.549,-0.386632,-0.1526,0.17116,
2,1,0,1,0,52858.6,0.175588,0.175273,0.277139,80,0.0133867,10,4.8575e-05,-3.5573,-0.574385,-0.102719,0.175151,
2,1,0,1,0,52859.4,0.179582,0.179278,0.273739,80,0.0136166,10,4.90753e-05,-3.56266,-0.772011,-0.0764238,0.179157,
2,1,0,1,0,52860.2,0.183577,0.183234,0.270389,80,0.0138441,10,4.95444e-05,-3.56801,-0.668616,-0.0882419,0.183115,
2,1,0,0,0,52861,0.187573,0.187288,0.267695,80,0.014069,10,5.01361e-05,-3.57236,-1.01323,-0.0582295,0.18717,
2,1,0,1,0,52861.8,0.191568,0.191221,0.265104,80,0.014292,10,5.06934e-05,-3.57658,-1.74949,-0.0337241,0.191105,
2,1,0,0,0,52862.6,0.195563,0.195288,0.263299,80,0.0145138,10,5.14191e-05,-3.57955,-0.836485,-0.0705332,0.195172,
2,1,0,1,0,52863.4,0.199559,0.199234,0.262568,80,0.0147339,10,5.23124e-05,-3.58076,-10.78,-0.0054731,0.199118,
2,1,0,1,0,52864.2,0.203553,0.203154,0.260019,80,0.0149529,10,5.28238e-05,-3.585,-2.04943,-0.0287885,0.203039,
2,1,0,1,0,52865,0.207548,0.20724,0.260625,80,0.0151708,10,5.4012e-05,-3.58398,-1.20785,-0.048847,0.207126,
2,1,0,1,0,52865.8,0.211544,0.211209,0.257931,80,0.0153873,10,5.44772e-05,-3.5885,-1.68202,-0.0350768,0.211095,
2,1,0,0,0,52866.6,0.215539,0.21526,0.256978,80,0.0156029,10,5.5317e-05,-3.5901,-1.98854,-0.02967,0.215146,
2,1,0,1,0,52867.4,0.219535,0.219234,0.255909,80,0.0158173,10,5.6104e-05,-3.59191,-2.23885,-0.0263528,0.219122,
2,1,0,1,0,52868.2,0.223529,0.223224,0.254536,80,0.0160308,10,5.68187e-05,-3.59425,-3.23171,-0.0182566,0.223112,
2,1,0,1,0,52869,0.227524,0.227243,0.253291,80,0.0162434,10,5.75586e-05,-3.59638,-1.02723,-0.0574362,0.227131,
2,1,0,1,0,52869.8,0.23152,0.231217,0.251719,80,0.0164552,10,5.82016e-05,-3.59908,-5.07236,-0.0116317,0.231106,
2,1,0,0,0,52870.6,0.235515,0.235202,0.250248,80,0.0166662,10,5.88588e-05,-3.60163,8.20833,0.00718782,0.235091,
2,1,0,1,0,52871.4,0.23951,0.239202,0.251161,80,0.0168766,10,6.00783e-05,-3.60005,-2.40347,-0.0245479,0.239092,
2,1,0,1,0,52872.2,0.243506,0.243191,0.249239,80,0.0170862,10,6.06128e-05,-3.60338,-67.2082,-0.000877869,0.243081,
2,1,0,1,0,52873,0.2475,0.247177,0.249795,80,0.0172956,10,6.17436e-05,-3.60242,-1.42555,-0.0413877,0.247067,
2,1,0,1,0,52873.8,0.251495,0.251175,0.24826,80,0.0175041,10,6.23567e-05,-3.60509,-2.11046,-0.027956,0.251066,
2,1,0,0,0,52874.6,0.255491,0.255186,0.246871,80,0.0177122,10,6.2998e-05,-3.60753,-18.2791,-0.00322772,0.255077,
2,1,0,1,0,52875.4,0.259486,0.259146,0.246997,80,0.0179199,10,6.40083e-05,-3.60731,-0.954958,-0.0617828,0.259037,
2,1,0,0,0,52876.2,0.263481,0.263155,0.246498,80,0.0181266,10,6.48673e-05,-3.60819,-23.278,-0.00253458,0.263046,
2,1,0,1,0,52877,0.267477,0.267178,0.24487,80,0.0183328,10,6.54241e-05,-3.61106,-7.05996,-0.00835699,0.267071,
2,1,0,1,0,52877.8,0.271471,0.27115,0.244801,80,0.0185382,10,6.6378e-05,-3.61119,-2.61795,-0.0225367,0.271043,
2,1,0,1,0,52878.6,0.275466,0.275148,0.24373,80,0.0187428,10,6.70619e-05,-3.61309,-3.5033,-0.0168413,0.27504,
2,1,0,1,0,52879.4,0.279462,0.279136,0.24344,80,0.0189468,10,6.7953e-05,-3.61361,-1.43988,-0.0409757,0.279029,
2,1,0,0,0,52880.2,0.283457,0.283139,0.241629,80,0.0191498,10,6.84148e-05,-3.61685,-8.02233,-0.00735447,0.283033,
2,1,0,1,0,52881,0.287452,0.287129,0.240939,80,0.0193523,10,6.91804e-05,-3.61809,-2.88895,-0.0204226,0.287023,
2,1,0,1,0,52881.8,0.291448,0.291085,0.240239,80,0.0195539,10,6.99302e-05,-3.61936,-0.766969,-0.0769261,0.29098,
2,1,0,1,0,52882.6,0.295442,0.295102,0.238833,80,0.0197544,10,7.04801e-05,-3.62191,1.80736,0.0326442,0.294997,
2,1,0,1,0,52883.4,0.299437,0.299127,0.236563,80,0.0199546,10,7.07622e-05,-3.62605,-1.06342,-0.0554812,0.299022,
2,1,0,0,0,52884.2,0.303433,0.303097,0.237165,80,0.0201536,10,7.18842e-05,-3.62495,-3.88217,-0.0151977,0.302993,
2,1,0,1,0,52885,0.307428,0.307089,0.236733,80,0.020352,10,7.26979e-05,-3.62574,6.45387,0.00914179,0.306984,
2,1,0,1,0,52885.8,0.311424,0.31109,0.236993,80,0.0205501,10,7.37263e-05,-3.62526,-1.35415,-0.0435698,0.310986,
2,1,0,1,0,52886.6,0.315418,0.315101,0.236434,80,0.0207472,10,7.45007e-05,-3.62629,-7.9677,-0.0074049,0.314997,
2,1,0,1,0,52887.4,0.319413,0.319142,0.234156,80,0.0209439,10,7.47292e-05,-3.63049,-4.11622,-0.0143335,0.319039,
2,1,0,0,0,52888.2,0.323409,0.323124,0.233604,80,0.0211403,10,7.54831e-05,-3.63152,-1.24192,-0.047507,0.323021,
2,1,0,1,0,52889,0.327404,0.327078,0.232782,80,0.0213357,10,7.61381e-05,-3.63305,-61.5345,-0.000958811,0.326976,
2,1,0,0,0,52889.8,0.331399,0.331129,0.231761,80,0.0215307,10,7.67428e-05,-3.63496,-3.50753,-0.016821,0.331027,
2,1,0,1,0,52890.6,0.335395,0.335101,0.232997,80,0.0217253,10,7.80774e-05,-3.63265,-2.73021,-0.02161,0.334998,
2,1,0,1,0,52891.4,0.339389,0.339135,0.231184,80,0.0219193,10,7.84027e-05,-3.63604,-4.48222,-0.0131631,0.339033,
2,1,0,1,0,52892.2,0.343384,0.343058,0.230359,80,0.0221129,10,7.90265e-05,-3.6376,-7.75789,-0.00760516,0.342957,
2,1,0,1,0,52893,0.34738,0.347064,0.230352,80,0.0223058,10,7.99467e-05,-3.63761,-3.1655,-0.0186384,0.346962,
2,1,0,0,0,52893.8,0.351375,0.351074,0.229395,80,0.0224984,10,8.05346e-05,-3.63942,11.9314,0.00494496,0.350973,
2,1,0,1,0,52894.6,0.35537,0.355073,0.229919,80,0.0226906,10,8.16382e-05,-3.63842,-1.50065,-0.0393162,0.354972,
2,1,0,1,0,52895.4,0.359366,0.359034,0.228972,80,0.0228821,10,8.22087e-05,-3.64022,64.6203,0.000913025,0.358933,
2,1,0,1,0,52896.2,0.36336,0.363016,0.228649,80,0.0230735,10,8.30033e-05,-3.64083,-1.65633,-0.035621,0.362916,
2,1,0,1,0,52897,0.367355,0.367038,0.227608,80,0.0232642,10,8.35409e-05,-3.64281,29.8108,0.00197915,0.366938,
2,1,0,0,0,52897.8,0.371351,0.37106,0.227581,80,0.0234544,10,8.44461e-05,-3.64286,4.6969,0.0125615,0.37096,
2,1,0,1,0,52898.6,0.375346,0.375045,0.228174,80,0.0236448,10,8.55755e-05,-3.64173,-37.4148,-0.00157691,0.374944,
2,1,0,1,0,52899.4,0.379342,0.379034,0.227369,80,0.0238347,10,8.61808e-05,-3.64327,-2.12067,-0.0278214,0.378934,
2,1,0,1,0,52900.2,0.383336,0.383034,0.227161,80,0.0240243,10,8.70104e-05,-3.64367,-10.6002,-0.00556595,0.382934,
2,1,0,1,0,52901,0.387331,0.387035,0.226309,80,0.0242137,10,8.75896e-05,-3.6453,-1.74351,-0.0338398,0.386935,
2,1,0,0,0,52901.8,0.391327,0.391,0.225428,80,0.0244024,10,8.81424e-05,-3.64699,2.37121,0.0248818,0.3909,
2,1,0,1,0,52902.6,0.395322,0.394964,0.225287,80,0.0245909,10,8.89803e-05,-3.64726,-4.03107,-0.0146363,0.394865,
2,1,0,0,0,52903.4,0.399317,0.399001,0.225838,80,0.0247791,10,9.01095e-05,-3.6462,-6.06879,-0.00972187,0.398902,
2,1,0,1,0,52904.2,0.403313,0.402999,0.225509,80,0.024967,10,9.08799e-05,-3.64684,23.0017,0.00256503,0.402899,
2,1,0,1,0,52905,0.407307,0.406982,0.225829,80,0.025155,10,9.19082e-05,-3.64622,-3.68722,-0.0160012,0.406883,
2,1,0,1,0,52905.8,0.411302,0.410943,0.225963,80,0.0253426,10,9.28579e-05,-3.64596,-3.80063,-0.0155237,0.410844,
2,1,0,1,0,52906.6,0.415298,0.41501,0.224735,80,0.0255301,10,9.32673e-05,-3.64833,5.41577,0.0108941,0.414912,
2,1,0,0,0,52907.4,0.419293,0.418991,0.225157,80,0.0257175,10,9.4339e-05,-3.64751,-3.58397,-0.0164622,0.418892,
2,1,0,1,0,52908.2,0.423288,0.422967,0.225557,80,0.0259047,10,9.5403e-05,-3.64674,4.19997,0.0140477,0.422867,
2,1,0,1,0,52909,0.427283,0.427006,0.224626,80,0.026092,10,9.59165e-05,-3.64854,-15.6852,-0.0037615,0.426907,
2,1,0,1,0,52909.8,0.431278,0.430938,0.224689,80,0.0262791,10,9.68272e-05,-3.64842,-2.76966,-0.0213022,0.430839,
2,1,0,1,0,52910.6,0.435273,0.434993,0.224215,80,0.0264657,10,9.75323e-05,-3.64933,57.9579,0.00101798,0.434895,
2,1,0,0,0,52911.4,0.439269,0.438976,0.223909,80,0.0266524,10,9.82905e-05,-3.64993,8.00572,0.00736973,0.438877,
2,1,0,1,0,52912.2,0.443264,0.442942,0.224371,80,0.0268388,10,9.93833e-05,-3.64903,-13.6614,-0.00431875,0.442843,
2,1,0,0,0,52913,0.447259,0.446942,0.224503,80,0.0270252,10,0.00010034,-3.64878,-22.5945,-0.00261126,0.446844,
2,1,0,1,0,52913.8,0.451254,0.450951,0.224233,80,0.0272119,10,0.000101118,-3.6493,47.3905,0.00124498,0.450852,
2,1,0,1,0,52914.6,0.455249,0.454921,0.223634,80,0.0273981,10,0.000101736,-3.65046,4.69,0.01258,0.454822,
2,1,0,1,0,52915.4,0.459244,0.458915,0.224527,80,0.0275846,10,0.000103039,-3.64873,3.21681,0.0183412,0.458816,
2,1,0,1,0,52916.2,0.46324,0.462937,0.224907,80,0.0277711,10,0.000104118,-3.648,-27.7803,-0.00212381,0.462838,
2,1,0,0,0,52917,0.467235,0.466933,0.224916,80,0.0279576,10,0.000105021,-3.64798,-30.8649,-0.00191156,0.466834,
2,1,0,1,0,52917.8,0.471231,0.470924,0.226091,80,0.0281445,10,0.000106472,-3.64572,3.18217,0.0185408,0.470824,
2,1,0,1,0,52918.5,0.475225,0.474911,0.225688,80,0.0283316,10,0.000107182,-3.64649,-6.96866,-0.00846648,0.474812,
2,1,0,1,0,52919.3,0.47922,0.478903,0.225525,80,0.0285188,10,0.000108005,-3.6468,2.023,0.0291646,0.478804,
2,1,0,1,0,52920.1,0.483216,0.482871,0.22677,80,0.0287066,10,0.0001095,-3.64442,165.042,0.000357485,0.482771,
2,1,0,0,0,52920.9,0.487211,0.486874,0.226828,80,0.0288947,10,0.000110437,-3.6443,2.46603,0.0239251,0.486774,
2,1,0,1,0,52921.7,0.491206,0.490889,0.228489,80,0.0290834,10,0.000112163,-3.64113,3.40865,0.0173089,0.490788,
2,1,0,1,0,52922.5,0.495201,0.494886,0.228449,80,0.0292723,10,0.000113056,-3.64121,2.35077,0.0250982,0.494785,
2,1,0,1,0,52923.3,0.499196,0.498916,0.229156,80,0.0294617,10,0.00011433,-3.63987,1.6638,0.035461,0.498815,
2,1,0,1,0,52924.1,0.503191,0.502916,0.230188,80,0.0296519,10,0.000115765,-3.63792,1.72834,0.0341367,0.502814,
2,1,0,0,0,52924.9,0.507187,0.506916,0.231103,80,0.0298428,10,0.00011715,-3.6362,6.3531,0.0092868,0.506814,
2,1,0,1,0,52925.7,0.511182,0.510875,0.231413,80,0.0300343,10,0.000118223,-3.63561,4.86624,0.0121244,0.510774,
2,1,0,0,0,52926.5,0.515177,0.514887,0.233178,80,0.0302265,10,0.000120061,-3.63231,2.95667,0.0199549,0.514784,
2,1,0,1,0,52927.3,0.519173,0.518885,0.234625,80,0.0304194,10,0.000121743,-3.62963,1.07897,0.0546819,0.518782,
2,1,0,1,0,52928.1,0.523167,0.52284,0.235481,80,0.0306133,10,0.000123119,-3.62804,2.63759,0.0223689,0.522736,
2,1,0,1,0,52928.9,0.527162,0.526864,0.237329,80,0.0308083,10,0.00012504,-3.62465,0.975092,0.0605071,0.526759,
2,1,0,1,0,52929.7,0.531158,0.530833,0.238011,80,0.0310045,10,0.000126344,-3.6234,4.11011,0.0143549,0.530729,
2,1,0,0,0,52930.5,0.535153,0.534864,0.239505,80,0.0312018,10,0.000128103,-3.62069,1.07061,0.0551087,0.534759,
2,1,0,1,0,52931.3,0.539148,0.538896,0.241498,80,0.0314001,10,0.000130142,-3.61709,1.28158,0.046037,0.538789,
2,1,0,1,0,52932.1,0.543143,0.542818,0.242286,80,0.0316,10,0.000131517,-3.61567,1.66993,0.0353309,0.542712,
2,1,0,1,0,52932.9,0.547138,0.546827,0.244539,80,0.0318012,10,0.000133721,-3.61165,2.01639,0.0292603,0.54672,
2,1,0,1,0,52933.7,0.551133,0.550876,0.246855,80,0.0320038,10,0.000135986,-3.60756,0.647305,0.0911471,0.550767,
2,1,0,0,0,52934.5,0.555129,0.554849,0.249358,80,0.0322084,10,0.000138356,-3.60318,1.09781,0.0537435,0.55474,
2,1,0,1,0,52935.3,0.559124,0.558829,0.251977,80,0.0324146,10,0.000140812,-3.59864,0.720148,0.0819276,0.558718,
2,1,0,1,0,52936.1,0.56312,0.562822,0.254956,80,0.032623,10,0.000143495,-3.59354,1.19224,0.0494867,0.56271,
2,1,0,1,0,52936.9,0.567114,0.566841,0.257358,80,0.0328337,10,0.000145881,-3.58946,0.887157,0.0665046,0.566727,
2,1,0,1,0,52937.7,0.571109,0.570809,0.260644,80,0.0330464,10,0.000148778,-3.58395,0.504522,0.116942,0.570695,
2,1,0,0,0,52938.5,0.575105,0.574799,0.26386,80,0.033262,10,0.000151666,-3.57863,0.914023,0.0645498,0.574683,
2,1,0,1,0,52939.3,0.5791,0.578768,0.267437,80,0.0334805,10,0.000154784,-3.57278,0.682501,0.0864468,0.57865,
2,1,0,0,0,52940.1,0.583095,0.582803,0.27219,80,0.0337021,10,0.000158633,-3.56513,0.485693,0.121476,0.582683,
2,1,0,1,0,52940.9,0.58709,0.586774,0.276797,80,0.0339275,10,0.000162417,-3.55784,0.501789,0.117579,0.586652,
2,1,0,1,0,52941.7,0.591085,0.590757,0.281695,80,0.0341565,10,0.000166413,-3.55022,0.491013,0.12016,0.590633,
2,1,0,1,0,52942.5,0.59508,0.594803,0.287713,80,0.0343901,10,0.000171133,-3.54104,0.392105,0.15047,0.594676,
2,1,0,1,0,52943.3,0.599076,0.598784,0.294448,80,0.0346286,10,0.000176311,-3.53099,0.412124,0.143161,0.598655,
2,1,0,0,0,52944.1,0.603071,0.602763,0.301547,80,0.0348725,10,0.000181762,-3.52064,0.348942,0.169082,0.60263,
2,1,0,1,0,52944.9,0.607066,0.606772,0.309836,80,0.0351226,10,0.000188,-3.50887,0.329696,0.178953,0.606636,
2,1,0,1,0,52945.7,0.611061,0.610733,0.319629,80,0.0353798,10,0.000195208,-3.49535,0.302646,0.194947,0.610593,
2,1,0,1,0,52946.5,0.615056,0.614745,0.32968,80,0.0356449,10,0.000202669,-3.48191,0.243385,0.242414,0.6146,
2,1,0,1,0,52947.3,0.619051,0.618734,0.342711,80,0.0359196,10,0.000212047,-3.46507,0.257381,0.229232,0.618583,
2,1,0,0,0,52948.1,0.623047,0.622754,0.356336,80,0.0362046,10,0.00022191,-3.44814,0.207648,0.284135,0.622597,
2,1,0,1,0,52948.9,0.627042,0.626762,0.372786,80,0.0365015,10,0.000233648,-3.42854,0.19679,0.299811,0.626598,
2,1,0,1,0,52949.7,0.631037,0.630744,0.391893,80,0.0368129,10,0.000247184,-3.40683,0.174532,0.338047,0.630572,
2,1,0,1,0,52950.5,0.635032,0.63474,0.414968,80,0.0371407,10,0.000263397,-3.38199,0.155472,0.379489,0.634557,
2,1,0,1,0,52951.3,0.639027,0.638785,0.439664,80,0.0374878,10,0.000280851,-3.35688,0.147005,0.401347,0.638592,
2,1,0,1,0,52952.1,0.643022,0.642747,0.4698,80,0.0378566,10,0.000301962,-3.32809,0.139903,0.421721,0.64254,
2,1,0,1,0,52952.9,0.647018,0.646759,0.504309,80,0.0382511,10,0.000326166,-3.2973,0.121753,0.484587,0.646537,
2,1,0,0,0,52953.7,0.651013,0.650714,0.54353,80,0.0386755,10,0.000353682,-3.26478,0.115855,0.509258,0.650475,
2,1,0,1,0,52954.5,0.655008,0.654738,0.590429,80,0.039134,10,0.000386576,-3.22883,0.10919,0.540342,0.654478,
2,1,0,1,0,52955.3,0.659003,0.658723,0.644936,80,0.0396327,10,0.000424834,-3.19048,0.0993471,0.593877,0.658439,
2,1,0,1,0,52956.1,0.662998,0.662723,0.707205,80,0.0401784,10,0.000468681,-3.15045,0.0978087,0.603218,0.662412,
2,1,0,1,0,52956.9,0.666994,0.666643,0.780627,80,0.0407777,10,0.000520399,-3.10756,0.090458,0.652236,0.666299,
2,1,0,0,0,52957.7,0.670989,0.670708,0.862613,80,0.0414394,10,0.000578562,-3.06418,0.0892512,0.661055,0.670329,
2,1,0,1,0,52958.5,0.674984,0.674711,0.958066,80,0.042172,10,0.000646418,-3.0186,0.0853891,0.690955,0.67429,
2,1,0,1,0,52959.3,0.67898,0.67863,1.06474,80,0.0429852,10,0.000722567,-2.97275,0.0856935,0.688501,0.678162,
2,1,0,1,0,52960.1,0.682974,0.682703,1.18491,80,0.0438893,10,0.00080894,-2.92632,0.0838239,0.703857,0.682181,
2,1,0,1,0,52960.9,0.686969,0.686699,1.32114,80,0.0448958,10,0.000907227,-2.87905,0.0834111,0.70734,0.686118,
2,1,0,0,0,52961.7,0.690965,0.690673,1.47202,80,0.046017,10,0.00101669,-2.83209,0.0853215,0.691502,0.690025,
2,1,0,1,0,52962.5,0.69496,0.694695,1.6386,80,0.0472646,10,0.00113833,-2.78553,0.082266,0.717186,0.693974,
2,1,0,0,0,52963.3,0.698955,0.698657,1.82146,80,0.048652,10,0.00127258,-2.73958,0.0864494,0.68248,0.697856,
2,1,0,1,0,52964.1,0.70295,0.702677,2.0421,80,0.0501997,10,0.00143493,-2.68992,0.0801653,0.73598,0.701778,
2,1,0,1,0,52964.9,0.706945,0.706676,2.26155,80,0.0519236,10,0.00159818,-2.64559,0.088209,0.668866,0.705681,
2,1,0,1,0,52965.7,0.71094,0.710659,2.49869,80,0.0538302,10,0.00177571,-2.60229,0.0915227,0.644649,0.709559,
2,1,0,1,0,52966.5,0.714936,0.714595,2.75331,80,0.0559334,10,0.0019675,-2.56015,0.0923732,0.638713,0.713384,
2,1,0,0,0,52967.3,0.718931,0.718643,3.025,80,0.0582472,10,0.0021739,-2.51927,0.0969505,0.608558,0.717312,
2,1,0,1,0,52968.1,0.722927,0.722643,3.31635,80,0.0607859,10,0.00239654,-2.47934,0.0968808,0.608995,0.721184,
2,1,0,1,0,52968.9,0.726921,0.726662,3.62457,80,0.063564,10,0.00263384,-2.44074,0.102345,0.576481,0.725067,
2,1,0,1,0,52969.7,0.730916,0.730668,3.95172,80,0.0665962,10,0.0028874,-2.40321,0.103265,0.571346,0.728929,
2,1,0,1,0,52970.5,0.734911,0.73462,4.29769,80,0.0698976,10,0.00315717,-2.36676,0.107892,0.546845,0.732729,
2,1,0,0,0,52971.3,0.738907,0.738593,4.66417,80,0.0734834,10,0.00344492,-2.33123,0.108807,0.542247,0.736541,
2,1,0,1,0,52972.1,0.742902,0.742634,5.04965,80,0.0773693,10,0.00375004,-2.29674,0.112964,0.52229,0.740412,
2,1,0,1,0,52972.9,0.746897,0.746608,5.4569,80,0.0815728,10,0.00407417,-2.26305,0.113759,0.518642,0.744207,
2,1,0,1,0,52973.7,0.750892,0.750679,5.88693,80,0.0861093,10,0.00441919,-2.23011,0.117472,0.502248,0.748089,
2,1,0,1,0,52974.5,0.754887,0.754593,6.33803,80,0.0909981,10,0.00478263,-2.19805,0.118295,0.498755,0.751804,
2,1,0,0,0,52975.3,0.758883,0.758585,6.81676,80,0.0962592,10,0.0051711,-2.16642,0.121351,0.486194,0.755586,
2,1,0,1,0,52976.1,0.762878,0.762647,7.31829,80,0.101911,10,0.00558127,-2.13559,0.123583,0.477414,0.759427,
2,1,0,0,0,52976.9,0.766873,0.766666,7.84134,80,0.107973,10,0.00601168,-2.10561,0.12659,0.466071,0.763215,
2,1,0,1,0,52977.7,0.770868,0.770574,8.39925,80,0.114467,10,0.00647224,-2.07576,0.125985,0.46831,0.766878,
2,1,0,1,0,52978.5,0.774863,0.774564,8.98579,80,0.121418,10,0.00696007,-2.04644,0.127485,0.462798,0.77061,
2,1,0,1,0,52979.3,0.778858,0.778581,9.60695,80,0.12885,10,0.00747979,-2.01741,0.128185,0.460273,0.774354,
2,1,0,1,0,52980.1,0.782854,0.782538,10.2677,80,0.136795,10,0.00803486,-1.98853,0.129804,0.45453,0.77802,
2,1,0,0,0,52980.9,0.786849,0.786615,10.9646,80,0.145282,10,0.00862494,-1.96001,0.12892,0.457647,0.781791,
2,1,0,1,0,52981.7,0.790844,0.790563,11.7198,80,0.154347,10,0.00926521,-1.93108,0.126099,0.467888,0.785406,
2,1,0,1,0,52982.5,0.794839,0.79457,12.5232,80,0.164037,10,0.00995054,-1.90229,0.125574,0.469842,0.78906,
2,1,0,1,0,52983.3,0.798834,0.79855,13.3799,80,0.17439,10,0.0106845,-1.87355,0.124279,0.474739,0.792663,
2,1,0,1,0,52984.1,0.802829,0.802544,14.3025,80,0.185454,10,0.0114784,-1.84459,0.12512,0.471549,0.796251,
2,1,0,0,0,52984.9,0.806825,0.806558,15.2649,80,0.197275,10,0.012312,-1.81631,0.127235,0.463707,0.799841,
2,1,0,1,0,52985.7,0.81082,0.810551,16.2792,80,0.209882,10,0.0131951,-1.78837,0.126927,0.464834,0.803388,
2,1,0,1,0,52986.5,0.814815,0.814546,17.3578,80,0.223325,10,0.0141387,-1.76051,0.12804,0.460792,0.806908,
2,1,0,1,0,52987.3,0.81881,0.818559,18.4659,80,0.237641,10,0.0151154,-1.73363,0.128689,0.458469,0.810434,
2,1,0,1,0,52988.1,0.822805,0.822564,19.6506,80,0.252876,10,0.0161639,-1.70662,0.132623,0.44487,0.813917,
2,1,0,0,0,52988.9,0.826801,0.826523,20.8608,80,0.269067,10,0.0172419,-1.68067,0.135646,0.434956,0.817345,
2,1,0,1,0,52989.7,0.830796,0.83058,22.0966,80,0.286235,10,0.018353,-1.65567,0.141945,0.415654,0.820858,
2,1,0,0,0,52990.5,0.834791,0.834577,23.3426,80,0.304395,10,0.0194812,-1.63185,0.147561,0.399835,0.824306,
2,1,0,1,0,52991.3,0.838786,0.838503,24.6093,80,0.323564,10,0.020635,-1.6089,0.148684,0.396814,0.827675,
2,1,0,1,0,52992.1,0.842781,0.8425,25.9487,80,0.343768,10,0.0218618,-1.58588,0.150679,0.391561,0.831083,
2,1,0,1,0,52992.9,0.846776,0.846555,27.2827,80,0.365044,10,0.0230963,-1.56411,0.157274,0.375142,0.834551,
2,1,0,0,0,52993.6,0.849723,0.849455,28.2034,80,0.384547,10,0.0239575,-1.5497,0.0469059,1.25784,0.837045,
2,1,0,1,0,52994.4,0.845728,0.84546,26.1169,80,0.406192,10,0.0220808,-1.58308,0.109284,0.539879,0.833969,
2,1,0,0,0,52995.2,0.841732,0.841497,24.5015,80,0.426396,10,0.020618,-1.61081,0.0915682,0.644329,0.830717,
2,1,0,1,0,52996,0.837737,0.837477,22.6753,80,0.445206,10,0.0189901,-1.64445,0.127117,0.46414,0.8275,
2,1,0,1,0,52996.8,0.833742,0.833501,21.2991,80,0.462763,10,0.0177528,-1.67164,0.121895,0.484025,0.824129,
2,1,0,1,0,52997.6,0.829747,0.829446,19.98,80,0.479241,10,0.0165723,-1.69941,0.121821,0.484318,0.820655,
2,1,0,1,0,52998.4,0.825752,0.825534,18.6537,80,0.494671,10,0.0153993,-1.72923,0.115351,0.511482,0.817326,
2,1,0,0,0,52999.2,0.821757,0.821561,17.4799,80,0.509093,10,0.0143608,-1.75746,0.123646,0.477168,0.813869,
2,1,0,1,0,53000,0.817761,0.817447,16.3702,80,0.522606,10,0.0133818,-1.78595,0.121654,0.484982,0.810244,
2,1,0,1,0,53000.8,0.813766,0.813474,15.3112,80,0.535254,10,0.0124552,-1.81499,0.121961,0.483763,0.806737,
2,1,0,1,0,53001.5,0.809771,0.809485,14.3138,80,0.547078,10,0.0115868,-1.84425,0.119351,0.49434,0.803187,
2,1,0,1,0,53002.3,0.805776,0.80549,13.3479,80,0.558119,10,0.0107516,-1.87459,0.117811,0.500803,0.799617,
2,1,0,0,0,53003.1,0.801781,0.801482,12.4486,80,0.568412,10,0.00997736,-1.90488,0.120834,0.488272,0.796005,
2,1,0,1,0,53003.9,0.797786,0.797519,11.613,80,0.578015,10,0.00926158,-1.93506,0.119368,0.494271,0.792409,
2,1,0,1,0,53004.7,0.79379,0.793523,10.8078,80,0.586963,10,0.00857621,-1.96626,0.117116,0.503773,0.788768,
2,1,0,1,0,53005.5,0.789795,0.789491,10.0582,80,0.59529,10,0.00794087,-1.99748,0.116181,0.50783,0.785065,
2,1,0,1,0,53006.3,0.7858,0.785515,9.34413,80,0.603031,10,0.00733995,-2.02946,0.113463,0.519992,0.781403,
2,1,0,0,0,53007.1,0.781805,0.781539,8.67633,80,0.61022,10,0.00678089,-2.06166,0.114942,0.5133,0.777721,
2,1,0,1,0,53007.9,0.77781,0.777499,8.04896,80,0.616893,10,0.00625806,-2.09426,0.113452,0.520043,0.773957,
2,1,0,0,0,53008.7,0.773814,0.77355,7.46038,80,0.62308,10,0.00577097,-2.12724,0.109647,0.53809,0.770267,
2,1,0,1,0,53009.5,0.769819,0.769519,6.89566,80,0.628804,10,0.00530634,-2.16142,0.113285,0.520812,0.766485,
2,1,0,1,0,53010.3,0.765824,0.765559,6.37792,80,0.634098,10,0.00488268,-2.19532,0.109483,0.538895,0.762752,
2,1,0,1,0,53011.1,0.761829,0.761535,5.89081,80,0.63899,10,0.00448605,-2.22983,0.110131,0.535727,0.758943,
2,1,0,1,0,53011.9,0.757834,0.757534,5.43429,80,0.643506,10,0.00411666,-2.26486,0.106291,0.555081,0.755143,
2,1,0,0,0,53012.7,0.753839,0.75354,5.00441,80,0.647669,10,0.00377102,-2.30065,0.105969,0.556768,0.751338,
2,1,0,1,0,53013.5,0.749844,0.749535,4.60156,80,0.651499,10,0.00344903,-2.3371,0.103789,0.568459,0.74751,
2,1,0,1,0,53014.3,0.745848,0.745576,4.22428,80,0.655017,10,0.00314952,-2.37425,0.101899,0.579005,0.743717,
2,1,0,1,0,53015.1,0.741853,0.741566,3.86917,80,0.658242,10,0.00286924,-2.41238,0.0989656,0.596167,0.739863,
2,1,0,1,0,53015.9,0.737858,0.737624,3.53314,80,0.661192,10,0.00260613,-2.45184,0.0978202,0.603148,0.736069,
2,1,0,0,0,53016.7,0.733863,0.733602,3.22089,80,0.663883,10,0.00236285,-2.49202,0.0925301,0.637631,0.732185,
2,1,0,1,0,53017.5,0.729868,0.729588,2.92461,80,0.66633,10,0.00213376,-2.53393,0.0903633,0.65292,0.728302,
2,1,0,1,0,53018.3,0.725872,0.725572,2.64833,80,0.66855,10,0.00192156,-2.57703,0.0886559,0.665494,0.724407,
2,1,0,1,0,53019.1,0.721877,0.721571,2.38895,80,0.670555,10,0.0017238,-2.62179,0.0857757,0.687841,0.72052,
2,1,0,1,0,53019.9,0.717882,0.717598,2.14573,80,0.67236,10,0.00153977,-2.66842,0.0825728,0.714521,0.716654,
2,1,0,0,0,53020.7,0.713887,0.713625,1.92048,80,0.673977,10,0.0013705,-2.71659,0.0797025,0.740252,0.71278,
2,1,0,1,0,53021.5,0.709892,0.709599,1.71137,80,0.675422,10,0.00121438,-2.76666,0.0786418,0.750237,0.708846,
2,1,0,0,0,53022.3,0.705897,0.705639,1.52442,80,0.676709,10,0.00107569,-2.8169,0.0731839,0.806189,0.704968,
2,1,0,1,0,53023.1,0.701901,0.701654,1.3434,80,0.677847,10,0.0009426,-2.8718,0.0700206,0.84261,0.701063,
2,1,0,1,0,53023.9,0.697906,0.697577,1.17708,80,0.678846,10,0.000821105,-2.92919,0.0671137,0.879105,0.697059,
2,1,0,1,0,53024.7,0.693911,0.693661,1.02542,80,0.679719,10,0.000711295,-2.9891,0.0630423,0.93588,0.69321,
2,1,0,1,0,53025.5,0.689916,0.689599,0.885725,80,0.680475,10,0.000610796,-3.0527,0.0617176,0.955967,0.68921,
2,1,0,0,0,53026.3,0.685921,0.685648,0.759932,80,0.681125,10,0.000521046,-3.11923,0.0566568,1.04136,0.685314,
2,1,0,1,0,53027.1,0.681926,0.681615,0.646657,80,0.68168,10,0.000440771,-3.18933,0.0543638,1.08528,0.68133,
2,1,0,1,0,53027.9,0.67793,0.677654,0.544909,80,0.682149,10,0.00036926,-3.26368,0.0528813,1.11571,0.677414,
2,1,0,1,0,53028.7,0.673935,0.673641,0.454488,80,0.682541,10,0.000306162,-3.34248,0.0482605,1.22253,0.673441,
2,1,0,1,0,53029.5,0.66994,0.669647,0.374085,80,0.682865,10,0.000250505,-3.42703,0.0448966,1.31413,0.669483,
2,1,0,0,0,53030.3,0.665945,0.665662,0.30352,80,0.683129,10,0.000202042,-3.51781,0.0428712,1.37621,0.665528,
2,1,0,1,0,53031.1,0.66195,0.661664,0.24221,80,0.683341,10,0.000160261,-3.61581,0.0386537,1.52637,0.661558,
2,1,0,0,0,53031.9,0.657955,0.657681,0.189962,80,0.683506,10,0.000124935,-3.72133,0.0347945,1.69567,0.657598,
2,1,0,1,0,53032.7,0.653959,0.653636,0.142661,80,0.683633,10,9.32484e-05,-3.84569,0.0299715,1.96854,0.653573,
2,1,0,1,0,53033.5,0.649964,0.64968,0.103502,80,0.683724,10,6.72434e-05,-3.98505,0.0258865,2.27918,0.649635,
2,1,0,1,0,53034.3,0.64597,0.645669,0.0699628,80,0.683787,10,4.51727e-05,-4.15513,0.0205449,2.87176,0.645638,
2,1,0,1,0,53035.1,0.641974,0.641696,0.0414988,80,0.683825,10,2.66296e-05,-4.38196,0.0142901,4.12873,0.641677,
2,1,0,0,0,53035.9,0.637979,0.637666,0.0165404,80,0.683841,10,1.05473e-05,-4.78145,0.00536775,10.9916,0.637659,
2,1,0,1,0,53036.7,0.633983,0.633655,-0.00308202,80,0.68384,10,-1.95294e-06,-5.51116,-0.0114923,-5.13386,0.633657,
2,0,0,1,0,53037.5,0.629988,0.629689,-0.020909,80,0.683824,10,-1.31661e-05,-4.67967,-0.0103405,-5.7057,0.629698,
2,0,0,1,0,53038.3,0.625993,0.625702,-0.0343067,80,0.683795,10,-2.14658e-05,-4.46462,-0.0251392,-2.34693,0.625717,
2,0,0,1,0,53039.1,0.621998,0.62172,-0.0463251,80,0.683757,10,-2.88012e-05,-4.33418,-0.0365101,-1.61599,0.62174,
2,0,0,0,0,53039.9,0.618003,0.617672,-0.0558141,80,0.683709,10,-3.44748e-05,-4.25326,-0.0611744,-0.964455,0.617697,
2,0,0,1,0,53040.7,0.614008,0.613721,-0.064882,80,0.683655,10,-3.98194e-05,-4.18788,-0.0759858,-0.77646,0.61375,
2,0,0,1,0,53041.5,0.610012,0.609741,-0.0718997,80,0.683594,10,-4.38402e-05,-4.14327,-0.091357,-0.645818,0.609773,
2,0,0,1,0,53042.3,0.606017,0.605709,-0.0779899,80,0.683527,10,-4.72392e-05,-4.10796,-0.13803,-0.427444,0.605743,
2,0,0,1,0,53043.1,0.602022,0.601718,-0.0831253,80,0.683455,10,-5.00179e-05,-4.08027,-0.167961,-0.351273,0.601754,
2,0,0,0,0,53043.9,0.598027,0.597735,-0.0872579,80,0.68338,10,-5.21571e-05,-4.0592,-0.191649,-0.307855,0.597774,
2,0,0,1,0,53044.7,0.594032,0.593729,-0.0917587,80,0.683302,10,-5.44798e-05,-4.03735,-0.291741,-0.202234,0.59377,
2,0,0,0,0,53045.5,0.590037,0.589705,-0.0951082,80,0.683221,10,-5.60858e-05,-4.02178,-0.270161,-0.218388,0.589747,
2,0,0,1,0,53046.3,0.586041,0.585756,-0.0976848,80,0.683137,10,-5.72194e-05,-4.01017,-0.258003,-0.22868,0.585799,
2,0,0,1,0,53047.1,0.582046,0.581688,-0.100297,80,0.683052,10,-5.83414e-05,-3.99871,-0.507785,-0.116191,0.581732,
2,0,0,1,0,53047.9,0.578052,0.577707,-0.10263,80,0.682964,10,-5.92898e-05,-3.98873,-0.339153,-0.173963,0.577752,
2,0,0,1,0,53048.7,0.574056,0.57369,-0.104024,80,0.682875,10,-5.96777e-05,-3.98286,-0.453042,-0.130231,0.573735,
2,0,0,0,0,53049.5,0.570061,0.5697,-0.106343,80,0.682784,10,-6.05838e-05,-3.97329,-1.62922,-0.0362135,0.569747,
2,0,0,1,0,53050.3,0.566065,0.565741,-0.107213,80,0.682692,10,-6.06551e-05,-3.96975,-0.491328,-0.120083,0.565789,
2,0,0,1,0,53051.1,0.56207,0.561738,-0.108959,80,0.682599,10,-6.12065e-05,-3.96274,-1.10745,-0.0532754,0.561786,
2,0,0,1,0,53051.9,0.558075,0.557737,-0.110127,80,0.682505,10,-6.14217e-05,-3.95811,-0.656987,-0.089804,0.557786,
2,0,0,1,0,53052.7,0.55408,0.553746,-0.111279,80,0.68241,10,-6.16205e-05,-3.95359,-0.526965,-0.111962,0.553795,
2,0,0,0,0,53053.5,0.550085,0.549756,-0.112718,80,0.682313,10,-6.19676e-05,-3.94801,-4.52745,-0.0130316,0.549806,
2,0,0,1,0,53054.3,0.54609,0.545791,-0.113606,80,0.682216,10,-6.20052e-05,-3.9446,-0.681503,-0.0865733,0.545841,
2,0,0,1,0,53055.1,0.542094,0.541756,-0.114207,80,0.682118,10,-6.18721e-05,-3.94231,-4.23956,-0.0139165,0.541806,
2,0,0,1,0,53055.9,0.538099,0.537779,-0.115751,80,0.68202,10,-6.22485e-05,-3.93647,-0.898071,-0.0656964,0.53783,
2,0,0,1,0,53056.7,0.534104,0.533757,-0.116912,80,0.68192,10,-6.24025e-05,-3.93214,-2.47914,-0.0237986,0.533809,
2,0,0,0,0,53057.5,0.530109,0.5298,-0.117546,80,0.68182,10,-6.22759e-05,-3.92979,-1.38699,-0.0425381,0.529852,
2,0,0,1,0,53058.3,0.526114,0.525811,-0.119535,80,0.681719,10,-6.28529e-05,-3.9225,-0.586868,-0.100534,0.525864,
2,0,0,0,0,53059.1,0.522119,0.521761,-0.119523,80,0.681617,10,-6.23626e-05,-3.92255,-1.81844,-0.0324454,0.521814,
2,0,0,1,0,53059.9,0.518123,0.517809,-0.120299,80,0.681514,10,-6.2292e-05,-3.91974,-1.51077,-0.0390529,0.517862,
2,0,0,1,0,53060.7,0.514128,0.513772,-0.121137,80,0.681411,10,-6.22366e-05,-3.91672,-1.16024,-0.0508514,0.513825,
2,0,0,1,0,53061.5,0.510133,0.509792,-0.121847,80,0.681307,10,-6.21167e-05,-3.91418,-0.854486,-0.0690473,0.509846,
2,0,0,1,0,53062.3,0.506138,0.505814,-0.123529,80,0.681202,10,-6.24829e-05,-3.90823,-1.95736,-0.0301426,0.505868,
2,0,0,0,0,53063.1,0.502143,0.501803,-0.124254,80,0.681096,10,-6.23509e-05,-3.90569,-0.996517,-0.0592062,0.501857,
2,0,0,1,0,53063.9,0.498148,0.497842,-0.124893,80,0.680989,10,-6.21768e-05,-3.90346,-0.621891,-0.0948719,0.497897,
2,0,0,1,0,53064.7,0.494152,0.493869,-0.126317,80,0.680882,10,-6.23841e-05,-3.89854,-3.80483,-0.0155066,0.493925,
2,0,0,1,0,53065.5,0.490157,0.48981,-0.126859,80,0.680773,10,-6.21366e-05,-3.89668,-0.621596,-0.0949169,0.489866,
2,0,0,1,0,53066.3,0.486162,0.48578,-0.12838,80,0.680664,10,-6.23646e-05,-3.8915,-1.46344,-0.0403159,0.485837,
2,0,0,0,0,53067.1,0.482167,0.481847,-0.129972,80,0.680553,10,-6.26267e-05,-3.88615,-0.812909,-0.0725789,0.481904,
2,0,0,1,0,53067.9,0.478172,0.477834,-0.131312,80,0.680442,10,-6.27453e-05,-3.8817,-0.92909,-0.063503,0.477892,
2,0,0,0,0,53068.7,0.474177,0.473824,-0.132036,80,0.68033,10,-6.25617e-05,-3.87931,-2.45724,-0.0240106,0.473882,
2,0,0,1,0,53069.5,0.470181,0.469862,-0.133559,80,0.680216,10,-6.27541e-05,-3.87433,-0.66043,-0.0893357,0.469921,
2,0,0,1,0,53070.3,0.466186,0.465846,-0.135216,80,0.680101,10,-6.29901e-05,-3.86897,-0.732877,-0.0805046,0.465906,
2,0,0,1,0,53071.1,0.462191,0.46187,-0.136541,80,0.679986,10,-6.30642e-05,-3.86474,-1.41381,-0.0417313,0.46193,
2,0,0,1,0,53071.9,0.458196,0.45789,-0.137365,80,0.679869,10,-6.28979e-05,-3.86213,-1.15934,-0.0508909,0.457951,
2,0,0,0,0,53072.7,0.454201,0.453904,-0.138961,80,0.679751,10,-6.30747e-05,-3.85711,-0.706369,-0.0835258,0.453965,
2,0,0,1,0,53073.5,0.450205,0.449884,-0.140534,80,0.679632,10,-6.32238e-05,-3.85222,-0.749063,-0.078765,0.449945,
2,0,0,1,0,53074.3,0.44621,0.445897,-0.142185,80,0.679511,10,-6.34e-05,-3.84714,-0.854958,-0.0690093,0.445959,
2,0,0,1,0,53075.1,0.442215,0.441864,-0.14372,80,0.67939,10,-6.35048e-05,-3.84248,-1.18742,-0.0496875,0.441928,
2,0,0,1,0,53075.9,0.43822,0.437926,-0.145283,80,0.679267,10,-6.3623e-05,-3.83779,-0.472967,-0.124744,0.43799,
2,0,0,0,0,53076.7,0.434225,0.433919,-0.147407,80,0.679142,10,-6.39627e-05,-3.83148,-2.00129,-0.0294809,0.433983,
2,0,0,1,0,53077.5,0.43023,0.429937,-0.149315,80,0.679016,10,-6.41961e-05,-3.8259,-0.605682,-0.0974109,0.430002,
2,0,0,1,0,53078.3,0.426234,0.425914,-0.150581,80,0.678889,10,-6.41344e-05,-3.82223,-0.840692,-0.0701803,0.425981,
2,0,0,1,0,53079.1,0.422239,0.421939,-0.15297,80,0.67876,10,-6.45441e-05,-3.81539,-0.748772,-0.0787956,0.422006,
2,0,0,1,0,53079.9,0.418244,0.417919,-0.154164,80,0.67863,10,-6.44282e-05,-3.81202,-0.660281,-0.0893559,0.417987,
2,0,0,0,0,53080.7,0.414249,0.413953,-0.155602,80,0.678498,10,-6.44119e-05,-3.80799,-0.797699,-0.0739628,0.414022,
2,0,0,1,0,53081.5,0.410254,0.409893,-0.157598,80,0.678365,10,-6.45984e-05,-3.80245,-2.24777,-0.0262482,0.409962,
2,0,0,0,0,53082.3,0.406259,0.405944,-0.160189,80,0.67823,10,-6.50276e-05,-3.79537,-0.593268,-0.0994491,0.406014,
2,0,0,1,0,53083.1,0.402263,0.401914,-0.161888,80,0.678094,10,-6.50651e-05,-3.79079,-0.532879,-0.110719,0.401985,
2,0,0,1,0,53083.9,0.398268,0.397975,-0.164259,80,0.677956,10,-6.53708e-05,-3.78447,-1.07778,-0.0547421,0.398047,
2,0,0,1,0,53084.6,0.394274,0.393954,-0.165983,80,0.677816,10,-6.53898e-05,-3.77994,-0.842416,-0.0700366,0.394027,
2,0,0,1,0,53085.4,0.390278,0.38993,-0.167469,80,0.677675,10,-6.5301e-05,-3.77607,-0.608008,-0.0970383,0.390003,
2,0,0,0,0,53086.2,0.386283,0.385943,-0.169698,80,0.677532,10,-6.54936e-05,-3.77032,-1.17457,-0.0502313,0.386017,
2,0,0,1,0,53087,0.382287,0.381975,-0.170453,80,0.677387,10,-6.51089e-05,-3.76839,-0.888217,-0.0664252,0.38205,
2,0,0,1,0,53087.8,0.378292,0.37798,-0.174211,80,0.677241,10,-6.58481e-05,-3.75893,-0.996515,-0.0592063,0.378056,
2,0,0,1,0,53088.6,0.374297,0.373997,-0.176605,80,0.677093,10,-6.60498e-05,-3.753,-0.454222,-0.129892,0.374075,
2,0,0,1,0,53089.4,0.370303,0.369972,-0.178096,80,0.676943,10,-6.58907e-05,-3.74934,-0.804668,-0.0733222,0.370051,
2,0,0,0,0,53090.2,0.366307,0.365984,-0.180232,80,0.676792,10,-6.59619e-05,-3.74417,-1.14178,-0.0516736,0.366063,
2,0,0,1,0,53091,0.362312,0.36201,-0.182152,80,0.676639,10,-6.59408e-05,-3.73957,-0.609125,-0.0968603,0.36209,
2,0,0,1,0,53091.8,0.358316,0.357983,-0.184465,80,0.676484,10,-6.60352e-05,-3.73409,-1.60234,-0.0368211,0.358064,
2,0,0,1,0,53092.6,0.354321,0.353982,-0.186482,80,0.676327,10,-6.60112e-05,-3.72936,-0.624465,-0.0944809,0.354064,
2,0,0,1,0,53093.4,0.350327,0.350018,-0.187859,80,0.676169,10,-6.57541e-05,-3.72617,-0.802076,-0.0735591,0.350101,
2,0,0,0,0,53094.2,0.346331,0.345951,-0.191255,80,0.676008,10,-6.6165e-05,-3.71839,-1.22953,-0.0479858,0.346036,
2,0,0,1,0,53095,0.342336,0.342023,-0.192964,80,0.675846,10,-6.59982e-05,-3.71452,-0.524208,-0.112551,0.342108,
2,0,0,0,0,53095.8,0.338341,0.338007,-0.195072,80,0.675682,10,-6.59358e-05,-3.7098,-1.29207,-0.0456632,0.338093,
2,0,0,1,0,53096.6,0.334345,0.334033,-0.197957,80,0.675516,10,-6.61243e-05,-3.70343,-0.69731,-0.0846109,0.33412,
2,0,0,1,0,53097.4,0.33035,0.329996,-0.199172,80,0.675349,10,-6.57259e-05,-3.70077,-0.814151,-0.0724682,0.330083,
2,0,0,1,0,53098.2,0.326355,0.326003,-0.201904,80,0.675179,10,-6.58215e-05,-3.69485,-0.606505,-0.0972787,0.326092,
2,0,0,1,0,53099,0.32236,0.322012,-0.204537,80,0.675007,10,-6.58632e-05,-3.68923,-0.89401,-0.0659948,0.322102,
2,0,0,0,0,53099.8,0.318365,0.31804,-0.206292,80,0.674833,10,-6.56091e-05,-3.68552,-0.670656,-0.0879735,0.318131,
2,0,0,1,0,53100.6,0.31437,0.313998,-0.210046,80,0.674658,10,-6.5954e-05,-3.67769,-2.07227,-0.0284713,0.314091,
2,0,0,1,0,53101.4,0.310374,0.310083,-0.212156,80,0.67448,10,-6.5786e-05,-3.67334,-0.532699,-0.110757,0.310176,
2,0,0,1,0,53102.2,0.306379,0.306041,-0.214259,80,0.6743,10,-6.5572e-05,-3.66906,-0.977376,-0.0603657,0.306135,
2,0,0,1,0,53103,0.302385,0.302044,-0.217054,80,0.674118,10,-6.55597e-05,-3.66343,-0.725186,-0.0813584,0.302139,
2,0,0,0,0,53103.8,0.298389,0.298068,-0.21861,80,0.673935,10,-6.51607e-05,-3.66033,-0.670099,-0.0880467,0.298164,
2,0,0,1,0,53104.6,0.294394,0.294054,-0.221948,80,0.673749,10,-6.52647e-05,-3.65375,-0.866798,-0.0680666,0.294152,
2,0,0,1,0,53105.4,0.290398,0.29007,-0.224921,80,0.673561,10,-6.52428e-05,-3.64797,-0.919865,-0.0641399,0.290169,
2,0,0,1,0,53106.2,0.286403,0.286054,-0.226649,80,0.673371,10,-6.48339e-05,-3.64465,-0.94012,-0.062758,0.286154,
2,0,0,1,0,53107,0.282408,0.282085,-0.229615,80,0.673179,10,-6.47711e-05,-3.639,-0.924396,-0.0638254,0.282186,
2,0,0,1,0,53107.8,0.278414,0.278077,-0.23164,80,0.672985,10,-6.44138e-05,-3.63519,-0.731428,-0.0806641,0.278179,
2,0,0,1,0,53108.6,0.274418,0.274089,-0.235188,80,0.672788,10,-6.44625e-05,-3.62858,-0.787498,-0.0749208,0.274192,
2,0,0,0,0,53109.4,0.270423,0.270091,-0.237544,80,0.67259,10,-6.41585e-05,-3.62426,-0.742607,-0.0794498,0.270196,
2,0,0,1,0,53110.2,0.266427,0.266081,-0.239378,80,0.672389,10,-6.3694e-05,-3.62092,-1.03288,-0.0571217,0.266187,
2,0,0,1,0,53111,0.262432,0.262094,-0.242596,80,0.672187,10,-6.35832e-05,-3.61512,-0.820654,-0.0718939,0.262201,
2,0,0,1,0,53111.8,0.258437,0.258136,-0.245084,80,0.671983,10,-6.3265e-05,-3.61069,-0.782609,-0.0753888,0.258244,
2,0,0,1,0,53112.6,0.254442,0.254108,-0.246476,80,0.671776,10,-6.26315e-05,-3.60822,-0.921955,-0.0639945,0.254216,
2,0,0,0,0,53113.4,0.250447,0.250053,-0.250394,80,0.671568,10,-6.26117e-05,-3.60138,-2.72466,-0.0216541,0.250163,
2,0,0,1,0,53114.2,0.246452,0.246116,-0.252453,80,0.671358,10,-6.21327e-05,-3.59782,-0.639255,-0.092295,0.246227,
2,0,0,1,0,53115,0.242456,0.24209,-0.255225,80,0.671145,10,-6.17873e-05,-3.59308,-1.18679,-0.0497139,0.242202,
2,0,0,1,0,53115.8,0.238461,0.238123,-0.257324,80,0.670931,10,-6.12748e-05,-3.58952,-0.806509,-0.0731548,0.238236,
2,0,0,1,0,53116.6,0.234467,0.234138,-0.258903,80,0.670715,10,-6.0619e-05,-3.58686,-1.01878,-0.0579125,0.234252,
2,0,0,0,0,53117.4,0.230471,0.230155,-0.262237,80,0.670497,10,-6.03553e-05,-3.58131,-1.06918,-0.0551825,0.23027,
2,0,0,1,0,53118.2,0.226476,0.226163,-0.2641,80,0.670277,10,-5.97295e-05,-3.57823,-1.01216,-0.0582913,0.226279,
2,0,0,0,0,53119,0.222481,0.222133,-0.265642,80,0.670055,10,-5.90079e-05,-3.5757,-0.982138,-0.060073,0.22225,
2,0,0,1,0,53119.8,0.218485,0.218166,-0.269846,80,0.669831,10,-5.88712e-05,-3.56888,-1.89399,-0.0311511,0.218284,
2,0,0,1,0,53120.6,0.21449,0.214163,-0.271328,80,0.669606,10,-5.81084e-05,-3.56651,-0.594997,-0.0991601,0.214283,
2,0,0,1,0,53121.4,0.210496,0.210151,-0.274164,80,0.669377,10,-5.76158e-05,-3.56199,-0.999943,-0.0590033,0.210271,
2,0,0,1,0,53122.2,0.2065,0.20616,-0.278257,80,0.669147,10,-5.73656e-05,-3.55555,-0.856922,-0.0688511,0.206283,
2,0,0,0,0,53123,0.202505,0.202159,-0.280186,80,0.668914,10,-5.66422e-05,-3.55255,-1.03992,-0.0567352,0.202283,
2,0,0,1,0,53123.8,0.198509,0.198163,-0.282307,80,0.668679,10,-5.59428e-05,-3.54928,-1.03207,-0.0571665,0.198287,
2,0,0,1,0,53124.6,0.194514,0.194201,-0.286642,80,0.668442,10,-5.56662e-05,-3.54266,-0.514208,-0.114739,0.194327,
2,0,0,1,0,53125.4,0.190519,0.190166,-0.289237,80,0.668201,10,-5.50031e-05,-3.53875,-1.04128,-0.0566612,0.190294,
2,0,0,1,0,53126.2,0.186524,0.18616,-0.293786,80,0.667957,10,-5.46911e-05,-3.53197,-0.800007,-0.0737493,0.186289,
2,0,0,0,0,53127,0.182529,0.182175,-0.298238,80,0.667711,10,-5.43315e-05,-3.52544,-0.507698,-0.116211,0.182306,
2,0,0,1,0,53127.8,0.178534,0.178248,-0.303257,80,0.66746,10,-5.4055e-05,-3.51819,-0.559807,-0.105393,0.178382,
2,0,0,1,0,53128.6,0.174538,0.174174,-0.308432,80,0.667205,10,-5.37207e-05,-3.51084,-0.430915,-0.136918,0.174309,
2,0,0,1,0,53129.4,0.170543,0.170208,-0.314921,80,0.666946,10,-5.36022e-05,-3.5018,-0.364247,-0.161978,0.170347,
2,0,0,1,0,53130.2,0.166549,0.166215,-0.321164,80,0.66668,10,-5.33822e-05,-3.49327,-0.474491,-0.124344,0.166356,
2,0,0,0,0,53131,0.162553,0.162223,-0.331075,80,0.666409,10,-5.3708e-05,-3.48007,-0.302613,-0.194968,0.162369,
2,0,0,1,0,53131.8,0.158558,0.158209,-0.339758,80,0.66613,10,-5.37527e-05,-3.46883,-0.279247,-0.211283,0.158358,
2,0,0,0,0,53132.6,0.154563,0.154227,-0.354864,80,0.66584,10,-5.47295e-05,-3.44994,-0.236836,-0.249117,0.154383,
2,0,0,1,0,53133.4,0.150567,0.150232,-0.373348,80,0.665539,10,-5.60888e-05,-3.42789,-0.148013,-0.398613,0.150396,
2,0,0,1,0,53134.2,0.146572,0.146244,-0.396863,80,0.665221,10,-5.80388e-05,-3.40136,-0.135543,-0.435287,0.146419,
2,0,0,1,0,53135,0.142578,0.142227,-0.428824,80,0.664881,10,-6.09902e-05,-3.36772,-0.107293,-0.549898,0.142415,
2,0,0,1,0,53135.8,0.138582,0.13821,-0.466237,80,0.664513,10,-6.44388e-05,-3.33139,-0.100196,-0.588845,0.138416,
2,0,0,0,0,53136.6,0.134587,0.134201,-0.512573,80,0.66411,10,-6.87879e-05,-3.29024,-0.105292,-0.560346,0.134427,
2,0,0,1,0,53137.4,0.130591,0.130295,-0.558658,80,0.66367,10,-7.27905e-05,-3.25285,-0.111249,-0.530344,0.130541,
2,0,0,1,0,53138.2,0.126596,0.126241,-0.599805,80,0.663195,10,-7.57202e-05,-3.22199,-0.144851,-0.407315,0.126505,
2,0,0,1,0,53139,0.122602,0.122245,-0.634559,80,0.662688,10,-7.75718e-05,-3.19753,-0.21531,-0.274023,0.122524,
2,0,0,1,0,53139.8,0.118607,0.118215,-0.657253,80,0.66216,10,-7.76971e-05,-3.18227,-0.312997,-0.1885,0.118504,
2,0,0,0,0,53140.6,0.114611,0.11426,-0.668763,80,0.661617,10,-7.64129e-05,-3.17473,-0.942128,-0.0626242,0.114554,
2,0,0,1,0,53141.4,0.110616,0.110273,-0.675062,80,0.661069,10,-7.44411e-05,-3.17066,-1.54968,-0.0380724,0.11057,
2,0,0,1,0,53142.2,0.10662,0.106277,-0.674608,80,0.660517,10,-7.16953e-05,-3.17095,6.05635,0.00974184,0.106574,
2,0,0,1,0,53143,0.102625,0.102256,-0.673952,80,0.659966,10,-6.89158e-05,-3.17137,3.15543,0.0186979,0.102553,
2,0,0,1,0,53143.8,0.0986305,0.0982981,-0.67046,80,0.659417,10,-6.5905e-05,-3.17363,1.24031,0.0475686,0.0985931,
2,0,0,0,0,53144.6,0.0946351,0.0943032,-0.662753,80,0.658872,10,-6.24998e-05,-3.17865,1.02567,0.0575236,0.0945948,
2,0,0,1,0,53145.4,0.0906399,0.0902822,-0.659613,80,0.658331,10,-5.95513e-05,-3.18071,0.788382,0.0748368,0.0905724,
2,0,0,0,0,53146.2,0.0866448,0.0862781,-0.65161,80,0.657796,10,-5.62196e-05,-3.18601,0.87548,0.0673916,0.0865648,
2,0,0,1,0,53147,0.0826492,0.0823013,-0.643335,80,0.657267,10,-5.29473e-05,-3.19156,0.717449,0.0822358,0.0825843,
2,0,0,1,0,53147.8,0.0786544,0.0782593,-0.636235,80,0.656745,10,-4.97912e-05,-3.19638,0.81819,0.0721104,0.0785392,
2,0,0,1,0,53148.6,0.0746596,0.0743182,-0.627321,80,0.656229,10,-4.66213e-05,-3.20251,0.713746,0.0826625,0.0745942,
2,0,0,1,0,53149.4,0.0706641,0.0703094,-0.620778,80,0.655719,10,-4.36466e-05,-3.20706,0.700221,0.0842592,0.0705826,
2,0,0,0,0,53150.2,0.0666689,0.066334,-0.611971,80,0.655215,10,-4.05945e-05,-3.21327,0.885415,0.0666354,0.0666032,
2,0,0,1,0,53151,0.0626737,0.0623044,-0.603195,80,0.654718,10,-3.75817e-05,-3.21954,0.593192,0.0994619,0.0625698,
2,0,0,1,0,53151.8,0.0586783,0.0583361,-0.597249,80,0.654226,10,-3.48412e-05,-3.22384,0.542723,0.108711,0.0585989,
2,0,0,1,0,53152.6,0.0546835,0.0543558,-0.586964,80,0.653742,10,-3.19048e-05,-3.23139,0.841903,0.0700793,0.054614,
2,0,0,1,0,53153.4,0.0506886,0.0503468,-0.578461,80,0.653265,10,-2.91237e-05,-3.23773,0.493538,0.119545,0.0506013,
2,0,0,0,0,53154.2,0.046693,0.0463644,-0.569737,80,0.652796,10,-2.64155e-05,-3.24433,0.576323,0.102373,0.0466151,
2,0,0,1,0,53155,0.0426979,0.042356,-0.557989,80,0.652335,10,-2.36342e-05,-3.25337,0.52377,0.112645,0.0426016,
2,0,0,1,0,53155.8,0.0387022,0.0383367,-0.548674,80,0.651881,10,-2.10344e-05,-3.26069,0.450778,0.130885,0.0385782,
2,0,0,1,0,53156.6,0.0347074,0.0343627,-0.539202,80,0.651436,10,-1.85284e-05,-3.26825,0.653696,0.090256,0.0345999,
2,0,0,1,0,53157.4,0.0307126,0.0303589,-0.528007,80,0.650998,10,-1.60297e-05,-3.27736,0.592968,0.0994994,0.0305913,
2,0,0,0,0,53158.2,0.0267172,0.0263768,-0.52127,80,0.650567,10,-1.37494e-05,-3.28294,0.469465,0.125675,0.0266061,
2,0,0,1,0,53159,0.022722,0.0223684,-0.513975,80,0.650143,10,-1.14968e-05,-3.28906,0.698626,0.0844515,0.0225946,
2,0,0,0,0,53159.8,0.0187268,0.0183601,-0.508389,80,0.649725,10,-9.33407e-06,-3.2938,0.817291,0.0721897,0.0185838,
2,0,0,1,0,53160.6,0.0147313,0.0143736,-0.503536,80,0.649311,10,-7.23764e-06,-3.29797,1.23119,0.047921,0.0145952,
2,0,0,1,0,53161.4,0.0107365,0.0103382,-0.498833,80,0.6489,10,-5.15704e-06,-3.30204,2.39127,0.0246731,0.0105577,
2,0,0,1,0,53162.2,0.00674163,0.00639173,-0.497475,80,0.648492,10,-3.17973e-06,-3.30323,4.74117,0.0124442,0.00661062,
2,0,0,1,0,53163,0.00274612,0.00242431,-0.497429,80,0.648084,10,-1.20592e-06,-3.30327,-1.47702,-0.0399454,0.00264318,
2,0,0,0,0,53163.4,0.000274105,-0.000135643,-0.499249,80,0.647829,10,6.77198e-08,-3.30168, , ,8.40265e-05,