File: Figure_codes/Fig_3-5/workspace_calculate_alpha_eff/20221101_1-115_003_TrumpetPlot_ParaChange_from10_every3_16_CV_C01_85.csv
mode,ox/red,error,control changes,counter inc.,time/s,control/V,Ewe/V,<I>/mA,cycle number,(Q-Qo)/C,I Range,P/W,log(|I|),Tafel slope mV/dec,alpha_eff,E-IR/V,
2,0,0,0,0,56763.8,2.44065e-05,-0.000344411,-0.0930337,86,0.0000000E+000,10,3.20418e-08,-4.03136, , ,-0.000303476,
2,1,0,0,0,56764.5,0.00379485,0.00347835,0.147161,86,8.83135e-05,10,5.11878e-07,-3.83221,0.0306314,1.92613,0.0034136,
2,1,0,1,0,56765.3,0.00779002,0.0074676,0.173506,86,0.000227315,10,1.29568e-06,-3.76068,0.0731894,0.806127,0.00739126,
2,1,0,0,0,56766.1,0.0117852,0.0114569,0.189023,86,0.000382236,10,2.1656e-06,-3.72349,0.11943,0.494014,0.0113737,
2,1,0,1,0,56766.9,0.0157806,0.0154029,0.203903,86,0.000548985,10,3.1407e-06,-3.69058,0.134255,0.439462,0.0153132,
2,1,0,1,0,56767.7,0.0197754,0.0194026,0.216139,86,0.000726342,10,4.19366e-06,-3.66527,0.151218,0.390166,0.0193075,
2,1,0,1,0,56768.5,0.0237704,0.0234287,0.229488,86,0.000914277,10,5.37662e-06,-3.63924,0.164968,0.357645,0.0233277,
2,1,0,1,0,56769.3,0.0277659,0.0274467,0.242469,86,0.00111252,10,6.65497e-06,-3.61534,0.168789,0.349549,0.02734,
2,1,0,0,0,56770.1,0.0317611,0.0314148,0.25522,86,0.00132163,10,8.01768e-06,-3.59308,0.164929,0.357729,0.0313025,
2,1,0,1,0,56770.9,0.0357567,0.035414,0.269873,86,0.00154174,10,9.5573e-06,-3.56884,0.2065,0.285714,0.0352953,
2,1,0,1,0,56771.7,0.0397516,0.0394168,0.283415,86,0.00177277,10,1.11713e-05,-3.54758,0.175454,0.33627,0.0392921,
2,1,0,1,0,56772.5,0.0437465,0.0434567,0.29531,86,0.00201486,10,1.28332e-05,-3.52972,0.216176,0.272925,0.0433268,
2,1,0,1,0,56773.3,0.0477413,0.047401,0.308991,86,0.0022666,10,1.46465e-05,-3.51005,0.224656,0.262623,0.047265,
2,1,0,0,0,56774.1,0.0517369,0.0514013,0.320899,86,0.0025282,10,1.64946e-05,-3.49363,0.22171,0.266114,0.0512601,
2,1,0,1,0,56774.9,0.0557321,0.0554468,0.333464,86,0.00279994,10,1.84895e-05,-3.47695,0.317718,0.185699,0.0553,
2,1,0,1,0,56775.7,0.0597277,0.0594109,0.343384,86,0.00307987,10,2.04008e-05,-3.46422,0.314177,0.187792,0.0592598,
2,1,0,1,0,56776.5,0.0637226,0.0633819,0.35279,86,0.00336831,10,2.23605e-05,-3.45248,0.303302,0.194526,0.0632267,
2,1,0,1,0,56777.3,0.0677174,0.067358,0.363605,86,0.00366485,10,2.44917e-05,-3.43937,0.529296,0.111469,0.067198,
2,1,0,0,0,56778.1,0.0717128,0.0713868,0.372132,86,0.00396825,10,2.65653e-05,-3.4293,0.326999,0.180429,0.071223,
2,1,0,1,0,56778.9,0.075708,0.075393,0.378211,86,0.00427828,10,2.85145e-05,-3.42227,0.436586,0.135139,0.0752266,
2,1,0,0,0,56779.7,0.0797031,0.0793642,0.387363,86,0.00459444,10,3.07428e-05,-3.41188,0.440879,0.133824,0.0791938,
2,1,0,1,0,56780.5,0.0836986,0.0833654,0.395355,86,0.0049173,10,3.29589e-05,-3.40301,0.393677,0.149869,0.0831914,
2,1,0,1,0,56781.3,0.0876935,0.0873872,0.405342,86,0.00524757,10,3.54217e-05,-3.39218,0.349625,0.168752,0.0872089,
2,1,0,1,0,56782.1,0.0916883,0.091356,0.41923,86,0.00558637,10,3.82992e-05,-3.37755,0.261428,0.225683,0.0911715,
2,1,0,1,0,56782.9,0.0956838,0.0953445,0.4328,86,0.00593681,10,4.12651e-05,-3.36371,0.236383,0.249595,0.0951541,
2,1,0,0,0,56783.7,0.099679,0.0993539,0.451923,86,0.00630093,10,4.49004e-05,-3.34494,0.242064,0.243738,0.0991551,
2,1,0,1,0,56784.5,0.103674,0.103353,0.472084,86,0.00668027,10,4.87911e-05,-3.32598,0.193713,0.304574,0.103145,
2,1,0,1,0,56785.3,0.10767,0.107319,0.492134,86,0.00707669,10,5.28152e-05,-3.30792,0.216209,0.272884,0.107102,
2,1,0,1,0,56786.1,0.111664,0.111343,0.512769,86,0.00748861,10,5.70931e-05,-3.29008,0.267408,0.220637,0.111117,
2,1,0,1,0,56786.9,0.115659,0.115314,0.526108,86,0.00791437,10,6.06675e-05,-3.27893,0.35178,0.167719,0.115082,
2,1,0,0,0,56787.7,0.119655,0.119318,0.540093,86,0.00835169,10,6.4443e-05,-3.26753,0.51723,0.114069,0.119081,
2,1,0,1,0,56788.5,0.12365,0.123336,0.549263,86,0.00879677,10,6.77439e-05,-3.26022,0.647597,0.091106,0.123094,
2,1,0,1,0,56789.3,0.127646,0.127335,0.556111,86,0.00924862,10,7.08126e-05,-3.25484,0.878972,0.0671239,0.127091,
2,1,0,1,0,56790.1,0.131641,0.131274,0.556465,86,0.00970386,10,7.30495e-05,-3.25456,-0.672151,-0.0877779,0.131029,
2,1,0,1,0,56790.9,0.135635,0.135337,0.545823,86,0.0101548,10,7.38703e-05,-3.26295,-0.301645,-0.195594,0.135097,
2,1,0,0,0,56791.7,0.139631,0.139312,0.515917,86,0.0105905,10,7.18735e-05,-3.28742,-0.123793,-0.476602,0.139085,
2,1,0,1,0,56792.5,0.143626,0.143281,0.472212,86,0.0109961,10,6.76591e-05,-3.32586,-0.0853082,-0.69161,0.143074,
2,1,0,0,0,56793.3,0.147621,0.147268,0.418142,86,0.0113614,10,6.1579e-05,-3.37868,-0.0747303,-0.789506,0.147084,
2,1,0,1,0,56794.1,0.151617,0.151276,0.371103,86,0.0116859,10,5.61389e-05,-3.43051,-0.0823002,-0.716888,0.151113,
2,1,0,1,0,56794.9,0.155612,0.155315,0.337543,86,0.0119771,10,5.24255e-05,-3.47167,-0.118721,-0.496963,0.155166,
2,1,0,1,0,56795.7,0.159606,0.159284,0.314109,86,0.0122464,10,5.00325e-05,-3.50292,-0.162545,-0.362977,0.159146,
2,1,0,1,0,56796.5,0.163602,0.163273,0.299757,86,0.0125013,10,4.89423e-05,-3.52323,-0.202887,-0.290803,0.163141,
2,1,0,0,0,56797.3,0.167597,0.167246,0.289769,86,0.0127464,10,4.84629e-05,-3.53795,-0.386889,-0.152499,0.167119,
2,1,0,1,0,56798.1,0.171592,0.171239,0.282047,86,0.0129851,10,4.82974e-05,-3.54968,-0.436483,-0.135171,0.171115,
2,1,0,1,0,56798.9,0.175588,0.175252,0.2779,86,0.0132187,10,4.87024e-05,-3.55611,-0.479239,-0.123112,0.175129,
2,1,0,1,0,56799.7,0.179582,0.179236,0.273426,86,0.0134484,10,4.90078e-05,-3.56316,-0.983305,-0.0600018,0.179116,
2,1,0,1,0,56800.5,0.183577,0.183217,0.27095,86,0.0136755,10,4.96427e-05,-3.56711,-0.817973,-0.0721295,0.183098,
2,1,0,0,0,56801.3,0.187573,0.187244,0.267976,86,0.0139001,10,5.01768e-05,-3.5719,-0.833507,-0.0707852,0.187126,
2,1,0,1,0,56802.1,0.191568,0.191235,0.265566,86,0.014123,10,5.07855e-05,-3.57583,-1.84965,-0.0318979,0.191118,
2,1,0,0,0,56802.9,0.195563,0.195272,0.26381,86,0.0143444,10,5.15147e-05,-3.57871,-0.821807,-0.071793,0.195156,
2,1,0,1,0,56803.7,0.199559,0.199223,0.263421,86,0.0145641,10,5.24796e-05,-3.57935,-3.97891,-0.0148282,0.199107,
2,1,0,1,0,56804.5,0.203553,0.203215,0.260346,86,0.0147828,10,5.29063e-05,-3.58445,-2.71963,-0.0216941,0.203101,
2,1,0,1,0,56805.3,0.207548,0.207237,0.260631,86,0.0150005,10,5.40125e-05,-3.58397,-1.85408,-0.0318218,0.207122,
2,1,0,1,0,56806.1,0.211544,0.211251,0.25785,86,0.015217,10,5.44711e-05,-3.58863,-1.88451,-0.0313079,0.211138,
2,1,0,0,0,56806.9,0.215539,0.215179,0.256943,86,0.0154324,10,5.52887e-05,-3.59016,-0.815261,-0.0723694,0.215066,
2,1,0,1,0,56807.7,0.219535,0.219211,0.256669,86,0.0156466,10,5.62647e-05,-3.59063,-4.07881,-0.014465,0.219098,
2,1,0,1,0,56808.5,0.223529,0.223219,0.255112,86,0.0158601,10,5.69459e-05,-3.59327,-4.14033,-0.0142501,0.223107,
2,1,0,1,0,56809.3,0.227524,0.227196,0.253959,86,0.0160726,10,5.76986e-05,-3.59524,-0.996826,-0.0591879,0.227085,
2,1,0,1,0,56810.1,0.23152,0.231184,0.252463,86,0.0162842,10,5.83652e-05,-3.5978,3.47518,0.0169776,0.231073,
2,1,0,0,0,56810.9,0.235515,0.235138,0.251933,86,0.0164953,10,5.92389e-05,-3.59872,-8.39791,-0.00702555,0.235027,
2,1,0,1,0,56811.7,0.23951,0.239205,0.251189,86,0.0167056,10,6.00856e-05,-3.6,-1.42502,-0.0414029,0.239094,
2,1,0,1,0,56812.5,0.243506,0.243195,0.251313,86,0.016915,10,6.11182e-05,-3.59978,71.2219,0.000828396,0.243085,
2,1,0,1,0,56813.3,0.2475,0.24715,0.249391,86,0.017124,10,6.1637e-05,-3.60312,-2.27103,-0.0259794,0.24704,
2,1,0,1,0,56814.1,0.251495,0.251162,0.248855,86,0.0173322,10,6.2503e-05,-3.60405,-1.46655,-0.0402306,0.251053,
2,1,0,0,0,56814.9,0.255491,0.255198,0.247735,86,0.0175398,10,6.32214e-05,-3.60601,3.20864,0.0183879,0.255089,
2,1,0,1,0,56815.7,0.259486,0.25917,0.246972,86,0.0177469,10,6.40078e-05,-3.60735,-0.808834,-0.0729445,0.259061,
2,1,0,0,0,56816.5,0.263481,0.263167,0.246309,86,0.0179532,10,6.48202e-05,-3.60852,3.55236,0.0166087,0.263058,
2,1,0,1,0,56817.3,0.267477,0.267124,0.245684,86,0.0181589,10,6.56282e-05,-3.60962,-1.37593,-0.04288,0.267016,
2,1,0,1,0,56818.1,0.271471,0.271098,0.245317,86,0.0183638,10,6.65051e-05,-3.61027,758.591,7.77758e-05,0.270991,
2,1,0,1,0,56818.9,0.275466,0.275122,0.243953,86,0.0185679,10,6.71167e-05,-3.61269,-1.06703,-0.0552938,0.275015,
2,1,0,1,0,56819.7,0.279462,0.279175,0.242931,86,0.0187711,10,6.78201e-05,-3.61452,-3.93973,-0.0149756,0.279068,
2,1,0,0,0,56820.5,0.283457,0.283094,0.243211,86,0.0189735,10,6.88514e-05,-3.61402,-2.71235,-0.0217524,0.282987,
2,1,0,1,0,56821.3,0.287452,0.287139,0.240492,86,0.0191751,10,6.90548e-05,-3.6189,-1.90159,-0.0310267,0.287033,
2,1,0,1,0,56822.1,0.291448,0.291093,0.239528,86,0.019376,10,6.97247e-05,-3.62064,-1.2416,-0.0475192,0.290987,
2,1,0,1,0,56822.9,0.295442,0.295112,0.239455,86,0.019576,10,7.0666e-05,-3.62078,-3.77566,-0.0156264,0.295007,
2,1,0,1,0,56823.7,0.299437,0.299113,0.238251,86,0.0197755,10,7.1264e-05,-3.62296,14.5811,0.00404634,0.299008,
2,1,0,0,0,56824.5,0.303433,0.303138,0.237651,86,0.0199742,10,7.2041e-05,-3.62406,-1.57844,-0.0373788,0.303033,
2,1,0,1,0,56825.3,0.307428,0.307097,0.237093,86,0.0201721,10,7.28107e-05,-3.62508,1.87713,0.031431,0.306993,
2,1,0,1,0,56826,0.311424,0.311089,0.23647,86,0.0203698,10,7.35631e-05,-3.62622,-1.31933,-0.0447197,0.310985,
2,1,0,1,0,56826.8,0.315418,0.315088,0.235829,86,0.0205666,10,7.43069e-05,-3.6274,-1.93018,-0.030567,0.314985,
2,1,0,1,0,56827.6,0.319413,0.319125,0.234047,86,0.0207627,10,7.46903e-05,-3.6307,-3.65861,-0.0161263,0.319022,
2,1,0,0,0,56828.4,0.323409,0.323069,0.233388,86,0.0209583,10,7.54003e-05,-3.63192,-1.27002,-0.0464559,0.322966,
2,1,0,1,0,56829.2,0.327404,0.327083,0.233492,86,0.021153,10,7.63712e-05,-3.63173,2.96164,0.0199214,0.32698,
2,1,0,0,0,56830,0.331399,0.331099,0.231999,86,0.0213474,10,7.68147e-05,-3.63451,-0.951682,-0.0619955,0.330997,
2,1,0,1,0,56830.8,0.335395,0.33506,0.232604,86,0.0215412,10,7.79364e-05,-3.63338,1.97471,0.0298778,0.334958,
2,1,0,1,0,56831.6,0.339389,0.339047,0.231948,86,0.0217345,10,7.86413e-05,-3.63461,-1.74032,-0.0339018,0.338945,
2,1,0,1,0,56832.4,0.343384,0.343047,0.231468,86,0.0219276,10,7.94045e-05,-3.63551,-37.8489,-0.00155883,0.342945,
2,1,0,1,0,56833.2,0.34738,0.347053,0.231956,86,0.0221201,10,8.05012e-05,-3.63459,-4.21258,-0.0140057,0.346951,
2,1,0,0,0,56834,0.351375,0.351045,0.229462,86,0.0223121,10,8.05515e-05,-3.63929,11.5292,0.00511746,0.350944,
2,1,0,1,0,56834.8,0.35537,0.355033,0.230261,86,0.022504,10,8.17502e-05,-3.63778,-0.91869,-0.0642219,0.354931,
2,1,0,1,0,56835.6,0.359366,0.359049,0.229501,86,0.0226953,10,8.24021e-05,-3.63922,3.38981,0.0174051,0.358948,
2,1,0,1,0,56836.4,0.36336,0.363074,0.229279,86,0.0228863,10,8.32453e-05,-3.63964,-2.855,-0.0206655,0.362973,
2,1,0,1,0,56837.2,0.367355,0.367067,0.228534,86,0.0230768,10,8.38871e-05,-3.64105,-2.88058,-0.020482,0.366966,
2,1,0,0,0,56838,0.371351,0.37102,0.228289,86,0.0232668,10,8.46999e-05,-3.64152,2.70471,0.0218138,0.37092,
2,1,0,1,0,56838.8,0.375346,0.375009,0.227772,86,0.0234567,10,8.54166e-05,-3.6425,-2.48859,-0.0237082,0.374909,
2,1,0,1,0,56839.6,0.379342,0.379029,0.227942,86,0.0236459,10,8.63965e-05,-3.64218,-4.9287,-0.0119707,0.378929,
2,1,0,1,0,56840.4,0.383336,0.383046,0.226893,86,0.0238346,10,8.69106e-05,-3.64418,-3.18333,-0.0185341,0.382947,
2,1,0,1,0,56841.2,0.387331,0.387015,0.226985,86,0.024023,10,8.78468e-05,-3.644,-1.86974,-0.0315553,0.386916,
2,1,0,0,0,56842,0.391327,0.391002,0.22636,86,0.0242111,10,8.85073e-05,-3.6452,3.09483,0.019064,0.390902,
2,1,0,1,0,56842.8,0.395322,0.394988,0.224727,86,0.0243991,10,8.87646e-05,-3.64834,-3.98999,-0.014787,0.394889,
2,1,0,0,0,56843.6,0.399317,0.398992,0.226222,86,0.0245867,10,9.02607e-05,-3.64547,3.46206,0.0170419,0.398892,
2,1,0,1,0,56844.4,0.403313,0.402993,0.225551,86,0.0247742,10,9.08955e-05,-3.64676,-1.92253,-0.0306887,0.402894,
2,1,0,1,0,56845.2,0.407307,0.406985,0.225943,86,0.0249618,10,9.19555e-05,-3.646,-4.27276,-0.0138084,0.406886,
2,1,0,1,0,56846,0.411302,0.410977,0.226332,86,0.025149,10,9.30175e-05,-3.64525,36.2174,0.00162905,0.410878,
2,1,0,1,0,56846.8,0.415298,0.414986,0.22456,86,0.0253361,10,9.31891e-05,-3.64867,3.65479,0.0161432,0.414887,
2,1,0,0,0,56847.6,0.419293,0.41893,0.224343,86,0.0255228,10,9.3984e-05,-3.64909,-1.20509,-0.0489588,0.418831,
2,1,0,1,0,56848.4,0.423288,0.422991,0.225146,86,0.0257093,10,9.52346e-05,-3.64754,6.95014,0.00848904,0.422892,
2,1,0,1,0,56849.2,0.427283,0.426999,0.224168,86,0.0258959,10,9.57196e-05,-3.64943,2.20098,0.0268063,0.4269,
2,1,0,1,0,56850,0.431278,0.430968,0.225279,86,0.0260822,10,9.70881e-05,-3.64728,354.122,0.000166609,0.430869,
2,1,0,1,0,56850.8,0.435273,0.434932,0.223961,86,0.0262682,10,9.74079e-05,-3.64983,-5.25227,-0.0112332,0.434833,
2,1,0,0,0,56851.6,0.439269,0.438974,0.223766,86,0.0264542,10,9.82274e-05,-3.65021,-2.44495,-0.0241314,0.438875,
2,1,0,1,0,56852.4,0.443264,0.442966,0.22333,86,0.0266397,10,9.89277e-05,-3.65105,-427.599,-0.00013798,0.442868,
2,1,0,0,0,56853.2,0.447259,0.446945,0.223696,86,0.0268251,10,9.99798e-05,-3.65034,-15.149,-0.00389464,0.446846,
2,1,0,1,0,56854,0.451254,0.450931,0.22401,86,0.0270106,10,0.000101013,-3.64973,-4.74753,-0.0124275,0.450832,
2,1,0,1,0,56854.8,0.455249,0.454945,0.223329,86,0.027196,10,0.000101602,-3.65106,5.14458,0.0114684,0.454847,
2,1,0,1,0,56855.6,0.459244,0.458961,0.223173,86,0.0273814,10,0.000102428,-3.65136,2.02793,0.0290937,0.458863,
2,1,0,1,0,56856.4,0.46324,0.462898,0.224327,86,0.0275669,10,0.000103841,-3.64912,-32.489,-0.001816,0.4628,
2,1,0,0,0,56857.2,0.467235,0.466888,0.224308,86,0.0277526,10,0.000104727,-3.64916,4.3382,0.0136001,0.466789,
2,1,0,1,0,56858,0.471231,0.470935,0.225028,86,0.0279386,10,0.000105973,-3.64776,3.18803,0.0185067,0.470836,
2,1,0,1,0,56858.8,0.475225,0.474903,0.225077,86,0.0281249,10,0.00010689,-3.64767,-11.8121,-0.00499487,0.474804,
2,1,0,1,0,56859.6,0.47922,0.478911,0.226041,86,0.0283113,10,0.000108254,-3.64581,3.37729,0.0174696,0.478812,
2,1,0,1,0,56860.4,0.483216,0.482899,0.226437,86,0.0284982,10,0.000109346,-3.64505,3.54885,0.0166251,0.482799,
2,1,0,0,0,56861.2,0.487211,0.486908,0.226477,86,0.0286854,10,0.000110273,-3.64498,1.67304,0.0352651,0.486808,
2,1,0,1,0,56862,0.491206,0.490927,0.226347,86,0.0288729,10,0.00011112,-3.64523,-3.61697,-0.016312,0.490827,
2,1,0,1,0,56862.8,0.495201,0.494856,0.227168,86,0.0290607,10,0.000112416,-3.64365,1.34558,0.0438473,0.494756,
2,1,0,1,0,56863.6,0.499196,0.49887,0.2288,86,0.0292491,10,0.000114142,-3.64054,-17.6754,-0.00333797,0.498769,
2,1,0,1,0,56864.4,0.503191,0.502866,0.228575,86,0.0294382,10,0.000114942,-3.64097,2.37564,0.0248354,0.502765,
2,1,0,0,0,56865.2,0.507187,0.506872,0.230053,86,0.0296279,10,0.000116607,-3.63817,1.43534,0.0411053,0.506771,
2,1,0,1,0,56866,0.511182,0.510838,0.2305,86,0.029818,10,0.000117748,-3.63733,1.405,0.0419929,0.510737,
2,1,0,0,0,56866.8,0.515177,0.514829,0.231864,86,0.0300091,10,0.00011937,-3.63477,-1.58442,-0.0372375,0.514727,
2,1,0,1,0,56867.6,0.519173,0.518869,0.232851,86,0.0302006,10,0.000120819,-3.63292,0.87862,0.0671508,0.518767,
2,1,0,1,0,56868.4,0.523167,0.522879,0.234225,86,0.030393,10,0.000122471,-3.63037,3.1097,0.0189729,0.522776,
2,1,0,1,0,56869.2,0.527162,0.526837,0.235431,86,0.0305862,10,0.000124034,-3.62814,1.18256,0.0498919,0.526734,
2,1,0,1,0,56870,0.531158,0.530858,0.236577,86,0.0307806,10,0.000125588,-3.62603,1.22866,0.0480198,0.530754,
2,1,0,0,0,56870.8,0.535153,0.534864,0.23846,86,0.0309762,10,0.000127543,-3.62259,1.79324,0.0329013,0.534759,
2,1,0,1,0,56871.6,0.539148,0.538802,0.239472,86,0.0311728,10,0.000129028,-3.62075,3.67496,0.0160546,0.538697,
2,1,0,1,0,56872.4,0.543143,0.542817,0.240983,86,0.0313708,10,0.00013081,-3.61801,0.901469,0.0654488,0.542711,
2,1,0,1,0,56873.2,0.547138,0.546858,0.243071,86,0.0315702,10,0.000132925,-3.61427,2.55914,0.0230546,0.546751,
2,1,0,1,0,56874,0.551133,0.550807,0.245088,86,0.0317711,10,0.000134996,-3.61068,0.672702,0.0877059,0.550699,
2,1,0,0,0,56874.8,0.555129,0.55483,0.247451,86,0.0319739,10,0.000137293,-3.60651,0.978998,0.0602657,0.554721,
2,1,0,1,0,56875.6,0.559124,0.558834,0.25011,86,0.0321782,10,0.00013977,-3.60187,0.968804,0.0608998,0.558724,
2,1,0,1,0,56876.4,0.56312,0.562812,0.252334,86,0.0323847,10,0.000142016,-3.59802,0.771142,0.0765099,0.562701,
2,1,0,1,0,56877.2,0.567114,0.566794,0.255033,86,0.0325935,10,0.000144551,-3.5934,1.08167,0.0545453,0.566682,
2,1,0,1,0,56878,0.571109,0.570827,0.258121,86,0.0328043,10,0.000147342,-3.58818,0.619799,0.0951922,0.570714,
2,1,0,0,0,56878.8,0.575105,0.574779,0.261342,86,0.0330177,10,0.000150214,-3.58279,0.75516,0.0781291,0.574664,
2,1,0,1,0,56879.6,0.5791,0.57879,0.265582,86,0.033234,10,0.000153716,-3.5758,0.806935,0.0731162,0.578673,
2,1,0,0,0,56880.4,0.583095,0.582782,0.269437,86,0.0334532,10,0.000157023,-3.56954,0.473049,0.124723,0.582663,
2,1,0,1,0,56881.2,0.58709,0.586772,0.273479,86,0.0336758,10,0.00016047,-3.56308,0.648185,0.0910234,0.586652,
2,1,0,1,0,56882,0.591085,0.590828,0.278261,86,0.0339017,10,0.000164405,-3.55555,0.427496,0.138013,0.590705,
2,1,0,1,0,56882.8,0.59508,0.594772,0.283883,86,0.0341318,10,0.000168846,-3.54686,0.492229,0.119863,0.594647,
2,1,0,1,0,56883.6,0.599076,0.598786,0.290227,86,0.0343668,10,0.000173784,-3.53726,0.391723,0.150617,0.598659,
2,1,0,0,0,56884.4,0.603071,0.602782,0.297064,86,0.0346068,10,0.000179065,-3.52715,0.371428,0.158846,0.602651,
2,1,0,1,0,56885.2,0.607066,0.606735,0.303829,86,0.0348527,10,0.000184344,-3.51737,0.363684,0.162229,0.606601,
2,1,0,1,0,56886,0.611061,0.610758,0.313527,86,0.035105,10,0.000191489,-3.50372,0.337521,0.174804,0.61062,
2,1,0,1,0,56886.8,0.615056,0.614724,0.323134,86,0.0353646,10,0.000198639,-3.49062,0.248092,0.237815,0.614582,
2,1,0,1,0,56887.6,0.619051,0.618773,0.334117,86,0.0356328,10,0.000206743,-3.4761,0.278566,0.211799,0.618626,
2,1,0,0,0,56888.4,0.623047,0.622705,0.347097,86,0.0359104,10,0.000216139,-3.45955,0.227712,0.2591,0.622552,
2,1,0,1,0,56889.2,0.627042,0.626796,0.361966,86,0.036199,10,0.000226879,-3.44133,0.203732,0.289596,0.626637,
2,1,0,1,0,56890,0.631037,0.630768,0.379291,86,0.0365011,10,0.000239245,-3.42103,0.185217,0.318545,0.630601,
2,1,0,1,0,56890.8,0.635032,0.634725,0.400697,86,0.0368183,10,0.000254333,-3.39718,0.159946,0.368875,0.634549,
2,1,0,1,0,56891.6,0.639027,0.638703,0.424088,86,0.0371534,10,0.000270866,-3.37254,0.157509,0.374581,0.638517,
2,1,0,1,0,56892.4,0.643022,0.642705,0.451179,86,0.0375083,10,0.000289975,-3.34565,0.143901,0.410004,0.642506,
2,1,0,1,0,56893.2,0.647018,0.646777,0.482356,86,0.0378865,10,0.000311977,-3.31663,0.126878,0.465014,0.646565,
2,1,0,0,0,56894,0.651013,0.650755,0.519296,86,0.038292,10,0.000337934,-3.28459,0.121957,0.483777,0.650526,
2,1,0,1,0,56894.8,0.655008,0.654714,0.561686,86,0.038729,10,0.000367743,-3.25051,0.114188,0.516692,0.654466,
2,1,0,1,0,56895.6,0.659003,0.658701,0.609733,86,0.0392019,10,0.000401632,-3.21486,0.104121,0.566648,0.658433,
2,1,0,1,0,56896.4,0.662998,0.662725,0.668454,86,0.0397178,10,0.000443001,-3.17493,0.0999189,0.590479,0.662431,
2,1,0,1,0,56897.2,0.666994,0.666706,0.733397,86,0.0402825,10,0.00048896,-3.13466,0.0945328,0.624122,0.666384,
2,1,0,0,0,56898,0.670989,0.6707,0.80971,86,0.040904,10,0.000543073,-3.09167,0.0913552,0.645831,0.670344,
2,1,0,1,0,56898.8,0.674984,0.674679,0.896418,86,0.04159,10,0.000604794,-3.04749,0.0885826,0.666045,0.674284,
2,1,0,1,0,56899.6,0.67898,0.678688,0.993204,86,0.0423494,10,0.000674076,-3.00296,0.0877158,0.672627,0.678251,
2,1,0,1,0,56900.4,0.682974,0.682661,1.10236,86,0.0431917,10,0.000752541,-2.95768,0.085778,0.687822,0.682176,
2,1,0,1,0,56901.2,0.686969,0.686698,1.22625,86,0.0441266,10,0.000842066,-2.91142,0.0855867,0.68936,0.686159,
2,1,0,0,0,56902,0.690965,0.690637,1.36403,86,0.0451665,10,0.000942048,-2.86518,0.0851,0.693302,0.690036,
2,1,0,1,0,56902.8,0.69496,0.69467,1.51684,86,0.0463221,10,0.0010537,-2.81906,0.0869967,0.678186,0.694003,
2,1,0,0,0,56903.6,0.698955,0.698664,1.68346,86,0.0476047,10,0.00117617,-2.7738,0.0862084,0.684388,0.697923,
2,1,0,1,0,56904.4,0.70295,0.70263,1.86714,86,0.0490282,10,0.00131191,-2.72882,0.087544,0.673947,0.701809,
2,1,0,1,0,56905.2,0.706945,0.706637,2.06529,86,0.0506043,10,0.00145941,-2.68502,0.089857,0.656599,0.705728,
2,1,0,1,0,56906,0.71094,0.710664,2.28177,86,0.0523455,10,0.00162157,-2.64173,0.0920281,0.641109,0.70966,
2,1,0,1,0,56906.8,0.714936,0.714636,2.51077,86,0.0542651,10,0.00179428,-2.60019,0.0935104,0.630946,0.713531,
2,1,0,0,0,56907.6,0.718931,0.718634,2.75832,86,0.0563743,10,0.00198223,-2.55935,0.0975397,0.604882,0.717421,
2,1,0,1,0,56908.4,0.722927,0.722602,3.01978,86,0.0586875,10,0.0021821,-2.52002,0.100042,0.589752,0.721273,
2,1,0,1,0,56909.1,0.726921,0.726635,3.29955,86,0.0612164,10,0.00239757,-2.48154,0.100968,0.584344,0.725184,
2,1,0,1,0,56909.9,0.730916,0.730606,3.59636,86,0.0639756,10,0.00262753,-2.44414,0.106332,0.554867,0.729024,
2,1,0,1,0,56910.7,0.734911,0.734591,3.90902,86,0.0669791,10,0.00287153,-2.40793,0.106735,0.552772,0.732871,
2,1,0,0,0,56911.5,0.738907,0.738619,4.2408,86,0.0702403,10,0.00313234,-2.37255,0.110605,0.533428,0.736753,
2,1,0,1,0,56912.3,0.742902,0.742586,4.5897,86,0.0737727,10,0.00340824,-2.33822,0.112096,0.526337,0.740566,
2,1,0,1,0,56913.1,0.746897,0.746612,4.95987,86,0.0775932,10,0.0037031,-2.30453,0.115762,0.509665,0.74443,
2,1,0,1,0,56913.9,0.750892,0.75059,5.34926,86,0.0817159,10,0.0040151,-2.27171,0.118062,0.499736,0.748236,
2,1,0,1,0,56914.7,0.754887,0.754606,5.7579,86,0.0861575,10,0.00434495,-2.23974,0.119312,0.4945,0.752073,
2,1,0,0,0,56915.5,0.758883,0.758638,6.1902,86,0.0909361,10,0.00469612,-2.2083,0.122536,0.481491,0.755915,
2,1,0,1,0,56916.3,0.762878,0.762598,6.64431,86,0.096068,10,0.00506693,-2.17755,0.125862,0.468769,0.759674,
2,1,0,0,0,56917.1,0.766873,0.766605,7.12244,86,0.101572,10,0.0054601,-2.14737,0.129751,0.454717,0.763471,
2,1,0,1,0,56917.9,0.770868,0.770564,7.60841,86,0.107461,10,0.00586277,-2.11871,0.128719,0.458362,0.767216,
2,1,0,1,0,56918.7,0.774863,0.774552,8.13599,86,0.113755,10,0.00630175,-2.08959,0.129897,0.454205,0.770972,
2,1,0,1,0,56919.5,0.778858,0.778595,8.69259,86,0.120482,10,0.00676801,-2.06085,0.130529,0.452006,0.77477,
2,1,0,1,0,56920.3,0.782854,0.782564,9.2806,86,0.127667,10,0.00726267,-2.03242,0.132761,0.444407,0.778481,
2,1,0,0,0,56921.1,0.786849,0.786586,9.8988,86,0.135333,10,0.00778626,-2.00442,0.132582,0.445008,0.782231,
2,1,0,1,0,56921.9,0.790844,0.79054,10.559,86,0.14351,10,0.00834732,-1.97638,0.13365,0.441453,0.785894,
2,1,0,1,0,56922.7,0.794839,0.794548,11.259,86,0.152231,10,0.00894584,-1.9485,0.129725,0.45481,0.789594,
2,1,0,1,0,56923.5,0.798834,0.798517,12.0025,86,0.161529,10,0.00958419,-1.92073,0.131522,0.448596,0.793236,
2,1,0,1,0,56924.3,0.802829,0.802559,12.7972,86,0.171439,10,0.0102705,-1.89289,0.131849,0.447482,0.796928,
2,1,0,0,0,56925.1,0.806825,0.806541,13.6386,86,0.182006,10,0.0110001,-1.86523,0.132271,0.446053,0.80054,
2,1,0,1,0,56925.9,0.81082,0.810562,14.5093,86,0.193256,10,0.0117606,-1.83836,0.136535,0.432123,0.804178,
2,1,0,1,0,56926.7,0.814815,0.814535,15.4327,86,0.205221,10,0.0125705,-1.81156,0.131423,0.44893,0.807744,
2,1,0,1,0,56927.5,0.81881,0.818525,16.3987,86,0.217943,10,0.0134228,-1.78519,0.135472,0.435514,0.811309,
2,1,0,1,0,56928.3,0.822805,0.822571,17.4277,86,0.231463,10,0.0143355,-1.75876,0.137627,0.428694,0.814903,
2,1,0,0,0,56929.1,0.826801,0.82653,18.4646,86,0.245808,10,0.0152615,-1.73366,0.141634,0.416566,0.818405,
2,1,0,1,0,56929.9,0.830796,0.830523,19.5556,86,0.261002,10,0.0162414,-1.70873,0.145734,0.404847,0.821919,
2,1,0,0,0,56930.7,0.834791,0.834539,20.656,86,0.277067,10,0.0172382,-1.68495,0.146365,0.403103,0.82545,
2,1,0,1,0,56931.5,0.838786,0.838549,21.8111,86,0.294043,10,0.0182897,-1.66132,0.149398,0.394919,0.828952,
2,1,0,1,0,56932.3,0.842781,0.842505,22.9557,86,0.31194,10,0.0193403,-1.63911,0.161429,0.365486,0.832404,
2,1,0,1,0,56933.1,0.846776,0.846509,24.1143,86,0.330754,10,0.0204129,-1.61773,0.165872,0.355697,0.835899,
2,1,0,0,0,56933.8,0.849723,0.849473,24.9393,86,0.347993,10,0.0211852,-1.60312,0.0489976,1.20414,0.838499,
2,1,0,1,0,56934.6,0.845728,0.845469,23.1236,86,0.367134,10,0.0195503,-1.63594,0.120381,0.490112,0.835294,
2,1,0,0,0,56935.4,0.841732,0.841479,21.7197,86,0.385047,10,0.0182767,-1.66315,0.120014,0.491609,0.831923,
2,1,0,1,0,56936.2,0.837737,0.837501,20.3593,86,0.401843,10,0.0170509,-1.69124,0.117117,0.50377,0.828542,
2,1,0,1,0,56937,0.833742,0.833457,19.0759,86,0.41756,10,0.015899,-1.71951,0.12994,0.454057,0.825064,
2,1,0,1,0,56937.8,0.829747,0.829463,17.9044,86,0.432326,10,0.014851,-1.74704,0.122943,0.479895,0.821585,
2,1,0,1,0,56938.6,0.825752,0.825466,16.7561,86,0.446161,10,0.0138316,-1.77583,0.123769,0.476693,0.818094,
2,1,0,0,0,56939.4,0.821757,0.821511,15.6962,86,0.459114,10,0.0128946,-1.80421,0.124398,0.474283,0.814604,
2,1,0,1,0,56940.2,0.817761,0.817428,14.6875,86,0.471241,10,0.012006,-1.83305,0.124752,0.472937,0.810965,
2,1,0,1,0,56941,0.813766,0.81344,13.7433,86,0.48259,10,0.0111793,-1.86191,0.121422,0.485908,0.807393,
2,1,0,1,0,56941.8,0.809771,0.809502,12.8397,86,0.493199,10,0.0103938,-1.89144,0.121671,0.484914,0.803853,
2,1,0,1,0,56942.6,0.805776,0.805502,11.9853,86,0.503107,10,0.0096542,-1.92135,0.119089,0.49543,0.800229,
2,1,0,0,0,56943.4,0.801781,0.801531,11.1738,86,0.51235,10,0.00895613,-1.9518,0.120689,0.488859,0.796614,
2,1,0,1,0,56944.2,0.797786,0.797499,10.4096,86,0.520962,10,0.00830164,-1.98257,0.117139,0.503674,0.792919,
2,1,0,1,0,56945,0.79379,0.79347,9.69102,86,0.528983,10,0.00768954,-2.01363,0.119788,0.492535,0.789206,
2,1,0,1,0,56945.8,0.789795,0.7895,9.02585,86,0.536452,10,0.00712591,-2.04451,0.120659,0.488983,0.785529,
2,1,0,1,0,56946.6,0.7858,0.785538,8.39164,86,0.543402,10,0.00659195,-2.07615,0.115527,0.510702,0.781846,
2,1,0,0,0,56947.4,0.781805,0.781532,7.79762,86,0.549862,10,0.0060941,-2.10804,0.117023,0.504176,0.778102,
2,1,0,1,0,56948.2,0.77781,0.777541,7.23901,86,0.55586,10,0.00562862,-2.14032,0.11513,0.512463,0.774356,
2,1,0,0,0,56949,0.773814,0.773517,6.7119,86,0.561426,10,0.00519177,-2.17315,0.113677,0.519012,0.770564,
2,1,0,1,0,56949.8,0.769819,0.769539,6.21926,86,0.566585,10,0.00478596,-2.20626,0.112886,0.522649,0.766803,
2,1,0,1,0,56950.6,0.765824,0.765544,5.75095,86,0.571359,10,0.00440261,-2.24026,0.111079,0.531153,0.763013,
2,1,0,1,0,56951.4,0.761829,0.761526,5.31362,86,0.575771,10,0.00404646,-2.27461,0.110321,0.534804,0.759188,
2,1,0,1,0,56952.2,0.757834,0.757543,4.92587,86,0.579852,10,0.00373156,-2.30752,0.116364,0.50703,0.755376,
2,1,0,0,0,56953,0.753839,0.753543,4.53973,86,0.583626,10,0.00342089,-2.34297,0.106881,0.552014,0.751546,
2,1,0,1,0,56953.8,0.749844,0.74952,4.17788,86,0.587102,10,0.0031314,-2.37904,0.105481,0.55934,0.747682,
2,1,0,1,0,56954.6,0.745848,0.745578,3.83657,86,0.590297,10,0.00286046,-2.41606,0.10268,0.574602,0.74389,
2,1,0,1,0,56955.4,0.741853,0.741586,3.51297,86,0.593226,10,0.00260517,-2.45433,0.0976507,0.604195,0.74004,
2,1,0,1,0,56956.2,0.737858,0.737506,3.2098,86,0.595905,10,0.00236725,-2.49352,0.0978251,0.603117,0.736093,
2,1,0,0,0,56957,0.733863,0.733592,2.92549,86,0.598349,10,0.00214612,-2.5338,0.0961559,0.613587,0.732304,
2,1,0,1,0,56957.8,0.729868,0.729571,2.65953,86,0.600574,10,0.00194032,-2.57519,0.0913994,0.645518,0.7284,
2,1,0,1,0,56958.6,0.725872,0.725577,2.40973,86,0.602593,10,0.00174844,-2.61803,0.0881323,0.669448,0.724516,
2,1,0,1,0,56959.4,0.721877,0.721603,2.17207,86,0.604417,10,0.00156737,-2.66313,0.0851144,0.693184,0.720647,
2,1,0,1,0,56960.2,0.717882,0.71761,1.95115,86,0.606058,10,0.00140017,-2.70971,0.0822754,0.717103,0.716752,
2,1,0,0,0,56961,0.713887,0.713599,1.74549,86,0.607529,10,0.00124558,-2.75808,0.0883405,0.66787,0.712831,
2,1,0,1,0,56961.8,0.709892,0.709634,1.5727,86,0.608849,10,0.00111604,-2.80335,0.0774419,0.761862,0.708942,
2,1,0,0,0,56962.6,0.705897,0.705571,1.39652,86,0.610029,10,0.000985344,-2.85495,0.0736388,0.801208,0.704957,
2,1,0,1,0,56963.4,0.701901,0.701641,1.23101,86,0.611072,10,0.000863729,-2.90974,0.0694949,0.848983,0.7011,
2,1,0,1,0,56964.2,0.697906,0.697615,1.07846,86,0.611988,10,0.000752348,-2.9672,0.0671991,0.877987,0.69714,
2,1,0,1,0,56965,0.693911,0.693624,0.940174,86,0.612788,10,0.000652127,-3.02679,0.0645356,0.914224,0.69321,
2,1,0,1,0,56965.8,0.689916,0.689598,0.812646,86,0.613481,10,0.0005604,-3.0901,0.0598986,0.984999,0.689241,
2,1,0,0,0,56966.6,0.685921,0.685639,0.695715,86,0.614077,10,0.000477009,-3.15757,0.0575575,1.02506,0.685333,
2,1,0,1,0,56967.4,0.681926,0.681593,0.59064,86,0.614585,10,0.000402577,-3.22868,0.0550783,1.0712,0.681334,
2,1,0,1,0,56968.2,0.67793,0.677631,0.498148,86,0.615014,10,0.000337561,-3.30264,0.0507766,1.16195,0.677412,
2,1,0,1,0,56969,0.673935,0.673636,0.414258,86,0.615372,10,0.000279059,-3.38273,0.0485538,1.21515,0.673454,
2,1,0,1,0,56969.8,0.66994,0.669638,0.340595,86,0.615667,10,0.000228075,-3.46776,0.0442309,1.33391,0.669488,
2,1,0,0,0,56970.6,0.665945,0.665641,0.275053,86,0.615906,10,0.000183087,-3.56058,0.0423171,1.39423,0.66552,
2,1,0,1,0,56971.4,0.66195,0.661661,0.218924,86,0.616097,10,0.000144853,-3.65971,0.0371842,1.58669,0.661565,
2,1,0,0,0,56972.2,0.657955,0.657648,0.16988,86,0.616246,10,0.000111721,-3.76986,0.033087,1.78318,0.657574,
2,1,0,1,0,56973,0.653959,0.653625,0.125422,86,0.616358,10,8.19787e-05,-3.90163,0.0319237,1.84816,0.65357,
2,1,0,1,0,56973.8,0.649964,0.649717,0.0910399,86,0.61644,10,5.91501e-05,-4.04077,0.0229893,2.56641,0.649677,
2,1,0,1,0,56974.6,0.64597,0.645662,0.0587641,86,0.616493,10,3.79417e-05,-4.23089,0.0181991,3.24192,0.645636,
2,1,0,1,0,56975.4,0.641974,0.641689,0.0316403,86,0.616523,10,2.03032e-05,-4.49976,0.0112365,5.25074,0.641675,
2,1,0,0,0,56976.2,0.637979,0.637688,0.00869016,86,0.616533,10,5.54161e-06,-5.06097,0.0030133,19.5799,0.637685,
2,0,0,1,0,56977,0.633983,0.633668,-0.0099837,86,0.616526,10,-6.32635e-06,-5.00071,-0.00320014,-18.4367,0.633672,
2,0,0,1,0,56977.8,0.629988,0.629678,-0.025556,86,0.616506,10,-1.6092e-05,-4.59251,-0.01507,-3.91506,0.629689,
2,0,0,1,0,56978.6,0.625993,0.625717,-0.0392133,86,0.616474,10,-2.45364e-05,-4.40657,-0.0301515,-1.95678,0.625734,
2,0,0,1,0,56979.4,0.621998,0.621677,-0.0501855,86,0.616433,10,-3.11992e-05,-4.29942,-0.0423385,-1.39353,0.621699,
2,0,0,0,0,56980.2,0.618003,0.617685,-0.0590001,86,0.616384,10,-3.64435e-05,-4.22915,-0.0589417,-1.00099,0.617711,
2,0,0,1,0,56981,0.614008,0.613706,-0.0675674,86,0.616327,10,-4.14665e-05,-4.17026,-0.0941143,-0.626897,0.613736,
2,0,0,1,0,56981.8,0.610012,0.60969,-0.0743811,86,0.616264,10,-4.53494e-05,-4.12854,-0.110951,-0.531766,0.609723,
2,0,0,1,0,56982.6,0.606017,0.605689,-0.0786181,86,0.616197,10,-4.76181e-05,-4.10448,-0.129552,-0.455414,0.605723,
2,0,0,1,0,56983.4,0.602022,0.601685,-0.0842919,86,0.616125,10,-5.07171e-05,-4.07421,-0.220238,-0.267892,0.601722,
2,0,0,0,0,56984.2,0.598027,0.597698,-0.088979,86,0.616049,10,-5.31826e-05,-4.05071,-0.173509,-0.340039,0.597737,
2,0,0,1,0,56985,0.594032,0.593706,-0.0924301,86,0.61597,10,-5.48763e-05,-4.03419,-0.270364,-0.218224,0.593747,
2,0,0,0,0,56985.8,0.590037,0.589744,-0.0957531,86,0.615889,10,-5.64698e-05,-4.01885,-0.326412,-0.180753,0.589786,
2,0,0,1,0,56986.6,0.586041,0.585702,-0.0980431,86,0.615806,10,-5.7424e-05,-4.00858,-0.315073,-0.187258,0.585745,
2,0,0,1,0,56987.4,0.582046,0.581743,-0.100832,86,0.61572,10,-5.86582e-05,-3.9964,-0.348047,-0.169517,0.581788,
2,0,0,1,0,56988.2,0.578052,0.577743,-0.102368,86,0.615632,10,-5.91423e-05,-3.98984,-0.399982,-0.147507,0.577788,
2,0,0,1,0,56989,0.574056,0.573762,-0.103996,86,0.615543,10,-5.96692e-05,-3.98298,-0.861261,-0.0685042,0.573808,
2,0,0,0,0,56989.8,0.570061,0.569747,-0.106457,86,0.615453,10,-6.06534e-05,-3.97283,-1.41195,-0.0417862,0.569794,
2,0,0,1,0,56990.6,0.566065,0.565787,-0.10756,86,0.615361,10,-6.08564e-05,-3.96835,-0.499585,-0.118098,0.565835,
2,0,0,1,0,56991.4,0.56207,0.561734,-0.109761,86,0.615268,10,-6.16567e-05,-3.95955,-1.09613,-0.0538259,0.561783,
2,0,0,1,0,56992.1,0.558075,0.55772,-0.110364,86,0.615174,10,-6.15524e-05,-3.95717,-0.905762,-0.0651385,0.557769,
2,0,0,1,0,56992.9,0.55408,0.553763,-0.11103,86,0.61508,10,-6.14845e-05,-3.95456,-0.726987,-0.0811569,0.553812,
2,0,0,0,0,56993.7,0.550085,0.549766,-0.11268,86,0.614984,10,-6.19476e-05,-3.94815,-1.19712,-0.0492849,0.549815,
2,0,0,1,0,56994.5,0.54609,0.545759,-0.113768,86,0.614888,10,-6.20899e-05,-3.94398,-0.51636,-0.114261,0.545809,
2,0,0,1,0,56995.3,0.542094,0.541772,-0.114191,86,0.61479,10,-6.18658e-05,-3.94237,-0.8745,-0.0674671,0.541822,
2,0,0,1,0,56996.1,0.538099,0.537763,-0.115961,86,0.614691,10,-6.23596e-05,-3.93569,-4.57416,-0.0128985,0.537814,
2,0,0,1,0,56996.9,0.534104,0.533775,-0.117222,86,0.614592,10,-6.25699e-05,-3.93099,-0.452068,-0.130511,0.533827,
2,0,0,0,0,56997.7,0.530109,0.529793,-0.118213,86,0.614491,10,-6.26284e-05,-3.92734,-21.07,-0.00280018,0.529845,
2,0,0,1,0,56998.5,0.526114,0.525768,-0.1197,86,0.61439,10,-6.29344e-05,-3.92191,-0.97235,-0.0606777,0.52582,
2,0,0,0,0,56999.3,0.522119,0.521746,-0.119853,86,0.614288,10,-6.25328e-05,-3.92135,-7.25596,-0.00813125,0.521798,
2,0,0,1,0,57000.1,0.518123,0.517801,-0.12099,86,0.614186,10,-6.26489e-05,-3.91725,-0.970928,-0.0607666,0.517854,
2,0,0,1,0,57000.9,0.514128,0.513868,-0.121338,86,0.614082,10,-6.23518e-05,-3.916,-0.659207,-0.0895015,0.513921,
2,0,0,1,0,57001.7,0.510133,0.509791,-0.122076,86,0.613978,10,-6.22332e-05,-3.91337,-1.74323,-0.0338451,0.509845,
2,0,0,1,0,57002.5,0.506138,0.505767,-0.123019,86,0.613873,10,-6.22188e-05,-3.91003,-2.51197,-0.0234875,0.505822,
2,0,0,0,0,57003.3,0.502143,0.501815,-0.124204,86,0.613767,10,-6.23273e-05,-3.90587,-0.705553,-0.0836224,0.50187,
2,0,0,1,0,57004.1,0.498148,0.49786,-0.126111,86,0.61366,10,-6.27858e-05,-3.89925,-1.24658,-0.0473293,0.497915,
2,0,0,1,0,57004.9,0.494152,0.493864,-0.127035,86,0.613553,10,-6.27381e-05,-3.89608,-0.852993,-0.0691682,0.49392,
2,0,0,1,0,57005.7,0.490157,0.489826,-0.128069,86,0.613444,10,-6.27317e-05,-3.89256,-0.910263,-0.0648165,0.489883,
2,0,0,1,0,57006.5,0.486162,0.485813,-0.129334,86,0.613335,10,-6.2832e-05,-3.88829,-1.84553,-0.0319692,0.48587,
2,0,0,0,0,57007.3,0.482167,0.481844,-0.130181,86,0.613224,10,-6.2727e-05,-3.88545,-1.03202,-0.0571696,0.481901,
2,0,0,1,0,57008.1,0.478172,0.477835,-0.131263,86,0.613113,10,-6.27223e-05,-3.88186,-0.578033,-0.10207,0.477893,
2,0,0,0,0,57008.9,0.474177,0.473847,-0.133043,86,0.613,10,-6.30419e-05,-3.87601,-63.2058,-0.000933458,0.473906,
2,0,0,1,0,57009.7,0.470181,0.46983,-0.13469,86,0.612887,10,-6.32816e-05,-3.87066,-0.594998,-0.09916,0.469889,
2,0,0,1,0,57010.5,0.466186,0.465798,-0.135483,86,0.612772,10,-6.31078e-05,-3.86811,-1.20093,-0.0491288,0.465857,
2,0,0,1,0,57011.3,0.462191,0.461805,-0.137428,86,0.612656,10,-6.34647e-05,-3.86193,-0.682756,-0.0864144,0.461865,
2,0,0,1,0,57012.1,0.458196,0.457889,-0.138859,86,0.612539,10,-6.3582e-05,-3.85743,-0.841084,-0.0701476,0.45795,
2,0,0,0,0,57012.9,0.454201,0.453874,-0.139848,86,0.61242,10,-6.34736e-05,-3.85434,-1.12018,-0.05267,0.453936,
2,0,0,1,0,57013.7,0.450205,0.449895,-0.141324,86,0.612301,10,-6.35812e-05,-3.84978,-0.844886,-0.0698319,0.449958,
2,0,0,1,0,57014.5,0.44621,0.445862,-0.142794,86,0.61218,10,-6.36665e-05,-3.84529,-0.624456,-0.0944823,0.445925,
2,0,0,1,0,57015.3,0.442215,0.441895,-0.145485,86,0.612058,10,-6.42892e-05,-3.83718,-1.02086,-0.0577946,0.441959,
2,0,0,1,0,57016.1,0.43822,0.437859,-0.146475,86,0.611934,10,-6.41354e-05,-3.83424,-0.589621,-0.100064,0.437923,
2,0,0,0,0,57016.9,0.434225,0.433887,-0.148055,86,0.611809,10,-6.4239e-05,-3.82958,-1.01079,-0.0583705,0.433952,
2,0,0,1,0,57017.7,0.43023,0.429932,-0.14951,86,0.611683,10,-6.4279e-05,-3.82533,-0.689876,-0.0855226,0.429998,
2,0,0,1,0,57018.5,0.426234,0.425938,-0.150832,86,0.611556,10,-6.42452e-05,-3.82151,-1.24461,-0.0474043,0.426004,
2,0,0,1,0,57019.3,0.422239,0.421939,-0.153031,86,0.611427,10,-6.45699e-05,-3.81522,-0.836223,-0.0705554,0.422006,
2,0,0,1,0,57020.1,0.418244,0.417888,-0.154457,86,0.611296,10,-6.45458e-05,-3.81119,-0.725619,-0.0813099,0.417956,
2,0,0,0,0,57020.9,0.414249,0.413929,-0.156035,86,0.611165,10,-6.45873e-05,-3.80678,-0.871986,-0.0676616,0.413997,
2,0,0,1,0,57021.7,0.410254,0.409871,-0.15924,86,0.611031,10,-6.52678e-05,-3.79795,-0.80066,-0.0736892,0.409941,
2,0,0,0,0,57022.5,0.406259,0.405931,-0.160299,86,0.610896,10,-6.50704e-05,-3.79507,-0.793575,-0.0743471,0.406002,
2,0,0,1,0,57023.3,0.402263,0.401912,-0.162092,86,0.610759,10,-6.51466e-05,-3.79024,-0.819847,-0.0719647,0.401983,
2,0,0,1,0,57024.1,0.398268,0.397882,-0.164721,86,0.610621,10,-6.55396e-05,-3.78325,-0.771705,-0.0764541,0.397954,
2,0,0,1,0,57024.9,0.394274,0.393921,-0.165653,86,0.610482,10,-6.52544e-05,-3.7808,-0.645559,-0.0913937,0.393994,
2,0,0,1,0,57025.7,0.390278,0.389973,-0.168299,86,0.61034,10,-6.56321e-05,-3.77392,-0.661631,-0.0891735,0.390047,
2,0,0,0,0,57026.5,0.386283,0.385967,-0.170625,86,0.610197,10,-6.58557e-05,-3.76796,-0.958017,-0.0615856,0.386042,
2,0,0,1,0,57027.3,0.382287,0.381951,-0.171481,86,0.610053,10,-6.54974e-05,-3.76578,-0.759834,-0.0776485,0.382026,
2,0,0,1,0,57028.1,0.378292,0.377925,-0.173815,86,0.609906,10,-6.56889e-05,-3.75991,-4.97381,-0.0118621,0.378001,
2,0,0,1,0,57028.9,0.374297,0.373984,-0.176579,86,0.609759,10,-6.60378e-05,-3.75306,-0.475201,-0.124158,0.374061,
2,0,0,1,0,57029.7,0.370303,0.369974,-0.177679,86,0.609609,10,-6.57367e-05,-3.75036,-0.789246,-0.0747549,0.370053,
2,0,0,0,0,57030.5,0.366307,0.365984,-0.179964,86,0.609457,10,-6.58639e-05,-3.74481,-0.684783,-0.0861587,0.366063,
2,0,0,1,0,57031.3,0.362312,0.361971,-0.182672,86,0.609304,10,-6.61218e-05,-3.73833,-0.961373,-0.0613706,0.362051,
2,0,0,1,0,57032.1,0.358316,0.35801,-0.183887,86,0.609149,10,-6.58333e-05,-3.73545,-0.636736,-0.0926601,0.358091,
2,0,0,1,0,57032.9,0.354321,0.353982,-0.186407,86,0.608992,10,-6.59848e-05,-3.72954,-2.38606,-0.024727,0.354064,
2,0,0,1,0,57033.7,0.350327,0.349966,-0.188226,86,0.608833,10,-6.58727e-05,-3.72532,-0.577758,-0.102119,0.350048,
2,0,0,0,0,57034.5,0.346331,0.34596,-0.190828,86,0.608673,10,-6.60189e-05,-3.71936,-1.12234,-0.052569,0.346044,
2,0,0,1,0,57035.3,0.342336,0.342026,-0.194152,86,0.608511,10,-6.64052e-05,-3.71186,-0.432494,-0.136418,0.342111,
2,0,0,0,0,57036.1,0.338341,0.338033,-0.196161,86,0.608346,10,-6.6309e-05,-3.70739,-1.0136,-0.0582085,0.33812,
2,0,0,1,0,57036.9,0.334345,0.33403,-0.198844,86,0.60818,10,-6.642e-05,-3.70149,-0.814004,-0.0724812,0.334118,
2,0,0,1,0,57037.7,0.33035,0.330023,-0.20087,86,0.608011,10,-6.62919e-05,-3.69708,-0.941461,-0.0626685,0.330111,
2,0,0,1,0,57038.5,0.326355,0.326048,-0.202341,86,0.607841,10,-6.59728e-05,-3.69392,-0.819712,-0.0719765,0.326137,
2,0,0,1,0,57039.3,0.32236,0.322028,-0.204862,86,0.607669,10,-6.59712e-05,-3.68854,-0.586179,-0.100652,0.322118,
2,0,0,0,0,57040.1,0.318365,0.317992,-0.206931,86,0.607495,10,-6.58022e-05,-3.68418,-0.692164,-0.0852399,0.318083,
2,0,0,1,0,57040.9,0.31437,0.314021,-0.210383,86,0.607319,10,-6.60644e-05,-3.67699,-1.09001,-0.054128,0.314113,
2,0,0,1,0,57041.7,0.310374,0.310029,-0.212878,86,0.60714,10,-6.59985e-05,-3.67187,-0.634353,-0.0930082,0.310123,
2,0,0,1,0,57042.5,0.306379,0.30603,-0.214945,86,0.60696,10,-6.57797e-05,-3.66767,-0.958419,-0.0615597,0.306125,
2,0,0,1,0,57043.3,0.302385,0.302058,-0.218103,86,0.606777,10,-6.588e-05,-3.66134,-0.678986,-0.0868943,0.302154,
2,0,0,0,0,57044.1,0.298389,0.298068,-0.22009,86,0.606593,10,-6.56017e-05,-3.6574,-0.662723,-0.0890266,0.298165,
2,0,0,1,0,57044.9,0.294394,0.294105,-0.22292,86,0.606406,10,-6.55618e-05,-3.65185,-1.5783,-0.0373821,0.294203,
2,0,0,1,0,57045.7,0.290398,0.290079,-0.22473,86,0.606218,10,-6.51895e-05,-3.64834,-0.646124,-0.0913137,0.290178,
2,0,0,1,0,57046.5,0.286403,0.286049,-0.227037,86,0.606028,10,-6.49437e-05,-3.6439,-0.762523,-0.0773747,0.286149,
2,0,0,1,0,57047.3,0.282408,0.28208,-0.230819,86,0.605835,10,-6.51095e-05,-3.63673,-1.21826,-0.0484297,0.282182,
2,0,0,1,0,57048.1,0.278414,0.278086,-0.232402,86,0.605641,10,-6.46276e-05,-3.63376,-0.715168,-0.0824981,0.278188,
2,0,0,1,0,57048.9,0.274418,0.274064,-0.236178,86,0.605444,10,-6.47279e-05,-3.62676,-0.678368,-0.0869735,0.274168,
2,0,0,0,0,57049.7,0.270423,0.270112,-0.2388,86,0.605245,10,-6.45028e-05,-3.62197,-0.968176,-0.0609394,0.270217,
2,0,0,1,0,57050.5,0.266427,0.266107,-0.241363,86,0.605044,10,-6.42282e-05,-3.61733,-0.88221,-0.0668775,0.266213,
2,0,0,1,0,57051.3,0.262432,0.262088,-0.242921,86,0.604841,10,-6.36667e-05,-3.61453,-1.00295,-0.0588267,0.262195,
2,0,0,1,0,57052.1,0.258437,0.258072,-0.245957,86,0.604636,10,-6.34745e-05,-3.60914,-0.703374,-0.0838814,0.25818,
2,0,0,1,0,57052.9,0.254442,0.25409,-0.247681,86,0.604429,10,-6.29331e-05,-3.60611,-1.12161,-0.0526028,0.254198,
2,0,0,0,0,57053.7,0.250447,0.250079,-0.251357,86,0.60422,10,-6.28591e-05,-3.59971,-2.51171,-0.02349,0.25019,
2,0,0,1,0,57054.5,0.246452,0.246118,-0.25364,86,0.60401,10,-6.24256e-05,-3.59578,-0.644554,-0.0915362,0.24623,
2,0,0,1,0,57055.3,0.242456,0.242148,-0.256442,86,0.603796,10,-6.2097e-05,-3.59101,-0.779064,-0.0757319,0.242261,
2,0,0,1,0,57056.1,0.238461,0.238151,-0.258054,86,0.603582,10,-6.14558e-05,-3.58829,-1.46479,-0.0402788,0.238264,
2,0,0,1,0,57056.9,0.234467,0.234116,-0.260443,86,0.603365,10,-6.0974e-05,-3.58429,-0.871694,-0.0676843,0.234231,
2,0,0,0,0,57057.7,0.230471,0.230114,-0.260918,86,0.603146,10,-6.00409e-05,-3.5835,-1.75987,-0.0335251,0.230229,
2,0,0,1,0,57058.5,0.226476,0.226131,-0.264933,86,0.602926,10,-5.99095e-05,-3.57686,-1.10058,-0.0536079,0.226247,
2,0,0,0,0,57059.3,0.222481,0.222156,-0.266556,86,0.602704,10,-5.92171e-05,-3.57421,-1.11559,-0.052887,0.222274,
2,0,0,1,0,57060.1,0.218485,0.218151,-0.269056,86,0.60248,10,-5.86949e-05,-3.57016,-1.46384,-0.0403049,0.218269,
2,0,0,1,0,57060.9,0.21449,0.214125,-0.272108,86,0.602254,10,-5.8265e-05,-3.56526,-0.575365,-0.102544,0.214245,
2,0,0,1,0,57061.7,0.210496,0.210163,-0.274274,86,0.602025,10,-5.76423e-05,-3.56181,-1.08189,-0.0545344,0.210283,
2,0,0,1,0,57062.5,0.2065,0.206115,-0.27934,86,0.601795,10,-5.7576e-05,-3.55387,-0.780475,-0.0755949,0.206237,
2,0,0,0,0,57063.3,0.202505,0.202141,-0.280613,86,0.601561,10,-5.67235e-05,-3.55189,-0.85306,-0.0691628,0.202265,
2,0,0,1,0,57064.1,0.198509,0.198174,-0.284104,86,0.601326,10,-5.6302e-05,-3.54652,-0.748008,-0.0788761,0.198299,
2,0,0,1,0,57064.9,0.194514,0.194151,-0.287426,86,0.601088,10,-5.58041e-05,-3.54147,-0.840557,-0.0701915,0.194277,
2,0,0,1,0,57065.7,0.190519,0.190146,-0.289263,86,0.600847,10,-5.50022e-05,-3.53871,-0.752813,-0.0783728,0.190273,
2,0,0,1,0,57066.5,0.186524,0.186194,-0.294294,86,0.600603,10,-5.47957e-05,-3.53122,-0.83282,-0.0708436,0.186323,
2,0,0,0,0,57067.3,0.182529,0.18221,-0.298725,86,0.600356,10,-5.44307e-05,-3.52473,-0.439241,-0.134323,0.182341,
2,0,0,1,0,57068.1,0.178534,0.178195,-0.303445,86,0.600104,10,-5.40725e-05,-3.51792,-0.674793,-0.0874343,0.178329,
2,0,0,1,0,57068.9,0.174538,0.174156,-0.308829,86,0.599849,10,-5.37844e-05,-3.51028,-0.470856,-0.125304,0.174292,
2,0,0,1,0,57069.7,0.170543,0.170152,-0.315729,86,0.59959,10,-5.3722e-05,-3.50069,-0.412381,-0.143072,0.170291,
2,0,0,1,0,57070.5,0.166549,0.166197,-0.323411,86,0.599324,10,-5.37499e-05,-3.49025,-0.364787,-0.161738,0.166339,
2,0,0,0,0,57071.3,0.162553,0.162204,-0.331331,86,0.599053,10,-5.37433e-05,-3.47974,-0.333354,-0.176989,0.16235,
2,0,0,1,0,57072.1,0.158558,0.158205,-0.3404,86,0.598774,10,-5.38531e-05,-3.46801,-0.257021,-0.229553,0.158355,
2,0,0,0,0,57072.9,0.154563,0.154213,-0.354704,86,0.598485,10,-5.46999e-05,-3.45013,-0.235684,-0.250335,0.154369,
2,0,0,1,0,57073.7,0.150567,0.150201,-0.371802,86,0.598184,10,-5.58451e-05,-3.42969,-0.165199,-0.357145,0.150365,
2,0,0,1,0,57074.5,0.146572,0.146219,-0.394761,86,0.597868,10,-5.77214e-05,-3.40367,-0.140705,-0.419317,0.146392,
2,0,0,1,0,57075.2,0.142578,0.142245,-0.425877,86,0.59753,10,-6.05787e-05,-3.37072,-0.115906,-0.509032,0.142432,
2,0,0,1,0,57076,0.138582,0.138255,-0.462901,86,0.597165,10,-6.39983e-05,-3.33451,-0.0977151,-0.603796,0.138459,
2,0,0,0,0,57076.8,0.134587,0.134216,-0.506113,86,0.596767,10,-6.79284e-05,-3.29575,-0.108266,-0.544954,0.134439,
2,0,0,1,0,57077.6,0.130591,0.13024,-0.552103,86,0.596333,10,-7.19059e-05,-3.25798,-0.112223,-0.525737,0.130483,
2,0,0,1,0,57078.4,0.126596,0.12626,-0.592561,86,0.595863,10,-7.48165e-05,-3.22727,-0.13568,-0.434848,0.12652,
2,0,0,1,0,57079.2,0.122602,0.12228,-0.630028,86,0.595362,10,-7.70398e-05,-3.20064,-0.212857,-0.277181,0.122557,
2,0,0,1,0,57080,0.118607,0.118283,-0.652584,86,0.594839,10,-7.71894e-05,-3.18536,-0.315813,-0.186819,0.11857,
2,0,0,0,0,57080.8,0.114611,0.11427,-0.665315,86,0.5943,10,-7.60253e-05,-3.17697,-0.679525,-0.0868253,0.114562,
2,0,0,1,0,57081.6,0.110616,0.110299,-0.672853,86,0.593754,10,-7.42154e-05,-3.17208,-1.3682,-0.0431224,0.110596,
2,0,0,1,0,57082.4,0.10662,0.106258,-0.673042,86,0.593206,10,-7.15161e-05,-3.17196,-6.01832,-0.0098034,0.106554,
2,0,0,1,0,57083.2,0.102625,0.102274,-0.672505,86,0.592656,10,-6.87799e-05,-3.1723,1.59409,0.0370116,0.10257,
2,0,0,1,0,57084,0.0986305,0.0982991,-0.669179,86,0.592109,10,-6.57797e-05,-3.17446,1.7735,0.0332676,0.0985935,
2,0,0,0,0,57084.8,0.0946351,0.094264,-0.662347,86,0.591565,10,-6.24355e-05,-3.17891,1.29563,0.0455376,0.0945554,
2,0,0,1,0,57085.6,0.0906399,0.0902355,-0.65957,86,0.591025,10,-5.95167e-05,-3.18074,0.812728,0.072595,0.0905257,
2,0,0,0,0,57086.4,0.0866448,0.086312,-0.650955,86,0.59049,10,-5.61852e-05,-3.18645,0.937748,0.0629167,0.0865984,
2,0,0,1,0,57087.2,0.0826492,0.0823097,-0.64472,86,0.589961,10,-5.30668e-05,-3.19063,0.66453,0.0887846,0.0825934,
2,0,0,1,0,57088,0.0786544,0.0783111,-0.636434,86,0.589439,10,-4.98399e-05,-3.19625,0.863836,0.0683,0.0785912,
2,0,0,1,0,57088.8,0.0746596,0.0742914,-0.627849,86,0.588923,10,-4.66438e-05,-3.20214,0.850857,0.0693418,0.0745677,
2,0,0,1,0,57089.6,0.0706641,0.0703412,-0.620965,86,0.588413,10,-4.36795e-05,-3.20693,0.620827,0.0950346,0.0706144,
2,0,0,0,0,57090.4,0.0666689,0.0663159,-0.613326,86,0.58791,10,-4.06732e-05,-3.21231,0.750091,0.0786571,0.0665858,
2,0,0,1,0,57091.2,0.0626737,0.0623065,-0.603633,86,0.587412,10,-3.76103e-05,-3.21923,0.635174,0.092888,0.0625721,
2,0,0,1,0,57092,0.0586783,0.0583288,-0.595867,86,0.586921,10,-3.47562e-05,-3.22485,0.556076,0.106101,0.0585909,
2,0,0,1,0,57092.8,0.0546835,0.0543682,-0.586629,86,0.586438,10,-3.1894e-05,-3.23164,0.801275,0.0736326,0.0546264,
2,0,0,1,0,57093.6,0.0506886,0.0503669,-0.577815,86,0.58596,10,-2.91028e-05,-3.23821,0.451921,0.130554,0.0506212,
2,0,0,0,0,57094.4,0.046693,0.0463591,-0.568129,86,0.585492,10,-2.63379e-05,-3.24555,0.644707,0.0915145,0.046609,
2,0,0,1,0,57095.2,0.0426979,0.042408,-0.558371,86,0.585031,10,-2.36794e-05,-3.25308,0.560662,0.105233,0.0426537,
2,0,0,1,0,57096,0.0387022,0.0383376,-0.549243,86,0.584577,10,-2.10567e-05,-3.26024,0.463592,0.127267,0.0385793,
2,0,0,1,0,57096.8,0.0347074,0.0343129,-0.539617,86,0.584131,10,-1.85158e-05,-3.26791,0.602679,0.0978963,0.0345503,
2,0,0,1,0,57097.6,0.0307126,0.0303862,-0.529356,86,0.583693,10,-1.60851e-05,-3.27625,0.531728,0.110959,0.0306191,
2,0,0,0,0,57098.4,0.0267172,0.0263651,-0.521933,86,0.583262,10,-1.37608e-05,-3.28239,0.553794,0.106538,0.0265948,
2,0,0,1,0,57099.2,0.022722,0.0223748,-0.514841,86,0.582838,10,-1.15195e-05,-3.28833,0.880849,0.0669808,0.0226013,
2,0,0,0,0,57100,0.0187268,0.0183707,-0.508298,86,0.582419,10,-9.33779e-06,-3.29388,0.600694,0.0982198,0.0185944,
2,0,0,1,0,57100.8,0.0147313,0.0144096,-0.503991,86,0.582005,10,-7.26232e-06,-3.29758,1.17205,0.0503392,0.0146314,
2,0,0,1,0,57101.6,0.0107365,0.0104114,-0.499613,86,0.581594,10,-5.20165e-06,-3.30137,2.43998,0.0241805,0.0106312,
2,0,0,1,0,57102.4,0.00674163,0.00638317,-0.497976,86,0.581185,10,-3.17866e-06,-3.30279,3.83952,0.0153665,0.00660228,
2,0,0,1,0,57103.2,0.00274612,0.0023872,-0.497119,86,0.580777,10,-1.18672e-06,-3.30354,-1.91802,-0.0307608,0.00260593,
2,0,0,0,0,57103.7,0.000274105,-8.31532e-05,-0.499387,86,0.580522,10,4.15256e-08,-3.30156, , ,0.000136577,