File: Figure_codes/Fig_3-5/workspace_calculate_alpha_eff/20221101_1-115_003_TrumpetPlot_ParaChange_from10_every3_16_CV_C01_44.csv
mode,ox/red,error,control changes,counter inc.,time/s,control/V,Ewe/V,<I>/mA,cycle number,(Q-Qo)/C,I Range,P/W,log(|I|),Tafel slope mV/dec,alpha_eff,E-IR/V,
2,0,0,0,0,29551.9,2.44065e-05,-0.000306236,-0.0962139,45,0.0000000E+000,10,2.94642e-08,-4.01676, , ,-0.000263902,
2,1,0,0,0,29552.7,0.00379485,0.00347623,0.149518,45,9.37499e-05,10,5.1976e-07,-3.82531,0.0343333,1.71845,0.00341045,
2,1,0,1,0,29553.5,0.00779002,0.00748139,0.173736,45,0.000234765,10,1.29979e-06,-3.76011,0.0751306,0.785299,0.00740495,
2,1,0,0,0,29554.3,0.0117852,0.0114547,0.189719,45,0.000391616,10,2.17318e-06,-3.72189,0.103247,0.571448,0.0113713,
2,1,0,1,0,29555.1,0.0157806,0.0154367,0.205972,45,0.000560826,10,3.17952e-06,-3.68619,0.140608,0.419607,0.015346,
2,1,0,1,0,29555.9,0.0197754,0.019448,0.218289,45,0.00074101,10,4.24529e-06,-3.66097,0.149765,0.393949,0.019352,
2,1,0,1,0,29556.7,0.0237704,0.0234921,0.232352,45,0.000932279,10,5.45844e-06,-3.63385,0.153497,0.384373,0.0233899,
2,1,0,1,0,29557.5,0.0277659,0.0274149,0.245879,45,0.0011343,10,6.74074e-06,-3.60928,0.155055,0.380511,0.0273067,
2,1,0,0,0,29558.3,0.0317611,0.0314381,0.260248,45,0.00134777,10,8.1817e-06,-3.58461,0.171572,0.343878,0.0313236,
2,1,0,1,0,29559.1,0.0357567,0.0354044,0.275665,45,0.00157323,10,9.75974e-06,-3.55962,0.211379,0.27912,0.0352831,
2,1,0,1,0,29559.9,0.0397516,0.0394466,0.288945,45,0.00180978,10,1.13979e-05,-3.53919,0.158877,0.371357,0.0393195,
2,1,0,1,0,29560.7,0.0437465,0.043411,0.302334,45,0.00205829,10,1.31246e-05,-3.51951,0.1997,0.295444,0.043278,
2,1,0,1,0,29561.5,0.0477413,0.0474445,0.317184,45,0.00231725,10,1.50486e-05,-3.49869,0.217105,0.271757,0.0473049,
2,1,0,0,0,29562.3,0.0517369,0.051396,0.329003,45,0.00258666,10,1.69094e-05,-3.4828,0.212697,0.27739,0.0512512,
2,1,0,1,0,29563.1,0.0557321,0.0554319,0.341838,45,0.00286689,10,1.89488e-05,-3.46618,0.315778,0.18684,0.0552815,
2,1,0,1,0,29563.9,0.0597277,0.0594404,0.353679,45,0.00315616,10,2.10228e-05,-3.45139,0.268348,0.219864,0.0592848,
2,1,0,1,0,29564.7,0.0637226,0.0634096,0.364026,45,0.00345453,10,2.30827e-05,-3.43887,0.322142,0.183149,0.0632495,
2,1,0,1,0,29565.5,0.0677174,0.0674217,0.37548,45,0.00376193,10,2.53155e-05,-3.42541,0.465709,0.126689,0.0672564,
2,1,0,0,0,29566.3,0.0717128,0.0713772,0.384884,45,0.00407702,10,2.7472e-05,-3.41467,0.316362,0.186495,0.0712079,
2,1,0,1,0,29567.1,0.075708,0.0754068,0.39081,45,0.00439971,10,2.94697e-05,-3.40803,0.415428,0.142022,0.0752348,
2,1,0,0,0,29567.9,0.0797031,0.0793971,0.401453,45,0.00472837,10,3.18742e-05,-3.39637,0.432532,0.136406,0.0792205,
2,1,0,1,0,29568.7,0.0836986,0.0833602,0.409927,45,0.00506448,10,3.41716e-05,-3.38729,0.361567,0.163178,0.0831799,
2,1,0,1,0,29569.5,0.0876935,0.0873819,0.421134,45,0.00540863,10,3.67995e-05,-3.37558,0.338598,0.174248,0.0871966,
2,1,0,1,0,29570.3,0.0916883,0.0913602,0.436961,45,0.0057624,10,3.99209e-05,-3.35956,0.249048,0.236902,0.091168,
2,1,0,1,0,29571.1,0.0956838,0.095318,0.45252,45,0.00612898,10,4.31333e-05,-3.34436,0.22339,0.264112,0.0951189,
2,1,0,0,0,29571.9,0.099679,0.0993476,0.472222,45,0.00651057,10,4.69141e-05,-3.32585,0.220395,0.267701,0.0991398,
2,1,0,1,0,29572.7,0.103674,0.10336,0.496343,45,0.00690947,10,5.13021e-05,-3.30422,0.172905,0.341227,0.103142,
2,1,0,1,0,29573.5,0.10767,0.107389,0.517489,45,0.00732773,10,5.55726e-05,-3.2861,0.233329,0.252862,0.107161,
2,1,0,1,0,29574.3,0.111664,0.111333,0.53982,45,0.00776231,10,6.00999e-05,-3.26775,0.247751,0.238143,0.111096,
2,1,0,1,0,29575.1,0.115659,0.11531,0.554777,45,0.00821126,10,6.39716e-05,-3.25588,0.318448,0.185274,0.115066,
2,1,0,0,0,29575.9,0.119655,0.119307,0.569298,45,0.00867297,10,6.7921e-05,-3.24466,0.550222,0.107229,0.119056,
2,1,0,1,0,29576.7,0.12365,0.123333,0.583221,45,0.0091446,10,7.19304e-05,-3.23417,0.392077,0.150481,0.123076,
2,1,0,1,0,29577.5,0.127646,0.127279,0.591991,45,0.00962636,10,7.53482e-05,-3.22768,0.580934,0.101561,0.127019,
2,1,0,1,0,29578.3,0.131641,0.131317,0.599964,45,0.0101155,10,7.87853e-05,-3.22187,-2.98617,-0.0197577,0.131053,
2,1,0,1,0,29579.1,0.135635,0.135326,0.591577,45,0.010604,10,8.00556e-05,-3.22799,-0.351361,-0.167919,0.135066,
2,1,0,0,0,29579.9,0.139631,0.139286,0.561118,45,0.0110781,10,7.81557e-05,-3.25095,-0.127771,-0.461764,0.139039,
2,1,0,1,0,29580.7,0.143626,0.143314,0.514185,45,0.0115203,10,7.369e-05,-3.28888,-0.081959,-0.719872,0.143088,
2,1,0,0,0,29581.5,0.147621,0.147329,0.450713,45,0.0119168,10,6.64031e-05,-3.3461,-0.0689949,-0.855136,0.147131,
2,1,0,1,0,29582.3,0.151617,0.151271,0.395137,45,0.0122656,10,5.97726e-05,-3.40325,-0.0734454,-0.803318,0.151097,
2,1,0,1,0,29583.1,0.155612,0.155286,0.354641,45,0.0125745,10,5.5071e-05,-3.45021,-0.0990022,-0.595946,0.15513,
2,1,0,1,0,29583.9,0.159606,0.159299,0.325821,45,0.0128559,10,5.19027e-05,-3.48702,-0.139751,-0.422179,0.159155,
2,1,0,1,0,29584.7,0.163602,0.163278,0.307441,45,0.0131195,10,5.01985e-05,-3.51224,-0.156115,-0.377927,0.163143,
2,1,0,0,0,29585.5,0.167597,0.167297,0.29443,45,0.0133705,10,4.92574e-05,-3.53102,-0.299762,-0.196823,0.167168,
2,1,0,1,0,29586.3,0.171592,0.171281,0.28379,45,0.0136131,10,4.8608e-05,-3.547,-0.308552,-0.191216,0.171156,
2,1,0,1,0,29587.1,0.175588,0.175258,0.277701,45,0.0138488,10,4.86692e-05,-3.55642,-0.352902,-0.167185,0.175136,
2,1,0,1,0,29587.9,0.179582,0.179249,0.271869,45,0.0140793,10,4.87322e-05,-3.56564,-0.607912,-0.0970535,0.179129,
2,1,0,1,0,29588.7,0.183577,0.183287,0.266481,45,0.0143058,10,4.88425e-05,-3.57433,-0.539324,-0.109396,0.18317,
2,1,0,0,0,29589.5,0.187573,0.187251,0.262616,45,0.0145288,10,4.9175e-05,-3.58068,-0.745077,-0.0791865,0.187136,
2,1,0,1,0,29590.3,0.191568,0.191263,0.260063,45,0.0147489,10,4.97402e-05,-3.58492,-0.946313,-0.0623473,0.191148,
2,1,0,0,0,29591.1,0.195563,0.195233,0.257576,45,0.0149671,10,5.02873e-05,-3.58909,-0.636489,-0.0926961,0.195119,
2,1,0,1,0,29591.9,0.199559,0.199237,0.255678,45,0.015183,10,5.09407e-05,-3.59231,-2.04427,-0.0288612,0.199125,
2,1,0,1,0,29592.7,0.203553,0.203233,0.253029,45,0.0153972,10,5.1424e-05,-3.59683,-0.974525,-0.0605423,0.203122,
2,1,0,1,0,29593.5,0.207548,0.207219,0.2516,45,0.01561,10,5.21364e-05,-3.59929,-2.89558,-0.0203759,0.207108,
2,1,0,1,0,29594.2,0.211544,0.211212,0.249759,45,0.0158211,10,5.27522e-05,-3.60248,-1.51909,-0.038839,0.211102,
2,1,0,0,0,29595,0.215539,0.2152,0.248754,45,0.0160311,10,5.35319e-05,-3.60423,-1.14786,-0.0513999,0.215091,
2,1,0,1,0,29595.8,0.219535,0.219259,0.246477,45,0.0162396,10,5.40423e-05,-3.60822,-1.33933,-0.0440519,0.21915,
2,1,0,1,0,29596.6,0.223529,0.223237,0.245269,45,0.0164471,10,5.47531e-05,-3.61036,-2.28866,-0.0257793,0.223129,
2,1,0,1,0,29597.4,0.227524,0.227175,0.243934,45,0.0166537,10,5.54158e-05,-3.61273,-0.82771,-0.071281,0.227068,
2,1,0,1,0,29598.2,0.23152,0.231239,0.243682,45,0.0168591,10,5.63487e-05,-3.61318,3.29693,0.0178954,0.231132,
2,1,0,0,0,29599,0.235515,0.235211,0.241041,45,0.0170636,10,5.66954e-05,-3.61791,-1.13522,-0.0519721,0.235105,
2,1,0,1,0,29599.8,0.23951,0.239199,0.24151,45,0.0172673,10,5.77691e-05,-3.61706,2.73198,0.021596,0.239093,
2,1,0,1,0,29600.6,0.243506,0.243191,0.241192,45,0.0174705,10,5.86558e-05,-3.61764,-1.5395,-0.0383241,0.243085,
2,1,0,1,0,29601.4,0.2475,0.247178,0.239878,45,0.0176733,10,5.92926e-05,-3.62001,-1.05428,-0.0559623,0.247072,
2,1,0,1,0,29602.2,0.251495,0.251203,0.237932,45,0.0178749,10,5.97692e-05,-3.62355,-3.1488,-0.0187373,0.251098,
2,1,0,0,0,29603,0.255491,0.255166,0.236572,45,0.0180756,10,6.03651e-05,-3.62604,-2.42538,-0.0243261,0.255062,
2,1,0,1,0,29603.8,0.259486,0.259195,0.23755,45,0.018276,10,6.15718e-05,-3.62425,-2.20412,-0.0267681,0.259091,
2,1,0,0,0,29604.6,0.263481,0.26314,0.236401,45,0.0184755,10,6.22066e-05,-3.62635,-1101.63,-5.35571e-05,0.263036,
2,1,0,1,0,29605.4,0.267477,0.267203,0.234434,45,0.0186748,10,6.26413e-05,-3.62998,-2.21825,-0.0265975,0.2671,
2,1,0,1,0,29606.2,0.271471,0.271199,0.23396,45,0.018873,10,6.34498e-05,-3.63086,-4.69047,-0.0125787,0.271096,
2,1,0,1,0,29607,0.275466,0.275175,0.23344,45,0.0190706,10,6.4237e-05,-3.63182,-955.405,-6.17539e-05,0.275073,
2,1,0,1,0,29607.8,0.279462,0.279178,0.23286,45,0.0192675,10,6.50095e-05,-3.6329,-1.14432,-0.051559,0.279075,
2,1,0,0,0,29608.6,0.283457,0.283168,0.232887,45,0.0194635,10,6.59461e-05,-3.63285,-6.01224,-0.00981331,0.283066,
2,1,0,1,0,29609.4,0.287452,0.287182,0.231091,45,0.0196589,10,6.6365e-05,-3.63622,-1.12927,-0.0522463,0.28708,
2,1,0,1,0,29610.2,0.291448,0.291139,0.230399,45,0.0198535,10,6.70782e-05,-3.63752,-0.909637,-0.064861,0.291038,
2,1,0,1,0,29611,0.295442,0.295167,0.229441,45,0.0200472,10,6.77236e-05,-3.63933,1.10023,0.0536253,0.295066,
2,1,0,1,0,29611.8,0.299437,0.299127,0.22751,45,0.0202408,10,6.80544e-05,-3.643,-1.13569,-0.0519506,0.299027,
2,1,0,0,0,29612.6,0.303433,0.303169,0.227412,45,0.0204335,10,6.89442e-05,-3.64319,165.145,0.000357262,0.303069,
2,1,0,1,0,29613.4,0.307428,0.307078,0.227339,45,0.0206256,10,6.98109e-05,-3.64333,-3.78342,-0.0155944,0.306978,
2,1,0,1,0,29614.2,0.311424,0.311147,0.226737,45,0.0208173,10,7.05485e-05,-3.64448,-1.34848,-0.0437531,0.311047,
2,1,0,1,0,29615,0.315418,0.315146,0.226209,45,0.0210082,10,7.12887e-05,-3.64549,5.65655,0.0104304,0.315046,
2,1,0,1,0,29615.8,0.319413,0.319112,0.22534,45,0.0211985,10,7.19086e-05,-3.64716,-1.81596,-0.0324896,0.319013,
2,1,0,0,0,29616.6,0.323409,0.323072,0.224184,45,0.0213884,10,7.24277e-05,-3.64939,-1.31014,-0.0450334,0.322974,
2,1,0,1,0,29617.4,0.327404,0.327075,0.223243,45,0.0215776,10,7.30174e-05,-3.65122,-2.68676,-0.0219595,0.326977,
2,1,0,0,0,29618.2,0.331399,0.331107,0.222286,45,0.0217662,10,7.36004e-05,-3.65309,5.19297,0.0113615,0.331009,
2,1,0,1,0,29619,0.335395,0.335147,0.222975,45,0.0219544,10,7.47296e-05,-3.65174,-2.73119,-0.0216023,0.335049,
2,1,0,1,0,29619.8,0.339389,0.339095,0.22236,45,0.0221417,10,7.5401e-05,-3.65294,9.98011,0.00591176,0.338997,
2,1,0,1,0,29620.6,0.343384,0.343134,0.221999,45,0.0223289,10,7.61756e-05,-3.65365,-1.91177,-0.0308615,0.343037,
2,1,0,1,0,29621.4,0.34738,0.347093,0.221854,45,0.0225156,10,7.70037e-05,-3.65393,-3.08355,-0.0191338,0.346995,
2,1,0,0,0,29622.2,0.351375,0.351055,0.220776,45,0.0227017,10,7.75045e-05,-3.65605,-14.1184,-0.00417896,0.350958,
2,1,0,1,0,29623,0.35537,0.355074,0.220189,45,0.0228876,10,7.81833e-05,-3.65721,-1.1283,-0.0522909,0.354977,
2,1,0,1,0,29623.8,0.359366,0.359011,0.221419,45,0.0230729,10,7.94916e-05,-3.65479,1.83154,0.0322133,0.358913,
2,1,0,1,0,29624.6,0.36336,0.363083,0.219199,45,0.0232582,10,7.95875e-05,-3.65916,-2.36782,-0.0249174,0.362987,
2,1,0,1,0,29625.4,0.367355,0.367057,0.218599,45,0.0234428,10,8.02383e-05,-3.66035,-2.17597,-0.0271143,0.366961,
2,1,0,0,0,29626.2,0.371351,0.371016,0.219196,45,0.0236271,10,8.13253e-05,-3.65917,2.29538,0.0257038,0.37092,
2,1,0,1,0,29627,0.375346,0.375091,0.218603,45,0.0238115,10,8.1996e-05,-3.66034,-1.63393,-0.0361093,0.374995,
2,1,0,1,0,29627.8,0.379342,0.379052,0.218455,45,0.0239954,10,8.2806e-05,-3.66064,6.43891,0.00916304,0.378956,
2,1,0,1,0,29628.6,0.383336,0.383054,0.217734,45,0.024179,10,8.34038e-05,-3.66207,-1.81831,-0.0324478,0.382958,
2,1,0,1,0,29629.4,0.387331,0.387021,0.217835,45,0.0243624,10,8.43066e-05,-3.66187,406.29,0.000145216,0.386925,
2,1,0,0,0,29630.2,0.391327,0.391023,0.216845,45,0.0245454,10,8.47913e-05,-3.66385,18.2732,0.00322876,0.390928,
2,1,0,1,0,29631,0.395322,0.395012,0.216559,45,0.0247285,10,8.55436e-05,-3.66442,-2.40303,-0.0245523,0.394917,
2,1,0,0,0,29631.8,0.399317,0.399023,0.216979,45,0.0249113,10,8.65795e-05,-3.66358,-9.74975,-0.00605144,0.398927,
2,1,0,1,0,29632.6,0.403313,0.403024,0.215525,45,0.0250937,10,8.68617e-05,-3.6665,-6.44415,-0.00915559,0.402929,
2,1,0,1,0,29633.4,0.407307,0.407026,0.216331,45,0.0252756,10,8.80524e-05,-3.66488,-3.8934,-0.0151539,0.406931,
2,1,0,1,0,29634.2,0.411302,0.411034,0.216346,45,0.0254573,10,8.89254e-05,-3.66485,2.1042,0.0280391,0.410938,
2,1,0,1,0,29635,0.415298,0.414992,0.215822,45,0.0256391,10,8.95643e-05,-3.66591,34.0946,0.00173048,0.414897,
2,1,0,0,0,29635.8,0.419293,0.419034,0.216252,45,0.0258208,10,9.06167e-05,-3.66504,-1.91308,-0.0308403,0.418938,
2,1,0,1,0,29636.6,0.423288,0.422991,0.216345,45,0.0260022,10,9.15122e-05,-3.66485,8.41028,0.00701523,0.422896,
2,1,0,1,0,29637.4,0.427283,0.427026,0.214917,45,0.0261836,10,9.17752e-05,-3.66773,-8.82698,-0.00668405,0.426931,
2,1,0,1,0,29638.2,0.431278,0.430974,0.215825,45,0.0263647,10,9.30149e-05,-3.6659,2.9631,0.0199116,0.430879,
2,1,0,1,0,29639,0.435273,0.434941,0.215581,45,0.0265458,10,9.37649e-05,-3.66639,26.2765,0.00224535,0.434846,
2,1,0,0,0,29639.8,0.439269,0.438999,0.215582,45,0.0267271,10,9.46401e-05,-3.66639,-1.64813,-0.0357982,0.438904,
2,1,0,1,0,29640.6,0.443264,0.442978,0.215682,45,0.0269081,10,9.55422e-05,-3.66619,1.84152,0.0320388,0.442883,
2,1,0,0,0,29641.4,0.447259,0.446947,0.215828,45,0.027089,10,9.64636e-05,-3.66589,-9.42947,-0.00625698,0.446852,
2,1,0,1,0,29642.2,0.451254,0.450963,0.216137,45,0.0272705,10,9.74697e-05,-3.66527,53.9312,0.00109399,0.450868,
2,1,0,1,0,29643,0.455249,0.454944,0.216287,45,0.0274518,10,9.83985e-05,-3.66497,1.54011,0.0383091,0.454849,
2,1,0,1,0,29643.8,0.459244,0.458961,0.215303,45,0.0276333,10,9.88155e-05,-3.66695,-3.70228,-0.0159361,0.458866,
2,1,0,1,0,29644.6,0.46324,0.462946,0.21711,45,0.027815,10,0.00010051,-3.66332,1.38321,0.0426546,0.462851,
2,1,0,0,0,29645.4,0.467235,0.46696,0.217546,45,0.027997,10,0.000101585,-3.66245,-9.18815,-0.00642131,0.466864,
2,1,0,1,0,29646.2,0.471231,0.470974,0.217191,45,0.0281794,10,0.000102291,-3.66316,-3.22404,-0.0183,0.470878,
2,1,0,1,0,29647,0.475225,0.474921,0.218483,45,0.0283619,10,0.000103762,-3.66058,1.53149,0.0385245,0.474825,
2,1,0,1,0,29647.8,0.47922,0.478963,0.218929,45,0.0285448,10,0.000104859,-3.6597,35.7972,0.00164817,0.478866,
2,1,0,1,0,29648.6,0.483216,0.482941,0.219146,45,0.0287281,10,0.000105835,-3.65927,-10.5444,-0.00559537,0.482845,
2,1,0,0,0,29649.4,0.487211,0.486911,0.219495,45,0.0289117,10,0.000106875,-3.65858,0.916264,0.0643919,0.486815,
2,1,0,1,0,29650.2,0.491206,0.490929,0.220269,45,0.0290958,10,0.000108137,-3.65705,1.92219,0.0306941,0.490832,
2,1,0,1,0,29651,0.495201,0.494899,0.222556,45,0.0292806,10,0.000110143,-3.65256,-6.84077,-0.00862476,0.494801,
2,1,0,1,0,29651.8,0.499196,0.498912,0.222539,45,0.0294659,10,0.000111027,-3.65259,1.14052,0.051731,0.498814,
2,1,0,1,0,29652.6,0.503191,0.502919,0.223177,45,0.0296519,10,0.00011224,-3.65135,6.37662,0.00925254,0.502821,
2,1,0,0,0,29653.4,0.507187,0.506866,0.22395,45,0.0298385,10,0.000113513,-3.64985,4.92579,0.0119778,0.506768,
2,1,0,1,0,29654.2,0.511182,0.510912,0.224492,45,0.0300256,10,0.000114696,-3.6488,1.30985,0.0450432,0.510813,
2,1,0,0,0,29655,0.515177,0.514882,0.226178,45,0.030214,10,0.000116455,-3.64555,2.94973,0.0200019,0.514782,
2,1,0,1,0,29655.8,0.519173,0.518899,0.227232,45,0.030403,10,0.00011791,-3.64353,1.19147,0.0495188,0.518799,
2,1,0,1,0,29656.6,0.523167,0.522912,0.228407,45,0.0305932,10,0.000119437,-3.64129,1.36618,0.0431862,0.522812,
2,1,0,1,0,29657.4,0.527162,0.526832,0.230891,45,0.0307846,10,0.000121641,-3.63659,1.7392,0.0339237,0.526731,
2,1,0,1,0,29658.2,0.531158,0.530843,0.232308,45,0.030977,10,0.000123319,-3.63394,2.25265,0.0261914,0.530741,
2,1,0,0,0,29659,0.535153,0.534871,0.233161,45,0.0311707,10,0.000124711,-3.63234,0.989272,0.0596398,0.534769,
2,1,0,1,0,29659.8,0.539148,0.538881,0.235159,45,0.0313656,10,0.000126723,-3.62864,0.799543,0.0737922,0.538777,
2,1,0,1,0,29660.6,0.543143,0.542828,0.237556,45,0.0315622,10,0.000128952,-3.62423,1.68503,0.0350143,0.542723,
2,1,0,1,0,29661.4,0.547138,0.546849,0.239095,45,0.0317607,10,0.000130749,-3.62143,1.61411,0.0365527,0.546743,
2,1,0,1,0,29662.2,0.551133,0.55086,0.241551,45,0.0319604,10,0.000133061,-3.61699,0.657817,0.0896907,0.550753,
2,1,0,0,0,29663,0.555129,0.55483,0.242835,45,0.0321623,10,0.000134732,-3.61469,1.00307,0.0588196,0.554723,
2,1,0,1,0,29663.8,0.559124,0.558862,0.247014,45,0.032366,10,0.000138047,-3.60728,0.695374,0.0848464,0.558753,
2,1,0,1,0,29664.6,0.56312,0.562844,0.249893,45,0.0325719,10,0.000140651,-3.60225,0.745742,0.0791158,0.562734,
2,1,0,1,0,29665.4,0.567114,0.566805,0.252478,45,0.0327805,10,0.000143106,-3.59778,0.641098,0.0920296,0.566693,
2,1,0,1,0,29666.2,0.571109,0.570829,0.256718,45,0.0329916,10,0.000146542,-3.59054,0.725764,0.0812937,0.570716,
2,1,0,0,0,29667,0.575105,0.574849,0.260282,45,0.0332058,10,0.000149623,-3.58456,0.580928,0.101562,0.574734,
2,1,0,1,0,29667.8,0.5791,0.578886,0.264828,45,0.0334236,10,0.000153305,-3.57704,0.479345,0.123085,0.578769,
2,1,0,0,0,29668.6,0.583095,0.58281,0.269633,45,0.0336449,10,0.000157145,-3.56923,0.469589,0.125642,0.582692,
2,1,0,1,0,29669.4,0.58709,0.586769,0.275443,45,0.0338705,10,0.000161621,-3.55997,0.476952,0.123702,0.586648,
2,1,0,1,0,29670.2,0.591085,0.590814,0.281762,45,0.0341009,10,0.000166469,-3.55012,0.367903,0.160369,0.59069,
2,1,0,1,0,29671,0.59508,0.594801,0.289061,45,0.0343364,10,0.000171933,-3.53901,0.341937,0.172547,0.594674,
2,1,0,1,0,29671.8,0.599076,0.5988,0.296785,45,0.0345781,10,0.000177715,-3.52756,0.330859,0.178323,0.59867,
2,1,0,0,0,29672.6,0.603071,0.602752,0.306385,45,0.0348265,10,0.000184675,-3.51373,0.268698,0.219578,0.602618,
2,1,0,1,0,29673.4,0.607066,0.606775,0.316546,45,0.0350828,10,0.000192072,-3.49956,0.270979,0.217729,0.606636,
2,1,0,1,0,29674.2,0.611061,0.61079,0.32822,45,0.0353478,10,0.000200474,-3.48384,0.261659,0.225485,0.610646,
2,1,0,1,0,29675,0.615056,0.614787,0.341099,45,0.0356223,10,0.000209703,-3.46712,0.200498,0.294268,0.614637,
2,1,0,1,0,29675.8,0.619051,0.618744,0.356709,45,0.0359092,10,0.000220712,-3.44769,0.200442,0.294349,0.618587,
2,1,0,0,0,29676.5,0.623047,0.622761,0.375754,45,0.0362093,10,0.000234005,-3.4251,0.17748,0.332432,0.622596,
2,1,0,1,0,29677.3,0.627042,0.626751,0.396079,45,0.0365253,10,0.000248243,-3.40222,0.154563,0.381721,0.626577,
2,1,0,1,0,29678.1,0.631037,0.630753,0.421223,45,0.0368597,10,0.000265688,-3.37549,0.14626,0.403391,0.630568,
2,1,0,1,0,29678.9,0.635032,0.63477,0.450604,45,0.037215,10,0.00028603,-3.3462,0.130305,0.452783,0.634572,
2,1,0,1,0,29679.7,0.639027,0.638746,0.483743,45,0.0375953,10,0.000308989,-3.31538,0.12118,0.486877,0.638533,
2,1,0,1,0,29680.5,0.643022,0.642795,0.523369,45,0.038005,10,0.000336419,-3.28119,0.115464,0.510982,0.642565,
2,1,0,1,0,29681.3,0.647018,0.646753,0.56782,45,0.0384483,10,0.000367239,-3.24579,0.10443,0.564972,0.646503,
2,1,0,0,0,29682.1,0.651013,0.650737,0.622149,45,0.0389312,10,0.000404855,-3.20611,0.0978703,0.602839,0.650463,
2,1,0,1,0,29682.9,0.655008,0.654733,0.68651,45,0.0394615,10,0.000449481,-3.16335,0.0912623,0.646488,0.654431,
2,1,0,1,0,29683.7,0.659003,0.65871,0.759853,45,0.0400462,10,0.000500523,-3.11927,0.0854044,0.690831,0.658375,
2,1,0,1,0,29684.5,0.662998,0.662753,0.845821,45,0.040695,10,0.00056057,-3.07272,0.0870742,0.677583,0.662381,
2,1,0,1,0,29685.3,0.666994,0.66675,0.946011,45,0.0414175,10,0.000630753,-3.0241,0.0788558,0.748201,0.666334,
2,1,0,0,0,29686.1,0.670989,0.670709,1.05932,45,0.0422251,10,0.000710497,-2.97497,0.0793666,0.743386,0.670243,
2,1,0,1,0,29686.9,0.674984,0.674741,1.19011,45,0.0431302,10,0.000803016,-2.92441,0.0770757,0.765481,0.674217,
2,1,0,1,0,29687.7,0.67898,0.678681,1.33818,45,0.0441472,10,0.000908197,-2.87349,0.0753358,0.783161,0.678092,
2,1,0,1,0,29688.5,0.682974,0.682695,1.50728,45,0.0452912,10,0.00102901,-2.82181,0.07773,0.759037,0.682032,
2,1,0,1,0,29689.3,0.686969,0.686701,1.69514,45,0.0465768,10,0.00116405,-2.7708,0.0760124,0.776189,0.685955,
2,1,0,0,0,29690.1,0.690965,0.690709,1.90632,45,0.0480224,10,0.00131671,-2.7198,0.0765781,0.770456,0.68987,
2,1,0,1,0,29690.9,0.69496,0.694665,2.13934,45,0.049645,10,0.00148612,-2.66972,0.0798553,0.738836,0.693724,
2,1,0,0,0,29691.7,0.698955,0.698699,2.39546,45,0.0514627,10,0.00167371,-2.62061,0.079285,0.744151,0.697645,
2,1,0,1,0,29692.5,0.70295,0.702707,2.67209,45,0.0534939,10,0.0018777,-2.57315,0.0819132,0.720275,0.701532,
2,1,0,1,0,29693.3,0.706945,0.706704,2.97526,45,0.055757,10,0.00210263,-2.52648,0.0846593,0.696911,0.705395,
2,1,0,1,0,29694.1,0.71094,0.710683,3.29985,45,0.0582705,10,0.00234515,-2.48151,0.0855435,0.689708,0.709231,
2,1,0,1,0,29694.9,0.714936,0.71468,3.64853,45,0.0610542,10,0.00260753,-2.43788,0.0898677,0.65652,0.713075,
2,1,0,0,0,29695.7,0.718931,0.718631,4.02266,45,0.064126,10,0.00289081,-2.39549,0.0929645,0.634651,0.716861,
2,1,0,1,0,29696.5,0.722927,0.722663,4.41795,45,0.0675054,10,0.00319269,-2.35478,0.0954708,0.61799,0.72072,
2,1,0,1,0,29697.3,0.726921,0.726669,4.83759,45,0.0712097,10,0.00351533,-2.31537,0.098139,0.601188,0.724541,
2,1,0,1,0,29698.1,0.730916,0.730592,5.28059,45,0.0752581,10,0.00385796,-2.27732,0.101786,0.579645,0.728269,
2,1,0,1,0,29698.9,0.734911,0.734642,5.74462,45,0.0796697,10,0.00422024,-2.24074,0.104458,0.564819,0.732114,
2,1,0,0,0,29699.7,0.738907,0.738649,6.23592,45,0.0844635,10,0.00460615,-2.2051,0.106872,0.552061,0.735905,
2,1,0,1,0,29700.5,0.742902,0.742606,6.75435,45,0.0896617,10,0.00501582,-2.17042,0.111236,0.530404,0.739634,
2,1,0,1,0,29701.3,0.746897,0.746595,7.2937,45,0.0952817,10,0.00544544,-2.13705,0.11341,0.520238,0.743386,
2,1,0,1,0,29702.1,0.750892,0.750562,7.85893,45,0.101342,10,0.00589862,-2.10464,0.117793,0.50088,0.747104,
2,1,0,1,0,29702.9,0.754887,0.754622,8.44812,45,0.107863,10,0.00637514,-2.07324,0.118519,0.497812,0.750905,
2,1,0,0,0,29703.7,0.758883,0.758593,9.07274,45,0.114871,10,0.00688252,-2.04226,0.12281,0.480418,0.754601,
2,1,0,1,0,29704.5,0.762878,0.762573,9.72373,45,0.122385,10,0.00741505,-2.01217,0.124932,0.472257,0.758294,
2,1,0,0,0,29705.3,0.766873,0.766577,10.4078,45,0.130435,10,0.00797835,-1.98264,0.125498,0.470126,0.761997,
2,1,0,1,0,29706.1,0.770868,0.77062,11.1369,45,0.139049,10,0.00858232,-1.95324,0.125509,0.470085,0.76572,
2,1,0,1,0,29706.9,0.774863,0.77464,11.9076,45,0.14826,10,0.00922411,-1.92418,0.124609,0.473481,0.7694,
2,1,0,1,0,29707.7,0.778858,0.778616,12.7174,45,0.158111,10,0.00990198,-1.8956,0.130125,0.45341,0.773021,
2,1,0,1,0,29708.5,0.782854,0.782567,13.5743,45,0.168616,10,0.0106228,-1.86728,0.125571,0.469856,0.776595,
2,1,0,0,0,29709.3,0.786849,0.786586,14.5026,45,0.179836,10,0.0114076,-1.83855,0.122867,0.480193,0.780205,
2,1,0,1,0,29710.1,0.790844,0.790562,15.4883,45,0.191822,10,0.0122445,-1.80999,0.124522,0.473812,0.783747,
2,1,0,1,0,29710.9,0.794839,0.794544,16.5423,45,0.204624,10,0.0131435,-1.78141,0.124793,0.472784,0.787266,
2,1,0,1,0,29711.7,0.798834,0.79857,17.6622,45,0.218294,10,0.0141045,-1.75295,0.121359,0.48616,0.790799,
2,1,0,1,0,29712.5,0.802829,0.802562,18.8534,45,0.232891,10,0.0151311,-1.72461,0.125617,0.46968,0.794267,
2,1,0,0,0,29713.3,0.806825,0.806557,20.0583,45,0.248448,10,0.0161781,-1.69771,0.12918,0.456727,0.797731,
2,1,0,1,0,29714.1,0.81082,0.810546,21.3304,45,0.264991,10,0.0172893,-1.671,0.129492,0.455626,0.801161,
2,1,0,1,0,29714.9,0.814815,0.814537,22.6375,45,0.282565,10,0.0184391,-1.64517,0.133524,0.441868,0.804576,
2,1,0,1,0,29715.7,0.81881,0.818548,23.9901,45,0.301199,10,0.0196371,-1.61997,0.137431,0.429305,0.807992,
2,1,0,1,0,29716.5,0.822805,0.822557,25.4235,45,0.320943,10,0.0209123,-1.59476,0.134981,0.437099,0.811371,
2,1,0,0,0,29717.3,0.826801,0.826548,26.8522,45,0.341838,10,0.0221946,-1.57102,0.146831,0.401823,0.814733,
2,1,0,1,0,29718.1,0.830796,0.830515,28.2742,45,0.363875,10,0.0234821,-1.54861,0.152026,0.388092,0.818074,
2,1,0,0,0,29718.9,0.834791,0.834555,29.753,45,0.387062,10,0.0248306,-1.52647,0.149922,0.393538,0.821464,
2,1,0,1,0,29719.7,0.838786,0.838554,31.1826,45,0.411433,10,0.0261483,-1.50609,0.175297,0.336573,0.824834,
2,1,0,1,0,29720.5,0.842781,0.842564,32.6374,45,0.436949,10,0.0274991,-1.48628,0.16836,0.350439,0.828204,
2,1,0,1,0,29721.3,0.846776,0.846527,34.1373,45,0.463634,10,0.0288981,-1.46677,0.163232,0.361448,0.831506,
2,1,0,0,0,29722,0.849723,0.849487,35.2689,45,0.488028,10,0.0299605,-1.45261,0.0441683,1.3358,0.833968,
2,1,0,1,0,29722.8,0.845728,0.845446,33.0831,45,0.515243,10,0.02797,-1.48039,0.135732,0.434681,0.83089,
2,1,0,0,0,29723.6,0.841732,0.841488,31.32,45,0.540956,10,0.0263554,-1.50418,0.131704,0.447973,0.827707,
2,1,0,1,0,29724.4,0.837737,0.837484,29.1974,45,0.565205,10,0.0244524,-1.53466,0.102518,0.575509,0.824637,
2,1,0,1,0,29725.2,0.833742,0.833499,27.5851,45,0.58788,10,0.0229922,-1.55933,0.13436,0.439118,0.821361,
2,1,0,1,0,29726,0.829747,0.829494,26.0755,45,0.609297,10,0.0216295,-1.58377,0.133649,0.441456,0.818021,
2,1,0,1,0,29726.8,0.825752,0.82552,24.6025,45,0.629528,10,0.0203098,-1.60902,0.133236,0.442823,0.814695,
2,1,0,0,0,29727.6,0.821757,0.821511,23.1675,45,0.648606,10,0.0190324,-1.63512,0.128328,0.45976,0.811317,
2,1,0,1,0,29728.4,0.817761,0.817478,21.7842,45,0.666551,10,0.0178081,-1.66186,0.127795,0.461677,0.807893,
2,1,0,1,0,29729.2,0.813766,0.813496,20.4803,45,0.683426,10,0.0166607,-1.68866,0.126206,0.467489,0.804485,
2,1,0,1,0,29730,0.809771,0.80954,19.2328,45,0.699276,10,0.0155698,-1.71596,0.124166,0.47517,0.801078,
2,1,0,1,0,29730.8,0.805776,0.80548,18.022,45,0.714147,10,0.0145164,-1.7442,0.12098,0.487684,0.79755,
2,1,0,0,0,29731.6,0.801781,0.801501,16.8462,45,0.728066,10,0.0135023,-1.7735,0.118213,0.499101,0.794089,
2,1,0,1,0,29732.4,0.797786,0.797497,15.7332,45,0.74107,10,0.0125472,-1.80318,0.119233,0.494831,0.790574,
2,1,0,1,0,29733.2,0.79379,0.793487,14.713,45,0.753219,10,0.0116746,-1.8323,0.118534,0.497747,0.787013,
2,1,0,1,0,29734,0.789795,0.789532,13.6997,45,0.764558,10,0.0108163,-1.86329,0.10724,0.550167,0.783505,
2,1,0,1,0,29734.8,0.7858,0.785511,12.6913,45,0.775079,10,0.00996913,-1.8965,0.112669,0.523656,0.779927,
2,1,0,0,0,29735.6,0.781805,0.781506,11.7773,45,0.784843,10,0.00920406,-1.92895,0.111079,0.531152,0.776324,
2,1,0,1,0,29736.4,0.77781,0.77754,10.9262,45,0.793901,10,0.00849558,-1.96153,0.110475,0.534059,0.772733,
2,1,0,0,0,29737.2,0.773815,0.773529,10.1243,45,0.802299,10,0.00783146,-1.99463,0.108224,0.545164,0.769074,
2,1,0,1,0,29738,0.769819,0.769505,9.36698,45,0.810074,10,0.00720794,-2.0284,0.107724,0.547696,0.765383,
2,1,0,1,0,29738.8,0.765824,0.765577,8.65653,45,0.81726,10,0.00662723,-2.06266,0.107972,0.546438,0.761768,
2,1,0,1,0,29739.6,0.761829,0.761525,7.98537,45,0.823897,10,0.00608106,-2.0977,0.103896,0.567875,0.758012,
2,1,0,1,0,29740.4,0.757834,0.757549,7.35171,45,0.830013,10,0.00556928,-2.13361,0.103488,0.570116,0.754315,
2,1,0,0,0,29741.2,0.753839,0.753558,6.7742,45,0.835644,10,0.00510475,-2.16914,0.104059,0.566987,0.750577,
2,1,0,1,0,29742,0.749844,0.749533,6.25617,45,0.840828,10,0.00468921,-2.20369,0.106916,0.551837,0.74678,
2,1,0,1,0,29742.8,0.745848,0.745588,5.73518,45,0.845609,10,0.00427608,-2.24145,0.0986406,0.598131,0.743064,
2,1,0,1,0,29743.6,0.741853,0.741567,5.23984,45,0.849983,10,0.00388569,-2.28068,0.0957272,0.616335,0.739261,
2,1,0,1,0,29744.4,0.737858,0.737605,4.76901,45,0.853973,10,0.00351764,-2.32157,0.0908565,0.649376,0.735506,
2,1,0,0,0,29745.2,0.733863,0.733616,4.33105,45,0.857597,10,0.00317732,-2.36341,0.0899033,0.656261,0.73171,
2,1,0,1,0,29746,0.729868,0.729564,3.91967,45,0.860883,10,0.00285965,-2.40675,0.0864261,0.682664,0.72784,
2,1,0,1,0,29746.8,0.725872,0.725556,3.53623,45,0.863853,10,0.00256573,-2.45146,0.0846129,0.697293,0.724,
2,1,0,1,0,29747.6,0.721877,0.721619,3.17931,45,0.866526,10,0.00229425,-2.49767,0.081273,0.725948,0.72022,
2,1,0,1,0,29748.4,0.717882,0.717583,2.84793,45,0.868924,10,0.00204362,-2.54547,0.0788481,0.748275,0.71633,
2,1,0,0,0,29749.2,0.713887,0.713601,2.53893,45,0.871066,10,0.00181178,-2.59535,0.0763904,0.772348,0.712484,
2,1,0,1,0,29750,0.709892,0.709589,2.25528,45,0.872972,10,0.00160032,-2.6468,0.0736699,0.80087,0.708597,
2,1,0,0,0,29750.8,0.705897,0.705634,1.99293,45,0.874659,10,0.00140628,-2.70051,0.0705339,0.836477,0.704757,
2,1,0,1,0,29751.6,0.701901,0.701636,1.75198,45,0.876146,10,0.00122925,-2.75647,0.0678841,0.869128,0.700865,
2,1,0,1,0,29752.4,0.697906,0.697614,1.53114,45,0.877447,10,0.00106814,-2.81499,0.0655375,0.900249,0.69694,
2,1,0,1,0,29753.2,0.693911,0.693644,1.32954,45,0.87858,10,0.000922226,-2.8763,0.0625835,0.942741,0.693059,
2,1,0,1,0,29754,0.689916,0.689664,1.14775,45,0.87956,10,0.000791565,-2.94015,0.0604046,0.976746,0.689159,
2,1,0,0,0,29754.8,0.685921,0.685678,0.983084,45,0.880402,10,0.000674079,-3.00741,0.0568891,1.03711,0.685246,
2,1,0,1,0,29755.6,0.681926,0.681629,0.836359,45,0.88112,10,0.000570086,-3.07761,0.0543668,1.08522,0.681261,
2,1,0,1,0,29756.4,0.67793,0.677631,0.70467,45,0.881727,10,0.000477507,-3.15201,0.0521689,1.13094,0.677321,
2,1,0,1,0,29757.2,0.673935,0.673682,0.588069,45,0.882235,10,0.000396172,-3.23057,0.0495241,1.19134,0.673423,
2,1,0,1,0,29758,0.66994,0.669682,0.487986,45,0.882656,10,0.000326796,-3.31159,0.0462418,1.2759,0.669467,
2,1,0,0,0,29758.8,0.665945,0.66567,0.39799,45,0.883001,10,0.00026493,-3.40013,0.0435245,1.35556,0.665495,
2,1,0,1,0,29759.5,0.66195,0.661673,0.320578,45,0.88328,10,0.000212118,-3.49407,0.0407532,1.44774,0.661532,
2,1,0,0,0,29760.3,0.657955,0.657662,0.253067,45,0.883501,10,0.000166433,-3.59676,0.0372545,1.5837,0.657551,
2,1,0,1,0,29761.1,0.653959,0.65367,0.195548,45,0.883672,10,0.000127824,-3.70875,0.0337593,1.74767,0.653584,
2,1,0,1,0,29761.9,0.649964,0.649661,0.146878,45,0.883801,10,9.5421e-05,-3.83304,0.0296453,1.9902,0.649596,
2,1,0,1,0,29762.7,0.64597,0.645685,0.105153,45,0.883893,10,6.78959e-05,-3.97818,0.0239632,2.46211,0.645639,
2,1,0,1,0,29763.5,0.641974,0.641718,0.0695298,45,0.883954,10,4.46185e-05,-4.15783,0.0192769,3.06065,0.641687,
2,1,0,0,0,29764.3,0.637979,0.637706,0.040293,45,0.88399,10,2.56951e-05,-4.39477,0.012764,4.62237,0.637689,
2,1,0,1,0,29765.1,0.633983,0.633656,0.0144355,45,0.884003,10,9.14711e-06,-4.84057,0.00510055,11.5674,0.63365,
2,1,0,1,0,29765.9,0.629988,0.629721,-0.00640923,45,0.883999,10,-4.03603e-06,-5.19319,-0.00723283,-8.15725,0.629724,
2,0,0,1,0,29766.7,0.625993,0.625723,-0.0236686,45,0.883979,10,-1.481e-05,-4.62583,-0.0125092,-4.71653,0.625733,
2,0,0,1,0,29767.5,0.621998,0.621713,-0.0377078,45,0.883946,10,-2.34434e-05,-4.42357,-0.0260152,-2.2679,0.62173,
2,0,0,0,0,29768.3,0.618003,0.617719,-0.0493993,45,0.883903,10,-3.05149e-05,-4.30628,-0.0376268,-1.56803,0.617741,
2,0,0,1,0,29769.1,0.614008,0.6137,-0.0598452,45,0.883851,10,-3.6727e-05,-4.22297,-0.0650981,-0.906325,0.613726,
2,0,0,1,0,29769.9,0.610012,0.609704,-0.0695218,45,0.883792,10,-4.23877e-05,-4.15788,-0.076774,-0.76849,0.609735,
2,0,0,1,0,29770.7,0.606017,0.605712,-0.0759438,45,0.883725,10,-4.60001e-05,-4.11951,-0.0965809,-0.610887,0.605745,
2,0,0,1,0,29771.5,0.602022,0.601739,-0.0831854,45,0.883654,10,-5.00559e-05,-4.07995,-0.155682,-0.378978,0.601776,
2,0,0,0,0,29772.3,0.598027,0.597706,-0.0872461,45,0.883578,10,-5.21475e-05,-4.05925,-0.15705,-0.375677,0.597744,
2,0,0,1,0,29773.1,0.594032,0.593703,-0.0916954,45,0.883498,10,-5.44398e-05,-4.03765,-0.231565,-0.254789,0.593743,
2,0,0,0,0,29773.9,0.590037,0.589776,-0.0962404,45,0.883414,10,-5.67603e-05,-4.01664,-0.215527,-0.273748,0.589818,
2,0,0,1,0,29774.7,0.586041,0.585729,-0.0991839,45,0.883328,10,-5.80949e-05,-4.00356,-0.309351,-0.190722,0.585773,
2,0,0,1,0,29775.5,0.582046,0.581735,-0.101785,45,0.883239,10,-5.9212e-05,-3.99232,-0.29622,-0.199176,0.58178,
2,0,0,1,0,29776.3,0.578052,0.577758,-0.104843,45,0.883149,10,-6.05741e-05,-3.97946,-0.42074,-0.140229,0.577804,
2,0,0,1,0,29777.1,0.574056,0.573777,-0.106614,45,0.883056,10,-6.11727e-05,-3.97218,-0.947929,-0.0622409,0.573824,
2,0,0,0,0,29777.9,0.570061,0.569735,-0.109581,45,0.882961,10,-6.24321e-05,-3.96027,-0.505668,-0.116677,0.569784,
2,0,0,1,0,29778.7,0.566065,0.565738,-0.111235,45,0.882866,10,-6.29299e-05,-3.95376,-0.405773,-0.145401,0.565787,
2,0,0,1,0,29779.5,0.56207,0.561809,-0.112509,45,0.882769,10,-6.32087e-05,-3.94881,-1.3887,-0.0424858,0.561858,
2,0,0,1,0,29780.3,0.558075,0.557767,-0.113227,45,0.882671,10,-6.31543e-05,-3.94605,-0.951086,-0.0620344,0.557817,
2,0,0,1,0,29781.1,0.55408,0.553771,-0.113908,45,0.882572,10,-6.30788e-05,-3.94345,-0.77242,-0.0763833,0.553821,
2,0,0,0,0,29781.9,0.550085,0.549797,-0.115585,45,0.882471,10,-6.35482e-05,-3.9371,-0.68786,-0.0857732,0.549847,
2,0,0,1,0,29782.7,0.54609,0.545762,-0.117162,45,0.882371,10,-6.39424e-05,-3.93121,-1.24939,-0.0472231,0.545813,
2,0,0,1,0,29783.5,0.542094,0.541765,-0.11764,45,0.882269,10,-6.37334e-05,-3.92944,-1.33379,-0.0442349,0.541816,
2,0,0,1,0,29784.3,0.538099,0.53779,-0.119183,45,0.882166,10,-6.40952e-05,-3.92379,-2.2211,-0.0265634,0.537842,
2,0,0,1,0,29785.1,0.534104,0.533821,-0.119749,45,0.882062,10,-6.39243e-05,-3.92173,-0.448926,-0.131425,0.533873,
2,0,0,0,0,29785.9,0.530109,0.529786,-0.121115,45,0.881957,10,-6.41649e-05,-3.9168,-1.99464,-0.0295793,0.529839,
2,0,0,1,0,29786.7,0.526114,0.525788,-0.122506,45,0.881852,10,-6.44123e-05,-3.91184,-1.62307,-0.0363509,0.525842,
2,0,0,0,0,29787.5,0.522119,0.521815,-0.122385,45,0.881746,10,-6.38625e-05,-3.91227,-0.800227,-0.0737291,0.521868,
2,0,0,1,0,29788.3,0.518123,0.517813,-0.124207,45,0.88164,10,-6.43158e-05,-3.90586,4.86626,0.0121243,0.517868,
2,0,0,1,0,29789.1,0.514128,0.513808,-0.124581,45,0.881532,10,-6.40107e-05,-3.90455,-0.760684,-0.0775617,0.513863,
2,0,0,1,0,29789.9,0.510133,0.509855,-0.123156,45,0.881425,10,-6.27919e-05,-3.90954,26.6753,0.00221179,0.509909,
2,0,0,1,0,29790.7,0.506138,0.505802,-0.125632,45,0.881316,10,-6.35449e-05,-3.9009,-0.684193,-0.0862329,0.505858,
2,0,0,0,0,29791.5,0.502143,0.501858,-0.128061,45,0.881206,10,-6.42685e-05,-3.89258,-0.944576,-0.0624619,0.501914,
2,0,0,1,0,29792.3,0.498148,0.497845,-0.129187,45,0.881095,10,-6.4315e-05,-3.88878,-1.45643,-0.04051,0.497902,
2,0,0,1,0,29793.1,0.494152,0.493857,-0.129555,45,0.880983,10,-6.39817e-05,-3.88755,-0.760273,-0.0776037,0.493914,
2,0,0,1,0,29793.9,0.490157,0.489879,-0.131119,45,0.880871,10,-6.42327e-05,-3.88233,-0.824971,-0.0715177,0.489937,
2,0,0,1,0,29794.7,0.486162,0.485822,-0.131443,45,0.880757,10,-6.38579e-05,-3.88126,-1.14127,-0.0516968,0.485879,
2,0,0,0,0,29795.5,0.482167,0.481906,-0.133297,45,0.880642,10,-6.42365e-05,-3.87518,-1.2954,-0.0455459,0.481965,
2,0,0,1,0,29796.3,0.478172,0.477865,-0.133713,45,0.880527,10,-6.38969e-05,-3.87383,-0.803842,-0.0733975,0.477924,
2,0,0,0,0,29797.1,0.474177,0.473873,-0.135839,45,0.88041,10,-6.43705e-05,-3.86697,4.81934,0.0122423,0.473932,
2,0,0,1,0,29797.9,0.470181,0.469895,-0.137296,45,0.880293,10,-6.45148e-05,-3.86234,-0.452791,-0.130303,0.469955,
2,0,0,1,0,29798.7,0.466186,0.465845,-0.138588,45,0.880174,10,-6.45608e-05,-3.85827,-0.95333,-0.0618883,0.465906,
2,0,0,1,0,29799.5,0.462191,0.461912,-0.140112,45,0.880054,10,-6.47192e-05,-3.85353,-1.21177,-0.0486891,0.461973,
2,0,0,1,0,29800.3,0.458196,0.457908,-0.141098,45,0.879933,10,-6.46101e-05,-3.85048,-0.866636,-0.0680793,0.45797,
2,0,0,0,0,29801.1,0.454201,0.453937,-0.141901,45,0.879811,10,-6.4414e-05,-3.84802,-1.18051,-0.0499782,0.453999,
2,0,0,1,0,29801.9,0.450205,0.449895,-0.143814,45,0.879688,10,-6.47012e-05,-3.8422,-0.87701,-0.067274,0.449958,
2,0,0,1,0,29802.7,0.44621,0.44593,-0.14485,45,0.879563,10,-6.45928e-05,-3.83908,-0.709886,-0.0831119,0.445993,
2,0,0,1,0,29803.5,0.442215,0.441909,-0.147512,45,0.879437,10,-6.51867e-05,-3.83117,-2.02854,-0.0290849,0.441974,
2,0,0,1,0,29804.3,0.43822,0.437933,-0.148906,45,0.87931,10,-6.52108e-05,-3.82709,-0.455216,-0.129609,0.437999,
2,0,0,0,0,29805.1,0.434225,0.433939,-0.150565,45,0.879182,10,-6.53361e-05,-3.82228,-0.821802,-0.0717934,0.434005,
2,0,0,1,0,29805.9,0.43023,0.429923,-0.152485,45,0.879052,10,-6.55568e-05,-3.81677,-1.04027,-0.056716,0.42999,
2,0,0,1,0,29806.7,0.426234,0.425944,-0.153941,45,0.878921,10,-6.55701e-05,-3.81265,-0.780614,-0.0755815,0.426012,
2,0,0,1,0,29807.5,0.422239,0.421965,-0.155022,45,0.878788,10,-6.5414e-05,-3.80961,-1.14704,-0.0514367,0.422033,
2,0,0,1,0,29808.3,0.418244,0.417991,-0.157995,45,0.878654,10,-6.60405e-05,-3.80136,-0.629719,-0.0936925,0.418061,
2,0,0,0,0,29809.1,0.414249,0.413956,-0.158859,45,0.878518,10,-6.57605e-05,-3.79899,-0.75831,-0.0778046,0.414026,
2,0,0,1,0,29809.9,0.410254,0.409941,-0.16212,45,0.87838,10,-6.64595e-05,-3.79016,-3.99855,-0.0147554,0.410012,
2,0,0,0,0,29810.7,0.406259,0.405955,-0.163725,45,0.878241,10,-6.64648e-05,-3.78589,-0.513626,-0.11487,0.406027,
2,0,0,1,0,29811.5,0.402263,0.40198,-0.165015,45,0.8781,10,-6.63327e-05,-3.78248,-0.628576,-0.093863,0.402053,
2,0,0,1,0,29812.3,0.398268,0.397954,-0.167436,45,0.877958,10,-6.66316e-05,-3.77615,-0.638294,-0.0924339,0.398028,
2,0,0,1,0,29813.1,0.394274,0.393981,-0.168999,45,0.877815,10,-6.65823e-05,-3.77212,-0.616095,-0.0957644,0.394055,
2,0,0,1,0,29813.9,0.390278,0.389963,-0.170959,45,0.877669,10,-6.66678e-05,-3.76711,-0.946422,-0.06234,0.390038,
2,0,0,0,0,29814.7,0.386283,0.38596,-0.173882,45,0.877523,10,-6.71114e-05,-3.75975,-0.877023,-0.067273,0.386036,
2,0,0,1,0,29815.5,0.382287,0.38198,-0.174777,45,0.877374,10,-6.67615e-05,-3.75752,-1.14363,-0.0515902,0.382057,
2,0,0,1,0,29816.3,0.378292,0.377995,-0.177236,45,0.877224,10,-6.69942e-05,-3.75145,-1.0224,-0.0577076,0.378073,
2,0,0,1,0,29817.1,0.374297,0.374034,-0.178382,45,0.877071,10,-6.67209e-05,-3.74865,-0.536777,-0.109915,0.374113,
2,0,0,1,0,29817.9,0.370303,0.369958,-0.181396,45,0.876917,10,-6.71087e-05,-3.74137,-0.941925,-0.0626377,0.370037,
2,0,0,0,0,29818.7,0.366307,0.36604,-0.183629,45,0.876762,10,-6.72153e-05,-3.73606,-0.726934,-0.0811628,0.366121,
2,0,0,1,0,29819.5,0.362312,0.361999,-0.18631,45,0.876604,10,-6.74438e-05,-3.72976,-0.669077,-0.0881811,0.362081,
2,0,0,1,0,29820.3,0.358316,0.358019,-0.187644,45,0.876445,10,-6.71799e-05,-3.72667,-0.941225,-0.0626843,0.358101,
2,0,0,1,0,29821.1,0.354321,0.354012,-0.18941,45,0.876284,10,-6.70535e-05,-3.7226,-0.820852,-0.0718766,0.354095,
2,0,0,1,0,29821.9,0.350327,0.350029,-0.193241,45,0.876121,10,-6.76401e-05,-3.7139,-0.48836,-0.120813,0.350114,
2,0,0,0,0,29822.7,0.346331,0.346046,-0.194197,45,0.875956,10,-6.7201e-05,-3.71176,-2.19953,-0.0268239,0.346131,
2,0,0,1,0,29823.5,0.342336,0.342046,-0.19687,45,0.875789,10,-6.73387e-05,-3.70582,-0.613859,-0.0961132,0.342133,
2,0,0,0,0,29824.3,0.338341,0.338006,-0.19849,45,0.87562,10,-6.70908e-05,-3.70226,-0.85767,-0.068791,0.338093,
2,0,0,1,0,29825.1,0.334345,0.334053,-0.201899,45,0.87545,10,-6.74451e-05,-3.69487,-1.28958,-0.0457513,0.334142,
2,0,0,1,0,29825.9,0.33035,0.329977,-0.203812,45,0.875278,10,-6.72535e-05,-3.69077,-0.600785,-0.0982049,0.330067,
2,0,0,1,0,29826.7,0.326355,0.326046,-0.206464,45,0.875103,10,-6.73167e-05,-3.68516,-0.625115,-0.0943826,0.326137,
2,0,0,1,0,29827.5,0.32236,0.32205,-0.207929,45,0.874927,10,-6.69635e-05,-3.68209,-0.803999,-0.0733832,0.322141,
2,0,0,0,0,29828.3,0.318365,0.318051,-0.210318,45,0.874749,10,-6.6892e-05,-3.67712,-0.741544,-0.0795637,0.318144,
2,0,0,1,0,29829.1,0.31437,0.314058,-0.214395,45,0.874568,10,-6.73324e-05,-3.66879,-2.65832,-0.0221945,0.314152,
2,0,0,1,0,29829.9,0.310374,0.310015,-0.216273,45,0.874386,10,-6.70478e-05,-3.665,-0.478761,-0.123235,0.31011,
2,0,0,1,0,29830.7,0.306379,0.306062,-0.218544,45,0.874202,10,-6.68881e-05,-3.66046,-0.904687,-0.0652159,0.306158,
2,0,0,1,0,29831.5,0.302385,0.302049,-0.22065,45,0.874015,10,-6.66471e-05,-3.6563,-0.818774,-0.0720589,0.302146,
2,0,0,0,0,29832.3,0.298389,0.298077,-0.223847,45,0.873827,10,-6.67238e-05,-3.65005,-0.697532,-0.0845839,0.298176,
2,0,0,1,0,29833.1,0.294394,0.294063,-0.22634,45,0.873636,10,-6.65581e-05,-3.64524,-1.13906,-0.051797,0.294162,
2,0,0,1,0,29833.9,0.290398,0.290083,-0.228888,45,0.873444,10,-6.63967e-05,-3.64038,-0.885469,-0.0666313,0.290184,
2,0,0,1,0,29834.7,0.286403,0.286067,-0.230079,45,0.873249,10,-6.58181e-05,-3.63812,-0.763725,-0.0772529,0.286168,
2,0,0,1,0,29835.5,0.282408,0.28208,-0.233913,45,0.873053,10,-6.59823e-05,-3.63095,-1.61946,-0.036432,0.282183,
2,0,0,1,0,29836.3,0.278414,0.278117,-0.23652,45,0.872854,10,-6.57801e-05,-3.62613,-0.473865,-0.124508,0.278221,
2,0,0,1,0,29837.1,0.274418,0.274093,-0.239599,45,0.872653,10,-6.56725e-05,-3.62051,-1.24284,-0.0474721,0.274198,
2,0,0,0,0,29837.9,0.270423,0.270124,-0.242581,45,0.87245,10,-6.55269e-05,-3.61514,-0.710673,-0.0830199,0.270231,
2,0,0,1,0,29838.7,0.266427,0.266095,-0.244604,45,0.872245,10,-6.50878e-05,-3.61154,-1.13604,-0.0519349,0.266203,
2,0,0,1,0,29839.5,0.262432,0.262121,-0.247384,45,0.872038,10,-6.48447e-05,-3.60663,-0.72715,-0.0811387,0.26223,
2,0,0,1,0,29840.3,0.258437,0.258151,-0.249723,45,0.871829,10,-6.44663e-05,-3.60254,-0.897585,-0.0657319,0.258261,
2,0,0,1,0,29841.1,0.254442,0.254092,-0.250455,45,0.871618,10,-6.36384e-05,-3.60127,-1.32679,-0.0444683,0.254202,
2,0,0,0,0,29841.9,0.250447,0.250149,-0.254564,45,0.871405,10,-6.36789e-05,-3.5942,-0.859062,-0.0686796,0.250261,
2,0,0,1,0,29842.6,0.246452,0.246141,-0.257012,45,0.87119,10,-6.3261e-05,-3.59005,-0.77401,-0.0762264,0.246254,
2,0,0,1,0,29843.4,0.242456,0.242112,-0.259306,45,0.870972,10,-6.2781e-05,-3.58619,-1.06695,-0.0552976,0.242226,
2,0,0,1,0,29844.2,0.238461,0.238181,-0.261493,45,0.870753,10,-6.22826e-05,-3.58254,-1.2035,-0.0490237,0.238296,
2,0,0,1,0,29845,0.234467,0.234109,-0.264147,45,0.870533,10,-6.18391e-05,-3.57815,-0.766719,-0.0769513,0.234225,
2,0,0,0,0,29845.8,0.230471,0.230149,-0.266192,45,0.87031,10,-6.12637e-05,-3.57481,-1.89901,-0.0310688,0.230266,
2,0,0,1,0,29846.6,0.226476,0.226182,-0.268452,45,0.870085,10,-6.07189e-05,-3.57113,-1.29332,-0.045619,0.2263,
2,0,0,0,0,29847.4,0.222481,0.222198,-0.270351,45,0.869859,10,-6.00713e-05,-3.56807,-0.964994,-0.0611403,0.222317,
2,0,0,1,0,29848.2,0.218485,0.218223,-0.274195,45,0.86963,10,-5.98358e-05,-3.56194,-1.27632,-0.0462266,0.218344,
2,0,0,1,0,29849,0.21449,0.214192,-0.275955,45,0.869399,10,-5.91073e-05,-3.55916,-0.575524,-0.102515,0.214313,
2,0,0,1,0,29849.8,0.210496,0.210202,-0.279638,45,0.869166,10,-5.87805e-05,-3.5534,-0.790496,-0.0746367,0.210325,
2,0,0,1,0,29850.6,0.2065,0.206197,-0.284649,45,0.86893,10,-5.86938e-05,-3.54569,-0.932757,-0.0632533,0.206323,
2,0,0,0,0,29851.4,0.202505,0.202166,-0.285828,45,0.868692,10,-5.77846e-05,-3.5439,-0.828834,-0.0711843,0.202291,
2,0,0,1,0,29852.2,0.198509,0.198193,-0.288873,45,0.868451,10,-5.72525e-05,-3.53929,-0.905228,-0.065177,0.19832,
2,0,0,1,0,29853,0.194514,0.194184,-0.293263,45,0.868207,10,-5.69469e-05,-3.53274,-0.626409,-0.0941876,0.194313,
2,0,0,1,0,29853.8,0.190519,0.190224,-0.29581,45,0.86796,10,-5.62701e-05,-3.52899,-0.581874,-0.101397,0.190354,
2,0,0,1,0,29854.6,0.186524,0.186218,-0.300206,45,0.86771,10,-5.59039e-05,-3.52258,-0.704771,-0.0837151,0.18635,
2,0,0,0,0,29855.4,0.182529,0.182155,-0.306079,45,0.867456,10,-5.57538e-05,-3.51417,-0.489832,-0.12045,0.182289,
2,0,0,1,0,29856.2,0.178534,0.178194,-0.310942,45,0.867197,10,-5.54081e-05,-3.50732,-0.479551,-0.123032,0.178331,
2,0,0,1,0,29857,0.174538,0.174174,-0.319013,45,0.866934,10,-5.55638e-05,-3.49619,-0.431391,-0.136767,0.174314,
2,0,0,1,0,29857.8,0.170543,0.170227,-0.325621,45,0.866666,10,-5.54296e-05,-3.48729,-0.364306,-0.161952,0.170371,
2,0,0,1,0,29858.6,0.166549,0.166199,-0.334584,45,0.86639,10,-5.56076e-05,-3.4755,-0.318975,-0.184968,0.166346,
2,0,0,0,0,29859.4,0.162553,0.162241,-0.345192,45,0.866107,10,-5.60045e-05,-3.46194,-0.270076,-0.218457,0.162393,
2,0,0,1,0,29860.2,0.158558,0.158229,-0.357851,45,0.865813,10,-5.66224e-05,-3.4463,-0.193193,-0.305394,0.158386,
2,0,0,0,0,29861,0.154563,0.154236,-0.378142,45,0.865507,10,-5.83232e-05,-3.42235,-0.17962,-0.328471,0.154403,
2,0,0,1,0,29861.8,0.150567,0.150209,-0.400876,45,0.865184,10,-6.0215e-05,-3.39699,-0.131892,-0.447336,0.150385,
2,0,0,1,0,29862.6,0.146572,0.146272,-0.433003,45,0.86484,10,-6.33361e-05,-3.36351,-0.107493,-0.548872,0.146462,
2,0,0,1,0,29863.4,0.142578,0.14225,-0.476128,45,0.864466,10,-6.7729e-05,-3.32228,-0.0951886,-0.619822,0.142459,
2,0,0,1,0,29864.2,0.138582,0.138256,-0.525429,45,0.864055,10,-7.26438e-05,-3.27949,-0.0902548,-0.653705,0.138487,
2,0,0,0,0,29865,0.134587,0.134243,-0.580152,45,0.863601,10,-7.78816e-05,-3.23646,-0.0999423,-0.590341,0.134499,
2,0,0,1,0,29865.8,0.130591,0.130247,-0.631082,45,0.863105,10,-8.21968e-05,-3.19991,-0.119326,-0.494443,0.130525,
2,0,0,1,0,29866.6,0.126596,0.126269,-0.670626,45,0.862571,10,-8.46793e-05,-3.17352,-0.168034,-0.35112,0.126564,
2,0,0,1,0,29867.4,0.122602,0.122263,-0.702053,45,0.862008,10,-8.58353e-05,-3.15363,-0.325625,-0.18119,0.122572,
2,0,0,1,0,29868.2,0.118607,0.118275,-0.717924,45,0.861428,10,-8.49128e-05,-3.14392,-0.476848,-0.123729,0.118591,
2,0,0,0,0,29869,0.114611,0.114261,-0.724535,45,0.860838,10,-8.27863e-05,-3.13994,-9.24607,-0.00638109,0.11458,
2,0,0,1,0,29869.8,0.110616,0.110305,-0.7241,45,0.860247,10,-7.98716e-05,-3.1402,2.20569,0.0267489,0.110623,
2,0,0,1,0,29870.6,0.10662,0.106278,-0.718999,45,0.859659,10,-7.64137e-05,-3.14327,1.27545,0.0462581,0.106594,
2,0,0,1,0,29871.4,0.102625,0.102258,-0.711497,45,0.859075,10,-7.27564e-05,-3.14783,0.66296,0.0889948,0.102571,
2,0,0,1,0,29872.2,0.0986305,0.0982619,-0.703292,45,0.858498,10,-6.91068e-05,-3.15286,0.84534,0.0697944,0.0985714,
2,0,0,0,0,29873,0.0946351,0.0942788,-0.691173,45,0.857927,10,-6.5163e-05,-3.16041,0.554232,0.106454,0.094583,
2,0,0,1,0,29873.8,0.0906399,0.0902631,-0.68289,45,0.857365,10,-6.16398e-05,-3.16565,0.558979,0.10555,0.0905636,
2,0,0,0,0,29874.6,0.0866448,0.0863459,-0.672048,45,0.856812,10,-5.80286e-05,-3.1726,0.651834,0.0905139,0.0866416,
2,0,0,1,0,29875.4,0.0826492,0.0823552,-0.662059,45,0.856267,10,-5.4524e-05,-3.1791,0.57173,0.103196,0.0826465,
2,0,0,1,0,29876.2,0.0786544,0.0783081,-0.651731,45,0.855731,10,-5.10358e-05,-3.18593,0.829223,0.0711509,0.0785949,
2,0,0,1,0,29877,0.0746596,0.0743042,-0.642757,45,0.855202,10,-4.77595e-05,-3.19195,0.733111,0.080479,0.074587,
2,0,0,1,0,29877.8,0.0706641,0.0703359,-0.634113,45,0.85468,10,-4.46009e-05,-3.19783,0.540118,0.109235,0.0706149,
2,0,0,0,0,29878.6,0.0666689,0.0663499,-0.625974,45,0.854165,10,-4.15333e-05,-3.20344,0.62132,0.0949591,0.0666253,
2,0,0,1,0,29879.4,0.0626737,0.0624104,-0.615374,45,0.853657,10,-3.84057e-05,-3.21086,0.692382,0.0852131,0.0626812,
2,0,0,1,0,29880.2,0.0586783,0.058351,-0.608494,45,0.853157,10,-3.55062e-05,-3.21574,0.518976,0.113685,0.0586187,
2,0,0,1,0,29881,0.0546835,0.0543409,-0.59804,45,0.852664,10,-3.2498e-05,-3.22327,0.705007,0.0836871,0.0546041,
2,0,0,1,0,29881.8,0.0506886,0.050334,-0.58804,45,0.852178,10,-2.95984e-05,-3.23059,0.50553,0.116709,0.0505928,
2,0,0,0,0,29882.6,0.046693,0.0463729,-0.578285,45,0.8517,10,-2.68167e-05,-3.23786,0.518813,0.113721,0.0466273,
2,0,0,1,0,29883.4,0.0426979,0.042338,-0.566169,45,0.851231,10,-2.39705e-05,-3.24705,0.546283,0.108003,0.0425871,
2,0,0,1,0,29884.2,0.0387022,0.0383514,-0.556077,45,0.85077,10,-2.13263e-05,-3.25487,0.424633,0.138944,0.0385961,
2,0,0,1,0,29885,0.0347074,0.0343456,-0.546078,45,0.850318,10,-1.87554e-05,-3.26275,0.457655,0.128918,0.0345859,
2,0,0,1,0,29885.8,0.0307126,0.0304151,-0.534237,45,0.849875,10,-1.62489e-05,-3.27227,0.489677,0.120488,0.0306502,
2,0,0,0,0,29886.6,0.0267172,0.026399,-0.526166,45,0.849439,10,-1.38903e-05,-3.27888,0.508429,0.116044,0.0266306,
2,0,0,1,0,29887.4,0.022722,0.0224034,-0.515571,45,0.849011,10,-1.15506e-05,-3.28771,0.800344,0.0737183,0.0226303,
2,0,0,0,0,29888.2,0.0187268,0.0183909,-0.510216,45,0.848589,10,-9.38331e-06,-3.29225,0.64778,0.0910803,0.0186153,
2,0,0,1,0,29889,0.0147313,0.0144099,-0.505952,45,0.848172,10,-7.2907e-06,-3.29589,1.20711,0.0488771,0.0146325,
2,0,0,1,0,29889.8,0.0107365,0.010407,-0.501725,45,0.847758,10,-5.22146e-06,-3.29953,1.60971,0.0366526,0.0106278,
2,0,0,1,0,29890.6,0.00674163,0.0063885,-0.499931,45,0.847347,10,-3.19381e-06,-3.30109,6.58938,0.0089538,0.00660847,
2,0,0,1,0,29891.4,0.00274612,0.00241901,-0.499249,45,0.846936,10,-1.20769e-06,-3.30168,-1.97323,-0.0299002,0.00263868,
2,0,0,0,0,29891.9,0.000274105,-9.74687e-05,-0.501484,45,0.846679,10,4.8879e-08,-3.29974, , ,0.000123184,