File: Figure_codes/Fig_3-5/workspace_calculate_alpha_eff/20221101_1-115_003_TrumpetPlot_ParaChange_from10_every3_16_CV_C01_7.csv
mode,ox/red,error,control changes,counter inc.,time/s,control/V,Ewe/V,<I>/mA,cycle number,(Q-Qo)/C,I Range,P/W,log(|I|),Tafel slope mV/dec,alpha_eff,E-IR/V,
2,0,0,0,0,5540.38,2.44065e-05,-0.000363498,-0.079677,8,0.0000000E+000,10,2.89625e-08,-4.09867, , ,-0.00032844,
2,1,0,0,0,5541.13,0.00379485,0.00351441,0.165241,8,0.000117918,10,5.80724e-07,-3.78188,0.0486007,1.21397,0.0034417,
2,1,0,1,0,5541.93,0.00779002,0.00743367,0.189105,8,0.000275207,10,1.40575e-06,-3.7233,0.0918331,0.64247,0.00735047,
2,1,0,0,0,5542.73,0.0117852,0.0114569,0.200008,8,0.000446983,10,2.29146e-06,-3.69895,0.132152,0.446456,0.0113689,
2,1,0,1,0,5543.53,0.0157806,0.0155068,0.215944,8,0.000629732,10,3.34859e-06,-3.66566,0.150067,0.393157,0.0154117,
2,1,0,1,0,5544.33,0.0197754,0.0194987,0.226301,8,0.000822523,10,4.41258e-06,-3.64531,0.158561,0.372096,0.0193992,
2,1,0,1,0,5545.13,0.0237704,0.023475,0.240919,8,0.00102556,10,5.65556e-06,-3.61813,0.199157,0.296248,0.023369,
2,1,0,1,0,5545.93,0.0277659,0.0274626,0.25323,8,0.0012387,10,6.95435e-06,-3.59649,0.159431,0.370067,0.0273512,
2,1,0,0,0,5546.73,0.0317611,0.031472,0.267951,8,0.00146306,10,8.43297e-06,-3.57194,0.174253,0.338589,0.0313541,
2,1,0,1,0,5547.53,0.0357567,0.0354565,0.281339,8,0.00169896,10,9.97529e-06,-3.55077,0.233482,0.252696,0.0353327,
2,1,0,1,0,5548.33,0.0397516,0.0394317,0.296592,8,0.00194625,10,1.16951e-05,-3.52784,0.146908,0.401611,0.0393012,
2,1,0,1,0,5549.12,0.0437465,0.0434459,0.309789,8,0.00220636,10,1.34591e-05,-3.50893,0.182025,0.324131,0.0433096,
2,1,0,1,0,5549.92,0.0477413,0.0474275,0.326868,8,0.00247789,10,1.55025e-05,-3.48563,0.20129,0.29311,0.0472837,
2,1,0,0,0,5550.72,0.0517369,0.0514289,0.341888,8,0.00276156,10,1.75829e-05,-3.46612,0.198765,0.296833,0.0512784,
2,1,0,1,0,5551.52,0.0557321,0.0554393,0.357081,8,0.00305727,10,1.97963e-05,-3.44723,0.30026,0.196496,0.0552822,
2,1,0,1,0,5552.32,0.0597277,0.0594333,0.370387,8,0.00336356,10,2.20133e-05,-3.43134,0.212708,0.277376,0.0592703,
2,1,0,1,0,5553.12,0.0637226,0.0634476,0.382751,8,0.00368084,10,2.42846e-05,-3.41708,0.288472,0.204526,0.0632792,
2,1,0,1,0,5553.92,0.0677174,0.0673985,0.396976,8,0.00400943,10,2.67556e-05,-3.40124,0.376328,0.156778,0.0672238,
2,1,0,0,0,5554.72,0.0717128,0.0714101,0.407987,8,0.00434754,10,2.91344e-05,-3.38935,0.246375,0.239472,0.0712306,
2,1,0,1,0,5555.52,0.075708,0.0754121,0.418944,8,0.00469531,10,3.15934e-05,-3.37784,0.319984,0.184384,0.0752278,
2,1,0,0,0,5556.32,0.0797031,0.0793939,0.431735,8,0.00505222,10,3.42772e-05,-3.36478,0.376483,0.156714,0.079204,
2,1,0,1,0,5557.11,0.0836986,0.0834037,0.443833,8,0.00541786,10,3.70173e-05,-3.35278,0.329134,0.179258,0.0832084,
2,1,0,1,0,5557.91,0.0876935,0.0873948,0.45634,8,0.00579371,10,3.98817e-05,-3.34071,0.324123,0.182029,0.087194,
2,1,0,1,0,5558.71,0.0916883,0.0913646,0.474032,8,0.00618041,10,4.33098e-05,-3.32419,0.245115,0.240703,0.0911561,
2,1,0,1,0,5559.51,0.0956838,0.0954304,0.489975,8,0.0065814,10,4.67585e-05,-3.30983,0.196459,0.300317,0.0952149,
2,1,0,0,0,5560.31,0.099679,0.0993889,0.514982,8,0.00699984,10,5.11835e-05,-3.28821,0.213029,0.276957,0.0991624,
2,1,0,1,0,5561.11,0.103674,0.103377,0.542375,8,0.00743712,10,5.60692e-05,-3.2657,0.165822,0.355803,0.103138,
2,1,0,1,0,5561.91,0.10767,0.107368,0.565739,8,0.00789694,10,6.07421e-05,-3.24738,0.200198,0.294708,0.107119,
2,1,0,1,0,5562.71,0.111664,0.111356,0.594139,8,0.00837735,10,6.61607e-05,-3.22611,0.21945,0.268854,0.111094,
2,1,0,1,0,5563.51,0.115659,0.115371,0.616606,8,0.0088777,10,7.11384e-05,-3.20999,0.226823,0.260115,0.1151,
2,1,0,0,0,5564.31,0.119655,0.119356,0.637944,8,0.00939718,10,7.61426e-05,-3.19522,0.342788,0.172118,0.119076,
2,1,0,1,0,5565.11,0.12365,0.12335,0.660268,8,0.0099324,10,8.1444e-05,-3.18028,0.257083,0.229498,0.123059,
2,1,0,1,0,5565.9,0.127646,0.127317,0.6797,8,0.0104848,10,8.65377e-05,-3.16768,0.327612,0.180091,0.127018,
2,1,0,1,0,5566.7,0.131641,0.131331,0.69694,8,0.011053,10,9.15296e-05,-3.1568,1.05879,0.0557241,0.131024,
2,1,0,1,0,5567.5,0.135635,0.135294,0.700605,8,0.0116293,10,9.47877e-05,-3.15453,-26.2623,-0.00224656,0.134986,
2,1,0,0,0,5568.3,0.139631,0.139324,0.68091,8,0.0122013,10,9.4867e-05,-3.16691,-0.200954,-0.293599,0.139024,
2,1,0,1,0,5569.1,0.143626,0.143322,0.640293,8,0.0127484,10,9.17679e-05,-3.19362,-0.106265,-0.555218,0.14304,
2,1,0,0,0,5569.9,0.147621,0.147327,0.574536,8,0.0132508,10,8.46445e-05,-3.24068,-0.0761532,-0.774754,0.147074,
2,1,0,1,0,5570.7,0.151617,0.151328,0.505739,8,0.0136986,10,7.65325e-05,-3.29607,-0.0711743,-0.828951,0.151106,
2,1,0,1,0,5571.5,0.155612,0.155304,0.446295,8,0.0140936,10,6.93115e-05,-3.35038,-0.0763578,-0.772678,0.155108,
2,1,0,1,0,5572.3,0.159606,0.159276,0.399796,8,0.0144466,10,6.3678e-05,-3.39816,-0.0986829,-0.597875,0.159101,
2,1,0,1,0,5573.1,0.163602,0.163282,0.365271,8,0.0147679,10,5.96421e-05,-3.43738,-0.104946,-0.562192,0.163121,
2,1,0,0,0,5573.89,0.167597,0.167259,0.339855,8,0.0150651,10,5.68439e-05,-3.46871,-0.167893,-0.351415,0.16711,
2,1,0,1,0,5574.69,0.171592,0.171288,0.321329,8,0.0153453,10,5.50396e-05,-3.49305,-0.172497,-0.342034,0.171146,
2,1,0,1,0,5575.49,0.175588,0.175255,0.308717,8,0.0156122,10,5.41042e-05,-3.51044,-0.269935,-0.218571,0.175119,
2,1,0,1,0,5576.29,0.179582,0.17928,0.297213,8,0.0158694,10,5.32844e-05,-3.52693,-0.252886,-0.233307,0.179149,
2,1,0,1,0,5577.09,0.183577,0.183245,0.288626,8,0.0161196,10,5.28891e-05,-3.53966,-0.365183,-0.161563,0.183118,
2,1,0,0,0,5577.89,0.187573,0.187219,0.281714,8,0.0163633,10,5.27423e-05,-3.55019,-0.406461,-0.145155,0.187095,
2,1,0,1,0,5578.69,0.191568,0.191284,0.276317,8,0.016602,10,5.28549e-05,-3.55859,-0.457897,-0.12885,0.191162,
2,1,0,0,0,5579.49,0.195563,0.195262,0.271946,8,0.0168371,10,5.31009e-05,-3.56552,-0.555505,-0.10621,0.195143,
2,1,0,1,0,5580.29,0.199559,0.199229,0.267596,8,0.0170682,10,5.33127e-05,-3.57252,-0.614878,-0.0959539,0.199111,
2,1,0,1,0,5581.09,0.203553,0.203182,0.262756,8,0.0172964,10,5.33872e-05,-3.58045,-0.705564,-0.0836211,0.203066,
2,1,0,1,0,5581.88,0.207548,0.207252,0.261336,8,0.017522,10,5.41625e-05,-3.5828,-1.04874,-0.0562581,0.207137,
2,1,0,1,0,5582.68,0.211544,0.211253,0.257873,8,0.0177447,10,5.44766e-05,-3.58859,-0.728182,-0.0810237,0.21114,
2,1,0,0,0,5583.48,0.215539,0.215234,0.254708,8,0.0179655,10,5.48218e-05,-3.59396,-0.591042,-0.0998237,0.215122,
2,1,0,1,0,5584.28,0.219535,0.219234,0.253279,8,0.018184,10,5.55274e-05,-3.5964,-2.55275,-0.0231123,0.219123,
2,1,0,1,0,5585.08,0.223529,0.223249,0.251572,8,0.0184011,10,5.61632e-05,-3.59934,-2.11837,-0.0278516,0.223138,
2,1,0,1,0,5585.88,0.227524,0.227206,0.249057,8,0.0186164,10,5.65873e-05,-3.6037,-0.752111,-0.0784459,0.227096,
2,1,0,1,0,5586.68,0.23152,0.231221,0.247267,8,0.0188301,10,5.71732e-05,-3.60683,-2.0242,-0.0291473,0.231112,
2,1,0,0,0,5587.48,0.235515,0.235247,0.244843,8,0.0190427,10,5.75987e-05,-3.61111,-4.83573,-0.0122009,0.235139,
2,1,0,1,0,5588.28,0.23951,0.239225,0.245485,8,0.0192542,10,5.87262e-05,-3.60997,-1.23764,-0.0476715,0.239117,
2,1,0,1,0,5589.08,0.243506,0.243225,0.242026,8,0.0194644,10,5.88668e-05,-3.61614,-2.44055,-0.0241748,0.243118,
2,1,0,1,0,5589.88,0.2475,0.247213,0.241665,8,0.0196739,10,5.97428e-05,-3.61679,-1.82787,-0.032278,0.247107,
2,1,0,1,0,5590.67,0.251495,0.251181,0.241477,8,0.0198822,10,6.06544e-05,-3.61712,-1.07412,-0.0549288,0.251074,
2,1,0,0,0,5591.47,0.255491,0.255212,0.239982,8,0.0200899,10,6.12464e-05,-3.61982,-53.4102,-0.00110466,0.255107,
2,1,0,1,0,5592.27,0.259486,0.259202,0.2393,8,0.0202971,10,6.20271e-05,-3.62106,-0.778884,-0.0757494,0.259096,
2,1,0,0,0,5593.07,0.263481,0.263185,0.237909,8,0.0205033,10,6.2614e-05,-3.62359,6.60474,0.00893298,0.26308,
2,1,0,1,0,5593.87,0.267477,0.267144,0.235228,8,0.0207088,10,6.28397e-05,-3.62851,-2.19406,-0.0268908,0.267041,
2,1,0,1,0,5594.67,0.271471,0.271177,0.236984,8,0.0209135,10,6.42646e-05,-3.62528,6.07688,0.00970892,0.271073,
2,1,0,1,0,5595.47,0.275466,0.27514,0.235394,8,0.0211173,10,6.47664e-05,-3.6282,-0.948281,-0.0622179,0.275037,
2,1,0,1,0,5596.27,0.279462,0.279154,0.23461,8,0.0213206,10,6.54923e-05,-3.62965,-4.07626,-0.014474,0.279051,
2,1,0,0,0,5597.07,0.283457,0.283156,0.234144,8,0.021523,10,6.62995e-05,-3.63052,-1.63287,-0.0361327,0.283053,
2,1,0,1,0,5597.87,0.287452,0.28711,0.232187,8,0.0217245,10,6.66632e-05,-3.63416,4.8465,0.0121737,0.287007,
2,1,0,1,0,5598.66,0.291448,0.291129,0.231615,8,0.0219253,10,6.74297e-05,-3.63523,-1.35158,-0.0436525,0.291027,
2,1,0,1,0,5599.46,0.295442,0.295165,0.231536,8,0.0221251,10,6.83415e-05,-3.63538,-2.70463,-0.0218145,0.295063,
2,1,0,1,0,5600.26,0.299437,0.299172,0.228755,8,0.0223245,10,6.84371e-05,-3.64063,-1.2419,-0.0475079,0.299072,
2,1,0,0,0,5601.06,0.303433,0.303128,0.229389,8,0.022523,10,6.95342e-05,-3.63943,-4.59486,-0.0128404,0.303027,
2,1,0,1,0,5601.86,0.307428,0.307119,0.228719,8,0.0227208,10,7.0244e-05,-3.6407,5.38432,0.0109577,0.307019,
2,1,0,1,0,5602.66,0.311424,0.311135,0.226517,8,0.0229183,10,7.04773e-05,-3.6449,-0.804365,-0.0733498,0.311035,
2,1,0,1,0,5603.46,0.315418,0.315144,0.226494,8,0.0231148,10,7.13785e-05,-3.64494,-5.4565,-0.0108128,0.315045,
2,1,0,1,0,5604.26,0.319413,0.319123,0.225199,8,0.0233108,10,7.18661e-05,-3.64743,-12.1954,-0.0048379,0.319024,
2,1,0,0,0,5605.06,0.323409,0.323146,0.225651,8,0.0235065,10,7.29182e-05,-3.64656,-0.799821,-0.0737665,0.323047,
2,1,0,1,0,5605.86,0.327404,0.327077,0.223984,8,0.0237013,10,7.32601e-05,-3.64978,1.39616,0.0422588,0.326979,
2,1,0,0,0,5606.65,0.331399,0.33111,0.223262,8,0.0238956,10,7.39241e-05,-3.65119,-1.68898,-0.0349323,0.331012,
2,1,0,1,0,5607.45,0.335395,0.335088,0.222925,8,0.0240895,10,7.46995e-05,-3.65184,-52.2445,-0.0011293,0.33499,
2,1,0,1,0,5608.25,0.339389,0.339114,0.222671,8,0.0242827,10,7.55109e-05,-3.65234,20.9672,0.00281392,0.339016,
2,1,0,1,0,5609.05,0.343384,0.343117,0.222239,8,0.0244755,10,7.62538e-05,-3.65318,-1.48185,-0.0398152,0.343019,
2,1,0,1,0,5609.85,0.34738,0.347104,0.221148,8,0.0246676,10,7.67615e-05,-3.65532,-7.16735,-0.00823177,0.347007,
2,1,0,0,0,5610.65,0.351375,0.351041,0.221453,8,0.0248593,10,7.77392e-05,-3.65472,-3.52995,-0.0167141,0.350944,
2,1,0,1,0,5611.45,0.35537,0.355102,0.220732,8,0.0250506,10,7.83824e-05,-3.65613,-1.37081,-0.0430403,0.355005,
2,1,0,1,0,5612.25,0.359366,0.359039,0.218701,8,0.0252412,10,7.85223e-05,-3.66015,-2.52437,-0.0233722,0.358943,
2,1,0,1,0,5613.05,0.36336,0.363077,0.217982,8,0.0254313,10,7.91444e-05,-3.66158,-2.5357,-0.0232678,0.362981,
2,1,0,1,0,5613.85,0.367355,0.367072,0.219297,8,0.0256211,10,8.04978e-05,-3.65897,3.54788,0.0166297,0.366975,
2,1,0,0,0,5614.65,0.371351,0.371063,0.2174,8,0.0258103,10,8.06691e-05,-3.66274,-5.31253,-0.0111058,0.370967,
2,1,0,1,0,5615.44,0.375346,0.375044,0.218039,8,0.0259996,10,8.17741e-05,-3.66147,-9.43056,-0.00625626,0.374948,
2,1,0,1,0,5616.24,0.379342,0.379052,0.216967,8,0.0261883,10,8.22417e-05,-3.66361,-1.99067,-0.0296382,0.378957,
2,1,0,1,0,5617.04,0.383336,0.383042,0.21752,8,0.0263768,10,8.33194e-05,-3.6625,2.64631,0.0222952,0.382947,
2,1,0,1,0,5617.84,0.387331,0.387011,0.21684,8,0.026565,10,8.39195e-05,-3.66386,-1.63162,-0.0361604,0.386916,
2,1,0,0,0,5618.64,0.391327,0.391052,0.216315,8,0.0267526,10,8.45903e-05,-3.66491,-15.1211,-0.00390184,0.390956,
2,1,0,1,0,5619.44,0.395322,0.395026,0.215458,8,0.02694,10,8.51115e-05,-3.66664,-5.58742,-0.0105594,0.394931,
2,1,0,0,0,5620.24,0.399317,0.398973,0.216946,8,0.0271273,10,8.65557e-05,-3.66365,-8.58275,-0.00687425,0.398877,
2,1,0,1,0,5621.04,0.403313,0.402987,0.215314,8,0.0273141,10,8.67688e-05,-3.66693,-4.87706,-0.0120975,0.402892,
2,1,0,1,0,5621.84,0.407307,0.406995,0.216623,8,0.027501,10,8.81646e-05,-3.66429,10.1006,0.00584127,0.4069,
2,1,0,1,0,5622.64,0.411302,0.411008,0.21624,8,0.0276876,10,8.88763e-05,-3.66506,5.95725,0.0099039,0.410913,
2,1,0,1,0,5623.43,0.415298,0.414991,0.215991,8,0.0278741,10,8.96344e-05,-3.66556,-3.75056,-0.015731,0.414896,
2,1,0,0,0,5624.23,0.419293,0.419009,0.214647,8,0.0280605,10,8.9939e-05,-3.66828,-9.44453,-0.006247,0.418915,
2,1,0,1,0,5625.03,0.423288,0.422974,0.215818,8,0.0282468,10,9.12855e-05,-3.66591,-4.27865,-0.0137894,0.422879,
2,1,0,1,0,5625.83,0.427283,0.427026,0.214279,8,0.0284333,10,9.15027e-05,-3.66902,2.42983,0.0242815,0.426932,
2,1,0,1,0,5626.63,0.431278,0.431005,0.215444,8,0.0286198,10,9.28576e-05,-3.66667,8.73621,0.0067535,0.430911,
2,1,0,1,0,5627.43,0.435273,0.434988,0.215469,8,0.028806,10,9.37265e-05,-3.66662,-3.31669,-0.0177888,0.434893,
2,1,0,0,0,5628.23,0.439269,0.438982,0.216132,8,0.0289923,10,9.48782e-05,-3.66528,3.56693,0.0165409,0.438887,
2,1,0,1,0,5629.03,0.443264,0.442965,0.216019,8,0.0291783,10,9.56888e-05,-3.66551,3.84661,0.0153382,0.44287,
2,1,0,0,0,5629.83,0.447259,0.446937,0.215033,8,0.0293645,10,9.61062e-05,-3.6675,-2.17409,-0.0271378,0.446843,
2,1,0,1,0,5630.63,0.451254,0.451009,0.215802,8,0.029551,10,9.73288e-05,-3.66594,-12.4565,-0.00473649,0.450914,
2,1,0,1,0,5631.42,0.455249,0.45497,0.215769,8,0.0297373,10,9.81683e-05,-3.66601,8.6405,0.00682831,0.454875,
2,1,0,1,0,5632.22,0.459244,0.458986,0.214765,8,0.029924,10,9.85741e-05,-3.66804,2.92755,0.0201534,0.458891,
2,1,0,1,0,5633.02,0.46324,0.462996,0.215018,8,0.0301109,10,9.95523e-05,-3.66753,4.32677,0.013636,0.462901,
2,1,0,0,0,5633.82,0.467235,0.466966,0.21649,8,0.0302978,10,0.000101094,-3.66456,1.64517,0.0358626,0.466871,
2,1,0,1,0,5634.62,0.471231,0.470936,0.217422,8,0.0304853,10,0.000102392,-3.6627,-4.87166,-0.0121109,0.47084,
2,1,0,1,0,5635.42,0.475225,0.474936,0.21875,8,0.030673,10,0.000103892,-3.66005,1.45586,0.0405258,0.47484,
2,1,0,1,0,5636.22,0.47922,0.478891,0.218564,8,0.0308613,10,0.000104668,-3.66042,4.97938,0.0118489,0.478795,
2,1,0,1,0,5637.02,0.483216,0.482896,0.219872,8,0.0310504,10,0.000106175,-3.65783,12.2109,0.00483174,0.482799,
2,1,0,0,0,5637.82,0.487211,0.486939,0.220211,8,0.03124,10,0.000107229,-3.65716,1.79111,0.0329405,0.486842,
2,1,0,1,0,5638.62,0.491206,0.490945,0.220786,8,0.0314301,10,0.000108394,-3.65603,2.26891,0.0260037,0.490848,
2,1,0,1,0,5639.42,0.495201,0.494953,0.221933,8,0.031621,10,0.000109846,-3.65378,1.92354,0.0306726,0.494855,
2,1,0,1,0,5640.21,0.499196,0.498886,0.223329,8,0.0318122,10,0.000111416,-3.65105,1.49833,0.0393771,0.498788,
2,1,0,1,0,5641.01,0.503191,0.5029,0.224595,8,0.0320045,10,0.000112949,-3.6486,1.69963,0.0347134,0.502801,
2,1,0,0,0,5641.81,0.507187,0.506912,0.224839,8,0.0321976,10,0.000113974,-3.64813,2.00097,0.0294856,0.506813,
2,1,0,1,0,5642.61,0.511182,0.510949,0.226235,8,0.0323916,10,0.000115595,-3.64544,1.49152,0.0395569,0.510849,
2,1,0,0,0,5643.41,0.515177,0.514909,0.228428,8,0.0325867,10,0.00011762,-3.64125,1.57457,0.0374705,0.514809,
2,1,0,1,0,5644.21,0.519173,0.518877,0.228269,8,0.0327826,10,0.000118443,-3.64155,2.39668,0.0246174,0.518776,
2,1,0,1,0,5645.01,0.523167,0.522909,0.230275,8,0.0329799,10,0.000120413,-3.63775,0.862581,0.0683994,0.522807,
2,1,0,1,0,5645.81,0.527162,0.526853,0.232535,8,0.0331787,10,0.000122512,-3.63351,1.431,0.04123,0.526751,
2,1,0,1,0,5646.61,0.531158,0.530852,0.23419,8,0.0333789,10,0.00012432,-3.63043,1.21939,0.048385,0.530749,
2,1,0,0,0,5647.41,0.535153,0.534873,0.236596,8,0.0335807,10,0.000126549,-3.62599,1.04947,0.0562187,0.534769,
2,1,0,1,0,5648.2,0.539148,0.538895,0.239106,8,0.0337842,10,0.000128853,-3.62141,1.02561,0.057527,0.538789,
2,1,0,1,0,5649,0.543143,0.542847,0.241733,8,0.0339896,10,0.000131224,-3.61666,0.615015,0.0959326,0.54274,
2,1,0,1,0,5649.8,0.547138,0.546835,0.244759,8,0.0341972,10,0.000133843,-3.61126,1.58759,0.0371633,0.546727,
2,1,0,1,0,5650.6,0.551133,0.550828,0.247168,8,0.0344071,10,0.000136147,-3.60701,0.442773,0.133251,0.550719,
2,1,0,0,0,5651.4,0.555129,0.554847,0.249578,8,0.0346198,10,0.000138478,-3.60279,0.680969,0.0866413,0.554737,
2,1,0,1,0,5652.2,0.559124,0.558841,0.255029,8,0.0348351,10,0.000142521,-3.59341,0.79599,0.0741215,0.558729,
2,1,0,1,0,5653,0.56312,0.562835,0.258647,8,0.0350538,10,0.000145576,-3.58729,0.452374,0.130423,0.562721,
2,1,0,1,0,5653.8,0.567114,0.566844,0.262231,8,0.0352761,10,0.000148644,-3.58132,0.49556,0.119057,0.566728,
2,1,0,1,0,5654.6,0.571109,0.570845,0.268428,8,0.035502,10,0.000153231,-3.57117,0.515245,0.114509,0.570727,
2,1,0,0,0,5655.4,0.575105,0.574794,0.273497,8,0.0357324,10,0.000157204,-3.56305,0.420265,0.140388,0.574673,
2,1,0,1,0,5656.2,0.5791,0.578809,0.280438,8,0.0359681,10,0.00016232,-3.55216,0.388844,0.151732,0.578686,
2,1,0,0,0,5656.99,0.583095,0.582806,0.288357,8,0.036209,10,0.000168056,-3.54007,0.292751,0.201537,0.582679,
2,1,0,1,0,5657.79,0.58709,0.586791,0.296575,8,0.0364563,10,0.000174027,-3.52787,0.290134,0.203354,0.586661,
2,1,0,1,0,5658.59,0.591085,0.590799,0.305703,8,0.0367107,10,0.000180609,-3.5147,0.287189,0.20544,0.590665,
2,1,0,1,0,5659.39,0.59508,0.594817,0.317086,8,0.0369732,10,0.000188608,-3.49882,0.235768,0.250246,0.594677,
2,1,0,1,0,5660.19,0.599076,0.598793,0.330019,8,0.0372451,10,0.000197613,-3.48146,0.246941,0.238924,0.598647,
2,1,0,0,0,5660.99,0.603071,0.602785,0.345051,8,0.0375277,10,0.000207992,-3.46212,0.193583,0.304778,0.602633,
2,1,0,1,0,5661.79,0.607066,0.606807,0.361303,8,0.0378229,10,0.000219241,-3.44213,0.187606,0.314489,0.606648,
2,1,0,1,0,5662.59,0.611061,0.610768,0.380942,8,0.0381328,10,0.000232667,-3.41914,0.171521,0.343981,0.6106,
2,1,0,1,0,5663.39,0.615056,0.614782,0.404244,8,0.0384597,10,0.000248522,-3.39336,0.133199,0.442947,0.614604,
2,1,0,1,0,5664.19,0.619051,0.618801,0.430787,8,0.038807,10,0.000266571,-3.36574,0.144946,0.407047,0.618612,
2,1,0,0,0,5664.98,0.623047,0.622802,0.463138,8,0.0391775,10,0.000288443,-3.33429,0.119308,0.494516,0.622599,
2,1,0,1,0,5665.78,0.627042,0.626768,0.500583,8,0.0395754,10,0.000313749,-3.30052,0.112116,0.526239,0.626548,
2,1,0,1,0,5666.58,0.631037,0.630807,0.543875,8,0.0400057,10,0.00034308,-3.2645,0.107536,0.548654,0.630567,
2,1,0,1,0,5667.38,0.635032,0.63474,0.594935,8,0.0404735,10,0.000377629,-3.22553,0.0977565,0.60354,0.634478,
2,1,0,1,0,5668.18,0.639027,0.638808,0.65649,8,0.040987,10,0.000419371,-3.18277,0.0884921,0.666726,0.638519,
2,1,0,1,0,5668.98,0.643022,0.642708,0.731534,8,0.0415545,10,0.000470162,-3.13577,0.083477,0.706782,0.642386,
2,1,0,1,0,5669.78,0.647018,0.646715,0.817902,8,0.0421857,10,0.000528949,-3.0873,0.0788629,0.748134,0.646355,
2,1,0,0,0,5670.58,0.651013,0.650737,0.91936,8,0.0428926,10,0.000598261,-3.03651,0.0753815,0.782686,0.650332,
2,1,0,1,0,5671.38,0.655008,0.65473,1.04167,8,0.0436888,10,0.000682013,-2.98227,0.0726014,0.812656,0.654271,
2,1,0,1,0,5672.18,0.659003,0.658687,1.18333,8,0.0445896,10,0.000779444,-2.92689,0.0682962,0.863884,0.658166,
2,1,0,1,0,5672.97,0.662998,0.662712,1.34967,8,0.045614,10,0.000894439,-2.86977,0.0630546,0.935697,0.662118,
2,1,0,1,0,5673.77,0.666994,0.666705,1.55995,8,0.0467949,10,0.00104003,-2.80689,0.066665,0.885023,0.666019,
2,1,0,0,0,5674.57,0.670989,0.670758,1.79043,8,0.0481456,10,0.00120095,-2.74704,0.0642797,0.917864,0.66997,
2,1,0,1,0,5675.37,0.674984,0.674727,2.05711,8,0.049695,10,0.00138799,-2.68674,0.0642285,0.918595,0.673822,
2,1,0,1,0,5676.17,0.67898,0.678704,2.36209,8,0.0514722,10,0.00160316,-2.6267,0.0644208,0.915854,0.677665,
2,1,0,1,0,5676.97,0.682974,0.682684,2.70739,8,0.0535098,10,0.00184829,-2.56745,0.0656586,0.898587,0.681492,
2,1,0,1,0,5677.77,0.686969,0.686671,3.09797,8,0.0558411,10,0.00212728,-2.50892,0.0652167,0.904677,0.685307,
2,1,0,0,0,5678.57,0.690965,0.690727,3.53505,8,0.0585035,10,0.00244175,-2.45161,0.0666122,0.885724,0.689171,
2,1,0,1,0,5679.37,0.69496,0.694706,4.02071,8,0.0615343,10,0.00279321,-2.3957,0.0687716,0.857913,0.692937,
2,1,0,0,0,5680.17,0.698955,0.698701,4.5521,8,0.064971,10,0.00318056,-2.34179,0.0701352,0.841232,0.696698,
2,1,0,1,0,5680.97,0.70295,0.702684,5.13304,8,0.0688535,10,0.0036069,-2.28963,0.0726548,0.812059,0.700425,
2,1,0,1,0,5681.76,0.706945,0.706696,5.76247,8,0.0732184,10,0.00407232,-2.23939,0.0774514,0.761768,0.704161,
2,1,0,1,0,5682.56,0.71094,0.71068,6.43478,8,0.0781035,10,0.00457307,-2.19147,0.0783438,0.753091,0.707849,
2,1,0,1,0,5683.36,0.714936,0.714665,7.15023,8,0.0835447,10,0.00511002,-2.14568,0.0811812,0.72677,0.711519,
2,1,0,0,0,5684.16,0.718931,0.718675,7.90981,8,0.0895741,10,0.00568458,-2.10183,0.0852205,0.692322,0.715195,
2,1,0,1,0,5684.96,0.722927,0.722659,8.70703,8,0.0962267,10,0.00629222,-2.06013,0.0898251,0.656832,0.718828,
2,1,0,1,0,5685.76,0.726921,0.726655,9.54356,8,0.103531,10,0.00693487,-2.02029,0.0928637,0.63534,0.722455,
2,1,0,1,0,5686.56,0.730916,0.73065,10.4148,8,0.111518,10,0.00760958,-1.98235,0.0972765,0.606518,0.726067,
2,1,0,1,0,5687.36,0.734911,0.734671,11.316,8,0.120214,10,0.00831352,-1.94631,0.100851,0.585023,0.729692,
2,1,0,0,0,5688.16,0.738907,0.738679,12.2617,8,0.129649,10,0.00905745,-1.91145,0.105904,0.557108,0.733284,
2,1,0,1,0,5688.96,0.742902,0.742587,13.2428,8,0.139851,10,0.00983391,-1.87802,0.106058,0.556299,0.73676,
2,1,0,1,0,5689.75,0.746897,0.746607,14.2755,8,0.15086,10,0.0106582,-1.84541,0.110028,0.53623,0.740326,
2,1,0,1,0,5690.55,0.750892,0.750578,15.3604,8,0.162712,10,0.0115292,-1.8136,0.111123,0.530942,0.74382,
2,1,0,1,0,5691.35,0.754887,0.754601,16.5054,8,0.175454,10,0.012455,-1.78237,0.112871,0.522722,0.747339,
2,1,0,0,0,5692.15,0.758883,0.758599,17.7292,8,0.189145,10,0.0134494,-1.75131,0.112121,0.526215,0.750798,
2,1,0,1,0,5692.95,0.762878,0.762595,19.0276,8,0.203833,10,0.0145104,-1.72062,0.113743,0.518714,0.754223,
2,1,0,0,0,5693.75,0.766873,0.76664,20.3281,8,0.219583,10,0.0155843,-1.6919,0.120676,0.488912,0.757696,
2,1,0,1,0,5694.55,0.770868,0.770563,21.7675,8,0.236393,10,0.0167733,-1.66219,0.109133,0.540624,0.760985,
2,1,0,1,0,5695.35,0.774863,0.774603,23.2784,8,0.254406,10,0.0180315,-1.63305,0.120362,0.490189,0.76436,
2,1,0,1,0,5696.15,0.778858,0.778592,24.7917,8,0.273625,10,0.0193026,-1.60569,0.117853,0.500623,0.767683,
2,1,0,1,0,5696.95,0.782854,0.782587,26.4004,8,0.294091,10,0.0206606,-1.57839,0.120934,0.487868,0.77097,
2,1,0,0,0,5697.74,0.786849,0.786575,28.0512,8,0.315868,10,0.0220644,-1.55205,0.128671,0.458535,0.774232,
2,1,0,1,0,5698.54,0.790844,0.790581,29.7137,8,0.338958,10,0.0234911,-1.52704,0.129261,0.456439,0.777507,
2,1,0,1,0,5699.34,0.794839,0.794541,31.4918,8,0.363437,10,0.0250215,-1.5018,0.135052,0.436868,0.780684,
2,1,0,1,0,5700.14,0.798834,0.798547,33.2644,8,0.389315,10,0.0265632,-1.47802,0.199948,0.295076,0.78391,
2,1,0,1,0,5700.94,0.802829,0.802559,34.5808,8,0.416391,10,0.0277532,-1.46116,0.137428,0.429316,0.787344,
2,1,0,0,0,5701.74,0.806825,0.806536,36.3639,8,0.444773,10,0.0293288,-1.43933,0.160004,0.36874,0.790536,
2,1,0,1,0,5702.54,0.81082,0.810617,38.1095,8,0.474538,10,0.0308922,-1.41897,0.164357,0.358974,0.793849,
2,1,0,1,0,5703.34,0.814815,0.814535,39.8269,8,0.505671,10,0.0324404,-1.39982,0.168511,0.350125,0.797011,
2,1,0,1,0,5704.14,0.81881,0.818551,41.5099,8,0.538178,10,0.033978,-1.38185,0.177242,0.332878,0.800287,
2,1,0,1,0,5704.94,0.822805,0.822554,42.7295,8,0.571867,10,0.0351473,-1.36927,0.3231,0.182606,0.803753,
2,1,0,0,0,5705.74,0.826801,0.826579,44.234,8,0.606631,10,0.0365629,-1.35424,0.221442,0.266435,0.807116,
2,1,0,1,0,5706.53,0.830796,0.830523,45.8238,8,0.642629,10,0.0380578,-1.33891,0.247662,0.238228,0.810361,
2,1,0,0,0,5707.33,0.834791,0.83452,47.281,8,0.679834,10,0.0394569,-1.32531,0.233123,0.253086,0.813716,
2,1,0,1,0,5708.13,0.838786,0.838568,48.5785,8,0.718163,10,0.0407363,-1.31356,0.276688,0.213237,0.817193,
2,1,0,1,0,5708.93,0.842781,0.842584,50.0403,8,0.757594,10,0.0421631,-1.30068,0.266923,0.221037,0.820566,
2,1,0,1,0,5709.73,0.846776,0.846569,51.4897,8,0.798212,10,0.0435895,-1.28828,0.273771,0.215509,0.823913,
2,1,0,0,0,5710.43,0.849723,0.849487,52.4841,8,0.834723,10,0.0445846,-1.27997,0.0478963,1.23183,0.826394,
2,1,0,1,0,5711.23,0.845728,0.845472,50.0362,8,0.875502,10,0.0423042,-1.30072,0.188016,0.313802,0.823456,
2,1,0,0,0,5712.03,0.841732,0.841531,48.1489,8,0.914703,10,0.0405188,-1.31741,0.178194,0.3311,0.820346,
2,1,0,1,0,5712.83,0.837737,0.837468,46.1234,8,0.952348,10,0.0386269,-1.33608,0.173463,0.34013,0.817173,
2,1,0,1,0,5713.63,0.833742,0.833541,43.958,8,0.988408,10,0.0366408,-1.35696,0.165909,0.355616,0.8142,
2,1,0,1,0,5714.43,0.829747,0.829481,42.3671,8,1.02291,10,0.0351428,-1.37297,0.174389,0.338324,0.81084,
2,1,0,1,0,5715.22,0.825752,0.825473,40.6295,8,1.05604,10,0.0335386,-1.39116,0.174704,0.337715,0.807596,
2,1,0,0,0,5716.02,0.821757,0.821553,38.9021,8,1.08777,10,0.0319602,-1.41003,0.165188,0.357169,0.804436,
2,1,0,1,0,5716.82,0.817761,0.817445,37.0557,8,1.11809,10,0.030291,-1.43114,0.150859,0.391094,0.80114,
2,1,0,1,0,5717.62,0.813766,0.813473,35.3156,8,1.14699,10,0.0287283,-1.45203,0.148984,0.396016,0.797934,
2,1,0,1,0,5718.42,0.809771,0.809558,33.5157,8,1.17447,10,0.0271329,-1.47475,0.136752,0.431438,0.794811,
2,1,0,1,0,5719.22,0.805776,0.80555,31.7707,8,1.20053,10,0.0255929,-1.49797,0.130241,0.453006,0.791571,
2,1,0,0,0,5720.02,0.801781,0.80152,29.9739,8,1.22514,10,0.0240247,-1.52326,0.134382,0.439046,0.788332,
2,1,0,1,0,5720.82,0.797786,0.797511,28.316,8,1.24841,10,0.0225823,-1.54797,0.127793,0.461682,0.785052,
2,1,0,1,0,5721.62,0.79379,0.793526,26.6273,8,1.27035,10,0.0211295,-1.57467,0.119703,0.492886,0.78181,
2,1,0,1,0,5722.42,0.789795,0.789527,24.9726,8,1.29095,10,0.0197166,-1.60254,0.119413,0.494085,0.778539,
2,1,0,1,0,5723.21,0.7858,0.785531,23.4067,8,1.31026,10,0.0183867,-1.63066,0.115383,0.511339,0.775233,
2,1,0,0,0,5724.01,0.781805,0.781557,21.9378,8,1.32835,10,0.0171456,-1.65881,0.117692,0.501309,0.771904,
2,1,0,1,0,5724.81,0.77781,0.777525,20.4957,8,1.34529,10,0.0159359,-1.68834,0.110381,0.534511,0.768507,
2,1,0,0,0,5725.61,0.773815,0.773497,19.0809,8,1.36109,10,0.014759,-1.7194,0.105208,0.560795,0.765101,
2,1,0,1,0,5726.41,0.769819,0.769572,17.7104,8,1.37577,10,0.0136294,-1.75177,0.102122,0.577742,0.761779,
2,1,0,1,0,5727.21,0.765824,0.765588,16.3768,8,1.38936,10,0.0125379,-1.78577,0.101239,0.582778,0.758382,
2,1,0,1,0,5728.01,0.761829,0.761582,15.1218,8,1.40192,10,0.0115165,-1.8204,0.101612,0.580639,0.754929,
2,1,0,1,0,5728.81,0.757834,0.757559,13.9501,8,1.41352,10,0.010568,-1.85542,0.0942321,0.626113,0.751421,
2,1,0,0,0,5729.61,0.753839,0.753568,12.8497,8,1.4242,10,0.00968312,-1.89111,0.0990823,0.595464,0.747914,
2,1,0,1,0,5730.41,0.749844,0.749603,11.7851,8,1.43403,10,0.00883418,-1.92867,0.0905323,0.651701,0.744417,
2,1,0,1,0,5731.2,0.745848,0.745574,10.7604,8,1.44301,10,0.00802267,-1.96817,0.0915457,0.644487,0.740839,
2,1,0,1,0,5732,0.741853,0.741602,9.81585,8,1.45122,10,0.00727946,-2.00807,0.0865179,0.68194,0.737283,
2,1,0,1,0,5732.8,0.737858,0.737636,8.91178,8,1.45868,10,0.00657365,-2.05004,0.0863283,0.683438,0.733715,
2,1,0,0,0,5733.6,0.733863,0.73357,8.06694,8,1.46545,10,0.00591767,-2.09329,0.0813557,0.72521,0.730021,
2,1,0,1,0,5734.4,0.729868,0.729601,7.27506,8,1.47156,10,0.00530789,-2.13816,0.0791186,0.745716,0.7264,
2,1,0,1,0,5735.2,0.725872,0.725618,6.53817,8,1.47706,10,0.00474421,-2.18454,0.0792257,0.744707,0.722741,
2,1,0,1,0,5736,0.721877,0.721611,5.84887,8,1.48199,10,0.0042206,-2.23293,0.0755466,0.780975,0.719037,
2,1,0,1,0,5736.8,0.717882,0.71759,5.21134,8,1.48639,10,0.00373961,-2.28305,0.0728592,0.809781,0.715297,
2,1,0,0,0,5737.6,0.713887,0.713602,4.62436,8,1.4903,10,0.00329995,-2.33495,0.0708705,0.832505,0.711567,
2,1,0,1,0,5738.4,0.709892,0.709625,4.02448,8,1.49375,10,0.00285587,-2.39529,0.0609327,0.968281,0.707855,
2,1,0,0,0,5739.2,0.705897,0.705597,3.57066,8,1.49676,10,0.00251945,-2.44725,0.0746178,0.790696,0.704026,
2,1,0,1,0,5739.99,0.701901,0.701645,3.14861,8,1.49943,10,0.0022092,-2.50188,0.0666709,0.884944,0.700259,
2,1,0,1,0,5740.79,0.697906,0.697664,2.74856,8,1.50177,10,0.00191757,-2.56089,0.0634372,0.930053,0.696454,
2,1,0,1,0,5741.59,0.693911,0.693585,2.38557,8,1.50381,10,0.0016546,-2.62241,0.061684,0.956488,0.692535,
2,1,0,1,0,5742.39,0.689916,0.689626,2.05503,8,1.50557,10,0.0014172,-2.68718,0.0584574,1.00928,0.688722,
2,1,0,0,0,5743.19,0.685921,0.685673,1.76286,8,1.50708,10,0.00120875,-2.75378,0.056096,1.05177,0.684897,
2,1,0,1,0,5743.99,0.681926,0.681673,1.50281,8,1.50837,10,0.00102442,-2.8231,0.0549724,1.07327,0.681012,
2,1,0,1,0,5744.79,0.67793,0.67767,1.27162,8,1.50946,10,0.000861741,-2.89564,0.0533812,1.10526,0.67711,
2,1,0,1,0,5745.59,0.673935,0.673653,1.06854,8,1.51038,10,0.000719826,-2.97121,0.0505521,1.16711,0.673183,
2,1,0,1,0,5746.39,0.66994,0.669683,0.893883,8,1.51115,10,0.000598618,-3.04872,0.0493662,1.19515,0.66929,
2,1,0,0,0,5747.19,0.665945,0.665655,0.739631,8,1.51179,10,0.000492338,-3.13099,0.0467418,1.26225,0.665329,
2,1,0,1,0,5747.98,0.66195,0.661658,0.606221,8,1.51231,10,0.000401111,-3.21737,0.0450759,1.3089,0.661391,
2,1,0,0,0,5748.78,0.657955,0.657711,0.49481,8,1.51274,10,0.000325442,-3.30556,0.0432229,1.36502,0.657493,
2,1,0,1,0,5749.58,0.653959,0.653675,0.39837,8,1.51309,10,0.000260405,-3.39971,0.041264,1.42982,0.653499,
2,1,0,1,0,5750.38,0.649964,0.649686,0.318349,8,1.51336,10,0.000206827,-3.4971,0.0388371,1.51916,0.649546,
2,1,0,1,0,5751.18,0.64597,0.645668,0.249102,8,1.51357,10,0.000160837,-3.60362,0.036508,1.61608,0.645559,
2,1,0,1,0,5751.98,0.641974,0.641691,0.190828,8,1.51373,10,0.000122453,-3.71936,0.0316212,1.86583,0.641607,
2,1,0,0,0,5752.78,0.637979,0.6377,0.143398,8,1.51385,10,9.14448e-05,-3.84346,0.0297113,1.98578,0.637637,
2,1,0,1,0,5753.58,0.633983,0.633724,0.101085,8,1.51394,10,6.40603e-05,-3.99531,0.0257445,2.29175,0.63368,
2,1,0,1,0,5754.38,0.629988,0.629745,0.067593,8,1.51399,10,4.25664e-05,-4.1701,0.0192183,3.06999,0.629715,
2,1,0,1,0,5755.18,0.625993,0.625732,0.0386664,8,1.51402,10,2.41948e-05,-4.41267,0.0135,4.37036,0.625715,
2,1,0,1,0,5755.98,0.621998,0.62172,0.0186149,8,1.51403,10,1.15733e-05,-4.73014,0.00725006,8.13786,0.621712,
2,0,0,0,0,5756.77,0.618003,0.617738,-0.00216508,8,1.51403,10,-1.33745e-06,-5.66453,-0.0199144,-2.96269,0.617739,
2,0,0,1,0,5757.57,0.614008,0.613714,-0.0189654,8,1.51401,10,-1.16394e-05,-4.72204,-0.0162416,-3.63265,0.613722,
2,0,0,1,0,5758.37,0.610012,0.609742,-0.0308832,8,1.51398,10,-1.88308e-05,-4.51028,-0.0158326,-3.72649,0.609756,
2,0,0,1,0,5759.17,0.606017,0.605751,-0.0419517,8,1.51393,10,-2.54123e-05,-4.37725,-0.0388403,-1.51904,0.605769,
2,0,0,1,0,5759.97,0.602022,0.601702,-0.0522507,8,1.51388,10,-3.14394e-05,-4.28191,-0.0533764,-1.10536,0.601725,
2,0,0,0,0,5760.77,0.598027,0.597738,-0.0611232,8,1.51382,10,-3.65356e-05,-4.21379,0.152173,0.387718,0.597765,
2,0,0,1,0,5761.57,0.594032,0.593752,-0.0665898,8,1.51376,10,-3.95378e-05,-4.17659,-0.0332178,-1.77616,0.593781,
2,0,0,0,0,5762.37,0.590037,0.589748,-0.0738291,8,1.51369,10,-4.35406e-05,-4.13177,-0.111653,-0.528425,0.589781,
2,0,0,1,0,5763.17,0.586041,0.585752,-0.0783293,8,1.51362,10,-4.58815e-05,-4.10608,-0.1828,-0.322756,0.585786,
2,0,0,1,0,5763.97,0.582046,0.581769,-0.0826301,8,1.51354,10,-4.80716e-05,-4.08286,-0.169464,-0.348157,0.581805,
2,0,0,1,0,5764.76,0.578052,0.577778,-0.0867784,8,1.51346,10,-5.01387e-05,-4.06159,-0.206775,-0.285334,0.577816,
2,0,0,1,0,5765.56,0.574056,0.573792,-0.0892205,8,1.51337,10,-5.1194e-05,-4.04954,-0.278727,-0.211677,0.573831,
2,0,0,0,0,5766.36,0.570061,0.569751,-0.0929101,8,1.51328,10,-5.29356e-05,-4.03194,-0.888384,-0.0664127,0.569792,
2,0,0,1,0,5767.16,0.566065,0.565804,-0.0959272,8,1.51319,10,-5.4276e-05,-4.01806,-0.223186,-0.264354,0.565846,
2,0,0,1,0,5767.96,0.56207,0.561796,-0.0986586,8,1.5131,10,-5.5426e-05,-4.00587,-0.34836,-0.169365,0.561839,
2,0,0,1,0,5768.76,0.558075,0.557756,-0.100235,8,1.51301,10,-5.59065e-05,-3.99898,-0.566122,-0.104218,0.5578,
2,0,0,1,0,5769.56,0.55408,0.55381,-0.102464,8,1.51292,10,-5.67456e-05,-3.98943,-0.402709,-0.146508,0.553855,
2,0,0,0,0,5770.36,0.550085,0.549816,-0.10334,8,1.51282,10,-5.68178e-05,-3.98573,-0.595989,-0.0989951,0.549861,
2,0,0,1,0,5771.16,0.54609,0.54581,-0.105522,8,1.51272,10,-5.75948e-05,-3.97666,-3.15494,-0.0187008,0.545856,
2,0,0,1,0,5771.96,0.542094,0.541824,-0.106099,8,1.51262,10,-5.74868e-05,-3.97429,-0.498084,-0.118454,0.541871,
2,0,0,1,0,5772.75,0.538099,0.53786,-0.107975,8,1.51252,10,-5.80752e-05,-3.96668,-1.69421,-0.0348245,0.537907,
2,0,0,1,0,5773.55,0.534104,0.533798,-0.109265,8,1.51242,10,-5.83253e-05,-3.96152,-0.564671,-0.104486,0.533847,
2,0,0,0,0,5774.35,0.530109,0.52982,-0.11114,8,1.51232,10,-5.88842e-05,-3.95413,-1.57724,-0.0374071,0.529869,
2,0,0,1,0,5775.15,0.526114,0.525797,-0.113029,8,1.51222,10,-5.94303e-05,-3.94681,-0.472916,-0.124758,0.525847,
2,0,0,0,0,5775.95,0.522119,0.521809,-0.113017,8,1.51212,10,-5.89734e-05,-3.94686,-1.08802,-0.0542272,0.521859,
2,0,0,1,0,5776.75,0.518123,0.517805,-0.113722,8,1.51201,10,-5.88859e-05,-3.94416,-0.586679,-0.100566,0.517855,
2,0,0,1,0,5777.55,0.514128,0.513836,-0.114131,8,1.51191,10,-5.86444e-05,-3.9426,-2.01254,-0.0293162,0.513886,
2,0,0,1,0,5778.35,0.510133,0.50983,-0.114477,8,1.5118,10,-5.83638e-05,-3.94128,-0.941058,-0.0626954,0.50988,
2,0,0,1,0,5779.15,0.506138,0.505811,-0.116193,8,1.51169,10,-5.87717e-05,-3.93482,-3.27592,-0.0180102,0.505862,
2,0,0,0,0,5779.95,0.502143,0.501864,-0.118328,8,1.51159,10,-5.93845e-05,-3.92691,-0.888064,-0.0664366,0.501916,
2,0,0,1,0,5780.75,0.498148,0.497838,-0.119935,8,1.51148,10,-5.97081e-05,-3.92105,-0.615729,-0.0958213,0.497891,
2,0,0,1,0,5781.54,0.494152,0.493868,-0.119936,8,1.51137,10,-5.92326e-05,-3.92105,1.68161,0.0350854,0.493921,
2,0,0,1,0,5782.34,0.490157,0.489853,-0.12067,8,1.51126,10,-5.91106e-05,-3.9184,-0.449604,-0.131226,0.489906,
2,0,0,1,0,5783.14,0.486162,0.485868,-0.12178,8,1.51115,10,-5.91688e-05,-3.91443,-1.94039,-0.0304062,0.485922,
2,0,0,0,0,5783.94,0.482167,0.481899,-0.122826,8,1.51104,10,-5.91895e-05,-3.91071,-0.661123,-0.0892421,0.481953,
2,0,0,1,0,5784.74,0.478172,0.477868,-0.125289,8,1.51092,10,-5.98715e-05,-3.90209,-0.748513,-0.078823,0.477923,
2,0,0,0,0,5785.54,0.474177,0.473901,-0.125574,8,1.51081,10,-5.95095e-05,-3.9011,5.66078,0.0104226,0.473956,
2,0,0,1,0,5786.34,0.470181,0.46989,-0.126721,8,1.5107,10,-5.95452e-05,-3.89715,-0.532292,-0.110841,0.469946,
2,0,0,1,0,5787.14,0.466186,0.46586,-0.128441,8,1.51058,10,-5.98357e-05,-3.8913,-0.601385,-0.0981069,0.465917,
2,0,0,1,0,5787.94,0.462191,0.461934,-0.129398,8,1.51046,10,-5.97733e-05,-3.88807,-0.547427,-0.107777,0.461991,
2,0,0,1,0,5788.74,0.458196,0.457943,-0.130608,8,1.51034,10,-5.98111e-05,-3.88403,-1.47727,-0.0399386,0.458001,
2,0,0,0,0,5789.53,0.454201,0.453934,-0.13308,8,1.51023,10,-6.04096e-05,-3.87589,-1.25633,-0.046962,0.453992,
2,0,0,1,0,5790.33,0.450205,0.449942,-0.1347,8,1.5101,10,-6.0607e-05,-3.87063,-0.910179,-0.0648224,0.450001,
2,0,0,1,0,5791.13,0.44621,0.445932,-0.136449,8,1.50998,10,-6.08468e-05,-3.86503,-0.809694,-0.072867,0.445992,
2,0,0,1,0,5791.93,0.442215,0.441943,-0.137085,8,1.50986,10,-6.05839e-05,-3.86301,-1.34538,-0.0438538,0.442003,
2,0,0,1,0,5792.73,0.43822,0.437906,-0.138927,8,1.50973,10,-6.08368e-05,-3.85721,-0.321345,-0.183603,0.437967,
2,0,0,0,0,5793.53,0.434225,0.433917,-0.14039,8,1.50961,10,-6.09177e-05,-3.85266,1.93949,0.0304203,0.433979,
2,0,0,1,0,5794.33,0.43023,0.429951,-0.142002,8,1.50948,10,-6.1054e-05,-3.8477,-0.510478,-0.115578,0.430013,
2,0,0,1,0,5795.13,0.426234,0.425957,-0.144738,8,1.50935,10,-6.1652e-05,-3.83942,-0.75853,-0.077782,0.42602,
2,0,0,1,0,5795.93,0.422239,0.42192,-0.146468,8,1.50922,10,-6.17979e-05,-3.83426,-0.764852,-0.0771392,0.421985,
2,0,0,1,0,5796.73,0.418244,0.417968,-0.148102,8,1.50909,10,-6.1902e-05,-3.82944,-0.732003,-0.0806008,0.418033,
2,0,0,0,0,5797.52,0.414249,0.41395,-0.149526,8,1.50896,10,-6.18962e-05,-3.82528,-0.446783,-0.132055,0.414016,
2,0,0,1,0,5798.32,0.410254,0.409946,-0.152226,8,1.50882,10,-6.24044e-05,-3.81751,-1.39172,-0.0423937,0.410013,
2,0,0,0,0,5799.12,0.406259,0.405977,-0.154781,8,1.50869,10,-6.28374e-05,-3.81028,-0.633032,-0.0932023,0.406045,
2,0,0,1,0,5799.92,0.402263,0.401944,-0.156241,8,1.50855,10,-6.27999e-05,-3.80621,-0.722159,-0.0816995,0.402013,
2,0,0,1,0,5800.72,0.398268,0.397974,-0.158935,8,1.50841,10,-6.3252e-05,-3.79878,-0.598766,-0.098536,0.398044,
2,0,0,1,0,5801.52,0.394274,0.394004,-0.160395,8,1.50827,10,-6.31962e-05,-3.79481,-0.63536,-0.0928607,0.394075,
2,0,0,1,0,5802.32,0.390278,0.389952,-0.160777,8,1.50812,10,-6.26953e-05,-3.79378,-1.94027,-0.0304081,0.390023,
2,0,0,0,0,5803.12,0.386283,0.385992,-0.163976,8,1.50798,10,-6.32936e-05,-3.78522,-0.591154,-0.0998049,0.386065,
2,0,0,1,0,5803.92,0.382287,0.382017,-0.165873,8,1.50783,10,-6.33663e-05,-3.78022,-0.989236,-0.059642,0.38209,
2,0,0,1,0,5804.72,0.378292,0.378,-0.168995,8,1.50768,10,-6.38802e-05,-3.77213,-0.750526,-0.0786115,0.378074,
2,0,0,1,0,5805.52,0.374297,0.374071,-0.170679,8,1.50753,10,-6.38458e-05,-3.76782,-0.418145,-0.141099,0.374146,
2,0,0,1,0,5806.31,0.370303,0.369998,-0.173609,8,1.50738,10,-6.4235e-05,-3.76043,-1.07454,-0.0549072,0.370074,
2,0,0,0,0,5807.11,0.366307,0.366014,-0.17531,8,1.50723,10,-6.4166e-05,-3.75619,-0.603337,-0.0977894,0.366091,
2,0,0,1,0,5807.91,0.362312,0.362086,-0.177439,8,1.50707,10,-6.42481e-05,-3.75095,-0.523793,-0.11264,0.362164,
2,0,0,1,0,5808.71,0.358316,0.357994,-0.179684,8,1.50691,10,-6.4326e-05,-3.74549,-1.70633,-0.0345771,0.358073,
2,0,0,1,0,5809.51,0.354321,0.353965,-0.181731,8,1.50675,10,-6.43264e-05,-3.74057,-0.791879,-0.0745063,0.354045,
2,0,0,1,0,5810.31,0.350327,0.35004,-0.183649,8,1.50659,10,-6.42844e-05,-3.73601,-0.534884,-0.110304,0.35012,
2,0,0,0,0,5811.11,0.346331,0.346029,-0.186541,8,1.50643,10,-6.45485e-05,-3.72923,-1.9161,-0.0307917,0.346111,
2,0,0,1,0,5811.91,0.342336,0.342041,-0.188132,8,1.50626,10,-6.43489e-05,-3.72554,-0.568176,-0.103841,0.342123,
2,0,0,0,0,5812.71,0.338341,0.338025,-0.191027,8,1.5061,10,-6.45719e-05,-3.71891,-0.555244,-0.10626,0.338109,
2,0,0,1,0,5813.51,0.334345,0.334065,-0.194352,8,1.50593,10,-6.49264e-05,-3.71141,-0.655499,-0.0900077,0.334151,
2,0,0,1,0,5814.3,0.33035,0.33002,-0.197003,8,1.50576,10,-6.50148e-05,-3.70553,-0.758959,-0.077738,0.330106,
2,0,0,1,0,5815.1,0.326355,0.326062,-0.199861,8,1.50558,10,-6.51669e-05,-3.69927,-0.870759,-0.067757,0.32615,
2,0,0,1,0,5815.9,0.32236,0.32205,-0.201719,8,1.50541,10,-6.49635e-05,-3.69525,-0.699564,-0.0843383,0.322139,
2,0,0,0,0,5816.7,0.318365,0.318046,-0.202523,8,1.50523,10,-6.44114e-05,-3.69353,-0.798277,-0.0739091,0.318135,
2,0,0,1,0,5817.5,0.31437,0.314094,-0.2064,8,1.50505,10,-6.48291e-05,-3.68529,-2.69967,-0.0218545,0.314184,
2,0,0,1,0,5818.3,0.310374,0.310032,-0.209834,8,1.50487,10,-6.50552e-05,-3.67812,-0.447188,-0.131935,0.310124,
2,0,0,1,0,5819.1,0.306379,0.306052,-0.211273,8,1.50469,10,-6.46604e-05,-3.67516,-0.980422,-0.0601782,0.306145,
2,0,0,1,0,5819.9,0.302385,0.30205,-0.215556,8,1.5045,10,-6.51088e-05,-3.66644,-0.540767,-0.109104,0.302145,
2,0,0,0,0,5820.7,0.298389,0.298135,-0.216599,8,1.50431,10,-6.45757e-05,-3.66434,-0.581941,-0.101385,0.29823,
2,0,0,1,0,5821.5,0.294394,0.29407,-0.220504,8,1.50413,10,-6.48435e-05,-3.65658,-1.02267,-0.0576923,0.294167,
2,0,0,1,0,5822.29,0.290398,0.290138,-0.221717,8,1.50393,10,-6.43284e-05,-3.6542,-4.92873,-0.0119706,0.290235,
2,0,0,1,0,5823.09,0.286403,0.28608,-0.224464,8,1.50374,10,-6.42146e-05,-3.64885,-0.466817,-0.126388,0.286179,
2,0,0,1,0,5823.89,0.282408,0.282126,-0.227939,8,1.50354,10,-6.43075e-05,-3.64218,-1.00776,-0.0585457,0.282226,
2,0,0,1,0,5824.69,0.278414,0.278131,-0.229778,8,1.50335,10,-6.39083e-05,-3.63869,-0.521603,-0.113113,0.278232,
2,0,0,1,0,5825.49,0.274418,0.274085,-0.233623,8,1.50315,10,-6.40325e-05,-3.63148,-1.20336,-0.0490294,0.274187,
2,0,0,0,0,5826.29,0.270423,0.270066,-0.23578,8,1.50294,10,-6.36761e-05,-3.62749,-0.879015,-0.0671206,0.270169,
2,0,0,1,0,5827.09,0.266427,0.266078,-0.237645,8,1.50274,10,-6.32321e-05,-3.62407,-0.660629,-0.0893088,0.266183,
2,0,0,1,0,5827.89,0.262432,0.262119,-0.239955,8,1.50253,10,-6.28967e-05,-3.61987,-1.09847,-0.0537109,0.262225,
2,0,0,1,0,5828.69,0.258437,0.258144,-0.244456,8,1.50233,10,-6.31047e-05,-3.6118,-0.6659,-0.0886019,0.258251,
2,0,0,1,0,5829.49,0.254442,0.254158,-0.244384,8,1.50212,10,-6.21123e-05,-3.61193,-1.11314,-0.0530033,0.254266,
2,0,0,0,0,5830.29,0.250447,0.250149,-0.248943,8,1.5019,10,-6.22727e-05,-3.6039,-1.16263,-0.0507469,0.250259,
2,0,0,1,0,5831.08,0.246452,0.246156,-0.251544,8,1.50169,10,-6.1919e-05,-3.59939,-0.64657,-0.0912507,0.246266,
2,0,0,1,0,5831.88,0.242456,0.24216,-0.252876,8,1.50147,10,-6.12364e-05,-3.59709,-1.04586,-0.0564129,0.242271,
2,0,0,1,0,5832.68,0.238461,0.238116,-0.254165,8,1.50125,10,-6.05208e-05,-3.59488,-1.68599,-0.0349942,0.238228,
2,0,0,1,0,5833.48,0.234467,0.234183,-0.257854,8,1.50103,10,-6.0385e-05,-3.58863,-0.576786,-0.102291,0.234296,
2,0,0,0,0,5834.28,0.230471,0.230157,-0.259702,8,1.50081,10,-5.97723e-05,-3.58552,-1.8361,-0.0321333,0.230271,
2,0,0,1,0,5835.08,0.226476,0.226161,-0.264739,8,1.50059,10,-5.98735e-05,-3.57718,-0.587196,-0.100477,0.226277,
2,0,0,0,0,5835.88,0.222481,0.222132,-0.265957,8,1.50036,10,-5.90776e-05,-3.57519,-1.17523,-0.0502027,0.222249,
2,0,0,1,0,5836.68,0.218485,0.218174,-0.270106,8,1.50013,10,-5.89302e-05,-3.56847,-1.24013,-0.0475758,0.218293,
2,0,0,1,0,5837.48,0.21449,0.214183,-0.273567,8,1.4999,10,-5.85935e-05,-3.56294,-0.611677,-0.0964561,0.214304,
2,0,0,1,0,5838.28,0.210496,0.210192,-0.275501,8,1.49967,10,-5.79081e-05,-3.55988,-0.631393,-0.0934442,0.210314,
2,0,0,1,0,5839.07,0.2065,0.206186,-0.280479,8,1.49943,10,-5.78308e-05,-3.5521,-1.0114,-0.0583348,0.206309,
2,0,0,0,0,5839.87,0.202505,0.202221,-0.283499,8,1.49919,10,-5.73294e-05,-3.54745,-0.448171,-0.131646,0.202346,
2,0,0,1,0,5840.67,0.198509,0.198243,-0.288707,8,1.49894,10,-5.72341e-05,-3.53954,-0.709806,-0.0831213,0.19837,
2,0,0,1,0,5841.47,0.194514,0.194159,-0.292926,8,1.4987,10,-5.68744e-05,-3.53324,-0.536526,-0.109967,0.194288,
2,0,0,1,0,5842.27,0.190519,0.190268,-0.297185,8,1.49845,10,-5.65449e-05,-3.52697,-0.452197,-0.130474,0.190399,
2,0,0,1,0,5843.07,0.186524,0.186211,-0.30539,8,1.49819,10,-5.6867e-05,-3.51514,-0.571599,-0.103219,0.186345,
2,0,0,0,0,5843.87,0.182529,0.182248,-0.31134,8,1.49793,10,-5.67411e-05,-3.50677,-0.31252,-0.188788,0.182385,
2,0,0,1,0,5844.67,0.178534,0.178251,-0.320099,8,1.49766,10,-5.7058e-05,-3.49472,-0.317464,-0.185848,0.178392,
2,0,0,1,0,5845.47,0.174538,0.174229,-0.330025,8,1.49738,10,-5.75e-05,-3.48145,-0.259075,-0.227733,0.174374,
2,0,0,1,0,5846.27,0.170543,0.170207,-0.342301,8,1.4971,10,-5.8262e-05,-3.46559,-0.208246,-0.283319,0.170358,
2,0,0,1,0,5847.06,0.166549,0.166264,-0.359749,8,1.4968,10,-5.98132e-05,-3.444,-0.194776,-0.302912,0.166422,
2,0,0,0,0,5847.86,0.162553,0.162259,-0.379253,8,1.49649,10,-6.15373e-05,-3.42107,-0.147839,-0.399083,0.162426,
2,0,0,1,0,5848.66,0.158558,0.158269,-0.403495,8,1.49617,10,-6.38608e-05,-3.39416,-0.128736,-0.458302,0.158447,
2,0,0,0,0,5849.46,0.154563,0.154242,-0.437734,8,1.49581,10,-6.75168e-05,-3.35879,-0.113023,-0.522019,0.154434,
2,0,0,1,0,5850.26,0.150567,0.150239,-0.48327,8,1.49543,10,-7.26062e-05,-3.31581,-0.0828946,-0.711748,0.150452,
2,0,0,1,0,5851.06,0.146572,0.146263,-0.54044,8,1.49501,10,-7.90466e-05,-3.26725,-0.0803866,-0.733953,0.146501,
2,0,0,1,0,5851.86,0.142578,0.142237,-0.60928,8,1.49453,10,-8.66623e-05,-3.21518,-0.0759979,-0.776337,0.142505,
2,0,0,1,0,5852.66,0.138582,0.138233,-0.677687,8,1.494,10,-9.36785e-05,-3.16897,-0.0916423,-0.643807,0.138531,
2,0,0,0,0,5853.46,0.134587,0.134267,-0.740972,8,1.49342,10,-9.94879e-05,-3.1302,-0.125796,-0.469015,0.134593,
2,0,0,1,0,5854.26,0.130591,0.130277,-0.788453,8,1.49279,10,-0.000102717,-3.10322,-0.188055,-0.313738,0.130624,
2,0,0,1,0,5855.06,0.126596,0.126302,-0.810834,8,1.49213,10,-0.00010241,-3.09107,-0.400934,-0.147156,0.126658,
2,0,0,1,0,5855.85,0.122602,0.122292,-0.823605,8,1.49146,10,-0.00010072,-3.08428,5.24732,0.0112438,0.122654,
2,0,0,1,0,5856.65,0.118607,0.118326,-0.818287,8,1.49079,10,-9.68247e-05,-3.08709,1.25443,0.0470334,0.118686,
2,0,0,0,0,5857.45,0.114611,0.114297,-0.808106,8,1.49012,10,-9.23642e-05,-3.09253,0.514471,0.114681,0.114653,
2,0,0,1,0,5858.25,0.110616,0.110312,-0.79368,8,1.48946,10,-8.75526e-05,-3.10035,0.483298,0.122078,0.110661,
2,0,0,1,0,5859.05,0.10662,0.106324,-0.776881,8,1.48882,10,-8.26007e-05,-3.10965,0.421268,0.140053,0.106665,
2,0,0,1,0,5859.85,0.102625,0.102334,-0.758398,8,1.48819,10,-7.76097e-05,-3.1201,0.353644,0.166834,0.102667,
2,0,0,1,0,5860.65,0.0986305,0.0983543,-0.739605,8,1.48758,10,-7.27433e-05,-3.131,0.390916,0.150928,0.0986797,
2,0,0,0,0,5861.45,0.0946351,0.0943138,-0.717542,8,1.48698,10,-6.76741e-05,-3.14415,0.367794,0.160416,0.0946296,
2,0,0,1,0,5862.25,0.0906399,0.090331,-0.703458,8,1.48639,10,-6.3544e-05,-3.15276,0.338918,0.174083,0.0906405,
2,0,0,0,0,5863.05,0.0866448,0.0863099,-0.688438,8,1.48582,10,-5.9419e-05,-3.16213,0.552598,0.106768,0.0866128,
2,0,0,1,0,5863.84,0.0826492,0.0823351,-0.673843,8,1.48526,10,-5.54809e-05,-3.17144,0.3997,0.147611,0.0826316,
2,0,0,1,0,5864.64,0.0786544,0.0783272,-0.663316,8,1.48471,10,-5.19556e-05,-3.17828,0.736454,0.0801136,0.0786191,
2,0,0,1,0,5865.44,0.0746596,0.0743309,-0.652363,8,1.48417,10,-4.84908e-05,-3.18551,0.608365,0.0969813,0.0746179,
2,0,0,1,0,5866.24,0.0706641,0.0703656,-0.642152,8,1.48364,10,-4.51854e-05,-3.19236,0.534281,0.110429,0.0706482,
2,0,0,0,0,5867.04,0.0666689,0.0663721,-0.632683,8,1.48311,10,-4.19925e-05,-3.19881,0.68245,0.0864533,0.0666505,
2,0,0,1,0,5867.84,0.0626737,0.062402,-0.620635,8,1.48259,10,-3.87288e-05,-3.20716,0.539609,0.109338,0.062675,
2,0,0,1,0,5868.64,0.0586783,0.0583744,-0.61173,8,1.48209,10,-3.57094e-05,-3.21344,0.390594,0.151052,0.0586436,
2,0,0,1,0,5869.44,0.0546835,0.0543875,-0.600525,8,1.48159,10,-3.26611e-05,-3.22147,0.619929,0.0951722,0.0546517,
2,0,0,1,0,5870.24,0.0506886,0.0503658,-0.589299,8,1.4811,10,-2.96805e-05,-3.22966,0.430188,0.137149,0.0506251,
2,0,0,0,0,5871.04,0.046693,0.0464026,-0.576492,8,1.48061,10,-2.67507e-05,-3.23921,0.415459,0.142012,0.0466562,
2,0,0,1,0,5871.84,0.0426979,0.0423762,-0.563063,8,1.48014,10,-2.38605e-05,-3.24944,0.47804,0.123421,0.0426239,
2,0,0,1,0,5872.63,0.0387022,0.0383823,-0.552615,8,1.47968,10,-2.12106e-05,-3.25758,0.38305,0.154027,0.0386255,
2,0,0,1,0,5873.43,0.0347074,0.0344326,-0.540992,8,1.47923,10,-1.86278e-05,-3.26681,0.477626,0.123528,0.0346707,
2,0,0,1,0,5874.23,0.0307126,0.0304195,-0.52631,8,1.47879,10,-1.60101e-05,-3.27876,0.526081,0.11215,0.030651,
2,0,0,0,0,5875.03,0.0267172,0.0264065,-0.520284,8,1.47835,10,-1.37389e-05,-3.28376,0.414385,0.14238,0.0266354,
2,0,0,1,0,5875.83,0.022722,0.0224119,-0.510349,8,1.47793,10,-1.14379e-05,-3.29213,0.693304,0.0850998,0.0226365,
2,0,0,0,0,5876.63,0.0187268,0.0184089,-0.505561,8,1.47751,10,-9.30681e-06,-3.29623,0.816687,0.0722431,0.0186313,
2,0,0,1,0,5877.43,0.0147313,0.0144352,-0.500768,8,1.47709,10,-7.22867e-06,-3.30036,1.42079,0.0415261,0.0146555,
2,0,0,1,0,5878.23,0.0107365,0.0104251,-0.496369,8,1.47667,10,-5.1747e-06,-3.3042,5.38036,0.0109658,0.0106435,
2,0,0,1,0,5879.03,0.00674163,0.00645622,-0.496151,8,1.47626,10,-3.20326e-06,-3.30439,-31.3073,-0.00188454,0.00667453,
2,0,0,1,0,5879.83,0.00274612,0.00242749,-0.498566,8,1.47585,10,-1.21026e-06,-3.30228,-2.34396,-0.0251711,0.00264686,
2,0,0,0,0,5880.32,0.000274105,-0.000118942,-0.497987,8,1.47559,10,5.92315e-08,-3.30278, , ,0.000100173,