File: Figure_codes/Fig_3-5/workspace_calculate_alpha_eff/20221101_1-115_003_TrumpetPlot_ParaChange_from10_every3_16_CV_C01_78.csv
mode,ox/red,error,control changes,counter inc.,time/s,control/V,Ewe/V,<I>/mA,cycle number,(Q-Qo)/C,I Range,P/W,log(|I|),Tafel slope mV/dec,alpha_eff,E-IR/V,
2,0,0,1,0,52453.5,2.44065e-05,-0.000325324,-0.0529637,79,0.0000000E+000,10,1.72303e-08,-4.27602, , ,-0.000302019,
2,1,0,1,0,52454.3,0.00379485,0.00346563,0.199466,79,0.000128329,10,6.91275e-07,-3.70013,0.0450472,1.30974,0.00337786,
2,1,0,0,0,52455.1,0.00779002,0.00747821,0.221518,79,0.000308315,10,1.65656e-06,-3.65459,0.0965664,0.610979,0.00738074,
2,1,0,1,0,52455.9,0.0117852,0.0114282,0.238534,79,0.000503823,10,2.72602e-06,-3.62245,0.149311,0.395148,0.0113233,
2,1,0,1,0,52456.7,0.0157806,0.0154284,0.253088,79,0.000710935,10,3.90474e-06,-3.59673,0.177812,0.331811,0.015317,
2,1,0,1,0,52457.5,0.0197754,0.0194513,0.265572,79,0.000928883,10,5.16573e-06,-3.57582,0.18131,0.32541,0.0193344,
2,1,0,1,0,52458.3,0.0237704,0.0234541,0.279719,79,0.00115716,10,6.56058e-06,-3.55328,0.204607,0.288358,0.0233311,
2,1,0,0,0,52459.1,0.0277659,0.0274584,0.293096,79,0.0013958,10,8.04796e-06,-3.53299,0.20755,0.284269,0.0273294,
2,1,0,1,0,52459.9,0.0317611,0.0314222,0.305431,79,0.00164525,10,9.59732e-06,-3.51509,0.20055,0.294191,0.0312878,
2,1,0,1,0,52460.7,0.0357567,0.0354128,0.319879,79,0.00190571,10,1.13278e-05,-3.49501,0.258723,0.228043,0.035272,
2,1,0,1,0,52461.5,0.0397516,0.0394391,0.332967,79,0.00217642,10,1.31319e-05,-3.4776,0.189236,0.31178,0.0392926,
2,1,0,1,0,52462.3,0.0437465,0.04341,0.344618,79,0.00245817,10,1.49599e-05,-3.46266,0.280584,0.210276,0.0432583,
2,1,0,1,0,52463.1,0.0477413,0.0474022,0.358682,79,0.00274946,10,1.70023e-05,-3.44529,0.252828,0.233361,0.0472443,
2,1,0,1,0,52463.9,0.0517369,0.0514172,0.369718,79,0.00305064,10,1.90098e-05,-3.43213,0.294224,0.200527,0.0512545,
2,1,0,0,0,52464.6,0.0557321,0.0553534,0.381798,79,0.00336164,10,2.11338e-05,-3.41817,0.355113,0.166144,0.0551854,
2,1,0,1,0,52465.4,0.0597277,0.0593813,0.391473,79,0.00368108,10,2.32462e-05,-3.4073,0.318882,0.185021,0.059209,
2,1,0,1,0,52466.2,0.0637226,0.0634029,0.400596,79,0.004009,10,2.53989e-05,-3.39729,0.370192,0.159377,0.0632267,
2,1,0,1,0,52467,0.0677174,0.0673855,0.410923,79,0.00434475,10,2.76903e-05,-3.38624,0.67874,0.0869258,0.0672047,
2,1,0,1,0,52467.8,0.0717128,0.0714377,0.419358,79,0.00468674,10,2.99579e-05,-3.37742,0.376883,0.156547,0.0712532,
2,1,0,0,0,52468.6,0.075708,0.0753347,0.424826,79,0.00503529,10,3.20041e-05,-3.37179,0.636107,0.0927517,0.0751478,
2,1,0,1,0,52469.4,0.0797031,0.0793313,0.433911,79,0.00538905,10,3.44228e-05,-3.3626,0.535787,0.110118,0.0791404,
2,1,0,1,0,52470.2,0.0836986,0.0833687,0.44031,79,0.00574864,10,3.67081e-05,-3.35624,0.437613,0.134822,0.083175,
2,1,0,1,0,52471,0.0876935,0.0873333,0.450495,79,0.0061154,10,3.93432e-05,-3.34631,0.411394,0.143415,0.087135,
2,1,0,1,0,52471.8,0.0916883,0.0913392,0.463323,79,0.00649058,10,4.23195e-05,-3.33412,0.284734,0.207211,0.0911353,
2,1,0,0,0,52472.6,0.0956838,0.0953689,0.475929,79,0.0068776,10,4.53889e-05,-3.32246,0.262512,0.224752,0.0951595,
2,1,0,1,0,52473.4,0.099679,0.0993592,0.497762,79,0.00727847,10,4.94572e-05,-3.30298,0.253687,0.23257,0.0991402,
2,1,0,0,0,52474.2,0.103674,0.103359,0.519069,79,0.00769515,10,5.36505e-05,-3.28478,0.198628,0.297038,0.103131,
2,1,0,1,0,52475,0.10767,0.107376,0.538533,79,0.00812904,10,5.78256e-05,-3.26879,0.25385,0.232421,0.107139,
2,1,0,1,0,52475.8,0.111664,0.11135,0.556869,79,0.00857809,10,6.20075e-05,-3.25425,0.326736,0.180574,0.111105,
2,1,0,1,0,52476.6,0.115659,0.115312,0.570846,79,0.00904,10,6.58251e-05,-3.24348,0.357219,0.165165,0.11506,
2,1,0,1,0,52477.4,0.119655,0.119321,0.58372,79,0.00951319,10,6.96503e-05,-3.2338,0.631697,0.0933992,0.119065,
2,1,0,0,0,52478.2,0.12365,0.123351,0.592597,79,0.00999402,10,7.30974e-05,-3.22724,0.659039,0.0895243,0.12309,
2,1,0,1,0,52479,0.127646,0.127305,0.598215,79,0.0104813,10,7.61555e-05,-3.22314,1.15217,0.0512075,0.127041,
2,1,0,1,0,52479.8,0.131641,0.131268,0.599827,79,0.0109722,10,7.87381e-05,-3.22197,-0.720015,-0.0819427,0.131004,
2,1,0,1,0,52480.6,0.135635,0.135274,0.588014,79,0.0114582,10,7.9543e-05,-3.23061,-0.298631,-0.197568,0.135015,
2,1,0,1,0,52481.4,0.139631,0.139306,0.556618,79,0.0119279,10,7.75402e-05,-3.25444,-0.132277,-0.446032,0.139061,
2,1,0,0,0,52482.2,0.143626,0.143289,0.511724,79,0.0123662,10,7.33242e-05,-3.29096,-0.0862642,-0.683946,0.143064,
2,1,0,1,0,52483,0.147621,0.147291,0.453138,79,0.0127625,10,6.6743e-05,-3.34377,-0.0774916,-0.761373,0.147091,
2,1,0,1,0,52483.8,0.151617,0.151314,0.404835,79,0.0131158,10,6.12574e-05,-3.39272,-0.0869473,-0.678572,0.151136,
2,1,0,1,0,52484.6,0.155612,0.155274,0.371176,79,0.0134346,10,5.76338e-05,-3.43042,-0.123934,-0.476059,0.15511,
2,1,0,1,0,52485.4,0.159606,0.159266,0.346467,79,0.0137306,10,5.51806e-05,-3.46034,-0.177529,-0.332339,0.159114,
2,1,0,0,0,52486.2,0.163602,0.163255,0.332283,79,0.0140123,10,5.42469e-05,-3.47849,-0.249364,-0.236602,0.163109,
2,1,0,1,0,52487,0.167597,0.167286,0.323418,79,0.0142841,10,5.41033e-05,-3.49024,-0.389069,-0.151644,0.167143,
2,1,0,0,0,52487.8,0.171592,0.171242,0.315123,79,0.0145495,10,5.39624e-05,-3.50152,-0.419758,-0.140557,0.171103,
2,1,0,1,0,52488.6,0.175588,0.175251,0.310077,79,0.0148095,10,5.43412e-05,-3.50853,-0.763129,-0.0773133,0.175114,
2,1,0,1,0,52489.4,0.179582,0.179219,0.305768,79,0.0150656,10,5.47995e-05,-3.51461,-0.927886,-0.0635854,0.179085,
2,1,0,1,0,52490.2,0.183577,0.183248,0.302638,79,0.015319,10,5.54577e-05,-3.51908,-0.684282,-0.0862218,0.183115,
2,1,0,1,0,52491,0.187573,0.187234,0.300043,79,0.01557,10,5.61782e-05,-3.52282,-2.23498,-0.0263984,0.187102,
2,1,0,0,0,52491.8,0.191568,0.191235,0.298591,79,0.0158193,10,5.71011e-05,-3.52492,-1.4895,-0.0396107,0.191104,
2,1,0,1,0,52492.6,0.195563,0.195204,0.297363,79,0.0160673,10,5.80465e-05,-3.52671,-0.757176,-0.0779211,0.195073,
2,1,0,1,0,52493.4,0.199559,0.199257,0.295715,79,0.0163136,10,5.89233e-05,-3.52913,-7.4506,-0.00791882,0.199127,
2,1,0,1,0,52494.2,0.203553,0.203228,0.293852,79,0.016559,10,5.97189e-05,-3.53187,-5.08419,-0.0116046,0.203099,
2,1,0,1,0,52495,0.207548,0.207304,0.293376,79,0.0168035,10,6.08181e-05,-3.53257,-1.97752,-0.0298353,0.207175,
2,1,0,0,0,52495.8,0.211544,0.21119,0.291477,79,0.0170468,10,6.15569e-05,-3.5354,-4.6432,-0.0127067,0.211061,
2,1,0,1,0,52496.6,0.215539,0.215229,0.290792,79,0.0172894,10,6.25869e-05,-3.53642,-1.37017,-0.0430603,0.215101,
2,1,0,1,0,52497.4,0.219535,0.219228,0.290406,79,0.017531,10,6.36652e-05,-3.53699,-6.97381,-0.00846023,0.2191,
2,1,0,1,0,52498.2,0.223529,0.223224,0.288415,79,0.017772,10,6.43809e-05,-3.53998,-2.46381,-0.0239466,0.223097,
2,1,0,1,0,52499,0.227524,0.227207,0.287087,79,0.0180123,10,6.52282e-05,-3.54199,-1.44984,-0.0406942,0.227081,
2,1,0,0,0,52499.8,0.23152,0.231195,0.286776,79,0.0182516,10,6.63013e-05,-3.54246,8.64137,0.00682762,0.231069,
2,1,0,1,0,52500.6,0.235515,0.235188,0.284919,79,0.0184903,10,6.70095e-05,-3.54528,-1.0682,-0.0552329,0.235062,
2,1,0,0,0,52501.4,0.23951,0.23921,0.285224,79,0.018728,10,6.82284e-05,-3.54481,6.17739,0.00955096,0.239084,
2,1,0,1,0,52502.2,0.243506,0.243173,0.283866,79,0.0189652,10,6.90286e-05,-3.54689,-7.02448,-0.00839919,0.243048,
2,1,0,1,0,52503,0.2475,0.247164,0.283585,79,0.019202,10,7.0092e-05,-3.54732,-4.30809,-0.0136952,0.247039,
2,1,0,1,0,52503.8,0.251495,0.251183,0.283501,79,0.0194378,10,7.12105e-05,-3.54745,-3.52568,-0.0167344,0.251058,
2,1,0,1,0,52504.6,0.255491,0.255145,0.281284,79,0.0196731,10,7.17682e-05,-3.55085,-4.3861,-0.0134516,0.255021,
2,1,0,0,0,52505.4,0.259486,0.259174,0.281727,79,0.0199081,10,7.30165e-05,-3.55017,-1.27081,-0.0464272,0.25905,
2,1,0,1,0,52506.2,0.263481,0.263197,0.279772,79,0.0201422,10,7.36353e-05,-3.5532,3.58522,0.0164565,0.263074,
2,1,0,1,0,52507,0.267477,0.267173,0.278523,79,0.0203759,10,7.44139e-05,-3.55514,-1.34629,-0.0438241,0.267051,
2,1,0,1,0,52507.8,0.271471,0.271143,0.279001,79,0.0206087,10,7.5649e-05,-3.55439,-5.68205,-0.0103836,0.27102,
2,1,0,1,0,52508.6,0.275466,0.27514,0.2784,79,0.0208407,10,7.65991e-05,-3.55533,-10.9858,-0.00537057,0.275018,
2,1,0,0,0,52509.4,0.279462,0.279153,0.276969,79,0.0210721,10,7.73168e-05,-3.55757,-1.80389,-0.0327071,0.279031,
2,1,0,1,0,52510.2,0.283457,0.283146,0.276988,79,0.0213027,10,7.8428e-05,-3.55754,-2.48927,-0.0237018,0.283024,
2,1,0,0,0,52511,0.287452,0.287131,0.275319,79,0.0215325,10,7.90526e-05,-3.56016,-2.29891,-0.0256643,0.28701,
2,1,0,1,0,52511.8,0.291448,0.291124,0.275038,79,0.0217616,10,8.00702e-05,-3.56061,-1.05055,-0.0561611,0.291003,
2,1,0,1,0,52512.6,0.295442,0.29509,0.274082,79,0.0219899,10,8.08788e-05,-3.56212,1.35929,0.0434049,0.294969,
2,1,0,1,0,52513.4,0.299437,0.299147,0.272031,79,0.0222181,10,8.13773e-05,-3.56538,-2.41442,-0.0244365,0.299027,
2,1,0,1,0,52514.2,0.303433,0.30312,0.272153,79,0.0224453,10,8.24949e-05,-3.56519,-2.07053,-0.0284951,0.303,
2,1,0,0,0,52515,0.307428,0.307089,0.272352,79,0.0226718,10,8.36362e-05,-3.56487,-3.49949,-0.0168596,0.306969,
2,1,0,1,0,52515.8,0.311424,0.311097,0.271173,79,0.0228978,10,8.43608e-05,-3.56675,-3.23977,-0.0182112,0.310977,
2,1,0,1,0,52516.6,0.315418,0.315147,0.270909,79,0.0231229,10,8.53762e-05,-3.56718,-13.3003,-0.00443598,0.315028,
2,1,0,1,0,52517.4,0.319413,0.319099,0.269385,79,0.0233477,10,8.59604e-05,-3.56963,-1.2223,-0.0482696,0.31898,
2,1,0,1,0,52518.2,0.323409,0.323089,0.268271,79,0.0235718,10,8.66753e-05,-3.57143,-2.30214,-0.0256284,0.322971,
2,1,0,0,0,52519,0.327404,0.327102,0.268064,79,0.0237951,10,8.76843e-05,-3.57176,17.8607,0.00330334,0.326984,
2,1,0,1,0,52519.8,0.331399,0.331078,0.266881,79,0.0240176,10,8.83585e-05,-3.57368,-4.45894,-0.0132318,0.330961,
2,1,0,1,0,52520.6,0.335395,0.335085,0.267145,79,0.0242397,10,8.95163e-05,-3.57325,-3.04401,-0.0193823,0.334967,
2,1,0,1,0,52521.4,0.339389,0.339135,0.265635,79,0.0244611,10,9.00861e-05,-3.57571,-4.31657,-0.0136683,0.339018,
2,1,0,1,0,52522.2,0.343384,0.343076,0.264777,79,0.0246821,10,9.08385e-05,-3.57712,-1.86565,-0.0316243,0.342959,
2,1,0,0,0,52523,0.34738,0.347099,0.265451,79,0.0249024,10,9.21378e-05,-3.57602,3.24174,0.0182001,0.346982,
2,1,0,1,0,52523.8,0.351375,0.351041,0.264444,79,0.0251224,10,9.28308e-05,-3.57767,-3.93173,-0.0150061,0.350925,
2,1,0,0,0,52524.6,0.35537,0.355071,0.263946,79,0.0253423,10,9.37197e-05,-3.57848,-2.67831,-0.0220288,0.354955,
2,1,0,1,0,52525.4,0.359366,0.358999,0.263708,79,0.0255617,10,9.4671e-05,-3.57888,20.0345,0.00294492,0.358883,
2,1,0,1,0,52526.2,0.36336,0.363061,0.263329,79,0.0257808,10,9.56045e-05,-3.5795,-4.89452,-0.0120543,0.362945,
2,1,0,1,0,52527,0.367355,0.367048,0.262468,79,0.0259993,10,9.63384e-05,-3.58092,-3.05115,-0.019337,0.366932,
2,1,0,1,0,52527.8,0.371351,0.371014,0.262247,79,0.0262172,10,9.72975e-05,-3.58129,2.63114,0.0224237,0.370899,
2,1,0,0,0,52528.6,0.375346,0.375047,0.262146,79,0.0264352,10,9.8317e-05,-3.58146,-1.30605,-0.0451743,0.374932,
2,1,0,1,0,52529.4,0.379342,0.379028,0.26129,79,0.0266523,10,9.90362e-05,-3.58288,20.5932,0.00286502,0.378913,
2,1,0,1,0,52530.2,0.383336,0.383056,0.261029,79,0.026869,10,9.99887e-05,-3.58331,-18.3453,-0.00321608,0.382941,
2,1,0,1,0,52531,0.387331,0.387009,0.261003,79,0.0270856,10,0.000101011,-3.58335,-0.988851,-0.0596652,0.386894,
2,1,0,1,0,52531.8,0.391327,0.391009,0.259662,79,0.0273018,10,0.00010153,-3.58559,1.56375,0.0377298,0.390895,
2,1,0,0,0,52532.6,0.395322,0.395039,0.259229,79,0.0275177,10,0.000102406,-3.58632,-1.45011,-0.0406865,0.394925,
2,1,0,1,0,52533.4,0.399317,0.398982,0.259273,79,0.0277331,10,0.000103446,-3.58624,2.46003,0.0239834,0.398868,
2,1,0,1,0,52534.2,0.403313,0.403027,0.258941,79,0.0279481,10,0.00010436,-3.5868,-2.57883,-0.0228786,0.402913,
2,1,0,1,0,52535,0.407307,0.406962,0.25883,79,0.0281627,10,0.000105334,-3.58698,-2.96979,-0.0198668,0.406848,
2,1,0,1,0,52535.8,0.411302,0.411006,0.258659,79,0.0283771,10,0.00010631,-3.58727,97.8185,0.000603158,0.410892,
2,1,0,0,0,52536.6,0.415298,0.414971,0.25741,79,0.0285913,10,0.000106818,-3.58938,-2.11132,-0.0279446,0.414858,
2,1,0,1,0,52537.4,0.419293,0.419001,0.257256,79,0.0288049,10,0.000107791,-3.58963,-3.18975,-0.0184967,0.418888,
2,1,0,0,0,52538.2,0.423288,0.422972,0.257022,79,0.0290181,10,0.000108713,-3.59003,1.31599,0.0448331,0.422859,
2,1,0,1,0,52539,0.427283,0.42699,0.256425,79,0.0292315,10,0.000109491,-3.59104,-1.43151,-0.0412151,0.426877,
2,1,0,1,0,52539.8,0.431278,0.430985,0.256459,79,0.0294443,10,0.00011053,-3.59098,7.19283,0.00820261,0.430872,
2,1,0,1,0,52540.6,0.435273,0.434944,0.256123,79,0.0296567,10,0.000111399,-3.59155,-4.43005,-0.0133181,0.434831,
2,1,0,1,0,52541.4,0.439269,0.438983,0.256718,79,0.0298692,10,0.000112695,-3.59054,4.90343,0.0120324,0.43887,
2,1,0,0,0,52542.2,0.443264,0.442931,0.256246,79,0.0300814,10,0.000113499,-3.59134,53.0714,0.00111171,0.442818,
2,1,0,1,0,52543,0.447259,0.446947,0.256851,79,0.0302935,10,0.000114799,-3.59032,-24.7451,-0.00238432,0.446834,
2,1,0,1,0,52543.8,0.451254,0.450955,0.256665,79,0.030506,10,0.000115745,-3.59063,-2.00445,-0.0294345,0.450842,
2,1,0,1,0,52544.6,0.455249,0.454919,0.256612,79,0.0307181,10,0.000116738,-3.59072,2.99047,0.0197294,0.454806,
2,1,0,1,0,52545.4,0.459244,0.458947,0.255858,79,0.0309301,10,0.000117425,-3.592,5.99252,0.00984561,0.458834,
2,1,0,0,0,52546.2,0.46324,0.462927,0.256304,79,0.0311422,10,0.00011865,-3.59124,-9.93457,-0.00593886,0.462814,
2,1,0,1,0,52547,0.467235,0.466943,0.256922,79,0.0313544,10,0.000119968,-3.5902,6.22368,0.00947992,0.46683,
2,1,0,1,0,52547.7,0.471231,0.470879,0.256761,79,0.0315668,10,0.000120903,-3.59047,-27.4761,-0.00214732,0.470766,
2,1,0,1,0,52548.5,0.475225,0.474899,0.257761,79,0.0317791,10,0.000122411,-3.58878,5.31297,0.0111049,0.474786,
2,1,0,1,0,52549.3,0.47922,0.478934,0.256945,79,0.0319916,10,0.00012306,-3.59016,-26.2438,-0.00224815,0.478821,
2,1,0,0,0,52550.1,0.483216,0.482932,0.258038,79,0.0322042,10,0.000124615,-3.58832,13.4827,0.00437599,0.482818,
2,1,0,1,0,52550.9,0.487211,0.486926,0.258048,79,0.0324171,10,0.000125651,-3.5883,2.64636,0.0222948,0.486813,
2,1,0,0,0,52551.7,0.491206,0.490884,0.258467,79,0.0326305,10,0.000126877,-3.5876,2.37342,0.0248586,0.49077,
2,1,0,1,0,52552.5,0.495201,0.49494,0.259592,79,0.0328442,10,0.000128482,-3.58571,14.535,0.00405918,0.494826,
2,1,0,1,0,52553.3,0.499196,0.498895,0.260258,79,0.0330581,10,0.000129842,-3.5846,1.76925,0.0333475,0.498781,
2,1,0,1,0,52554.1,0.503191,0.502881,0.260257,79,0.0332729,10,0.000130878,-3.5846,13.7387,0.00429444,0.502766,
2,1,0,1,0,52554.9,0.507187,0.506888,0.26079,79,0.033488,10,0.000132191,-3.58371,3.71491,0.015882,0.506774,
2,1,0,0,0,52555.7,0.511182,0.510868,0.262052,79,0.0337036,10,0.000133874,-3.58161,2.80169,0.0210587,0.510753,
2,1,0,1,0,52556.5,0.515177,0.514896,0.263402,79,0.0339201,10,0.000135625,-3.57938,3.92667,0.0150255,0.514781,
2,1,0,1,0,52557.3,0.519173,0.518854,0.264073,79,0.0341372,10,0.000137016,-3.57828,1.3298,0.0443675,0.518738,
2,1,0,1,0,52558.1,0.523167,0.522859,0.264458,79,0.0343553,10,0.000138274,-3.57764,1.87164,0.0315232,0.522742,
2,1,0,1,0,52558.9,0.527162,0.526857,0.266729,79,0.0345745,10,0.000140528,-3.57393,1.8615,0.0316949,0.52674,
2,1,0,0,0,52559.7,0.531158,0.530875,0.267941,79,0.0347945,10,0.000142243,-3.57196,1.96934,0.0299592,0.530757,
2,1,0,1,0,52560.5,0.535153,0.534828,0.269903,79,0.0350156,10,0.000144352,-3.56879,3.38257,0.0174424,0.534709,
2,1,0,0,0,52561.3,0.539148,0.538823,0.270911,79,0.0352376,10,0.000145973,-3.56717,1.17049,0.0504061,0.538704,
2,1,0,1,0,52562.1,0.543143,0.542781,0.272489,79,0.035461,10,0.000147902,-3.56465,1.18807,0.0496603,0.542661,
2,1,0,1,0,52562.9,0.547138,0.546857,0.273531,79,0.0356858,10,0.000149583,-3.56299,20.7747,0.00283999,0.546737,
2,1,0,1,0,52563.7,0.551133,0.550779,0.276093,79,0.0359117,10,0.000152066,-3.55895,0.762757,0.077351,0.550658,
2,1,0,1,0,52564.5,0.555129,0.554818,0.277885,79,0.0361394,10,0.000154175,-3.55614,1.05148,0.0561116,0.554695,
2,1,0,0,0,52565.3,0.559124,0.558819,0.280148,79,0.0363685,10,0.000156552,-3.55261,1.44741,0.0407625,0.558695,
2,1,0,1,0,52566.1,0.56312,0.56279,0.283055,79,0.0365996,10,0.000159301,-3.54813,0.826712,0.071367,0.562666,
2,1,0,1,0,52566.9,0.567114,0.566797,0.285286,79,0.036833,10,0.000161699,-3.54472,1.27796,0.0461673,0.566671,
2,1,0,1,0,52567.7,0.571109,0.570798,0.289425,79,0.0370682,10,0.000165203,-3.53846,0.765292,0.0770948,0.570671,
2,1,0,1,0,52568.5,0.575105,0.574799,0.29168,79,0.0373061,10,0.000167657,-3.53509,0.630387,0.0935933,0.57467,
2,1,0,0,0,52569.3,0.5791,0.578787,0.296015,79,0.0375471,10,0.000171329,-3.52869,1.04141,0.0566538,0.578657,
2,1,0,1,0,52570.1,0.583095,0.58283,0.299993,79,0.0377909,10,0.000174845,-3.52289,0.501298,0.117694,0.582698,
2,1,0,1,0,52570.9,0.58709,0.586781,0.304198,79,0.0380383,10,0.000178497,-3.51684,0.633572,0.0931228,0.586647,
2,1,0,1,0,52571.7,0.591085,0.590825,0.309771,79,0.0382894,10,0.00018302,-3.50896,0.527777,0.11179,0.590688,
2,1,0,1,0,52572.5,0.59508,0.594803,0.315823,79,0.0385449,10,0.000187852,-3.50056,0.419123,0.14077,0.594664,
2,1,0,0,0,52573.3,0.599076,0.598748,0.321569,79,0.0388054,10,0.000192539,-3.49273,0.458804,0.128595,0.598607,
2,1,0,1,0,52574.1,0.603071,0.602787,0.32891,79,0.0390712,10,0.000198263,-3.48292,0.377489,0.156296,0.602642,
2,1,0,0,0,52574.9,0.607066,0.606775,0.337335,79,0.0393432,10,0.000204686,-3.47194,0.369438,0.159702,0.606627,
2,1,0,1,0,52575.7,0.611061,0.610762,0.34639,79,0.0396221,10,0.000211562,-3.46043,0.346984,0.170037,0.610609,
2,1,0,1,0,52576.5,0.615056,0.614764,0.357137,79,0.0399089,10,0.000219555,-3.44717,0.2559,0.230559,0.614607,
2,1,0,1,0,52577.3,0.619051,0.618736,0.369646,79,0.0402055,10,0.000228713,-3.43221,0.259068,0.22774,0.618574,
2,1,0,1,0,52578.1,0.623047,0.622754,0.384878,79,0.0405127,10,0.000239684,-3.41468,0.228106,0.258651,0.622584,
2,1,0,0,0,52578.9,0.627042,0.626778,0.401134,79,0.0408323,10,0.000251422,-3.39671,0.206192,0.286142,0.626601,
2,1,0,1,0,52579.7,0.631037,0.630764,0.419974,79,0.0411663,10,0.000264904,-3.37678,0.190828,0.30918,0.63058,
2,1,0,1,0,52580.5,0.635032,0.634732,0.442531,79,0.0415163,10,0.000280888,-3.35406,0.167863,0.351477,0.634537,
2,1,0,1,0,52581.3,0.639027,0.638764,0.467229,79,0.0418854,10,0.000298449,-3.33047,0.158446,0.372367,0.638559,
2,1,0,1,0,52582.1,0.643022,0.642711,0.497674,79,0.0422767,10,0.000319861,-3.30305,0.145664,0.405043,0.642492,
2,1,0,0,0,52582.9,0.647018,0.646723,0.532537,79,0.0426938,10,0.000344404,-3.27365,0.129392,0.455977,0.646489,
2,1,0,1,0,52583.7,0.651013,0.650773,0.571372,79,0.0431405,10,0.000371833,-3.24308,0.123936,0.476054,0.650521,
2,1,0,1,0,52584.5,0.655008,0.654696,0.61896,79,0.0436215,10,0.00040523,-3.20834,0.107042,0.551183,0.654423,
2,1,0,1,0,52585.3,0.659003,0.658704,0.67399,79,0.0441435,10,0.000443959,-3.17135,0.107334,0.549689,0.658407,
2,1,0,1,0,52586.1,0.662998,0.662733,0.73654,79,0.0447124,10,0.000488129,-3.1328,0.0972476,0.606699,0.662409,
2,1,0,0,0,52586.9,0.666994,0.666701,0.810302,79,0.0453358,10,0.000540229,-3.09135,0.0962793,0.612801,0.666344,
2,1,0,1,0,52587.7,0.670989,0.670719,0.892976,79,0.0460215,10,0.000598936,-3.04916,0.0892473,0.661084,0.670326,
2,1,0,0,0,52588.5,0.674984,0.674665,0.98854,79,0.0467786,10,0.000666933,-3.00501,0.0900571,0.65514,0.67423,
2,1,0,1,0,52589.3,0.67898,0.678665,1.09511,79,0.0476164,10,0.000743213,-2.96054,0.0871542,0.676961,0.678183,
2,1,0,1,0,52590.1,0.682974,0.682719,1.2161,79,0.0485455,10,0.000830254,-2.91503,0.085244,0.692131,0.682184,
2,1,0,1,0,52590.9,0.686969,0.686717,1.35371,79,0.0495777,10,0.000929613,-2.86848,0.0855852,0.689372,0.686122,
2,1,0,1,0,52591.7,0.690965,0.690667,1.50612,79,0.0507252,10,0.00104023,-2.82214,0.0863221,0.683487,0.690005,
2,1,0,0,0,52592.5,0.69496,0.694707,1.67299,79,0.0519998,10,0.00116224,-2.77651,0.0845883,0.697496,0.693971,
2,1,0,1,0,52593.3,0.698955,0.698695,1.85816,79,0.053415,10,0.00129829,-2.73092,0.0864897,0.682163,0.697877,
2,1,0,1,0,52594.1,0.70295,0.702633,2.05795,79,0.054985,10,0.00144598,-2.68657,0.088862,0.663951,0.701728,
2,1,0,1,0,52594.9,0.706945,0.706662,2.278,79,0.0567222,10,0.00160978,-2.64245,0.0901539,0.654436,0.705659,
2,1,0,1,0,52595.7,0.71094,0.710677,2.51267,79,0.058641,10,0.00178569,-2.59986,0.0928861,0.635187,0.709571,
2,1,0,0,0,52596.5,0.714936,0.714691,2.76661,79,0.060755,10,0.00197727,-2.55805,0.0935503,0.630676,0.713474,
2,1,0,1,0,52597.3,0.718931,0.718677,3.03541,79,0.063078,10,0.00218148,-2.51778,0.0968204,0.609376,0.717341,
2,1,0,1,0,52598.1,0.722927,0.722676,3.32463,79,0.0656244,10,0.00240263,-2.47826,0.0982951,0.600234,0.721214,
2,1,0,1,0,52598.9,0.726921,0.726626,3.63102,79,0.0684083,10,0.00263839,-2.43997,0.104069,0.566929,0.725028,
2,1,0,1,0,52599.7,0.730916,0.730646,3.95471,79,0.0714439,10,0.0028895,-2.40288,0.104197,0.566235,0.728906,
2,1,0,1,0,52600.5,0.734911,0.73466,4.29747,79,0.0747463,10,0.00315718,-2.36679,0.108748,0.54254,0.732769,
2,1,0,1,0,52601.3,0.738907,0.738627,4.65979,79,0.0783303,10,0.00344185,-2.33163,0.109662,0.538015,0.736577,
2,1,0,0,0,52602.1,0.742902,0.742604,5.04282,79,0.0822116,10,0.00374481,-2.29733,0.112886,0.522652,0.740385,
2,1,0,1,0,52602.9,0.746897,0.746607,5.44549,79,0.0864078,10,0.00406564,-2.26396,0.11694,0.50453,0.744211,
2,1,0,1,0,52603.7,0.750892,0.750613,5.86907,79,0.0909327,10,0.0044054,-2.23143,0.116552,0.506214,0.748031,
2,1,0,1,0,52604.5,0.754887,0.75459,6.31424,79,0.0958047,10,0.00476466,-2.19968,0.119999,0.491671,0.751812,
2,1,0,1,0,52605.3,0.758883,0.758617,6.78241,79,0.101042,10,0.00514526,-2.16862,0.124398,0.474283,0.755633,
2,1,0,0,0,52606.1,0.762878,0.76255,7.27529,79,0.106663,10,0.00554777,-2.13815,0.126523,0.466317,0.759349,
2,1,0,1,0,52606.9,0.766873,0.766618,7.79262,79,0.112687,10,0.00597396,-2.10832,0.128354,0.459666,0.763189,
2,1,0,1,0,52607.7,0.770868,0.77062,8.3386,79,0.119138,10,0.00642589,-2.07891,0.127872,0.461398,0.766951,
2,1,0,1,0,52608.5,0.774863,0.774621,8.90947,79,0.126033,10,0.00690146,-2.05015,0.128624,0.458702,0.770701,
2,1,0,1,0,52609.3,0.778858,0.778575,9.51358,79,0.133398,10,0.00740703,-2.02166,0.133033,0.4435,0.774389,
2,1,0,0,0,52610.1,0.782854,0.782568,10.1527,79,0.141259,10,0.00794519,-1.99342,0.131386,0.44906,0.778101,
2,1,0,1,0,52610.9,0.786849,0.78656,10.829,79,0.149646,10,0.00851767,-1.96541,0.132614,0.4449,0.781795,
2,1,0,0,0,52611.7,0.790844,0.790577,11.558,79,0.158591,10,0.00913751,-1.93712,0.130462,0.452241,0.785491,
2,1,0,1,0,52612.5,0.794839,0.794567,12.316,79,0.16813,10,0.00978591,-1.90953,0.130499,0.45211,0.789148,
2,1,0,1,0,52613.3,0.798834,0.798561,13.1438,79,0.178306,10,0.0104961,-1.88128,0.129199,0.456661,0.792778,
2,1,0,1,0,52614.1,0.802829,0.802534,14.0223,79,0.189162,10,0.0112534,-1.85318,0.127762,0.461797,0.796365,
2,1,0,1,0,52614.9,0.806825,0.806505,14.9401,79,0.200741,10,0.0120493,-1.82565,0.138484,0.426042,0.799931,
2,1,0,0,0,52615.7,0.81082,0.810571,15.8624,79,0.213036,10,0.0128576,-1.79963,0.130131,0.453389,0.803591,
2,1,0,1,0,52616.5,0.814815,0.814547,16.9037,79,0.226129,10,0.0137688,-1.77202,0.129174,0.456747,0.807109,
2,1,0,1,0,52617.3,0.81881,0.818552,17.9654,79,0.240066,10,0.0147056,-1.74556,0.134959,0.43717,0.810648,
2,1,0,1,0,52618.1,0.822805,0.822538,19.0708,79,0.254868,10,0.0156865,-1.71963,0.136275,0.432949,0.814147,
2,1,0,1,0,52618.9,0.826801,0.82655,20.2152,79,0.270573,10,0.0167088,-1.69432,0.141096,0.418154,0.817655,
2,1,0,0,0,52619.7,0.830796,0.830522,21.3777,79,0.287194,10,0.0177546,-1.67004,0.14619,0.403585,0.821116,
2,1,0,1,0,52620.5,0.834791,0.834569,22.5537,79,0.304753,10,0.0188226,-1.64678,0.15027,0.392625,0.824645,
2,1,0,1,0,52621.3,0.838786,0.838529,23.8074,79,0.323274,10,0.0199632,-1.62329,0.149859,0.393702,0.828054,
2,1,0,1,0,52622.1,0.842781,0.84258,25.0592,79,0.342801,10,0.0211144,-1.60103,0.156433,0.377159,0.831554,
2,1,0,1,0,52622.9,0.846776,0.84651,26.3353,79,0.363343,10,0.0222931,-1.57946,0.160509,0.36758,0.834922,
2,1,0,1,0,52623.6,0.849723,0.849475,27.2045,79,0.382163,10,0.0231095,-1.56536,0.048049,1.22791,0.837505,
2,1,0,0,0,52624.4,0.845728,0.845468,25.2509,79,0.403055,10,0.0213488,-1.59772,0.112948,0.522365,0.834357,
2,1,0,1,0,52625.2,0.841732,0.84147,23.6594,79,0.422578,10,0.0199087,-1.626,0.117693,0.501305,0.83106,
2,1,0,1,0,52626,0.837737,0.837507,22.1723,79,0.440873,10,0.0185695,-1.65419,0.11965,0.493104,0.827751,
2,1,0,1,0,52626.8,0.833742,0.833516,20.8035,79,0.458029,10,0.0173401,-1.68186,0.123649,0.477157,0.824362,
2,1,0,1,0,52627.6,0.829747,0.829495,19.5102,79,0.474124,10,0.0161836,-1.70974,0.120407,0.490004,0.820911,
2,1,0,0,0,52628.4,0.825752,0.825481,18.2699,79,0.489206,10,0.0150814,-1.73826,0.123663,0.477104,0.817442,
2,1,0,1,0,52629.2,0.821757,0.821494,17.1252,79,0.50333,10,0.0140682,-1.76636,0.121008,0.487572,0.813959,
2,1,0,1,0,52630,0.817761,0.817443,16.0206,79,0.516556,10,0.013096,-1.79532,0.126267,0.467263,0.810394,
2,1,0,1,0,52630.7,0.813766,0.813456,15.0002,79,0.528938,10,0.012202,-1.8239,0.122193,0.482844,0.806856,
2,1,0,1,0,52631.5,0.809771,0.809527,14.0363,79,0.54053,10,0.0113628,-1.85275,0.125508,0.470089,0.803351,
2,1,0,1,0,52632.3,0.805776,0.805519,13.1245,79,0.551375,10,0.0105721,-1.88192,0.120495,0.489648,0.799744,
2,1,0,1,0,52633.1,0.801781,0.801521,12.2382,79,0.561499,10,0.00980918,-1.91228,0.117779,0.500937,0.796136,
2,1,0,0,0,52633.9,0.797786,0.797509,11.3937,79,0.570929,10,0.00908656,-1.94334,0.116701,0.505566,0.792495,
2,1,0,1,0,52634.7,0.79379,0.793554,10.6145,79,0.579712,10,0.00842321,-1.9741,0.118915,0.496151,0.788884,
2,1,0,1,0,52635.5,0.789795,0.789521,9.88146,79,0.58789,10,0.00780162,-2.00518,0.118735,0.496906,0.785174,
2,1,0,1,0,52636.3,0.7858,0.785502,9.18911,79,0.5955,10,0.00721806,-2.03673,0.115274,0.511825,0.781459,
2,1,0,1,0,52637.1,0.781805,0.781516,8.53474,79,0.602573,10,0.00667003,-2.06881,0.114955,0.513246,0.77776,
2,1,0,0,0,52637.9,0.77781,0.777554,7.9233,79,0.60914,10,0.00616079,-2.10109,0.116908,0.504671,0.774068,
2,1,0,1,0,52638.7,0.773814,0.77353,7.35918,79,0.615236,10,0.00569255,-2.13317,0.114304,0.516167,0.770292,
2,1,0,1,0,52639.5,0.769819,0.769555,6.81722,79,0.620892,10,0.00524622,-2.16639,0.112303,0.525365,0.766555,
2,1,0,1,0,52640.3,0.765824,0.765535,6.30944,79,0.626126,10,0.0048301,-2.20001,0.110531,0.533787,0.762759,
2,1,0,1,0,52641.1,0.761829,0.761506,5.82962,79,0.630967,10,0.00443929,-2.23436,0.109356,0.53952,0.758941,
2,1,0,0,0,52641.9,0.757834,0.757532,5.38084,79,0.635437,10,0.00407616,-2.26915,0.109311,0.539742,0.755165,
2,1,0,1,0,52642.7,0.753839,0.753572,4.95665,79,0.639559,10,0.00373519,-2.30481,0.106038,0.556405,0.751391,
2,1,0,0,0,52643.5,0.749844,0.749528,4.55642,79,0.643352,10,0.00341516,-2.34138,0.103131,0.572088,0.747524,
2,1,0,1,0,52644.3,0.745848,0.745602,4.18252,79,0.646836,10,0.0031185,-2.37856,0.1028,0.573932,0.743762,
2,1,0,1,0,52645.1,0.741853,0.741538,3.83038,79,0.65003,10,0.00284037,-2.41676,0.0964966,0.61142,0.739853,
2,1,0,1,0,52645.9,0.737858,0.737598,3.49936,79,0.65295,10,0.00258112,-2.45601,0.0991828,0.594861,0.736059,
2,1,0,1,0,52646.7,0.733863,0.733608,3.18856,79,0.655614,10,0.00233915,-2.49641,0.0953973,0.618466,0.732205,
2,1,0,0,0,52647.5,0.729868,0.729599,2.8982,79,0.658038,10,0.00211452,-2.53787,0.0908147,0.649674,0.728324,
2,1,0,1,0,52648.3,0.725872,0.725579,2.62597,79,0.660238,10,0.00190535,-2.58071,0.0885846,0.66603,0.724423,
2,1,0,1,0,52649.1,0.721877,0.721633,2.37046,79,0.662227,10,0.0017106,-2.62517,0.0855268,0.689843,0.72059,
2,1,0,1,0,52649.9,0.717882,0.717565,2.13181,79,0.664018,10,0.00152971,-2.67125,0.083059,0.710338,0.716627,
2,1,0,1,0,52650.7,0.713887,0.713598,1.90903,79,0.665625,10,0.00136228,-2.71919,0.0788991,0.74779,0.712758,
2,1,0,0,0,52651.5,0.709892,0.709659,1.70037,79,0.66706,10,0.00120668,-2.76946,0.0767844,0.768385,0.708911,
2,1,0,1,0,52652.3,0.705897,0.705611,1.50994,79,0.668335,10,0.00106543,-2.82104,0.0751559,0.785035,0.704946,
2,1,0,1,0,52653.1,0.701901,0.701617,1.33188,79,0.669463,10,0.000934472,-2.87553,0.0694654,0.849344,0.701031,
2,1,0,1,0,52653.9,0.697906,0.697586,1.16954,79,0.670455,10,0.000815856,-2.93198,0.0685623,0.860531,0.697072,
2,1,0,1,0,52654.7,0.693911,0.693633,1.0199,79,0.671322,10,0.000707436,-2.99144,0.0639876,0.922054,0.693184,
2,1,0,0,0,52655.5,0.689916,0.689625,0.883302,79,0.672075,10,0.000609147,-3.05389,0.0621,0.950081,0.689236,
2,1,0,1,0,52656.3,0.685921,0.685592,0.760118,79,0.672725,10,0.000521131,-3.11912,0.0587466,1.00431,0.685258,
2,1,0,0,0,52657.1,0.681926,0.681617,0.649018,79,0.673281,10,0.000442382,-3.18774,0.0556941,1.05936,0.681331,
2,1,0,1,0,52657.9,0.67793,0.67764,0.549296,79,0.673752,10,0.000372225,-3.26019,0.0548515,1.07563,0.677398,
2,1,0,1,0,52658.7,0.673935,0.673636,0.461591,79,0.67415,10,0.000310944,-3.33574,0.0497226,1.18658,0.673433,
2,1,0,1,0,52659.5,0.66994,0.669639,0.383428,79,0.67448,10,0.000256758,-3.41632,0.046776,1.26133,0.66947,
2,1,0,1,0,52660.3,0.665945,0.665665,0.313765,79,0.674752,10,0.000208862,-3.5034,0.0462967,1.27439,0.665527,
2,1,0,0,0,52661.1,0.66195,0.661664,0.254187,79,0.674973,10,0.000168186,-3.59485,0.04096,1.44043,0.661552,
2,1,0,1,0,52661.9,0.657955,0.657654,0.202668,79,0.675148,10,0.000133286,-3.69321,0.0394028,1.49736,0.657565,
2,1,0,1,0,52662.7,0.653959,0.653706,0.15786,79,0.675286,10,0.000103194,-3.80173,0.0336487,1.75341,0.653636,
2,1,0,1,0,52663.5,0.649964,0.649681,0.119138,79,0.675389,10,7.74016e-05,-3.92395,0.0307331,1.91976,0.649628,
2,1,0,1,0,52664.3,0.64597,0.6457,0.0859466,79,0.675465,10,5.54957e-05,-4.06577,0.0259658,2.27222,0.645662,
2,1,0,0,0,52665.1,0.641974,0.641674,0.0571773,79,0.675515,10,3.66892e-05,-4.24278,0.0191433,3.08201,0.641649,
2,1,0,1,0,52665.9,0.637979,0.637686,0.0336691,79,0.675545,10,2.14703e-05,-4.47277,0.0131879,4.47378,0.637671,
2,1,0,1,0,52666.7,0.633983,0.633683,0.0124529,79,0.675557,10,7.89118e-06,-4.90473,0.00598503,9.85793,0.633677,
2,0,0,1,0,52667.5,0.629988,0.629658,-0.00323448,79,0.675554,10,-2.03661e-06,-5.4902,-0.0110987,-5.31595,0.629659,
2,0,0,1,0,52668.3,0.625993,0.625663,-0.0172718,79,0.675539,10,-1.08063e-05,-4.76266,-0.0122181,-4.8289,0.62567,
2,0,0,0,0,52669.1,0.621998,0.621699,-0.028609,79,0.675515,10,-1.77862e-05,-4.5435,-0.0230761,-2.55675,0.621711,
2,0,0,1,0,52669.9,0.618003,0.617699,-0.0383821,79,0.675482,10,-2.37086e-05,-4.41587,-0.0381771,-1.54543,0.617716,
2,0,0,0,0,52670.7,0.614008,0.613695,-0.0469479,79,0.675441,10,-2.88117e-05,-4.32838,-0.0660103,-0.8938,0.613715,
2,0,0,1,0,52671.5,0.610012,0.60974,-0.0543251,79,0.675395,10,-3.31242e-05,-4.265,-0.0658852,-0.895496,0.609764,
2,0,0,1,0,52672.3,0.606017,0.605745,-0.0596151,79,0.675343,10,-3.61115e-05,-4.22464,-0.103019,-0.572707,0.605771,
2,0,0,1,0,52673.1,0.602022,0.601758,-0.0650583,79,0.675286,10,-3.91493e-05,-4.1867,-0.173882,-0.339311,0.601787,
2,0,0,1,0,52673.9,0.598027,0.59766,-0.0694048,79,0.675226,10,-4.14805e-05,-4.15861,-0.129472,-0.455699,0.597691,
2,0,0,0,0,52674.7,0.594032,0.593725,-0.0729074,79,0.675163,10,-4.3287e-05,-4.13723,-0.185963,-0.317268,0.593757,
2,0,0,1,0,52675.5,0.590037,0.589762,-0.0770402,79,0.675096,10,-4.54354e-05,-4.11328,-0.203788,-0.289517,0.589796,
2,0,0,1,0,52676.3,0.586041,0.585765,-0.0794815,79,0.675028,10,-4.65575e-05,-4.09973,-0.34699,-0.170033,0.5858,
2,0,0,1,0,52677.1,0.582046,0.581746,-0.0816549,79,0.674957,10,-4.75024e-05,-4.08802,-0.409361,-0.144127,0.581782,
2,0,0,1,0,52677.9,0.578052,0.57775,-0.0835608,79,0.674884,10,-4.82773e-05,-4.078,-0.249706,-0.236278,0.577787,
2,0,0,0,0,52678.7,0.574056,0.57376,-0.0847962,79,0.67481,10,-4.86527e-05,-4.07162,-0.886664,-0.0665416,0.573797,
2,0,0,1,0,52679.5,0.570061,0.56973,-0.0874788,79,0.674734,10,-4.98393e-05,-4.0581,-0.368837,-0.159962,0.569769,
2,0,0,1,0,52680.3,0.566065,0.56582,-0.0892694,79,0.674657,10,-5.05104e-05,-4.0493,-0.523108,-0.112787,0.565859,
2,0,0,1,0,52681.1,0.56207,0.561785,-0.0905733,79,0.674578,10,-5.08827e-05,-4.043,-0.930543,-0.0634039,0.561825,
2,0,0,1,0,52681.9,0.558075,0.557759,-0.0918133,79,0.674499,10,-5.12097e-05,-4.03709,-0.575242,-0.102565,0.5578,
2,0,0,1,0,52682.7,0.55408,0.553763,-0.0928459,79,0.674418,10,-5.14146e-05,-4.03224,-0.657891,-0.0896804,0.553804,
2,0,0,1,0,52683.5,0.550085,0.549762,-0.0946783,79,0.674337,10,-5.20505e-05,-4.02375,-0.55964,-0.105425,0.549803,
2,0,0,0,0,52684.3,0.54609,0.545789,-0.0954424,79,0.674254,10,-5.20914e-05,-4.02026,-0.707081,-0.0834417,0.545831,
2,0,0,1,0,52685.1,0.542094,0.541771,-0.0961065,79,0.674171,10,-5.20677e-05,-4.01725,12.2531,0.00481512,0.541813,
2,0,0,1,0,52685.9,0.538099,0.53782,-0.0977387,79,0.674086,10,-5.25658e-05,-4.00993,-0.695777,-0.0847972,0.537863,
2,0,0,1,0,52686.7,0.534104,0.533796,-0.0984768,79,0.674001,10,-5.25665e-05,-4.00667,-0.743408,-0.0793642,0.53384,
2,0,0,1,0,52687.5,0.530109,0.529824,-0.100428,79,0.673915,10,-5.32089e-05,-3.99815,-0.671604,-0.0878494,0.529868,
2,0,0,0,0,52688.3,0.526114,0.525783,-0.101407,79,0.673828,10,-5.33179e-05,-3.99393,-0.52604,-0.112159,0.525827,
2,0,0,1,0,52689.1,0.522119,0.521802,-0.102473,79,0.67374,10,-5.34704e-05,-3.98939,-1.60542,-0.0367506,0.521847,
2,0,0,1,0,52689.9,0.518123,0.517831,-0.103035,79,0.673652,10,-5.33545e-05,-3.98702,-1.35857,-0.0434279,0.517877,
2,0,0,1,0,52690.7,0.514128,0.513788,-0.10483,79,0.673562,10,-5.38602e-05,-3.97952,-0.659243,-0.0894965,0.513834,
2,0,0,1,0,52691.5,0.510133,0.509849,-0.104228,79,0.673472,10,-5.31404e-05,-3.98202,-1.23207,-0.0478871,0.509895,
2,0,0,0,0,52692.3,0.506138,0.505851,-0.105584,79,0.67338,10,-5.34096e-05,-3.9764,-0.892902,-0.0660767,0.505898,
2,0,0,1,0,52693.1,0.502143,0.501811,-0.107565,79,0.673288,10,-5.39774e-05,-3.96833,-0.578161,-0.102048,0.501858,
2,0,0,0,0,52693.9,0.498148,0.497841,-0.109277,79,0.673195,10,-5.44026e-05,-3.96147,-0.757199,-0.0779187,0.497889,
2,0,0,1,0,52694.7,0.494152,0.493878,-0.110284,79,0.6731,10,-5.44666e-05,-3.95749,-1.05869,-0.055729,0.493926,
2,0,0,1,0,52695.5,0.490157,0.489837,-0.111236,79,0.673005,10,-5.44876e-05,-3.95375,-0.681458,-0.086579,0.489886,
2,0,0,1,0,52696.3,0.486162,0.485867,-0.111457,79,0.672908,10,-5.41531e-05,-3.95289,-3.8855,-0.0151846,0.485916,
2,0,0,1,0,52697.1,0.482167,0.481857,-0.113699,79,0.672811,10,-5.47866e-05,-3.94424,-0.504179,-0.117022,0.481907,
2,0,0,0,0,52697.9,0.478172,0.477911,-0.114054,79,0.672712,10,-5.45075e-05,-3.94289,-0.604693,-0.0975702,0.477961,
2,0,0,1,0,52698.7,0.474177,0.473864,-0.116977,79,0.672612,10,-5.54313e-05,-3.9319,-1.87613,-0.0314477,0.473916,
2,0,0,1,0,52699.5,0.470181,0.469868,-0.11754,79,0.672512,10,-5.52281e-05,-3.92982,-0.506779,-0.116421,0.46992,
2,0,0,1,0,52700.3,0.466186,0.465873,-0.119342,79,0.67241,10,-5.55982e-05,-3.92321,-1.59205,-0.0370591,0.465925,
2,0,0,1,0,52701.1,0.462191,0.461868,-0.120992,79,0.672307,10,-5.58824e-05,-3.91724,-0.512006,-0.115233,0.461921,
2,0,0,0,0,52701.9,0.458196,0.45787,-0.122216,79,0.672202,10,-5.59591e-05,-3.91287,-0.665428,-0.0886647,0.457924,
2,0,0,1,0,52702.7,0.454201,0.453869,-0.12427,79,0.672096,10,-5.64023e-05,-3.90563,-1.49778,-0.0393918,0.453924,
2,0,0,1,0,52703.5,0.450205,0.449909,-0.125557,79,0.671989,10,-5.64891e-05,-3.90116,-0.57934,-0.10184,0.449964,
2,0,0,1,0,52704.3,0.44621,0.44588,-0.127384,79,0.671881,10,-5.67978e-05,-3.89489,-0.705595,-0.0836174,0.445936,
2,0,0,1,0,52705.1,0.442215,0.441904,-0.128356,79,0.671771,10,-5.67209e-05,-3.89158,-1.56672,-0.0376583,0.44196,
2,0,0,0,0,52705.9,0.43822,0.437936,-0.130592,79,0.67166,10,-5.7191e-05,-3.88408,-0.445046,-0.132571,0.437994,
2,0,0,1,0,52706.7,0.434225,0.433917,-0.132239,79,0.671548,10,-5.7381e-05,-3.87864,-0.629423,-0.0937367,0.433976,
2,0,0,0,0,52707.5,0.43023,0.429896,-0.134028,79,0.671434,10,-5.76183e-05,-3.8728,-0.818755,-0.0720606,0.429955,
2,0,0,1,0,52708.3,0.426234,0.425934,-0.135388,79,0.671319,10,-5.76664e-05,-3.86842,-0.60407,-0.0976708,0.425993,
2,0,0,1,0,52709.1,0.422239,0.421867,-0.137125,79,0.671202,10,-5.78486e-05,-3.86288,-1.05371,-0.0559928,0.421927,
2,0,0,1,0,52709.9,0.418244,0.417963,-0.138808,79,0.671084,10,-5.80164e-05,-3.85759,-0.833582,-0.0707789,0.418024,
2,0,0,1,0,52710.7,0.414249,0.413952,-0.141022,79,0.670964,10,-5.83763e-05,-3.85071,-0.483308,-0.122075,0.414014,
2,0,0,0,0,52711.5,0.410254,0.409935,-0.143557,79,0.670842,10,-5.88491e-05,-3.84298,-0.804753,-0.0733144,0.409998,
2,0,0,1,0,52712.3,0.406259,0.405951,-0.145923,79,0.670719,10,-5.92376e-05,-3.83588,-0.39586,-0.149043,0.406016,
2,0,0,1,0,52713.1,0.402263,0.402,-0.14767,79,0.670594,10,-5.93634e-05,-3.83071,-0.921973,-0.0639932,0.402065,
2,0,0,1,0,52713.8,0.398268,0.397945,-0.149549,79,0.670468,10,-5.95124e-05,-3.82522,-0.817454,-0.0721753,0.39801,
2,0,0,1,0,52714.6,0.394274,0.393965,-0.151784,79,0.670339,10,-5.97977e-05,-3.81877,-0.531789,-0.110946,0.394032,
2,0,0,0,0,52715.4,0.390278,0.389955,-0.15382,79,0.67021,10,-5.99831e-05,-3.81299,-0.892781,-0.0660856,0.390023,
2,0,0,1,0,52716.2,0.386283,0.385951,-0.155569,79,0.670078,10,-6.00422e-05,-3.80808,-0.637336,-0.0925729,0.386019,
2,0,0,1,0,52717,0.382287,0.381984,-0.157263,79,0.669944,10,-6.00719e-05,-3.80337,-0.692049,-0.0852541,0.382053,
2,0,0,1,0,52717.8,0.378292,0.377942,-0.159093,79,0.669809,10,-6.01279e-05,-3.79835,-0.957922,-0.0615917,0.378012,
2,0,0,1,0,52718.6,0.374297,0.374003,-0.161109,79,0.669672,10,-6.02554e-05,-3.79288,-0.538347,-0.109595,0.374074,
2,0,0,1,0,52719.4,0.370303,0.369932,-0.164046,79,0.669534,10,-6.06857e-05,-3.78504,-0.917764,-0.0642867,0.370004,
2,0,0,1,0,52720.2,0.366307,0.366013,-0.165967,79,0.669393,10,-6.07461e-05,-3.77998,-0.401881,-0.146809,0.366086,
2,0,0,0,0,52721,0.362312,0.362012,-0.169017,79,0.669251,10,-6.11864e-05,-3.77207,-0.91629,-0.0643901,0.362087,
2,0,0,1,0,52721.8,0.358316,0.357996,-0.170397,79,0.669106,10,-6.10013e-05,-3.76854,-1.03775,-0.0568537,0.358071,
2,0,0,1,0,52722.6,0.354321,0.353988,-0.172717,79,0.66896,10,-6.114e-05,-3.76266,-0.765278,-0.0770962,0.354064,
2,0,0,1,0,52723.4,0.350327,0.350034,-0.174566,79,0.668812,10,-6.11042e-05,-3.75804,-0.508981,-0.115918,0.350111,
2,0,0,1,0,52724.2,0.346331,0.346041,-0.176835,79,0.668662,10,-6.11922e-05,-3.75243,-1.22783,-0.0480522,0.346118,
2,0,0,0,0,52725,0.342336,0.342023,-0.179998,79,0.668511,10,-6.15633e-05,-3.74473,-0.540779,-0.109102,0.342102,
2,0,0,1,0,52725.8,0.338341,0.338021,-0.183018,79,0.668357,10,-6.1864e-05,-3.73751,-1.15648,-0.0510168,0.338101,
2,0,0,1,0,52726.6,0.334345,0.334033,-0.185404,79,0.668201,10,-6.19312e-05,-3.73188,-0.431504,-0.136731,0.334115,
2,0,0,1,0,52727.4,0.33035,0.330071,-0.187992,79,0.668043,10,-6.20507e-05,-3.72586,-1.1739,-0.05026,0.330154,
2,0,0,1,0,52728.2,0.326355,0.326036,-0.188905,79,0.667883,10,-6.15899e-05,-3.72376,-0.734291,-0.0803496,0.326119,
2,0,0,0,0,52729,0.32236,0.32205,-0.191985,79,0.667722,10,-6.18288e-05,-3.71673,-0.783772,-0.075277,0.322134,
2,0,0,1,0,52729.8,0.318365,0.318034,-0.193784,79,0.667558,10,-6.16301e-05,-3.71268,-0.944195,-0.0624871,0.318119,
2,0,0,0,0,52730.6,0.31437,0.314084,-0.196527,79,0.667392,10,-6.1726e-05,-3.70658,-0.87066,-0.0677647,0.314171,
2,0,0,1,0,52731.4,0.310374,0.310051,-0.198973,79,0.667225,10,-6.1692e-05,-3.7012,-0.492005,-0.119918,0.310139,
2,0,0,1,0,52732.2,0.306379,0.306058,-0.200981,79,0.667055,10,-6.15119e-05,-3.69684,-0.813535,-0.072523,0.306147,
2,0,0,1,0,52733,0.302385,0.302062,-0.20447,79,0.666883,10,-6.17626e-05,-3.68937,-0.731192,-0.0806902,0.302152,
2,0,0,1,0,52733.8,0.298389,0.298087,-0.206311,79,0.66671,10,-6.14985e-05,-3.68548,-0.613816,-0.0961201,0.298178,
2,0,0,0,0,52734.6,0.294394,0.294,-0.20918,79,0.666534,10,-6.1499e-05,-3.67948,-1.44051,-0.0409576,0.294092,
2,0,0,1,0,52735.4,0.290398,0.290069,-0.211913,79,0.666356,10,-6.14692e-05,-3.67384,-0.571869,-0.10317,0.290162,
2,0,0,1,0,52736.2,0.286403,0.286091,-0.213437,79,0.666176,10,-6.10626e-05,-3.67073,-0.960861,-0.0614033,0.286185,
2,0,0,1,0,52737,0.282408,0.28212,-0.217078,79,0.665994,10,-6.12419e-05,-3.66338,-0.900115,-0.0655472,0.282215,
2,0,0,1,0,52737.8,0.278414,0.278074,-0.219729,79,0.665809,10,-6.1101e-05,-3.65811,-0.450875,-0.130857,0.278171,
2,0,0,0,0,52738.6,0.274418,0.274094,-0.222132,79,0.665622,10,-6.08851e-05,-3.65339,-1.24755,-0.0472926,0.274192,
2,0,0,1,0,52739.4,0.270423,0.270119,-0.226543,79,0.665433,10,-6.11935e-05,-3.64485,-0.630226,-0.0936172,0.270218,
2,0,0,1,0,52740.2,0.266427,0.266113,-0.22801,79,0.665242,10,-6.06765e-05,-3.64205,-0.70933,-0.0831771,0.266213,
2,0,0,1,0,52741,0.262432,0.262116,-0.231138,79,0.665049,10,-6.0585e-05,-3.63613,-1.25413,-0.0470445,0.262217,
2,0,0,1,0,52741.8,0.258437,0.258118,-0.233569,79,0.664853,10,-6.02885e-05,-3.63158,-0.577941,-0.102086,0.258221,
2,0,0,0,0,52742.6,0.254442,0.254133,-0.235278,79,0.664656,10,-5.97919e-05,-3.62842,-1.01649,-0.0580428,0.254237,
2,0,0,1,0,52743.4,0.250447,0.250116,-0.2388,79,0.664456,10,-5.97277e-05,-3.62197,-1.35047,-0.0436885,0.250221,
2,0,0,0,0,52744.2,0.246452,0.246149,-0.24096,79,0.664255,10,-5.9312e-05,-3.61806,-0.514877,-0.114591,0.246255,
2,0,0,1,0,52745,0.242456,0.242121,-0.24357,79,0.664051,10,-5.89733e-05,-3.61338,-1.13341,-0.0520552,0.242228,
2,0,0,1,0,52745.8,0.238461,0.2381,-0.2458,79,0.663846,10,-5.85249e-05,-3.60942,-2.743,-0.0215093,0.238208,
2,0,0,1,0,52746.6,0.234467,0.23416,-0.247494,79,0.663639,10,-5.7953e-05,-3.60644,-0.612433,-0.096337,0.234268,
2,0,0,1,0,52747.4,0.230471,0.230117,-0.250132,79,0.66343,10,-5.75596e-05,-3.60183,-1.17527,-0.0502011,0.230227,
2,0,0,0,0,52748.2,0.226476,0.226184,-0.251943,79,0.663219,10,-5.69855e-05,-3.5987,-0.886251,-0.0665726,0.226295,
2,0,0,1,0,52749,0.222481,0.222148,-0.254746,79,0.663006,10,-5.65912e-05,-3.59389,-1.06777,-0.0552551,0.22226,
2,0,0,1,0,52749.8,0.218485,0.218146,-0.258345,79,0.66279,10,-5.63568e-05,-3.5878,-1.53567,-0.0384196,0.218259,
2,0,0,1,0,52750.6,0.21449,0.214171,-0.260933,79,0.662573,10,-5.58841e-05,-3.58347,-0.523303,-0.112745,0.214285,
2,0,0,1,0,52751.4,0.210496,0.210194,-0.263829,79,0.662354,10,-5.54551e-05,-3.57868,-1.20074,-0.0491364,0.21031,
2,0,0,0,0,52752.2,0.2065,0.206138,-0.267832,79,0.662132,10,-5.52104e-05,-3.57214,-0.664005,-0.0888547,0.206256,
2,0,0,1,0,52753,0.202505,0.202183,-0.268727,79,0.661908,10,-5.4332e-05,-3.57069,-1.43475,-0.0411221,0.202301,
2,0,0,1,0,52753.8,0.198509,0.198196,-0.273007,79,0.661681,10,-5.41089e-05,-3.56383,-0.779001,-0.075738,0.198316,
2,0,0,1,0,52754.6,0.194514,0.194181,-0.276526,79,0.661451,10,-5.36959e-05,-3.55826,-0.49313,-0.119644,0.194302,
2,0,0,1,0,52755.4,0.190519,0.190203,-0.278841,79,0.661219,10,-5.30365e-05,-3.55464,-0.579239,-0.101858,0.190326,
2,0,0,0,0,52756.2,0.186524,0.186199,-0.284051,79,0.660983,10,-5.289e-05,-3.5466,-1.16124,-0.0508079,0.186324,
2,0,0,1,0,52757,0.182529,0.182177,-0.288801,79,0.660744,10,-5.26128e-05,-3.5394,-0.464212,-0.127097,0.182304,
2,0,0,0,0,52757.8,0.178534,0.178205,-0.292983,79,0.660501,10,-5.2211e-05,-3.53316,-0.578318,-0.10202,0.178334,
2,0,0,1,0,52758.6,0.174538,0.174171,-0.298562,79,0.660255,10,-5.20008e-05,-3.52496,-0.458588,-0.128656,0.174302,
2,0,0,1,0,52759.4,0.170543,0.170216,-0.303961,79,0.660003,10,-5.17389e-05,-3.51718,-0.362617,-0.162706,0.170349,
2,0,0,1,0,52760.2,0.166549,0.166201,-0.311562,79,0.659746,10,-5.1782e-05,-3.50646,-0.40624,-0.145234,0.166338,
2,0,0,1,0,52761,0.162553,0.162184,-0.321188,79,0.659482,10,-5.20916e-05,-3.49324,-0.289557,-0.203759,0.162325,
2,0,0,0,0,52761.8,0.158558,0.158236,-0.33082,79,0.65921,10,-5.23477e-05,-3.48041,-0.249493,-0.236479,0.158382,
2,0,0,1,0,52762.6,0.154563,0.154218,-0.346246,79,0.658928,10,-5.33975e-05,-3.46062,-0.214921,-0.274519,0.154371,
2,0,0,1,0,52763.4,0.150567,0.150253,-0.364385,79,0.658633,10,-5.475e-05,-3.43844,-0.146449,-0.402871,0.150413,
2,0,0,1,0,52764.2,0.146572,0.146214,-0.389649,79,0.658321,10,-5.69723e-05,-3.40933,-0.13096,-0.450518,0.146386,
2,0,0,1,0,52765,0.142578,0.142258,-0.420669,79,0.657987,10,-5.98437e-05,-3.37606,-0.109085,-0.540865,0.142443,
2,0,0,0,0,52765.8,0.138582,0.138264,-0.46027,79,0.657625,10,-6.3639e-05,-3.33699,-0.0954732,-0.617974,0.138467,
2,0,0,1,0,52766.6,0.134587,0.134269,-0.505712,79,0.657228,10,-6.79014e-05,-3.2961,-0.0999169,-0.590491,0.134491,
2,0,0,1,0,52767.4,0.130591,0.130257,-0.551162,79,0.656793,10,-7.17927e-05,-3.25872,-0.114399,-0.515739,0.130499,
2,0,0,1,0,52768.2,0.126596,0.126234,-0.592,79,0.656323,10,-7.47305e-05,-3.22768,-0.140245,-0.420694,0.126494,
2,0,0,1,0,52769,0.122602,0.122228,-0.629087,79,0.655821,10,-7.68921e-05,-3.20129,-0.221414,-0.266469,0.122505,
2,0,0,1,0,52769.8,0.118607,0.118305,-0.649174,79,0.655299,10,-7.68003e-05,-3.18764,-0.31745,-0.185856,0.11859,
2,0,0,1,0,52770.6,0.114611,0.114274,-0.661531,79,0.654762,10,-7.55957e-05,-3.17945,-0.841519,-0.0701113,0.114565,
2,0,0,0,0,52771.4,0.110616,0.11027,-0.667347,79,0.65422,10,-7.35882e-05,-3.17565,-3.18312,-0.0185353,0.110563,
2,0,0,1,0,52772.2,0.10662,0.106281,-0.666768,79,0.653675,10,-7.08651e-05,-3.17603,-5.1581,-0.0114383,0.106575,
2,0,0,1,0,52773,0.102625,0.102289,-0.665163,79,0.65313,10,-6.8039e-05,-3.17707,1.01597,0.0580723,0.102582,
2,0,0,1,0,52773.8,0.0986305,0.0982737,-0.662413,79,0.652588,10,-6.50978e-05,-3.17887,3.14828,0.0187404,0.0985652,
2,0,0,1,0,52774.6,0.0946351,0.094281,-0.655973,79,0.652049,10,-6.18458e-05,-3.18311,1.16508,0.0506403,0.0945696,
2,0,0,0,0,52775.4,0.0906399,0.0902684,-0.650112,79,0.651515,10,-5.86846e-05,-3.18701,0.667877,0.0883397,0.0905544,
2,0,0,1,0,52776.2,0.0866448,0.0863226,-0.642726,79,0.650986,10,-5.54817e-05,-3.19197,0.983552,0.0599867,0.0866054,
2,0,0,1,0,52777,0.0826492,0.0822959,-0.636298,79,0.650464,10,-5.23647e-05,-3.19634,0.700405,0.084237,0.0825759,
2,0,0,1,0,52777.8,0.0786544,0.0783419,-0.629028,79,0.649948,10,-4.92792e-05,-3.20133,0.888945,0.0663708,0.0786186,
2,0,0,1,0,52778.6,0.0746596,0.0743245,-0.618682,79,0.649438,10,-4.59832e-05,-3.20853,0.668985,0.0881933,0.0745968,
2,0,0,0,0,52779.4,0.0706641,0.0702977,-0.61219,79,0.648935,10,-4.30356e-05,-3.21311,0.607207,0.0971662,0.0705671,
2,0,0,1,0,52780.2,0.0666689,0.0663541,-0.604265,79,0.648438,10,-4.00955e-05,-3.21877,0.764278,0.0771971,0.06662,
2,0,0,0,0,52781,0.0626737,0.062332,-0.594295,79,0.647947,10,-3.70436e-05,-3.226,0.715382,0.0824735,0.0625935,
2,0,0,1,0,52781.8,0.0586783,0.0583447,-0.587398,79,0.647462,10,-3.42716e-05,-3.23107,0.511101,0.115437,0.0586031,
2,0,0,1,0,52782.6,0.0546835,0.0543323,-0.579852,79,0.646985,10,-3.15047e-05,-3.23668,0.855661,0.0689525,0.0545875,
2,0,0,1,0,52783.4,0.0506886,0.0503552,-0.570153,79,0.646514,10,-2.87102e-05,-3.24401,0.506799,0.116417,0.0506061,
2,0,0,1,0,52784.2,0.046693,0.0463835,-0.559906,79,0.646051,10,-2.59704e-05,-3.25188,0.5339,0.110508,0.0466298,
2,0,0,0,0,52785,0.0426979,0.0423486,-0.551492,79,0.645596,10,-2.33549e-05,-3.25846,0.678191,0.0869961,0.0425913,
2,0,0,1,0,52785.8,0.0387022,0.0383239,-0.542392,79,0.645148,10,-2.07866e-05,-3.26569,0.433928,0.135967,0.0385625,
2,0,0,1,0,52786.6,0.0347074,0.0343433,-0.531859,79,0.644708,10,-1.82658e-05,-3.2742,0.606238,0.0973214,0.0345773,
2,0,0,1,0,52787.4,0.0307126,0.0303726,-0.521296,79,0.644276,10,-1.58331e-05,-3.28292,0.496196,0.118905,0.030602,
2,0,0,1,0,52788.2,0.0267172,0.0263587,-0.515269,79,0.64385,10,-1.35818e-05,-3.28797,0.563046,0.104787,0.0265855,
2,0,0,0,0,52789,0.022722,0.0223716,-0.506128,79,0.643431,10,-1.13229e-05,-3.29574,0.691367,0.0853382,0.0225943,
2,0,0,1,0,52789.8,0.0187268,0.0184089,-0.499789,79,0.643018,10,-9.20056e-06,-3.30121,0.765875,0.077036,0.0186288,
2,0,0,1,0,52790.6,0.0147313,0.0143853,-0.496805,79,0.642609,10,-7.14669e-06,-3.30381,1.23246,0.0478716,0.0146039,
2,0,0,1,0,52791.4,0.0107365,0.0104101,-0.490564,79,0.642204,10,-5.10681e-06,-3.3093,1.96328,0.0300518,0.0106259,
2,0,0,1,0,52792.2,0.00674163,0.00642887,-0.489872,79,0.641801,10,-3.14932e-06,-3.30992,2.34026,0.0252109,0.00664441,
2,0,0,0,0,52793,0.00274612,0.00239144,-0.48972,79,0.641399,10,-1.17114e-06,-3.31005,-2.04998,-0.0287807,0.00260691,
2,0,0,1,0,52793.4,0.000274105,-0.000108205,-0.491981,79,0.641147,10,5.3235e-08,-3.30805, , ,0.000108267,