File: Figure_codes/Fig_3-5/workspace_calculate_alpha_eff/20221101_1-115_003_TrumpetPlot_ParaChange_from10_every3_16_CV_C01_59.csv
mode,ox/red,error,control changes,counter inc.,time/s,control/V,Ewe/V,<I>/mA,cycle number,(Q-Qo)/C,I Range,P/W,log(|I|),Tafel slope mV/dec,alpha_eff,E-IR/V,
2,0,0,0,0,39402.6,2.44065e-05,-0.00042076,-0.100666,60,0.0000000E+000,10,4.23563e-08,-3.99712, , ,-0.000376467,
2,1,0,0,0,39403.4,0.00379485,0.00348048,0.142766,60,8.624e-05,10,4.96894e-07,-3.84537,0.0303573,1.94352,0.00341766,
2,1,0,1,0,39404.2,0.00779002,0.00747397,0.165839,60,0.000220965,10,1.23947e-06,-3.78031,0.0684537,0.861897,0.007401,
2,1,0,0,0,39404.9,0.0117852,0.0114547,0.182504,60,0.000371919,10,2.09053e-06,-3.73873,0.11596,0.508798,0.0113744,
2,1,0,1,0,39405.7,0.0157806,0.0154559,0.199667,60,0.000535154,10,3.08603e-06,-3.69969,0.129029,0.457263,0.015368,
2,1,0,1,0,39406.5,0.0197754,0.0194118,0.211395,60,0.000709539,10,4.10356e-06,-3.67491,0.149906,0.393581,0.0193188,
2,1,0,1,0,39407.3,0.0237704,0.0234487,0.224536,60,0.000894507,10,5.26508e-06,-3.64871,0.152204,0.387638,0.0233499,
2,1,0,1,0,39408.1,0.0277659,0.0274404,0.240126,60,0.00109014,10,6.58915e-06,-3.61956,0.161001,0.366458,0.0273347,
2,1,0,0,0,39408.9,0.0317611,0.0314105,0.252443,60,0.0012971,10,7.92938e-06,-3.59784,0.157407,0.374824,0.0312994,
2,1,0,1,0,39409.7,0.0357567,0.0354363,0.26726,60,0.00151552,10,9.4707e-06,-3.57307,0.19527,0.302146,0.0353187,
2,1,0,1,0,39410.5,0.0397516,0.0394285,0.281202,60,0.0017449,10,1.10874e-05,-3.55098,0.16638,0.354611,0.0393048,
2,1,0,1,0,39411.3,0.0437465,0.043446,0.29443,60,0.00198603,10,1.27918e-05,-3.53102,0.200256,0.294624,0.0433165,
2,1,0,1,0,39412.1,0.0477413,0.0474179,0.308116,60,0.00223763,10,1.46102e-05,-3.51129,0.198646,0.297011,0.0472824,
2,1,0,0,0,39412.9,0.0517369,0.0514045,0.320309,60,0.00249951,10,1.64653e-05,-3.49443,0.242959,0.242839,0.0512635,
2,1,0,1,0,39413.7,0.0557321,0.0553672,0.333856,60,0.00277167,10,1.84847e-05,-3.47644,0.271318,0.217457,0.0552203,
2,1,0,1,0,39414.5,0.0597277,0.0593645,0.345357,60,0.0030528,10,2.05019e-05,-3.46173,0.276239,0.213583,0.0592125,
2,1,0,1,0,39415.3,0.0637226,0.0633893,0.354264,60,0.0033429,10,2.24566e-05,-3.45067,0.33968,0.173693,0.0632334,
2,1,0,1,0,39416.1,0.0677174,0.0674079,0.36561,60,0.00364156,10,2.4645e-05,-3.43698,0.444479,0.13274,0.067247,
2,1,0,0,0,39416.9,0.0717128,0.0714037,0.374255,60,0.00394756,10,2.67232e-05,-3.42683,0.314916,0.187352,0.0712391,
2,1,0,1,0,39417.7,0.075708,0.0754015,0.382318,60,0.00426106,10,2.88273e-05,-3.41758,0.478639,0.123266,0.0752333,
2,1,0,0,0,39418.5,0.0797031,0.0793462,0.391456,60,0.00458102,10,3.10606e-05,-3.40732,0.375157,0.157267,0.079174,
2,1,0,1,0,39419.3,0.0836986,0.0833866,0.399375,60,0.00490787,10,3.33025e-05,-3.39862,0.405704,0.145426,0.0832108,
2,1,0,1,0,39420.1,0.0876935,0.0873704,0.410565,60,0.0052426,10,3.58712e-05,-3.38662,0.322248,0.183089,0.0871897,
2,1,0,1,0,39420.9,0.0916883,0.0913677,0.42473,60,0.00558671,10,3.88066e-05,-3.37189,0.250521,0.235509,0.0911808,
2,1,0,1,0,39421.7,0.0956838,0.0953435,0.438371,60,0.00594283,10,4.17958e-05,-3.35816,0.220474,0.267605,0.0951506,
2,1,0,0,0,39422.5,0.099679,0.099337,0.459419,60,0.00631294,10,4.56373e-05,-3.33779,0.250662,0.235377,0.0991348,
2,1,0,1,0,39423.3,0.103674,0.103329,0.481487,60,0.00669936,10,4.97518e-05,-3.31742,0.173226,0.340595,0.103118,
2,1,0,1,0,39424.1,0.10767,0.107333,0.501788,60,0.00710418,10,5.38583e-05,-3.29948,0.228839,0.257824,0.107112,
2,1,0,1,0,39424.9,0.111664,0.111322,0.522925,60,0.00752513,10,5.82128e-05,-3.28156,0.2665,0.221388,0.111091,
2,1,0,1,0,39425.7,0.115659,0.115361,0.537462,60,0.00796,10,6.20024e-05,-3.26965,0.314883,0.187371,0.115125,
2,1,0,0,0,39426.5,0.119655,0.119277,0.551742,60,0.00840693,10,6.58101e-05,-3.25826,0.523811,0.112636,0.119034,
2,1,0,1,0,39427.3,0.12365,0.123317,0.562843,60,0.00886254,10,6.94081e-05,-3.24961,0.479976,0.122923,0.123069,
2,1,0,1,0,39428.1,0.127646,0.12732,0.569671,60,0.00932675,10,7.25308e-05,-3.24438,0.663051,0.0889826,0.12707,
2,1,0,1,0,39428.9,0.131641,0.131303,0.575652,60,0.00979653,10,7.55849e-05,-3.23984,-1.23442,-0.0477956,0.13105,
2,1,0,1,0,39429.7,0.135635,0.135323,0.565666,60,0.0102643,10,7.65476e-05,-3.24744,-0.324491,-0.181823,0.135074,
2,1,0,0,0,39430.5,0.139631,0.139279,0.536697,60,0.0107179,10,7.47507e-05,-3.27027,-0.130102,-0.45349,0.139043,
2,1,0,1,0,39431.3,0.143626,0.143292,0.491808,60,0.011141,10,7.04721e-05,-3.3082,-0.0837775,-0.704246,0.143075,
2,1,0,0,0,39432.1,0.147621,0.147314,0.4317,60,0.011521,10,6.35954e-05,-3.36482,-0.0706271,-0.835373,0.147124,
2,1,0,1,0,39432.9,0.151617,0.151251,0.380723,60,0.0118563,10,5.75846e-05,-3.41939,-0.0745347,-0.791578,0.151083,
2,1,0,1,0,39433.7,0.155612,0.155287,0.343388,60,0.0121544,10,5.33239e-05,-3.46421,-0.106915,-0.551841,0.155136,
2,1,0,1,0,39434.5,0.159606,0.159277,0.317491,60,0.0124273,10,5.05691e-05,-3.49827,-0.142337,-0.414508,0.159138,
2,1,0,1,0,39435.3,0.163602,0.163287,0.299981,60,0.012684,10,4.8983e-05,-3.52291,-0.182561,-0.32318,0.163155,
2,1,0,0,0,39436.1,0.167597,0.167284,0.288818,60,0.0129293,10,4.83145e-05,-3.53938,-0.300783,-0.196154,0.167157,
2,1,0,1,0,39436.9,0.171592,0.171289,0.279131,60,0.0131669,10,4.78119e-05,-3.55419,-0.313605,-0.188135,0.171166,
2,1,0,1,0,39437.7,0.175588,0.175244,0.272689,60,0.0133982,10,4.77872e-05,-3.56433,-0.524153,-0.112563,0.175124,
2,1,0,1,0,39438.5,0.179582,0.179223,0.268479,60,0.0136249,10,4.81175e-05,-3.57109,-0.64562,-0.091385,0.179104,
2,1,0,1,0,39439.3,0.183577,0.183291,0.265775,60,0.0138484,10,4.87141e-05,-3.57549,-0.586793,-0.100546,0.183174,
2,1,0,0,0,39440.1,0.187573,0.187262,0.261441,60,0.014069,10,4.89578e-05,-3.58263,-0.710735,-0.0830126,0.187147,
2,1,0,1,0,39440.9,0.191568,0.191234,0.259488,60,0.014287,10,4.9623e-05,-3.58588,-0.947969,-0.0622383,0.19112,
2,1,0,0,0,39441.7,0.195563,0.195245,0.256904,60,0.014503,10,5.01594e-05,-3.59023,-0.729344,-0.0808947,0.195132,
2,1,0,1,0,39442.5,0.199559,0.199235,0.25447,60,0.0147171,10,5.06993e-05,-3.59436,-1.98934,-0.029658,0.199123,
2,1,0,1,0,39443.3,0.203553,0.203197,0.252148,60,0.0149298,10,5.12357e-05,-3.59835,-2.06318,-0.0285966,0.203086,
2,1,0,1,0,39444.1,0.207548,0.207219,0.251122,60,0.0151411,10,5.20373e-05,-3.60012,-1.54715,-0.0381345,0.207109,
2,1,0,1,0,39444.9,0.211544,0.211213,0.249162,60,0.015351,10,5.26262e-05,-3.60352,-0.963854,-0.0612126,0.211103,
2,1,0,0,0,39445.7,0.215539,0.215194,0.247078,60,0.0155599,10,5.31698e-05,-3.60717,-6.88115,-0.00857415,0.215085,
2,1,0,1,0,39446.5,0.219535,0.219243,0.247132,60,0.0157675,10,5.4182e-05,-3.60707,-1.13175,-0.0521315,0.219134,
2,1,0,1,0,39447.3,0.223529,0.223212,0.245578,60,0.0159742,10,5.48159e-05,-3.60981,-6.23124,-0.00946842,0.223104,
2,1,0,1,0,39448.1,0.227524,0.227205,0.244223,60,0.0161799,10,5.54886e-05,-3.61221,-0.927964,-0.06358,0.227097,
2,1,0,1,0,39448.9,0.23152,0.231273,0.243636,60,0.0163849,10,5.63464e-05,-3.61326,4.17176,0.0141427,0.231166,
2,1,0,0,0,39449.7,0.235515,0.235212,0.242162,60,0.016589,10,5.69595e-05,-3.61589,-1.71544,-0.0343935,0.235106,
2,1,0,1,0,39450.5,0.23951,0.239162,0.242098,60,0.0167924,10,5.79006e-05,-3.61601,-4.23212,-0.013941,0.239056,
2,1,0,1,0,39451.3,0.243506,0.24321,0.240976,60,0.0169952,10,5.86077e-05,-3.61803,118.559,0.000497644,0.243104,
2,1,0,1,0,39452.1,0.2475,0.247213,0.239554,60,0.0171974,10,5.92208e-05,-3.6206,-1.15513,-0.0510765,0.247107,
2,1,0,1,0,39452.9,0.251495,0.251194,0.239909,60,0.0173986,10,6.02637e-05,-3.61995,-2.16379,-0.027267,0.251089,
2,1,0,0,0,39453.7,0.255491,0.255151,0.237922,60,0.0175992,10,6.07061e-05,-3.62357,-1.69398,-0.0348293,0.255046,
2,1,0,1,0,39454.5,0.259486,0.259191,0.237968,60,0.0177993,10,6.16792e-05,-3.62348,-13.4444,-0.00438845,0.259086,
2,1,0,0,0,39455.3,0.263481,0.263168,0.237262,60,0.0179988,10,6.24397e-05,-3.62477,-3.43069,-0.0171977,0.263063,
2,1,0,1,0,39456.1,0.267477,0.267117,0.23504,60,0.0181975,10,6.27831e-05,-3.62886,-2.13128,-0.0276829,0.267014,
2,1,0,1,0,39456.9,0.271471,0.271135,0.2362,60,0.0183956,10,6.40423e-05,-3.62672,-2.6347,-0.0223935,0.271032,
2,1,0,1,0,39457.7,0.275466,0.275096,0.23421,60,0.0185927,10,6.443e-05,-3.6304,-7.88357,-0.00748392,0.274992,
2,1,0,1,0,39458.5,0.279462,0.279156,0.233426,60,0.0187893,10,6.51623e-05,-3.63185,-2.3399,-0.0252147,0.279054,
2,1,0,0,0,39459.3,0.283457,0.283146,0.233336,60,0.0189848,10,6.60681e-05,-3.63202,-2.17164,-0.0271684,0.283043,
2,1,0,1,0,39460.1,0.287452,0.287113,0.232108,60,0.0191796,10,6.66412e-05,-3.63431,-1.40901,-0.0418735,0.287011,
2,1,0,1,0,39460.9,0.291448,0.291151,0.231196,60,0.0193738,10,6.73129e-05,-3.63602,-1.10834,-0.0532327,0.291049,
2,1,0,1,0,39461.7,0.295442,0.295153,0.230178,60,0.0195672,10,6.79376e-05,-3.63794,-15.0651,-0.00391635,0.295051,
2,1,0,1,0,39462.5,0.299437,0.299101,0.228214,60,0.0197602,10,6.82592e-05,-3.64166,-4.71302,-0.0125185,0.299001,
2,1,0,0,0,39463.3,0.303433,0.303139,0.228245,60,0.0199522,10,6.91898e-05,-3.6416,-3.6596,-0.016122,0.303038,
2,1,0,1,0,39464.1,0.307428,0.30708,0.226675,60,0.0201436,10,6.96075e-05,-3.6446,-1.51131,-0.039039,0.30698,
2,1,0,1,0,39464.9,0.311424,0.311122,0.227318,60,0.0203347,10,7.07235e-05,-3.64337,-6.72156,-0.00877773,0.311022,
2,1,0,1,0,39465.7,0.315418,0.315082,0.226702,60,0.020525,10,7.14297e-05,-3.64454,-349.555,-0.000168786,0.314982,
2,1,0,1,0,39466.5,0.319413,0.319057,0.226476,60,0.0207149,10,7.22587e-05,-3.64498,98.6468,0.000598093,0.318958,
2,1,0,0,0,39467.3,0.323409,0.323121,0.225596,60,0.0209043,10,7.28948e-05,-3.64667,-1.07443,-0.0549128,0.323022,
2,1,0,1,0,39468.1,0.327404,0.327107,0.224655,60,0.021093,10,7.34863e-05,-3.64848,13.0771,0.00451169,0.327008,
2,1,0,0,0,39468.9,0.331399,0.331075,0.223368,60,0.0212813,10,7.39515e-05,-3.65098,-2.69081,-0.0219265,0.330977,
2,1,0,1,0,39469.7,0.335395,0.335092,0.22303,60,0.0214692,10,7.47356e-05,-3.65164,-8.85084,-0.00666603,0.334994,
2,1,0,1,0,39470.5,0.339389,0.339057,0.222899,60,0.0216564,10,7.55754e-05,-3.65189,-3.52252,-0.0167494,0.338959,
2,1,0,1,0,39471.3,0.343384,0.343089,0.222108,60,0.0218432,10,7.62027e-05,-3.65344,-1.59755,-0.0369314,0.342991,
2,1,0,1,0,39472.1,0.34738,0.347056,0.222659,60,0.0220293,10,7.72752e-05,-3.65236,-1.4997,-0.0393411,0.346958,
2,1,0,0,0,39472.9,0.351375,0.351044,0.220433,60,0.0222149,10,7.73815e-05,-3.65672,4.74329,0.0124386,0.350947,
2,1,0,1,0,39473.7,0.35537,0.355077,0.220901,60,0.0224002,10,7.84368e-05,-3.6558,-1.40911,-0.0418703,0.35498,
2,1,0,1,0,39474.5,0.359366,0.359075,0.220222,60,0.0225851,10,7.90763e-05,-3.65714,1.46518,0.0402681,0.358978,
2,1,0,1,0,39475.3,0.36336,0.363052,0.220047,60,0.0227696,10,7.98884e-05,-3.65749,-1.09563,-0.0538501,0.362956,
2,1,0,1,0,39476.1,0.367355,0.367031,0.219676,60,0.0229534,10,8.06278e-05,-3.65822,4.74721,0.0124283,0.366934,
2,1,0,0,0,39476.9,0.371351,0.371032,0.218707,60,0.023137,10,8.11474e-05,-3.66014,-5.84473,-0.0100946,0.370936,
2,1,0,1,0,39477.7,0.375346,0.374999,0.218728,60,0.0233205,10,8.20228e-05,-3.6601,-10.9817,-0.00537256,0.374903,
2,1,0,1,0,39478.5,0.379342,0.379006,0.218479,60,0.0235035,10,8.2805e-05,-3.66059,-3.874,-0.0152297,0.37891,
2,1,0,1,0,39479.3,0.383336,0.383056,0.218293,60,0.0236862,10,8.36183e-05,-3.66096,-6.1953,-0.00952335,0.38296,
2,1,0,1,0,39480.1,0.387331,0.387051,0.218139,60,0.0238689,10,8.44307e-05,-3.66127,-2.8466,-0.0207265,0.386955,
2,1,0,0,0,39480.9,0.391327,0.391035,0.218186,60,0.0240513,10,8.53183e-05,-3.66117,1.92757,0.0306084,0.390939,
2,1,0,1,0,39481.7,0.395322,0.395001,0.216469,60,0.0242335,10,8.55055e-05,-3.6646,-1.27424,-0.0463021,0.394905,
2,1,0,0,0,39482.5,0.399317,0.399043,0.217133,60,0.0244152,10,8.66455e-05,-3.66327,3.88028,0.0152051,0.398947,
2,1,0,1,0,39483.3,0.403313,0.402943,0.217223,60,0.0245968,10,8.75287e-05,-3.66309,1159.75,5.0873e-05,0.402848,
2,1,0,1,0,39484.1,0.407307,0.406998,0.217368,60,0.0247782,10,8.84682e-05,-3.66281,-2.81943,-0.0209262,0.406902,
2,1,0,1,0,39484.9,0.411302,0.410985,0.21804,60,0.0249594,10,8.9611e-05,-3.66146,14.5569,0.00405307,0.410889,
2,1,0,1,0,39485.7,0.415298,0.415035,0.216462,60,0.0251406,10,8.98393e-05,-3.66462,12.6063,0.00468021,0.41494,
2,1,0,0,0,39486.5,0.419293,0.418972,0.21645,60,0.0253215,10,9.06866e-05,-3.66464,-1.07688,-0.0547879,0.418877,
2,1,0,1,0,39487.2,0.423288,0.423022,0.215555,60,0.025502,10,9.11844e-05,-3.66644,3.96562,0.0148779,0.422927,
2,1,0,1,0,39488,0.427283,0.426974,0.215375,60,0.0256825,10,9.19595e-05,-3.66681,-25.4455,-0.00231868,0.426879,
2,1,0,1,0,39488.8,0.431278,0.430966,0.215827,60,0.0258627,10,9.30141e-05,-3.66589,3.38695,0.0174198,0.430871,
2,1,0,1,0,39489.6,0.435273,0.434995,0.215558,60,0.0260428,10,9.37668e-05,-3.66644,-5.82837,-0.0101229,0.434901,
2,1,0,0,0,39490.4,0.439269,0.438944,0.216031,60,0.0262231,10,9.48253e-05,-3.66548,-15.8379,-0.00372524,0.438849,
2,1,0,1,0,39491.2,0.443264,0.442986,0.215645,60,0.0264031,10,9.55277e-05,-3.66626,11.4644,0.00514634,0.442891,
2,1,0,0,0,39492,0.447259,0.446928,0.216042,60,0.026583,10,9.65549e-05,-3.66546,-31.9449,-0.00184693,0.446833,
2,1,0,1,0,39492.8,0.451254,0.451002,0.215929,60,0.0267632,10,9.73845e-05,-3.66569,-4.2129,-0.0140046,0.450907,
2,1,0,1,0,39493.6,0.455249,0.454959,0.216511,60,0.0269434,10,9.85038e-05,-3.66452,1.74223,0.0338646,0.454864,
2,1,0,1,0,39494.4,0.459244,0.458977,0.215454,60,0.0271236,10,9.88884e-05,-3.66664,8.86452,0.00665575,0.458882,
2,1,0,1,0,39495.2,0.46324,0.462907,0.217023,60,0.0273041,10,0.000100461,-3.66349,11.7174,0.00503525,0.462811,
2,1,0,0,0,39496,0.467235,0.466933,0.216028,60,0.0274849,10,0.000100871,-3.66549,5.87885,0.010036,0.466838,
2,1,0,1,0,39496.8,0.471231,0.470914,0.217215,60,0.027666,10,0.000102289,-3.66311,2.2247,0.0265204,0.470818,
2,1,0,1,0,39497.6,0.475225,0.474908,0.21869,60,0.0278474,10,0.000103858,-3.66017,4.54409,0.0129839,0.474811,
2,1,0,1,0,39498.4,0.47922,0.478861,0.218738,60,0.0280291,10,0.000104745,-3.66008,2.76307,0.0213531,0.478764,
2,1,0,1,0,39499.2,0.483216,0.482926,0.21933,60,0.0282111,10,0.00010592,-3.6589,-3.70466,-0.0159259,0.48283,
2,1,0,0,0,39500,0.487211,0.486903,0.219823,60,0.0283936,10,0.000107033,-3.65793,1.80691,0.0326525,0.486806,
2,1,0,1,0,39500.8,0.491206,0.49091,0.219943,60,0.0285765,10,0.000107972,-3.65769,2.04559,0.0288425,0.490813,
2,1,0,1,0,39501.6,0.495201,0.494947,0.220989,60,0.0287598,10,0.000109378,-3.65563,3.04027,0.0194061,0.49485,
2,1,0,1,0,39502.4,0.499196,0.498868,0.221715,60,0.0289437,10,0.000110607,-3.6542,1.31698,0.0447995,0.49877,
2,1,0,1,0,39503.2,0.503191,0.502899,0.221774,60,0.0291283,10,0.00011153,-3.65409,8.87816,0.00664552,0.502801,
2,1,0,0,0,39504,0.507187,0.506913,0.223581,60,0.0293134,10,0.000113336,-3.65057,1.41713,0.0416333,0.506814,
2,1,0,1,0,39504.8,0.511182,0.510866,0.223491,60,0.0294992,10,0.000114174,-3.65074,3.21119,0.0183732,0.510768,
2,1,0,0,0,39505.6,0.515177,0.514878,0.225174,60,0.029686,10,0.000115937,-3.64748,6.81029,0.00866336,0.514779,
2,1,0,1,0,39506.4,0.519173,0.518898,0.226313,60,0.0298734,10,0.000117433,-3.64529,1.89978,0.0310561,0.518798,
2,1,0,1,0,39507.2,0.523167,0.522897,0.227627,60,0.0300618,10,0.000119026,-3.64278,1.43043,0.0412463,0.522797,
2,1,0,1,0,39508,0.527162,0.526851,0.228947,60,0.0302514,10,0.000120621,-3.64027,1.16243,0.0507558,0.526751,
2,1,0,1,0,39508.8,0.531158,0.530852,0.230353,60,0.030442,10,0.000122284,-3.63761,1.08515,0.0543702,0.530751,
2,1,0,0,0,39509.6,0.535153,0.534884,0.232307,60,0.0306338,10,0.000124257,-3.63394,1.3926,0.0423668,0.534782,
2,1,0,1,0,39510.4,0.539148,0.538831,0.234686,60,0.0308269,10,0.000126456,-3.62951,2.26261,0.0260761,0.538728,
2,1,0,1,0,39511.2,0.543143,0.542857,0.235304,60,0.0310216,10,0.000127737,-3.62837,1.10244,0.0535178,0.542754,
2,1,0,1,0,39512,0.547138,0.546812,0.238375,60,0.0312177,10,0.000130346,-3.62274,0.961462,0.0613649,0.546708,
2,1,0,1,0,39512.8,0.551133,0.550822,0.240958,60,0.0314154,10,0.000132725,-3.61806,0.626642,0.0941526,0.550716,
2,1,0,0,0,39513.6,0.555129,0.554833,0.241603,60,0.0316151,10,0.000134049,-3.6169,1.07063,0.0551078,0.554727,
2,1,0,1,0,39514.4,0.559124,0.558821,0.245899,60,0.0318168,10,0.000137413,-3.60924,0.827187,0.0713261,0.558712,
2,1,0,1,0,39515.2,0.56312,0.562811,0.247889,60,0.0320208,10,0.000139515,-3.60574,0.776865,0.0759463,0.562702,
2,1,0,1,0,39516,0.567114,0.566839,0.250743,60,0.0322272,10,0.000142131,-3.60077,0.983122,0.0600129,0.566729,
2,1,0,1,0,39516.8,0.571109,0.570814,0.253677,60,0.0324356,10,0.000144802,-3.59572,0.708749,0.0832452,0.570702,
2,1,0,0,0,39517.6,0.575105,0.574788,0.258396,60,0.0326468,10,0.000148523,-3.58771,0.502731,0.117359,0.574675,
2,1,0,1,0,39518.4,0.5791,0.578855,0.262898,60,0.0328614,10,0.00015218,-3.58021,0.662513,0.0890549,0.578739,
2,1,0,0,0,39519.2,0.583095,0.582775,0.266644,60,0.0330794,10,0.000155393,-3.57407,0.422725,0.139571,0.582658,
2,1,0,1,0,39520,0.58709,0.586803,0.271174,60,0.0333013,10,0.000159126,-3.56675,0.491173,0.120121,0.586684,
2,1,0,1,0,39520.8,0.591085,0.590812,0.278862,60,0.0335274,10,0.000164755,-3.55461,0.435287,0.135543,0.590689,
2,1,0,1,0,39521.6,0.59508,0.594796,0.284306,60,0.0337586,10,0.000169104,-3.54621,0.348761,0.169171,0.594671,
2,1,0,1,0,39522.4,0.599076,0.598781,0.291793,60,0.0339951,10,0.00017472,-3.53492,0.383297,0.153928,0.598653,
2,1,0,0,0,39523.2,0.603071,0.602762,0.300271,60,0.0342376,10,0.000180992,-3.52249,0.302676,0.194928,0.60263,
2,1,0,1,0,39524,0.607066,0.606781,0.308781,60,0.0344872,10,0.000187362,-3.51035,0.306218,0.192673,0.606645,
2,1,0,1,0,39524.8,0.611061,0.610775,0.318959,60,0.0347445,10,0.000194812,-3.49627,0.273241,0.215927,0.610634,
2,1,0,1,0,39525.6,0.615056,0.614764,0.330956,60,0.0350103,10,0.00020346,-3.48023,0.22795,0.258829,0.614619,
2,1,0,1,0,39526.4,0.619051,0.618762,0.344384,60,0.0352869,10,0.000213092,-3.46296,0.22066,0.26738,0.61861,
2,1,0,0,0,39527.2,0.623047,0.622728,0.360863,60,0.0355749,10,0.00022472,-3.44266,0.197251,0.299111,0.622569,
2,1,0,1,0,39528,0.627042,0.626776,0.378588,60,0.0358766,10,0.00023729,-3.42183,0.163933,0.359903,0.626609,
2,1,0,1,0,39528.8,0.631037,0.630752,0.400928,60,0.0361948,10,0.000252886,-3.39693,0.15756,0.37446,0.630575,
2,1,0,1,0,39529.6,0.635032,0.634735,0.426631,60,0.0365314,10,0.000270798,-3.36995,0.147997,0.398658,0.634548,
2,1,0,1,0,39530.4,0.639027,0.638721,0.45501,60,0.0368898,10,0.000290625,-3.34198,0.133123,0.4432,0.638521,
2,1,0,1,0,39531.2,0.643022,0.64273,0.489261,60,0.0372734,10,0.000314463,-3.31046,0.121187,0.486852,0.642515,
2,1,0,1,0,39532,0.647018,0.646758,0.528709,60,0.0376865,10,0.000341947,-3.27678,0.114053,0.517303,0.646525,
2,1,0,0,0,39532.8,0.651013,0.650725,0.574309,60,0.0381335,10,0.000373717,-3.24085,0.105562,0.558914,0.650472,
2,1,0,1,0,39533.6,0.655008,0.654709,0.629087,60,0.0386202,10,0.000411869,-3.20129,0.0958173,0.615756,0.654433,
2,1,0,1,0,39534.4,0.659003,0.658665,0.692459,60,0.0391544,10,0.000456098,-3.15961,0.0961638,0.613536,0.658361,
2,1,0,1,0,39535.2,0.662998,0.662727,0.766163,60,0.0397426,10,0.000507756,-3.11568,0.0880782,0.66986,0.662389,
2,1,0,1,0,39536,0.666994,0.666702,0.849922,60,0.040394,10,0.000566645,-3.07062,0.0843141,0.699764,0.666328,
2,1,0,0,0,39536.8,0.670989,0.670742,0.946819,60,0.0411178,10,0.000635072,-3.02373,0.0823992,0.716027,0.670326,
2,1,0,1,0,39537.6,0.674984,0.674701,1.05763,60,0.0419246,10,0.000713584,-2.97567,0.0838411,0.703712,0.674235,
2,1,0,1,0,39538.4,0.67898,0.678673,1.184,60,0.0428255,10,0.000803552,-2.92665,0.0799753,0.737727,0.678152,
2,1,0,1,0,39539.2,0.682974,0.682711,1.32552,60,0.0438336,10,0.000904944,-2.87762,0.0776014,0.760296,0.682128,
2,1,0,1,0,39540,0.686969,0.686689,1.48556,60,0.0449623,10,0.00102012,-2.82811,0.0801467,0.73615,0.686035,
2,1,0,0,0,39540.8,0.690965,0.690729,1.66226,60,0.0462255,10,0.00114817,-2.7793,0.0806836,0.731252,0.689998,
2,1,0,1,0,39541.6,0.69496,0.694681,1.85992,60,0.0476383,10,0.00129205,-2.73051,0.0819561,0.719897,0.693863,
2,1,0,0,0,39542.4,0.698955,0.698658,2.07345,60,0.0492152,10,0.00144863,-2.68331,0.0821821,0.717918,0.697745,
2,1,0,1,0,39543.2,0.70295,0.702668,2.30858,60,0.050972,10,0.00162216,-2.63666,0.0845334,0.697949,0.701652,
2,1,0,1,0,39544,0.706945,0.706676,2.56315,60,0.0529241,10,0.00181132,-2.59123,0.0873945,0.675099,0.705548,
2,1,0,1,0,39544.8,0.71094,0.710687,2.83733,60,0.0550874,10,0.00201645,-2.54709,0.088094,0.669739,0.709439,
2,1,0,1,0,39545.6,0.714936,0.714652,3.12959,60,0.0574774,10,0.00223657,-2.50451,0.0914426,0.645213,0.713275,
2,1,0,0,0,39546.4,0.718931,0.718656,3.44499,60,0.0601092,10,0.00247576,-2.46281,0.0943946,0.625036,0.71714,
2,1,0,1,0,39547.2,0.722927,0.72262,3.77749,60,0.0630003,10,0.00272969,-2.4228,0.0976989,0.603896,0.720958,
2,1,0,1,0,39548,0.726921,0.726661,4.13085,60,0.0661655,10,0.00300173,-2.38396,0.101761,0.579791,0.724843,
2,1,0,1,0,39548.8,0.730916,0.73064,4.50297,60,0.0696204,10,0.00329005,-2.3465,0.101815,0.57948,0.728659,
2,1,0,1,0,39549.6,0.734911,0.734634,4.89793,60,0.0733825,10,0.00359818,-2.30999,0.107304,0.54984,0.732479,
2,1,0,0,0,39550.4,0.738907,0.738624,5.31334,60,0.077468,10,0.00392456,-2.27463,0.110923,0.531901,0.736286,
2,1,0,1,0,39551.2,0.742902,0.742599,5.74858,60,0.0818925,10,0.00426889,-2.24044,0.110771,0.532633,0.740069,
2,1,0,1,0,39552,0.746897,0.746648,6.20517,60,0.0866745,10,0.00463308,-2.20725,0.117026,0.504163,0.743917,
2,1,0,1,0,39552.8,0.750892,0.750637,6.68579,60,0.0918299,10,0.0050186,-2.17485,0.117165,0.503563,0.747695,
2,1,0,1,0,39553.6,0.754887,0.754619,7.19449,60,0.0973795,10,0.0054291,-2.143,0.119098,0.495391,0.751454,
2,1,0,0,0,39554.4,0.758883,0.758618,7.72674,60,0.103347,10,0.00586164,-2.112,0.124665,0.473269,0.755218,
2,1,0,1,0,39555.2,0.762878,0.762609,8.28311,60,0.109747,10,0.00631677,-2.08181,0.123458,0.477896,0.758964,
2,1,0,0,0,39556,0.766873,0.766604,8.86894,60,0.116605,10,0.00679896,-2.05213,0.12752,0.462673,0.762702,
2,1,0,1,0,39556.8,0.770868,0.770619,9.48788,60,0.123945,10,0.00731154,-2.02283,0.127547,0.462574,0.766444,
2,1,0,1,0,39557.6,0.774863,0.774594,10.1386,60,0.131791,10,0.00785333,-1.99402,0.127852,0.461472,0.770133,
2,1,0,1,0,39558.4,0.778858,0.778579,10.822,60,0.140173,10,0.00842578,-1.96569,0.12951,0.455564,0.773817,
2,1,0,1,0,39559.2,0.782854,0.782572,11.56,60,0.14912,10,0.00904651,-1.93704,0.129278,0.456381,0.777485,
2,1,0,0,0,39560,0.786849,0.786549,12.3326,60,0.158673,10,0.00970021,-1.90894,0.128171,0.460323,0.781123,
2,1,0,1,0,39560.8,0.790844,0.790566,13.1674,60,0.168867,10,0.0104097,-1.8805,0.12918,0.456726,0.784772,
2,1,0,1,0,39561.6,0.794839,0.794535,14.0588,60,0.17975,10,0.0111702,-1.85205,0.126651,0.465848,0.78835,
2,1,0,1,0,39562.4,0.798834,0.798551,14.9984,60,0.191364,10,0.011977,-1.82396,0.126304,0.467126,0.791952,
2,1,0,1,0,39563.2,0.802829,0.802538,15.979,60,0.20375,10,0.0128238,-1.79645,0.128722,0.458351,0.795507,
2,1,0,0,0,39564,0.806825,0.806544,17.0577,60,0.216958,10,0.0137578,-1.76808,0.126699,0.465672,0.799039,
2,1,0,1,0,39564.8,0.81082,0.810542,18.1607,60,0.231034,10,0.01472,-1.74087,0.131168,0.449806,0.802551,
2,1,0,1,0,39565.6,0.814815,0.81452,19.2989,60,0.246004,10,0.0157194,-1.71447,0.134746,0.43786,0.806029,
2,1,0,1,0,39566.4,0.81881,0.81853,20.4693,60,0.261896,10,0.0167547,-1.6889,0.135567,0.43521,0.809524,
2,1,0,1,0,39567.2,0.822805,0.822537,21.7062,60,0.278756,10,0.0178542,-1.66342,0.135537,0.435306,0.812986,
2,1,0,0,0,39568,0.826801,0.826534,22.9654,60,0.296615,10,0.0189817,-1.63893,0.138678,0.425447,0.816429,
2,1,0,1,0,39568.8,0.830796,0.830542,24.3332,60,0.315521,10,0.0202097,-1.6138,0.157165,0.375401,0.819836,
2,1,0,0,0,39569.6,0.834791,0.834542,25.5619,60,0.335436,10,0.0213325,-1.59241,0.147399,0.400273,0.823295,
2,1,0,1,0,39570.3,0.838786,0.838554,26.9036,60,0.356411,10,0.0225601,-1.57019,0.159724,0.369387,0.826717,
2,1,0,1,0,39571.1,0.842781,0.842497,28.2761,60,0.378465,10,0.0238225,-1.54858,0.15532,0.379861,0.830056,
2,1,0,1,0,39571.9,0.846776,0.846574,29.6747,60,0.401625,10,0.0251219,-1.52761,0.1609,0.366687,0.833517,
2,1,0,0,0,39572.6,0.849723,0.84943,30.5629,60,0.42282,10,0.025961,-1.51481,0.0534729,1.10336,0.835983,
2,1,0,1,0,39573.4,0.845728,0.845465,28.675,60,0.446431,10,0.0242437,-1.5425,0.127273,0.463569,0.832848,
2,1,0,0,0,39574.2,0.841732,0.84152,27.0423,60,0.468675,10,0.0227567,-1.56796,0.135164,0.436507,0.829621,
2,1,0,1,0,39575,0.837737,0.837524,25.5365,60,0.489678,10,0.0213875,-1.59284,0.123446,0.477942,0.826288,
2,1,0,1,0,39575.8,0.833742,0.833519,24.0253,60,0.509459,10,0.0200255,-1.61933,0.128657,0.458585,0.822948,
2,1,0,1,0,39576.6,0.829747,0.829448,22.6171,60,0.528075,10,0.0187597,-1.64556,0.129978,0.453924,0.819497,
2,1,0,1,0,39577.4,0.825752,0.825545,21.2658,60,0.545594,10,0.0175558,-1.67232,0.125705,0.469354,0.816188,
2,1,0,0,0,39578.2,0.821757,0.821522,20,60,0.562064,10,0.0164305,-1.69897,0.132368,0.445728,0.812722,
2,1,0,1,0,39579,0.817761,0.817468,18.7973,60,0.577555,10,0.0153662,-1.7259,0.127456,0.462903,0.809197,
2,1,0,1,0,39579.8,0.813766,0.81349,17.6141,60,0.592093,10,0.0143289,-1.75414,0.11984,0.492323,0.80574,
2,1,0,1,0,39580.6,0.809771,0.809513,16.4734,60,0.605698,10,0.0133354,-1.78322,0.118723,0.496956,0.802264,
2,1,0,1,0,39581.4,0.805776,0.805494,15.3914,60,0.618413,10,0.0123976,-1.81272,0.119647,0.493118,0.798722,
2,1,0,0,0,39582.2,0.801781,0.801509,14.3861,60,0.630297,10,0.0115306,-1.84206,0.122109,0.483175,0.79518,
2,1,0,1,0,39583,0.797786,0.797546,13.4247,60,0.641397,10,0.0107068,-1.87209,0.114821,0.513845,0.791639,
2,1,0,1,0,39583.8,0.79379,0.793492,12.5871,60,0.651749,10,0.00998776,-1.90007,0.142917,0.412828,0.787954,
2,1,0,1,0,39584.6,0.789795,0.789497,11.7887,60,0.66149,10,0.00930713,-1.92853,0.119993,0.491693,0.78431,
2,1,0,1,0,39585.4,0.7858,0.7855,10.9718,60,0.670573,10,0.00861834,-1.95972,0.113892,0.518037,0.780672,
2,1,0,0,0,39586.2,0.781805,0.781542,10.1902,60,0.679018,10,0.00796405,-1.99182,0.114294,0.516215,0.777058,
2,1,0,1,0,39587,0.77781,0.777533,9.45066,60,0.686855,10,0.0073482,-2.02454,0.11104,0.531342,0.773374,
2,1,0,0,0,39587.8,0.773814,0.77355,8.75815,60,0.694118,10,0.00677486,-2.05759,0.110476,0.534054,0.769696,
2,1,0,1,0,39588.6,0.769819,0.769546,8.11181,60,0.700848,10,0.00624241,-2.09088,0.110222,0.535283,0.765977,
2,1,0,1,0,39589.4,0.765824,0.765541,7.50134,60,0.707075,10,0.00574258,-2.12486,0.110279,0.535007,0.76224,
2,1,0,1,0,39590.2,0.761829,0.76155,6.92807,60,0.71283,10,0.00527608,-2.15939,0.10707,0.551043,0.758502,
2,1,0,1,0,39591,0.757834,0.757555,6.39052,60,0.718142,10,0.00484117,-2.19446,0.106577,0.553592,0.754743,
2,1,0,0,0,39591.8,0.753839,0.753556,5.88232,60,0.723035,10,0.00443266,-2.23045,0.102566,0.57524,0.750968,
2,1,0,1,0,39592.6,0.749844,0.749588,5.40294,60,0.727536,10,0.00404998,-2.26737,0.103026,0.572671,0.74721,
2,1,0,1,0,39593.4,0.745848,0.745589,4.95532,60,0.731665,10,0.00369463,-2.30493,0.0991286,0.595187,0.743409,
2,1,0,1,0,39594.2,0.741853,0.741565,4.53212,60,0.735447,10,0.00336086,-2.3437,0.0978689,0.602847,0.739571,
2,1,0,1,0,39595,0.737858,0.737572,4.13748,60,0.738902,10,0.00305169,-2.38326,0.0950859,0.620492,0.735751,
2,1,0,0,0,39595.8,0.733863,0.733554,3.76448,60,0.74205,10,0.00276145,-2.4243,0.0912281,0.646731,0.731898,
2,1,0,1,0,39596.6,0.729868,0.729581,3.41359,60,0.744909,10,0.00249049,-2.46679,0.0897457,0.657413,0.728079,
2,1,0,1,0,39597.4,0.725872,0.725631,3.08636,60,0.747497,10,0.00223956,-2.51055,0.0868307,0.679483,0.724273,
2,1,0,1,0,39598.2,0.721877,0.721603,2.78117,60,0.749833,10,0.0020069,-2.55577,0.0831459,0.709596,0.720379,
2,1,0,1,0,39599,0.717882,0.71762,2.4962,60,0.751932,10,0.00179133,-2.60272,0.0818862,0.720512,0.716522,
2,1,0,0,0,39599.8,0.713887,0.713593,2.23099,60,0.753812,10,0.00159202,-2.6515,0.0774687,0.761598,0.712612,
2,1,0,1,0,39600.6,0.709892,0.709637,1.98418,60,0.755487,10,0.00140805,-2.70242,0.0750147,0.786513,0.708764,
2,1,0,0,0,39601.4,0.705897,0.705646,1.75523,60,0.756973,10,0.00123857,-2.75567,0.0715066,0.825098,0.704873,
2,1,0,1,0,39602.2,0.701901,0.701609,1.54472,60,0.758282,10,0.00108379,-2.81115,0.0691268,0.853504,0.70093,
2,1,0,1,0,39603,0.697906,0.697614,1.35042,60,0.759431,10,0.000942074,-2.86953,0.065726,0.897666,0.69702,
2,1,0,1,0,39603.8,0.693911,0.693634,1.17481,60,0.760432,10,0.00081489,-2.93003,0.0622294,0.948105,0.693117,
2,1,0,1,0,39604.6,0.689916,0.689618,1.01478,60,0.761299,10,0.000699808,-2.99363,0.0603507,0.97762,0.689171,
2,1,0,0,0,39605.4,0.685921,0.685615,0.870011,60,0.762044,10,0.000596492,-3.06048,0.0582326,1.01318,0.685232,
2,1,0,1,0,39606.2,0.681926,0.681629,0.739076,60,0.762679,10,0.000503776,-3.13131,0.0534816,1.10318,0.681304,
2,1,0,1,0,39607,0.67793,0.677612,0.622503,60,0.763215,10,0.000421816,-3.20586,0.0558984,1.05549,0.677339,
2,1,0,1,0,39607.8,0.673935,0.67367,0.526271,60,0.76367,10,0.000354533,-3.27879,0.0489964,1.20417,0.673439,
2,1,0,1,0,39608.6,0.66994,0.669642,0.435434,60,0.764046,10,0.000291585,-3.36108,0.045494,1.29687,0.66945,
2,1,0,0,0,39609.4,0.665945,0.665681,0.353302,60,0.764353,10,0.000235186,-3.45185,0.0442313,1.3339,0.665526,
2,1,0,1,0,39610.2,0.66195,0.661671,0.283752,60,0.7646,10,0.00018775,-3.54706,0.0380885,1.54902,0.661546,
2,1,0,0,0,39611,0.657955,0.657701,0.222549,60,0.764794,10,0.000146371,-3.65257,0.0372029,1.5859,0.657604,
2,1,0,1,0,39611.8,0.653959,0.653648,0.170511,60,0.764944,10,0.000111454,-3.76825,0.0322777,1.82789,0.653573,
2,1,0,1,0,39612.6,0.649964,0.649716,0.125348,60,0.765056,10,8.14404e-05,-3.90188,0.0270795,2.17877,0.64966,
2,1,0,1,0,39613.4,0.64597,0.645693,0.0873601,60,0.765134,10,5.64078e-05,-4.05869,0.0228662,2.58023,0.645654,
2,1,0,1,0,39614.2,0.641974,0.6417,0.0556461,60,0.765184,10,3.57081e-05,-4.25457,0.0165478,3.56543,0.641675,
2,1,0,0,0,39615,0.637979,0.637693,0.0281539,60,0.765209,10,1.79535e-05,-4.55046,0.00907681,6.50008,0.63768,
2,1,0,1,0,39615.8,0.633983,0.633698,0.00452277,60,0.765215,10,2.86607e-06,-5.3446,0.00872044,6.76572,0.633696,
2,0,0,1,0,39616.6,0.629988,0.629685,-0.014609,60,0.765204,10,-9.19905e-06,-4.83538,-0.00611117,-9.65446,0.629692,
2,0,0,1,0,39617.4,0.625993,0.625723,-0.0304372,60,0.765178,10,-1.90452e-05,-4.5166,-0.0184728,-3.19389,0.625736,
2,0,0,1,0,39618.2,0.621998,0.621726,-0.0435307,60,0.765142,10,-2.70642e-05,-4.3612,-0.036078,-1.63535,0.621745,
2,0,0,0,0,39619,0.618003,0.617705,-0.0542711,60,0.765095,10,-3.35235e-05,-4.26543,-0.0450335,-1.31014,0.617729,
2,0,0,1,0,39619.8,0.614008,0.613703,-0.064053,60,0.76504,10,-3.93095e-05,-4.19346,-0.0838017,-0.704043,0.613731,
2,0,0,1,0,39620.6,0.610012,0.609706,-0.0724525,60,0.764979,10,-4.41747e-05,-4.13995,-0.0886183,-0.665777,0.609738,
2,0,0,1,0,39621.4,0.606017,0.605739,-0.0780522,60,0.764911,10,-4.72793e-05,-4.10762,-0.110815,-0.532417,0.605774,
2,0,0,1,0,39622.2,0.602022,0.601716,-0.0851037,60,0.764839,10,-5.12083e-05,-4.07005,-0.131944,-0.44716,0.601754,
2,0,0,0,0,39623,0.598027,0.597725,-0.0901613,60,0.764761,10,-5.38916e-05,-4.04498,-0.189896,-0.310696,0.597765,
2,0,0,1,0,39623.8,0.594032,0.593749,-0.0940025,60,0.764681,10,-5.58139e-05,-4.02686,-0.201442,-0.292888,0.593791,
2,0,0,0,0,39624.6,0.590037,0.589745,-0.0984253,60,0.764597,10,-5.80458e-05,-4.00689,-0.317197,-0.186004,0.589789,
2,0,0,1,0,39625.4,0.586041,0.585727,-0.101462,60,0.76451,10,-5.94291e-05,-3.9937,-0.27769,-0.212467,0.585772,
2,0,0,1,0,39626.2,0.582046,0.581725,-0.104259,60,0.764421,10,-6.065e-05,-3.98189,-0.323441,-0.182414,0.581771,
2,0,0,1,0,39627,0.578052,0.577802,-0.106549,60,0.76433,10,-6.15639e-05,-3.97245,-0.533922,-0.110503,0.577848,
2,0,0,1,0,39627.8,0.574056,0.57375,-0.106981,60,0.764237,10,-6.13802e-05,-3.97069,-0.451624,-0.13064,0.573797,
2,0,0,0,0,39628.6,0.570061,0.569768,-0.109766,60,0.764143,10,-6.25414e-05,-3.95953,-0.740166,-0.0797118,0.569817,
2,0,0,1,0,39629.4,0.566065,0.565743,-0.111941,60,0.764047,10,-6.33299e-05,-3.95101,-0.608363,-0.0969815,0.565792,
2,0,0,1,0,39630.2,0.56207,0.561724,-0.11323,60,0.76395,10,-6.3604e-05,-3.94604,-0.717125,-0.0822729,0.561774,
2,0,0,1,0,39631,0.558075,0.557772,-0.11443,60,0.763852,10,-6.38257e-05,-3.94146,-2.47472,-0.0238411,0.557822,
2,0,0,1,0,39631.8,0.55408,0.553829,-0.115276,60,0.763753,10,-6.38432e-05,-3.93826,-0.37976,-0.155361,0.553879,
2,0,0,0,0,39632.6,0.550085,0.549793,-0.117571,60,0.763653,10,-6.46398e-05,-3.9297,-1.68672,-0.034979,0.549845,
2,0,0,1,0,39633.4,0.54609,0.545799,-0.118655,60,0.763552,10,-6.47616e-05,-3.92572,-1.91888,-0.0307472,0.545851,
2,0,0,1,0,39634.2,0.542094,0.541764,-0.118537,60,0.76345,10,-6.42188e-05,-3.92615,-0.826739,-0.0713647,0.541816,
2,0,0,1,0,39635,0.538099,0.537788,-0.119882,60,0.763348,10,-6.44712e-05,-3.92125,-5.5794,-0.0105746,0.537841,
2,0,0,1,0,39635.8,0.534104,0.533806,-0.120218,60,0.763244,10,-6.41729e-05,-3.92003,-0.797195,-0.0740095,0.533859,
2,0,0,0,0,39636.6,0.530109,0.529819,-0.121817,60,0.76314,10,-6.4541e-05,-3.91429,-0.90557,-0.0651523,0.529872,
2,0,0,1,0,39637.4,0.526114,0.525774,-0.123518,60,0.763035,10,-6.49424e-05,-3.90827,-1.18201,-0.049915,0.525828,
2,0,0,0,0,39638.2,0.522119,0.521821,-0.123531,60,0.76293,10,-6.4461e-05,-3.90822,-0.860805,-0.0685405,0.521875,
2,0,0,1,0,39639,0.518123,0.517849,-0.124979,60,0.762823,10,-6.47203e-05,-3.90316,-1.1009,-0.0535926,0.517904,
2,0,0,1,0,39639.8,0.514128,0.513832,-0.125905,60,0.762716,10,-6.46941e-05,-3.89996,-12.9587,-0.00455293,0.513887,
2,0,0,1,0,39640.6,0.510133,0.509795,-0.125528,60,0.762608,10,-6.39936e-05,-3.90126,-0.685574,-0.0860592,0.50985,
2,0,0,1,0,39641.4,0.506138,0.505829,-0.127871,60,0.762499,10,-6.4681e-05,-3.89323,4.74774,0.012427,0.505885,
2,0,0,0,0,39642.2,0.502143,0.501843,-0.129184,60,0.762389,10,-6.48303e-05,-3.88879,-0.536465,-0.109979,0.5019,
2,0,0,1,0,39643,0.498148,0.497787,-0.130421,60,0.762278,10,-6.4922e-05,-3.88465,-2.64258,-0.0223266,0.497844,
2,0,0,1,0,39643.8,0.494152,0.493873,-0.130681,60,0.762166,10,-6.454e-05,-3.88379,-1.59954,-0.0368856,0.49393,
2,0,0,1,0,39644.6,0.490157,0.489833,-0.132155,60,0.762054,10,-6.47336e-05,-3.87892,-0.668647,-0.0882378,0.489891,
2,0,0,1,0,39645.4,0.486162,0.485865,-0.132881,60,0.76194,10,-6.45623e-05,-3.87654,-1.33969,-0.0440399,0.485924,
2,0,0,0,0,39646.2,0.482167,0.481853,-0.134061,60,0.761826,10,-6.45976e-05,-3.8727,-2.14086,-0.027559,0.481912,
2,0,0,1,0,39647,0.478172,0.47787,-0.134935,60,0.761711,10,-6.44816e-05,-3.86987,-0.698127,-0.0845118,0.47793,
2,0,0,0,0,39647.8,0.474177,0.473836,-0.137008,60,0.761595,10,-6.49192e-05,-3.86326,-2.33668,-0.0252495,0.473897,
2,0,0,1,0,39648.6,0.470181,0.469881,-0.137975,60,0.761477,10,-6.48317e-05,-3.8602,-0.549713,-0.107329,0.469942,
2,0,0,1,0,39649.4,0.466186,0.46589,-0.139701,60,0.761359,10,-6.50852e-05,-3.8548,-1.34116,-0.0439919,0.465952,
2,0,0,1,0,39650.2,0.462191,0.461852,-0.140812,60,0.761239,10,-6.50343e-05,-3.85136,-0.814232,-0.0724609,0.461914,
2,0,0,1,0,39651,0.458196,0.457912,-0.141695,60,0.761119,10,-6.48837e-05,-3.84865,-0.643287,-0.0917164,0.457975,
2,0,0,0,0,39651.8,0.454201,0.45394,-0.143361,60,0.760997,10,-6.50774e-05,-3.84357,-1.16202,-0.0507738,0.454003,
2,0,0,1,0,39652.6,0.450205,0.449887,-0.145163,60,0.760873,10,-6.53067e-05,-3.83815,-0.797501,-0.0739811,0.449951,
2,0,0,1,0,39653.3,0.44621,0.445924,-0.146661,60,0.760749,10,-6.53998e-05,-3.83368,-0.735375,-0.0802311,0.445989,
2,0,0,1,0,39654.1,0.442215,0.441907,-0.148529,60,0.760623,10,-6.5636e-05,-3.82819,-1.70338,-0.034637,0.441972,
2,0,0,1,0,39654.9,0.43822,0.437937,-0.15006,60,0.760496,10,-6.5717e-05,-3.82373,-0.583998,-0.101028,0.438003,
2,0,0,0,0,39655.7,0.434225,0.43394,-0.1516,60,0.760367,10,-6.57853e-05,-3.8193,-1.01626,-0.0580562,0.434006,
2,0,0,1,0,39656.5,0.43023,0.429905,-0.152701,60,0.760238,10,-6.56471e-05,-3.81616,-0.857162,-0.0688318,0.429972,
2,0,0,1,0,39657.3,0.426234,0.425941,-0.155397,60,0.760106,10,-6.61898e-05,-3.80856,-0.647954,-0.0910559,0.426009,
2,0,0,1,0,39658.1,0.422239,0.421928,-0.157078,60,0.759973,10,-6.62757e-05,-3.80388,-1.09181,-0.0540387,0.421998,
2,0,0,1,0,39658.9,0.418244,0.417938,-0.158481,60,0.759839,10,-6.62351e-05,-3.80002,-0.663666,-0.0889002,0.418008,
2,0,0,0,0,39659.7,0.414249,0.413947,-0.159964,60,0.759704,10,-6.62167e-05,-3.79598,-1.16873,-0.0504824,0.414017,
2,0,0,1,0,39660.5,0.410254,0.409914,-0.162561,60,0.759566,10,-6.66362e-05,-3.78898,-0.766143,-0.0770091,0.409986,
2,0,0,0,0,39661.3,0.406259,0.405934,-0.1642,60,0.759427,10,-6.66542e-05,-3.78463,-0.809435,-0.0728904,0.406007,
2,0,0,1,0,39662.1,0.402263,0.401925,-0.165096,60,0.759287,10,-6.6356e-05,-3.78226,-0.586752,-0.100554,0.401997,
2,0,0,1,0,39662.9,0.398268,0.397927,-0.168476,60,0.759145,10,-6.70411e-05,-3.77346,-0.706255,-0.0835393,0.398001,
2,0,0,1,0,39663.7,0.394274,0.393957,-0.169719,60,0.759001,10,-6.6862e-05,-3.77027,-2.45867,-0.0239967,0.394031,
2,0,0,1,0,39664.5,0.390278,0.389984,-0.1721,60,0.758856,10,-6.71164e-05,-3.76422,-0.818569,-0.072077,0.390059,
2,0,0,0,0,39665.3,0.386283,0.385958,-0.173543,60,0.75871,10,-6.69805e-05,-3.76059,-0.614056,-0.0960825,0.386035,
2,0,0,1,0,39666.1,0.382287,0.381975,-0.175587,60,0.758561,10,-6.70698e-05,-3.75551,-1.28421,-0.0459428,0.382052,
2,0,0,1,0,39666.9,0.378292,0.377949,-0.178633,60,0.758411,10,-6.75141e-05,-3.74804,-0.69918,-0.0843845,0.378028,
2,0,0,1,0,39667.7,0.374297,0.373967,-0.179326,60,0.758259,10,-6.70621e-05,-3.74636,-0.451,-0.13082,0.374045,
2,0,0,1,0,39668.5,0.370303,0.369983,-0.181691,60,0.758105,10,-6.72225e-05,-3.74067,-22.8416,-0.00258301,0.370063,
2,0,0,0,0,39669.3,0.366307,0.366003,-0.183977,60,0.757949,10,-6.73362e-05,-3.73524,-0.484771,-0.121707,0.366084,
2,0,0,1,0,39670.1,0.362312,0.361973,-0.187102,60,0.757792,10,-6.77258e-05,-3.72792,-1.01015,-0.0584072,0.362055,
2,0,0,1,0,39670.9,0.358316,0.358002,-0.188293,60,0.757633,10,-6.74093e-05,-3.72517,-0.884285,-0.0667206,0.358084,
2,0,0,1,0,39671.7,0.354321,0.353979,-0.190527,60,0.757473,10,-6.74427e-05,-3.72004,-0.601827,-0.0980348,0.354063,
2,0,0,1,0,39672.5,0.350327,0.350035,-0.192124,60,0.75731,10,-6.72501e-05,-3.71642,-0.91905,-0.0641967,0.35012,
2,0,0,0,0,39673.3,0.346331,0.346021,-0.195347,60,0.757145,10,-6.75941e-05,-3.70919,-0.962369,-0.0613071,0.346107,
2,0,0,1,0,39674.1,0.342336,0.342038,-0.19667,60,0.756979,10,-6.72686e-05,-3.70626,-0.716768,-0.082314,0.342124,
2,0,0,0,0,39674.9,0.338341,0.338017,-0.200122,60,0.756811,10,-6.76448e-05,-3.6987,-0.785052,-0.0751543,0.338106,
2,0,0,1,0,39675.7,0.334345,0.333986,-0.202427,60,0.756641,10,-6.7608e-05,-3.69373,-0.838408,-0.0703715,0.334076,
2,0,0,1,0,39676.5,0.33035,0.330025,-0.204279,60,0.756468,10,-6.74171e-05,-3.68978,-0.61226,-0.0963642,0.330115,
2,0,0,1,0,39677.3,0.326355,0.326026,-0.207281,60,0.756294,10,-6.75791e-05,-3.68344,-0.849282,-0.0694705,0.326117,
2,0,0,1,0,39678.1,0.32236,0.322082,-0.208828,60,0.756118,10,-6.72598e-05,-3.68021,-0.889187,-0.0663527,0.322174,
2,0,0,0,0,39678.9,0.318365,0.318052,-0.210945,60,0.755939,10,-6.70917e-05,-3.67583,-0.549399,-0.10739,0.318145,
2,0,0,1,0,39679.7,0.31437,0.314067,-0.21415,60,0.755759,10,-6.72574e-05,-3.66928,-7.44322,-0.00792668,0.314161,
2,0,0,1,0,39680.5,0.310374,0.310036,-0.216466,60,0.755577,10,-6.71122e-05,-3.66461,-0.579052,-0.101891,0.310132,
2,0,0,1,0,39681.3,0.306379,0.30606,-0.219736,60,0.755393,10,-6.72525e-05,-3.6581,-0.737809,-0.0799665,0.306157,
2,0,0,1,0,39682.1,0.302385,0.302068,-0.221271,60,0.755207,10,-6.68388e-05,-3.65508,-0.855754,-0.0689451,0.302165,
2,0,0,0,0,39682.9,0.298389,0.2981,-0.223828,60,0.755019,10,-6.67231e-05,-3.65009,-0.667259,-0.0884215,0.298198,
2,0,0,1,0,39683.7,0.294394,0.294084,-0.226827,60,0.754829,10,-6.67062e-05,-3.6443,-1.20257,-0.0490617,0.294184,
2,0,0,1,0,39684.5,0.290398,0.290077,-0.229465,60,0.754637,10,-6.65624e-05,-3.63928,-0.775664,-0.0760639,0.290178,
2,0,0,1,0,39685.3,0.286403,0.286113,-0.23061,60,0.754443,10,-6.59804e-05,-3.63712,-0.985141,-0.0598899,0.286214,
2,0,0,1,0,39686.1,0.282408,0.282078,-0.233986,60,0.754247,10,-6.60022e-05,-3.63081,-0.689953,-0.085513,0.282181,
2,0,0,1,0,39686.9,0.278414,0.278086,-0.237537,60,0.754048,10,-6.60555e-05,-3.62427,-0.931693,-0.0633255,0.27819,
2,0,0,1,0,39687.7,0.274418,0.274108,-0.239292,60,0.753848,10,-6.55917e-05,-3.62107,-0.718276,-0.0821411,0.274213,
2,0,0,0,0,39688.5,0.270423,0.270118,-0.242241,60,0.753646,10,-6.54334e-05,-3.61575,-0.876452,-0.0673169,0.270224,
2,0,0,1,0,39689.3,0.266427,0.266082,-0.244479,60,0.753442,10,-6.50515e-05,-3.61176,-1.50292,-0.0392568,0.26619,
2,0,0,1,0,39690.1,0.262432,0.262122,-0.246641,60,0.753236,10,-6.46501e-05,-3.60793,-0.795738,-0.074145,0.262231,
2,0,0,1,0,39690.9,0.258437,0.258127,-0.249012,60,0.753027,10,-6.42767e-05,-3.60378,-0.945679,-0.062389,0.258236,
2,0,0,1,0,39691.7,0.254442,0.254136,-0.250608,60,0.752817,10,-6.36885e-05,-3.60101,-1.05017,-0.0561816,0.254246,
2,0,0,0,0,39692.5,0.250447,0.250068,-0.253546,60,0.752605,10,-6.34039e-05,-3.59594,-1.40447,-0.0420086,0.25018,
2,0,0,1,0,39693.3,0.246452,0.246108,-0.255851,60,0.752391,10,-6.29669e-05,-3.59201,-0.529619,-0.111401,0.24622,
2,0,0,1,0,39694.1,0.242456,0.242118,-0.259335,60,0.752175,10,-6.27897e-05,-3.58614,-3.17254,-0.0185971,0.242232,
2,0,0,1,0,39694.9,0.238461,0.238092,-0.260943,60,0.751957,10,-6.21285e-05,-3.58345,-0.709817,-0.08312,0.238207,
2,0,0,1,0,39695.7,0.234467,0.234205,-0.263828,60,0.751738,10,-6.17899e-05,-3.57868,-1.02712,-0.0574423,0.234321,
2,0,0,0,0,39696.5,0.230471,0.230159,-0.266136,60,0.751516,10,-6.12537e-05,-3.5749,-1.56393,-0.0377254,0.230276,
2,0,0,1,0,39697.3,0.226476,0.226141,-0.269072,60,0.751292,10,-6.08483e-05,-3.57013,-0.640171,-0.0921629,0.22626,
2,0,0,0,0,39698.1,0.222481,0.22219,-0.269615,60,0.751067,10,-5.99059e-05,-3.56926,-2.79934,-0.0210764,0.222309,
2,0,0,1,0,39698.9,0.218485,0.218179,-0.274039,60,0.750839,10,-5.97893e-05,-3.56219,-1.0123,-0.0582833,0.218299,
2,0,0,1,0,39699.7,0.21449,0.214124,-0.275748,60,0.750609,10,-5.90442e-05,-3.55949,-0.548425,-0.107581,0.214245,
2,0,0,1,0,39700.5,0.210496,0.210188,-0.27858,60,0.750377,10,-5.85541e-05,-3.55505,-1.45231,-0.0406249,0.210311,
2,0,0,1,0,39701.3,0.2065,0.206155,-0.282691,60,0.750142,10,-5.8278e-05,-3.54869,-0.668092,-0.0883111,0.206279,
2,0,0,0,0,39702.1,0.202505,0.20217,-0.285857,60,0.749906,10,-5.77918e-05,-3.54385,-1.18772,-0.049675,0.202296,
2,0,0,1,0,39702.9,0.198509,0.198164,-0.288617,60,0.749666,10,-5.71935e-05,-3.53968,-0.724982,-0.0813813,0.198291,
2,0,0,1,0,39703.7,0.194514,0.194172,-0.292066,60,0.749424,10,-5.6711e-05,-3.53452,-0.643331,-0.0917102,0.194301,
2,0,0,1,0,39704.5,0.190519,0.190194,-0.295119,60,0.749178,10,-5.61298e-05,-3.53,-0.754927,-0.0781533,0.190324,
2,0,0,1,0,39705.3,0.186524,0.186187,-0.299419,60,0.74893,10,-5.5748e-05,-3.52372,-0.818672,-0.072068,0.186319,
2,0,0,0,0,39706.1,0.182529,0.18224,-0.304018,60,0.748678,10,-5.54041e-05,-3.5171,-0.49477,-0.119247,0.182373,
2,0,0,1,0,39706.9,0.178534,0.178203,-0.309486,60,0.748422,10,-5.51513e-05,-3.50936,-0.521332,-0.113172,0.178339,
2,0,0,1,0,39707.7,0.174538,0.174163,-0.316517,60,0.748161,10,-5.51256e-05,-3.4996,-0.513443,-0.11491,0.174302,
2,0,0,1,0,39708.5,0.170543,0.170219,-0.322115,60,0.747895,10,-5.483e-05,-3.49199,-0.343079,-0.171972,0.17036,
2,0,0,1,0,39709.3,0.166549,0.166204,-0.331016,60,0.747623,10,-5.50163e-05,-3.48015,-0.333115,-0.177116,0.16635,
2,0,0,0,0,39710.1,0.162553,0.162214,-0.340839,60,0.747344,10,-5.52888e-05,-3.46745,-0.300501,-0.196339,0.162364,
2,0,0,1,0,39710.9,0.158558,0.158236,-0.351971,60,0.747056,10,-5.56945e-05,-3.45349,-0.218048,-0.270583,0.158391,
2,0,0,0,0,39711.7,0.154563,0.154214,-0.36995,60,0.746756,10,-5.70516e-05,-3.43186,-0.209661,-0.281407,0.154377,
2,0,0,1,0,39712.5,0.150567,0.150269,-0.390115,60,0.746443,10,-5.86222e-05,-3.40881,-0.139995,-0.421443,0.150441,
2,0,0,1,0,39713.3,0.146572,0.146238,-0.417674,60,0.746109,10,-6.10797e-05,-3.37916,-0.121374,-0.486099,0.146422,
2,0,0,1,0,39714.1,0.142578,0.142257,-0.454371,60,0.74575,10,-6.46377e-05,-3.34259,-0.0983743,-0.59975,0.142457,
2,0,0,1,0,39714.9,0.138582,0.138244,-0.499109,60,0.745357,10,-6.8999e-05,-3.3018,-0.094684,-0.623125,0.138464,
2,0,0,0,0,39715.7,0.134587,0.134216,-0.5494,60,0.744926,10,-7.37382e-05,-3.26011,-0.100034,-0.589799,0.134458,
2,0,0,1,0,39716.5,0.130591,0.130267,-0.600458,60,0.744455,10,-7.82195e-05,-3.22152,-0.117254,-0.503183,0.130531,
2,0,0,1,0,39717.3,0.126596,0.126224,-0.640346,60,0.743946,10,-8.08273e-05,-3.19359,-0.162189,-0.363774,0.126506,
2,0,0,1,0,39718.1,0.122602,0.122275,-0.672827,60,0.743408,10,-8.22698e-05,-3.1721,-0.246327,-0.239519,0.122571,
2,0,0,1,0,39718.9,0.118607,0.118297,-0.692109,60,0.742851,10,-8.18741e-05,-3.15983,-0.438768,-0.134467,0.118601,
2,0,0,0,0,39719.7,0.114611,0.114292,-0.701844,60,0.742281,10,-8.02151e-05,-3.15376,-1.58499,-0.0372243,0.114601,
2,0,0,1,0,39720.5,0.110616,0.110258,-0.703688,60,0.741708,10,-7.75873e-05,-3.15262,-7.31807,-0.00806224,0.110568,
2,0,0,1,0,39721.3,0.10662,0.106331,-0.699687,60,0.741135,10,-7.43985e-05,-3.1551,2.46885,0.0238977,0.106639,
2,0,0,1,0,39722.1,0.102625,0.102305,-0.696487,60,0.740565,10,-7.12542e-05,-3.15709,0.788008,0.0748724,0.102612,
2,0,0,1,0,39722.9,0.0986305,0.0982852,-0.690761,60,0.739999,10,-6.78916e-05,-3.16067,1.25553,0.0469922,0.0985892,
2,0,0,0,0,39723.7,0.0946351,0.0942905,-0.680358,60,0.739438,10,-6.41513e-05,-3.16726,0.833222,0.0708095,0.0945899,
2,0,0,1,0,39724.5,0.0906399,0.0902832,-0.674259,60,0.738884,10,-6.08743e-05,-3.17117,0.500296,0.11793,0.0905799,
2,0,0,0,0,39725.3,0.0866448,0.0862569,-0.664401,60,0.738338,10,-5.73091e-05,-3.17757,0.820635,0.0718956,0.0865492,
2,0,0,1,0,39726.1,0.0826492,0.0823278,-0.656102,60,0.737799,10,-5.40155e-05,-3.18303,0.664601,0.0887751,0.0826165,
2,0,0,1,0,39726.9,0.0786544,0.0783303,-0.647224,60,0.737268,10,-5.06973e-05,-3.18895,0.668476,0.0882604,0.0786151,
2,0,0,1,0,39727.7,0.0746596,0.0743574,-0.637728,60,0.736744,10,-4.74198e-05,-3.19536,0.644858,0.0914931,0.074638,
2,0,0,1,0,39728.5,0.0706641,0.0703221,-0.62771,60,0.736227,10,-4.41419e-05,-3.20224,0.662276,0.0890867,0.0705983,
2,0,0,0,0,39729.3,0.0666689,0.0663467,-0.620216,60,0.735717,10,-4.11493e-05,-3.20746,0.7295,0.0808773,0.0666196,
2,0,0,1,0,39730.1,0.0626737,0.0623299,-0.608568,60,0.735213,10,-3.7932e-05,-3.21569,0.609066,0.0968696,0.0625976,
2,0,0,1,0,39730.9,0.0586783,0.0583319,-0.602181,60,0.734717,10,-3.51263e-05,-3.22027,0.466973,0.126346,0.0585969,
2,0,0,1,0,39731.7,0.0546835,0.0543186,-0.592188,60,0.734228,10,-3.21668e-05,-3.22754,0.938498,0.0628664,0.0545792,
2,0,0,1,0,39732.5,0.0506886,0.0503774,-0.582819,60,0.733747,10,-2.93609e-05,-3.23447,0.496324,0.118874,0.0506338,
2,0,0,0,0,39733.3,0.046693,0.0463633,-0.573831,60,0.733274,10,-2.66047e-05,-3.24122,0.489215,0.120601,0.0466158,
2,0,0,1,0,39734.1,0.0426979,0.0423571,-0.56167,60,0.732809,10,-2.37907e-05,-3.25052,0.537818,0.109702,0.0426042,
2,0,0,1,0,39734.9,0.0387022,0.0383472,-0.552178,60,0.732352,10,-2.11745e-05,-3.25792,0.405915,0.145351,0.0385902,
2,0,0,1,0,39735.7,0.0347074,0.0343425,-0.541873,60,0.731904,10,-1.86093e-05,-3.2661,0.542654,0.108725,0.0345809,
2,0,0,1,0,39736.4,0.0307126,0.0303832,-0.530654,60,0.731465,10,-1.6123e-05,-3.27519,0.607129,0.0971787,0.0306167,
2,0,0,0,0,39737.2,0.0267172,0.0264096,-0.523371,60,0.731032,10,-1.3822e-05,-3.28119,0.487759,0.120961,0.0266399,
2,0,0,1,0,39738,0.022722,0.0224257,-0.515237,60,0.730606,10,-1.15545e-05,-3.28799,0.745623,0.0791284,0.0226524,
2,0,0,0,0,39738.8,0.0187268,0.018393,-0.509099,60,0.730186,10,-9.36384e-06,-3.2932,0.863878,0.0682967,0.018617,
2,0,0,1,0,39739.6,0.0147313,0.0144087,-0.504093,60,0.729771,10,-7.26334e-06,-3.29749,0.966772,0.0610278,0.0146305,
2,0,0,1,0,39740.4,0.0107365,0.0103871,-0.500331,60,0.72936,10,-5.19701e-06,-3.30074,1.86835,0.0315787,0.0106073,
2,0,0,1,0,39741.2,0.00674163,0.00635339,-0.4984,60,0.72895,10,-3.16653e-06,-3.30242,3.83813,0.0153721,0.00657268,
2,0,0,1,0,39742,0.00274612,0.00240522,-0.497934,60,0.728541,10,-1.19764e-06,-3.30283,-1.75499,-0.0336183,0.00262431,
2,0,0,0,0,39742.5,0.000274105,-0.000120135,-0.50001,60,0.728286,10,6.00686e-08,-3.30102, , ,9.98694e-05,