File: Figure_codes/Fig_3-5/workspace_calculate_alpha_eff/20221101_1-115_003_TrumpetPlot_ParaChange_from10_every3_16_CV_C01_53.csv
mode,ox/red,error,control changes,counter inc.,time/s,control/V,Ewe/V,<I>/mA,cycle number,(Q-Qo)/C,I Range,P/W,log(|I|),Tafel slope mV/dec,alpha_eff,E-IR/V,
2,0,0,0,0,35462.3,2.44065e-05,-0.000248974,-0.101302,54,0.0000000E+000,10,2.52216e-08,-3.99438, , ,-0.000204401,
2,1,0,0,0,35463.1,0.00379485,0.003437,0.145014,54,9.04398e-05,10,4.98414e-07,-3.83859,0.0311601,1.89345,0.00337319,
2,1,0,1,0,35463.9,0.00779002,0.00744003,0.168514,54,0.000228254,10,1.25375e-06,-3.77336,0.074362,0.793416,0.00736589,
2,1,0,0,0,35464.7,0.0117852,0.0115131,0.183331,54,0.000381891,10,2.1107e-06,-3.73676,0.121893,0.484031,0.0114324,
2,1,0,1,0,35465.5,0.0157806,0.0154421,0.201226,54,0.0005477,10,3.10736e-06,-3.69632,0.124148,0.475239,0.0153536,
2,1,0,1,0,35466.3,0.0197754,0.0194618,0.213622,54,0.000724551,10,4.15746e-06,-3.67035,0.142007,0.415473,0.0193678,
2,1,0,1,0,35467.1,0.0237704,0.0234443,0.227398,54,0.000912499,10,5.33121e-06,-3.64321,0.156589,0.376783,0.0233443,
2,1,0,1,0,35467.9,0.0277659,0.0274626,0.241348,54,0.00111118,10,6.62806e-06,-3.61736,0.148294,0.397858,0.0273564,
2,1,0,0,0,35468.7,0.0317611,0.0314307,0.255819,54,0.00132129,10,8.04058e-06,-3.59207,0.166588,0.354166,0.0313181,
2,1,0,1,0,35469.5,0.0357567,0.0354491,0.270318,54,0.00154303,10,9.58253e-06,-3.56813,0.213384,0.276497,0.0353302,
2,1,0,1,0,35470.3,0.0397516,0.0394666,0.284381,54,0.00177606,10,1.12235e-05,-3.5461,0.160803,0.366909,0.0393414,
2,1,0,1,0,35471.1,0.0437465,0.0434247,0.297954,54,0.00202072,10,1.29386e-05,-3.52585,0.200655,0.294036,0.0432936,
2,1,0,1,0,35471.9,0.0477413,0.0473756,0.310931,54,0.00227585,10,1.47305e-05,-3.50734,0.195325,0.302061,0.0472388,
2,1,0,0,0,35472.7,0.0517369,0.0514034,0.323723,54,0.00254167,10,1.66405e-05,-3.48983,0.2293,0.257305,0.051261,
2,1,0,1,0,35473.5,0.0557321,0.0553651,0.336858,54,0.00281801,10,1.86502e-05,-3.47255,0.298938,0.197365,0.0552169,
2,1,0,1,0,35474.3,0.0597277,0.0593845,0.348964,54,0.00310311,10,2.07231e-05,-3.45722,0.2805,0.210339,0.059231,
2,1,0,1,0,35475.1,0.0637226,0.0634234,0.35826,54,0.00339721,10,2.2722e-05,-3.4458,0.296779,0.198801,0.0632657,
2,1,0,1,0,35475.9,0.0677174,0.0674163,0.369704,54,0.00370016,10,2.49241e-05,-3.43215,0.443528,0.133024,0.0672536,
2,1,0,0,0,35476.7,0.0717128,0.0713953,0.378044,54,0.00401064,10,2.69905e-05,-3.42246,0.370747,0.159138,0.0712289,
2,1,0,1,0,35477.5,0.075708,0.0753697,0.384609,54,0.0043284,10,2.89878e-05,-3.41498,0.42534,0.138713,0.0752004,
2,1,0,0,0,35478.3,0.0797031,0.0793536,0.39538,54,0.00465256,10,3.13748e-05,-3.40299,0.422005,0.139809,0.0791796,
2,1,0,1,0,35479.1,0.0836986,0.0833856,0.404842,54,0.00498338,10,3.3758e-05,-3.39271,0.379262,0.155565,0.0832075,
2,1,0,1,0,35479.9,0.0876935,0.0873832,0.415102,54,0.00532226,10,3.6273e-05,-3.38184,0.328137,0.179803,0.0872005,
2,1,0,1,0,35480.7,0.0916883,0.0913625,0.428495,54,0.00567048,10,3.91484e-05,-3.36805,0.257394,0.229221,0.0911739,
2,1,0,1,0,35481.5,0.0956838,0.0953308,0.44397,54,0.00603137,10,4.2324e-05,-3.35265,0.210006,0.280944,0.0951354,
2,1,0,0,0,35482.3,0.099679,0.0993423,0.464509,54,0.00640706,10,4.61453e-05,-3.33301,0.230592,0.255863,0.0991379,
2,1,0,1,0,35483.1,0.103674,0.10341,0.488116,54,0.0067994,10,5.04761e-05,-3.31148,0.175832,0.335548,0.103195,
2,1,0,1,0,35483.9,0.10767,0.107375,0.508879,54,0.00721066,10,5.46408e-05,-3.29339,0.230888,0.255536,0.107151,
2,1,0,1,0,35484.7,0.111664,0.11134,0.529489,54,0.00763804,10,5.89531e-05,-3.27614,0.267272,0.220749,0.111107,
2,1,0,1,0,35485.5,0.115659,0.11534,0.544723,54,0.00807948,10,6.28285e-05,-3.26382,0.312016,0.189093,0.115101,
2,1,0,0,0,35486.3,0.119655,0.119309,0.559264,54,0.0085331,10,6.6725e-05,-3.25238,0.529637,0.111397,0.119063,
2,1,0,1,0,35487.1,0.12365,0.123339,0.570892,54,0.00899597,10,7.04134e-05,-3.24345,0.410027,0.143893,0.123088,
2,1,0,1,0,35487.9,0.127646,0.127355,0.579028,54,0.00946762,10,7.37418e-05,-3.2373,0.768497,0.0767733,0.1271,
2,1,0,1,0,35488.7,0.131641,0.131348,0.583984,54,0.00994544,10,7.67048e-05,-3.2336,-1.11993,-0.0526819,0.131091,
2,1,0,1,0,35489.5,0.135635,0.135313,0.575474,54,0.0104212,10,7.78693e-05,-3.23997,-0.343605,-0.171709,0.13506,
2,1,0,0,0,35490.3,0.139631,0.139317,0.543987,54,0.0108825,10,7.5787e-05,-3.26441,-0.131955,-0.447122,0.139078,
2,1,0,1,0,35491.1,0.143626,0.143313,0.498766,54,0.0113126,10,7.14797e-05,-3.3021,-0.0838913,-0.703291,0.143094,
2,1,0,0,0,35491.9,0.147621,0.147268,0.437795,54,0.0116987,10,6.44734e-05,-3.35873,-0.0684643,-0.861763,0.147076,
2,1,0,1,0,35492.7,0.151617,0.1513,0.38455,54,0.0120387,10,5.81826e-05,-3.41505,-0.0733619,-0.804232,0.151131,
2,1,0,1,0,35493.5,0.155612,0.155317,0.346407,54,0.0123405,10,5.3803e-05,-3.46041,-0.099312,-0.594087,0.155165,
2,1,0,1,0,35494.3,0.159606,0.159308,0.318602,54,0.0126165,10,5.07559e-05,-3.49675,-0.143417,-0.411388,0.159168,
2,1,0,1,0,35495.1,0.163602,0.163314,0.302007,54,0.0128755,10,4.93221e-05,-3.51998,-0.186253,-0.316773,0.163182,
2,1,0,0,0,35495.9,0.167597,0.167281,0.289071,54,0.0131229,10,4.83563e-05,-3.539,-0.279542,-0.21106,0.167154,
2,1,0,1,0,35496.6,0.171592,0.171261,0.280734,54,0.0133625,10,4.80789e-05,-3.5517,-0.343354,-0.171834,0.171138,
2,1,0,1,0,35497.4,0.175588,0.175286,0.27485,54,0.0135959,10,4.81773e-05,-3.5609,-0.453117,-0.130209,0.175165,
2,1,0,1,0,35498.2,0.179582,0.179272,0.268957,54,0.0138246,10,4.82163e-05,-3.57032,-0.534516,-0.11038,0.179153,
2,1,0,1,0,35499,0.183577,0.183244,0.265133,54,0.0140497,10,4.8584e-05,-3.57654,-0.820705,-0.0718894,0.183127,
2,1,0,0,0,35499.8,0.187573,0.187289,0.261807,54,0.0142717,10,4.90337e-05,-3.58202,-0.522413,-0.112937,0.187174,
2,1,0,1,0,35500.6,0.191568,0.191277,0.259111,54,0.0144913,10,4.95622e-05,-3.58651,-1.30314,-0.0452753,0.191163,
2,1,0,0,0,35501.4,0.195563,0.195237,0.257683,54,0.0147089,10,5.03093e-05,-3.58891,-0.735468,-0.080221,0.195124,
2,1,0,1,0,35502.2,0.199559,0.199262,0.254829,54,0.0149245,10,5.07777e-05,-3.59375,-1.81723,-0.032467,0.199149,
2,1,0,1,0,35503,0.203553,0.203239,0.252865,54,0.0151384,10,5.13919e-05,-3.59711,-1.7187,-0.0343282,0.203127,
2,1,0,1,0,35503.8,0.207548,0.207264,0.250493,54,0.015351,10,5.19181e-05,-3.6012,-1.26207,-0.0467485,0.207153,
2,1,0,1,0,35504.6,0.211544,0.211235,0.248866,54,0.0155619,10,5.25692e-05,-3.60403,-1.00685,-0.0585987,0.211126,
2,1,0,0,0,35505.4,0.215539,0.215228,0.247639,54,0.0157716,10,5.32989e-05,-3.60618,-4.83452,-0.0122039,0.215119,
2,1,0,1,0,35506.2,0.219535,0.219249,0.24741,54,0.0159801,10,5.42444e-05,-3.60658,-2.55817,-0.0230634,0.219141,
2,1,0,1,0,35507,0.223529,0.223238,0.245084,54,0.0161876,10,5.47121e-05,-3.61068,-1.20866,-0.0488146,0.22313,
2,1,0,1,0,35507.8,0.227524,0.227227,0.24382,54,0.0163942,10,5.54025e-05,-3.61293,-0.984145,-0.0599505,0.22712,
2,1,0,1,0,35508.6,0.23152,0.231133,0.242988,54,0.0165996,10,5.61626e-05,-3.61441,13.3949,0.00440466,0.231026,
2,1,0,0,0,35509.4,0.235515,0.235232,0.241347,54,0.0168043,10,5.67726e-05,-3.61736,-1.62744,-0.0362533,0.235126,
2,1,0,1,0,35510.2,0.23951,0.239192,0.241155,54,0.0170081,10,5.76824e-05,-3.6177,-2.02755,-0.0290991,0.239086,
2,1,0,1,0,35511,0.243506,0.243196,0.239349,54,0.0172111,10,5.82087e-05,-3.62097,10.0247,0.00588549,0.243091,
2,1,0,1,0,35511.8,0.2475,0.247181,0.239597,54,0.0174136,10,5.92238e-05,-3.62052,-1.02137,-0.0577658,0.247075,
2,1,0,1,0,35512.6,0.251495,0.251216,0.238385,54,0.017615,10,5.98863e-05,-3.62272,9.90966,0.00595379,0.251112,
2,1,0,0,0,35513.4,0.255491,0.255163,0.237083,54,0.0178158,10,6.04947e-05,-3.6251,-1.22314,-0.0482365,0.255058,
2,1,0,1,0,35514.2,0.259486,0.259185,0.237248,54,0.0180163,10,6.1491e-05,-3.6248,-2.01962,-0.0292135,0.25908,
2,1,0,0,0,35515,0.263481,0.26313,0.236375,54,0.0182158,10,6.21973e-05,-3.6264,17.7499,0.00332396,0.263025,
2,1,0,1,0,35515.8,0.267477,0.267171,0.234529,54,0.0184148,10,6.26593e-05,-3.6298,-1.91499,-0.0308095,0.267068,
2,1,0,1,0,35516.6,0.271471,0.271127,0.235017,54,0.0186132,10,6.37194e-05,-3.6289,-5.79148,-0.0101874,0.271024,
2,1,0,1,0,35517.4,0.275466,0.275168,0.233058,54,0.0188108,10,6.413e-05,-3.63254,-6.88018,-0.00857536,0.275065,
2,1,0,1,0,35518.2,0.279462,0.27912,0.232142,54,0.0190079,10,6.47956e-05,-3.63425,-1.2051,-0.0489587,0.279018,
2,1,0,0,0,35519,0.283457,0.283138,0.232118,54,0.019204,10,6.57216e-05,-3.63429,102.235,0.000577103,0.283036,
2,1,0,1,0,35519.8,0.287452,0.287116,0.230579,54,0.0193994,10,6.62028e-05,-3.63718,-2.30693,-0.0255751,0.287014,
2,1,0,1,0,35520.6,0.291448,0.291131,0.230385,54,0.0195942,10,6.70723e-05,-3.63755,-1.36555,-0.0432061,0.29103,
2,1,0,1,0,35521.4,0.295442,0.295117,0.228966,54,0.0197881,10,6.75715e-05,-3.64023,-9.93825,-0.00593666,0.295016,
2,1,0,1,0,35522.2,0.299437,0.299131,0.227698,54,0.0199814,10,6.81114e-05,-3.64264,-2.24052,-0.0263332,0.299031,
2,1,0,0,0,35523,0.303433,0.303134,0.227934,54,0.0201738,10,6.90947e-05,-3.64219,-1.54641,-0.038153,0.303034,
2,1,0,1,0,35523.8,0.307428,0.307111,0.227185,54,0.0203657,10,6.97709e-05,-3.64362,18.0789,0.00326346,0.307011,
2,1,0,1,0,35524.6,0.311424,0.31116,0.226008,54,0.020557,10,7.03247e-05,-3.64588,-2.804,-0.0210413,0.311061,
2,1,0,1,0,35525.4,0.315418,0.315133,0.225854,54,0.0207476,10,7.1174e-05,-3.64617,-2.40836,-0.024498,0.315034,
2,1,0,1,0,35526.2,0.319413,0.319121,0.225269,54,0.0209376,10,7.1888e-05,-3.6473,-2.10859,-0.0279808,0.319022,
2,1,0,0,0,35527,0.323409,0.323107,0.224,54,0.0211273,10,7.23761e-05,-3.64975,-2.04214,-0.0288912,0.323009,
2,1,0,1,0,35527.8,0.327404,0.327058,0.223944,54,0.0213163,10,7.32428e-05,-3.64986,11.2882,0.00522669,0.32696,
2,1,0,0,0,35528.6,0.331399,0.33107,0.223224,54,0.021505,10,7.39027e-05,-3.65126,-1.16937,-0.0504545,0.330971,
2,1,0,1,0,35529.4,0.335395,0.33512,0.222797,54,0.021693,10,7.46638e-05,-3.65209,1.72672,0.0341688,0.335022,
2,1,0,1,0,35530.2,0.339389,0.339094,0.221953,54,0.0218805,10,7.5263e-05,-3.65374,-1.30084,-0.0453552,0.338996,
2,1,0,1,0,35531,0.343384,0.343086,0.221589,54,0.0220676,10,7.60242e-05,-3.65445,-4.16349,-0.0141708,0.342988,
2,1,0,1,0,35531.8,0.34738,0.347066,0.221762,54,0.0222543,10,7.69661e-05,-3.65411,-2.94765,-0.0200159,0.346968,
2,1,0,0,0,35532.6,0.351375,0.351079,0.22083,54,0.0224407,10,7.75288e-05,-3.65594,2.33968,0.0252172,0.350981,
2,1,0,1,0,35533.4,0.35537,0.35509,0.219853,54,0.0226266,10,7.80674e-05,-3.65787,-1.03385,-0.0570683,0.354993,
2,1,0,1,0,35534.2,0.359366,0.359047,0.219148,54,0.0228119,10,7.86845e-05,-3.65926,14.8218,0.00398063,0.35895,
2,1,0,1,0,35535,0.36336,0.363078,0.219058,54,0.022997,10,7.95349e-05,-3.65944,-3.23822,-0.0182199,0.362981,
2,1,0,1,0,35535.8,0.367355,0.367023,0.219373,54,0.0231816,10,8.05151e-05,-3.65882,-64.7787,-0.000910793,0.366927,
2,1,0,0,0,35536.6,0.371351,0.371064,0.218157,54,0.0233659,10,8.09501e-05,-3.66123,15.8143,0.00373079,0.370968,
2,1,0,1,0,35537.4,0.375346,0.375068,0.218165,54,0.0235499,10,8.18269e-05,-3.66121,-1.20397,-0.0490045,0.374972,
2,1,0,1,0,35538.2,0.379342,0.379058,0.217388,54,0.0237333,10,8.24025e-05,-3.66277,11.4178,0.00516738,0.378962,
2,1,0,1,0,35539,0.383336,0.383053,0.217367,54,0.0239163,10,8.32629e-05,-3.66281,-6.39919,-0.00921991,0.382957,
2,1,0,1,0,35539.8,0.387331,0.387063,0.217689,54,0.0240993,10,8.42594e-05,-3.66216,-2.08214,-0.0283362,0.386967,
2,1,0,0,0,35540.6,0.391327,0.39101,0.216527,54,0.0242818,10,8.46642e-05,-3.66449,4.31123,0.0136852,0.390915,
2,1,0,1,0,35541.4,0.395322,0.395042,0.215596,54,0.0244643,10,8.51696e-05,-3.66636,30.826,0.00191397,0.394947,
2,1,0,0,0,35542.2,0.399317,0.39901,0.216885,54,0.0246465,10,8.65391e-05,-3.66377,-2.20683,-0.0267351,0.398915,
2,1,0,1,0,35543,0.403313,0.403038,0.216288,54,0.0248284,10,8.71723e-05,-3.66497,18.581,0.00317528,0.402943,
2,1,0,1,0,35543.8,0.407307,0.407032,0.216398,54,0.0250102,10,8.80809e-05,-3.66475,-22.3024,-0.00264545,0.406937,
2,1,0,1,0,35544.6,0.411302,0.411013,0.216888,54,0.0251916,10,8.91441e-05,-3.66376,-10.8415,-0.00544206,0.410918,
2,1,0,1,0,35545.4,0.415298,0.414995,0.215611,54,0.0253732,10,8.94774e-05,-3.66633,-14.61,-0.00403832,0.4149,
2,1,0,0,0,35546.2,0.419293,0.418989,0.215889,54,0.0255547,10,9.04552e-05,-3.66577,-3.37053,-0.0175047,0.418894,
2,1,0,1,0,35547,0.423288,0.423037,0.215248,54,0.0257358,10,9.10578e-05,-3.66706,71.8103,0.000821609,0.422942,
2,1,0,1,0,35547.8,0.427283,0.42698,0.215186,54,0.0259171,10,9.18799e-05,-3.66719,-19.6394,-0.00300416,0.426885,
2,1,0,1,0,35548.6,0.431278,0.430995,0.215458,54,0.0260979,10,9.28613e-05,-3.66664,3.82926,0.0154077,0.4309,
2,1,0,1,0,35549.4,0.435273,0.434992,0.215852,54,0.0262786,10,9.3894e-05,-3.66584,2.63047,0.0224294,0.434897,
2,1,0,0,0,35550.2,0.439269,0.438983,0.215214,54,0.0264597,10,9.44751e-05,-3.66713,-11.5613,-0.00510323,0.438888,
2,1,0,1,0,35551,0.443264,0.442979,0.215707,54,0.0266407,10,9.55535e-05,-3.66614,-2.69423,-0.0218987,0.442884,
2,1,0,0,0,35551.8,0.447259,0.446947,0.215573,54,0.0268216,10,9.63497e-05,-3.66641,13.5126,0.00436628,0.446852,
2,1,0,1,0,35552.6,0.451254,0.450982,0.215862,54,0.0270027,10,9.73497e-05,-3.66582,-15.7636,-0.0037428,0.450887,
2,1,0,1,0,35553.4,0.455249,0.454923,0.215892,54,0.0271834,10,9.82143e-05,-3.66576,3.12038,0.0189079,0.454828,
2,1,0,1,0,35554.2,0.459244,0.458951,0.215288,54,0.0273643,10,9.88069e-05,-3.66698,4.14224,0.0142435,0.458856,
2,1,0,1,0,35555,0.46324,0.462993,0.217104,54,0.0275455,10,0.000100518,-3.66333,-16.847,-0.00350212,0.462897,
2,1,0,0,0,35555.8,0.467235,0.466887,0.2165,54,0.0277267,10,0.000101081,-3.66454,1.66731,0.0353864,0.466791,
2,1,0,1,0,35556.6,0.471231,0.470881,0.216261,54,0.0279085,10,0.000101833,-3.66502,3.21529,0.0183498,0.470785,
2,1,0,1,0,35557.4,0.475225,0.474934,0.218186,54,0.0280904,10,0.000103624,-3.66117,8.18404,0.00720915,0.474838,
2,1,0,1,0,35558.2,0.47922,0.478931,0.217816,54,0.0282729,10,0.000104319,-3.66191,4.20225,0.0140401,0.478835,
2,1,0,1,0,35559,0.483216,0.482929,0.21961,54,0.0284556,10,0.000106056,-3.65835,-2.41913,-0.024389,0.482833,
2,1,0,0,0,35559.8,0.487211,0.486947,0.219703,54,0.0286387,10,0.000106984,-3.65816,1.0894,0.0541584,0.486851,
2,1,0,1,0,35560.6,0.491206,0.490893,0.219467,54,0.0288224,10,0.000107735,-3.65863,4.57792,0.0128879,0.490797,
2,1,0,1,0,35561.4,0.495201,0.494941,0.22078,54,0.0290065,10,0.000109273,-3.65604,1.29664,0.0455023,0.494844,
2,1,0,1,0,35562.2,0.499196,0.498901,0.222302,54,0.0291914,10,0.000110907,-3.65306,2.51183,0.0234889,0.498804,
2,1,0,1,0,35563,0.503191,0.5029,0.222763,54,0.0293773,10,0.000112027,-3.65216,2.3087,0.0255555,0.502802,
2,1,0,0,0,35563.8,0.507187,0.50688,0.231111,54,0.029565,10,0.000117146,-3.63618,0.847664,0.069603,0.506778,
2,1,0,1,0,35564.6,0.511182,0.51092,0.226111,54,0.0297544,10,0.000115525,-3.64568,-2.80885,-0.021005,0.51082,
2,1,0,0,0,35565.4,0.515177,0.514877,0.22646,54,0.0299433,10,0.000116599,-3.64501,1.79144,0.0329343,0.514778,
2,1,0,1,0,35566.2,0.519173,0.518882,0.227172,54,0.0301328,10,0.000117876,-3.64364,1.5062,0.0391715,0.518782,
2,1,0,1,0,35567,0.523167,0.522879,0.228027,54,0.0303232,10,0.00011923,-3.64201,1.39933,0.0421629,0.522779,
2,1,0,1,0,35567.8,0.527162,0.52688,0.229919,54,0.0305147,10,0.00012114,-3.63842,1.81955,0.0324255,0.526779,
2,1,0,1,0,35568.6,0.531158,0.530842,0.231047,54,0.030707,10,0.000122649,-3.6363,0.947419,0.0622745,0.53074,
2,1,0,0,0,35569.4,0.535153,0.534845,0.232894,54,0.0309006,10,0.000124562,-3.63284,1.42108,0.0415177,0.534742,
2,1,0,1,0,35570.2,0.539148,0.538864,0.234462,54,0.0310954,10,0.000126343,-3.62993,1.65868,0.0355705,0.538761,
2,1,0,1,0,35571,0.543143,0.542833,0.236708,54,0.0312916,10,0.000128493,-3.62579,1.96964,0.0299547,0.542729,
2,1,0,1,0,35571.8,0.547138,0.546835,0.238411,54,0.0314893,10,0.000130372,-3.62267,1.02599,0.0575057,0.54673,
2,1,0,1,0,35572.6,0.551133,0.550831,0.240897,54,0.0316885,10,0.000132693,-3.61817,0.591122,0.0998102,0.550725,
2,1,0,0,0,35573.4,0.555129,0.554843,0.242345,54,0.03189,10,0.000134463,-3.61557,1.05914,0.0557055,0.554736,
2,1,0,1,0,35574.2,0.559124,0.558796,0.246166,54,0.0320932,10,0.000137556,-3.60877,0.8653,0.0681844,0.558688,
2,1,0,1,0,35575,0.56312,0.562788,0.248835,54,0.0322986,10,0.000140041,-3.60409,0.652591,0.0904089,0.562678,
2,1,0,1,0,35575.8,0.567114,0.566798,0.251882,54,0.0325068,10,0.000142766,-3.5988,0.820331,0.0719222,0.566687,
2,1,0,1,0,35576.6,0.571109,0.570813,0.256245,54,0.0327174,10,0.000146268,-3.59134,0.561921,0.104997,0.5707,
2,1,0,0,0,35577.4,0.575105,0.574835,0.26003,54,0.0329314,10,0.000149474,-3.58498,0.567931,0.103886,0.57472,
2,1,0,1,0,35578.2,0.5791,0.578817,0.264472,54,0.0331489,10,0.000153081,-3.57762,0.684628,0.0861782,0.5787,
2,1,0,0,0,35579,0.583095,0.582855,0.268839,54,0.0333696,10,0.000156694,-3.57051,0.379794,0.155348,0.582736,
2,1,0,1,0,35579.7,0.58709,0.5868,0.274059,54,0.0335945,10,0.000160818,-3.56216,0.588255,0.100297,0.586679,
2,1,0,1,0,35580.5,0.591085,0.590783,0.279599,54,0.0338236,10,0.000165183,-3.55346,0.340761,0.173142,0.59066,
2,1,0,1,0,35581.3,0.59508,0.594776,0.286638,54,0.034058,10,0.000170486,-3.54267,0.368491,0.160112,0.594649,
2,1,0,1,0,35582.1,0.599076,0.598782,0.294756,54,0.0342982,10,0.000176494,-3.53054,0.346552,0.170249,0.598652,
2,1,0,0,0,35582.9,0.603071,0.602756,0.303173,54,0.0345445,10,0.000182739,-3.51831,0.356378,0.165554,0.602623,
2,1,0,1,0,35583.7,0.607066,0.606733,0.312512,54,0.0347978,10,0.000189612,-3.50513,0.254109,0.232184,0.606595,
2,1,0,1,0,35584.5,0.611061,0.610773,0.323592,54,0.0350594,10,0.000197641,-3.49,0.271733,0.217125,0.610631,
2,1,0,1,0,35585.3,0.615056,0.61476,0.336341,54,0.0353302,10,0.000206769,-3.47322,0.214745,0.274744,0.614612,
2,1,0,1,0,35586.1,0.619051,0.61873,0.34987,54,0.0356122,10,0.000216475,-3.45609,0.210411,0.280404,0.618576,
2,1,0,0,0,35586.9,0.623047,0.622774,0.366664,54,0.0359065,10,0.000228349,-3.43573,0.184816,0.319237,0.622612,
2,1,0,1,0,35587.7,0.627042,0.626731,0.387911,54,0.0362157,10,0.000243116,-3.41127,0.160216,0.368253,0.626561,
2,1,0,1,0,35588.5,0.631037,0.630766,0.411586,54,0.0365424,10,0.000259614,-3.38554,0.152065,0.387992,0.630585,
2,1,0,1,0,35589.3,0.635032,0.634746,0.438888,54,0.0368889,10,0.000278583,-3.35765,0.143789,0.410325,0.634553,
2,1,0,1,0,35590.1,0.639027,0.63869,0.468377,54,0.0372583,10,0.000299148,-3.3294,0.124452,0.474079,0.638484,
2,1,0,1,0,35590.9,0.643022,0.642748,0.505399,54,0.0376551,10,0.000324845,-3.29637,0.115546,0.51062,0.642526,
2,1,0,1,0,35591.7,0.647018,0.646726,0.548602,54,0.0380836,10,0.000354795,-3.26074,0.110715,0.532898,0.646485,
2,1,0,0,0,35592.5,0.651013,0.650709,0.597597,54,0.0385486,10,0.000388862,-3.22359,0.100265,0.588441,0.650446,
2,1,0,1,0,35593.3,0.655008,0.654707,0.657617,54,0.0390572,10,0.000430546,-3.18203,0.0927872,0.635863,0.654418,
2,1,0,1,0,35594.1,0.659003,0.65872,0.724824,54,0.0396165,10,0.000477457,-3.13977,0.091231,0.64671,0.658402,
2,1,0,1,0,35594.9,0.662998,0.6627,0.805973,54,0.0402349,10,0.000534118,-3.09368,0.0873075,0.675772,0.662345,
2,1,0,1,0,35595.7,0.666994,0.666708,0.897256,54,0.0409215,10,0.000598207,-3.04708,0.0821306,0.718368,0.666313,
2,1,0,0,0,35596.5,0.670989,0.670689,1.00226,54,0.0416872,10,0.000672205,-2.99902,0.0804853,0.733053,0.670248,
2,1,0,1,0,35597.3,0.674984,0.674673,1.12246,54,0.0425425,10,0.000757296,-2.94983,0.0800994,0.736584,0.674179,
2,1,0,1,0,35598.1,0.67898,0.678687,1.25961,54,0.043501,10,0.000854879,-2.89976,0.077587,0.760437,0.678133,
2,1,0,1,0,35598.9,0.682974,0.682677,1.41599,54,0.0445766,10,0.000966662,-2.84894,0.0763716,0.772539,0.682054,
2,1,0,1,0,35599.7,0.686969,0.686704,1.58897,54,0.0457837,10,0.00109115,-2.79888,0.079207,0.744883,0.686005,
2,1,0,0,0,35600.5,0.690965,0.690705,1.78524,54,0.0471385,10,0.00123308,-2.7483,0.0776222,0.760092,0.68992,
2,1,0,1,0,35601.3,0.69496,0.694689,2.00118,54,0.0486578,10,0.0013902,-2.69871,0.0788067,0.748667,0.693809,
2,1,0,0,0,35602.1,0.698955,0.698705,2.23798,54,0.0503574,10,0.00156369,-2.65014,0.0817968,0.7213,0.69772,
2,1,0,1,0,35602.9,0.70295,0.702669,2.49745,54,0.052256,10,0.00175488,-2.6025,0.0825105,0.71506,0.70157,
2,1,0,1,0,35603.7,0.706945,0.706673,2.77884,54,0.0543701,10,0.00196373,-2.55614,0.0835267,0.706361,0.70545,
2,1,0,1,0,35604.5,0.71094,0.710623,3.08069,54,0.0567178,10,0.00218921,-2.51135,0.0871341,0.677117,0.709267,
2,1,0,1,0,35605.3,0.714936,0.714673,3.40814,54,0.0593175,10,0.00243571,-2.46748,0.0900862,0.654929,0.713173,
2,1,0,0,0,35606.1,0.718931,0.718598,3.75707,54,0.0621865,10,0.00269982,-2.42515,0.0915623,0.64437,0.716945,
2,1,0,1,0,35606.9,0.722927,0.722665,4.12894,54,0.0653441,10,0.00298384,-2.38416,0.0943959,0.625027,0.720848,
2,1,0,1,0,35607.7,0.726921,0.726641,4.52155,54,0.0688069,10,0.00328554,-2.34471,0.0987752,0.597316,0.724651,
2,1,0,1,0,35608.5,0.730916,0.730585,4.9405,54,0.0725937,10,0.00360945,-2.30623,0.100201,0.588819,0.728412,
2,1,0,1,0,35609.3,0.734911,0.734622,5.38065,54,0.076724,10,0.00395275,-2.26916,0.105103,0.561354,0.732254,
2,1,0,0,0,35610.1,0.738907,0.738606,5.84626,54,0.0812162,10,0.00431809,-2.23312,0.106091,0.556125,0.736034,
2,1,0,1,0,35610.9,0.742902,0.74262,6.33525,54,0.0860893,10,0.00470468,-2.19824,0.109041,0.54108,0.739832,
2,1,0,1,0,35611.7,0.746897,0.746607,6.85093,54,0.0913647,10,0.00511496,-2.16425,0.113339,0.52056,0.743593,
2,1,0,1,0,35612.5,0.750892,0.750639,7.39246,54,0.0970612,10,0.00554907,-2.13121,0.11566,0.510115,0.747386,
2,1,0,1,0,35613.3,0.754887,0.754624,7.96106,54,0.103201,10,0.00600761,-2.09903,0.116849,0.504927,0.751122,
2,1,0,0,0,35614.1,0.758883,0.758612,8.5598,54,0.109809,10,0.00649357,-2.06754,0.118469,0.498022,0.754846,
2,1,0,1,0,35614.9,0.762878,0.762635,9.19104,54,0.116906,10,0.00700941,-2.03664,0.124473,0.473999,0.758591,
2,1,0,0,0,35615.7,0.766873,0.766578,9.8574,54,0.124523,10,0.00755646,-2.00624,0.120141,0.491091,0.76224,
2,1,0,1,0,35616.5,0.770868,0.770654,10.5637,54,0.132688,10,0.00814098,-1.97618,0.123202,0.478888,0.766006,
2,1,0,1,0,35617.3,0.774863,0.774579,11.3061,54,0.141431,10,0.00875745,-1.94669,0.123467,0.477862,0.769605,
2,1,0,1,0,35618.1,0.778858,0.778574,12.1014,54,0.150787,10,0.00942185,-1.91716,0.124565,0.473647,0.773249,
2,1,0,1,0,35618.9,0.782854,0.782584,12.9489,54,0.160801,10,0.0101336,-1.88777,0.122682,0.480919,0.776887,
2,1,0,0,0,35619.7,0.786849,0.786575,13.8577,54,0.171515,10,0.0109001,-1.85831,0.119484,0.493788,0.780477,
2,1,0,1,0,35620.5,0.790844,0.790557,14.8224,54,0.182978,10,0.0117179,-1.82908,0.121005,0.487581,0.784035,
2,1,0,1,0,35621.3,0.794839,0.794568,15.869,54,0.195246,10,0.012609,-1.79945,0.125426,0.470397,0.787586,
2,1,0,1,0,35622.1,0.798834,0.798586,16.8548,54,0.208325,10,0.01346,-1.77328,0.132994,0.44363,0.79117,
2,1,0,1,0,35622.9,0.802829,0.802538,17.9872,54,0.222249,10,0.0144354,-1.74504,0.125079,0.471703,0.794623,
2,1,0,0,0,35623.7,0.806825,0.806525,19.1911,54,0.23711,10,0.0154781,-1.7169,0.120398,0.49004,0.798081,
2,1,0,1,0,35624.5,0.81082,0.810568,20.4584,54,0.25296,10,0.0165829,-1.68913,0.126368,0.466889,0.801566,
2,1,0,1,0,35625.3,0.814815,0.814571,21.7544,54,0.269836,10,0.0177205,-1.66245,0.133849,0.440794,0.804999,
2,1,0,1,0,35626.1,0.81881,0.818514,23.012,54,0.287735,10,0.0188357,-1.63804,0.136731,0.431503,0.808389,
2,1,0,1,0,35626.9,0.822805,0.822523,24.4442,54,0.3067,10,0.0201059,-1.61182,0.13221,0.44626,0.811768,
2,1,0,0,0,35627.7,0.826801,0.826533,25.8874,54,0.326821,10,0.0213968,-1.58691,0.137173,0.430113,0.815143,
2,1,0,1,0,35628.5,0.830796,0.83049,27.2556,54,0.348088,10,0.0226355,-1.56454,0.159655,0.369546,0.818498,
2,1,0,0,0,35629.3,0.834791,0.834562,28.6737,54,0.370431,10,0.02393,-1.54252,0.15305,0.385495,0.821946,
2,1,0,1,0,35630.1,0.838786,0.838512,30.136,54,0.393946,10,0.0252693,-1.52092,0.158955,0.371174,0.825252,
2,1,0,1,0,35630.9,0.842781,0.842525,31.6005,54,0.418622,10,0.0266242,-1.50031,0.16196,0.364288,0.828621,
2,1,0,1,0,35631.7,0.846776,0.846529,33.1367,54,0.44451,10,0.0280512,-1.47969,0.162531,0.363009,0.831949,
2,1,0,0,0,35632.4,0.849723,0.849474,34.1736,54,0.46817,10,0.0290296,-1.46631,0.0477959,1.23441,0.834437,
2,1,0,1,0,35633.2,0.845728,0.845457,31.9528,54,0.494496,10,0.0270147,-1.49549,0.121195,0.486819,0.831398,
2,1,0,0,0,35634,0.841732,0.84146,30.1101,54,0.519268,10,0.0253365,-1.52129,0.127071,0.464307,0.828212,
2,1,0,1,0,35634.8,0.837737,0.837501,28.3342,54,0.542604,10,0.0237299,-1.54769,0.124916,0.472318,0.825034,
2,1,0,1,0,35635.6,0.833742,0.833486,26.7483,54,0.564599,10,0.0222943,-1.5727,0.12544,0.470345,0.821717,
2,1,0,1,0,35636.4,0.829747,0.829523,25.1544,54,0.585309,10,0.0208662,-1.59939,0.12595,0.468439,0.818456,
2,1,0,1,0,35637.2,0.825752,0.825536,23.6547,54,0.6048,10,0.0195278,-1.62608,0.122608,0.481208,0.815128,
2,1,0,0,0,35638,0.821757,0.8215,22.2246,54,0.62311,10,0.0182575,-1.65317,0.124973,0.472104,0.811721,
2,1,0,1,0,35638.8,0.817761,0.817477,20.8391,54,0.6403,10,0.0170355,-1.68112,0.121311,0.486354,0.808307,
2,1,0,1,0,35639.6,0.813766,0.813458,19.5329,54,0.656416,10,0.0158892,-1.70923,0.113795,0.518476,0.804864,
2,1,0,1,0,35640.4,0.809771,0.809497,18.2128,54,0.671483,10,0.0147432,-1.73962,0.115029,0.512915,0.801483,
2,1,0,1,0,35641.2,0.805776,0.805493,17.0058,54,0.685526,10,0.013698,-1.7694,0.116942,0.504523,0.79801,
2,1,0,0,0,35642,0.801781,0.801521,15.8697,54,0.698644,10,0.0127199,-1.79943,0.115374,0.511382,0.794538,
2,1,0,1,0,35642.8,0.797786,0.797522,14.7844,54,0.710876,10,0.0117909,-1.8302,0.112988,0.52218,0.791017,
2,1,0,1,0,35643.6,0.79379,0.793521,13.7464,54,0.722261,10,0.0109081,-1.86181,0.114168,0.516781,0.787473,
2,1,0,1,0,35644.4,0.789795,0.789555,12.7787,54,0.732844,10,0.0100895,-1.89351,0.112789,0.523101,0.783932,
2,1,0,1,0,35645.2,0.7858,0.78548,11.8736,54,0.742682,10,0.00932644,-1.92542,0.113043,0.521924,0.780255,
2,1,0,0,0,35646,0.781805,0.781544,11.0166,54,0.751818,10,0.00860993,-1.95795,0.109971,0.536507,0.776697,
2,1,0,1,0,35646.8,0.77781,0.777538,10.2278,54,0.76029,10,0.00795249,-1.99022,0.111933,0.5271,0.773038,
2,1,0,0,0,35647.6,0.773814,0.773526,9.46744,54,0.768147,10,0.00732331,-2.02377,0.107827,0.547174,0.769361,
2,1,0,1,0,35648.4,0.769819,0.769567,8.75156,54,0.775415,10,0.00673491,-2.05791,0.106722,0.552836,0.765716,
2,1,0,1,0,35649.2,0.765824,0.765545,8.07842,54,0.782126,10,0.00618439,-2.09267,0.106617,0.553383,0.76199,
2,1,0,1,0,35650,0.761829,0.761535,7.44209,54,0.788316,10,0.00566741,-2.12831,0.103607,0.569457,0.75826,
2,1,0,1,0,35650.8,0.757834,0.757567,6.84896,54,0.794015,10,0.00518855,-2.16438,0.102091,0.577918,0.754554,
2,1,0,0,0,35651.6,0.753839,0.753569,6.29375,54,0.799254,10,0.00474277,-2.20109,0.101804,0.579547,0.750799,
2,1,0,1,0,35652.4,0.749844,0.749557,5.7776,54,0.804066,10,0.00433064,-2.23825,0.101206,0.58297,0.747015,
2,1,0,1,0,35653.2,0.745848,0.745575,5.29306,54,0.808478,10,0.00394638,-2.27629,0.0986056,0.598343,0.743246,
2,1,0,1,0,35654,0.741853,0.741566,4.8347,54,0.812515,10,0.00358525,-2.31563,0.0932639,0.632613,0.739439,
2,1,0,1,0,35654.8,0.737858,0.737606,4.40783,54,0.816197,10,0.00325124,-2.35577,0.0942534,0.625972,0.735666,
2,1,0,0,0,35655.6,0.733863,0.733616,4.00558,54,0.819548,10,0.00293856,-2.39733,0.092164,0.640163,0.731853,
2,1,0,1,0,35656.4,0.729868,0.729582,3.62925,54,0.822589,10,0.00264783,-2.44018,0.0876026,0.673496,0.727985,
2,1,0,1,0,35657.2,0.725872,0.725606,3.27715,54,0.825339,10,0.00237792,-2.4845,0.0849089,0.694862,0.724164,
2,1,0,1,0,35658,0.721877,0.721585,2.9483,54,0.827816,10,0.00212745,-2.53043,0.0826276,0.714047,0.720288,
2,1,0,1,0,35658.8,0.717882,0.71759,2.64213,54,0.83004,10,0.00189596,-2.57805,0.0793864,0.7432,0.716428,
2,1,0,0,0,35659.6,0.713887,0.713604,2.35984,54,0.832029,10,0.00168399,-2.62712,0.0780278,0.756141,0.712566,
2,1,0,1,0,35660.4,0.709892,0.709622,2.09473,54,0.833799,10,0.00148646,-2.67887,0.073545,0.80223,0.7087,
2,1,0,0,0,35661.2,0.705897,0.705627,1.85195,54,0.835367,10,0.00130679,-2.73237,0.0712902,0.827603,0.704813,
2,1,0,1,0,35662,0.701901,0.701568,1.62816,54,0.836748,10,0.00114227,-2.7883,0.0683408,0.86332,0.700852,
2,1,0,1,0,35662.7,0.697906,0.697601,1.4236,54,0.837958,10,0.000993106,-2.84661,0.065003,0.90765,0.696975,
2,1,0,1,0,35663.5,0.693911,0.693668,1.23649,54,0.839012,10,0.000857714,-2.90781,0.062572,0.942913,0.693123,
2,1,0,1,0,35664.3,0.689916,0.689644,1.06722,54,0.839924,10,0.000736001,-2.97175,0.0599143,0.98474,0.689174,
2,1,0,0,0,35665.1,0.685921,0.685623,0.915364,54,0.840707,10,0.000627594,-3.03841,0.0562578,1.04874,0.68522,
2,1,0,1,0,35665.9,0.681926,0.681627,0.777667,54,0.841374,10,0.000530079,-3.10921,0.0550808,1.07115,0.681285,
2,1,0,1,0,35666.7,0.67793,0.677633,0.654492,54,0.841938,10,0.000443505,-3.1841,0.0508171,1.16103,0.677345,
2,1,0,1,0,35667.5,0.673935,0.673677,0.545945,54,0.842408,10,0.00036779,-3.26285,0.0493685,1.19509,0.673436,
2,1,0,1,0,35668.3,0.66994,0.669707,0.451393,54,0.842798,10,0.000302301,-3.34545,0.0458129,1.28785,0.669508,
2,1,0,0,0,35669.1,0.665945,0.665605,0.36581,54,0.843117,10,0.000243485,-3.43674,0.0433831,1.35998,0.665444,
2,1,0,1,0,35669.9,0.66195,0.661659,0.295086,54,0.843372,10,0.000195246,-3.53005,0.03901,1.51243,0.661529,
2,1,0,0,0,35670.7,0.657955,0.657665,0.231657,54,0.843574,10,0.000152353,-3.63515,0.0371141,1.58969,0.657563,
2,1,0,1,0,35671.5,0.653959,0.653675,0.177935,54,0.84373,10,0.000116312,-3.74974,0.0321125,1.83729,0.653596,
2,1,0,1,0,35672.3,0.649964,0.649654,0.130132,54,0.843845,10,8.45408e-05,-3.88562,0.0277625,2.12517,0.649597,
2,1,0,1,0,35673.1,0.64597,0.645708,0.091846,54,0.843925,10,5.93057e-05,-4.03694,0.0233961,2.52179,0.645667,
2,1,0,1,0,35673.9,0.641974,0.641685,0.0582403,54,0.843978,10,3.73719e-05,-4.23478,0.0170538,3.45965,0.641659,
2,1,0,0,0,35674.7,0.637979,0.637664,0.0303962,54,0.844005,10,1.93826e-05,-4.51718,0.010587,5.57288,0.637651,
2,1,0,1,0,35675.5,0.633983,0.63369,0.00642417,54,0.844012,10,4.07093e-06,-5.19218,0.00581624,10.144,0.633687,
2,0,0,1,0,35676.3,0.629988,0.629693,-0.0127098,54,0.844001,10,-8.00327e-06,-4.89586,-0.00517391,-11.4034,0.629698,
2,0,0,1,0,35677.1,0.625993,0.625712,-0.0294146,54,0.843977,10,-1.84051e-05,-4.53144,-0.0175494,-3.36194,0.625725,
2,0,0,1,0,35677.9,0.621998,0.621743,-0.0424913,54,0.84394,10,-2.64186e-05,-4.3717,-0.032815,-1.79796,0.621762,
2,0,0,0,0,35678.7,0.618003,0.617738,-0.0542122,54,0.843894,10,-3.34889e-05,-4.2659,-0.0422243,-1.3973,0.617762,
2,0,0,1,0,35679.5,0.614008,0.613748,-0.0636717,54,0.843839,10,-3.90784e-05,-4.19605,-0.0826959,-0.713457,0.613776,
2,0,0,1,0,35680.3,0.610012,0.609707,-0.0720488,54,0.843777,10,-4.39287e-05,-4.14237,-0.074121,-0.795995,0.609739,
2,0,0,1,0,35681.1,0.606017,0.60575,-0.0781367,54,0.843709,10,-4.73313e-05,-4.10714,-0.148834,-0.396416,0.605784,
2,0,0,1,0,35681.9,0.602022,0.601687,-0.0844174,54,0.843636,10,-5.07929e-05,-4.07357,-0.127196,-0.46385,0.601724,
2,0,0,0,0,35682.7,0.598027,0.597739,-0.0892175,54,0.843558,10,-5.33288e-05,-4.04955,-0.171629,-0.343764,0.597778,
2,0,0,1,0,35683.5,0.594032,0.593691,-0.0939834,54,0.843477,10,-5.57971e-05,-4.02695,-0.2422,-0.2436,0.593732,
2,0,0,0,0,35684.3,0.590037,0.589747,-0.097776,54,0.843393,10,-5.76631e-05,-4.00977,-0.279322,-0.211226,0.58979,
2,0,0,1,0,35685.1,0.586041,0.585738,-0.100465,54,0.843306,10,-5.8846e-05,-3.99799,-0.289915,-0.203508,0.585782,
2,0,0,1,0,35685.9,0.582046,0.58175,-0.10394,54,0.843217,10,-6.04668e-05,-3.98322,-0.581991,-0.101376,0.581795,
2,0,0,1,0,35686.7,0.578052,0.577735,-0.105024,54,0.843126,10,-6.06759e-05,-3.97871,-0.29908,-0.197272,0.577781,
2,0,0,1,0,35687.5,0.574056,0.573771,-0.106373,54,0.843033,10,-6.10336e-05,-3.97317,-1.00119,-0.05893,0.573818,
2,0,0,0,0,35688.3,0.570061,0.569746,-0.109077,54,0.842938,10,-6.21464e-05,-3.96227,-0.695782,-0.0847967,0.569794,
2,0,0,1,0,35689.1,0.566065,0.565728,-0.110695,54,0.842843,10,-6.26231e-05,-3.95587,-0.434316,-0.135846,0.565776,
2,0,0,1,0,35689.9,0.56207,0.561772,-0.11209,54,0.842746,10,-6.29692e-05,-3.95043,-0.757253,-0.0779132,0.561821,
2,0,0,1,0,35690.7,0.558075,0.557806,-0.113772,54,0.842648,10,-6.34626e-05,-3.94397,-0.736632,-0.0800943,0.557856,
2,0,0,1,0,35691.5,0.55408,0.553799,-0.114721,54,0.842549,10,-6.35324e-05,-3.94036,-0.632034,-0.0933494,0.553849,
2,0,0,0,0,35692.3,0.550085,0.549757,-0.11556,54,0.842448,10,-6.35299e-05,-3.93719,-3.65019,-0.0161636,0.549808,
2,0,0,1,0,35693.1,0.54609,0.545781,-0.117356,54,0.842348,10,-6.40507e-05,-3.93049,-0.769511,-0.0766721,0.545832,
2,0,0,1,0,35693.9,0.542094,0.541787,-0.118175,54,0.842246,10,-6.40257e-05,-3.92747,-2.66551,-0.0221346,0.541839,
2,0,0,1,0,35694.7,0.538099,0.537807,-0.119323,54,0.842143,10,-6.41726e-05,-3.92328,-0.918795,-0.0642145,0.537859,
2,0,0,1,0,35695.5,0.534104,0.533792,-0.119614,54,0.84204,10,-6.38491e-05,-3.92222,-0.96854,-0.0609164,0.533845,
2,0,0,0,0,35696.3,0.530109,0.529738,-0.121393,54,0.841935,10,-6.43065e-05,-3.91581,-5.05596,-0.0116694,0.529791,
2,0,0,1,0,35697.1,0.526114,0.525822,-0.121761,54,0.84183,10,-6.40247e-05,-3.91449,-0.520722,-0.113304,0.525875,
2,0,0,0,0,35697.9,0.522119,0.521766,-0.122297,54,0.841725,10,-6.38104e-05,-3.91258,-2.43951,-0.0241852,0.52182,
2,0,0,1,0,35698.7,0.518123,0.5178,-0.12379,54,0.841619,10,-6.40983e-05,-3.90732,-0.807786,-0.0730392,0.517854,
2,0,0,1,0,35699.5,0.514128,0.513804,-0.124417,54,0.841511,10,-6.3926e-05,-3.90512,-1.39184,-0.0423899,0.513859,
2,0,0,1,0,35700.3,0.510133,0.509841,-0.125123,54,0.841403,10,-6.37926e-05,-3.90266,-0.887993,-0.0664419,0.509896,
2,0,0,1,0,35701.1,0.506138,0.505796,-0.12647,54,0.841294,10,-6.39678e-05,-3.89801,3.15907,0.0186764,0.505852,
2,0,0,0,0,35701.9,0.502143,0.501825,-0.128085,54,0.841185,10,-6.42761e-05,-3.8925,-0.454199,-0.129899,0.501881,
2,0,0,1,0,35702.7,0.498148,0.497863,-0.128978,54,0.841074,10,-6.42133e-05,-3.88949,4.82216,0.0122352,0.49792,
2,0,0,1,0,35703.5,0.494152,0.493856,-0.130356,54,0.840962,10,-6.43769e-05,-3.88487,-0.820437,-0.0719129,0.493913,
2,0,0,1,0,35704.3,0.490157,0.489798,-0.130661,54,0.84085,10,-6.39974e-05,-3.88385,-0.863589,-0.0683196,0.489855,
2,0,0,1,0,35705.1,0.486162,0.485838,-0.131875,54,0.840737,10,-6.40698e-05,-3.87984,-1.58804,-0.0371527,0.485896,
2,0,0,0,0,35705.9,0.482167,0.48186,-0.133008,54,0.840622,10,-6.40912e-05,-3.87612,-0.870228,-0.0677984,0.481918,
2,0,0,1,0,35706.7,0.478172,0.477863,-0.13366,54,0.840507,10,-6.38713e-05,-3.874,-0.990578,-0.0595612,0.477922,
2,0,0,0,0,35707.5,0.474177,0.473848,-0.135472,54,0.840391,10,-6.41929e-05,-3.86815,-3.63755,-0.0162197,0.473908,
2,0,0,1,0,35708.3,0.470181,0.469863,-0.137189,54,0.840273,10,-6.44602e-05,-3.86268,-0.412809,-0.142923,0.469923,
2,0,0,1,0,35709.1,0.466186,0.465856,-0.138383,54,0.840155,10,-6.44664e-05,-3.85892,-1.84643,-0.0319535,0.465917,
2,0,0,1,0,35709.9,0.462191,0.461831,-0.140117,54,0.840035,10,-6.47103e-05,-3.85351,-0.739663,-0.079766,0.461893,
2,0,0,1,0,35710.7,0.458196,0.457921,-0.140602,54,0.839915,10,-6.43846e-05,-3.85201,-1.42221,-0.0414847,0.457983,
2,0,0,0,0,35711.5,0.454201,0.4539,-0.142993,54,0.839793,10,-6.49046e-05,-3.84468,-0.950637,-0.0620637,0.453963,
2,0,0,1,0,35712.3,0.450205,0.449881,-0.144206,54,0.83967,10,-6.48758e-05,-3.84102,-1.3557,-0.04352,0.449945,
2,0,0,1,0,35713.1,0.44621,0.445896,-0.145306,54,0.839546,10,-6.47915e-05,-3.83772,-0.570058,-0.103498,0.44596,
2,0,0,1,0,35713.9,0.442215,0.441936,-0.147441,54,0.83942,10,-6.51594e-05,-3.83138,-1.36003,-0.0433814,0.442001,
2,0,0,1,0,35714.7,0.43822,0.437941,-0.149284,54,0.839292,10,-6.53776e-05,-3.82599,-0.463208,-0.127373,0.438006,
2,0,0,0,0,35715.5,0.434225,0.433932,-0.150515,54,0.839164,10,-6.53134e-05,-3.82242,-1.09146,-0.0540562,0.433999,
2,0,0,1,0,35716.3,0.43023,0.429947,-0.152104,54,0.839034,10,-6.53966e-05,-3.81786,-0.902901,-0.0653449,0.430014,
2,0,0,1,0,35717.1,0.426234,0.425939,-0.1533,54,0.838903,10,-6.52964e-05,-3.81446,-1.08844,-0.0542059,0.426006,
2,0,0,1,0,35717.9,0.422239,0.421943,-0.155599,54,0.838771,10,-6.5654e-05,-3.80799,-0.640015,-0.0921853,0.422012,
2,0,0,1,0,35718.7,0.418244,0.417975,-0.157602,54,0.838637,10,-6.58738e-05,-3.80244,-0.818294,-0.0721012,0.418045,
2,0,0,0,0,35719.5,0.414249,0.41401,-0.158698,54,0.838501,10,-6.57027e-05,-3.79943,-0.893007,-0.0660689,0.41408,
2,0,0,1,0,35720.3,0.410254,0.409952,-0.161111,54,0.838364,10,-6.60479e-05,-3.79287,-1.31091,-0.045007,0.410023,
2,0,0,0,0,35721.1,0.406259,0.405925,-0.163225,54,0.838226,10,-6.6257e-05,-3.78721,-0.574761,-0.102651,0.405997,
2,0,0,1,0,35721.9,0.402263,0.401964,-0.165654,54,0.838086,10,-6.6587e-05,-3.7808,-1.15509,-0.0510783,0.402037,
2,0,0,1,0,35722.7,0.398268,0.397959,-0.166642,54,0.837944,10,-6.63169e-05,-3.77821,-0.55766,-0.105799,0.398032,
2,0,0,1,0,35723.5,0.394274,0.39396,-0.168699,54,0.837801,10,-6.64607e-05,-3.77289,-1.08696,-0.0542798,0.394034,
2,0,0,1,0,35724.3,0.390278,0.389924,-0.17045,54,0.837656,10,-6.64626e-05,-3.7684,-0.873401,-0.067552,0.389999,
2,0,0,0,0,35725.1,0.386283,0.385971,-0.172128,54,0.83751,10,-6.64366e-05,-3.76415,-0.655039,-0.0900709,0.386047,
2,0,0,1,0,35725.9,0.382287,0.382013,-0.17356,54,0.837361,10,-6.63021e-05,-3.76055,-0.870581,-0.0677708,0.38209,
2,0,0,1,0,35726.7,0.378292,0.378009,-0.176965,54,0.837212,10,-6.68943e-05,-3.75211,-1.01375,-0.0582,0.378087,
2,0,0,1,0,35727.5,0.374297,0.374014,-0.178381,54,0.83706,10,-6.67171e-05,-3.74865,-0.422784,-0.139551,0.374093,
2,0,0,1,0,35728.3,0.370303,0.369994,-0.181848,54,0.836906,10,-6.72828e-05,-3.74029,-0.977038,-0.0603866,0.370074,
2,0,0,0,0,35729.1,0.366307,0.366011,-0.183384,54,0.836751,10,-6.71206e-05,-3.73664,-1.0495,-0.0562174,0.366092,
2,0,0,1,0,35729.9,0.362312,0.362042,-0.185316,54,0.836594,10,-6.70921e-05,-3.73209,-0.678903,-0.086905,0.362124,
2,0,0,1,0,35730.7,0.358316,0.357981,-0.186812,54,0.836435,10,-6.68751e-05,-3.7286,-0.987661,-0.0597371,0.358063,
2,0,0,1,0,35731.5,0.354321,0.354002,-0.189004,54,0.836274,10,-6.69079e-05,-3.72353,-0.736706,-0.0800862,0.354085,
2,0,0,1,0,35732.3,0.350327,0.349996,-0.191874,54,0.836112,10,-6.71551e-05,-3.71698,-0.775323,-0.0760973,0.350081,
2,0,0,0,0,35733.1,0.346331,0.346029,-0.192875,54,0.835947,10,-6.67402e-05,-3.71473,-1.49397,-0.039492,0.346114,
2,0,0,1,0,35733.9,0.342336,0.342025,-0.195807,54,0.835781,10,-6.6971e-05,-3.70817,-0.416611,-0.141619,0.342111,
2,0,0,0,0,35734.7,0.338341,0.338039,-0.198453,54,0.835613,10,-6.70848e-05,-3.70234,-1.67914,-0.0351369,0.338126,
2,0,0,1,0,35735.5,0.334345,0.334055,-0.201181,54,0.835443,10,-6.72056e-05,-3.69641,-0.643053,-0.0917498,0.334143,
2,0,0,1,0,35736.3,0.33035,0.32998,-0.203143,54,0.835271,10,-6.7033e-05,-3.6922,-0.881318,-0.0669452,0.330069,
2,0,0,1,0,35737.1,0.326355,0.326022,-0.205342,54,0.835097,10,-6.69461e-05,-3.68752,-0.779023,-0.0757359,0.326112,
2,0,0,1,0,35737.9,0.32236,0.322055,-0.20791,54,0.834922,10,-6.69584e-05,-3.68213,-0.962126,-0.0613225,0.322147,
2,0,0,0,0,35738.7,0.318365,0.318094,-0.209716,54,0.834744,10,-6.67093e-05,-3.67837,-0.542799,-0.108696,0.318186,
2,0,0,1,0,35739.5,0.31437,0.314037,-0.213087,54,0.834564,10,-6.69174e-05,-3.67144,-3.21922,-0.0183274,0.314131,
2,0,0,1,0,35740.3,0.310374,0.310065,-0.215456,54,0.834382,10,-6.68055e-05,-3.66664,-0.618164,-0.0954439,0.31016,
2,0,0,1,0,35741.1,0.306379,0.306064,-0.218049,54,0.834199,10,-6.6737e-05,-3.66145,-0.868573,-0.0679275,0.30616,
2,0,0,1,0,35741.9,0.302385,0.302083,-0.220576,54,0.834013,10,-6.66321e-05,-3.65644,-0.607771,-0.097076,0.30218,
2,0,0,0,0,35742.7,0.298389,0.298084,-0.222481,54,0.833826,10,-6.63179e-05,-3.65271,-0.647907,-0.0910624,0.298182,
2,0,0,1,0,35743.5,0.294394,0.294088,-0.225016,54,0.833636,10,-6.61746e-05,-3.64779,-1.10069,-0.0536027,0.294187,
2,0,0,1,0,35744.3,0.290398,0.290091,-0.228145,54,0.833444,10,-6.61829e-05,-3.64179,-1.31193,-0.0449719,0.290191,
2,0,0,1,0,35745.1,0.286403,0.286104,-0.230434,54,0.83325,10,-6.5928e-05,-3.63745,-0.603835,-0.0977088,0.286205,
2,0,0,1,0,35745.8,0.282408,0.282127,-0.23303,54,0.833054,10,-6.57439e-05,-3.63259,-1.76899,-0.0333524,0.282229,
2,0,0,1,0,35746.6,0.278414,0.278138,-0.2362,54,0.832856,10,-6.56963e-05,-3.62672,-0.598665,-0.0985525,0.278242,
2,0,0,1,0,35747.4,0.274418,0.274141,-0.237058,54,0.832656,10,-6.49873e-05,-3.62515,-0.874118,-0.0674966,0.274245,
2,0,0,0,0,35748.2,0.270423,0.270105,-0.241441,54,0.832454,10,-6.52144e-05,-3.61719,-0.743807,-0.0793216,0.270211,
2,0,0,1,0,35749,0.266427,0.26614,-0.243936,54,0.83225,10,-6.4921e-05,-3.61272,-1.29692,-0.0454925,0.266247,
2,0,0,1,0,35749.8,0.262432,0.262106,-0.244993,54,0.832043,10,-6.42143e-05,-3.61085,-0.813488,-0.0725272,0.262214,
2,0,0,1,0,35750.6,0.258437,0.258103,-0.248823,54,0.831835,10,-6.4222e-05,-3.60411,-0.741992,-0.0795157,0.258213,
2,0,0,1,0,35751.4,0.254442,0.254131,-0.250139,54,0.831625,10,-6.35682e-05,-3.60182,-1.15634,-0.0510232,0.254241,
2,0,0,0,0,35752.2,0.250447,0.250135,-0.253124,54,0.831413,10,-6.33152e-05,-3.59667,-2.14039,-0.0275651,0.250247,
2,0,0,1,0,35753,0.246452,0.246177,-0.255197,54,0.831199,10,-6.28234e-05,-3.59313,-0.655823,-0.0899633,0.246289,
2,0,0,1,0,35753.8,0.242456,0.242143,-0.257638,54,0.830983,10,-6.23852e-05,-3.58899,-2.2955,-0.0257024,0.242256,
2,0,0,1,0,35754.6,0.238461,0.238132,-0.259042,54,0.830766,10,-6.1686e-05,-3.58663,-0.737055,-0.0800483,0.238246,
2,0,0,1,0,35755.4,0.234467,0.234169,-0.262152,54,0.830546,10,-6.13877e-05,-3.58145,-0.918282,-0.0642504,0.234284,
2,0,0,0,0,35756.2,0.230471,0.230134,-0.264584,54,0.830325,10,-6.08898e-05,-3.57744,-1.06325,-0.05549,0.23025,
2,0,0,1,0,35757,0.226476,0.22615,-0.26748,54,0.830101,10,-6.04906e-05,-3.57271,-1.00492,-0.0587112,0.226268,
2,0,0,0,0,35757.8,0.222481,0.222143,-0.268908,54,0.829875,10,-5.9736e-05,-3.5704,-0.755698,-0.0780736,0.222261,
2,0,0,1,0,35758.6,0.218485,0.218152,-0.273573,54,0.829647,10,-5.96806e-05,-3.56293,-2.16105,-0.0273015,0.218272,
2,0,0,1,0,35759.4,0.21449,0.214182,-0.275133,54,0.829417,10,-5.89285e-05,-3.56046,-0.543992,-0.108457,0.214303,
2,0,0,1,0,35760.2,0.210496,0.210181,-0.278028,54,0.829185,10,-5.8436e-05,-3.55591,-1.03712,-0.0568884,0.210303,
2,0,0,1,0,35761,0.2065,0.206175,-0.281199,54,0.82895,10,-5.79762e-05,-3.55099,-1.19804,-0.049247,0.206299,
2,0,0,0,0,35761.8,0.202505,0.202207,-0.283415,54,0.828713,10,-5.73085e-05,-3.54758,-0.764099,-0.0772151,0.202332,
2,0,0,1,0,35762.6,0.198509,0.198162,-0.28793,54,0.828473,10,-5.70569e-05,-3.54071,-0.682148,-0.0864915,0.198289,
2,0,0,1,0,35763.4,0.194514,0.194196,-0.292373,54,0.828231,10,-5.67775e-05,-3.53406,-0.77777,-0.0758579,0.194324,
2,0,0,1,0,35764.2,0.190519,0.190194,-0.294579,54,0.827985,10,-5.60272e-05,-3.5308,-0.663939,-0.0888636,0.190323,
2,0,0,1,0,35765,0.186524,0.186209,-0.299994,54,0.827736,10,-5.58615e-05,-3.52289,-1.14944,-0.0513292,0.186341,
2,0,0,0,0,35765.8,0.182529,0.182174,-0.303488,54,0.827484,10,-5.52876e-05,-3.51786,-0.428391,-0.137725,0.182307,
2,0,0,1,0,35766.6,0.178534,0.17825,-0.308584,54,0.827228,10,-5.50051e-05,-3.51063,-0.529995,-0.111322,0.178386,
2,0,0,1,0,35767.4,0.174538,0.174214,-0.315284,54,0.826967,10,-5.49269e-05,-3.5013,-0.3486,-0.169248,0.174353,
2,0,0,1,0,35768.2,0.170543,0.170207,-0.32263,54,0.8267,10,-5.4914e-05,-3.49129,-0.345153,-0.170939,0.170349,
2,0,0,1,0,35769,0.166549,0.166211,-0.331819,54,0.826427,10,-5.51519e-05,-3.4791,-0.398669,-0.147993,0.166357,
2,0,0,0,0,35769.8,0.162553,0.162233,-0.341108,54,0.826147,10,-5.5339e-05,-3.46711,-0.25841,-0.22832,0.162383,
2,0,0,1,0,35770.6,0.158558,0.158219,-0.353302,54,0.825857,10,-5.58991e-05,-3.45185,-0.228084,-0.258676,0.158375,
2,0,0,0,0,35771.4,0.154563,0.154217,-0.372686,54,0.825555,10,-5.74747e-05,-3.42866,-0.198628,-0.297038,0.154381,
2,0,0,1,0,35772.2,0.150567,0.15023,-0.393547,54,0.825238,10,-5.91226e-05,-3.405,-0.125598,-0.469754,0.150403,
2,0,0,1,0,35773,0.146572,0.14623,-0.423313,54,0.824901,10,-6.19012e-05,-3.37334,-0.12096,-0.487763,0.146417,
2,0,0,1,0,35773.8,0.142578,0.142245,-0.462463,54,0.824536,10,-6.57829e-05,-3.33492,-0.0945769,-0.623831,0.142448,
2,0,0,1,0,35774.6,0.138582,0.138241,-0.50895,54,0.824137,10,-7.03578e-05,-3.29332,-0.0930673,-0.63395,0.138465,
2,0,0,0,0,35775.4,0.134587,0.134255,-0.561109,54,0.823697,10,-7.53318e-05,-3.25095,-0.101277,-0.582563,0.134502,
2,0,0,1,0,35776.2,0.130591,0.130298,-0.611775,54,0.823216,10,-7.97133e-05,-3.21341,-0.116106,-0.508156,0.130568,
2,0,0,1,0,35777,0.126596,0.126267,-0.652192,54,0.822697,10,-8.23502e-05,-3.18562,-0.167317,-0.352624,0.126554,
2,0,0,1,0,35777.8,0.122602,0.122261,-0.685205,54,0.822149,10,-8.37739e-05,-3.16418,-0.270643,-0.217999,0.122563,
2,0,0,1,0,35778.6,0.118607,0.118277,-0.701108,54,0.821583,10,-8.29252e-05,-3.15422,-0.411274,-0.143457,0.118586,
2,0,0,0,0,35779.4,0.114611,0.114259,-0.710677,54,0.821004,10,-8.12012e-05,-3.14833,-3.14992,-0.0187306,0.114572,
2,0,0,1,0,35780.2,0.110616,0.110286,-0.71204,54,0.820424,10,-7.85278e-05,-3.1475,3.21238,0.0183664,0.110599,
2,0,0,1,0,35781,0.10662,0.10627,-0.708016,54,0.819845,10,-7.52412e-05,-3.14996,2.77272,0.0212787,0.106582,
2,0,0,1,0,35781.8,0.102625,0.102297,-0.702898,54,0.819268,10,-7.19047e-05,-3.15311,0.728895,0.0809445,0.102607,
2,0,0,1,0,35782.6,0.0986305,0.0983119,-0.695626,54,0.818698,10,-6.83883e-05,-3.15762,1.09836,0.0537163,0.0986179,
2,0,0,0,0,35783.4,0.0946351,0.0943319,-0.683572,54,0.818133,10,-6.44826e-05,-3.16522,0.566756,0.104101,0.0946326,
2,0,0,1,0,35784.2,0.0906399,0.0903256,-0.676633,54,0.817576,10,-6.11173e-05,-3.16965,0.621443,0.0949404,0.0906234,
2,0,0,0,0,35785,0.0866448,0.0863321,-0.666496,54,0.817027,10,-5.754e-05,-3.1762,0.834199,0.0707265,0.0866254,
2,0,0,1,0,35785.8,0.0826492,0.0822852,-0.657015,54,0.816486,10,-5.40625e-05,-3.18243,0.597711,0.0987099,0.0825742,
2,0,0,1,0,35786.6,0.0786544,0.0783249,-0.648897,54,0.815952,10,-5.08248e-05,-3.18782,0.689144,0.0856135,0.0786104,
2,0,0,1,0,35787.4,0.0746596,0.0743169,-0.638986,54,0.815426,10,-4.74875e-05,-3.19451,0.583983,0.10103,0.0745981,
2,0,0,1,0,35788.2,0.0706641,0.0703349,-0.630816,54,0.814907,10,-4.43684e-05,-3.2001,0.649981,0.0907719,0.0706124,
2,0,0,0,0,35789,0.0666689,0.0663424,-0.621581,54,0.814395,10,-4.12372e-05,-3.2065,0.835096,0.0706505,0.0666159,
2,0,0,1,0,35789.8,0.0626737,0.0623595,-0.612205,54,0.813889,10,-3.81768e-05,-3.2131,0.598361,0.0986028,0.0626289,
2,0,0,1,0,35790.6,0.0586783,0.0583627,-0.604916,54,0.813391,10,-3.53045e-05,-3.2183,0.481836,0.122448,0.0586288,
2,0,0,1,0,35791.4,0.0546835,0.0543229,-0.595667,54,0.8129,10,-3.23583e-05,-3.225,0.827047,0.0713382,0.054585,
2,0,0,1,0,35792.2,0.0506886,0.0503785,-0.585592,54,0.812416,10,-2.95012e-05,-3.2324,0.467646,0.126164,0.0506361,
2,0,0,0,0,35793,0.046693,0.0463877,-0.573824,54,0.811941,10,-2.66184e-05,-3.24122,0.527814,0.111782,0.0466402,
2,0,0,1,0,35793.8,0.0426979,0.0423953,-0.563294,54,0.811474,10,-2.3881e-05,-3.24926,0.533066,0.11068,0.0426431,
2,0,0,1,0,35794.6,0.0387022,0.0383355,-0.553234,54,0.811015,10,-2.12085e-05,-3.25709,0.428828,0.137584,0.038579,
2,0,0,1,0,35795.4,0.0347074,0.0344103,-0.543639,54,0.810565,10,-1.87068e-05,-3.26469,0.486555,0.121261,0.0346495,
2,0,0,1,0,35796.2,0.0307126,0.0304088,-0.532018,54,0.810123,10,-1.6178e-05,-3.27407,0.540453,0.109168,0.0306429,
2,0,0,0,0,35797,0.0267172,0.0263598,-0.523566,54,0.809689,10,-1.38011e-05,-3.28103,0.475612,0.124051,0.0265902,
2,0,0,1,0,35797.8,0.022722,0.022378,-0.515422,54,0.809262,10,-1.15341e-05,-3.28784,0.803962,0.0733866,0.0226048,
2,0,0,0,0,35798.6,0.0187268,0.0183728,-0.509813,54,0.808841,10,-9.3667e-06,-3.29259,0.823951,0.0716062,0.0185971,
2,0,0,1,0,35799.4,0.0147313,0.0144214,-0.50447,54,0.808425,10,-7.27516e-06,-3.29716,0.815119,0.0723821,0.0146434,
2,0,0,1,0,35800.2,0.0107365,0.0103401,-0.500023,54,0.808013,10,-5.17029e-06,-3.30101,1.4708,0.0401142,0.0105601,
2,0,0,1,0,35801,0.00674163,0.00643201,-0.497881,54,0.807602,10,-3.20238e-06,-3.30287,-53.4375,-0.00110409,0.00665108,
2,0,0,1,0,35801.8,0.00274612,0.00242431,-0.499137,54,0.807193,10,-1.21006e-06,-3.30178,-1.91455,-0.0308167,0.00264393,
2,0,0,0,0,35802.3,0.000274105,-0.000105819,-0.500712,54,0.806936,10,5.2985e-08,-3.30041, , ,0.000114494,