File: Figure_codes/Fig_3-5/workspace_calculate_alpha_eff/20221101_1-115_003_TrumpetPlot_ParaChange_from10_every3_16_CV_C01_46.csv
mode,ox/red,error,control changes,counter inc.,time/s,control/V,Ewe/V,<I>/mA,cycle number,(Q-Qo)/C,I Range,P/W,log(|I|),Tafel slope mV/dec,alpha_eff,E-IR/V,
2,0,0,0,0,31152.1,2.44065e-05,-0.000497109,-0.0904896,47,0.0000000E+000,10,4.49832e-08,-4.0434, , ,-0.000457294,
2,1,0,0,0,31152.8,0.00379485,0.00345291,0.16082,47,0.000105509,10,5.55295e-07,-3.79366,0.0413274,1.42762,0.00338214,
2,1,0,1,0,31153.6,0.00779002,0.00745064,0.183372,47,0.000256718,10,1.36624e-06,-3.73667,0.0776442,0.759876,0.00736995,
2,1,0,0,0,31154.4,0.0117852,0.0114738,0.199614,47,0.000423525,10,2.29034e-06,-3.69981,0.126375,0.466865,0.011386,
2,1,0,1,0,31155.2,0.0157806,0.0154592,0.215718,47,0.00060252,10,3.33483e-06,-3.66611,0.137657,0.4286,0.0153643,
2,1,0,1,0,31156,0.0197754,0.0194236,0.227205,47,0.000792435,10,4.41314e-06,-3.64358,0.152229,0.387575,0.0193236,
2,1,0,1,0,31156.8,0.0237704,0.0234539,0.242794,47,0.000993594,10,5.69446e-06,-3.61476,0.155234,0.380072,0.0233471,
2,1,0,1,0,31157.6,0.0277659,0.0274637,0.256193,47,0.00120582,10,7.03602e-06,-3.59143,0.167279,0.352703,0.027351,
2,1,0,0,0,31158.4,0.0317611,0.031454,0.270721,47,0.00142939,10,8.51524e-06,-3.56748,0.167971,0.351251,0.0313349,
2,1,0,1,0,31159.2,0.0357567,0.0354321,0.284479,47,0.00166478,10,1.00797e-05,-3.54595,0.208306,0.283238,0.0353069,
2,1,0,1,0,31160,0.0397516,0.0393681,0.299056,47,0.0019111,10,1.17733e-05,-3.52425,0.171543,0.343937,0.0392365,
2,1,0,1,0,31160.8,0.0437465,0.043411,0.312228,47,0.00216944,10,1.35541e-05,-3.50553,0.218362,0.270194,0.0432737,
2,1,0,1,0,31161.6,0.0477413,0.0474052,0.326742,47,0.00243816,10,1.54893e-05,-3.48579,0.224626,0.262659,0.0472614,
2,1,0,0,0,31162.4,0.0517369,0.0513769,0.338795,47,0.00271734,10,1.74062e-05,-3.47006,0.221143,0.266795,0.0512278,
2,1,0,1,0,31163.2,0.0557321,0.0553747,0.351943,47,0.00300725,10,1.94887e-05,-3.45353,0.306446,0.19253,0.0552198,
2,1,0,1,0,31164,0.0597277,0.0594089,0.363316,47,0.00330597,10,2.15842e-05,-3.43972,0.296962,0.198679,0.0592491,
2,1,0,1,0,31164.8,0.0637226,0.063399,0.372544,47,0.00361379,10,2.36189e-05,-3.42882,0.318396,0.185304,0.063235,
2,1,0,1,0,31165.6,0.0677174,0.0674059,0.384789,47,0.00393039,10,2.5937e-05,-3.41478,0.539534,0.109354,0.0672366,
2,1,0,0,0,31166.4,0.0717128,0.0713369,0.392948,47,0.00425437,10,2.80317e-05,-3.40567,0.349482,0.168821,0.0711641,
2,1,0,1,0,31167.2,0.075708,0.0753919,0.400013,47,0.00458572,10,3.01578e-05,-3.39793,0.417558,0.141298,0.0752159,
2,1,0,0,0,31168,0.0797031,0.0793759,0.410434,47,0.00492336,10,3.25786e-05,-3.38676,0.451447,0.130691,0.0791953,
2,1,0,1,0,31168.8,0.0836986,0.0833962,0.419208,47,0.00526779,10,3.49604e-05,-3.37757,0.3962,0.148915,0.0832118,
2,1,0,1,0,31169.6,0.0876935,0.0873352,0.429577,47,0.00562038,10,3.75172e-05,-3.36696,0.322776,0.18279,0.0871462,
2,1,0,1,0,31170.4,0.0916883,0.0913179,0.443447,47,0.00598229,10,4.04946e-05,-3.35316,0.257272,0.229329,0.0911228,
2,1,0,1,0,31171.2,0.0956838,0.0953605,0.460011,47,0.00635738,10,4.38668e-05,-3.33723,0.221402,0.266484,0.0951581,
2,1,0,0,0,31172,0.099679,0.099372,0.482977,47,0.00674792,10,4.79944e-05,-3.31607,0.218616,0.26988,0.0991595,
2,1,0,1,0,31172.8,0.103674,0.103353,0.506303,47,0.00715595,10,5.23278e-05,-3.29559,0.173336,0.340379,0.10313,
2,1,0,1,0,31173.6,0.10767,0.107388,0.527826,47,0.00758347,10,5.66821e-05,-3.27751,0.230602,0.255852,0.107156,
2,1,0,1,0,31174.4,0.111664,0.111334,0.548503,47,0.0080276,10,6.10667e-05,-3.26082,0.262405,0.224844,0.111092,
2,1,0,1,0,31175.2,0.115659,0.115325,0.565166,47,0.00848643,10,6.51779e-05,-3.24782,0.310927,0.189755,0.115077,
2,1,0,0,0,31176,0.119655,0.119316,0.578991,47,0.0089583,10,6.9083e-05,-3.23733,0.599356,0.0984389,0.119061,
2,1,0,1,0,31176.8,0.12365,0.12335,0.59338,47,0.00943975,10,7.31934e-05,-3.22667,0.413977,0.14252,0.123089,
2,1,0,1,0,31177.6,0.127646,0.127328,0.602107,47,0.00993108,10,7.66651e-05,-3.22033,0.576962,0.10226,0.127063,
2,1,0,1,0,31178.4,0.131641,0.131331,0.609189,47,0.0104296,10,8.00051e-05,-3.21525,-1.83991,-0.0320668,0.131062,
2,1,0,1,0,31179.2,0.135635,0.135322,0.596595,47,0.0109265,10,8.07324e-05,-3.22432,-0.326837,-0.180518,0.135059,
2,1,0,0,0,31180,0.139631,0.139292,0.566749,47,0.0114079,10,7.89437e-05,-3.24661,-0.125687,-0.469418,0.139043,
2,1,0,1,0,31180.8,0.143626,0.143316,0.515547,47,0.011856,10,7.38863e-05,-3.28773,-0.0807324,-0.730809,0.143089,
2,1,0,0,0,31181.6,0.147621,0.147241,0.454357,47,0.0122573,10,6.68999e-05,-3.3426,-0.0692591,-0.851873,0.147041,
2,1,0,1,0,31182.4,0.151617,0.151264,0.397242,47,0.0126102,10,6.00885e-05,-3.40094,-0.0713197,-0.827261,0.15109,
2,1,0,1,0,31183.2,0.155612,0.155306,0.357222,47,0.0129232,10,5.54789e-05,-3.44706,-0.101684,-0.580228,0.155149,
2,1,0,1,0,31184,0.159606,0.159254,0.328359,47,0.013209,10,5.22924e-05,-3.48365,-0.136146,-0.433359,0.159109,
2,1,0,1,0,31184.8,0.163602,0.163305,0.310079,47,0.0134769,10,5.06375e-05,-3.50853,-0.173534,-0.339992,0.163169,
2,1,0,0,0,31185.6,0.167597,0.167274,0.298961,47,0.0137326,10,5.00084e-05,-3.52439,-0.307047,-0.192153,0.167143,
2,1,0,1,0,31186.4,0.171592,0.171279,0.28761,47,0.0139803,10,4.92617e-05,-3.5412,-0.331546,-0.177954,0.171153,
2,1,0,1,0,31187.2,0.175588,0.175232,0.282341,47,0.0142217,10,4.94751e-05,-3.54923,-0.473875,-0.124505,0.175107,
2,1,0,1,0,31188,0.179582,0.179252,0.278104,47,0.0144583,10,4.98508e-05,-3.55579,-0.606692,-0.0972486,0.17913,
2,1,0,1,0,31188.8,0.183577,0.183229,0.273166,47,0.0146912,10,5.00517e-05,-3.56357,-0.735846,-0.0801798,0.183108,
2,1,0,0,0,31189.6,0.187573,0.187243,0.270299,47,0.0149211,10,5.06116e-05,-3.56815,-0.832439,-0.070876,0.187124,
2,1,0,1,0,31190.4,0.191568,0.191249,0.26699,47,0.0151488,10,5.10615e-05,-3.57351,-0.706131,-0.0835539,0.191131,
2,1,0,0,0,31191.2,0.195563,0.195218,0.264968,47,0.0153744,10,5.17266e-05,-3.57681,-0.705688,-0.0836064,0.195101,
2,1,0,1,0,31192,0.199559,0.199219,0.262695,47,0.0155979,10,5.23337e-05,-3.58055,-1.9787,-0.0298176,0.199103,
2,1,0,1,0,31192.8,0.203553,0.203244,0.260298,47,0.0158199,10,5.29041e-05,-3.58453,-1.66436,-0.0354491,0.203129,
2,1,0,1,0,31193.6,0.207548,0.207207,0.25979,47,0.0160406,10,5.38305e-05,-3.58538,-3.81807,-0.0154529,0.207093,
2,1,0,1,0,31194.4,0.211544,0.211227,0.257287,47,0.0162597,10,5.4346e-05,-3.58958,-0.811441,-0.0727101,0.211114,
2,1,0,0,0,31195.2,0.215539,0.215228,0.255777,47,0.0164776,10,5.50502e-05,-3.59214,-2.68162,-0.0220016,0.215115,
2,1,0,1,0,31196,0.219535,0.219247,0.255679,47,0.0166941,10,5.6057e-05,-3.5923,-1.50207,-0.0392792,0.219135,
2,1,0,1,0,31196.8,0.223529,0.223225,0.252237,47,0.0169094,10,5.63056e-05,-3.59819,-2.23539,-0.0263936,0.223114,
2,1,0,1,0,31197.6,0.227524,0.227196,0.252377,47,0.0171238,10,5.73392e-05,-3.59795,-0.939762,-0.0627819,0.227085,
2,1,0,1,0,31198.4,0.23152,0.231207,0.250638,47,0.0173369,10,5.79494e-05,-3.60095,-5.9414,-0.00993031,0.231097,
2,1,0,0,0,31199.2,0.235515,0.235252,0.248783,47,0.0175492,10,5.85269e-05,-3.60418,-7.27435,-0.00811069,0.235143,
2,1,0,1,0,31200,0.23951,0.2392,0.248673,47,0.0177606,10,5.94826e-05,-3.60437,-1.68249,-0.035067,0.239091,
2,1,0,1,0,31200.8,0.243506,0.243173,0.247039,47,0.0179713,10,6.00731e-05,-3.60724,3.02895,0.0194787,0.243064,
2,1,0,1,0,31201.6,0.2475,0.247188,0.246105,47,0.0181814,10,6.08344e-05,-3.60888,-1.09287,-0.0539864,0.24708,
2,1,0,1,0,31202.4,0.251495,0.251176,0.245067,47,0.0183904,10,6.15551e-05,-3.61071,-1.56767,-0.0376355,0.251069,
2,1,0,0,0,31203.2,0.255491,0.255124,0.245294,47,0.0185988,10,6.25805e-05,-3.61031,-8.58548,-0.00687207,0.255017,
2,1,0,1,0,31204,0.259486,0.259221,0.243546,47,0.0188068,10,6.31323e-05,-3.61342,-0.991042,-0.0595333,0.259114,
2,1,0,0,0,31204.8,0.263481,0.263136,0.244503,47,0.0190139,10,6.43375e-05,-3.61172,2.83718,0.0207953,0.263028,
2,1,0,1,0,31205.6,0.267477,0.267191,0.242405,47,0.0192207,10,6.47684e-05,-3.61546,-1.47369,-0.0400355,0.267084,
2,1,0,1,0,31206.4,0.271471,0.271155,0.241731,47,0.0194266,10,6.55465e-05,-3.61667,-6.62671,-0.00890336,0.271048,
2,1,0,1,0,31207.2,0.275466,0.275157,0.240742,47,0.0196316,10,6.62419e-05,-3.61845,-4.1387,-0.0142557,0.275051,
2,1,0,1,0,31208,0.279462,0.279129,0.240343,47,0.0198363,10,6.70866e-05,-3.61917,-1.60359,-0.0367924,0.279023,
2,1,0,0,0,31208.8,0.283457,0.283143,0.240125,47,0.02004,10,6.79895e-05,-3.61956,-2.00216,-0.0294681,0.283037,
2,1,0,1,0,31209.6,0.287452,0.287133,0.238288,47,0.020243,10,6.84203e-05,-3.6229,-2.15669,-0.0273567,0.287028,
2,1,0,1,0,31210.4,0.291448,0.291095,0.23884,47,0.0204456,10,6.9525e-05,-3.62189,-0.932638,-0.0632614,0.29099,
2,1,0,1,0,31211.2,0.295442,0.29514,0.23695,47,0.020647,10,6.99333e-05,-3.62534,1.01524,0.0581145,0.295036,
2,1,0,1,0,31212,0.299437,0.2991,0.235725,47,0.0208479,10,7.05055e-05,-3.62759,-1.46382,-0.0403056,0.298997,
2,1,0,0,0,31212.8,0.303433,0.303129,0.235577,47,0.021048,10,7.14102e-05,-3.62787,-2.77718,-0.0212445,0.303025,
2,1,0,1,0,31213.6,0.307428,0.307099,0.23449,47,0.0212473,10,7.20118e-05,-3.62988,-2.39572,-0.0246273,0.306996,
2,1,0,1,0,31214.4,0.311424,0.311113,0.23422,47,0.0214461,10,7.28688e-05,-3.63038,-2.05058,-0.0287724,0.31101,
2,1,0,1,0,31215.2,0.315418,0.315121,0.23236,47,0.0216438,10,7.32216e-05,-3.63384,-1.56116,-0.0377925,0.315019,
2,1,0,1,0,31216,0.319413,0.319079,0.231877,47,0.0218408,10,7.39873e-05,-3.63474,-3.73659,-0.0157898,0.318977,
2,1,0,0,0,31216.8,0.323409,0.323103,0.231203,47,0.0220377,10,7.47022e-05,-3.63601,-1.38748,-0.0425231,0.323001,
2,1,0,1,0,31217.6,0.327404,0.327095,0.230877,47,0.0222337,10,7.55189e-05,-3.63662,4.19261,0.0140724,0.326994,
2,1,0,0,0,31218.3,0.331399,0.331085,0.229572,47,0.0224293,10,7.60078e-05,-3.63908,-1.59405,-0.0370127,0.330984,
2,1,0,1,0,31219.1,0.335395,0.335074,0.23065,47,0.0226242,10,7.72849e-05,-3.63705,6.26799,0.00941291,0.334973,
2,1,0,1,0,31219.9,0.339389,0.33912,0.23005,47,0.0228187,10,7.80145e-05,-3.63818,177.738,0.00033195,0.339019,
2,1,0,1,0,31220.7,0.343384,0.343089,0.228933,47,0.0230131,10,7.85444e-05,-3.64029,-2.19541,-0.0268743,0.342988,
2,1,0,1,0,31221.5,0.34738,0.347111,0.227986,47,0.0232067,10,7.91362e-05,-3.64209,-4.33784,-0.0136012,0.34701,
2,1,0,0,0,31222.3,0.351375,0.351053,0.22701,47,0.0233999,10,7.96924e-05,-3.64396,-3.01948,-0.0195398,0.350953,
2,1,0,1,0,31223.1,0.35537,0.355029,0.226333,47,0.0235928,10,8.03545e-05,-3.64525,-1.42192,-0.0414931,0.354929,
2,1,0,1,0,31223.9,0.359366,0.359029,0.225874,47,0.0237852,10,8.10954e-05,-3.64613,1.49313,0.0395142,0.358929,
2,1,0,1,0,31224.7,0.36336,0.36302,0.225311,47,0.0239774,10,8.17923e-05,-3.64722,-1.77052,-0.0333236,0.36292,
2,1,0,1,0,31225.5,0.367355,0.367031,0.225468,47,0.0241687,10,8.27535e-05,-3.64692,5.00537,0.0117873,0.366932,
2,1,0,0,0,31226.3,0.371351,0.371025,0.225009,47,0.0243596,10,8.34838e-05,-3.6478,41.8297,0.00141048,0.370926,
2,1,0,1,0,31227.1,0.375346,0.375019,0.224972,47,0.0245504,10,8.43688e-05,-3.64787,-1.34622,-0.0438263,0.37492,
2,1,0,1,0,31227.9,0.379342,0.379032,0.224683,47,0.0247405,10,8.51623e-05,-3.64843,-4.50678,-0.0130914,0.378934,
2,1,0,1,0,31228.7,0.383336,0.383013,0.223861,47,0.0249304,10,8.57417e-05,-3.65002,-12.9742,-0.0045475,0.382914,
2,1,0,1,0,31229.5,0.387331,0.387028,0.22384,47,0.0251201,10,8.66323e-05,-3.65006,-1.29188,-0.0456698,0.38693,
2,1,0,0,0,31230.3,0.391327,0.390992,0.223429,47,0.0253093,10,8.7359e-05,-3.65086,2.49007,0.0236942,0.390894,
2,1,0,1,0,31231.1,0.395322,0.394968,0.221184,47,0.0254981,10,8.73604e-05,-3.65525,-4.88434,-0.0120794,0.39487,
2,1,0,0,0,31231.9,0.399317,0.398994,0.223906,47,0.0256868,10,8.93372e-05,-3.64993,-12.5911,-0.00468584,0.398896,
2,1,0,1,0,31232.7,0.403313,0.402968,0.222907,47,0.0258752,10,8.98244e-05,-3.65188,5.09523,0.0115795,0.40287,
2,1,0,1,0,31233.5,0.407307,0.406993,0.223248,47,0.0260635,10,9.08602e-05,-3.65121,-2.84807,-0.0207158,0.406895,
2,1,0,1,0,31234.3,0.411302,0.411013,0.223941,47,0.0262514,10,9.20427e-05,-3.64987,7.32158,0.00805837,0.410915,
2,1,0,1,0,31235.1,0.415298,0.414991,0.222451,47,0.0264396,10,9.23154e-05,-3.65276,-64.8778,-0.000909402,0.414894,
2,1,0,0,0,31235.9,0.419293,0.418941,0.222534,47,0.0266276,10,9.32286e-05,-3.6526,-1.43376,-0.0411506,0.418843,
2,1,0,1,0,31236.7,0.423288,0.42298,0.222396,47,0.0268153,10,9.40691e-05,-3.65287,6.70173,0.00880369,0.422883,
2,1,0,1,0,31237.5,0.427283,0.426969,0.220873,47,0.027003,10,9.43061e-05,-3.65586,5.67345,0.0103993,0.426872,
2,1,0,1,0,31238.3,0.431278,0.430972,0.221753,47,0.0271904,10,9.55694e-05,-3.65413,3.95505,0.0149176,0.430874,
2,1,0,1,0,31239.1,0.435273,0.434929,0.221784,47,0.0273776,10,9.64604e-05,-3.65407,-6.35436,-0.00928496,0.434831,
2,1,0,0,0,31239.9,0.439269,0.438963,0.221993,47,0.0275649,10,9.74469e-05,-3.65366,-2.27778,-0.0259024,0.438865,
2,1,0,1,0,31240.7,0.443264,0.442954,0.222752,47,0.0277517,10,9.86688e-05,-3.65218,-5.9621,-0.00989585,0.442856,
2,1,0,0,0,31241.5,0.447259,0.44694,0.222333,47,0.0279385,10,9.93698e-05,-3.653,3.56988,0.0165272,0.446843,
2,1,0,1,0,31242.3,0.451254,0.450937,0.222158,47,0.0281256,10,0.000100179,-3.65334,-5.0208,-0.0117511,0.450839,
2,1,0,1,0,31243.1,0.455249,0.454943,0.22196,47,0.0283128,10,0.000100979,-3.65372,1.77222,0.0332915,0.454845,
2,1,0,1,0,31243.9,0.459244,0.458963,0.221146,47,0.0285002,10,0.000101498,-3.65532,18.0597,0.00326695,0.458865,
2,1,0,1,0,31244.7,0.46324,0.462908,0.222831,47,0.0286879,10,0.00010315,-3.65202,-15.7639,-0.00374273,0.46281,
2,1,0,0,0,31245.5,0.467235,0.466919,0.222659,47,0.0288754,10,0.000103964,-3.65236,3.55954,0.0165752,0.466821,
2,1,0,1,0,31246.3,0.471231,0.470919,0.223595,47,0.0290635,10,0.000105295,-3.65054,2.92743,0.0201542,0.47082,
2,1,0,1,0,31247.1,0.475225,0.474912,0.224561,47,0.0292517,10,0.000106647,-3.64867,2.89564,0.0203755,0.474813,
2,1,0,1,0,31247.9,0.47922,0.478868,0.224647,47,0.0294403,10,0.000107576,-3.6485,3.52115,0.0167559,0.478769,
2,1,0,1,0,31248.7,0.483216,0.482884,0.225439,47,0.0296293,10,0.000108861,-3.64697,-2.77685,-0.0212471,0.482785,
2,1,0,0,0,31249.5,0.487211,0.486881,0.226044,47,0.0298186,10,0.000110056,-3.64581,0.797978,0.0739369,0.486781,
2,1,0,1,0,31250.3,0.491206,0.490905,0.225818,47,0.0300088,10,0.000110855,-3.64624,3.33802,0.0176751,0.490805,
2,1,0,1,0,31251.1,0.495201,0.494906,0.227343,47,0.0301994,10,0.000112513,-3.64332,3.49342,0.0168889,0.494806,
2,1,0,1,0,31251.9,0.499196,0.498884,0.228128,47,0.0303903,10,0.00011381,-3.64182,2.80809,0.0210108,0.498784,
2,1,0,1,0,31252.7,0.503191,0.502883,0.229238,47,0.0305823,10,0.00011528,-3.63971,2.00965,0.0293583,0.502782,
2,1,0,0,0,31253.5,0.507187,0.50688,0.230128,47,0.0307746,10,0.000116647,-3.63803,2.24994,0.0262229,0.506779,
2,1,0,1,0,31254.3,0.511182,0.510871,0.231303,47,0.0309679,10,0.000118166,-3.63582,2.05377,0.0287276,0.510769,
2,1,0,0,0,31255.1,0.515177,0.514869,0.232579,47,0.0311622,10,0.000119748,-3.63343,2.87931,0.0204911,0.514767,
2,1,0,1,0,31255.9,0.519173,0.518865,0.233744,47,0.0313573,10,0.000121282,-3.63126,1.07934,0.054663,0.518762,
2,1,0,1,0,31256.7,0.523167,0.522872,0.23402,47,0.0315533,10,0.000122362,-3.63075,1.14977,0.0513146,0.522769,
2,1,0,1,0,31257.5,0.527162,0.526841,0.236074,47,0.0317505,10,0.000124374,-3.62695,1.97259,0.0299099,0.526737,
2,1,0,1,0,31258.3,0.531158,0.530839,0.237286,47,0.0319489,10,0.000125961,-3.62473,1.38009,0.0427509,0.530734,
2,1,0,0,0,31259.1,0.535153,0.534799,0.240147,47,0.0321485,10,0.00012843,-3.61952,1.54952,0.0380762,0.534694,
2,1,0,1,0,31259.9,0.539148,0.538825,0.241525,47,0.0323493,10,0.00013014,-3.61704,1.48662,0.0396874,0.538718,
2,1,0,1,0,31260.7,0.543143,0.542795,0.243307,47,0.0325517,10,0.000132066,-3.61385,1.35605,0.0435087,0.542688,
2,1,0,1,0,31261.5,0.547138,0.546824,0.244481,47,0.0327559,10,0.000133688,-3.61176,0.865115,0.068199,0.546717,
2,1,0,1,0,31262.3,0.551133,0.550826,0.247553,47,0.0329617,10,0.000136359,-3.60633,0.905522,0.0651558,0.550717,
2,1,0,0,0,31263.1,0.555129,0.554797,0.249807,47,0.0331696,10,0.000138592,-3.6024,0.856342,0.0688977,0.554688,
2,1,0,1,0,31263.9,0.559124,0.558752,0.252901,47,0.0333793,10,0.000141309,-3.59705,0.858844,0.068697,0.55864,
2,1,0,1,0,31264.7,0.56312,0.562805,0.256217,47,0.0335912,10,0.0001442,-3.59139,0.652366,0.0904401,0.562692,
2,1,0,1,0,31265.5,0.567114,0.566836,0.259793,47,0.0338059,10,0.00014726,-3.58537,0.564445,0.104527,0.566721,
2,1,0,1,0,31266.3,0.571109,0.570807,0.263199,47,0.0340234,10,0.000150236,-3.57972,0.636394,0.0927098,0.570691,
2,1,0,0,0,31267.1,0.575105,0.574802,0.266433,47,0.0342441,10,0.000153146,-3.57441,0.766684,0.0769548,0.574685,
2,1,0,1,0,31267.9,0.5791,0.578823,0.271517,47,0.0344681,10,0.00015716,-3.5662,0.533344,0.110623,0.578704,
2,1,0,0,0,31268.7,0.583095,0.582791,0.276744,47,0.0346957,10,0.000161284,-3.55792,0.542887,0.108678,0.582669,
2,1,0,1,0,31269.5,0.58709,0.586781,0.281718,47,0.0349276,10,0.000165307,-3.55019,0.402004,0.146765,0.586657,
2,1,0,1,0,31270.3,0.591085,0.590797,0.288672,47,0.0351642,10,0.000170547,-3.5396,0.398891,0.14791,0.59067,
2,1,0,1,0,31271.1,0.59508,0.594796,0.29534,47,0.035406,10,0.000175667,-3.52968,0.338668,0.174212,0.594666,
2,1,0,1,0,31271.9,0.599076,0.598779,0.303249,47,0.0356537,10,0.000181579,-3.5182,0.326195,0.180873,0.598645,
2,1,0,0,0,31272.7,0.603071,0.602776,0.312949,47,0.0359081,10,0.000188638,-3.50453,0.318928,0.184995,0.602638,
2,1,0,1,0,31273.5,0.607066,0.606794,0.322943,47,0.0361701,10,0.00019596,-3.49087,0.266147,0.221682,0.606652,
2,1,0,1,0,31274.3,0.611061,0.610773,0.333756,47,0.0364409,10,0.000203849,-3.47657,0.26758,0.220494,0.610627,
2,1,0,1,0,31275.1,0.615056,0.61473,0.346403,47,0.0367215,10,0.000212944,-3.46042,0.205752,0.286753,0.614577,
2,1,0,1,0,31275.9,0.619051,0.618731,0.362901,47,0.037014,10,0.000224538,-3.44021,0.196397,0.300412,0.618571,
2,1,0,0,0,31276.7,0.623047,0.622728,0.381548,47,0.03732,10,0.0002376,-3.41845,0.174485,0.338139,0.62256,
2,1,0,1,0,31277.5,0.627042,0.626776,0.403865,47,0.0376419,10,0.000253133,-3.39376,0.15645,0.377117,0.626598,
2,1,0,1,0,31278.3,0.631037,0.630756,0.428626,47,0.0379825,10,0.000270358,-3.36792,0.155921,0.378397,0.630567,
2,1,0,1,0,31279.1,0.635032,0.634736,0.456419,47,0.0383441,10,0.000289706,-3.34064,0.134483,0.438716,0.634535,
2,1,0,1,0,31279.9,0.639027,0.638741,0.490318,47,0.0387306,10,0.000313186,-3.30952,0.118568,0.497605,0.638525,
2,1,0,1,0,31280.7,0.643022,0.642762,0.529887,47,0.0391467,10,0.000340591,-3.27582,0.118137,0.49942,0.642529,
2,1,0,1,0,31281.5,0.647018,0.64671,0.575489,47,0.0395961,10,0.000372175,-3.23996,0.107013,0.551336,0.646457,
2,1,0,0,0,31282.3,0.651013,0.650778,0.629936,47,0.0400855,10,0.000409948,-3.2007,0.0955601,0.617413,0.650501,
2,1,0,1,0,31283.1,0.655008,0.654713,0.692996,47,0.0406224,10,0.000453713,-3.15927,0.0934462,0.631379,0.654408,
2,1,0,1,0,31283.9,0.659003,0.658724,0.767442,47,0.0412139,10,0.000505532,-3.11495,0.0872901,0.675907,0.658386,
2,1,0,1,0,31284.7,0.662998,0.662722,0.853679,47,0.0418697,10,0.000565752,-3.06871,0.0839428,0.70286,0.662347,
2,1,0,1,0,31285.5,0.666994,0.666711,0.954128,47,0.0425995,10,0.000636127,-3.02039,0.0809532,0.728816,0.666291,
2,1,0,0,0,31286.3,0.670989,0.670737,1.0668,47,0.0434147,10,0.000715539,-2.97192,0.0787428,0.749275,0.670268,
2,1,0,1,0,31287.1,0.674984,0.674677,1.19868,47,0.044328,10,0.00080872,-2.9213,0.0778364,0.758001,0.67415,
2,1,0,1,0,31287.9,0.67898,0.678661,1.34882,47,0.045354,10,0.000915394,-2.87004,0.0762444,0.773827,0.678067,
2,1,0,1,0,31288.7,0.682974,0.682698,1.51997,47,0.0465081,10,0.00103768,-2.81817,0.0771475,0.764769,0.68203,
2,1,0,1,0,31289.5,0.686969,0.686702,1.71003,47,0.0478057,10,0.00117428,-2.767,0.0749768,0.78691,0.68595,
2,1,0,0,0,31290.3,0.690965,0.690695,1.92436,47,0.049266,10,0.00132914,-2.71571,0.076549,0.770749,0.689848,
2,1,0,1,0,31291.1,0.69496,0.694717,2.16251,47,0.0509062,10,0.00150234,-2.66504,0.0769428,0.766803,0.693766,
2,1,0,0,0,31291.9,0.698955,0.698683,2.42348,47,0.0527454,10,0.00169325,-2.61556,0.0798221,0.739143,0.697617,
2,1,0,1,0,31292.7,0.70295,0.702677,2.70764,47,0.0548029,10,0.0019026,-2.56741,0.0805339,0.732611,0.701485,
2,1,0,1,0,31293.5,0.706945,0.706675,3.01827,47,0.0570985,10,0.00213294,-2.52024,0.0829171,0.711554,0.705347,
2,1,0,1,0,31294.3,0.71094,0.710677,3.35426,47,0.0596515,10,0.00238379,-2.4744,0.08602,0.685887,0.709201,
2,1,0,1,0,31295.1,0.714936,0.714673,3.71474,47,0.0624834,10,0.00265483,-2.43007,0.0876951,0.672786,0.713038,
2,1,0,0,0,31295.9,0.718931,0.718656,4.10147,47,0.0656132,10,0.00294755,-2.38706,0.0894629,0.659491,0.716851,
2,1,0,1,0,31296.7,0.722927,0.722645,4.51117,47,0.0690621,10,0.00325998,-2.34571,0.0950582,0.620672,0.720661,
2,1,0,1,0,31297.5,0.726921,0.726647,4.94999,47,0.0728492,10,0.0035969,-2.3054,0.0966106,0.610699,0.724469,
2,1,0,1,0,31298.3,0.730916,0.730636,5.41241,47,0.0769959,10,0.0039545,-2.26661,0.097002,0.608235,0.728255,
2,1,0,1,0,31299.1,0.734911,0.734642,5.90119,47,0.0815229,10,0.00433527,-2.22906,0.102117,0.577769,0.732045,
2,1,0,0,0,31299.9,0.738907,0.738653,6.41671,47,0.0864516,10,0.00473972,-2.19269,0.105754,0.557896,0.73583,
2,1,0,1,0,31300.7,0.742902,0.742633,6.95709,47,0.0918017,10,0.00516656,-2.15757,0.108034,0.546126,0.739571,
2,1,0,1,0,31301.4,0.746897,0.746593,7.52805,47,0.0975973,10,0.00562039,-2.12332,0.112212,0.52579,0.743281,
2,1,0,1,0,31302.2,0.750892,0.75061,8.1277,47,0.103859,10,0.00610073,-2.09003,0.112985,0.522195,0.747034,
2,1,0,1,0,31303,0.754887,0.7546,8.7565,47,0.110612,10,0.00660766,-2.05767,0.115496,0.510842,0.750747,
2,1,0,0,0,31303.8,0.758883,0.758626,9.41969,47,0.117882,10,0.00714602,-2.02596,0.117047,0.504069,0.754481,
2,1,0,1,0,31304.6,0.762878,0.762605,10.1175,47,0.125694,10,0.00771568,-1.99493,0.119491,0.493759,0.758154,
2,1,0,0,0,31305.4,0.766873,0.766603,10.857,47,0.13408,10,0.00832303,-1.96429,0.119914,0.492021,0.761826,
2,1,0,1,0,31306.2,0.770868,0.770591,11.642,47,0.143076,10,0.00897119,-1.93397,0.121836,0.484257,0.765469,
2,1,0,1,0,31307,0.774863,0.774582,12.4641,47,0.152714,10,0.00965449,-1.90434,0.122329,0.482305,0.769097,
2,1,0,1,0,31307.8,0.778858,0.778606,13.3599,47,0.163034,10,0.0104021,-1.8742,0.119221,0.494881,0.772727,
2,1,0,1,0,31308.6,0.782854,0.782578,14.3126,47,0.174097,10,0.0112007,-1.84428,0.119895,0.492095,0.776281,
2,1,0,0,0,31309.4,0.786849,0.786594,15.3176,47,0.18594,10,0.0120488,-1.81481,0.120911,0.48796,0.779854,
2,1,0,1,0,31310.2,0.790844,0.790583,16.3677,47,0.198606,10,0.01294,-1.78601,0.121172,0.486913,0.783381,
2,1,0,1,0,31311,0.794839,0.794549,17.5072,47,0.212149,10,0.0139104,-1.75678,0.119406,0.494111,0.786846,
2,1,0,1,0,31311.8,0.798834,0.798545,18.7265,47,0.22663,10,0.0149539,-1.72754,0.117434,0.50241,0.790305,
2,1,0,1,0,31312.6,0.802829,0.802599,20.0205,47,0.242118,10,0.0160685,-1.69852,0.125298,0.470877,0.79379,
2,1,0,0,0,31313.4,0.806825,0.806561,21.3347,47,0.25863,10,0.0172078,-1.67091,0.118958,0.495972,0.797174,
2,1,0,1,0,31314.2,0.81082,0.810572,22.7243,47,0.276242,10,0.0184197,-1.64351,0.125244,0.471081,0.800573,
2,1,0,1,0,31315,0.814815,0.814566,24.1458,47,0.294984,10,0.0196683,-1.61716,0.12923,0.456552,0.803942,
2,1,0,1,0,31315.8,0.81881,0.818504,25.6219,47,0.314873,10,0.0209716,-1.59139,0.132897,0.443953,0.80723,
2,1,0,1,0,31316.6,0.822805,0.822606,27.1446,47,0.33596,10,0.0223293,-1.56632,0.134522,0.438589,0.810662,
2,1,0,0,0,31317.4,0.826801,0.826533,28.7135,47,0.358283,10,0.0237327,-1.54191,0.135,0.437036,0.813899,
2,1,0,1,0,31318.2,0.830796,0.830538,30.347,47,0.381885,10,0.0252044,-1.51788,0.140783,0.419085,0.817185,
2,1,0,0,0,31319,0.834791,0.834553,31.9378,47,0.406785,10,0.0266538,-1.49569,0.151713,0.388892,0.8205,
2,1,0,1,0,31319.8,0.838786,0.838559,33.5405,47,0.432965,10,0.0281257,-1.47443,0.157879,0.373703,0.823801,
2,1,0,1,0,31320.6,0.842781,0.84249,35.1644,47,0.460423,10,0.0296257,-1.4539,0.164002,0.359751,0.827018,
2,1,0,1,0,31321.4,0.846776,0.846536,36.7872,47,0.489181,10,0.0311417,-1.4343,0.169062,0.348984,0.83035,
2,1,0,0,0,31322.1,0.849723,0.849492,37.8898,47,0.515426,10,0.0321871,-1.42148,0.0331701,1.77871,0.83282,
2,1,0,1,0,31322.9,0.845728,0.845456,35.0414,47,0.544451,10,0.0296259,-1.45542,0.104464,0.564787,0.830038,
2,1,0,0,0,31323.7,0.841732,0.841476,33.0999,47,0.571653,10,0.0278528,-1.48017,0.132168,0.446403,0.826912,
2,1,0,1,0,31324.5,0.837737,0.837484,31.2388,47,0.597352,10,0.026162,-1.50531,0.122762,0.480604,0.823739,
2,1,0,1,0,31325.3,0.833742,0.833507,29.4652,47,0.621574,10,0.0245595,-1.53069,0.128309,0.459829,0.820543,
2,1,0,1,0,31326.1,0.829747,0.829472,27.8155,47,0.644438,10,0.0230722,-1.55571,0.122727,0.48074,0.817233,
2,1,0,1,0,31326.9,0.825752,0.825504,26.1488,47,0.665951,10,0.021586,-1.58255,0.130388,0.452496,0.813999,
2,1,0,0,0,31327.7,0.821757,0.821478,24.6504,47,0.686233,10,0.0202497,-1.60818,0.125499,0.470122,0.810632,
2,1,0,1,0,31328.5,0.817761,0.817484,23.1295,47,0.705305,10,0.018908,-1.63583,0.123331,0.478386,0.807307,
2,1,0,1,0,31329.3,0.813766,0.81348,21.6774,47,0.723196,10,0.0176341,-1.66399,0.11711,0.5038,0.803942,
2,1,0,1,0,31330.1,0.809771,0.809475,20.3122,47,0.739955,10,0.0164422,-1.69224,0.119257,0.494729,0.800538,
2,1,0,1,0,31330.9,0.805776,0.805481,19.0011,47,0.755648,10,0.015305,-1.72122,0.115909,0.509021,0.797121,
2,1,0,0,0,31331.7,0.801781,0.801513,17.7302,47,0.770315,10,0.014211,-1.75129,0.110514,0.53387,0.793711,
2,1,0,1,0,31332.5,0.797786,0.797478,16.5216,47,0.783977,10,0.0131756,-1.78195,0.116243,0.507558,0.790208,
2,1,0,1,0,31333.3,0.79379,0.793523,15.3923,47,0.796716,10,0.0122141,-1.8127,0.115226,0.512036,0.78675,
2,1,0,1,0,31334.1,0.789795,0.789482,14.3322,47,0.808576,10,0.011315,-1.84369,0.112502,0.524437,0.783175,
2,1,0,1,0,31334.9,0.7858,0.785528,13.3367,47,0.819617,10,0.0104764,-1.87495,0.111117,0.530971,0.77966,
2,1,0,0,0,31335.7,0.781805,0.781525,12.3721,47,0.829877,10,0.00966908,-1.90756,0.109848,0.537105,0.776081,
2,1,0,1,0,31336.5,0.77781,0.777521,11.4646,47,0.839387,10,0.00891396,-1.94064,0.10706,0.551093,0.772477,
2,1,0,0,0,31337.3,0.773815,0.773535,10.6037,47,0.848189,10,0.00820235,-1.97454,0.107633,0.548158,0.768869,
2,1,0,1,0,31338.1,0.769819,0.769521,9.79952,47,0.856329,10,0.00754093,-2.0088,0.1041,0.566761,0.765209,
2,1,0,1,0,31338.9,0.765824,0.76558,9.0384,47,0.863842,10,0.00691962,-2.04391,0.103122,0.57214,0.761603,
2,1,0,1,0,31339.7,0.761829,0.761547,8.32649,47,0.870766,10,0.00634101,-2.07954,0.100556,0.58674,0.757884,
2,1,0,1,0,31340.5,0.757834,0.75755,7.6446,47,0.877131,10,0.00579117,-2.11665,0.103307,0.571111,0.754187,
2,1,0,0,0,31341.3,0.753839,0.753539,7.02455,47,0.882979,10,0.00529327,-2.15338,0.0997036,0.591754,0.750448,
2,1,0,1,0,31342.1,0.749844,0.749535,6.44006,47,0.888348,10,0.00482705,-2.19111,0.0978988,0.602663,0.746701,
2,1,0,1,0,31342.9,0.745848,0.745528,5.89202,47,0.893263,10,0.00439267,-2.22974,0.0950431,0.620771,0.742936,
2,1,0,1,0,31343.7,0.741853,0.741535,5.37571,47,0.897753,10,0.00398628,-2.26956,0.0940668,0.627214,0.73917,
2,1,0,1,0,31344.5,0.737858,0.737574,4.89379,47,0.901844,10,0.00360954,-2.31035,0.0925994,0.637153,0.735421,
2,1,0,0,0,31345.3,0.733863,0.733562,4.44355,47,0.905563,10,0.00325962,-2.35227,0.0892391,0.661145,0.731607,
2,1,0,1,0,31346.1,0.729868,0.729642,4.01976,47,0.908933,10,0.00293299,-2.3958,0.0862725,0.683879,0.727873,
2,1,0,1,0,31346.9,0.725872,0.725567,3.62818,47,0.911979,10,0.00263249,-2.44031,0.0838165,0.703919,0.723971,
2,1,0,1,0,31347.7,0.721877,0.721601,3.26056,47,0.91472,10,0.00235282,-2.48671,0.0824465,0.715615,0.720167,
2,1,0,1,0,31348.5,0.717882,0.717589,2.92125,47,0.91718,10,0.00209626,-2.53443,0.079105,0.745844,0.716304,
2,1,0,0,0,31349.3,0.713887,0.713573,2.60554,47,0.919377,10,0.00185924,-2.5841,0.0771086,0.765155,0.712427,
2,1,0,1,0,31350.1,0.709892,0.709584,2.31429,47,0.921332,10,0.00164218,-2.63558,0.0718112,0.821599,0.708566,
2,1,0,0,0,31350.9,0.705897,0.705618,2.04396,47,0.923063,10,0.00144225,-2.68953,0.0708742,0.832461,0.704719,
2,1,0,1,0,31351.7,0.701901,0.701602,1.7982,47,0.924588,10,0.00126162,-2.74516,0.0679823,0.867873,0.700811,
2,1,0,1,0,31352.5,0.697906,0.697628,1.57088,47,0.925923,10,0.00109589,-2.80386,0.0660988,0.892603,0.696937,
2,1,0,1,0,31353.3,0.693911,0.693672,1.36574,47,0.927086,10,0.000947378,-2.86463,0.0622451,0.947866,0.693071,
2,1,0,1,0,31354.1,0.689916,0.68961,1.17944,47,0.928093,10,0.000813354,-2.92832,0.0603031,0.97839,0.689091,
2,1,0,0,0,31354.9,0.685921,0.685644,1.01261,47,0.928959,10,0.00069429,-2.99456,0.058109,1.01533,0.685199,
2,1,0,1,0,31355.7,0.681926,0.681625,0.861975,47,0.929698,10,0.000587544,-3.06451,0.0550237,1.07227,0.681246,
2,1,0,1,0,31356.5,0.67793,0.677609,0.727309,47,0.930324,10,0.000492832,-3.13828,0.0527421,1.11865,0.677289,
2,1,0,1,0,31357.3,0.673935,0.673636,0.608027,47,0.930848,10,0.000409589,-3.21608,0.0488653,1.2074,0.673369,
2,1,0,1,0,31358.1,0.66994,0.66964,0.506144,47,0.931284,10,0.000338935,-3.29573,0.0477972,1.23438,0.669417,
2,1,0,0,0,31358.9,0.665945,0.665657,0.414193,47,0.931642,10,0.00027571,-3.3828,0.04399,1.34121,0.665474,
2,1,0,1,0,31359.7,0.66195,0.661678,0.335372,47,0.931931,10,0.000221908,-3.47447,0.0416175,1.41767,0.66153,
2,1,0,0,0,31360.5,0.657955,0.65767,0.265663,47,0.932162,10,0.000174719,-3.57567,0.0385932,1.52877,0.657553,
2,1,0,1,0,31361.3,0.653959,0.653669,0.207584,47,0.932343,10,0.000135691,-3.68281,0.0352506,1.67373,0.653577,
2,1,0,1,0,31362.1,0.649964,0.649659,0.158128,47,0.93248,10,0.000102729,-3.80099,0.0309289,1.9076,0.649589,
2,1,0,1,0,31362.9,0.64597,0.645688,0.11527,47,0.93258,10,7.44284e-05,-3.93828,0.0260356,2.26613,0.645637,
2,1,0,1,0,31363.7,0.641974,0.641687,0.0791837,47,0.932649,10,5.08112e-05,-4.10136,0.0218042,2.7059,0.641652,
2,1,0,0,0,31364.5,0.637979,0.637695,0.0493344,47,0.932691,10,3.14603e-05,-4.30685,0.0158039,3.73325,0.637673,
2,1,0,1,0,31365.3,0.633983,0.633673,0.0221341,47,0.93271,10,1.40258e-05,-4.65494,0.0086306,6.83614,0.633663,
2,1,0,1,0,31366.1,0.629988,0.6297,0.00109446,47,0.932711,10,6.8918e-07,-5.9608,0.0309852,1.90414,0.6297,
2,0,0,1,0,31366.9,0.625993,0.625709,-0.0172009,47,0.932696,10,-1.07628e-05,-4.76445,-0.00926176,-6.37028,0.625717,
2,0,0,1,0,31367.7,0.621998,0.621713,-0.0307821,47,0.932668,10,-1.91376e-05,-4.5117,-0.0200949,-2.93607,0.621727,
2,0,0,0,0,31368.5,0.618003,0.617751,-0.0435366,47,0.93263,10,-2.68948e-05,-4.36115,-0.0336626,-1.75269,0.61777,
2,0,0,1,0,31369.3,0.614008,0.613699,-0.0541578,47,0.932582,10,-3.32365e-05,-4.26634,-0.0604313,-0.976315,0.613723,
2,0,0,1,0,31370.1,0.610012,0.60971,-0.0628089,47,0.932527,10,-3.82952e-05,-4.20198,-0.0668637,-0.882393,0.609738,
2,0,0,1,0,31370.9,0.606017,0.605736,-0.0687172,47,0.932465,10,-4.16245e-05,-4.16293,-0.0920447,-0.640993,0.605766,
2,0,0,1,0,31371.7,0.602022,0.601736,-0.0769591,47,0.932398,10,-4.6309e-05,-4.11374,-0.124564,-0.47365,0.601769,
2,0,0,0,0,31372.5,0.598027,0.597714,-0.0828101,47,0.932326,10,-4.94968e-05,-4.08192,-0.149414,-0.394875,0.597751,
2,0,0,1,0,31373.3,0.594032,0.593684,-0.0867618,47,0.932249,10,-5.1509e-05,-4.06167,-0.148936,-0.396144,0.593722,
2,0,0,0,0,31374.1,0.590037,0.589756,-0.0908106,47,0.93217,10,-5.35561e-05,-4.04186,-0.28088,-0.210054,0.589796,
2,0,0,1,0,31374.9,0.586041,0.585734,-0.0936803,47,0.932087,10,-5.48718e-05,-4.02835,-0.28466,-0.207265,0.585776,
2,0,0,1,0,31375.7,0.582046,0.581742,-0.0963147,47,0.932002,10,-5.60303e-05,-4.01631,-0.417145,-0.141438,0.581785,
2,0,0,1,0,31376.5,0.578052,0.577707,-0.0988547,47,0.931915,10,-5.7109e-05,-4.005,-0.341617,-0.172708,0.57775,
2,0,0,1,0,31377.3,0.574056,0.573768,-0.1005,47,0.931826,10,-5.76636e-05,-3.99784,-0.297041,-0.198626,0.573812,
2,0,0,0,0,31378.1,0.570061,0.569755,-0.103569,47,0.931735,10,-5.90092e-05,-3.98477,-0.618107,-0.0954527,0.5698,
2,0,0,1,0,31378.9,0.566065,0.56577,-0.104692,47,0.931643,10,-5.92318e-05,-3.98009,-0.461518,-0.127839,0.565816,
2,0,0,1,0,31379.7,0.56207,0.561793,-0.10718,47,0.931549,10,-6.02127e-05,-3.96989,-2.23084,-0.0264475,0.56184,
2,0,0,1,0,31380.5,0.558075,0.557817,-0.1084,47,0.931455,10,-6.04672e-05,-3.96497,-0.596289,-0.0989454,0.557864,
2,0,0,1,0,31381.3,0.55408,0.553791,-0.109755,47,0.931359,10,-6.07816e-05,-3.95957,-0.456291,-0.129303,0.55384,
2,0,0,0,0,31382.1,0.550085,0.54978,-0.111041,47,0.931262,10,-6.10483e-05,-3.95452,-12.2755,-0.00480632,0.549828,
2,0,0,1,0,31382.9,0.54609,0.545785,-0.1123,47,0.931164,10,-6.12918e-05,-3.94962,-0.589891,-0.100018,0.545835,
2,0,0,1,0,31383.7,0.542094,0.541808,-0.11222,47,0.931065,10,-6.08017e-05,-3.94993,-1.20149,-0.0491057,0.541857,
2,0,0,1,0,31384.4,0.538099,0.537795,-0.114367,47,0.930965,10,-6.15062e-05,-3.9417,-1.08242,-0.0545075,0.537845,
2,0,0,1,0,31385.2,0.534104,0.533869,-0.114785,47,0.930864,10,-6.12804e-05,-3.94011,-1.04655,-0.0563759,0.53392,
2,0,0,0,0,31386,0.530109,0.529814,-0.115707,47,0.930762,10,-6.13033e-05,-3.93664,-0.879753,-0.0670643,0.529865,
2,0,0,1,0,31386.8,0.526114,0.525782,-0.118201,47,0.93066,10,-6.2148e-05,-3.92738,-0.645208,-0.0914434,0.525834,
2,0,0,0,0,31387.6,0.522119,0.521797,-0.119045,47,0.930556,10,-6.21172e-05,-3.92429,-1.35382,-0.0435805,0.521849,
2,0,0,1,0,31388.4,0.518123,0.517824,-0.119867,47,0.930452,10,-6.20703e-05,-3.9213,-11.3726,-0.00518789,0.517877,
2,0,0,1,0,31389.2,0.514128,0.513798,-0.120787,47,0.930347,10,-6.20601e-05,-3.91798,-0.893979,-0.0659971,0.513851,
2,0,0,1,0,31390,0.510133,0.509809,-0.120685,47,0.930242,10,-6.15264e-05,-3.91835,-0.950842,-0.0620503,0.509862,
2,0,0,1,0,31390.8,0.506138,0.505821,-0.122204,47,0.930135,10,-6.18135e-05,-3.91291,2.5799,0.0228691,0.505874,
2,0,0,0,0,31391.6,0.502143,0.501859,-0.123778,47,0.930027,10,-6.21192e-05,-3.90736,-0.761907,-0.0774373,0.501913,
2,0,0,1,0,31392.4,0.498148,0.497857,-0.124824,47,0.929919,10,-6.21443e-05,-3.9037,-0.474561,-0.124325,0.497912,
2,0,0,1,0,31393.2,0.494152,0.493866,-0.126015,47,0.92981,10,-6.22347e-05,-3.89958,-1.21873,-0.0484111,0.493922,
2,0,0,1,0,31394,0.490157,0.489925,-0.126907,47,0.9297,10,-6.21748e-05,-3.89651,-1.34269,-0.0439417,0.489981,
2,0,0,1,0,31394.8,0.486162,0.485816,-0.12811,47,0.929589,10,-6.22378e-05,-3.89242,-0.538416,-0.109581,0.485873,
2,0,0,0,0,31395.6,0.482167,0.481873,-0.129083,47,0.929477,10,-6.22016e-05,-3.88913,2.71149,0.0217593,0.48193,
2,0,0,1,0,31396.4,0.478172,0.477832,-0.129859,47,0.929364,10,-6.20507e-05,-3.88653,-0.63015,-0.0936285,0.477889,
2,0,0,0,0,31397.2,0.474177,0.473899,-0.13202,47,0.92925,10,-6.25641e-05,-3.87936,-3.26046,-0.0180956,0.473957,
2,0,0,1,0,31398,0.470181,0.46987,-0.133202,47,0.929135,10,-6.25874e-05,-3.87549,-0.661228,-0.0892279,0.469929,
2,0,0,1,0,31398.8,0.466186,0.465865,-0.134348,47,0.929019,10,-6.25882e-05,-3.87177,-1.11279,-0.05302,0.465925,
2,0,0,1,0,31399.6,0.462191,0.461886,-0.135885,47,0.928901,10,-6.27635e-05,-3.86683,-0.713333,-0.0827103,0.461946,
2,0,0,1,0,31400.4,0.458196,0.457895,-0.136199,47,0.928783,10,-6.23647e-05,-3.86583,-0.758209,-0.077815,0.457955,
2,0,0,0,0,31401.2,0.454201,0.453902,-0.138112,47,0.928664,10,-6.26895e-05,-3.85977,-1.60025,-0.0368693,0.453963,
2,0,0,1,0,31402,0.450205,0.4499,-0.139617,47,0.928543,10,-6.28137e-05,-3.85506,-0.566168,-0.104209,0.449962,
2,0,0,1,0,31402.8,0.44621,0.445921,-0.141305,47,0.928421,10,-6.30107e-05,-3.84984,-0.910652,-0.0647888,0.445983,
2,0,0,1,0,31403.6,0.442215,0.441935,-0.142811,47,0.928297,10,-6.31133e-05,-3.84524,-0.837958,-0.0704093,0.441998,
2,0,0,1,0,31404.4,0.43822,0.437909,-0.144433,47,0.928173,10,-6.32485e-05,-3.84033,-0.568702,-0.103745,0.437972,
2,0,0,0,0,31405.2,0.434225,0.433892,-0.146462,47,0.928047,10,-6.35487e-05,-3.83428,-0.812271,-0.0726359,0.433957,
2,0,0,1,0,31406,0.43023,0.429931,-0.147571,47,0.927919,10,-6.34452e-05,-3.831,-2.11172,-0.0279393,0.429996,
2,0,0,1,0,31406.8,0.426234,0.425911,-0.149717,47,0.927791,10,-6.37663e-05,-3.82473,-0.484268,-0.121833,0.425977,
2,0,0,1,0,31407.6,0.422239,0.421954,-0.151859,47,0.92766,10,-6.40775e-05,-3.81856,-1.86906,-0.0315668,0.422021,
2,0,0,1,0,31408.4,0.418244,0.417931,-0.153951,47,0.927528,10,-6.4341e-05,-3.81262,-0.709032,-0.083212,0.417999,
2,0,0,0,0,31409.2,0.414249,0.413921,-0.155044,47,0.927395,10,-6.4176e-05,-3.80955,-0.469486,-0.125669,0.41399,
2,0,0,1,0,31410,0.410254,0.409922,-0.157017,47,0.92726,10,-6.43646e-05,-3.80405,-16.8126,-0.00350926,0.409991,
2,0,0,0,0,31410.8,0.406259,0.405934,-0.158668,47,0.927124,10,-6.44088e-05,-3.79951,-0.660798,-0.0892859,0.406004,
2,0,0,1,0,31411.6,0.402263,0.401967,-0.160643,47,0.926986,10,-6.45731e-05,-3.79414,-0.830895,-0.0710078,0.402038,
2,0,0,1,0,31412.4,0.398268,0.397924,-0.163012,47,0.926847,10,-6.48663e-05,-3.78778,-0.507312,-0.116299,0.397996,
2,0,0,1,0,31413.2,0.394274,0.393947,-0.163894,47,0.926705,10,-6.45654e-05,-3.78544,-1.03187,-0.0571776,0.394019,
2,0,0,1,0,31414,0.390278,0.389955,-0.165594,47,0.926563,10,-6.45744e-05,-3.78095,-0.69214,-0.0852429,0.390028,
2,0,0,0,0,31414.8,0.386283,0.385996,-0.168807,47,0.926418,10,-6.51587e-05,-3.77261,-0.623149,-0.0946804,0.38607,
2,0,0,1,0,31415.6,0.382287,0.381983,-0.170916,47,0.926272,10,-6.5287e-05,-3.76722,-0.873821,-0.0675195,0.382058,
2,0,0,1,0,31416.4,0.378292,0.377972,-0.174202,47,0.926124,10,-6.58433e-05,-3.75895,-0.893053,-0.0660655,0.378048,
2,0,0,1,0,31417.2,0.374297,0.373957,-0.174876,47,0.925974,10,-6.53962e-05,-3.75727,-0.625719,-0.0942915,0.374034,
2,0,0,1,0,31418,0.370303,0.369954,-0.176519,47,0.925823,10,-6.53039e-05,-3.75321,-0.687911,-0.0857669,0.370032,
2,0,0,0,0,31418.8,0.366307,0.36597,-0.179658,47,0.925669,10,-6.57493e-05,-3.74555,-1.37212,-0.0429991,0.366049,
2,0,0,1,0,31419.6,0.362312,0.361988,-0.181189,47,0.925514,10,-6.55882e-05,-3.74187,-0.555742,-0.106164,0.362068,
2,0,0,1,0,31420.4,0.358316,0.358005,-0.182603,47,0.925357,10,-6.53727e-05,-3.73849,-0.815184,-0.0723763,0.358085,
2,0,0,1,0,31421.2,0.354321,0.354008,-0.185535,47,0.925198,10,-6.56811e-05,-3.73157,-0.591334,-0.0997744,0.35409,
2,0,0,1,0,31422,0.350327,0.349997,-0.187489,47,0.925038,10,-6.56206e-05,-3.72702,-0.956522,-0.0616818,0.35008,
2,0,0,0,0,31422.8,0.346331,0.34602,-0.189753,47,0.924875,10,-6.56585e-05,-3.72181,-1.49422,-0.0394854,0.346104,
2,0,0,1,0,31423.6,0.342336,0.342022,-0.192994,47,0.924711,10,-6.60081e-05,-3.71446,-0.47773,-0.123501,0.342107,
2,0,0,0,0,31424.4,0.338341,0.338093,-0.195797,47,0.924545,10,-6.61976e-05,-3.70819,-0.941311,-0.0626786,0.338179,
2,0,0,1,0,31425.2,0.334345,0.334037,-0.198013,47,0.924376,10,-6.61439e-05,-3.70331,-1.06284,-0.0555118,0.334125,
2,0,0,1,0,31426,0.33035,0.330063,-0.199792,47,0.924206,10,-6.5944e-05,-3.69942,-0.653689,-0.090257,0.330151,
2,0,0,1,0,31426.8,0.326355,0.325967,-0.202225,47,0.924034,10,-6.59188e-05,-3.69416,-0.658247,-0.089632,0.326056,
2,0,0,1,0,31427.6,0.32236,0.322014,-0.204372,47,0.92386,10,-6.58105e-05,-3.68958,-1.28064,-0.0460708,0.322104,
2,0,0,0,0,31428.4,0.318365,0.318045,-0.205707,47,0.923684,10,-6.54241e-05,-3.68675,-0.688804,-0.0856557,0.318135,
2,0,0,1,0,31429.2,0.31437,0.314088,-0.209162,47,0.923506,10,-6.56954e-05,-3.67952,-3.80795,-0.0154939,0.31418,
2,0,0,1,0,31430,0.310374,0.31006,-0.211964,47,0.923326,10,-6.57213e-05,-3.67374,-0.436887,-0.135046,0.310153,
2,0,0,1,0,31430.8,0.306379,0.305998,-0.214868,47,0.923144,10,-6.57492e-05,-3.66783,-0.872233,-0.0676425,0.306092,
2,0,0,1,0,31431.6,0.302385,0.302055,-0.217682,47,0.92296,10,-6.5752e-05,-3.66218,-0.507658,-0.11622,0.302151,
2,0,0,0,0,31432.4,0.298389,0.298091,-0.219928,47,0.922774,10,-6.55586e-05,-3.65772,-1.01247,-0.0582734,0.298188,
2,0,0,1,0,31433.2,0.294394,0.294063,-0.222499,47,0.922585,10,-6.54285e-05,-3.65267,-0.673524,-0.0875989,0.294161,
2,0,0,1,0,31434,0.290398,0.290096,-0.22544,47,0.922395,10,-6.53993e-05,-3.64697,-1.53431,-0.0384537,0.290195,
2,0,0,1,0,31434.8,0.286403,0.2861,-0.226148,47,0.922202,10,-6.47008e-05,-3.64561,-0.533566,-0.110577,0.2862,
2,0,0,1,0,31435.6,0.282408,0.282095,-0.230035,47,0.922008,10,-6.48917e-05,-3.63821,-2.77917,-0.0212294,0.282196,
2,0,0,1,0,31436.4,0.278414,0.278073,-0.232629,47,0.921811,10,-6.4688e-05,-3.63334,-0.621632,-0.0949115,0.278175,
2,0,0,1,0,31437.2,0.274418,0.274109,-0.234614,47,0.921612,10,-6.43098e-05,-3.62965,-0.709004,-0.0832153,0.274212,
2,0,0,0,0,31438,0.270423,0.270098,-0.238124,47,0.921411,10,-6.4317e-05,-3.6232,-0.772481,-0.0763772,0.270203,
2,0,0,1,0,31438.8,0.266427,0.266105,-0.24047,47,0.921208,10,-6.39901e-05,-3.61894,-1.18126,-0.0499465,0.266211,
2,0,0,1,0,31439.6,0.262432,0.262077,-0.243196,47,0.921003,10,-6.37361e-05,-3.61404,-0.880509,-0.0670067,0.262184,
2,0,0,1,0,31440.4,0.258437,0.258109,-0.24565,47,0.920796,10,-6.34045e-05,-3.60968,-1.00498,-0.0587074,0.258217,
2,0,0,1,0,31441.2,0.254442,0.254148,-0.247341,47,0.920587,10,-6.28611e-05,-3.6067,-0.726301,-0.0812336,0.254257,
2,0,0,0,0,31442,0.250447,0.25012,-0.250733,47,0.920376,10,-6.27134e-05,-3.60079,-2.54048,-0.0232239,0.250231,
2,0,0,1,0,31442.8,0.246452,0.246128,-0.251859,47,0.920164,10,-6.19896e-05,-3.59884,-0.513126,-0.114981,0.246239,
2,0,0,1,0,31443.6,0.242456,0.242146,-0.255248,47,0.919948,10,-6.18073e-05,-3.59304,-1.44935,-0.0407079,0.242258,
2,0,0,1,0,31444.4,0.238461,0.238181,-0.256895,47,0.919732,10,-6.11876e-05,-3.59024,-1.16959,-0.050445,0.238294,
2,0,0,1,0,31445.2,0.234467,0.234133,-0.2591,47,0.919513,10,-6.0664e-05,-3.58653,-0.697229,-0.0846207,0.234247,
2,0,0,0,0,31446,0.230471,0.230135,-0.261615,47,0.919293,10,-6.02067e-05,-3.58234,-1.86932,-0.0315623,0.23025,
2,0,0,1,0,31446.8,0.226476,0.226157,-0.265259,47,0.91907,10,-5.99902e-05,-3.57633,-0.831389,-0.0709656,0.226274,
2,0,0,0,0,31447.6,0.222481,0.222155,-0.266431,47,0.918845,10,-5.9189e-05,-3.57442,-0.889494,-0.0663299,0.222273,
2,0,0,1,0,31448.4,0.218485,0.218135,-0.270144,47,0.918618,10,-5.8928e-05,-3.5684,-1.25342,-0.0470712,0.218254,
2,0,0,1,0,31449.2,0.21449,0.214174,-0.272924,47,0.918389,10,-5.84532e-05,-3.56396,-0.703938,-0.0838142,0.214294,
2,0,0,1,0,31450,0.210496,0.210155,-0.275305,47,0.918158,10,-5.78569e-05,-3.56019,-0.856106,-0.0689167,0.210276,
2,0,0,1,0,31450.8,0.2065,0.206235,-0.280261,47,0.917925,10,-5.77998e-05,-3.55244,-0.756198,-0.0780218,0.206359,
2,0,0,0,0,31451.6,0.202505,0.20214,-0.281354,47,0.917689,10,-5.68729e-05,-3.55075,-1.10005,-0.0536341,0.202264,
2,0,0,1,0,31452.4,0.198509,0.198208,-0.285239,47,0.91745,10,-5.65366e-05,-3.54479,-0.689375,-0.0855848,0.198333,
2,0,0,1,0,31453.2,0.194514,0.194215,-0.288891,47,0.917209,10,-5.61069e-05,-3.53927,-0.753193,-0.0783331,0.194342,
2,0,0,1,0,31454,0.190519,0.190204,-0.291477,47,0.916964,10,-5.544e-05,-3.5354,-0.918763,-0.0642168,0.190332,
2,0,0,1,0,31454.8,0.186524,0.18622,-0.297391,47,0.916716,10,-5.53803e-05,-3.52667,-0.480532,-0.122781,0.186351,
2,0,0,0,0,31455.6,0.182529,0.182192,-0.302042,47,0.916465,10,-5.50297e-05,-3.51993,-0.514257,-0.114729,0.182325,
2,0,0,1,0,31456.4,0.178534,0.178245,-0.306983,47,0.916208,10,-5.47183e-05,-3.51289,-0.546553,-0.107949,0.17838,
2,0,0,1,0,31457.2,0.174538,0.17418,-0.31376,47,0.915948,10,-5.46508e-05,-3.5034,-0.35903,-0.164332,0.174318,
2,0,0,1,0,31458,0.170543,0.170248,-0.320749,47,0.915681,10,-5.46069e-05,-3.49384,-0.34519,-0.17092,0.17039,
2,0,0,1,0,31458.8,0.166549,0.166233,-0.330122,47,0.915407,10,-5.48771e-05,-3.48133,-0.299701,-0.196863,0.166378,
2,0,0,0,0,31459.6,0.162553,0.162204,-0.341356,47,0.915126,10,-5.53693e-05,-3.46679,-0.272797,-0.216278,0.162354,
2,0,0,1,0,31460.4,0.158558,0.158219,-0.353807,47,0.914835,10,-5.5979e-05,-3.45123,-0.194379,-0.303531,0.158375,
2,0,0,0,0,31461.2,0.154563,0.154227,-0.373302,47,0.914531,10,-5.75732e-05,-3.42794,-0.186272,-0.316741,0.154391,
2,0,0,1,0,31462,0.150567,0.150232,-0.397064,47,0.914211,10,-5.96517e-05,-3.40114,-0.125941,-0.468475,0.150407,
2,0,0,1,0,31462.8,0.146572,0.146281,-0.429069,47,0.913868,10,-6.27648e-05,-3.36747,-0.109864,-0.537026,0.14647,
2,0,0,1,0,31463.6,0.142578,0.142233,-0.472612,47,0.913496,10,-6.7221e-05,-3.3255,-0.0907486,-0.650148,0.142441,
2,0,0,1,0,31464.4,0.138582,0.138257,-0.520299,47,0.913087,10,-7.1935e-05,-3.28375,-0.0917051,-0.643367,0.138486,
2,0,0,0,0,31465.2,0.134587,0.134199,-0.575468,47,0.912636,10,-7.72272e-05,-3.23998,-0.0976798,-0.604014,0.134452,
2,0,0,1,0,31466,0.130591,0.130282,-0.627367,47,0.912141,10,-8.17349e-05,-3.20248,-0.115271,-0.511839,0.130558,
2,0,0,1,0,31466.8,0.126596,0.126272,-0.668834,47,0.911608,10,-8.44553e-05,-3.17468,-0.173432,-0.340191,0.126567,
2,0,0,1,0,31467.5,0.122602,0.122289,-0.700398,47,0.911046,10,-8.56508e-05,-3.15465,-0.308272,-0.191389,0.122597,
2,0,0,1,0,31468.3,0.118607,0.118283,-0.716074,47,0.910467,10,-8.4699e-05,-3.14504,-0.492606,-0.119771,0.118598,
2,0,0,0,0,31469.1,0.114611,0.114263,-0.721738,47,0.909877,10,-8.24682e-05,-3.14162,-5.60266,-0.0105307,0.114581,
2,0,0,1,0,31469.9,0.110616,0.110283,-0.719907,47,0.909287,10,-7.93931e-05,-3.14272,2.81217,0.0209802,0.110599,
2,0,0,1,0,31470.7,0.10662,0.106273,-0.71607,47,0.9087,10,-7.60986e-05,-3.14504,0.980418,0.0601784,0.106588,
2,0,0,1,0,31471.5,0.102625,0.102283,-0.7084,47,0.908116,10,-7.24571e-05,-3.14972,0.697503,0.0845875,0.102594,
2,0,0,1,0,31472.3,0.0986305,0.09828,-0.699657,47,0.90754,10,-6.87623e-05,-3.15511,0.785798,0.0750829,0.0985878,
2,0,0,0,0,31473.1,0.0946351,0.0943032,-0.686818,47,0.906971,10,-6.47692e-05,-3.16316,0.583898,0.101045,0.0946054,
2,0,0,1,0,31473.9,0.0906399,0.090296,-0.681035,47,0.906409,10,-6.14947e-05,-3.16683,0.515043,0.114554,0.0905956,
2,0,0,0,0,31474.7,0.0866448,0.0862834,-0.669551,47,0.905857,10,-5.77711e-05,-3.17422,0.771472,0.0764772,0.086578,
2,0,0,1,0,31475.5,0.0826492,0.0823149,-0.659145,47,0.905313,10,-5.42574e-05,-3.18102,0.555903,0.106134,0.0826049,
2,0,0,1,0,31476.3,0.0786544,0.0783463,-0.649357,47,0.904777,10,-5.08747e-05,-3.18752,0.74618,0.0790694,0.078632,
2,0,0,1,0,31477.1,0.0746596,0.074351,-0.639869,47,0.904249,10,-4.75748e-05,-3.19391,0.698644,0.0844493,0.0746325,
2,0,0,1,0,31477.9,0.0706641,0.0703073,-0.631196,47,0.903728,10,-4.43777e-05,-3.19984,0.566131,0.104216,0.070585,
2,0,0,0,0,31478.7,0.0666689,0.0663159,-0.623829,47,0.903214,10,-4.13698e-05,-3.20493,0.88581,0.0666057,0.0665904,
2,0,0,1,0,31479.5,0.0626737,0.0623617,-0.611314,47,0.902706,10,-3.81226e-05,-3.21374,0.584196,0.100993,0.0626306,
2,0,0,1,0,31480.3,0.0586783,0.0583257,-0.606243,47,0.902205,10,-3.53595e-05,-3.21735,0.507823,0.116182,0.0585925,
2,0,0,1,0,31481.1,0.0546835,0.0543432,-0.596105,47,0.901712,10,-3.23942e-05,-3.22468,0.643848,0.0916366,0.0546055,
2,0,0,1,0,31481.9,0.0506886,0.0503699,-0.585162,47,0.901226,10,-2.94745e-05,-3.23272,0.595356,0.0991003,0.0506273,
2,0,0,0,0,31482.7,0.046693,0.0464015,-0.576305,47,0.900749,10,-2.67414e-05,-3.23935,0.525721,0.112227,0.0466551,
2,0,0,1,0,31483.5,0.0426979,0.0423677,-0.564947,47,0.90028,10,-2.39355e-05,-3.24799,0.493942,0.119447,0.0426163,
2,0,0,1,0,31484.3,0.0387022,0.0383324,-0.555888,47,0.899819,10,-2.13085e-05,-3.25501,0.409213,0.144179,0.038577,
2,0,0,1,0,31485.1,0.0347074,0.0343976,-0.545133,47,0.899366,10,-1.87513e-05,-3.2635,0.567068,0.104044,0.0346375,
2,0,0,1,0,31485.9,0.0307126,0.0303662,-0.533055,47,0.898922,10,-1.61869e-05,-3.27323,0.523721,0.112655,0.0306007,
2,0,0,0,0,31486.7,0.0267172,0.026381,-0.524929,47,0.898486,10,-1.38482e-05,-3.2799,0.471958,0.125011,0.026612,
2,0,0,1,0,31487.5,0.022722,0.0223843,-0.516659,47,0.898057,10,-1.15651e-05,-3.2868,0.853665,0.0691137,0.0226117,
2,0,0,0,0,31488.3,0.0187268,0.0183665,-0.509708,47,0.897633,10,-9.36154e-06,-3.29268,0.609013,0.0968781,0.0185907,
2,0,0,1,0,31489.1,0.0147313,0.0144194,-0.506598,47,0.897215,10,-7.30485e-06,-3.29534,1.08704,0.0542759,0.0146423,
2,0,0,1,0,31489.9,0.0107365,0.0103881,-0.501627,47,0.8968,10,-5.21093e-06,-3.29962,3.39395,0.0173839,0.0106088,
2,0,0,1,0,31490.7,0.00674163,0.00644028,-0.499454,47,0.896387,10,-3.21662e-06,-3.3015,1.78623,0.0330306,0.00666004,
2,0,0,1,0,31491.5,0.00274612,0.00237341,-0.500124,47,0.895975,10,-1.187e-06,-3.30092,-1.59773,-0.0369274,0.00259347,
2,0,0,0,0,31492,0.000274105,-0.000101048,-0.501853,47,0.895718,10,5.0711e-08,-3.29942, , ,0.000119768,