File: Figure_codes/Fig_3-5/workspace_calculate_alpha_eff/20221101_1-115_003_TrumpetPlot_ParaChange_from10_every3_16_CV_C01_19.csv
mode,ox/red,error,control changes,counter inc.,time/s,control/V,Ewe/V,<I>/mA,cycle number,(Q-Qo)/C,I Range,P/W,log(|I|),Tafel slope mV/dec,alpha_eff,E-IR/V,
2,0,0,0,0,13420.9,2.44065e-05,-0.000439847,-0.0815851,20,0.0000000E+000,10,3.5885e-08,-4.08839, , ,-0.00040395,
2,1,0,0,0,13421.7,0.00379485,0.00347305,0.168085,20,0.000113415,10,5.83769e-07,-3.77447,0.04358,1.35383,0.00339909,
2,1,0,1,0,13422.5,0.00779002,0.00747079,0.191473,20,0.000270637,10,1.43045e-06,-3.71789,0.082444,0.715637,0.00738654,
2,1,0,0,0,13423.3,0.0117852,0.0114409,0.207258,20,0.000443726,10,2.37122e-06,-3.68349,0.130498,0.452113,0.0113498,
2,1,0,1,0,13424.1,0.0157806,0.0154739,0.222759,20,0.000629052,10,3.44696e-06,-3.65216,0.132128,0.446537,0.0153759,
2,1,0,1,0,13424.9,0.0197754,0.0194563,0.236207,20,0.000825462,10,4.59571e-06,-3.62671,0.155671,0.379005,0.0193524,
2,1,0,1,0,13425.7,0.0237704,0.0234782,0.249904,20,0.00103368,10,5.8673e-06,-3.60223,0.169713,0.347646,0.0233682,
2,1,0,1,0,13426.4,0.0277659,0.0274531,0.264825,20,0.00125301,10,7.27028e-06,-3.57704,0.15716,0.375415,0.0273366,
2,1,0,0,0,13427.2,0.0317611,0.0314582,0.279516,20,0.00148398,10,8.79308e-06,-3.55359,0.173291,0.340468,0.0313353,
2,1,0,1,0,13428,0.0357567,0.0354426,0.293817,20,0.00172709,10,1.04136e-05,-3.53192,0.218691,0.269787,0.0353133,
2,1,0,1,0,13428.8,0.0397516,0.039435,0.30933,20,0.00198137,10,1.21984e-05,-3.50958,0.165731,0.355998,0.0392989,
2,1,0,1,0,13429.6,0.0437465,0.0434386,0.32145,20,0.00224771,10,1.39634e-05,-3.49289,0.234195,0.251927,0.0432972,
2,1,0,1,0,13430.4,0.0477413,0.0474358,0.336837,20,0.00252443,10,1.59781e-05,-3.47258,0.207859,0.283846,0.0472876,
2,1,0,0,0,13431.2,0.0517369,0.051414,0.350024,20,0.00281213,10,1.79962e-05,-3.4559,0.232067,0.254237,0.05126,
2,1,0,1,0,13432,0.0557321,0.0554139,0.362873,20,0.00311096,10,2.01082e-05,-3.44025,0.311135,0.189628,0.0552542,
2,1,0,1,0,13432.8,0.0597277,0.0593865,0.374358,20,0.00341914,10,2.22318e-05,-3.42671,0.313502,0.188197,0.0592218,
2,1,0,1,0,13433.6,0.0637226,0.0634169,0.386683,20,0.00373713,10,2.45222e-05,-3.41265,0.269883,0.218614,0.0632467,
2,1,0,1,0,13434.4,0.0677174,0.067429,0.397233,20,0.00406503,10,2.67851e-05,-3.40095,0.438831,0.134448,0.0672543,
2,1,0,0,0,13435.2,0.0717128,0.0713666,0.408043,20,0.00440111,10,2.91207e-05,-3.38929,0.333481,0.176922,0.0711871,
2,1,0,1,0,13436,0.075708,0.0753729,0.416584,20,0.00474519,10,3.13991e-05,-3.3803,0.414986,0.142173,0.0751896,
2,1,0,0,0,13436.8,0.0797031,0.079395,0.427025,20,0.00509634,10,3.39037e-05,-3.36955,0.400949,0.147151,0.0792071,
2,1,0,1,0,13437.6,0.0836986,0.0834026,0.436212,20,0.00545522,10,3.63812e-05,-3.3603,0.379423,0.155499,0.0832107,
2,1,0,1,0,13438.4,0.0876935,0.0873979,0.448872,20,0.00582316,10,3.92305e-05,-3.34788,0.294733,0.200181,0.0872004,
2,1,0,1,0,13439.2,0.0916883,0.0913473,0.463916,20,0.00620146,10,4.23775e-05,-3.33356,0.250888,0.235165,0.0911432,
2,1,0,1,0,13440,0.0956838,0.0953414,0.482139,20,0.00659341,10,4.59678e-05,-3.31683,0.211112,0.279473,0.0951292,
2,1,0,0,0,13440.8,0.099679,0.0993858,0.506844,20,0.00700235,10,5.03731e-05,-3.29513,0.200648,0.294047,0.0991628,
2,1,0,1,0,13441.6,0.103674,0.103336,0.53035,20,0.0074307,10,5.48041e-05,-3.27544,0.181754,0.324615,0.103102,
2,1,0,1,0,13442.4,0.10767,0.107352,0.554087,20,0.0078795,10,5.94821e-05,-3.25642,0.228338,0.258389,0.107108,
2,1,0,1,0,13443.2,0.111664,0.111369,0.577569,20,0.00834624,10,6.43234e-05,-3.2384,0.267119,0.220875,0.111115,
2,1,0,1,0,13444,0.115659,0.115337,0.594924,20,0.0088288,10,6.86167e-05,-3.22554,0.268517,0.219725,0.115075,
2,1,0,0,0,13444.8,0.119655,0.119328,0.613025,20,0.00932629,10,7.31509e-05,-3.21252,0.379461,0.155484,0.119058,
2,1,0,1,0,13445.6,0.12365,0.123344,0.630363,20,0.00983685,10,7.77512e-05,-3.20041,0.309556,0.190596,0.123066,
2,1,0,1,0,13446.4,0.127646,0.12735,0.645371,20,0.0103621,10,8.21881e-05,-3.19019,0.393712,0.149856,0.127066,
2,1,0,1,0,13447.2,0.131641,0.131337,0.659851,20,0.0108995,10,8.66628e-05,-3.18055,2.8573,0.0206488,0.131047,
2,1,0,1,0,13448,0.135635,0.135324,0.653588,20,0.0114397,10,8.8446e-05,-3.1847,-0.535667,-0.110143,0.135036,
2,1,0,0,0,13448.8,0.139631,0.139263,0.623648,20,0.0119674,10,8.68513e-05,-3.20506,-0.132929,-0.443845,0.138989,
2,1,0,1,0,13449.6,0.143626,0.143306,0.574735,20,0.0124622,10,8.23628e-05,-3.24053,-0.0882131,-0.668835,0.143053,
2,1,0,0,0,13450.4,0.147621,0.147269,0.507567,20,0.0129086,10,7.47492e-05,-3.29451,-0.0709848,-0.831163,0.147046,
2,1,0,1,0,13451.2,0.151617,0.15128,0.445669,20,0.0133027,10,6.7421e-05,-3.35099,-0.0727435,-0.811069,0.151084,
2,1,0,1,0,13452,0.155612,0.155298,0.395997,20,0.013651,10,6.14975e-05,-3.40231,-0.0831955,-0.709173,0.155124,
2,1,0,1,0,13452.8,0.159606,0.159286,0.358813,20,0.0139659,10,5.71538e-05,-3.44513,-0.122618,-0.481168,0.159128,
2,1,0,1,0,13453.6,0.163602,0.16331,0.335329,20,0.0142571,10,5.47627e-05,-3.47453,-0.133717,-0.441231,0.163163,
2,1,0,0,0,13454.4,0.167597,0.167301,0.318635,20,0.0145312,10,5.33078e-05,-3.49671,-0.200499,-0.294266,0.16716,
2,1,0,1,0,13455.2,0.171592,0.171274,0.30425,20,0.0147934,10,5.211e-05,-3.51677,-0.267309,-0.220718,0.17114,
2,1,0,1,0,13456,0.175588,0.175313,0.296227,20,0.0150464,10,5.19324e-05,-3.52838,-0.342568,-0.172229,0.175183,
2,1,0,1,0,13456.8,0.179582,0.179289,0.287287,20,0.0152923,10,5.15075e-05,-3.54168,-0.330182,-0.178689,0.179163,
2,1,0,1,0,13457.6,0.183577,0.183283,0.281699,20,0.0155329,10,5.16306e-05,-3.55021,-0.565651,-0.104305,0.183159,
2,1,0,0,0,13458.4,0.187573,0.187229,0.276327,20,0.0157689,10,5.17364e-05,-3.55858,-0.482888,-0.122182,0.187107,
2,1,0,1,0,13459.2,0.191568,0.191304,0.272252,20,0.0160012,10,5.20828e-05,-3.56503,-0.667738,-0.088358,0.191184,
2,1,0,0,0,13460,0.195563,0.195239,0.268659,20,0.0162308,10,5.24527e-05,-3.5708,-0.514568,-0.114659,0.195121,
2,1,0,1,0,13460.8,0.199559,0.199281,0.265489,20,0.0164576,10,5.29068e-05,-3.57595,-2.4124,-0.0244569,0.199164,
2,1,0,1,0,13461.6,0.203553,0.203234,0.261302,20,0.0166823,10,5.31057e-05,-3.58286,-1.5074,-0.0391402,0.203119,
2,1,0,1,0,13462.4,0.207548,0.207227,0.261146,20,0.016905,10,5.41164e-05,-3.58312,-0.767239,-0.0768991,0.207112,
2,1,0,1,0,13463.2,0.211544,0.211272,0.257938,20,0.0171257,10,5.44952e-05,-3.58848,-1.34442,-0.0438853,0.211159,
2,1,0,0,0,13464,0.215539,0.215253,0.256093,20,0.0173447,10,5.51249e-05,-3.5916,-1.26535,-0.0466273,0.215141,
2,1,0,1,0,13464.8,0.219535,0.219282,0.255668,20,0.017562,10,5.60634e-05,-3.59232,-0.784097,-0.0752458,0.21917,
2,1,0,1,0,13465.6,0.223529,0.223183,0.253043,20,0.0177781,10,5.64749e-05,-3.59681,-2.5812,-0.0228576,0.223072,
2,1,0,1,0,13466.4,0.227524,0.227211,0.250975,20,0.017993,10,5.70244e-05,-3.60037,-0.851287,-0.0693068,0.227101,
2,1,0,1,0,13467.2,0.23152,0.231192,0.249461,20,0.0182063,10,5.76733e-05,-3.603,-21.0296,-0.00280557,0.231082,
2,1,0,0,0,13468,0.235515,0.235206,0.246887,20,0.0184187,10,5.80693e-05,-3.6075,-2.23275,-0.0264248,0.235097,
2,1,0,1,0,13468.8,0.23951,0.239248,0.246983,20,0.0186302,10,5.90901e-05,-3.60733,-1.84511,-0.0319765,0.239139,
2,1,0,1,0,13469.6,0.243506,0.243211,0.246268,20,0.0188407,10,5.98952e-05,-3.60859,-11.9691,-0.00492935,0.243103,
2,1,0,1,0,13470.4,0.2475,0.24724,0.24566,20,0.0190506,10,6.0737e-05,-3.60967,-1.09719,-0.0537736,0.247132,
2,1,0,1,0,13471.2,0.251495,0.25121,0.244293,20,0.0192595,10,6.13688e-05,-3.61209,-6.89437,-0.0085577,0.251103,
2,1,0,0,0,13472,0.255491,0.255165,0.243429,20,0.0194675,10,6.21144e-05,-3.61363,-1.59835,-0.036913,0.255058,
2,1,0,1,0,13472.8,0.259486,0.259193,0.242379,20,0.019675,10,6.2823e-05,-3.61551,-1.81483,-0.0325099,0.259087,
2,1,0,0,0,13473.6,0.263481,0.26318,0.241903,20,0.0198817,10,6.36641e-05,-3.61636,-106.605,-0.000553446,0.263074,
2,1,0,1,0,13474.4,0.267477,0.267206,0.240396,20,0.0200877,10,6.42353e-05,-3.61907,-2.40095,-0.0245736,0.2671,
2,1,0,1,0,13475.2,0.271471,0.271204,0.239978,20,0.020293,10,6.50831e-05,-3.61983,-4.72023,-0.0124994,0.271099,
2,1,0,1,0,13476,0.275466,0.275159,0.239781,20,0.0204975,10,6.59779e-05,-3.62019,-1.84012,-0.0320631,0.275054,
2,1,0,1,0,13476.8,0.279462,0.279197,0.238308,20,0.0207017,10,6.65348e-05,-3.62286,-1.42421,-0.0414263,0.279092,
2,1,0,0,0,13477.6,0.283457,0.283156,0.238364,20,0.0209049,10,6.74943e-05,-3.62276,-9.93549,-0.00593831,0.283051,
2,1,0,1,0,13478.4,0.287452,0.287141,0.237036,20,0.0211072,10,6.80629e-05,-3.62519,-0.87411,-0.0674972,0.287037,
2,1,0,1,0,13479.2,0.291448,0.291116,0.235295,20,0.0213087,10,6.84981e-05,-3.62839,-2.26978,-0.0259937,0.291013,
2,1,0,1,0,13480,0.295442,0.295158,0.23381,20,0.0215094,10,6.90109e-05,-3.63114,2.32349,0.0253928,0.295055,
2,1,0,1,0,13480.8,0.299437,0.299173,0.232052,20,0.0217095,10,6.94239e-05,-3.63441,-1.44176,-0.0409223,0.299071,
2,1,0,0,0,13481.6,0.303433,0.30313,0.232707,20,0.0219087,10,7.05406e-05,-3.63319,-7.90849,-0.00746034,0.303028,
2,1,0,1,0,13482.4,0.307428,0.307137,0.231837,20,0.0221071,10,7.12059e-05,-3.63482,-2.15851,-0.0273336,0.307035,
2,1,0,1,0,13483.2,0.311424,0.31111,0.231379,20,0.0223051,10,7.19844e-05,-3.63568,-3.15729,-0.0186869,0.311008,
2,1,0,1,0,13484,0.315418,0.315153,0.230352,20,0.0225021,10,7.25962e-05,-3.63761,-1.35646,-0.0434957,0.315052,
2,1,0,1,0,13484.8,0.319413,0.319088,0.229879,20,0.0226986,10,7.33516e-05,-3.6385,-6.78862,-0.00869101,0.318987,
2,1,0,0,0,13485.6,0.323409,0.323117,0.230113,20,0.0228947,10,7.43534e-05,-3.63806,-1.21706,-0.0484776,0.323015,
2,1,0,1,0,13486.4,0.327404,0.327124,0.229121,20,0.02309,10,7.49509e-05,-3.63994,-7.68291,-0.00767938,0.327023,
2,1,0,0,0,13487.2,0.331399,0.331106,0.226597,20,0.0232849,10,7.50275e-05,-3.64475,-28.0108,-0.00210633,0.331006,
2,1,0,1,0,13488,0.335395,0.335085,0.22745,20,0.0234793,10,7.62151e-05,-3.64311,-1.55857,-0.0378553,0.334985,
2,1,0,1,0,13488.8,0.339389,0.339119,0.226765,20,0.023673,10,7.69002e-05,-3.64442,15.1991,0.00388181,0.339019,
2,1,0,1,0,13489.6,0.343384,0.343064,0.225676,20,0.0238663,10,7.74214e-05,-3.64651,-2.73511,-0.0215713,0.342964,
2,1,0,1,0,13490.4,0.34738,0.347121,0.22593,20,0.0240592,10,7.84252e-05,-3.64603,5.34875,0.0110306,0.347022,
2,1,0,0,0,13491.2,0.351375,0.351035,0.225286,20,0.0242516,10,7.90831e-05,-3.64727,-1.36005,-0.0433809,0.350936,
2,1,0,1,0,13492,0.35537,0.355033,0.226141,20,0.0244436,10,8.02873e-05,-3.64562,-4.26031,-0.0138488,0.354933,
2,1,0,1,0,13492.8,0.359366,0.359018,0.224564,20,0.0246351,10,8.06223e-05,-3.64866,-8.81194,-0.00669546,0.358919,
2,1,0,1,0,13493.6,0.36336,0.3631,0.22352,20,0.0248263,10,8.11603e-05,-3.65068,-3.90018,-0.0151275,0.363002,
2,1,0,1,0,13494.4,0.367355,0.367073,0.223682,20,0.0250168,10,8.21077e-05,-3.65037,14.3449,0.00411296,0.366975,
2,1,0,0,0,13495.2,0.371351,0.371044,0.223763,20,0.0252071,10,8.30259e-05,-3.65021,-3.65328,-0.0161499,0.370945,
2,1,0,1,0,13496,0.375346,0.375104,0.222107,20,0.0253972,10,8.33132e-05,-3.65344,-7.24773,-0.00814048,0.375006,
2,1,0,1,0,13496.8,0.379342,0.379016,0.221651,20,0.0255867,10,8.40093e-05,-3.65433,-1.61264,-0.036586,0.378919,
2,1,0,1,0,13497.6,0.383336,0.383001,0.221194,20,0.0257758,10,8.47177e-05,-3.65523,-9.11959,-0.00646959,0.382904,
2,1,0,1,0,13498.4,0.387331,0.387024,0.22222,20,0.0259648,10,8.60044e-05,-3.65322,-2.54367,-0.0231948,0.386926,
2,1,0,0,0,13499.2,0.391327,0.391066,0.220807,20,0.0261532,10,8.63501e-05,-3.65599,2.3386,0.0252287,0.390969,
2,1,0,1,0,13500,0.395322,0.395051,0.219804,20,0.0263414,10,8.6834e-05,-3.65796,-26.5142,-0.00222522,0.394955,
2,1,0,0,0,13500.8,0.399317,0.398977,0.221767,20,0.0265294,10,8.84798e-05,-3.6541,-4.53887,-0.0129988,0.39888,
2,1,0,1,0,13501.6,0.403313,0.40301,0.2204,20,0.0267172,10,8.88235e-05,-3.65679,-4.56119,-0.0129352,0.402913,
2,1,0,1,0,13502.4,0.407307,0.407002,0.22006,20,0.0269048,10,8.95649e-05,-3.65746,-3.4673,-0.0170161,0.406906,
2,1,0,1,0,13503.2,0.411302,0.41099,0.221643,20,0.0270923,10,9.1093e-05,-3.65435,2.00487,0.0294283,0.410893,
2,1,0,1,0,13504,0.415298,0.415001,0.220702,20,0.0272799,10,9.15916e-05,-3.65619,-1.80689,-0.0326528,0.414904,
2,1,0,0,0,13504.8,0.419293,0.418997,0.219249,20,0.0274672,10,9.18646e-05,-3.65906,-7.18947,-0.00820644,0.4189,
2,1,0,1,0,13505.6,0.423288,0.422984,0.22033,20,0.0276542,10,9.31958e-05,-3.65693,1.72409,0.0342209,0.422887,
2,1,0,1,0,13506.4,0.427283,0.426976,0.218956,20,0.0278417,10,9.34891e-05,-3.65964,-6.43768,-0.00916479,0.42688,
2,1,0,1,0,13507.2,0.431278,0.431004,0.221149,20,0.028029,10,9.53164e-05,-3.65531,-18.216,-0.00323891,0.430907,
2,1,0,1,0,13508,0.435273,0.435002,0.21982,20,0.0282161,10,9.5622e-05,-3.65793,-5.28537,-0.0111629,0.434905,
2,1,0,0,0,13508.8,0.439269,0.439001,0.219732,20,0.0284031,10,9.64626e-05,-3.65811,-6.92619,-0.00851839,0.438904,
2,1,0,1,0,13509.5,0.443264,0.442962,0.220412,20,0.0285901,10,9.76342e-05,-3.65676,21.9953,0.00268239,0.442865,
2,1,0,0,0,13510.3,0.447259,0.446981,0.220357,20,0.0287771,10,9.84952e-05,-3.65687,3.03159,0.0194618,0.446884,
2,1,0,1,0,13511.1,0.451254,0.450983,0.220371,20,0.0289644,10,9.93836e-05,-3.65685,-6.39138,-0.00923118,0.450886,
2,1,0,1,0,13511.9,0.455249,0.454977,0.221612,20,0.0291516,10,0.000100828,-3.65441,3.85528,0.0153037,0.45488,
2,1,0,1,0,13512.7,0.459244,0.458935,0.22028,20,0.0293392,10,0.000101094,-3.65702,1.40234,0.0420727,0.458838,
2,1,0,1,0,13513.5,0.46324,0.462927,0.22136,20,0.0295269,10,0.000102474,-3.6549,-4.72391,-0.0124897,0.46283,
2,1,0,0,0,13514.3,0.467235,0.466974,0.221552,20,0.0297146,10,0.000103459,-3.65452,6.66574,0.00885123,0.466876,
2,1,0,1,0,13515.1,0.471231,0.470964,0.222032,20,0.0299028,10,0.000104569,-3.65358,5.51957,0.0106892,0.470867,
2,1,0,1,0,13515.9,0.475225,0.474905,0.223338,20,0.0300912,10,0.000106064,-3.65104,3.73873,0.0157808,0.474806,
2,1,0,1,0,13516.7,0.47922,0.478928,0.222747,20,0.0302801,10,0.00010668,-3.65219,2.34536,0.025156,0.47883,
2,1,0,1,0,13517.5,0.483216,0.482971,0.222903,20,0.0304694,10,0.000107656,-3.65188,-2.08578,-0.0282868,0.482873,
2,1,0,0,0,13518.3,0.487211,0.486906,0.224255,20,0.030659,10,0.000109191,-3.64926,0.880052,0.0670415,0.486807,
2,1,0,1,0,13519.1,0.491206,0.490922,0.223793,20,0.0308492,10,0.000109865,-3.65015,-8.05044,-0.00732879,0.490823,
2,1,0,1,0,13519.9,0.495201,0.494915,0.225388,20,0.0310401,10,0.000111548,-3.64707,0.92159,0.0640198,0.494816,
2,1,0,1,0,13520.7,0.499196,0.498883,0.226416,20,0.0312314,10,0.000112955,-3.64509,1.38946,0.0424624,0.498784,
2,1,0,1,0,13521.5,0.503191,0.502875,0.227912,20,0.031424,10,0.000114611,-3.64223,4.13166,0.01428,0.502775,
2,1,0,0,0,13522.3,0.507187,0.506899,0.228392,20,0.0316172,10,0.000115772,-3.64132,1.5811,0.0373159,0.506798,
2,1,0,1,0,13523.1,0.511182,0.510909,0.229258,20,0.0318112,10,0.00011713,-3.63968,4.44591,0.0132706,0.510809,
2,1,0,0,0,13523.9,0.515177,0.51488,0.231434,20,0.0320062,10,0.000119161,-3.63557,7.77483,0.00758859,0.514778,
2,1,0,1,0,13524.7,0.519173,0.51889,0.231929,20,0.032202,10,0.000120346,-3.63465,0.794392,0.0742706,0.518788,
2,1,0,1,0,13525.5,0.523167,0.522885,0.233438,20,0.0323993,10,0.000122061,-3.63183,2.96769,0.0198808,0.522783,
2,1,0,1,0,13526.3,0.527162,0.526926,0.235608,20,0.0325978,10,0.000124148,-3.62781,0.946111,0.0623606,0.526823,
2,1,0,1,0,13527.1,0.531158,0.530899,0.236484,20,0.0327975,10,0.000125549,-3.6262,1.65542,0.0356405,0.530795,
2,1,0,0,0,13527.9,0.535153,0.534844,0.239467,20,0.0329985,10,0.000128077,-3.62075,1.01445,0.0581597,0.534738,
2,1,0,1,0,13528.7,0.539148,0.538892,0.241,20,0.0332008,10,0.000129873,-3.61798,0.760206,0.0776105,0.538786,
2,1,0,1,0,13529.5,0.543143,0.542857,0.243531,20,0.033405,10,0.000132203,-3.61345,2.58202,0.0228504,0.54275,
2,1,0,1,0,13530.3,0.547138,0.546867,0.24597,20,0.0336112,10,0.000134513,-3.60912,0.686612,0.0859291,0.546758,
2,1,0,1,0,13531.1,0.551133,0.550812,0.248822,20,0.0338194,10,0.000137054,-3.60411,0.549109,0.107447,0.550703,
2,1,0,0,0,13531.9,0.555129,0.554823,0.250743,20,0.0340299,10,0.000139118,-3.60077,1.7991,0.0327942,0.554713,
2,1,0,1,0,13532.7,0.559124,0.558819,0.254562,20,0.0342428,10,0.000142254,-3.59421,0.544776,0.108301,0.558707,
2,1,0,1,0,13533.5,0.56312,0.562844,0.25841,20,0.0344585,10,0.000145445,-3.58769,0.684066,0.086249,0.562731,
2,1,0,1,0,13534.3,0.567114,0.566808,0.262224,20,0.0346774,10,0.00014863,-3.58133,0.506165,0.116563,0.566692,
2,1,0,1,0,13535.1,0.571109,0.570816,0.266953,20,0.0348994,10,0.000152381,-3.57356,0.678883,0.0869074,0.570699,
2,1,0,0,0,13535.9,0.575105,0.574841,0.272381,20,0.0351252,10,0.000156576,-3.56482,0.391266,0.150792,0.574721,
2,1,0,1,0,13536.7,0.5791,0.5788,0.278328,20,0.0353555,10,0.000161096,-3.55544,0.482471,0.122287,0.578677,
2,1,0,0,0,13537.5,0.583095,0.582842,0.283126,20,0.0355904,10,0.000165018,-3.54802,0.372475,0.1584,0.582717,
2,1,0,1,0,13538.3,0.58709,0.58678,0.28969,20,0.0358304,10,0.000169984,-3.53807,0.361543,0.163189,0.586652,
2,1,0,1,0,13539.1,0.591085,0.590813,0.299402,20,0.0360764,10,0.000176891,-3.52375,0.333021,0.177166,0.590681,
2,1,0,1,0,13539.9,0.59508,0.594791,0.307578,20,0.036329,10,0.000182945,-3.51205,0.272686,0.216366,0.594656,
2,1,0,1,0,13540.7,0.599076,0.598785,0.317127,20,0.0365893,10,0.000189891,-3.49877,0.30644,0.192533,0.598646,
2,1,0,0,0,13541.5,0.603071,0.602753,0.329293,20,0.036858,10,0.000198482,-3.48242,0.243394,0.242405,0.602608,
2,1,0,1,0,13542.3,0.607066,0.606797,0.342715,20,0.0371366,10,0.000207958,-3.46507,0.222816,0.264793,0.606646,
2,1,0,1,0,13543.1,0.611061,0.610792,0.358063,20,0.0374266,10,0.000218702,-3.44604,0.209401,0.281756,0.610635,
2,1,0,1,0,13543.9,0.615056,0.614715,0.376331,20,0.0377298,10,0.000231336,-3.42443,0.160667,0.367219,0.614549,
2,1,0,1,0,13544.7,0.619051,0.618755,0.395901,20,0.0380493,10,0.000244966,-3.40241,0.166926,0.35345,0.618581,
2,1,0,0,0,13545.5,0.623047,0.62275,0.421774,20,0.0383869,10,0.00026266,-3.37492,0.140037,0.421317,0.622565,
2,1,0,1,0,13546.3,0.627042,0.626776,0.450093,20,0.0387453,10,0.000282108,-3.3467,0.132904,0.443931,0.626578,
2,1,0,1,0,13547.1,0.631037,0.630774,0.48345,20,0.039129,10,0.000304947,-3.31565,0.127284,0.463531,0.630561,
2,1,0,1,0,13547.9,0.635032,0.634794,0.523814,20,0.0395414,10,0.000332514,-3.28082,0.110948,0.531782,0.634563,
2,1,0,1,0,13548.7,0.639027,0.638721,0.568825,20,0.0399876,10,0.000363321,-3.24502,0.103029,0.572653,0.638471,
2,1,0,1,0,13549.5,0.643022,0.642735,0.624246,20,0.0404741,10,0.000401225,-3.20464,0.0967735,0.609671,0.642461,
2,1,0,1,0,13550.3,0.647018,0.646728,0.689879,20,0.0410089,10,0.000446164,-3.16123,0.0884914,0.666732,0.646425,
2,1,0,0,0,13551.1,0.651013,0.650729,0.765087,20,0.0415999,10,0.000497864,-3.11629,0.0839607,0.702709,0.650393,
2,1,0,1,0,13551.9,0.655008,0.654754,0.854689,20,0.0422573,10,0.000559611,-3.06819,0.0805615,0.73236,0.654378,
2,1,0,1,0,13552.7,0.659003,0.658756,0.96053,20,0.0429925,10,0.000632755,-3.01749,0.0767773,0.768456,0.658334,
2,1,0,1,0,13553.5,0.662998,0.662732,1.08179,20,0.0438183,10,0.000716937,-2.96586,0.0752747,0.783796,0.662256,
2,1,0,1,0,13554.3,0.666994,0.66674,1.22426,20,0.0447492,10,0.000816263,-2.91213,0.0723347,0.815653,0.666202,
2,1,0,0,0,13555.1,0.670989,0.670694,1.38935,20,0.0458028,10,0.00093183,-2.85719,0.0713883,0.826466,0.670082,
2,1,0,1,0,13555.9,0.674984,0.6747,1.57747,20,0.0469974,10,0.00106432,-2.80204,0.0704632,0.837317,0.674006,
2,1,0,1,0,13556.7,0.67898,0.678695,1.79318,20,0.0483531,10,0.00121702,-2.74638,0.0689758,0.855373,0.677906,
2,1,0,1,0,13557.5,0.682974,0.682688,2.03789,20,0.0498936,10,0.00139124,-2.69082,0.0714408,0.825858,0.681791,
2,1,0,1,0,13558.3,0.686969,0.68667,2.3144,20,0.0516411,10,0.00158923,-2.63556,0.0700757,0.841946,0.685652,
2,1,0,0,0,13559.1,0.690965,0.690701,2.62076,20,0.0536219,10,0.00181016,-2.58157,0.0716912,0.822974,0.689548,
2,1,0,1,0,13559.9,0.69496,0.694676,2.96235,20,0.0558614,10,0.00205787,-2.52836,0.0746735,0.790106,0.693372,
2,1,0,0,0,13560.7,0.698955,0.698655,3.3357,20,0.0583854,10,0.00233051,-2.47681,0.0736195,0.801418,0.697188,
2,1,0,1,0,13561.5,0.70295,0.702667,3.74421,20,0.0612231,10,0.00263093,-2.42664,0.0769785,0.766447,0.70102,
2,1,0,1,0,13562.3,0.706945,0.706657,4.18738,20,0.0644008,10,0.00295904,-2.37806,0.0794299,0.742793,0.704815,
2,1,0,1,0,13563.1,0.71094,0.710651,4.66375,20,0.0679457,10,0.0033143,-2.33127,0.0827473,0.713014,0.708599,
2,1,0,1,0,13563.9,0.714936,0.714648,5.17447,20,0.071886,10,0.00369793,-2.28613,0.0854795,0.690224,0.712372,
2,1,0,0,0,13564.7,0.718931,0.718632,5.71666,20,0.0762462,10,0.00410818,-2.24286,0.0878594,0.671527,0.716117,
2,1,0,1,0,13565.5,0.722927,0.722667,6.29035,20,0.0810536,10,0.00454583,-2.20133,0.0920717,0.640805,0.719899,
2,1,0,1,0,13566.3,0.726921,0.726637,6.89771,20,0.0863318,10,0.00501213,-2.1613,0.0950726,0.620578,0.723602,
2,1,0,1,0,13567.1,0.730916,0.730646,7.53295,20,0.0921059,10,0.00550392,-2.12304,0.0990323,0.595765,0.727332,
2,1,0,1,0,13567.9,0.734911,0.734635,8.19827,20,0.0984008,10,0.00602273,-2.08628,0.105333,0.560126,0.731027,
2,1,0,0,0,13568.7,0.738907,0.738672,8.8722,20,0.105225,10,0.00655365,-2.05197,0.104837,0.562776,0.734768,
2,1,0,1,0,13569.5,0.742902,0.742625,9.59302,20,0.112611,10,0.00712402,-2.01804,0.112225,0.525728,0.738404,
2,1,0,1,0,13570.3,0.746897,0.746659,10.345,20,0.120588,10,0.00772416,-1.98527,0.113158,0.521395,0.742108,
2,1,0,1,0,13571.1,0.750892,0.750643,11.1291,20,0.129176,10,0.00835397,-1.95354,0.117417,0.502482,0.745746,
2,1,0,1,0,13571.9,0.754887,0.754637,11.9508,20,0.138406,10,0.00901851,-1.9226,0.116913,0.504648,0.749379,
2,1,0,0,0,13572.7,0.758883,0.758613,12.8153,20,0.14831,10,0.00972182,-1.89227,0.120074,0.491364,0.752974,
2,1,0,1,0,13573.5,0.762878,0.762621,13.7321,20,0.158924,10,0.0104724,-1.86226,0.119267,0.49469,0.756579,
2,1,0,0,0,13574.3,0.766873,0.766614,14.7054,20,0.170293,10,0.0112733,-1.83252,0.120795,0.48843,0.760143,
2,1,0,1,0,13575.1,0.770868,0.770618,15.729,20,0.182463,10,0.012121,-1.8033,0.119044,0.495615,0.763697,
2,1,0,1,0,13575.9,0.774863,0.774597,16.8215,20,0.19548,10,0.0130299,-1.77414,0.124316,0.474599,0.767195,
2,1,0,1,0,13576.7,0.778858,0.77862,17.9702,20,0.209386,10,0.0139919,-1.74545,0.119869,0.492205,0.770714,
2,1,0,1,0,13577.5,0.782854,0.782596,19.2081,20,0.224249,10,0.0150322,-1.71651,0.119926,0.49197,0.774145,
2,1,0,0,0,13578.3,0.786849,0.786623,20.4975,20,0.24012,10,0.0161238,-1.6883,0.127096,0.464218,0.777604,
2,1,0,1,0,13579.1,0.790844,0.790609,21.7977,20,0.257021,10,0.0172335,-1.66159,0.125856,0.46879,0.781018,
2,1,0,1,0,13579.9,0.794839,0.794563,23.185,20,0.275002,10,0.0184219,-1.63479,0.125042,0.47184,0.784362,
2,1,0,1,0,13580.7,0.798834,0.79859,24.6215,20,0.294113,10,0.0196625,-1.60869,0.13227,0.446059,0.787757,
2,1,0,1,0,13581.5,0.802829,0.802564,26.0944,20,0.314383,10,0.0209425,-1.58345,0.128747,0.458265,0.791083,
2,1,0,0,0,13582.3,0.806825,0.806597,27.6825,20,0.335883,10,0.0223287,-1.55779,0.136694,0.43162,0.794417,
2,1,0,1,0,13583.1,0.81082,0.810607,29.2359,20,0.358631,10,0.0236988,-1.53408,0.137197,0.43004,0.797743,
2,1,0,1,0,13583.9,0.814815,0.814555,30.9274,20,0.382672,10,0.0251921,-1.50966,0.134742,0.437874,0.800947,
2,1,0,1,0,13584.7,0.81881,0.818504,32.5898,20,0.408067,10,0.0266749,-1.48692,0.154144,0.382758,0.804164,
2,1,0,1,0,13585.5,0.822805,0.822542,34.2391,20,0.434767,10,0.0281631,-1.46548,0.150322,0.392491,0.807477,
2,1,0,0,0,13586.3,0.826801,0.826616,35.9507,20,0.462815,10,0.0297174,-1.44429,0.188475,0.313038,0.810797,
2,1,0,1,0,13587.1,0.830796,0.830616,37.3831,20,0.492052,10,0.031051,-1.42732,0.159454,0.370014,0.814167,
2,1,0,0,0,13587.9,0.834791,0.834544,39.0789,20,0.522632,10,0.0326131,-1.40806,0.187682,0.314361,0.81735,
2,1,0,1,0,13588.7,0.838786,0.838511,40.7229,20,0.554514,10,0.0341466,-1.39016,0.191868,0.307504,0.820593,
2,1,0,1,0,13589.5,0.842781,0.842557,42.2916,20,0.587677,10,0.035633,-1.37375,0.19132,0.308384,0.823948,
2,1,0,1,0,13590.3,0.846776,0.846587,43.969,20,0.62215,10,0.0372236,-1.35685,0.225845,0.261241,0.827241,
2,1,0,0,0,13591,0.849723,0.849483,44.7948,20,0.653318,10,0.0380525,-1.34877,0.0422937,1.39501,0.829774,
2,1,0,1,0,13591.8,0.845728,0.845471,42.4321,20,0.68806,10,0.0358751,-1.37231,0.153314,0.384832,0.826801,
2,1,0,0,0,13592.5,0.841732,0.841524,40.4604,20,0.721149,10,0.0340484,-1.39297,0.157344,0.374974,0.823721,
2,1,0,1,0,13593.3,0.837737,0.837466,38.583,20,0.752736,10,0.032312,-1.4136,0.146963,0.401461,0.820489,
2,1,0,1,0,13594.1,0.833742,0.833533,36.7741,20,0.78282,10,0.0306524,-1.43446,0.150908,0.390967,0.817352,
2,1,0,1,0,13594.9,0.829747,0.829476,35.0001,20,0.811477,10,0.0290317,-1.45593,0.151314,0.389917,0.814076,
2,1,0,1,0,13595.7,0.825752,0.825484,33.2904,20,0.83875,10,0.0274807,-1.47768,0.145296,0.406068,0.810837,
2,1,0,0,0,13596.5,0.821757,0.821524,31.5451,20,0.864638,10,0.025915,-1.50107,0.137623,0.428707,0.807644,
2,1,0,1,0,13597.3,0.817761,0.817522,29.8166,20,0.889145,10,0.0243758,-1.52554,0.129597,0.455256,0.804403,
2,1,0,1,0,13598.1,0.813766,0.81347,28.1329,20,0.912281,10,0.0228853,-1.55079,0.131301,0.449349,0.801091,
2,1,0,1,0,13598.9,0.809771,0.809534,26.5651,20,0.934116,10,0.0215053,-1.57569,0.12961,0.455213,0.797845,
2,1,0,1,0,13599.7,0.805776,0.805543,25.0427,20,0.954713,10,0.0201729,-1.60132,0.126564,0.466168,0.794524,
2,1,0,0,0,13600.5,0.801781,0.801531,23.5357,20,0.974111,10,0.0188646,-1.62827,0.122267,0.482549,0.791175,
2,1,0,1,0,13601.3,0.797786,0.7975,22.0823,20,0.992309,10,0.0176107,-1.65596,0.12066,0.488975,0.787784,
2,1,0,1,0,13602.1,0.79379,0.793519,20.6853,20,1.00938,10,0.0164141,-1.68434,0.119738,0.492742,0.784417,
2,1,0,1,0,13602.9,0.789795,0.789507,19.3737,20,1.02537,10,0.0152956,-1.71279,0.113261,0.520919,0.780982,
2,1,0,1,0,13603.7,0.7858,0.785516,18.0483,20,1.0403,10,0.0141772,-1.74356,0.111612,0.528618,0.777574,
2,1,0,0,0,13604.5,0.781805,0.781552,16.7888,20,1.0542,10,0.0131213,-1.77498,0.109992,0.536401,0.774165,
2,1,0,1,0,13605.3,0.77781,0.777548,15.625,20,1.06712,10,0.0121492,-1.80618,0.114166,0.51679,0.770673,
2,1,0,0,0,13606.1,0.773815,0.773552,14.5302,20,1.07916,10,0.0112399,-1.83773,0.10709,0.550937,0.767159,
2,1,0,1,0,13606.9,0.769819,0.769566,13.4718,20,1.09033,10,0.0103675,-1.87057,0.105387,0.559841,0.763639,
2,1,0,1,0,13607.7,0.765824,0.765559,12.4411,20,1.10067,10,0.00952441,-1.90514,0.0999755,0.590145,0.760085,
2,1,0,1,0,13608.5,0.761829,0.761537,11.4641,20,1.1102,10,0.00873035,-1.94066,0.101475,0.581427,0.756493,
2,1,0,1,0,13609.3,0.757834,0.757551,10.5484,20,1.11898,10,0.00799092,-1.97682,0.0978049,0.603242,0.75291,
2,1,0,0,0,13610.1,0.753839,0.753573,9.67989,20,1.12705,10,0.0072945,-2.01413,0.0971112,0.607551,0.749314,
2,1,0,1,0,13610.9,0.749844,0.749574,8.8625,20,1.13444,10,0.0066431,-2.05244,0.0925583,0.637436,0.745675,
2,1,0,1,0,13611.7,0.745848,0.745606,8.08674,20,1.1412,10,0.00602952,-2.09223,0.0901426,0.654518,0.742047,
2,1,0,1,0,13612.5,0.741853,0.741561,7.36551,20,1.14736,10,0.00546197,-2.1328,0.0904349,0.652403,0.73832,
2,1,0,1,0,13613.3,0.737858,0.737587,6.69303,20,1.15296,10,0.00493669,-2.17438,0.0884386,0.667129,0.734643,
2,1,0,0,0,13614.1,0.733863,0.733592,6.05862,20,1.15804,10,0.00444455,-2.21763,0.0836042,0.705707,0.730926,
2,1,0,1,0,13614.9,0.729868,0.729615,5.46241,20,1.16262,10,0.00398546,-2.26262,0.0820751,0.718854,0.727212,
2,1,0,1,0,13615.7,0.725872,0.725609,4.91241,20,1.16676,10,0.00356449,-2.30871,0.0804029,0.733804,0.723448,
2,1,0,1,0,13616.5,0.721877,0.721591,4.40007,20,1.17046,10,0.00317505,-2.35654,0.0773772,0.762498,0.719655,
2,1,0,1,0,13617.3,0.717882,0.717614,3.92774,20,1.17377,10,0.0028186,-2.40586,0.0761795,0.774487,0.715885,
2,1,0,0,0,13618.1,0.713887,0.713608,3.49083,20,1.17672,10,0.00249108,-2.45707,0.0730292,0.807896,0.712072,
2,1,0,1,0,13618.9,0.709892,0.709622,3.08705,20,1.17934,10,0.00219064,-2.51046,0.0705499,0.836287,0.708264,
2,1,0,0,0,13619.7,0.705897,0.705623,2.71904,20,1.18165,10,0.00191862,-2.56559,0.0677022,0.871464,0.704427,
2,1,0,1,0,13620.5,0.701901,0.701611,2.38364,20,1.18367,10,0.00167239,-2.62276,0.0661672,0.89168,0.700563,
2,1,0,1,0,13621.3,0.697906,0.697628,2.07714,20,1.18544,10,0.00144907,-2.68253,0.0642756,0.917923,0.696714,
2,1,0,1,0,13622.1,0.693911,0.693638,1.80268,20,1.18698,10,0.00125041,-2.74408,0.0614572,0.960018,0.692845,
2,1,0,1,0,13622.9,0.689916,0.689649,1.55369,20,1.18831,10,0.0010715,-2.80864,0.0595421,0.990895,0.688966,
2,1,0,0,0,13623.7,0.685921,0.685664,1.33158,20,1.18945,10,0.000913014,-2.87563,0.0559629,1.05427,0.685079,
2,1,0,1,0,13624.5,0.681926,0.681662,1.13385,20,1.19042,10,0.000772903,-2.94544,0.0560275,1.05305,0.681164,
2,1,0,1,0,13625.3,0.67793,0.677655,0.958449,20,1.19124,10,0.000649498,-3.01843,0.0522769,1.12861,0.677233,
2,1,0,1,0,13626.1,0.673935,0.67366,0.803794,20,1.19193,10,0.000541483,-3.09486,0.0499228,1.18182,0.673306,
2,1,0,1,0,13626.9,0.66994,0.669678,0.669273,20,1.19251,10,0.000448197,-3.1744,0.0474445,1.24356,0.669383,
2,1,0,0,0,13627.7,0.665945,0.665659,0.551024,20,1.19298,10,0.000366794,-3.25883,0.0471232,1.25204,0.665416,
2,1,0,1,0,13628.5,0.66195,0.661675,0.449653,20,1.19337,10,0.000297524,-3.34712,0.0425721,1.38588,0.661477,
2,1,0,0,0,13629.3,0.657955,0.657666,0.360771,20,1.19368,10,0.000237267,-3.44277,0.0412196,1.43136,0.657508,
2,1,0,1,0,13630.1,0.653959,0.653688,0.286883,20,1.19393,10,0.000187532,-3.5423,0.0379522,1.55459,0.653562,
2,1,0,1,0,13630.9,0.649964,0.649712,0.225196,20,1.19413,10,0.000146313,-3.64744,0.0365561,1.61396,0.649613,
2,1,0,1,0,13631.7,0.64597,0.645693,0.171851,20,1.19427,10,0.000110963,-3.76485,0.0312949,1.88529,0.645617,
2,1,0,1,0,13632.5,0.641974,0.641728,0.126197,20,1.19438,10,8.09841e-05,-3.89895,0.0277486,2.12623,0.641672,
2,1,0,0,0,13633.3,0.637979,0.637689,0.0891246,20,1.19445,10,5.68338e-05,-4.05,0.0233836,2.52314,0.63765,
2,1,0,1,0,13634.1,0.633983,0.633721,0.055788,20,1.1945,10,3.5354e-05,-4.25346,0.0178726,3.30115,0.633697,
2,1,0,1,0,13634.9,0.629988,0.629663,0.0291568,20,1.19452,10,1.8359e-05,-4.53526,0.010328,5.71265,0.62965,
2,1,0,1,0,13635.7,0.625993,0.625766,0.00825839,20,1.19453,10,5.16782e-06,-5.0831,0.00541612,10.8934,0.625763,
2,0,0,1,0,13636.5,0.621998,0.621717,-0.0102892,20,1.19451,10,-6.39697e-06,-4.98762,-0.00508,-11.6142,0.621721,
2,0,0,0,0,13637.3,0.618003,0.617719,-0.0261841,20,1.19449,10,-1.61744e-05,-4.58196,-0.0152125,-3.87839,0.61773,
2,0,0,1,0,13638.1,0.614008,0.613696,-0.0392198,20,1.19445,10,-2.4069e-05,-4.40649,-0.0366206,-1.61112,0.613713,
2,0,0,1,0,13638.9,0.610012,0.609715,-0.0488158,20,1.19441,10,-2.97637e-05,-4.31144,-0.0472227,-1.2494,0.609736,
2,0,0,1,0,13639.7,0.606017,0.605753,-0.0586093,20,1.19435,10,-3.55028e-05,-4.23203,-0.0625316,-0.943523,0.605779,
2,0,0,1,0,13640.5,0.602022,0.601746,-0.066661,20,1.19429,10,-4.0113e-05,-4.17613,-0.100841,-0.58508,0.601775,
2,0,0,0,0,13641.3,0.598027,0.597776,-0.0731106,20,1.19422,10,-4.37038e-05,-4.13602,-0.0856675,-0.688709,0.597808,
2,0,0,1,0,13642.1,0.594032,0.593704,-0.0794989,20,1.19415,10,-4.71988e-05,-4.09964,-0.141246,-0.41771,0.593739,
2,0,0,0,0,13642.9,0.590037,0.58974,-0.0838996,20,1.19408,10,-4.9479e-05,-4.07624,-0.178595,-0.330357,0.589777,
2,0,0,1,0,13643.7,0.586041,0.58576,-0.0884304,20,1.194,10,-5.1799e-05,-4.0534,-0.185774,-0.31759,0.585799,
2,0,0,1,0,13644.5,0.582046,0.581769,-0.0912455,20,1.19391,10,-5.30838e-05,-4.03979,-0.26406,-0.223434,0.581809,
2,0,0,1,0,13645.3,0.578052,0.577762,-0.0935858,20,1.19383,10,-5.40703e-05,-4.02879,0.551313,0.107017,0.577803,
2,0,0,1,0,13646.1,0.574056,0.573783,-0.0940717,20,1.19374,10,-5.39767e-05,-4.02654,-0.168868,-0.349385,0.573824,
2,0,0,0,0,13646.9,0.570061,0.569804,-0.0970178,20,1.19365,10,-5.52811e-05,-4.01315,-0.997228,-0.059164,0.569847,
2,0,0,1,0,13647.7,0.566065,0.565724,-0.0997004,20,1.19356,10,-5.64028e-05,-4.0013,-0.280287,-0.210499,0.565767,
2,0,0,1,0,13648.5,0.56207,0.561742,-0.102075,20,1.19347,10,-5.734e-05,-3.99108,-0.789357,-0.0747444,0.561787,
2,0,0,1,0,13649.3,0.558075,0.557772,-0.103244,20,1.19338,10,-5.75866e-05,-3.98614,-0.368772,-0.159991,0.557818,
2,0,0,1,0,13650.1,0.55408,0.553819,-0.105465,20,1.19328,10,-5.84084e-05,-3.97689,-0.529054,-0.11152,0.553866,
2,0,0,0,0,13650.9,0.550085,0.549803,-0.105252,20,1.19319,10,-5.7868e-05,-3.97777,1.83004,0.0322397,0.549849,
2,0,0,1,0,13651.7,0.54609,0.545811,-0.107574,20,1.19309,10,-5.87151e-05,-3.96829,-0.531243,-0.11106,0.545858,
2,0,0,1,0,13652.5,0.542094,0.541821,-0.108423,20,1.19299,10,-5.87459e-05,-3.96488,-1.76055,-0.0335122,0.541869,
2,0,0,1,0,13653.3,0.538099,0.537794,-0.109787,20,1.19289,10,-5.90426e-05,-3.95945,-0.551535,-0.106974,0.537842,
2,0,0,1,0,13654.1,0.534104,0.533802,-0.111469,20,1.19279,10,-5.95021e-05,-3.95285,-0.931546,-0.0633356,0.533851,
2,0,0,0,0,13654.9,0.530109,0.529804,-0.111839,20,1.19269,10,-5.92529e-05,-3.95141,-0.55815,-0.105706,0.529853,
2,0,0,1,0,13655.7,0.526114,0.525768,-0.112643,20,1.19259,10,-5.92242e-05,-3.94829,-2.25068,-0.0262142,0.525817,
2,0,0,0,0,13656.5,0.522119,0.521822,-0.113711,20,1.19249,10,-5.93367e-05,-3.9442,-0.773684,-0.0762585,0.521872,
2,0,0,1,0,13657.3,0.518123,0.517847,-0.115129,20,1.19238,10,-5.96195e-05,-3.93881,-1.25698,-0.046938,0.517898,
2,0,0,1,0,13658.1,0.514128,0.513794,-0.116529,20,1.19228,10,-5.98716e-05,-3.93357,-1.26031,-0.046814,0.513845,
2,0,0,1,0,13658.9,0.510133,0.509826,-0.117,20,1.19217,10,-5.96496e-05,-3.93181,-1.06962,-0.0551599,0.509877,
2,0,0,1,0,13659.7,0.506138,0.505818,-0.117307,20,1.19207,10,-5.93363e-05,-3.93067,-1.98319,-0.0297501,0.50587,
2,0,0,0,0,13660.5,0.502143,0.501803,-0.118497,20,1.19196,10,-5.94622e-05,-3.92629,-0.76882,-0.076741,0.501855,
2,0,0,1,0,13661.3,0.498148,0.497867,-0.121027,20,1.19185,10,-6.02554e-05,-3.91712,-1.14848,-0.0513724,0.497921,
2,0,0,1,0,13662.1,0.494152,0.493861,-0.121641,20,1.19175,10,-6.00739e-05,-3.91492,-1.18923,-0.0496119,0.493915,
2,0,0,1,0,13662.9,0.490157,0.489878,-0.123032,20,1.19164,10,-6.02706e-05,-3.90998,-0.384482,-0.153453,0.489933,
2,0,0,1,0,13663.7,0.486162,0.485864,-0.123074,20,1.19153,10,-5.97973e-05,-3.90983,1.66179,0.0355039,0.485918,
2,0,0,0,0,13664.5,0.482167,0.481841,-0.125532,20,1.19141,10,-6.04864e-05,-3.90125,-0.772597,-0.0763658,0.481897,
2,0,0,1,0,13665.3,0.478172,0.477897,-0.125251,20,1.1913,10,-5.98568e-05,-3.90222,-1.01353,-0.0582126,0.477952,
2,0,0,0,0,13666.1,0.474177,0.473903,-0.127725,20,1.19119,10,-6.05291e-05,-3.89373,-1.97836,-0.0298228,0.47396,
2,0,0,1,0,13666.9,0.470181,0.469849,-0.127782,20,1.19107,10,-6.00382e-05,-3.89353,-0.620245,-0.0951237,0.469905,
2,0,0,1,0,13667.7,0.466186,0.465901,-0.130641,20,1.19096,10,-6.08658e-05,-3.88392,-0.46917,-0.125754,0.465958,
2,0,0,1,0,13668.5,0.462191,0.461899,-0.131214,20,1.19084,10,-6.06078e-05,-3.88202,-1.58118,-0.0373138,0.461957,
2,0,0,1,0,13669.3,0.458196,0.457921,-0.132022,20,1.19072,10,-6.04555e-05,-3.87935,-0.93148,-0.0633401,0.457979,
2,0,0,0,0,13670.1,0.454201,0.453907,-0.133846,20,1.1906,10,-6.07536e-05,-3.8734,-0.941871,-0.0626413,0.453966,
2,0,0,1,0,13670.9,0.450205,0.449867,-0.135611,20,1.19048,10,-6.10068e-05,-3.86771,-0.745756,-0.0791143,0.449926,
2,0,0,1,0,13671.7,0.44621,0.445928,-0.13664,20,1.19036,10,-6.09314e-05,-3.86442,-0.519518,-0.113567,0.445988,
2,0,0,1,0,13672.5,0.442215,0.441936,-0.139383,20,1.19024,10,-6.15983e-05,-3.85579,-3.59129,-0.0164287,0.441997,
2,0,0,1,0,13673.3,0.43822,0.437913,-0.142454,20,1.19012,10,-6.23826e-05,-3.84632,-0.40813,-0.144562,0.437976,
2,0,0,0,0,13674.1,0.434225,0.433912,-0.142871,20,1.18999,10,-6.19935e-05,-3.84506,-3.07947,-0.0191591,0.433975,
2,0,0,1,0,13674.9,0.43023,0.429916,-0.14499,20,1.18986,10,-6.23333e-05,-3.83866,-0.746067,-0.0790814,0.429979,
2,0,0,1,0,13675.6,0.426234,0.425962,-0.146138,20,1.18973,10,-6.22494e-05,-3.83524,-0.413301,-0.142753,0.426026,
2,0,0,1,0,13676.4,0.422239,0.421956,-0.147786,20,1.1896,10,-6.23593e-05,-3.83037,-9.04879,-0.00652021,0.422021,
2,0,0,1,0,13677.2,0.418244,0.418001,-0.149908,20,1.18947,10,-6.26615e-05,-3.82418,-0.58781,-0.100373,0.418067,
2,0,0,0,0,13678,0.414249,0.413996,-0.15097,20,1.18934,10,-6.25009e-05,-3.82111,-0.675063,-0.0873993,0.414062,
2,0,0,1,0,13678.8,0.410254,0.409939,-0.152562,20,1.18921,10,-6.25409e-05,-3.81655,-1.80425,-0.0327005,0.410006,
2,0,0,0,0,13679.6,0.406259,0.405976,-0.155385,20,1.18907,10,-6.30827e-05,-3.80859,-0.470439,-0.125415,0.406044,
2,0,0,1,0,13680.4,0.402263,0.401935,-0.157056,20,1.18893,10,-6.31265e-05,-3.80394,-0.805064,-0.0732861,0.402005,
2,0,0,1,0,13681.2,0.398268,0.397948,-0.159869,20,1.18879,10,-6.36197e-05,-3.79624,-0.799951,-0.0737545,0.398019,
2,0,0,1,0,13682,0.394274,0.393952,-0.161674,20,1.18865,10,-6.3692e-05,-3.79136,-0.603537,-0.097757,0.394024,
2,0,0,1,0,13682.8,0.390278,0.389974,-0.163183,20,1.18851,10,-6.36371e-05,-3.78733,-0.834496,-0.0707014,0.390046,
2,0,0,0,0,13683.6,0.386283,0.386014,-0.164904,20,1.18836,10,-6.36551e-05,-3.78277,-0.699858,-0.0843028,0.386086,
2,0,0,1,0,13684.4,0.382287,0.381965,-0.166751,20,1.18822,10,-6.36931e-05,-3.77793,-1.45081,-0.040667,0.382038,
2,0,0,1,0,13685.2,0.378292,0.377995,-0.170651,20,1.18807,10,-6.45053e-05,-3.76789,-0.909798,-0.0648496,0.37807,
2,0,0,1,0,13686,0.374297,0.373965,-0.171457,20,1.18792,10,-6.41189e-05,-3.76585,-0.499222,-0.118184,0.374041,
2,0,0,1,0,13686.8,0.370303,0.370016,-0.17356,20,1.18777,10,-6.42199e-05,-3.76055,-0.763146,-0.0773116,0.370092,
2,0,0,0,0,13687.6,0.366307,0.365987,-0.175612,20,1.18762,10,-6.42716e-05,-3.75545,-0.550746,-0.107127,0.366064,
2,0,0,1,0,13688.4,0.362312,0.362035,-0.178629,20,1.18746,10,-6.46698e-05,-3.74805,-0.648912,-0.0909214,0.362113,
2,0,0,1,0,13689.2,0.358316,0.358001,-0.180544,20,1.1873,10,-6.4635e-05,-3.74342,-0.71614,-0.0823862,0.358081,
2,0,0,1,0,13690,0.354321,0.354007,-0.182984,20,1.18715,10,-6.47777e-05,-3.73759,-1.08298,-0.0544794,0.354088,
2,0,0,1,0,13690.8,0.350327,0.350012,-0.184119,20,1.18699,10,-6.44438e-05,-3.7349,-0.690321,-0.0854675,0.350093,
2,0,0,0,0,13691.6,0.346331,0.345995,-0.186912,20,1.18682,10,-6.46705e-05,-3.72836,-0.963942,-0.061207,0.346077,
2,0,0,1,0,13692.4,0.342336,0.342045,-0.189237,20,1.18666,10,-6.47274e-05,-3.723,-0.610404,-0.0966573,0.342128,
2,0,0,0,0,13693.2,0.338341,0.338051,-0.191767,20,1.18649,10,-6.48272e-05,-3.71723,-1.27156,-0.0463997,0.338136,
2,0,0,1,0,13694,0.334345,0.334078,-0.19341,20,1.18633,10,-6.46141e-05,-3.71352,-0.486773,-0.121206,0.334163,
2,0,0,1,0,13694.8,0.33035,0.330075,-0.1965,20,1.18616,10,-6.48597e-05,-3.70664,-1.03452,-0.0570311,0.330162,
2,0,0,1,0,13695.6,0.326355,0.326053,-0.199036,20,1.18598,10,-6.48962e-05,-3.70107,-0.717662,-0.0822114,0.326141,
2,0,0,1,0,13696.4,0.32236,0.322075,-0.200214,20,1.18581,10,-6.4484e-05,-3.69851,-0.915487,-0.0644466,0.322163,
2,0,0,0,0,13697.2,0.318365,0.318042,-0.202855,20,1.18563,10,-6.45164e-05,-3.69281,-0.533052,-0.110683,0.318131,
2,0,0,1,0,13698,0.31437,0.314085,-0.205366,20,1.18546,10,-6.45025e-05,-3.68747,-2.75755,-0.0213958,0.314176,
2,0,0,1,0,13698.8,0.310374,0.310061,-0.208334,20,1.18528,10,-6.45961e-05,-3.68124,-0.59535,-0.0991014,0.310152,
2,0,0,1,0,13699.6,0.306379,0.30604,-0.211652,20,1.18509,10,-6.47739e-05,-3.67438,-0.652593,-0.0904085,0.306133,
2,0,0,1,0,13700.4,0.302385,0.302077,-0.213345,20,1.18491,10,-6.44468e-05,-3.67092,-1.12646,-0.0523763,0.302171,
2,0,0,0,0,13701.2,0.298389,0.298125,-0.216648,20,1.18472,10,-6.45881e-05,-3.66425,-0.513083,-0.114991,0.29822,
2,0,0,1,0,13702,0.294394,0.294077,-0.219529,20,1.18454,10,-6.45585e-05,-3.65851,-0.976166,-0.0604406,0.294174,
2,0,0,1,0,13702.8,0.290398,0.29013,-0.221524,20,1.18435,10,-6.42708e-05,-3.65458,-0.607379,-0.0971387,0.290228,
2,0,0,1,0,13703.6,0.286403,0.286103,-0.223901,20,1.18415,10,-6.40587e-05,-3.64994,-0.862154,-0.0684332,0.286202,
2,0,0,1,0,13704.4,0.282408,0.282082,-0.227626,20,1.18396,10,-6.42093e-05,-3.64278,-2.36808,-0.0249147,0.282182,
2,0,0,1,0,13705.2,0.278414,0.27809,-0.229534,20,1.18376,10,-6.38312e-05,-3.63915,-0.813776,-0.0725016,0.278191,
2,0,0,1,0,13706,0.274418,0.274082,-0.232064,20,1.18356,10,-6.36047e-05,-3.63439,-0.700663,-0.084206,0.274185,
2,0,0,0,0,13706.8,0.270423,0.270107,-0.235888,20,1.18336,10,-6.37149e-05,-3.62729,-0.581722,-0.101423,0.270211,
2,0,0,1,0,13707.6,0.266427,0.266116,-0.237655,20,1.18316,10,-6.32439e-05,-3.62405,-0.690561,-0.0854378,0.266221,
2,0,0,1,0,13708.4,0.262432,0.262143,-0.240146,20,1.18296,10,-6.29526e-05,-3.61952,-1.57205,-0.0375307,0.262249,
2,0,0,1,0,13709.2,0.258437,0.258133,-0.242798,20,1.18275,10,-6.26742e-05,-3.61475,-0.949024,-0.0621692,0.25824,
2,0,0,1,0,13710,0.254442,0.254117,-0.244115,20,1.18254,10,-6.20338e-05,-3.61241,-0.892871,-0.066079,0.254225,
2,0,0,0,0,13710.8,0.250447,0.250137,-0.248798,20,1.18233,10,-6.22337e-05,-3.60415,-0.834613,-0.0706915,0.250247,
2,0,0,1,0,13711.6,0.246452,0.246163,-0.250555,20,1.18212,10,-6.16774e-05,-3.6011,-0.752174,-0.0784393,0.246273,
2,0,0,1,0,13712.4,0.242456,0.242136,-0.252565,20,1.1819,10,-6.11552e-05,-3.59763,-0.865104,-0.0681999,0.242248,
2,0,0,1,0,13713.2,0.238461,0.238116,-0.255068,20,1.18168,10,-6.07357e-05,-3.59334,-1.45531,-0.0405412,0.238228,
2,0,0,1,0,13714,0.234467,0.234169,-0.257033,20,1.18147,10,-6.01891e-05,-3.59001,-0.754679,-0.0781789,0.234282,
2,0,0,0,0,13714.8,0.230471,0.230167,-0.259181,20,1.18125,10,-5.96548e-05,-3.5864,-1.07985,-0.0546374,0.230281,
2,0,0,1,0,13715.6,0.226476,0.226153,-0.263034,20,1.18102,10,-5.94859e-05,-3.57999,-0.74331,-0.0793747,0.226269,
2,0,0,0,0,13716.4,0.222481,0.222199,-0.263572,20,1.1808,10,-5.85655e-05,-3.5791,-0.817349,-0.0721846,0.222315,
2,0,0,1,0,13717.2,0.218485,0.218174,-0.269165,20,1.18057,10,-5.87248e-05,-3.56998,-8.59263,-0.00686635,0.218293,
2,0,0,1,0,13718,0.21449,0.21419,-0.270325,20,1.18034,10,-5.79009e-05,-3.56811,-0.46827,-0.125996,0.214309,
2,0,0,1,0,13718.8,0.210496,0.210178,-0.274278,20,1.18011,10,-5.76473e-05,-3.56181,-1.61443,-0.0365454,0.210299,
2,0,0,1,0,13719.6,0.2065,0.206164,-0.279365,20,1.17987,10,-5.7595e-05,-3.55383,-0.587758,-0.100381,0.206287,
2,0,0,0,0,13720.4,0.202505,0.202203,-0.280744,20,1.17964,10,-5.67672e-05,-3.55169,-0.670327,-0.0880167,0.202326,
2,0,0,1,0,13721.2,0.198509,0.198183,-0.285573,20,1.1794,10,-5.65958e-05,-3.54428,-0.784385,-0.0752182,0.198309,
2,0,0,1,0,13722,0.194514,0.194173,-0.289076,20,1.17915,10,-5.61307e-05,-3.53899,-0.682418,-0.0864573,0.1943,
2,0,0,1,0,13722.8,0.190519,0.190192,-0.291936,20,1.17891,10,-5.55239e-05,-3.53471,-0.477922,-0.123451,0.19032,
2,0,0,1,0,13723.6,0.186524,0.186225,-0.297266,20,1.17865,10,-5.53583e-05,-3.52685,-0.610195,-0.0966903,0.186355,
2,0,0,0,0,13724.4,0.182529,0.182223,-0.303326,20,1.1784,10,-5.52729e-05,-3.51809,-0.36977,-0.159559,0.182356,
2,0,0,1,0,13725.2,0.178534,0.178206,-0.309944,20,1.17814,10,-5.52339e-05,-3.50872,-0.451229,-0.130754,0.178342,
2,0,0,1,0,13726,0.174538,0.174209,-0.318005,20,1.17787,10,-5.53992e-05,-3.49757,-0.323687,-0.182275,0.174349,
2,0,0,1,0,13726.8,0.170543,0.170251,-0.326675,20,1.1776,10,-5.56166e-05,-3.48588,-0.289675,-0.203677,0.170394,
2,0,0,1,0,13727.6,0.166549,0.166236,-0.339105,20,1.17732,10,-5.63715e-05,-3.46967,-0.25535,-0.231056,0.166386,
2,0,0,0,0,13728.4,0.162553,0.162184,-0.354007,20,1.17703,10,-5.74143e-05,-3.45099,-0.198513,-0.29721,0.16234,
2,0,0,1,0,13729.2,0.158558,0.158258,-0.370841,20,1.17672,10,-5.86888e-05,-3.43081,-0.169304,-0.348485,0.158422,
2,0,0,0,0,13730,0.154563,0.15424,-0.39662,20,1.1764,10,-6.11744e-05,-3.40163,-0.135907,-0.434121,0.154414,
2,0,0,1,0,13730.8,0.150567,0.150254,-0.427519,20,1.17606,10,-6.42366e-05,-3.36904,-0.103017,-0.572722,0.150442,
2,0,0,1,0,13731.6,0.146572,0.146219,-0.46974,20,1.17569,10,-6.86847e-05,-3.32814,-0.089876,-0.65646,0.146425,
2,0,0,1,0,13732.4,0.142578,0.142285,-0.524866,20,1.17528,10,-7.46805e-05,-3.27995,-0.0807815,-0.730365,0.142516,
2,0,0,1,0,13733.2,0.138582,0.138273,-0.586151,20,1.17482,10,-8.10489e-05,-3.23199,-0.0827564,-0.712936,0.138531,
2,0,0,0,0,13734,0.134587,0.134294,-0.650098,20,1.17431,10,-8.73044e-05,-3.18702,-0.103928,-0.567703,0.13458,
2,0,0,1,0,13734.8,0.130591,0.130298,-0.702799,20,1.17375,10,-9.15734e-05,-3.15317,-0.133331,-0.442508,0.130607,
2,0,0,1,0,13735.6,0.126596,0.126294,-0.737904,20,1.17316,10,-9.31932e-05,-3.132,-0.222366,-0.265328,0.126619,
2,0,0,1,0,13736.4,0.122602,0.122269,-0.762688,20,1.17254,10,-9.32528e-05,-3.11765,-0.630396,-0.0935919,0.122604,
2,0,0,1,0,13737.2,0.118607,0.118319,-0.770283,20,1.17191,10,-9.11388e-05,-3.11335,-2.04671,-0.0288268,0.118657,
2,0,0,0,0,13738,0.114611,0.114319,-0.768791,20,1.17128,10,-8.78878e-05,-3.11419,1.53329,0.0384794,0.114658,
2,0,0,1,0,13738.8,0.110616,0.110312,-0.760465,20,1.17066,10,-8.38886e-05,-3.11892,0.70992,0.0831079,0.110647,
2,0,0,1,0,13739.6,0.10662,0.106281,-0.748844,20,1.17004,10,-7.95881e-05,-3.12561,0.688869,0.0856476,0.106611,
2,0,0,1,0,13740.4,0.102625,0.102287,-0.737236,20,1.16943,10,-7.54096e-05,-3.13239,0.475337,0.124123,0.102611,
2,0,0,1,0,13741.2,0.0986305,0.0982737,-0.721914,20,1.16883,10,-7.09452e-05,-3.14151,0.473353,0.124643,0.0985913,
2,0,0,0,0,13742,0.0946351,0.0942979,-0.704768,20,1.16824,10,-6.64582e-05,-3.15195,0.420946,0.140161,0.094608,
2,0,0,1,0,13742.8,0.0906399,0.0903013,-0.69425,20,1.16767,10,-6.26917e-05,-3.15848,0.381255,0.154752,0.0906067,
2,0,0,0,0,13743.6,0.0866448,0.0863555,-0.680372,20,1.1671,10,-5.87539e-05,-3.16725,0.648079,0.0910383,0.0866548,
2,0,0,1,0,13744.4,0.0826492,0.0823363,-0.6695,20,1.16655,10,-5.51242e-05,-3.17425,0.485452,0.121536,0.0826309,
2,0,0,1,0,13745.2,0.0786544,0.0783368,-0.658534,20,1.166,10,-5.15874e-05,-3.18142,0.756741,0.0779659,0.0786265,
2,0,0,1,0,13746,0.0746596,0.0743488,-0.648879,20,1.16547,10,-4.82433e-05,-3.18784,0.596185,0.0989626,0.0746343,
2,0,0,1,0,13746.8,0.0706641,0.0703232,-0.637633,20,1.16494,10,-4.48404e-05,-3.19543,0.639331,0.0922839,0.0706038,
2,0,0,0,0,13747.6,0.0666689,0.0663742,-0.631307,20,1.16442,10,-4.19025e-05,-3.19976,0.670979,0.0879313,0.066652,
2,0,0,1,0,13748.4,0.0626737,0.0623606,-0.6199,20,1.1639,10,-3.86573e-05,-3.20768,0.679793,0.0867911,0.0626334,
2,0,0,1,0,13749.2,0.0586783,0.0583785,-0.61255,20,1.16339,10,-3.57598e-05,-3.21286,0.44732,0.131897,0.0586481,
2,0,0,1,0,13750,0.0546835,0.0543462,-0.600617,20,1.16289,10,-3.26413e-05,-3.2214,0.841015,0.0701533,0.0546105,
2,0,0,1,0,13750.8,0.0506886,0.0503753,-0.591174,20,1.1624,10,-2.97806e-05,-3.22828,0.543842,0.108487,0.0506354,
2,0,0,0,0,13751.6,0.046693,0.0463506,-0.58126,20,1.16192,10,-2.69418e-05,-3.23563,0.453101,0.130214,0.0466063,
2,0,0,1,0,13752.4,0.0426979,0.0424091,-0.570307,20,1.16144,10,-2.41862e-05,-3.24389,0.549126,0.107443,0.04266,
2,0,0,1,0,13753.2,0.0387022,0.0383559,-0.560226,20,1.16097,10,-2.1488e-05,-3.25164,0.404456,0.145875,0.0386024,
2,0,0,1,0,13754,0.0347074,0.0344123,-0.549249,20,1.16052,10,-1.89009e-05,-3.26023,0.503283,0.11723,0.034654,
2,0,0,1,0,13754.8,0.0307126,0.0303969,-0.535159,20,1.16007,10,-1.62672e-05,-3.27152,0.507985,0.116145,0.0306324,
2,0,0,0,0,13755.6,0.0267172,0.0264107,-0.528773,20,1.15963,10,-1.39653e-05,-3.27673,0.401837,0.146826,0.0266434,
2,0,0,1,0,13756.4,0.022722,0.0224734,-0.519381,20,1.15919,10,-1.16723e-05,-3.28451,0.722555,0.0816546,0.0227019,
2,0,0,0,0,13757.2,0.0187268,0.0184004,-0.511881,20,1.15877,10,-9.41882e-06,-3.29083,0.612467,0.0963318,0.0186256,
2,0,0,1,0,13757.9,0.0147313,0.0144023,-0.506974,20,1.15835,10,-7.30162e-06,-3.29501,1.07106,0.0550854,0.0146254,
2,0,0,1,0,13758.7,0.0107365,0.0104347,-0.50105,20,1.15793,10,-5.22829e-06,-3.30012,1.55977,0.0378262,0.0106551,
2,0,0,1,0,13759.5,0.00674163,0.00638954,-0.498233,20,1.15752,10,-3.18348e-06,-3.30257,5.25699,0.0112232,0.00660877,
2,0,0,1,0,13760.3,0.00274612,0.00239674,-0.498417,20,1.1571,10,-1.19458e-06,-3.30241,-17.77,-0.00332021,0.00261604,
2,0,0,0,0,13760.8,0.000274105,-0.000104626,-0.499725,20,1.15684,10,5.22844e-08,-3.30127, , ,0.000115253,