File: Figure_codes/Fig_3-5/workspace_calculate_alpha_eff/20221101_1-115_003_TrumpetPlot_ParaChange_from10_every3_16_CV_C01_86.csv
mode,ox/red,error,control changes,counter inc.,time/s,control/V,Ewe/V,<I>/mA,cycle number,(Q-Qo)/C,I Range,P/W,log(|I|),Tafel slope mV/dec,alpha_eff,E-IR/V,
2,0,0,0,0,57133.8,2.44065e-05,-0.000382585,-0.103846,87,0.0000000E+000,10,3.97301e-08,-3.98361, , ,-0.000336893,
2,1,0,0,0,57134.5,0.00379485,0.00342321,0.141353,87,8.38568e-05,10,4.83881e-07,-3.8497,0.029487,2.00088,0.00336102,
2,1,0,1,0,57135.3,0.00779002,0.00743473,0.165366,87,0.000217488,10,1.22945e-06,-3.78155,0.0701209,0.841404,0.00736197,
2,1,0,0,0,57136.1,0.0117852,0.0114409,0.18119,87,0.000366854,10,2.07298e-06,-3.74187,0.12066,0.488976,0.0113612,
2,1,0,1,0,57136.9,0.0157806,0.0154706,0.196375,87,0.000527929,10,3.03804e-06,-3.70691,0.127608,0.462353,0.0153842,
2,1,0,1,0,57137.7,0.0197754,0.0194213,0.20958,87,0.000699339,10,4.07031e-06,-3.67865,0.151517,0.389394,0.0193291,
2,1,0,1,0,57138.5,0.0237704,0.0234149,0.221371,87,0.00088149,10,5.18337e-06,-3.65488,0.172927,0.341184,0.0233175,
2,1,0,1,0,57139.3,0.0277659,0.0274192,0.234358,87,0.00107346,10,6.42589e-06,-3.63012,0.153561,0.384211,0.027316,
2,1,0,0,0,57140.1,0.0317611,0.0313989,0.247645,87,0.00127625,10,7.77578e-06,-3.60617,0.161484,0.365362,0.0312899,
2,1,0,1,0,57140.9,0.0357567,0.0354395,0.261665,87,0.00149027,10,9.27331e-06,-3.58225,0.201408,0.292937,0.0353244,
2,1,0,1,0,57141.7,0.0397516,0.0393967,0.275582,87,0.00171507,10,1.0857e-05,-3.55975,0.157624,0.374309,0.0392754,
2,1,0,1,0,57142.5,0.0437465,0.0433814,0.288277,87,0.00195144,10,1.25058e-05,-3.54019,0.2272,0.259683,0.0432545,
2,1,0,1,0,57143.3,0.0477413,0.0474076,0.301308,87,0.00219784,10,1.42843e-05,-3.52099,0.208692,0.282714,0.047275,
2,1,0,0,0,57144.1,0.0517369,0.0513674,0.313395,87,0.00245406,10,1.60983e-05,-3.50391,0.232063,0.254242,0.0512295,
2,1,0,1,0,57144.9,0.0557321,0.0553683,0.324533,87,0.00272007,10,1.79688e-05,-3.48874,0.310957,0.189737,0.0552255,
2,1,0,1,0,57145.7,0.0597277,0.0594166,0.336747,87,0.00299466,10,2.00083e-05,-3.4727,0.274399,0.215015,0.0592684,
2,1,0,1,0,57146.5,0.0637226,0.0633756,0.345433,87,0.00327797,10,2.1892e-05,-3.46164,0.328481,0.179615,0.0632236,
2,1,0,1,0,57147.3,0.0677174,0.0673815,0.35581,87,0.00356949,10,2.3975e-05,-3.44878,0.539771,0.109306,0.0672249,
2,1,0,0,0,57148.1,0.0717128,0.0713603,0.364104,87,0.00386788,10,2.59826e-05,-3.43877,0.283644,0.208007,0.0712001,
2,1,0,1,0,57148.9,0.075708,0.0753824,0.371714,87,0.00417303,10,2.80207e-05,-3.42979,0.47257,0.124849,0.0752188,
2,1,0,0,0,57149.7,0.0797031,0.0793536,0.380133,87,0.00448419,10,3.01649e-05,-3.42006,0.477076,0.12367,0.0791864,
2,1,0,1,0,57150.5,0.0836986,0.0833327,0.388482,87,0.00480206,10,3.23733e-05,-3.41063,0.359853,0.163956,0.0831618,
2,1,0,1,0,57151.3,0.0876935,0.0873299,0.399249,87,0.00512774,10,3.48663e-05,-3.39876,0.327116,0.180364,0.0871542,
2,1,0,1,0,57152.1,0.0916883,0.0913147,0.411936,87,0.00546194,10,3.76158e-05,-3.38517,0.257435,0.229184,0.0911334,
2,1,0,1,0,57152.9,0.0956838,0.0953043,0.427086,87,0.00580827,10,4.07031e-05,-3.36948,0.237371,0.248556,0.0951163,
2,1,0,0,0,57153.7,0.099679,0.0993624,0.445947,87,0.00616855,10,4.43104e-05,-3.35072,0.209139,0.28211,0.0991662,
2,1,0,1,0,57154.5,0.103674,0.103355,0.466489,87,0.00654449,10,4.82138e-05,-3.33116,0.185683,0.317746,0.10315,
2,1,0,1,0,57155.3,0.10767,0.107333,0.488074,87,0.00693799,10,5.23863e-05,-3.31151,0.216884,0.272034,0.107118,
2,1,0,1,0,57156.1,0.111664,0.111296,0.50891,87,0.00734739,10,5.66397e-05,-3.29336,0.261171,0.225906,0.111072,
2,1,0,1,0,57156.9,0.115659,0.115292,0.523386,87,0.00777042,10,6.0342e-05,-3.28118,0.330708,0.178405,0.115061,
2,1,0,0,0,57157.7,0.119655,0.119301,0.535347,87,0.00820483,10,6.38675e-05,-3.27137,0.707532,0.0833884,0.119066,
2,1,0,1,0,57158.5,0.12365,0.123329,0.543954,87,0.00864655,10,6.70851e-05,-3.26444,0.541369,0.108983,0.123089,
2,1,0,1,0,57159.3,0.127646,0.127267,0.549496,87,0.00909467,10,6.99328e-05,-3.26004,1.82175,0.0323865,0.127026,
2,1,0,1,0,57160.1,0.131641,0.131297,0.549221,87,0.00954548,10,7.2111e-05,-3.26025,-0.689078,-0.0856217,0.131055,
2,1,0,1,0,57160.9,0.135635,0.135286,0.53716,87,0.00999135,10,7.267e-05,-3.2699,-0.266661,-0.221254,0.135049,
2,1,0,0,0,57161.7,0.139631,0.13929,0.506307,87,0.0104207,10,7.05234e-05,-3.29559,-0.114925,-0.513379,0.139067,
2,1,0,1,0,57162.5,0.143626,0.143294,0.459791,87,0.0108182,10,6.58853e-05,-3.33744,-0.081053,-0.727919,0.143092,
2,1,0,0,0,57163.3,0.147621,0.147267,0.404296,87,0.0111739,10,5.95396e-05,-3.3933,-0.071149,-0.829245,0.147089,
2,1,0,1,0,57164.1,0.151617,0.151256,0.356311,87,0.011488,10,5.3894e-05,-3.44817,-0.0792041,-0.744911,0.151099,
2,1,0,1,0,57164.9,0.155612,0.155282,0.322982,87,0.0117687,10,5.01534e-05,-3.49082,-0.111727,-0.528075,0.15514,
2,1,0,1,0,57165.7,0.159606,0.159263,0.300897,87,0.0120277,10,4.7922e-05,-3.52158,-0.153613,-0.384082,0.159131,
2,1,0,1,0,57166.5,0.163602,0.163292,0.287042,87,0.0122727,10,4.68718e-05,-3.54205,-0.221768,-0.266044,0.163166,
2,1,0,0,0,57167.3,0.167597,0.167234,0.276582,87,0.0125081,10,4.62538e-05,-3.55818,-0.321279,-0.183641,0.167112,
2,1,0,1,0,57168.1,0.171592,0.171266,0.269449,87,0.0127371,10,4.61476e-05,-3.56952,-0.410421,-0.143755,0.171148,
2,1,0,1,0,57168.9,0.175588,0.175264,0.26546,87,0.0129611,10,4.65258e-05,-3.576,-0.724057,-0.0814852,0.175148,
2,1,0,1,0,57169.7,0.179582,0.179276,0.261179,87,0.0131817,10,4.6823e-05,-3.58306,-0.820357,-0.0719199,0.179161,
2,1,0,1,0,57170.5,0.183577,0.183246,0.258541,87,0.0133998,10,4.73766e-05,-3.58747,-0.955783,-0.0617295,0.183133,
2,1,0,0,0,57171.3,0.187573,0.187239,0.257253,87,0.0136158,10,4.8168e-05,-3.58964,-0.847873,-0.0695859,0.187126,
2,1,0,1,0,57172.1,0.191568,0.191217,0.255046,87,0.0138299,10,4.87692e-05,-3.59338,-1.45275,-0.0406128,0.191105,
2,1,0,0,0,57172.9,0.195563,0.19523,0.253251,87,0.0140429,10,4.94421e-05,-3.59645,-0.951176,-0.0620285,0.195118,
2,1,0,1,0,57173.7,0.199559,0.199189,0.252577,87,0.0142542,10,5.03105e-05,-3.59761,-2.81825,-0.020935,0.199078,
2,1,0,1,0,57174.5,0.203553,0.203205,0.248898,87,0.0144646,10,5.05772e-05,-3.60398,-1.77129,-0.0333091,0.203095,
2,1,0,1,0,57175.3,0.207548,0.207225,0.249104,87,0.0146741,10,5.16206e-05,-3.60362,-4.24134,-0.0139107,0.207116,
2,1,0,1,0,57176.1,0.211544,0.211219,0.246578,87,0.0148823,10,5.2082e-05,-3.60805,-1.43177,-0.0412077,0.211111,
2,1,0,0,0,57176.9,0.215539,0.215194,0.246064,87,0.0150894,10,5.29515e-05,-3.60895,-1.5839,-0.0372499,0.215086,
2,1,0,1,0,57177.7,0.219535,0.219179,0.245708,87,0.0152955,10,5.38541e-05,-3.60958,-5.64019,-0.0104606,0.219071,
2,1,0,1,0,57178.5,0.223529,0.223181,0.244263,87,0.0155009,10,5.45148e-05,-3.61214,-2.0238,-0.0291531,0.223073,
2,1,0,1,0,57179.3,0.227524,0.227165,0.243972,87,0.0157058,10,5.54218e-05,-3.61266,-1.19158,-0.0495142,0.227057,
2,1,0,1,0,57180.1,0.23152,0.231184,0.24405,87,0.0159098,10,5.64203e-05,-3.61252,46.5789,0.00126667,0.231076,
2,1,0,0,0,57180.9,0.235515,0.235186,0.241326,87,0.0161132,10,5.67564e-05,-3.6174,-3.86615,-0.0152606,0.235079,
2,1,0,1,0,57181.7,0.23951,0.239201,0.24117,87,0.0163157,10,5.76882e-05,-3.61768,-3.02303,-0.0195169,0.239095,
2,1,0,1,0,57182.5,0.243506,0.243147,0.239709,87,0.0165174,10,5.82844e-05,-3.62032,-3.00173,-0.0196553,0.243041,
2,1,0,1,0,57183.3,0.2475,0.247144,0.239465,87,0.0167188,10,5.91822e-05,-3.62076,-1.76754,-0.0333798,0.247038,
2,1,0,1,0,57184.1,0.251495,0.251177,0.239712,87,0.0169193,10,6.02103e-05,-3.62031,5.08508,0.0116026,0.251072,
2,1,0,0,0,57184.9,0.255491,0.255169,0.238517,87,0.0171194,10,6.08621e-05,-3.62248,-1.81877,-0.0324395,0.255064,
2,1,0,1,0,57185.7,0.259486,0.259153,0.238074,87,0.0173193,10,6.16975e-05,-3.62329,-1.38251,-0.0426762,0.259048,
2,1,0,0,0,57186.5,0.263481,0.263145,0.236901,87,0.0175183,10,6.23395e-05,-3.62543,-14.2097,-0.00415208,0.263041,
2,1,0,1,0,57187.3,0.267477,0.267118,0.235123,87,0.0177166,10,6.28054e-05,-3.62871,-1.61827,-0.0364587,0.267014,
2,1,0,1,0,57188.1,0.271471,0.271127,0.235451,87,0.0179143,10,6.38372e-05,-3.6281,4.07665,0.0144727,0.271023,
2,1,0,1,0,57188.9,0.275466,0.275133,0.23419,87,0.0181112,10,6.44333e-05,-3.63043,-5.14467,-0.0114682,0.27503,
2,1,0,1,0,57189.7,0.279462,0.279088,0.234515,87,0.0183077,10,6.54503e-05,-3.62983,-0.832579,-0.0708641,0.278984,
2,1,0,0,0,57190.5,0.283457,0.283108,0.232598,87,0.0185031,10,6.58504e-05,-3.63339,-9.91911,-0.00594812,0.283005,
2,1,0,1,0,57191.3,0.287452,0.287089,0.231762,87,0.0186979,10,6.65364e-05,-3.63496,-3.28445,-0.0179634,0.286987,
2,1,0,1,0,57192.1,0.291448,0.291105,0.231678,87,0.0188918,10,6.74427e-05,-3.63511,-0.993657,-0.0593767,0.291003,
2,1,0,1,0,57192.9,0.295442,0.295114,0.230357,87,0.0190848,10,6.79817e-05,-3.6376,7.4154,0.00795642,0.295013,
2,1,0,1,0,57193.7,0.299437,0.29913,0.228591,87,0.0192774,10,6.83785e-05,-3.64094,-1.05433,-0.0559596,0.299029,
2,1,0,0,0,57194.5,0.303433,0.3031,0.228632,87,0.0194691,10,6.92985e-05,-3.64086,5.41262,0.0109005,0.303,
2,1,0,1,0,57195.3,0.307428,0.307091,0.227464,87,0.0196603,10,6.98522e-05,-3.64309,-24.6499,-0.00239352,0.306991,
2,1,0,1,0,57196.1,0.311424,0.311061,0.227386,87,0.0198509,10,7.07311e-05,-3.64324,-1.09284,-0.0539878,0.310961,
2,1,0,1,0,57196.8,0.315418,0.31508,0.226415,87,0.0200407,10,7.13388e-05,-3.6451,5.08551,0.0116016,0.31498,
2,1,0,1,0,57197.6,0.319413,0.319089,0.225709,87,0.02023,10,7.20214e-05,-3.64645,-1.33809,-0.0440927,0.31899,
2,1,0,0,0,57198.4,0.323409,0.323065,0.225399,87,0.0204189,10,7.28184e-05,-3.64705,-1.77099,-0.0333147,0.322966,
2,1,0,1,0,57199.2,0.327404,0.327067,0.224396,87,0.020607,10,7.33925e-05,-3.64898,9.87763,0.0059731,0.326968,
2,1,0,0,0,57200,0.331399,0.331037,0.223524,87,0.020795,10,7.39946e-05,-3.65068,-3.99906,-0.0147535,0.330938,
2,1,0,1,0,57200.8,0.335395,0.33506,0.224423,87,0.0209825,10,7.51952e-05,-3.64893,-13.2051,-0.00446797,0.334962,
2,1,0,1,0,57201.6,0.339389,0.339,0.222952,87,0.0211694,10,7.55806e-05,-3.65179,-5.09911,-0.0115707,0.338901,
2,1,0,1,0,57202.4,0.343384,0.343046,0.222294,87,0.0213559,10,7.62571e-05,-3.65307,-5.13489,-0.01149,0.342948,
2,1,0,1,0,57203.2,0.34738,0.347011,0.223192,87,0.0215419,10,7.745e-05,-3.65132,-1.7242,-0.0342187,0.346913,
2,1,0,0,0,57204,0.351375,0.351029,0.221344,87,0.0217277,10,7.76981e-05,-3.65493,-2.50987,-0.0235072,0.350931,
2,1,0,1,0,57204.8,0.35537,0.355049,0.220963,87,0.0219128,10,7.84528e-05,-3.65568,-1.88946,-0.0312259,0.354951,
2,1,0,1,0,57205.6,0.359366,0.359012,0.220798,87,0.0220973,10,7.92692e-05,-3.656,2.07351,0.0284541,0.358914,
2,1,0,1,0,57206.4,0.36336,0.363028,0.220065,87,0.0222818,10,7.98899e-05,-3.65745,-2.42584,-0.0243215,0.362931,
2,1,0,1,0,57207.2,0.367355,0.367022,0.220516,87,0.0224657,10,8.09341e-05,-3.65656,35.3115,0.00167084,0.366925,
2,1,0,0,0,57208,0.371351,0.370978,0.219133,87,0.0226492,10,8.12935e-05,-3.65929,-9.94029,-0.00593544,0.370882,
2,1,0,1,0,57208.8,0.375346,0.375031,0.219175,87,0.0228326,10,8.21976e-05,-3.65921,-4.3572,-0.0135408,0.374935,
2,1,0,1,0,57209.6,0.379342,0.378989,0.218916,87,0.0230154,10,8.29667e-05,-3.65972,-2.85474,-0.0206674,0.378892,
2,1,0,1,0,57210.4,0.383336,0.383005,0.217642,87,0.023198,10,8.33581e-05,-3.66226,86.0064,0.000685996,0.38291,
2,1,0,1,0,57211.2,0.387331,0.38703,0.218556,87,0.0233802,10,8.45876e-05,-3.66044,-2.22064,-0.0265689,0.386934,
2,1,0,0,0,57212,0.391327,0.39099,0.217927,87,0.0235619,10,8.52073e-05,-3.66169,10.4047,0.00567052,0.390894,
2,1,0,1,0,57212.8,0.395322,0.394981,0.216618,87,0.0237434,10,8.55601e-05,-3.66431,-1.96597,-0.0300106,0.394886,
2,1,0,0,0,57213.6,0.399317,0.398986,0.216692,87,0.0239246,10,8.64569e-05,-3.66416,5.30282,0.0111262,0.39889,
2,1,0,1,0,57214.4,0.403313,0.403007,0.217299,87,0.0241058,10,8.75731e-05,-3.66294,6.53169,0.00903289,0.402912,
2,1,0,1,0,57215.2,0.407307,0.407009,0.216602,87,0.0242871,10,8.81588e-05,-3.66434,-2.58191,-0.0228513,0.406913,
2,1,0,1,0,57216,0.411302,0.410908,0.217379,87,0.0244678,10,8.93228e-05,-3.66278,3.25031,0.0181521,0.410813,
2,1,0,1,0,57216.8,0.415298,0.415009,0.217119,87,0.0246487,10,9.01063e-05,-3.6633,-2.56175,-0.0230311,0.414914,
2,1,0,0,0,57217.6,0.419293,0.41898,0.216085,87,0.0248291,10,9.05352e-05,-3.66538,-2.03315,-0.0290191,0.418884,
2,1,0,1,0,57218.4,0.423288,0.422986,0.217201,87,0.0250094,10,9.18731e-05,-3.66314,4.63894,0.0127184,0.42289,
2,1,0,1,0,57219.2,0.427283,0.426928,0.215583,87,0.0251897,10,9.20383e-05,-3.66639,-6.18821,-0.00953426,0.426833,
2,1,0,1,0,57220,0.431278,0.430957,0.216264,87,0.0253695,10,9.32006e-05,-3.66502,4.7384,0.0124515,0.430862,
2,1,0,1,0,57220.8,0.435273,0.434916,0.216223,87,0.0255493,10,9.4039e-05,-3.6651,-3.50079,-0.0168533,0.434821,
2,1,0,0,0,57221.6,0.439269,0.438934,0.2165,87,0.0257292,10,9.50294e-05,-3.66454,6.05349,0.00974645,0.438839,
2,1,0,1,0,57222.4,0.443264,0.442937,0.216165,87,0.0259088,10,9.57474e-05,-3.66522,19.0489,0.00309729,0.442842,
2,1,0,0,0,57223.2,0.447259,0.446945,0.215852,87,0.0260884,10,9.64741e-05,-3.66584,-15.9954,-0.00368855,0.44685,
2,1,0,1,0,57224,0.451254,0.450938,0.216055,87,0.0262682,10,9.74275e-05,-3.66544,-6.4067,-0.00920911,0.450843,
2,1,0,1,0,57224.8,0.455249,0.454928,0.21646,87,0.0264478,10,9.84737e-05,-3.66462,1.38482,0.0426048,0.454833,
2,1,0,1,0,57225.6,0.459244,0.45888,0.215647,87,0.0266277,10,9.89559e-05,-3.66626,3.33976,0.0176659,0.458785,
2,1,0,1,0,57226.4,0.46324,0.462922,0.217713,87,0.0268077,10,0.000100784,-3.66211,-3.16796,-0.018624,0.462826,
2,1,0,0,0,57227.2,0.467235,0.46688,0.21735,87,0.0269878,10,0.000101476,-3.66284,-10.4997,-0.00561918,0.466785,
2,1,0,1,0,57228,0.471231,0.470883,0.217297,87,0.0271681,10,0.000102321,-3.66295,5.41077,0.0109042,0.470787,
2,1,0,1,0,57228.8,0.475225,0.474888,0.217993,87,0.0273486,10,0.000103522,-3.66156,1.38449,0.0426148,0.474793,
2,1,0,1,0,57229.6,0.47922,0.478826,0.218663,87,0.0275296,10,0.000104701,-3.66023,-7.98406,-0.00738972,0.47873,
2,1,0,1,0,57230.4,0.483216,0.482866,0.219358,87,0.027711,10,0.00010592,-3.65885,4.89808,0.0120455,0.482769,
2,1,0,0,0,57231.2,0.487211,0.486835,0.219781,87,0.0278925,10,0.000106997,-3.65801,1.46821,0.0401849,0.486738,
2,1,0,1,0,57232,0.491206,0.490915,0.220121,87,0.0280748,10,0.000108061,-3.65734,10.6615,0.00553394,0.490819,
2,1,0,1,0,57232.8,0.495201,0.494913,0.220387,87,0.0282574,10,0.000109072,-3.65681,3.80645,0.0155,0.494816,
2,1,0,1,0,57233.6,0.499196,0.498866,0.221191,87,0.0284403,10,0.000110345,-3.65523,1.55159,0.0380256,0.498769,
2,1,0,1,0,57234.4,0.503191,0.502833,0.221585,87,0.028624,10,0.00011142,-3.65446,3.4101,0.0173015,0.502736,
2,1,0,0,0,57235.2,0.507187,0.506863,0.223352,87,0.028808,10,0.000113209,-3.65101,2.59459,0.0227396,0.506765,
2,1,0,1,0,57236,0.511182,0.510835,0.223637,87,0.0289928,10,0.000114241,-3.65046,2.00939,0.0293621,0.510737,
2,1,0,0,0,57236.8,0.515177,0.514843,0.225548,87,0.0291786,10,0.000116122,-3.64676,19.0169,0.00310251,0.514744,
2,1,0,1,0,57237.6,0.519173,0.518837,0.226602,87,0.0293651,10,0.00011757,-3.64474,0.748804,0.0787923,0.518738,
2,1,0,1,0,57238.4,0.523167,0.52285,0.226751,87,0.0295525,10,0.000118557,-3.64445,100.582,0.000586586,0.522751,
2,1,0,1,0,57239.2,0.527162,0.526852,0.228945,87,0.0297409,10,0.00012062,-3.64027,1.29893,0.045422,0.526752,
2,1,0,1,0,57240,0.531158,0.530817,0.230327,87,0.0299302,10,0.000122261,-3.63766,1.80177,0.0327455,0.530716,
2,1,0,0,0,57240.8,0.535153,0.53485,0.231453,87,0.0301206,10,0.000123793,-3.63554,1.41221,0.0417784,0.534748,
2,1,0,1,0,57241.6,0.539148,0.538805,0.233364,87,0.0303121,10,0.000125738,-3.63197,1.3452,0.0438597,0.538703,
2,1,0,1,0,57242.4,0.543143,0.542836,0.234377,87,0.0305047,10,0.000127228,-3.63009,0.913386,0.0645948,0.542733,
2,1,0,1,0,57243.2,0.547138,0.546771,0.236703,87,0.030699,10,0.000129422,-3.6258,1.08979,0.054139,0.546667,
2,1,0,1,0,57244,0.551133,0.550805,0.238406,87,0.0308948,10,0.000131315,-3.62268,1.04728,0.0563363,0.5507,
2,1,0,0,0,57244.8,0.555129,0.554784,0.240734,87,0.0310924,10,0.000133555,-3.61846,1.40225,0.0420751,0.554678,
2,1,0,1,0,57245.6,0.559124,0.558791,0.242395,87,0.0312915,10,0.000135448,-3.61548,1.03564,0.0569699,0.558684,
2,1,0,1,0,57246.4,0.56312,0.56277,0.245085,87,0.0314924,10,0.000137927,-3.61068,0.598021,0.0986587,0.562662,
2,1,0,1,0,57247.2,0.567114,0.56682,0.248574,87,0.0316956,10,0.000140897,-3.60454,1.23072,0.0479395,0.566711,
2,1,0,1,0,57248,0.571109,0.570821,0.250492,87,0.0319008,10,0.000142986,-3.60121,0.60443,0.0976127,0.570711,
2,1,0,0,0,57248.8,0.575105,0.574768,0.254195,87,0.0321087,10,0.000146103,-3.59483,0.747446,0.0789355,0.574656,
2,1,0,1,0,57249.6,0.5791,0.578774,0.258253,87,0.0323193,10,0.00014947,-3.58795,0.637176,0.092596,0.578661,
2,1,0,0,0,57250.4,0.583095,0.582741,0.262074,87,0.0325329,10,0.000152721,-3.58158,0.523613,0.112679,0.582626,
2,1,0,1,0,57251.2,0.58709,0.586757,0.266428,87,0.0327502,10,0.000156328,-3.57442,0.555752,0.106162,0.58664,
2,1,0,1,0,57252,0.591085,0.590768,0.272167,87,0.032971,10,0.000160787,-3.56516,0.525909,0.112187,0.590648,
2,1,0,1,0,57252.8,0.59508,0.594734,0.277105,87,0.0331957,10,0.000164804,-3.55736,0.408314,0.144497,0.594612,
2,1,0,1,0,57253.6,0.599076,0.598777,0.28279,87,0.0334253,10,0.000169328,-3.54854,0.437959,0.134716,0.598652,
2,1,0,0,0,57254.4,0.603071,0.602787,0.28962,87,0.0336598,10,0.000174579,-3.53817,0.335495,0.17586,0.60266,
2,1,0,1,0,57255.2,0.607066,0.606784,0.297764,87,0.0339003,10,0.000180678,-3.52613,0.327392,0.180212,0.606653,
2,1,0,1,0,57256,0.611061,0.610772,0.306692,87,0.0341474,10,0.000187319,-3.5133,0.339837,0.173612,0.610637,
2,1,0,1,0,57256.8,0.615056,0.614727,0.316122,87,0.0344016,10,0.000194329,-3.50015,0.244403,0.241404,0.614588,
2,1,0,1,0,57257.6,0.619051,0.618751,0.327741,87,0.0346647,10,0.00020279,-3.48447,0.252674,0.233503,0.618607,
2,1,0,0,0,57258.4,0.623047,0.622729,0.340895,87,0.0349373,10,0.000212285,-3.46738,0.220589,0.267465,0.622579,
2,1,0,1,0,57259.2,0.627042,0.626701,0.355347,87,0.0352209,10,0.000222696,-3.44935,0.207555,0.284262,0.626545,
2,1,0,1,0,57260,0.631037,0.630732,0.373854,87,0.0355177,10,0.000235802,-3.4273,0.189231,0.311788,0.630568,
2,1,0,1,0,57260.8,0.635032,0.634749,0.393397,87,0.0358294,10,0.000249708,-3.40517,0.159821,0.369163,0.634576,
2,1,0,1,0,57261.6,0.639027,0.638709,0.417416,87,0.0361588,10,0.000266607,-3.37943,0.151146,0.390351,0.638526,
2,1,0,1,0,57262.4,0.643022,0.642737,0.444265,87,0.0365084,10,0.000285545,-3.35236,0.140558,0.419757,0.642541,
2,1,0,1,0,57263.2,0.647018,0.646698,0.475328,87,0.0368812,10,0.000307394,-3.32301,0.129019,0.457298,0.646488,
2,1,0,0,0,57264,0.651013,0.650665,0.512376,87,0.0372814,10,0.000333385,-3.29041,0.117929,0.500302,0.650439,
2,1,0,1,0,57264.8,0.655008,0.654681,0.555212,87,0.0377131,10,0.000363487,-3.25554,0.11428,0.516275,0.654436,
2,1,0,1,0,57265.6,0.659003,0.658702,0.603441,87,0.0381807,10,0.000397488,-3.21937,0.103674,0.569091,0.658437,
2,1,0,1,0,57266.4,0.662998,0.662693,0.661671,87,0.0386912,10,0.000438484,-3.17936,0.0967244,0.609981,0.662402,
2,1,0,1,0,57267.2,0.666994,0.666682,0.726271,87,0.0392508,10,0.000484192,-3.1389,0.0959104,0.615157,0.666362,
2,1,0,0,0,57268,0.670989,0.670674,0.802411,87,0.0398668,10,0.000538156,-3.0956,0.0894839,0.659336,0.670321,
2,1,0,1,0,57268.8,0.674984,0.674668,0.888396,87,0.0405473,10,0.000599372,-3.05139,0.0888156,0.664298,0.674277,
2,1,0,1,0,57269.6,0.67898,0.678699,0.986818,87,0.0413015,10,0.000669753,-3.00576,0.0847996,0.695758,0.678265,
2,1,0,1,0,57270.4,0.682974,0.682672,1.09629,87,0.0421386,10,0.000748407,-2.96007,0.0867527,0.680094,0.68219,
2,1,0,1,0,57271.2,0.686969,0.686702,1.21986,87,0.0430688,10,0.000837683,-2.91369,0.0843174,0.699737,0.686166,
2,1,0,0,0,57272,0.690965,0.690695,1.35803,87,0.0441037,10,0.000937985,-2.86709,0.0848775,0.69512,0.690097,
2,1,0,1,0,57272.8,0.69496,0.694674,1.51183,87,0.0452551,10,0.00105023,-2.8205,0.085652,0.688834,0.694008,
2,1,0,0,0,57273.6,0.698955,0.698601,1.678,87,0.0465334,10,0.00117225,-2.77521,0.0848827,0.695077,0.697863,
2,1,0,1,0,57274.4,0.70295,0.702641,1.86187,87,0.0479524,10,0.00130822,-2.73005,0.0888655,0.663925,0.701822,
2,1,0,1,0,57275.2,0.706945,0.706622,2.06041,87,0.0495243,10,0.00145593,-2.68605,0.0892722,0.6609,0.705715,
2,1,0,1,0,57276,0.71094,0.710648,2.27614,87,0.0512615,10,0.00161753,-2.6428,0.0911497,0.647287,0.709647,
2,1,0,1,0,57276.8,0.714936,0.714622,2.50646,87,0.0531774,10,0.00179117,-2.60094,0.094639,0.623421,0.713519,
2,1,0,0,0,57277.6,0.718931,0.71866,2.75467,87,0.0552836,10,0.00197967,-2.55993,0.0961227,0.613799,0.717448,
2,1,0,1,0,57278.4,0.722927,0.722639,3.01707,87,0.0575945,10,0.00218025,-2.52041,0.0997113,0.591708,0.721312,
2,1,0,1,0,57279.2,0.726921,0.726655,3.29755,87,0.060122,10,0.00239618,-2.48181,0.101177,0.583139,0.725204,
2,1,0,1,0,57279.9,0.730916,0.730618,3.59601,87,0.0628807,10,0.00262731,-2.44418,0.103367,0.570781,0.729036,
2,1,0,1,0,57280.7,0.734911,0.734553,3.9104,87,0.0658847,10,0.0028724,-2.40778,0.107843,0.547091,0.732832,
2,1,0,0,0,57281.5,0.738907,0.738602,4.24526,87,0.0691482,10,0.00313556,-2.3721,0.110239,0.535199,0.736734,
2,1,0,1,0,57282.3,0.742902,0.742555,4.5963,87,0.0726851,10,0.003413,-2.33759,0.11203,0.526643,0.740533,
2,1,0,1,0,57283.1,0.746897,0.746593,4.96999,87,0.0765128,10,0.00371056,-2.30364,0.113197,0.521215,0.744406,
2,1,0,1,0,57283.9,0.750892,0.75062,5.36386,87,0.0806457,10,0.00402622,-2.27052,0.117739,0.50111,0.748259,
2,1,0,1,0,57284.7,0.754887,0.754594,5.77798,87,0.0851014,10,0.00436002,-2.23822,0.118052,0.499779,0.752051,
2,1,0,0,0,57285.5,0.758883,0.758555,6.21778,87,0.089899,10,0.00471652,-2.20636,0.122024,0.48351,0.755819,
2,1,0,1,0,57286.3,0.762878,0.762583,6.67871,87,0.0950553,10,0.00509307,-2.17531,0.121691,0.484834,0.759644,
2,1,0,0,0,57287.1,0.766873,0.766588,7.16622,87,0.100591,10,0.00549354,-2.14471,0.124537,0.473755,0.763435,
2,1,0,1,0,57287.9,0.770868,0.770563,7.68531,87,0.106529,10,0.00592201,-2.11434,0.12353,0.477617,0.767181,
2,1,0,1,0,57288.7,0.774863,0.774576,8.23203,87,0.112892,10,0.00637633,-2.08449,0.12666,0.465814,0.770954,
2,1,0,1,0,57289.5,0.778858,0.778488,8.81062,87,0.119705,10,0.00685896,-2.05499,0.127277,0.463557,0.774611,
2,1,0,1,0,57290.3,0.782854,0.782538,9.4222,87,0.126994,10,0.00737323,-2.02585,0.128531,0.459034,0.778392,
2,1,0,0,0,57291.1,0.786849,0.78654,10.0716,87,0.134787,10,0.00792174,-1.9969,0.127285,0.463526,0.782108,
2,1,0,1,0,57291.9,0.790844,0.790548,10.7662,87,0.143116,10,0.00851123,-1.96794,0.127635,0.462257,0.785811,
2,1,0,1,0,57292.7,0.794839,0.794555,11.5031,87,0.152017,10,0.00913988,-1.93918,0.127795,0.461677,0.789493,
2,1,0,1,0,57293.5,0.798834,0.79856,12.2887,87,0.161526,10,0.00981328,-1.91049,0.127231,0.463723,0.793153,
2,1,0,1,0,57294.3,0.802829,0.802525,13.1263,87,0.171683,10,0.0105342,-1.88186,0.126747,0.465496,0.79675,
2,1,0,0,0,57295.1,0.806825,0.806509,14.0091,87,0.18253,10,0.0112985,-1.85359,0.126547,0.466229,0.800345,
2,1,0,1,0,57295.9,0.81082,0.810532,14.961,87,0.194109,10,0.0121264,-1.82504,0.127031,0.464452,0.80395,
2,1,0,1,0,57296.7,0.814815,0.814475,15.9504,87,0.206467,10,0.0129912,-1.79723,0.127409,0.463077,0.807457,
2,1,0,1,0,57297.5,0.81881,0.818506,16.9422,87,0.219618,10,0.0138673,-1.77103,0.136075,0.433585,0.811051,
2,1,0,1,0,57298.3,0.822805,0.822508,17.9345,87,0.233569,10,0.0147513,-1.74631,0.147387,0.400307,0.814617,
2,1,0,0,0,57299.1,0.826801,0.826496,19.0472,87,0.248348,10,0.0157424,-1.72017,0.135226,0.436306,0.818115,
2,1,0,1,0,57299.9,0.830796,0.830523,20.2164,87,0.264041,10,0.0167902,-1.6943,0.136242,0.433053,0.821628,
2,1,0,0,0,57300.7,0.834791,0.834548,21.4348,87,0.280683,10,0.0178884,-1.66888,0.138899,0.424769,0.825116,
2,1,0,1,0,57301.5,0.838786,0.838517,22.6486,87,0.298303,10,0.0189913,-1.64496,0.144389,0.408618,0.828551,
2,1,0,1,0,57302.3,0.842781,0.842528,23.9142,87,0.316912,10,0.0201484,-1.62134,0.14899,0.396,0.832006,
2,1,0,1,0,57303.1,0.846776,0.846521,25.2007,87,0.336539,10,0.0213329,-1.59859,0.154849,0.381017,0.835433,
2,1,0,0,0,57303.8,0.849723,0.849442,26.0569,87,0.354562,10,0.0221338,-1.58408,0.0500099,1.17977,0.837977,
2,1,0,1,0,57304.6,0.845728,0.845454,24.1357,87,0.374556,10,0.0204057,-1.61734,0.109282,0.539885,0.834834,
2,1,0,0,0,57305.4,0.841732,0.841485,22.5768,87,0.393197,10,0.0189981,-1.64634,0.115866,0.50921,0.831551,
2,1,0,1,0,57306.2,0.837737,0.837499,21.122,87,0.410642,10,0.0176897,-1.67526,0.115253,0.511918,0.828206,
2,1,0,1,0,57307,0.833742,0.833464,19.746,87,0.426955,10,0.0164576,-1.70452,0.115641,0.510198,0.824776,
2,1,0,1,0,57307.8,0.829747,0.829463,18.4587,87,0.442201,10,0.0153108,-1.7338,0.119163,0.49512,0.821341,
2,1,0,1,0,57308.6,0.825752,0.825514,17.2559,87,0.456459,10,0.014245,-1.76306,0.118053,0.499774,0.817921,
2,1,0,0,0,57309.4,0.821757,0.821474,16.136,87,0.469786,10,0.0132553,-1.7922,0.118259,0.498903,0.814374,
2,1,0,1,0,57310.2,0.817761,0.817451,15.0354,87,0.482232,10,0.0122907,-1.82288,0.117131,0.50371,0.810836,
2,1,0,1,0,57311,0.813766,0.813461,14.0433,87,0.493837,10,0.0114237,-1.85253,0.117745,0.501084,0.807282,
2,1,0,1,0,57311.8,0.809771,0.809439,13.095,87,0.504668,10,0.0105996,-1.8829,0.118397,0.498324,0.803678,
2,1,0,1,0,57312.6,0.805776,0.805476,12.2003,87,0.514763,10,0.00982706,-1.91363,0.110572,0.533588,0.800108,
2,1,0,0,0,57313.4,0.801781,0.801473,11.3153,87,0.524126,10,0.0090689,-1.94633,0.117195,0.503436,0.796495,
2,1,0,1,0,57314.2,0.797786,0.797499,10.5427,87,0.532846,10,0.00840776,-1.97705,0.120114,0.4912,0.79286,
2,1,0,1,0,57315,0.79379,0.793448,9.80709,87,0.540966,10,0.00778142,-2.00846,0.115622,0.510285,0.789133,
2,1,0,1,0,57315.8,0.789795,0.789512,9.12538,87,0.548521,10,0.0072046,-2.03975,0.118196,0.499172,0.785497,
2,1,0,1,0,57316.6,0.7858,0.785463,8.47519,87,0.555544,10,0.00665695,-2.07185,0.115905,0.509037,0.781734,
2,1,0,0,0,57317.4,0.781805,0.781466,7.86441,87,0.562064,10,0.00614577,-2.10433,0.112212,0.525792,0.778005,
2,1,0,1,0,57318.2,0.77781,0.777508,7.29361,87,0.56811,10,0.00567084,-2.13706,0.115921,0.508966,0.774299,
2,1,0,0,0,57319,0.773814,0.773489,6.76123,87,0.573715,10,0.00522974,-2.16997,0.1138,0.518454,0.770514,
2,1,0,1,0,57319.8,0.769819,0.769509,6.26694,87,0.578913,10,0.00482247,-2.20294,0.11224,0.525657,0.766752,
2,1,0,1,0,57320.6,0.765824,0.765525,5.79445,87,0.583723,10,0.00443579,-2.23699,0.111799,0.527731,0.762975,
2,1,0,1,0,57321.4,0.761829,0.761476,5.35514,87,0.588169,10,0.00407781,-2.27123,0.110235,0.53522,0.759119,
2,1,0,1,0,57322.2,0.757834,0.757513,4.94236,87,0.592275,10,0.00374391,-2.30607,0.108234,0.545117,0.755339,
2,1,0,0,0,57323,0.753839,0.753541,4.55047,87,0.596061,10,0.00342896,-2.34194,0.106178,0.55567,0.751539,
2,1,0,1,0,57323.8,0.749844,0.749512,4.18731,87,0.599544,10,0.00313844,-2.37807,0.105088,0.561435,0.74767,
2,1,0,1,0,57324.6,0.745848,0.745541,3.84465,87,0.602745,10,0.00286634,-2.41514,0.10157,0.58088,0.743849,
2,1,0,1,0,57325.4,0.741853,0.741581,3.51894,87,0.60568,10,0.00260958,-2.45359,0.100127,0.589251,0.740033,
2,1,0,1,0,57326.2,0.737858,0.737555,3.2156,87,0.608364,10,0.00237168,-2.49274,0.0980275,0.601872,0.73614,
2,1,0,0,0,57327,0.733863,0.733576,2.93035,87,0.610812,10,0.00214964,-2.53308,0.0934142,0.631596,0.732286,
2,1,0,1,0,57327.8,0.729868,0.72955,2.66028,87,0.613038,10,0.00194081,-2.57507,0.0903961,0.652683,0.72838,
2,1,0,1,0,57328.6,0.725872,0.725569,2.40821,87,0.615056,10,0.00174732,-2.61831,0.0882292,0.668713,0.724509,
2,1,0,1,0,57329.4,0.721877,0.72157,2.17086,87,0.616878,10,0.00156643,-2.66337,0.085408,0.690802,0.720614,
2,1,0,1,0,57330.2,0.717882,0.717572,1.95035,87,0.618518,10,0.00139952,-2.70989,0.0830536,0.710385,0.716714,
2,1,0,0,0,57331,0.713887,0.713564,1.75297,87,0.619989,10,0.00125085,-2.75623,0.0838203,0.703887,0.712792,
2,1,0,1,0,57331.8,0.709892,0.709576,1.56671,87,0.621309,10,0.0011117,-2.80501,0.0771284,0.764958,0.708887,
2,1,0,0,0,57332.6,0.705897,0.705579,1.39075,87,0.622484,10,0.000981287,-2.85675,0.0739312,0.798039,0.704967,
2,1,0,1,0,57333.4,0.701901,0.701565,1.22635,87,0.623523,10,0.000860362,-2.91139,0.0706158,0.835507,0.701025,
2,1,0,1,0,57334.2,0.697906,0.697591,1.07416,87,0.624435,10,0.000749322,-2.96893,0.0668438,0.882655,0.697118,
2,1,0,1,0,57335,0.693911,0.693613,0.935106,87,0.625231,10,0.000648602,-3.02914,0.0612286,0.963602,0.693202,
2,1,0,1,0,57335.8,0.689916,0.689596,0.806751,87,0.62592,10,0.000556333,-3.09326,0.0614407,0.960275,0.689241,
2,1,0,0,0,57336.6,0.685921,0.685646,0.690101,87,0.626511,10,0.000473165,-3.16109,0.0568104,1.03854,0.685343,
2,1,0,1,0,57337.4,0.681926,0.681606,0.584798,87,0.627014,10,0.000398602,-3.23299,0.0527321,1.11886,0.681349,
2,1,0,1,0,57338.2,0.67793,0.677618,0.490781,87,0.627437,10,0.000332562,-3.30911,0.0513815,1.14827,0.677402,
2,1,0,1,0,57339,0.673935,0.673637,0.407622,87,0.62779,10,0.00027459,-3.38974,0.046781,1.2612,0.673458,
2,1,0,1,0,57339.8,0.66994,0.669653,0.333846,87,0.628079,10,0.000223561,-3.47645,0.0436708,1.35102,0.669506,
2,1,0,0,0,57340.6,0.665945,0.665586,0.268113,87,0.628313,10,0.000178452,-3.57168,0.0406201,1.45248,0.665468,
2,1,0,1,0,57341.4,0.66195,0.661638,0.211281,87,0.628498,10,0.000139791,-3.67514,0.0361382,1.63262,0.661545,
2,1,0,0,0,57342.2,0.657955,0.657628,0.162047,87,0.628641,10,0.000106567,-3.79036,0.032289,1.82725,0.657557,
2,1,0,1,0,57343,0.653959,0.653644,0.118293,87,0.628747,10,7.73217e-05,-3.92704,0.0272926,2.16176,0.653592,
2,1,0,1,0,57343.8,0.649964,0.649677,0.0826013,87,0.628822,10,5.36642e-05,-4.08301,0.0226387,2.60616,0.649641,
2,1,0,1,0,57344.6,0.64597,0.645649,0.0508225,87,0.628869,10,3.28135e-05,-4.29394,0.0162166,3.63824,0.645627,
2,1,0,1,0,57345.4,0.641974,0.641711,0.0246071,87,0.628893,10,1.57907e-05,-4.60894,0.00789448,7.47358,0.6417,
2,1,0,0,0,57346.2,0.637979,0.637701,0.00246382,87,0.628897,10,1.57118e-06,-5.60839,0.020803,2.83612,0.6377,
2,0,0,1,0,57347,0.633983,0.633656,-0.0161181,87,0.628886,10,-1.02133e-05,-4.79269,-0.00788961,-7.47819,0.633663,
2,0,0,1,0,57347.8,0.629988,0.629666,-0.0318151,87,0.62886,10,-2.00329e-05,-4.49737,-0.0200175,-2.94741,0.62968,
2,0,0,1,0,57348.6,0.625993,0.625659,-0.045749,87,0.628824,10,-2.86233e-05,-4.33962,-0.0362188,-1.62899,0.625679,
2,0,0,1,0,57349.4,0.621998,0.621669,-0.0556845,87,0.628777,10,-3.46173e-05,-4.25427,-0.0521389,-1.13159,0.621693,
2,0,0,0,0,57350.2,0.618003,0.617659,-0.0656475,87,0.628723,10,-4.05478e-05,-4.18278,-0.0581006,-1.01548,0.617688,
2,0,0,1,0,57351,0.614008,0.613651,-0.0739675,87,0.628661,10,-4.53902e-05,-4.13096,-0.10133,-0.582258,0.613684,
2,0,0,1,0,57351.8,0.610012,0.609673,-0.0808099,87,0.628594,10,-4.92677e-05,-4.09254,-0.133121,-0.443205,0.609709,
2,0,0,1,0,57352.6,0.606017,0.605639,-0.0849898,87,0.628521,10,-5.14731e-05,-4.07063,-0.131366,-0.449126,0.605676,
2,0,0,1,0,57353.4,0.602022,0.60169,-0.090938,87,0.628445,10,-5.47165e-05,-4.04125,-0.244703,-0.241109,0.60173,
2,0,0,0,0,57354.2,0.598027,0.597674,-0.0949227,87,0.628365,10,-5.67328e-05,-4.02263,-0.184545,-0.319705,0.597716,
2,0,0,1,0,57355,0.594032,0.593676,-0.098278,87,0.628281,10,-5.83453e-05,-4.00754,-0.317606,-0.185765,0.593719,
2,0,0,0,0,57355.8,0.590037,0.589732,-0.100955,87,0.628196,10,-5.95362e-05,-3.99587,-0.415406,-0.14203,0.589776,
2,0,0,1,0,57356.6,0.586041,0.585725,-0.104088,87,0.628108,10,-6.09672e-05,-3.9826,-0.363463,-0.162327,0.585771,
2,0,0,1,0,57357.4,0.582046,0.581723,-0.10598,87,0.628018,10,-6.16512e-05,-3.97478,-0.448459,-0.131562,0.58177,
2,0,0,1,0,57358.2,0.578052,0.577721,-0.108224,87,0.627926,10,-6.25233e-05,-3.96568,-0.40111,-0.147092,0.577768,
2,0,0,1,0,57359,0.574056,0.573719,-0.108932,87,0.627833,10,-6.24962e-05,-3.96285,-0.656997,-0.0898026,0.573767,
2,0,0,0,0,57359.8,0.570061,0.569707,-0.111194,87,0.627739,10,-6.33483e-05,-3.95392,-0.810519,-0.0727929,0.569756,
2,0,0,1,0,57360.6,0.566065,0.565721,-0.112312,87,0.627643,10,-6.35372e-05,-3.94957,-0.801661,-0.0735972,0.565771,
2,0,0,1,0,57361.4,0.56207,0.561751,-0.114091,87,0.627546,10,-6.40905e-05,-3.94275,-0.845041,-0.0698191,0.561802,
2,0,0,1,0,57362.2,0.558075,0.557741,-0.114832,87,0.627448,10,-6.40467e-05,-3.93994,-0.865139,-0.0681971,0.557792,
2,0,0,1,0,57362.9,0.55408,0.553756,-0.116109,87,0.627349,10,-6.42959e-05,-3.93514,-0.724004,-0.0814913,0.553808,
2,0,0,0,0,57363.7,0.550085,0.549736,-0.117625,87,0.627249,10,-6.4663e-05,-3.9295,3.25419,0.0181305,0.549788,
2,0,0,1,0,57364.5,0.54609,0.545762,-0.118815,87,0.627149,10,-6.48447e-05,-3.92513,-0.413306,-0.142752,0.545814,
2,0,0,1,0,57365.3,0.542094,0.541779,-0.118411,87,0.627048,10,-6.41528e-05,-3.92661,3.42489,0.0172268,0.541831,
2,0,0,1,0,57366.1,0.538099,0.537749,-0.119534,87,0.626946,10,-6.42791e-05,-3.92251,-1.12494,-0.052447,0.537802,
2,0,0,1,0,57366.9,0.534104,0.533742,-0.120992,87,0.626843,10,-6.45786e-05,-3.91724,-0.802649,-0.0735066,0.533795,
2,0,0,0,0,57367.7,0.530109,0.529746,-0.122307,87,0.62674,10,-6.47919e-05,-3.91255,-1.58332,-0.0372635,0.5298,
2,0,0,1,0,57368.5,0.526114,0.525783,-0.123192,87,0.626635,10,-6.47723e-05,-3.90942,-0.753728,-0.0782776,0.525837,
2,0,0,0,0,57369.3,0.522119,0.521775,-0.124458,87,0.62653,10,-6.49393e-05,-3.90498,-6.32256,-0.00933166,0.52183,
2,0,0,1,0,57370.1,0.518123,0.517748,-0.124762,87,0.626424,10,-6.4595e-05,-3.90392,-1.60476,-0.0367656,0.517802,
2,0,0,1,0,57370.9,0.514128,0.513793,-0.125337,87,0.626318,10,-6.43975e-05,-3.90192,-0.683274,-0.086349,0.513848,
2,0,0,1,0,57371.7,0.510133,0.509757,-0.126452,87,0.62621,10,-6.44599e-05,-3.89807,-1.69271,-0.0348553,0.509813,
2,0,0,1,0,57372.5,0.506138,0.505754,-0.12794,87,0.626102,10,-6.47063e-05,-3.89299,-0.989041,-0.0596537,0.50581,
2,0,0,0,0,57373.3,0.502143,0.5018,-0.128088,87,0.625993,10,-6.42744e-05,-3.89249,-0.925986,-0.0637159,0.501857,
2,0,0,1,0,57374.1,0.498148,0.497775,-0.129959,87,0.625883,10,-6.46904e-05,-3.88619,-0.743059,-0.0794015,0.497832,
2,0,0,1,0,57374.9,0.494152,0.493836,-0.13143,87,0.625772,10,-6.49046e-05,-3.88131,-4.074,-0.0144821,0.493894,
2,0,0,1,0,57375.7,0.490157,0.489826,-0.132404,87,0.62566,10,-6.48548e-05,-3.8781,-0.734953,-0.0802773,0.489884,
2,0,0,1,0,57376.5,0.486162,0.485799,-0.13397,87,0.625547,10,-6.50825e-05,-3.87299,-0.784056,-0.0752498,0.485858,
2,0,0,0,0,57377.3,0.482167,0.481822,-0.134635,87,0.625433,10,-6.48701e-05,-3.87084,-1.12689,-0.0523564,0.481882,
2,0,0,1,0,57378.1,0.478172,0.47785,-0.135177,87,0.625318,10,-6.45942e-05,-3.8691,-1.27411,-0.0463068,0.47791,
2,0,0,0,0,57378.9,0.474177,0.473807,-0.137719,87,0.625202,10,-6.52521e-05,-3.86101,-1.29207,-0.045663,0.473867,
2,0,0,1,0,57379.7,0.470181,0.469815,-0.138234,87,0.625085,10,-6.49444e-05,-3.85939,-0.982745,-0.0600359,0.469876,
2,0,0,1,0,57380.5,0.466186,0.465792,-0.139611,87,0.624967,10,-6.50297e-05,-3.85508,-0.891536,-0.0661779,0.465854,
2,0,0,1,0,57381.3,0.462191,0.461807,-0.140707,87,0.624848,10,-6.49794e-05,-3.85168,-1.53541,-0.0384263,0.461869,
2,0,0,1,0,57382.1,0.458196,0.45784,-0.142116,87,0.624728,10,-6.50663e-05,-3.84736,-1.12638,-0.0523803,0.457903,
2,0,0,0,0,57382.9,0.454201,0.453815,-0.142899,87,0.624607,10,-6.48497e-05,-3.84497,-0.673203,-0.0876407,0.453878,
2,0,0,1,0,57383.7,0.450205,0.449881,-0.145255,87,0.624484,10,-6.53474e-05,-3.83787,-0.845102,-0.0698141,0.449945,
2,0,0,1,0,57384.5,0.44621,0.445878,-0.146063,87,0.624361,10,-6.51264e-05,-3.83546,-0.957241,-0.0616355,0.445942,
2,0,0,1,0,57385.3,0.442215,0.44185,-0.149087,87,0.624235,10,-6.58741e-05,-3.82656,-0.878624,-0.0671505,0.441915,
2,0,0,1,0,57386.1,0.43822,0.437888,-0.150228,87,0.624109,10,-6.5783e-05,-3.82325,-0.640004,-0.092187,0.437954,
2,0,0,0,0,57386.9,0.434225,0.433885,-0.152017,87,0.623981,10,-6.59578e-05,-3.81811,-1.90092,-0.0310376,0.433952,
2,0,0,1,0,57387.7,0.43023,0.429898,-0.153488,87,0.623852,10,-6.5984e-05,-3.81393,-0.550759,-0.107125,0.429965,
2,0,0,1,0,57388.5,0.426234,0.425894,-0.15428,87,0.623721,10,-6.57067e-05,-3.81169,-0.919156,-0.0641893,0.425962,
2,0,0,1,0,57389.3,0.422239,0.421903,-0.156943,87,0.623589,10,-6.62145e-05,-3.80426,-0.785988,-0.0750648,0.421972,
2,0,0,1,0,57390.1,0.418244,0.417944,-0.157733,87,0.623456,10,-6.59237e-05,-3.80208,-1.07305,-0.0549836,0.418013,
2,0,0,0,0,57390.9,0.414249,0.413954,-0.160104,87,0.623321,10,-6.62758e-05,-3.7956,-0.78732,-0.0749378,0.414025,
2,0,0,1,0,57391.7,0.410254,0.409887,-0.162305,87,0.623185,10,-6.65267e-05,-3.78967,-1.53151,-0.038524,0.409958,
2,0,0,0,0,57392.5,0.406259,0.405948,-0.164188,87,0.623047,10,-6.66517e-05,-3.78466,-0.522701,-0.112875,0.40602,
2,0,0,1,0,57393.3,0.402263,0.401938,-0.166322,87,0.622907,10,-6.68512e-05,-3.77905,-0.851765,-0.0692679,0.402011,
2,0,0,1,0,57394.1,0.398268,0.397917,-0.16802,87,0.622766,10,-6.6858e-05,-3.77464,-0.69247,-0.0852023,0.397991,
2,0,0,1,0,57394.9,0.394274,0.393893,-0.168663,87,0.622624,10,-6.64351e-05,-3.77298,-1.06665,-0.0553133,0.393967,
2,0,0,1,0,57395.7,0.390278,0.389959,-0.170715,87,0.62248,10,-6.65719e-05,-3.76773,-1.09953,-0.0536594,0.390035,
2,0,0,0,0,57396.5,0.386283,0.385945,-0.172226,87,0.622334,10,-6.64696e-05,-3.7639,-0.566482,-0.104152,0.38602,
2,0,0,1,0,57397.3,0.382287,0.381965,-0.175373,87,0.622187,10,-6.69863e-05,-3.75604,-0.542407,-0.108774,0.382042,
2,0,0,1,0,57398.1,0.378292,0.377955,-0.17779,87,0.622037,10,-6.71966e-05,-3.75009,-1.19911,-0.0492033,0.378033,
2,0,0,1,0,57398.9,0.374297,0.373935,-0.17976,87,0.621886,10,-6.72184e-05,-3.74531,-1.59892,-0.0368999,0.374014,
2,0,0,1,0,57399.7,0.370303,0.369958,-0.181315,87,0.621734,10,-6.70791e-05,-3.74157,-0.555229,-0.106262,0.370038,
2,0,0,0,0,57400.5,0.366307,0.365994,-0.184237,87,0.621579,10,-6.74295e-05,-3.73462,-0.942039,-0.0626301,0.366075,
2,0,0,1,0,57401.3,0.362312,0.362003,-0.185784,87,0.621423,10,-6.72543e-05,-3.73099,-0.622583,-0.0947666,0.362085,
2,0,0,1,0,57402.1,0.358316,0.358003,-0.188244,87,0.621265,10,-6.73919e-05,-3.72528,-1.4874,-0.0396666,0.358086,
2,0,0,1,0,57402.9,0.354321,0.353973,-0.189718,87,0.621105,10,-6.7155e-05,-3.72189,-0.538911,-0.10948,0.354057,
2,0,0,1,0,57403.7,0.350327,0.349969,-0.191632,87,0.620944,10,-6.70653e-05,-3.71753,-1.02323,-0.0576608,0.350053,
2,0,0,0,0,57404.5,0.346331,0.345951,-0.194784,87,0.62078,10,-6.73858e-05,-3.71045,-0.977958,-0.0603298,0.346037,
2,0,0,1,0,57405.3,0.342336,0.341983,-0.197288,87,0.620615,10,-6.74694e-05,-3.7049,-0.618975,-0.0953189,0.34207,
2,0,0,0,0,57406.1,0.338341,0.337984,-0.199818,87,0.620448,10,-6.75353e-05,-3.69936,-1.17033,-0.0504131,0.338071,
2,0,0,1,0,57406.9,0.334345,0.334018,-0.201994,87,0.620279,10,-6.74698e-05,-3.69466,-0.657852,-0.0896859,0.334107,
2,0,0,1,0,57407.7,0.33035,0.329982,-0.20369,87,0.620108,10,-6.72139e-05,-3.69103,-0.788222,-0.074852,0.330071,
2,0,0,1,0,57408.5,0.326355,0.326036,-0.20625,87,0.619935,10,-6.7245e-05,-3.68561,-0.826454,-0.0713893,0.326127,
2,0,0,1,0,57409.3,0.32236,0.322016,-0.20802,87,0.61976,10,-6.69858e-05,-3.68189,-0.846611,-0.0696896,0.322107,
2,0,0,0,0,57410.1,0.318365,0.317965,-0.210273,87,0.619583,10,-6.68594e-05,-3.67722,-0.734793,-0.0802947,0.318058,
2,0,0,1,0,57410.9,0.31437,0.314039,-0.212936,87,0.619405,10,-6.68701e-05,-3.67175,-1.04168,-0.0566391,0.314132,
2,0,0,1,0,57411.7,0.310374,0.310029,-0.215973,87,0.619225,10,-6.69578e-05,-3.6656,-0.773453,-0.0762813,0.310124,
2,0,0,1,0,57412.5,0.306379,0.306026,-0.217761,87,0.619042,10,-6.66407e-05,-3.66202,-0.629763,-0.093686,0.306122,
2,0,0,1,0,57413.3,0.302385,0.302006,-0.221484,87,0.618858,10,-6.68896e-05,-3.65466,-0.697917,-0.0845373,0.302104,
2,0,0,0,0,57414.1,0.298389,0.298035,-0.222752,87,0.618671,10,-6.63878e-05,-3.65218,-1.02393,-0.0576212,0.298133,
2,0,0,1,0,57414.9,0.294394,0.294025,-0.224823,87,0.618483,10,-6.61038e-05,-3.64816,-2.11657,-0.0278753,0.294124,
2,0,0,1,0,57415.7,0.290398,0.290031,-0.228083,87,0.618292,10,-6.61512e-05,-3.64191,-0.67169,-0.0878382,0.290132,
2,0,0,1,0,57416.5,0.286403,0.286083,-0.228748,87,0.6181,10,-6.54408e-05,-3.64064,-0.739965,-0.0797335,0.286184,
2,0,0,1,0,57417.3,0.282408,0.282076,-0.233166,87,0.617905,10,-6.57705e-05,-3.63234,-0.999307,-0.0590409,0.282179,
2,0,0,1,0,57418.1,0.278414,0.278104,-0.235986,87,0.617708,10,-6.56287e-05,-3.62711,-0.63952,-0.0922567,0.278208,
2,0,0,1,0,57418.9,0.274418,0.274096,-0.23875,87,0.617509,10,-6.54404e-05,-3.62206,-0.834246,-0.0707226,0.274201,
2,0,0,0,0,57419.7,0.270423,0.27004,-0.241557,87,0.617308,10,-6.52302e-05,-3.61698,-1.19897,-0.0492088,0.270146,
2,0,0,1,0,57420.5,0.266427,0.266063,-0.242944,87,0.617105,10,-6.46384e-05,-3.61449,-1.16496,-0.0506454,0.26617,
2,0,0,1,0,57421.3,0.262432,0.262062,-0.246168,87,0.616901,10,-6.45113e-05,-3.60877,-0.621145,-0.0949859,0.26217,
2,0,0,1,0,57422.1,0.258437,0.258058,-0.248026,87,0.616694,10,-6.40051e-05,-3.6055,-1.08812,-0.0542218,0.258167,
2,0,0,1,0,57422.9,0.254442,0.254092,-0.249297,87,0.616485,10,-6.33444e-05,-3.60328,-1.16284,-0.0507379,0.254201,
2,0,0,0,0,57423.7,0.250447,0.250097,-0.253246,87,0.616274,10,-6.33361e-05,-3.59646,-1.68401,-0.0350355,0.250209,
2,0,0,1,0,57424.5,0.246452,0.24613,-0.255605,87,0.616061,10,-6.2912e-05,-3.59243,-0.641674,-0.091947,0.246243,
2,0,0,1,0,57425.3,0.242456,0.242086,-0.257535,87,0.615846,10,-6.23457e-05,-3.58916,-0.923493,-0.0638878,0.2422,
2,0,0,1,0,57426.1,0.238461,0.238105,-0.260225,87,0.61563,10,-6.19607e-05,-3.58465,-1.04945,-0.05622,0.238219,
2,0,0,1,0,57426.9,0.234467,0.234142,-0.262198,87,0.615411,10,-6.13917e-05,-3.58137,-0.780804,-0.0755631,0.234258,
2,0,0,0,0,57427.7,0.230471,0.230148,-0.265038,87,0.615191,10,-6.09978e-05,-3.57669,-1.47262,-0.0400646,0.230264,
2,0,0,1,0,57428.5,0.226476,0.226118,-0.268577,87,0.614968,10,-6.07301e-05,-3.57093,-0.872887,-0.0675918,0.226236,
2,0,0,0,0,57429.3,0.222481,0.222107,-0.269429,87,0.614744,10,-5.9842e-05,-3.56956,-1.14737,-0.0514218,0.222225,
2,0,0,1,0,57430.1,0.218485,0.218115,-0.272643,87,0.614517,10,-5.94674e-05,-3.56441,-1.34102,-0.0439965,0.218235,
2,0,0,1,0,57430.9,0.21449,0.214121,-0.275676,87,0.614289,10,-5.90279e-05,-3.5596,-0.7804,-0.0756022,0.214242,
2,0,0,1,0,57431.7,0.210496,0.210107,-0.277787,87,0.614058,10,-5.83652e-05,-3.55629,-1.30961,-0.0450516,0.21023,
2,0,0,1,0,57432.5,0.2065,0.206141,-0.281491,87,0.613825,10,-5.80268e-05,-3.55054,-0.724164,-0.0814733,0.206265,
2,0,0,0,0,57433.3,0.202505,0.202148,-0.283418,87,0.61359,10,-5.72922e-05,-3.54757,-0.855325,-0.0689796,0.202272,
2,0,0,1,0,57434.1,0.198509,0.198125,-0.286777,87,0.613352,10,-5.68178e-05,-3.54246,-0.757891,-0.0778476,0.198251,
2,0,0,1,0,57434.9,0.194514,0.194141,-0.289403,87,0.613112,10,-5.61851e-05,-3.5385,-0.847896,-0.069584,0.194269,
2,0,0,1,0,57435.7,0.190519,0.190111,-0.292278,87,0.612869,10,-5.55654e-05,-3.5342,-0.647645,-0.0910992,0.19024,
2,0,0,1,0,57436.5,0.186524,0.186169,-0.29706,87,0.612623,10,-5.53035e-05,-3.52716,-0.84633,-0.0697128,0.1863,
2,0,0,0,0,57437.3,0.182529,0.182207,-0.301184,87,0.612373,10,-5.48777e-05,-3.52117,-0.621242,-0.0949711,0.182339,
2,0,0,1,0,57438.1,0.178534,0.1782,-0.305632,87,0.61212,10,-5.44637e-05,-3.5148,-0.512974,-0.115016,0.178335,
2,0,0,1,0,57438.9,0.174538,0.174184,-0.311215,87,0.611863,10,-5.42088e-05,-3.50694,-0.519329,-0.113608,0.174321,
2,0,0,1,0,57439.7,0.170543,0.170194,-0.317278,87,0.611602,10,-5.39989e-05,-3.49856,-0.419914,-0.140505,0.170334,
2,0,0,1,0,57440.5,0.166549,0.1662,-0.324265,87,0.611334,10,-5.38929e-05,-3.4891,-0.387771,-0.152152,0.166343,
2,0,0,0,0,57441.3,0.162553,0.162222,-0.332603,87,0.611061,10,-5.39556e-05,-3.47807,-0.327644,-0.180073,0.162369,
2,0,0,1,0,57442.1,0.158558,0.158211,-0.343545,87,0.61078,10,-5.43525e-05,-3.46402,-0.260962,-0.226086,0.158362,
2,0,0,0,0,57442.9,0.154563,0.154167,-0.357714,87,0.610489,10,-5.51478e-05,-3.44646,-0.236311,-0.249671,0.154325,
2,0,0,1,0,57443.7,0.150567,0.150229,-0.373523,87,0.610186,10,-5.61139e-05,-3.42768,-0.161525,-0.365268,0.150393,
2,0,0,1,0,57444.5,0.146572,0.146233,-0.397264,87,0.609867,10,-5.80933e-05,-3.40092,-0.140167,-0.420928,0.146408,
2,0,0,1,0,57445.3,0.142578,0.142226,-0.428842,87,0.609528,10,-6.09923e-05,-3.3677,-0.115066,-0.512748,0.142414,
2,0,0,1,0,57446,0.138582,0.138244,-0.4647,87,0.60916,10,-6.42422e-05,-3.33283,-0.103548,-0.569782,0.138449,
2,0,0,0,0,57446.8,0.134587,0.134214,-0.509982,87,0.608759,10,-6.84466e-05,-3.29245,-0.10443,-0.564971,0.134438,
2,0,0,1,0,57447.6,0.130591,0.130239,-0.555551,87,0.608322,10,-7.23544e-05,-3.25528,-0.109445,-0.539082,0.130483,
2,0,0,1,0,57448.4,0.126596,0.126214,-0.596121,87,0.607849,10,-7.52389e-05,-3.22467,-0.14417,-0.40924,0.126476,
2,0,0,1,0,57449.2,0.122602,0.122242,-0.632502,87,0.607346,10,-7.73183e-05,-3.19894,-0.211485,-0.27898,0.12252,
2,0,0,1,0,57450,0.118607,0.118255,-0.654528,87,0.60682,10,-7.74014e-05,-3.18407,-0.297108,-0.198581,0.118543,
2,0,0,0,0,57450.8,0.114611,0.114286,-0.668597,87,0.606279,10,-7.6411e-05,-3.17484,-0.868352,-0.0679448,0.11458,
2,0,0,1,0,57451.6,0.110616,0.110258,-0.674052,87,0.605731,10,-7.43197e-05,-3.17131,-1.55719,-0.0378889,0.110555,
2,0,0,1,0,57452.4,0.10662,0.106282,-0.674607,87,0.60518,10,-7.16987e-05,-3.17095,-7.84176,-0.00752382,0.106579,
2,0,0,1,0,57453.2,0.102625,0.10227,-0.673245,87,0.604629,10,-6.88528e-05,-3.17183,1.29061,0.0457148,0.102566,
2,0,0,1,0,57454,0.0986305,0.0982523,-0.671113,87,0.604081,10,-6.59385e-05,-3.1732,1.86841,0.0315777,0.0985476,
2,0,0,0,0,57454.8,0.0946351,0.0942937,-0.662918,87,0.603536,10,-6.2509e-05,-3.17854,1.27663,0.0462153,0.0945854,
2,0,0,1,0,57455.6,0.0906399,0.0902175,-0.660117,87,0.602995,10,-5.9554e-05,-3.18038,0.859373,0.0686547,0.0905079,
2,0,0,0,0,57456.4,0.0866448,0.08633,-0.652026,87,0.60246,10,-5.62894e-05,-3.18574,0.867406,0.0680189,0.0866169,
2,0,0,1,0,57457.2,0.0826492,0.0822855,-0.644435,87,0.601931,10,-5.30277e-05,-3.19082,0.67922,0.0868644,0.082569,
2,0,0,1,0,57458,0.0786544,0.0783017,-0.637918,87,0.601408,10,-4.99501e-05,-3.19524,0.796713,0.0740543,0.0785824,
2,0,0,1,0,57458.8,0.0746596,0.0743063,-0.628806,87,0.600892,10,-4.67242e-05,-3.20148,0.771059,0.0765181,0.074583,
2,0,0,1,0,57459.6,0.0706641,0.0703136,-0.621014,87,0.600382,10,-4.36657e-05,-3.2069,0.588219,0.100303,0.0705869,
2,0,0,0,0,57460.4,0.0666689,0.0663074,-0.612336,87,0.599879,10,-4.06024e-05,-3.21301,0.663163,0.0889675,0.0665769,
2,0,0,1,0,57461.2,0.0626737,0.0623362,-0.601966,87,0.599382,10,-3.75243e-05,-3.22043,0.740463,0.0796799,0.0626011,
2,0,0,1,0,57462,0.0586783,0.0583137,-0.594479,87,0.598892,10,-3.46663e-05,-3.22586,0.534944,0.110292,0.0585753,
2,0,0,1,0,57462.8,0.0546835,0.0543569,-0.586481,87,0.598409,10,-3.18793e-05,-3.23175,0.717822,0.0821931,0.0546149,
2,0,0,1,0,57463.6,0.0506886,0.0503244,-0.575923,87,0.597932,10,-2.8983e-05,-3.23964,0.487607,0.120999,0.0505778,
2,0,0,0,0,57464.4,0.046693,0.046323,-0.565857,87,0.597464,10,-2.62122e-05,-3.24729,0.563976,0.104614,0.046572,
2,0,0,1,0,57465.2,0.0426979,0.0423645,-0.556847,87,0.597005,10,-2.35905e-05,-3.25426,0.525689,0.112234,0.0426095,
2,0,0,1,0,57466,0.0387022,0.0383367,-0.547041,87,0.596553,10,-2.09718e-05,-3.26198,0.470384,0.125429,0.0385774,
2,0,0,1,0,57466.8,0.0347074,0.0343467,-0.537069,87,0.596109,10,-1.84466e-05,-3.26997,0.541847,0.108887,0.0345831,
2,0,0,1,0,57467.6,0.0307126,0.0303505,-0.525101,87,0.595673,10,-1.59371e-05,-3.27976,0.580948,0.101558,0.0305815,
2,0,0,0,0,57468.4,0.0267172,0.0263619,-0.518867,87,0.595245,10,-1.36783e-05,-3.28494,0.471906,0.125025,0.0265902,
2,0,0,1,0,57469.2,0.022722,0.0223801,-0.510567,87,0.594823,10,-1.14265e-05,-3.29195,0.852418,0.0692149,0.0226047,
2,0,0,0,0,57470,0.0187268,0.0183612,-0.505958,87,0.594406,10,-9.28998e-06,-3.29589,0.818375,0.0720941,0.0185838,
2,0,0,1,0,57470.8,0.0147313,0.0143651,-0.500843,87,0.593994,10,-7.19467e-06,-3.3003,1.1132,0.0530005,0.0145855,
2,0,0,1,0,57471.6,0.0107365,0.0103657,-0.497275,87,0.593586,10,-5.15458e-06,-3.3034,1.44835,0.0407359,0.0105845,
2,0,0,1,0,57472.4,0.00674163,0.00640967,-0.495143,87,0.593179,10,-3.17371e-06,-3.30527,13.5167,0.00436496,0.00662754,
2,0,0,1,0,57473.2,0.00274612,0.00239144,-0.496737,87,0.592772,10,-1.18792e-06,-3.30387,-1.06128,-0.0555931,0.00261,
2,0,0,0,0,57473.7,0.000274105,-9.38898e-05,-0.497565,87,0.592518,10,4.67163e-08,-3.30315, , ,0.000125039,