File: Figure_codes/Fig_3-5/workspace_calculate_alpha_eff/20221101_1-115_003_TrumpetPlot_ParaChange_from10_every3_16_CV_C01_39.csv
mode,ox/red,error,control changes,counter inc.,time/s,control/V,Ewe/V,<I>/mA,cycle number,(Q-Qo)/C,I Range,P/W,log(|I|),Tafel slope mV/dec,alpha_eff,E-IR/V,
2,0,0,1,0,26841.8,2.44065e-05,-0.000325324,-0.0376989,40,0.0000000E+000,10,1.22644e-08,-4.42367, , ,-0.000308736,
2,1,0,1,0,26842.6,0.00379485,0.0034985,0.210732,40,0.000143405,10,7.37246e-07,-3.67627,0.0524476,1.12493,0.00340578,
2,1,0,0,0,26843.4,0.00779002,0.00745488,0.233279,40,0.000334152,10,1.73906e-06,-3.63213,0.109835,0.537168,0.00735224,
2,1,0,1,0,26844.2,0.0117852,0.0114993,0.248442,40,0.000540358,10,2.8569e-06,-3.60478,0.154365,0.382212,0.01139,
2,1,0,1,0,26845,0.0157806,0.0154431,0.264986,40,0.000758985,10,4.0922e-06,-3.57678,0.161267,0.365853,0.0153265,
2,1,0,1,0,26845.8,0.0197754,0.0194428,0.278415,40,0.000988849,10,5.41317e-06,-3.55531,0.172961,0.341117,0.0193203,
2,1,0,1,0,26846.6,0.0237704,0.0234424,0.292554,40,0.00122999,10,6.85816e-06,-3.53379,0.204047,0.289149,0.0233136,
2,1,0,0,0,26847.4,0.0277659,0.0274351,0.306664,40,0.00148211,10,8.41334e-06,-3.51334,0.191031,0.30885,0.0273001,
2,1,0,1,0,26848.2,0.0317611,0.0314232,0.319755,40,0.00174553,10,1.00478e-05,-3.49518,0.216424,0.272613,0.0312826,
2,1,0,1,0,26849,0.0357567,0.0354406,0.334173,40,0.00202055,10,1.18433e-05,-3.47603,0.250889,0.235164,0.0352935,
2,1,0,1,0,26849.8,0.0397516,0.0394169,0.349116,40,0.0023067,10,1.37611e-05,-3.45703,0.183668,0.321232,0.0392632,
2,1,0,1,0,26850.6,0.0437465,0.0434302,0.360974,40,0.00260473,10,1.56772e-05,-3.44252,0.275805,0.213919,0.0432714,
2,1,0,1,0,26851.4,0.0477413,0.0474264,0.376091,40,0.00291304,10,1.78366e-05,-3.42471,0.262803,0.224503,0.0472609,
2,1,0,1,0,26852.2,0.0517369,0.0514204,0.38856,40,0.00323152,10,1.99799e-05,-3.41054,0.268972,0.219353,0.0512494,
2,1,0,0,0,26853,0.0557321,0.0554139,0.40058,40,0.00356018,10,2.21977e-05,-3.39731,0.407056,0.144943,0.0552376,
2,1,0,1,0,26853.8,0.0597277,0.0594238,0.413184,40,0.00389755,10,2.4553e-05,-3.38386,0.324093,0.182047,0.059242,
2,1,0,1,0,26854.6,0.0637226,0.0634147,0.420534,40,0.00424338,10,2.6668e-05,-3.3762,0.373932,0.157783,0.0632297,
2,1,0,1,0,26855.4,0.0677174,0.0674047,0.43155,40,0.0045977,10,2.90885e-05,-3.36497,0.567544,0.103957,0.0672149,
2,1,0,1,0,26856.2,0.0717128,0.0713932,0.439393,40,0.00495851,10,3.13696e-05,-3.35715,0.376787,0.156587,0.0711998,
2,1,0,0,0,26857,0.075708,0.075357,0.444653,40,0.00532612,10,3.35077e-05,-3.35198,0.620526,0.0950806,0.0751613,
2,1,0,1,0,26857.7,0.0797031,0.0794098,0.455556,40,0.00569955,10,3.61756e-05,-3.34146,0.483985,0.121905,0.0792094,
2,1,0,1,0,26858.5,0.0836986,0.083409,0.462714,40,0.00607948,10,3.85945e-05,-3.33469,0.467985,0.126072,0.0832054,
2,1,0,1,0,26859.3,0.0876935,0.0873385,0.474179,40,0.00646746,10,4.14141e-05,-3.32406,0.407152,0.144909,0.0871299,
2,1,0,1,0,26860.1,0.0916883,0.0914133,0.488333,40,0.00686463,10,4.46402e-05,-3.31128,0.264665,0.222923,0.0911984,
2,1,0,0,0,26860.9,0.0956838,0.0953626,0.504849,40,0.00727497,10,4.81437e-05,-3.29684,0.239808,0.24603,0.0951404,
2,1,0,1,0,26861.7,0.099679,0.0993582,0.527396,40,0.00770096,10,5.24011e-05,-3.27786,0.24514,0.240678,0.0991261,
2,1,0,0,0,26862.5,0.103674,0.103373,0.550505,40,0.00814443,10,5.69073e-05,-3.25924,0.189469,0.311396,0.103131,
2,1,0,1,0,26863.3,0.10767,0.107354,0.570173,40,0.00860686,10,6.12103e-05,-3.24399,0.253906,0.23237,0.107103,
2,1,0,1,0,26864.1,0.111664,0.111368,0.59106,40,0.0090854,10,6.58253e-05,-3.22837,0.329047,0.179305,0.111108,
2,1,0,1,0,26864.9,0.115659,0.115321,0.605508,40,0.0095776,10,6.98278e-05,-3.21788,0.325201,0.181426,0.115055,
2,1,0,1,0,26865.7,0.119655,0.119359,0.619407,40,0.0100823,10,7.39315e-05,-3.20802,0.568101,0.103855,0.119086,
2,1,0,0,0,26866.5,0.12365,0.123358,0.632459,40,0.0105965,10,7.80191e-05,-3.19897,0.433854,0.13599,0.12308,
2,1,0,1,0,26867.3,0.127646,0.12734,0.643428,40,0.0111208,10,8.19344e-05,-3.1915,0.687008,0.0858797,0.127057,
2,1,0,1,0,26868.1,0.131641,0.131315,0.650687,40,0.0116526,10,8.54449e-05,-3.18663,-1.54999,-0.0380647,0.131029,
2,1,0,1,0,26868.9,0.135635,0.135348,0.638795,40,0.0121827,10,8.64597e-05,-3.19464,-0.319824,-0.184477,0.135067,
2,1,0,1,0,26869.7,0.139631,0.139341,0.606018,40,0.0126962,10,8.44431e-05,-3.21751,-0.127223,-0.463752,0.139074,
2,1,0,0,0,26870.5,0.143626,0.143272,0.554843,40,0.0131743,10,7.94933e-05,-3.25583,-0.0877444,-0.672407,0.143028,
2,1,0,1,0,26871.3,0.147621,0.147285,0.490958,40,0.0136055,10,7.2311e-05,-3.30896,-0.0739306,-0.798046,0.147069,
2,1,0,1,0,26872.1,0.151617,0.151304,0.434441,40,0.013988,10,6.57325e-05,-3.36207,-0.0800073,-0.737432,0.151112,
2,1,0,1,0,26872.9,0.155612,0.155283,0.395115,40,0.0143308,10,6.13547e-05,-3.40328,-0.110339,-0.534716,0.155109,
2,1,0,1,0,26873.7,0.159606,0.159286,0.365766,40,0.0146468,10,5.82614e-05,-3.4368,-0.158013,-0.373387,0.159125,
2,1,0,0,0,26874.5,0.163602,0.163267,0.34693,40,0.0149449,10,5.66421e-05,-3.45976,-0.185713,-0.317694,0.163114,
2,1,0,1,0,26875.3,0.167597,0.167311,0.335507,40,0.0152304,10,5.61342e-05,-3.4743,-0.315601,-0.186945,0.167164,
2,1,0,0,0,26876.1,0.171592,0.171285,0.324148,40,0.0155075,10,5.55216e-05,-3.48926,-0.409718,-0.144002,0.171142,
2,1,0,1,0,26876.9,0.175588,0.175231,0.319298,40,0.015778,10,5.59511e-05,-3.4958,-0.568267,-0.103824,0.175091,
2,1,0,1,0,26877.7,0.179582,0.179233,0.312978,40,0.0160436,10,5.6096e-05,-3.50449,-0.714785,-0.0825423,0.179096,
2,1,0,1,0,26878.5,0.183577,0.183321,0.309426,40,0.0163057,10,5.67242e-05,-3.50944,-0.573359,-0.102902,0.183185,
2,1,0,1,0,26879.3,0.187573,0.187239,0.305284,40,0.0165642,10,5.71612e-05,-3.5153,-0.768068,-0.0768161,0.187105,
2,1,0,0,0,26880.1,0.191568,0.191282,0.30279,40,0.01682,10,5.79182e-05,-3.51886,-1.0402,-0.0567198,0.191148,
2,1,0,1,0,26880.9,0.195563,0.195228,0.30085,40,0.0170739,10,5.87345e-05,-3.52165,-0.620035,-0.0951559,0.195096,
2,1,0,1,0,26881.7,0.199559,0.199237,0.297937,40,0.0173256,10,5.936e-05,-3.52588,3.98089,0.0148208,0.199106,
2,1,0,1,0,26882.5,0.203553,0.20322,0.296583,40,0.0175757,10,6.02714e-05,-3.52785,-1.11369,-0.0529772,0.203089,
2,1,0,1,0,26883.3,0.207548,0.207225,0.294161,40,0.0178244,10,6.09577e-05,-3.53141,-1.28975,-0.0457452,0.207096,
2,1,0,0,0,26884.1,0.211544,0.211236,0.29216,40,0.0180712,10,6.17149e-05,-3.53438,-0.872693,-0.0676068,0.211108,
2,1,0,1,0,26884.9,0.215539,0.215227,0.291178,40,0.0183168,10,6.26693e-05,-3.53584,-3.43156,-0.0171933,0.215099,
2,1,0,1,0,26885.7,0.219535,0.219196,0.290049,40,0.018561,10,6.35777e-05,-3.53753,-1.91917,-0.0307424,0.219069,
2,1,0,1,0,26886.5,0.223529,0.223222,0.286863,40,0.0188041,10,6.40342e-05,-3.54233,-1.63212,-0.0361493,0.223096,
2,1,0,1,0,26887.3,0.227524,0.227195,0.28693,40,0.0190461,10,6.51892e-05,-3.54222,-2.10838,-0.0279836,0.227069,
2,1,0,0,0,26888.1,0.23152,0.231202,0.285315,40,0.0192871,10,6.59654e-05,-3.54467,-5.0884,-0.011595,0.231076,
2,1,0,1,0,26888.9,0.235515,0.235204,0.283139,40,0.0195277,10,6.65954e-05,-3.548,-2.8031,-0.0210481,0.235079,
2,1,0,0,0,26889.7,0.23951,0.239236,0.283836,40,0.0197672,10,6.79039e-05,-3.54693,-6.62546,-0.00890504,0.239112,
2,1,0,1,0,26890.5,0.243506,0.24321,0.28251,40,0.0200058,10,6.87093e-05,-3.54897,-6.56716,-0.00898409,0.243086,
2,1,0,1,0,26891.3,0.2475,0.247204,0.281454,40,0.0202439,10,6.95766e-05,-3.55059,-2.31063,-0.0255342,0.24708,
2,1,0,1,0,26892.1,0.251495,0.251191,0.280645,40,0.0204809,10,7.04954e-05,-3.55184,-1.85725,-0.0317675,0.251068,
2,1,0,1,0,26892.9,0.255491,0.255216,0.279768,40,0.0207174,10,7.14011e-05,-3.5532,-5.85693,-0.0100735,0.255093,
2,1,0,0,0,26893.7,0.259486,0.259151,0.280286,40,0.0209534,10,7.26364e-05,-3.5524,-0.837961,-0.070409,0.259028,
2,1,0,1,0,26894.5,0.263481,0.263146,0.278217,40,0.0211884,10,7.32118e-05,-3.55562,-7.10323,-0.00830608,0.263024,
2,1,0,1,0,26895.3,0.267477,0.267127,0.27696,40,0.0214228,10,7.39837e-05,-3.55758,-2.09404,-0.0281752,0.267006,
2,1,0,1,0,26896.1,0.271471,0.271136,0.276123,40,0.0216563,10,7.48671e-05,-3.5589,2.45531,0.0240295,0.271015,
2,1,0,1,0,26896.9,0.275466,0.275142,0.275571,40,0.0218889,10,7.58213e-05,-3.55977,-2.30505,-0.025596,0.275021,
2,1,0,0,0,26897.7,0.279462,0.279167,0.2733,40,0.022121,10,7.62964e-05,-3.56336,-0.942286,-0.0626137,0.279047,
2,1,0,1,0,26898.5,0.283457,0.283164,0.274525,40,0.022352,10,7.77355e-05,-3.56142,3.69551,0.0159653,0.283043,
2,1,0,0,0,26899.3,0.287452,0.287138,0.272906,40,0.0225824,10,7.83617e-05,-3.56399,-1.29134,-0.0456888,0.287018,
2,1,0,1,0,26900.1,0.291448,0.291167,0.27243,40,0.0228121,10,7.93226e-05,-3.56474,-1.428,-0.0413166,0.291047,
2,1,0,1,0,26900.9,0.295442,0.295105,0.270589,40,0.0230407,10,7.9852e-05,-3.56769,3.5205,0.016759,0.294986,
2,1,0,1,0,26901.7,0.299437,0.299117,0.268581,40,0.023269,10,8.03371e-05,-3.57093,-1.96218,-0.0300685,0.298999,
2,1,0,1,0,26902.5,0.303433,0.303124,0.270304,40,0.0234965,10,8.19355e-05,-3.56815,-2.84867,-0.0207114,0.303005,
2,1,0,0,0,26903.3,0.307428,0.307037,0.268459,40,0.0237234,10,8.24268e-05,-3.57112,2.29325,0.0257277,0.306919,
2,1,0,1,0,26904.1,0.311424,0.311104,0.268252,40,0.0239499,10,8.34543e-05,-3.57146,-1.64919,-0.0357752,0.310986,
2,1,0,1,0,26904.9,0.315418,0.3151,0.267936,40,0.0241754,10,8.44266e-05,-3.57197,-4.60191,-0.0128208,0.314982,
2,1,0,1,0,26905.7,0.319413,0.319141,0.266471,40,0.0244002,10,8.50417e-05,-3.57435,-1.89343,-0.0311604,0.319024,
2,1,0,1,0,26906.5,0.323409,0.323074,0.265955,40,0.024625,10,8.59231e-05,-3.57519,-2.03587,-0.0289802,0.322957,
2,1,0,0,0,26907.3,0.327404,0.327124,0.264808,40,0.024849,10,8.6625e-05,-3.57707,-6.59572,-0.0089452,0.327007,
2,1,0,1,0,26908.1,0.331399,0.331102,0.264044,40,0.0250724,10,8.74255e-05,-3.57832,-4.84749,-0.0121712,0.330985,
2,1,0,1,0,26908.9,0.335395,0.335082,0.264852,40,0.0252953,10,8.87472e-05,-3.577,-1.65277,-0.0356977,0.334965,
2,1,0,1,0,26909.7,0.339389,0.339059,0.262906,40,0.0255173,10,8.91405e-05,-3.5802,4.06103,0.0145283,0.338943,
2,1,0,1,0,26910.5,0.343384,0.343106,0.262701,40,0.0257389,10,9.01343e-05,-3.58054,-2.11069,-0.0279529,0.34299,
2,1,0,0,0,26911.3,0.34738,0.34708,0.26333,40,0.02596,10,9.13964e-05,-3.5795,-3.15508,-0.0187,0.346964,
2,1,0,1,0,26912.1,0.351375,0.351067,0.261316,40,0.0261806,10,9.17392e-05,-3.58283,-4.77101,-0.0123663,0.350952,
2,1,0,0,0,26912.9,0.35537,0.355102,0.259653,40,0.0264009,10,9.22034e-05,-3.58561,-2.00429,-0.0294369,0.354988,
2,1,0,1,0,26913.7,0.359366,0.359064,0.260458,40,0.0266205,10,9.3521e-05,-3.58426,5.73236,0.0102924,0.358949,
2,1,0,1,0,26914.5,0.36336,0.363079,0.259607,40,0.0268399,10,9.42581e-05,-3.58568,-8.68703,-0.00679173,0.362965,
2,1,0,1,0,26915.3,0.367355,0.367019,0.259402,40,0.0270587,10,9.52056e-05,-3.58603,-2.78386,-0.0211936,0.366905,
2,1,0,1,0,26916.1,0.371351,0.371096,0.25895,40,0.0272769,10,9.60951e-05,-3.58678,6.22308,0.00948084,0.370982,
2,1,0,0,0,26916.9,0.375346,0.375015,0.258281,40,0.0274949,10,9.68593e-05,-3.58791,-2.01856,-0.0292288,0.374901,
2,1,0,1,0,26917.7,0.379342,0.37905,0.258568,40,0.0277124,10,9.80102e-05,-3.58743,-1.67581,-0.0352069,0.378937,
2,1,0,1,0,26918.5,0.383336,0.383044,0.258132,40,0.0279294,10,9.8876e-05,-3.58816,6.71072,0.0087919,0.38293,
2,1,0,1,0,26919.3,0.387331,0.387051,0.257443,40,0.0281465,10,9.96434e-05,-3.58932,-2.25463,-0.0261684,0.386937,
2,1,0,1,0,26920.1,0.391327,0.391012,0.256821,40,0.028363,10,0.00010042,-3.59037,2.46166,0.0239675,0.390899,
2,1,0,0,0,26920.9,0.395322,0.395034,0.25609,40,0.0285792,10,0.000101165,-3.59161,-3.25056,-0.0181507,0.394922,
2,1,0,1,0,26921.7,0.399317,0.399042,0.25574,40,0.028795,10,0.000102051,-3.5922,-11.3979,-0.0051764,0.398929,
2,1,0,1,0,26922.5,0.403313,0.403007,0.255851,40,0.0290107,10,0.00010311,-3.59201,6.82557,0.00864397,0.402895,
2,1,0,1,0,26923.3,0.407307,0.406995,0.25592,40,0.029226,10,0.000104158,-3.5919,-1.36747,-0.0431454,0.406882,
2,1,0,1,0,26924.1,0.411302,0.410974,0.25605,40,0.029441,10,0.00010523,-3.59167,72.7722,0.000810749,0.410861,
2,1,0,0,0,26924.9,0.415298,0.415033,0.25443,40,0.0296558,10,0.000105597,-3.59443,-4.51698,-0.0130618,0.414921,
2,1,0,1,0,26925.7,0.419293,0.418989,0.25479,40,0.0298701,10,0.000106754,-3.59382,-3.3515,-0.017604,0.418877,
2,1,0,0,0,26926.5,0.423288,0.422992,0.254351,40,0.0300839,10,0.000107588,-3.59457,2.49119,0.0236835,0.42288,
2,1,0,1,0,26927.3,0.427283,0.42697,0.253975,40,0.0302977,10,0.00010844,-3.59521,-3.86779,-0.0152542,0.426858,
2,1,0,1,0,26928.1,0.431278,0.431033,0.253176,40,0.0305111,10,0.000109127,-3.59658,3.58483,0.0164582,0.430922,
2,1,0,1,0,26928.9,0.435273,0.434983,0.253488,40,0.0307242,10,0.000110263,-3.59604,-12.2864,-0.00480204,0.434871,
2,1,0,1,0,26929.7,0.439269,0.438964,0.253758,40,0.0309374,10,0.000111391,-3.59558,-5.4563,-0.0108132,0.438852,
2,1,0,0,0,26930.5,0.443264,0.442943,0.253626,40,0.0311504,10,0.000112342,-3.59581,-16.2293,-0.00363539,0.442831,
2,1,0,1,0,26931.3,0.447259,0.446952,0.253046,40,0.0313633,10,0.0001131,-3.5968,-3.94278,-0.0149641,0.446841,
2,1,0,1,0,26932.1,0.451254,0.450995,0.253446,40,0.0315763,10,0.000114303,-3.59611,-4.99962,-0.0118009,0.450883,
2,1,0,1,0,26932.9,0.455249,0.454961,0.253123,40,0.0317891,10,0.000115161,-3.59667,1.86588,0.0316205,0.45485,
2,1,0,1,0,26933.7,0.459244,0.458958,0.253526,40,0.0320021,10,0.000116358,-3.59598,5.80733,0.0101596,0.458846,
2,1,0,0,0,26934.5,0.46324,0.462931,0.254362,40,0.0322156,10,0.000117752,-3.59455,3.78957,0.0155691,0.462819,
2,1,0,1,0,26935.3,0.467235,0.46694,0.255231,40,0.0324287,10,0.000119177,-3.59307,-2.99789,-0.0196805,0.466827,
2,1,0,1,0,26936.1,0.471231,0.47097,0.254691,40,0.0326421,10,0.000119952,-3.59399,2.06045,0.0286345,0.470858,
2,1,0,1,0,26936.9,0.475225,0.474945,0.255968,40,0.0328557,10,0.000121571,-3.59181,9.66575,0.00610403,0.474832,
2,1,0,1,0,26937.7,0.47922,0.478878,0.25497,40,0.0330697,10,0.000122099,-3.59351,6.94198,0.00849901,0.478765,
2,1,0,0,0,26938.5,0.483216,0.482866,0.256155,40,0.033284,10,0.000123689,-3.5915,5.60101,0.0105338,0.482753,
2,1,0,1,0,26939.3,0.487211,0.486887,0.256453,40,0.0334985,10,0.000124863,-3.59099,3.43098,0.0171962,0.486774,
2,1,0,0,0,26940,0.491206,0.490898,0.256009,40,0.0337135,10,0.000125675,-3.59174,6.31945,0.00933626,0.490786,
2,1,0,1,0,26940.8,0.495201,0.494901,0.258415,40,0.0339289,10,0.00012789,-3.58768,4.09103,0.0144218,0.494787,
2,1,0,1,0,26941.6,0.499196,0.498911,0.258325,40,0.0341448,10,0.000128881,-3.58783,1.36157,0.0433324,0.498797,
2,1,0,1,0,26942.4,0.503191,0.502894,0.259434,40,0.0343616,10,0.000130468,-3.58597,6.63465,0.00889271,0.50278,
2,1,0,1,0,26943.2,0.507187,0.506876,0.261059,40,0.0345789,10,0.000132325,-3.58326,5.08244,0.0116086,0.506761,
2,1,0,0,0,26944,0.511182,0.510928,0.261196,40,0.0347969,10,0.000133453,-3.58303,2.29375,0.0257221,0.510814,
2,1,0,1,0,26944.8,0.515177,0.514865,0.262275,40,0.0350158,10,0.000135036,-3.58124,7.63756,0.00772499,0.514749,
2,1,0,1,0,26945.6,0.519173,0.518884,0.264226,40,0.0352355,10,0.000137103,-3.57802,1.05455,0.0559481,0.518768,
2,1,0,1,0,26946.4,0.523167,0.522864,0.264174,40,0.0354563,10,0.000138127,-3.57811,1.46409,0.0402982,0.522748,
2,1,0,1,0,26947.2,0.527162,0.526848,0.266439,40,0.0356781,10,0.000140373,-3.5744,1.14603,0.0514819,0.526731,
2,1,0,0,0,26948,0.531158,0.530847,0.268349,40,0.0359011,10,0.000142452,-3.5713,6.47779,0.00910805,0.530729,
2,1,0,1,0,26948.8,0.535153,0.534822,0.270498,40,0.0361254,10,0.000144668,-3.56784,0.986535,0.0598053,0.534703,
2,1,0,0,0,26949.6,0.539148,0.53887,0.272107,40,0.0363511,10,0.00014663,-3.56526,1.10424,0.0534305,0.53875,
2,1,0,1,0,26950.4,0.543143,0.542824,0.273356,40,0.0365781,10,0.000148384,-3.56327,1.65085,0.0357392,0.542703,
2,1,0,1,0,26951.2,0.547138,0.546854,0.275548,40,0.0368066,10,0.000150685,-3.5598,2.72334,0.0216646,0.546733,
2,1,0,1,0,26952,0.551133,0.550835,0.277722,40,0.0370366,10,0.000152979,-3.55639,0.744377,0.0792609,0.550713,
2,1,0,1,0,26952.8,0.555129,0.55481,0.279526,40,0.0372689,10,0.000155084,-3.55358,1.11603,0.0528658,0.554687,
2,1,0,0,0,26953.6,0.559124,0.558827,0.283516,40,0.0375031,10,0.000158437,-3.54742,0.79197,0.0744978,0.558702,
2,1,0,1,0,26954.4,0.56312,0.562848,0.286066,40,0.0377395,10,0.000161012,-3.54353,0.905192,0.0651795,0.562723,
2,1,0,1,0,26955.2,0.567114,0.566805,0.289048,40,0.0379786,10,0.000163834,-3.53903,0.658191,0.0896396,0.566678,
2,1,0,1,0,26956,0.571109,0.570763,0.292626,40,0.0382202,10,0.00016702,-3.53369,0.730094,0.0808116,0.570634,
2,1,0,1,0,26956.8,0.575105,0.574832,0.297225,40,0.038465,10,0.000170854,-3.52691,0.64922,0.0908783,0.574701,
2,1,0,0,0,26957.6,0.5791,0.578801,0.301547,40,0.0387133,10,0.000174536,-3.52064,0.629528,0.093721,0.578668,
2,1,0,1,0,26958.4,0.583095,0.582781,0.306478,40,0.0389653,10,0.00017861,-3.5136,0.502212,0.11748,0.582646,
2,1,0,1,0,26959.2,0.58709,0.586814,0.312,40,0.0392217,10,0.000183086,-3.50584,0.471558,0.125117,0.586676,
2,1,0,1,0,26960,0.591085,0.590803,0.31891,40,0.0394831,10,0.000188413,-3.49633,0.474655,0.124301,0.590662,
2,1,0,1,0,26960.8,0.59508,0.594786,0.326837,40,0.0397499,10,0.000194398,-3.48567,0.325647,0.181178,0.594642,
2,1,0,0,0,26961.6,0.599076,0.59874,0.334958,40,0.0400232,10,0.000200553,-3.47501,0.364693,0.16178,0.598592,
2,1,0,1,0,26962.4,0.603071,0.602749,0.34518,40,0.0403034,10,0.000208057,-3.46195,0.316435,0.186452,0.602597,
2,1,0,0,0,26963.2,0.607066,0.606765,0.355698,40,0.0405919,10,0.000215825,-3.44892,0.270468,0.218141,0.606608,
2,1,0,1,0,26964,0.611061,0.610729,0.368319,40,0.0408901,10,0.000224943,-3.43378,0.248956,0.236989,0.610566,
2,1,0,1,0,26964.8,0.615056,0.614762,0.383117,40,0.0411992,10,0.000235526,-3.41667,0.208696,0.282708,0.614594,
2,1,0,1,0,26965.6,0.619051,0.618775,0.40012,40,0.0415214,10,0.000247584,-3.39781,0.206316,0.285969,0.618598,
2,1,0,1,0,26966.4,0.623047,0.622767,0.419724,40,0.0418579,10,0.000261391,-3.37704,0.179882,0.327993,0.622583,
2,1,0,0,0,26967.2,0.627042,0.62679,0.442446,40,0.0422111,10,0.000277321,-3.35414,0.168208,0.350756,0.626595,
2,1,0,1,0,26968,0.631037,0.630769,0.468991,40,0.0425842,10,0.000295825,-3.32884,0.156731,0.376441,0.630562,
2,1,0,1,0,26968.8,0.635032,0.634771,0.500597,40,0.04298,10,0.000317765,-3.30051,0.130743,0.451266,0.634551,
2,1,0,1,0,26969.6,0.639027,0.638724,0.53613,40,0.0434029,10,0.000342439,-3.27073,0.126685,0.465721,0.638488,
2,1,0,1,0,26970.4,0.643022,0.64275,0.57809,40,0.0438569,10,0.000371568,-3.238,0.117559,0.501877,0.642496,
2,1,0,0,0,26971.2,0.647018,0.646757,0.628734,40,0.0443479,10,0.000406638,-3.20153,0.10296,0.573038,0.64648,
2,1,0,1,0,26972,0.651013,0.650771,0.688314,40,0.0448828,10,0.000447934,-3.16221,0.0997602,0.591418,0.650468,
2,1,0,1,0,26972.8,0.655008,0.654721,0.757341,40,0.0454686,10,0.000495847,-3.12071,0.0913143,0.64612,0.654388,
2,1,0,1,0,26973.6,0.659003,0.65871,0.838476,40,0.0461144,10,0.000552313,-3.07651,0.090044,0.655235,0.658341,
2,1,0,1,0,26974.4,0.662998,0.662715,0.932297,40,0.0468297,10,0.000617847,-3.03045,0.0830372,0.710525,0.662305,
2,1,0,0,0,26975.2,0.666994,0.666753,1.04019,40,0.0476253,10,0.000693551,-2.98289,0.081921,0.720206,0.666295,
2,1,0,1,0,26976,0.670989,0.670724,1.16466,40,0.0485135,10,0.000781169,-2.9338,0.0791779,0.745158,0.670212,
2,1,0,0,0,26976.8,0.674984,0.674645,1.3069,40,0.0495089,10,0.000881691,-2.88376,0.0763488,0.77277,0.67407,
2,1,0,1,0,26977.6,0.67898,0.678714,1.46976,40,0.0506267,10,0.000997547,-2.83275,0.0769385,0.766847,0.678067,
2,1,0,1,0,26978.4,0.682974,0.682682,1.65521,40,0.0518831,10,0.00112998,-2.78115,0.0751402,0.785198,0.681953,
2,1,0,1,0,26979.2,0.686969,0.686708,1.86365,40,0.0532964,10,0.00127978,-2.72964,0.075952,0.776806,0.685888,
2,1,0,1,0,26980,0.690965,0.690727,2.09345,40,0.0548857,10,0.001446,-2.67914,0.0783945,0.752604,0.689806,
2,1,0,0,0,26980.8,0.69496,0.694687,2.35274,40,0.0566703,10,0.00163442,-2.62843,0.077291,0.763349,0.693652,
2,1,0,1,0,26981.6,0.698955,0.698716,2.63467,40,0.0586705,10,0.00184088,-2.57927,0.0794067,0.74301,0.697557,
2,1,0,1,0,26982.4,0.70295,0.702601,2.94435,40,0.0609077,10,0.0020687,-2.53101,0.0801222,0.736375,0.701306,
2,1,0,1,0,26983.2,0.706945,0.70668,3.28171,40,0.063402,10,0.00231912,-2.4839,0.0831917,0.709206,0.705237,
2,1,0,1,0,26984,0.71094,0.710665,3.64348,40,0.0661758,10,0.00258929,-2.43848,0.085705,0.688408,0.709062,
2,1,0,0,0,26984.8,0.714936,0.714705,4.03248,40,0.0692509,10,0.00288203,-2.39443,0.088275,0.668366,0.71293,
2,1,0,1,0,26985.6,0.718931,0.718656,4.45028,40,0.0726474,10,0.00319822,-2.35161,0.0903721,0.652856,0.716698,
2,1,0,1,0,26986.4,0.722927,0.722655,4.89244,40,0.076388,10,0.00353555,-2.31047,0.0935481,0.630692,0.720502,
2,1,0,1,0,26987.2,0.726921,0.726628,5.36278,40,0.080493,10,0.00389675,-2.27061,0.0978629,0.602884,0.724268,
2,1,0,1,0,26988,0.730916,0.730646,5.858,40,0.0849837,10,0.00428013,-2.23225,0.0992006,0.594755,0.728068,
2,1,0,1,0,26988.8,0.734911,0.734627,6.38115,40,0.089882,10,0.00468776,-2.1951,0.103135,0.572065,0.731819,
2,1,0,1,0,26989.6,0.738907,0.738605,6.93062,40,0.095209,10,0.00511899,-2.15923,0.104999,0.561911,0.735556,
2,1,0,0,0,26990.4,0.742902,0.74262,7.50666,40,0.100985,10,0.0055746,-2.12455,0.109851,0.537089,0.739317,
2,1,0,1,0,26991.2,0.746897,0.746637,8.11127,40,0.107234,10,0.00605618,-2.09091,0.11303,0.521986,0.743068,
2,1,0,1,0,26992,0.750892,0.750617,8.74504,40,0.113975,10,0.00656418,-2.05824,0.115831,0.509363,0.746769,
2,1,0,1,0,26992.8,0.754887,0.754609,9.40544,40,0.121234,10,0.00709743,-2.02662,0.118271,0.498855,0.75047,
2,1,0,1,0,26993.6,0.758883,0.758599,10.1022,40,0.129036,10,0.00766355,-1.99558,0.11932,0.49447,0.754154,
2,1,0,0,0,26994.4,0.762878,0.762591,10.8327,40,0.137407,10,0.00826095,-1.96526,0.122075,0.483309,0.757824,
2,1,0,1,0,26995.2,0.766873,0.766582,11.6049,40,0.146379,10,0.00889613,-1.93536,0.123332,0.478383,0.761476,
2,1,0,1,0,26996,0.770868,0.770653,12.4205,40,0.155985,10,0.00957186,-1.90586,0.122053,0.483396,0.765188,
2,1,0,1,0,26996.8,0.774863,0.774577,13.2905,40,0.166262,10,0.0102945,-1.87646,0.123313,0.478456,0.76873,
2,1,0,1,0,26997.6,0.778858,0.778585,14.2269,40,0.177262,10,0.0110768,-1.84689,0.121912,0.483954,0.772325,
2,1,0,0,0,26998.4,0.782854,0.782594,15.214,40,0.189031,10,0.0119064,-1.81776,0.123993,0.475835,0.7759,
2,1,0,1,0,26999.2,0.786849,0.786591,16.2527,40,0.201607,10,0.0127842,-1.78908,0.122019,0.483531,0.779439,
2,1,0,0,0,27000,0.790844,0.790594,17.355,40,0.215041,10,0.0137207,-1.76058,0.122395,0.482047,0.782957,
2,1,0,1,0,27000.8,0.794839,0.794591,18.5159,40,0.229378,10,0.0147126,-1.73245,0.123498,0.477742,0.786444,
2,1,0,1,0,27001.6,0.798834,0.798531,19.7349,40,0.244671,10,0.0157589,-1.70477,0.126957,0.464726,0.789848,
2,1,0,1,0,27002.4,0.802829,0.802613,21.0047,40,0.260951,10,0.0168586,-1.67768,0.126405,0.466753,0.793371,
2,1,0,1,0,27003.2,0.806825,0.806496,22.3341,40,0.278272,10,0.0180123,-1.65103,0.130566,0.45188,0.796669,
2,1,0,0,0,27004,0.81082,0.810507,23.7239,40,0.296683,10,0.0192284,-1.62481,0.131366,0.449126,0.800069,
2,1,0,1,0,27004.8,0.814815,0.814554,25.1222,40,0.316209,10,0.0204634,-1.59994,0.140647,0.41949,0.8035,
2,1,0,1,0,27005.6,0.81881,0.818504,26.5169,40,0.336843,10,0.0217042,-1.57648,0.142125,0.415128,0.806836,
2,1,0,1,0,27006.4,0.822805,0.822538,27.9812,40,0.358625,10,0.0230156,-1.55313,0.147375,0.400339,0.810226,
2,1,0,1,0,27007.2,0.826801,0.82652,29.4677,40,0.38159,10,0.0243557,-1.53065,0.146801,0.401903,0.813555,
2,1,0,0,0,27008,0.830796,0.830565,31.0151,40,0.405767,10,0.02576,-1.50843,0.157971,0.373485,0.816918,
2,1,0,1,0,27008.8,0.834791,0.834514,32.5718,40,0.431172,10,0.0271816,-1.48716,0.157412,0.374814,0.820182,
2,1,0,1,0,27009.6,0.838786,0.838535,34.0382,40,0.457818,10,0.0285422,-1.46803,0.230816,0.255615,0.823558,
2,1,0,1,0,27010.4,0.842781,0.842508,35.2643,40,0.485412,10,0.0297105,-1.45266,0.176482,0.334311,0.826992,
2,1,0,1,0,27011.2,0.846776,0.846572,36.807,40,0.514215,10,0.0311598,-1.43407,0.181351,0.325336,0.830377,
2,1,0,1,0,27011.9,0.849723,0.849471,37.8066,40,0.540443,10,0.0321156,-1.42243,0.0375724,1.5703,0.832836,
2,1,0,0,0,27012.7,0.845728,0.845476,35.426,40,0.569583,10,0.0299518,-1.45068,0.132831,0.444172,0.829889,
2,1,0,1,0,27013.5,0.841732,0.84152,33.5241,40,0.597112,10,0.0282112,-1.47464,0.129015,0.457312,0.826769,
2,1,0,1,0,27014.3,0.837737,0.837485,31.6818,40,0.623152,10,0.0265331,-1.49919,0.131192,0.449723,0.823545,
2,1,0,1,0,27015.1,0.833742,0.833467,29.9493,40,0.647757,10,0.0249618,-1.52361,0.132147,0.446473,0.820289,
2,1,0,1,0,27015.9,0.829747,0.829462,28.2776,40,0.671003,10,0.0234552,-1.54856,0.128037,0.460805,0.81702,
2,1,0,0,0,27016.7,0.825752,0.825509,26.7039,40,0.692954,10,0.0220443,-1.57343,0.135651,0.43494,0.813759,
2,1,0,1,0,27017.5,0.821757,0.821507,25.1444,40,0.713662,10,0.0206563,-1.59956,0.124128,0.475315,0.810443,
2,1,0,1,0,27018.3,0.817761,0.817479,23.6593,40,0.733146,10,0.019341,-1.626,0.128075,0.460668,0.807069,
2,1,0,1,0,27019.1,0.813766,0.813536,22.2549,40,0.751475,10,0.0181051,-1.65258,0.124127,0.475319,0.803744,
2,1,0,1,0,27019.9,0.809771,0.809503,20.8893,40,0.7687,10,0.0169099,-1.68008,0.120901,0.488004,0.800312,
2,1,0,1,0,27020.7,0.805776,0.80552,19.5631,40,0.784844,10,0.0157585,-1.70856,0.119304,0.494535,0.796912,
2,1,0,1,0,27021.5,0.801781,0.801471,18.3063,40,0.79996,10,0.014672,-1.7374,0.120493,0.489656,0.793417,
2,1,0,0,0,27022.3,0.797786,0.797502,17.1174,40,0.814099,10,0.0136512,-1.76656,0.118397,0.498325,0.789971,
2,1,0,1,0,27023,0.79379,0.793502,15.9628,40,0.827301,10,0.0126665,-1.79689,0.113948,0.51778,0.786478,
2,1,0,1,0,27023.8,0.789795,0.789512,14.859,40,0.839603,10,0.0117313,-1.82801,0.110893,0.532043,0.782974,
2,1,0,1,0,27024.6,0.7858,0.785533,13.8173,40,0.851044,10,0.010854,-1.85958,0.11198,0.526878,0.779454,
2,1,0,1,0,27025.4,0.781805,0.78153,12.8233,40,0.861674,10,0.0100218,-1.892,0.107472,0.54898,0.775888,
2,1,0,0,0,27026.2,0.77781,0.777568,11.8926,40,0.871533,10,0.00924732,-1.92472,0.108738,0.542588,0.772335,
2,1,0,1,0,27027,0.773815,0.77352,11.0103,40,0.880669,10,0.00851666,-1.9582,0.10982,0.537245,0.768676,
2,1,0,1,0,27027.8,0.769819,0.769535,10.1875,40,0.889124,10,0.00783962,-1.99193,0.104672,0.563667,0.765052,
2,1,0,1,0,27028.6,0.765824,0.765549,9.40071,40,0.896937,10,0.0071967,-2.02684,0.10599,0.556659,0.761413,
2,1,0,1,0,27029.4,0.761829,0.761524,8.66847,40,0.904144,10,0.00660125,-2.06206,0.103071,0.572423,0.75771,
2,1,0,0,0,27030.2,0.757834,0.757546,7.97998,40,0.910783,10,0.0060452,-2.098,0.102469,0.575782,0.754035,
2,1,0,1,0,27031,0.753839,0.75357,7.33114,40,0.916886,10,0.00552453,-2.13483,0.0979347,0.602442,0.750344,
2,1,0,0,0,27031.8,0.749844,0.749561,6.7208,40,0.922488,10,0.00503765,-2.17258,0.0987405,0.597526,0.746604,
2,1,0,1,0,27032.6,0.745848,0.745576,6.14742,40,0.927619,10,0.00458337,-2.21131,0.0952635,0.619335,0.742871,
2,1,0,1,0,27033.4,0.741853,0.741522,5.60487,40,0.932301,10,0.00415614,-2.25143,0.0913951,0.645549,0.739056,
2,1,0,1,0,27034.2,0.737858,0.737588,5.09761,40,0.936565,10,0.00375993,-2.29263,0.0910456,0.648027,0.735345,
2,1,0,1,0,27035,0.733863,0.733597,4.62506,40,0.940438,10,0.00339293,-2.33488,0.0890301,0.662697,0.731562,
2,1,0,0,0,27035.8,0.729868,0.729618,4.18234,40,0.943945,10,0.00305151,-2.37858,0.0855413,0.689725,0.727778,
2,1,0,1,0,27036.6,0.725872,0.725631,3.77231,40,0.947112,10,0.0027373,-2.42339,0.0844938,0.698276,0.723971,
2,1,0,1,0,27037.4,0.721877,0.721616,3.38833,40,0.949961,10,0.00244507,-2.47001,0.0802784,0.734942,0.720125,
2,1,0,1,0,27038.2,0.717882,0.717633,3.03065,40,0.952515,10,0.0021749,-2.51846,0.07856,0.751018,0.7163,
2,1,0,1,0,27039,0.713887,0.713603,2.70143,40,0.954795,10,0.00192775,-2.56841,0.0755452,0.780989,0.712414,
2,1,0,0,0,27039.8,0.709892,0.709643,2.39983,40,0.956822,10,0.00170302,-2.61982,0.0736358,0.801241,0.708587,
2,1,0,1,0,27040.6,0.705897,0.705571,2.11926,40,0.958616,10,0.00149529,-2.67382,0.0699203,0.843818,0.704639,
2,1,0,1,0,27041.4,0.701901,0.701606,1.86542,40,0.960197,10,0.00130879,-2.72922,0.0682055,0.865033,0.700785,
2,1,0,1,0,27042.2,0.697906,0.697616,1.62953,40,0.961582,10,0.00113679,-2.78794,0.0661192,0.892327,0.696899,
2,1,0,1,0,27043,0.693911,0.693629,1.41892,40,0.962789,10,0.000984206,-2.84804,0.0632162,0.933305,0.693005,
2,1,0,0,0,27043.8,0.689916,0.689645,1.22426,40,0.963835,10,0.000844302,-2.91213,0.0611429,0.964952,0.689106,
2,1,0,1,0,27044.6,0.685921,0.685664,1.05366,40,0.964736,10,0.00072246,-2.9773,0.0581113,1.01529,0.685201,
2,1,0,0,0,27045.4,0.681926,0.681668,0.899438,40,0.965505,10,0.000613118,-3.04603,0.0555915,1.06131,0.681272,
2,1,0,1,0,27046.2,0.67793,0.677648,0.761387,40,0.966158,10,0.000515953,-3.11839,0.0532077,1.10886,0.677313,
2,1,0,1,0,27047,0.673935,0.673679,0.640284,40,0.966708,10,0.000431346,-3.19363,0.0507673,1.16216,0.673397,
2,1,0,1,0,27047.8,0.66994,0.669699,0.534999,40,0.967166,10,0.000358289,-3.27165,0.0485095,1.21626,0.669464,
2,1,0,1,0,27048.6,0.665945,0.665659,0.440721,40,0.967546,10,0.00029337,-3.35584,0.0474602,1.24315,0.665465,
2,1,0,0,0,27049.4,0.66195,0.661664,0.359713,40,0.967856,10,0.00023801,-3.44404,0.0437261,1.34931,0.661506,
2,1,0,1,0,27050.2,0.657955,0.657646,0.290459,40,0.968106,10,0.000191019,-3.53692,0.0414308,1.42406,0.657519,
2,1,0,1,0,27051,0.653959,0.653649,0.230142,40,0.968305,10,0.000150432,-3.638,0.0383036,1.54033,0.653548,
2,1,0,1,0,27051.8,0.649964,0.649693,0.180409,40,0.96846,10,0.000117211,-3.74374,0.0345109,1.70961,0.649614,
2,1,0,1,0,27052.6,0.64597,0.645693,0.136939,40,0.968577,10,8.84204e-05,-3.86347,0.031538,1.87076,0.645633,
2,1,0,0,0,27053.4,0.641974,0.641683,0.100033,40,0.968663,10,6.41894e-05,-3.99986,0.0270772,2.17896,0.641639,
2,1,0,1,0,27054.2,0.637979,0.637705,0.069253,40,0.968721,10,4.4163e-05,-4.15956,0.0218786,2.6967,0.637675,
2,1,0,1,0,27055,0.633983,0.633702,0.0432038,40,0.968757,10,2.73783e-05,-4.36448,0.0177633,3.32145,0.633683,
2,1,0,1,0,27055.8,0.629988,0.629699,0.0217532,40,0.968773,10,1.36979e-05,-4.66248,0.00905791,6.51365,0.629689,
2,1,0,1,0,27056.6,0.625993,0.625695,0.00293272,40,0.968774,10,1.83499e-06,-5.53273,0.00861454,6.84889,0.625694,
2,0,0,0,0,27057.4,0.621998,0.621695,-0.011361,40,0.968761,10,-7.06311e-06,-4.94458,-0.0063286,-9.32275,0.6217,
2,0,0,1,0,27058.2,0.618003,0.617669,-0.0232572,40,0.968738,10,-1.43652e-05,-4.63344,-0.0168666,-3.49804,0.617679,
2,0,0,0,0,27059,0.614008,0.613702,-0.0343465,40,0.968706,10,-2.10785e-05,-4.46412,-0.0394584,-1.49525,0.613717,
2,0,0,1,0,27059.8,0.610012,0.609729,-0.0429881,40,0.968666,10,-2.62111e-05,-4.36665,-0.0454021,-1.2995,0.609748,
2,0,0,1,0,27060.6,0.606017,0.605686,-0.0502709,40,0.96862,10,-3.04484e-05,-4.29868,-0.0698285,-0.844927,0.605708,
2,0,0,1,0,27061.4,0.602022,0.601749,-0.0567156,40,0.968567,10,-3.41285e-05,-4.2463,-0.0935118,-0.630937,0.601774,
2,0,0,1,0,27062.2,0.598027,0.59775,-0.0618093,40,0.968511,10,-3.69465e-05,-4.20895,-0.100816,-0.585222,0.597778,
2,0,0,0,0,27063,0.594032,0.593702,-0.0659376,40,0.96845,10,-3.91473e-05,-4.18087,-0.146539,-0.402622,0.593731,
2,0,0,1,0,27063.8,0.590037,0.589752,-0.0700968,40,0.968386,10,-4.13397e-05,-4.1543,-0.170859,-0.345314,0.589783,
2,0,0,1,0,27064.6,0.586041,0.585759,-0.0748778,40,0.968319,10,-4.38603e-05,-4.12565,-0.233678,-0.252484,0.585792,
2,0,0,1,0,27065.4,0.582046,0.581753,-0.0774393,40,0.968249,10,-4.50506e-05,-4.11104,-0.266004,-0.221801,0.581787,
2,0,0,1,0,27066.2,0.578052,0.577774,-0.0796077,40,0.968177,10,-4.59952e-05,-4.09904,-0.252887,-0.233306,0.577809,
2,0,0,0,0,27067,0.574056,0.57376,-0.0820578,40,0.968103,10,-4.70814e-05,-4.08588,-0.296796,-0.19879,0.573796,
2,0,0,1,0,27067.8,0.570061,0.569786,-0.084384,40,0.968027,10,-4.80808e-05,-4.07374,-0.819667,-0.0719805,0.569823,
2,0,0,1,0,27068.6,0.566065,0.56578,-0.0861826,40,0.96795,10,-4.87604e-05,-4.06458,-0.331741,-0.17785,0.565818,
2,0,0,1,0,27069.4,0.56207,0.561753,-0.0874769,40,0.967871,10,-4.91405e-05,-4.05811,-0.811063,-0.072744,0.561792,
2,0,0,1,0,27070.2,0.558075,0.557781,-0.0891199,40,0.967791,10,-4.97094e-05,-4.05003,-0.465137,-0.126844,0.55782,
2,0,0,1,0,27071,0.55408,0.553796,-0.0907111,40,0.96771,10,-5.02354e-05,-4.04234,-0.339125,-0.173977,0.553836,
2,0,0,1,0,27071.8,0.550085,0.549799,-0.09161,40,0.967627,10,-5.03671e-05,-4.03806,-1.75703,-0.0335794,0.549839,
2,0,0,0,0,27072.6,0.54609,0.545829,-0.0934357,40,0.967544,10,-5.09999e-05,-4.02949,-0.604426,-0.0976133,0.54587,
2,0,0,1,0,27073.4,0.542094,0.541804,-0.0941822,40,0.967459,10,-5.10283e-05,-4.02603,-0.874528,-0.067465,0.541845,
2,0,0,1,0,27074.2,0.538099,0.537786,-0.096415,40,0.967374,10,-5.18507e-05,-4.01586,-1.03802,-0.0568388,0.537829,
2,0,0,1,0,27075,0.534104,0.533832,-0.0965126,40,0.967287,10,-5.15216e-05,-4.01542,-0.564959,-0.104432,0.533875,
2,0,0,1,0,27075.8,0.530109,0.529801,-0.0976744,40,0.9672,10,-5.1748e-05,-4.01022,-0.635447,-0.0928481,0.529844,
2,0,0,0,0,27076.6,0.526114,0.52582,-0.099182,40,0.967112,10,-5.21519e-05,-4.00357,4.81289,0.0122587,0.525863,
2,0,0,1,0,27077.4,0.522119,0.521768,-0.0996385,40,0.967023,10,-5.19882e-05,-4.00157,-0.498344,-0.118392,0.521812,
2,0,0,1,0,27078.2,0.518123,0.517817,-0.10065,40,0.966933,10,-5.21182e-05,-3.99719,-1.09197,-0.0540308,0.517861,
2,0,0,1,0,27079,0.514128,0.513797,-0.102469,40,0.966842,10,-5.26484e-05,-3.98941,-0.704098,-0.0837951,0.513842,
2,0,0,1,0,27079.8,0.510133,0.509815,-0.10241,40,0.96675,10,-5.22101e-05,-3.98966,-0.564739,-0.104473,0.50986,
2,0,0,0,0,27080.6,0.506138,0.505807,-0.105198,40,0.966658,10,-5.32098e-05,-3.97799,5.93057,0.00994845,0.505853,
2,0,0,1,0,27081.4,0.502143,0.501854,-0.105326,40,0.966564,10,-5.28582e-05,-3.97746,-0.551687,-0.106945,0.5019,
2,0,0,0,0,27082.2,0.498148,0.497832,-0.106353,40,0.96647,10,-5.29459e-05,-3.97325,-2.12145,-0.0278111,0.497879,
2,0,0,1,0,27083,0.494152,0.493855,-0.107676,40,0.966374,10,-5.31762e-05,-3.96788,-0.464428,-0.127038,0.493902,
2,0,0,1,0,27083.8,0.490157,0.489839,-0.108803,40,0.966278,10,-5.3296e-05,-3.96336,-0.68842,-0.0857035,0.489887,
2,0,0,1,0,27084.6,0.486162,0.485881,-0.110017,40,0.966181,10,-5.34554e-05,-3.95854,-2.1891,-0.0269517,0.485929,
2,0,0,1,0,27085.4,0.482167,0.481829,-0.111592,40,0.966082,10,-5.37683e-05,-3.95237,-0.536895,-0.109891,0.481878,
2,0,0,0,0,27086.2,0.478172,0.477889,-0.113203,40,0.965983,10,-5.40984e-05,-3.94614,-4.64431,-0.0127037,0.477939,
2,0,0,1,0,27087,0.474177,0.47385,-0.114579,40,0.965882,10,-5.42932e-05,-3.9409,-0.656039,-0.0899337,0.473901,
2,0,0,1,0,27087.8,0.470181,0.469863,-0.115956,40,0.96578,10,-5.44835e-05,-3.93571,-0.8105,-0.0727946,0.469914,
2,0,0,1,0,27088.6,0.466186,0.465873,-0.1175,40,0.965677,10,-5.47403e-05,-3.92996,-0.445798,-0.132347,0.465925,
2,0,0,1,0,27089.4,0.462191,0.461895,-0.118506,40,0.965573,10,-5.47375e-05,-3.92626,-4.06754,-0.0145051,0.461947,
2,0,0,0,0,27090.2,0.458196,0.457873,-0.11914,40,0.965468,10,-5.45512e-05,-3.92394,-0.48226,-0.122341,0.457926,
2,0,0,1,0,27091,0.454201,0.453889,-0.121717,40,0.965361,10,-5.5246e-05,-3.91465,-0.642267,-0.0918622,0.453943,
2,0,0,1,0,27091.8,0.450205,0.449911,-0.122881,40,0.965253,10,-5.52856e-05,-3.91051,-0.866596,-0.0680824,0.449965,
2,0,0,1,0,27092.6,0.44621,0.445884,-0.124651,40,0.965144,10,-5.55799e-05,-3.9043,-0.412216,-0.143129,0.445939,
2,0,0,1,0,27093.4,0.442215,0.441951,-0.127262,40,0.965033,10,-5.62435e-05,-3.8953,-1.02812,-0.0573861,0.442007,
2,0,0,0,0,27094.2,0.43822,0.437935,-0.128102,40,0.964921,10,-5.61006e-05,-3.89244,-1.22423,-0.0481936,0.437992,
2,0,0,1,0,27095,0.434225,0.433899,-0.129853,40,0.964808,10,-5.63431e-05,-3.88655,-0.721708,-0.0817505,0.433957,
2,0,0,0,0,27095.8,0.43023,0.429885,-0.131442,40,0.964693,10,-5.65047e-05,-3.88127,-0.546966,-0.107868,0.429943,
2,0,0,1,0,27096.6,0.426234,0.425932,-0.133414,40,0.964576,10,-5.68255e-05,-3.8748,-0.444978,-0.132591,0.425991,
2,0,0,1,0,27097.4,0.422239,0.421903,-0.135462,40,0.964458,10,-5.71519e-05,-3.86818,-3.8794,-0.0152085,0.421963,
2,0,0,1,0,27098.2,0.418244,0.417947,-0.137701,40,0.964339,10,-5.75517e-05,-3.86106,-0.420247,-0.140393,0.418007,
2,0,0,1,0,27099,0.414249,0.413969,-0.138955,40,0.964218,10,-5.75229e-05,-3.85713,-0.60403,-0.0976772,0.41403,
2,0,0,0,0,27099.8,0.410254,0.409913,-0.141817,40,0.964095,10,-5.81326e-05,-3.84827,-2.45732,-0.0240099,0.409976,
2,0,0,1,0,27100.6,0.406259,0.405968,-0.144615,40,0.963971,10,-5.87093e-05,-3.83979,-0.329636,-0.178986,0.406032,
2,0,0,1,0,27101.4,0.402263,0.401961,-0.145595,40,0.963845,10,-5.85235e-05,-3.83685,-0.681827,-0.0865322,0.402025,
2,0,0,1,0,27102.2,0.398268,0.397981,-0.147894,40,0.963717,10,-5.88591e-05,-3.83005,-0.775303,-0.0760993,0.398046,
2,0,0,1,0,27103,0.394274,0.393968,-0.148964,40,0.963587,10,-5.86871e-05,-3.82692,-0.873525,-0.0675425,0.394034,
2,0,0,0,0,27103.8,0.390278,0.38995,-0.151369,40,0.963456,10,-5.90263e-05,-3.81996,-0.713426,-0.0826996,0.390016,
2,0,0,1,0,27104.6,0.386283,0.385979,-0.154596,40,0.963323,10,-5.96709e-05,-3.8108,-0.460251,-0.128191,0.386047,
2,0,0,1,0,27105.4,0.382287,0.381986,-0.155232,40,0.963189,10,-5.92965e-05,-3.80902,-2.60176,-0.022677,0.382054,
2,0,0,1,0,27106.1,0.378292,0.378007,-0.158401,40,0.963052,10,-5.98769e-05,-3.80024,-0.76162,-0.0774664,0.378077,
2,0,0,1,0,27106.9,0.374297,0.373976,-0.160595,40,0.962915,10,-6.00586e-05,-3.79427,-0.480206,-0.122864,0.374047,
2,0,0,1,0,27107.7,0.370303,0.369991,-0.162044,40,0.962775,10,-5.99546e-05,-3.79037,-0.927519,-0.0636105,0.370062,
2,0,0,1,0,27108.5,0.366307,0.366011,-0.164352,40,0.962634,10,-6.01546e-05,-3.78423,-0.859355,-0.0686561,0.366083,
2,0,0,0,0,27109.3,0.362312,0.361995,-0.166278,40,0.962491,10,-6.01917e-05,-3.77917,-0.436515,-0.135161,0.362069,
2,0,0,1,0,27110.1,0.358316,0.357984,-0.168786,40,0.962345,10,-6.04226e-05,-3.77266,-0.950877,-0.062048,0.358058,
2,0,0,1,0,27110.9,0.354321,0.354005,-0.171081,40,0.962198,10,-6.05635e-05,-3.7668,-0.665682,-0.0886309,0.354081,
2,0,0,1,0,27111.7,0.350327,0.349989,-0.172875,40,0.96205,10,-6.05042e-05,-3.76227,-0.605354,-0.0974637,0.350065,
2,0,0,1,0,27112.5,0.346331,0.346028,-0.174954,40,0.961899,10,-6.05389e-05,-3.75708,-2.56774,-0.0229774,0.346105,
2,0,0,0,0,27113.3,0.342336,0.342024,-0.178502,40,0.961747,10,-6.10519e-05,-3.74836,-0.402915,-0.146433,0.342102,
2,0,0,1,0,27114.1,0.338341,0.338009,-0.180178,40,0.961592,10,-6.0902e-05,-3.7443,-0.81698,-0.0722172,0.338088,
2,0,0,1,0,27114.9,0.334345,0.334082,-0.182477,40,0.961435,10,-6.09623e-05,-3.73879,-1.33312,-0.044257,0.334162,
2,0,0,1,0,27115.7,0.33035,0.330098,-0.184595,40,0.961277,10,-6.09346e-05,-3.73378,-0.451742,-0.130605,0.33018,
2,0,0,1,0,27116.5,0.326355,0.326057,-0.187643,40,0.961116,10,-6.11821e-05,-3.72667,-0.521919,-0.113044,0.326139,
2,0,0,0,0,27117.3,0.32236,0.322058,-0.19009,40,0.960953,10,-6.12202e-05,-3.72104,-0.932116,-0.0632968,0.322142,
2,0,0,1,0,27118.1,0.318365,0.31803,-0.191516,40,0.960788,10,-6.09077e-05,-3.7178,-0.743145,-0.0793923,0.318114,
2,0,0,0,0,27118.9,0.31437,0.31409,-0.195507,40,0.960622,10,-6.14068e-05,-3.70884,-1.29802,-0.0454538,0.314177,
2,0,0,1,0,27119.7,0.310374,0.310092,-0.197537,40,0.960453,10,-6.12546e-05,-3.70435,-0.43218,-0.136517,0.310178,
2,0,0,1,0,27120.5,0.306379,0.306073,-0.199624,40,0.960282,10,-6.10996e-05,-3.69979,-0.943347,-0.0625433,0.306161,
2,0,0,1,0,27121.3,0.302385,0.302061,-0.202908,40,0.960109,10,-6.12904e-05,-3.6927,-0.809222,-0.0729095,0.30215,
2,0,0,1,0,27122.1,0.298389,0.298102,-0.204383,40,0.959935,10,-6.09271e-05,-3.68955,-0.498317,-0.118398,0.298192,
2,0,0,0,0,27122.9,0.294394,0.294077,-0.206875,40,0.959757,10,-6.08372e-05,-3.68429,-2.99828,-0.0196779,0.294168,
2,0,0,1,0,27123.7,0.290398,0.290137,-0.210879,40,0.959578,10,-6.11836e-05,-3.67597,-0.610749,-0.0966027,0.290229,
2,0,0,1,0,27124.5,0.286403,0.286071,-0.211666,40,0.959397,10,-6.05516e-05,-3.67435,-0.704712,-0.0837221,0.286164,
2,0,0,1,0,27125.3,0.282408,0.282117,-0.21545,40,0.959213,10,-6.0782e-05,-3.66665,-0.991839,-0.0594855,0.282212,
2,0,0,1,0,27126.1,0.278414,0.278111,-0.218622,40,0.959028,10,-6.08014e-05,-3.66031,-0.534123,-0.110461,0.278207,
2,0,0,0,0,27126.9,0.274418,0.274145,-0.222559,40,0.95884,10,-6.10134e-05,-3.65255,-0.891689,-0.0661665,0.274243,
2,0,0,1,0,27127.7,0.270423,0.270121,-0.223906,40,0.95865,10,-6.04817e-05,-3.64993,-0.623911,-0.0945648,0.270219,
2,0,0,1,0,27128.5,0.266427,0.266086,-0.226532,40,0.958458,10,-6.02768e-05,-3.64487,-0.918721,-0.0642197,0.266185,
2,0,0,1,0,27129.3,0.262432,0.26215,-0.228884,40,0.958263,10,-6.00018e-05,-3.64038,-1.3604,-0.0433697,0.26225,
2,0,0,1,0,27130.1,0.258437,0.258165,-0.231579,40,0.958067,10,-5.97857e-05,-3.6353,-0.591015,-0.0998282,0.258267,
2,0,0,0,0,27130.9,0.254442,0.254122,-0.232475,40,0.957869,10,-5.90771e-05,-3.63362,-0.94115,-0.0626893,0.254225,
2,0,0,1,0,27131.7,0.250447,0.25013,-0.237013,40,0.957668,10,-5.92839e-05,-3.62523,-0.836331,-0.0705462,0.250234,
2,0,0,0,0,27132.5,0.246452,0.246159,-0.239243,40,0.957466,10,-5.88917e-05,-3.62116,-0.718285,-0.0821402,0.246264,
2,0,0,1,0,27133.3,0.242456,0.242093,-0.242248,40,0.957261,10,-5.86466e-05,-3.61574,-0.876896,-0.0672828,0.2422,
2,0,0,1,0,27134.1,0.238461,0.238134,-0.245447,40,0.957055,10,-5.84493e-05,-3.61004,-0.753026,-0.0783505,0.238242,
2,0,0,1,0,27134.9,0.234467,0.234171,-0.24669,40,0.956846,10,-5.77677e-05,-3.60785,-1.95724,-0.0301444,0.23428,
2,0,0,1,0,27135.7,0.230471,0.23017,-0.249212,40,0.956635,10,-5.73611e-05,-3.60343,-0.721027,-0.0818277,0.23028,
2,0,0,0,0,27136.5,0.226476,0.226179,-0.251699,40,0.956423,10,-5.69288e-05,-3.59912,-1.07405,-0.0549322,0.226289,
2,0,0,1,0,27137.3,0.222481,0.222158,-0.254221,40,0.956208,10,-5.64771e-05,-3.59479,-0.864852,-0.0682198,0.222269,
2,0,0,1,0,27138.1,0.218485,0.218144,-0.256966,40,0.955991,10,-5.60554e-05,-3.59013,-1.90818,-0.0309195,0.218257,
2,0,0,1,0,27138.9,0.21449,0.214181,-0.260302,40,0.955772,10,-5.57518e-05,-3.58452,-0.437825,-0.134757,0.214296,
2,0,0,1,0,27139.7,0.210496,0.210194,-0.263357,40,0.955551,10,-5.53562e-05,-3.57945,-0.875452,-0.0673938,0.21031,
2,0,0,0,0,27140.5,0.2065,0.206181,-0.267611,40,0.955326,10,-5.51765e-05,-3.5725,-0.908409,-0.0649487,0.206299,
2,0,0,1,0,27141.3,0.202505,0.202194,-0.269291,40,0.9551,10,-5.44491e-05,-3.56978,-0.643966,-0.0916198,0.202313,
2,0,0,1,0,27142.1,0.198509,0.198182,-0.272788,40,0.954871,10,-5.40619e-05,-3.56417,-0.679389,-0.0868427,0.198302,
2,0,0,1,0,27142.9,0.194514,0.194205,-0.276596,40,0.954638,10,-5.37164e-05,-3.55815,-0.724816,-0.0813999,0.194327,
2,0,0,1,0,27143.7,0.190519,0.190158,-0.280393,40,0.954403,10,-5.3319e-05,-3.55223,-0.573668,-0.102847,0.190281,
2,0,0,0,0,27144.5,0.186524,0.1862,-0.28531,40,0.954164,10,-5.31247e-05,-3.54468,-0.91363,-0.0645776,0.186326,
2,0,0,1,0,27145.3,0.182529,0.182247,-0.28961,40,0.953921,10,-5.27806e-05,-3.53819,-0.372215,-0.15851,0.182374,
2,0,0,0,0,27146.1,0.178534,0.178232,-0.296592,40,0.953673,10,-5.28623e-05,-3.52784,-0.400882,-0.147176,0.178363,
2,0,0,1,0,27146.9,0.174538,0.174213,-0.302824,40,0.953421,10,-5.2756e-05,-3.51881,-0.433846,-0.135993,0.174346,
2,0,0,1,0,27147.7,0.170543,0.170241,-0.310964,40,0.953163,10,-5.29388e-05,-3.50729,-0.294164,-0.200568,0.170378,
2,0,0,1,0,27148.5,0.166549,0.166233,-0.320433,40,0.952898,10,-5.32665e-05,-3.49426,-0.327324,-0.180249,0.166374,
2,0,0,1,0,27149.3,0.162553,0.162274,-0.331718,40,0.952625,10,-5.38293e-05,-3.47923,-0.21783,-0.270853,0.16242,
2,0,0,0,0,27150.1,0.158558,0.158221,-0.344708,40,0.952341,10,-5.45402e-05,-3.46255,-0.205567,-0.287012,0.158373,
2,0,0,1,0,27150.9,0.154563,0.154223,-0.365442,40,0.952044,10,-5.63595e-05,-3.43718,-0.172627,-0.341778,0.154383,
2,0,0,1,0,27151.7,0.150567,0.150231,-0.390064,40,0.95173,10,-5.85997e-05,-3.40886,-0.116429,-0.506748,0.150403,
2,0,0,1,0,27152.5,0.146572,0.146232,-0.423558,40,0.951393,10,-6.19379e-05,-3.37309,-0.104448,-0.564872,0.146419,
2,0,0,1,0,27153.3,0.142578,0.142273,-0.466481,40,0.951026,10,-6.63678e-05,-3.33117,-0.0847393,-0.696253,0.142479,
2,0,0,0,0,27154.1,0.138582,0.138261,-0.518137,40,0.950619,10,-7.16383e-05,-3.28556,-0.0910779,-0.647797,0.138489,
2,0,0,1,0,27154.9,0.134587,0.13425,-0.573538,40,0.950169,10,-7.69974e-05,-3.24144,-0.0928973,-0.63511,0.134502,
2,0,0,1,0,27155.7,0.130591,0.130232,-0.627085,40,0.949675,10,-8.16663e-05,-3.20267,-0.116128,-0.508062,0.130507,
2,0,0,1,0,27156.5,0.126596,0.126283,-0.666678,40,0.949143,10,-8.41901e-05,-3.17608,-0.17629,-0.334676,0.126576,
2,0,0,1,0,27157.3,0.122602,0.122268,-0.696522,40,0.948583,10,-8.5162e-05,-3.15707,-0.335563,-0.175824,0.122574,
2,0,0,1,0,27158.1,0.118607,0.118272,-0.711656,40,0.948005,10,-8.41689e-05,-3.14773,-0.511429,-0.115363,0.118585,
2,0,0,1,0,27158.9,0.114611,0.114304,-0.716425,40,0.94742,10,-8.18899e-05,-3.14483,4.41246,0.0133712,0.114619,
2,0,0,0,0,27159.7,0.110616,0.110283,-0.714181,40,0.946834,10,-7.87616e-05,-3.14619,2.86656,0.0205821,0.110597,
2,0,0,1,0,27160.5,0.10662,0.106277,-0.709434,40,0.946251,10,-7.53965e-05,-3.14909,1.09107,0.0540755,0.106589,
2,0,0,1,0,27161.3,0.102625,0.102287,-0.702251,40,0.945673,10,-7.18311e-05,-3.15351,0.59986,0.0983562,0.102596,
2,0,0,1,0,27162.1,0.0986305,0.0982842,-0.692395,40,0.945102,10,-6.80515e-05,-3.15965,0.744507,0.079247,0.0985889,
2,0,0,1,0,27162.9,0.0946351,0.094317,-0.680559,40,0.944539,10,-6.41883e-05,-3.16713,0.56314,0.10477,0.0946165,
2,0,0,0,0,27163.7,0.0906399,0.0902949,-0.673012,40,0.943984,10,-6.07696e-05,-3.17198,0.530414,0.111234,0.090591,
2,0,0,1,0,27164.5,0.0866448,0.086295,-0.66162,40,0.943438,10,-5.70945e-05,-3.17939,0.680789,0.0866642,0.0865862,
2,0,0,1,0,27165.3,0.0826492,0.0823391,-0.651685,40,0.9429,10,-5.36592e-05,-3.18596,0.632197,0.0933253,0.0826258,
2,0,0,1,0,27166.1,0.0786544,0.0783314,-0.642217,40,0.942371,10,-5.03057e-05,-3.19232,0.79796,0.0739386,0.078614,
2,0,0,1,0,27166.9,0.0746596,0.0743264,-0.632729,40,0.941848,10,-4.70284e-05,-3.19878,0.624701,0.0944452,0.0746048,
2,0,0,0,0,27167.7,0.0706641,0.0703338,-0.623713,40,0.941332,10,-4.38681e-05,-3.20502,0.619256,0.0952756,0.0706082,
2,0,0,1,0,27168.5,0.0666689,0.0663573,-0.616693,40,0.940824,10,-4.0922e-05,-3.20993,0.697216,0.0846223,0.0666286,
2,0,0,0,0,27169.3,0.0626737,0.0623468,-0.605682,40,0.940321,10,-3.77623e-05,-3.21776,0.628719,0.0938416,0.0626133,
2,0,0,1,0,27170.1,0.0586783,0.058315,-0.599166,40,0.939825,10,-3.49404e-05,-3.22245,0.530268,0.111265,0.0585786,
2,0,0,1,0,27170.9,0.0546835,0.0543864,-0.590042,40,0.939337,10,-3.20903e-05,-3.22912,0.829954,0.0710883,0.054646,
2,0,0,1,0,27171.7,0.0506886,0.0503455,-0.58018,40,0.938855,10,-2.92094e-05,-3.23644,0.515475,0.114457,0.0506007,
2,0,0,1,0,27172.5,0.046693,0.0463824,-0.57071,40,0.938382,10,-2.64709e-05,-3.24358,0.494363,0.119345,0.0466335,
2,0,0,0,0,27173.3,0.0426979,0.0423698,-0.561081,40,0.937916,10,-2.37729e-05,-3.25097,0.693922,0.085024,0.0426167,
2,0,0,1,0,27174.1,0.0387022,0.0383355,-0.55089,40,0.937458,10,-2.11187e-05,-3.25894,0.386289,0.152736,0.0385779,
2,0,0,1,0,27174.9,0.0347074,0.0343773,-0.540431,40,0.93701,10,-1.85785e-05,-3.26726,0.521436,0.113149,0.0346151,
2,0,0,1,0,27175.7,0.0307126,0.0304138,-0.529026,40,0.936569,10,-1.60897e-05,-3.27652,0.533044,0.110685,0.0306466,
2,0,0,1,0,27176.5,0.0267172,0.0263916,-0.521342,40,0.936135,10,-1.37591e-05,-3.28288,0.419397,0.140678,0.026621,
2,0,0,0,0,27177.3,0.022722,0.0223886,-0.51274,40,0.935709,10,-1.14795e-05,-3.2901,0.807597,0.0730562,0.0226142,
2,0,0,1,0,27178.1,0.0187268,0.0184089,-0.505534,40,0.935289,10,-9.30632e-06,-3.29625,0.678861,0.0869103,0.0186313,
2,0,0,1,0,27178.9,0.0147313,0.0144288,-0.500813,40,0.934875,10,-7.22614e-06,-3.30032,1.11552,0.05289,0.0146492,
2,0,0,1,0,27179.7,0.0107365,0.0104136,-0.495593,40,0.934464,10,-5.16091e-06,-3.30488,1.5019,0.0392837,0.0106317,
2,0,0,1,0,27180.5,0.00674163,0.00641271,-0.493309,40,0.934056,10,-3.16345e-06,-3.30688,2.11071,0.0279526,0.00662977,
2,0,0,0,0,27181.3,0.00274612,0.0024434,-0.493136,40,0.933649,10,-1.20493e-06,-3.30703,-1.91583,-0.0307961,0.00266038,
2,0,0,1,0,27181.8,0.000274105,-0.00010224,-0.493926,40,0.933395,10,5.04992e-08,-3.30634, , ,0.000115087,