File: Figure_codes/Fig_3-5/workspace_calculate_alpha_eff/20221101_1-115_003_TrumpetPlot_ParaChange_from10_every3_16_CV_C01_58.csv
mode,ox/red,error,control changes,counter inc.,time/s,control/V,Ewe/V,<I>/mA,cycle number,(Q-Qo)/C,I Range,P/W,log(|I|),Tafel slope mV/dec,alpha_eff,E-IR/V,
2,0,0,0,0,39032.6,2.44065e-05,-0.00042076,-0.0892175,59,0.0000000E+000,10,3.75392e-08,-4.04955, , ,-0.000381504,
2,1,0,0,0,39033.4,0.00379485,0.00348472,0.15161,59,9.58849e-05,10,5.28319e-07,-3.81927,0.0346131,1.70456,0.00341801,
2,1,0,1,0,39034.1,0.00779002,0.00746866,0.175881,59,0.000239433,10,1.3136e-06,-3.75478,0.077342,0.762845,0.00739128,
2,1,0,0,0,39034.9,0.0117852,0.0114484,0.191822,59,0.000398641,10,2.19605e-06,-3.7171,0.11887,0.496339,0.011364,
2,1,0,1,0,39035.7,0.0157806,0.0154526,0.208873,59,0.000569982,10,3.22762e-06,-3.68012,0.143734,0.410482,0.0153607,
2,1,0,1,0,39036.5,0.0197754,0.0194214,0.220515,59,0.000752256,10,4.2827e-06,-3.65656,0.144009,0.409697,0.0193243,
2,1,0,1,0,39037.3,0.0237704,0.0234412,0.234379,59,0.000945519,10,5.49413e-06,-3.63008,0.153639,0.384016,0.0233381,
2,1,0,1,0,39038.1,0.0277659,0.0273969,0.249132,59,0.00114951,10,6.82545e-06,-3.60357,0.166108,0.35519,0.0272873,
2,1,0,0,0,39038.9,0.0317611,0.0314307,0.261405,59,0.00136497,10,8.21614e-06,-3.58269,0.154783,0.381179,0.0313156,
2,1,0,1,0,39039.7,0.0357567,0.0354233,0.276056,59,0.00159189,10,9.77882e-06,-3.559,0.242268,0.243532,0.0353018,
2,1,0,1,0,39040.5,0.0397516,0.0393841,0.289865,59,0.00182993,10,1.14161e-05,-3.5378,0.168537,0.350071,0.0392565,
2,1,0,1,0,39041.3,0.0437465,0.0434439,0.303554,59,0.00207958,10,1.31875e-05,-3.51776,0.193488,0.304928,0.0433103,
2,1,0,1,0,39042.1,0.0477413,0.0473628,0.318233,59,0.00233957,10,1.50724e-05,-3.49725,0.2185,0.270023,0.0472228,
2,1,0,0,0,39042.9,0.0517369,0.0513631,0.329639,59,0.0026099,10,1.69313e-05,-3.48196,0.232157,0.254138,0.0512181,
2,1,0,1,0,39043.7,0.0557321,0.0554298,0.342862,59,0.00289048,10,1.90047e-05,-3.46488,0.322566,0.182908,0.0552789,
2,1,0,1,0,39044.5,0.0597277,0.0594239,0.355113,59,0.00317997,10,2.11022e-05,-3.44963,0.300969,0.196034,0.0592676,
2,1,0,1,0,39045.3,0.0637226,0.0634117,0.363119,59,0.00347856,10,2.3026e-05,-3.43995,0.294531,0.200318,0.0632519,
2,1,0,1,0,39046.1,0.0677174,0.0673835,0.374274,59,0.00378592,10,2.52199e-05,-3.42681,0.440478,0.133945,0.0672188,
2,1,0,0,0,39046.9,0.0717128,0.0713815,0.382958,59,0.00410044,10,2.73361e-05,-3.41685,0.359254,0.164229,0.071213,
2,1,0,1,0,39047.7,0.075708,0.075375,0.390548,59,0.00442198,10,2.94375e-05,-3.40833,0.456881,0.129137,0.0752031,
2,1,0,0,0,39048.5,0.0797031,0.0793886,0.400237,59,0.00475,10,3.17743e-05,-3.39768,0.406691,0.145073,0.0792125,
2,1,0,1,0,39049.3,0.0836986,0.0833167,0.408259,59,0.00508477,10,3.40148e-05,-3.38906,0.384361,0.153501,0.083137,
2,1,0,1,0,39050.1,0.0876935,0.0873386,0.418561,59,0.00542734,10,3.65565e-05,-3.37824,0.347094,0.169983,0.0871544,
2,1,0,1,0,39050.9,0.0916883,0.0913857,0.431915,59,0.00577891,10,3.94709e-05,-3.3646,0.251371,0.234713,0.0911957,
2,1,0,1,0,39051.7,0.0956838,0.0953318,0.447948,59,0.00614279,10,4.27037e-05,-3.34877,0.246014,0.239824,0.0951347,
2,1,0,0,0,39052.5,0.099679,0.0993709,0.468909,59,0.00652101,10,4.65959e-05,-3.32891,0.216713,0.27225,0.0991646,
2,1,0,1,0,39053.3,0.103674,0.10334,0.49075,59,0.00691593,10,5.07141e-05,-3.30914,0.187098,0.315343,0.103124,
2,1,0,1,0,39054.1,0.10767,0.107368,0.510666,59,0.00732935,10,5.4829e-05,-3.29186,0.232639,0.253612,0.107143,
2,1,0,1,0,39054.9,0.111664,0.111314,0.53262,59,0.00775849,10,5.92881e-05,-3.27358,0.267037,0.220944,0.11108,
2,1,0,1,0,39055.7,0.115659,0.115343,0.546383,59,0.00820134,10,6.30217e-05,-3.2625,0.299913,0.196724,0.115103,
2,1,0,0,0,39056.5,0.119655,0.119316,0.561163,59,0.00865668,10,6.69558e-05,-3.25091,0.661222,0.0892288,0.119069,
2,1,0,1,0,39057.3,0.12365,0.123368,0.572076,59,0.00912048,10,7.05758e-05,-3.24255,0.415968,0.141838,0.123116,
2,1,0,1,0,39058.1,0.127646,0.127311,0.58009,59,0.00959302,10,7.38518e-05,-3.2365,0.787843,0.074888,0.127056,
2,1,0,1,0,39058.9,0.131641,0.131282,0.584853,59,0.0100714,10,7.67807e-05,-3.23295,-1.47501,-0.0399997,0.131025,
2,1,0,1,0,39059.7,0.135635,0.135294,0.575432,59,0.0105476,10,7.78526e-05,-3.24001,-0.342226,-0.172401,0.135041,
2,1,0,0,0,39060.5,0.139631,0.139319,0.545489,59,0.0110092,10,7.59968e-05,-3.26321,-0.127766,-0.461782,0.139079,
2,1,0,1,0,39061.3,0.143626,0.143307,0.499564,59,0.0114393,10,7.15909e-05,-3.30141,-0.0826132,-0.714172,0.143087,
2,1,0,0,0,39062.1,0.147621,0.14729,0.439294,59,0.011826,10,6.47034e-05,-3.35724,-0.0720922,-0.818397,0.147096,
2,1,0,1,0,39062.9,0.151617,0.151267,0.388717,59,0.0121681,10,5.87999e-05,-3.41037,-0.0764382,-0.771865,0.151096,
2,1,0,1,0,39063.7,0.155612,0.155269,0.350711,59,0.0124731,10,5.44547e-05,-3.45505,-0.109032,-0.541126,0.155115,
2,1,0,1,0,39064.5,0.159606,0.159238,0.325035,59,0.0127532,10,5.17579e-05,-3.48807,-0.149972,-0.393406,0.159095,
2,1,0,1,0,39065.3,0.163602,0.16326,0.307628,59,0.0130169,10,5.02235e-05,-3.51197,-0.175384,-0.336404,0.163125,
2,1,0,0,0,39066.1,0.167597,0.167283,0.297204,59,0.0132693,10,4.97171e-05,-3.52695,-0.329369,-0.179131,0.167152,
2,1,0,1,0,39066.9,0.171592,0.171287,0.28756,59,0.0135145,10,4.92551e-05,-3.54127,-0.325052,-0.181509,0.17116,
2,1,0,1,0,39067.7,0.175588,0.175237,0.282204,59,0.0137535,10,4.94525e-05,-3.54944,-0.579654,-0.101785,0.175113,
2,1,0,1,0,39068.5,0.179582,0.179232,0.277303,59,0.0139881,10,4.97016e-05,-3.55705,-0.771156,-0.0765086,0.17911,
2,1,0,1,0,39069.3,0.183577,0.18329,0.273817,59,0.0142196,10,5.01879e-05,-3.56254,-0.667088,-0.0884442,0.18317,
2,1,0,0,0,39070.1,0.187573,0.187245,0.271443,59,0.0144481,10,5.08263e-05,-3.56632,-0.969909,-0.0608305,0.187125,
2,1,0,1,0,39070.9,0.191568,0.191232,0.26701,59,0.0146742,10,5.10609e-05,-3.57347,-0.908549,-0.0649387,0.191114,
2,1,0,0,0,39071.7,0.195563,0.195241,0.265663,59,0.0148985,10,5.18683e-05,-3.57567,-0.5361,-0.110054,0.195124,
2,1,0,1,0,39072.5,0.199559,0.199255,0.2641,59,0.0151207,10,5.26232e-05,-3.57823,-21.2847,-0.00277194,0.199139,
2,1,0,1,0,39073.3,0.203553,0.203223,0.260207,59,0.0153414,10,5.28799e-05,-3.58468,-0.7986,-0.0738793,0.203108,
2,1,0,1,0,39074.1,0.207548,0.207272,0.260055,59,0.0155607,10,5.39022e-05,-3.58493,11.7645,0.00501509,0.207158,
2,1,0,1,0,39074.9,0.211544,0.211248,0.258539,59,0.0157788,10,5.46158e-05,-3.58747,-2.26215,-0.0260813,0.211134,
2,1,0,0,0,39075.7,0.215539,0.215184,0.257283,59,0.0159958,10,5.53632e-05,-3.58959,-0.870241,-0.0677973,0.215071,
2,1,0,1,0,39076.5,0.219535,0.219228,0.25689,59,0.0162115,10,5.63176e-05,-3.59025,-2.10898,-0.0279756,0.219115,
2,1,0,1,0,39077.3,0.223529,0.223206,0.254359,59,0.0164262,10,5.67745e-05,-3.59455,-3.56117,-0.0165676,0.223095,
2,1,0,1,0,39078.1,0.227524,0.22719,0.25348,59,0.0166397,10,5.75882e-05,-3.59606,-1.08985,-0.0541359,0.227078,
2,1,0,1,0,39078.9,0.23152,0.231182,0.251922,59,0.0168522,10,5.82398e-05,-3.59873,-20.7682,-0.00284089,0.231071,
2,1,0,0,0,39079.7,0.235515,0.235182,0.249412,59,0.0170641,10,5.86573e-05,-3.60308,-1.22138,-0.0483061,0.235073,
2,1,0,1,0,39080.5,0.23951,0.23918,0.250794,59,0.0172749,10,5.99851e-05,-3.60068,-12.586,-0.00468777,0.23907,
2,1,0,1,0,39081.3,0.243506,0.243205,0.248583,59,0.0174847,10,6.04565e-05,-3.60453,-245.63,-0.000240198,0.243095,
2,1,0,1,0,39082.1,0.2475,0.24716,0.248568,59,0.0176939,10,6.14359e-05,-3.60456,-0.974274,-0.0605579,0.24705,
2,1,0,1,0,39082.9,0.251495,0.251184,0.246646,59,0.0179021,10,6.19536e-05,-3.60793,-17.6265,-0.00334723,0.251075,
2,1,0,0,0,39083.7,0.255491,0.255204,0.245962,59,0.0181097,10,6.27706e-05,-3.60913,-1.43994,-0.0409739,0.255096,
2,1,0,1,0,39084.5,0.259486,0.259157,0.245198,59,0.0183168,10,6.35449e-05,-3.61048,-1.64515,-0.0358631,0.259049,
2,1,0,0,0,39085.3,0.263481,0.263167,0.244921,59,0.018523,10,6.4455e-05,-3.61097,7.05795,0.00835937,0.263059,
2,1,0,1,0,39086.1,0.267477,0.267187,0.24335,59,0.0187287,10,6.502e-05,-3.61377,-1.09689,-0.0537882,0.26708,
2,1,0,1,0,39086.9,0.271471,0.271125,0.243071,59,0.0189336,10,6.59026e-05,-3.61427,-24.461,-0.00241201,0.271018,
2,1,0,1,0,39087.7,0.275466,0.275158,0.2413,59,0.0191375,10,6.63958e-05,-3.61744,-2.0019,-0.0294721,0.275052,
2,1,0,1,0,39088.5,0.279462,0.279199,0.241041,59,0.0193408,10,6.72982e-05,-3.61791,-2.97646,-0.0198222,0.279093,
2,1,0,0,0,39089.3,0.283457,0.283159,0.240877,59,0.0195433,10,6.82066e-05,-3.6182,-2.64632,-0.0222951,0.283054,
2,1,0,1,0,39090.1,0.287452,0.28717,0.239327,59,0.0197452,10,6.87276e-05,-3.62101,-4.39233,-0.0134325,0.287065,
2,1,0,1,0,39090.9,0.291448,0.29111,0.239282,59,0.0199465,10,6.96572e-05,-3.62109,-1.17235,-0.0503261,0.291004,
2,1,0,1,0,39091.7,0.295442,0.295082,0.237905,59,0.0201466,10,7.02013e-05,-3.6236,2.26044,0.0261011,0.294977,
2,1,0,1,0,39092.5,0.299437,0.299092,0.23629,59,0.0203462,10,7.06725e-05,-3.62655,-1.24156,-0.0475207,0.298988,
2,1,0,0,0,39093.3,0.303433,0.303146,0.236175,59,0.020545,10,7.15954e-05,-3.62677,-3.97056,-0.0148594,0.303042,
2,1,0,1,0,39094.1,0.307428,0.307108,0.235338,59,0.0207433,10,7.22742e-05,-3.62831,-3.99231,-0.0147784,0.307004,
2,1,0,1,0,39094.9,0.311424,0.31108,0.235869,59,0.0209412,10,7.33743e-05,-3.62733,-1.94325,-0.0303616,0.310977,
2,1,0,1,0,39095.7,0.315418,0.315081,0.23305,59,0.021138,10,7.34295e-05,-3.63255,-1.18755,-0.0496823,0.314978,
2,1,0,1,0,39096.5,0.319413,0.319094,0.233081,59,0.021334,10,7.4375e-05,-3.63249,14.4509,0.00408279,0.318992,
2,1,0,0,0,39097.3,0.323409,0.323087,0.231765,59,0.0215297,10,7.48803e-05,-3.63495,-0.863195,-0.0683507,0.322985,
2,1,0,1,0,39098.1,0.327404,0.327093,0.231708,59,0.0217243,10,7.579e-05,-3.63506,1.44462,0.0408412,0.326991,
2,1,0,0,0,39098.9,0.331399,0.331088,0.2295,59,0.0219186,10,7.59845e-05,-3.63922,-2.26798,-0.0260143,0.330987,
2,1,0,1,0,39099.7,0.335395,0.335076,0.230856,59,0.0221124,10,7.73545e-05,-3.63666,-1.47666,-0.0399551,0.334975,
2,1,0,1,0,39100.5,0.339389,0.339095,0.229847,59,0.0223057,10,7.79398e-05,-3.63856,-12.0119,-0.0049118,0.338994,
2,1,0,1,0,39101.3,0.343384,0.343137,0.229068,59,0.0224985,10,7.86016e-05,-3.64004,112.387,0.000524971,0.343036,
2,1,0,1,0,39102.1,0.34738,0.347025,0.229624,59,0.0226909,10,7.96853e-05,-3.63898,-3.78411,-0.0155915,0.346924,
2,1,0,0,0,39102.9,0.351375,0.351104,0.228547,59,0.0228829,10,8.02436e-05,-3.64103,-8.66602,-0.0068082,0.351003,
2,1,0,1,0,39103.7,0.35537,0.355079,0.227666,59,0.0230745,10,8.08396e-05,-3.6427,-1.15335,-0.0511555,0.354979,
2,1,0,1,0,39104.5,0.359366,0.359044,0.227809,59,0.0232654,10,8.17934e-05,-3.64243,1.13226,0.052108,0.358943,
2,1,0,1,0,39105.3,0.36336,0.36305,0.225513,59,0.0234565,10,8.18724e-05,-3.64683,-1.59251,-0.0370484,0.362951,
2,1,0,1,0,39106.1,0.367355,0.367009,0.22622,59,0.0236469,10,8.30246e-05,-3.64547,-2.79556,-0.0211049,0.366909,
2,1,0,0,0,39106.9,0.371351,0.371045,0.22552,59,0.0238368,10,8.36779e-05,-3.64682,-28.6251,-0.00206113,0.370946,
2,1,0,1,0,39107.7,0.375346,0.375042,0.224916,59,0.0240264,10,8.43528e-05,-3.64798,-2.25293,-0.0261881,0.374943,
2,1,0,1,0,39108.5,0.379342,0.379069,0.225844,59,0.0242155,10,8.56104e-05,-3.64619,-6.86412,-0.00859543,0.37897,
2,1,0,1,0,39109.3,0.383336,0.383019,0.224765,59,0.0244044,10,8.60892e-05,-3.64827,-3.84523,-0.0153437,0.38292,
2,1,0,1,0,39110.1,0.387331,0.387018,0.224902,59,0.0245928,10,8.7041e-05,-3.64801,-2.13001,-0.0276994,0.386919,
2,1,0,0,0,39110.9,0.391327,0.391027,0.224264,59,0.0247806,10,8.76932e-05,-3.64924,-5.55689,-0.0106175,0.390929,
2,1,0,1,0,39111.7,0.395322,0.395001,0.222498,59,0.0249683,10,8.7887e-05,-3.65267,-7.87571,-0.00749139,0.394903,
2,1,0,0,0,39112.5,0.399317,0.399006,0.223919,59,0.0251558,10,8.9345e-05,-3.64991,4.35551,0.0135461,0.398907,
2,1,0,1,0,39113.3,0.403313,0.403003,0.223081,59,0.025343,10,8.99024e-05,-3.65154,-12.7653,-0.00462192,0.402905,
2,1,0,1,0,39114.1,0.407307,0.40704,0.223819,59,0.0255301,10,9.11033e-05,-3.6501,5.33004,0.0110693,0.406942,
2,1,0,1,0,39114.9,0.411302,0.410953,0.224255,59,0.0257171,10,9.21581e-05,-3.64926,-5.05931,-0.0116617,0.410854,
2,1,0,1,0,39115.7,0.415298,0.414955,0.223367,59,0.025904,10,9.26873e-05,-3.65098,4.13535,0.0142672,0.414857,
2,1,0,0,0,39116.5,0.419293,0.419004,0.223407,59,0.0260906,10,9.36083e-05,-3.6509,-1.1844,-0.0498144,0.418906,
2,1,0,1,0,39117.2,0.423288,0.422974,0.222289,59,0.0262769,10,9.40224e-05,-3.65308,3.90193,0.0151207,0.422876,
2,1,0,1,0,39118,0.427283,0.426982,0.221521,59,0.0264632,10,9.45853e-05,-3.65459,24.5431,0.00240393,0.426884,
2,1,0,1,0,39118.8,0.431278,0.430962,0.222567,59,0.0266493,10,9.59178e-05,-3.65254,9.06886,0.00650578,0.430864,
2,1,0,1,0,39119.6,0.435273,0.43497,0.222405,59,0.0268353,10,9.67393e-05,-3.65286,1.9176,0.0307676,0.434872,
2,1,0,0,0,39120.4,0.439269,0.439012,0.222706,59,0.0270216,10,9.77705e-05,-3.65227,-1.55016,-0.0380605,0.438914,
2,1,0,1,0,39121.2,0.443264,0.442981,0.222715,59,0.0272076,10,9.86584e-05,-3.65225,2.87488,0.0205226,0.442883,
2,1,0,0,0,39122,0.447259,0.446973,0.222439,59,0.0273935,10,9.94243e-05,-3.65279,-2.61032,-0.0226026,0.446875,
2,1,0,1,0,39122.8,0.451254,0.450933,0.222495,59,0.0275796,10,0.00010033,-3.65268,-4.92555,-0.0119784,0.450835,
2,1,0,1,0,39123.6,0.455249,0.454952,0.223025,59,0.0277655,10,0.000101465,-3.65165,1.99521,0.0295708,0.454853,
2,1,0,1,0,39124.4,0.459244,0.458931,0.222757,59,0.0279519,10,0.00010223,-3.65217,-3.41674,-0.0172679,0.458833,
2,1,0,1,0,39125.2,0.46324,0.462966,0.223859,59,0.028138,10,0.000103639,-3.65003,1.85044,0.0318844,0.462868,
2,1,0,0,0,39126,0.467235,0.466879,0.223688,59,0.0283242,10,0.000104435,-3.65036,46.9526,0.00125659,0.466781,
2,1,0,1,0,39126.8,0.471231,0.470922,0.224088,59,0.0285107,10,0.000105528,-3.64958,5.08024,0.0116136,0.470823,
2,1,0,1,0,39127.6,0.475225,0.474948,0.224503,59,0.0286975,10,0.000106627,-3.64878,1.73549,0.0339961,0.474849,
2,1,0,1,0,39128.4,0.47922,0.478923,0.224371,59,0.0288846,10,0.000107457,-3.64903,-3.09372,-0.0190709,0.478824,
2,1,0,1,0,39129.2,0.483216,0.48291,0.225695,59,0.0290721,10,0.00010899,-3.64648,-4.6198,-0.0127711,0.482811,
2,1,0,0,0,39130,0.487211,0.486896,0.225704,59,0.0292598,10,0.000109894,-3.64646,1.06069,0.055624,0.486797,
2,1,0,1,0,39130.8,0.491206,0.490853,0.225838,59,0.0294482,10,0.000110853,-3.6462,2.99932,0.0196711,0.490753,
2,1,0,1,0,39131.6,0.495201,0.494889,0.22709,59,0.0296371,10,0.000112384,-3.6438,3.17593,0.0185772,0.494789,
2,1,0,1,0,39132.4,0.499196,0.498839,0.22764,59,0.0298265,10,0.000113556,-3.64275,1.65907,0.035562,0.498739,
2,1,0,1,0,39133.2,0.503191,0.502858,0.228508,59,0.0300166,10,0.000114907,-3.6411,2.80722,0.0210172,0.502758,
2,1,0,0,0,39134,0.507187,0.506885,0.229027,59,0.0302072,10,0.00011609,-3.64011,2.1483,0.0274635,0.506784,
2,1,0,1,0,39134.8,0.511182,0.510847,0.230633,59,0.0303986,10,0.000117818,-3.63708,5.38176,0.010963,0.510745,
2,1,0,0,0,39135.6,0.515177,0.514854,0.232902,59,0.0305912,10,0.00011991,-3.63283,10.3311,0.00571089,0.514752,
2,1,0,1,0,39136.4,0.519173,0.518853,0.232646,59,0.0307842,10,0.000120709,-3.6333,0.740706,0.0796537,0.518751,
2,1,0,1,0,39137.2,0.523167,0.522891,0.233739,59,0.0309783,10,0.00012222,-3.63127,2.87849,0.0204968,0.522788,
2,1,0,1,0,39138,0.527162,0.526858,0.23558,59,0.0311735,10,0.000124117,-3.62786,1.04712,0.0563452,0.526754,
2,1,0,1,0,39138.8,0.531158,0.530857,0.237372,59,0.0313699,10,0.00012601,-3.62457,1.12199,0.0525852,0.530752,
2,1,0,0,0,39139.6,0.535153,0.534864,0.239222,59,0.0315676,10,0.000127951,-3.6212,6.18742,0.00953548,0.534759,
2,1,0,1,0,39140.4,0.539148,0.538843,0.240487,59,0.0317663,10,0.000129585,-3.61891,1.25662,0.0469514,0.538737,
2,1,0,1,0,39141.2,0.543143,0.54282,0.241993,59,0.0319664,10,0.000131359,-3.6162,1.00017,0.05899,0.542714,
2,1,0,1,0,39142,0.547138,0.546846,0.243828,59,0.0321679,10,0.000133337,-3.61292,1.35529,0.0435331,0.546739,
2,1,0,1,0,39142.8,0.551133,0.550839,0.246058,59,0.0323707,10,0.000135538,-3.60896,0.829917,0.0710914,0.55073,
2,1,0,0,0,39143.6,0.555129,0.554829,0.247974,59,0.0325757,10,0.000137583,-3.60559,1.66308,0.0354763,0.55472,
2,1,0,1,0,39144.4,0.559124,0.558826,0.251207,59,0.0327825,10,0.000140381,-3.59997,0.697306,0.0846113,0.558715,
2,1,0,1,0,39145.2,0.56312,0.562833,0.253559,59,0.0329914,10,0.000142711,-3.59592,0.641917,0.0919122,0.562721,
2,1,0,1,0,39146,0.567114,0.566831,0.256731,59,0.0332029,10,0.000145523,-3.59052,0.851679,0.0692749,0.566718,
2,1,0,1,0,39146.8,0.571109,0.570807,0.259972,59,0.0334169,10,0.000148394,-3.58507,0.581752,0.101418,0.570693,
2,1,0,0,0,39147.6,0.575105,0.574838,0.264369,59,0.0336337,10,0.000151969,-3.57779,0.633958,0.0930661,0.574722,
2,1,0,1,0,39148.4,0.5791,0.578781,0.268291,59,0.0338538,10,0.000155282,-3.57139,0.753491,0.0783022,0.578663,
2,1,0,0,0,39149.2,0.583095,0.582818,0.272605,59,0.0340771,10,0.000158879,-3.56447,0.447611,0.131811,0.582698,
2,1,0,1,0,39150,0.58709,0.586791,0.27834,59,0.0343045,10,0.000163327,-3.55543,0.429214,0.137461,0.586669,
2,1,0,1,0,39150.8,0.591085,0.590782,0.285106,59,0.0345362,10,0.000168436,-3.54499,0.46508,0.12686,0.590657,
2,1,0,1,0,39151.6,0.59508,0.594774,0.291086,59,0.0347728,10,0.00017313,-3.53598,0.378775,0.155765,0.594646,
2,1,0,1,0,39152.4,0.599076,0.598816,0.297823,59,0.0350147,10,0.000178341,-3.52604,0.331709,0.177867,0.598685,
2,1,0,0,0,39153.2,0.603071,0.602732,0.306089,59,0.0352626,10,0.00018449,-3.51415,0.352782,0.167242,0.602597,
2,1,0,1,0,39154,0.607066,0.606796,0.314919,59,0.0355176,10,0.000191091,-3.5018,0.294388,0.200416,0.606657,
2,1,0,1,0,39154.8,0.611061,0.610768,0.325057,59,0.0357805,10,0.000198534,-3.48804,0.305345,0.193224,0.610625,
2,1,0,1,0,39155.6,0.615056,0.614779,0.337406,59,0.036052,10,0.00020743,-3.47185,0.21028,0.280578,0.614631,
2,1,0,1,0,39156.4,0.619051,0.618749,0.350687,59,0.0363341,10,0.000216987,-3.45508,0.226077,0.260973,0.618595,
2,1,0,0,0,39157.2,0.623047,0.622755,0.367684,59,0.036628,10,0.000228977,-3.43452,0.194896,0.302725,0.622593,
2,1,0,1,0,39158,0.627042,0.626745,0.38595,59,0.0369356,10,0.000241892,-3.41347,0.169326,0.34844,0.626575,
2,1,0,1,0,39158.8,0.631037,0.630743,0.408144,59,0.0372597,10,0.000257434,-3.38919,0.162712,0.362605,0.630564,
2,1,0,1,0,39159.6,0.635032,0.634714,0.433986,59,0.0376023,10,0.000275457,-3.36252,0.146098,0.403837,0.634523,
2,1,0,1,0,39160.4,0.639027,0.638766,0.462304,59,0.0379667,10,0.000295304,-3.33507,0.133845,0.440809,0.638562,
2,1,0,1,0,39161.2,0.643022,0.642743,0.49663,59,0.0383566,10,0.000319205,-3.30397,0.125344,0.470703,0.642524,
2,1,0,1,0,39162,0.647018,0.646734,0.537777,59,0.0387762,10,0.000347799,-3.2694,0.114507,0.515254,0.646497,
2,1,0,0,0,39162.8,0.651013,0.650752,0.582198,59,0.0392298,10,0.000378866,-3.23493,0.105557,0.55894,0.650495,
2,1,0,1,0,39163.6,0.655008,0.654705,0.638584,59,0.0397238,10,0.000418084,-3.19478,0.0989956,0.595986,0.654424,
2,1,0,1,0,39164.4,0.659003,0.65873,0.701153,59,0.0402653,10,0.000461871,-3.15419,0.0934177,0.631572,0.658422,
2,1,0,1,0,39165.2,0.662998,0.662723,0.776425,59,0.0408617,10,0.000514555,-3.1099,0.0879736,0.670656,0.662382,
2,1,0,1,0,39166,0.666994,0.666662,0.860917,59,0.0415217,10,0.00057394,-3.06504,0.0851809,0.692644,0.666283,
2,1,0,0,0,39166.8,0.670989,0.670684,0.958239,59,0.042255,10,0.000642675,-3.01853,0.0849137,0.694823,0.670262,
2,1,0,1,0,39167.6,0.674984,0.674717,1.07066,59,0.0430717,10,0.000722392,-2.97035,0.0816379,0.722704,0.674246,
2,1,0,1,0,39168.4,0.67898,0.678681,1.19774,59,0.0439837,10,0.000812882,-2.92164,0.0791101,0.745796,0.678154,
2,1,0,1,0,39169.2,0.682974,0.682723,1.34135,59,0.0450044,10,0.00091577,-2.87246,0.0792589,0.744396,0.682133,
2,1,0,1,0,39170,0.686969,0.686695,1.50326,59,0.0461469,10,0.00103228,-2.82297,0.0812135,0.72648,0.686033,
2,1,0,0,0,39170.8,0.690965,0.690681,1.68229,59,0.0474253,10,0.00116193,-2.7741,0.0788868,0.747907,0.689941,
2,1,0,1,0,39171.6,0.69496,0.694674,1.88367,59,0.0488554,10,0.00130854,-2.72499,0.0809712,0.728654,0.693845,
2,1,0,0,0,39172.4,0.698955,0.69865,2.10117,59,0.0504528,10,0.00146798,-2.67754,0.0827587,0.712916,0.697725,
2,1,0,1,0,39173.2,0.70295,0.702668,2.34012,59,0.0522336,10,0.00164433,-2.63076,0.0836984,0.704912,0.701639,
2,1,0,1,0,39174,0.706945,0.70664,2.60011,59,0.0542133,10,0.00183734,-2.58501,0.0859628,0.686343,0.705496,
2,1,0,1,0,39174.8,0.71094,0.710654,2.88059,59,0.0564084,10,0.0020471,-2.54052,0.088876,0.663847,0.709387,
2,1,0,1,0,39175.6,0.714936,0.714669,3.1793,59,0.0588352,10,0.00227215,-2.49767,0.091062,0.64791,0.71327,
2,1,0,0,0,39176.4,0.718931,0.718689,3.49987,59,0.0615097,10,0.00251531,-2.45595,0.0942486,0.626004,0.717149,
2,1,0,1,0,39177.2,0.722927,0.722656,3.84293,59,0.0644496,10,0.00277712,-2.41534,0.095433,0.618235,0.720965,
2,1,0,1,0,39178,0.726921,0.726666,4.20578,59,0.0676705,10,0.0030562,-2.37615,0.100734,0.5857,0.724816,
2,1,0,1,0,39178.8,0.730916,0.730647,4.58786,59,0.0711889,10,0.0033521,-2.33839,0.101976,0.578566,0.728628,
2,1,0,1,0,39179.6,0.734911,0.734595,4.99246,59,0.075023,10,0.00366744,-2.30169,0.103836,0.568206,0.732399,
2,1,0,0,0,39180.4,0.738907,0.738589,5.4208,59,0.0791897,10,0.00400375,-2.26594,0.10994,0.536658,0.736204,
2,1,0,1,0,39181.2,0.742902,0.742598,5.86805,59,0.0837054,10,0.0043576,-2.23151,0.110857,0.532217,0.740016,
2,1,0,1,0,39182,0.746897,0.746622,6.3402,59,0.0885896,10,0.00473374,-2.1979,0.114338,0.516014,0.743832,
2,1,0,1,0,39182.8,0.750892,0.750624,6.8353,59,0.093859,10,0.00513074,-2.16524,0.117822,0.500753,0.747616,
2,1,0,1,0,39183.6,0.754887,0.754602,7.35603,59,0.0995336,10,0.00555087,-2.13336,0.119179,0.495054,0.751366,
2,1,0,0,0,39184.4,0.758883,0.758599,7.90223,59,0.105636,10,0.00599462,-2.10225,0.121928,0.483892,0.755122,
2,1,0,1,0,39185.2,0.762878,0.762574,8.4746,59,0.112184,10,0.00646252,-2.07188,0.123392,0.478152,0.758846,
2,1,0,0,0,39186,0.766873,0.766604,9.07584,59,0.119202,10,0.00695757,-2.04211,0.127599,0.462384,0.762611,
2,1,0,1,0,39186.8,0.770868,0.77057,9.71189,59,0.126714,10,0.0074837,-2.0127,0.125724,0.469281,0.766297,
2,1,0,1,0,39187.6,0.774863,0.77458,10.386,59,0.134748,10,0.00804478,-1.98355,0.127467,0.462866,0.770011,
2,1,0,1,0,39188.4,0.778858,0.778613,11.0974,59,0.143337,10,0.0086406,-1.95478,0.126244,0.46735,0.77373,
2,1,0,1,0,39189.2,0.782854,0.782579,11.8551,59,0.152513,10,0.00927758,-1.92609,0.130637,0.451632,0.777363,
2,1,0,0,0,39190,0.786849,0.786589,12.6617,59,0.162312,10,0.00995956,-1.89751,0.125188,0.471291,0.781017,
2,1,0,1,0,39190.8,0.790844,0.790572,13.5254,59,0.172779,10,0.0106928,-1.86885,0.126141,0.467729,0.784621,
2,1,0,1,0,39191.6,0.794839,0.794555,14.4416,59,0.183957,10,0.0114746,-1.84038,0.124784,0.472817,0.7882,
2,1,0,1,0,39192.4,0.798834,0.79857,15.4383,59,0.195896,10,0.0123286,-1.8114,0.123447,0.477936,0.791777,
2,1,0,1,0,39193.2,0.802829,0.802546,16.4829,59,0.208653,10,0.0132283,-1.78297,0.124422,0.474191,0.795294,
2,1,0,0,0,39194,0.806825,0.806555,17.5701,59,0.222264,10,0.0141713,-1.75522,0.127992,0.460967,0.798824,
2,1,0,1,0,39194.8,0.81082,0.810499,18.7162,59,0.236768,10,0.0151694,-1.72778,0.127355,0.463273,0.802263,
2,1,0,1,0,39195.6,0.814815,0.814534,19.9091,59,0.252204,10,0.0162166,-1.70095,0.129384,0.456006,0.805774,
2,1,0,1,0,39196.4,0.81881,0.818564,21.1504,59,0.268616,10,0.0173129,-1.67468,0.134882,0.437419,0.809258,
2,1,0,1,0,39197.2,0.822805,0.822546,22.4773,59,0.286048,10,0.0184886,-1.64826,0.130416,0.4524,0.812656,
2,1,0,0,0,39198,0.826801,0.826576,23.8083,59,0.30455,10,0.0196794,-1.62327,0.137712,0.428432,0.816101,
2,1,0,1,0,39198.8,0.830796,0.830539,25.0462,59,0.324109,10,0.0208018,-1.60126,0.156126,0.377901,0.819519,
2,1,0,0,0,39199.5,0.834791,0.834525,26.4465,59,0.344696,10,0.0220702,-1.57763,0.146201,0.403554,0.822889,
2,1,0,1,0,39200.3,0.838786,0.838504,27.8926,59,0.366415,10,0.0233881,-1.55451,0.146468,0.402818,0.826232,
2,1,0,1,0,39201.1,0.842781,0.842522,29.3637,59,0.389306,10,0.0247395,-1.53219,0.153578,0.384169,0.829602,
2,1,0,1,0,39201.9,0.846776,0.846502,30.8328,59,0.413371,10,0.0261,-1.51099,0.167243,0.35278,0.832936,
2,1,0,0,0,39202.6,0.849723,0.849482,31.7979,59,0.435376,10,0.0270118,-1.4976,0.0531919,1.10919,0.835491,
2,1,0,1,0,39203.4,0.845728,0.845462,29.6944,59,0.459873,10,0.0251055,-1.52732,0.118346,0.498538,0.832397,
2,1,0,0,0,39204.2,0.841732,0.841493,28.0168,59,0.482904,10,0.0235759,-1.55258,0.129365,0.456073,0.829166,
2,1,0,1,0,39205,0.837737,0.837494,26.3286,59,0.504603,10,0.02205,-1.57957,0.110798,0.532501,0.82591,
2,1,0,1,0,39205.8,0.833742,0.833447,24.6913,59,0.524952,10,0.0205789,-1.60746,0.129478,0.455675,0.822583,
2,1,0,1,0,39206.6,0.829747,0.8295,23.208,59,0.54407,10,0.019251,-1.63436,0.124203,0.47503,0.819289,
2,1,0,1,0,39207.4,0.825752,0.825474,21.8186,59,0.562039,10,0.0180107,-1.66117,0.128713,0.458383,0.815873,
2,1,0,0,0,39208.2,0.821757,0.821466,20.5322,59,0.578947,10,0.0168665,-1.68757,0.126749,0.465486,0.812432,
2,1,0,1,0,39209,0.817761,0.817458,19.2798,59,0.59484,10,0.0157604,-1.7149,0.126587,0.466083,0.808975,
2,1,0,1,0,39209.8,0.813766,0.813465,18.0561,59,0.609742,10,0.014688,-1.74338,0.12166,0.484959,0.805521,
2,1,0,1,0,39210.6,0.809771,0.809494,16.9081,59,0.623702,10,0.013687,-1.77191,0.119342,0.494378,0.802054,
2,1,0,1,0,39211.4,0.805776,0.805497,15.7894,59,0.636749,10,0.0127183,-1.80164,0.111999,0.526792,0.79855,
2,1,0,0,0,39212.2,0.801781,0.801469,14.6994,59,0.648911,10,0.0117811,-1.8327,0.117722,0.501181,0.795001,
2,1,0,1,0,39213,0.797786,0.797532,13.7231,59,0.66025,10,0.0109446,-1.86255,0.120808,0.488377,0.791494,
2,1,0,1,0,39213.8,0.79379,0.79355,12.8036,59,0.670834,10,0.0101603,-1.89267,0.118886,0.496272,0.787916,
2,1,0,1,0,39214.6,0.789795,0.7895,11.9151,59,0.680699,10,0.00940694,-1.9239,0.113748,0.51869,0.784258,
2,1,0,1,0,39215.4,0.7858,0.785479,11.0797,59,0.689875,10,0.00870287,-1.95547,0.115494,0.510851,0.780604,
2,1,0,0,0,39216.2,0.781805,0.781552,10.2865,59,0.698401,10,0.00803941,-1.98773,0.112065,0.526479,0.777026,
2,1,0,1,0,39217,0.77781,0.777572,9.54512,59,0.706312,10,0.00742201,-2.02022,0.113653,0.519122,0.773372,
2,1,0,0,0,39217.8,0.773814,0.773534,8.84473,59,0.713649,10,0.00684169,-2.05332,0.109071,0.540933,0.769642,
2,1,0,1,0,39218.6,0.769819,0.769578,7.93011,59,0.720354,10,0.00610284,-2.10072,0.0767331,0.768899,0.766089,
2,1,0,1,0,39219.4,0.765824,0.765559,7.35128,59,0.72645,10,0.00562783,-2.13364,0.113132,0.521515,0.762324,
2,1,0,1,0,39220.2,0.761829,0.761516,6.7977,59,0.732094,10,0.00517655,-2.16764,0.107896,0.546824,0.758525,
2,1,0,1,0,39221,0.757834,0.757508,6.27457,59,0.737307,10,0.00475304,-2.20242,0.107696,0.547839,0.754747,
2,1,0,0,0,39221.8,0.753839,0.753552,5.78162,59,0.742115,10,0.00435675,-2.23795,0.106945,0.551683,0.751008,
2,1,0,1,0,39222.6,0.749844,0.749561,5.3198,59,0.746541,10,0.00398752,-2.2741,0.103464,0.570248,0.747221,
2,1,0,1,0,39223.4,0.745848,0.74557,4.88198,59,0.750608,10,0.00363986,-2.3114,0.0992948,0.594191,0.743422,
2,1,0,1,0,39224.2,0.741853,0.741519,4.46889,59,0.754335,10,0.00331376,-2.3498,0.0986652,0.597982,0.739553,
2,1,0,1,0,39225,0.737858,0.737568,4.08175,59,0.757742,10,0.00301056,-2.38915,0.0961734,0.613475,0.735772,
2,1,0,0,0,39225.8,0.733863,0.733591,3.7182,59,0.76085,10,0.00272764,-2.42967,0.0921173,0.640487,0.731955,
2,1,0,1,0,39226.6,0.729868,0.729585,3.37491,59,0.763675,10,0.00246229,-2.47174,0.0909298,0.648853,0.7281,
2,1,0,1,0,39227.4,0.725872,0.725603,3.05296,59,0.766235,10,0.00221524,-2.51528,0.0870184,0.678018,0.72426,
2,1,0,1,0,39228.2,0.721877,0.721545,2.75328,59,0.768547,10,0.00198661,-2.56015,0.0837123,0.704794,0.720334,
2,1,0,1,0,39229,0.717882,0.717579,2.47253,59,0.770626,10,0.00177424,-2.60686,0.0818035,0.721241,0.716491,
2,1,0,0,0,39229.8,0.713887,0.713599,2.21031,59,0.772489,10,0.00157728,-2.65555,0.0789877,0.746952,0.712626,
2,1,0,1,0,39230.6,0.709892,0.709598,1.96681,59,0.774149,10,0.00139564,-2.70624,0.0736967,0.800579,0.708732,
2,1,0,0,0,39231.4,0.705897,0.705573,1.7413,59,0.775623,10,0.00122861,-2.75913,0.0732916,0.805003,0.704807,
2,1,0,1,0,39232.2,0.701901,0.701607,1.53302,59,0.776922,10,0.00107558,-2.81445,0.0686259,0.859734,0.700933,
2,1,0,1,0,39233,0.697906,0.69763,1.34171,59,0.778063,10,0.000936016,-2.87234,0.0662793,0.890173,0.69704,
2,1,0,1,0,39233.8,0.693911,0.693635,1.16755,59,0.779058,10,0.000809856,-2.93272,0.0630628,0.935575,0.693121,
2,1,0,1,0,39234.6,0.689916,0.689651,1.00856,59,0.779919,10,0.000695557,-2.9963,0.0600356,0.982749,0.689208,
2,1,0,0,0,39235.4,0.685921,0.685624,0.864168,59,0.780659,10,0.000592494,-3.0634,0.0575856,1.02456,0.685244,
2,1,0,1,0,39236.2,0.681926,0.681655,0.735108,59,0.781291,10,0.00050109,-3.13365,0.0546589,1.07942,0.681331,
2,1,0,1,0,39237,0.67793,0.677635,0.618265,59,0.781824,10,0.000418958,-3.20883,0.0514456,1.14684,0.677363,
2,1,0,1,0,39237.8,0.673935,0.673615,0.517628,59,0.782271,10,0.000348682,-3.28598,0.0491786,1.19971,0.673387,
2,1,0,1,0,39238.6,0.66994,0.669678,0.42823,59,0.782641,10,0.000286776,-3.36832,0.0458024,1.28814,0.66949,
2,1,0,0,0,39239.4,0.665945,0.6656,0.347826,59,0.782944,10,0.000231513,-3.45864,0.0440718,1.33872,0.665447,
2,1,0,1,0,39240.2,0.66195,0.661667,0.279172,59,0.783187,10,0.000184719,-3.55413,0.0391175,1.50828,0.661544,
2,1,0,0,0,39241,0.657955,0.657646,0.219597,59,0.783379,10,0.000144417,-3.65837,0.0359047,1.64324,0.65755,
2,1,0,1,0,39241.8,0.653959,0.653645,0.167086,59,0.783527,10,0.000109215,-3.77706,0.032092,1.83847,0.653572,
2,1,0,1,0,39242.6,0.649964,0.649676,0.123992,59,0.783636,10,8.05544e-05,-3.90661,0.02791,2.11394,0.649622,
2,1,0,1,0,39243.4,0.64597,0.645666,0.0865126,59,0.783713,10,5.58583e-05,-4.06292,0.0236745,2.49213,0.645628,
2,1,0,1,0,39244.2,0.641974,0.641717,0.0545522,59,0.783763,10,3.5007e-05,-4.26319,0.0165706,3.56053,0.641693,
2,1,0,0,0,39245,0.637979,0.637702,0.0289519,59,0.783789,10,1.84627e-05,-4.53832,0.00958207,6.15733,0.637689,
2,1,0,1,0,39245.8,0.633983,0.633685,0.00562336,59,0.783795,10,3.56344e-06,-5.25,0.00546204,10.8018,0.633682,
2,1,0,1,0,39246.6,0.629988,0.629724,-0.0132834,59,0.783785,10,-8.36488e-06,-4.87669,-0.00456955,-12.9116,0.62973,
2,0,0,1,0,39247.4,0.625993,0.62571,-0.0286187,59,0.783762,10,-1.7907e-05,-4.54335,-0.0187947,-3.13918,0.625723,
2,0,0,1,0,39248.2,0.621998,0.621722,-0.0406156,59,0.783727,10,-2.52516e-05,-4.39131,-0.0305991,-1.92816,0.62174,
2,0,0,0,0,39249,0.618003,0.617703,-0.0523483,59,0.783683,10,-3.23357e-05,-4.2811,-0.0451293,-1.30735,0.617726,
2,0,0,1,0,39249.8,0.614008,0.613692,-0.0614942,59,0.78363,10,-3.77385e-05,-4.21117,-0.0750018,-0.786647,0.61372,
2,0,0,1,0,39250.6,0.610012,0.609726,-0.0698761,59,0.783571,10,-4.26053e-05,-4.15567,-0.0761442,-0.774845,0.609757,
2,0,0,1,0,39251.4,0.606017,0.605713,-0.0757778,59,0.783506,10,-4.58996e-05,-4.12046,-0.133528,-0.441854,0.605746,
2,0,0,1,0,39252.2,0.602022,0.601714,-0.0815975,59,0.783436,10,-4.90983e-05,-4.08832,-0.143448,-0.4113,0.60175,
2,0,0,0,0,39253,0.598027,0.597686,-0.0863407,59,0.783361,10,-5.16046e-05,-4.06378,-0.186235,-0.316804,0.597724,
2,0,0,1,0,39253.8,0.594032,0.593724,-0.0906869,59,0.783284,10,-5.3843e-05,-4.04246,-0.19979,-0.29531,0.593764,
2,0,0,0,0,39254.6,0.590037,0.589713,-0.0948123,59,0.783203,10,-5.59121e-05,-4.02314,-0.255371,-0.231037,0.589755,
2,0,0,1,0,39255.4,0.586041,0.585738,-0.0974358,59,0.783119,10,-5.70718e-05,-4.01128,-0.483043,-0.122142,0.585781,
2,0,0,1,0,39256.2,0.582046,0.581736,-0.100096,59,0.783033,10,-5.82296e-05,-3.99958,-0.282038,-0.209192,0.58178,
2,0,0,1,0,39257,0.578052,0.577737,-0.102264,59,0.782945,10,-5.90815e-05,-3.99028,-0.392526,-0.150308,0.577782,
2,0,0,1,0,39257.8,0.574056,0.573742,-0.103998,59,0.782856,10,-5.96679e-05,-3.98298,-0.507974,-0.116148,0.573787,
2,0,0,0,0,39258.6,0.570061,0.569761,-0.106337,59,0.782765,10,-6.05869e-05,-3.97331,-1.54974,-0.0380709,0.569808,
2,0,0,1,0,39259.4,0.566065,0.565734,-0.107508,59,0.782673,10,-6.08209e-05,-3.96856,-0.4564,-0.129273,0.565781,
2,0,0,1,0,39260.2,0.56207,0.561748,-0.109697,59,0.782579,10,-6.16219e-05,-3.95981,-0.579427,-0.101825,0.561797,
2,0,0,1,0,39261,0.558075,0.557759,-0.110202,59,0.782484,10,-6.14665e-05,-3.95781,-0.627771,-0.0939834,0.557808,
2,0,0,1,0,39261.8,0.55408,0.55373,-0.111779,59,0.782388,10,-6.18953e-05,-3.95164,-1.25612,-0.0469701,0.553779,
2,0,0,0,0,39262.6,0.550085,0.549766,-0.112612,59,0.782291,10,-6.19104e-05,-3.94841,-4.107,-0.0143657,0.549815,
2,0,0,1,0,39263.4,0.54609,0.545793,-0.113668,59,0.782194,10,-6.20391e-05,-3.94436,-0.781924,-0.0754549,0.545843,
2,0,0,1,0,39264.2,0.542094,0.541805,-0.114038,59,0.782095,10,-6.17862e-05,-3.94295,-1.75316,-0.0336534,0.541855,
2,0,0,1,0,39265,0.538099,0.537795,-0.116662,59,0.781996,10,-6.27399e-05,-3.93307,-0.901962,-0.065413,0.537846,
2,0,0,1,0,39265.8,0.534104,0.533822,-0.116489,59,0.781896,10,-6.21845e-05,-3.93371,-0.452636,-0.130348,0.533873,
2,0,0,0,0,39266.6,0.530109,0.529806,-0.117988,59,0.781795,10,-6.25105e-05,-3.92816,-1.59935,-0.0368901,0.529858,
2,0,0,1,0,39267.4,0.526114,0.525817,-0.118572,59,0.781693,10,-6.23472e-05,-3.92602,-1.67773,-0.0351667,0.525869,
2,0,0,0,0,39268.2,0.522119,0.521792,-0.119698,59,0.781591,10,-6.24577e-05,-3.92191,-1.87005,-0.03155,0.521845,
2,0,0,1,0,39269,0.518123,0.517821,-0.120916,59,0.781488,10,-6.2613e-05,-3.91752,-0.830743,-0.0710207,0.517874,
2,0,0,1,0,39269.8,0.514128,0.513835,-0.121535,59,0.781384,10,-6.24489e-05,-3.9153,-1.31815,-0.0447598,0.513888,
2,0,0,1,0,39270.6,0.510133,0.509821,-0.122458,59,0.781279,10,-6.24317e-05,-3.91201,-1.08185,-0.054536,0.509874,
2,0,0,1,0,39271.4,0.506138,0.505846,-0.123485,59,0.781173,10,-6.24645e-05,-3.90839,7.93072,0.00743942,0.5059,
2,0,0,0,0,39272.2,0.502143,0.501854,-0.125473,59,0.781066,10,-6.29691e-05,-3.90145,-0.638083,-0.0924645,0.50191,
2,0,0,1,0,39273,0.498148,0.497826,-0.125914,59,0.780958,10,-6.26834e-05,-3.89992,-0.9151,-0.0644738,0.497881,
2,0,0,1,0,39273.8,0.494152,0.493855,-0.126458,59,0.78085,10,-6.24516e-05,-3.89806,-0.707106,-0.0834387,0.49391,
2,0,0,1,0,39274.6,0.490157,0.489893,-0.127581,59,0.780741,10,-6.2501e-05,-3.89421,-0.886316,-0.0665677,0.489949,
2,0,0,1,0,39275.4,0.486162,0.485845,-0.12911,59,0.780631,10,-6.27275e-05,-3.88904,-1.28668,-0.0458543,0.485902,
2,0,0,0,0,39276.2,0.482167,0.481847,-0.130641,59,0.78052,10,-6.29487e-05,-3.88392,-2.35348,-0.0250692,0.481904,
2,0,0,1,0,39277,0.478172,0.477891,-0.131283,59,0.780407,10,-6.27388e-05,-3.88179,-0.857448,-0.0688088,0.477949,
2,0,0,0,0,39277.8,0.474177,0.473865,-0.133012,59,0.780294,10,-6.30297e-05,-3.87611,-1.75774,-0.0335658,0.473924,
2,0,0,1,0,39278.6,0.470181,0.469887,-0.134355,59,0.78018,10,-6.31316e-05,-3.87175,-0.450365,-0.131005,0.469946,
2,0,0,1,0,39279.4,0.466186,0.465887,-0.134854,59,0.780065,10,-6.28268e-05,-3.87014,-1.18696,-0.0497069,0.465946,
2,0,0,1,0,39280.2,0.462191,0.461889,-0.13764,59,0.779948,10,-6.35743e-05,-3.86126,-1.17678,-0.0501367,0.46195,
2,0,0,1,0,39281,0.458196,0.457906,-0.138032,59,0.779831,10,-6.32055e-05,-3.86002,-0.933884,-0.063177,0.457967,
2,0,0,0,0,39281.8,0.454201,0.453935,-0.140221,59,0.779712,10,-6.36511e-05,-3.85319,-0.926534,-0.0636782,0.453996,
2,0,0,1,0,39282.6,0.450205,0.449914,-0.140883,59,0.779592,10,-6.33852e-05,-3.85114,-1.2825,-0.0460038,0.449975,
2,0,0,1,0,39283.3,0.44621,0.44587,-0.141967,59,0.77947,10,-6.32988e-05,-3.84781,-0.478461,-0.123312,0.445933,
2,0,0,1,0,39284.1,0.442215,0.441895,-0.144608,59,0.779348,10,-6.39017e-05,-3.83981,-1.7354,-0.033998,0.441959,
2,0,0,1,0,39284.9,0.43822,0.437923,-0.145933,59,0.779224,10,-6.39075e-05,-3.83585,-0.502577,-0.117395,0.437987,
2,0,0,0,0,39285.7,0.434225,0.433946,-0.147649,59,0.779099,10,-6.40715e-05,-3.83077,-1.51957,-0.0388267,0.434011,
2,0,0,1,0,39286.5,0.43023,0.429919,-0.149324,59,0.778972,10,-6.41972e-05,-3.82587,-0.728755,-0.08096,0.429984,
2,0,0,1,0,39287.3,0.426234,0.425965,-0.151658,59,0.778844,10,-6.46009e-05,-3.81914,-0.622033,-0.0948503,0.426032,
2,0,0,1,0,39288.1,0.422239,0.42197,-0.153565,59,0.778714,10,-6.47999e-05,-3.81371,-0.819839,-0.0719654,0.422037,
2,0,0,1,0,39288.9,0.418244,0.417902,-0.15558,59,0.778583,10,-6.50173e-05,-3.80805,-0.580856,-0.101574,0.417971,
2,0,0,0,0,39289.7,0.414249,0.413983,-0.156522,59,0.77845,10,-6.47975e-05,-3.80542,-1.23698,-0.0476969,0.414052,
2,0,0,1,0,39290.5,0.410254,0.409968,-0.158178,59,0.778316,10,-6.48481e-05,-3.80085,-1.12894,-0.0522614,0.410038,
2,0,0,0,0,39291.3,0.406259,0.405944,-0.160253,59,0.77818,10,-6.50539e-05,-3.79519,-0.615077,-0.0959229,0.406015,
2,0,0,1,0,39292.1,0.402263,0.401944,-0.162767,59,0.778043,10,-6.54231e-05,-3.78843,-0.841163,-0.070141,0.402015,
2,0,0,1,0,39292.9,0.398268,0.397955,-0.164969,59,0.777904,10,-6.56502e-05,-3.7826,-0.739494,-0.0797843,0.398028,
2,0,0,1,0,39293.7,0.394274,0.39395,-0.166212,59,0.777763,10,-6.54794e-05,-3.77934,-0.756795,-0.0779604,0.394023,
2,0,0,1,0,39294.5,0.390278,0.389984,-0.167709,59,0.777621,10,-6.54036e-05,-3.77544,-0.710832,-0.0830013,0.390058,
2,0,0,0,0,39295.3,0.386283,0.385956,-0.170359,59,0.777477,10,-6.5751e-05,-3.76864,-1.18523,-0.0497794,0.386031,
2,0,0,1,0,39296.1,0.382287,0.381946,-0.171304,59,0.777332,10,-6.54287e-05,-3.76623,-0.698316,-0.084489,0.382021,
2,0,0,1,0,39296.9,0.378292,0.377958,-0.173918,59,0.777185,10,-6.57338e-05,-3.75965,-1.46339,-0.0403173,0.378034,
2,0,0,1,0,39297.7,0.374297,0.373993,-0.175998,59,0.777036,10,-6.58219e-05,-3.75449,-0.542641,-0.108727,0.374071,
2,0,0,1,0,39298.5,0.370303,0.369986,-0.178851,59,0.776886,10,-6.61723e-05,-3.74751,-1.06131,-0.0555915,0.370065,
2,0,0,0,0,39299.3,0.366307,0.365993,-0.180429,59,0.776734,10,-6.60359e-05,-3.74369,-0.566243,-0.104196,0.366073,
2,0,0,1,0,39300.1,0.362312,0.36201,-0.183321,59,0.77658,10,-6.6364e-05,-3.73679,-0.568598,-0.103764,0.362091,
2,0,0,1,0,39300.9,0.358316,0.357976,-0.184132,59,0.776424,10,-6.5915e-05,-3.73487,-0.81974,-0.0719741,0.358057,
2,0,0,1,0,39301.7,0.354321,0.354015,-0.187632,59,0.776267,10,-6.64246e-05,-3.72669,-0.955503,-0.0617476,0.354097,
2,0,0,1,0,39302.5,0.350327,0.350045,-0.189508,59,0.776107,10,-6.63365e-05,-3.72237,-0.931535,-0.0633363,0.350128,
2,0,0,0,0,39303.3,0.346331,0.346013,-0.191926,59,0.775946,10,-6.6409e-05,-3.71687,-0.846198,-0.0697236,0.346097,
2,0,0,1,0,39304.1,0.342336,0.342028,-0.193318,59,0.775783,10,-6.61201e-05,-3.71373,-0.769641,-0.0766591,0.342113,
2,0,0,0,0,39304.9,0.338341,0.337995,-0.19653,59,0.775618,10,-6.64263e-05,-3.70657,-0.754974,-0.0781484,0.338082,
2,0,0,1,0,39305.7,0.334345,0.333988,-0.198358,59,0.775451,10,-6.6249e-05,-3.70255,-0.798218,-0.0739146,0.334075,
2,0,0,1,0,39306.5,0.33035,0.330046,-0.199946,59,0.775282,10,-6.59915e-05,-3.69909,-1.03613,-0.0569426,0.330134,
2,0,0,1,0,39307.3,0.326355,0.326034,-0.20356,59,0.775111,10,-6.63676e-05,-3.69131,-0.672513,-0.0877307,0.326124,
2,0,0,1,0,39308.1,0.32236,0.322041,-0.205938,59,0.774939,10,-6.63206e-05,-3.68626,-0.740364,-0.0796905,0.322132,
2,0,0,0,0,39308.9,0.318365,0.318038,-0.20783,59,0.774764,10,-6.60979e-05,-3.68229,-0.695538,-0.0848265,0.31813,
2,0,0,1,0,39309.7,0.31437,0.314033,-0.211485,59,0.774587,10,-6.64133e-05,-3.67472,-0.784721,-0.075186,0.314126,
2,0,0,1,0,39310.5,0.310374,0.310042,-0.213128,59,0.774408,10,-6.60785e-05,-3.67136,-1.44749,-0.0407602,0.310135,
2,0,0,1,0,39311.3,0.306379,0.306086,-0.215109,59,0.774228,10,-6.58418e-05,-3.66734,-0.629739,-0.0936896,0.30618,
2,0,0,1,0,39312.1,0.302385,0.302087,-0.217948,59,0.774045,10,-6.58392e-05,-3.66165,-0.617685,-0.0955179,0.302183,
2,0,0,0,0,39312.9,0.298389,0.298107,-0.220094,59,0.77386,10,-6.56117e-05,-3.65739,-0.583509,-0.101112,0.298204,
2,0,0,1,0,39313.7,0.294394,0.294116,-0.222502,59,0.773674,10,-6.54412e-05,-3.65267,-1.60391,-0.0367852,0.294214,
2,0,0,1,0,39314.5,0.290398,0.290068,-0.225729,59,0.773485,10,-6.54766e-05,-3.64641,-0.675146,-0.0873885,0.290167,
2,0,0,1,0,39315.3,0.286403,0.286077,-0.227129,59,0.773294,10,-6.49762e-05,-3.64373,-0.9424,-0.0626061,0.286177,
2,0,0,1,0,39316.1,0.282408,0.282079,-0.230773,59,0.773101,10,-6.50962e-05,-3.63682,-1.26865,-0.0465063,0.282181,
2,0,0,1,0,39316.9,0.278414,0.278073,-0.232699,59,0.772906,10,-6.47073e-05,-3.63321,-0.494417,-0.119332,0.278175,
2,0,0,1,0,39317.7,0.274418,0.27411,-0.235487,59,0.772709,10,-6.45494e-05,-3.62803,-1.27469,-0.0462858,0.274214,
2,0,0,0,0,39318.5,0.270423,0.270096,-0.239548,59,0.77251,10,-6.4701e-05,-3.62061,-0.979473,-0.0602365,0.270202,
2,0,0,1,0,39319.3,0.266427,0.26614,-0.240927,59,0.772308,10,-6.41203e-05,-3.61811,-0.970828,-0.0607729,0.266246,
2,0,0,1,0,39320.1,0.262432,0.262144,-0.243884,59,0.772105,10,-6.39328e-05,-3.61282,-0.972852,-0.0606464,0.262252,
2,0,0,1,0,39320.9,0.258437,0.258132,-0.245689,59,0.771899,10,-6.342e-05,-3.60962,-0.649316,-0.0908648,0.25824,
2,0,0,1,0,39321.7,0.254442,0.254114,-0.24769,59,0.771692,10,-6.29414e-05,-3.60609,-1.07684,-0.0547899,0.254223,
2,0,0,0,0,39322.5,0.250447,0.250187,-0.250653,59,0.771482,10,-6.27103e-05,-3.60093,-1.10802,-0.0532484,0.250298,
2,0,0,1,0,39323.3,0.246452,0.24617,-0.252795,59,0.771271,10,-6.22305e-05,-3.59723,-0.803909,-0.0733914,0.246282,
2,0,0,1,0,39324.1,0.242456,0.242116,-0.256609,59,0.771057,10,-6.21292e-05,-3.59073,-0.814276,-0.072457,0.242229,
2,0,0,1,0,39324.9,0.238461,0.238128,-0.25834,59,0.770842,10,-6.15182e-05,-3.58781,-1.91428,-0.030821,0.238242,
2,0,0,1,0,39325.7,0.234467,0.234142,-0.260444,59,0.770625,10,-6.0981e-05,-3.58429,-0.928093,-0.0635712,0.234257,
2,0,0,0,0,39326.5,0.230471,0.230148,-0.262879,59,0.770406,10,-6.0501e-05,-3.58024,-0.868182,-0.0679581,0.230263,
2,0,0,1,0,39327.3,0.226476,0.226171,-0.2652,59,0.770185,10,-5.99805e-05,-3.57643,-1.30759,-0.0451212,0.226288,
2,0,0,0,0,39328.1,0.222481,0.222198,-0.267437,59,0.769962,10,-5.94239e-05,-3.57278,-0.768452,-0.0767777,0.222315,
2,0,0,1,0,39328.9,0.218485,0.218138,-0.270648,59,0.769737,10,-5.90387e-05,-3.5676,-1.39798,-0.0422037,0.218257,
2,0,0,1,0,39329.7,0.21449,0.21415,-0.273483,59,0.76951,10,-5.85665e-05,-3.56307,-0.652024,-0.0904875,0.214271,
2,0,0,1,0,39330.5,0.210496,0.210176,-0.276321,59,0.769281,10,-5.80762e-05,-3.55859,-0.827882,-0.0712662,0.210298,
2,0,0,1,0,39331.3,0.2065,0.206198,-0.281083,59,0.769049,10,-5.79588e-05,-3.55117,-1.05861,-0.0557336,0.206322,
2,0,0,0,0,39332.1,0.202505,0.202205,-0.282676,59,0.768814,10,-5.71584e-05,-3.54871,-0.748211,-0.0788548,0.202329,
2,0,0,1,0,39332.9,0.198509,0.198181,-0.285319,59,0.768577,10,-5.65449e-05,-3.54467,-0.89114,-0.0662073,0.198307,
2,0,0,1,0,39333.7,0.194514,0.194215,-0.288723,59,0.768338,10,-5.60742e-05,-3.53952,-0.822429,-0.0717387,0.194342,
2,0,0,1,0,39334.5,0.190519,0.190216,-0.291479,59,0.768095,10,-5.5444e-05,-3.53539,-0.602588,-0.097911,0.190344,
2,0,0,1,0,39335.3,0.186524,0.186199,-0.296727,59,0.76785,10,-5.52504e-05,-3.52764,-0.831762,-0.0709338,0.18633,
2,0,0,0,0,39336.1,0.182529,0.182212,-0.300988,59,0.7676,10,-5.48437e-05,-3.52145,-0.468041,-0.126057,0.182344,
2,0,0,1,0,39336.9,0.178534,0.178214,-0.307106,59,0.767347,10,-5.47306e-05,-3.51271,-0.575188,-0.102575,0.178349,
2,0,0,1,0,39337.7,0.174538,0.17423,-0.312774,59,0.767089,10,-5.44946e-05,-3.50477,-0.432125,-0.136535,0.174368,
2,0,0,1,0,39338.5,0.170543,0.170237,-0.318916,59,0.766827,10,-5.42913e-05,-3.49632,-0.352021,-0.167604,0.170377,
2,0,0,1,0,39339.3,0.166549,0.166218,-0.326691,59,0.766558,10,-5.43019e-05,-3.48586,-0.375184,-0.157256,0.166362,
2,0,0,0,0,39340.1,0.162553,0.162196,-0.336827,59,0.766282,10,-5.46319e-05,-3.47259,-0.275289,-0.214321,0.162344,
2,0,0,1,0,39340.9,0.158558,0.158218,-0.348342,59,0.765997,10,-5.5114e-05,-3.45799,-0.242135,-0.243666,0.158371,
2,0,0,0,0,39341.7,0.154563,0.154188,-0.365624,59,0.765701,10,-5.63747e-05,-3.43696,-0.190629,-0.309502,0.154348,
2,0,0,1,0,39342.5,0.150567,0.150245,-0.385507,59,0.765391,10,-5.79205e-05,-3.41397,-0.143364,-0.41154,0.150414,
2,0,0,1,0,39343.3,0.146572,0.146273,-0.412146,59,0.765062,10,-6.02857e-05,-3.38495,-0.121515,-0.485537,0.146454,
2,0,0,1,0,39344.1,0.142578,0.142244,-0.449162,59,0.764708,10,-6.38908e-05,-3.3476,-0.101639,-0.580486,0.142442,
2,0,0,1,0,39344.9,0.138582,0.138293,-0.494249,59,0.76432,10,-6.83513e-05,-3.30605,-0.0931089,-0.633667,0.138511,
2,0,0,0,0,39345.7,0.134587,0.134283,-0.543313,59,0.763895,10,-7.29576e-05,-3.26495,-0.103125,-0.572119,0.134522,
2,0,0,1,0,39346.5,0.130591,0.130267,-0.592879,59,0.76343,10,-7.72329e-05,-3.22703,-0.113015,-0.522054,0.130528,
2,0,0,1,0,39347.3,0.126596,0.126303,-0.634519,59,0.762927,10,-8.01417e-05,-3.19756,-0.15611,-0.377939,0.126582,
2,0,0,1,0,39348.1,0.122602,0.122327,-0.666857,59,0.762395,10,-8.15745e-05,-3.17597,-0.257891,-0.228779,0.12262,
2,0,0,1,0,39348.9,0.118607,0.118277,-0.686055,59,0.761842,10,-8.11447e-05,-3.16364,-0.378129,-0.156032,0.118579,
2,0,0,0,0,39349.7,0.114611,0.114265,-0.695893,59,0.761278,10,-7.95165e-05,-3.15746,-1.49815,-0.039382,0.114572,
2,0,0,1,0,39350.5,0.110616,0.110283,-0.697581,59,0.760709,10,-7.69309e-05,-3.15641,77.4476,0.000761805,0.110589,
2,0,0,1,0,39351.3,0.10662,0.106307,-0.696118,59,0.760141,10,-7.40021e-05,-3.15732,6.41075,0.00920329,0.106613,
2,0,0,1,0,39352.1,0.102625,0.10229,-0.692688,59,0.759574,10,-7.08552e-05,-3.15946,0.938193,0.0628868,0.102595,
2,0,0,1,0,39352.9,0.0986305,0.0983117,-0.68621,59,0.759012,10,-6.74624e-05,-3.16354,1.22717,0.0480782,0.0986136,
2,0,0,0,0,39353.7,0.0946351,0.0943287,-0.67715,59,0.758455,10,-6.38746e-05,-3.16932,0.69162,0.0853069,0.0946266,
2,0,0,1,0,39354.5,0.0906399,0.0903235,-0.671399,59,0.757904,10,-6.06431e-05,-3.17302,0.669935,0.0880683,0.0906189,
2,0,0,0,0,39355.3,0.0866448,0.0862993,-0.662347,59,0.757361,10,-5.71601e-05,-3.17891,0.828655,0.0711997,0.0865907,
2,0,0,1,0,39356.1,0.0826492,0.0823141,-0.654029,59,0.756824,10,-5.38358e-05,-3.1844,0.595838,0.0990202,0.0826018,
2,0,0,1,0,39356.9,0.0786544,0.0783218,-0.645498,59,0.756295,10,-5.05566e-05,-3.1901,0.846214,0.0697223,0.0786058,
2,0,0,1,0,39357.7,0.0746596,0.0743181,-0.635984,59,0.755772,10,-4.72652e-05,-3.19655,0.592763,0.0995339,0.074598,
2,0,0,1,0,39358.5,0.0706641,0.0703497,-0.627348,59,0.755256,10,-4.41337e-05,-3.20249,0.709431,0.0831653,0.0706257,
2,0,0,0,0,39359.3,0.0666689,0.0663774,-0.619449,59,0.754748,10,-4.11174e-05,-3.20799,0.677229,0.0871197,0.06665,
2,0,0,1,0,39360.1,0.0626737,0.0623754,-0.608781,59,0.754245,10,-3.7973e-05,-3.21554,0.660084,0.0893825,0.0626433,
2,0,0,1,0,39360.9,0.0586783,0.0583945,-0.602585,59,0.75375,10,-3.51876e-05,-3.21998,0.609614,0.0967826,0.0586596,
2,0,0,1,0,39361.7,0.0546835,0.0543675,-0.593198,59,0.753261,10,-3.22507e-05,-3.2268,0.700968,0.0841694,0.0546285,
2,0,0,1,0,39362.5,0.0506886,0.0503784,-0.58354,59,0.752779,10,-2.93978e-05,-3.23393,0.504076,0.117046,0.0506351,
2,0,0,0,0,39363.3,0.046693,0.046375,-0.574093,59,0.752306,10,-2.66236e-05,-3.24102,0.580138,0.1017,0.0466276,
2,0,0,1,0,39364.1,0.0426979,0.0423868,-0.563356,59,0.75184,10,-2.38788e-05,-3.24922,0.542785,0.108699,0.0426347,
2,0,0,1,0,39364.9,0.0387022,0.0383623,-0.553644,59,0.751382,10,-2.1239e-05,-3.25677,0.465356,0.126785,0.0386059,
2,0,0,1,0,39365.6,0.0347074,0.0343901,-0.544081,59,0.750933,10,-1.8711e-05,-3.26434,0.545454,0.108167,0.0346295,
2,0,0,1,0,39366.4,0.0307126,0.030414,-0.532302,59,0.750491,10,-1.61894e-05,-3.27384,0.48953,0.120524,0.0306482,
2,0,0,0,0,39367.2,0.0267172,0.0264118,-0.524867,59,0.750057,10,-1.38627e-05,-3.27995,0.516977,0.114125,0.0266427,
2,0,0,1,0,39368,0.022722,0.0223907,-0.51664,59,0.74963,10,-1.15679e-05,-3.28681,0.739632,0.0797694,0.022618,
2,0,0,0,0,39368.8,0.0187268,0.0184015,-0.510393,59,0.749209,10,-9.39197e-06,-3.2921,0.788811,0.0747961,0.018626,
2,0,0,1,0,39369.6,0.0147313,0.014396,-0.506553,59,0.748792,10,-7.29236e-06,-3.29537,1.02624,0.0574916,0.0146189,
2,0,0,1,0,39370.4,0.0107365,0.0104199,-0.502327,59,0.748379,10,-5.23421e-06,-3.29901,2.54798,0.0231556,0.0106409,
2,0,0,1,0,39371.2,0.00674163,0.0064003,-0.500238,59,0.747968,10,-3.20167e-06,-3.30082,2.37349,0.0248579,0.0066204,
2,0,0,1,0,39372,0.00274612,0.00246355,-0.499527,59,0.747559,10,-1.23061e-06,-3.30144,-2.32852,-0.025338,0.00268334,
2,0,0,0,0,39372.5,0.000274105,-0.000111784,-0.501596,59,0.747303,10,5.60705e-08,-3.29965, , ,0.000108918,