File: Figure_codes/Fig_3-5/workspace_calculate_alpha_eff/20221101_1-115_003_TrumpetPlot_ParaChange_from10_every3_16_CV_C01_40.csv
mode,ox/red,error,control changes,counter inc.,time/s,control/V,Ewe/V,<I>/mA,cycle number,(Q-Qo)/C,I Range,P/W,log(|I|),Tafel slope mV/dec,alpha_eff,E-IR/V,
2,0,0,0,0,27211.8,2.44065e-05,-0.00042076,-0.104482,41,0.0000000E+000,10,4.3962e-08,-3.98096, , ,-0.000374788,
2,1,0,0,0,27212.6,0.00379485,0.00345184,0.158108,41,0.000103163,10,5.45763e-07,-3.80105,0.0365545,1.61403,0.00338228,
2,1,0,1,0,27213.4,0.00779002,0.00749199,0.179959,41,0.000251623,10,1.34825e-06,-3.74483,0.0812828,0.72586,0.00741281,
2,1,0,0,0,27214.2,0.0117852,0.0114547,0.197366,41,0.00041629,10,2.26078e-06,-3.70473,0.114201,0.516635,0.0113679,
2,1,0,1,0,27215,0.0157806,0.0154601,0.214068,41,0.000593277,10,3.30953e-06,-3.66945,0.141544,0.416831,0.015366,
2,1,0,1,0,27215.8,0.0197754,0.0194586,0.225874,41,0.000781409,10,4.3952e-06,-3.64613,0.141688,0.416407,0.0193593,
2,1,0,1,0,27216.6,0.0237704,0.0234541,0.240196,41,0.000980771,10,5.63356e-06,-3.61943,0.189498,0.311349,0.0233484,
2,1,0,1,0,27217.4,0.0277659,0.0274245,0.253721,41,0.00119119,10,6.95817e-06,-3.59564,0.15274,0.386277,0.0273128,
2,1,0,0,0,27218.2,0.0317611,0.0314423,0.267498,41,0.00141342,10,8.41075e-06,-3.57268,0.15224,0.387546,0.0313246,
2,1,0,1,0,27219,0.0357567,0.0354394,0.284794,41,0.00164774,10,1.00929e-05,-3.54547,0.222037,0.265722,0.0353141,
2,1,0,1,0,27219.8,0.0397516,0.0394889,0.299089,41,0.00189327,10,1.18107e-05,-3.5242,0.155487,0.379453,0.0393573,
2,1,0,1,0,27220.6,0.0437465,0.0434397,0.312047,41,0.00215068,10,1.35552e-05,-3.50578,0.209311,0.281877,0.0433024,
2,1,0,1,0,27221.4,0.0477413,0.0474063,0.325951,41,0.00241856,10,1.54521e-05,-3.48685,0.235863,0.250146,0.0472629,
2,1,0,0,0,27222.2,0.0517369,0.0514055,0.33891,41,0.00269721,10,1.74219e-05,-3.46992,0.223031,0.264537,0.0512564,
2,1,0,1,0,27223,0.0557321,0.0554319,0.352309,41,0.00298643,10,1.95292e-05,-3.45308,0.310054,0.19029,0.0552769,
2,1,0,1,0,27223.8,0.0597277,0.0594282,0.36426,41,0.00328491,10,2.16473e-05,-3.43859,0.293932,0.200727,0.0592679,
2,1,0,1,0,27224.6,0.0637226,0.063401,0.373192,41,0.00359257,10,2.36608e-05,-3.42807,0.356277,0.165602,0.0632368,
2,1,0,1,0,27225.4,0.0677174,0.0674259,0.383708,41,0.00390912,10,2.58719e-05,-3.416,0.421317,0.140037,0.0672571,
2,1,0,0,0,27226.2,0.0717128,0.071408,0.402155,41,0.00423377,10,2.87171e-05,-3.39561,0.251209,0.234865,0.071231,
2,1,0,1,0,27227,0.075708,0.0753898,0.402696,41,0.00456852,10,3.03592e-05,-3.39502,0.562531,0.104883,0.0752126,
2,1,0,0,0,27227.7,0.0797031,0.0793621,0.411164,41,0.00490797,10,3.26309e-05,-3.38598,0.454081,0.129933,0.0791812,
2,1,0,1,0,27228.5,0.0836986,0.0833983,0.420053,41,0.00525388,10,3.50317e-05,-3.3767,0.418424,0.141005,0.0832135,
2,1,0,1,0,27229.3,0.0876935,0.0874031,0.431127,41,0.00560792,10,3.76818e-05,-3.3654,0.327237,0.180297,0.0872135,
2,1,0,1,0,27230.1,0.0916883,0.0913974,0.446545,41,0.00597142,10,4.0813e-05,-3.35013,0.233616,0.252551,0.0912009,
2,1,0,1,0,27230.9,0.0956838,0.0953689,0.461879,41,0.00634805,10,4.40489e-05,-3.33547,0.219752,0.268484,0.0951657,
2,1,0,0,0,27231.7,0.099679,0.0993571,0.484198,41,0.00674057,10,4.81085e-05,-3.31498,0.225304,0.261869,0.0991441,
2,1,0,1,0,27232.5,0.103674,0.103393,0.507944,41,0.00715056,10,5.25178e-05,-3.29418,0.180212,0.327391,0.10317,
2,1,0,1,0,27233.3,0.10767,0.107391,0.531185,41,0.00758026,10,5.70445e-05,-3.27475,0.233734,0.252424,0.107157,
2,1,0,1,0,27234.1,0.111664,0.111347,0.550659,41,0.0080264,10,6.13142e-05,-3.25912,0.254333,0.23198,0.111105,
2,1,0,1,0,27234.9,0.115659,0.115314,0.566921,41,0.00848726,10,6.53736e-05,-3.24648,0.319915,0.184424,0.115064,
2,1,0,0,0,27235.7,0.119655,0.119336,0.582272,41,0.00896101,10,6.94861e-05,-3.23487,0.458741,0.128613,0.11908,
2,1,0,1,0,27236.5,0.12365,0.123403,0.594997,41,0.00944488,10,7.34243e-05,-3.22549,0.466889,0.126368,0.123141,
2,1,0,1,0,27237.3,0.127646,0.127327,0.604043,41,0.00993893,10,7.69109e-05,-3.21893,0.610588,0.0966281,0.127061,
2,1,0,1,0,27238.1,0.131641,0.131345,0.61366,41,0.0104409,10,8.06009e-05,-3.21207,-2.61496,-0.0225625,0.131074,
2,1,0,1,0,27238.9,0.135635,0.135296,0.603527,41,0.0109416,10,8.16549e-05,-3.2193,-0.366051,-0.16118,0.135031,
2,1,0,0,0,27239.7,0.139631,0.139299,0.573059,41,0.0114279,10,7.98269e-05,-3.2418,-0.130247,-0.452985,0.139047,
2,1,0,1,0,27240.5,0.143626,0.143321,0.522953,41,0.0118806,10,7.49499e-05,-3.28154,-0.0801903,-0.73575,0.14309,
2,1,0,0,0,27241.3,0.147621,0.147327,0.460165,41,0.0122867,10,6.77947e-05,-3.33709,-0.0688347,-0.857126,0.147124,
2,1,0,1,0,27242.1,0.151617,0.151344,0.402372,41,0.0126445,10,6.08966e-05,-3.39537,-0.0760677,-0.775625,0.151167,
2,1,0,1,0,27242.9,0.155612,0.155322,0.361486,41,0.012962,10,5.61468e-05,-3.44191,-0.095909,-0.615166,0.155163,
2,1,0,1,0,27243.7,0.159606,0.159337,0.332871,41,0.013252,10,5.30385e-05,-3.47772,-0.142156,-0.415037,0.15919,
2,1,0,1,0,27244.5,0.163602,0.163326,0.315078,41,0.0135241,10,5.14605e-05,-3.50158,-0.165583,-0.356317,0.163188,
2,1,0,0,0,27245.3,0.167597,0.167259,0.303469,41,0.0137835,10,5.0758e-05,-3.51789,-0.346782,-0.170136,0.167126,
2,1,0,1,0,27246.1,0.171592,0.171238,0.292489,41,0.0140348,10,5.00852e-05,-3.53389,-0.316362,-0.186495,0.171109,
2,1,0,1,0,27246.9,0.175588,0.17526,0.286386,41,0.0142792,10,5.01921e-05,-3.54305,-0.396625,-0.148755,0.175134,
2,1,0,1,0,27247.7,0.179582,0.179257,0.280397,41,0.0145186,10,5.02632e-05,-3.55223,-0.580304,-0.101671,0.179134,
2,1,0,1,0,27248.5,0.183577,0.183271,0.276345,41,0.0147543,10,5.06461e-05,-3.55855,-0.619763,-0.0951976,0.183149,
2,1,0,0,0,27249.3,0.187573,0.187247,0.272692,41,0.0149866,10,5.10607e-05,-3.56433,-0.715005,-0.0825169,0.187127,
2,1,0,1,0,27250.1,0.191568,0.19124,0.269794,41,0.0152161,10,5.15956e-05,-3.56897,-0.606541,-0.097273,0.191122,
2,1,0,0,0,27250.9,0.195563,0.195225,0.266971,41,0.0154434,10,5.21195e-05,-3.57354,-1.09779,-0.0537446,0.195108,
2,1,0,1,0,27251.7,0.199559,0.199181,0.264093,41,0.0156683,10,5.26023e-05,-3.57824,-2.27094,-0.0259804,0.199065,
2,1,0,1,0,27252.5,0.203553,0.203235,0.26163,41,0.0158914,10,5.31726e-05,-3.58231,-1.0492,-0.0562334,0.20312,
2,1,0,1,0,27253.3,0.207548,0.207291,0.260618,41,0.016113,10,5.40238e-05,-3.584,-1.15292,-0.0511746,0.207176,
2,1,0,1,0,27254.1,0.211544,0.211227,0.258023,41,0.0163328,10,5.45015e-05,-3.58834,-1.21311,-0.0486353,0.211113,
2,1,0,0,0,27254.9,0.215539,0.215245,0.255796,41,0.0165514,10,5.50587e-05,-3.59211,-1.15642,-0.0510197,0.215132,
2,1,0,1,0,27255.7,0.219535,0.21923,0.255788,41,0.0167684,10,5.60765e-05,-3.59212,-1.36363,-0.0432669,0.219118,
2,1,0,1,0,27256.5,0.223529,0.223263,0.252798,41,0.0169842,10,5.64404e-05,-3.59723,-1.87776,-0.0314204,0.223151,
2,1,0,1,0,27257.3,0.227524,0.227216,0.251757,41,0.0171988,10,5.72032e-05,-3.59902,-1.25131,-0.0471505,0.227106,
2,1,0,1,0,27258.1,0.23152,0.2312,0.250206,41,0.0174121,10,5.78474e-05,-3.6017,218.76,0.000269702,0.231089,
2,1,0,0,0,27258.9,0.235515,0.235259,0.249045,41,0.0176246,10,5.85901e-05,-3.60372,-1.29633,-0.0455131,0.235149,
2,1,0,1,0,27259.7,0.23951,0.239178,0.248299,41,0.0178359,10,5.93877e-05,-3.60503,-1.39546,-0.04228,0.239069,
2,1,0,1,0,27260.5,0.243506,0.243222,0.248184,41,0.0180462,10,6.03638e-05,-3.60523,2.94109,0.0200606,0.243113,
2,1,0,1,0,27261.3,0.2475,0.247159,0.247389,41,0.0182562,10,6.11445e-05,-3.60662,-1.57431,-0.0374767,0.24705,
2,1,0,1,0,27262.1,0.251495,0.251151,0.245538,41,0.0184653,10,6.16672e-05,-3.60988,-1.76538,-0.0334206,0.251043,
2,1,0,0,0,27262.9,0.255491,0.255201,0.243898,41,0.0186736,10,6.2243e-05,-3.61279,-1.64873,-0.0357852,0.255094,
2,1,0,1,0,27263.7,0.259486,0.259214,0.243499,41,0.0188813,10,6.31185e-05,-3.6135,-1.61104,-0.0366224,0.259107,
2,1,0,0,0,27264.5,0.263481,0.263158,0.243196,41,0.0190883,10,6.39989e-05,-3.61404,4.73266,0.0124666,0.263051,
2,1,0,1,0,27265.3,0.267477,0.267204,0.241299,41,0.019295,10,6.44759e-05,-3.61745,-2.01299,-0.0293097,0.267098,
2,1,0,1,0,27266.1,0.271471,0.271178,0.240996,41,0.0195006,10,6.53528e-05,-3.61799,-5.00212,-0.011795,0.271072,
2,1,0,1,0,27266.9,0.275466,0.275151,0.240536,41,0.0197053,10,6.61836e-05,-3.61882,-1.32745,-0.044446,0.275045,
2,1,0,1,0,27267.7,0.279462,0.279135,0.23924,41,0.0199096,10,6.67803e-05,-3.62117,-35.2648,-0.00167306,0.27903,
2,1,0,0,0,27268.5,0.283457,0.283141,0.239723,41,0.0201128,10,6.78755e-05,-3.62029,-2.4137,-0.0244438,0.283036,
2,1,0,1,0,27269.3,0.287452,0.287151,0.237712,41,0.0203154,10,6.82592e-05,-3.62395,-2.56471,-0.0230046,0.287046,
2,1,0,1,0,27270.1,0.291448,0.291073,0.236095,41,0.0205173,10,6.87208e-05,-3.62691,-0.710498,-0.0830403,0.290969,
2,1,0,1,0,27270.9,0.295442,0.295141,0.235429,41,0.0207181,10,6.94846e-05,-3.62814,2.67381,0.0220659,0.295037,
2,1,0,1,0,27271.7,0.299437,0.29913,0.233188,41,0.0209182,10,6.97534e-05,-3.63229,-1.92319,-0.0306782,0.299027,
2,1,0,0,0,27272.5,0.303433,0.303121,0.233822,41,0.0211176,10,7.08762e-05,-3.63111,-1.14167,-0.0516785,0.303018,
2,1,0,1,0,27273.3,0.307428,0.307094,0.232747,41,0.0213161,10,7.14752e-05,-3.63312,1.38941,0.042464,0.306992,
2,1,0,1,0,27274.1,0.311424,0.311112,0.232418,41,0.0215144,10,7.23082e-05,-3.63373,-1.44636,-0.0407921,0.31101,
2,1,0,1,0,27274.9,0.315418,0.315127,0.231804,41,0.0217117,10,7.30478e-05,-3.63488,-1.87979,-0.0313864,0.315025,
2,1,0,1,0,27275.7,0.319413,0.319116,0.2312,41,0.0219085,10,7.37795e-05,-3.63601,2.96459,0.0199016,0.319014,
2,1,0,0,0,27276.5,0.323409,0.323103,0.230393,41,0.0221048,10,7.44406e-05,-3.63753,-0.829951,-0.0710885,0.323002,
2,1,0,1,0,27277.3,0.327404,0.327122,0.229773,41,0.0223003,10,7.51638e-05,-3.6387,-3.70037,-0.0159444,0.327021,
2,1,0,0,0,27278.1,0.331399,0.331155,0.228284,41,0.0224955,10,7.55973e-05,-3.64152,-2.98621,-0.0197575,0.331054,
2,1,0,1,0,27278.9,0.335395,0.335093,0.228534,41,0.0226899,10,7.65801e-05,-3.64105,2.97302,0.0198451,0.334993,
2,1,0,1,0,27279.7,0.339389,0.339131,0.227966,41,0.0228838,10,7.73102e-05,-3.64213,-2.82553,-0.020881,0.33903,
2,1,0,1,0,27280.5,0.343384,0.343072,0.227586,41,0.0230775,10,7.80783e-05,-3.64286,-1.98307,-0.0297518,0.342972,
2,1,0,1,0,27281.3,0.34738,0.347118,0.228146,41,0.0232706,10,7.91936e-05,-3.64179,-3.38498,-0.0174299,0.347018,
2,1,0,0,0,27282.1,0.351375,0.351048,0.226151,41,0.0234632,10,7.93899e-05,-3.6456,-7.1587,-0.00824172,0.350948,
2,1,0,1,0,27282.9,0.35537,0.355099,0.226796,41,0.0236553,10,8.05351e-05,-3.64436,-1.85072,-0.0318795,0.354999,
2,1,0,1,0,27283.7,0.359366,0.359033,0.225537,41,0.0238472,10,8.09754e-05,-3.64678,6.89691,0.00855456,0.358934,
2,1,0,1,0,27284.5,0.36336,0.363056,0.22397,41,0.0240388,10,8.13135e-05,-3.64981,-4.21335,-0.0140031,0.362957,
2,1,0,1,0,27285.3,0.367355,0.367059,0.224817,41,0.0242295,10,8.2521e-05,-3.64817,-27.5324,-0.00214293,0.36696,
2,1,0,0,0,27286.1,0.371351,0.371039,0.223182,41,0.0244198,10,8.2809e-05,-3.65134,-7.42563,-0.00794546,0.37094,
2,1,0,1,0,27286.9,0.375346,0.375033,0.223676,41,0.0246101,10,8.3886e-05,-3.65038,-1.7434,-0.0338419,0.374935,
2,1,0,1,0,27287.7,0.379342,0.379051,0.223607,41,0.0247997,10,8.47585e-05,-3.65051,-4.01999,-0.0146766,0.378953,
2,1,0,1,0,27288.5,0.383336,0.383029,0.223223,41,0.0249889,10,8.55007e-05,-3.65126,-4.51635,-0.0130636,0.382931,
2,1,0,1,0,27289.3,0.387331,0.387004,0.221945,41,0.0251777,10,8.58936e-05,-3.65375,-2.64978,-0.022266,0.386906,
2,1,0,0,0,27290.1,0.391327,0.391045,0.221219,41,0.0253661,10,8.65067e-05,-3.65518,9.8555,0.0059865,0.390948,
2,1,0,1,0,27290.9,0.395322,0.394983,0.22034,41,0.0255543,10,8.70305e-05,-3.65691,-19.3478,-0.00304945,0.394886,
2,1,0,0,0,27291.7,0.399317,0.399022,0.221584,41,0.0257421,10,8.84169e-05,-3.65446,-8.4245,-0.00700339,0.398924,
2,1,0,1,0,27292.5,0.403313,0.402989,0.220864,41,0.0259297,10,8.90058e-05,-3.65587,-5.71823,-0.0103179,0.402892,
2,1,0,1,0,27293.3,0.407307,0.406983,0.220589,41,0.0261171,10,8.97759e-05,-3.65642,-5.28798,-0.0111574,0.406886,
2,1,0,1,0,27294.1,0.411302,0.411019,0.222027,41,0.0263042,10,9.12574e-05,-3.65359,2.87984,0.0204873,0.410921,
2,1,0,1,0,27294.9,0.415298,0.41499,0.220923,41,0.0264913,10,9.16809e-05,-3.65576,-115.816,-0.000509428,0.414893,
2,1,0,0,0,27295.7,0.419293,0.418983,0.22066,41,0.0266785,10,9.24525e-05,-3.65628,-1.30723,-0.0451335,0.418886,
2,1,0,1,0,27296.5,0.423288,0.423029,0.221214,41,0.0268651,10,9.35798e-05,-3.65519,6.905,0.00854454,0.422932,
2,1,0,1,0,27297.3,0.427283,0.42702,0.21975,41,0.0270519,10,9.38376e-05,-3.65807,-4.82359,-0.0122315,0.426923,
2,1,0,1,0,27298.1,0.431278,0.431058,0.220191,41,0.0272384,10,9.49153e-05,-3.6572,2.76524,0.0213363,0.430961,
2,1,0,1,0,27298.9,0.435273,0.435001,0.220487,41,0.0274248,10,9.59118e-05,-3.65662,2.2286,0.026474,0.434904,
2,1,0,0,0,27299.7,0.439269,0.438945,0.220177,41,0.0276113,10,9.66454e-05,-3.65723,-3.00996,-0.0196016,0.438848,
2,1,0,1,0,27300.5,0.443264,0.442998,0.220548,41,0.0277977,10,9.77021e-05,-3.6565,2.82959,0.0208511,0.442901,
2,1,0,0,0,27301.3,0.447259,0.446969,0.220249,41,0.0279839,10,9.84446e-05,-3.65709,-1.43407,-0.0411415,0.446872,
2,1,0,1,0,27302.1,0.451254,0.450981,0.220239,41,0.0281704,10,9.93235e-05,-3.65711,-5.25549,-0.0112264,0.450884,
2,1,0,1,0,27302.9,0.455249,0.454989,0.220591,41,0.0283567,10,0.000100366,-3.65641,1.86674,0.0316059,0.454892,
2,1,0,1,0,27303.7,0.459244,0.458981,0.219708,41,0.0285431,10,0.000100842,-3.65815,103.098,0.000572271,0.458884,
2,1,0,1,0,27304.5,0.46324,0.462959,0.221341,41,0.0287297,10,0.000102472,-3.65494,7.06318,0.00835318,0.462861,
2,1,0,0,0,27305.3,0.467235,0.466933,0.221313,41,0.0289163,10,0.000103339,-3.65499,2.97523,0.0198304,0.466836,
2,1,0,1,0,27306.1,0.471231,0.470953,0.222052,41,0.0291033,10,0.000104576,-3.65355,5.02717,0.0117362,0.470855,
2,1,0,1,0,27306.9,0.475225,0.474906,0.22266,41,0.0292904,10,0.000105743,-3.65236,2.73202,0.0215958,0.474808,
2,1,0,1,0,27307.7,0.47922,0.478922,0.22247,41,0.0294778,10,0.000106546,-3.65273,-12.25,-0.00481632,0.478824,
2,1,0,1,0,27308.5,0.483216,0.48293,0.22302,41,0.0296657,10,0.000107703,-3.65166,-19.8313,-0.00297509,0.482831,
2,1,0,0,0,27309.3,0.487211,0.486868,0.224153,41,0.0298538,10,0.000109133,-3.64945,1.07834,0.0547137,0.486769,
2,1,0,1,0,27310.1,0.491206,0.490938,0.224664,41,0.030043,10,0.000110296,-3.64847,1.15275,0.051182,0.490839,
2,1,0,1,0,27310.8,0.495201,0.494924,0.226101,41,0.0302329,10,0.000111903,-3.6457,-6.4987,-0.00907874,0.494825,
2,1,0,1,0,27311.6,0.499196,0.498906,0.226624,41,0.030423,10,0.000113064,-3.64469,1.15539,0.0510649,0.498807,
2,1,0,1,0,27312.4,0.503191,0.502845,0.226437,41,0.0306139,10,0.000113863,-3.64505,15.9304,0.00370362,0.502745,
2,1,0,0,0,27313.2,0.507187,0.506913,0.229071,41,0.0308055,10,0.000116119,-3.64003,2.51069,0.0234995,0.506812,
2,1,0,1,0,27314,0.511182,0.510875,0.229217,41,0.030998,10,0.000117101,-3.63975,1.79717,0.0328294,0.510775,
2,1,0,0,0,27314.8,0.515177,0.514886,0.230252,41,0.0311914,10,0.000118554,-3.6378,1.38782,0.0425127,0.514785,
2,1,0,1,0,27315.6,0.519173,0.518875,0.231352,41,0.0313856,10,0.000120043,-3.63573,3.40857,0.0173093,0.518774,
2,1,0,1,0,27316.4,0.523167,0.522876,0.231621,41,0.0315807,10,0.000121109,-3.63522,1.09407,0.0539268,0.522774,
2,1,0,1,0,27317.2,0.527162,0.526812,0.234845,41,0.0317769,10,0.000123719,-3.62922,1.46301,0.0403278,0.526709,
2,1,0,1,0,27318,0.531158,0.530868,0.235921,41,0.0319742,10,0.000125243,-3.62723,1.57939,0.0373562,0.530765,
2,1,0,0,0,27318.8,0.535153,0.534853,0.23746,41,0.0321729,10,0.000127006,-3.62441,1.12775,0.0523166,0.534749,
2,1,0,1,0,27319.6,0.539148,0.538901,0.239967,41,0.0323728,10,0.000129319,-3.61985,1.15821,0.0509408,0.538795,
2,1,0,1,0,27320.4,0.543143,0.542846,0.241443,41,0.0325743,10,0.000131066,-3.61719,1.90861,0.0309125,0.542739,
2,1,0,1,0,27321.2,0.547138,0.546807,0.242604,41,0.0327776,10,0.000132658,-3.6151,1.2082,0.0488331,0.546701,
2,1,0,1,0,27322,0.551133,0.550869,0.246011,41,0.0329824,10,0.00013552,-3.60904,0.665217,0.0886929,0.550761,
2,1,0,0,0,27322.8,0.555129,0.554839,0.248515,41,0.0331894,10,0.000137886,-3.60465,1.02292,0.0576781,0.554729,
2,1,0,1,0,27323.6,0.559124,0.558839,0.251878,41,0.0333984,10,0.000140759,-3.59881,0.59202,0.0996589,0.558728,
2,1,0,1,0,27324.4,0.56312,0.562795,0.254823,41,0.0336098,10,0.000143413,-3.59376,0.698962,0.0844108,0.562683,
2,1,0,1,0,27325.2,0.567114,0.566845,0.258425,41,0.0338241,10,0.000146487,-3.58766,0.685313,0.086092,0.566731,
2,1,0,1,0,27326,0.571109,0.57084,0.262451,41,0.034041,10,0.000149818,-3.58095,0.654653,0.0901241,0.570725,
2,1,0,0,0,27326.8,0.575105,0.574812,0.265701,41,0.034261,10,0.000152728,-3.57561,0.632649,0.0932587,0.574695,
2,1,0,1,0,27327.6,0.5791,0.578823,0.270375,41,0.0344846,10,0.000156499,-3.56803,0.506869,0.116401,0.578704,
2,1,0,0,0,27328.4,0.583095,0.582821,0.276318,41,0.0347119,10,0.000161044,-3.55859,0.450334,0.131014,0.582699,
2,1,0,1,0,27329.2,0.58709,0.586809,0.281621,41,0.0349438,10,0.000165258,-3.55034,0.413013,0.142853,0.586685,
2,1,0,1,0,27330,0.591085,0.590794,0.28823,41,0.0351803,10,0.000170285,-3.54026,0.370208,0.15937,0.590667,
2,1,0,1,0,27330.8,0.59508,0.594813,0.295263,41,0.0354222,10,0.000175626,-3.52979,0.326448,0.180733,0.594683,
2,1,0,1,0,27331.6,0.599076,0.598807,0.30398,41,0.0356704,10,0.000182025,-3.51716,0.355361,0.166028,0.598673,
2,1,0,0,0,27332.4,0.603071,0.602769,0.313486,41,0.0359254,10,0.00018896,-3.50378,0.283514,0.208103,0.602631,
2,1,0,1,0,27333.2,0.607066,0.606793,0.323123,41,0.0361884,10,0.000196069,-3.49063,0.266923,0.221038,0.606651,
2,1,0,1,0,27334,0.611061,0.610788,0.336439,41,0.0364606,10,0.000205493,-3.47309,0.245171,0.240648,0.61064,
2,1,0,1,0,27334.8,0.615056,0.614767,0.349797,41,0.036743,10,0.000215043,-3.45618,0.200661,0.294028,0.614613,
2,1,0,1,0,27335.6,0.619051,0.61876,0.365519,41,0.037038,10,0.000226169,-3.43709,0.201061,0.293443,0.618599,
2,1,0,0,0,27336.4,0.623047,0.622765,0.384665,41,0.0373467,10,0.000239556,-3.41492,0.164292,0.359116,0.622596,
2,1,0,1,0,27337.2,0.627042,0.626738,0.407167,41,0.0376721,10,0.000255187,-3.39023,0.151755,0.388784,0.626558,
2,1,0,1,0,27338,0.631037,0.630777,0.433394,41,0.038017,10,0.000273375,-3.36312,0.143838,0.410184,0.630586,
2,1,0,1,0,27338.8,0.635032,0.634711,0.463551,41,0.038384,10,0.000294221,-3.3339,0.130797,0.451082,0.634507,
2,1,0,1,0,27339.6,0.639027,0.63879,0.499636,41,0.0387775,10,0.000319163,-3.30135,0.117308,0.502952,0.63857,
2,1,0,1,0,27340.4,0.643022,0.642693,0.540725,41,0.0392019,10,0.00034752,-3.26702,0.113567,0.519519,0.642455,
2,1,0,1,0,27341.2,0.647018,0.646735,0.588209,41,0.0396613,10,0.000380416,-3.23047,0.101041,0.58392,0.646476,
2,1,0,0,0,27342,0.651013,0.650755,0.645938,41,0.040163,10,0.000420347,-3.18981,0.0965667,0.610977,0.650471,
2,1,0,1,0,27342.8,0.655008,0.654779,0.712779,41,0.0407146,10,0.000466713,-3.14705,0.0898335,0.65677,0.654466,
2,1,0,1,0,27343.6,0.659003,0.658736,0.791452,41,0.0413239,10,0.000521359,-3.10158,0.0862413,0.684127,0.658388,
2,1,0,1,0,27344.4,0.662998,0.662733,0.88339,41,0.0420011,10,0.000585452,-3.05385,0.0804909,0.733002,0.662344,
2,1,0,1,0,27345.2,0.666994,0.666747,0.988537,41,0.0427567,10,0.000659104,-3.00501,0.0801053,0.736531,0.666312,
2,1,0,0,0,27346,0.670989,0.670671,1.10861,41,0.0436028,10,0.000743513,-2.95522,0.0771368,0.764875,0.670183,
2,1,0,1,0,27346.8,0.674984,0.674724,1.24976,41,0.0445528,10,0.000843242,-2.90317,0.0771707,0.764539,0.674174,
2,1,0,1,0,27347.6,0.67898,0.678709,1.40874,41,0.0456226,10,0.000956127,-2.85117,0.072486,0.813951,0.67809,
2,1,0,1,0,27348.4,0.682974,0.682705,1.58784,41,0.0468283,10,0.00108402,-2.79919,0.0760783,0.775517,0.682006,
2,1,0,1,0,27349.2,0.686969,0.686728,1.79323,41,0.048187,10,0.00123146,-2.74636,0.0748508,0.788234,0.685939,
2,1,0,0,0,27350,0.690965,0.690637,2.02016,41,0.0497185,10,0.0013952,-2.69461,0.0751485,0.785112,0.689748,
2,1,0,1,0,27350.8,0.69496,0.694642,2.2741,41,0.0514414,10,0.00157968,-2.64319,0.0763612,0.772643,0.693641,
2,1,0,0,0,27351.6,0.698955,0.69867,2.55009,41,0.0533763,10,0.00178168,-2.59344,0.0781973,0.754501,0.697548,
2,1,0,1,0,27352.4,0.70295,0.702701,2.85509,41,0.0555439,10,0.00200627,-2.54438,0.0793492,0.743549,0.701445,
2,1,0,1,0,27353.2,0.706945,0.706742,3.18456,41,0.0579644,10,0.00225066,-2.49695,0.0833868,0.707546,0.705341,
2,1,0,1,0,27354,0.71094,0.710667,3.54151,41,0.0606596,10,0.00251684,-2.45081,0.0839503,0.702797,0.709109,
2,1,0,1,0,27354.8,0.714936,0.714707,3.92554,41,0.0636515,10,0.00280561,-2.4061,0.0866225,0.681116,0.71298,
2,1,0,0,0,27355.6,0.718931,0.718658,4.33708,41,0.0669599,10,0.00311688,-2.3628,0.0893366,0.660424,0.71675,
2,1,0,1,0,27356.4,0.722927,0.722657,4.77198,41,0.0706071,10,0.0034485,-2.3213,0.0932182,0.632924,0.720557,
2,1,0,1,0,27357.2,0.726921,0.726666,5.23626,41,0.0746137,10,0.00380501,-2.28098,0.0969099,0.608813,0.724362,
2,1,0,1,0,27358,0.730916,0.73066,5.72538,41,0.0790008,10,0.00418331,-2.2422,0.0980706,0.601607,0.728141,
2,1,0,1,0,27358.8,0.734911,0.734661,6.24232,41,0.0837904,10,0.00458599,-2.20465,0.10149,0.581339,0.731914,
2,1,0,0,0,27359.6,0.738907,0.73859,6.78604,41,0.0890039,10,0.00501211,-2.16838,0.10461,0.563998,0.735604,
2,1,0,1,0,27360.4,0.742902,0.742623,7.35695,41,0.094662,10,0.00546344,-2.1333,0.109058,0.540998,0.739386,
2,1,0,1,0,27361.2,0.746897,0.746663,7.95641,41,0.100788,10,0.00594076,-2.09928,0.1112,0.530573,0.743162,
2,1,0,1,0,27362,0.750892,0.750621,8.58396,41,0.107404,10,0.0064433,-2.06631,0.113285,0.52081,0.746844,
2,1,0,1,0,27362.8,0.754887,0.754595,9.24144,41,0.114533,10,0.00697355,-2.03426,0.11751,0.502085,0.750528,
2,1,0,0,0,27363.6,0.758883,0.758619,9.93197,41,0.122202,10,0.00753458,-2.00296,0.118893,0.496243,0.754249,
2,1,0,1,0,27364.4,0.762878,0.762635,10.6619,41,0.130437,10,0.00813116,-1.97216,0.121093,0.487228,0.757944,
2,1,0,0,0,27365.2,0.766873,0.766623,11.4267,41,0.139269,10,0.00876,-1.94208,0.122266,0.482553,0.761595,
2,1,0,1,0,27366,0.770868,0.770586,12.2419,41,0.148733,10,0.00943345,-1.91215,0.121567,0.48533,0.7652,
2,1,0,1,0,27366.8,0.774863,0.774631,13.1038,41,0.158865,10,0.0101506,-1.8826,0.119631,0.493185,0.768866,
2,1,0,1,0,27367.6,0.778858,0.778597,14.0327,41,0.169713,10,0.0109258,-1.85286,0.122092,0.483241,0.772423,
2,1,0,1,0,27368.4,0.782854,0.782597,15.0206,41,0.181327,10,0.0117551,-1.82331,0.120164,0.490996,0.775988,
2,1,0,0,0,27369.2,0.786849,0.78661,16.05,41,0.193749,10,0.0126251,-1.79453,0.124549,0.473707,0.779548,
2,1,0,1,0,27370,0.790844,0.790586,17.1577,41,0.207021,10,0.0135647,-1.76554,0.119803,0.492474,0.783037,
2,1,0,1,0,27370.8,0.794839,0.794522,18.2766,41,0.221213,10,0.0145212,-1.7381,0.131214,0.449648,0.78648,
2,1,0,1,0,27371.6,0.798834,0.798587,19.6027,41,0.236319,10,0.0156545,-1.70768,0.108793,0.542314,0.789962,
2,1,0,1,0,27372.4,0.802829,0.802597,20.8992,41,0.252509,10,0.0167736,-1.67987,0.126067,0.468005,0.793401,
2,1,0,0,0,27373.2,0.806825,0.806538,22.2587,41,0.269759,10,0.0179525,-1.6525,0.124143,0.475257,0.796744,
2,1,0,1,0,27374,0.81082,0.810562,23.694,41,0.288121,10,0.0192055,-1.62536,0.12307,0.479404,0.800137,
2,1,0,1,0,27374.8,0.814815,0.814568,25.1866,41,0.30766,10,0.0205162,-1.59883,0.130734,0.451299,0.803486,
2,1,0,1,0,27375.6,0.81881,0.818556,26.687,41,0.328386,10,0.0218448,-1.5737,0.131707,0.447966,0.806814,
2,1,0,1,0,27376.4,0.822805,0.822581,28.285,41,0.350357,10,0.0232667,-1.54844,0.135368,0.435849,0.810135,
2,1,0,0,0,27377.2,0.826801,0.82654,29.8798,41,0.373605,10,0.0246969,-1.52462,0.142229,0.414825,0.813393,
2,1,0,1,0,27378,0.830796,0.830502,31.4816,41,0.398131,10,0.0261456,-1.50194,0.147945,0.398796,0.81665,
2,1,0,0,0,27378.8,0.834791,0.834547,33.0673,41,0.423933,10,0.0275962,-1.4806,0.156178,0.377775,0.819997,
2,1,0,1,0,27379.6,0.838786,0.838607,34.6968,41,0.451019,10,0.0290969,-1.45971,0.157467,0.374681,0.823341,
2,1,0,1,0,27380.4,0.842781,0.84253,36.3621,41,0.479409,10,0.0306362,-1.43935,0.166251,0.354885,0.826531,
2,1,0,1,0,27381.2,0.846776,0.846524,38.0396,41,0.509144,10,0.0322014,-1.41976,0.169579,0.347919,0.829787,
2,1,0,0,0,27381.9,0.849723,0.849515,39.0918,41,0.536238,10,0.0332091,-1.40791,0.0394971,1.49378,0.832315,
2,1,0,1,0,27382.7,0.845728,0.845497,36.6642,41,0.566398,10,0.0309995,-1.43576,0.128636,0.458658,0.829365,
2,1,0,0,0,27383.5,0.841732,0.841481,34.7281,41,0.594897,10,0.029223,-1.45932,0.132517,0.445227,0.8262,
2,1,0,1,0,27384.3,0.837737,0.837523,32.2726,41,0.621647,10,0.027029,-1.49117,0.0974988,0.605135,0.823323,
2,1,0,1,0,27385.1,0.833742,0.833517,30.6395,41,0.646772,10,0.0255386,-1.51372,0.133387,0.442323,0.820035,
2,1,0,1,0,27385.9,0.829747,0.829476,28.899,41,0.670531,10,0.023971,-1.53912,0.130555,0.451916,0.81676,
2,1,0,1,0,27386.7,0.825752,0.825546,27.2942,41,0.692963,10,0.0225326,-1.56393,0.127931,0.461185,0.813536,
2,1,0,0,0,27387.5,0.821757,0.821499,25.6991,41,0.714118,10,0.0211118,-1.59008,0.128194,0.460238,0.810192,
2,1,0,1,0,27388.3,0.817761,0.81748,24.1541,41,0.734025,10,0.0197455,-1.61701,0.123308,0.478476,0.806852,
2,1,0,1,0,27389.1,0.813766,0.813517,22.7021,41,0.752731,10,0.0184686,-1.64393,0.120896,0.488024,0.803528,
2,1,0,1,0,27389.9,0.809771,0.809485,21.2789,41,0.770286,10,0.0172249,-1.67205,0.114418,0.515653,0.800122,
2,1,0,1,0,27390.7,0.805776,0.805527,19.8709,41,0.786693,10,0.0160065,-1.70178,0.116999,0.504276,0.796784,
2,1,0,0,0,27391.5,0.801781,0.801571,18.5642,41,0.802031,10,0.0148805,-1.73132,0.113628,0.519239,0.793403,
2,1,0,1,0,27392.3,0.797786,0.797522,17.325,41,0.816349,10,0.0138171,-1.76133,0.116345,0.507111,0.789899,
2,1,0,1,0,27393.1,0.79379,0.793495,16.1368,41,0.829709,10,0.0128045,-1.79218,0.112084,0.526389,0.786394,
2,1,0,1,0,27393.8,0.789795,0.789533,15.0296,41,0.842146,10,0.0118663,-1.82305,0.110966,0.531696,0.78292,
2,1,0,1,0,27394.6,0.7858,0.78551,13.968,41,0.853715,10,0.010972,-1.85486,0.11177,0.527869,0.779364,
2,1,0,0,0,27395.4,0.781805,0.781524,12.9602,41,0.86446,10,0.0101287,-1.88739,0.109875,0.536975,0.775822,
2,1,0,1,0,27396.2,0.77781,0.777554,12.0167,41,0.874425,10,0.00934362,-1.92022,0.107906,0.54677,0.772267,
2,1,0,0,0,27397,0.773815,0.773515,11.1254,41,0.883657,10,0.00860567,-1.95368,0.107201,0.550369,0.76862,
2,1,0,1,0,27397.8,0.769819,0.769569,10.2967,41,0.892202,10,0.00792405,-1.9873,0.105121,0.561257,0.765038,
2,1,0,1,0,27398.6,0.765824,0.765573,9.50027,41,0.900097,10,0.00727315,-2.02226,0.104795,0.563005,0.761393,
2,1,0,1,0,27399.4,0.761829,0.761575,8.75013,41,0.907373,10,0.00666388,-2.05799,0.100294,0.588268,0.757725,
2,1,0,1,0,27400.2,0.757834,0.757573,8.04706,41,0.914071,10,0.00609623,-2.09436,0.101636,0.580504,0.754032,
2,1,0,0,0,27401,0.753839,0.75354,7.3451,41,0.920216,10,0.00553483,-2.134,0.0934647,0.631254,0.750308,
2,1,0,1,0,27401.8,0.749844,0.749589,6.73758,41,0.92583,10,0.00505041,-2.1715,0.096334,0.612452,0.746624,
2,1,0,1,0,27402.6,0.745848,0.745529,6.16278,41,0.930972,10,0.00459453,-2.21022,0.0969005,0.608872,0.742818,
2,1,0,1,0,27403.4,0.741853,0.741518,5.61812,41,0.935667,10,0.00416594,-2.25041,0.0919073,0.641951,0.739046,
2,1,0,1,0,27404.2,0.737858,0.737573,5.11026,41,0.939942,10,0.00376919,-2.29156,0.0904449,0.652331,0.735324,
2,1,0,0,0,27405,0.733863,0.733584,4.63549,41,0.943825,10,0.00340052,-2.3339,0.088374,0.667617,0.731545,
2,1,0,1,0,27405.8,0.729868,0.729598,4.19151,41,0.94734,10,0.00305812,-2.37763,0.085447,0.690487,0.727754,
2,1,0,1,0,27406.6,0.725872,0.725597,3.77852,41,0.950513,10,0.00274168,-2.42268,0.0836271,0.705513,0.723934,
2,1,0,1,0,27407.4,0.721877,0.721561,3.39436,41,0.953367,10,0.00244924,-2.46924,0.0816565,0.722539,0.720068,
2,1,0,1,0,27408.2,0.717882,0.717645,3.03385,41,0.955925,10,0.00217723,-2.51801,0.0778859,0.757518,0.716311,
2,1,0,0,0,27409,0.713887,0.713638,2.70418,41,0.958207,10,0.0019298,-2.56796,0.0746147,0.790729,0.712448,
2,1,0,1,0,27409.8,0.709892,0.709605,2.39774,41,0.960235,10,0.00170145,-2.6202,0.0732546,0.805411,0.70855,
2,1,0,0,0,27410.6,0.705897,0.705579,2.11601,41,0.962028,10,0.00149301,-2.67448,0.0694752,0.849224,0.704648,
2,1,0,1,0,27411.4,0.701901,0.70161,1.86008,41,0.963605,10,0.00130505,-2.73047,0.0663676,0.888989,0.700792,
2,1,0,1,0,27412.2,0.697906,0.697593,1.62224,41,0.964985,10,0.00113166,-2.78988,0.0656541,0.898649,0.696879,
2,1,0,1,0,27413,0.693911,0.693652,1.40898,41,0.966186,10,0.000977339,-2.8511,0.0627374,0.940429,0.693032,
2,1,0,1,0,27413.8,0.689916,0.68961,1.21384,41,0.967224,10,0.000837079,-2.91584,0.0588254,1.00297,0.689076,
2,1,0,0,0,27414.6,0.685921,0.685679,1.0411,41,0.968115,10,0.00071386,-2.98251,0.0574568,1.02686,0.685221,
2,1,0,1,0,27415.4,0.681926,0.681686,0.886137,41,0.968875,10,0.000604067,-3.0525,0.0543969,1.08462,0.681296,
2,1,0,1,0,27416.2,0.67793,0.677645,0.746606,41,0.969517,10,0.000505934,-3.12691,0.0521422,1.13152,0.677317,
2,1,0,1,0,27417,0.673935,0.673632,0.624263,41,0.970055,10,0.000420523,-3.20463,0.0486841,1.21189,0.673357,
2,1,0,1,0,27417.8,0.66994,0.669667,0.519304,41,0.970501,10,0.000347761,-3.28458,0.0481966,1.22415,0.669439,
2,1,0,0,0,27418.6,0.665945,0.665656,0.42458,41,0.970867,10,0.000282624,-3.37204,0.0443671,1.32981,0.665469,
2,1,0,1,0,27419.4,0.66195,0.661676,0.343287,41,0.971164,10,0.000227145,-3.46434,0.0415634,1.41952,0.661525,
2,1,0,0,0,27420.2,0.657955,0.657657,0.273181,41,0.971401,10,0.00017966,-3.56355,0.0381037,1.54841,0.657537,
2,1,0,1,0,27421,0.653959,0.653658,0.213026,41,0.971586,10,0.000139246,-3.67157,0.035793,1.64837,0.653564,
2,1,0,1,0,27421.8,0.649964,0.649687,0.162223,41,0.971726,10,0.000105394,-3.78989,0.03077,1.91745,0.649616,
2,1,0,1,0,27422.6,0.64597,0.645702,0.118354,41,0.971829,10,7.64217e-05,-3.92682,0.0267416,2.2063,0.64565,
2,1,0,1,0,27423.4,0.641974,0.64168,0.0812213,41,0.971899,10,5.21181e-05,-4.09033,0.0215658,2.73581,0.641644,
2,1,0,0,0,27424.2,0.637979,0.637706,0.0511541,41,0.971943,10,3.26213e-05,-4.29112,0.0163088,3.61768,0.637684,
2,1,0,1,0,27425,0.633983,0.633683,0.0243415,41,0.971963,10,1.54248e-05,-4.61365,0.00907318,6.50268,0.633672,
2,1,0,1,0,27425.8,0.629988,0.629705,0.00218049,41,0.971965,10,1.37307e-06,-5.66145,0.0165351,3.56817,0.629704,
2,0,0,1,0,27426.6,0.625993,0.625667,-0.014947,41,0.971951,10,-9.35186e-06,-4.82545,-0.00818598,-7.20744,0.625673,
2,0,0,1,0,27427.4,0.621998,0.621709,-0.0309882,41,0.971924,10,-1.92657e-05,-4.5088,-0.0209136,-2.82113,0.621723,
2,0,0,0,0,27428.2,0.618003,0.617744,-0.0426783,41,0.971885,10,-2.63642e-05,-4.36979,-0.0300429,-1.96386,0.617763,
2,0,0,1,0,27429,0.614008,0.613706,-0.0535158,41,0.971838,10,-3.2843e-05,-4.27152,-0.0598439,-0.985899,0.61373,
2,0,0,1,0,27429.8,0.610012,0.609728,-0.062178,41,0.971783,10,-3.79117e-05,-4.20636,-0.0672586,-0.877211,0.609756,
2,0,0,1,0,27430.6,0.606017,0.605742,-0.0691465,41,0.971721,10,-4.18849e-05,-4.16023,-0.0944974,-0.624356,0.605772,
2,0,0,1,0,27431.4,0.602022,0.601731,-0.076323,41,0.971654,10,-4.59259e-05,-4.11734,-0.119664,-0.493049,0.601765,
2,0,0,0,0,27432.2,0.598027,0.597717,-0.0811832,41,0.971582,10,-4.85246e-05,-4.09053,-0.135999,-0.433827,0.597753,
2,0,0,1,0,27433,0.594032,0.593751,-0.0861861,41,0.971505,10,-5.1173e-05,-4.06456,-0.189048,-0.312089,0.593788,
2,0,0,0,0,27433.8,0.590037,0.589781,-0.0905912,41,0.971426,10,-5.3429e-05,-4.04291,-0.23685,-0.249103,0.589821,
2,0,0,1,0,27434.6,0.586041,0.585711,-0.0928915,41,0.971343,10,-5.44076e-05,-4.03202,-0.305206,-0.193312,0.585752,
2,0,0,1,0,27435.4,0.582046,0.581747,-0.096838,41,0.971258,10,-5.63352e-05,-4.01395,-0.315006,-0.187298,0.581789,
2,0,0,1,0,27436.2,0.578052,0.577772,-0.0989322,41,0.971171,10,-5.71602e-05,-4.00466,-0.318101,-0.185476,0.577815,
2,0,0,1,0,27437,0.574056,0.573752,-0.10051,41,0.971082,10,-5.76679e-05,-3.99779,-0.667415,-0.0884007,0.573797,
2,0,0,0,0,27437.8,0.570061,0.569779,-0.103125,41,0.970991,10,-5.87584e-05,-3.98664,-0.540068,-0.109246,0.569824,
2,0,0,1,0,27438.6,0.566065,0.565755,-0.104166,41,0.970899,10,-5.89325e-05,-3.98227,-0.401591,-0.146915,0.565801,
2,0,0,1,0,27439.4,0.56207,0.561773,-0.106515,41,0.970806,10,-5.98374e-05,-3.97259,-0.855728,-0.0689471,0.56182,
2,0,0,1,0,27440.2,0.558075,0.557784,-0.107311,41,0.970711,10,-5.98562e-05,-3.96936,-1.66224,-0.0354942,0.557831,
2,0,0,1,0,27441,0.55408,0.553807,-0.108477,41,0.970616,10,-6.00756e-05,-3.96466,-0.347956,-0.169562,0.553855,
2,0,0,0,0,27441.8,0.550085,0.549775,-0.110167,41,0.970519,10,-6.0567e-05,-3.95795,1.4273,0.0413369,0.549824,
2,0,0,1,0,27442.6,0.54609,0.545734,-0.110982,41,0.970422,10,-6.05669e-05,-3.95475,-0.674886,-0.0874221,0.545783,
2,0,0,1,0,27443.4,0.542094,0.541776,-0.111783,41,0.970323,10,-6.05612e-05,-3.95163,-0.427675,-0.137955,0.541825,
2,0,0,1,0,27444.2,0.538099,0.537789,-0.113957,41,0.970223,10,-6.12847e-05,-3.94326,-1.82329,-0.0323591,0.537839,
2,0,0,1,0,27445,0.534104,0.53382,-0.11425,41,0.970123,10,-6.0989e-05,-3.94214,-1.0628,-0.0555135,0.53387,
2,0,0,0,0,27445.8,0.530109,0.529799,-0.114989,41,0.970022,10,-6.09209e-05,-3.93935,-1.70106,-0.0346842,0.52985,
2,0,0,1,0,27446.6,0.526114,0.525807,-0.116585,41,0.96992,10,-6.1301e-05,-3.93336,-1.29246,-0.0456494,0.525858,
2,0,0,0,0,27447.4,0.522119,0.521783,-0.117421,41,0.969817,10,-6.12682e-05,-3.93025,-1.35846,-0.0434316,0.521834,
2,0,0,1,0,27448.2,0.518123,0.517867,-0.119163,41,0.969713,10,-6.17105e-05,-3.92386,-0.816485,-0.072261,0.51792,
2,0,0,1,0,27449,0.514128,0.513829,-0.119357,41,0.969609,10,-6.1329e-05,-3.92315,-1.48968,-0.0396057,0.513881,
2,0,0,1,0,27449.8,0.510133,0.509825,-0.119447,41,0.969504,10,-6.08973e-05,-3.92282,-0.558541,-0.105632,0.509877,
2,0,0,1,0,27450.6,0.506138,0.505847,-0.121188,41,0.969398,10,-6.13028e-05,-3.91654,-6.22367,-0.00947993,0.5059,
2,0,0,0,0,27451.4,0.502143,0.501833,-0.122506,41,0.969291,10,-6.14777e-05,-3.91184,-0.982519,-0.0600497,0.501887,
2,0,0,1,0,27452.2,0.498148,0.497846,-0.123859,41,0.969183,10,-6.16627e-05,-3.90707,-0.874298,-0.0674827,0.497901,
2,0,0,1,0,27453,0.494152,0.493831,-0.12441,41,0.969074,10,-6.14375e-05,-3.90515,-0.783853,-0.0752692,0.493886,
2,0,0,1,0,27453.8,0.490157,0.489849,-0.126246,41,0.968965,10,-6.18417e-05,-3.89878,-2.73551,-0.0215682,0.489904,
2,0,0,1,0,27454.6,0.486162,0.485831,-0.127052,41,0.968854,10,-6.17257e-05,-3.89602,-0.785245,-0.0751358,0.485887,
2,0,0,0,0,27455.4,0.482167,0.481868,-0.127549,41,0.968743,10,-6.14617e-05,-3.89432,-0.836949,-0.0704942,0.481924,
2,0,0,1,0,27456.2,0.478172,0.477847,-0.129114,41,0.96863,10,-6.16967e-05,-3.88903,-0.956978,-0.0616524,0.477904,
2,0,0,0,0,27457,0.474177,0.473847,-0.131433,41,0.968517,10,-6.2279e-05,-3.8813,4.89087,0.0120633,0.473905,
2,0,0,1,0,27457.8,0.470181,0.469892,-0.13243,41,0.968402,10,-6.22278e-05,-3.87801,-0.430984,-0.136896,0.46995,
2,0,0,1,0,27458.6,0.466186,0.465864,-0.133679,41,0.968286,10,-6.22763e-05,-3.87394,-2.49641,-0.0236339,0.465923,
2,0,0,1,0,27459.4,0.462191,0.461861,-0.135033,41,0.96817,10,-6.23666e-05,-3.86956,-0.600203,-0.0983001,0.46192,
2,0,0,1,0,27460.2,0.458196,0.457885,-0.136143,41,0.968052,10,-6.23376e-05,-3.86601,-0.780315,-0.0756105,0.457945,
2,0,0,0,0,27461,0.454201,0.453927,-0.137291,41,0.967933,10,-6.23201e-05,-3.86236,-0.750625,-0.0786012,0.453988,
2,0,0,1,0,27461.8,0.450205,0.449928,-0.139472,41,0.967813,10,-6.27525e-05,-3.85551,-0.828492,-0.0712137,0.449989,
2,0,0,1,0,27462.6,0.44621,0.44592,-0.140215,41,0.967691,10,-6.25247e-05,-3.85321,-1.40926,-0.041866,0.445982,
2,0,0,1,0,27463.4,0.442215,0.441909,-0.142566,41,0.967568,10,-6.30011e-05,-3.84598,-1.09032,-0.0541125,0.441972,
2,0,0,1,0,27464.2,0.43822,0.437923,-0.143364,41,0.967444,10,-6.27824e-05,-3.84356,-0.83784,-0.0704192,0.437986,
2,0,0,0,0,27465,0.434225,0.433934,-0.146045,41,0.967318,10,-6.33741e-05,-3.83551,-0.617548,-0.0955391,0.433999,
2,0,0,1,0,27465.8,0.43023,0.429927,-0.146789,41,0.967191,10,-6.31085e-05,-3.83331,-0.860442,-0.0685694,0.429992,
2,0,0,1,0,27466.6,0.426234,0.425963,-0.149236,41,0.967063,10,-6.35692e-05,-3.82613,-0.4831,-0.122128,0.426029,
2,0,0,1,0,27467.4,0.422239,0.421961,-0.151035,41,0.966933,10,-6.37309e-05,-3.82092,-1.06381,-0.0554613,0.422028,
2,0,0,1,0,27468.2,0.418244,0.417947,-0.152508,41,0.966802,10,-6.37403e-05,-3.81671,-0.84911,-0.0694846,0.418014,
2,0,0,0,0,27469,0.414249,0.413956,-0.154393,41,0.966669,10,-6.3912e-05,-3.81137,-1.23402,-0.0478111,0.414024,
2,0,0,1,0,27469.8,0.410254,0.409932,-0.156591,41,0.966535,10,-6.41918e-05,-3.80523,-0.704918,-0.0836977,0.410001,
2,0,0,0,0,27470.6,0.406259,0.405954,-0.158525,41,0.966399,10,-6.43536e-05,-3.7999,-0.65149,-0.0905616,0.406023,
2,0,0,1,0,27471.4,0.402263,0.401949,-0.160745,41,0.966261,10,-6.46114e-05,-3.79386,-0.513563,-0.114884,0.40202,
2,0,0,1,0,27472.2,0.398268,0.397982,-0.163173,41,0.966122,10,-6.49398e-05,-3.78735,-0.700639,-0.0842089,0.398053,
2,0,0,1,0,27473,0.394274,0.393997,-0.164511,41,0.965981,10,-6.48169e-05,-3.7838,-0.711361,-0.0829396,0.394069,
2,0,0,1,0,27473.8,0.390278,0.389959,-0.166305,41,0.965838,10,-6.48524e-05,-3.77909,-1.34727,-0.0437924,0.390033,
2,0,0,0,0,27474.6,0.386283,0.386019,-0.167687,41,0.965694,10,-6.47302e-05,-3.7755,-0.823896,-0.071611,0.386093,
2,0,0,1,0,27475.4,0.382287,0.381985,-0.169893,41,0.965548,10,-6.48967e-05,-3.76982,-0.605142,-0.0974978,0.382059,
2,0,0,1,0,27476.2,0.378292,0.377964,-0.173124,41,0.9654,10,-6.54347e-05,-3.76164,-1.84859,-0.0319163,0.37804,
2,0,0,1,0,27476.9,0.374297,0.373947,-0.173591,41,0.965251,10,-6.49136e-05,-3.76047,-0.409491,-0.144081,0.374023,
2,0,0,1,0,27477.7,0.370303,0.36995,-0.176859,41,0.9651,10,-6.54289e-05,-3.75237,-1.23257,-0.0478676,0.370028,
2,0,0,0,0,27478.5,0.366307,0.365945,-0.179,41,0.964947,10,-6.55041e-05,-3.74715,-0.752596,-0.0783954,0.366024,
2,0,0,1,0,27479.3,0.362312,0.36202,-0.18074,41,0.964792,10,-6.54314e-05,-3.74295,-0.684588,-0.0861833,0.362099,
2,0,0,1,0,27480.1,0.358316,0.358037,-0.183092,41,0.964635,10,-6.55536e-05,-3.73733,-1.07662,-0.0548011,0.358117,
2,0,0,1,0,27480.9,0.354321,0.353988,-0.185755,41,0.964477,10,-6.5755e-05,-3.73106,-0.611201,-0.0965313,0.35407,
2,0,0,1,0,27481.7,0.350327,0.350049,-0.187461,41,0.964317,10,-6.56205e-05,-3.72709,-0.719267,-0.0820279,0.350132,
2,0,0,0,0,27482.5,0.346331,0.34603,-0.190171,41,0.964155,10,-6.5805e-05,-3.72085,-3.43252,-0.0171885,0.346114,
2,0,0,1,0,27483.3,0.342336,0.342024,-0.191259,41,0.963991,10,-6.54153e-05,-3.71838,-0.555973,-0.10612,0.342108,
2,0,0,0,0,27484.1,0.338341,0.338042,-0.194043,41,0.963825,10,-6.55946e-05,-3.7121,-1.05814,-0.0557585,0.338127,
2,0,0,1,0,27484.9,0.334345,0.334,-0.196595,41,0.963658,10,-6.5663e-05,-3.70643,-0.567348,-0.103993,0.334087,
2,0,0,1,0,27485.7,0.33035,0.330037,-0.198441,41,0.963489,10,-6.5493e-05,-3.70237,-0.65881,-0.0895554,0.330124,
2,0,0,1,0,27486.5,0.326355,0.326005,-0.201935,41,0.963317,10,-6.58318e-05,-3.69479,-1.35581,-0.0435164,0.326093,
2,0,0,1,0,27487.3,0.32236,0.322043,-0.204195,41,0.963144,10,-6.57595e-05,-3.68995,-0.628462,-0.0938799,0.322132,
2,0,0,0,0,27488.1,0.318365,0.31805,-0.204562,41,0.962969,10,-6.50608e-05,-3.68918,-0.875264,-0.0674082,0.31814,
2,0,0,1,0,27488.9,0.31437,0.314042,-0.208175,41,0.962792,10,-6.53758e-05,-3.68157,-1.6658,-0.0354184,0.314133,
2,0,0,1,0,27489.7,0.310374,0.310103,-0.210862,41,0.962613,10,-6.5389e-05,-3.676,-0.478289,-0.123356,0.310196,
2,0,0,1,0,27490.5,0.306379,0.306055,-0.212726,41,0.962431,10,-6.51059e-05,-3.67218,-0.714975,-0.0825203,0.306148,
2,0,0,1,0,27491.3,0.302385,0.302054,-0.215731,41,0.962248,10,-6.51624e-05,-3.66609,-0.730534,-0.0807629,0.302149,
2,0,0,0,0,27492.1,0.298389,0.298069,-0.218437,41,0.962063,10,-6.51091e-05,-3.66067,-0.575889,-0.10245,0.298165,
2,0,0,1,0,27492.9,0.294394,0.294096,-0.22049,41,0.961875,10,-6.48452e-05,-3.65661,-3.06321,-0.0192608,0.294193,
2,0,0,1,0,27493.7,0.290398,0.29009,-0.223308,41,0.961686,10,-6.47795e-05,-3.65109,-0.75032,-0.0786332,0.290188,
2,0,0,1,0,27494.5,0.286403,0.286077,-0.225652,41,0.961494,10,-6.45538e-05,-3.64656,-0.663472,-0.0889261,0.286176,
2,0,0,1,0,27495.3,0.282408,0.282116,-0.229247,41,0.9613,10,-6.46744e-05,-3.6397,-0.917819,-0.0642828,0.282217,
2,0,0,1,0,27496.1,0.278414,0.278099,-0.231128,41,0.961105,10,-6.42764e-05,-3.63615,-0.678747,-0.0869248,0.2782,
2,0,0,1,0,27496.9,0.274418,0.274141,-0.234299,41,0.960907,10,-6.42309e-05,-3.63023,-0.850217,-0.069394,0.274244,
2,0,0,0,0,27497.7,0.270423,0.270129,-0.23795,41,0.960706,10,-6.42774e-05,-3.62351,-0.673897,-0.0875504,0.270234,
2,0,0,1,0,27498.5,0.266427,0.26608,-0.239346,41,0.960504,10,-6.36852e-05,-3.62097,-1.10292,-0.0534942,0.266186,
2,0,0,1,0,27499.3,0.262432,0.26214,-0.241651,41,0.9603,10,-6.33464e-05,-3.61681,-0.972544,-0.0606656,0.262246,
2,0,0,1,0,27500.1,0.258437,0.258096,-0.2452,41,0.960094,10,-6.3285e-05,-3.61048,-0.85545,-0.0689696,0.258204,
2,0,0,1,0,27500.9,0.254442,0.254132,-0.245717,41,0.959886,10,-6.24445e-05,-3.60957,-0.890094,-0.0662852,0.25424,
2,0,0,0,0,27501.7,0.250447,0.250125,-0.248633,41,0.959676,10,-6.21893e-05,-3.60444,-9.77259,-0.00603729,0.250234,
2,0,0,1,0,27502.5,0.246452,0.246161,-0.251223,41,0.959464,10,-6.18413e-05,-3.59994,-0.604361,-0.0976237,0.246271,
2,0,0,1,0,27503.3,0.242456,0.242137,-0.253735,41,0.95925,10,-6.14388e-05,-3.59562,-1.19063,-0.0495537,0.242249,
2,0,0,1,0,27504.1,0.238461,0.238151,-0.256479,41,0.959035,10,-6.10805e-05,-3.59095,-0.599929,-0.0983449,0.238263,
2,0,0,1,0,27504.9,0.234467,0.23411,-0.258326,41,0.958817,10,-6.04767e-05,-3.58783,-0.848419,-0.0695411,0.234223,
2,0,0,0,0,27505.7,0.230471,0.230128,-0.261781,41,0.958597,10,-6.0243e-05,-3.58206,-1.70741,-0.0345554,0.230243,
2,0,0,1,0,27506.5,0.226476,0.226176,-0.263443,41,0.958376,10,-5.95846e-05,-3.57931,-1.09384,-0.0539385,0.226292,
2,0,0,0,0,27507.3,0.222481,0.222173,-0.265727,41,0.958152,10,-5.90376e-05,-3.57556,-0.741341,-0.0795855,0.22229,
2,0,0,1,0,27508.1,0.218485,0.218165,-0.269517,41,0.957926,10,-5.87991e-05,-3.56941,-1.24637,-0.0473376,0.218283,
2,0,0,1,0,27508.9,0.21449,0.214142,-0.272176,41,0.957698,10,-5.82844e-05,-3.56515,-0.619477,-0.0952416,0.214262,
2,0,0,1,0,27509.7,0.210496,0.210197,-0.273922,41,0.957467,10,-5.75775e-05,-3.56237,-0.953507,-0.0618769,0.210317,
2,0,0,1,0,27510.5,0.2065,0.206171,-0.279201,41,0.957234,10,-5.75631e-05,-3.55408,-1.32441,-0.0445481,0.206294,
2,0,0,0,0,27511.3,0.202505,0.202205,-0.280076,41,0.956999,10,-5.66327e-05,-3.55272,-0.759807,-0.0776513,0.202328,
2,0,0,1,0,27512.1,0.198509,0.198162,-0.283807,41,0.956761,10,-5.62398e-05,-3.54698,-0.881447,-0.0669354,0.198287,
2,0,0,1,0,27512.9,0.194514,0.194165,-0.286759,41,0.95652,10,-5.56785e-05,-3.54248,-0.486613,-0.121246,0.194291,
2,0,0,1,0,27513.7,0.190519,0.190194,-0.290396,41,0.956276,10,-5.52315e-05,-3.53701,-1.00107,-0.058937,0.190322,
2,0,0,1,0,27514.5,0.186524,0.186167,-0.296083,41,0.956029,10,-5.51209e-05,-3.52859,-0.633551,-0.0931259,0.186298,
2,0,0,0,0,27515.3,0.182529,0.182226,-0.300854,41,0.955778,10,-5.48234e-05,-3.52164,-0.437976,-0.134711,0.182358,
2,0,0,1,0,27516.1,0.178534,0.178217,-0.306467,41,0.955523,10,-5.46177e-05,-3.51362,-0.504124,-0.117035,0.178352,
2,0,0,1,0,27516.9,0.174538,0.174238,-0.313785,41,0.955263,10,-5.46733e-05,-3.50337,-0.428,-0.137851,0.174377,
2,0,0,1,0,27517.7,0.170543,0.170215,-0.320268,41,0.954997,10,-5.45142e-05,-3.49449,-0.305711,-0.192993,0.170355,
2,0,0,1,0,27518.5,0.166549,0.166244,-0.329257,41,0.954724,10,-5.47369e-05,-3.48247,-0.35508,-0.16616,0.166389,
2,0,0,0,0,27519.3,0.162553,0.162234,-0.342243,41,0.954443,10,-5.55235e-05,-3.46566,-0.215691,-0.273539,0.162385,
2,0,0,1,0,27520.1,0.158558,0.158215,-0.35517,41,0.954152,10,-5.61932e-05,-3.44956,-0.193803,-0.304433,0.158371,
2,0,0,0,0,27520.9,0.154563,0.154254,-0.374495,41,0.953847,10,-5.77675e-05,-3.42655,-0.172143,-0.342739,0.154419,
2,0,0,1,0,27521.7,0.150567,0.150202,-0.39958,41,0.953526,10,-6.00179e-05,-3.3984,-0.133824,-0.440879,0.150378,
2,0,0,1,0,27522.5,0.146572,0.146244,-0.431768,41,0.953183,10,-6.31436e-05,-3.36475,-0.105578,-0.558827,0.146434,
2,0,0,1,0,27523.3,0.142578,0.142228,-0.475746,41,0.952809,10,-6.76643e-05,-3.32263,-0.0899226,-0.65612,0.142437,
2,0,0,1,0,27524.1,0.138582,0.13826,-0.525456,41,0.952397,10,-7.26497e-05,-3.27946,-0.0875448,-0.67394,0.138491,
2,0,0,0,0,27524.9,0.134587,0.134292,-0.581528,41,0.951941,10,-7.80947e-05,-3.23543,-0.0980191,-0.601923,0.134548,
2,0,0,1,0,27525.7,0.130591,0.130267,-0.635865,41,0.951442,10,-8.28325e-05,-3.19664,-0.122973,-0.479778,0.130547,
2,0,0,1,0,27526.5,0.126596,0.126246,-0.673379,41,0.950904,10,-8.50112e-05,-3.17174,-0.17629,-0.334675,0.126542,
2,0,0,1,0,27527.3,0.122602,0.122326,-0.70423,41,0.950339,10,-8.61457e-05,-3.15229,-0.291824,-0.202177,0.122636,
2,0,0,1,0,27528.1,0.118607,0.118275,-0.718321,41,0.949756,10,-8.49596e-05,-3.14368,-0.596325,-0.0989394,0.118591,
2,0,0,0,0,27528.9,0.114611,0.114279,-0.724764,41,0.949164,10,-8.28254e-05,-3.1398,-4.54162,-0.0129909,0.114598,
2,0,0,1,0,27529.7,0.110616,0.110294,-0.722951,41,0.948572,10,-7.97373e-05,-3.14089,1.66362,0.0354649,0.110612,
2,0,0,1,0,27530.5,0.10662,0.106283,-0.717545,41,0.947983,10,-7.6263e-05,-3.14415,1.17701,0.0501268,0.106599,
2,0,0,1,0,27531.3,0.102625,0.10231,-0.709965,41,0.947399,10,-7.26368e-05,-3.14876,0.628598,0.0938597,0.102623,
2,0,0,1,0,27532.1,0.0986305,0.0982863,-0.700248,41,0.946822,10,-6.88247e-05,-3.15475,0.675129,0.0873907,0.0985944,
2,0,0,0,0,27532.9,0.0946351,0.0943393,-0.688084,41,0.946252,10,-6.49134e-05,-3.16236,0.654053,0.0902068,0.094642,
2,0,0,1,0,27533.7,0.0906399,0.0902949,-0.681097,41,0.945691,10,-6.14996e-05,-3.16679,0.527884,0.111767,0.0905946,
2,0,0,0,0,27534.5,0.0866448,0.0863396,-0.670077,41,0.945138,10,-5.78542e-05,-3.17388,0.734733,0.0803013,0.0866344,
2,0,0,1,0,27535.3,0.0826492,0.082332,-0.65916,41,0.944594,10,-5.427e-05,-3.18101,0.550786,0.10712,0.0826221,
2,0,0,1,0,27536.1,0.0786544,0.0783271,-0.650584,41,0.944058,10,-5.09583e-05,-3.1867,0.674718,0.0874439,0.0786133,
2,0,0,1,0,27536.9,0.0746596,0.0742989,-0.640571,41,0.94353,10,-4.75937e-05,-3.19343,0.687461,0.085823,0.0745807,
2,0,0,1,0,27537.7,0.0706641,0.0703338,-0.631813,41,0.943008,10,-4.44378e-05,-3.19941,0.539262,0.109409,0.0706118,
2,0,0,0,0,27538.5,0.0666689,0.0663658,-0.624104,41,0.942494,10,-4.14192e-05,-3.20474,0.841028,0.0701523,0.0666404,
2,0,0,1,0,27539.3,0.0626737,0.0623002,-0.612625,41,0.941986,10,-3.81666e-05,-3.21281,0.647589,0.0911072,0.0625697,
2,0,0,1,0,27540.1,0.0586783,0.058335,-0.605946,41,0.941485,10,-3.53479e-05,-3.21757,0.520827,0.113281,0.0586016,
2,0,0,1,0,27540.9,0.0546835,0.0543514,-0.596064,41,0.940991,10,-3.23969e-05,-3.22471,0.802275,0.0735408,0.0546137,
2,0,0,1,0,27541.7,0.0506886,0.0503806,-0.588026,41,0.940504,10,-2.96251e-05,-3.2306,0.546198,0.108019,0.0506393,
2,0,0,0,0,27542.5,0.046693,0.0463845,-0.575948,41,0.940026,10,-2.67151e-05,-3.23962,0.466973,0.126346,0.0466379,
2,0,0,1,0,27543.3,0.0426979,0.0423985,-0.567006,41,0.939556,10,-2.40402e-05,-3.24641,0.563538,0.104696,0.0426479,
2,0,0,1,0,27544.1,0.0387022,0.0383451,-0.556664,41,0.939093,10,-2.13454e-05,-3.25441,0.489422,0.12055,0.0385901,
2,0,0,1,0,27544.9,0.0347074,0.0344041,-0.546601,41,0.93864,10,-1.88053e-05,-3.26233,0.515948,0.114353,0.0346446,
2,0,0,1,0,27545.7,0.0307126,0.0304215,-0.535462,41,0.938194,10,-1.62895e-05,-3.27127,0.524084,0.112577,0.0306571,
2,0,0,0,0,27546.5,0.0267172,0.0263757,-0.527782,41,0.937756,10,-1.39206e-05,-3.27755,0.407015,0.144958,0.0266079,
2,0,0,1,0,27547.3,0.022722,0.0224034,-0.518427,41,0.937326,10,-1.16145e-05,-3.28531,0.893614,0.066024,0.0226315,
2,0,0,0,0,27548.1,0.0187268,0.0184078,-0.512164,41,0.936902,10,-9.42782e-06,-3.29059,0.730777,0.080736,0.0186332,
2,0,0,1,0,27548.9,0.0147313,0.0144245,-0.507806,41,0.936483,10,-7.32487e-06,-3.2943,0.899781,0.0655715,0.014648,
2,0,0,1,0,27549.7,0.0107365,0.0104229,-0.50142,41,0.936068,10,-5.22627e-06,-3.2998,1.5426,0.0382471,0.0106436,
2,0,0,1,0,27550.5,0.00674163,0.00641278,-0.500346,41,0.935655,10,-3.20861e-06,-3.30073,2.5149,0.0234602,0.00663293,
2,0,0,1,0,27551.3,0.00274612,0.00244446,-0.500183,41,0.935243,10,-1.22268e-06,-3.30087,-2.35913,-0.0250092,0.00266454,
2,0,0,0,0,27551.8,0.000274105,-0.000115363,-0.501234,41,0.934986,10,5.78238e-08,-3.29996, , ,0.00010518,