File: Figure_codes/Fig_3-5/workspace_calculate_alpha_eff/20221101_1-115_003_TrumpetPlot_ParaChange_from10_every3_16_CV_C01_94.csv
mode,ox/red,error,control changes,counter inc.,time/s,control/V,Ewe/V,<I>/mA,cycle number,(Q-Qo)/C,I Range,P/W,log(|I|),Tafel slope mV/dec,alpha_eff,E-IR/V,
2,0,0,0,0,62674.2,2.44065e-05,-0.000229887,-0.0949418,95,0.0000000E+000,10,2.18259e-08,-4.02254, , ,-0.000188113,
2,1,0,0,0,62674.9,0.00379485,0.00344018,0.148314,95,8.84296e-05,10,5.10226e-07,-3.82882,0.0292707,2.01567,0.00337492,
2,1,0,1,0,62675.7,0.00779002,0.00742943,0.173502,95,0.000227905,10,1.28902e-06,-3.7607,0.0761942,0.774337,0.00735309,
2,1,0,0,0,62676.5,0.0117852,0.0114494,0.188925,95,0.000383203,10,2.16308e-06,-3.72371,0.122189,0.482859,0.0113663,
2,1,0,1,0,62677.3,0.0157806,0.0154665,0.203863,95,0.000550269,10,3.15306e-06,-3.69066,0.139232,0.423753,0.0153768,
2,1,0,1,0,62678.1,0.0197754,0.01945,0.215501,95,0.000727751,10,4.19149e-06,-3.66655,0.14975,0.393989,0.0193552,
2,1,0,1,0,62678.9,0.0237704,0.0234325,0.229317,95,0.000915543,10,5.37347e-06,-3.63956,0.169627,0.347822,0.0233316,
2,1,0,1,0,62679.7,0.0277659,0.0274319,0.242218,95,0.00111344,10,6.6445e-06,-3.61579,0.163214,0.361488,0.0273253,
2,1,0,0,0,62680.5,0.0317611,0.0313851,0.25526,95,0.00132222,10,8.01135e-06,-3.59302,0.179959,0.327853,0.0312728,
2,1,0,1,0,62681.3,0.0357567,0.0354181,0.269346,95,0.00154184,10,9.53975e-06,-3.56969,0.218274,0.270303,0.0352996,
2,1,0,1,0,62682.1,0.0397516,0.039368,0.282342,95,0.00177162,10,1.11152e-05,-3.54923,0.163139,0.361654,0.0392438,
2,1,0,1,0,62682.9,0.0437465,0.0433814,0.294414,95,0.00201278,10,1.27721e-05,-3.53104,0.202784,0.29095,0.0432519,
2,1,0,1,0,62683.7,0.0477413,0.0473959,0.30841,95,0.00226354,10,1.46174e-05,-3.51087,0.244923,0.240892,0.0472602,
2,1,0,0,0,62684.5,0.0517369,0.0513758,0.319362,95,0.00252413,10,1.64075e-05,-3.49572,0.237765,0.248145,0.0512353,
2,1,0,1,0,62685.3,0.0557321,0.055398,0.332336,95,0.00279423,10,1.84107e-05,-3.47842,0.336779,0.175189,0.0552517,
2,1,0,1,0,62686.1,0.0597277,0.0593897,0.342637,95,0.00307274,10,2.03491e-05,-3.46517,0.281239,0.209786,0.059239,
2,1,0,1,0,62686.9,0.0637226,0.063368,0.351053,95,0.0033596,10,2.22455e-05,-3.45463,0.335184,0.176023,0.0632135,
2,1,0,1,0,62687.7,0.0677174,0.0673942,0.360765,95,0.00365467,10,2.43135e-05,-3.44278,0.459013,0.128537,0.0672355,
2,1,0,0,0,62688.5,0.0717128,0.0712988,0.369495,95,0.00395645,10,2.63446e-05,-3.43239,0.312068,0.189062,0.0711362,
2,1,0,1,0,62689.3,0.075708,0.0753686,0.37758,95,0.00426522,10,2.84577e-05,-3.42299,0.570681,0.103385,0.0752025,
2,1,0,0,0,62690.1,0.0797031,0.0793303,0.385669,95,0.00458002,10,3.05952e-05,-3.41379,0.406513,0.145137,0.0791606,
2,1,0,1,0,62690.9,0.0836986,0.0833623,0.393803,95,0.00490139,10,3.28284e-05,-3.40472,0.366816,0.160843,0.083189,
2,1,0,1,0,62691.7,0.0876935,0.0873512,0.403712,95,0.00523057,10,3.52647e-05,-3.39393,0.360541,0.163643,0.0871736,
2,1,0,1,0,62692.5,0.0916883,0.0913528,0.418121,95,0.00556843,10,3.81965e-05,-3.3787,0.2522,0.233941,0.0911688,
2,1,0,1,0,62693.3,0.0956838,0.0953392,0.432501,95,0.00591817,10,4.12343e-05,-3.36401,0.240366,0.245459,0.0951489,
2,1,0,0,0,62694.1,0.099679,0.0993359,0.451122,95,0.0062811,10,4.48127e-05,-3.34571,0.232771,0.253468,0.0991374,
2,1,0,1,0,62694.9,0.103674,0.103335,0.472026,95,0.00665933,10,4.87767e-05,-3.32603,0.190152,0.310278,0.103127,
2,1,0,1,0,62695.7,0.10767,0.107341,0.491392,95,0.00705501,10,5.27466e-05,-3.30857,0.241738,0.244065,0.107125,
2,1,0,1,0,62696.5,0.111664,0.111343,0.511504,95,0.00746606,10,5.69522e-05,-3.29115,0.255718,0.230723,0.111118,
2,1,0,1,0,62697.3,0.115659,0.115317,0.52633,95,0.00789069,10,6.06948e-05,-3.27874,0.318675,0.185142,0.115085,
2,1,0,0,0,62698.1,0.119655,0.119327,0.537975,95,0.00832652,10,6.41947e-05,-3.26924,0.642085,0.0918882,0.11909,
2,1,0,1,0,62698.9,0.12365,0.123301,0.545554,95,0.00876928,10,6.72674e-05,-3.26316,0.669748,0.0880928,0.123061,
2,1,0,1,0,62699.7,0.127646,0.127319,0.550091,95,0.00921767,10,7.00373e-05,-3.25957,2.44048,0.0241756,0.127077,
2,1,0,1,0,62700.5,0.131641,0.131296,0.549441,95,0.00966798,10,7.21393e-05,-3.26008,-0.601396,-0.098105,0.131054,
2,1,0,1,0,62701.3,0.135635,0.135292,0.536331,95,0.0101128,10,7.25612e-05,-3.27057,-0.273243,-0.215925,0.135056,
2,1,0,0,0,62702.1,0.139631,0.139309,0.507561,95,0.0105415,10,7.07079e-05,-3.29451,-0.121821,-0.484316,0.139086,
2,1,0,1,0,62702.9,0.143626,0.143251,0.462662,95,0.0109397,10,6.62766e-05,-3.33474,-0.0851902,-0.692568,0.143047,
2,1,0,0,0,62703.7,0.147621,0.14731,0.409514,95,0.0112978,10,6.03254e-05,-3.38773,-0.0753803,-0.782698,0.14713,
2,1,0,1,0,62704.5,0.151617,0.151259,0.363706,95,0.0116161,10,5.50139e-05,-3.43925,-0.0851525,-0.692874,0.151099,
2,1,0,1,0,62705.3,0.155612,0.155268,0.331991,95,0.0119025,10,5.15476e-05,-3.47887,-0.116544,-0.506246,0.155122,
2,1,0,1,0,62706.1,0.159606,0.159233,0.310818,95,0.0121682,10,4.94925e-05,-3.50749,-0.175506,-0.336171,0.159096,
2,1,0,1,0,62706.9,0.163602,0.163215,0.296003,95,0.0124203,10,4.8312e-05,-3.5287,-0.212175,-0.278072,0.163085,
2,1,0,0,0,62707.7,0.167597,0.167263,0.287366,95,0.0126629,10,4.80659e-05,-3.54156,-0.381494,-0.154655,0.167137,
2,1,0,1,0,62708.5,0.171592,0.17126,0.278929,95,0.0128991,10,4.77694e-05,-3.55451,-0.416073,-0.141802,0.171137,
2,1,0,1,0,62709.3,0.175588,0.175224,0.276193,95,0.0131306,10,4.83958e-05,-3.55879,-0.542356,-0.108785,0.175103,
2,1,0,1,0,62710.1,0.179582,0.179214,0.271474,95,0.0133587,10,4.86521e-05,-3.56627,-0.882846,-0.0668293,0.179095,
2,1,0,1,0,62710.9,0.183577,0.183203,0.268626,95,0.0135843,10,4.92131e-05,-3.57085,-1.45517,-0.0405451,0.183085,
2,1,0,0,0,62711.7,0.187573,0.187211,0.266417,95,0.0138075,10,4.98761e-05,-3.57444,-0.990237,-0.0595817,0.187094,
2,1,0,1,0,62712.5,0.191568,0.191235,0.264234,95,0.0140291,10,5.05307e-05,-3.57801,-0.909223,-0.0648906,0.191119,
2,1,0,0,0,62713.3,0.195563,0.195225,0.262295,95,0.0142494,10,5.12067e-05,-3.58121,-1.11523,-0.0529038,0.19511,
2,1,0,1,0,62714.1,0.199559,0.199208,0.261875,95,0.0144681,10,5.21677e-05,-3.58191,2.62507,0.0224756,0.199093,
2,1,0,1,0,62714.9,0.203553,0.20318,0.258772,95,0.0146858,10,5.25774e-05,-3.58708,-0.987137,-0.0597688,0.203066,
2,1,0,1,0,62715.7,0.207548,0.20721,0.258799,95,0.0149026,10,5.36255e-05,-3.58704,-11.4099,-0.00517097,0.207096,
2,1,0,1,0,62716.5,0.211544,0.211242,0.25795,95,0.0151181,10,5.44898e-05,-3.58846,-2.37322,-0.0248607,0.211128,
2,1,0,0,0,62717.3,0.215539,0.215249,0.256561,95,0.0153329,10,5.52246e-05,-3.59081,-1.14237,-0.0516472,0.215136,
2,1,0,1,0,62718.1,0.219535,0.219196,0.256839,95,0.0155466,10,5.62982e-05,-3.59034,-1.73073,-0.0340897,0.219083,
2,1,0,1,0,62718.9,0.223529,0.223153,0.254618,95,0.0157593,10,5.68189e-05,-3.59411,-2.12386,-0.0277797,0.223041,
2,1,0,1,0,62719.7,0.227524,0.22715,0.252457,95,0.0159712,10,5.73456e-05,-3.59781,-1.25024,-0.0471911,0.227039,
2,1,0,1,0,62720.5,0.23152,0.231162,0.252551,95,0.0161822,10,5.83803e-05,-3.59765,5.16008,0.0114339,0.231051,
2,1,0,0,0,62721.3,0.235515,0.235217,0.250855,95,0.0163928,10,5.90054e-05,-3.60058,-3.12614,-0.0188731,0.235107,
2,1,0,1,0,62722.1,0.23951,0.239154,0.251238,95,0.0166025,10,6.00844e-05,-3.59992,-2.44107,-0.0241697,0.239043,
2,1,0,1,0,62722.9,0.243506,0.243142,0.251089,95,0.0168115,10,6.10504e-05,-3.60017,-6.00556,-0.00982422,0.243032,
2,1,0,1,0,62723.7,0.2475,0.247165,0.249321,95,0.0170199,10,6.16234e-05,-3.60324,-2.14422,-0.0275158,0.247055,
2,1,0,1,0,62724.5,0.251495,0.251159,0.248762,95,0.0172276,10,6.24789e-05,-3.60422,-5.13771,-0.0114837,0.25105,
2,1,0,0,0,62725.3,0.255491,0.255137,0.24694,95,0.0174346,10,6.30036e-05,-3.60741,-3.00048,-0.0196635,0.255029,
2,1,0,1,0,62726.1,0.259486,0.259162,0.247504,95,0.0176411,10,6.41437e-05,-3.60642,-0.847873,-0.0695859,0.259054,
2,1,0,0,0,62726.9,0.263481,0.26312,0.24687,95,0.0178467,10,6.49565e-05,-3.60753,11.6182,0.00507823,0.263011,
2,1,0,1,0,62727.7,0.267477,0.267122,0.244635,95,0.0180519,10,6.53473e-05,-3.61148,-2.37711,-0.0248201,0.267014,
2,1,0,1,0,62728.5,0.271471,0.271128,0.24322,95,0.018256,10,6.59438e-05,-3.614,-2.47551,-0.0238334,0.271021,
2,1,0,1,0,62729.2,0.275466,0.275143,0.243088,95,0.0184591,10,6.68841e-05,-3.61424,-2.24318,-0.026302,0.275037,
2,1,0,1,0,62730,0.279462,0.279124,0.242023,95,0.0186617,10,6.75542e-05,-3.61614,-7.24479,-0.00814378,0.279017,
2,1,0,0,0,62730.8,0.283457,0.283152,0.24169,95,0.0188634,10,6.8435e-05,-3.61674,-8.10022,-0.00728376,0.283046,
2,1,0,1,0,62731.6,0.287452,0.287113,0.241219,95,0.0190646,10,6.92569e-05,-3.61759,-1.19214,-0.0494909,0.287007,
2,1,0,1,0,62732.4,0.291448,0.29113,0.240178,95,0.0192651,10,6.99229e-05,-3.61947,-1.03159,-0.0571935,0.291024,
2,1,0,1,0,62733.2,0.295442,0.295101,0.238683,95,0.0194645,10,7.04355e-05,-3.62218,2.75675,0.021402,0.294996,
2,1,0,1,0,62734,0.299437,0.299099,0.237372,95,0.0196635,10,7.09977e-05,-3.62457,-4.3124,-0.0136815,0.298995,
2,1,0,0,0,62734.8,0.303433,0.303122,0.236983,95,0.0198618,10,7.18346e-05,-3.62528,-1.81551,-0.0324977,0.303017,
2,1,0,1,0,62735.6,0.307428,0.307097,0.236923,95,0.0200594,10,7.27582e-05,-3.62539,-4.78009,-0.0123429,0.306993,
2,1,0,1,0,62736.4,0.311424,0.311112,0.235269,95,0.0202564,10,7.31952e-05,-3.62843,-1.38074,-0.0427307,0.311009,
2,1,0,1,0,62737.2,0.315418,0.315065,0.23545,95,0.0204524,10,7.41822e-05,-3.6281,-20.2747,-0.00291004,0.314961,
2,1,0,1,0,62738,0.319413,0.319087,0.234218,95,0.0206478,10,7.47359e-05,-3.63038,-2.96409,-0.0199049,0.318984,
2,1,0,0,0,62738.8,0.323409,0.323082,0.233312,95,0.0208427,10,7.5379e-05,-3.63206,-1.19922,-0.0491987,0.322979,
2,1,0,1,0,62739.6,0.327404,0.32708,0.232725,95,0.0210367,10,7.61198e-05,-3.63316,-633.731,-9.30995e-05,0.326978,
2,1,0,0,0,62740.4,0.331399,0.331082,0.230958,95,0.0212304,10,7.64662e-05,-3.63647,-2.17851,-0.0270827,0.330981,
2,1,0,1,0,62741.2,0.335395,0.335131,0.231155,95,0.0214235,10,7.74673e-05,-3.6361,5.56668,0.0105988,0.33503,
2,1,0,1,0,62742,0.339389,0.339088,0.231474,95,0.021616,10,7.84901e-05,-3.6355,-4.21742,-0.0139896,0.338987,
2,1,0,1,0,62742.8,0.343384,0.343091,0.230587,95,0.0218083,10,7.91124e-05,-3.63716,-2.70809,-0.0217866,0.34299,
2,1,0,1,0,62743.6,0.34738,0.347048,0.230677,95,0.022,10,8.0056e-05,-3.637,-19.9543,-0.00295676,0.346946,
2,1,0,0,0,62744.4,0.351375,0.350992,0.229102,95,0.0221915,10,8.04128e-05,-3.63997,-18.9874,-0.00310733,0.350891,
2,1,0,1,0,62745.2,0.35537,0.355026,0.229259,95,0.0223824,10,8.13929e-05,-3.63967,-0.861575,-0.0684792,0.354926,
2,1,0,1,0,62746,0.359366,0.359018,0.228391,95,0.022573,10,8.19964e-05,-3.64132,2.91433,0.0202448,0.358918,
2,1,0,1,0,62746.8,0.36336,0.363043,0.227378,95,0.0227633,10,8.2548e-05,-3.64325,-2.68414,-0.0219809,0.362943,
2,1,0,1,0,62747.6,0.367355,0.366999,0.226894,95,0.0229526,10,8.32699e-05,-3.64418,-72.3219,-0.000815798,0.366899,
2,1,0,0,0,62748.4,0.371351,0.371018,0.22737,95,0.0231417,10,8.43586e-05,-3.64327,12.2338,0.00482271,0.370918,
2,1,0,1,0,62749.2,0.375346,0.375021,0.227428,95,0.0233308,10,8.52903e-05,-3.64316,-1.45657,-0.0405062,0.374921,
2,1,0,1,0,62750,0.379342,0.379051,0.226171,95,0.0235193,10,8.57301e-05,-3.64556,-31.4562,-0.00187562,0.378951,
2,1,0,1,0,62750.8,0.383336,0.382979,0.225817,95,0.0237074,10,8.64831e-05,-3.64624,-3.84317,-0.0153519,0.382879,
2,1,0,1,0,62751.6,0.387331,0.387011,0.225632,95,0.0238951,10,8.73223e-05,-3.6466,-1.75854,-0.0335506,0.386912,
2,1,0,0,0,62752.4,0.391327,0.390991,0.225913,95,0.0240825,10,8.83299e-05,-3.64606,4.9964,0.0118085,0.390892,
2,1,0,1,0,62753.2,0.395322,0.39501,0.224782,95,0.0242697,10,8.87911e-05,-3.64824,-21.5254,-0.00274095,0.394911,
2,1,0,0,0,62754,0.399317,0.398971,0.224794,95,0.0244565,10,8.96861e-05,-3.64822,-4.41634,-0.0133595,0.398872,
2,1,0,1,0,62754.8,0.403313,0.402994,0.224427,95,0.0246431,10,9.04427e-05,-3.64893,-4.41182,-0.0133732,0.402896,
2,1,0,1,0,62755.6,0.407307,0.406992,0.224122,95,0.0248294,10,9.12159e-05,-3.64951,-13.1064,-0.00450162,0.406893,
2,1,0,1,0,62756.4,0.411302,0.410948,0.224021,95,0.0250152,10,9.20609e-05,-3.64971,-3.31768,-0.0177835,0.410849,
2,1,0,1,0,62757.2,0.415298,0.41499,0.223401,95,0.025201,10,9.27092e-05,-3.65091,4.71076,0.0125245,0.414892,
2,1,0,0,0,62758,0.419293,0.418991,0.223508,95,0.0253865,10,9.36481e-05,-3.65071,-2.78486,-0.021186,0.418893,
2,1,0,1,0,62758.8,0.423288,0.422941,0.223251,95,0.0255715,10,9.44221e-05,-3.65121,3.94674,0.0149491,0.422843,
2,1,0,1,0,62759.6,0.427283,0.426974,0.223434,95,0.025757,10,9.54007e-05,-3.65085,-2.86627,-0.0205843,0.426876,
2,1,0,1,0,62760.4,0.431278,0.430964,0.223361,95,0.0259422,10,9.62607e-05,-3.65099,32.4647,0.00181736,0.430866,
2,1,0,1,0,62761.2,0.435273,0.434935,0.223731,95,0.026127,10,9.73087e-05,-3.65027,36.1235,0.00163329,0.434837,
2,1,0,0,0,62762,0.439269,0.43892,0.222906,95,0.026312,10,9.78381e-05,-3.65188,-2.57039,-0.0229537,0.438822,
2,1,0,1,0,62762.8,0.443264,0.442956,0.222613,95,0.0264964,10,9.8608e-05,-3.65245,1.76971,0.0333387,0.442858,
2,1,0,0,0,62763.6,0.447259,0.446934,0.22301,95,0.0266809,10,9.96706e-05,-3.65168,-7.3248,-0.00805482,0.446836,
2,1,0,1,0,62764.4,0.451254,0.450926,0.222853,95,0.0268655,10,0.00010049,-3.65198,-3.47773,-0.0169651,0.450828,
2,1,0,1,0,62765.2,0.455249,0.454913,0.223059,95,0.0270499,10,0.000101472,-3.65158,2.65864,0.0221918,0.454815,
2,1,0,1,0,62766,0.459244,0.458944,0.222592,95,0.0272343,10,0.000102157,-3.65249,-9.29564,-0.00634706,0.458846,
2,1,0,1,0,62766.8,0.46324,0.462879,0.223243,95,0.0274189,10,0.000103335,-3.65122,75.0185,0.000786472,0.462781,
2,1,0,0,0,62767.6,0.467235,0.466875,0.22322,95,0.0276036,10,0.000104216,-3.65127,-19.6336,-0.00300505,0.466777,
2,1,0,1,0,62768.4,0.471231,0.470917,0.223658,95,0.0277884,10,0.000105324,-3.65042,5.11456,0.0115357,0.470818,
2,1,0,1,0,62769.2,0.475225,0.474865,0.224846,95,0.0279733,10,0.000106771,-3.64812,2.13572,0.0276254,0.474767,
2,1,0,1,0,62770,0.47922,0.478906,0.224407,95,0.0281586,10,0.00010747,-3.64896,4.23274,0.013939,0.478807,
2,1,0,1,0,62770.8,0.483216,0.482887,0.224772,95,0.0283442,10,0.000108539,-3.64826,-6.22124,-0.00948364,0.482788,
2,1,0,0,0,62771.6,0.487211,0.486861,0.225022,95,0.0285297,10,0.000109555,-3.64778,4.92954,0.0119687,0.486762,
2,1,0,1,0,62772.4,0.491206,0.49091,0.225219,95,0.0287158,10,0.000110562,-3.64739,2.34021,0.0252114,0.490811,
2,1,0,1,0,62773.2,0.495201,0.494908,0.226451,95,0.0289024,10,0.000112072,-3.64503,2.1286,0.0277178,0.494809,
2,1,0,1,0,62774,0.499196,0.49887,0.227375,95,0.0290893,10,0.000113431,-3.64326,2.3607,0.0249926,0.49877,
2,1,0,1,0,62774.8,0.503191,0.502857,0.227703,95,0.0292771,10,0.000114502,-3.64263,2.97297,0.0198455,0.502757,
2,1,0,0,0,62775.6,0.507187,0.506803,0.228601,95,0.0294653,10,0.000115856,-3.64092,4.78229,0.0123372,0.506703,
2,1,0,1,0,62776.4,0.511182,0.510849,0.229348,95,0.029654,10,0.000117162,-3.63951,1.50353,0.039241,0.510748,
2,1,0,0,0,62777.2,0.515177,0.514817,0.23005,95,0.0298435,10,0.000118434,-3.63818,6.65497,0.00886555,0.514716,
2,1,0,1,0,62778,0.519173,0.518843,0.231944,95,0.0300338,10,0.000120343,-3.63462,1.39396,0.0423255,0.518741,
2,1,0,1,0,62778.8,0.523167,0.522819,0.232669,95,0.030225,10,0.000121644,-3.63326,1.5635,0.0377357,0.522716,
2,1,0,1,0,62779.6,0.527162,0.526811,0.233759,95,0.0304171,10,0.000123147,-3.63123,3.03931,0.0194123,0.526708,
2,1,0,1,0,62780.4,0.531158,0.530837,0.234976,95,0.03061,10,0.000124734,-3.62898,1.30564,0.0451886,0.530733,
2,1,0,0,0,62781.2,0.535153,0.534831,0.236454,95,0.0308039,10,0.000126463,-3.62625,5.1401,0.0114784,0.534727,
2,1,0,1,0,62782,0.539148,0.538815,0.237931,95,0.0309987,10,0.000128201,-3.62355,1.18213,0.0499101,0.53871,
2,1,0,1,0,62782.8,0.543143,0.54281,0.238914,95,0.0311949,10,0.000129685,-3.62176,1.22626,0.0481139,0.542705,
2,1,0,1,0,62783.6,0.547138,0.546798,0.241106,95,0.0313924,10,0.000131836,-3.61779,2.18763,0.0269698,0.546692,
2,1,0,1,0,62784.4,0.551133,0.550828,0.243271,95,0.0315913,10,0.000134001,-3.61391,0.669276,0.088155,0.550721,
2,1,0,0,0,62785.2,0.555129,0.55479,0.24516,95,0.031792,10,0.000136012,-3.61055,1.57111,0.0375532,0.554682,
2,1,0,1,0,62786,0.559124,0.558782,0.247866,95,0.0319943,10,0.000138503,-3.60578,0.706125,0.0835547,0.558673,
2,1,0,1,0,62786.8,0.56312,0.562821,0.249311,95,0.0321983,10,0.000140318,-3.60326,0.981242,0.0601279,0.562711,
2,1,0,1,0,62787.6,0.567114,0.566831,0.252381,95,0.0324044,10,0.000143058,-3.59794,0.792629,0.0744358,0.56672,
2,1,0,1,0,62788.4,0.571109,0.570783,0.255296,95,0.0326127,10,0.000145718,-3.59296,0.669927,0.0880693,0.570671,
2,1,0,0,0,62789.2,0.575105,0.57479,0.258589,95,0.0328235,10,0.000148634,-3.58739,1.25105,0.0471605,0.574677,
2,1,0,1,0,62790,0.5791,0.578805,0.26213,95,0.033037,10,0.000151722,-3.58148,0.702382,0.0839999,0.57869,
2,1,0,0,0,62790.8,0.583095,0.582766,0.265623,95,0.0332533,10,0.000154796,-3.57573,0.544188,0.108418,0.582649,
2,1,0,1,0,62791.6,0.58709,0.586719,0.270023,95,0.0334729,10,0.000158428,-3.5686,0.484862,0.121684,0.5866,
2,1,0,1,0,62792.4,0.591085,0.590756,0.2746,95,0.033696,10,0.000162221,-3.5613,0.524103,0.112573,0.590635,
2,1,0,1,0,62793.2,0.59508,0.594733,0.279874,95,0.033923,10,0.00016645,-3.55304,0.426816,0.138233,0.59461,
2,1,0,1,0,62794,0.599076,0.598765,0.286355,95,0.0341545,10,0.000171459,-3.5431,0.458828,0.128589,0.598639,
2,1,0,0,0,62794.8,0.603071,0.60271,0.291839,95,0.0343904,10,0.000175894,-3.53486,0.416405,0.141689,0.602581,
2,1,0,1,0,62795.6,0.607066,0.606773,0.298684,95,0.0346318,10,0.000181233,-3.52479,0.358876,0.164402,0.606642,
2,1,0,1,0,62796.4,0.611061,0.610729,0.307368,95,0.0348792,10,0.000187719,-3.51234,0.393086,0.150094,0.610593,
2,1,0,1,0,62797.2,0.615056,0.614708,0.316257,95,0.0351334,10,0.000194406,-3.49996,0.253322,0.232905,0.614569,
2,1,0,1,0,62798,0.619051,0.618725,0.32665,95,0.0353957,10,0.000202106,-3.48592,0.272903,0.216194,0.618581,
2,1,0,0,0,62798.8,0.623047,0.622752,0.338727,95,0.0356669,10,0.000210943,-3.47015,0.244033,0.24177,0.622603,
2,1,0,1,0,62799.6,0.627042,0.626709,0.352729,95,0.0359481,10,0.000221058,-3.45256,0.209306,0.281883,0.626554,
2,1,0,1,0,62800.4,0.631037,0.630717,0.368971,95,0.0362416,10,0.000232716,-3.43301,0.199346,0.295967,0.630554,
2,1,0,1,0,62801.2,0.635032,0.634693,0.387623,95,0.0365488,10,0.000246021,-3.41159,0.177458,0.332473,0.634522,
2,1,0,1,0,62802,0.639027,0.638738,0.408915,95,0.0368724,10,0.00026119,-3.38837,0.160222,0.368238,0.638558,
2,1,0,1,0,62802.8,0.643022,0.642694,0.434455,95,0.0372147,10,0.000279222,-3.36205,0.148033,0.398559,0.642503,
2,1,0,1,0,62803.6,0.647018,0.646649,0.463924,95,0.0375786,10,0.000299996,-3.33355,0.13642,0.432488,0.646445,
2,1,0,0,0,62804.4,0.651013,0.650736,0.497194,95,0.0379674,10,0.000323541,-3.30347,0.12385,0.476383,0.650517,
2,1,0,1,0,62805.2,0.655008,0.654684,0.536639,95,0.0383854,10,0.000351329,-3.27032,0.120862,0.488162,0.654448,
2,1,0,1,0,62806,0.659003,0.658654,0.580813,95,0.0388363,10,0.000382555,-3.23596,0.109626,0.538194,0.658398,
2,1,0,1,0,62806.8,0.662998,0.662685,0.633831,95,0.0393261,10,0.000420031,-3.19803,0.10266,0.574712,0.662406,
2,1,0,1,0,62807.6,0.666994,0.666684,0.694262,95,0.0398614,10,0.000462853,-3.15848,0.0997892,0.591246,0.666379,
2,1,0,0,0,62808.4,0.670989,0.670719,0.76298,95,0.0404479,10,0.000511745,-3.11749,0.0925514,0.637484,0.670383,
2,1,0,1,0,62809.2,0.674984,0.674637,0.841617,95,0.0410938,10,0.000567786,-3.07489,0.0915589,0.644394,0.674267,
2,1,0,1,0,62810,0.67898,0.67868,0.931908,95,0.0418071,10,0.000632467,-3.03063,0.0893723,0.660159,0.67827,
2,1,0,1,0,62810.8,0.682974,0.682673,1.03284,95,0.0425966,10,0.00070509,-2.98597,0.0880608,0.669992,0.682218,
2,1,0,1,0,62811.6,0.686969,0.686666,1.14637,95,0.0434712,10,0.000787174,-2.94067,0.0873348,0.675561,0.686162,
2,1,0,0,0,62812.3,0.690965,0.690633,1.27281,95,0.0444417,10,0.000879048,-2.89524,0.0866619,0.680807,0.690073,
2,1,0,1,0,62813.1,0.69496,0.694677,1.41264,95,0.0455187,10,0.000981329,-2.84997,0.085637,0.688954,0.694055,
2,1,0,0,0,62813.9,0.698955,0.698624,1.56564,95,0.0467127,10,0.0010938,-2.80531,0.088228,0.668722,0.697935,
2,1,0,1,0,62814.7,0.70295,0.702645,1.73425,95,0.0480351,10,0.00121856,-2.76089,0.0895977,0.658499,0.701882,
2,1,0,1,0,62815.5,0.706945,0.706671,1.91826,95,0.0494983,10,0.00135558,-2.71709,0.0908955,0.649097,0.705827,
2,1,0,1,0,62816.3,0.71094,0.710577,2.11506,95,0.0511134,10,0.00150291,-2.67468,0.0922689,0.639435,0.709647,
2,1,0,1,0,62817.1,0.714936,0.714655,2.32794,95,0.0528931,10,0.00166367,-2.63303,0.0943099,0.625597,0.713631,
2,1,0,0,0,62817.9,0.718931,0.718554,2.55491,95,0.0548486,10,0.00183584,-2.59262,0.0980885,0.601498,0.71743,
2,1,0,1,0,62818.7,0.722927,0.722621,2.7987,95,0.0569921,10,0.0020224,-2.55304,0.0995668,0.592567,0.72139,
2,1,0,1,0,62819.5,0.726921,0.72661,3.0559,95,0.0593351,10,0.00222045,-2.51486,0.104076,0.566891,0.725265,
2,1,0,1,0,62820.3,0.730916,0.730603,3.33014,95,0.0618902,10,0.00243301,-2.47754,0.103802,0.568391,0.729138,
2,1,0,1,0,62821.1,0.734911,0.734572,3.62066,95,0.0646715,10,0.00265964,-2.44121,0.107854,0.547038,0.732979,
2,1,0,0,0,62821.9,0.738907,0.738604,3.92782,95,0.0676922,10,0.00290111,-2.40585,0.110156,0.535602,0.736876,
2,1,0,1,0,62822.7,0.742902,0.742606,4.2526,95,0.0709648,10,0.00315801,-2.37135,0.112856,0.522788,0.740735,
2,1,0,1,0,62823.5,0.746897,0.746589,4.59477,95,0.0745043,10,0.00343041,-2.33774,0.115937,0.508899,0.744568,
2,1,0,1,0,62824.3,0.750892,0.750602,4.95761,95,0.0783249,10,0.00372119,-2.30473,0.119158,0.495141,0.74842,
2,1,0,1,0,62825.1,0.754887,0.75457,5.33503,95,0.0824409,10,0.00402566,-2.27286,0.11985,0.492281,0.752223,
2,1,0,0,0,62825.9,0.758883,0.758549,5.73797,95,0.0868689,10,0.00435253,-2.24124,0.120788,0.488461,0.756025,
2,1,0,1,0,62826.7,0.762878,0.762478,6.16316,95,0.0916269,10,0.00469927,-2.2102,0.12397,0.47592,0.759766,
2,1,0,0,0,62827.5,0.766873,0.76658,6.6088,95,0.0967334,10,0.00506617,-2.17988,0.127064,0.464333,0.763672,
2,1,0,1,0,62828.3,0.770868,0.770577,7.08073,95,0.102207,10,0.00545625,-2.14992,0.126664,0.465798,0.767461,
2,1,0,1,0,62829.1,0.774863,0.774566,7.57849,95,0.108068,10,0.00587004,-2.12042,0.129202,0.456649,0.771231,
2,1,0,1,0,62829.9,0.778858,0.778526,8.10412,95,0.114337,10,0.00630927,-2.09129,0.128199,0.460222,0.77496,
2,1,0,1,0,62830.7,0.782854,0.782548,8.66048,95,0.121038,10,0.00677724,-2.06246,0.131868,0.447417,0.778738,
2,1,0,0,0,62831.5,0.786849,0.786535,9.24792,95,0.128195,10,0.00727382,-2.03396,0.131848,0.447484,0.782466,
2,1,0,1,0,62832.3,0.790844,0.790514,9.87034,95,0.135836,10,0.00780264,-2.00567,0.131534,0.448554,0.786171,
2,1,0,1,0,62833.1,0.794839,0.794508,10.5285,95,0.143989,10,0.00836497,-1.97763,0.131323,0.449274,0.789875,
2,1,0,1,0,62833.9,0.798834,0.798516,11.2316,95,0.152687,10,0.00896864,-1.94956,0.130051,0.453668,0.793574,
2,1,0,1,0,62834.7,0.802829,0.802527,11.9794,95,0.161964,10,0.00961382,-1.92156,0.132192,0.446322,0.797256,
2,1,0,0,0,62835.5,0.806825,0.806537,12.7774,95,0.171859,10,0.0103054,-1.89356,0.12969,0.454931,0.800915,
2,1,0,1,0,62836.3,0.81082,0.810502,13.6244,95,0.182408,10,0.0110426,-1.86568,0.141252,0.417694,0.804507,
2,1,0,1,0,62837.1,0.814815,0.814503,14.4582,95,0.193628,10,0.0117762,-1.83989,0.129047,0.457199,0.808141,
2,1,0,1,0,62837.9,0.81881,0.818492,15.3992,95,0.205563,10,0.0126041,-1.8125,0.137924,0.427773,0.811716,
2,1,0,1,0,62838.7,0.822805,0.822522,16.358,95,0.21824,10,0.0134548,-1.78627,0.130084,0.453552,0.815325,
2,1,0,0,0,62839.5,0.826801,0.826548,17.3994,95,0.231734,10,0.0143814,-1.75947,0.133185,0.442992,0.818892,
2,1,0,1,0,62840.3,0.830796,0.830507,18.4641,95,0.24607,10,0.0153346,-1.73367,0.144606,0.408005,0.822383,
2,1,0,0,0,62841.1,0.834791,0.83452,19.5137,95,0.261255,10,0.0162846,-1.70966,0.146839,0.4018,0.825934,
2,1,0,1,0,62841.9,0.838786,0.838505,20.6438,95,0.277298,10,0.0173099,-1.68521,0.144639,0.407913,0.829422,
2,1,0,1,0,62842.7,0.842781,0.842481,21.7631,95,0.294245,10,0.018335,-1.66228,0.155337,0.379819,0.832906,
2,1,0,1,0,62843.5,0.846776,0.846481,22.9132,95,0.312098,10,0.0193956,-1.63991,0.154682,0.381427,0.836399,
2,1,0,0,0,62844.2,0.849723,0.849452,23.7164,95,0.32849,10,0.0201459,-1.62495,0.0527922,1.11759,0.839016,
2,1,0,1,0,62845,0.845728,0.845438,22.0072,95,0.346702,10,0.0186057,-1.65744,0.11193,0.527115,0.835755,
2,1,0,0,0,62845.8,0.841732,0.841468,20.598,95,0.363709,10,0.0173325,-1.68618,0.118919,0.496136,0.832405,
2,1,0,1,0,62846.6,0.837737,0.83746,19.29,95,0.37963,10,0.0161546,-1.71467,0.122335,0.482283,0.828973,
2,1,0,1,0,62847.4,0.833742,0.833394,18.0676,95,0.394543,10,0.0150574,-1.7431,0.120016,0.491603,0.825444,
2,1,0,1,0,62848.2,0.829747,0.829517,16.908,95,0.408499,10,0.0140254,-1.77191,0.123224,0.478804,0.822078,
2,1,0,1,0,62849,0.825752,0.82549,15.8287,95,0.421567,10,0.0130664,-1.80056,0.123293,0.478536,0.818526,
2,1,0,0,0,62849.8,0.821757,0.821461,14.8116,95,0.433795,10,0.0121672,-1.8294,0.122175,0.482914,0.814944,
2,1,0,1,0,62850.6,0.817761,0.817434,13.8439,95,0.445233,10,0.0113165,-1.85874,0.124481,0.473966,0.811343,
2,1,0,1,0,62851.4,0.813766,0.813452,12.943,95,0.455927,10,0.0105285,-1.88796,0.120165,0.49099,0.807757,
2,1,0,1,0,62852.2,0.809771,0.809491,12.1189,95,0.465921,10,0.00981018,-1.91654,0.141556,0.416797,0.804159,
2,1,0,1,0,62853,0.805776,0.805467,11.3752,95,0.475329,10,0.00916237,-1.94404,0.12075,0.488611,0.800462,
2,1,0,0,0,62853.8,0.801781,0.801481,10.5986,95,0.484099,10,0.00849455,-1.97475,0.11782,0.500764,0.796817,
2,1,0,1,0,62854.6,0.797786,0.79755,9.86761,95,0.492265,10,0.00786991,-2.00579,0.117742,0.501098,0.793208,
2,1,0,1,0,62855.4,0.79379,0.793474,9.18766,95,0.499869,10,0.00729017,-2.0368,0.11928,0.494634,0.789432,
2,1,0,1,0,62856.2,0.789795,0.789507,8.54322,95,0.506945,10,0.00674493,-2.06838,0.116352,0.507081,0.785748,
2,1,0,1,0,62857,0.7858,0.785457,7.93811,95,0.513521,10,0.00623505,-2.10028,0.117522,0.502035,0.781965,
2,1,0,0,0,62857.8,0.781805,0.781516,7.37678,95,0.519632,10,0.00576508,-2.13213,0.117825,0.500742,0.778271,
2,1,0,1,0,62858.6,0.77781,0.777503,6.85041,95,0.525308,10,0.00532621,-2.16428,0.117076,0.503944,0.774489,
2,1,0,0,0,62859.4,0.773814,0.773514,6.35421,95,0.530574,10,0.00491507,-2.19694,0.114492,0.51532,0.770718,
2,1,0,1,0,62860.2,0.769819,0.769475,5.8879,95,0.535458,10,0.0045306,-2.23004,0.113701,0.518904,0.766885,
2,1,0,1,0,62861,0.765824,0.765499,5.4483,95,0.539979,10,0.00417067,-2.26374,0.112232,0.525698,0.763102,
2,1,0,1,0,62861.8,0.761829,0.761486,5.03465,95,0.54416,10,0.00383382,-2.29803,0.111682,0.528286,0.759271,
2,1,0,1,0,62862.6,0.757834,0.757524,4.64639,95,0.548021,10,0.00351975,-2.33288,0.108376,0.5444,0.755479,
2,1,0,0,0,62863.4,0.753839,0.753503,4.28146,95,0.551581,10,0.00322609,-2.36841,0.106812,0.552372,0.751619,
2,1,0,1,0,62864.2,0.749844,0.749546,3.93918,95,0.554859,10,0.0029526,-2.40459,0.105293,0.56034,0.747813,
2,1,0,1,0,62865,0.745848,0.745532,3.61743,95,0.557871,10,0.00269691,-2.4416,0.102113,0.577789,0.743941,
2,1,0,1,0,62865.8,0.741853,0.741538,3.31328,95,0.560633,10,0.00245692,-2.47974,0.0999631,0.590218,0.740081,
2,1,0,1,0,62866.6,0.737858,0.737585,3.02824,95,0.56316,10,0.00223359,-2.51881,0.0996334,0.592171,0.736253,
2,1,0,0,0,62867.4,0.733863,0.733593,2.76247,95,0.565467,10,0.00202653,-2.5587,0.0939232,0.628173,0.732377,
2,1,0,1,0,62868.2,0.729868,0.729576,2.50923,95,0.567566,10,0.00183067,-2.60046,0.0905686,0.65144,0.728472,
2,1,0,1,0,62869,0.725872,0.725552,2.27205,95,0.56947,10,0.00164849,-2.64358,0.0897461,0.657411,0.724553,
2,1,0,1,0,62869.8,0.721877,0.72155,2.04866,95,0.57119,10,0.00147821,-2.68853,0.0861099,0.685171,0.720649,
2,1,0,1,0,62870.6,0.717882,0.717537,1.84035,95,0.572738,10,0.00132052,-2.7351,0.0821559,0.718147,0.716727,
2,1,0,0,0,62871.4,0.713887,0.713522,1.64724,95,0.574125,10,0.00117534,-2.78324,0.0780413,0.75601,0.712797,
2,1,0,1,0,62872.2,0.709892,0.709564,1.46527,95,0.575362,10,0.0010397,-2.83408,0.0760932,0.775365,0.708919,
2,1,0,0,0,62873,0.705897,0.705572,1.29912,95,0.57646,10,0.000916626,-2.88635,0.0736326,0.801275,0.705001,
2,1,0,1,0,62873.8,0.701901,0.701581,1.14341,95,0.577429,10,0.000802194,-2.9418,0.0687667,0.857973,0.701078,
2,1,0,1,0,62874.6,0.697906,0.697579,1.00002,95,0.578279,10,0.000697595,-2.99999,0.066842,0.882678,0.697139,
2,1,0,1,0,62875.4,0.693911,0.693615,0.86914,95,0.57902,10,0.000602848,-3.06091,0.0629042,0.937934,0.693232,
2,1,0,1,0,62876.2,0.689916,0.68959,0.748937,95,0.57966,10,0.000516459,-3.12555,0.0600652,0.982266,0.68926,
2,1,0,0,0,62877,0.685921,0.6856,0.643395,95,0.58021,10,0.000441112,-3.19152,0.0567923,1.03887,0.685317,
2,1,0,1,0,62877.8,0.681926,0.681577,0.545431,95,0.580679,10,0.000371753,-3.26326,0.0540614,1.09135,0.681338,
2,1,0,1,0,62878.6,0.67793,0.677573,0.457313,95,0.581073,10,0.000309863,-3.33979,0.0507194,1.16326,0.677372,
2,1,0,1,0,62879.4,0.673935,0.673616,0.378565,95,0.581402,10,0.000255007,-3.42186,0.0462976,1.27436,0.67345,
2,1,0,1,0,62880.2,0.66994,0.669598,0.310737,95,0.581671,10,0.000208069,-3.50761,0.0443722,1.32966,0.669462,
2,1,0,0,0,62881,0.665945,0.665599,0.249188,95,0.581889,10,0.00016586,-3.60347,0.0392887,1.5017,0.66549,
2,1,0,1,0,62881.8,0.66195,0.661684,0.196303,95,0.582061,10,0.000129891,-3.70707,0.0368606,1.60063,0.661598,
2,1,0,0,0,62882.6,0.657955,0.657607,0.149543,95,0.582193,10,9.83406e-05,-3.82523,0.031477,1.87438,0.657541,
2,1,0,1,0,62883.4,0.653959,0.653649,0.109329,95,0.582291,10,7.14627e-05,-3.96127,0.0264506,2.23058,0.653601,
2,1,0,1,0,62884.2,0.649964,0.649638,0.0757714,95,0.582359,10,4.9224e-05,-4.12049,0.022398,2.63417,0.649605,
2,1,0,1,0,62885,0.64597,0.645664,0.046419,95,0.582402,10,2.99711e-05,-4.3333,0.0150898,3.90993,0.645644,
2,1,0,1,0,62885.8,0.641974,0.641668,0.0207718,95,0.582423,10,1.33286e-05,-4.68253,0.00751381,7.85221,0.641659,
2,0,0,0,0,62886.6,0.637979,0.637688,0.00108133,95,0.582426,10,6.89553e-07,-5.96604,0.167689,0.351841,0.637688,
2,0,0,1,0,62887.4,0.633983,0.633676,-0.0172462,95,0.582413,10,-1.09285e-05,-4.76331,-0.00959756,-6.1474,0.633684,
2,0,0,1,0,62888.2,0.629988,0.629655,-0.0313825,95,0.582389,10,-1.97601e-05,-4.50331,-0.0193025,-3.0566,0.629668,
2,0,0,1,0,62889,0.625993,0.625696,-0.0433736,95,0.582353,10,-2.71387e-05,-4.36277,-0.0384019,-1.53638,0.625716,
2,0,0,1,0,62889.8,0.621998,0.621647,-0.0533009,95,0.582308,10,-3.31343e-05,-4.27327,-0.0506527,-1.16479,0.62167,
2,0,0,0,0,62890.6,0.618003,0.617684,-0.0632477,95,0.582256,10,-3.90671e-05,-4.19896,-0.0741798,-0.795364,0.617712,
2,0,0,1,0,62891.4,0.614008,0.613683,-0.0708138,95,0.582196,10,-4.34572e-05,-4.14988,-0.100748,-0.585621,0.613714,
2,0,0,1,0,62892.2,0.610012,0.609642,-0.0769365,95,0.582132,10,-4.69038e-05,-4.11387,-0.115348,-0.511498,0.609676,
2,0,0,1,0,62893,0.606017,0.605677,-0.0811615,95,0.582063,10,-4.91576e-05,-4.09065,-0.172247,-0.34253,0.605713,
2,0,0,1,0,62893.8,0.602022,0.601724,-0.0869636,95,0.58199,10,-5.23281e-05,-4.06066,-0.190339,-0.309973,0.601762,
2,0,0,0,0,62894.6,0.598027,0.597699,-0.0906692,95,0.581913,10,-5.41929e-05,-4.04254,-0.220543,-0.267522,0.597739,
2,0,0,1,0,62895.3,0.594032,0.593662,-0.0943544,95,0.581834,10,-5.60146e-05,-4.02524,-0.285196,-0.206876,0.593704,
2,0,0,0,0,62896.1,0.590037,0.58972,-0.0965304,95,0.581753,10,-5.69259e-05,-4.01534,-0.362189,-0.162898,0.589762,
2,0,0,1,0,62896.9,0.586041,0.585687,-0.0981467,95,0.581669,10,-5.74832e-05,-4.00812,-0.338212,-0.174447,0.58573,
2,0,0,1,0,62897.7,0.582046,0.581696,-0.100539,95,0.581584,10,-5.84834e-05,-3.99766,-0.478658,-0.123261,0.58174,
2,0,0,1,0,62898.5,0.578052,0.577706,-0.103178,95,0.581496,10,-5.96068e-05,-3.98641,-0.379885,-0.15531,0.577751,
2,0,0,1,0,62899.3,0.574056,0.573748,-0.103805,95,0.581408,10,-5.95579e-05,-3.98378,-0.949173,-0.0621593,0.573794,
2,0,0,0,0,62900.1,0.570061,0.569674,-0.106084,95,0.581318,10,-6.04334e-05,-3.97435,-1.29378,-0.0456028,0.569721,
2,0,0,1,0,62900.9,0.566065,0.565729,-0.107817,95,0.581227,10,-6.09952e-05,-3.96731,-0.437118,-0.134975,0.565776,
2,0,0,1,0,62901.7,0.56207,0.561721,-0.108846,95,0.581134,10,-6.11412e-05,-3.96319,-0.946631,-0.0623263,0.561769,
2,0,0,1,0,62902.5,0.558075,0.55779,-0.109924,95,0.581041,10,-6.13146e-05,-3.95891,-0.935658,-0.0630572,0.557839,
2,0,0,1,0,62903.3,0.55408,0.553737,-0.111575,95,0.580947,10,-6.17833e-05,-3.95243,-0.721689,-0.0817526,0.553786,
2,0,0,0,0,62904.1,0.550085,0.549757,-0.111582,95,0.580852,10,-6.13429e-05,-3.95241,-1.80221,-0.0327376,0.549806,
2,0,0,1,0,62904.9,0.54609,0.545726,-0.112709,95,0.580756,10,-6.15085e-05,-3.94804,-0.979997,-0.0602043,0.545775,
2,0,0,1,0,62905.7,0.542094,0.541755,-0.113481,95,0.58066,10,-6.1479e-05,-3.94508,-5.28294,-0.011168,0.541805,
2,0,0,1,0,62906.5,0.538099,0.537794,-0.114783,95,0.580562,10,-6.17296e-05,-3.94012,-0.882858,-0.0668284,0.537844,
2,0,0,1,0,62907.3,0.534104,0.533807,-0.115199,95,0.580464,10,-6.14942e-05,-3.93855,-1.31723,-0.0447909,0.533858,
2,0,0,0,0,62908.1,0.530109,0.529776,-0.116175,95,0.580366,10,-6.15469e-05,-3.93489,-0.702202,-0.0840214,0.529827,
2,0,0,1,0,62908.9,0.526114,0.525754,-0.118061,95,0.580266,10,-6.20712e-05,-3.92789,-1.24441,-0.0474118,0.525806,
2,0,0,0,0,62909.7,0.522119,0.521787,-0.117667,95,0.580166,10,-6.1397e-05,-3.92935,-2.05306,-0.0287375,0.521839,
2,0,0,1,0,62910.5,0.518123,0.517756,-0.119133,95,0.580065,10,-6.16816e-05,-3.92397,-0.724526,-0.0814325,0.517808,
2,0,0,1,0,62911.3,0.514128,0.513766,-0.120287,95,0.579963,10,-6.17993e-05,-3.91978,-1.3036,-0.0452594,0.513819,
2,0,0,1,0,62912.1,0.510133,0.509788,-0.120803,95,0.57986,10,-6.15837e-05,-3.91792,-1.30646,-0.04516,0.509841,
2,0,0,1,0,62912.9,0.506138,0.505796,-0.123107,95,0.579757,10,-6.2267e-05,-3.90972,-1.22779,-0.0480539,0.50585,
2,0,0,0,0,62913.7,0.502143,0.501792,-0.123619,95,0.579652,10,-6.20311e-05,-3.90791,-0.859894,-0.0686131,0.501846,
2,0,0,1,0,62914.5,0.498148,0.497768,-0.124703,95,0.579547,10,-6.2073e-05,-3.90412,-1.21257,-0.0486571,0.497823,
2,0,0,1,0,62915.3,0.494152,0.493841,-0.126081,95,0.579441,10,-6.2264e-05,-3.89935,-2.22577,-0.0265077,0.493896,
2,0,0,1,0,62916.1,0.490157,0.489813,-0.126698,95,0.579334,10,-6.20585e-05,-3.89723,-0.781535,-0.0754924,0.489868,
2,0,0,1,0,62916.9,0.486162,0.485801,-0.128222,95,0.579226,10,-6.22905e-05,-3.89204,-0.888078,-0.0664356,0.485858,
2,0,0,0,0,62917.7,0.482167,0.481831,-0.128787,95,0.579117,10,-6.20535e-05,-3.89013,-0.689259,-0.0855992,0.481888,
2,0,0,1,0,62918.5,0.478172,0.477832,-0.129485,95,0.579007,10,-6.1872e-05,-3.88778,-1.3674,-0.0431474,0.477889,
2,0,0,0,0,62919.3,0.474177,0.473817,-0.131943,95,0.578896,10,-6.25169e-05,-3.87961,-4.45644,-0.0132393,0.473875,
2,0,0,1,0,62920.1,0.470181,0.469824,-0.133348,95,0.578784,10,-6.26502e-05,-3.87501,-0.492125,-0.119888,0.469882,
2,0,0,1,0,62920.9,0.466186,0.46584,-0.13484,95,0.57867,10,-6.28138e-05,-3.87018,-0.986118,-0.0598305,0.465899,
2,0,0,1,0,62921.7,0.462191,0.461895,-0.135649,95,0.578556,10,-6.26556e-05,-3.86758,-0.694191,-0.084991,0.461954,
2,0,0,1,0,62922.5,0.458196,0.457869,-0.137256,95,0.57844,10,-6.28451e-05,-3.86247,-0.713572,-0.0826826,0.457929,
2,0,0,0,0,62923.3,0.454201,0.453846,-0.138902,95,0.578323,10,-6.30399e-05,-3.85729,-1.20108,-0.0491226,0.453907,
2,0,0,1,0,62924.1,0.450205,0.449889,-0.140716,95,0.578205,10,-6.33066e-05,-3.85166,-0.878766,-0.0671396,0.449951,
2,0,0,1,0,62924.9,0.44621,0.445869,-0.141146,95,0.578086,10,-6.29326e-05,-3.85033,-0.875101,-0.0674208,0.445931,
2,0,0,1,0,62925.7,0.442215,0.441907,-0.143401,95,0.577965,10,-6.33697e-05,-3.84345,-2.2836,-0.0258364,0.44197,
2,0,0,1,0,62926.5,0.43822,0.437845,-0.145112,95,0.577843,10,-6.35365e-05,-3.8383,-0.474833,-0.124254,0.437909,
2,0,0,0,0,62927.3,0.434225,0.433907,-0.146677,95,0.57772,10,-6.36441e-05,-3.83364,-1.26565,-0.0466165,0.433971,
2,0,0,1,0,62928.1,0.43023,0.429862,-0.148299,95,0.577595,10,-6.37483e-05,-3.82886,-0.503465,-0.117188,0.429928,
2,0,0,1,0,62928.9,0.426234,0.42591,-0.149938,95,0.577469,10,-6.38601e-05,-3.82409,-0.82702,-0.0713405,0.425976,
2,0,0,1,0,62929.7,0.422239,0.421899,-0.151659,95,0.577341,10,-6.39849e-05,-3.81913,-1.20701,-0.0488813,0.421965,
2,0,0,1,0,62930.5,0.418244,0.417926,-0.153348,95,0.577212,10,-6.40881e-05,-3.81432,-0.756652,-0.077975,0.417993,
2,0,0,0,0,62931.3,0.414249,0.413881,-0.154947,95,0.577081,10,-6.41295e-05,-3.80982,-0.855983,-0.0689266,0.413949,
2,0,0,1,0,62932.1,0.410254,0.409887,-0.157606,95,0.576949,10,-6.46004e-05,-3.80243,-0.764342,-0.0771906,0.409956,
2,0,0,0,0,62932.9,0.406259,0.405904,-0.15914,95,0.576816,10,-6.45954e-05,-3.79822,-0.729812,-0.0808428,0.405974,
2,0,0,1,0,62933.7,0.402263,0.401872,-0.161549,95,0.576681,10,-6.49221e-05,-3.79169,-0.934185,-0.0631566,0.401943,
2,0,0,1,0,62934.5,0.398268,0.397906,-0.163948,95,0.576544,10,-6.5236e-05,-3.78529,-0.58632,-0.100628,0.397978,
2,0,0,1,0,62935.3,0.394274,0.393926,-0.164845,95,0.576406,10,-6.49365e-05,-3.78293,-0.699165,-0.0843864,0.393998,
2,0,0,1,0,62936.1,0.390278,0.389925,-0.166475,95,0.576265,10,-6.49128e-05,-3.77865,-1.22646,-0.0481061,0.389999,
2,0,0,0,0,62936.9,0.386283,0.38595,-0.168371,95,0.576124,10,-6.49828e-05,-3.77373,-0.645654,-0.0913802,0.386024,
2,0,0,1,0,62937.7,0.382287,0.381949,-0.16992,95,0.575981,10,-6.49009e-05,-3.76975,-0.810079,-0.0728324,0.382024,
2,0,0,1,0,62938.5,0.378292,0.37794,-0.173081,95,0.575836,10,-6.54142e-05,-3.76175,-1.31547,-0.0448509,0.378017,
2,0,0,1,0,62939.3,0.374297,0.373958,-0.174713,95,0.575689,10,-6.53355e-05,-3.75767,-0.537312,-0.109806,0.374035,
2,0,0,1,0,62940.1,0.370303,0.369974,-0.176811,95,0.575541,10,-6.54154e-05,-3.75249,-0.760352,-0.0775957,0.370052,
2,0,0,0,0,62940.9,0.366307,0.365952,-0.17943,95,0.575391,10,-6.56626e-05,-3.74611,-0.696731,-0.0846811,0.366031,
2,0,0,1,0,62941.7,0.362312,0.361991,-0.181498,95,0.575239,10,-6.57007e-05,-3.74113,-0.805773,-0.0732216,0.362071,
2,0,0,1,0,62942.5,0.358316,0.357956,-0.183442,95,0.575085,10,-6.56642e-05,-3.7365,-0.958936,-0.0615265,0.358037,
2,0,0,1,0,62943.3,0.354321,0.353966,-0.185178,95,0.57493,10,-6.55466e-05,-3.73241,-0.731084,-0.0807021,0.354047,
2,0,0,1,0,62944.1,0.350327,0.349959,-0.186585,95,0.574773,10,-6.52969e-05,-3.72912,-0.749376,-0.0787322,0.350041,
2,0,0,0,0,62944.9,0.346331,0.345951,-0.18979,95,0.574613,10,-6.56582e-05,-3.72173,-1.65109,-0.035734,0.346035,
2,0,0,1,0,62945.7,0.342336,0.341996,-0.19213,95,0.574453,10,-6.57076e-05,-3.71641,-0.538038,-0.109658,0.342081,
2,0,0,0,0,62946.5,0.338341,0.337997,-0.194625,95,0.57429,10,-6.57827e-05,-3.7108,-0.889171,-0.0663539,0.338083,
2,0,0,1,0,62947.3,0.334345,0.333981,-0.197441,95,0.574125,10,-6.59417e-05,-3.70456,-0.568196,-0.103837,0.334068,
2,0,0,1,0,62948.1,0.33035,0.33005,-0.199313,95,0.573958,10,-6.5783e-05,-3.70047,-0.930164,-0.0634297,0.330137,
2,0,0,1,0,62948.9,0.326355,0.32595,-0.202031,95,0.57379,10,-6.58519e-05,-3.69458,-1.18808,-0.0496598,0.326039,
2,0,0,1,0,62949.7,0.32236,0.321998,-0.204696,95,0.573619,10,-6.59116e-05,-3.68889,-0.629591,-0.0937116,0.322088,
2,0,0,0,0,62950.5,0.318365,0.318004,-0.206188,95,0.573446,10,-6.55689e-05,-3.68574,-0.818103,-0.0721181,0.318095,
2,0,0,1,0,62951.3,0.31437,0.314024,-0.209511,95,0.573272,10,-6.57914e-05,-3.67879,-0.950417,-0.062078,0.314116,
2,0,0,1,0,62952.1,0.310374,0.310055,-0.211419,95,0.573095,10,-6.55517e-05,-3.67486,-0.635276,-0.092873,0.310148,
2,0,0,1,0,62952.9,0.306379,0.305998,-0.213837,95,0.572917,10,-6.54336e-05,-3.66992,-0.69791,-0.0845381,0.306092,
2,0,0,1,0,62953.7,0.302385,0.302012,-0.216008,95,0.572736,10,-6.5237e-05,-3.66553,-0.934476,-0.063137,0.302107,
2,0,0,0,0,62954.5,0.298389,0.298051,-0.218428,95,0.572554,10,-6.51026e-05,-3.66069,-0.661821,-0.089148,0.298147,
2,0,0,1,0,62955.3,0.294394,0.294062,-0.221006,95,0.572369,10,-6.49893e-05,-3.6556,-0.970677,-0.0607823,0.294159,
2,0,0,1,0,62956.1,0.290398,0.290002,-0.223824,95,0.572183,10,-6.49094e-05,-3.65009,-0.868201,-0.0679566,0.2901,
2,0,0,1,0,62956.9,0.286403,0.286056,-0.224477,95,0.571994,10,-6.42131e-05,-3.64883,-0.726798,-0.0811779,0.286155,
2,0,0,1,0,62957.7,0.282408,0.282014,-0.229643,95,0.571803,10,-6.47625e-05,-3.63895,-1.2451,-0.0473859,0.282115,
2,0,0,1,0,62958.5,0.278414,0.278073,-0.231044,95,0.571611,10,-6.42471e-05,-3.63631,-0.749867,-0.0786806,0.278175,
2,0,0,1,0,62959.3,0.274418,0.274043,-0.234081,95,0.571416,10,-6.41483e-05,-3.63063,-0.891228,-0.0662008,0.274146,
2,0,0,0,0,62960.1,0.270423,0.270058,-0.237737,95,0.571219,10,-6.42028e-05,-3.6239,-0.712217,-0.0828399,0.270163,
2,0,0,1,0,62960.9,0.266427,0.266086,-0.238619,95,0.57102,10,-6.34931e-05,-3.62229,-0.783844,-0.0752701,0.266191,
2,0,0,1,0,62961.7,0.262432,0.262117,-0.241679,95,0.570819,10,-6.3348e-05,-3.61676,-0.860793,-0.0685414,0.262223,
2,0,0,1,0,62962.5,0.258437,0.258067,-0.243945,95,0.570616,10,-6.29541e-05,-3.61271,-1.13546,-0.0519612,0.258175,
2,0,0,1,0,62963.3,0.254442,0.254094,-0.245777,95,0.570411,10,-6.24504e-05,-3.60946,-0.826442,-0.0713903,0.254202,
2,0,0,0,0,62964.1,0.250447,0.250075,-0.248895,95,0.570203,10,-6.22425e-05,-3.60398,-1.32936,-0.0443823,0.250184,
2,0,0,1,0,62964.9,0.246452,0.246109,-0.25145,95,0.569994,10,-6.1884e-05,-3.59955,-0.723301,-0.0815705,0.24622,
2,0,0,1,0,62965.7,0.242456,0.242063,-0.253628,95,0.569783,10,-6.13941e-05,-3.5958,-0.873654,-0.0675325,0.242175,
2,0,0,1,0,62966.5,0.238461,0.238093,-0.256669,95,0.56957,10,-6.11112e-05,-3.59063,-1.55327,-0.0379844,0.238206,
2,0,0,1,0,62967.3,0.234467,0.234101,-0.258459,95,0.569355,10,-6.05055e-05,-3.58761,-0.641712,-0.0919416,0.234215,
2,0,0,0,0,62968.1,0.230471,0.230117,-0.261316,95,0.569138,10,-6.01332e-05,-3.58283,-2.36316,-0.0249665,0.230232,
2,0,0,1,0,62968.9,0.226476,0.226107,-0.263646,95,0.56892,10,-5.96124e-05,-3.57898,-1.08628,-0.0543138,0.226223,
2,0,0,0,0,62969.7,0.222481,0.222115,-0.264588,95,0.568699,10,-5.87691e-05,-3.57743,-0.955036,-0.0617778,0.222231,
2,0,0,1,0,62970.5,0.218485,0.218079,-0.267978,95,0.568477,10,-5.84403e-05,-3.5719,-1.7983,-0.0328088,0.218197,
2,0,0,1,0,62971.3,0.21449,0.2141,-0.270937,95,0.568252,10,-5.80075e-05,-3.56713,-0.593288,-0.0994459,0.214219,
2,0,0,1,0,62972.1,0.210496,0.21014,-0.27363,95,0.568025,10,-5.75006e-05,-3.56284,-1.08578,-0.0543388,0.210261,
2,0,0,1,0,62972.9,0.2065,0.206085,-0.277495,95,0.567796,10,-5.71875e-05,-3.55675,-0.835431,-0.0706222,0.206207,
2,0,0,0,0,62973.7,0.202505,0.202108,-0.278481,95,0.567565,10,-5.62834e-05,-3.5552,-0.875542,-0.0673868,0.202231,
2,0,0,1,0,62974.5,0.198509,0.198101,-0.281693,95,0.567331,10,-5.58036e-05,-3.55022,-0.853851,-0.0690987,0.198225,
2,0,0,1,0,62975.3,0.194514,0.194133,-0.284972,95,0.567095,10,-5.53224e-05,-3.5452,-0.677704,-0.0870586,0.194258,
2,0,0,1,0,62976.1,0.190519,0.190135,-0.287212,95,0.566856,10,-5.46089e-05,-3.5418,-0.716946,-0.0822936,0.190261,
2,0,0,1,0,62976.9,0.186524,0.186147,-0.293407,95,0.566614,10,-5.46169e-05,-3.53253,-0.872282,-0.0676386,0.186276,
2,0,0,0,0,62977.7,0.182529,0.182148,-0.296783,95,0.566369,10,-5.40586e-05,-3.52756,-0.613814,-0.0961204,0.182279,
2,0,0,1,0,62978.4,0.178534,0.178169,-0.300604,95,0.56612,10,-5.35582e-05,-3.52201,-0.637545,-0.0925425,0.178301,
2,0,0,1,0,62979.2,0.174538,0.174175,-0.306595,95,0.565868,10,-5.34011e-05,-3.51344,-0.551572,-0.106967,0.17431,
2,0,0,1,0,62980,0.170543,0.170164,-0.311612,95,0.565611,10,-5.3025e-05,-3.50639,-0.348406,-0.169343,0.170301,
2,0,0,1,0,62980.8,0.166549,0.166194,-0.318826,95,0.565349,10,-5.29868e-05,-3.49645,-0.423267,-0.139392,0.166334,
2,0,0,0,0,62981.6,0.162553,0.162205,-0.327332,95,0.565081,10,-5.3095e-05,-3.48501,-0.384265,-0.15354,0.162349,
2,0,0,1,0,62982.4,0.158558,0.158193,-0.335923,95,0.564806,10,-5.31405e-05,-3.47376,-0.264334,-0.223202,0.158341,
2,0,0,0,0,62983.2,0.154563,0.154211,-0.350606,95,0.564521,10,-5.40673e-05,-3.45518,-0.231148,-0.255247,0.154365,
2,0,0,1,0,62984,0.150567,0.150169,-0.365456,95,0.564225,10,-5.48803e-05,-3.43716,-0.172433,-0.342163,0.15033,
2,0,0,1,0,62984.8,0.146572,0.146189,-0.387796,95,0.563914,10,-5.66914e-05,-3.4114,-0.142458,-0.414158,0.14636,
2,0,0,1,0,62985.6,0.142578,0.142205,-0.416579,95,0.563584,10,-5.92398e-05,-3.3803,-0.126065,-0.468012,0.142389,
2,0,0,1,0,62986.4,0.138582,0.138227,-0.450635,95,0.563228,10,-6.22901e-05,-3.34617,-0.103431,-0.570426,0.138426,
2,0,0,0,0,62987.2,0.134587,0.134243,-0.492864,95,0.562841,10,-6.61637e-05,-3.30727,-0.10558,-0.558819,0.13446,
2,0,0,1,0,62988,0.130591,0.130207,-0.535951,95,0.56242,10,-6.97846e-05,-3.27088,-0.112723,-0.523406,0.130443,
2,0,0,1,0,62988.8,0.126596,0.126234,-0.575579,95,0.561963,10,-7.26577e-05,-3.23989,-0.140108,-0.421103,0.126487,
2,0,0,1,0,62989.6,0.122602,0.122234,-0.613414,95,0.561476,10,-7.49798e-05,-3.21225,-0.181407,-0.325236,0.122503,
2,0,0,1,0,62990.4,0.118607,0.118232,-0.637451,95,0.560965,10,-7.53671e-05,-3.19555,-0.286957,-0.205606,0.118512,
2,0,0,0,0,62991.2,0.114611,0.114228,-0.651761,95,0.560438,10,-7.44496e-05,-3.18591,-0.617556,-0.095538,0.114515,
2,0,0,1,0,62992,0.110616,0.110268,-0.6589,95,0.559903,10,-7.26554e-05,-3.18118,-1.18383,-0.0498384,0.110558,
2,0,0,1,0,62992.8,0.10662,0.106249,-0.661036,95,0.559364,10,-7.02347e-05,-3.17977,-2.94698,-0.0200205,0.10654,
2,0,0,1,0,62993.6,0.102625,0.102225,-0.663735,95,0.558824,10,-6.785e-05,-3.17801,2.03445,0.0290005,0.102517,
2,0,0,1,0,62994.4,0.0986305,0.0982855,-0.65886,95,0.558285,10,-6.47563e-05,-3.18121,2.94213,0.0200535,0.0985754,
2,0,0,0,0,62995.2,0.0946351,0.0943181,-0.654012,95,0.557748,10,-6.16852e-05,-3.18441,1.22013,0.0483555,0.0946058,
2,0,0,1,0,62996,0.0906399,0.0902694,-0.651666,95,0.557215,10,-5.88255e-05,-3.18598,0.80524,0.0732701,0.0905562,
2,0,0,0,0,62996.8,0.0866448,0.0862834,-0.645451,95,0.556687,10,-5.56917e-05,-3.19014,1.45863,0.0404488,0.0865674,
2,0,0,1,0,62997.6,0.0826492,0.0822999,-0.638296,95,0.556164,10,-5.25317e-05,-3.19498,0.713854,0.0826499,0.0825808,
2,0,0,1,0,62998.4,0.0786544,0.078324,-0.631471,95,0.555647,10,-4.94594e-05,-3.19965,0.973084,0.0606319,0.0786019,
2,0,0,1,0,62999.2,0.0746596,0.0743267,-0.623044,95,0.555136,10,-4.63088e-05,-3.20548,0.648402,0.0909929,0.0746008,
2,0,0,1,0,63000,0.0706641,0.0702977,-0.614705,95,0.554631,10,-4.32124e-05,-3.21133,0.623772,0.0945858,0.0705682,
2,0,0,0,0,63000.8,0.0666689,0.0663127,-0.608334,95,0.554132,10,-4.03403e-05,-3.21586,0.789898,0.0746932,0.0665804,
2,0,0,1,0,63001.6,0.0626737,0.0623182,-0.598341,95,0.553639,10,-3.72875e-05,-3.22305,0.701097,0.0841539,0.0625815,
2,0,0,1,0,63002.4,0.0586783,0.0582843,-0.591806,95,0.553153,10,-3.4493e-05,-3.22782,0.548382,0.107589,0.0585447,
2,0,0,1,0,63003.2,0.0546835,0.0542962,-0.581567,95,0.552674,10,-3.15769e-05,-3.2354,0.959329,0.0615013,0.0545521,
2,0,0,1,0,63004,0.0506886,0.0503434,-0.572184,95,0.552201,10,-2.88057e-05,-3.24246,0.476987,0.123693,0.0505951,
2,0,0,0,0,63004.8,0.046693,0.046322,-0.563928,95,0.551736,10,-2.61223e-05,-3.24878,0.662572,0.089047,0.0465701,
2,0,0,1,0,63005.6,0.0426979,0.0423571,-0.553673,95,0.551279,10,-2.3452e-05,-3.25675,0.57623,0.10239,0.0426007,
2,0,0,1,0,63006.4,0.0387022,0.0383176,-0.546101,95,0.550828,10,-2.09253e-05,-3.26273,0.470701,0.125345,0.0385579,
2,0,0,1,0,63007.2,0.0347074,0.0343691,-0.536643,95,0.550386,10,-1.84439e-05,-3.27031,0.555856,0.106143,0.0346052,
2,0,0,1,0,63008,0.0307126,0.0303545,-0.525752,95,0.549951,10,-1.59589e-05,-3.27922,0.508468,0.116035,0.0305858,
2,0,0,0,0,63008.8,0.0267172,0.0263503,-0.518463,95,0.549523,10,-1.36616e-05,-3.28528,0.500447,0.117895,0.0265784,
2,0,0,1,0,63009.6,0.022722,0.0223727,-0.511144,95,0.549102,10,-1.14357e-05,-3.29146,1.03053,0.0572518,0.0225976,
2,0,0,0,0,63010.4,0.0187268,0.0183983,-0.504794,95,0.548685,10,-9.28733e-06,-3.29689,0.862028,0.0684432,0.0186204,
2,0,0,1,0,63011.2,0.0147313,0.0143483,-0.501282,95,0.548273,10,-7.19254e-06,-3.29992,1.11465,0.0529313,0.0145689,
2,0,0,1,0,63012,0.0107365,0.0103773,-0.496649,95,0.547864,10,-5.15388e-06,-3.30395,1.91598,0.0307937,0.0105958,
2,0,0,1,0,63012.8,0.00674163,0.00632376,-0.496229,95,0.547457,10,-3.13803e-06,-3.30432,4.10408,0.0143759,0.0065421,
2,0,0,1,0,63013.6,0.00274612,0.00242219,-0.497244,95,0.547051,10,-1.20442e-06,-3.30343,-1.41813,-0.041604,0.00264098,
2,0,0,0,0,63014.1,0.000274105,-0.000152345,-0.499316,95,0.546797,10,7.60681e-08,-3.30162, , ,6.73542e-05,