File: Figure_codes/Fig_3-5/workspace_calculate_alpha_eff/20221101_1-115_003_TrumpetPlot_ParaChange_from10_every3_16_CV_C01_55.csv
mode,ox/red,error,control changes,counter inc.,time/s,control/V,Ewe/V,<I>/mA,cycle number,(Q-Qo)/C,I Range,P/W,log(|I|),Tafel slope mV/dec,alpha_eff,E-IR/V,
2,0,0,0,0,37062.5,2.44065e-05,-0.000268062,-0.0860374,56,0.0000000E+000,10,2.30633e-08,-4.06531, , ,-0.000230205,
2,1,0,0,0,37063.2,0.00379485,0.00346033,0.153652,56,9.66722e-05,10,5.31688e-07,-3.81346,0.0339947,1.73557,0.00339272,
2,1,0,1,0,37064,0.00779002,0.00745912,0.177461,56,0.000241426,10,1.3237e-06,-3.7509,0.0747476,0.789323,0.00738104,
2,1,0,0,0,37064.8,0.0117852,0.0114494,0.193529,56,0.000401868,10,2.2158e-06,-3.71325,0.122474,0.481733,0.0113643,
2,1,0,1,0,37065.6,0.0157806,0.0154814,0.210452,56,0.000574731,10,3.25809e-06,-3.67685,0.12172,0.484719,0.0153888,
2,1,0,1,0,37066.4,0.0197754,0.0194458,0.222291,56,0.000758898,10,4.32264e-06,-3.65308,0.162316,0.363489,0.019348,
2,1,0,1,0,37067.2,0.0237704,0.0234307,0.236553,56,0.000954018,10,5.5426e-06,-3.62607,0.169775,0.347518,0.0233267,
2,1,0,1,0,37068,0.0277659,0.0274764,0.251121,56,0.00116004,10,6.89991e-06,-3.60012,0.15602,0.378158,0.0273659,
2,1,0,0,0,37068.8,0.0317611,0.0314625,0.263671,56,0.00137735,10,8.29575e-06,-3.57894,0.167687,0.351846,0.0313465,
2,1,0,1,0,37069.6,0.0357567,0.0354001,0.278398,56,0.00160621,10,9.85531e-06,-3.55533,0.210315,0.280531,0.0352776,
2,1,0,1,0,37070.4,0.0397516,0.0394296,0.293717,56,0.0018461,10,1.15811e-05,-3.53207,0.163923,0.359925,0.0393004,
2,1,0,1,0,37071.2,0.0437465,0.0434619,0.305943,56,0.00209746,10,1.32969e-05,-3.51436,0.228711,0.257968,0.0433273,
2,1,0,1,0,37072,0.0477413,0.0474182,0.320153,56,0.00235903,10,1.51811e-05,-3.49464,0.217281,0.271538,0.0472774,
2,1,0,0,0,37072.8,0.0517369,0.0513801,0.332229,56,0.00263088,10,1.70699e-05,-3.47856,0.218442,0.270094,0.0512339,
2,1,0,1,0,37073.6,0.0557321,0.0554012,0.344596,56,0.00291323,10,1.9091e-05,-3.46269,0.331646,0.1779,0.0552495,
2,1,0,1,0,37074.4,0.0597277,0.0594089,0.356574,56,0.00320452,10,2.11836e-05,-3.44785,0.305744,0.192972,0.059252,
2,1,0,1,0,37075.2,0.0637226,0.0633945,0.365347,56,0.0035047,10,2.3161e-05,-3.43729,0.316188,0.186598,0.0632337,
2,1,0,1,0,37076,0.0677174,0.0673569,0.377491,56,0.00381369,10,2.54266e-05,-3.42309,0.487767,0.120959,0.0671908,
2,1,0,0,0,37076.8,0.0717128,0.0713953,0.385836,56,0.00412972,10,2.75469e-05,-3.4136,0.302064,0.195323,0.0712255,
2,1,0,1,0,37077.6,0.075708,0.0754036,0.392818,56,0.00445339,10,2.96199e-05,-3.40581,0.456459,0.129256,0.0752308,
2,1,0,0,0,37078.4,0.0797031,0.0793812,0.402272,56,0.00478335,10,3.19328e-05,-3.39548,0.403729,0.146137,0.0792042,
2,1,0,1,0,37079.2,0.0836986,0.0833483,0.411354,56,0.00511991,10,3.42856e-05,-3.38578,0.424659,0.138935,0.0831673,
2,1,0,1,0,37080,0.0876935,0.0873258,0.421477,56,0.00546424,10,3.68058e-05,-3.37523,0.331048,0.178222,0.0871403,
2,1,0,1,0,37080.8,0.0916883,0.0913742,0.435511,56,0.00581752,10,3.97945e-05,-3.361,0.257977,0.228703,0.0911826,
2,1,0,1,0,37081.6,0.0956838,0.0953467,0.45071,56,0.00618344,10,4.29737e-05,-3.3461,0.23638,0.249598,0.0951484,
2,1,0,0,0,37082.4,0.099679,0.0993465,0.471503,56,0.00656399,10,4.68422e-05,-3.32652,0.247865,0.238033,0.0991391,
2,1,0,1,0,37083.2,0.103674,0.103395,0.493924,56,0.0069612,10,5.10693e-05,-3.30634,0.16772,0.351776,0.103178,
2,1,0,1,0,37084,0.10767,0.107313,0.514441,56,0.00737708,10,5.5206e-05,-3.28866,0.233112,0.253098,0.107086,
2,1,0,1,0,37084.8,0.111664,0.111323,0.534539,56,0.00780893,10,5.95063e-05,-3.27202,0.257232,0.229365,0.111088,
2,1,0,1,0,37085.6,0.115659,0.115342,0.550681,56,0.00825475,10,6.35168e-05,-3.2591,0.32452,0.181807,0.1151,
2,1,0,0,0,37086.4,0.119655,0.11932,0.564075,56,0.0087129,10,6.73057e-05,-3.24866,0.548805,0.107506,0.119072,
2,1,0,1,0,37087.2,0.12365,0.1233,0.575791,56,0.00918001,10,7.0995e-05,-3.23974,0.450744,0.130895,0.123047,
2,1,0,1,0,37088,0.127646,0.12729,0.584992,56,0.00965604,10,7.44635e-05,-3.23285,0.642548,0.0918219,0.127032,
2,1,0,1,0,37088.8,0.131641,0.131317,0.589777,56,0.0101385,10,7.74477e-05,-3.22931,-1.03921,-0.0567737,0.131057,
2,1,0,1,0,37089.6,0.135635,0.13532,0.581225,56,0.0106187,10,7.86511e-05,-3.23566,-0.346015,-0.170513,0.135064,
2,1,0,0,0,37090.4,0.139631,0.139306,0.551433,56,0.0110843,10,7.68178e-05,-3.25851,-0.13042,-0.452385,0.139063,
2,1,0,1,0,37091.2,0.143626,0.143337,0.503352,56,0.0115184,10,7.21492e-05,-3.29813,-0.0826342,-0.71399,0.143116,
2,1,0,0,0,37092,0.147621,0.147316,0.444375,56,0.0119083,10,6.54636e-05,-3.35225,-0.0698406,-0.844781,0.147121,
2,1,0,1,0,37092.8,0.151617,0.151295,0.390888,56,0.0122526,10,5.91395e-05,-3.40795,-0.077525,-0.761045,0.151123,
2,1,0,1,0,37093.6,0.155612,0.155276,0.352555,56,0.0125595,10,5.47432e-05,-3.45277,-0.103906,-0.567822,0.155121,
2,1,0,1,0,37094.4,0.159606,0.159251,0.327097,56,0.0128412,10,5.20905e-05,-3.48532,-0.152355,-0.387254,0.159107,
2,1,0,1,0,37095.2,0.163602,0.163266,0.308563,56,0.0131064,10,5.03777e-05,-3.51066,-0.183968,-0.320707,0.16313,
2,1,0,0,0,37096,0.167597,0.16726,0.297313,56,0.0133601,10,4.97287e-05,-3.52679,-0.345657,-0.17069,0.167129,
2,1,0,1,0,37096.8,0.171592,0.171279,0.289793,56,0.0136062,10,4.96355e-05,-3.53791,-0.325397,-0.181317,0.171152,
2,1,0,1,0,37097.6,0.175588,0.175259,0.283563,56,0.0138462,10,4.96971e-05,-3.54735,-0.506723,-0.116434,0.175135,
2,1,0,1,0,37098.4,0.179582,0.179282,0.278356,56,0.0140816,10,4.99043e-05,-3.5554,-0.621122,-0.0949893,0.17916,
2,1,0,1,0,37099.2,0.183577,0.183276,0.274947,56,0.0143137,10,5.03912e-05,-3.56075,-0.782455,-0.0754037,0.183155,
2,1,0,0,0,37100,0.187573,0.187262,0.271767,56,0.0145428,10,5.08916e-05,-3.5658,-0.874678,-0.0674534,0.187142,
2,1,0,1,0,37100.8,0.191568,0.191232,0.268284,56,0.0147695,10,5.13044e-05,-3.57141,-1.11356,-0.0529832,0.191114,
2,1,0,0,0,37101.6,0.195563,0.195261,0.266177,56,0.0149943,10,5.1974e-05,-3.57483,-0.527553,-0.111837,0.195144,
2,1,0,1,0,37102.4,0.199559,0.199286,0.264004,56,0.0152171,10,5.26122e-05,-3.57839,-5.421,-0.0108836,0.19917,
2,1,0,1,0,37103.2,0.203553,0.203184,0.261519,56,0.0154385,10,5.31363e-05,-3.5825,-1.42965,-0.0412688,0.203069,
2,1,0,1,0,37104,0.207548,0.207228,0.261122,56,0.0156586,10,5.41118e-05,-3.58316,-1.42155,-0.0415041,0.207113,
2,1,0,1,0,37104.8,0.211544,0.211195,0.258483,56,0.015877,10,5.45903e-05,-3.58757,-1.34647,-0.0438182,0.211081,
2,1,0,0,0,37105.6,0.215539,0.215204,0.257102,56,0.0160943,10,5.53294e-05,-3.58989,-1.36836,-0.0431173,0.215091,
2,1,0,1,0,37106.4,0.219535,0.219194,0.257459,56,0.0163103,10,5.64336e-05,-3.58929,-8.66151,-0.00681175,0.219081,
2,1,0,1,0,37107.2,0.223529,0.223204,0.254915,56,0.0165253,10,5.68982e-05,-3.5936,-1.90337,-0.0309976,0.223092,
2,1,0,1,0,37108,0.227524,0.227222,0.25369,56,0.0167394,10,5.76438e-05,-3.5957,-1.46827,-0.0401834,0.22711,
2,1,0,1,0,37108.8,0.23152,0.231229,0.251962,56,0.0169523,10,5.8261e-05,-3.59866,-3.87163,-0.015239,0.231118,
2,1,0,0,0,37109.6,0.235515,0.235182,0.250731,56,0.0171647,10,5.89676e-05,-3.60079,-1.16216,-0.0507676,0.235072,
2,1,0,1,0,37110.4,0.23951,0.239157,0.250518,56,0.017376,10,5.9913e-05,-3.60116,-3.30645,-0.0178439,0.239047,
2,1,0,1,0,37111.2,0.243506,0.243154,0.249255,56,0.0175864,10,6.06073e-05,-3.60336,-3.68283,-0.0160203,0.243044,
2,1,0,1,0,37112,0.2475,0.247215,0.248493,56,0.0177963,10,6.14313e-05,-3.60469,-1.46367,-0.0403096,0.247106,
2,1,0,1,0,37112.8,0.251495,0.251188,0.24663,56,0.018005,10,6.19505e-05,-3.60795,-9.11268,-0.00647449,0.251079,
2,1,0,0,0,37113.6,0.255491,0.255165,0.245528,56,0.0182131,10,6.26501e-05,-3.6099,-3.22599,-0.0182889,0.255057,
2,1,0,1,0,37114.4,0.259486,0.259197,0.245957,56,0.0184204,10,6.37513e-05,-3.60914,-0.929401,-0.0634818,0.259089,
2,1,0,0,0,37115.2,0.263481,0.263171,0.246124,56,0.0186268,10,6.47726e-05,-3.60885,3.08564,0.0191208,0.263063,
2,1,0,1,0,37116,0.267477,0.267163,0.244247,56,0.0188325,10,6.52539e-05,-3.61217,-1.49391,-0.0394937,0.267056,
2,1,0,1,0,37116.8,0.271471,0.271147,0.243028,56,0.0190373,10,6.58962e-05,-3.61434,-4.06234,-0.0145236,0.27104,
2,1,0,1,0,37117.6,0.275466,0.275132,0.24172,56,0.0192413,10,6.65049e-05,-3.61669,-1.95414,-0.0301923,0.275025,
2,1,0,1,0,37118.4,0.279462,0.279134,0.241547,56,0.0194446,10,6.7424e-05,-3.617,-1.43064,-0.0412402,0.279028,
2,1,0,0,0,37119.2,0.283457,0.283127,0.239651,56,0.0196471,10,6.78515e-05,-3.62042,-2.81351,-0.0209702,0.283021,
2,1,0,1,0,37120,0.287452,0.287125,0.238753,56,0.0198488,10,6.85519e-05,-3.62205,-4.48341,-0.0131596,0.28702,
2,1,0,1,0,37120.8,0.291448,0.291145,0.238789,56,0.0200499,10,6.9522e-05,-3.62199,-0.879568,-0.0670784,0.291039,
2,1,0,1,0,37121.5,0.295442,0.295151,0.237289,56,0.0202499,10,7.0036e-05,-3.62472,4.58406,0.0128707,0.295046,
2,1,0,1,0,37122.3,0.299437,0.299143,0.23602,56,0.0204495,10,7.06035e-05,-3.62705,-3.61557,-0.0163183,0.299039,
2,1,0,0,0,37123.1,0.303433,0.303146,0.236088,56,0.0206483,10,7.15691e-05,-3.62693,-2.28579,-0.0258117,0.303042,
2,1,0,1,0,37123.9,0.307428,0.307147,0.235413,56,0.0208464,10,7.23065e-05,-3.62817,16.9636,0.00347804,0.307043,
2,1,0,1,0,37124.7,0.311424,0.31111,0.233462,56,0.0210441,10,7.26325e-05,-3.63178,-1.09742,-0.0537624,0.311007,
2,1,0,1,0,37125.5,0.315418,0.315091,0.234289,56,0.0212408,10,7.38223e-05,-3.63025,-6.223,-0.00948096,0.314987,
2,1,0,1,0,37126.3,0.319413,0.319126,0.233461,56,0.0214371,10,7.45037e-05,-3.63178,6.69943,0.00880673,0.319023,
2,1,0,0,0,37127.1,0.323409,0.323124,0.232345,56,0.0216331,10,7.50763e-05,-3.63387,-0.799225,-0.0738215,0.323022,
2,1,0,1,0,37127.9,0.327404,0.327131,0.231513,56,0.0218283,10,7.57353e-05,-3.63542,3.51888,0.0167667,0.327029,
2,1,0,0,0,37128.7,0.331399,0.331071,0.229289,56,0.0220229,10,7.59109e-05,-3.63962,-1.72017,-0.0342988,0.33097,
2,1,0,1,0,37129.5,0.335395,0.335096,0.231113,56,0.0222171,10,7.7445e-05,-3.63618,-9.96424,-0.00592117,0.334995,
2,1,0,1,0,37130.3,0.339389,0.339119,0.230342,56,0.0224108,10,7.81133e-05,-3.63763,-3.79865,-0.0155318,0.339018,
2,1,0,1,0,37131.1,0.343384,0.343051,0.229152,56,0.0226039,10,7.86109e-05,-3.63988,3.87687,0.0152185,0.34295,
2,1,0,1,0,37131.9,0.34738,0.347056,0.229097,56,0.0227966,10,7.95097e-05,-3.63998,-3.80197,-0.0155183,0.346956,
2,1,0,0,0,37132.7,0.351375,0.351074,0.228003,56,0.022989,10,8.00461e-05,-3.64206,-1.2555,-0.0469933,0.350974,
2,1,0,1,0,37133.5,0.35537,0.355054,0.228397,56,0.023181,10,8.10933e-05,-3.64131,-1.09858,-0.0537057,0.354953,
2,1,0,1,0,37134.3,0.359366,0.359063,0.227234,56,0.0233723,10,8.15914e-05,-3.64353,2.36441,0.0249534,0.358963,
2,1,0,1,0,37135.1,0.36336,0.363064,0.226259,56,0.0235635,10,8.21465e-05,-3.64539,-3.3088,-0.0178312,0.362964,
2,1,0,1,0,37135.9,0.367355,0.367032,0.226642,56,0.0237539,10,8.3185e-05,-3.64466,6.07432,0.00971302,0.366932,
2,1,0,0,0,37136.7,0.371351,0.371049,0.226125,56,0.0239439,10,8.39034e-05,-3.64565,3.51582,0.0167813,0.37095,
2,1,0,1,0,37137.5,0.375346,0.375049,0.226265,56,0.024134,10,8.48603e-05,-3.64538,-1.12042,-0.0526589,0.374949,
2,1,0,1,0,37138.3,0.379342,0.379004,0.226631,56,0.0243237,10,8.58941e-05,-3.64468,2.63117,0.0224235,0.378904,
2,1,0,1,0,37139.1,0.383336,0.383059,0.225158,56,0.024513,10,8.62488e-05,-3.64751,-2.43403,-0.0242397,0.38296,
2,1,0,1,0,37139.9,0.387331,0.387056,0.225457,56,0.0247021,10,8.72643e-05,-3.64694,51.5886,0.00114366,0.386956,
2,1,0,0,0,37140.7,0.391327,0.391012,0.224626,56,0.0248908,10,8.78315e-05,-3.64854,-11.0915,-0.0053194,0.390914,
2,1,0,1,0,37141.5,0.395322,0.395018,0.22365,56,0.0250793,10,8.83456e-05,-3.65043,-2.56916,-0.0229647,0.394919,
2,1,0,0,0,37142.3,0.399317,0.398999,0.224667,56,0.0252676,10,8.9642e-05,-3.64846,20.8982,0.00282321,0.3989,
2,1,0,1,0,37143.1,0.403313,0.403011,0.224421,56,0.0254557,10,9.04443e-05,-3.64894,-2.31708,-0.0254631,0.402913,
2,1,0,1,0,37143.9,0.407307,0.406984,0.223809,56,0.0256433,10,9.10866e-05,-3.65012,21.621,0.00272883,0.406886,
2,1,0,1,0,37144.7,0.411302,0.410986,0.223947,56,0.0258305,10,9.20389e-05,-3.64986,3.94762,0.0149457,0.410887,
2,1,0,1,0,37145.5,0.415298,0.415015,0.222587,56,0.0260176,10,9.23768e-05,-3.6525,-2.28295,-0.0258438,0.414917,
2,1,0,0,0,37146.3,0.419293,0.418985,0.22217,56,0.0262045,10,9.30859e-05,-3.65331,-2.215,-0.0266366,0.418887,
2,1,0,1,0,37147.1,0.423288,0.422997,0.222612,56,0.0263909,10,9.41643e-05,-3.65245,7.40978,0.00796245,0.422899,
2,1,0,1,0,37147.9,0.427283,0.427017,0.221616,56,0.0265775,10,9.46339e-05,-3.6544,-12.7166,-0.00463962,0.426919,
2,1,0,1,0,37148.7,0.431278,0.430958,0.222758,56,0.0267637,10,9.59994e-05,-3.65217,1.96084,0.0300891,0.43086,
2,1,0,1,0,37149.5,0.435273,0.43497,0.223003,56,0.0269499,10,9.69998e-05,-3.65169,-10.6661,-0.00553152,0.434872,
2,1,0,0,0,37150.3,0.439269,0.438988,0.222166,56,0.0271363,10,9.75281e-05,-3.65332,-3.10385,-0.0190087,0.438891,
2,1,0,1,0,37151.1,0.443264,0.442989,0.222585,56,0.0273223,10,9.86029e-05,-3.6525,5.99203,0.00984641,0.442891,
2,1,0,0,0,37151.9,0.447259,0.446942,0.221954,56,0.0275082,10,9.92007e-05,-3.65374,-2.93568,-0.0200976,0.446845,
2,1,0,1,0,37152.7,0.451254,0.451009,0.22258,56,0.0276945,10,0.000100386,-3.65251,-6.85184,-0.00861082,0.450911,
2,1,0,1,0,37153.5,0.455249,0.454957,0.222557,56,0.0278809,10,0.000101254,-3.65256,1.52093,0.0387921,0.454859,
2,1,0,1,0,37154.3,0.459244,0.458969,0.222213,56,0.0280672,10,0.000101989,-3.65323,10.2942,0.00573141,0.458871,
2,1,0,1,0,37155.1,0.46324,0.462947,0.223566,56,0.0282538,10,0.000103499,-3.65059,4.9772,0.0118541,0.462849,
2,1,0,0,0,37155.9,0.467235,0.46691,0.223909,56,0.0284406,10,0.000104545,-3.64993,3.29043,0.0179308,0.466811,
2,1,0,1,0,37156.7,0.471231,0.47091,0.225238,56,0.0286277,10,0.000106067,-3.64736,2.82279,0.0209013,0.470811,
2,1,0,1,0,37157.5,0.475225,0.47493,0.225155,56,0.0288151,10,0.000106933,-3.64752,-4.69052,-0.0125786,0.474831,
2,1,0,1,0,37158.3,0.47922,0.478926,0.224572,56,0.0290028,10,0.000107554,-3.64864,2.90159,0.0203336,0.478828,
2,1,0,1,0,37159.1,0.483216,0.482884,0.225624,56,0.0291908,10,0.00010895,-3.64661,-5.82334,-0.0101316,0.482785,
2,1,0,0,0,37159.9,0.487211,0.486911,0.225676,56,0.029379,10,0.000109884,-3.64652,1.70209,0.0346633,0.486812,
2,1,0,1,0,37160.7,0.491206,0.490901,0.226616,56,0.0295678,10,0.000111246,-3.64471,2.54364,0.0231951,0.490801,
2,1,0,1,0,37161.5,0.495201,0.494882,0.227658,56,0.029757,10,0.000112664,-3.64272,7.50267,0.00786387,0.494782,
2,1,0,1,0,37162.3,0.499196,0.498915,0.228261,56,0.0299466,10,0.000113883,-3.64157,1.62573,0.0362915,0.498815,
2,1,0,1,0,37163.1,0.503191,0.502925,0.228924,56,0.0301371,10,0.000115132,-3.64031,7.32673,0.0080527,0.502824,
2,1,0,0,0,37163.9,0.507187,0.506873,0.229617,56,0.0303281,10,0.000116387,-3.639,1.77858,0.0331726,0.506772,
2,1,0,1,0,37164.7,0.511182,0.510921,0.230665,56,0.0305199,10,0.000117852,-3.63702,1.29349,0.0456132,0.51082,
2,1,0,0,0,37165.5,0.515177,0.514857,0.232295,56,0.0307125,10,0.000119599,-3.63396,52.9074,0.00111516,0.514755,
2,1,0,1,0,37166.3,0.519173,0.518878,0.233456,56,0.030906,10,0.000121135,-3.6318,0.985877,0.0598452,0.518775,
2,1,0,1,0,37167.1,0.523167,0.522899,0.234234,56,0.0311004,10,0.000122481,-3.63035,1.87216,0.0315144,0.522796,
2,1,0,1,0,37167.9,0.527162,0.526877,0.236224,56,0.0312959,10,0.000124461,-3.62668,2.24836,0.0262414,0.526773,
2,1,0,1,0,37168.7,0.531158,0.530826,0.237573,56,0.0314925,10,0.00012611,-3.6242,1.28835,0.0457951,0.530721,
2,1,0,0,0,37169.5,0.535153,0.534827,0.238505,56,0.0316902,10,0.000127559,-3.6225,1.86497,0.0316359,0.534722,
2,1,0,1,0,37170.3,0.539148,0.538907,0.24051,56,0.0318889,10,0.000129613,-3.61887,1.09425,0.0539183,0.538801,
2,1,0,1,0,37171.1,0.543143,0.54289,0.24216,56,0.0320892,10,0.000131467,-3.6159,1.10079,0.0535977,0.542784,
2,1,0,1,0,37171.9,0.547138,0.546856,0.24386,56,0.0322912,10,0.000133356,-3.61286,1.07813,0.0547243,0.546749,
2,1,0,1,0,37172.7,0.551133,0.550836,0.246916,56,0.0324946,10,0.00013601,-3.60745,0.706844,0.0834697,0.550728,
2,1,0,0,0,37173.5,0.555129,0.554836,0.248437,56,0.0327001,10,0.000137842,-3.60478,1.6175,0.0364761,0.554726,
2,1,0,1,0,37174.3,0.559124,0.558838,0.251813,56,0.0329071,10,0.000140723,-3.59892,0.773708,0.0762562,0.558727,
2,1,0,1,0,37175.1,0.56312,0.562824,0.254078,56,0.0331163,10,0.000143001,-3.59503,0.639861,0.0922076,0.562712,
2,1,0,1,0,37175.9,0.567114,0.566856,0.257445,56,0.0333283,10,0.000145934,-3.58932,0.843915,0.0699122,0.566743,
2,1,0,1,0,37176.7,0.571109,0.570814,0.261359,56,0.0335427,10,0.000149187,-3.58276,0.715294,0.0824835,0.570699,
2,1,0,0,0,37177.5,0.575105,0.574808,0.265014,56,0.03376,10,0.000152332,-3.57673,0.554739,0.106356,0.574692,
2,1,0,1,0,37178.3,0.5791,0.57879,0.269107,56,0.0339807,10,0.000155756,-3.57008,0.602759,0.0978833,0.578672,
2,1,0,0,0,37179.1,0.583095,0.582848,0.274688,56,0.0342048,10,0.000160102,-3.56116,0.423839,0.139204,0.582728,
2,1,0,1,0,37179.9,0.58709,0.5868,0.278798,56,0.0344331,10,0.000163599,-3.55471,0.535933,0.110088,0.586677,
2,1,0,1,0,37180.7,0.591085,0.590789,0.28535,56,0.0346656,10,0.000168582,-3.54462,0.42701,0.13817,0.590663,
2,1,0,1,0,37181.5,0.59508,0.594795,0.291516,56,0.034903,10,0.000173392,-3.53534,0.377568,0.156263,0.594667,
2,1,0,1,0,37182.3,0.599076,0.598801,0.298197,56,0.035146,10,0.00017856,-3.5255,0.313036,0.188477,0.59867,
2,1,0,0,0,37183.1,0.603071,0.602773,0.30741,56,0.0353951,10,0.000185299,-3.51228,0.342997,0.172013,0.602638,
2,1,0,1,0,37183.9,0.607066,0.606739,0.31578,56,0.0356513,10,0.000191596,-3.50062,0.313999,0.187899,0.6066,
2,1,0,1,0,37184.7,0.611061,0.610792,0.327443,56,0.0359153,10,0.0002,-3.48486,0.272661,0.216386,0.610648,
2,1,0,1,0,37185.5,0.615056,0.61473,0.339204,56,0.0361882,10,0.000208518,-3.46954,0.213327,0.276571,0.61458,
2,1,0,1,0,37186.3,0.619051,0.618782,0.353107,56,0.0364721,10,0.000218496,-3.45209,0.234833,0.251243,0.618626,
2,1,0,0,0,37187.1,0.623047,0.622751,0.370027,56,0.036768,10,0.000230435,-3.43177,0.183628,0.321301,0.622589,
2,1,0,1,0,37187.9,0.627042,0.626749,0.389098,56,0.0370781,10,0.000243867,-3.40994,0.16747,0.352302,0.626578,
2,1,0,1,0,37188.7,0.631037,0.630759,0.412373,56,0.037405,10,0.000260108,-3.38471,0.16479,0.358031,0.630577,
2,1,0,1,0,37189.5,0.635032,0.634766,0.437691,56,0.0377509,10,0.000277832,-3.35883,0.143753,0.410425,0.634574,
2,1,0,1,0,37190.3,0.639027,0.638723,0.466279,56,0.0381188,10,0.000297823,-3.33135,0.131077,0.450118,0.638518,
2,1,0,1,0,37191.1,0.643022,0.642749,0.502888,56,0.038513,10,0.000323231,-3.29853,0.121174,0.486903,0.642528,
2,1,0,1,0,37191.9,0.647018,0.646717,0.543577,56,0.0389377,10,0.00035154,-3.26474,0.114947,0.513282,0.646478,
2,1,0,0,0,37192.7,0.651013,0.650705,0.590608,56,0.0393973,10,0.000384311,-3.2287,0.10393,0.567691,0.650445,
2,1,0,1,0,37193.5,0.655008,0.654724,0.647971,56,0.0398985,10,0.000424242,-3.18844,0.0962833,0.612775,0.654439,
2,1,0,1,0,37194.3,0.659003,0.658713,0.713014,56,0.0404485,10,0.000469672,-3.1469,0.0938252,0.628829,0.658399,
2,1,0,1,0,37195.1,0.662998,0.662731,0.788894,56,0.0410548,10,0.000522825,-3.10298,0.0865715,0.681517,0.662384,
2,1,0,1,0,37195.9,0.666994,0.666722,0.876058,56,0.0417264,10,0.000584087,-3.05747,0.0849556,0.694481,0.666337,
2,1,0,0,0,37196.7,0.670989,0.670759,0.976686,56,0.0424734,10,0.000655121,-3.01024,0.0834715,0.706828,0.67033,
2,1,0,1,0,37197.5,0.674984,0.674739,1.09123,56,0.0433061,10,0.000736293,-2.96209,0.0807158,0.73096,0.674259,
2,1,0,1,0,37198.3,0.67898,0.678755,1.22221,56,0.0442369,10,0.000829583,-2.91285,0.0793645,0.743405,0.678217,
2,1,0,1,0,37199.1,0.682974,0.682715,1.37038,56,0.0452796,10,0.000935582,-2.86316,0.0798292,0.739078,0.682112,
2,1,0,1,0,37199.9,0.686969,0.686718,1.53659,56,0.0464472,10,0.00105521,-2.81344,0.0795134,0.742013,0.686042,
2,1,0,0,0,37200.7,0.690965,0.690715,1.72164,56,0.0477546,10,0.00118916,-2.76406,0.0786598,0.750065,0.689957,
2,1,0,1,0,37201.5,0.69496,0.694644,1.9273,56,0.0492183,10,0.00133879,-2.71505,0.080855,0.729701,0.693796,
2,1,0,0,0,37202.3,0.698955,0.698671,2.15251,56,0.0508534,10,0.0015039,-2.66705,0.0810943,0.727548,0.697724,
2,1,0,1,0,37203.1,0.70295,0.702641,2.39732,56,0.0526771,10,0.00168445,-2.62027,0.084075,0.701754,0.701586,
2,1,0,1,0,37203.9,0.706945,0.706676,2.66353,56,0.0547048,10,0.00188226,-2.57454,0.0860315,0.685795,0.705504,
2,1,0,1,0,37204.6,0.71094,0.710666,2.95015,56,0.0569538,10,0.00209657,-2.53016,0.0890579,0.66249,0.709368,
2,1,0,1,0,37205.4,0.714936,0.714697,3.25833,56,0.0594404,10,0.00232872,-2.487,0.0901549,0.654429,0.713264,
2,1,0,0,0,37206.2,0.718931,0.718641,3.58748,56,0.062181,10,0.00257811,-2.44521,0.0933296,0.632168,0.717062,
2,1,0,1,0,37207,0.722927,0.722684,3.93708,56,0.065194,10,0.00284526,-2.40483,0.0961843,0.613406,0.720951,
2,1,0,1,0,37207.8,0.726921,0.726638,4.30933,56,0.0684948,10,0.00313132,-2.36559,0.100492,0.587112,0.724741,
2,1,0,1,0,37208.6,0.730916,0.730645,4.70258,56,0.0721006,10,0.00343591,-2.32766,0.102649,0.574775,0.728576,
2,1,0,1,0,37209.4,0.734911,0.734652,5.11664,56,0.0760301,10,0.00375895,-2.29101,0.10502,0.561799,0.7324,
2,1,0,0,0,37210.2,0.738907,0.738638,5.55299,56,0.0802997,10,0.00410165,-2.25547,0.107613,0.54826,0.736195,
2,1,0,1,0,37211,0.742902,0.74259,6.01213,56,0.0849263,10,0.00446455,-2.22097,0.111717,0.528122,0.739945,
2,1,0,1,0,37211.8,0.746897,0.74663,6.49457,56,0.0899298,10,0.00484904,-2.18745,0.114871,0.513622,0.743772,
2,1,0,1,0,37212.6,0.750892,0.750596,6.99984,56,0.0953268,10,0.00525405,-2.15491,0.116234,0.507596,0.747516,
2,1,0,1,0,37213.4,0.754887,0.754627,7.53055,56,0.101138,10,0.00568275,-2.12317,0.120052,0.491453,0.751313,
2,1,0,0,0,37214.2,0.758883,0.758625,8.09162,56,0.107386,10,0.0061385,-2.09196,0.12144,0.485838,0.755064,
2,1,0,1,0,37215,0.762878,0.762625,8.67592,56,0.114091,10,0.00661648,-2.06168,0.124326,0.474558,0.758808,
2,1,0,0,0,37215.8,0.766873,0.766566,9.29123,56,0.121275,10,0.00712234,-2.03193,0.12818,0.460291,0.762478,
2,1,0,1,0,37216.6,0.770868,0.770644,9.94471,56,0.128966,10,0.00766383,-2.00241,0.125341,0.470714,0.766268,
2,1,0,1,0,37217.4,0.774863,0.774595,10.6323,56,0.137192,10,0.00823574,-1.97337,0.126982,0.464632,0.769917,
2,1,0,1,0,37218.2,0.778858,0.778612,11.359,56,0.145983,10,0.00884424,-1.94466,0.127188,0.463882,0.773614,
2,1,0,1,0,37219,0.782854,0.782591,12.14,56,0.155377,10,0.00950065,-1.91578,0.12564,0.469596,0.777249,
2,1,0,0,0,37219.8,0.786849,0.786582,12.9676,56,0.165413,10,0.0102001,-1.88714,0.126145,0.467715,0.780876,
2,1,0,1,0,37220.6,0.790844,0.790571,13.8503,56,0.176131,10,0.0109496,-1.85854,0.127843,0.461503,0.784477,
2,1,0,1,0,37221.4,0.794839,0.794568,14.7885,56,0.187579,10,0.0117505,-1.83008,0.12263,0.481122,0.788062,
2,1,0,1,0,37222.2,0.798834,0.798522,15.7929,56,0.199802,10,0.012611,-1.80154,0.12639,0.46681,0.791573,
2,1,0,1,0,37223,0.802829,0.802541,16.8458,56,0.212846,10,0.0135194,-1.77351,0.12704,0.464421,0.795129,
2,1,0,0,0,37223.8,0.806825,0.806541,17.9541,56,0.226757,10,0.0144808,-1.74584,0.12598,0.468328,0.798641,
2,1,0,1,0,37224.6,0.81082,0.810531,19.1303,56,0.241581,10,0.0155057,-1.71828,0.127484,0.462804,0.802114,
2,1,0,1,0,37225.4,0.814815,0.814526,20.3486,56,0.257363,10,0.0165745,-1.69147,0.143689,0.41061,0.805573,
2,1,0,1,0,37226.2,0.81881,0.818525,21.5035,56,0.274072,10,0.0176011,-1.66749,0.133244,0.442795,0.809064,
2,1,0,1,0,37227,0.822805,0.822528,22.76,56,0.291767,10,0.0187207,-1.64283,0.148034,0.398558,0.812514,
2,1,0,0,0,37227.8,0.826801,0.826554,24.0546,56,0.310476,10,0.0198824,-1.6188,0.137862,0.427965,0.81597,
2,1,0,1,0,37228.6,0.830796,0.830559,25.4174,56,0.330252,10,0.0211107,-1.59487,0.14487,0.407262,0.819376,
2,1,0,0,0,37229.4,0.834791,0.834545,26.7927,56,0.351119,10,0.0223597,-1.57198,0.150033,0.393247,0.822757,
2,1,0,1,0,37230.2,0.838786,0.83851,28.1953,56,0.373095,10,0.023642,-1.54982,0.156485,0.377032,0.826104,
2,1,0,1,0,37231,0.842781,0.842528,29.5872,56,0.396196,10,0.024928,-1.5289,0.165134,0.357285,0.82951,
2,1,0,1,0,37231.8,0.846776,0.846544,31.0546,56,0.420423,10,0.026289,-1.50787,0.156777,0.37633,0.83288,
2,1,0,0,0,37232.5,0.849723,0.849508,32.0468,56,0.4426,10,0.027224,-1.49421,0.0486855,1.21186,0.835407,
2,1,0,1,0,37233.3,0.845728,0.845464,29.9626,56,0.467292,10,0.0253323,-1.52342,0.125326,0.47077,0.832281,
2,1,0,0,0,37234.1,0.841732,0.841458,28.257,56,0.490538,10,0.0237771,-1.54887,0.127926,0.461206,0.829025,
2,1,0,1,0,37234.9,0.837737,0.837475,26.6286,56,0.512454,10,0.0223008,-1.57465,0.127608,0.462353,0.825758,
2,1,0,1,0,37235.7,0.833742,0.833472,25.0979,56,0.533106,10,0.0209184,-1.60036,0.127203,0.463827,0.822429,
2,1,0,1,0,37236.5,0.829747,0.829507,23.6391,56,0.552563,10,0.0196088,-1.62637,0.162826,0.362349,0.819106,
2,1,0,1,0,37237.3,0.825752,0.825536,22.5154,56,0.571053,10,0.0185873,-1.64752,0.129119,0.456942,0.815629,
2,1,0,0,0,37238.1,0.821757,0.821502,21.1232,56,0.588473,10,0.0173528,-1.67524,0.120426,0.489928,0.812208,
2,1,0,1,0,37238.9,0.817761,0.817466,19.8076,56,0.604815,10,0.016192,-1.70317,0.122974,0.479776,0.808751,
2,1,0,1,0,37239.7,0.813766,0.81347,18.5471,56,0.620126,10,0.0150875,-1.73172,0.119152,0.495165,0.805309,
2,1,0,1,0,37240.5,0.809771,0.809502,17.3488,56,0.63445,10,0.0140439,-1.76073,0.119546,0.493534,0.801869,
2,1,0,1,0,37241.3,0.805776,0.805523,16.2216,56,0.647848,10,0.0130669,-1.78991,0.118244,0.498968,0.798385,
2,1,0,0,0,37242.1,0.801781,0.80152,15.1309,56,0.660359,10,0.0121277,-1.82014,0.118044,0.499812,0.794863,
2,1,0,1,0,37242.9,0.797786,0.797522,14.1089,56,0.672029,10,0.0112521,-1.85051,0.114977,0.513148,0.791314,
2,1,0,1,0,37243.7,0.79379,0.793499,13.1414,56,0.682906,10,0.0104277,-1.88136,0.116776,0.505239,0.787717,
2,1,0,1,0,37244.5,0.789795,0.789497,12.2366,56,0.693035,10,0.00966077,-1.91234,0.114571,0.514965,0.784113,
2,1,0,1,0,37245.3,0.7858,0.785534,11.3741,56,0.702455,10,0.00893475,-1.94408,0.114227,0.516514,0.780529,
2,1,0,0,0,37246.1,0.781805,0.781541,10.5689,56,0.711211,10,0.00826005,-1.97597,0.114697,0.514398,0.776891,
2,1,0,1,0,37246.9,0.77781,0.777569,9.80128,56,0.719338,10,0.00762117,-2.00872,0.109409,0.539262,0.773256,
2,1,0,0,0,37247.7,0.773814,0.773536,9.07743,56,0.726868,10,0.00702172,-2.04204,0.111376,0.529739,0.769542,
2,1,0,1,0,37248.5,0.769819,0.769518,8.40087,56,0.733841,10,0.00646462,-2.07568,0.107827,0.54717,0.765821,
2,1,0,1,0,37249.3,0.765824,0.765556,7.77095,56,0.74029,10,0.00594909,-2.10953,0.109206,0.540263,0.762136,
2,1,0,1,0,37250.1,0.761829,0.761539,7.17643,56,0.74625,10,0.00546513,-2.14409,0.108523,0.543665,0.758381,
2,1,0,1,0,37250.9,0.757834,0.757541,6.61413,56,0.75175,10,0.00501047,-2.17953,0.104319,0.565573,0.754631,
2,1,0,0,0,37251.7,0.753839,0.75357,6.0847,56,0.756813,10,0.00458524,-2.21576,0.101372,0.582015,0.750892,
2,1,0,1,0,37252.5,0.749844,0.749572,5.58734,56,0.761467,10,0.00418812,-2.25279,0.101886,0.579078,0.747113,
2,1,0,1,0,37253.3,0.745848,0.74559,5.12238,56,0.765736,10,0.0038192,-2.29053,0.0997882,0.591252,0.743336,
2,1,0,1,0,37254.1,0.741853,0.741556,4.68481,56,0.769644,10,0.00347405,-2.32931,0.0978406,0.603021,0.739495,
2,1,0,1,0,37254.9,0.737858,0.737583,4.27425,56,0.773214,10,0.00315262,-2.36914,0.0933572,0.631982,0.735702,
2,1,0,0,0,37255.7,0.733863,0.733581,3.88829,56,0.776466,10,0.00285237,-2.41024,0.0914405,0.645229,0.73187,
2,1,0,1,0,37256.5,0.729868,0.729557,3.52389,56,0.779418,10,0.00257088,-2.45298,0.0859028,0.686823,0.728006,
2,1,0,1,0,37257.3,0.725872,0.725599,3.17161,56,0.78208,10,0.00230132,-2.49872,0.0851518,0.69288,0.724203,
2,1,0,1,0,37258.1,0.721877,0.721583,2.8593,56,0.784481,10,0.00206322,-2.54374,0.0835925,0.705805,0.720325,
2,1,0,1,0,37258.9,0.717882,0.717617,2.56409,56,0.786639,10,0.00184004,-2.59107,0.0814465,0.724402,0.716489,
2,1,0,0,0,37259.7,0.713887,0.713591,2.29223,56,0.788571,10,0.00163571,-2.63974,0.0769928,0.766306,0.712583,
2,1,0,1,0,37260.5,0.709892,0.709558,2.0368,56,0.790291,10,0.00144523,-2.69105,0.0752541,0.78401,0.708662,
2,1,0,0,0,37261.3,0.705897,0.705661,1.80183,56,0.791817,10,0.00127148,-2.74429,0.0713963,0.826374,0.704869,
2,1,0,1,0,37262.1,0.701901,0.701612,1.58601,56,0.793163,10,0.00111276,-2.79969,0.0701042,0.841604,0.700914,
2,1,0,1,0,37262.9,0.697906,0.697627,1.38886,56,0.794343,10,0.000968909,-2.85734,0.0657988,0.896673,0.697016,
2,1,0,1,0,37263.7,0.693911,0.693615,1.2075,56,0.795372,10,0.000837538,-2.91811,0.0623988,0.945531,0.693083,
2,1,0,1,0,37264.5,0.689916,0.689644,1.04362,56,0.796263,10,0.000719726,-2.98146,0.0604552,0.975929,0.689185,
2,1,0,0,0,37265.3,0.685921,0.685678,0.895557,56,0.79703,10,0.000614064,-3.04791,0.0580322,1.01668,0.685284,
2,1,0,1,0,37266.1,0.681926,0.681621,0.76208,56,0.797684,10,0.00051945,-3.118,0.0548432,1.07579,0.681286,
2,1,0,1,0,37266.9,0.67793,0.677635,0.642876,56,0.798237,10,0.000435635,-3.19187,0.0513501,1.14898,0.677352,
2,1,0,1,0,37267.7,0.673935,0.673659,0.538293,56,0.7987,10,0.000362626,-3.26898,0.0496165,1.18912,0.673423,
2,1,0,1,0,37268.5,0.66994,0.669633,0.445464,56,0.799085,10,0.000298297,-3.35119,0.0585796,1.00718,0.669437,
2,1,0,0,0,37269.3,0.665945,0.665667,0.371024,56,0.799405,10,0.000246978,-3.4306,0.0406523,1.45133,0.665504,
2,1,0,1,0,37270.1,0.66195,0.661656,0.298911,56,0.799665,10,0.000197776,-3.52446,0.0402286,1.46662,0.661524,
2,1,0,0,0,37270.9,0.657955,0.657699,0.23664,56,0.79987,10,0.000155638,-3.62591,0.0375486,1.5713,0.657595,
2,1,0,1,0,37271.7,0.653959,0.653726,0.182589,56,0.80003,10,0.000119363,-3.73853,0.0336632,1.75266,0.653646,
2,1,0,1,0,37272.5,0.649964,0.649672,0.137206,56,0.80015,10,8.91391e-05,-3.86263,0.029303,2.01344,0.649612,
2,1,0,1,0,37273.3,0.64597,0.645725,0.0974157,56,0.800236,10,6.29037e-05,-4.01137,0.024855,2.37376,0.645682,
2,1,0,1,0,37274.1,0.641974,0.641704,0.0641633,56,0.800293,10,4.11739e-05,-4.19271,0.0185042,3.18846,0.641676,
2,1,0,0,0,37274.9,0.637979,0.637715,0.0358673,56,0.800325,10,2.28731e-05,-4.4453,0.0121547,4.8541,0.637699,
2,1,0,1,0,37275.7,0.633983,0.633687,0.0114095,56,0.800337,10,7.23002e-06,-4.94274,0.00366234,16.1099,0.633682,
2,0,0,1,0,37276.5,0.629988,0.629706,-0.00770518,56,0.800331,10,-4.852e-06,-5.11322,-0.0045039,-13.0998,0.62971,
2,0,0,1,0,37277.3,0.625993,0.625692,-0.0238462,56,0.800311,10,-1.49204e-05,-4.62258,-0.0145284,-4.06101,0.625703,
2,0,0,1,0,37278.1,0.621998,0.621718,-0.0372852,56,0.80028,10,-2.31809e-05,-4.42846,-0.0263679,-2.23757,0.621734,
2,0,0,0,0,37278.9,0.618003,0.617718,-0.0484467,56,0.800238,10,-2.99264e-05,-4.31474,-0.0419733,-1.40566,0.617739,
2,0,0,1,0,37279.7,0.614008,0.613727,-0.05813,56,0.800187,10,-3.5676e-05,-4.2356,-0.0610842,-0.96588,0.613753,
2,0,0,1,0,37280.5,0.610012,0.609743,-0.0666832,56,0.80013,10,-4.06596e-05,-4.17598,-0.0854975,-0.690079,0.609773,
2,0,0,1,0,37281.3,0.606017,0.605746,-0.0727514,56,0.800066,10,-4.40688e-05,-4.13816,-0.0992666,-0.594359,0.605778,
2,0,0,1,0,37282.1,0.602022,0.601696,-0.079129,56,0.799997,10,-4.76116e-05,-4.10166,-0.150445,-0.39217,0.60173,
2,0,0,0,0,37282.9,0.598027,0.597733,-0.0842588,56,0.799924,10,-5.03643e-05,-4.07438,-0.138317,-0.426556,0.59777,
2,0,0,1,0,37283.7,0.594032,0.593746,-0.0894502,56,0.799847,10,-5.31107e-05,-4.04842,-0.216137,-0.272975,0.593786,
2,0,0,0,0,37284.5,0.590037,0.58974,-0.0933576,56,0.799767,10,-5.50567e-05,-4.02985,-0.235354,-0.250686,0.589781,
2,0,0,1,0,37285.3,0.586041,0.58573,-0.095668,56,0.799684,10,-5.60357e-05,-4.01923,-0.348391,-0.16935,0.585773,
2,0,0,1,0,37286.1,0.582046,0.58175,-0.0992366,56,0.799598,10,-5.77309e-05,-4.00333,-0.29737,-0.198406,0.581794,
2,0,0,1,0,37286.9,0.578052,0.577779,-0.101014,56,0.799511,10,-5.83638e-05,-3.99562,-0.456987,-0.129107,0.577823,
2,0,0,1,0,37287.6,0.574056,0.573763,-0.102462,56,0.799421,10,-5.87891e-05,-3.98944,-0.411883,-0.143245,0.573808,
2,0,0,0,0,37288.4,0.570061,0.569731,-0.10517,56,0.79933,10,-5.99186e-05,-3.97811,-1.28583,-0.0458848,0.569777,
2,0,0,1,0,37289.2,0.566065,0.565785,-0.106944,56,0.799237,10,-6.05072e-05,-3.97084,-0.377111,-0.156453,0.565832,
2,0,0,1,0,37290,0.56207,0.561789,-0.108476,56,0.799144,10,-6.09406e-05,-3.96467,-0.554088,-0.106481,0.561836,
2,0,0,1,0,37290.8,0.558075,0.557721,-0.10989,56,0.799049,10,-6.12879e-05,-3.95904,-1.24577,-0.0473604,0.557769,
2,0,0,1,0,37291.6,0.55408,0.553809,-0.110756,56,0.798953,10,-6.13378e-05,-3.95563,-0.638957,-0.092338,0.553857,
2,0,0,0,0,37292.4,0.550085,0.549794,-0.112171,56,0.798856,10,-6.16708e-05,-3.95012,13.8411,0.00426266,0.549844,
2,0,0,1,0,37293.2,0.54609,0.545783,-0.112952,56,0.798758,10,-6.16475e-05,-3.9471,-0.642657,-0.0918063,0.545833,
2,0,0,1,0,37294,0.542094,0.541781,-0.113219,56,0.79866,10,-6.13401e-05,-3.94608,-2.31991,-0.0254321,0.54183,
2,0,0,1,0,37294.8,0.538099,0.537782,-0.114631,56,0.79856,10,-6.16463e-05,-3.9407,-1.06014,-0.055653,0.537832,
2,0,0,1,0,37295.6,0.534104,0.53382,-0.115832,56,0.79846,10,-6.18334e-05,-3.93617,-0.537082,-0.109853,0.533871,
2,0,0,0,0,37296.4,0.530109,0.529802,-0.116928,56,0.798359,10,-6.19484e-05,-3.93208,-3.0143,-0.0195734,0.529853,
2,0,0,1,0,37297.2,0.526114,0.525823,-0.118362,56,0.798258,10,-6.22373e-05,-3.92679,-0.667218,-0.0884269,0.525875,
2,0,0,0,0,37298,0.522119,0.521836,-0.118559,56,0.798155,10,-6.18683e-05,-3.92607,-3.77812,-0.0156163,0.521888,
2,0,0,1,0,37298.8,0.518123,0.517847,-0.119188,56,0.798052,10,-6.17211e-05,-3.92377,-1.16516,-0.050637,0.5179,
2,0,0,1,0,37299.6,0.514128,0.513798,-0.120201,56,0.797948,10,-6.17588e-05,-3.92009,-1.14134,-0.0516937,0.513851,
2,0,0,1,0,37300.4,0.510133,0.509844,-0.121341,56,0.797843,10,-6.1865e-05,-3.91599,-0.926594,-0.0636741,0.509897,
2,0,0,1,0,37301.2,0.506138,0.505816,-0.122456,56,0.797737,10,-6.19403e-05,-3.91202,-0.914618,-0.0645078,0.50587,
2,0,0,0,0,37302,0.502143,0.501822,-0.124202,56,0.79763,10,-6.23274e-05,-3.90587,-0.885887,-0.0665999,0.501876,
2,0,0,1,0,37302.8,0.498148,0.497833,-0.124479,56,0.797523,10,-6.19697e-05,-3.9049,-1.98582,-0.0297106,0.497888,
2,0,0,1,0,37303.6,0.494152,0.493832,-0.126773,56,0.797414,10,-6.26047e-05,-3.89697,-0.775941,-0.0760367,0.493888,
2,0,0,1,0,37304.4,0.490157,0.489859,-0.12787,56,0.797305,10,-6.26382e-05,-3.89323,-0.85263,-0.0691976,0.489916,
2,0,0,1,0,37305.2,0.486162,0.485889,-0.128945,56,0.797194,10,-6.26528e-05,-3.8896,-3.16454,-0.0186441,0.485946,
2,0,0,0,0,37306,0.482167,0.481851,-0.129918,56,0.797083,10,-6.2601e-05,-3.88633,-0.937775,-0.0629149,0.481908,
2,0,0,1,0,37306.8,0.478172,0.477872,-0.129784,56,0.796971,10,-6.202e-05,-3.88678,-0.640246,-0.092152,0.477929,
2,0,0,0,0,37307.6,0.474177,0.473878,-0.131835,56,0.796858,10,-6.24738e-05,-3.87997,-311.018,-0.0001897,0.473936,
2,0,0,1,0,37308.4,0.470181,0.469851,-0.132904,56,0.796743,10,-6.24451e-05,-3.87646,-0.697403,-0.0845995,0.46991,
2,0,0,1,0,37309.2,0.466186,0.465888,-0.134555,56,0.796628,10,-6.26876e-05,-3.8711,-0.646898,-0.0912044,0.465947,
2,0,0,1,0,37310,0.462191,0.461906,-0.136736,56,0.796511,10,-6.31591e-05,-3.86412,-1.11196,-0.0530597,0.461966,
2,0,0,1,0,37310.8,0.458196,0.457903,-0.137097,56,0.796394,10,-6.27769e-05,-3.86297,-0.92508,-0.0637783,0.457963,
2,0,0,0,0,37311.6,0.454201,0.453896,-0.137491,56,0.796275,10,-6.24066e-05,-3.86173,-0.697815,-0.0845496,0.453956,
2,0,0,1,0,37312.4,0.450205,0.449946,-0.140037,56,0.796155,10,-6.3009e-05,-3.85376,-1.33878,-0.0440701,0.450008,
2,0,0,1,0,37313.2,0.44621,0.445914,-0.14138,56,0.796034,10,-6.30435e-05,-3.84961,-0.591283,-0.099783,0.445976,
2,0,0,1,0,37314,0.442215,0.441915,-0.143315,56,0.795911,10,-6.3333e-05,-3.84371,-2.54641,-0.0231698,0.441978,
2,0,0,1,0,37314.8,0.43822,0.437913,-0.145224,56,0.795787,10,-6.35953e-05,-3.83796,-0.416969,-0.141497,0.437977,
2,0,0,0,0,37315.6,0.434225,0.433929,-0.147491,56,0.795661,10,-6.40006e-05,-3.83123,-1.58681,-0.0371815,0.433994,
2,0,0,1,0,37316.4,0.43023,0.429927,-0.148227,56,0.795535,10,-6.37269e-05,-3.82907,-0.770571,-0.0765666,0.429992,
2,0,0,1,0,37317.2,0.426234,0.425966,-0.150209,56,0.795406,10,-6.39838e-05,-3.8233,-0.637795,-0.0925063,0.426032,
2,0,0,1,0,37318,0.422239,0.421963,-0.151842,56,0.795277,10,-6.40716e-05,-3.81861,-0.662528,-0.0890529,0.422029,
2,0,0,1,0,37318.8,0.418244,0.417957,-0.154017,56,0.795146,10,-6.43725e-05,-3.81243,-0.630902,-0.093517,0.418025,
2,0,0,0,0,37319.6,0.414249,0.413984,-0.155063,56,0.795013,10,-6.41936e-05,-3.80949,-1.17559,-0.0501875,0.414052,
2,0,0,1,0,37320.4,0.410254,0.409955,-0.157927,56,0.794878,10,-6.47429e-05,-3.80154,-1.46916,-0.0401589,0.410025,
2,0,0,0,0,37321.2,0.406259,0.405964,-0.160405,56,0.794742,10,-6.51187e-05,-3.79478,-0.512686,-0.11508,0.406035,
2,0,0,1,0,37322,0.402263,0.401987,-0.16174,56,0.794605,10,-6.50174e-05,-3.79118,-1.08157,-0.0545502,0.402058,
2,0,0,1,0,37322.8,0.398268,0.397995,-0.164071,56,0.794466,10,-6.52997e-05,-3.78497,-0.621987,-0.0948572,0.398068,
2,0,0,1,0,37323.6,0.394274,0.393952,-0.165354,56,0.794325,10,-6.51414e-05,-3.78159,-0.982347,-0.0600603,0.394025,
2,0,0,1,0,37324.4,0.390278,0.389982,-0.167332,56,0.794182,10,-6.52563e-05,-3.77642,-0.680081,-0.0867544,0.390055,
2,0,0,0,0,37325.2,0.386283,0.385934,-0.169232,56,0.794038,10,-6.53126e-05,-3.77152,-0.560435,-0.105275,0.386009,
2,0,0,1,0,37326,0.382287,0.382012,-0.171298,56,0.793892,10,-6.54381e-05,-3.76625,-0.864257,-0.0682667,0.382088,
2,0,0,1,0,37326.8,0.378292,0.378002,-0.173576,56,0.793745,10,-6.5612e-05,-3.76051,-2.38045,-0.0247852,0.378079,
2,0,0,1,0,37327.6,0.374297,0.373988,-0.175316,56,0.793596,10,-6.55661e-05,-3.75618,-0.475959,-0.12396,0.374065,
2,0,0,1,0,37328.4,0.370303,0.369954,-0.178396,56,0.793445,10,-6.59983e-05,-3.74862,-1.0247,-0.0575781,0.370033,
2,0,0,0,0,37329.2,0.366307,0.365988,-0.179927,56,0.793292,10,-6.58511e-05,-3.7449,-0.586398,-0.100614,0.366067,
2,0,0,1,0,37330,0.362312,0.362013,-0.182599,56,0.793137,10,-6.61034e-05,-3.7385,-0.563447,-0.104713,0.362094,
2,0,0,1,0,37330.8,0.358316,0.358037,-0.184729,56,0.79298,10,-6.61398e-05,-3.73346,-1.47872,-0.0398994,0.358118,
2,0,0,1,0,37331.6,0.354321,0.35402,-0.18656,56,0.792822,10,-6.6046e-05,-3.72918,-0.695089,-0.0848812,0.354102,
2,0,0,1,0,37332.4,0.350327,0.350017,-0.187931,56,0.792662,10,-6.57791e-05,-3.726,-0.773499,-0.0762767,0.3501,
2,0,0,0,0,37333.2,0.346331,0.346035,-0.19195,56,0.792499,10,-6.64214e-05,-3.71681,-1.42361,-0.0414438,0.34612,
2,0,0,1,0,37334,0.342336,0.342043,-0.193659,56,0.792336,10,-6.62398e-05,-3.71296,-0.522587,-0.1129,0.342128,
2,0,0,0,0,37334.8,0.338341,0.33802,-0.197125,56,0.79217,10,-6.6632e-05,-3.70526,-0.773258,-0.0763006,0.338106,
2,0,0,1,0,37335.6,0.334345,0.334065,-0.198236,56,0.792002,10,-6.62238e-05,-3.70282,-0.667574,-0.0883797,0.334152,
2,0,0,1,0,37336.4,0.33035,0.330032,-0.199702,56,0.791832,10,-6.59079e-05,-3.69962,-0.863224,-0.0683484,0.330119,
2,0,0,1,0,37337.2,0.326355,0.326028,-0.203187,56,0.79166,10,-6.62445e-05,-3.6921,-1.3503,-0.0436941,0.326117,
2,0,0,1,0,37338,0.32236,0.322029,-0.205922,56,0.791487,10,-6.63128e-05,-3.6863,-0.645517,-0.0913996,0.322119,
2,0,0,0,0,37338.8,0.318365,0.318072,-0.207243,56,0.791311,10,-6.59182e-05,-3.68352,-0.71036,-0.0830565,0.318164,
2,0,0,1,0,37339.6,0.31437,0.314054,-0.210203,56,0.791134,10,-6.60152e-05,-3.67736,-1.60704,-0.0367135,0.314147,
2,0,0,1,0,37340.4,0.310374,0.310042,-0.212037,56,0.790955,10,-6.57403e-05,-3.67359,-0.576172,-0.1024,0.310135,
2,0,0,1,0,37341.2,0.306379,0.306075,-0.215417,56,0.790773,10,-6.59339e-05,-3.66672,-0.849628,-0.0694421,0.30617,
2,0,0,1,0,37342,0.302385,0.302097,-0.216757,56,0.79059,10,-6.54816e-05,-3.66403,-0.758503,-0.0777848,0.302192,
2,0,0,0,0,37342.8,0.298389,0.29808,-0.219984,56,0.790405,10,-6.55729e-05,-3.65761,-0.88774,-0.0664609,0.298177,
2,0,0,1,0,37343.6,0.294394,0.294076,-0.223164,56,0.790217,10,-6.56273e-05,-3.65138,-0.733751,-0.0804088,0.294175,
2,0,0,1,0,37344.4,0.290398,0.290126,-0.22579,56,0.790028,10,-6.55075e-05,-3.6463,-1.02047,-0.0578165,0.290225,
2,0,0,1,0,37345.2,0.286403,0.286066,-0.227284,56,0.789836,10,-6.50183e-05,-3.64343,-0.625397,-0.0943401,0.286166,
2,0,0,1,0,37346,0.282408,0.282091,-0.230887,56,0.789642,10,-6.51313e-05,-3.6366,-2.9745,-0.0198353,0.282192,
2,0,0,1,0,37346.8,0.278414,0.278122,-0.232113,56,0.789447,10,-6.45556e-05,-3.6343,-0.547529,-0.107757,0.278224,
2,0,0,1,0,37347.6,0.274418,0.274114,-0.235265,56,0.789249,10,-6.44894e-05,-3.62844,-0.667186,-0.0884311,0.274218,
2,0,0,0,0,37348.4,0.270423,0.270141,-0.238717,56,0.789049,10,-6.44873e-05,-3.62212,-0.959142,-0.0615133,0.270246,
2,0,0,1,0,37349.2,0.266427,0.266108,-0.240991,56,0.788847,10,-6.41295e-05,-3.618,-0.930776,-0.063388,0.266214,
2,0,0,1,0,37350,0.262432,0.262118,-0.24299,56,0.788643,10,-6.36921e-05,-3.61441,-0.883443,-0.0667841,0.262225,
2,0,0,1,0,37350.8,0.258437,0.258117,-0.245823,56,0.788437,10,-6.34511e-05,-3.60938,-0.861771,-0.0684637,0.258225,
2,0,0,1,0,37351.6,0.254442,0.254123,-0.247139,56,0.788228,10,-6.28038e-05,-3.60706,-1.38146,-0.0427084,0.254232,
2,0,0,0,0,37352.4,0.250447,0.250123,-0.250596,56,0.788018,10,-6.26797e-05,-3.60103,-0.821906,-0.0717843,0.250233,
2,0,0,1,0,37353.2,0.246452,0.246178,-0.253795,56,0.787806,10,-6.24787e-05,-3.59552,-0.723973,-0.0814947,0.246289,
2,0,0,1,0,37354,0.242456,0.242133,-0.255908,56,0.787592,10,-6.19639e-05,-3.59192,-1.06971,-0.0551553,0.242246,
2,0,0,1,0,37354.8,0.238461,0.238154,-0.25799,56,0.787376,10,-6.14412e-05,-3.5884,-1.10486,-0.0534002,0.238267,
2,0,0,1,0,37355.6,0.234467,0.234121,-0.259796,56,0.787159,10,-6.08238e-05,-3.58537,-0.814216,-0.0724623,0.234236,
2,0,0,0,0,37356.4,0.230471,0.230183,-0.262782,56,0.786939,10,-6.04879e-05,-3.5804,-1.14969,-0.0513183,0.230298,
2,0,0,1,0,37357.2,0.226476,0.226155,-0.265328,56,0.786717,10,-6.00052e-05,-3.57622,-0.921252,-0.0640432,0.226272,
2,0,0,0,0,37358,0.222481,0.222174,-0.266393,56,0.786493,10,-5.91857e-05,-3.57448,-1.06854,-0.0552155,0.222292,
2,0,0,1,0,37358.8,0.218485,0.218137,-0.270254,56,0.786267,10,-5.89524e-05,-3.56823,-1.13133,-0.0521509,0.218256,
2,0,0,1,0,37359.6,0.21449,0.214191,-0.273206,56,0.786039,10,-5.85181e-05,-3.56351,-0.871593,-0.0676922,0.214311,
2,0,0,1,0,37360.4,0.210496,0.210176,-0.275538,56,0.785809,10,-5.79115e-05,-3.55982,-0.951755,-0.0619908,0.210298,
2,0,0,1,0,37361.2,0.2065,0.206216,-0.28008,56,0.785576,10,-5.77571e-05,-3.55272,-0.679745,-0.0867972,0.20634,
2,0,0,0,0,37362,0.202505,0.202173,-0.280953,56,0.785341,10,-5.68012e-05,-3.55137,-0.809191,-0.0729124,0.202297,
2,0,0,1,0,37362.8,0.198509,0.198182,-0.285695,56,0.785103,10,-5.66198e-05,-3.5441,-0.701434,-0.0841134,0.198308,
2,0,0,1,0,37363.6,0.194514,0.194228,-0.28903,56,0.784863,10,-5.61378e-05,-3.53906,-0.857509,-0.068804,0.194356,
2,0,0,1,0,37364.4,0.190519,0.190214,-0.291524,56,0.784619,10,-5.54519e-05,-3.53533,-0.58932,-0.100115,0.190342,
2,0,0,1,0,37365.2,0.186524,0.186199,-0.296827,56,0.784372,10,-5.5269e-05,-3.5275,-0.794635,-0.0742479,0.18633,
2,0,0,0,0,37366,0.182529,0.182208,-0.302223,56,0.784122,10,-5.50674e-05,-3.51967,-0.456286,-0.129305,0.182341,
2,0,0,1,0,37366.8,0.178534,0.178222,-0.307429,56,0.783867,10,-5.47906e-05,-3.51225,-0.564777,-0.104466,0.178357,
2,0,0,1,0,37367.6,0.174538,0.174186,-0.313588,56,0.783608,10,-5.46227e-05,-3.50364,-0.443745,-0.132959,0.174324,
2,0,0,1,0,37368.4,0.170543,0.170258,-0.320222,56,0.783343,10,-5.45203e-05,-3.49455,-0.342941,-0.172041,0.170399,
2,0,0,1,0,37369.2,0.166549,0.16621,-0.328203,56,0.783072,10,-5.45505e-05,-3.48386,-0.371749,-0.158709,0.166354,
2,0,0,0,0,37370,0.162553,0.162248,-0.33833,56,0.782794,10,-5.48933e-05,-3.47066,-0.266957,-0.22101,0.162397,
2,0,0,1,0,37370.7,0.158558,0.158219,-0.351118,56,0.782507,10,-5.55537e-05,-3.45455,-0.210498,-0.280287,0.158374,
2,0,0,0,0,37371.5,0.154563,0.1542,-0.368804,56,0.782207,10,-5.68697e-05,-3.4332,-0.204241,-0.288874,0.154363,
2,0,0,1,0,37372.3,0.150567,0.150218,-0.389935,56,0.781893,10,-5.85753e-05,-3.40901,-0.13441,-0.438954,0.15039,
2,0,0,1,0,37373.1,0.146572,0.14628,-0.418572,56,0.781559,10,-6.12289e-05,-3.37823,-0.118107,-0.499547,0.146465,
2,0,0,1,0,37373.9,0.142578,0.142268,-0.457611,56,0.781199,10,-6.51034e-05,-3.3395,-0.0964189,-0.611914,0.142469,
2,0,0,1,0,37374.7,0.138582,0.138256,-0.503825,56,0.780803,10,-6.96568e-05,-3.29772,-0.0936269,-0.630161,0.138478,
2,0,0,0,0,37375.5,0.134587,0.134256,-0.554493,56,0.780369,10,-7.4444e-05,-3.2561,-0.0972205,-0.606868,0.1345,
2,0,0,1,0,37376.3,0.130591,0.130267,-0.605674,56,0.779892,10,-7.88991e-05,-3.21776,-0.113608,-0.51933,0.130533,
2,0,0,1,0,37377.1,0.126596,0.126255,-0.646325,56,0.779378,10,-8.16019e-05,-3.18955,-0.167023,-0.353245,0.12654,
2,0,0,1,0,37377.9,0.122602,0.122254,-0.678877,56,0.778835,10,-8.29952e-05,-3.16821,-0.263194,-0.224169,0.122552,
2,0,0,1,0,37378.7,0.118607,0.118293,-0.695934,56,0.778272,10,-8.23244e-05,-3.15743,-0.41115,-0.1435,0.1186,
2,0,0,0,0,37379.5,0.114611,0.114277,-0.706622,56,0.777698,10,-8.07507e-05,-3.15081,-2.23003,-0.026457,0.114588,
2,0,0,1,0,37380.3,0.110616,0.110298,-0.707,56,0.777121,10,-7.7981e-05,-3.15058,4.27501,0.0138011,0.110609,
2,0,0,1,0,37381.1,0.10662,0.106332,-0.703287,56,0.776544,10,-7.4782e-05,-3.15287,2.74927,0.0214602,0.106642,
2,0,0,1,0,37381.9,0.102625,0.102291,-0.699617,56,0.775971,10,-7.15647e-05,-3.15514,0.789414,0.074739,0.102599,
2,0,0,1,0,37382.7,0.0986305,0.098282,-0.69079,56,0.775403,10,-6.78922e-05,-3.16065,0.941014,0.0626983,0.0985859,
2,0,0,0,0,37383.5,0.0946351,0.0943223,-0.68163,56,0.77484,10,-6.42929e-05,-3.16645,0.653404,0.0902963,0.0946222,
2,0,0,1,0,37384.3,0.0906399,0.0903246,-0.675293,56,0.774285,10,-6.09956e-05,-3.17051,0.56789,0.103893,0.0906217,
2,0,0,0,0,37385.1,0.0866448,0.08633,-0.665378,56,0.773738,10,-5.74421e-05,-3.17693,0.855166,0.0689925,0.0866228,
2,0,0,1,0,37385.9,0.0826492,0.0823371,-0.656199,56,0.773198,10,-5.40295e-05,-3.18296,0.651095,0.0906166,0.0826258,
2,0,0,1,0,37386.7,0.0786544,0.0783219,-0.647543,56,0.772666,10,-5.07168e-05,-3.18873,0.693784,0.0850409,0.0786068,
2,0,0,1,0,37387.5,0.0746596,0.0743731,-0.637974,56,0.772142,10,-4.74481e-05,-3.1952,0.625346,0.0943478,0.0746538,
2,0,0,1,0,37388.3,0.0706641,0.0703126,-0.62898,56,0.771623,10,-4.42252e-05,-3.20136,0.592105,0.0996445,0.0705893,
2,0,0,0,0,37389.1,0.0666689,0.0663838,-0.620719,56,0.771112,10,-4.12057e-05,-3.2071,0.761242,0.0775049,0.0666569,
2,0,0,1,0,37389.9,0.0626737,0.0623267,-0.609636,56,0.770608,10,-3.79966e-05,-3.21493,0.696428,0.084718,0.0625949,
2,0,0,1,0,37390.7,0.0586783,0.0583691,-0.604099,56,0.77011,10,-3.52607e-05,-3.21889,0.496141,0.118918,0.0586349,
2,0,0,1,0,37391.5,0.0546835,0.0543876,-0.593602,56,0.76962,10,-3.22846e-05,-3.2265,0.830125,0.0710736,0.0546488,
2,0,0,1,0,37392.3,0.0506886,0.0503338,-0.583653,56,0.769137,10,-2.93775e-05,-3.23385,0.474865,0.124246,0.0505906,
2,0,0,0,0,37393.1,0.046693,0.0463474,-0.573815,56,0.768662,10,-2.65948e-05,-3.24123,0.59795,0.0986704,0.0465999,
2,0,0,1,0,37393.9,0.0426979,0.0424016,-0.563531,56,0.768196,10,-2.38946e-05,-3.24908,0.50875,0.115971,0.0426496,
2,0,0,1,0,37394.7,0.0387022,0.0383536,-0.554808,56,0.767737,10,-2.12789e-05,-3.25586,0.42401,0.139148,0.0385977,
2,0,0,1,0,37395.5,0.0347074,0.0343721,-0.543788,56,0.767287,10,-1.86911e-05,-3.26457,0.521579,0.113118,0.0346113,
2,0,0,1,0,37396.3,0.0307126,0.030361,-0.532194,56,0.766844,10,-1.6158e-05,-3.27393,0.560175,0.105324,0.0305952,
2,0,0,0,0,37397.1,0.0267172,0.0263948,-0.525017,56,0.76641,10,-1.38577e-05,-3.27983,0.511297,0.115393,0.0266258,
2,0,0,1,0,37397.9,0.022722,0.0223928,-0.516332,56,0.765982,10,-1.15621e-05,-3.28707,0.716051,0.0823963,0.02262,
2,0,0,0,0,37398.7,0.0187268,0.0183813,-0.510151,56,0.765561,10,-9.37725e-06,-3.2923,0.79038,0.0746476,0.0186058,
2,0,0,1,0,37399.5,0.0147313,0.0144024,-0.506357,56,0.765144,10,-7.29274e-06,-3.29554,1.15579,0.0510474,0.0146252,
2,0,0,1,0,37400.3,0.0107365,0.0104145,-0.501245,56,0.764731,10,-5.22022e-06,-3.29995,1.5492,0.0380841,0.010635,
2,0,0,1,0,37401.1,0.00674163,0.00640438,-0.498868,56,0.764319,10,-3.19494e-06,-3.30201,6.32626,0.00932621,0.00662388,
2,0,0,1,0,37401.9,0.00274612,0.00237341,-0.499118,56,0.763909,10,-1.18461e-06,-3.3018,-2.25973,-0.0261093,0.00259302,
2,0,0,0,0,37402.4,0.000274105,-0.000120135,-0.501361,56,0.763652,10,6.0231e-08,-3.29985, , ,0.000100464,