File: Figure_codes/Fig_3-5/workspace_calculate_alpha_eff/20221101_1-115_003_TrumpetPlot_ParaChange_from10_every3_16_CV_C01_11.csv
mode,ox/red,error,control changes,counter inc.,time/s,control/V,Ewe/V,<I>/mA,cycle number,(Q-Qo)/C,I Range,P/W,log(|I|),Tafel slope mV/dec,alpha_eff,E-IR/V,
2,0,0,0,0,7880.51,2.44065e-05,-0.0002108,-0.109571,12,0.0000000E+000,10,2.30974e-08,-3.96031, , ,-0.000162589,
2,1,0,0,0,7881.27,0.00379485,0.00351759,0.154065,12,0.000106263,10,5.41936e-07,-3.8123,0.0424883,1.38862,0.0034498,
2,1,0,1,0,7882.06,0.00779002,0.00745064,0.176651,12,0.000253694,10,1.31616e-06,-3.75288,0.0776677,0.759647,0.00737291,
2,1,0,0,0,7882.86,0.0117852,0.0114558,0.191864,12,0.000416496,10,2.19795e-06,-3.71701,0.116763,0.505298,0.0113714,
2,1,0,1,0,7883.66,0.0157806,0.0155206,0.207717,12,0.000591295,10,3.22389e-06,-3.68253,0.134509,0.438633,0.0154292,
2,1,0,1,0,7884.46,0.0197754,0.0194935,0.221297,12,0.000776823,10,4.31384e-06,-3.65503,0.158842,0.371438,0.0193961,
2,1,0,1,0,7885.26,0.0237704,0.0234803,0.23478,12,0.000973286,10,5.51272e-06,-3.62934,0.158253,0.372822,0.023377,
2,1,0,1,0,7886.06,0.0277659,0.0274584,0.248317,12,0.00118044,10,6.81837e-06,-3.60499,0.150893,0.391006,0.0273491,
2,1,0,0,0,7886.86,0.0317611,0.0314285,0.262019,12,0.00139944,10,8.23489e-06,-3.58167,0.178456,0.330613,0.0313133,
2,1,0,1,0,7887.66,0.0357567,0.0354098,0.276367,12,0.00163015,10,9.78609e-06,-3.55851,0.185642,0.317816,0.0352882,
2,1,0,1,0,7888.46,0.0397516,0.0394157,0.294447,12,0.00187265,10,1.16059e-05,-3.53099,0.151917,0.38837,0.0392861,
2,1,0,1,0,7889.26,0.0437465,0.0434237,0.306891,12,0.00212753,10,1.33263e-05,-3.51302,0.200323,0.294525,0.0432887,
2,1,0,1,0,7890.05,0.0477413,0.0474371,0.322752,12,0.0023937,10,1.53104e-05,-3.49113,0.208093,0.283527,0.0472951,
2,1,0,0,0,7890.85,0.0517369,0.0514416,0.336071,12,0.0026715,10,1.7288e-05,-3.47357,0.203648,0.289716,0.0512937,
2,1,0,1,0,7891.65,0.0557321,0.0554118,0.35044,12,0.00296091,10,1.94185e-05,-3.45539,0.289646,0.203697,0.0552576,
2,1,0,1,0,7892.45,0.0597277,0.0594258,0.363482,12,0.00326034,10,2.16002e-05,-3.43952,0.250316,0.235702,0.0592659,
2,1,0,1,0,7893.25,0.0637226,0.063383,0.375893,12,0.00357045,10,2.38253e-05,-3.42494,0.247719,0.238173,0.0632176,
2,1,0,1,0,7894.05,0.0677174,0.0674524,0.389311,12,0.00389128,10,2.626e-05,-3.4097,0.443508,0.13303,0.0672811,
2,1,0,0,0,7894.85,0.0717128,0.0713571,0.400425,12,0.00422092,10,2.85732e-05,-3.39748,0.238827,0.247041,0.0711809,
2,1,0,1,0,7895.65,0.075708,0.0754015,0.408598,12,0.00455956,10,3.08089e-05,-3.3887,0.393375,0.149984,0.0752217,
2,1,0,0,0,7896.45,0.0797031,0.0793865,0.421139,12,0.00490641,10,3.34328e-05,-3.37557,0.378022,0.156075,0.0792012,
2,1,0,1,0,7897.25,0.0836986,0.0834217,0.432446,12,0.00526177,10,3.60754e-05,-3.36407,0.297668,0.198207,0.0832314,
2,1,0,1,0,7898.04,0.0876935,0.0873851,0.445185,12,0.00562682,10,3.89025e-05,-3.35146,0.327325,0.180249,0.0871892,
2,1,0,1,0,7898.84,0.0916883,0.091376,0.460902,12,0.00600243,10,4.21154e-05,-3.33639,0.235807,0.250204,0.0911732,
2,1,0,1,0,7899.64,0.0956838,0.0953615,0.478088,12,0.00639263,10,4.55912e-05,-3.32049,0.204486,0.288529,0.0951512,
2,1,0,0,0,7900.44,0.099679,0.0994006,0.501952,12,0.00679989,10,4.98943e-05,-3.29934,0.228669,0.258015,0.0991798,
2,1,0,1,0,7901.24,0.103674,0.103358,0.528969,12,0.00722648,10,5.46732e-05,-3.27657,0.161875,0.36448,0.103125,
2,1,0,1,0,7902.04,0.10767,0.107373,0.553209,12,0.0076744,10,5.93997e-05,-3.25711,0.214778,0.274703,0.10713,
2,1,0,1,0,7902.84,0.111664,0.111357,0.577005,12,0.00814136,10,6.42534e-05,-3.23882,0.230848,0.255579,0.111103,
2,1,0,1,0,7903.64,0.115659,0.115372,0.596371,12,0.0086257,10,6.88045e-05,-3.22448,0.254211,0.232091,0.11511,
2,1,0,0,0,7904.44,0.119655,0.119324,0.617203,12,0.00912677,10,7.36469e-05,-3.20957,0.363416,0.162348,0.119052,
2,1,0,1,0,7905.24,0.12365,0.123352,0.635391,12,0.00964204,10,7.83767e-05,-3.19696,0.296209,0.199183,0.123072,
2,1,0,1,0,7906.04,0.127646,0.127335,0.653469,12,0.0101731,10,8.32097e-05,-3.18477,0.337671,0.174726,0.127048,
2,1,0,1,0,7906.83,0.131641,0.131336,0.667004,12,0.0107181,10,8.76015e-05,-3.17587,1.33931,0.0440527,0.131042,
2,1,0,1,0,7907.63,0.135635,0.135317,0.668797,12,0.0112682,10,9.04998e-05,-3.17471,-1.04342,-0.0565446,0.135023,
2,1,0,0,0,7908.43,0.139631,0.139306,0.642553,12,0.0118103,10,8.95114e-05,-3.19209,-0.152269,-0.387473,0.139023,
2,1,0,1,0,7909.23,0.143626,0.143342,0.595786,12,0.0123226,10,8.5401e-05,-3.22491,-0.0941837,-0.626435,0.14308,
2,1,0,0,0,7910.03,0.147621,0.147308,0.530668,12,0.0127877,10,7.81714e-05,-3.27518,-0.0730059,-0.808154,0.147074,
2,1,0,1,0,7910.83,0.151617,0.15132,0.462742,12,0.0131995,10,7.00223e-05,-3.33466,-0.0691038,-0.853788,0.151117,
2,1,0,1,0,7911.63,0.155612,0.155287,0.411424,12,0.0135622,10,6.3889e-05,-3.38571,-0.0810588,-0.727866,0.155106,
2,1,0,1,0,7912.43,0.159606,0.159305,0.369831,12,0.0138879,10,5.8916e-05,-3.432,-0.106527,-0.553852,0.159142,
2,1,0,1,0,7913.23,0.163602,0.163285,0.342806,12,0.0141866,10,5.5975e-05,-3.46495,-0.122198,-0.482824,0.163134,
2,1,0,0,0,7914.03,0.167597,0.167259,0.321896,12,0.0144654,10,5.38401e-05,-3.49228,-0.175672,-0.335853,0.167118,
2,1,0,1,0,7914.82,0.171592,0.171256,0.304568,12,0.0147301,10,5.2159e-05,-3.51632,-0.217137,-0.271717,0.171122,
2,1,0,1,0,7915.62,0.175588,0.1753,0.293508,12,0.0149837,10,5.14519e-05,-3.53238,-0.271532,-0.217285,0.17517,
2,1,0,1,0,7916.42,0.179582,0.179336,0.28553,12,0.0152291,10,5.12058e-05,-3.54435,-0.310634,-0.189934,0.17921,
2,1,0,1,0,7917.22,0.183577,0.183271,0.277482,12,0.0154682,10,5.08544e-05,-3.55676,-0.381412,-0.154688,0.183149,
2,1,0,0,0,7918.02,0.187573,0.187321,0.270685,12,0.0157017,10,5.0705e-05,-3.56754,-0.466712,-0.126416,0.187202,
2,1,0,1,0,7918.82,0.191568,0.191304,0.265687,12,0.0159307,10,5.08269e-05,-3.57563,-0.511588,-0.115327,0.191187,
2,1,0,0,0,7919.62,0.195563,0.195244,0.262901,12,0.0161564,10,5.13299e-05,-3.58021,-0.437996,-0.134704,0.195129,
2,1,0,1,0,7920.42,0.199559,0.19924,0.258891,12,0.0163788,10,5.15816e-05,-3.58688,-1.21257,-0.0486569,0.199126,
2,1,0,1,0,7921.22,0.203553,0.203228,0.254664,12,0.0165987,10,5.17549e-05,-3.59403,-0.57416,-0.102759,0.203116,
2,1,0,1,0,7922.02,0.207548,0.207258,0.252668,12,0.0168162,10,5.23675e-05,-3.59745,-1.23238,-0.0478747,0.207147,
2,1,0,1,0,7922.82,0.211544,0.211245,0.249826,12,0.0170312,10,5.27744e-05,-3.60236,-0.87097,-0.0677406,0.211135,
2,1,0,0,0,7923.61,0.215539,0.215257,0.247426,12,0.0172446,10,5.32603e-05,-3.60655,-1.10443,-0.0534213,0.215149,
2,1,0,1,0,7924.41,0.219535,0.219236,0.246488,12,0.0174562,10,5.4039e-05,-3.6082,-1.05007,-0.0561869,0.219128,
2,1,0,1,0,7925.21,0.223529,0.223264,0.243518,12,0.0176662,10,5.43688e-05,-3.61347,-1.84066,-0.0320537,0.223156,
2,1,0,1,0,7926.01,0.227524,0.227259,0.241939,12,0.0178746,10,5.49827e-05,-3.61629,-0.917494,-0.0643056,0.227152,
2,1,0,1,0,7926.81,0.23152,0.231192,0.239757,12,0.0180815,10,5.54299e-05,-3.62023,-2.18041,-0.0270591,0.231087,
2,1,0,0,0,7927.61,0.235515,0.235209,0.238714,12,0.0182873,10,5.61478e-05,-3.62212,-0.858728,-0.0687063,0.235104,
2,1,0,1,0,7928.41,0.23951,0.239159,0.237186,12,0.0184921,10,5.67252e-05,-3.62491,-4.11456,-0.0143393,0.239055,
2,1,0,1,0,7929.21,0.243506,0.243202,0.236748,12,0.0186956,10,5.75776e-05,-3.62571,-13.8259,-0.00426736,0.243098,
2,1,0,1,0,7930.01,0.2475,0.247188,0.235768,12,0.0188986,10,5.82789e-05,-3.62752,-1.31716,-0.0447934,0.247084,
2,1,0,1,0,7930.81,0.251495,0.251186,0.234228,12,0.0191004,10,5.88348e-05,-3.63036,-1.81157,-0.0325684,0.251083,
2,1,0,0,0,7931.6,0.255491,0.255196,0.233991,12,0.0193014,10,5.97135e-05,-3.6308,-2.10172,-0.0280722,0.255093,
2,1,0,1,0,7932.4,0.259486,0.259212,0.231661,12,0.0195021,10,6.00493e-05,-3.63515,-1.90501,-0.0309709,0.25911,
2,1,0,0,0,7933.2,0.263481,0.263189,0.232042,12,0.0197016,10,6.1071e-05,-3.63443,-4.53125,-0.0130207,0.263087,
2,1,0,1,0,7934,0.267477,0.267168,0.229794,12,0.0199005,10,6.13935e-05,-3.63866,33.7878,0.00174619,0.267067,
2,1,0,1,0,7934.8,0.271471,0.271173,0.230396,12,0.0200989,10,6.24772e-05,-3.63752,65.2402,0.00090435,0.271071,
2,1,0,1,0,7935.6,0.275466,0.275176,0.230123,12,0.0202966,10,6.33245e-05,-3.63804,-0.790791,-0.0746088,0.275075,
2,1,0,1,0,7936.4,0.279462,0.27918,0.229339,12,0.0204938,10,6.40267e-05,-3.63952,4.27141,0.0138128,0.279079,
2,1,0,0,0,7937.2,0.283457,0.283171,0.228215,12,0.02069,10,6.4624e-05,-3.64166,-0.861568,-0.0684798,0.283071,
2,1,0,1,0,7938,0.287452,0.287166,0.226712,12,0.0208853,10,6.51038e-05,-3.64453,-2.36774,-0.0249183,0.287066,
2,1,0,1,0,7938.8,0.291448,0.291164,0.225175,12,0.0210799,10,6.55627e-05,-3.64748,-1.56953,-0.0375909,0.291065,
2,1,0,1,0,7939.59,0.295442,0.295181,0.225257,12,0.0212735,10,6.64916e-05,-3.64732,5.70942,0.0103338,0.295082,
2,1,0,1,0,7940.39,0.299437,0.299119,0.221968,12,0.0214666,10,6.63949e-05,-3.65371,-1.9931,-0.0296022,0.299022,
2,1,0,0,0,7941.19,0.303433,0.303131,0.222123,12,0.0216588,10,6.73324e-05,-3.65341,-4.34664,-0.0135737,0.303033,
2,1,0,1,0,7941.99,0.307428,0.307106,0.222289,12,0.0218501,10,6.82663e-05,-3.65308,-2.25787,-0.0261308,0.307008,
2,1,0,1,0,7942.79,0.311424,0.31113,0.22228,12,0.0220411,10,6.9158e-05,-3.6531,-1.41628,-0.0416584,0.311033,
2,1,0,1,0,7943.59,0.315418,0.315128,0.221498,12,0.0222312,10,6.98002e-05,-3.65463,41.08,0.00143622,0.31503,
2,1,0,1,0,7944.39,0.319413,0.319127,0.220644,12,0.022421,10,7.04134e-05,-3.65631,-1.58538,-0.0372149,0.31903,
2,1,0,0,0,7945.19,0.323409,0.323099,0.219694,12,0.0226106,10,7.09828e-05,-3.65818,-0.942636,-0.0625904,0.323002,
2,1,0,1,0,7945.99,0.327404,0.327094,0.218631,12,0.0227993,10,7.15129e-05,-3.66029,1.33501,0.0441945,0.326998,
2,1,0,0,0,7946.79,0.331399,0.331113,0.217938,12,0.0229877,10,7.21621e-05,-3.66167,-1.19367,-0.0494274,0.331017,
2,1,0,1,0,7947.59,0.335395,0.335086,0.218676,12,0.0231755,10,7.32751e-05,-3.6602,-2.27528,-0.0259309,0.33499,
2,1,0,1,0,7948.38,0.339389,0.339099,0.216829,12,0.0233628,10,7.35265e-05,-3.66388,-2.19325,-0.0269008,0.339004,
2,1,0,1,0,7949.18,0.343384,0.343065,0.215922,12,0.0235497,10,7.40754e-05,-3.6657,1.19695,0.049292,0.34297,
2,1,0,1,0,7949.98,0.34738,0.347085,0.21717,12,0.023736,10,7.53765e-05,-3.6632,-2.09527,-0.0281586,0.34699,
2,1,0,0,0,7950.78,0.351375,0.351032,0.215845,12,0.0239221,10,7.57685e-05,-3.66586,-9.45775,-0.00623827,0.350937,
2,1,0,1,0,7951.58,0.35537,0.355101,0.215275,12,0.0241078,10,7.64444e-05,-3.66701,-1.48049,-0.0398517,0.355006,
2,1,0,1,0,7952.38,0.359366,0.359101,0.214058,12,0.0242928,10,7.68684e-05,-3.66947,-6.15153,-0.00959112,0.359007,
2,1,0,1,0,7953.18,0.36336,0.363063,0.213991,12,0.0244776,10,7.76923e-05,-3.6696,-4.16194,-0.0141761,0.362969,
2,1,0,1,0,7953.98,0.367355,0.367076,0.214391,12,0.0246617,10,7.8698e-05,-3.66879,1.8557,0.031794,0.366982,
2,1,0,0,0,7954.78,0.371351,0.371018,0.212859,12,0.0248456,10,7.89747e-05,-3.67191,21.7657,0.00271069,0.370925,
2,1,0,1,0,7955.58,0.375346,0.375062,0.213017,12,0.0250291,10,7.98945e-05,-3.67159,-0.795142,-0.0742006,0.374968,
2,1,0,1,0,7956.37,0.379342,0.379024,0.212728,12,0.0252122,10,8.06291e-05,-3.67217,-2.68565,-0.0219686,0.37893,
2,1,0,1,0,7957.17,0.383336,0.383083,0.21179,12,0.0253948,10,8.11333e-05,-3.67409,-6.97764,-0.00845558,0.38299,
2,1,0,1,0,7957.97,0.387331,0.387077,0.212028,12,0.0255774,10,8.20714e-05,-3.67361,-1.67412,-0.0352424,0.386984,
2,1,0,0,0,7958.77,0.391327,0.391046,0.211589,12,0.0257595,10,8.2741e-05,-3.67451,0.939336,0.0628103,0.390953,
2,1,0,1,0,7959.57,0.395322,0.395025,0.210243,12,0.0259415,10,8.30513e-05,-3.67728,-1.65141,-0.0357271,0.394932,
2,1,0,0,0,7960.37,0.399317,0.399039,0.211525,12,0.0261233,10,8.44068e-05,-3.67464,-2.26483,-0.0260505,0.398946,
2,1,0,1,0,7961.17,0.403313,0.403007,0.210743,12,0.0263047,10,8.49307e-05,-3.67625,-7.77271,-0.00759066,0.402914,
2,1,0,1,0,7961.97,0.407307,0.407036,0.211537,12,0.026486,10,8.61031e-05,-3.67461,5.0187,0.011756,0.406943,
2,1,0,1,0,7962.77,0.411302,0.411005,0.212304,12,0.0266672,10,8.72579e-05,-3.67304,8.56529,0.00688827,0.410912,
2,1,0,1,0,7963.57,0.415298,0.415044,0.210601,12,0.0268485,10,8.74087e-05,-3.67654,12.0721,0.0048873,0.414952,
2,1,0,0,0,7964.36,0.419293,0.419012,0.210917,12,0.0270296,10,8.8377e-05,-3.67589,-1.91616,-0.0307907,0.41892,
2,1,0,1,0,7965.16,0.423288,0.423006,0.210053,12,0.0272105,10,8.88538e-05,-3.67767,26.7749,0.00220355,0.422913,
2,1,0,1,0,7965.96,0.427283,0.427018,0.20945,12,0.0273918,10,8.94389e-05,-3.67892,-4.9735,-0.0118629,0.426925,
2,1,0,1,0,7966.76,0.431278,0.431025,0.211142,12,0.0275727,10,9.10074e-05,-3.67543,2.67265,0.0220754,0.430932,
2,1,0,1,0,7967.56,0.435273,0.434976,0.21027,12,0.0277534,10,9.14625e-05,-3.67722,4.30458,0.0137063,0.434884,
2,1,0,0,0,7968.36,0.439269,0.438953,0.210604,12,0.0279344,10,9.24452e-05,-3.67653,-5.6742,-0.0103979,0.438861,
2,1,0,1,0,7969.16,0.443264,0.442998,0.211072,12,0.0281155,10,9.35044e-05,-3.67557,5.26972,0.011196,0.442905,
2,1,0,0,0,7969.96,0.447259,0.446991,0.21114,12,0.0282969,10,9.43775e-05,-3.67543,142.564,0.000413849,0.446898,
2,1,0,1,0,7970.76,0.451254,0.450963,0.211598,12,0.0284784,10,9.54228e-05,-3.67449,-1.75273,-0.0336617,0.45087,
2,1,0,1,0,7971.56,0.455249,0.454963,0.2117,12,0.02866,10,9.63159e-05,-3.67428,0.893783,0.0660116,0.45487,
2,1,0,1,0,7972.36,0.459244,0.458983,0.211316,12,0.0288416,10,9.69905e-05,-3.67507,5.81341,0.0101489,0.45889,
2,1,0,1,0,7973.15,0.46324,0.462966,0.212619,12,0.0290236,10,9.84356e-05,-3.6724,6.7831,0.00869809,0.462873,
2,1,0,0,0,7973.95,0.467235,0.466904,0.212351,12,0.0292055,10,9.91476e-05,-3.67294,8.13038,0.00725674,0.46681,
2,1,0,1,0,7974.75,0.471231,0.470953,0.213797,12,0.0293881,10,0.000100688,-3.67,-10.7264,-0.00550045,0.470859,
2,1,0,1,0,7975.55,0.475225,0.474962,0.215064,12,0.029571,10,0.000102147,-3.66743,1.90832,0.0309173,0.474867,
2,1,0,1,0,7976.35,0.47922,0.478984,0.214442,12,0.0297543,10,0.000102714,-3.66869,1.41882,0.0415838,0.478889,
2,1,0,1,0,7977.15,0.483216,0.482916,0.215487,12,0.0299381,10,0.000104062,-3.66658,-5.88199,-0.0100306,0.482821,
2,1,0,0,0,7977.95,0.487211,0.486901,0.216549,12,0.0301223,10,0.000105438,-3.66444,1.91499,0.0308095,0.486805,
2,1,0,1,0,7978.75,0.491206,0.490946,0.215368,12,0.0303072,10,0.000105734,-3.66682,1.21911,0.0483959,0.490851,
2,1,0,1,0,7979.55,0.495201,0.49493,0.217526,12,0.0304928,10,0.00010766,-3.66249,2.07117,0.0284863,0.494835,
2,1,0,1,0,7980.35,0.499196,0.498932,0.218451,12,0.030679,10,0.000108992,-3.66065,1.44396,0.0408599,0.498836,
2,1,0,1,0,7981.14,0.503191,0.5029,0.219534,12,0.0308665,10,0.000110403,-3.6585,1.60207,0.0368274,0.502803,
2,1,0,0,0,7981.94,0.507187,0.506883,0.221132,12,0.0310545,10,0.000112088,-3.65535,-3.68999,-0.0159892,0.506786,
2,1,0,1,0,7982.74,0.511182,0.51089,0.222175,12,0.0312434,10,0.000113507,-3.65331,0.603457,0.0977701,0.510793,
2,1,0,0,0,7983.54,0.515177,0.514917,0.223924,12,0.0314337,10,0.000115302,-3.6499,11.3159,0.0052139,0.514818,
2,1,0,1,0,7984.34,0.519173,0.51891,0.224795,12,0.0316249,10,0.000116648,-3.64821,0.963754,0.061219,0.518811,
2,1,0,1,0,7985.14,0.523167,0.522871,0.226022,12,0.0318173,10,0.00011818,-3.64585,1.62983,0.0362001,0.522771,
2,1,0,1,0,7985.94,0.527162,0.526881,0.228243,12,0.0320109,10,0.000120257,-3.6416,1.23959,0.0475965,0.526781,
2,1,0,1,0,7986.74,0.531158,0.530862,0.229663,12,0.0322058,10,0.000121919,-3.63891,1.1434,0.0516007,0.530761,
2,1,0,0,0,7987.54,0.535153,0.534848,0.231443,12,0.0324024,10,0.000123787,-3.63556,1.5535,0.0379788,0.534746,
2,1,0,1,0,7988.34,0.539148,0.538846,0.234126,12,0.0326003,10,0.000126158,-3.63055,0.681598,0.0865613,0.538743,
2,1,0,1,0,7989.13,0.543143,0.542834,0.23561,12,0.0328002,10,0.000127897,-3.62781,1.11068,0.0531205,0.54273,
2,1,0,1,0,7989.93,0.547138,0.546819,0.238282,12,0.033002,10,0.000130297,-3.62291,0.760889,0.0775409,0.546714,
2,1,0,1,0,7990.73,0.551133,0.550841,0.242104,12,0.033206,10,0.000133361,-3.616,0.803117,0.0734637,0.550734,
2,1,0,0,0,7991.53,0.555129,0.554855,0.244321,12,0.0334126,10,0.000135563,-3.61204,0.587542,0.100418,0.554747,
2,1,0,1,0,7992.33,0.559124,0.558812,0.248452,12,0.0336217,10,0.000138838,-3.60476,0.684309,0.0862184,0.558703,
2,1,0,1,0,7993.13,0.56312,0.562843,0.252163,12,0.0338336,10,0.000141928,-3.59832,0.482273,0.122337,0.562732,
2,1,0,1,0,7993.93,0.567114,0.566849,0.256625,12,0.0340491,10,0.000145467,-3.5907,0.657035,0.0897974,0.566736,
2,1,0,1,0,7994.73,0.571109,0.570892,0.261752,12,0.034268,10,0.000149432,-3.58211,0.433079,0.136234,0.570777,
2,1,0,0,0,7995.53,0.575105,0.574798,0.267283,12,0.0344911,10,0.000153634,-3.57303,0.384276,0.153535,0.57468,
2,1,0,1,0,7996.33,0.5791,0.578843,0.272639,12,0.0347192,10,0.000157815,-3.56441,0.418817,0.140873,0.578723,
2,1,0,0,0,7997.13,0.583095,0.582777,0.280636,12,0.0349519,10,0.000163549,-3.55186,0.327102,0.180372,0.582654,
2,1,0,1,0,7997.92,0.58709,0.586851,0.287652,12,0.0351906,10,0.000168809,-3.54113,0.313012,0.188491,0.586724,
2,1,0,1,0,7998.72,0.591085,0.590823,0.295733,12,0.0354358,10,0.000174726,-3.5291,0.311215,0.189579,0.590693,
2,1,0,1,0,7999.52,0.59508,0.594835,0.306704,12,0.0356884,10,0.000182438,-3.51328,0.29649,0.198995,0.5947,
2,1,0,1,0,8000.32,0.599076,0.598756,0.317757,12,0.0359498,10,0.000190259,-3.4979,0.209618,0.281465,0.598616,
2,1,0,0,0,8001.12,0.603071,0.602802,0.331917,12,0.0362206,10,0.00020008,-3.47897,0.231434,0.254933,0.602656,
2,1,0,1,0,8001.92,0.607066,0.60677,0.346133,12,0.0365025,10,0.000210023,-3.46076,0.182943,0.322505,0.606618,
2,1,0,1,0,8002.72,0.611061,0.610752,0.364212,12,0.0367975,10,0.000222443,-3.43865,0.190936,0.309004,0.610592,
2,1,0,1,0,8003.52,0.615056,0.614791,0.383867,12,0.0371077,10,0.000235998,-3.41582,0.157689,0.374155,0.614622,
2,1,0,1,0,8004.32,0.619051,0.6188,0.407118,12,0.0374362,10,0.000251925,-3.39028,0.142182,0.41496,0.618621,
2,1,0,0,0,8005.12,0.623047,0.622792,0.436268,12,0.0377852,10,0.000271704,-3.36025,0.139244,0.423718,0.6226,
2,1,0,1,0,8005.91,0.627042,0.62673,0.468874,12,0.0381581,10,0.000293857,-3.32894,0.114462,0.515454,0.626524,
2,1,0,1,0,8006.71,0.631037,0.630768,0.509877,12,0.0385602,10,0.000321615,-3.29253,0.109647,0.538089,0.630544,
2,1,0,1,0,8007.51,0.635032,0.634801,0.553499,12,0.0389957,10,0.000351362,-3.25688,0.105877,0.55725,0.634558,
2,1,0,1,0,8008.31,0.639027,0.638743,0.606425,12,0.0394705,10,0.00038735,-3.21722,0.0920653,0.64085,0.638476,
2,1,0,1,0,8009.11,0.643022,0.642724,0.672397,12,0.0399931,10,0.000432166,-3.17237,0.089104,0.662148,0.642428,
2,1,0,1,0,8009.91,0.647018,0.646714,0.746727,12,0.0405713,10,0.000482919,-3.12684,0.0815533,0.723454,0.646385,
2,1,0,0,0,8010.71,0.651013,0.650773,0.837474,12,0.041216,10,0.000545005,-3.07703,0.0782172,0.75431,0.650404,
2,1,0,1,0,8011.51,0.655008,0.65478,0.943734,12,0.0419391,10,0.000617938,-3.02515,0.0747794,0.788987,0.654365,
2,1,0,1,0,8012.31,0.659003,0.658761,1.06737,12,0.0427533,10,0.00070314,-2.97169,0.072623,0.812414,0.658291,
2,1,0,1,0,8013.11,0.662998,0.662731,1.21403,12,0.0436752,10,0.000804574,-2.91577,0.0689532,0.855653,0.662197,
2,1,0,1,0,8013.91,0.666994,0.666733,1.38377,12,0.0447233,10,0.000922603,-2.85894,0.0681813,0.86534,0.666124,
2,1,0,0,0,8014.7,0.670989,0.670742,1.57961,12,0.045918,10,0.00105951,-2.80145,0.0675245,0.873756,0.670047,
2,1,0,1,0,8015.5,0.674984,0.67476,1.80725,12,0.0472819,10,0.00121946,-2.74298,0.0670297,0.880207,0.673965,
2,1,0,1,0,8016.3,0.67898,0.678665,2.06682,12,0.0488402,10,0.00140268,-2.6847,0.0656939,0.898105,0.677756,
2,1,0,1,0,8017.1,0.682974,0.682718,2.36149,12,0.0506201,10,0.00161223,-2.62681,0.0673343,0.876225,0.681679,
2,1,0,1,0,8017.9,0.686969,0.686703,2.69297,12,0.0526498,10,0.00184927,-2.56977,0.0680636,0.866837,0.685518,
2,1,0,0,0,8018.7,0.690965,0.690702,3.06247,12,0.0549604,10,0.00211525,-2.51393,0.0688371,0.857097,0.689355,
2,1,0,1,0,8019.5,0.69496,0.694726,3.47515,12,0.0575831,10,0.00241428,-2.45903,0.0708568,0.832665,0.693196,
2,1,0,0,0,8020.3,0.698955,0.698686,3.92635,12,0.0605505,10,0.00274329,-2.40601,0.072904,0.809284,0.696959,
2,1,0,1,0,8021.1,0.70295,0.70268,4.41816,12,0.0638956,10,0.00310455,-2.35476,0.0746536,0.790317,0.700736,
2,1,0,1,0,8021.9,0.706945,0.706668,4.95215,12,0.0676496,10,0.00349953,-2.30521,0.0779503,0.756893,0.704489,
2,1,0,1,0,8022.69,0.71094,0.71068,5.52207,12,0.071845,10,0.00392442,-2.2579,0.0803215,0.734548,0.70825,
2,1,0,1,0,8023.49,0.714936,0.714682,6.12912,12,0.0765108,10,0.00438037,-2.2126,0.0842027,0.70069,0.711986,
2,1,0,0,0,8024.29,0.718931,0.718653,6.77596,12,0.081677,10,0.00486956,-2.16903,0.0880178,0.670319,0.715671,
2,1,0,1,0,8025.09,0.722927,0.722682,7.44611,12,0.0873699,10,0.00538117,-2.12807,0.091056,0.647953,0.719406,
2,1,0,1,0,8025.89,0.726921,0.726679,8.16042,12,0.0936156,10,0.00593001,-2.08829,0.0944758,0.624498,0.723088,
2,1,0,1,0,8026.69,0.730916,0.730638,8.90367,12,0.100443,10,0.00650536,-2.05043,0.0980502,0.601733,0.72672,
2,1,0,1,0,8027.49,0.734911,0.734629,9.67984,12,0.107879,10,0.00711109,-2.01413,0.102853,0.573634,0.73037,
2,1,0,0,0,8028.29,0.738907,0.738667,10.4878,12,0.115948,10,0.007747,-1.97932,0.106577,0.553589,0.734052,
2,1,0,1,0,8029.09,0.742902,0.74264,11.329,12,0.124675,10,0.00841335,-1.94581,0.109951,0.536601,0.737655,
2,1,0,1,0,8029.89,0.746897,0.746654,12.2106,12,0.134092,10,0.00911708,-1.91326,0.111493,0.529183,0.741281,
2,1,0,1,0,8030.68,0.750892,0.750635,13.13,12,0.144225,10,0.00985584,-1.88174,0.115254,0.511911,0.744857,
2,1,0,1,0,8031.48,0.754887,0.754615,14.0779,12,0.155114,10,0.0106234,-1.85146,0.120239,0.490688,0.748421,
2,1,0,0,0,8032.28,0.758883,0.758599,15.0984,12,0.166778,10,0.0114536,-1.82107,0.11686,0.504878,0.751956,
2,1,0,1,0,8033.08,0.762878,0.762588,16.1661,12,0.179278,10,0.0123281,-1.7914,0.120422,0.489943,0.755475,
2,1,0,0,0,8033.88,0.766873,0.766596,17.2915,12,0.192656,10,0.0132556,-1.76217,0.115813,0.509442,0.758987,
2,1,0,1,0,8034.68,0.770868,0.770573,18.523,12,0.206979,10,0.0142733,-1.73229,0.117978,0.500092,0.762423,
2,1,0,1,0,8035.48,0.774863,0.774596,19.7952,12,0.222299,10,0.0153333,-1.70344,0.119196,0.494984,0.765886,
2,1,0,1,0,8036.28,0.778858,0.778621,21.1504,12,0.238669,10,0.0164681,-1.67468,0.117396,0.502574,0.769315,
2,1,0,1,0,8037.08,0.782854,0.78259,22.5726,12,0.256146,10,0.0176651,-1.64642,0.107913,0.546738,0.772658,
2,1,0,0,0,8037.88,0.786849,0.786542,24.1695,12,0.274843,10,0.0190103,-1.61673,0.127387,0.463155,0.775907,
2,1,0,1,0,8038.68,0.790844,0.790606,25.6755,12,0.294769,10,0.0202992,-1.59048,0.152819,0.386077,0.779309,
2,1,0,1,0,8039.47,0.794839,0.794533,27.0119,12,0.315776,10,0.0214619,-1.56844,0.129173,0.456751,0.782648,
2,1,0,1,0,8040.27,0.798834,0.79862,28.6162,12,0.338013,10,0.0228534,-1.54339,0.131489,0.448708,0.786029,
2,1,0,1,0,8041.07,0.802829,0.802541,30.2595,12,0.361556,10,0.0242845,-1.51914,0.140111,0.421095,0.789227,
2,1,0,0,0,8041.87,0.806825,0.806556,31.8808,12,0.386404,10,0.0257136,-1.49647,0.152573,0.386701,0.792528,
2,1,0,1,0,8042.67,0.81082,0.810536,33.5105,12,0.412536,10,0.0271615,-1.47482,0.155711,0.378908,0.795791,
2,1,0,1,0,8043.47,0.814815,0.814519,35.0902,12,0.43996,10,0.0285817,-1.45481,0.177259,0.332847,0.799079,
2,1,0,1,0,8044.27,0.81881,0.818524,36.6506,12,0.468605,10,0.0299994,-1.43592,0.160474,0.36766,0.802397,
2,1,0,1,0,8045.07,0.822805,0.822585,38.3461,12,0.498594,10,0.0315429,-1.41628,0.176792,0.333726,0.805713,
2,1,0,0,0,8045.87,0.826801,0.826568,39.9353,12,0.529901,10,0.0330093,-1.39864,0.184904,0.319084,0.808997,
2,1,0,1,0,8046.67,0.830796,0.83054,41.3962,12,0.562442,10,0.0343812,-1.38304,0.240265,0.245562,0.812326,
2,1,0,0,0,8047.46,0.834791,0.834557,42.9226,12,0.596125,10,0.0358214,-1.36731,0.205966,0.286456,0.815671,
2,1,0,1,0,8048.26,0.838786,0.838546,44.4458,12,0.631068,10,0.0372698,-1.35217,0.229676,0.256884,0.81899,
2,1,0,1,0,8049.06,0.842781,0.84257,45.9445,12,0.667213,10,0.0387115,-1.33777,0.237411,0.248514,0.822355,
2,1,0,1,0,8049.86,0.846776,0.84655,47.2893,12,0.70452,10,0.0400327,-1.32524,0.258969,0.227827,0.825743,
2,1,0,0,0,8050.56,0.849723,0.84953,47.8584,12,0.73803,10,0.0406571,-1.32004,0.023727,2.48662,0.828472,
2,1,0,1,0,8051.36,0.845728,0.845468,45.524,12,0.775263,10,0.0384891,-1.34176,0.167893,0.351413,0.825437,
2,1,0,0,0,8052.16,0.841732,0.84151,43.698,12,0.810881,10,0.0367723,-1.35954,0.169851,0.347364,0.822283,
2,1,0,1,0,8052.96,0.837737,0.837537,41.8918,12,0.845042,10,0.0350859,-1.37787,0.179741,0.328249,0.819104,
2,1,0,1,0,8053.76,0.833742,0.833498,40.128,12,0.877785,10,0.0334466,-1.39655,0.169084,0.34894,0.815842,
2,1,0,1,0,8054.56,0.829747,0.829519,38.3443,12,0.909122,10,0.0318073,-1.4163,0.160482,0.367643,0.812648,
2,1,0,1,0,8055.36,0.825752,0.825498,36.651,12,0.939061,10,0.0302553,-1.43591,0.165688,0.356092,0.809372,
2,1,0,0,0,8056.15,0.821757,0.821491,34.9642,12,0.967657,10,0.0287228,-1.45638,0.152043,0.388048,0.806106,
2,1,0,1,0,8056.95,0.817761,0.817521,33.2018,12,0.994889,10,0.0271432,-1.47884,0.142451,0.414177,0.802912,
2,1,0,1,0,8057.75,0.813766,0.813509,31.5006,12,1.02071,10,0.025626,-1.50168,0.141984,0.415539,0.799649,
2,1,0,1,0,8058.55,0.809771,0.80953,29.8439,12,1.04521,10,0.0241595,-1.52514,0.131208,0.449666,0.796398,
2,1,0,1,0,8059.35,0.805776,0.805501,28.2104,12,1.06837,10,0.0227236,-1.54959,0.136206,0.433167,0.793089,
2,1,0,0,0,8060.15,0.801781,0.801514,26.6008,12,1.09026,10,0.0213209,-1.57511,0.127979,0.461012,0.78981,
2,1,0,1,0,8060.95,0.797786,0.797519,25.0723,12,1.11089,10,0.0199956,-1.60081,0.12621,0.467476,0.786487,
2,1,0,1,0,8061.75,0.79379,0.793501,23.6028,12,1.13031,10,0.0187288,-1.62704,0.124518,0.473826,0.783115,
2,1,0,1,0,8062.55,0.789795,0.789509,22.126,12,1.14856,10,0.0174687,-1.6551,0.0926461,0.636832,0.779773,
2,1,0,1,0,8063.35,0.7858,0.785545,20.6424,12,1.16557,10,0.0162155,-1.68524,0.143689,0.410608,0.776463,
2,1,0,0,0,8064.14,0.781805,0.781543,19.2795,12,1.1815,10,0.0150678,-1.7149,0.111923,0.527148,0.77306,
2,1,0,1,0,8064.94,0.77781,0.777524,17.9473,12,1.19636,10,0.0139545,-1.746,0.108958,0.541493,0.769627,
2,1,0,0,0,8065.74,0.773815,0.773523,16.696,12,1.21018,10,0.0129147,-1.77739,0.111867,0.52741,0.766177,
2,1,0,1,0,8066.54,0.769819,0.769574,15.519,12,1.22303,10,0.011943,-1.80914,0.108008,0.546256,0.762746,
2,1,0,1,0,8067.34,0.765824,0.76558,14.4078,12,1.23496,10,0.0110303,-1.8414,0.107232,0.55021,0.75924,
2,1,0,1,0,8068.14,0.761829,0.76152,13.3222,12,1.24603,10,0.0101451,-1.87542,0.0996171,0.592268,0.755658,
2,1,0,1,0,8068.94,0.757834,0.757578,12.2694,12,1.25624,10,0.00929504,-1.91118,0.0971686,0.607192,0.752179,
2,1,0,0,0,8069.74,0.753839,0.753574,11.2626,12,1.26562,10,0.00848721,-1.94836,0.09581,0.615802,0.748618,
2,1,0,1,0,8070.54,0.749844,0.749574,10.3186,12,1.27423,10,0.00773453,-1.98638,0.0930138,0.634315,0.745034,
2,1,0,1,0,8071.34,0.745848,0.745564,9.42381,12,1.2821,10,0.00702606,-2.02577,0.0907605,0.650063,0.741418,
2,1,0,1,0,8072.14,0.741853,0.741585,8.58177,12,1.28927,10,0.00636411,-2.06642,0.0867272,0.680294,0.737809,
2,1,0,1,0,8072.93,0.737858,0.73761,7.78897,12,1.2958,10,0.00574522,-2.10852,0.0860134,0.68594,0.734182,
2,1,0,0,0,8073.73,0.733863,0.733627,7.04745,12,1.30171,10,0.00517019,-2.15197,0.0821271,0.718398,0.730526,
2,1,0,1,0,8074.53,0.729868,0.729595,6.35064,12,1.30704,10,0.00463339,-2.19718,0.0821128,0.718524,0.726801,
2,1,0,1,0,8075.33,0.725872,0.725596,5.70607,12,1.31184,10,0.0041403,-2.24366,0.0787573,0.749137,0.723085,
2,1,0,1,0,8076.13,0.721877,0.721576,5.10856,12,1.31615,10,0.00368621,-2.2917,0.07642,0.772049,0.719328,
2,1,0,1,0,8076.93,0.717882,0.717603,4.55292,12,1.31999,10,0.00326719,-2.34171,0.0739194,0.798166,0.7156,
2,1,0,0,0,8077.73,0.713887,0.713611,4.04576,12,1.32341,10,0.0028871,-2.393,0.0710665,0.830209,0.711831,
2,1,0,1,0,8078.53,0.709892,0.709619,3.57389,12,1.32644,10,0.0025361,-2.44686,0.07686,0.76763,0.708046,
2,1,0,0,0,8079.33,0.705897,0.705632,3.17784,12,1.32913,10,0.00224238,-2.49787,0.0671604,0.878494,0.704234,
2,1,0,1,0,8080.13,0.701901,0.701611,2.78767,12,1.3315,10,0.00195586,-2.55476,0.06653,0.886818,0.700385,
2,1,0,1,0,8080.92,0.697906,0.697657,2.42834,12,1.33357,10,0.00169415,-2.61469,0.0626136,0.942287,0.696589,
2,1,0,1,0,8081.72,0.693911,0.693689,2.10426,12,1.33536,10,0.0014597,-2.6769,0.060142,0.981012,0.692763,
2,1,0,1,0,8082.52,0.689916,0.68965,1.81211,12,1.33691,10,0.00124972,-2.74182,0.0581949,1.01383,0.688853,
2,1,0,0,0,8083.32,0.685921,0.685628,1.55195,12,1.33824,10,0.00106406,-2.80912,0.0581011,1.01547,0.684945,
2,1,0,1,0,8084.12,0.681926,0.681622,1.32101,12,1.33938,10,0.000900427,-2.8791,0.0531446,1.11018,0.681041,
2,1,0,1,0,8084.92,0.67793,0.677665,1.11512,12,1.34034,10,0.000755676,-2.95268,0.0530721,1.11169,0.677175,
2,1,0,1,0,8085.72,0.673935,0.673672,0.93705,12,1.34114,10,0.000631265,-3.02824,0.0505805,1.16646,0.67326,
2,1,0,1,0,8086.52,0.66994,0.669686,0.780988,12,1.34182,10,0.000523017,-3.10736,0.0479392,1.23072,0.669343,
2,1,0,0,0,8087.32,0.665945,0.665652,0.643878,12,1.34237,10,0.000428599,-3.1912,0.0465255,1.26812,0.665369,
2,1,0,1,0,8088.12,0.66195,0.66172,0.527521,12,1.34283,10,0.000349072,-3.27776,0.0441229,1.33718,0.661488,
2,1,0,0,0,8088.91,0.657955,0.657653,0.426141,12,1.3432,10,0.000280253,-3.37045,0.0423805,1.39215,0.657465,
2,1,0,1,0,8089.71,0.653959,0.65373,0.340566,12,1.34349,10,0.000222638,-3.4678,0.0396867,1.48665,0.65358,
2,1,0,1,0,8090.51,0.649964,0.649725,0.269414,12,1.34372,10,0.000175045,-3.56958,0.0360598,1.63617,0.649607,
2,1,0,1,0,8091.31,0.64597,0.645673,0.207563,12,1.3439,10,0.000134018,-3.68285,0.0350301,1.68427,0.645582,
2,1,0,1,0,8092.11,0.641974,0.641693,0.15649,12,1.34403,10,0.000100418,-3.80551,0.0294051,2.00646,0.641624,
2,1,0,0,0,8092.91,0.637979,0.637688,0.112592,12,1.34413,10,7.17983e-05,-3.94849,0.026181,2.25355,0.637639,
2,1,0,1,0,8093.71,0.633983,0.633722,0.0764699,12,1.34419,10,4.84606e-05,-4.11651,0.0218979,2.69433,0.633688,
2,1,0,1,0,8094.51,0.629988,0.629773,0.0467156,12,1.34423,10,2.94203e-05,-4.33054,0.0144424,4.08519,0.629753,
2,1,0,1,0,8095.31,0.625993,0.625727,0.0209637,12,1.34424,10,1.31176e-05,-4.67853,0.00730616,8.07537,0.625718,
2,1,0,1,0,8096.11,0.621998,0.62175,-0.00136709,12,1.34424,10,-8.49992e-07,-5.8642,-0.0846529,-0.696963,0.621751,
2,0,0,0,0,8096.91,0.618003,0.617756,-0.0171648,12,1.34422,10,-1.06037e-05,-4.76536,-0.00945257,-6.24169,0.617764,
2,0,0,1,0,8097.7,0.614008,0.613737,-0.0330774,12,1.34419,10,-2.03008e-05,-4.48047,-0.0248889,-2.37053,0.613752,
2,0,0,1,0,8098.5,0.610012,0.609774,-0.0448951,12,1.34415,10,-2.73759e-05,-4.3478,-0.0371512,-1.58811,0.609794,
2,0,0,1,0,8099.3,0.606017,0.605753,-0.0544487,12,1.34409,10,-3.29824e-05,-4.26401,-0.0567213,-1.04017,0.605777,
2,0,0,1,0,8100.1,0.602022,0.601717,-0.0641683,12,1.34403,10,-3.86112e-05,-4.19268,-0.0878062,-0.671934,0.601746,
2,0,0,0,0,8100.9,0.598027,0.597699,-0.0705974,12,1.34397,10,-4.2196e-05,-4.15121,-0.0706065,-0.835617,0.597731,
2,0,0,1,0,8101.7,0.594032,0.59372,-0.0777351,12,1.3439,10,-4.61529e-05,-4.10938,-0.143363,-0.411541,0.593754,
2,0,0,0,0,8102.5,0.590037,0.589703,-0.0836066,12,1.34382,10,-4.93031e-05,-4.07776,-0.129629,-0.455144,0.58974,
2,0,0,1,0,8103.3,0.586041,0.585765,-0.0882444,12,1.34374,10,-5.16905e-05,-4.05431,-0.188996,-0.312176,0.585803,
2,0,0,1,0,8104.1,0.582046,0.581757,-0.0925241,12,1.34366,10,-5.38265e-05,-4.03375,-0.278672,-0.211719,0.581798,
2,0,0,1,0,8104.9,0.578052,0.577801,-0.0950062,12,1.34357,10,-5.48947e-05,-4.02225,-0.298243,-0.197825,0.577843,
2,0,0,1,0,8105.69,0.574056,0.573769,-0.0965908,12,1.34348,10,-5.54208e-05,-4.01506,-0.269126,-0.219228,0.573812,
2,0,0,0,0,8106.49,0.570061,0.569766,-0.100032,12,1.34339,10,-5.69946e-05,-3.99986,-1.81299,-0.0325429,0.56981,
2,0,0,1,0,8107.29,0.566065,0.565789,-0.101516,12,1.3433,10,-5.74364e-05,-3.99347,-0.262255,-0.224972,0.565834,
2,0,0,1,0,8108.09,0.56207,0.561796,-0.103788,12,1.3432,10,-5.83075e-05,-3.98385,-0.862519,-0.0684043,0.561842,
2,0,0,1,0,8108.89,0.558075,0.557783,-0.106394,12,1.34311,10,-5.9345e-05,-3.97308,-0.51104,-0.115451,0.55783,
2,0,0,1,0,8109.69,0.55408,0.553769,-0.107922,12,1.34301,10,-5.9764e-05,-3.96689,-0.400623,-0.147271,0.553817,
2,0,0,0,0,8110.49,0.550085,0.549798,-0.10887,12,1.34291,10,-5.98563e-05,-3.96309,-2.04932,-0.0287901,0.549846,
2,0,0,1,0,8111.29,0.54609,0.545772,-0.110925,12,1.34281,10,-6.05398e-05,-3.95497,-0.529051,-0.11152,0.545821,
2,0,0,1,0,8112.09,0.542094,0.541844,-0.111847,12,1.34271,10,-6.06034e-05,-3.95138,-1.47227,-0.0400742,0.541893,
2,0,0,1,0,8112.89,0.538099,0.537826,-0.112474,12,1.34261,10,-6.04915e-05,-3.94895,-1.01768,-0.0579752,0.537875,
2,0,0,1,0,8113.68,0.534104,0.533836,-0.114384,12,1.3425,10,-6.1062e-05,-3.94164,-1.84546,-0.0319703,0.533886,
2,0,0,0,0,8114.48,0.530109,0.529844,-0.114975,12,1.3424,10,-6.0919e-05,-3.9394,-0.552359,-0.106814,0.529895,
2,0,0,1,0,8115.28,0.526114,0.525775,-0.116529,12,1.3423,10,-6.12679e-05,-3.93357,-2.26722,-0.0260231,0.525826,
2,0,0,0,0,8116.08,0.522119,0.521841,-0.117272,12,1.34219,10,-6.11974e-05,-3.93081,-0.70613,-0.083554,0.521893,
2,0,0,1,0,8116.88,0.518123,0.517824,-0.118866,12,1.34208,10,-6.15519e-05,-3.92494,-0.717099,-0.0822759,0.517876,
2,0,0,1,0,8117.68,0.514128,0.513817,-0.118722,12,1.34198,10,-6.10013e-05,-3.92547,6.04412,0.00976155,0.513869,
2,0,0,1,0,8118.48,0.510133,0.509825,-0.119331,12,1.34187,10,-6.08379e-05,-3.92325,-0.728126,-0.0810299,0.509877,
2,0,0,1,0,8119.28,0.506138,0.505825,-0.121579,12,1.34176,10,-6.14975e-05,-3.91514,-0.91676,-0.0643571,0.505878,
2,0,0,0,0,8120.08,0.502143,0.501892,-0.122687,12,1.34165,10,-6.15757e-05,-3.9112,-0.767985,-0.0768245,0.501946,
2,0,0,1,0,8120.88,0.498148,0.497865,-0.123391,12,1.34154,10,-6.14321e-05,-3.90872,-2.5298,-0.023322,0.49792,
2,0,0,1,0,8121.68,0.494152,0.493851,-0.124753,12,1.34143,10,-6.16094e-05,-3.90395,-0.611238,-0.0965255,0.493906,
2,0,0,1,0,8122.47,0.490157,0.489909,-0.124841,12,1.34132,10,-6.11607e-05,-3.90364,-0.92495,-0.0637872,0.489964,
2,0,0,1,0,8123.27,0.486162,0.485873,-0.126666,12,1.3412,10,-6.15437e-05,-3.89734,-10.1469,-0.0058146,0.485929,
2,0,0,0,0,8124.07,0.482167,0.481875,-0.12763,12,1.34109,10,-6.15016e-05,-3.89405,-1.21763,-0.0484548,0.481932,
2,0,0,1,0,8124.87,0.478172,0.477857,-0.128937,12,1.34097,10,-6.16135e-05,-3.88962,-1.29296,-0.0456316,0.477913,
2,0,0,0,0,8125.67,0.474177,0.473861,-0.129173,12,1.34086,10,-6.12101e-05,-3.88883,1.07745,0.0547591,0.473918,
2,0,0,1,0,8126.47,0.470181,0.469909,-0.13106,12,1.34074,10,-6.15863e-05,-3.88253,-0.437412,-0.134884,0.469966,
2,0,0,1,0,8127.27,0.466186,0.465878,-0.131898,12,1.34062,10,-6.14486e-05,-3.87976,-0.439992,-0.134093,0.465936,
2,0,0,1,0,8128.07,0.462191,0.4619,-0.133161,12,1.3405,10,-6.15069e-05,-3.87562,-1.84654,-0.0319517,0.461959,
2,0,0,1,0,8128.87,0.458196,0.457946,-0.134751,12,1.34038,10,-6.17088e-05,-3.87047,-0.772023,-0.0764226,0.458006,
2,0,0,0,0,8129.67,0.454201,0.453962,-0.136318,12,1.34026,10,-6.18831e-05,-3.86545,-0.600404,-0.0982671,0.454022,
2,0,0,1,0,8130.46,0.450205,0.449933,-0.138715,12,1.34014,10,-6.24124e-05,-3.85788,-1.30991,-0.0450412,0.449994,
2,0,0,1,0,8131.26,0.44621,0.445971,-0.139071,12,1.34002,10,-6.20215e-05,-3.85676,-0.750569,-0.078607,0.446032,
2,0,0,1,0,8132.06,0.442215,0.441944,-0.141183,12,1.33989,10,-6.23948e-05,-3.85022,-11.3806,-0.00518425,0.442006,
2,0,0,1,0,8132.86,0.43822,0.437903,-0.142216,12,1.33976,10,-6.22766e-05,-3.84705,-0.338117,-0.174496,0.437965,
2,0,0,0,0,8133.66,0.434225,0.433921,-0.14396,12,1.33963,10,-6.24674e-05,-3.84176,-1.21323,-0.0486304,0.433984,
2,0,0,1,0,8134.46,0.43023,0.429925,-0.145601,12,1.33951,10,-6.25973e-05,-3.83684,-0.863932,-0.0682924,0.429989,
2,0,0,1,0,8135.26,0.426234,0.425931,-0.147337,12,1.33937,10,-6.27555e-05,-3.83169,-0.556519,-0.106016,0.425996,
2,0,0,1,0,8136.06,0.422239,0.421901,-0.149713,12,1.33924,10,-6.31642e-05,-3.82474,-0.800937,-0.0736637,0.421967,
2,0,0,1,0,8136.86,0.418244,0.417945,-0.151138,12,1.33911,10,-6.31675e-05,-3.82062,-1.91529,-0.0308047,0.418011,
2,0,0,0,0,8137.66,0.414249,0.413931,-0.152729,12,1.33897,10,-6.32194e-05,-3.81608,-0.506875,-0.116399,0.413998,
2,0,0,1,0,8138.46,0.410254,0.409957,-0.155159,12,1.33884,10,-6.36083e-05,-3.80922,1.70034,0.034699,0.410025,
2,0,0,0,0,8139.25,0.406259,0.405956,-0.157561,12,1.3387,10,-6.39628e-05,-3.80255,-0.306957,-0.19221,0.406025,
2,0,0,1,0,8140.05,0.402263,0.40198,-0.159152,12,1.33856,10,-6.39759e-05,-3.79819,-0.886421,-0.0665598,0.40205,
2,0,0,1,0,8140.85,0.398268,0.397972,-0.160712,12,1.33842,10,-6.39587e-05,-3.79395,-4.55543,-0.0129516,0.398042,
2,0,0,1,0,8141.65,0.394274,0.393972,-0.163395,12,1.33827,10,-6.4373e-05,-3.78676,-0.407015,-0.144958,0.394044,
2,0,0,1,0,8142.45,0.390278,0.389985,-0.164646,12,1.33813,10,-6.42095e-05,-3.78345,-1.56508,-0.0376977,0.390057,
2,0,0,0,0,8143.25,0.386283,0.386013,-0.167232,12,1.33798,10,-6.45535e-05,-3.77668,-0.575113,-0.102589,0.386086,
2,0,0,1,0,8144.05,0.382287,0.381986,-0.168902,12,1.33783,10,-6.45183e-05,-3.77236,-0.888533,-0.0664016,0.38206,
2,0,0,1,0,8144.85,0.378292,0.378015,-0.171123,12,1.33768,10,-6.46869e-05,-3.76669,-1.48799,-0.0396509,0.37809,
2,0,0,1,0,8145.65,0.374297,0.374017,-0.173472,12,1.33753,10,-6.48816e-05,-3.76077,-0.365542,-0.161404,0.374094,
2,0,0,1,0,8146.45,0.370303,0.370005,-0.175065,12,1.33738,10,-6.47748e-05,-3.7568,-1.24319,-0.0474584,0.370082,
2,0,0,0,0,8147.24,0.366307,0.366004,-0.177862,12,1.33722,10,-6.5098e-05,-3.74992,-0.717361,-0.0822459,0.366082,
2,0,0,1,0,8148.04,0.362312,0.362019,-0.180038,12,1.33706,10,-6.5177e-05,-3.74464,-0.492543,-0.119786,0.362098,
2,0,0,1,0,8148.84,0.358316,0.358012,-0.182074,12,1.33691,10,-6.51848e-05,-3.73975,-2.06814,-0.028528,0.358092,
2,0,0,1,0,8149.64,0.354321,0.35401,-0.18455,12,1.33674,10,-6.53326e-05,-3.73389,-0.852626,-0.069198,0.354091,
2,0,0,1,0,8150.44,0.350327,0.350027,-0.185832,12,1.33658,10,-6.50462e-05,-3.73088,-0.559502,-0.105451,0.350109,
2,0,0,0,0,8151.24,0.346331,0.346058,-0.187904,12,1.33642,10,-6.50256e-05,-3.72606,-1.68967,-0.0349182,0.34614,
2,0,0,1,0,8152.04,0.342336,0.342053,-0.19151,12,1.33625,10,-6.55066e-05,-3.71781,-0.447211,-0.131929,0.342138,
2,0,0,0,0,8152.84,0.338341,0.338039,-0.193308,12,1.33608,10,-6.53457e-05,-3.71375,-0.833542,-0.0707823,0.338124,
2,0,0,1,0,8153.64,0.334345,0.334043,-0.196991,12,1.33591,10,-6.58034e-05,-3.70555,-0.675467,-0.087347,0.334129,
2,0,0,1,0,8154.44,0.33035,0.33008,-0.197751,12,1.33574,10,-6.52738e-05,-3.70388,-0.71632,-0.0823654,0.330167,
2,0,0,1,0,8155.23,0.326355,0.326027,-0.201875,12,1.33556,10,-6.58166e-05,-3.69492,-0.765126,-0.0771115,0.326116,
2,0,0,1,0,8156.03,0.32236,0.322069,-0.202973,12,1.33539,10,-6.53713e-05,-3.69256,-1.01857,-0.0579241,0.322158,
2,0,0,0,0,8156.83,0.318365,0.318087,-0.205535,12,1.33521,10,-6.5378e-05,-3.68711,-0.786161,-0.0750482,0.318178,
2,0,0,1,0,8157.63,0.31437,0.314048,-0.208081,12,1.33503,10,-6.53474e-05,-3.68177,-1.28657,-0.0458583,0.31414,
2,0,0,1,0,8158.43,0.310374,0.310113,-0.210641,12,1.33485,10,-6.53223e-05,-3.67646,-0.497053,-0.1187,0.310205,
2,0,0,1,0,8159.23,0.306379,0.306087,-0.212999,12,1.33466,10,-6.51962e-05,-3.67162,-0.907456,-0.0650169,0.30618,
2,0,0,1,0,8160.03,0.302385,0.302055,-0.215956,12,1.33448,10,-6.52307e-05,-3.66563,-0.694463,-0.0849578,0.30215,
2,0,0,0,0,8160.83,0.298389,0.298128,-0.21865,12,1.33429,10,-6.51857e-05,-3.66025,-0.652246,-0.0904567,0.298224,
2,0,0,1,0,8161.63,0.294394,0.294073,-0.221735,12,1.3341,10,-6.52062e-05,-3.65417,-0.984642,-0.0599203,0.294171,
2,0,0,1,0,8162.43,0.290398,0.290108,-0.224071,12,1.3339,10,-6.50048e-05,-3.64961,-0.936848,-0.0629772,0.290207,
2,0,0,1,0,8163.23,0.286403,0.286121,-0.225951,12,1.33371,10,-6.46494e-05,-3.64599,-0.582474,-0.101292,0.286221,
2,0,0,1,0,8164.02,0.282408,0.282078,-0.230719,12,1.33351,10,-6.50807e-05,-3.63692,-2.92367,-0.0201801,0.28218,
2,0,0,1,0,8164.82,0.278414,0.278091,-0.231887,12,1.33331,10,-6.44858e-05,-3.63472,-0.540589,-0.10914,0.278193,
2,0,0,1,0,8165.62,0.274418,0.274108,-0.233894,12,1.33311,10,-6.41122e-05,-3.63098,-0.722871,-0.0816189,0.274211,
2,0,0,0,0,8166.42,0.270423,0.270134,-0.237074,12,1.33291,10,-6.40417e-05,-3.62512,-0.753849,-0.078265,0.270238,
2,0,0,1,0,8167.22,0.266427,0.266124,-0.239943,12,1.3327,10,-6.38545e-05,-3.61989,-0.821822,-0.0717917,0.266229,
2,0,0,1,0,8168.02,0.262432,0.262126,-0.24169,12,1.33249,10,-6.33534e-05,-3.61674,-1.17539,-0.0501959,0.262233,
2,0,0,1,0,8168.82,0.258437,0.258143,-0.246368,12,1.33229,10,-6.35982e-05,-3.60841,-0.709548,-0.0831515,0.258251,
2,0,0,1,0,8169.62,0.254442,0.254157,-0.246588,12,1.33207,10,-6.26722e-05,-3.60803,-0.953135,-0.061901,0.254266,
2,0,0,0,0,8170.42,0.250447,0.250134,-0.248672,12,1.33186,10,-6.22013e-05,-3.60437,17.7486,0.0033242,0.250244,
2,0,0,1,0,8171.22,0.246452,0.24615,-0.251689,12,1.33165,10,-6.19533e-05,-3.59914,-0.519221,-0.113632,0.246261,
2,0,0,1,0,8172.01,0.242456,0.242151,-0.253812,12,1.33143,10,-6.14608e-05,-3.59549,-1.19018,-0.0495723,0.242263,
2,0,0,1,0,8172.81,0.238461,0.238176,-0.256099,12,1.33121,10,-6.09965e-05,-3.59159,-1.01259,-0.0582664,0.238289,
2,0,0,1,0,8173.61,0.234467,0.23413,-0.259143,12,1.33099,10,-6.06731e-05,-3.58646,-0.639771,-0.0922205,0.234244,
2,0,0,0,0,8174.41,0.230471,0.230186,-0.261491,12,1.33077,10,-6.01915e-05,-3.58254,-1.15273,-0.051183,0.230301,
2,0,0,1,0,8175.21,0.226476,0.226207,-0.264384,12,1.33054,10,-5.98056e-05,-3.57776,-1.38516,-0.0425942,0.226324,
2,0,0,0,0,8176.01,0.222481,0.222161,-0.266881,12,1.33031,10,-5.92904e-05,-3.57368,-0.799901,-0.0737592,0.222278,
2,0,0,1,0,8176.81,0.218485,0.218172,-0.270182,12,1.33008,10,-5.89461e-05,-3.56834,-1.66179,-0.0355039,0.218291,
2,0,0,1,0,8177.61,0.21449,0.214193,-0.273537,12,1.32985,10,-5.85896e-05,-3.56298,-0.436149,-0.135275,0.214313,
2,0,0,1,0,8178.41,0.210496,0.210154,-0.276691,12,1.32962,10,-5.81477e-05,-3.55801,-1.16669,-0.0505702,0.210276,
2,0,0,1,0,8179.21,0.2065,0.206176,-0.280726,12,1.32938,10,-5.78791e-05,-3.55172,-0.707658,-0.0833736,0.2063,
2,0,0,0,0,8180,0.202505,0.202165,-0.283807,12,1.32914,10,-5.73756e-05,-3.54698,-0.564224,-0.104568,0.202289,
2,0,0,1,0,8180.8,0.198509,0.198209,-0.287615,12,1.32889,10,-5.70078e-05,-3.54119,-0.839299,-0.0702968,0.198335,
2,0,0,1,0,8181.6,0.194514,0.194188,-0.292885,12,1.32865,10,-5.68748e-05,-3.5333,-0.463135,-0.127393,0.194317,
2,0,0,1,0,8182.4,0.190519,0.190233,-0.297486,12,1.3284,10,-5.65917e-05,-3.52653,-0.540124,-0.109234,0.190364,
2,0,0,1,0,8183.2,0.186524,0.18624,-0.302219,12,1.32814,10,-5.62854e-05,-3.51968,-0.56131,-0.105111,0.186373,
2,0,0,0,0,8184,0.182529,0.182215,-0.30932,12,1.32788,10,-5.63628e-05,-3.50959,-0.303402,-0.194461,0.182351,
2,0,0,1,0,8184.8,0.178534,0.178234,-0.318158,12,1.32761,10,-5.67067e-05,-3.49736,-0.408752,-0.144342,0.178374,
2,0,0,1,0,8185.6,0.174538,0.174203,-0.326426,12,1.32734,10,-5.68645e-05,-3.48622,-0.258278,-0.228436,0.174347,
2,0,0,1,0,8186.4,0.170543,0.170236,-0.336837,12,1.32706,10,-5.73417e-05,-3.47258,-0.264344,-0.223194,0.170384,
2,0,0,1,0,8187.2,0.166549,0.166236,-0.351442,12,1.32677,10,-5.84225e-05,-3.45415,-0.206819,-0.285274,0.166391,
2,0,0,0,0,8188,0.162553,0.162242,-0.371323,12,1.32647,10,-6.02443e-05,-3.43025,-0.165119,-0.357319,0.162406,
2,0,0,1,0,8188.79,0.158558,0.158252,-0.392013,12,1.32615,10,-6.20369e-05,-3.4067,-0.139395,-0.423257,0.158425,
2,0,0,0,0,8189.59,0.154563,0.154217,-0.421231,12,1.32581,10,-6.49611e-05,-3.37548,-0.129807,-0.454523,0.154403,
2,0,0,1,0,8190.39,0.150567,0.150251,-0.459836,12,1.32544,10,-6.90908e-05,-3.3374,-0.0894636,-0.659486,0.150453,
2,0,0,1,0,8191.19,0.146572,0.14625,-0.511183,12,1.32504,10,-7.47603e-05,-3.29142,-0.0822609,-0.71723,0.146474,
2,0,0,1,0,8191.99,0.142578,0.142309,-0.573835,12,1.32459,10,-8.16622e-05,-3.24121,-0.0800538,-0.737005,0.142562,
2,0,0,1,0,8192.79,0.138582,0.138221,-0.642081,12,1.32409,10,-8.87491e-05,-3.19241,-0.087125,-0.677188,0.138504,
2,0,0,0,0,8193.59,0.134587,0.134253,-0.705372,12,1.32353,10,-9.46983e-05,-3.15158,-0.11154,-0.528959,0.134563,
2,0,0,1,0,8194.39,0.130591,0.130259,-0.755831,12,1.32293,10,-9.84538e-05,-3.12158,-0.160376,-0.367886,0.130592,
2,0,0,1,0,8195.19,0.126596,0.12629,-0.799311,12,1.32229,10,-0.000100945,-3.09728,-0.192962,-0.305759,0.126642,
2,0,0,1,0,8195.99,0.122602,0.122351,-0.806205,12,1.32163,10,-9.86401e-05,-3.09355,0.921379,0.0640345,0.122706,
2,0,0,1,0,8196.78,0.118607,0.118265,-0.801982,12,1.32097,10,-9.48461e-05,-3.09584,1.63005,0.0361951,0.118618,
2,0,0,0,0,8197.58,0.114611,0.114281,-0.792715,12,1.32032,10,-9.05924e-05,-3.10088,0.628721,0.0938412,0.11463,
2,0,0,1,0,8198.38,0.110616,0.110304,-0.779936,12,1.31967,10,-8.60299e-05,-3.10794,0.495602,0.119047,0.110647,
2,0,0,1,0,8199.18,0.10662,0.106345,-0.764769,12,1.31904,10,-8.13293e-05,-3.11647,0.541789,0.108898,0.106681,
2,0,0,1,0,8199.98,0.102625,0.102322,-0.750757,12,1.31841,10,-7.6819e-05,-3.1245,0.366129,0.161145,0.102652,
2,0,0,1,0,8200.78,0.0986305,0.0983107,-0.733317,12,1.31781,10,-7.20929e-05,-3.13471,0.398015,0.148236,0.0986334,
2,0,0,0,0,8201.58,0.0946351,0.0942852,-0.712414,12,1.31721,10,-6.71701e-05,-3.14727,0.389429,0.151504,0.0945987,
2,0,0,1,0,8202.38,0.0906399,0.0903076,-0.69992,12,1.31663,10,-6.32081e-05,-3.15495,0.351354,0.167922,0.0906156,
2,0,0,0,0,8203.18,0.0866448,0.0863226,-0.68377,12,1.31606,10,-5.90248e-05,-3.16509,0.647055,0.0911824,0.0866235,
2,0,0,1,0,8203.98,0.0826492,0.0823595,-0.670596,12,1.3155,10,-5.52299e-05,-3.17354,0.43836,0.134593,0.0826546,
2,0,0,1,0,8204.77,0.0786544,0.0783367,-0.659842,12,1.31496,10,-5.16899e-05,-3.18056,0.612524,0.0963227,0.0786271,
2,0,0,1,0,8205.57,0.0746596,0.0743456,-0.650543,12,1.31442,10,-4.8365e-05,-3.18672,0.666176,0.0885651,0.0746318,
2,0,0,1,0,8206.37,0.0706641,0.0703571,-0.639749,12,1.31389,10,-4.50109e-05,-3.19399,0.575665,0.10249,0.0706386,
2,0,0,0,0,8207.17,0.0666689,0.0663817,-0.631021,12,1.31336,10,-4.18882e-05,-3.19996,0.626435,0.0941837,0.0666593,
2,0,0,1,0,8207.97,0.0626737,0.062332,-0.619352,12,1.31285,10,-3.86054e-05,-3.20806,0.524379,0.112514,0.0626045,
2,0,0,1,0,8208.77,0.0586783,0.0583194,-0.610342,12,1.31234,10,-3.55948e-05,-3.21443,0.457806,0.128875,0.0585879,
2,0,0,1,0,8209.57,0.0546835,0.0543833,-0.599319,12,1.31184,10,-3.25929e-05,-3.22234,0.605144,0.0974975,0.054647,
2,0,0,1,0,8210.37,0.0506886,0.0503553,-0.588807,12,1.31135,10,-2.96495e-05,-3.23003,0.524653,0.112455,0.0506144,
2,0,0,0,0,8211.17,0.046693,0.0463866,-0.576761,12,1.31087,10,-2.6754e-05,-3.239,0.442546,0.13332,0.0466404,
2,0,0,1,0,8211.97,0.0426979,0.0424218,-0.566024,12,1.3104,10,-2.40117e-05,-3.24717,0.48594,0.121414,0.0426708,
2,0,0,1,0,8212.77,0.0387022,0.0383665,-0.554092,12,1.30993,10,-2.12586e-05,-3.25642,0.378911,0.155709,0.0386103,
2,0,0,1,0,8213.56,0.0347074,0.03437,-0.541946,12,1.30948,10,-1.86267e-05,-3.26604,0.483167,0.122111,0.0346085,
2,0,0,1,0,8214.36,0.0307126,0.0303884,-0.530191,12,1.30903,10,-1.61117e-05,-3.27557,0.460863,0.128021,0.0306217,
2,0,0,0,0,8215.16,0.0267172,0.0264001,-0.521635,12,1.3086,10,-1.37712e-05,-3.28263,0.408841,0.14431,0.0266296,
2,0,0,1,0,8215.96,0.022722,0.0223493,-0.511734,12,1.30817,10,-1.14369e-05,-3.29096,0.884196,0.0667273,0.0225745,
2,0,0,0,0,8216.76,0.0187268,0.0183983,-0.506463,12,1.30775,10,-9.31805e-06,-3.29545,0.690258,0.0854753,0.0186211,
2,0,0,1,0,8217.56,0.0147313,0.0143926,-0.502484,12,1.30733,10,-7.23205e-06,-3.29888,1.06551,0.0553726,0.0146137,
2,0,0,1,0,8218.36,0.0107365,0.010426,-0.497607,12,1.30692,10,-5.18805e-06,-3.30311,5.1393,0.0114802,0.0106449,
2,0,0,1,0,8219.16,0.00674163,0.00639171,-0.495167,12,1.3065,10,-3.16496e-06,-3.30525,2.63331,0.0224053,0.00660959,
2,0,0,1,0,8219.96,0.00274612,0.00244658,-0.494572,12,1.30609,10,-1.21001e-06,-3.30577,-2.20724,-0.0267302,0.00266419,
2,0,0,0,0,8220.45,0.000274105,-0.000132064,-0.496311,12,1.30583,10,6.5545e-08,-3.30425, , ,8.63124e-05,