File: Figure_codes/Fig_3-5/workspace_calculate_alpha_eff/20221101_1-115_003_TrumpetPlot_ParaChange_from10_every3_16_CV_C01_91.csv
mode,ox/red,error,control changes,counter inc.,time/s,control/V,Ewe/V,<I>/mA,cycle number,(Q-Qo)/C,I Range,P/W,log(|I|),Tafel slope mV/dec,alpha_eff,E-IR/V,
2,0,0,0,0,60704,2.44065e-05,-0.000306236,-0.0866734,92,0.0000000E+000,10,2.65425e-08,-4.06211, , ,-0.0002681,
2,1,0,0,0,60704.8,0.00379485,0.00347411,0.150608,92,9.10944e-05,10,5.23228e-07,-3.82215,0.0324671,1.81723,0.00340785,
2,1,0,1,0,60705.6,0.00779002,0.00741883,0.175272,92,0.000232352,10,1.30031e-06,-3.75629,0.0762034,0.774244,0.00734171,
2,1,0,0,0,60706.4,0.0117852,0.0114558,0.19047,92,0.000389162,10,2.18199e-06,-3.72017,0.12837,0.459611,0.011372,
2,1,0,1,0,60707.2,0.0157806,0.0154422,0.204966,92,0.000557393,10,3.16512e-06,-3.68832,0.138088,0.427265,0.015352,
2,1,0,1,0,60708,0.0197754,0.0194203,0.217402,92,0.000736112,10,4.22201e-06,-3.66274,0.14819,0.398136,0.0193246,
2,1,0,1,0,60708.8,0.0237704,0.0234073,0.229558,92,0.000925277,10,5.37333e-06,-3.63911,0.172191,0.342643,0.0233063,
2,1,0,1,0,60709.6,0.0277659,0.0273926,0.243906,92,0.0011246,10,6.68122e-06,-3.61278,0.160665,0.367225,0.0272853,
2,1,0,0,0,60710.4,0.0317611,0.0314169,0.25744,92,0.00133492,10,8.08798e-06,-3.58932,0.175522,0.33614,0.0313036,
2,1,0,1,0,60711.2,0.0357567,0.0354438,0.271727,92,0.00155626,10,9.63103e-06,-3.56587,0.209335,0.281845,0.0353242,
2,1,0,1,0,60712,0.0397516,0.0393754,0.284916,92,0.00178802,10,1.12187e-05,-3.54528,0.175081,0.336986,0.03925,
2,1,0,1,0,60712.8,0.0437465,0.0433506,0.296907,92,0.00203127,10,1.28711e-05,-3.52738,0.205448,0.287177,0.04322,
2,1,0,1,0,60713.6,0.0477413,0.0473841,0.310315,92,0.00228416,10,1.4704e-05,-3.5082,0.239083,0.246776,0.0472475,
2,1,0,0,0,60714.4,0.0517369,0.0513907,0.321877,92,0.00254695,10,1.65415e-05,-3.49231,0.217596,0.271145,0.0512491,
2,1,0,1,0,60715.2,0.0557321,0.0553407,0.333794,92,0.0028193,10,1.84724e-05,-3.47652,0.34803,0.169526,0.0551938,
2,1,0,1,0,60716,0.0597277,0.0593801,0.345218,92,0.00309997,10,2.04991e-05,-3.46191,0.309403,0.19069,0.0592282,
2,1,0,1,0,60716.8,0.0637226,0.0633703,0.354144,92,0.00338923,10,2.24422e-05,-3.45082,0.330367,0.178589,0.0632144,
2,1,0,1,0,60717.6,0.0677174,0.0674153,0.363942,92,0.00368654,10,2.45353e-05,-3.43897,0.557605,0.10581,0.0672552,
2,1,0,0,0,60718.4,0.0717128,0.0713783,0.371886,92,0.00399048,10,2.65446e-05,-3.42959,0.291359,0.2025,0.0712147,
2,1,0,1,0,60719.2,0.075708,0.07534,0.377755,92,0.00430113,10,2.84601e-05,-3.42279,0.547492,0.107764,0.0751738,
2,1,0,0,0,60720,0.0797031,0.0793801,0.38802,92,0.00461776,10,3.08011e-05,-3.41115,0.413888,0.142551,0.0792094,
2,1,0,1,0,60720.8,0.0836986,0.0833378,0.395757,92,0.00494091,10,3.29815e-05,-3.40257,0.400797,0.147207,0.0831637,
2,1,0,1,0,60721.6,0.0876935,0.0873373,0.406164,92,0.00527152,10,3.54733e-05,-3.3913,0.40304,0.146388,0.0871586,
2,1,0,1,0,60722.4,0.0916883,0.091337,0.418767,92,0.00561088,10,3.82489e-05,-3.37803,0.234495,0.251604,0.0911528,
2,1,0,1,0,60723.2,0.0956838,0.095317,0.433415,92,0.00596207,10,4.13118e-05,-3.3631,0.246882,0.238981,0.0951263,
2,1,0,0,0,60724,0.099679,0.0993062,0.452911,92,0.00632674,10,4.49769e-05,-3.34399,0.225431,0.261721,0.0991069,
2,1,0,1,0,60724.8,0.103674,0.103339,0.472862,92,0.00670684,10,4.8865e-05,-3.32527,0.180498,0.326873,0.103131,
2,1,0,1,0,60725.6,0.10767,0.107353,0.494042,92,0.00710473,10,5.30367e-05,-3.30624,0.243294,0.242505,0.107135,
2,1,0,1,0,60726.4,0.111664,0.111288,0.512487,92,0.00751792,10,5.70335e-05,-3.29032,0.270532,0.218089,0.111062,
2,1,0,1,0,60727.2,0.115659,0.115292,0.529314,92,0.00794481,10,6.10259e-05,-3.27629,0.301716,0.195548,0.11506,
2,1,0,0,0,60728,0.119655,0.11934,0.540548,92,0.00838305,10,6.45093e-05,-3.26717,0.642162,0.0918772,0.119103,
2,1,0,1,0,60728.8,0.12365,0.123266,0.549587,92,0.00882844,10,6.77454e-05,-3.25996,0.694337,0.0849731,0.123024,
2,1,0,1,0,60729.6,0.127646,0.127308,0.55374,92,0.00927992,10,7.04953e-05,-3.25669,1.51757,0.0388779,0.127064,
2,1,0,1,0,60730.4,0.131641,0.131261,0.553783,92,0.00973402,10,7.269e-05,-3.25666,-0.654708,-0.0901166,0.131017,
2,1,0,1,0,60731.2,0.135635,0.135277,0.542212,92,0.010183,10,7.33488e-05,-3.26583,-0.27291,-0.216188,0.135039,
2,1,0,0,0,60732,0.139631,0.139295,0.509707,92,0.0106156,10,7.09997e-05,-3.29268,-0.115592,-0.510414,0.139071,
2,1,0,1,0,60732.8,0.143626,0.143297,0.465067,92,0.0110166,10,6.66427e-05,-3.33248,-0.0839799,-0.702549,0.143093,
2,1,0,0,0,60733.6,0.147621,0.147277,0.410861,92,0.0113763,10,6.05103e-05,-3.38631,-0.0733367,-0.804509,0.147096,
2,1,0,1,0,60734.3,0.151617,0.151281,0.363533,92,0.011695,10,5.49958e-05,-3.43946,-0.0822528,-0.717301,0.151121,
2,1,0,1,0,60735.1,0.155612,0.155233,0.331109,92,0.0119811,10,5.13992e-05,-3.48003,-0.116058,-0.508367,0.155088,
2,1,0,1,0,60735.9,0.159606,0.159276,0.309648,92,0.0122462,10,4.93195e-05,-3.50913,-0.173469,-0.340117,0.15914,
2,1,0,1,0,60736.7,0.163602,0.163244,0.296009,92,0.0124979,10,4.83218e-05,-3.5287,-0.206574,-0.285612,0.163114,
2,1,0,0,0,60737.5,0.167597,0.167254,0.286889,92,0.0127398,10,4.79834e-05,-3.54229,-0.415561,-0.141977,0.167128,
2,1,0,1,0,60738.3,0.171592,0.171221,0.278613,92,0.0129757,10,4.77044e-05,-3.555,-0.457362,-0.129001,0.171098,
2,1,0,1,0,60739.1,0.175588,0.175264,0.275581,92,0.0132069,10,4.82995e-05,-3.55975,-0.514154,-0.114752,0.175143,
2,1,0,1,0,60739.9,0.179582,0.179208,0.270133,92,0.0134345,10,4.841e-05,-3.56842,-1.10606,-0.0533426,0.179089,
2,1,0,1,0,60740.7,0.183577,0.183248,0.268414,92,0.0136597,10,4.91863e-05,-3.57119,-0.938734,-0.0628506,0.18313,
2,1,0,0,0,60741.5,0.187573,0.187222,0.266062,92,0.0138827,10,4.98128e-05,-3.57502,-1.44426,-0.0408513,0.187105,
2,1,0,1,0,60742.3,0.191568,0.191266,0.264282,92,0.0141043,10,5.05481e-05,-3.57793,-1.04095,-0.0566791,0.191149,
2,1,0,0,0,60743.1,0.195563,0.195223,0.262673,92,0.0143245,10,5.12798e-05,-3.58059,-0.968001,-0.0609503,0.195108,
2,1,0,1,0,60743.9,0.199559,0.199285,0.261173,92,0.014543,10,5.20478e-05,-3.58307,-4.33703,-0.0136038,0.19917,
2,1,0,1,0,60744.7,0.203553,0.203213,0.259198,92,0.0147607,10,5.26725e-05,-3.58637,-2.2851,-0.0258195,0.203099,
2,1,0,1,0,60745.5,0.207548,0.2072,0.259186,92,0.0149775,10,5.37033e-05,-3.58639,-2.15562,-0.0273703,0.207086,
2,1,0,1,0,60746.3,0.211544,0.211233,0.257187,92,0.0151931,10,5.43265e-05,-3.58975,-4.76263,-0.0123881,0.21112,
2,1,0,0,0,60747.1,0.215539,0.215181,0.256486,92,0.0154079,10,5.5191e-05,-3.59094,-1.03417,-0.0570506,0.215068,
2,1,0,1,0,60747.9,0.219535,0.21924,0.256238,92,0.0156215,10,5.61776e-05,-3.59136,-2.78436,-0.0211898,0.219127,
2,1,0,1,0,60748.7,0.223529,0.223192,0.253883,92,0.0158343,10,5.66645e-05,-3.59537,-4.11512,-0.0143374,0.22308,
2,1,0,1,0,60749.5,0.227524,0.227193,0.253925,92,0.0160464,10,5.769e-05,-3.59529,-1.06518,-0.0553895,0.227081,
2,1,0,1,0,60750.3,0.23152,0.231192,0.252869,92,0.0162577,10,5.84613e-05,-3.5971,1.85925,0.0317332,0.231081,
2,1,0,0,0,60751.1,0.235515,0.235146,0.250537,92,0.0164685,10,5.89128e-05,-3.60113,-1.17737,-0.0501116,0.235036,
2,1,0,1,0,60751.9,0.23951,0.239171,0.250594,92,0.0166785,10,5.99348e-05,-3.60103,-4.04019,-0.0146033,0.23906,
2,1,0,1,0,60752.7,0.243506,0.243148,0.250358,92,0.0168879,10,6.08739e-05,-3.60144,-3.92988,-0.0150132,0.243037,
2,1,0,1,0,60753.5,0.2475,0.247155,0.249336,92,0.0170969,10,6.16245e-05,-3.60321,-2.67496,-0.0220564,0.247045,
2,1,0,1,0,60754.3,0.251495,0.251144,0.248121,92,0.0173048,10,6.23143e-05,-3.60534,-2.72575,-0.0216454,0.251035,
2,1,0,0,0,60755.1,0.255491,0.25517,0.24758,92,0.0175123,10,6.31751e-05,-3.60628,-7.80358,-0.00756063,0.255061,
2,1,0,1,0,60755.9,0.259486,0.259168,0.246753,92,0.0177193,10,6.39504e-05,-3.60774,-1.74284,-0.0338527,0.259059,
2,1,0,0,0,60756.7,0.263481,0.263105,0.247447,92,0.0179254,10,6.51046e-05,-3.60652,-3.99887,-0.0147542,0.262996,
2,1,0,1,0,60757.5,0.267477,0.267133,0.244479,92,0.0181311,10,6.53084e-05,-3.61176,-2.9806,-0.0197947,0.267025,
2,1,0,1,0,60758.3,0.271471,0.271122,0.244779,92,0.018336,10,6.6365e-05,-3.61123,-4.89992,-0.012041,0.271014,
2,1,0,1,0,60759.1,0.275466,0.275162,0.243284,92,0.01854,10,6.69424e-05,-3.61389,-1.24262,-0.0474804,0.275055,
2,1,0,1,0,60759.9,0.279462,0.279129,0.243078,92,0.0187435,10,6.78501e-05,-3.61425,-23.0244,-0.0025625,0.279022,
2,1,0,0,0,60760.7,0.283457,0.283095,0.241712,92,0.018946,10,6.84274e-05,-3.6167,-2.3882,-0.0247048,0.282988,
2,1,0,1,0,60761.5,0.287452,0.28711,0.241141,92,0.0191475,10,6.92339e-05,-3.61773,-1.89243,-0.0311769,0.287003,
2,1,0,1,0,60762.3,0.291448,0.291123,0.239749,92,0.0193483,10,6.97965e-05,-3.62024,-0.836296,-0.0705492,0.291018,
2,1,0,1,0,60763.1,0.295442,0.29508,0.239132,92,0.0195479,10,7.05633e-05,-3.62136,9.11488,0.00647293,0.294975,
2,1,0,1,0,60763.9,0.299437,0.29911,0.237097,92,0.0197474,10,7.09179e-05,-3.62507,-10.3662,-0.00569156,0.299005,
2,1,0,0,0,60764.7,0.303433,0.303081,0.237369,92,0.0199458,10,7.1942e-05,-3.62458,-1.21337,-0.048625,0.302977,
2,1,0,1,0,60765.5,0.307428,0.307067,0.235696,92,0.0201434,10,7.23746e-05,-3.62765,-9.9317,-0.00594058,0.306964,
2,1,0,1,0,60766.3,0.311424,0.311089,0.235364,92,0.0203405,10,7.3219e-05,-3.62826,-4.46038,-0.0132276,0.310985,
2,1,0,1,0,60767.1,0.315418,0.315085,0.235283,92,0.0205368,10,7.41342e-05,-3.62841,-1.24169,-0.0475158,0.314982,
2,1,0,1,0,60767.9,0.319413,0.319047,0.233853,92,0.0207326,10,7.461e-05,-3.63106,3.64182,0.0162007,0.318944,
2,1,0,0,0,60768.7,0.323409,0.323065,0.233962,92,0.020928,10,7.55848e-05,-3.63086,-1.0843,-0.0544132,0.322962,
2,1,0,1,0,60769.5,0.327404,0.327058,0.233485,92,0.0211226,10,7.63631e-05,-3.63174,2.07731,0.0284021,0.326955,
2,1,0,0,0,60770.3,0.331399,0.331067,0.231933,92,0.0213169,10,7.67854e-05,-3.63464,-1.28173,-0.0460317,0.330964,
2,1,0,1,0,60771.1,0.335395,0.335025,0.232346,92,0.0215107,10,7.78418e-05,-3.63386,8.20069,0.00719452,0.334923,
2,1,0,1,0,60771.9,0.339389,0.339043,0.230804,92,0.0217038,10,7.82526e-05,-3.63676,-1.87107,-0.0315328,0.338941,
2,1,0,1,0,60772.7,0.343384,0.343089,0.230667,92,0.0218966,10,7.91394e-05,-3.63701,98.0444,0.000601768,0.342987,
2,1,0,1,0,60773.5,0.34738,0.347009,0.230262,92,0.0220889,10,7.99029e-05,-3.63778,-2.43099,-0.02427,0.346907,
2,1,0,0,0,60774.3,0.351375,0.351017,0.229751,92,0.0222808,10,8.06465e-05,-3.63874,-10.5081,-0.00561471,0.350916,
2,1,0,1,0,60775.1,0.35537,0.355064,0.229824,92,0.0224724,10,8.16021e-05,-3.6386,-1.35749,-0.0434627,0.354962,
2,1,0,1,0,60775.9,0.359366,0.35907,0.229657,92,0.0226633,10,8.24629e-05,-3.63892,1.90362,0.0309935,0.358969,
2,1,0,1,0,60776.7,0.36336,0.362999,0.228001,92,0.0228541,10,8.27642e-05,-3.64206,-5.33842,-0.0110519,0.362898,
2,1,0,1,0,60777.5,0.367355,0.367033,0.228069,92,0.0230442,10,8.37089e-05,-3.64193,-1.73602,-0.0339858,0.366933,
2,1,0,0,0,60778.3,0.371351,0.371009,0.228008,92,0.023234,10,8.45929e-05,-3.64205,45.1255,0.00130747,0.370909,
2,1,0,1,0,60779.1,0.375346,0.375019,0.227757,92,0.0234237,10,8.54135e-05,-3.64253,-4.11631,-0.0143332,0.374919,
2,1,0,1,0,60779.9,0.379342,0.378988,0.227255,92,0.0236128,10,8.61269e-05,-3.64349,-3.52382,-0.0167432,0.378888,
2,1,0,1,0,60780.7,0.383336,0.383006,0.226999,92,0.0238015,10,8.69422e-05,-3.64398,-50.8095,-0.0011612,0.382906,
2,1,0,1,0,60781.5,0.387331,0.386991,0.226325,92,0.0239901,10,8.75856e-05,-3.64527,-1.24287,-0.0474708,0.386891,
2,1,0,0,0,60782.3,0.391327,0.391018,0.226076,92,0.024178,10,8.83997e-05,-3.64575,2.74168,0.0215197,0.390918,
2,1,0,1,0,60783.1,0.395322,0.395005,0.225218,92,0.0243657,10,8.89621e-05,-3.6474,-5.60323,-0.0105296,0.394906,
2,1,0,0,0,60783.9,0.399317,0.398956,0.225864,92,0.0245532,10,9.01098e-05,-3.64615,6.73061,0.00876592,0.398856,
2,1,0,1,0,60784.7,0.403313,0.403008,0.224949,92,0.0247403,10,9.06563e-05,-3.64792,-2.62361,-0.0224881,0.402909,
2,1,0,1,0,60785.5,0.407307,0.406981,0.22561,92,0.0249275,10,9.18188e-05,-3.64664,-23.9987,-0.00245847,0.406882,
2,1,0,1,0,60786.3,0.411302,0.410965,0.225503,92,0.0251143,10,9.26739e-05,-3.64685,12.0207,0.00490821,0.410865,
2,1,0,1,0,60787.1,0.415298,0.414986,0.224367,92,0.0253012,10,9.31091e-05,-3.64904,-1.93554,-0.0304824,0.414887,
2,1,0,0,0,60787.9,0.419293,0.418994,0.224084,92,0.0254874,10,9.389e-05,-3.64959,-3.33729,-0.017679,0.418896,
2,1,0,1,0,60788.7,0.423288,0.422955,0.22407,92,0.0256734,10,9.47717e-05,-3.64962,-13.0012,-0.00453805,0.422856,
2,1,0,1,0,60789.5,0.427283,0.426938,0.222744,92,0.0258596,10,9.50978e-05,-3.65219,2.13888,0.0275845,0.42684,
2,1,0,1,0,60790.3,0.431278,0.43094,0.223705,92,0.0260454,10,9.64035e-05,-3.65032,-3.53902,-0.0166713,0.430841,
2,1,0,1,0,60791.1,0.435273,0.434937,0.223433,92,0.026231,10,9.71794e-05,-3.65085,-46.8351,-0.00125974,0.434839,
2,1,0,0,0,60791.9,0.439269,0.438977,0.223715,92,0.0264165,10,9.82054e-05,-3.65031,68.1645,0.000865553,0.438878,
2,1,0,1,0,60792.7,0.443264,0.442921,0.22355,92,0.0266017,10,9.90149e-05,-3.65063,-3.44417,-0.0171304,0.442823,
2,1,0,0,0,60793.5,0.447259,0.446941,0.223335,92,0.0267866,10,9.98178e-05,-3.65104,-3.65968,-0.0161216,0.446843,
2,1,0,1,0,60794.3,0.451254,0.450915,0.223124,92,0.0269718,10,0.00010061,-3.65145,8.39894,0.0070247,0.450817,
2,1,0,1,0,60795.1,0.455249,0.454939,0.223075,92,0.0271567,10,0.000101485,-3.65155,3.11808,0.0189219,0.454841,
2,1,0,1,0,60795.9,0.459244,0.45893,0.223114,92,0.0273417,10,0.000102394,-3.65147,-16.1365,-0.0036563,0.458832,
2,1,0,1,0,60796.7,0.46324,0.462916,0.223773,92,0.027527,10,0.000103588,-3.65019,2.57865,0.0228802,0.462818,
2,1,0,0,0,60797.5,0.467235,0.466893,0.224829,92,0.0277123,10,0.000104971,-3.64815,4.24228,0.0139076,0.466794,
2,1,0,1,0,60798.3,0.471231,0.470929,0.224987,92,0.0278978,10,0.000105953,-3.64784,-108.178,-0.000545398,0.47083,
2,1,0,1,0,60799.1,0.475225,0.474901,0.225516,92,0.0280836,10,0.000107098,-3.64682,2.23275,0.0264249,0.474802,
2,1,0,1,0,60799.9,0.47922,0.478873,0.225723,92,0.0282698,10,0.000108092,-3.64642,3.75432,0.0157152,0.478774,
2,1,0,1,0,60800.7,0.483216,0.482902,0.225717,92,0.0284564,10,0.000108999,-3.64644,-4.56357,-0.0129285,0.482803,
2,1,0,0,0,60801.5,0.487211,0.486891,0.226522,92,0.0286432,10,0.000110292,-3.64489,1.93323,0.0305188,0.486791,
2,1,0,1,0,60802.3,0.491206,0.490848,0.226187,92,0.0288305,10,0.000111023,-3.64553,4.53391,0.0130131,0.490748,
2,1,0,1,0,60803.1,0.495201,0.494884,0.227564,92,0.0290181,10,0.000112618,-3.6429,3.66126,0.0161147,0.494784,
2,1,0,1,0,60803.9,0.499196,0.498863,0.228076,92,0.0292063,10,0.000113778,-3.64192,1.28919,0.0457653,0.498763,
2,1,0,1,0,60804.7,0.503191,0.502853,0.228742,92,0.0293952,10,0.000115024,-3.64065,-30.119,-0.00195889,0.502753,
2,1,0,0,0,60805.5,0.507187,0.506853,0.230032,92,0.0295845,10,0.000116593,-3.63821,3.24916,0.0181585,0.506752,
2,1,0,1,0,60806.3,0.511182,0.510839,0.230587,92,0.0297744,10,0.000117793,-3.63716,2.26616,0.0260353,0.510738,
2,1,0,0,0,60807.1,0.515177,0.514859,0.231806,92,0.0299651,10,0.000119347,-3.63488,2.05755,0.0286749,0.514757,
2,1,0,1,0,60807.9,0.519173,0.518875,0.232774,92,0.0301565,10,0.000120781,-3.63307,1.72202,0.034262,0.518773,
2,1,0,1,0,60808.7,0.523167,0.52283,0.233174,92,0.0303488,10,0.00012191,-3.63232,1.86054,0.0317113,0.522728,
2,1,0,1,0,60809.5,0.527162,0.526811,0.234834,92,0.0305419,10,0.000123713,-3.62924,1.53308,0.0384845,0.526707,
2,1,0,1,0,60810.3,0.531158,0.53083,0.236326,92,0.030736,10,0.000125449,-3.62649,1.67984,0.0351225,0.530726,
2,1,0,0,0,60811.1,0.535153,0.534832,0.237691,92,0.0309313,10,0.000127125,-3.62399,1.32143,0.0446486,0.534728,
2,1,0,1,0,60811.9,0.539148,0.538827,0.239415,92,0.0311276,10,0.000129003,-3.62085,1.40175,0.0420902,0.538721,
2,1,0,1,0,60812.7,0.543143,0.542798,0.240437,92,0.0313251,10,0.000130509,-3.619,1.5021,0.0392783,0.542692,
2,1,0,1,0,60813.5,0.547138,0.546823,0.24211,92,0.0315239,10,0.000132391,-3.61599,2.31898,0.0254422,0.546717,
2,1,0,1,0,60814.3,0.551133,0.550802,0.244991,92,0.0317241,10,0.000134942,-3.61085,0.70783,0.0833534,0.550694,
2,1,0,0,0,60815.1,0.555129,0.55476,0.246403,92,0.0319261,10,0.000136694,-3.60835,1.2473,0.047302,0.554652,
2,1,0,1,0,60815.9,0.559124,0.558848,0.248807,92,0.0321297,10,0.000139045,-3.60414,0.946716,0.0623207,0.558739,
2,1,0,1,0,60816.6,0.56312,0.562786,0.251632,92,0.0323352,10,0.000141615,-3.59923,0.887797,0.0664566,0.562675,
2,1,0,1,0,60817.4,0.567114,0.566785,0.253723,92,0.0325428,10,0.000143806,-3.59564,0.927722,0.0635966,0.566674,
2,1,0,1,0,60818.2,0.571109,0.570821,0.256328,92,0.0327525,10,0.000146317,-3.5912,0.69395,0.0850205,0.570708,
2,1,0,0,0,60819,0.575105,0.574743,0.260057,92,0.0329647,10,0.000149466,-3.58493,0.714757,0.0825455,0.574628,
2,1,0,1,0,60819.8,0.5791,0.578784,0.263577,92,0.0331795,10,0.000152554,-3.57909,0.896981,0.0657762,0.578668,
2,1,0,0,0,60820.6,0.583095,0.582792,0.267789,92,0.0333971,10,0.000156065,-3.57221,0.430284,0.137119,0.582674,
2,1,0,1,0,60821.4,0.58709,0.58677,0.271474,92,0.0336181,10,0.000159293,-3.56627,0.706974,0.0834542,0.586651,
2,1,0,1,0,60822.2,0.591085,0.590766,0.276273,92,0.0338424,10,0.000163213,-3.55866,0.505727,0.116664,0.590645,
2,1,0,1,0,60823,0.59508,0.594724,0.281891,92,0.0340709,10,0.000167647,-3.54992,0.452651,0.130343,0.5946,
2,1,0,1,0,60823.8,0.599076,0.598752,0.287207,92,0.0343037,10,0.000171966,-3.5418,0.409197,0.144185,0.598626,
2,1,0,0,0,60824.6,0.603071,0.602749,0.29462,92,0.0345416,10,0.000177582,-3.53074,0.39634,0.148862,0.602619,
2,1,0,1,0,60825.4,0.607066,0.606757,0.301839,92,0.0347853,10,0.000183143,-3.52022,0.335499,0.175858,0.606625,
2,1,0,1,0,60826.2,0.611061,0.610759,0.310543,92,0.0350354,10,0.000189667,-3.50788,0.344079,0.171472,0.610622,
2,1,0,1,0,60827,0.615056,0.614714,0.319552,92,0.0352924,10,0.000196433,-3.49546,0.262856,0.224458,0.614573,
2,1,0,1,0,60827.8,0.619051,0.61874,0.330401,92,0.0355577,10,0.000204432,-3.48096,0.270465,0.218143,0.618594,
2,1,0,0,0,60828.6,0.623047,0.622718,0.343074,92,0.0358321,10,0.000213638,-3.46461,0.236824,0.24913,0.622567,
2,1,0,1,0,60829.4,0.627042,0.626735,0.357093,92,0.0361172,10,0.000223803,-3.44722,0.208152,0.283446,0.626578,
2,1,0,1,0,60830.2,0.631037,0.630698,0.37422,92,0.0364149,10,0.000236019,-3.42687,0.203255,0.290276,0.630533,
2,1,0,1,0,60831,0.635032,0.634732,0.394428,92,0.0367269,10,0.000250356,-3.40403,0.16407,0.359602,0.634559,
2,1,0,1,0,60831.8,0.639027,0.638763,0.41608,92,0.0370558,10,0.000265776,-3.38082,0.155534,0.379338,0.638579,
2,1,0,1,0,60832.6,0.643022,0.642696,0.442643,92,0.0374041,10,0.000284485,-3.35395,0.15001,0.393307,0.642502,
2,1,0,1,0,60833.4,0.647018,0.646686,0.4725,92,0.0377745,10,0.000305559,-3.3256,0.135323,0.435993,0.646478,
2,1,0,0,0,60834.2,0.651013,0.650731,0.506915,92,0.0381708,10,0.000329866,-3.29506,0.12398,0.475883,0.650508,
2,1,0,1,0,60835,0.655008,0.65471,0.547429,92,0.0385969,10,0.000358408,-3.26167,0.117703,0.501263,0.65447,
2,1,0,1,0,60835.8,0.659003,0.658695,0.592825,92,0.0390571,10,0.000390491,-3.22707,0.107606,0.548295,0.658434,
2,1,0,1,0,60836.6,0.662998,0.662688,0.647475,92,0.0395575,10,0.000429074,-3.18878,0.102312,0.57667,0.662403,
2,1,0,1,0,60837.4,0.666994,0.666705,0.709368,92,0.0401045,10,0.000472939,-3.14913,0.0981492,0.601125,0.666393,
2,1,0,0,0,60838.2,0.670989,0.670694,0.781105,92,0.0407046,10,0.000523882,-3.10729,0.091936,0.641751,0.67035,
2,1,0,1,0,60839,0.674984,0.67463,0.862255,92,0.0413658,10,0.000581703,-3.06436,0.0899604,0.655844,0.67425,
2,1,0,1,0,60839.8,0.67898,0.678653,0.954772,92,0.0420963,10,0.000647959,-3.0201,0.0901035,0.654802,0.678233,
2,1,0,1,0,60840.6,0.682974,0.682659,1.058,92,0.0429051,10,0.000722252,-2.97552,0.0869976,0.678179,0.682194,
2,1,0,1,0,60841.4,0.686969,0.686664,1.17461,92,0.0438012,10,0.000806564,-2.93011,0.0874297,0.674828,0.686147,
2,1,0,0,0,60842.2,0.690965,0.690675,1.30401,92,0.044796,10,0.000900647,-2.88472,0.0854549,0.690422,0.690101,
2,1,0,1,0,60843,0.69496,0.694693,1.44829,92,0.0459003,10,0.00100612,-2.83914,0.0877877,0.672076,0.694055,
2,1,0,0,0,60843.8,0.698955,0.698633,1.6047,92,0.0471246,10,0.0011211,-2.79461,0.0879138,0.671112,0.697927,
2,1,0,1,0,60844.6,0.70295,0.70263,1.77873,92,0.048481,10,0.00124979,-2.74989,0.0883322,0.667933,0.701847,
2,1,0,1,0,60845.4,0.706945,0.706666,1.96586,92,0.0499812,10,0.00138921,-2.70645,0.0920673,0.640835,0.705801,
2,1,0,1,0,60846.2,0.71094,0.710613,2.16743,92,0.051637,10,0.00154021,-2.66405,0.0913427,0.645919,0.709659,
2,1,0,1,0,60847,0.714936,0.714634,2.38607,92,0.0534612,10,0.00170517,-2.62232,0.0953222,0.618954,0.713584,
2,1,0,0,0,60847.8,0.718931,0.718616,2.61847,92,0.0554649,10,0.00188168,-2.58195,0.0976154,0.604413,0.717464,
2,1,0,1,0,60848.6,0.722927,0.722603,2.86735,92,0.0576612,10,0.00207195,-2.54252,0.10011,0.589352,0.721341,
2,1,0,1,0,60849.4,0.726921,0.726628,3.13007,92,0.0600613,10,0.0022744,-2.50445,0.103734,0.568762,0.725251,
2,1,0,1,0,60850.2,0.730916,0.730616,3.41079,92,0.0626788,10,0.00249198,-2.46714,0.105073,0.561514,0.729115,
2,1,0,1,0,60851,0.734911,0.734587,3.70774,92,0.0655269,10,0.00272365,-2.43089,0.10677,0.552591,0.732955,
2,1,0,0,0,60851.8,0.738907,0.738625,4.02102,92,0.0686193,10,0.00297003,-2.39566,0.111343,0.529895,0.736856,
2,1,0,1,0,60852.6,0.742902,0.742606,4.35279,92,0.071969,10,0.00323241,-2.36123,0.113612,0.519311,0.740691,
2,1,0,1,0,60853.4,0.746897,0.746576,4.70281,92,0.0755913,10,0.00351101,-2.32764,0.114682,0.514467,0.744507,
2,1,0,1,0,60854.2,0.750892,0.750614,5.0727,92,0.0795006,10,0.00380764,-2.29476,0.118781,0.496713,0.748382,
2,1,0,1,0,60855,0.754887,0.754563,5.46128,92,0.0837133,10,0.00412088,-2.26271,0.118775,0.496736,0.75216,
2,1,0,0,0,60855.8,0.758883,0.758568,5.87421,92,0.0882465,10,0.00445599,-2.23105,0.122141,0.483049,0.755984,
2,1,0,1,0,60856.6,0.762878,0.762586,6.30835,92,0.0931171,10,0.00481066,-2.20008,0.12494,0.472227,0.759811,
2,1,0,0,0,60857.4,0.766873,0.766535,6.76496,92,0.0983441,10,0.00518558,-2.16973,0.12542,0.47042,0.763559,
2,1,0,1,0,60858.2,0.770868,0.770541,7.24975,92,0.103948,10,0.00558623,-2.13968,0.126387,0.466818,0.767351,
2,1,0,1,0,60859,0.774863,0.774562,7.75947,92,0.109948,10,0.00601019,-2.11017,0.127675,0.462109,0.771148,
2,1,0,1,0,60859.8,0.778858,0.778559,8.29673,92,0.116366,10,0.00645949,-2.08109,0.129752,0.454714,0.774908,
2,1,0,1,0,60860.6,0.782854,0.782549,8.86984,92,0.123229,10,0.00694109,-2.05208,0.128538,0.459007,0.778647,
2,1,0,0,0,60861.4,0.786849,0.786555,9.47775,92,0.130564,10,0.00745477,-2.02329,0.131035,0.450262,0.782384,
2,1,0,1,0,60862.2,0.790844,0.790546,10.1182,92,0.138396,10,0.00799889,-1.9949,0.132139,0.446499,0.786094,
2,1,0,1,0,60863,0.794839,0.794504,10.7983,92,0.146757,10,0.00857929,-1.96665,0.128184,0.460276,0.789753,
2,1,0,1,0,60863.8,0.798834,0.798525,11.5255,92,0.15568,10,0.0092034,-1.93834,0.129914,0.454147,0.793454,
2,1,0,1,0,60864.6,0.802829,0.802488,12.3004,92,0.165203,10,0.0098709,-1.91008,0.129949,0.454026,0.797076,
2,1,0,0,0,60865.4,0.806825,0.806511,13.1252,92,0.175364,10,0.0105856,-1.88189,0.126598,0.466043,0.800736,
2,1,0,1,0,60866.2,0.81082,0.810556,14.006,92,0.18621,10,0.0113527,-1.85368,0.130657,0.451563,0.804393,
2,1,0,1,0,60867,0.814815,0.814467,14.9342,92,0.197775,10,0.0121634,-1.82582,0.127937,0.461165,0.807896,
2,1,0,1,0,60867.8,0.81881,0.818464,15.9029,92,0.2101,10,0.013016,-1.79852,0.131027,0.45029,0.811467,
2,1,0,1,0,60868.6,0.822805,0.822514,16.9391,92,0.223225,10,0.0139327,-1.77111,0.129913,0.45415,0.815061,
2,1,0,0,0,60869.4,0.826801,0.826512,18.0199,92,0.237195,10,0.0148937,-1.74425,0.13151,0.448637,0.818583,
2,1,0,1,0,60870.2,0.830796,0.830487,19.138,92,0.25205,10,0.0158939,-1.7181,0.137754,0.428301,0.822066,
2,1,0,0,0,60871,0.834791,0.83451,20.272,92,0.267804,10,0.0169172,-1.6931,0.142246,0.414776,0.825591,
2,1,0,1,0,60871.8,0.838786,0.838488,21.4376,92,0.284479,10,0.0179752,-1.66882,0.143184,0.412056,0.829056,
2,1,0,1,0,60872.6,0.842781,0.842511,22.6461,92,0.302098,10,0.0190796,-1.64501,0.147576,0.399795,0.832547,
2,1,0,1,0,60873.4,0.846776,0.846461,23.9025,92,0.320701,10,0.0202325,-1.62156,0.150278,0.392605,0.835944,
2,1,0,0,0,60874.1,0.849723,0.849391,24.7305,92,0.337801,10,0.0210059,-1.60677,0.0480591,1.22766,0.83851,
2,1,0,1,0,60874.9,0.845728,0.845457,22.8871,92,0.35677,10,0.01935,-1.64041,0.106853,0.552162,0.835387,
2,1,0,0,0,60875.7,0.841732,0.841396,21.3797,92,0.374428,10,0.0179888,-1.67,0.115584,0.51045,0.831989,
2,1,0,1,0,60876.5,0.837737,0.837439,20.003,92,0.390945,10,0.0167513,-1.6989,0.11764,0.50153,0.828638,
2,1,0,1,0,60877.3,0.833742,0.833483,18.7053,92,0.406395,10,0.0155906,-1.72803,0.119021,0.495709,0.825253,
2,1,0,1,0,60878.1,0.829747,0.829461,17.4841,92,0.42084,10,0.0145024,-1.75736,0.116619,0.505919,0.821768,
2,1,0,1,0,60878.9,0.825752,0.825425,16.324,92,0.434336,10,0.0134742,-1.78717,0.118524,0.497788,0.818242,
2,1,0,0,0,60879.7,0.821757,0.821524,15.254,92,0.446941,10,0.0125315,-1.81662,0.122522,0.481545,0.814812,
2,1,0,1,0,60880.5,0.817761,0.817398,14.2487,92,0.458721,10,0.0116469,-1.84622,0.116922,0.50461,0.811129,
2,1,0,1,0,60881.3,0.813766,0.813451,13.3029,92,0.469716,10,0.0108213,-1.87605,0.120691,0.488851,0.807597,
2,1,0,1,0,60882.1,0.809771,0.809488,12.411,92,0.47998,10,0.0100466,-1.90619,0.119192,0.495,0.804027,
2,1,0,1,0,60882.9,0.805776,0.805455,11.5595,92,0.489546,10,0.00931065,-1.93706,0.117555,0.501894,0.800369,
2,1,0,0,0,60883.7,0.801781,0.801486,10.7633,92,0.498455,10,0.00862667,-1.96805,0.116391,0.506913,0.79675,
2,1,0,1,0,60884.5,0.797786,0.797456,10.024,92,0.506748,10,0.0079937,-1.99896,0.118783,0.496705,0.793045,
2,1,0,1,0,60885.3,0.79379,0.793498,9.3227,92,0.51447,10,0.00739754,-2.03046,0.117403,0.502542,0.789396,
2,1,0,1,0,60886.1,0.789795,0.78946,8.66473,92,0.521647,10,0.00684046,-2.06224,0.115473,0.510942,0.785648,
2,1,0,1,0,60886.9,0.7858,0.785478,8.04658,92,0.528314,10,0.00632042,-2.09439,0.117948,0.50022,0.781938,
2,1,0,0,0,60887.7,0.781805,0.781486,7.47468,92,0.534508,10,0.00584136,-2.12641,0.114451,0.515505,0.778197,
2,1,0,1,0,60888.5,0.77781,0.777489,6.93177,92,0.540255,10,0.00538938,-2.15916,0.113323,0.520634,0.774439,
2,1,0,0,0,60889.3,0.773814,0.773487,6.42301,92,0.545582,10,0.00496812,-2.19226,0.114339,0.516011,0.770661,
2,1,0,1,0,60890.1,0.769819,0.769519,5.94733,92,0.550516,10,0.00457658,-2.22568,0.11238,0.525007,0.766902,
2,1,0,1,0,60890.9,0.765824,0.765537,5.50114,92,0.555081,10,0.00421133,-2.25955,0.113125,0.521548,0.763117,
2,1,0,1,0,60891.7,0.761829,0.761517,5.0839,92,0.559302,10,0.00387148,-2.2938,0.11062,0.533358,0.75928,
2,1,0,1,0,60892.5,0.757834,0.757543,4.69136,92,0.5632,10,0.00355391,-2.3287,0.108237,0.545099,0.755479,
2,1,0,0,0,60893.3,0.753839,0.753518,4.31672,92,0.566792,10,0.00325273,-2.36485,0.103829,0.568243,0.751618,
2,1,0,1,0,60894.1,0.749844,0.749515,3.96825,92,0.570094,10,0.00297426,-2.4014,0.104426,0.564991,0.747768,
2,1,0,1,0,60894.9,0.745848,0.745577,3.64203,92,0.573128,10,0.00271541,-2.43866,0.102726,0.574341,0.743975,
2,1,0,1,0,60895.7,0.741853,0.741545,3.33631,92,0.575909,10,0.00247403,-2.47673,0.0989099,0.596503,0.740077,
2,1,0,1,0,60896.5,0.737858,0.737556,3.047,92,0.578452,10,0.00224733,-2.51613,0.0989334,0.596361,0.736215,
2,1,0,0,0,60897.3,0.733863,0.733555,2.77927,92,0.580774,10,0.00203875,-2.55607,0.0947106,0.62295,0.732333,
2,1,0,1,0,60898.1,0.729868,0.729565,2.52343,92,0.582885,10,0.00184101,-2.59801,0.0916647,0.64365,0.728455,
2,1,0,1,0,60898.9,0.725872,0.725563,2.28604,92,0.584801,10,0.00165866,-2.64092,0.0879632,0.670735,0.724557,
2,1,0,1,0,60899.7,0.721877,0.721571,2.06122,92,0.586531,10,0.00148731,-2.68588,0.0864118,0.682777,0.720664,
2,1,0,1,0,60900.4,0.717882,0.71757,1.85223,92,0.588089,10,0.0013291,-2.73231,0.0813277,0.725461,0.716755,
2,1,0,0,0,60901.2,0.713887,0.713555,1.65586,92,0.589484,10,0.00118155,-2.78098,0.0796181,0.741038,0.712827,
2,1,0,1,0,60902,0.709892,0.70958,1.47393,92,0.590727,10,0.00104587,-2.83152,0.0757168,0.779219,0.708931,
2,1,0,0,0,60902.8,0.705897,0.705606,1.30565,92,0.591831,10,0.000921273,-2.88417,0.0724275,0.814607,0.705032,
2,1,0,1,0,60903.6,0.701901,0.701582,1.14959,92,0.592805,10,0.000806532,-2.93946,0.0690618,0.854307,0.701076,
2,1,0,1,0,60904.4,0.697906,0.697609,1.00559,92,0.593659,10,0.000701511,-2.99758,0.0672838,0.876883,0.697166,
2,1,0,1,0,60905.2,0.693911,0.693612,0.874418,92,0.594404,10,0.000606507,-3.05828,0.0633911,0.93073,0.693228,
2,1,0,1,0,60906,0.689916,0.689602,0.75391,92,0.595048,10,0.000519898,-3.12268,0.0595728,0.990384,0.68927,
2,1,0,0,0,60906.8,0.685921,0.685608,0.645311,92,0.595601,10,0.00044243,-3.19023,0.0554468,1.06408,0.685324,
2,1,0,1,0,60907.6,0.681926,0.681616,0.547726,92,0.596071,10,0.000373339,-3.26144,0.0549228,1.07424,0.681375,
2,1,0,1,0,60908.4,0.67793,0.677581,0.459037,92,0.596467,10,0.000311035,-3.33815,0.0507844,1.16177,0.67738,
2,1,0,1,0,60909.2,0.673935,0.673612,0.380735,92,0.596797,10,0.000256468,-3.41938,0.0459693,1.28347,0.673445,
2,1,0,1,0,60910,0.66994,0.669658,0.312541,92,0.597067,10,0.000209296,-3.50509,0.0439246,1.34321,0.66952,
2,1,0,0,0,60910.8,0.665945,0.665613,0.250169,92,0.597286,10,0.000166516,-3.60177,0.0402097,1.46731,0.665503,
2,1,0,1,0,60911.6,0.66195,0.66166,0.197625,92,0.597459,10,0.000130761,-3.70416,0.0364897,1.6169,0.661573,
2,1,0,0,0,60912.4,0.657955,0.657662,0.150504,92,0.597592,10,9.89806e-05,-3.82245,0.0322048,1.83202,0.657596,
2,1,0,1,0,60913.2,0.653959,0.653629,0.111104,92,0.597691,10,7.26208e-05,-3.95427,0.0272484,2.16526,0.65358,
2,1,0,1,0,60914,0.649964,0.649684,0.0770802,92,0.597761,10,5.00778e-05,-4.11306,0.0221794,2.66013,0.64965,
2,1,0,1,0,60914.8,0.64597,0.645653,0.0469574,92,0.597804,10,3.03181e-05,-4.3283,0.0160691,3.67165,0.645632,
2,1,0,1,0,60915.6,0.641974,0.641654,0.0221425,92,0.597826,10,1.42078e-05,-4.65477,0.0081015,7.2826,0.641645,
2,1,0,0,0,60916.4,0.637979,0.637656,0.00138021,92,0.59783,10,8.80098e-07,-5.86006,0.0298928,1.97372,0.637655,
2,0,0,1,0,60917.2,0.633983,0.633679,-0.0167473,92,0.597818,10,-1.06124e-05,-4.77606,-0.00869038,-6.78912,0.633687,
2,0,0,1,0,60918,0.629988,0.629685,-0.0305502,92,0.597794,10,-1.9237e-05,-4.51499,-0.0199802,-2.95292,0.629699,
2,0,0,1,0,60918.8,0.625993,0.625659,-0.0434289,92,0.597758,10,-2.71717e-05,-4.36222,-0.0350706,-1.68232,0.625678,
2,0,0,1,0,60919.6,0.621998,0.621705,-0.0538338,92,0.597714,10,-3.34688e-05,-4.26894,-0.0499875,-1.1803,0.621729,
2,0,0,0,0,60920.4,0.618003,0.617683,-0.0628075,92,0.597661,10,-3.87951e-05,-4.20199,-0.068399,-0.862586,0.61771,
2,0,0,1,0,60921.2,0.614008,0.613666,-0.0706372,92,0.597602,10,-4.33476e-05,-4.15097,-0.101223,-0.582871,0.613697,
2,0,0,1,0,60922,0.610012,0.609666,-0.0766095,92,0.597538,10,-4.67062e-05,-4.11572,-0.116992,-0.504309,0.6097,
2,0,0,1,0,60922.8,0.606017,0.605682,-0.0815862,92,0.597469,10,-4.94153e-05,-4.08838,-0.143709,-0.410552,0.605718,
2,0,0,1,0,60923.6,0.602022,0.601684,-0.0861684,92,0.597395,10,-5.18461e-05,-4.06465,-0.255776,-0.230671,0.601722,
2,0,0,0,0,60924.4,0.598027,0.597682,-0.0899095,92,0.597319,10,-5.37373e-05,-4.04619,-0.180614,-0.326664,0.597722,
2,0,0,1,0,60925.2,0.594032,0.59367,-0.0932104,92,0.59724,10,-5.53362e-05,-4.03054,-0.413692,-0.142618,0.593711,
2,0,0,0,0,60926,0.590037,0.589723,-0.096152,92,0.597158,10,-5.67031e-05,-4.01704,-0.251494,-0.234598,0.589765,
2,0,0,1,0,60926.8,0.586041,0.585682,-0.0987997,92,0.597074,10,-5.78652e-05,-4.00524,-0.317135,-0.18604,0.585725,
2,0,0,1,0,60927.6,0.582046,0.581656,-0.100736,92,0.596988,10,-5.85939e-05,-3.99681,-0.912498,-0.0646577,0.581701,
2,0,0,1,0,60928.4,0.578052,0.577692,-0.1032,92,0.596901,10,-5.9618e-05,-3.98632,-0.393072,-0.1501,0.577737,
2,0,0,1,0,60929.2,0.574056,0.573689,-0.10436,92,0.596812,10,-5.98702e-05,-3.98147,-0.569222,-0.10365,0.573734,
2,0,0,0,0,60930,0.570061,0.569736,-0.106364,92,0.596722,10,-6.05994e-05,-3.97321,-1.17608,-0.0501668,0.569783,
2,0,0,1,0,60930.8,0.566065,0.565766,-0.108171,92,0.59663,10,-6.11993e-05,-3.96589,-0.452101,-0.130502,0.565813,
2,0,0,1,0,60931.6,0.56207,0.561713,-0.109376,92,0.596538,10,-6.14379e-05,-3.96108,-1.22612,-0.0481193,0.561761,
2,0,0,1,0,60932.4,0.558075,0.557743,-0.109931,92,0.596444,10,-6.13132e-05,-3.95888,-0.861351,-0.0684971,0.557792,
2,0,0,1,0,60933.2,0.55408,0.553763,-0.111484,92,0.59635,10,-6.17356e-05,-3.95279,-0.763119,-0.0773142,0.553812,
2,0,0,0,0,60934,0.550085,0.549772,-0.112403,92,0.596254,10,-6.17962e-05,-3.94922,-1.00286,-0.0588316,0.549822,
2,0,0,1,0,60934.8,0.54609,0.545697,-0.113547,92,0.596158,10,-6.19624e-05,-3.94482,72.6959,0.0008116,0.545747,
2,0,0,1,0,60935.6,0.542094,0.541776,-0.113063,92,0.596062,10,-6.12549e-05,-3.94668,-0.703104,-0.0839136,0.541826,
2,0,0,1,0,60936.4,0.538099,0.53774,-0.114778,92,0.595964,10,-6.17207e-05,-3.94014,21.8535,0.00269979,0.53779,
2,0,0,1,0,60937.2,0.534104,0.533743,-0.115489,92,0.595866,10,-6.16412e-05,-3.93746,-0.644781,-0.0915039,0.533794,
2,0,0,0,0,60938,0.530109,0.529767,-0.116961,92,0.595766,10,-6.19623e-05,-3.93196,-2.43009,-0.0242789,0.529818,
2,0,0,1,0,60938.8,0.526114,0.525797,-0.118368,92,0.595667,10,-6.22373e-05,-3.92677,-0.598752,-0.0985383,0.52585,
2,0,0,0,0,60939.6,0.522119,0.521769,-0.119093,92,0.595566,10,-6.21392e-05,-3.92411,-1.56866,-0.0376117,0.521821,
2,0,0,1,0,60940.4,0.518123,0.517789,-0.119853,92,0.595464,10,-6.20586e-05,-3.92135,-1.83286,-0.0321901,0.517842,
2,0,0,1,0,60941.2,0.514128,0.513788,-0.121307,92,0.595362,10,-6.23262e-05,-3.91611,-0.54531,-0.108195,0.513842,
2,0,0,1,0,60942,0.510133,0.509777,-0.121246,92,0.595259,10,-6.18082e-05,-3.91633,-3.66504,-0.016098,0.509831,
2,0,0,1,0,60942.8,0.506138,0.505797,-0.122516,92,0.595155,10,-6.19685e-05,-3.91181,-4.74599,-0.0124315,0.505851,
2,0,0,0,0,60943.6,0.502143,0.501794,-0.123709,92,0.59505,10,-6.20765e-05,-3.9076,-0.784731,-0.075185,0.501849,
2,0,0,1,0,60944.4,0.498148,0.497773,-0.124334,92,0.594944,10,-6.18899e-05,-3.90541,-0.997416,-0.0591528,0.497828,
2,0,0,1,0,60945.2,0.494152,0.493847,-0.126276,92,0.594838,10,-6.23612e-05,-3.89868,-0.651745,-0.0905263,0.493903,
2,0,0,1,0,60946,0.490157,0.489836,-0.126789,92,0.59473,10,-6.21058e-05,-3.89692,-1.42308,-0.0414593,0.489892,
2,0,0,1,0,60946.8,0.486162,0.485813,-0.127833,92,0.594622,10,-6.21029e-05,-3.89336,-1.33794,-0.0440975,0.485869,
2,0,0,0,0,60947.6,0.482167,0.48184,-0.129099,92,0.594512,10,-6.22052e-05,-3.88908,-1.73258,-0.0340532,0.481897,
2,0,0,1,0,60948.4,0.478172,0.477796,-0.129305,92,0.594402,10,-6.17815e-05,-3.88838,-0.777814,-0.0758536,0.477853,
2,0,0,0,0,60949.2,0.474177,0.473805,-0.131697,92,0.594291,10,-6.23988e-05,-3.88042,-1.96866,-0.0299696,0.473863,
2,0,0,1,0,60950,0.470181,0.469818,-0.133,92,0.594179,10,-6.24857e-05,-3.87615,-0.615672,-0.0958303,0.469877,
2,0,0,1,0,60950.8,0.466186,0.465851,-0.134264,92,0.594065,10,-6.25471e-05,-3.87204,-0.976323,-0.0604308,0.46591,
2,0,0,1,0,60951.6,0.462191,0.461804,-0.135715,92,0.593951,10,-6.26737e-05,-3.86737,-0.667059,-0.0884479,0.461864,
2,0,0,1,0,60952.4,0.458196,0.457863,-0.13706,92,0.593836,10,-6.27545e-05,-3.86309,-1.25802,-0.046899,0.457923,
2,0,0,0,0,60953.2,0.454201,0.4539,-0.1385,92,0.593719,10,-6.2865e-05,-3.85855,-1.76315,-0.0334628,0.453961,
2,0,0,1,0,60954,0.450205,0.449915,-0.140236,92,0.593601,10,-6.30943e-05,-3.85314,-0.505377,-0.116745,0.449977,
2,0,0,1,0,60954.8,0.44621,0.445841,-0.14105,92,0.593482,10,-6.28857e-05,-3.85063,-0.872972,-0.0675852,0.445903,
2,0,0,1,0,60955.6,0.442215,0.441868,-0.143045,92,0.593361,10,-6.32068e-05,-3.84453,-1.33738,-0.044116,0.44193,
2,0,0,1,0,60956.4,0.43822,0.437895,-0.144131,92,0.593239,10,-6.31143e-05,-3.84124,-0.703659,-0.0838474,0.437958,
2,0,0,0,0,60957.2,0.434225,0.433878,-0.145835,92,0.593116,10,-6.32745e-05,-3.83614,-0.899492,-0.0655926,0.433942,
2,0,0,1,0,60958,0.43023,0.429888,-0.14822,92,0.592992,10,-6.37179e-05,-3.82909,-0.934823,-0.0631135,0.429953,
2,0,0,1,0,60958.8,0.426234,0.425874,-0.149596,92,0.592866,10,-6.3709e-05,-3.82508,-0.555556,-0.1062,0.42594,
2,0,0,1,0,60959.6,0.422239,0.42189,-0.151863,92,0.592739,10,-6.40694e-05,-3.81855,-0.519558,-0.113558,0.421957,
2,0,0,1,0,60960.4,0.418244,0.417881,-0.153527,92,0.59261,10,-6.4156e-05,-3.81382,-1.34733,-0.0437902,0.417949,
2,0,0,0,0,60961.2,0.414249,0.413896,-0.154219,92,0.59248,10,-6.38308e-05,-3.81186,-0.968149,-0.0609411,0.413964,
2,0,0,1,0,60962,0.410254,0.409889,-0.157843,92,0.592348,10,-6.46979e-05,-3.80178,-1.09792,-0.0537381,0.409958,
2,0,0,0,0,60962.8,0.406259,0.405918,-0.158967,92,0.592215,10,-6.45276e-05,-3.79869,-0.548401,-0.107585,0.405988,
2,0,0,1,0,60963.6,0.402263,0.401904,-0.161295,92,0.59208,10,-6.48252e-05,-3.79238,-0.895065,-0.065917,0.401975,
2,0,0,1,0,60964.4,0.398268,0.397912,-0.163474,92,0.591943,10,-6.50485e-05,-3.78655,-0.540795,-0.109099,0.397984,
2,0,0,1,0,60965.2,0.394274,0.393899,-0.163943,92,0.591805,10,-6.45771e-05,-3.78531,-0.904094,-0.0652587,0.393971,
2,0,0,1,0,60966,0.390278,0.389896,-0.166038,92,0.591665,10,-6.47373e-05,-3.77979,-1.32453,-0.0445441,0.389969,
2,0,0,0,0,60966.8,0.386283,0.385902,-0.168492,92,0.591524,10,-6.50214e-05,-3.77342,-0.640642,-0.0920951,0.385976,
2,0,0,1,0,60967.6,0.382287,0.381956,-0.169721,92,0.591381,10,-6.48258e-05,-3.77027,-0.650925,-0.0906403,0.382031,
2,0,0,1,0,60968.4,0.378292,0.377948,-0.172409,92,0.591236,10,-6.51617e-05,-3.76344,-1.3722,-0.0429966,0.378024,
2,0,0,1,0,60969.2,0.374297,0.373977,-0.175334,92,0.59109,10,-6.55707e-05,-3.75614,-0.516793,-0.114166,0.374054,
2,0,0,1,0,60970,0.370303,0.369938,-0.176951,92,0.590941,10,-6.5461e-05,-3.75215,-0.863669,-0.0683132,0.370016,
2,0,0,0,0,60970.8,0.366307,0.365948,-0.179572,92,0.590791,10,-6.57141e-05,-3.74576,-0.526796,-0.111998,0.366027,
2,0,0,1,0,60971.6,0.362312,0.361947,-0.181488,92,0.590639,10,-6.56889e-05,-3.74115,-0.877283,-0.0672531,0.362026,
2,0,0,1,0,60972.4,0.358316,0.357973,-0.183388,92,0.590486,10,-6.56479e-05,-3.73663,-0.715033,-0.0825136,0.358054,
2,0,0,1,0,60973.2,0.354321,0.353998,-0.186004,92,0.59033,10,-6.58451e-05,-3.73048,-1.0611,-0.0556026,0.354079,
2,0,0,1,0,60974,0.350327,0.349981,-0.187794,92,0.590173,10,-6.57245e-05,-3.72632,-0.554288,-0.106443,0.350064,
2,0,0,0,0,60974.8,0.346331,0.345983,-0.189803,92,0.590014,10,-6.56688e-05,-3.7217,-1.45527,-0.0405423,0.346067,
2,0,0,1,0,60975.6,0.342336,0.341998,-0.192495,92,0.589853,10,-6.58329e-05,-3.71558,-0.562422,-0.104903,0.342083,
2,0,0,0,0,60976.4,0.338341,0.337979,-0.196251,92,0.589689,10,-6.63289e-05,-3.70719,-1.30815,-0.045102,0.338066,
2,0,0,1,0,60977.2,0.334345,0.333972,-0.197445,92,0.589524,10,-6.5941e-05,-3.70455,-0.704781,-0.083714,0.334059,
2,0,0,1,0,60978,0.33035,0.329993,-0.199772,92,0.589358,10,-6.59235e-05,-3.69946,-0.806105,-0.0731915,0.330081,
2,0,0,1,0,60978.8,0.326355,0.325988,-0.202454,92,0.589189,10,-6.59977e-05,-3.69367,-1.27432,-0.0462991,0.326077,
2,0,0,1,0,60979.6,0.32236,0.321999,-0.204245,92,0.589019,10,-6.57667e-05,-3.68985,-0.458472,-0.128688,0.322089,
2,0,0,0,0,60980.4,0.318365,0.318059,-0.205815,92,0.588846,10,-6.54611e-05,-3.68652,-1.34394,-0.0439006,0.318149,
2,0,0,1,0,60981.2,0.31437,0.314016,-0.209416,92,0.588672,10,-6.576e-05,-3.67899,-1.05844,-0.0557422,0.314108,
2,0,0,1,0,60982,0.310374,0.31005,-0.211389,92,0.588495,10,-6.55413e-05,-3.67492,-0.623755,-0.0945885,0.310143,
2,0,0,1,0,60982.7,0.306379,0.306027,-0.213149,92,0.588317,10,-6.52293e-05,-3.67132,-1.02448,-0.0575901,0.306121,
2,0,0,1,0,60983.5,0.302385,0.302052,-0.215427,92,0.588136,10,-6.507e-05,-3.6667,-0.793039,-0.0743973,0.302147,
2,0,0,0,0,60984.3,0.298389,0.298046,-0.218369,92,0.587954,10,-6.50838e-05,-3.66081,-0.666063,-0.0885802,0.298142,
2,0,0,1,0,60985.1,0.294394,0.294038,-0.221517,92,0.58777,10,-6.51343e-05,-3.65459,-1.00265,-0.0588442,0.294136,
2,0,0,1,0,60985.9,0.290398,0.290078,-0.223846,92,0.587583,10,-6.49329e-05,-3.65005,-0.668905,-0.0882038,0.290177,
2,0,0,1,0,60986.7,0.286403,0.28603,-0.225599,92,0.587394,10,-6.45281e-05,-3.64666,-0.622502,-0.0947789,0.286129,
2,0,0,1,0,60987.5,0.282408,0.282024,-0.228738,92,0.587204,10,-6.45096e-05,-3.64066,-2.04552,-0.0288436,0.282125,
2,0,0,1,0,60988.3,0.278414,0.278097,-0.231921,92,0.587011,10,-6.44963e-05,-3.63466,-0.640667,-0.0920915,0.278199,
2,0,0,1,0,60989.1,0.274418,0.274062,-0.234657,92,0.586816,10,-6.43106e-05,-3.62957,-0.902576,-0.0653685,0.274165,
2,0,0,0,0,60989.9,0.270423,0.270063,-0.237027,92,0.586618,10,-6.40124e-05,-3.6252,-0.937792,-0.0629137,0.270168,
2,0,0,1,0,60990.7,0.266427,0.266076,-0.239574,92,0.586419,10,-6.3745e-05,-3.62056,-0.831027,-0.0709965,0.266181,
2,0,0,1,0,60991.5,0.262432,0.262042,-0.241483,92,0.586218,10,-6.32787e-05,-3.61711,-0.786905,-0.0749773,0.262149,
2,0,0,1,0,60992.3,0.258437,0.258106,-0.24419,92,0.586015,10,-6.30268e-05,-3.61227,-0.821442,-0.0718249,0.258213,
2,0,0,1,0,60993.1,0.254442,0.254104,-0.24587,92,0.58581,10,-6.24766e-05,-3.60929,-0.980133,-0.0601959,0.254213,
2,0,0,0,0,60993.9,0.250447,0.250097,-0.249202,92,0.585603,10,-6.23246e-05,-3.60345,-1.15724,-0.0509832,0.250207,
2,0,0,1,0,60994.7,0.246452,0.246106,-0.251465,92,0.585394,10,-6.18871e-05,-3.59952,-1.04717,-0.0563425,0.246216,
2,0,0,1,0,60995.5,0.242456,0.242094,-0.254042,92,0.585183,10,-6.15021e-05,-3.59509,-1.01136,-0.0583374,0.242206,
2,0,0,1,0,60996.3,0.238461,0.23812,-0.256484,92,0.58497,10,-6.10739e-05,-3.59094,-0.935856,-0.0630439,0.238233,
2,0,0,1,0,60997.1,0.234467,0.234143,-0.258739,92,0.584756,10,-6.05818e-05,-3.58714,-0.703606,-0.0838538,0.234256,
2,0,0,0,0,60997.9,0.230471,0.230142,-0.261088,92,0.584539,10,-6.00873e-05,-3.58321,-1.93496,-0.0304916,0.230257,
2,0,0,1,0,60998.7,0.226476,0.226152,-0.263159,92,0.584321,10,-5.9514e-05,-3.57978,-0.828245,-0.0712349,0.226268,
2,0,0,0,0,60999.5,0.222481,0.222144,-0.265499,92,0.5841,10,-5.89789e-05,-3.57594,-0.95992,-0.0614635,0.222261,
2,0,0,1,0,61000.3,0.218485,0.218101,-0.268485,92,0.583877,10,-5.8557e-05,-3.57108,-1.13793,-0.0518484,0.218219,
2,0,0,1,0,61001.1,0.21449,0.214108,-0.271128,92,0.583653,10,-5.80506e-05,-3.56683,-0.771621,-0.0764624,0.214227,
2,0,0,1,0,61001.9,0.210496,0.210148,-0.274472,92,0.583426,10,-5.76797e-05,-3.5615,-0.902389,-0.065382,0.210268,
2,0,0,1,0,61002.7,0.2065,0.206159,-0.278284,92,0.583197,10,-5.73708e-05,-3.55551,-1.03939,-0.0567638,0.206282,
2,0,0,0,0,61003.5,0.202505,0.202178,-0.278888,92,0.582966,10,-5.6385e-05,-3.55457,-1.05691,-0.0558229,0.202301,
2,0,0,1,0,61004.3,0.198509,0.198149,-0.282147,92,0.582732,10,-5.59073e-05,-3.54952,-0.809496,-0.0728848,0.198274,
2,0,0,1,0,61005.1,0.194514,0.194174,-0.28606,92,0.582496,10,-5.55455e-05,-3.54354,-0.892613,-0.0660981,0.1943,
2,0,0,1,0,61005.9,0.190519,0.190149,-0.287249,92,0.582257,10,-5.46202e-05,-3.54174,-0.739546,-0.0797787,0.190276,
2,0,0,1,0,61006.7,0.186524,0.186149,-0.292428,92,0.582016,10,-5.44353e-05,-3.53398,-0.817512,-0.0721702,0.186278,
2,0,0,0,0,61007.5,0.182529,0.182183,-0.295879,92,0.581771,10,-5.39043e-05,-3.52889,-0.548513,-0.107564,0.182314,
2,0,0,1,0,61008.3,0.178534,0.178162,-0.301215,92,0.581523,10,-5.36651e-05,-3.52112,-0.557621,-0.105807,0.178295,
2,0,0,1,0,61009.1,0.174538,0.17419,-0.3064,92,0.581271,10,-5.33716e-05,-3.51371,-0.538417,-0.109581,0.174324,
2,0,0,1,0,61009.9,0.170543,0.170232,-0.311852,92,0.581014,10,-5.3087e-05,-3.50605,-0.368308,-0.160192,0.170369,
2,0,0,1,0,61010.7,0.166549,0.166168,-0.318485,92,0.580752,10,-5.29221e-05,-3.49691,-0.449963,-0.131122,0.166308,
2,0,0,0,0,61011.5,0.162553,0.162161,-0.327151,92,0.580485,10,-5.3051e-05,-3.48525,-0.306927,-0.192228,0.162305,
2,0,0,1,0,61012.3,0.158558,0.158196,-0.335503,92,0.580209,10,-5.30752e-05,-3.4743,-0.309841,-0.19042,0.158344,
2,0,0,0,0,61013.1,0.154563,0.154199,-0.349983,92,0.579925,10,-5.39671e-05,-3.45595,-0.222073,-0.265679,0.154353,
2,0,0,1,0,61013.9,0.150567,0.15019,-0.366209,92,0.579629,10,-5.50007e-05,-3.43627,-0.168686,-0.349763,0.150351,
2,0,0,1,0,61014.7,0.146572,0.146212,-0.388195,92,0.579318,10,-5.67589e-05,-3.41095,-0.148628,-0.396964,0.146383,
2,0,0,1,0,61015.5,0.142578,0.142244,-0.41618,92,0.578988,10,-5.9199e-05,-3.38072,-0.116957,-0.504458,0.142427,
2,0,0,1,0,61016.3,0.138582,0.138255,-0.451003,92,0.578631,10,-6.23535e-05,-3.34582,-0.107239,-0.550172,0.138453,
2,0,0,0,0,61017.1,0.134587,0.13422,-0.494368,92,0.578243,10,-6.63542e-05,-3.30595,-0.10574,-0.557971,0.134438,
2,0,0,1,0,61017.9,0.130591,0.130222,-0.53856,92,0.57782,10,-7.01323e-05,-3.26877,-0.110324,-0.534788,0.130459,
2,0,0,1,0,61018.7,0.126596,0.126205,-0.577501,92,0.577362,10,-7.28832e-05,-3.23845,-0.132447,-0.445461,0.126459,
2,0,0,1,0,61019.5,0.122602,0.122263,-0.61493,92,0.576874,10,-7.51833e-05,-3.21117,-0.203561,-0.28984,0.122534,
2,0,0,1,0,61020.3,0.118607,0.118252,-0.638321,92,0.576362,10,-7.54827e-05,-3.19496,-0.269179,-0.219185,0.118533,
2,0,0,0,0,61021.1,0.114611,0.114251,-0.653658,92,0.575834,10,-7.46807e-05,-3.18465,-0.665955,-0.0885946,0.114538,
2,0,0,1,0,61021.9,0.110616,0.11022,-0.66092,92,0.575298,10,-7.28466e-05,-3.17985,-1.53177,-0.0385176,0.110511,
2,0,0,1,0,61022.7,0.10662,0.106289,-0.663891,92,0.574758,10,-7.05642e-05,-3.1779,-3.08487,-0.0191256,0.106581,
2,0,0,1,0,61023.5,0.102625,0.102263,-0.662428,92,0.574218,10,-6.77416e-05,-3.17886,2.56269,0.0230227,0.102554,
2,0,0,1,0,61024.3,0.0986305,0.098281,-0.660968,92,0.573678,10,-6.49606e-05,-3.17982,2.23985,0.026341,0.0985719,
2,0,0,0,0,61025.1,0.0946351,0.0943064,-0.655281,92,0.573142,10,-6.17972e-05,-3.18357,1.63508,0.0360839,0.0945947,
2,0,0,1,0,61025.9,0.0906399,0.0902779,-0.651708,92,0.572608,10,-5.88349e-05,-3.18595,0.813609,0.0725164,0.0905647,
2,0,0,0,0,61026.7,0.0866448,0.086259,-0.646067,92,0.57208,10,-5.57291e-05,-3.18972,1.11581,0.0528763,0.0865433,
2,0,0,1,0,61027.5,0.0826492,0.0823003,-0.639616,92,0.571556,10,-5.26406e-05,-3.19408,0.770696,0.0765542,0.0825817,
2,0,0,1,0,61028.3,0.0786544,0.0783123,-0.63165,92,0.571038,10,-4.94659e-05,-3.19952,-1.15143,-0.0512407,0.0785902,
2,0,0,1,0,61029.1,0.0746596,0.0742821,-0.627387,92,0.57052,10,-4.66036e-05,-3.20246,0.313191,0.188383,0.0745581,
2,0,0,1,0,61029.9,0.0706641,0.0702956,-0.615856,92,0.570013,10,-4.3292e-05,-3.21052,0.581832,0.101404,0.0705666,
2,0,0,0,0,61030.7,0.0666689,0.0662968,-0.608954,92,0.569514,10,-4.03717e-05,-3.21542,0.808112,0.0730097,0.0665648,
2,0,0,1,0,61031.5,0.0626737,0.0623023,-0.601002,92,0.56902,10,-3.74438e-05,-3.22112,1.01384,0.0581945,0.0625667,
2,0,0,1,0,61032.3,0.0586783,0.0583171,-0.594789,92,0.568531,10,-3.46863e-05,-3.22564,0.513487,0.114901,0.0585788,
2,0,0,1,0,61033.1,0.0546835,0.0543272,-0.58522,92,0.56805,10,-3.17934e-05,-3.23268,0.769593,0.0766639,0.0545847,
2,0,0,1,0,61033.9,0.0506886,0.0503149,-0.575458,92,0.567575,10,-2.89541e-05,-3.23999,0.526887,0.111978,0.0505681,
2,0,0,0,0,61034.7,0.046693,0.0463124,-0.566085,92,0.567108,10,-2.62168e-05,-3.24712,0.525983,0.112171,0.0465615,
2,0,0,1,0,61035.5,0.0426979,0.0423592,-0.557319,92,0.56665,10,-2.36076e-05,-3.2539,0.585263,0.100809,0.0426044,
2,0,0,1,0,61036.3,0.0387022,0.038308,-0.547547,92,0.566198,10,-2.09754e-05,-3.26158,0.447254,0.131916,0.038549,
2,0,0,1,0,61037.1,0.0347074,0.0343468,-0.536869,92,0.565755,10,-1.84397e-05,-3.27013,0.575889,0.10245,0.034583,
2,0,0,1,0,61037.9,0.0307126,0.0303238,-0.527594,92,0.565319,10,-1.59987e-05,-3.2777,0.577729,0.102124,0.0305559,
2,0,0,0,0,61038.7,0.0267172,0.0263312,-0.519817,92,0.56489,10,-1.36874e-05,-3.28415,0.507967,0.116149,0.0265599,
2,0,0,1,0,61039.5,0.022722,0.0223695,-0.512909,92,0.564468,10,-1.14735e-05,-3.28996,0.958375,0.0615625,0.0225952,
2,0,0,0,0,61040.3,0.0187268,0.0183866,-0.506578,92,0.564051,10,-9.31425e-06,-3.29535,0.650707,0.0906707,0.0186095,
2,0,0,1,0,61041.1,0.0147313,0.0143727,-0.502219,92,0.563639,10,-7.21825e-06,-3.29911,1.37927,0.0427763,0.0145937,
2,0,0,1,0,61041.9,0.0107365,0.0103806,-0.497859,92,0.56323,10,-5.16809e-06,-3.30289,2.61642,0.0225499,0.0105997,
2,0,0,1,0,61042.7,0.00674163,0.00639894,-0.49657,92,0.562823,10,-3.17752e-06,-3.30402,2.44992,0.0240824,0.00661743,
2,0,0,1,0,61043.5,0.00274612,0.00238083,-0.496764,92,0.562417,10,-1.18271e-06,-3.30385,-2.27377,-0.0259481,0.00259941,
2,0,0,0,0,61044,0.000274105,-0.000155924,-0.498113,92,0.562163,10,7.76676e-08,-3.30267, , ,6.32462e-05,