File: Figure_codes/Fig_3-5/workspace_calculate_alpha_eff/20221101_1-115_003_TrumpetPlot_ParaChange_from10_every3_16_CV_C01_20.csv
mode,ox/red,error,control changes,counter inc.,time/s,control/V,Ewe/V,<I>/mA,cycle number,(Q-Qo)/C,I Range,P/W,log(|I|),Tafel slope mV/dec,alpha_eff,E-IR/V,
2,0,0,0,0,13790.9,2.44065e-05,-0.00042076,-0.099394,21,0.0000000E+000,10,4.1821e-08,-4.00264, , ,-0.000377027,
2,1,0,0,0,13791.7,0.00379485,0.00346775,0.152071,21,0.000103738,10,5.27345e-07,-3.81795,0.0387438,1.52282,0.00340084,
2,1,0,1,0,13792.5,0.00779002,0.0074623,0.175114,21,0.000250051,10,1.30675e-06,-3.75668,0.0774812,0.761475,0.00738525,
2,1,0,0,0,13793.3,0.0117852,0.0114696,0.192077,21,0.00041255,10,2.20304e-06,-3.71653,0.112606,0.52395,0.0113851,
2,1,0,1,0,13794.1,0.0157806,0.0154484,0.208449,21,0.00058723,10,3.22021e-06,-3.681,0.121918,0.48393,0.0153567,
2,1,0,1,0,13794.9,0.0197754,0.01945,0.221876,21,0.000773221,10,4.3155e-06,-3.65389,0.158869,0.371376,0.0193524,
2,1,0,1,0,13795.7,0.0237704,0.0234562,0.235847,21,0.000970662,10,5.53208e-06,-3.62737,0.170672,0.345693,0.0233524,
2,1,0,1,0,13796.5,0.0277659,0.0274807,0.251439,21,0.00117944,10,6.90972e-06,-3.59957,0.1483,0.397842,0.02737,
2,1,0,0,0,13797.2,0.0317611,0.0314201,0.26487,21,0.00139999,10,8.32222e-06,-3.57697,0.162257,0.36362,0.0313035,
2,1,0,1,0,13798,0.0357567,0.0354141,0.281629,21,0.00163277,10,9.97364e-06,-3.55032,0.206997,0.285028,0.0352901,
2,1,0,1,0,13798.8,0.0397516,0.0394423,0.295618,21,0.00187694,10,1.16599e-05,-3.52927,0.149417,0.394869,0.0393123,
2,1,0,1,0,13799.6,0.0437465,0.0434439,0.308948,21,0.00213349,10,1.34219e-05,-3.51012,0.202648,0.291145,0.043308,
2,1,0,1,0,13800.4,0.0477413,0.0474361,0.324132,21,0.00240082,10,1.53755e-05,-3.48928,0.211523,0.278929,0.0472934,
2,1,0,0,0,13801.2,0.0517369,0.0514045,0.337152,21,0.00267878,10,1.73311e-05,-3.47217,0.212296,0.277914,0.0512561,
2,1,0,1,0,13802,0.0557321,0.0554489,0.34926,21,0.00296786,10,1.93661e-05,-3.45685,0.357213,0.165168,0.0552952,
2,1,0,1,0,13802.8,0.0597277,0.0593972,0.362322,21,0.00326638,10,2.15209e-05,-3.44091,0.261568,0.225562,0.0592377,
2,1,0,1,0,13803.6,0.0637226,0.0633936,0.371686,21,0.00357465,10,2.35625e-05,-3.42982,0.277927,0.212286,0.06323,
2,1,0,1,0,13804.4,0.0677174,0.0674048,0.385483,21,0.00389275,10,2.59834e-05,-3.41399,0.499812,0.118044,0.0672351,
2,1,0,0,0,13805.2,0.0717128,0.0714006,0.394714,21,0.00421881,10,2.81828e-05,-3.40372,0.24808,0.237827,0.0712269,
2,1,0,1,0,13806,0.075708,0.0753813,0.403757,21,0.00455317,10,3.04358e-05,-3.39388,0.46141,0.127869,0.0752037,
2,1,0,0,0,13806.8,0.0797031,0.0793748,0.414708,21,0.00489495,10,3.29174e-05,-3.38226,0.389511,0.151472,0.0791924,
2,1,0,1,0,13807.6,0.0836986,0.0833516,0.42428,21,0.0052444,10,3.53644e-05,-3.37235,0.370134,0.159402,0.0831649,
2,1,0,1,0,13808.4,0.0876935,0.0873661,0.436708,21,0.005603,10,3.81535e-05,-3.35981,0.29802,0.197973,0.087174,
2,1,0,1,0,13809.2,0.0916883,0.091356,0.452767,21,0.00597185,10,4.13629e-05,-3.34413,0.227246,0.259631,0.0911567,
2,1,0,1,0,13810,0.0956838,0.0953509,0.469938,21,0.00635469,10,4.48091e-05,-3.32796,0.204296,0.288797,0.0951441,
2,1,0,0,0,13810.8,0.099679,0.0993158,0.49269,21,0.00675454,10,4.89319e-05,-3.30743,0.218358,0.270199,0.099099,
2,1,0,1,0,13811.6,0.103674,0.103335,0.518924,21,0.00717345,10,5.36229e-05,-3.2849,0.163739,0.360329,0.103106,
2,1,0,1,0,13812.4,0.10767,0.107359,0.541619,21,0.00761303,10,5.81477e-05,-3.26631,0.245871,0.239963,0.107121,
2,1,0,1,0,13813.2,0.111664,0.11132,0.563884,21,0.00806973,10,6.27718e-05,-3.24881,0.248733,0.237202,0.111072,
2,1,0,1,0,13814,0.115659,0.115341,0.580087,21,0.00854178,10,6.69079e-05,-3.23651,0.280372,0.210435,0.115086,
2,1,0,0,0,13814.8,0.119655,0.119351,0.5965,21,0.00902832,10,7.11929e-05,-3.22439,0.423579,0.139289,0.119089,
2,1,0,1,0,13815.6,0.12365,0.123333,0.613952,21,0.0095268,10,7.57206e-05,-3.21187,0.335175,0.176027,0.123063,
2,1,0,1,0,13816.4,0.127646,0.127297,0.62884,21,0.010039,10,8.00495e-05,-3.20146,0.390946,0.150916,0.12702,
2,1,0,1,0,13817.2,0.131641,0.131296,0.64115,21,0.0105629,10,8.41802e-05,-3.19304,-27.5773,-0.00213944,0.131014,
2,1,0,1,0,13818,0.135635,0.135306,0.634125,21,0.0110883,10,8.58008e-05,-3.19783,-0.411224,-0.143474,0.135027,
2,1,0,0,0,13818.8,0.139631,0.139315,0.602962,21,0.0116006,10,8.40018e-05,-3.21971,-0.13214,-0.446497,0.13905,
2,1,0,1,0,13819.6,0.143626,0.143325,0.555103,21,0.0120794,10,7.956e-05,-3.25563,-0.0871744,-0.676804,0.143081,
2,1,0,0,0,13820.4,0.147621,0.147323,0.488183,21,0.0125106,10,7.19204e-05,-3.31142,-0.0678152,-0.870011,0.147108,
2,1,0,1,0,13821.2,0.151617,0.151292,0.427783,21,0.0128903,10,6.47202e-05,-3.36878,-0.073382,-0.804012,0.151104,
2,1,0,1,0,13822,0.155612,0.155283,0.380163,21,0.0132257,10,5.90328e-05,-3.42003,-0.0872286,-0.676384,0.155116,
2,1,0,1,0,13822.8,0.159606,0.159286,0.345698,21,0.0135291,10,5.50649e-05,-3.4613,-0.116324,-0.507204,0.159134,
2,1,0,1,0,13823.6,0.163602,0.163285,0.323573,21,0.0138106,10,5.28346e-05,-3.49003,-0.140228,-0.420743,0.163142,
2,1,0,0,0,13824.4,0.167597,0.167286,0.306435,21,0.0140759,10,5.12623e-05,-3.51366,-0.240804,-0.245012,0.167151,
2,1,0,1,0,13825.2,0.171592,0.171285,0.293013,21,0.0143301,10,5.01885e-05,-3.53311,-0.23513,-0.250925,0.171156,
2,1,0,1,0,13826,0.175588,0.175254,0.28525,21,0.0145755,10,4.99912e-05,-3.54477,-0.317391,-0.185891,0.175128,
2,1,0,1,0,13826.8,0.179582,0.179217,0.277074,21,0.014814,10,4.96564e-05,-3.5574,-0.354321,-0.166516,0.179095,
2,1,0,1,0,13827.6,0.183577,0.183255,0.271822,21,0.0150477,10,4.98127e-05,-3.56572,-0.365145,-0.16158,0.183135,
2,1,0,0,0,13828.4,0.187573,0.187263,0.266031,21,0.0152765,10,4.98177e-05,-3.57507,-0.861712,-0.0684684,0.187146,
2,1,0,1,0,13829.2,0.191568,0.191229,0.261585,21,0.0155018,10,5.00225e-05,-3.58239,-0.704361,-0.0837638,0.191114,
2,1,0,0,0,13830,0.195563,0.195252,0.259514,21,0.0157242,10,5.06706e-05,-3.58584,-0.500556,-0.117869,0.195138,
2,1,0,1,0,13830.8,0.199559,0.199248,0.255357,21,0.0159436,10,5.08792e-05,-3.59285,-0.832582,-0.0708639,0.199135,
2,1,0,1,0,13831.6,0.203553,0.203204,0.250959,21,0.0161607,10,5.09958e-05,-3.6004,-0.772606,-0.076365,0.203093,
2,1,0,1,0,13832.4,0.207548,0.207251,0.250099,21,0.0163759,10,5.18333e-05,-3.60189,-1.40125,-0.0421054,0.207141,
2,1,0,1,0,13833.2,0.211544,0.211213,0.246057,21,0.0165888,10,5.19704e-05,-3.60896,-0.864868,-0.0682185,0.211105,
2,1,0,0,0,13834,0.215539,0.215248,0.245717,21,0.0168002,10,5.289e-05,-3.60957,-2.61746,-0.022541,0.21514,
2,1,0,1,0,13834.8,0.219535,0.219257,0.244833,21,0.0170097,10,5.36813e-05,-3.61113,-1.41753,-0.0416218,0.219149,
2,1,0,1,0,13835.6,0.223529,0.223195,0.242257,21,0.017218,10,5.40705e-05,-3.61572,-1.8183,-0.0324479,0.223088,
2,1,0,1,0,13836.4,0.227524,0.227276,0.241355,21,0.0174252,10,5.48542e-05,-3.61734,-0.776929,-0.07594,0.22717,
2,1,0,1,0,13837.2,0.23152,0.231243,0.240113,21,0.017631,10,5.55245e-05,-3.61958,2.56185,0.0230302,0.231137,
2,1,0,0,0,13838,0.235515,0.23519,0.237432,21,0.0178363,10,5.58416e-05,-3.62446,-1.2142,-0.0485916,0.235085,
2,1,0,1,0,13838.8,0.23951,0.239197,0.237036,21,0.0180405,10,5.66983e-05,-3.62519,-1.0253,-0.0575441,0.239093,
2,1,0,1,0,13839.6,0.243506,0.24322,0.236904,21,0.0182435,10,5.76196e-05,-3.62543,9.30193,0.00634277,0.243115,
2,1,0,1,0,13840.4,0.2475,0.247175,0.234762,21,0.018446,10,5.80272e-05,-3.62937,-1.54476,-0.0381935,0.247071,
2,1,0,1,0,13841.2,0.251495,0.25119,0.23371,21,0.0186474,10,5.87057e-05,-3.63132,-5.27286,-0.0111894,0.251087,
2,1,0,0,0,13842,0.255491,0.255178,0.233502,21,0.0188483,10,5.95846e-05,-3.63171,-2.98634,-0.0197566,0.255075,
2,1,0,1,0,13842.8,0.259486,0.259209,0.23284,21,0.0190489,10,6.03542e-05,-3.63294,-0.897642,-0.0657278,0.259107,
2,1,0,0,0,13843.6,0.263481,0.263204,0.231409,21,0.0192483,10,6.09077e-05,-3.63562,3.93036,0.0150114,0.263102,
2,1,0,1,0,13844.4,0.267477,0.267153,0.231117,21,0.0194471,10,6.17435e-05,-3.63617,-1.60088,-0.0368546,0.267051,
2,1,0,1,0,13845.2,0.271471,0.271174,0.232351,21,0.0196453,10,6.30074e-05,-3.63386,-1.86469,-0.0316406,0.271071,
2,1,0,1,0,13846,0.275466,0.275164,0.22875,21,0.0198426,10,6.29437e-05,-3.64064,-4.7254,-0.0124857,0.275063,
2,1,0,1,0,13846.8,0.279462,0.279215,0.228357,21,0.0200392,10,6.37606e-05,-3.64139,-1.54995,-0.0380658,0.279114,
2,1,0,0,0,13847.6,0.283457,0.283169,0.227559,21,0.0202349,10,6.44376e-05,-3.64291,-1.94105,-0.0303959,0.283069,
2,1,0,1,0,13848.4,0.287452,0.287141,0.226575,21,0.0204299,10,6.50591e-05,-3.64479,-13.6105,-0.00433489,0.287042,
2,1,0,1,0,13849.2,0.291448,0.29113,0.225766,21,0.0206242,10,6.5727e-05,-3.64634,-0.87381,-0.0675204,0.29103,
2,1,0,1,0,13850,0.295442,0.295126,0.225043,21,0.0208176,10,6.6416e-05,-3.64773,3.83521,0.0153838,0.295027,
2,1,0,1,0,13850.8,0.299437,0.299143,0.223674,21,0.0210106,10,6.69103e-05,-3.65039,117.363,0.000502715,0.299044,
2,1,0,0,0,13851.6,0.303433,0.303111,0.222594,21,0.0212029,10,6.74707e-05,-3.65249,-1.26091,-0.0467918,0.303013,
2,1,0,1,0,13852.4,0.307428,0.307148,0.22241,21,0.0213943,10,6.83128e-05,-3.65285,-2.42601,-0.0243197,0.30705,
2,1,0,1,0,13853.2,0.311424,0.311138,0.222887,21,0.0215854,10,6.93487e-05,-3.65191,-4.89014,-0.0120651,0.31104,
2,1,0,1,0,13854,0.315418,0.31514,0.221942,21,0.0217758,10,6.99429e-05,-3.65376,-2.62075,-0.0225126,0.315043,
2,1,0,1,0,13854.8,0.319413,0.319108,0.221418,21,0.0219657,10,7.06564e-05,-3.65479,-1.35068,-0.0436816,0.319011,
2,1,0,0,0,13855.6,0.323409,0.323104,0.220383,21,0.0221551,10,7.12065e-05,-3.65682,-1.20472,-0.0489742,0.323007,
2,1,0,1,0,13856.4,0.327404,0.327035,0.219203,21,0.0223436,10,7.16872e-05,-3.65915,1.31189,0.0449734,0.326938,
2,1,0,0,0,13857.2,0.331399,0.33108,0.217206,21,0.0225318,10,7.19127e-05,-3.66313,-1.4714,-0.0400979,0.330985,
2,1,0,1,0,13858,0.335395,0.335085,0.217699,21,0.0227194,10,7.29475e-05,-3.66214,-4.43415,-0.0133058,0.334989,
2,1,0,1,0,13858.8,0.339389,0.339095,0.218192,21,0.0229063,10,7.39879e-05,-3.66116,4.60172,0.0128213,0.338999,
2,1,0,1,0,13859.6,0.343384,0.343119,0.217574,21,0.0230928,10,7.46536e-05,-3.66239,-1.09698,-0.0537842,0.343023,
2,1,0,1,0,13860.4,0.34738,0.347098,0.216905,21,0.0232788,10,7.52873e-05,-3.66373,-2.00502,-0.0294262,0.347002,
2,1,0,0,0,13861.2,0.351375,0.351026,0.215752,21,0.0234643,10,7.57346e-05,-3.66604,358.58,0.000164538,0.350931,
2,1,0,1,0,13862,0.35537,0.355059,0.215694,21,0.0236495,10,7.65843e-05,-3.66616,-5.37918,-0.0109682,0.354964,
2,1,0,1,0,13862.8,0.359366,0.359104,0.21536,21,0.0238344,10,7.73365e-05,-3.66684,-3.6778,-0.0160422,0.359009,
2,1,0,1,0,13863.6,0.36336,0.363035,0.213615,21,0.024019,10,7.75499e-05,-3.67037,-6.85075,-0.00861219,0.362941,
2,1,0,1,0,13864.4,0.367355,0.367084,0.214084,21,0.0242032,10,7.85867e-05,-3.66942,44.1211,0.00133723,0.36699,
2,1,0,0,0,13865.2,0.371351,0.371017,0.213098,21,0.0243871,10,7.9063e-05,-3.67142,3.72904,0.0158218,0.370924,
2,1,0,1,0,13866,0.375346,0.375064,0.214283,21,0.0245709,10,8.03698e-05,-3.66901,-1.99446,-0.029582,0.37497,
2,1,0,1,0,13866.8,0.379342,0.379059,0.213477,21,0.0247541,10,8.09202e-05,-3.67065,-1.56855,-0.0376144,0.378965,
2,1,0,1,0,13867.6,0.383336,0.382995,0.213712,21,0.0249368,10,8.18504e-05,-3.67017,2.06405,0.0285846,0.382901,
2,1,0,1,0,13868.4,0.387331,0.387024,0.212617,21,0.0251195,10,8.22878e-05,-3.6724,-1.54773,-0.0381204,0.38693,
2,1,0,0,0,13869.2,0.391327,0.391026,0.212457,21,0.0253018,10,8.30764e-05,-3.67273,-3.37214,-0.0174963,0.390933,
2,1,0,1,0,13870,0.395322,0.394994,0.21162,21,0.0254842,10,8.35885e-05,-3.67444,-22.5985,-0.0026108,0.394901,
2,1,0,0,0,13870.8,0.399317,0.399028,0.212345,21,0.025666,10,8.47318e-05,-3.67296,5.30379,0.0111241,0.398935,
2,1,0,1,0,13871.6,0.403313,0.402999,0.21181,21,0.0258476,10,8.53593e-05,-3.67405,4.33623,0.0136063,0.402905,
2,1,0,1,0,13872.4,0.407307,0.407,0.212177,21,0.0260291,10,8.63561e-05,-3.6733,-1.91485,-0.0308119,0.406907,
2,1,0,1,0,13873.2,0.411302,0.410973,0.212088,21,0.0262104,10,8.71626e-05,-3.67348,7.09625,0.00831425,0.41088,
2,1,0,1,0,13874,0.415298,0.415003,0.21072,21,0.0263916,10,8.74495e-05,-3.67629,-5.16229,-0.011429,0.41491,
2,1,0,0,0,13874.8,0.419293,0.418998,0.210582,21,0.0265725,10,8.82332e-05,-3.67658,-1.68836,-0.0349451,0.418905,
2,1,0,1,0,13875.6,0.423288,0.422987,0.210883,21,0.0267531,10,8.92007e-05,-3.67596,4.48795,0.0131463,0.422894,
2,1,0,1,0,13876.4,0.427283,0.426998,0.210128,21,0.0269338,10,8.97243e-05,-3.67752,12.9371,0.00456052,0.426905,
2,1,0,1,0,13877.2,0.431278,0.430959,0.211198,21,0.0271142,10,9.10176e-05,-3.67531,2.51606,0.0234494,0.430866,
2,1,0,1,0,13878,0.435273,0.434976,0.210853,21,0.0272946,10,9.1716e-05,-3.67602,2.01841,0.029231,0.434883,
2,1,0,0,0,13878.8,0.439269,0.438984,0.210866,21,0.0274753,10,9.25668e-05,-3.67599,-1.36474,-0.0432315,0.438891,
2,1,0,1,0,13879.6,0.443264,0.442992,0.211681,21,0.0276557,10,9.37733e-05,-3.67432,2.80432,0.021039,0.442899,
2,1,0,0,0,13880.3,0.447259,0.446973,0.210624,21,0.0278363,10,9.41432e-05,-3.67649,-4.15286,-0.0142071,0.446881,
2,1,0,1,0,13881.1,0.451254,0.450983,0.210967,21,0.0280171,10,9.51427e-05,-3.67578,7.47779,0.00789003,0.45089,
2,1,0,1,0,13881.9,0.455249,0.455007,0.211189,21,0.0281977,10,9.60926e-05,-3.67533,-6.01009,-0.00981682,0.454914,
2,1,0,1,0,13882.7,0.459244,0.458948,0.211211,21,0.0283787,10,9.6935e-05,-3.67528,1.28918,0.0457654,0.458855,
2,1,0,1,0,13883.5,0.46324,0.462941,0.212354,21,0.0285603,10,9.83075e-05,-3.67294,-37.2666,-0.00158319,0.462847,
2,1,0,0,0,13884.3,0.467235,0.466909,0.212278,21,0.0287418,10,9.91144e-05,-3.6731,2.80674,0.0210208,0.466815,
2,1,0,1,0,13885.1,0.471231,0.470923,0.212968,21,0.0289237,10,0.000100291,-3.67169,4.23041,0.0139467,0.470829,
2,1,0,1,0,13885.9,0.475225,0.474908,0.214726,21,0.0291059,10,0.000101975,-3.66812,2.67077,0.022091,0.474813,
2,1,0,1,0,13886.7,0.47922,0.478952,0.214477,21,0.0292885,10,0.000102724,-3.66862,2.291,0.025753,0.478857,
2,1,0,1,0,13887.5,0.483216,0.482954,0.215923,21,0.029472,10,0.000104281,-3.6657,-3.87925,-0.0152091,0.482859,
2,1,0,0,0,13888.3,0.487211,0.486924,0.215272,21,0.0296557,10,0.000104821,-3.66701,0.929001,0.0635091,0.486829,
2,1,0,1,0,13889.1,0.491206,0.490908,0.216384,21,0.0298402,10,0.000106225,-3.66477,3.70685,0.0159165,0.490813,
2,1,0,1,0,13889.9,0.495201,0.494939,0.218439,21,0.0300252,10,0.000108114,-3.66067,1.65474,0.0356551,0.494843,
2,1,0,1,0,13890.7,0.499196,0.49892,0.218766,21,0.030211,10,0.000109147,-3.66002,1.78103,0.033127,0.498824,
2,1,0,1,0,13891.5,0.503191,0.502918,0.220437,21,0.0303979,10,0.000110862,-3.65671,2.08831,0.0282525,0.502821,
2,1,0,0,0,13892.3,0.507187,0.5069,0.220586,21,0.0305854,10,0.000111815,-3.65642,3.9527,0.0149265,0.506803,
2,1,0,1,0,13893.1,0.511182,0.510891,0.22184,21,0.0307737,10,0.000113336,-3.65396,1.12937,0.0522416,0.510794,
2,1,0,0,0,13893.9,0.515177,0.514897,0.223626,21,0.030963,10,0.000115144,-3.65048,3.97855,0.0148295,0.514798,
2,1,0,1,0,13894.7,0.519173,0.518868,0.22421,21,0.0311532,10,0.000116335,-3.64935,0.984288,0.0599418,0.518769,
2,1,0,1,0,13895.5,0.523167,0.522865,0.225638,21,0.0313444,10,0.000117978,-3.64659,2.56225,0.0230267,0.522766,
2,1,0,1,0,13896.3,0.527162,0.526872,0.227773,21,0.0315369,10,0.000120007,-3.6425,1.19248,0.0494768,0.526772,
2,1,0,1,0,13897.1,0.531158,0.530884,0.229116,21,0.0317305,10,0.000121634,-3.63994,0.889248,0.0663482,0.530783,
2,1,0,0,0,13897.9,0.535153,0.534875,0.230802,21,0.0319256,10,0.00012345,-3.63676,1.47298,0.0400548,0.534773,
2,1,0,1,0,13898.7,0.539148,0.53888,0.233109,21,0.0321223,10,0.000125618,-3.63244,0.949674,0.0621266,0.538777,
2,1,0,1,0,13899.5,0.543143,0.542878,0.234684,21,0.0323208,10,0.000127405,-3.62952,0.792927,0.0744079,0.542774,
2,1,0,1,0,13900.3,0.547138,0.546816,0.237884,21,0.0325211,10,0.000130079,-3.62363,1.55171,0.0380226,0.546711,
2,1,0,1,0,13901.1,0.551133,0.550867,0.240451,21,0.0327232,10,0.000132457,-3.61897,0.654541,0.0901395,0.550762,
2,1,0,0,0,13901.9,0.555129,0.554864,0.242698,21,0.032928,10,0.000134665,-3.61493,0.561553,0.105066,0.554758,
2,1,0,1,0,13902.7,0.559124,0.558832,0.247199,21,0.033135,10,0.000138143,-3.60695,0.952706,0.0619289,0.558724,
2,1,0,1,0,13903.5,0.56312,0.562826,0.250329,21,0.0333445,10,0.000140892,-3.60149,0.581373,0.101484,0.562716,
2,1,0,1,0,13904.3,0.567114,0.566841,0.252831,21,0.0335571,10,0.000143315,-3.59717,0.595155,0.0991339,0.566729,
2,1,0,1,0,13905.1,0.571109,0.570818,0.258615,21,0.0337728,10,0.000147622,-3.58735,0.514955,0.114573,0.570704,
2,1,0,0,0,13905.9,0.575105,0.574814,0.262377,21,0.0339922,10,0.000150818,-3.58107,0.465038,0.126871,0.574698,
2,1,0,1,0,13906.7,0.5791,0.578824,0.268369,21,0.034216,10,0.000155339,-3.57127,0.523287,0.112749,0.578706,
2,1,0,0,0,13907.5,0.583095,0.582796,0.276468,21,0.0344443,10,0.000161125,-3.55835,0.333221,0.17706,0.582675,
2,1,0,1,0,13908.3,0.58709,0.586764,0.281302,21,0.0346777,10,0.000165058,-3.55083,0.356085,0.165691,0.58664,
2,1,0,1,0,13909.1,0.591085,0.59079,0.28933,21,0.0349168,10,0.000170933,-3.53861,0.335271,0.175977,0.590662,
2,1,0,1,0,13909.9,0.59508,0.594761,0.297738,21,0.0351622,10,0.000177083,-3.52617,0.283863,0.207847,0.59463,
2,1,0,1,0,13910.7,0.599076,0.5988,0.308629,21,0.0354151,10,0.000184807,-3.51056,0.301478,0.195703,0.598664,
2,1,0,0,0,13911.5,0.603071,0.602759,0.318553,21,0.0356763,10,0.00019201,-3.49682,0.238976,0.246887,0.602618,
2,1,0,1,0,13912.3,0.607066,0.606798,0.331859,21,0.0359473,10,0.000201372,-3.47905,0.214405,0.275181,0.606652,
2,1,0,1,0,13913.1,0.611061,0.610796,0.348288,21,0.0362296,10,0.000212733,-3.45806,0.204314,0.288771,0.610642,
2,1,0,1,0,13913.9,0.615056,0.61477,0.364478,21,0.036525,10,0.00022407,-3.43833,0.159086,0.37087,0.614609,
2,1,0,1,0,13914.7,0.619051,0.618792,0.384698,21,0.036836,10,0.000238048,-3.41488,0.159559,0.36977,0.618622,
2,1,0,0,0,13915.5,0.623047,0.622767,0.409211,21,0.0371646,10,0.000254843,-3.38805,0.14919,0.395468,0.622587,
2,1,0,1,0,13916.3,0.627042,0.626762,0.437951,21,0.0375138,10,0.000274491,-3.35857,0.129104,0.456996,0.626569,
2,1,0,1,0,13917.1,0.631037,0.630789,0.469757,21,0.0378873,10,0.000296318,-3.32813,0.124434,0.474148,0.630582,
2,1,0,1,0,13917.9,0.635032,0.634782,0.508938,21,0.0382891,10,0.000323064,-3.29334,0.111731,0.528054,0.634558,
2,1,0,1,0,13918.7,0.639027,0.638784,0.553023,21,0.038724,10,0.000353262,-3.25726,0.105223,0.560714,0.63854,
2,1,0,1,0,13919.5,0.643022,0.642764,0.606145,21,0.039198,10,0.000389608,-3.21742,0.0951732,0.619922,0.642497,
2,1,0,1,0,13920.3,0.647018,0.646738,0.670218,21,0.0397188,10,0.000433455,-3.17378,0.0902189,0.653965,0.646443,
2,1,0,0,0,13921.1,0.651013,0.650747,0.7438,21,0.0402945,10,0.000484026,-3.12854,0.0811149,0.727363,0.65042,
2,1,0,1,0,13921.9,0.655008,0.654692,0.833839,21,0.0409353,10,0.000545908,-3.07892,0.0816646,0.722467,0.654325,
2,1,0,1,0,13922.7,0.659003,0.658713,0.936196,21,0.041652,10,0.000616685,-3.02863,0.0768765,0.767465,0.658301,
2,1,0,1,0,13923.5,0.662998,0.662743,1.05631,21,0.0424575,10,0.00070006,-2.97621,0.0742068,0.795075,0.662278,
2,1,0,1,0,13924.3,0.666994,0.666695,1.19496,21,0.0433663,10,0.000796674,-2.92265,0.0704847,0.837061,0.666169,
2,1,0,0,0,13925.1,0.670989,0.670697,1.35713,21,0.0443957,10,0.000910221,-2.86738,0.07102,0.830751,0.6701,
2,1,0,1,0,13925.9,0.674984,0.674706,1.54346,21,0.0455642,10,0.00104139,-2.8115,0.0702603,0.839735,0.674027,
2,1,0,1,0,13926.7,0.67898,0.678679,1.75573,21,0.0468914,10,0.00119157,-2.75554,0.0688742,0.856635,0.677906,
2,1,0,1,0,13927.5,0.682974,0.682655,1.99814,21,0.0484011,10,0.00136404,-2.69937,0.0691544,0.853163,0.681776,
2,1,0,1,0,13928.3,0.686969,0.686703,2.27155,21,0.0501159,10,0.00155988,-2.64368,0.0703466,0.838704,0.685704,
2,1,0,0,0,13929.1,0.690965,0.690678,2.57545,21,0.0520623,10,0.00177881,-2.58915,0.0705519,0.836263,0.689545,
2,1,0,1,0,13929.9,0.69496,0.694676,2.9149,21,0.0542656,10,0.00202491,-2.53538,0.0724136,0.814764,0.693393,
2,1,0,0,0,13930.7,0.698955,0.698685,3.28618,21,0.0567521,10,0.00229601,-2.48331,0.0755048,0.781407,0.697239,
2,1,0,1,0,13931.5,0.70295,0.702655,3.69415,21,0.0595514,10,0.00259572,-2.43249,0.0750666,0.785969,0.70103,
2,1,0,1,0,13932.3,0.706945,0.706707,4.13859,21,0.0626905,10,0.00292477,-2.38315,0.0788212,0.74853,0.704886,
2,1,0,1,0,13933.1,0.71094,0.710681,4.61506,21,0.0661969,10,0.00327984,-2.33582,0.0816724,0.722399,0.708651,
2,1,0,1,0,13933.9,0.714936,0.714628,5.12608,21,0.0700994,10,0.00366324,-2.29021,0.0838894,0.703307,0.712373,
2,1,0,0,0,13934.7,0.718931,0.718657,5.67288,21,0.0744235,10,0.00407685,-2.2462,0.0865328,0.681822,0.716161,
2,1,0,1,0,13935.5,0.722927,0.722652,6.25013,21,0.0791976,10,0.00451667,-2.20411,0.0912732,0.646411,0.719902,
2,1,0,1,0,13936.3,0.726921,0.726648,6.86285,21,0.0844464,10,0.00498688,-2.1635,0.0938582,0.628608,0.723628,
2,1,0,1,0,13937.1,0.730916,0.73063,7.50296,21,0.0901954,10,0.00548188,-2.12477,0.0954872,0.617884,0.727328,
2,1,0,1,0,13937.9,0.734911,0.73468,8.17742,21,0.0964712,10,0.00600779,-2.08738,0.101802,0.579558,0.731082,
2,1,0,0,0,13938.7,0.738907,0.738636,8.8834,21,0.103298,10,0.0065616,-2.05142,0.103926,0.567714,0.734727,
2,1,0,1,0,13939.5,0.742902,0.742634,9.61816,21,0.110699,10,0.00714277,-2.01691,0.108581,0.543374,0.738402,
2,1,0,1,0,13940.3,0.746897,0.746637,10.3875,21,0.118703,10,0.00775572,-1.98349,0.110983,0.531611,0.742067,
2,1,0,1,0,13941.1,0.750892,0.750626,11.1973,21,0.127336,10,0.00840499,-1.95089,0.113779,0.518551,0.745699,
2,1,0,1,0,13941.9,0.754887,0.754642,12.0367,21,0.136629,10,0.00908342,-1.91949,0.115319,0.511623,0.749346,
2,1,0,0,0,13942.7,0.758883,0.758607,12.9316,21,0.146615,10,0.00980997,-1.88835,0.115373,0.511387,0.752917,
2,1,0,1,0,13943.5,0.762878,0.762584,13.8773,21,0.157335,10,0.0105826,-1.85769,0.117939,0.500258,0.756478,
2,1,0,0,0,13944.3,0.766873,0.766614,14.8775,21,0.168833,10,0.0114053,-1.82747,0.117102,0.503834,0.760068,
2,1,0,1,0,13945.1,0.770868,0.770603,15.9535,21,0.181159,10,0.0122938,-1.79714,0.115985,0.508685,0.763584,
2,1,0,1,0,13945.9,0.774863,0.774625,17.0939,21,0.194373,10,0.0132414,-1.76716,0.118813,0.496578,0.767104,
2,1,0,1,0,13946.7,0.778858,0.778557,18.3028,21,0.208518,10,0.0142498,-1.73748,0.114086,0.517156,0.770503,
2,1,0,1,0,13947.5,0.782854,0.782616,19.5819,21,0.223662,10,0.0153251,-1.70814,0.118709,0.497014,0.774,
2,1,0,0,0,13948.3,0.786849,0.786607,20.9173,21,0.239847,10,0.0164537,-1.67949,0.131025,0.450297,0.777403,
2,1,0,1,0,13949.1,0.790844,0.790572,22.2355,21,0.25706,10,0.0175788,-1.65295,0.117223,0.503315,0.780788,
2,1,0,1,0,13949.9,0.794839,0.794608,23.7188,21,0.27543,10,0.0188471,-1.62491,0.121622,0.485109,0.784171,
2,1,0,1,0,13950.7,0.798834,0.798592,25.268,21,0.294995,10,0.0201789,-1.59743,0.120827,0.4883,0.787474,
2,1,0,1,0,13951.5,0.802829,0.80257,26.8209,21,0.315818,10,0.0215256,-1.57153,0.131549,0.448501,0.790769,
2,1,0,0,0,13952.3,0.806825,0.806592,28.3916,21,0.337892,10,0.0229005,-1.54681,0.136445,0.432409,0.7941,
2,1,0,1,0,13953.1,0.81082,0.81055,30.0075,21,0.361232,10,0.0243226,-1.52277,0.140486,0.419972,0.797346,
2,1,0,1,0,13953.9,0.814815,0.814515,31.637,21,0.385868,10,0.0257688,-1.49981,0.142425,0.414253,0.800595,
2,1,0,1,0,13954.7,0.81881,0.818499,32.5403,21,0.41155,10,0.0266342,-1.48758,0.295195,0.199868,0.804182,
2,1,0,1,0,13955.5,0.822805,0.822572,34.2083,21,0.43824,10,0.0281388,-1.46587,0.157171,0.375388,0.80752,
2,1,0,0,0,13956.3,0.826801,0.826604,35.859,21,0.466246,10,0.0296412,-1.4454,0.158719,0.371727,0.810826,
2,1,0,1,0,13957.1,0.830796,0.830523,37.974,21,0.495712,10,0.0315383,-1.42051,0.128446,0.459336,0.813815,
2,1,0,0,0,13957.9,0.834791,0.834542,39.5799,21,0.526719,10,0.0330311,-1.40253,0.18979,0.310871,0.817127,
2,1,0,1,0,13958.7,0.838786,0.838529,41.1546,21,0.559007,10,0.0345093,-1.38558,0.196379,0.30044,0.820421,
2,1,0,1,0,13959.5,0.842781,0.842517,42.7917,21,0.592556,10,0.0360527,-1.36864,0.405439,0.145521,0.823689,
2,1,0,1,0,13960.3,0.846776,0.846517,43.7286,21,0.627052,10,0.037017,-1.35923,0.205596,0.28697,0.827277,
2,1,0,0,0,13961,0.849723,0.849448,44.6585,21,0.658099,10,0.0379351,-1.3501,0.0487606,1.20999,0.829799,
2,1,0,1,0,13961.8,0.845728,0.845455,42.2565,21,0.692698,10,0.035726,-1.37411,0.149999,0.393337,0.826862,
2,1,0,0,0,13962.6,0.841732,0.84151,40.3265,21,0.725662,10,0.0339352,-1.39441,0.15838,0.372523,0.823766,
2,1,0,1,0,13963.3,0.837737,0.837471,38.3258,21,0.757076,10,0.0320967,-1.41651,0.138077,0.427297,0.820607,
2,1,0,1,0,13964.1,0.833742,0.833511,36.5415,21,0.786968,10,0.0304577,-1.43721,0.149843,0.393746,0.817432,
2,1,0,1,0,13964.9,0.829747,0.829518,34.7502,21,0.815422,10,0.028826,-1.45904,0.149301,0.395176,0.814228,
2,1,0,1,0,13965.7,0.825752,0.825473,33.0655,21,0.842506,10,0.0272947,-1.48063,0.14674,0.402071,0.810924,
2,1,0,0,0,13966.5,0.821757,0.821514,31.3794,21,0.868236,10,0.0257786,-1.50336,0.144729,0.407659,0.807707,
2,1,0,1,0,13967.3,0.817761,0.817482,29.7029,21,0.892627,10,0.0242816,-1.5272,0.132305,0.44594,0.804413,
2,1,0,1,0,13968.1,0.813766,0.813458,28.1324,21,0.915691,10,0.0228845,-1.55079,0.144684,0.407786,0.80108,
2,1,0,1,0,13968.9,0.809771,0.809497,26.6033,21,0.937556,10,0.0215353,-1.57507,0.127299,0.463476,0.797791,
2,1,0,1,0,13969.7,0.805776,0.805517,25.007,21,0.958157,10,0.0201435,-1.60194,0.123787,0.476625,0.794514,
2,1,0,0,0,13970.5,0.801781,0.801512,23.4885,21,0.977521,10,0.0188263,-1.62914,0.119937,0.491923,0.791177,
2,1,0,1,0,13971.3,0.797786,0.79752,21.9753,21,0.995675,10,0.0175258,-1.65806,0.113526,0.519704,0.787851,
2,1,0,1,0,13972.1,0.79379,0.79352,20.5827,21,1.01266,10,0.0163328,-1.6865,0.119145,0.495194,0.784464,
2,1,0,1,0,13972.9,0.789795,0.789531,19.2566,21,1.02856,10,0.0152037,-1.71542,0.113473,0.519949,0.781058,
2,1,0,1,0,13973.7,0.7858,0.785518,17.96,21,1.04341,10,0.0141079,-1.74569,0.113365,0.520442,0.777615,
2,1,0,0,0,13974.5,0.781805,0.781522,16.7213,21,1.05725,10,0.013068,-1.77673,0.111169,0.530722,0.774165,
2,1,0,1,0,13975.3,0.77781,0.777558,15.5491,21,1.07012,10,0.0120903,-1.80829,0.107859,0.547009,0.770717,
2,1,0,0,0,13976.1,0.773815,0.773538,14.4118,21,1.08208,10,0.0111481,-1.84128,0.105333,0.560129,0.767197,
2,1,0,1,0,13976.9,0.769819,0.769543,13.338,21,1.09315,10,0.0102642,-1.87491,0.104328,0.565523,0.763674,
2,1,0,1,0,13977.7,0.765824,0.765557,12.3169,21,1.10338,10,0.0094293,-1.9095,0.101068,0.583765,0.760138,
2,1,0,1,0,13978.5,0.761829,0.76156,11.3482,21,1.11282,10,0.00864233,-1.94507,0.10052,0.586945,0.756567,
2,1,0,1,0,13979.3,0.757834,0.757541,10.4316,21,1.1215,10,0.00790235,-1.98165,0.151336,0.389862,0.752951,
2,1,0,0,0,13980.1,0.753839,0.753562,9.87101,21,1.12967,10,0.00743842,-2.00564,0.0968523,0.609175,0.749219,
2,1,0,1,0,13980.9,0.749844,0.749595,9.04118,21,1.13721,10,0.00677722,-2.04378,0.0946174,0.623564,0.745617,
2,1,0,1,0,13981.7,0.745848,0.745589,8.24765,21,1.14411,10,0.00614935,-2.08367,0.0913514,0.645858,0.74196,
2,1,0,1,0,13982.5,0.741853,0.741572,7.49339,21,1.15038,10,0.00555689,-2.12532,0.0866204,0.681133,0.738275,
2,1,0,1,0,13983.3,0.737858,0.737556,6.79628,21,1.15608,10,0.00501264,-2.16773,0.0856918,0.688514,0.734565,
2,1,0,0,0,13984.1,0.733863,0.733647,6.14636,21,1.16123,10,0.00450926,-2.21138,0.0830225,0.71065,0.730942,
2,1,0,1,0,13984.9,0.729868,0.729657,5.53758,21,1.16588,10,0.00404054,-2.25668,0.0808981,0.729313,0.727221,
2,1,0,1,0,13985.7,0.725872,0.725569,4.97457,21,1.17007,10,0.0036094,-2.30324,0.0797204,0.740087,0.72338,
2,1,0,1,0,13986.5,0.721877,0.721574,4.4518,21,1.17382,10,0.0032123,-2.35146,0.0769477,0.766754,0.719615,
2,1,0,1,0,13987.3,0.717882,0.717596,3.97042,21,1.17717,10,0.00284916,-2.40116,0.0757788,0.778582,0.715849,
2,1,0,0,0,13988.1,0.713887,0.713646,3.52557,21,1.18015,10,0.00251601,-2.45277,0.0723454,0.815532,0.712095,
2,1,0,1,0,13988.9,0.709892,0.709615,3.11655,21,1.18279,10,0.00221155,-2.50633,0.0691563,0.85314,0.708243,
2,1,0,0,0,13989.7,0.705897,0.705625,2.74216,21,1.18512,10,0.00193494,-2.56191,0.0675819,0.873015,0.704419,
2,1,0,1,0,13990.5,0.701901,0.701617,2.40055,21,1.18716,10,0.00168427,-2.61969,0.0654939,0.900847,0.700561,
2,1,0,1,0,13991.3,0.697906,0.697631,2.08792,21,1.18894,10,0.0014566,-2.68029,0.0630766,0.935371,0.696712,
2,1,0,1,0,13992.1,0.693911,0.693654,1.80872,21,1.19048,10,0.00125463,-2.74263,0.0607227,0.97163,0.692858,
2,1,0,1,0,13992.9,0.689916,0.689633,1.55698,21,1.19181,10,0.00107374,-2.80772,0.0590641,0.998914,0.688948,
2,1,0,0,0,13993.7,0.685921,0.685658,1.33303,21,1.19296,10,0.000914005,-2.87516,0.056224,1.04937,0.685072,
2,1,0,1,0,13994.5,0.681926,0.681608,1.13347,21,1.19393,10,0.000772581,-2.94559,0.0541104,1.09036,0.68111,
2,1,0,1,0,13995.3,0.67793,0.677654,0.956636,21,1.19475,10,0.000648268,-3.01925,0.0531675,1.1097,0.677233,
2,1,0,1,0,13996.1,0.673935,0.673646,0.802773,21,1.19544,10,0.000540785,-3.09541,0.049807,1.18457,0.673293,
2,1,0,1,0,13996.9,0.66994,0.669653,0.667319,21,1.19602,10,0.000446872,-3.17567,0.0474311,1.24391,0.669359,
2,1,0,0,0,13997.7,0.665945,0.665653,0.548323,21,1.19649,10,0.000364993,-3.26096,0.0461919,1.27728,0.665412,
2,1,0,1,0,13998.5,0.66195,0.661676,0.44684,21,1.19687,10,0.000295663,-3.34985,0.0429227,1.37456,0.661479,
2,1,0,0,0,13999.3,0.657955,0.657683,0.35833,21,1.19718,10,0.000235668,-3.44572,0.0399114,1.47828,0.657526,
2,1,0,1,0,14000.1,0.653959,0.653714,0.284522,21,1.19743,10,0.000185996,-3.54588,0.0379587,1.55432,0.653589,
2,1,0,1,0,14000.9,0.649964,0.649739,0.221202,21,1.19762,10,0.000143724,-3.65521,0.0349752,1.68691,0.649642,
2,1,0,1,0,14001.7,0.64597,0.645664,0.168271,21,1.19776,10,0.000108647,-3.77399,0.0305613,1.93055,0.64559,
2,1,0,1,0,14002.5,0.641974,0.641625,0.121053,21,1.19787,10,7.76705e-05,-3.91703,0.0272033,2.16886,0.641571,
2,1,0,0,0,14003.3,0.637979,0.637735,0.0843676,21,1.19794,10,5.38042e-05,-4.07382,0.0216198,2.72898,0.637698,
2,1,0,1,0,14004.1,0.633983,0.633689,0.0529031,21,1.19798,10,3.35241e-05,-4.27652,0.0165198,3.57147,0.633666,
2,1,0,1,0,14004.9,0.629988,0.629728,0.025819,21,1.198,10,1.62589e-05,-4.58806,0.00887444,6.6483,0.629716,
2,1,0,1,0,14005.7,0.625993,0.625691,0.00383535,21,1.198,10,2.39974e-06,-5.4162,0.0144985,4.0694,0.625689,
2,0,0,1,0,14006.5,0.621998,0.621697,-0.0159252,21,1.19798,10,-9.90063e-06,-4.79792,-0.00791485,-7.45434,0.621704,
2,0,0,0,0,14007.3,0.618003,0.617732,-0.0311045,21,1.19796,10,-1.92143e-05,-4.50718,-0.0181229,-3.25555,0.617745,
2,0,0,1,0,14008.1,0.614008,0.613718,-0.0430772,21,1.19791,10,-2.64373e-05,-4.36575,-0.040819,-1.44541,0.613737,
2,0,0,1,0,14008.9,0.610012,0.609782,-0.0542108,21,1.19786,10,-3.30568e-05,-4.26591,-0.0444443,-1.3275,0.609806,
2,0,0,1,0,14009.7,0.606017,0.605735,-0.0628703,21,1.19781,10,-3.80828e-05,-4.20155,-0.0681885,-0.865248,0.605763,
2,0,0,1,0,14010.5,0.602022,0.601712,-0.0714665,21,1.19774,10,-4.30023e-05,-4.1459,-0.104149,-0.566496,0.601744,
2,0,0,0,0,14011.3,0.598027,0.597718,-0.0775938,21,1.19767,10,-4.63792e-05,-4.11017,-0.103585,-0.56958,0.597753,
2,0,0,1,0,14012.1,0.594032,0.593753,-0.0830825,21,1.19759,10,-4.93304e-05,-4.08049,-0.145141,-0.406502,0.593789,
2,0,0,0,0,14012.9,0.590037,0.589728,-0.0875391,21,1.19752,10,-5.16243e-05,-4.0578,-0.219485,-0.268812,0.589767,
2,0,0,1,0,14013.7,0.586041,0.585756,-0.0910063,21,1.19743,10,-5.33075e-05,-4.04093,-0.338102,-0.174504,0.585796,
2,0,0,1,0,14014.5,0.582046,0.581739,-0.0952652,21,1.19735,10,-5.54195e-05,-4.02107,-0.220202,-0.267936,0.581781,
2,0,0,1,0,14015.3,0.578052,0.577765,-0.0980891,21,1.19726,10,-5.66725e-05,-4.00838,-0.234704,-0.251381,0.577808,
2,0,0,1,0,14016.1,0.574056,0.57378,-0.100057,21,1.19717,10,-5.74105e-05,-3.99975,-0.392671,-0.150253,0.573824,
2,0,0,0,0,14016.9,0.570061,0.569802,-0.102954,21,1.19707,10,-5.86635e-05,-3.98736,-1.62173,-0.0363809,0.569848,
2,0,0,1,0,14017.7,0.566065,0.565786,-0.104825,21,1.19698,10,-5.93084e-05,-3.97954,-0.279118,-0.21138,0.565832,
2,0,0,1,0,14018.5,0.56207,0.561736,-0.107482,21,1.19688,10,-6.03762e-05,-3.96867,-0.806865,-0.0731226,0.561783,
2,0,0,1,0,14019.3,0.558075,0.55775,-0.108151,21,1.19679,10,-6.03212e-05,-3.96597,-0.775822,-0.0760483,0.557798,
2,0,0,1,0,14020.1,0.55408,0.553779,-0.109954,21,1.19669,10,-6.08905e-05,-3.95879,-0.370977,-0.159039,0.553827,
2,0,0,0,0,14020.9,0.550085,0.549822,-0.111374,21,1.19659,10,-6.1236e-05,-3.95322,-9.56599,-0.00616768,0.549871,
2,0,0,1,0,14021.7,0.54609,0.545777,-0.112487,21,1.19649,10,-6.13929e-05,-3.9489,-0.670617,-0.0879786,0.545826,
2,0,0,1,0,14022.5,0.542094,0.541774,-0.112733,21,1.19639,10,-6.1076e-05,-3.94795,9.42574,0.00625946,0.541824,
2,0,0,1,0,14023.3,0.538099,0.537814,-0.114646,21,1.19629,10,-6.1658e-05,-3.94064,-0.631788,-0.0933857,0.537864,
2,0,0,1,0,14024.1,0.534104,0.533838,-0.11572,21,1.19618,10,-6.17756e-05,-3.93659,-0.925173,-0.0637718,0.533889,
2,0,0,0,0,14024.9,0.530109,0.529789,-0.116976,21,1.19608,10,-6.19727e-05,-3.9319,-1.59617,-0.0369634,0.52984,
2,0,0,1,0,14025.7,0.526114,0.525856,-0.117739,21,1.19597,10,-6.19137e-05,-3.92908,-0.655326,-0.0900315,0.525908,
2,0,0,0,0,14026.5,0.522119,0.521815,-0.119101,21,1.19587,10,-6.21485e-05,-3.92409,-0.650631,-0.0906813,0.521867,
2,0,0,1,0,14027.3,0.518123,0.517812,-0.119796,21,1.19576,10,-6.20318e-05,-3.92156,-3.18618,-0.0185175,0.517865,
2,0,0,1,0,14028.1,0.514128,0.513821,-0.121286,21,1.19565,10,-6.23192e-05,-3.91619,-3.87704,-0.0152178,0.513875,
2,0,0,1,0,14028.9,0.510133,0.509798,-0.120822,21,1.19554,10,-6.15947e-05,-3.91786,-0.493452,-0.119566,0.509852,
2,0,0,1,0,14029.7,0.506138,0.505805,-0.122459,21,1.19544,10,-6.19403e-05,-3.91201,-25.0976,-0.00235082,0.505858,
2,0,0,0,0,14030.5,0.502143,0.501849,-0.123398,21,1.19533,10,-6.19274e-05,-3.90869,-0.555912,-0.106132,0.501904,
2,0,0,1,0,14031.3,0.498148,0.497834,-0.125442,21,1.19521,10,-6.24492e-05,-3.90156,-2.79449,-0.021113,0.497889,
2,0,0,1,0,14032.1,0.494152,0.49384,-0.125786,21,1.1951,10,-6.21183e-05,-3.90037,-0.701354,-0.0841231,0.493895,
2,0,0,1,0,14032.9,0.490157,0.489871,-0.126441,21,1.19499,10,-6.19398e-05,-3.89811,-2.9642,-0.0199042,0.489926,
2,0,0,1,0,14033.7,0.486162,0.485878,-0.127239,21,1.19488,10,-6.18225e-05,-3.89538,-1.54512,-0.0381848,0.485934,
2,0,0,0,0,14034.5,0.482167,0.481817,-0.129012,21,1.19476,10,-6.21603e-05,-3.88937,-0.949095,-0.0621645,0.481874,
2,0,0,1,0,14035.3,0.478172,0.477884,-0.12929,21,1.19465,10,-6.17859e-05,-3.88843,-0.548846,-0.107498,0.477941,
2,0,0,0,0,14036.1,0.474177,0.473883,-0.131564,21,1.19453,10,-6.23458e-05,-3.88086,0.857711,0.0687877,0.473941,
2,0,0,1,0,14036.9,0.470181,0.469868,-0.13229,21,1.19442,10,-6.2159e-05,-3.87847,-0.285759,-0.206468,0.469927,
2,0,0,1,0,14037.7,0.466186,0.46585,-0.134233,21,1.1943,10,-6.25325e-05,-3.87214,2.42962,0.0242836,0.465909,
2,0,0,1,0,14038.5,0.462191,0.4619,-0.135996,21,1.19418,10,-6.28164e-05,-3.86647,-0.759937,-0.077638,0.46196,
2,0,0,1,0,14039.3,0.458196,0.457926,-0.137493,21,1.19406,10,-6.29615e-05,-3.86172,-0.563449,-0.104712,0.457987,
2,0,0,0,0,14040.1,0.454201,0.453909,-0.138193,21,1.19394,10,-6.27273e-05,-3.85951,-0.843019,-0.0699866,0.45397,
2,0,0,1,0,14040.9,0.450205,0.449961,-0.140379,21,1.19381,10,-6.31653e-05,-3.8527,-9.412,-0.00626859,0.450023,
2,0,0,1,0,14041.7,0.44621,0.445927,-0.141101,21,1.19369,10,-6.29207e-05,-3.85047,-0.39493,-0.149394,0.445989,
2,0,0,1,0,14042.5,0.442215,0.44193,-0.143782,21,1.19356,10,-6.35417e-05,-3.84229,13.6133,0.00433399,0.441993,
2,0,0,1,0,14043.3,0.43822,0.437905,-0.143877,21,1.19344,10,-6.30042e-05,-3.84201,-0.380215,-0.155175,0.437968,
2,0,0,0,0,14044.1,0.434225,0.433938,-0.145895,21,1.19331,10,-6.33094e-05,-3.83596,-2.46488,-0.0239362,0.434002,
2,0,0,1,0,14044.9,0.43023,0.429958,-0.148123,21,1.19318,10,-6.36865e-05,-3.82938,-0.864476,-0.0682495,0.430023,
2,0,0,1,0,14045.7,0.426234,0.425944,-0.148872,21,1.19305,10,-6.34113e-05,-3.82719,-0.386947,-0.152476,0.426009,
2,0,0,1,0,14046.4,0.422239,0.421927,-0.151387,21,1.19292,10,-6.38743e-05,-3.81991,-3.52761,-0.0167252,0.421993,
2,0,0,1,0,14047.2,0.418244,0.417947,-0.152964,21,1.19278,10,-6.39307e-05,-3.81541,-0.988732,-0.0596724,0.418014,
2,0,0,0,0,14048,0.414249,0.413977,-0.15457,21,1.19265,10,-6.39883e-05,-3.81088,-0.605256,-0.0974794,0.414045,
2,0,0,1,0,14048.8,0.410254,0.409929,-0.156435,21,1.19251,10,-6.41273e-05,-3.80567,-1.07977,-0.0546411,0.409998,
2,0,0,0,0,14049.6,0.406259,0.405964,-0.157799,21,1.19237,10,-6.40609e-05,-3.80189,-0.739157,-0.0798206,0.406034,
2,0,0,1,0,14050.4,0.402263,0.40192,-0.161455,21,1.19223,10,-6.48921e-05,-3.79195,-0.573556,-0.102867,0.401991,
2,0,0,1,0,14051.2,0.398268,0.397938,-0.163637,21,1.19209,10,-6.51174e-05,-3.78612,-0.821824,-0.0717915,0.39801,
2,0,0,1,0,14052,0.394274,0.393961,-0.165139,21,1.19195,10,-6.50585e-05,-3.78215,-0.636569,-0.0926844,0.394034,
2,0,0,1,0,14052.8,0.390278,0.389976,-0.167053,21,1.1918,10,-6.51469e-05,-3.77714,-0.758382,-0.0777972,0.39005,
2,0,0,0,0,14053.6,0.386283,0.385996,-0.169687,21,1.19165,10,-6.54986e-05,-3.77035,-1.2042,-0.0489952,0.38607,
2,0,0,1,0,14054.4,0.382287,0.382026,-0.170374,21,1.19151,10,-6.50872e-05,-3.7686,-0.579852,-0.10175,0.382101,
2,0,0,1,0,14055.2,0.378292,0.377997,-0.172117,21,1.19136,10,-6.50598e-05,-3.76418,-0.432452,-0.136431,0.378073,
2,0,0,1,0,14056,0.374297,0.373977,-0.172665,21,1.1912,10,-6.45727e-05,-3.7628,2.47966,0.0237936,0.374053,
2,0,0,1,0,14056.8,0.370303,0.36996,-0.176418,21,1.19105,10,-6.52675e-05,-3.75346,-0.613245,-0.0962095,0.370037,
2,0,0,0,0,14057.6,0.366307,0.365993,-0.178764,21,1.19089,10,-6.54264e-05,-3.74772,-1.14016,-0.051747,0.366072,
2,0,0,1,0,14058.4,0.362312,0.362025,-0.180791,21,1.19074,10,-6.5451e-05,-3.74282,-0.545833,-0.108092,0.362105,
2,0,0,1,0,14059.2,0.358316,0.35803,-0.183792,21,1.19058,10,-6.58032e-05,-3.73567,-1.23328,-0.0478397,0.358111,
2,0,0,1,0,14060,0.354321,0.354055,-0.185485,21,1.19042,10,-6.56718e-05,-3.73169,-0.466854,-0.126378,0.354137,
2,0,0,1,0,14060.8,0.350327,0.350068,-0.18742,21,1.19025,10,-6.56097e-05,-3.72718,-0.913292,-0.0646015,0.350151,
2,0,0,0,0,14061.6,0.346331,0.346058,-0.190818,21,1.19009,10,-6.60339e-05,-3.71938,-2.75627,-0.0214057,0.346141,
2,0,0,1,0,14062.4,0.342336,0.342022,-0.192284,21,1.18992,10,-6.57653e-05,-3.71606,-0.439246,-0.134321,0.342106,
2,0,0,0,0,14063.2,0.338341,0.338075,-0.195921,21,1.18975,10,-6.62359e-05,-3.70792,-1.56177,-0.0377776,0.338161,
2,0,0,1,0,14064,0.334345,0.334085,-0.198157,21,1.18958,10,-6.62013e-05,-3.70299,-0.556557,-0.106009,0.334172,
2,0,0,1,0,14064.8,0.33035,0.330063,-0.199581,21,1.18941,10,-6.58745e-05,-3.69988,-0.964306,-0.0611839,0.330151,
2,0,0,1,0,14065.6,0.326355,0.326034,-0.202182,21,1.18924,10,-6.59182e-05,-3.69426,-0.596642,-0.0988868,0.326123,
2,0,0,1,0,14066.4,0.32236,0.322123,-0.204731,21,1.18906,10,-6.59486e-05,-3.68882,-0.734112,-0.0803692,0.322213,
2,0,0,0,0,14067.2,0.318365,0.318074,-0.206568,21,1.18888,10,-6.57041e-05,-3.68494,-1.05395,-0.0559799,0.318165,
2,0,0,1,0,14068,0.31437,0.314083,-0.209031,21,1.1887,10,-6.5653e-05,-3.67979,-0.835251,-0.0706374,0.314175,
2,0,0,1,0,14068.8,0.310374,0.310117,-0.210161,21,1.18852,10,-6.51744e-05,-3.67745,-0.772435,-0.0763819,0.310209,
2,0,0,1,0,14069.6,0.306379,0.306064,-0.214501,21,1.18834,10,-6.56512e-05,-3.66857,-0.695203,-0.0848673,0.306159,
2,0,0,1,0,14070.4,0.302385,0.302065,-0.215977,21,1.18815,10,-6.5239e-05,-3.66559,-0.798942,-0.0738477,0.30216,
2,0,0,0,0,14071.2,0.298389,0.298081,-0.21947,21,1.18796,10,-6.54198e-05,-3.65862,-0.497172,-0.118671,0.298177,
2,0,0,1,0,14072,0.294394,0.29409,-0.222381,21,1.18777,10,-6.54e-05,-3.6529,-1.71711,-0.0343601,0.294188,
2,0,0,1,0,14072.8,0.290398,0.290095,-0.224722,21,1.18758,10,-6.5191e-05,-3.64835,-0.72184,-0.0817356,0.290194,
2,0,0,1,0,14073.6,0.286403,0.286096,-0.227566,21,1.18739,10,-6.51056e-05,-3.64289,-0.7459,-0.0790991,0.286196,
2,0,0,1,0,14074.4,0.282408,0.282121,-0.230443,21,1.18719,10,-6.50127e-05,-3.63744,-1.39304,-0.0423533,0.282222,
2,0,0,1,0,14075.2,0.278414,0.278099,-0.232115,21,1.18699,10,-6.45508e-05,-3.6343,-0.657491,-0.0897351,0.278201,
2,0,0,1,0,14076,0.274418,0.274102,-0.23505,21,1.18679,10,-6.44275e-05,-3.62884,-0.636686,-0.0926674,0.274205,
2,0,0,0,0,14076.8,0.270423,0.270132,-0.238292,21,1.18659,10,-6.43704e-05,-3.62289,-0.962294,-0.0613119,0.270237,
2,0,0,1,0,14077.6,0.266427,0.266125,-0.240812,21,1.18638,10,-6.40862e-05,-3.61832,-1.06606,-0.0553442,0.266231,
2,0,0,1,0,14078.4,0.262432,0.262081,-0.242238,21,1.18617,10,-6.3486e-05,-3.61576,-0.773285,-0.0762978,0.262187,
2,0,0,1,0,14079.2,0.258437,0.258151,-0.245972,21,1.18596,10,-6.34978e-05,-3.60912,-0.866189,-0.0681145,0.258259,
2,0,0,1,0,14080,0.254442,0.254123,-0.246868,21,1.18575,10,-6.2735e-05,-3.60754,-0.926079,-0.0637095,0.254232,
2,0,0,0,0,14080.8,0.250447,0.250186,-0.250603,21,1.18554,10,-6.26975e-05,-3.60101,-1.36704,-0.043159,0.250296,
2,0,0,1,0,14081.6,0.246452,0.246131,-0.253729,21,1.18533,10,-6.24506e-05,-3.59563,-0.617978,-0.0954727,0.246243,
2,0,0,1,0,14082.4,0.242456,0.242132,-0.255658,21,1.18511,10,-6.19031e-05,-3.59234,-6.95941,-0.00847773,0.242245,
2,0,0,1,0,14083.2,0.238461,0.238137,-0.258085,21,1.18489,10,-6.14596e-05,-3.58824,-0.727106,-0.0811436,0.23825,
2,0,0,1,0,14084,0.234467,0.234127,-0.25888,21,1.18467,10,-6.06106e-05,-3.5869,-0.684026,-0.086254,0.234241,
2,0,0,0,0,14084.8,0.230471,0.230177,-0.261451,21,1.18444,10,-6.01801e-05,-3.58261,-2.13917,-0.0275808,0.230292,
2,0,0,1,0,14085.6,0.226476,0.226166,-0.26501,21,1.18422,10,-5.99361e-05,-3.57674,-0.637698,-0.0925203,0.226282,
2,0,0,0,0,14086.4,0.222481,0.222138,-0.267538,21,1.18399,10,-5.94304e-05,-3.57262,-0.986087,-0.0598324,0.222256,
2,0,0,1,0,14087.2,0.218485,0.218188,-0.270731,21,1.18376,10,-5.90704e-05,-3.56746,-1.05409,-0.0559723,0.218307,
2,0,0,1,0,14088,0.21449,0.214161,-0.272841,21,1.18353,10,-5.8432e-05,-3.56409,-0.635564,-0.092831,0.214281,
2,0,0,1,0,14088.8,0.210496,0.210192,-0.276176,21,1.1833,10,-5.805e-05,-3.55881,-0.763901,-0.0772352,0.210314,
2,0,0,1,0,14089.6,0.2065,0.20622,-0.281009,21,1.18306,10,-5.79496e-05,-3.55128,-1.04903,-0.0562424,0.206343,
2,0,0,0,0,14090.4,0.202505,0.202165,-0.283041,21,1.18282,10,-5.72209e-05,-3.54815,-0.678289,-0.0869836,0.202289,
2,0,0,1,0,14091.2,0.198509,0.198184,-0.286568,21,1.18258,10,-5.67931e-05,-3.54277,-0.711406,-0.0829344,0.19831,
2,0,0,1,0,14092,0.194514,0.194187,-0.291435,21,1.18233,10,-5.65928e-05,-3.53546,-0.644968,-0.0914774,0.194315,
2,0,0,1,0,14092.8,0.190519,0.190154,-0.295266,21,1.18208,10,-5.61459e-05,-3.52979,-0.546032,-0.108052,0.190283,
2,0,0,1,0,14093.6,0.186524,0.18619,-0.300505,21,1.18183,10,-5.5951e-05,-3.52215,-0.74164,-0.0795534,0.186322,
2,0,0,0,0,14094.4,0.182529,0.182192,-0.305038,21,1.18158,10,-5.55755e-05,-3.51565,-0.367246,-0.160655,0.182326,
2,0,0,1,0,14095.2,0.178534,0.178208,-0.313114,21,1.18131,10,-5.57994e-05,-3.5043,-0.451802,-0.130588,0.178346,
2,0,0,1,0,14096,0.174538,0.17422,-0.32062,21,1.18105,10,-5.58586e-05,-3.49401,-0.375272,-0.157219,0.174362,
2,0,0,1,0,14096.8,0.170543,0.170236,-0.329757,21,1.18077,10,-5.61365e-05,-3.48181,-0.245511,-0.240315,0.170381,
2,0,0,1,0,14097.6,0.166549,0.166191,-0.341242,21,1.18049,10,-5.67111e-05,-3.46694,-0.278409,-0.211919,0.166341,
2,0,0,0,0,14098.4,0.162553,0.162236,-0.355858,21,1.1802,10,-5.7733e-05,-3.44872,-0.194017,-0.304098,0.162393,
2,0,0,1,0,14099.2,0.158558,0.158178,-0.373023,21,1.17989,10,-5.9004e-05,-3.42826,-0.164854,-0.357892,0.158342,
2,0,0,0,0,14100,0.154563,0.154237,-0.397645,21,1.17957,10,-6.13318e-05,-3.4005,-0.141484,-0.417009,0.154412,
2,0,0,1,0,14100.8,0.150567,0.150201,-0.42897,21,1.17922,10,-6.44319e-05,-3.36757,-0.103912,-0.567787,0.15039,
2,0,0,1,0,14101.6,0.146572,0.146244,-0.471224,21,1.17885,10,-6.89138e-05,-3.32677,-0.0915596,-0.644389,0.146452,
2,0,0,1,0,14102.4,0.142578,0.14223,-0.526109,21,1.17844,10,-7.48284e-05,-3.27892,-0.0814283,-0.724564,0.142461,
2,0,0,1,0,14103.2,0.138582,0.138268,-0.586103,21,1.17798,10,-8.10391e-05,-3.23203,-0.0841819,-0.700863,0.138526,
2,0,0,0,0,14104,0.134587,0.134225,-0.649202,21,1.17747,10,-8.71395e-05,-3.18762,-0.102192,-0.577344,0.134511,
2,0,0,1,0,14104.8,0.130591,0.130253,-0.701497,21,1.17691,10,-9.13718e-05,-3.15397,-0.138174,-0.426997,0.130561,
2,0,0,1,0,14105.6,0.126596,0.126266,-0.739354,21,1.17632,10,-9.33552e-05,-3.13115,-0.22111,-0.266836,0.126591,
2,0,0,1,0,14106.4,0.122602,0.122309,-0.763237,21,1.1757,10,-9.33506e-05,-3.11734,-0.581926,-0.101387,0.122645,
2,0,0,1,0,14107.2,0.118607,0.118279,-0.769416,21,1.17507,10,-9.10061e-05,-3.11384,-1.64307,-0.0359084,0.118618,
2,0,0,0,0,14108,0.114611,0.114295,-0.766898,21,1.17444,10,-8.76526e-05,-3.11526,1.03419,0.0570496,0.114633,
2,0,0,1,0,14108.8,0.110616,0.110296,-0.760829,21,1.17382,10,-8.39166e-05,-3.11871,0.888923,0.0663725,0.110631,
2,0,0,1,0,14109.6,0.10662,0.106276,-0.748717,21,1.1732,10,-7.95706e-05,-3.12568,0.615819,0.0958074,0.106605,
2,0,0,1,0,14110.4,0.102625,0.102301,-0.737501,21,1.17259,10,-7.54471e-05,-3.13224,0.427015,0.138168,0.102625,
2,0,0,1,0,14111.2,0.0986305,0.0982927,-0.722411,21,1.17199,10,-7.10077e-05,-3.14122,0.576111,0.102411,0.0986106,
2,0,0,0,0,14112,0.0946351,0.094335,-0.705593,21,1.1714,10,-6.65621e-05,-3.15145,0.386266,0.152744,0.0946455,
2,0,0,1,0,14112.8,0.0906399,0.09028,-0.694985,21,1.17083,10,-6.27433e-05,-3.15802,0.425394,0.138695,0.0905858,
2,0,0,0,0,14113.6,0.0866448,0.0863067,-0.681342,21,1.17026,10,-5.88044e-05,-3.16664,0.557192,0.105888,0.0866065,
2,0,0,1,0,14114.4,0.0826492,0.0823553,-0.668342,21,1.16971,10,-5.50415e-05,-3.175,0.530594,0.111196,0.0826494,
2,0,0,1,0,14115.2,0.0786544,0.0783527,-0.65792,21,1.16917,10,-5.15498e-05,-3.18183,0.552635,0.106761,0.0786422,
2,0,0,1,0,14116,0.0746596,0.0743465,-0.648145,21,1.16863,10,-4.81873e-05,-3.18833,0.712283,0.0828322,0.0746317,
2,0,0,1,0,14116.8,0.0706641,0.0703126,-0.638172,21,1.1681,10,-4.48715e-05,-3.19506,0.594703,0.0992092,0.0705934,
2,0,0,0,0,14117.6,0.0666689,0.0663435,-0.630204,21,1.16758,10,-4.18099e-05,-3.20052,0.742245,0.0794886,0.0666208,
2,0,0,1,0,14118.4,0.0626737,0.0623744,-0.618,21,1.16707,10,-3.85474e-05,-3.20901,0.704673,0.0837268,0.0626463,
2,0,0,1,0,14119.2,0.0586783,0.058333,-0.611161,21,1.16656,10,-3.56509e-05,-3.21384,0.384035,0.153632,0.0586019,
2,0,0,1,0,14120,0.0546835,0.0543791,-0.601527,21,1.16606,10,-3.27105e-05,-3.22074,0.850334,0.0693845,0.0546437,
2,0,0,1,0,14120.8,0.0506886,0.0503626,-0.590784,21,1.16557,10,-2.97534e-05,-3.22857,0.473618,0.124573,0.0506225,
2,0,0,0,0,14121.6,0.046693,0.0463718,-0.579184,21,1.16508,10,-2.68578e-05,-3.23718,0.507232,0.116318,0.0466266,
2,0,0,1,0,14122.4,0.0426979,0.0423242,-0.568362,21,1.16461,10,-2.40555e-05,-3.24538,0.517416,0.114028,0.0425743,
2,0,0,1,0,14123.2,0.0387022,0.0383961,-0.55803,21,1.16415,10,-2.14262e-05,-3.25334,0.419557,0.140625,0.0386416,
2,0,0,1,0,14124,0.0347074,0.034371,-0.546918,21,1.16369,10,-1.87981e-05,-3.26208,0.445299,0.132495,0.0346116,
2,0,0,1,0,14124.8,0.0307126,0.0304415,-0.534239,21,1.16324,10,-1.62631e-05,-3.27226,0.540474,0.109163,0.0306766,
2,0,0,0,0,14125.6,0.0267172,0.0263937,-0.526149,21,1.1628,10,-1.3887e-05,-3.27889,0.451981,0.130536,0.0266252,
2,0,0,1,0,14126.4,0.022722,0.0224331,-0.51722,21,1.16237,10,-1.16029e-05,-3.28632,0.74819,0.078857,0.0226607,
2,0,0,0,0,14127.2,0.0187268,0.018358,-0.509898,21,1.16195,10,-9.3607e-06,-3.29252,0.617908,0.0954834,0.0185823,
2,0,0,1,0,14128,0.0147313,0.0144121,-0.505346,21,1.16153,10,-7.28309e-06,-3.29641,0.953264,0.0618926,0.0146344,
2,0,0,1,0,14128.7,0.0107365,0.0104229,-0.499028,21,1.16111,10,-5.20132e-06,-3.30187,1.55975,0.0378267,0.0106425,
2,0,0,1,0,14129.5,0.00674163,0.00640755,-0.498231,21,1.1607,10,-3.19244e-06,-3.30257,33.2007,0.00177707,0.00662677,
2,0,0,1,0,14130.3,0.00274612,0.0023978,-0.498645,21,1.16029,10,-1.19565e-06,-3.30221,-2.05637,-0.0286913,0.0026172,
2,0,0,0,0,14130.8,0.000274105,-7.83813e-05,-0.499549,21,1.16003,10,3.91553e-08,-3.30142, , ,0.00014142,