File: Figure_codes/Fig_3-5/workspace_calculate_alpha_eff/20221101_1-115_003_TrumpetPlot_ParaChange_from10_every3_16_CV_C01_62.csv
mode,ox/red,error,control changes,counter inc.,time/s,control/V,Ewe/V,<I>/mA,cycle number,(Q-Qo)/C,I Range,P/W,log(|I|),Tafel slope mV/dec,alpha_eff,E-IR/V,
2,0,0,0,0,41372.7,2.44065e-05,-0.000287149,-0.114023,63,0.0000000E+000,10,3.27415e-08,-3.94301, , ,-0.000236979,
2,1,0,0,0,41373.5,0.00379485,0.0034826,0.145405,63,8.92073e-05,10,5.06385e-07,-3.83742,0.0329571,1.7902,0.00341862,
2,1,0,1,0,41374.3,0.00779002,0.00747609,0.169028,63,0.000226398,10,1.26366e-06,-3.77204,0.0707841,0.833521,0.00740171,
2,1,0,0,0,41375.1,0.0117852,0.0114579,0.185466,63,0.000379464,10,2.12505e-06,-3.73174,0.120728,0.488702,0.0113763,
2,1,0,1,0,41375.9,0.0157806,0.0154178,0.19979,63,0.00054452,10,3.08032e-06,-3.69943,0.133159,0.443078,0.0153299,
2,1,0,1,0,41376.7,0.0197754,0.0194522,0.212725,63,0.000720164,10,4.13796e-06,-3.67218,0.140955,0.418573,0.0193586,
2,1,0,1,0,41377.5,0.0237704,0.0234464,0.225942,63,0.00090652,10,5.29752e-06,-3.646,0.157014,0.375763,0.023347,
2,1,0,1,0,41378.3,0.0277659,0.0274425,0.240409,63,0.00110341,10,6.59742e-06,-3.61905,0.159862,0.369068,0.0273367,
2,1,0,0,0,41379.1,0.0317611,0.0313978,0.253049,63,0.00131179,10,7.94517e-06,-3.5968,0.165084,0.357395,0.0312865,
2,1,0,1,0,41379.9,0.0357567,0.0354406,0.26886,63,0.0015316,10,9.52856e-06,-3.57047,0.209366,0.281803,0.0353223,
2,1,0,1,0,41380.7,0.0397516,0.0393871,0.28147,63,0.00176218,10,1.10863e-05,-3.55057,0.152356,0.387251,0.0392632,
2,1,0,1,0,41381.5,0.0437465,0.0434152,0.295213,63,0.00200451,10,1.28167e-05,-3.52986,0.225229,0.261955,0.0432853,
2,1,0,1,0,41382.3,0.0477413,0.0474276,0.309541,63,0.00225712,10,1.46808e-05,-3.50928,0.210857,0.279811,0.0472914,
2,1,0,0,0,41383.1,0.0517369,0.0513706,0.322235,63,0.00252026,10,1.65534e-05,-3.49183,0.208768,0.282611,0.0512288,
2,1,0,1,0,41383.9,0.0557321,0.0554266,0.334941,63,0.00279366,10,1.85646e-05,-3.47503,0.306424,0.192543,0.0552792,
2,1,0,1,0,41384.7,0.0597277,0.059395,0.34509,63,0.00307607,10,2.04966e-05,-3.46207,0.270148,0.218399,0.0592432,
2,1,0,1,0,41385.5,0.0637226,0.0634253,0.356694,63,0.00336747,10,2.26234e-05,-3.4477,0.314709,0.187475,0.0632684,
2,1,0,1,0,41386.3,0.0677174,0.0673973,0.366551,63,0.00366769,10,2.47045e-05,-3.43587,0.454746,0.129743,0.067236,
2,1,0,0,0,41387.1,0.0717128,0.0713857,0.376128,63,0.00397496,10,2.68502e-05,-3.42466,0.322843,0.182751,0.0712202,
2,1,0,1,0,41387.9,0.075708,0.0753697,0.382753,63,0.00428993,10,2.8848e-05,-3.41708,0.489631,0.120499,0.0752013,
2,1,0,0,0,41388.7,0.0797031,0.079396,0.392368,63,0.00461091,10,3.11524e-05,-3.40631,0.424347,0.139037,0.0792234,
2,1,0,1,0,41389.5,0.0836986,0.0833844,0.400927,63,0.00493869,10,3.34311e-05,-3.39693,0.350534,0.168315,0.0832079,
2,1,0,1,0,41390.3,0.0876935,0.0873639,0.412235,63,0.00527475,10,3.60145e-05,-3.38485,0.328571,0.179565,0.0871825,
2,1,0,1,0,41391.1,0.0916883,0.0913771,0.42642,63,0.00561995,10,3.89651e-05,-3.37016,0.241474,0.244333,0.0911895,
2,1,0,1,0,41391.9,0.0956838,0.0953944,0.440517,63,0.00597732,10,4.20229e-05,-3.35604,0.238605,0.247271,0.0952006,
2,1,0,0,0,41392.7,0.099679,0.0993476,0.460888,63,0.00634932,10,4.57881e-05,-3.3364,0.219187,0.269176,0.0991448,
2,1,0,1,0,41393.5,0.103674,0.103345,0.483456,63,0.00673777,10,4.99629e-05,-3.31564,0.179511,0.32867,0.103133,
2,1,0,1,0,41394.3,0.10767,0.107337,0.503634,63,0.00714506,10,5.40584e-05,-3.29789,0.231656,0.254688,0.107115,
2,1,0,1,0,41395.1,0.111664,0.111353,0.526473,63,0.00756813,10,5.86241e-05,-3.27862,0.238327,0.247559,0.111121,
2,1,0,1,0,41395.9,0.115659,0.115298,0.540883,63,0.00800543,10,6.23626e-05,-3.2669,0.334533,0.176365,0.11506,
2,1,0,0,0,41396.7,0.119655,0.119367,0.554386,63,0.00845512,10,6.61754e-05,-3.25619,0.550825,0.107112,0.119123,
2,1,0,1,0,41397.5,0.12365,0.123332,0.564885,63,0.00891328,10,6.96683e-05,-3.24804,0.449692,0.131201,0.123083,
2,1,0,1,0,41398.3,0.127646,0.127299,0.572546,63,0.00937968,10,7.28847e-05,-3.24219,1.04887,0.0562509,0.127047,
2,1,0,1,0,41399.1,0.131641,0.131344,0.576422,63,0.00985143,10,7.57098e-05,-3.23926,-1.10597,-0.0533466,0.131091,
2,1,0,1,0,41399.8,0.135635,0.135309,0.565571,63,0.0103202,10,7.65269e-05,-3.24751,-0.314874,-0.187377,0.13506,
2,1,0,0,0,41400.6,0.139631,0.139295,0.536255,63,0.0107739,10,7.46977e-05,-3.27063,-0.122878,-0.480149,0.139059,
2,1,0,1,0,41401.4,0.143626,0.143298,0.489249,63,0.0111958,10,7.01085e-05,-3.31047,-0.0821511,-0.718189,0.143083,
2,1,0,0,0,41402.2,0.147621,0.147258,0.429553,63,0.0115737,10,6.32551e-05,-3.36698,-0.0698895,-0.84419,0.147069,
2,1,0,1,0,41403,0.151617,0.151257,0.376746,63,0.0119062,10,5.69854e-05,-3.42395,-0.0770845,-0.765394,0.151091,
2,1,0,1,0,41403.8,0.155612,0.155278,0.339729,63,0.0122016,10,5.27524e-05,-3.46887,-0.0994199,-0.593442,0.155128,
2,1,0,1,0,41404.6,0.159606,0.159307,0.314593,63,0.0124725,10,5.01168e-05,-3.50225,-0.141548,-0.416821,0.159168,
2,1,0,1,0,41405.4,0.163602,0.163281,0.296871,63,0.0127276,10,4.84733e-05,-3.52743,-0.178534,-0.330469,0.16315,
2,1,0,0,0,41406.2,0.167597,0.167276,0.285991,63,0.0129712,10,4.78395e-05,-3.54365,-0.372564,-0.158362,0.16715,
2,1,0,1,0,41407,0.171592,0.171268,0.277301,63,0.0132076,10,4.74927e-05,-3.55705,-0.338144,-0.174482,0.171146,
2,1,0,1,0,41407.8,0.175588,0.175232,0.272604,63,0.013438,10,4.77688e-05,-3.56447,-0.556921,-0.10594,0.175112,
2,1,0,1,0,41408.6,0.179582,0.179254,0.267827,63,0.0136641,10,4.8009e-05,-3.57214,-0.692151,-0.0852416,0.179136,
2,1,0,1,0,41409.4,0.183577,0.183245,0.264184,63,0.0138872,10,4.84106e-05,-3.57809,-0.553527,-0.106589,0.183129,
2,1,0,0,0,41410.2,0.187573,0.187267,0.260914,63,0.0141074,10,4.88605e-05,-3.5835,-0.924277,-0.0638337,0.187152,
2,1,0,1,0,41411,0.191568,0.191236,0.258484,63,0.0143253,10,4.94315e-05,-3.58757,-0.807113,-0.0731,0.191122,
2,1,0,0,0,41411.8,0.195563,0.19523,0.255963,63,0.0145415,10,4.99716e-05,-3.59182,-0.694308,-0.0849766,0.195117,
2,1,0,1,0,41412.6,0.199559,0.199205,0.254435,63,0.0147557,10,5.06848e-05,-3.59442,-5.31976,-0.0110907,0.199093,
2,1,0,1,0,41413.4,0.203553,0.203231,0.251631,63,0.0149688,10,5.11393e-05,-3.59924,-1.89913,-0.0310669,0.203121,
2,1,0,1,0,41414.2,0.207548,0.207233,0.25141,63,0.0151807,10,5.21004e-05,-3.59962,-3.60669,-0.0163585,0.207122,
2,1,0,1,0,41415,0.211544,0.211233,0.249184,63,0.0153914,10,5.26359e-05,-3.60348,-1.56351,-0.0377356,0.211124,
2,1,0,0,0,41415.8,0.215539,0.215232,0.249066,63,0.015601,10,5.3607e-05,-3.60369,-1.25639,-0.04696,0.215122,
2,1,0,1,0,41416.6,0.219535,0.219246,0.247398,63,0.0158092,10,5.4241e-05,-3.6066,-1.39445,-0.0423105,0.219137,
2,1,0,1,0,41417.4,0.223529,0.223194,0.245772,63,0.0160165,10,5.48548e-05,-3.60947,-4.16794,-0.0141557,0.223086,
2,1,0,1,0,41418.2,0.227524,0.227198,0.245053,63,0.016223,10,5.56757e-05,-3.61074,-0.93452,-0.063134,0.227091,
2,1,0,1,0,41419,0.23152,0.231153,0.243493,63,0.0164285,10,5.62842e-05,-3.61351,3.54459,0.0166451,0.231046,
2,1,0,0,0,41419.8,0.235515,0.235223,0.242076,63,0.0166334,10,5.69417e-05,-3.61605,-3.06805,-0.0192305,0.235116,
2,1,0,1,0,41420.6,0.23951,0.239193,0.24261,63,0.0168374,10,5.80306e-05,-3.61509,-1.50317,-0.0392503,0.239086,
2,1,0,1,0,41421.4,0.243506,0.243189,0.242213,63,0.0170407,10,5.89035e-05,-3.6158,4.03013,0.0146397,0.243082,
2,1,0,1,0,41422.2,0.2475,0.247201,0.241034,63,0.0172435,10,5.9584e-05,-3.61792,-1.23496,-0.0477747,0.247095,
2,1,0,1,0,41423,0.251495,0.251197,0.239356,63,0.0174455,10,6.01257e-05,-3.62095,-2.3161,-0.0254739,0.251092,
2,1,0,0,0,41423.8,0.255491,0.255198,0.239116,63,0.0176469,10,6.10219e-05,-3.62139,-2.29354,-0.0257245,0.255092,
2,1,0,1,0,41424.6,0.259486,0.259173,0.238518,63,0.017848,10,6.18176e-05,-3.62248,-1.95531,-0.0301742,0.259068,
2,1,0,0,0,41425.4,0.263481,0.263147,0.237415,63,0.018048,10,6.24751e-05,-3.62449,-35.4024,-0.00166656,0.263043,
2,1,0,1,0,41426.2,0.267477,0.267144,0.234822,63,0.0182474,10,6.27312e-05,-3.62926,-2.12954,-0.0277055,0.26704,
2,1,0,1,0,41427,0.271471,0.271152,0.235777,63,0.018446,10,6.39315e-05,-3.6275,-6.69639,-0.00881072,0.271049,
2,1,0,1,0,41427.8,0.275466,0.275139,0.235198,63,0.0186439,10,6.47123e-05,-3.62857,-1.52439,-0.038704,0.275036,
2,1,0,1,0,41428.6,0.279462,0.279144,0.233974,63,0.0188412,10,6.53122e-05,-3.63083,-5.44014,-0.0108453,0.279041,
2,1,0,0,0,41429.4,0.283457,0.283103,0.233364,63,0.0190378,10,6.60661e-05,-3.63197,-1.46964,-0.0401459,0.283001,
2,1,0,1,0,41430.2,0.287452,0.28712,0.232242,63,0.0192336,10,6.66813e-05,-3.63406,-10.4289,-0.00565736,0.287018,
2,1,0,1,0,41431,0.291448,0.291124,0.231982,63,0.0194287,10,6.75356e-05,-3.63455,-0.865939,-0.0681341,0.291022,
2,1,0,1,0,41431.8,0.295442,0.295103,0.230608,63,0.0196229,10,6.8053e-05,-3.63713,1.59186,0.0370635,0.295001,
2,1,0,1,0,41432.6,0.299437,0.299152,0.229668,63,0.0198169,10,6.87057e-05,-3.6389,-1.19811,-0.0492441,0.299051,
2,1,0,0,0,41433.4,0.303433,0.303161,0.228251,63,0.0200098,10,6.91967e-05,-3.64159,-10.7131,-0.00550728,0.30306,
2,1,0,1,0,41434.2,0.307428,0.307129,0.228463,63,0.020202,10,7.01675e-05,-3.64118,-2.95356,-0.0199759,0.307028,
2,1,0,1,0,41435,0.311424,0.311132,0.227112,63,0.0203941,10,7.06617e-05,-3.64376,-1.82043,-0.0324099,0.311032,
2,1,0,1,0,41435.8,0.315418,0.31511,0.227183,63,0.0205853,10,7.15874e-05,-3.64362,-2.80846,-0.021008,0.31501,
2,1,0,1,0,41436.6,0.319413,0.319078,0.226262,63,0.0207759,10,7.2195e-05,-3.64539,-2.57479,-0.0229144,0.318978,
2,1,0,0,0,41437.4,0.323409,0.323039,0.22535,63,0.020966,10,7.2797e-05,-3.64714,-1.86801,-0.0315845,0.32294,
2,1,0,1,0,41438.2,0.327404,0.327064,0.224658,63,0.0211555,10,7.34775e-05,-3.64848,2.16779,0.0272167,0.326965,
2,1,0,0,0,41439,0.331399,0.331097,0.224416,63,0.0213448,10,7.43035e-05,-3.64895,-2.26866,-0.0260066,0.330999,
2,1,0,1,0,41439.8,0.335395,0.335108,0.224445,63,0.0215334,10,7.52134e-05,-3.64889,-2.16387,-0.027266,0.335009,
2,1,0,1,0,41440.6,0.339389,0.33908,0.223681,63,0.0217214,10,7.58459e-05,-3.65037,-24.1405,-0.00244403,0.338982,
2,1,0,1,0,41441.4,0.343384,0.343072,0.223049,63,0.0219092,10,7.65217e-05,-3.6516,-3.78671,-0.0155808,0.342974,
2,1,0,1,0,41442.2,0.34738,0.347048,0.223024,63,0.0220963,10,7.74e-05,-3.65165,-3.13146,-0.0188411,0.34695,
2,1,0,0,0,41443,0.351375,0.351049,0.221806,63,0.0222831,10,7.78649e-05,-3.65403,-6.70746,-0.00879618,0.350951,
2,1,0,1,0,41443.8,0.35537,0.355062,0.221566,63,0.0224693,10,7.86696e-05,-3.6545,-1.43515,-0.0411108,0.354965,
2,1,0,1,0,41444.6,0.359366,0.359033,0.221571,63,0.0226551,10,7.95514e-05,-3.65449,2.42616,0.0243183,0.358935,
2,1,0,1,0,41445.4,0.36336,0.363081,0.220025,63,0.0228406,10,7.9887e-05,-3.65753,-2.10434,-0.0280373,0.362984,
2,1,0,1,0,41446.2,0.367355,0.367062,0.220532,63,0.0230255,10,8.09489e-05,-3.65653,-2.27743,-0.0259064,0.366965,
2,1,0,0,0,41447,0.371351,0.371033,0.220243,63,0.02321,10,8.17174e-05,-3.6571,5.2053,0.0113346,0.370936,
2,1,0,1,0,41447.8,0.375346,0.375053,0.219602,63,0.0233944,10,8.23626e-05,-3.65836,-6.48798,-0.00909374,0.374957,
2,1,0,1,0,41448.6,0.379342,0.379038,0.218817,63,0.0235783,10,8.294e-05,-3.65992,-3.49723,-0.0168705,0.378941,
2,1,0,1,0,41449.4,0.383336,0.383047,0.219298,63,0.0237619,10,8.40015e-05,-3.65897,-5.9435,-0.00992681,0.38295,
2,1,0,1,0,41450.2,0.387331,0.387027,0.218686,63,0.0239453,10,8.46375e-05,-3.66018,-2.62422,-0.0224828,0.386931,
2,1,0,0,0,41451,0.391327,0.391027,0.218195,63,0.0241285,10,8.53201e-05,-3.66116,-4.36437,-0.0135185,0.390931,
2,1,0,1,0,41451.8,0.395322,0.395031,0.217943,63,0.0243113,10,8.60944e-05,-3.66166,4.7065,0.0125359,0.394935,
2,1,0,0,0,41452.6,0.399317,0.398991,0.218609,63,0.024494,10,8.72229e-05,-3.66033,-8.08457,-0.00729786,0.398895,
2,1,0,1,0,41453.4,0.403313,0.402985,0.217459,63,0.0246762,10,8.76326e-05,-3.66262,5.21969,0.0113033,0.402889,
2,1,0,1,0,41454.2,0.407307,0.406964,0.218013,63,0.0248585,10,8.87233e-05,-3.66152,-4.02504,-0.0146582,0.406868,
2,1,0,1,0,41455,0.411302,0.410988,0.218868,63,0.0250406,10,8.99521e-05,-3.65982,-3.23306,-0.018249,0.410892,
2,1,0,1,0,41455.8,0.415298,0.414999,0.216325,63,0.0252225,10,8.97747e-05,-3.66489,-3.19244,-0.0184812,0.414904,
2,1,0,0,0,41456.6,0.419293,0.419018,0.217088,63,0.025404,10,9.09636e-05,-3.66336,-2.91286,-0.020255,0.418922,
2,1,0,1,0,41457.4,0.423288,0.422965,0.215989,63,0.0255852,10,9.13557e-05,-3.66557,2.21744,0.0266072,0.42287,
2,1,0,1,0,41458.2,0.427283,0.426989,0.21635,63,0.0257665,10,9.23792e-05,-3.66484,-4.7116,-0.0125223,0.426894,
2,1,0,1,0,41459,0.431278,0.43099,0.216831,63,0.0259475,10,9.34518e-05,-3.66388,2.24927,0.0262308,0.430894,
2,1,0,1,0,41459.8,0.435273,0.43496,0.216217,63,0.0261285,10,9.40457e-05,-3.66511,-5.71584,-0.0103222,0.434865,
2,1,0,0,0,41460.6,0.439269,0.438955,0.216642,63,0.0263096,10,9.5096e-05,-3.66426,15.4948,0.00380773,0.43886,
2,1,0,1,0,41461.4,0.443264,0.442949,0.215852,63,0.0264904,10,9.56116e-05,-3.66584,-2.42201,-0.02436,0.442854,
2,1,0,0,0,41462.2,0.447259,0.446969,0.216705,63,0.0266713,10,9.68604e-05,-3.66413,18.3065,0.0032229,0.446874,
2,1,0,1,0,41463,0.451254,0.450968,0.217308,63,0.0268523,10,9.79988e-05,-3.66292,49.8191,0.00118429,0.450872,
2,1,0,1,0,41463.8,0.455249,0.454942,0.216875,63,0.0270332,10,9.86656e-05,-3.66379,2.0574,0.028677,0.454847,
2,1,0,1,0,41464.6,0.459244,0.458983,0.216478,63,0.0272146,10,9.93597e-05,-3.66459,3.13116,0.0188428,0.458888,
2,1,0,1,0,41465.4,0.46324,0.462919,0.21797,63,0.0273963,10,0.000100902,-3.6616,-11.348,-0.00519915,0.462823,
2,1,0,0,0,41466.2,0.467235,0.466912,0.21842,63,0.027578,10,0.000101983,-3.66071,2.16605,0.0272386,0.466816,
2,1,0,1,0,41467,0.471231,0.470887,0.21869,63,0.0277602,10,0.000102978,-3.66017,-7.01795,-0.00840701,0.470791,
2,1,0,1,0,41467.8,0.475225,0.474932,0.219763,63,0.0279427,10,0.000104372,-3.65805,2.38541,0.0247337,0.474835,
2,1,0,1,0,41468.6,0.47922,0.478925,0.219254,63,0.0281253,10,0.000105006,-3.65905,3.00956,0.0196042,0.478829,
2,1,0,1,0,41469.4,0.483216,0.482904,0.220308,63,0.0283084,10,0.000106387,-3.65697,5.13187,0.0114968,0.482807,
2,1,0,0,0,41470.2,0.487211,0.486906,0.221134,63,0.0284919,10,0.000107671,-3.65535,2.09575,0.0281522,0.486809,
2,1,0,1,0,41471,0.491206,0.490895,0.220542,63,0.028676,10,0.000108263,-3.65651,6.24191,0.00945224,0.490798,
2,1,0,1,0,41471.8,0.495201,0.494903,0.221953,63,0.0288605,10,0.000109845,-3.65374,1.50209,0.0392785,0.494805,
2,1,0,1,0,41472.6,0.499196,0.498893,0.222627,63,0.0290455,10,0.000111067,-3.65242,14.3248,0.00411874,0.498795,
2,1,0,1,0,41473.4,0.503191,0.502889,0.223425,63,0.0292314,10,0.000112358,-3.65087,4.20738,0.014023,0.502791,
2,1,0,0,0,41474.2,0.507187,0.506893,0.224124,63,0.0294176,10,0.000113607,-3.64951,1.45971,0.040419,0.506794,
2,1,0,1,0,41475,0.511182,0.510891,0.225296,63,0.0296046,10,0.000115102,-3.64725,1.60595,0.0367384,0.510792,
2,1,0,0,0,41475.8,0.515177,0.514874,0.226931,63,0.0297926,10,0.000116841,-3.64411,13.6248,0.00433034,0.514774,
2,1,0,1,0,41476.6,0.519173,0.518866,0.229067,63,0.0299814,10,0.000118855,-3.64004,0.950455,0.0620756,0.518765,
2,1,0,1,0,41477.4,0.523167,0.522881,0.229089,63,0.0301713,10,0.000119787,-3.63999,1.71922,0.0343178,0.52278,
2,1,0,1,0,41478.2,0.527162,0.526846,0.231401,63,0.0303621,10,0.000121913,-3.63564,1.18007,0.0499972,0.526744,
2,1,0,1,0,41479,0.531158,0.530873,0.232372,63,0.0305539,10,0.00012336,-3.63382,1.67486,0.0352269,0.53077,
2,1,0,0,0,41479.8,0.535153,0.534847,0.233474,63,0.030747,10,0.000124873,-3.63176,1.29904,0.0454181,0.534744,
2,1,0,1,0,41480.6,0.539148,0.538863,0.235786,63,0.0309414,10,0.000127056,-3.62748,1.49719,0.0394071,0.538759,
2,1,0,1,0,41481.4,0.543143,0.542804,0.236768,63,0.0311372,10,0.000128519,-3.62568,0.951503,0.0620071,0.5427,
2,1,0,1,0,41482.2,0.547138,0.546847,0.239151,63,0.0313345,10,0.000130779,-3.62133,1.75633,0.0335929,0.546742,
2,1,0,1,0,41482.9,0.551133,0.550842,0.241887,63,0.0315335,10,0.000133241,-3.61639,0.785953,0.0750681,0.550735,
2,1,0,0,0,41483.7,0.555129,0.554795,0.243917,63,0.0317344,10,0.000135324,-3.61276,0.791624,0.0745303,0.554688,
2,1,0,1,0,41484.5,0.559124,0.558798,0.247407,63,0.0319371,10,0.00013825,-3.60659,1.21076,0.0487298,0.55869,
2,1,0,1,0,41485.3,0.56312,0.562808,0.248732,63,0.0321419,10,0.000139988,-3.60427,0.634089,0.0930468,0.562699,
2,1,0,1,0,41486.1,0.567114,0.566811,0.252459,63,0.032349,10,0.000143096,-3.59781,0.847455,0.0696202,0.5667,
2,1,0,1,0,41486.9,0.571109,0.570794,0.255241,63,0.0325585,10,0.00014569,-3.59305,0.71521,0.0824932,0.570682,
2,1,0,0,0,41487.7,0.575105,0.574807,0.258817,63,0.0327709,10,0.00014877,-3.58701,0.526603,0.112039,0.574693,
2,1,0,1,0,41488.5,0.5791,0.578789,0.263652,63,0.0329865,10,0.000152599,-3.57897,0.615319,0.0958852,0.578673,
2,1,0,0,0,41489.3,0.583095,0.582788,0.268281,63,0.0332056,10,0.000156351,-3.57141,0.461733,0.127779,0.58267,
2,1,0,1,0,41490.1,0.58709,0.586786,0.272951,63,0.0334286,10,0.000160164,-3.56392,0.529611,0.111403,0.586666,
2,1,0,1,0,41490.9,0.591085,0.590841,0.279317,63,0.033656,10,0.000165032,-3.5539,0.331433,0.178015,0.590718,
2,1,0,1,0,41491.7,0.59508,0.594776,0.285433,63,0.0338882,10,0.000169769,-3.5445,0.416104,0.141791,0.59465,
2,1,0,1,0,41492.5,0.599076,0.598787,0.292839,63,0.0341258,10,0.000175348,-3.53337,0.369667,0.159603,0.598658,
2,1,0,0,0,41493.3,0.603071,0.602795,0.301277,63,0.0343695,10,0.000181608,-3.52103,0.332049,0.177685,0.602662,
2,1,0,1,0,41494.1,0.607066,0.606774,0.31052,63,0.0346203,10,0.000188416,-3.50791,0.285982,0.206306,0.606638,
2,1,0,1,0,41494.9,0.611061,0.610777,0.32101,63,0.034879,10,0.000196066,-3.49348,0.269823,0.218662,0.610636,
2,1,0,1,0,41495.7,0.615056,0.614774,0.333529,63,0.0351465,10,0.000205045,-3.47687,0.220525,0.267544,0.614627,
2,1,0,1,0,41496.5,0.619051,0.618821,0.345958,63,0.0354247,10,0.000214086,-3.46098,0.224819,0.262433,0.618669,
2,1,0,0,0,41497.3,0.623047,0.622742,0.361944,63,0.0357144,10,0.000225398,-3.44136,0.185444,0.318155,0.622583,
2,1,0,1,0,41498.1,0.627042,0.626729,0.381464,63,0.0360181,10,0.000239074,-3.41855,0.170883,0.345266,0.626561,
2,1,0,1,0,41498.9,0.631037,0.630789,0.403384,63,0.0363384,10,0.00025445,-3.39428,0.163404,0.361068,0.630611,
2,1,0,1,0,41499.7,0.635032,0.634732,0.42978,63,0.0366774,10,0.000272795,-3.36675,0.141831,0.415989,0.634543,
2,1,0,1,0,41500.5,0.639027,0.63874,0.457631,63,0.037038,10,0.000292307,-3.33948,0.133273,0.4427,0.638539,
2,1,0,1,0,41501.3,0.643022,0.642763,0.492106,63,0.0374238,10,0.000316308,-3.30794,0.124164,0.475178,0.642546,
2,1,0,1,0,41502.1,0.647018,0.646757,0.531956,63,0.0378394,10,0.000344046,-3.27412,0.112577,0.524085,0.646523,
2,1,0,0,0,41502.9,0.651013,0.650744,0.577573,63,0.038289,10,0.000375853,-3.23839,0.106566,0.553646,0.65049,
2,1,0,1,0,41503.7,0.655008,0.654755,0.632663,63,0.0387787,10,0.000414239,-3.19883,0.0976235,0.604362,0.654477,
2,1,0,1,0,41504.5,0.659003,0.658701,0.695771,63,0.0393158,10,0.000458305,-3.15753,0.094427,0.624821,0.658395,
2,1,0,1,0,41505.3,0.662998,0.662699,0.769825,63,0.0399074,10,0.000510163,-3.11361,0.0881811,0.669077,0.66236,
2,1,0,1,0,41506.1,0.666994,0.66671,0.854243,63,0.0405623,10,0.000569532,-3.06842,0.0839783,0.702563,0.666334,
2,1,0,0,0,41506.9,0.670989,0.670697,0.951538,63,0.04129,10,0.000638193,-3.02157,0.0841474,0.701151,0.670278,
2,1,0,1,0,41507.7,0.674984,0.674706,1.0625,63,0.0421007,10,0.000716878,-2.97367,0.0833862,0.707551,0.674239,
2,1,0,1,0,41508.5,0.67898,0.678666,1.18832,63,0.0430059,10,0.000806473,-2.92507,0.0791,0.745891,0.678143,
2,1,0,1,0,41509.3,0.682974,0.682674,1.33098,63,0.0440186,10,0.000908624,-2.87583,0.0784933,0.751656,0.682088,
2,1,0,1,0,41510.1,0.686969,0.686691,1.49196,63,0.0451521,10,0.00102451,-2.82624,0.0816082,0.722967,0.686034,
2,1,0,0,0,41510.9,0.690965,0.690695,1.66772,63,0.0464202,10,0.00115189,-2.77788,0.0791344,0.745567,0.689961,
2,1,0,1,0,41511.7,0.69496,0.694662,1.86521,63,0.0478377,10,0.00129569,-2.72927,0.0813879,0.724923,0.693841,
2,1,0,0,0,41512.5,0.698955,0.698704,2.08006,63,0.0494198,10,0.00145335,-2.68192,0.0840475,0.701984,0.697789,
2,1,0,1,0,41513.3,0.70295,0.70264,2.3159,63,0.0511824,10,0.00162725,-2.63528,0.0833764,0.707634,0.701621,
2,1,0,1,0,41514.1,0.706945,0.706661,2.57054,63,0.0531405,10,0.0018165,-2.58998,0.0873104,0.67575,0.70553,
2,1,0,1,0,41514.9,0.71094,0.710633,2.84534,63,0.0553098,10,0.00202199,-2.54587,0.0899068,0.656235,0.709381,
2,1,0,1,0,41515.7,0.714936,0.714634,3.13844,63,0.0577062,10,0.00224284,-2.50329,0.0914319,0.645289,0.713253,
2,1,0,0,0,41516.5,0.718931,0.718628,3.45347,63,0.060345,10,0.00248176,-2.46174,0.0942129,0.626241,0.717109,
2,1,0,1,0,41517.3,0.722927,0.722633,3.78585,63,0.063243,10,0.00273578,-2.42184,0.0975167,0.605025,0.720967,
2,1,0,1,0,41518.1,0.726921,0.726645,4.14157,63,0.0664157,10,0.00300945,-2.38283,0.101664,0.580343,0.724823,
2,1,0,1,0,41518.9,0.730916,0.730616,4.51423,63,0.0698792,10,0.00329817,-2.34542,0.101646,0.580448,0.72863,
2,1,0,1,0,41519.7,0.734911,0.73463,4.91028,63,0.0736501,10,0.00360724,-2.30889,0.107097,0.550905,0.73247,
2,1,0,0,0,41520.5,0.738907,0.738627,5.32651,63,0.0777457,10,0.00393431,-2.27356,0.110619,0.533365,0.736284,
2,1,0,1,0,41521.3,0.742902,0.742613,5.76363,63,0.0821817,10,0.00428015,-2.2393,0.111262,0.530282,0.740077,
2,1,0,1,0,41522.1,0.746897,0.746589,6.22477,63,0.0869779,10,0.00464735,-2.20588,0.116612,0.505951,0.74385,
2,1,0,1,0,41522.9,0.750892,0.75065,6.70975,63,0.0921507,10,0.00503668,-2.17329,0.116119,0.508098,0.747698,
2,1,0,1,0,41523.7,0.754887,0.754597,7.21838,63,0.0977205,10,0.00544697,-2.14156,0.120228,0.490732,0.751421,
2,1,0,0,0,41524.5,0.758883,0.758593,7.75538,63,0.103709,10,0.00588317,-2.1104,0.121293,0.486425,0.75518,
2,1,0,1,0,41525.3,0.762878,0.762558,8.31777,63,0.110135,10,0.00634278,-2.07999,0.123853,0.47637,0.758898,
2,1,0,0,0,41526.1,0.766873,0.766591,8.90948,63,0.117023,10,0.00682993,-2.05015,0.126268,0.467259,0.762671,
2,1,0,1,0,41526.9,0.770868,0.770572,9.5383,63,0.1244,10,0.00734995,-2.02053,0.125876,0.468716,0.766376,
2,1,0,1,0,41527.7,0.774863,0.774582,10.1994,63,0.13229,10,0.00790025,-1.99143,0.127825,0.461567,0.770094,
2,1,0,1,0,41528.5,0.778858,0.778563,10.9027,63,0.140726,10,0.00848847,-1.96246,0.127333,0.463351,0.773766,
2,1,0,1,0,41529.3,0.782854,0.782511,11.6463,63,0.149739,10,0.00911338,-1.93381,0.126304,0.467127,0.777387,
2,1,0,0,0,41530.1,0.786849,0.786573,12.4455,63,0.159369,10,0.00978928,-1.90499,0.125996,0.468267,0.781097,
2,1,0,1,0,41530.9,0.790844,0.790577,13.2895,63,0.169656,10,0.0105063,-1.87649,0.128647,0.45862,0.784729,
2,1,0,1,0,41531.7,0.794839,0.794552,14.1929,63,0.18064,10,0.011277,-1.84793,0.123744,0.476789,0.788308,
2,1,0,1,0,41532.5,0.798834,0.798558,15.1748,63,0.192378,10,0.012118,-1.81888,0.122218,0.482743,0.791881,
2,1,0,1,0,41533.3,0.802829,0.802579,16.2097,63,0.204921,10,0.0130096,-1.79022,0.124568,0.473638,0.795447,
2,1,0,0,0,41534.1,0.806825,0.806521,17.2981,63,0.218313,10,0.0139513,-1.762,0.124241,0.474882,0.79891,
2,1,0,1,0,41534.9,0.81082,0.810569,18.4382,63,0.232598,10,0.0149454,-1.73428,0.129968,0.453956,0.802456,
2,1,0,1,0,41535.7,0.814815,0.814547,19.6058,63,0.247806,10,0.0159698,-1.70762,0.130533,0.451993,0.80592,
2,1,0,1,0,41536.5,0.81881,0.818557,20.8294,63,0.263965,10,0.0170501,-1.68132,0.134632,0.438232,0.809392,
2,1,0,1,0,41537.3,0.822805,0.822545,22.0952,63,0.28112,10,0.0181743,-1.6557,0.134383,0.439044,0.812824,
2,1,0,0,0,41538.1,0.826801,0.826559,23.3959,63,0.299304,10,0.0193381,-1.63086,0.140531,0.419835,0.816265,
2,1,0,1,0,41538.9,0.830796,0.830519,24.7313,63,0.318539,10,0.0205398,-1.60675,0.140714,0.419289,0.819637,
2,1,0,0,0,41539.7,0.834791,0.83452,26.1361,63,0.338871,10,0.0218111,-1.58276,0.144851,0.407316,0.82302,
2,1,0,1,0,41540.5,0.838786,0.838529,27.5545,63,0.36033,10,0.0231052,-1.55981,0.145517,0.405451,0.826405,
2,1,0,1,0,41541.3,0.842781,0.842527,29.003,63,0.382937,10,0.0244358,-1.53756,0.158346,0.372602,0.829766,
2,1,0,1,0,41542.1,0.846776,0.846546,30.4275,63,0.40669,10,0.0257582,-1.51673,0.161366,0.365628,0.833158,
2,1,0,0,0,41542.8,0.849723,0.849403,31.4059,63,0.428427,10,0.0266762,-1.50299,0.0488814,1.207,0.835584,
2,1,0,1,0,41543.6,0.845728,0.845475,29.285,63,0.452606,10,0.0247597,-1.53336,0.116927,0.504587,0.83259,
2,1,0,0,0,41544.4,0.841732,0.841458,27.5647,63,0.475295,10,0.0231945,-1.55965,0.126426,0.466675,0.82933,
2,1,0,1,0,41545.2,0.837737,0.837505,25.9604,63,0.496671,10,0.0217419,-1.58569,0.125948,0.468448,0.826082,
2,1,0,1,0,41546,0.833742,0.833454,24.4811,63,0.516801,10,0.0204039,-1.61117,0.130206,0.453127,0.822683,
2,1,0,1,0,41546.8,0.829747,0.829495,23.0238,63,0.535766,10,0.0190981,-1.63782,0.126078,0.467966,0.819365,
2,1,0,1,0,41547.6,0.825752,0.825456,21.6411,63,0.553598,10,0.0178638,-1.66472,0.115251,0.511924,0.815933,
2,1,0,0,0,41548.4,0.821757,0.821519,20.2253,63,0.570302,10,0.0166155,-1.69411,0.123763,0.476718,0.81262,
2,1,0,1,0,41549.2,0.817761,0.817467,18.9485,63,0.585941,10,0.0154898,-1.72243,0.120503,0.489614,0.80913,
2,1,0,1,0,41550,0.813766,0.813442,17.7542,63,0.600587,10,0.014442,-1.7507,0.124373,0.474379,0.80563,
2,1,0,1,0,41550.8,0.809771,0.809497,16.6477,63,0.61432,10,0.0134762,-1.77865,0.123025,0.479576,0.802172,
2,1,0,1,0,41551.6,0.805776,0.805536,15.5664,63,0.627175,10,0.0125393,-1.80781,0.126159,0.467664,0.798687,
2,1,0,0,0,41552.4,0.801781,0.80153,14.569,63,0.639211,10,0.0116775,-1.83657,0.119142,0.495208,0.795119,
2,1,0,1,0,41553.2,0.797786,0.797505,13.5934,63,0.650452,10,0.0108408,-1.86667,0.116266,0.507458,0.791524,
2,1,0,1,0,41554,0.79379,0.793502,12.6558,63,0.660927,10,0.0100424,-1.89771,0.115383,0.511339,0.787933,
2,1,0,1,0,41554.8,0.789795,0.789534,11.7804,63,0.670677,10,0.00930107,-1.92884,0.114053,0.517304,0.784351,
2,1,0,1,0,41555.6,0.7858,0.785508,10.9441,63,0.679745,10,0.00859672,-1.96082,0.115593,0.510411,0.780693,
2,1,0,0,0,41556.4,0.781805,0.781526,10.1664,63,0.68817,10,0.00794528,-1.99283,0.110679,0.533073,0.777053,
2,1,0,1,0,41557.2,0.77781,0.777493,9.42223,63,0.695982,10,0.00732573,-2.02585,0.112231,0.5257,0.773348,
2,1,0,0,0,41558,0.773814,0.773526,8.7329,63,0.703224,10,0.00675513,-2.05884,0.111453,0.529371,0.769684,
2,1,0,1,0,41558.8,0.769819,0.769541,8.08856,63,0.709935,10,0.00622448,-2.09213,0.110731,0.532824,0.765982,
2,1,0,1,0,41559.6,0.765824,0.765539,7.47992,63,0.716143,10,0.00572617,-2.1261,0.108555,0.543505,0.762247,
2,1,0,1,0,41560.4,0.761829,0.761512,6.90929,63,0.721883,10,0.00526151,-2.16057,0.110666,0.533137,0.758472,
2,1,0,1,0,41561.2,0.757834,0.757532,6.3721,63,0.727179,10,0.00482707,-2.19572,0.104934,0.562257,0.754729,
2,1,0,0,0,41562,0.753839,0.753554,5.86369,63,0.732058,10,0.00441861,-2.23183,0.103704,0.568928,0.750974,
2,1,0,1,0,41562.8,0.749844,0.749568,5.3894,63,0.736545,10,0.00403972,-2.26846,0.100834,0.585121,0.747196,
2,1,0,1,0,41563.6,0.745848,0.745578,4.94537,63,0.740664,10,0.00368716,-2.3058,0.102973,0.572964,0.743402,
2,1,0,1,0,41564.4,0.741853,0.741531,4.52492,63,0.744439,10,0.00335537,-2.34439,0.0964199,0.611907,0.73954,
2,1,0,1,0,41565.2,0.737858,0.737612,4.13127,63,0.747888,10,0.00304727,-2.38392,0.0955149,0.617705,0.735794,
2,1,0,0,0,41565.9,0.733863,0.733588,3.76105,63,0.751032,10,0.00275906,-2.42469,0.0925959,0.637177,0.731933,
2,1,0,1,0,41566.7,0.729868,0.729617,3.41274,63,0.753889,10,0.00248999,-2.4669,0.0929026,0.635074,0.728115,
2,1,0,1,0,41567.5,0.725872,0.725582,3.09805,63,0.756484,10,0.00224789,-2.50891,0.0876569,0.673079,0.724219,
2,1,0,1,0,41568.3,0.721877,0.721624,2.794,63,0.75883,10,0.00201621,-2.55377,0.0842965,0.699911,0.720394,
2,1,0,1,0,41569.1,0.717882,0.717601,2.50904,63,0.76094,10,0.00180049,-2.60049,0.0817389,0.72181,0.716497,
2,1,0,0,0,41569.9,0.713887,0.71361,2.24292,63,0.76283,10,0.00160057,-2.64919,0.0776117,0.760195,0.712623,
2,1,0,1,0,41570.7,0.709892,0.709608,1.99623,63,0.764515,10,0.00141654,-2.69979,0.0750825,0.785802,0.70873,
2,1,0,0,0,41571.5,0.705897,0.705641,1.76699,63,0.76601,10,0.00124686,-2.75277,0.0727318,0.811199,0.704864,
2,1,0,1,0,41572.3,0.701901,0.701624,1.55547,63,0.767329,10,0.00109136,-2.80814,0.0688109,0.857422,0.70094,
2,1,0,1,0,41573.1,0.697906,0.697632,1.3612,63,0.768487,10,0.000949615,-2.86608,0.06598,0.894211,0.697033,
2,1,0,1,0,41573.9,0.693911,0.693638,1.18579,63,0.769496,10,0.000822512,-2.92599,0.0637205,0.925919,0.693116,
2,1,0,1,0,41574.7,0.689916,0.689636,1.02487,63,0.770371,10,0.000706784,-2.98933,0.0601619,0.980688,0.689185,
2,1,0,0,0,41575.5,0.685921,0.685625,0.878651,63,0.771123,10,0.000602425,-3.05618,0.0581822,1.01405,0.685239,
2,1,0,1,0,41576.3,0.681926,0.681651,0.747636,63,0.771765,10,0.000509627,-3.12631,0.0540903,1.09077,0.681322,
2,1,0,1,0,41577.1,0.67793,0.677625,0.629883,63,0.772308,10,0.000426825,-3.20074,0.0515968,1.14348,0.677348,
2,1,0,1,0,41577.9,0.673935,0.673665,0.527162,63,0.772762,10,0.00035513,-3.27806,0.0491696,1.19993,0.673433,
2,1,0,1,0,41578.7,0.66994,0.669663,0.435174,63,0.773138,10,0.00029142,-3.36134,0.0464736,1.26954,0.669472,
2,1,0,0,0,41579.5,0.665945,0.665636,0.353665,63,0.773445,10,0.000235413,-3.45141,0.042918,1.37471,0.665481,
2,1,0,1,0,41580.3,0.66195,0.661649,0.284417,63,0.773692,10,0.000188185,-3.54604,0.0394765,1.49456,0.661524,
2,1,0,0,0,41581.1,0.657955,0.657672,0.223356,63,0.773887,10,0.000146895,-3.651,0.0363939,1.62115,0.657573,
2,1,0,1,0,41581.9,0.653959,0.653665,0.170576,63,0.774038,10,0.0001115,-3.76808,0.0312816,1.88609,0.65359,
2,1,0,1,0,41582.7,0.649964,0.649669,0.125884,63,0.774149,10,8.17832e-05,-3.90003,0.028263,2.08753,0.649614,
2,1,0,1,0,41583.5,0.64597,0.645674,0.0879775,63,0.774227,10,5.68048e-05,-4.05563,0.0228004,2.58767,0.645635,
2,1,0,1,0,41584.3,0.641974,0.641723,0.055359,63,0.774277,10,3.55251e-05,-4.25681,0.0168499,3.50151,0.641699,
2,1,0,0,0,41585.1,0.637979,0.63772,0.0280302,63,0.774302,10,1.78754e-05,-4.55237,0.00920841,6.40719,0.637708,
2,1,0,1,0,41585.9,0.633983,0.633683,0.00458229,63,0.774308,10,2.90372e-06,-5.33892,0.00841166,7.01408,0.633681,
2,0,0,1,0,41586.7,0.629988,0.629666,-0.0149924,63,0.774296,10,-9.44022e-06,-4.82413,-0.00609576,-9.67886,0.629673,
2,0,0,1,0,41587.5,0.625993,0.625689,-0.0307372,63,0.774271,10,-1.92319e-05,-4.51234,-0.0197075,-2.99379,0.625702,
2,0,0,1,0,41588.3,0.621998,0.621728,-0.0440872,63,0.774234,10,-2.74103e-05,-4.35569,-0.0336747,-1.75206,0.621748,
2,0,0,0,0,41589.1,0.618003,0.61771,-0.0543123,63,0.774188,10,-3.35493e-05,-4.2651,-0.0451949,-1.30546,0.617734,
2,0,0,1,0,41589.9,0.614008,0.613702,-0.0644668,63,0.774133,10,-3.95634e-05,-4.19066,-0.0722827,-0.81624,0.61373,
2,0,0,1,0,41590.7,0.610012,0.609738,-0.0720877,63,0.774071,10,-4.39546e-05,-4.14214,-0.0832125,-0.709028,0.60977,
2,0,0,1,0,41591.5,0.606017,0.605701,-0.0783169,63,0.774003,10,-4.74367e-05,-4.10614,-0.117908,-0.50039,0.605736,
2,0,0,1,0,41592.3,0.602022,0.601733,-0.08549,63,0.77393,10,-5.14422e-05,-4.06808,-0.181916,-0.324326,0.601771,
2,0,0,0,0,41593.1,0.598027,0.597743,-0.090123,63,0.773853,10,-5.38704e-05,-4.04516,-0.169953,-0.347156,0.597783,
2,0,0,1,0,41593.9,0.594032,0.593709,-0.0938641,63,0.773772,10,-5.5728e-05,-4.0275,-0.216388,-0.272659,0.59375,
2,0,0,0,0,41594.7,0.590037,0.589725,-0.0980086,63,0.773689,10,-5.77981e-05,-4.00874,-0.22419,-0.263169,0.589768,
2,0,0,1,0,41595.5,0.586041,0.585731,-0.101246,63,0.773602,10,-5.93031e-05,-3.99462,-0.357757,-0.164916,0.585776,
2,0,0,1,0,41596.3,0.582046,0.581774,-0.103332,63,0.773513,10,-6.01162e-05,-3.98576,-0.420891,-0.140179,0.58182,
2,0,0,1,0,41597.1,0.578052,0.577777,-0.105766,63,0.773422,10,-6.11094e-05,-3.97565,-0.385775,-0.152939,0.577824,
2,0,0,1,0,41597.9,0.574056,0.573738,-0.10754,63,0.773329,10,-6.17e-05,-3.96843,-0.541043,-0.109049,0.573786,
2,0,0,0,0,41598.7,0.570061,0.569782,-0.109359,63,0.773235,10,-6.23105e-05,-3.96115,-0.853212,-0.0691504,0.56983,
2,0,0,1,0,41599.5,0.566065,0.565777,-0.11134,63,0.77314,10,-6.29936e-05,-3.95335,-0.369728,-0.159577,0.565826,
2,0,0,1,0,41600.3,0.56207,0.56175,-0.113575,63,0.773043,10,-6.3801e-05,-3.94472,-1.09326,-0.0539672,0.5618,
2,0,0,1,0,41601.1,0.558075,0.557799,-0.114175,63,0.772944,10,-6.36869e-05,-3.94243,-0.601847,-0.0980315,0.557849,
2,0,0,1,0,41601.9,0.55408,0.553812,-0.115297,63,0.772845,10,-6.38528e-05,-3.93818,-0.604591,-0.0975866,0.553863,
2,0,0,0,0,41602.7,0.550085,0.549759,-0.11695,63,0.772744,10,-6.42942e-05,-3.932,1.63162,0.0361604,0.549811,
2,0,0,1,0,41603.5,0.54609,0.545798,-0.119113,63,0.772643,10,-6.50113e-05,-3.92404,-0.488393,-0.120804,0.54585,
2,0,0,1,0,41604.3,0.542094,0.541806,-0.118056,63,0.772541,10,-6.39635e-05,-3.92791,-0.849837,-0.0694251,0.541858,
2,0,0,1,0,41605.1,0.538099,0.537853,-0.12015,63,0.772438,10,-6.46228e-05,-3.92028,2.05998,0.0286411,0.537906,
2,0,0,1,0,41605.9,0.534104,0.533773,-0.120249,63,0.772335,10,-6.41855e-05,-3.91992,-0.671337,-0.0878844,0.533826,
2,0,0,0,0,41606.7,0.530109,0.529764,-0.122184,63,0.77223,10,-6.47286e-05,-3.91299,-1.25813,-0.0468949,0.529818,
2,0,0,1,0,41607.5,0.526114,0.525813,-0.123472,63,0.772125,10,-6.49232e-05,-3.90843,-0.871574,-0.0676936,0.525868,
2,0,0,0,0,41608.3,0.522119,0.521833,-0.123067,63,0.772019,10,-6.42204e-05,-3.90986,-1.69244,-0.0348609,0.521887,
2,0,0,1,0,41609.1,0.518123,0.517831,-0.12455,63,0.771912,10,-6.4496e-05,-3.90466,-2.14671,-0.0274839,0.517886,
2,0,0,1,0,41609.9,0.514128,0.513805,-0.124893,63,0.771805,10,-6.41706e-05,-3.90346,-0.538905,-0.109481,0.51386,
2,0,0,1,0,41610.7,0.510133,0.509772,-0.127105,63,0.771697,10,-6.47945e-05,-3.89584,-1.2895,-0.0457541,0.509828,
2,0,0,1,0,41611.5,0.506138,0.5058,-0.128083,63,0.771587,10,-6.47845e-05,-3.89251,-1.54205,-0.0382607,0.505857,
2,0,0,0,0,41612.3,0.502143,0.501831,-0.128475,63,0.771477,10,-6.44727e-05,-3.89118,-1.00854,-0.0585001,0.501888,
2,0,0,1,0,41613.1,0.498148,0.497841,-0.129979,63,0.771366,10,-6.47087e-05,-3.88613,-1.34028,-0.0440205,0.497898,
2,0,0,1,0,41613.9,0.494152,0.493828,-0.131768,63,0.771254,10,-6.50706e-05,-3.88019,-0.974209,-0.0605619,0.493886,
2,0,0,1,0,41614.7,0.490157,0.489835,-0.13219,63,0.771141,10,-6.47514e-05,-3.8788,-0.82095,-0.0718679,0.489893,
2,0,0,1,0,41615.5,0.486162,0.485847,-0.133505,63,0.771027,10,-6.48629e-05,-3.8745,-1.81977,-0.0324216,0.485906,
2,0,0,0,0,41616.3,0.482167,0.481857,-0.134335,63,0.770912,10,-6.47301e-05,-3.87181,-0.793223,-0.0743801,0.481916,
2,0,0,1,0,41617.1,0.478172,0.477881,-0.136284,63,0.770796,10,-6.51275e-05,-3.86556,-0.918542,-0.0642322,0.477941,
2,0,0,0,0,41617.9,0.474177,0.473921,-0.136958,63,0.770679,10,-6.49072e-05,-3.86341,-3.79205,-0.0155589,0.473982,
2,0,0,1,0,41618.7,0.470181,0.469863,-0.138466,63,0.770561,10,-6.50601e-05,-3.85866,-0.69396,-0.0850193,0.469924,
2,0,0,1,0,41619.5,0.466186,0.465865,-0.139099,63,0.770442,10,-6.48015e-05,-3.85667,-1.02482,-0.0575709,0.465926,
2,0,0,1,0,41620.3,0.462191,0.461831,-0.141569,63,0.770323,10,-6.53809e-05,-3.84903,-2.64601,-0.0222977,0.461893,
2,0,0,1,0,41621.1,0.458196,0.457893,-0.141715,63,0.770201,10,-6.48904e-05,-3.84858,-0.585667,-0.10074,0.457956,
2,0,0,0,0,41621.9,0.454201,0.453962,-0.14333,63,0.770079,10,-6.50666e-05,-3.84366,-0.709038,-0.0832113,0.454025,
2,0,0,1,0,41622.7,0.450205,0.449915,-0.145282,63,0.769956,10,-6.53648e-05,-3.83779,-1.40589,-0.0419662,0.449979,
2,0,0,1,0,41623.5,0.44621,0.445861,-0.145571,63,0.769831,10,-6.49043e-05,-3.83693,-0.710859,-0.0829982,0.445925,
2,0,0,1,0,41624.3,0.442215,0.441928,-0.14823,63,0.769705,10,-6.5507e-05,-3.82906,-2.3354,-0.0252633,0.441993,
2,0,0,1,0,41625.1,0.43822,0.437941,-0.149747,63,0.769578,10,-6.55801e-05,-3.82464,-0.430322,-0.137107,0.438007,
2,0,0,0,0,41625.9,0.434225,0.433924,-0.151619,63,0.769449,10,-6.57912e-05,-3.81925,-1.36036,-0.0433707,0.433991,
2,0,0,1,0,41626.7,0.43023,0.429918,-0.152544,63,0.769319,10,-6.55813e-05,-3.81661,-0.869908,-0.0678233,0.429985,
2,0,0,1,0,41627.5,0.426234,0.425952,-0.154675,63,0.769188,10,-6.58839e-05,-3.81058,-1.06502,-0.0553982,0.42602,
2,0,0,1,0,41628.3,0.422239,0.421898,-0.156533,63,0.769055,10,-6.60411e-05,-3.80539,-1.04887,-0.0562508,0.421967,
2,0,0,1,0,41629.1,0.418244,0.417945,-0.158332,63,0.768921,10,-6.61741e-05,-3.80043,-0.61116,-0.0965377,0.418015,
2,0,0,0,0,41629.9,0.414249,0.413922,-0.159364,63,0.768785,10,-6.59642e-05,-3.79761,-0.753266,-0.0783255,0.413993,
2,0,0,1,0,41630.7,0.410254,0.409901,-0.161781,63,0.768647,10,-6.63143e-05,-3.79107,-0.713818,-0.0826541,0.409973,
2,0,0,0,0,41631.5,0.406259,0.405944,-0.164134,63,0.768508,10,-6.66292e-05,-3.7848,-0.788593,-0.0748168,0.406016,
2,0,0,1,0,41632.3,0.402263,0.401975,-0.165822,63,0.768368,10,-6.66561e-05,-3.78036,-0.58217,-0.101345,0.402047,
2,0,0,1,0,41633.1,0.398268,0.397973,-0.168302,63,0.768225,10,-6.69799e-05,-3.77391,-1.14322,-0.0516086,0.398047,
2,0,0,1,0,41633.9,0.394274,0.393895,-0.169857,63,0.768082,10,-6.6906e-05,-3.76992,-1.04377,-0.0565261,0.39397,
2,0,0,1,0,41634.7,0.390278,0.389949,-0.171663,63,0.767936,10,-6.69398e-05,-3.76532,-0.856855,-0.0688564,0.390024,
2,0,0,0,0,41635.5,0.386283,0.38598,-0.174291,63,0.767789,10,-6.72729e-05,-3.75872,-0.623073,-0.0946919,0.386056,
2,0,0,1,0,41636.3,0.382287,0.382012,-0.175015,63,0.76764,10,-6.68579e-05,-3.75692,-1.81108,-0.0325773,0.382089,
2,0,0,1,0,41637.1,0.378292,0.378015,-0.177263,63,0.76749,10,-6.7008e-05,-3.75138,-0.917425,-0.0643105,0.378093,
2,0,0,1,0,41637.9,0.374297,0.373983,-0.179336,63,0.767338,10,-6.70686e-05,-3.74633,-0.510788,-0.115508,0.374061,
2,0,0,1,0,41638.7,0.370303,0.369969,-0.18229,63,0.767184,10,-6.74417e-05,-3.73924,-0.655509,-0.0900064,0.370049,
2,0,0,0,0,41639.5,0.366307,0.366025,-0.184231,63,0.767028,10,-6.7433e-05,-3.73464,-0.629837,-0.0936751,0.366106,
2,0,0,1,0,41640.3,0.362312,0.361996,-0.186202,63,0.766871,10,-6.74045e-05,-3.73002,-1.36824,-0.0431212,0.362078,
2,0,0,1,0,41641.1,0.358316,0.35798,-0.188475,63,0.766712,10,-6.74704e-05,-3.72475,-1.4053,-0.041984,0.358063,
2,0,0,1,0,41641.9,0.354321,0.354007,-0.191343,63,0.766551,10,-6.77368e-05,-3.71819,-0.650918,-0.0906413,0.354091,
2,0,0,1,0,41642.7,0.350327,0.35005,-0.192314,63,0.766388,10,-6.73195e-05,-3.71599,-0.984551,-0.0599258,0.350135,
2,0,0,0,0,41643.5,0.346331,0.346035,-0.194572,63,0.766223,10,-6.73288e-05,-3.71092,-0.656273,-0.0899016,0.346121,
2,0,0,1,0,41644.3,0.342336,0.342074,-0.197614,63,0.766057,10,-6.75985e-05,-3.70418,-0.639149,-0.0923102,0.342161,
2,0,0,0,0,41645.1,0.338341,0.338051,-0.199672,63,0.765888,10,-6.74994e-05,-3.69968,-0.638593,-0.0923906,0.338139,
2,0,0,1,0,41645.9,0.334345,0.33403,-0.202243,63,0.765718,10,-6.75551e-05,-3.69413,-1.02402,-0.0576159,0.334119,
2,0,0,1,0,41646.7,0.33035,0.330042,-0.204798,63,0.765545,10,-6.75921e-05,-3.68867,-1.03729,-0.056879,0.330132,
2,0,0,1,0,41647.5,0.326355,0.326045,-0.20664,63,0.765371,10,-6.73739e-05,-3.68479,-0.785033,-0.0751561,0.326136,
2,0,0,1,0,41648.3,0.32236,0.32201,-0.209107,63,0.765194,10,-6.73343e-05,-3.67963,-0.702492,-0.0839867,0.322102,
2,0,0,0,0,41649,0.318365,0.318046,-0.210622,63,0.765016,10,-6.69873e-05,-3.6765,-0.842832,-0.0700021,0.318138,
2,0,0,1,0,41649.8,0.31437,0.314105,-0.214414,63,0.764836,10,-6.73484e-05,-3.66875,-0.917243,-0.0643232,0.3142,
2,0,0,1,0,41650.6,0.310374,0.310006,-0.216743,63,0.764654,10,-6.71917e-05,-3.66405,-0.621473,-0.0949358,0.310101,
2,0,0,1,0,41651.4,0.306379,0.306071,-0.219681,63,0.764469,10,-6.72378e-05,-3.65821,-0.695041,-0.0848871,0.306167,
2,0,0,1,0,41652.2,0.302385,0.302069,-0.221741,63,0.764283,10,-6.69811e-05,-3.65415,-1.23737,-0.0476816,0.302167,
2,0,0,0,0,41653,0.298389,0.298068,-0.223357,63,0.764095,10,-6.65755e-05,-3.651,-0.724627,-0.0814212,0.298166,
2,0,0,1,0,41653.8,0.294394,0.294045,-0.226184,63,0.763905,10,-6.65081e-05,-3.64554,-1.50014,-0.0393297,0.294144,
2,0,0,1,0,41654.6,0.290398,0.290112,-0.228214,63,0.763713,10,-6.62077e-05,-3.64166,-0.782689,-0.0753811,0.290213,
2,0,0,1,0,41655.4,0.286403,0.286042,-0.231384,63,0.763519,10,-6.61855e-05,-3.63567,-0.700756,-0.0841948,0.286144,
2,0,0,1,0,41656.2,0.282408,0.282061,-0.234096,63,0.763323,10,-6.60292e-05,-3.63061,-1.83108,-0.0322214,0.282164,
2,0,0,1,0,41657,0.278414,0.278103,-0.236489,63,0.763125,10,-6.57683e-05,-3.62619,-0.471891,-0.125029,0.278207,
2,0,0,1,0,41657.8,0.274418,0.274138,-0.239184,63,0.762924,10,-6.55694e-05,-3.62127,-0.906158,-0.0651101,0.274243,
2,0,0,0,0,41658.6,0.270423,0.270105,-0.242329,63,0.762722,10,-6.54542e-05,-3.61559,-0.847543,-0.069613,0.270211,
2,0,0,1,0,41659.4,0.266427,0.26609,-0.244238,63,0.762517,10,-6.49893e-05,-3.61219,-0.807439,-0.0730705,0.266197,
2,0,0,1,0,41660.2,0.262432,0.262116,-0.247562,63,0.76231,10,-6.489e-05,-3.60632,-0.965387,-0.0611154,0.262225,
2,0,0,1,0,41661,0.258437,0.258112,-0.249137,63,0.762102,10,-6.43051e-05,-3.60356,-0.806068,-0.0731949,0.258222,
2,0,0,1,0,41661.8,0.254442,0.254161,-0.251922,63,0.761891,10,-6.40287e-05,-3.59873,-1.10216,-0.0535313,0.254271,
2,0,0,0,0,41662.6,0.250447,0.250089,-0.254434,63,0.761678,10,-6.36311e-05,-3.59442,-6.50309,-0.00907261,0.250201,
2,0,0,1,0,41663.4,0.246452,0.246156,-0.256287,63,0.761464,10,-6.30864e-05,-3.59127,-0.517614,-0.113984,0.246268,
2,0,0,1,0,41664.2,0.242456,0.242155,-0.258215,63,0.761247,10,-6.25283e-05,-3.58802,-1.92588,-0.0306353,0.242269,
2,0,0,1,0,41665,0.238461,0.238142,-0.261217,63,0.761028,10,-6.22068e-05,-3.583,-0.720349,-0.0819048,0.238257,
2,0,0,1,0,41665.8,0.234467,0.234141,-0.264214,63,0.760808,10,-6.18632e-05,-3.57804,-0.898222,-0.0656853,0.234257,
2,0,0,0,0,41666.6,0.230471,0.230139,-0.265173,63,0.760586,10,-6.10267e-05,-3.57647,-1.31798,-0.0447656,0.230256,
2,0,0,1,0,41667.4,0.226476,0.226151,-0.267816,63,0.760362,10,-6.05668e-05,-3.57216,-1.14938,-0.0513319,0.226269,
2,0,0,0,0,41668.2,0.222481,0.222163,-0.270429,63,0.760135,10,-6.00792e-05,-3.56795,-0.885233,-0.0666491,0.222282,
2,0,0,1,0,41669,0.218485,0.218176,-0.274469,63,0.759907,10,-5.98824e-05,-3.56151,-1.15978,-0.0508719,0.218296,
2,0,0,1,0,41669.8,0.21449,0.214184,-0.276594,63,0.759677,10,-5.9242e-05,-3.55816,-0.953089,-0.061904,0.214306,
2,0,0,1,0,41670.6,0.210496,0.210202,-0.279311,63,0.759444,10,-5.87117e-05,-3.55391,-1.09526,-0.0538686,0.210325,
2,0,0,1,0,41671.4,0.2065,0.206178,-0.28223,63,0.759209,10,-5.81896e-05,-3.5494,-0.631304,-0.0934573,0.206302,
2,0,0,0,0,41672.2,0.202505,0.202176,-0.284637,63,0.758972,10,-5.75468e-05,-3.54571,-1.12899,-0.052259,0.202301,
2,0,0,1,0,41673,0.198509,0.198211,-0.287961,63,0.758732,10,-5.7077e-05,-3.54067,-0.748123,-0.078864,0.198338,
2,0,0,1,0,41673.8,0.194514,0.194183,-0.291595,63,0.75849,10,-5.66228e-05,-3.53522,-0.702799,-0.08395,0.194311,
2,0,0,1,0,41674.6,0.190519,0.190218,-0.294116,63,0.758244,10,-5.59461e-05,-3.53148,-0.641176,-0.0920184,0.190348,
2,0,0,1,0,41675.4,0.186524,0.186157,-0.299868,63,0.757995,10,-5.58224e-05,-3.52307,-0.679268,-0.0868582,0.186289,
2,0,0,0,0,41676.2,0.182529,0.182229,-0.303656,63,0.757743,10,-5.53349e-05,-3.51762,-0.543384,-0.108579,0.182363,
2,0,0,1,0,41677,0.178534,0.178212,-0.30922,63,0.757487,10,-5.51067e-05,-3.50973,-0.506401,-0.116508,0.178348,
2,0,0,1,0,41677.8,0.174538,0.174235,-0.314912,63,0.757226,10,-5.48688e-05,-3.50181,-0.545271,-0.108203,0.174374,
2,0,0,1,0,41678.6,0.170543,0.170222,-0.321908,63,0.75696,10,-5.47959e-05,-3.49227,-0.331528,-0.177964,0.170364,
2,0,0,1,0,41679.4,0.166549,0.166212,-0.329948,63,0.756688,10,-5.48413e-05,-3.48156,-0.383076,-0.154016,0.166357,
2,0,0,0,0,41680.2,0.162553,0.162271,-0.339991,63,0.756409,10,-5.51707e-05,-3.46853,-0.285534,-0.20663,0.162421,
2,0,0,1,0,41681,0.158558,0.158227,-0.351983,63,0.75612,10,-5.5693e-05,-3.45348,-0.220074,-0.268091,0.158382,
2,0,0,0,0,41681.8,0.154563,0.154218,-0.3692,63,0.755821,10,-5.69374e-05,-3.43274,-0.20146,-0.292862,0.154381,
2,0,0,1,0,41682.6,0.150567,0.150254,-0.390444,63,0.755507,10,-5.86658e-05,-3.40844,-0.134333,-0.439208,0.150426,
2,0,0,1,0,41683.4,0.146572,0.146219,-0.418619,63,0.755173,10,-6.121e-05,-3.37818,-0.124379,-0.474355,0.146403,
2,0,0,1,0,41684.2,0.142578,0.142275,-0.455688,63,0.754814,10,-6.48332e-05,-3.34133,-0.100097,-0.589428,0.142476,
2,0,0,1,0,41685,0.138582,0.138266,-0.498377,63,0.754422,10,-6.89084e-05,-3.30244,-0.094928,-0.621524,0.138485,
2,0,0,0,0,41685.8,0.134587,0.134249,-0.549259,63,0.753991,10,-7.37373e-05,-3.26022,-0.102154,-0.577559,0.13449,
2,0,0,1,0,41686.6,0.130591,0.130239,-0.599262,63,0.75352,10,-7.80473e-05,-3.22238,-0.115681,-0.510024,0.130503,
2,0,0,1,0,41687.4,0.126596,0.126295,-0.639276,63,0.753011,10,-8.07372e-05,-3.19431,-0.15865,-0.371888,0.126576,
2,0,0,1,0,41688.2,0.122602,0.122309,-0.67117,63,0.752474,10,-8.209e-05,-3.17317,-0.255043,-0.231334,0.122604,
2,0,0,1,0,41689,0.118607,0.118294,-0.691009,63,0.751916,10,-8.17424e-05,-3.16052,-0.416733,-0.141577,0.118598,
2,0,0,0,0,41689.8,0.114611,0.114276,-0.7018,63,0.751347,10,-8.01989e-05,-3.15379,-2.19909,-0.0268293,0.114585,
2,0,0,1,0,41690.6,0.110616,0.110275,-0.702848,63,0.750774,10,-7.75067e-05,-3.15314,-6.18839,-0.00953399,0.110584,
2,0,0,1,0,41691.4,0.10662,0.106296,-0.700326,63,0.750201,10,-7.4442e-05,-3.1547,2.57982,0.0228698,0.106604,
2,0,0,1,0,41692.2,0.102625,0.102292,-0.696128,63,0.749631,10,-7.12086e-05,-3.15731,1.0239,0.0576229,0.102599,
2,0,0,1,0,41693,0.0986305,0.0983108,-0.689791,63,0.749065,10,-6.78139e-05,-3.16128,1.00505,0.0587033,0.0986143,
2,0,0,0,0,41693.8,0.0946351,0.0943128,-0.680213,63,0.748505,10,-6.41528e-05,-3.16735,0.922273,0.0639724,0.0946121,
2,0,0,1,0,41694.6,0.0906399,0.0902694,-0.67394,63,0.74795,10,-6.08362e-05,-3.17138,0.512056,0.115222,0.090566,
2,0,0,0,0,41695.4,0.0866448,0.0863056,-0.664037,63,0.747404,10,-5.73101e-05,-3.17781,0.880566,0.0670024,0.0865978,
2,0,0,1,0,41696.2,0.0826492,0.0823234,-0.654763,63,0.746865,10,-5.39023e-05,-3.18392,0.54648,0.107964,0.0826115,
2,0,0,1,0,41697,0.0786544,0.0783611,-0.647038,63,0.746334,10,-5.07026e-05,-3.18907,0.810958,0.0727535,0.0786458,
2,0,0,1,0,41697.8,0.0746596,0.0743106,-0.636495,63,0.74581,10,-4.72983e-05,-3.19621,0.68534,0.0860887,0.0745907,
2,0,0,1,0,41698.6,0.0706641,0.0703232,-0.627716,63,0.745292,10,-4.4143e-05,-3.20224,0.606153,0.0973352,0.0705994,
2,0,0,0,0,41699.4,0.0666689,0.066352,-0.620069,63,0.744783,10,-4.11428e-05,-3.20756,0.69295,0.0851432,0.0666248,
2,0,0,1,0,41700.2,0.0626737,0.0622811,-0.60939,63,0.744279,10,-3.79535e-05,-3.2151,0.594331,0.0992713,0.0625492,
2,0,0,1,0,41701,0.0586783,0.0583564,-0.601749,63,0.743783,10,-3.51159e-05,-3.22058,0.507135,0.11634,0.0586212,
2,0,0,1,0,41701.8,0.0546835,0.0543228,-0.592034,63,0.743294,10,-3.21609e-05,-3.22765,0.775016,0.0761275,0.0545833,
2,0,0,1,0,41702.6,0.0506886,0.0504019,-0.582003,63,0.742812,10,-2.9334e-05,-3.23507,0.445063,0.132566,0.0506579,
2,0,0,0,0,41703.4,0.046693,0.0463782,-0.571729,63,0.74234,10,-2.65157e-05,-3.24281,0.544972,0.108262,0.0466297,
2,0,0,1,0,41704.2,0.0426979,0.0423179,-0.560941,63,0.741875,10,-2.37378e-05,-3.25108,0.58276,0.101242,0.0425647,
2,0,0,1,0,41705,0.0387022,0.0383431,-0.551509,63,0.741418,10,-2.11465e-05,-3.25845,0.450658,0.13092,0.0385857,
2,0,0,1,0,41705.8,0.0347074,0.0343997,-0.540492,63,0.740971,10,-1.85927e-05,-3.26721,0.475215,0.124154,0.0346375,
2,0,0,1,0,41706.6,0.0307126,0.0304362,-0.529863,63,0.740531,10,-1.6127e-05,-3.27584,0.544906,0.108275,0.0306694,
2,0,0,0,0,41707.4,0.0267172,0.0263778,-0.521604,63,0.740099,10,-1.37588e-05,-3.28266,0.532218,0.110857,0.0266073,
2,0,0,1,0,41708.2,0.022722,0.0223759,-0.513985,63,0.739673,10,-1.15009e-05,-3.28905,0.769955,0.0766278,0.022602,
2,0,0,0,0,41709,0.0187268,0.0183792,-0.507883,63,0.739253,10,-9.33447e-06,-3.29424,0.668311,0.0882823,0.0186027,
2,0,0,1,0,41709.8,0.0147313,0.0143769,-0.503404,63,0.738839,10,-7.23739e-06,-3.29808,1.05132,0.0561202,0.0145984,
2,0,0,1,0,41710.6,0.0107365,0.010387,-0.499893,63,0.738427,10,-5.19239e-06,-3.30112,3.60883,0.0163488,0.0106069,
2,0,0,1,0,41711.4,0.00674163,0.00644255,-0.497325,63,0.738018,10,-3.20404e-06,-3.30336,3.72213,0.0158512,0.00666138,
2,0,0,1,0,41712.2,0.00274612,0.00246779,-0.498326,63,0.737609,10,-1.22976e-06,-3.30249,-1.42923,-0.041281,0.00268705,
2,0,0,0,0,41712.7,0.000274105,-0.00013445,-0.501078,63,0.737353,10,6.73701e-08,-3.30009, , ,8.6024e-05,