File: Figure_codes/Fig_3-5/workspace_calculate_alpha_eff/20221101_1-115_003_TrumpetPlot_ParaChange_from10_every3_16_CV_C01_63.csv
mode,ox/red,error,control changes,counter inc.,time/s,control/V,Ewe/V,<I>/mA,cycle number,(Q-Qo)/C,I Range,P/W,log(|I|),Tafel slope mV/dec,alpha_eff,E-IR/V,
2,0,0,1,0,42602.9,2.44065e-05,-0.000325324,-0.039607,64,0.0000000E+000,10,1.28851e-08,-4.40223, , ,-0.000307896,
2,1,0,1,0,42603.6,0.00379485,0.00350062,0.201614,64,0.000132179,10,7.05774e-07,-3.69548,0.0476949,1.23703,0.00341191,
2,1,0,0,0,42604.4,0.00779002,0.0074464,0.226332,64,0.000314885,10,1.68536e-06,-3.64525,0.0980356,0.601822,0.00734681,
2,1,0,1,0,42605.2,0.0117852,0.0114113,0.240231,64,0.000513371,10,2.74133e-06,-3.61937,0.153894,0.383381,0.0113056,
2,1,0,1,0,42606,0.0157806,0.0154252,0.255296,64,0.000723935,10,3.93799e-06,-3.59296,0.157606,0.374352,0.0153128,
2,1,0,1,0,42606.8,0.0197754,0.0194372,0.26886,64,0.000945505,10,5.22589e-06,-3.57047,0.20683,0.285258,0.0193189,
2,1,0,1,0,42607.6,0.0237704,0.0234242,0.283142,64,0.00117776,10,6.63237e-06,-3.548,0.176837,0.333641,0.0232996,
2,1,0,0,0,42608.4,0.0277659,0.0274181,0.29741,64,0.0014207,10,8.15442e-06,-3.52664,0.204117,0.28905,0.0272872,
2,1,0,1,0,42609.2,0.0317611,0.0314551,0.310699,64,0.00167474,10,9.77306e-06,-3.50766,0.202797,0.290931,0.0313184,
2,1,0,1,0,42610,0.0357567,0.0354214,0.324085,64,0.00193993,10,1.14796e-05,-3.48934,0.267765,0.220342,0.0352788,
2,1,0,1,0,42610.8,0.0397516,0.0393914,0.337855,64,0.00221551,10,1.33086e-05,-3.47127,0.200517,0.29424,0.0392427,
2,1,0,1,0,42611.6,0.0437465,0.0434395,0.349493,64,0.00250263,10,1.51818e-05,-3.45656,0.237925,0.247977,0.0432858,
2,1,0,1,0,42612.4,0.0477413,0.0474393,0.364397,64,0.00279987,10,1.72868e-05,-3.43842,0.274273,0.215114,0.047279,
2,1,0,1,0,42613.2,0.0517369,0.0514002,0.376174,64,0.00310696,10,1.93354e-05,-3.42461,0.28467,0.207258,0.0512347,
2,1,0,0,0,42614,0.0557321,0.0553959,0.387942,64,0.00342402,10,2.14904e-05,-3.41123,0.355469,0.165978,0.0552252,
2,1,0,1,0,42614.8,0.0597277,0.0593855,0.398602,64,0.00374934,10,2.36712e-05,-3.39946,0.342591,0.172217,0.0592101,
2,1,0,1,0,42615.6,0.0637226,0.0634253,0.407615,64,0.00408329,10,2.58531e-05,-3.38975,0.378314,0.155955,0.063246,
2,1,0,1,0,42616.4,0.0677174,0.0673707,0.41847,64,0.00442538,10,2.81926e-05,-3.37834,0.635614,0.0928236,0.0671866,
2,1,0,1,0,42617.2,0.0717128,0.0713666,0.426358,64,0.004774,10,3.04278e-05,-3.37023,0.331773,0.177832,0.071179,
2,1,0,0,0,42618,0.075708,0.0753951,0.431382,64,0.00512911,10,3.25241e-05,-3.36514,0.718227,0.0821467,0.0752053,
2,1,0,1,0,42618.8,0.0797031,0.079431,0.440401,64,0.0054897,10,3.49815e-05,-3.35615,0.577742,0.102122,0.0792373,
2,1,0,1,0,42619.6,0.0836986,0.0833866,0.446497,64,0.0058562,10,3.72319e-05,-3.35018,0.436505,0.135165,0.0831902,
2,1,0,1,0,42620.4,0.0876935,0.0873437,0.45857,64,0.0062299,10,4.00532e-05,-3.33859,0.368031,0.160312,0.0871419,
2,1,0,1,0,42621.2,0.0916883,0.0913614,0.471614,64,0.00661237,10,4.30873e-05,-3.32641,0.305054,0.193408,0.0911539,
2,1,0,0,0,42622,0.0956838,0.0953488,0.486066,64,0.00700707,10,4.63458e-05,-3.3133,0.242381,0.243419,0.0951349,
2,1,0,1,0,42622.8,0.099679,0.0993699,0.506763,64,0.00741634,10,5.0357e-05,-3.29519,0.235161,0.250892,0.0991469,
2,1,0,0,0,42623.6,0.103674,0.103357,0.52948,64,0.00784227,10,5.47255e-05,-3.27615,0.200056,0.294917,0.103124,
2,1,0,1,0,42624.4,0.10767,0.107339,0.549378,64,0.00828642,10,5.89697e-05,-3.26013,0.271235,0.217523,0.107097,
2,1,0,1,0,42625.2,0.111664,0.111329,0.569639,64,0.00874582,10,6.34174e-05,-3.2444,0.299951,0.196699,0.111079,
2,1,0,1,0,42626,0.115659,0.11536,0.584142,64,0.00921858,10,6.73868e-05,-3.23348,0.325433,0.181297,0.115103,
2,1,0,1,0,42626.8,0.119655,0.119344,0.597385,64,0.00970286,10,7.12941e-05,-3.22375,0.758242,0.0778116,0.119081,
2,1,0,0,0,42627.6,0.12365,0.123353,0.607077,64,0.0101954,10,7.48848e-05,-3.21676,0.538664,0.10953,0.123086,
2,1,0,1,0,42628.4,0.127646,0.127313,0.613707,64,0.0106957,10,7.81328e-05,-3.21204,1.09164,0.054047,0.127043,
2,1,0,1,0,42629.2,0.131641,0.131315,0.617303,64,0.0112005,10,8.10609e-05,-3.2095,-0.924149,-0.0638425,0.131043,
2,1,0,1,0,42630,0.135635,0.135338,0.605587,64,0.0117014,10,8.19588e-05,-3.21782,-0.318587,-0.185193,0.135071,
2,1,0,1,0,42630.8,0.139631,0.139309,0.57269,64,0.0121859,10,7.97808e-05,-3.24208,-0.127779,-0.461736,0.139057,
2,1,0,0,0,42631.6,0.143626,0.143293,0.52622,64,0.0126373,10,7.54036e-05,-3.27883,-0.0868369,-0.679434,0.143061,
2,1,0,1,0,42632.4,0.147621,0.147297,0.466246,64,0.0130447,10,6.86766e-05,-3.33139,-0.0771483,-0.764761,0.147092,
2,1,0,1,0,42633.2,0.151617,0.15128,0.415497,64,0.0134073,10,6.28565e-05,-3.38143,-0.0855092,-0.689985,0.151098,
2,1,0,1,0,42634,0.155612,0.155286,0.377539,64,0.0137338,10,5.86267e-05,-3.42304,-0.112073,-0.526441,0.15512,
2,1,0,1,0,42634.8,0.159606,0.159251,0.351754,64,0.0140359,10,5.6017e-05,-3.45376,-0.166919,-0.353466,0.159096,
2,1,0,0,0,42635.6,0.163602,0.163264,0.337427,64,0.0143224,10,5.50896e-05,-3.47182,-0.205599,-0.286966,0.163115,
2,1,0,1,0,42636.4,0.167597,0.167245,0.325671,64,0.0145979,10,5.4467e-05,-3.48722,-0.469792,-0.125587,0.167102,
2,1,0,0,0,42637.2,0.171592,0.171274,0.317084,64,0.0148662,10,5.43082e-05,-3.49883,-0.427532,-0.138001,0.171134,
2,1,0,1,0,42638,0.175588,0.17527,0.313369,64,0.0151291,10,5.49242e-05,-3.50394,-0.618777,-0.0953494,0.175132,
2,1,0,1,0,42638.8,0.179582,0.179233,0.309,64,0.0153879,10,5.53831e-05,-3.51004,-0.844062,-0.0699001,0.179098,
2,1,0,1,0,42639.6,0.183577,0.183271,0.305431,64,0.015644,10,5.59766e-05,-3.51509,-0.689863,-0.0855242,0.183136,
2,1,0,1,0,42640.4,0.187573,0.187251,0.302955,64,0.0158974,10,5.67286e-05,-3.51862,-1.46566,-0.040255,0.187118,
2,1,0,0,0,42641.2,0.191568,0.191229,0.299022,64,0.0161486,10,5.71817e-05,-3.5243,-0.978193,-0.0603153,0.191097,
2,1,0,1,0,42642,0.195563,0.195256,0.298653,64,0.0163984,10,5.83139e-05,-3.52483,-0.910258,-0.0648168,0.195125,
2,1,0,1,0,42642.8,0.199559,0.199243,0.296322,64,0.0166465,10,5.90401e-05,-3.52824,-4.40121,-0.0134054,0.199113,
2,1,0,1,0,42643.6,0.203553,0.203223,0.293144,64,0.0168934,10,5.95735e-05,-3.53292,-1.33014,-0.0443563,0.203094,
2,1,0,1,0,42644.4,0.207548,0.207205,0.293851,64,0.0171392,10,6.08872e-05,-3.53187,-1.77616,-0.0332178,0.207075,
2,1,0,0,0,42645.2,0.211544,0.211232,0.290888,64,0.0173833,10,6.14449e-05,-3.53627,-5.20408,-0.0113373,0.211104,
2,1,0,1,0,42646,0.215539,0.215183,0.290499,64,0.0176265,10,6.25106e-05,-3.53685,-1.45915,-0.0404344,0.215055,
2,1,0,1,0,42646.8,0.219535,0.219191,0.289186,64,0.0178686,10,6.3387e-05,-3.53882,-3.46202,-0.0170421,0.219064,
2,1,0,1,0,42647.6,0.223529,0.223242,0.287817,64,0.0181099,10,6.4253e-05,-3.54088,-8.00063,-0.00737442,0.223116,
2,1,0,1,0,42648.4,0.227524,0.227208,0.286357,64,0.0183504,10,6.50626e-05,-3.54309,-1.00238,-0.0588597,0.227082,
2,1,0,0,0,42649.2,0.23152,0.231196,0.286782,64,0.01859,10,6.63029e-05,-3.54245,2.09209,0.0282014,0.23107,
2,1,0,1,0,42650,0.235515,0.235217,0.284585,64,0.018829,10,6.69394e-05,-3.54579,-2.31474,-0.0254888,0.235092,
2,1,0,0,0,42650.8,0.23951,0.239198,0.284442,64,0.0190674,10,6.80381e-05,-3.54601,-1.7354,-0.033998,0.239073,
2,1,0,1,0,42651.6,0.243506,0.243174,0.283526,64,0.0193049,10,6.89461e-05,-3.54741,-26.6933,-0.00221029,0.243049,
2,1,0,1,0,42652.4,0.2475,0.247177,0.283064,64,0.0195419,10,6.99668e-05,-3.54812,-4.00607,-0.0147276,0.247052,
2,1,0,1,0,42653.2,0.251495,0.251169,0.281776,64,0.019778,10,7.07734e-05,-3.5501,-2.54867,-0.0231493,0.251045,
2,1,0,1,0,42653.9,0.255491,0.255157,0.281234,64,0.0200136,10,7.1759e-05,-3.55093,-3.76948,-0.015652,0.255034,
2,1,0,0,0,42654.7,0.259486,0.259234,0.281245,64,0.0202489,10,7.2908e-05,-3.55092,-2.13101,-0.0276863,0.25911,
2,1,0,1,0,42655.5,0.263481,0.263136,0.280213,64,0.0204832,10,7.37342e-05,-3.55251,-12.5048,-0.00471817,0.263013,
2,1,0,1,0,42656.3,0.267477,0.267138,0.279404,64,0.0207172,10,7.46394e-05,-3.55377,-2.73983,-0.0215341,0.267015,
2,1,0,1,0,42657.1,0.271471,0.271133,0.278929,64,0.0209504,10,7.56271e-05,-3.55451,-2.06301,-0.0285989,0.271011,
2,1,0,1,0,42657.9,0.275466,0.275132,0.277582,64,0.0211829,10,7.63717e-05,-3.55661,-5.0483,-0.0116871,0.27501,
2,1,0,0,0,42658.7,0.279462,0.279128,0.276571,64,0.0214147,10,7.71988e-05,-3.55819,-2.02676,-0.0291105,0.279006,
2,1,0,1,0,42659.5,0.283457,0.283169,0.276567,64,0.0216455,10,7.83152e-05,-3.5582,-2.01446,-0.0292882,0.283047,
2,1,0,0,0,42660.3,0.287452,0.287128,0.274999,64,0.0218757,10,7.89598e-05,-3.56067,-11.7076,-0.00503944,0.287007,
2,1,0,1,0,42661.1,0.291448,0.291141,0.274067,64,0.0221053,10,7.9792e-05,-3.56214,-1.54983,-0.0380686,0.29102,
2,1,0,1,0,42661.9,0.295442,0.295153,0.273057,64,0.022334,10,8.05936e-05,-3.56375,-4.34849,-0.0135679,0.295032,
2,1,0,1,0,42662.7,0.299437,0.299095,0.271567,64,0.0225621,10,8.12244e-05,-3.56612,-3.14323,-0.0187705,0.298975,
2,1,0,1,0,42663.5,0.303433,0.303153,0.271856,64,0.0227894,10,8.2414e-05,-3.56566,-3.40304,-0.0173374,0.303034,
2,1,0,0,0,42664.3,0.307428,0.307112,0.271072,64,0.023016,10,8.32496e-05,-3.56691,7.749,0.00761388,0.306993,
2,1,0,1,0,42665.1,0.311424,0.311094,0.269728,64,0.0232421,10,8.39109e-05,-3.56907,-1.54481,-0.0381923,0.310976,
2,1,0,1,0,42665.9,0.315418,0.315111,0.269978,64,0.0234672,10,8.50729e-05,-3.56867,-3.94995,-0.0149369,0.314992,
2,1,0,1,0,42666.7,0.319413,0.319102,0.268577,64,0.023692,10,8.57034e-05,-3.57093,-63.9292,-0.000922896,0.318984,
2,1,0,1,0,42667.5,0.323409,0.323139,0.26743,64,0.0239165,10,8.6417e-05,-3.57279,-0.997176,-0.0591671,0.323021,
2,1,0,0,0,42668.3,0.327404,0.327078,0.266972,64,0.0241399,10,8.73208e-05,-3.57353,3.22675,0.0182847,0.326961,
2,1,0,1,0,42669.1,0.331399,0.331105,0.265439,64,0.0243632,10,8.7888e-05,-3.57604,-1.76246,-0.0334759,0.330988,
2,1,0,1,0,42669.9,0.335395,0.335081,0.265873,64,0.0245859,10,8.90889e-05,-3.57533,-55.4699,-0.00106364,0.334964,
2,1,0,1,0,42670.7,0.339389,0.339059,0.265727,64,0.0248079,10,9.00971e-05,-3.57556,9.71557,0.00607273,0.338942,
2,1,0,1,0,42671.5,0.343384,0.343069,0.265527,64,0.0250297,10,9.1094e-05,-3.57589,-1.50627,-0.0391695,0.342952,
2,1,0,0,0,42672.3,0.34738,0.347039,0.264843,64,0.0252509,10,9.1911e-05,-3.57701,-3.57741,-0.0164924,0.346923,
2,1,0,1,0,42673.1,0.351375,0.351063,0.263462,64,0.0254716,10,9.24917e-05,-3.57928,-9.18817,-0.0064213,0.350947,
2,1,0,0,0,42673.9,0.35537,0.355086,0.262896,64,0.0256916,10,9.33506e-05,-3.58022,-1.17435,-0.0502406,0.35497,
2,1,0,1,0,42674.7,0.359366,0.359049,0.262977,64,0.0259111,10,9.44214e-05,-3.58008,3.71992,0.0158605,0.358933,
2,1,0,1,0,42675.5,0.36336,0.363039,0.260983,64,0.0261301,10,9.4747e-05,-3.58339,-1.37181,-0.0430088,0.362924,
2,1,0,1,0,42676.3,0.367355,0.367018,0.261225,64,0.0263483,10,9.58743e-05,-3.58299,2.85413,0.0206718,0.366903,
2,1,0,1,0,42677.1,0.371351,0.371038,0.260816,64,0.0265661,10,9.67727e-05,-3.58367,4.35652,0.0135429,0.370923,
2,1,0,0,0,42677.9,0.375346,0.375053,0.260487,64,0.0267839,10,9.76963e-05,-3.58421,-1.44448,-0.040845,0.374939,
2,1,0,1,0,42678.7,0.379342,0.37906,0.259614,64,0.0270008,10,9.84094e-05,-3.58567,-2.67327,-0.0220704,0.378946,
2,1,0,1,0,42679.5,0.383336,0.383003,0.259337,64,0.0272173,10,9.93268e-05,-3.58614,2.42696,0.0243103,0.382889,
2,1,0,1,0,42680.3,0.387331,0.38702,0.258645,64,0.0274338,10,0.000100101,-3.5873,-1.90856,-0.0309133,0.386906,
2,1,0,1,0,42681.1,0.391327,0.391045,0.258739,64,0.0276498,10,0.000101179,-3.58714,-4.77645,-0.0123523,0.390931,
2,1,0,0,0,42681.9,0.395322,0.394993,0.257511,64,0.0278656,10,0.000101715,-3.5892,7.23578,0.00815392,0.39488,
2,1,0,1,0,42682.7,0.399317,0.39904,0.258711,64,0.028081,10,0.000103236,-3.58719,-1.50576,-0.0391829,0.398926,
2,1,0,1,0,42683.5,0.403313,0.40296,0.257285,64,0.028296,10,0.000103675,-3.58959,2.34469,0.0251632,0.402847,
2,1,0,1,0,42684.3,0.407307,0.406963,0.257631,64,0.028511,10,0.000104846,-3.589,-2.67653,-0.0220434,0.40685,
2,1,0,1,0,42685.1,0.411302,0.410968,0.258143,64,0.0287256,10,0.000106089,-3.58814,8.19791,0.00719696,0.410854,
2,1,0,0,0,42685.9,0.415298,0.415006,0.25655,64,0.0289401,10,0.00010647,-3.59083,-19.0395,-0.00309882,0.414893,
2,1,0,1,0,42686.7,0.419293,0.41895,0.256193,64,0.0291542,10,0.000107332,-3.59143,-1.1778,-0.0500936,0.418837,
2,1,0,0,0,42687.5,0.423288,0.422968,0.257589,64,0.0293678,10,0.000108952,-3.58907,1.62698,0.0362635,0.422854,
2,1,0,1,0,42688.3,0.427283,0.426987,0.256072,64,0.0295816,10,0.000109339,-3.59164,-3.91818,-0.015058,0.426874,
2,1,0,1,0,42689.1,0.431278,0.430976,0.256856,64,0.029795,10,0.000110699,-3.59031,-15.2629,-0.00386559,0.430863,
2,1,0,1,0,42689.9,0.435273,0.434974,0.256489,64,0.0300081,10,0.000111566,-3.59093,2.66264,0.0221585,0.434861,
2,1,0,1,0,42690.7,0.439269,0.438959,0.255861,64,0.0302212,10,0.000112312,-3.592,-6.5196,-0.00904963,0.438846,
2,1,0,0,0,42691.5,0.443264,0.442974,0.256173,64,0.0304339,10,0.000113478,-3.59147,-3.95947,-0.014901,0.442862,
2,1,0,1,0,42692.3,0.447259,0.44694,0.256186,64,0.0306465,10,0.0001145,-3.59144,20.7453,0.00284402,0.446828,
2,1,0,1,0,42693.1,0.451254,0.450972,0.255945,64,0.0308594,10,0.000115424,-3.59185,-4.51086,-0.0130796,0.45086,
2,1,0,1,0,42693.9,0.455249,0.454945,0.256207,64,0.0310718,10,0.00011656,-3.59141,-35.38,-0.00166761,0.454832,
2,1,0,1,0,42694.7,0.459244,0.458947,0.25471,64,0.0312842,10,0.000116898,-3.59395,13.3727,0.00441197,0.458835,
2,1,0,0,0,42695.5,0.46324,0.462894,0.255971,64,0.0314968,10,0.000118488,-3.59181,-5.74167,-0.0102758,0.462781,
2,1,0,1,0,42696.3,0.467235,0.466935,0.255995,64,0.0317091,10,0.000119533,-3.59177,1.95223,0.0302218,0.466823,
2,1,0,1,0,42697.1,0.471231,0.470896,0.256148,64,0.0319217,10,0.000120619,-3.59151,-18.6428,-0.00316476,0.470784,
2,1,0,1,0,42697.9,0.475225,0.474925,0.257175,64,0.0321345,10,0.000122139,-3.58977,-59.5053,-0.000991509,0.474811,
2,1,0,1,0,42698.7,0.47922,0.478903,0.256729,64,0.0323476,10,0.000122949,-3.59052,3.85336,0.0153113,0.47879,
2,1,0,0,0,42699.5,0.483216,0.482919,0.257292,64,0.032561,10,0.000124251,-3.58957,-3546.06,-1.66382e-05,0.482806,
2,1,0,1,0,42700.3,0.487211,0.486893,0.257293,64,0.0327746,10,0.000125274,-3.58957,2.67103,0.0220888,0.48678,
2,1,0,0,0,42701.1,0.491206,0.490903,0.258266,64,0.0329888,10,0.000126784,-3.58793,2.82771,0.0208649,0.490789,
2,1,0,1,0,42701.9,0.495201,0.494885,0.258738,64,0.0332033,10,0.000128046,-3.58714,1.71294,0.0344436,0.494771,
2,1,0,1,0,42702.7,0.499196,0.498913,0.260187,64,0.0334183,10,0.000129811,-3.58471,-9.46463,-0.00623373,0.498799,
2,1,0,1,0,42703.5,0.503191,0.502908,0.260942,64,0.0336341,10,0.00013123,-3.58346,2.32791,0.0253446,0.502794,
2,1,0,1,0,42704.3,0.507187,0.50688,0.262267,64,0.0338503,10,0.000132938,-3.58126,1.87056,0.0315413,0.506764,
2,1,0,0,0,42705.1,0.511182,0.510887,0.261757,64,0.0340671,10,0.000133728,-3.5821,2.04078,0.0289106,0.510772,
2,1,0,1,0,42705.9,0.515177,0.514868,0.263374,64,0.0342848,10,0.000135603,-3.57943,5.71171,0.0103297,0.514752,
2,1,0,1,0,42706.7,0.519173,0.518884,0.264169,64,0.034503,10,0.000137073,-3.57812,1.79098,0.0329428,0.518768,
2,1,0,1,0,42707.5,0.523167,0.522844,0.265171,64,0.0347221,10,0.000138643,-3.57647,2.06539,0.028566,0.522727,
2,1,0,1,0,42708.3,0.527162,0.52683,0.266969,64,0.0349421,10,0.000140647,-3.57354,1.39529,0.0422853,0.526712,
2,1,0,0,0,42709.1,0.531158,0.530865,0.268288,64,0.0351631,10,0.000142425,-3.5714,12.236,0.00482182,0.530747,
2,1,0,1,0,42709.9,0.535153,0.534887,0.269515,64,0.0353852,10,0.00014416,-3.56942,1.29882,0.0454258,0.534769,
2,1,0,0,0,42710.7,0.539148,0.53883,0.270879,64,0.0356086,10,0.000145957,-3.56723,1.37565,0.0428887,0.538711,
2,1,0,1,0,42711.5,0.543143,0.542805,0.273077,64,0.0358334,10,0.000148228,-3.56371,1.06551,0.0553726,0.542685,
2,1,0,1,0,42712.3,0.547138,0.546876,0.275016,64,0.0360597,10,0.0001504,-3.56064,3.16302,0.0186531,0.546755,
2,1,0,1,0,42713.1,0.551133,0.550815,0.277454,64,0.0362874,10,0.000152826,-3.55681,0.699393,0.0843589,0.550693,
2,1,0,1,0,42713.9,0.555129,0.554815,0.279378,64,0.036517,10,0.000155003,-3.55381,1.15791,0.050954,0.554693,
2,1,0,0,0,42714.7,0.559124,0.55881,0.281857,64,0.0367484,10,0.000157505,-3.54997,0.979082,0.0602606,0.558686,
2,1,0,1,0,42715.5,0.56312,0.562784,0.284583,64,0.0369817,10,0.000160159,-3.54579,0.88744,0.0664834,0.562659,
2,1,0,1,0,42716.3,0.567114,0.566815,0.287532,64,0.0372174,10,0.000162977,-3.54131,1.22912,0.0480019,0.566689,
2,1,0,1,0,42717.1,0.571109,0.570813,0.29078,64,0.0374554,10,0.000165981,-3.53644,0.621626,0.0949123,0.570685,
2,1,0,1,0,42717.9,0.575105,0.574822,0.294681,64,0.0376963,10,0.000169389,-3.53065,0.811008,0.072749,0.574693,
2,1,0,0,0,42718.7,0.5791,0.578815,0.299148,64,0.0379406,10,0.000173151,-3.52411,0.629036,0.0937943,0.578683,
2,1,0,1,0,42719.5,0.583095,0.582801,0.304018,64,0.0381879,10,0.000177182,-3.5171,0.643584,0.0916741,0.582667,
2,1,0,1,0,42720.3,0.58709,0.586766,0.308059,64,0.0384392,10,0.000180759,-3.51137,0.561953,0.104991,0.58663,
2,1,0,1,0,42721.1,0.591085,0.590803,0.314303,64,0.0386945,10,0.000185691,-3.50265,0.40658,0.145113,0.590664,
2,1,0,1,0,42721.9,0.59508,0.594769,0.320113,64,0.0389546,10,0.000190393,-3.4947,0.476474,0.123826,0.594629,
2,1,0,0,0,42722.7,0.599076,0.598795,0.327358,64,0.03922,10,0.00019602,-3.48498,0.408774,0.144334,0.598651,
2,1,0,1,0,42723.5,0.603071,0.602751,0.335135,64,0.0394911,10,0.000202003,-3.47478,0.353412,0.166944,0.602604,
2,1,0,0,0,42724.3,0.607066,0.606754,0.343789,64,0.0397692,10,0.000208595,-3.46371,0.325786,0.1811,0.606603,
2,1,0,1,0,42725.1,0.611061,0.610761,0.354501,64,0.040055,10,0.000216515,-3.45038,0.300068,0.196622,0.610605,
2,1,0,1,0,42725.9,0.615056,0.614779,0.366404,64,0.0403498,10,0.000225257,-3.43604,0.248181,0.23773,0.614618,
2,1,0,1,0,42726.7,0.619051,0.618739,0.380548,64,0.0406558,10,0.00023546,-3.41959,0.239411,0.246438,0.618571,
2,1,0,1,0,42727.5,0.623047,0.622757,0.398351,64,0.0409737,10,0.000248076,-3.39973,0.195021,0.302531,0.622582,
2,1,0,0,0,42728.3,0.627042,0.626756,0.416219,64,0.0413055,10,0.000260867,-3.38068,0.187339,0.314936,0.626572,
2,1,0,1,0,42729.1,0.631037,0.630764,0.439051,64,0.041654,10,0.000276937,-3.35749,0.174535,0.338041,0.630571,
2,1,0,1,0,42729.9,0.635032,0.634722,0.463896,64,0.042021,10,0.000294445,-3.33358,0.1592,0.370603,0.634518,
2,1,0,1,0,42730.7,0.639027,0.638725,0.49244,64,0.0424097,10,0.000314534,-3.30765,0.141152,0.417991,0.638508,
2,1,0,1,0,42731.5,0.643022,0.64269,0.527704,64,0.0428239,10,0.00033915,-3.27761,0.130975,0.450466,0.642458,
2,1,0,0,0,42732.3,0.647018,0.646705,0.566574,64,0.0432674,10,0.000366406,-3.24674,0.122237,0.482671,0.646456,
2,1,0,1,0,42733.1,0.651013,0.650768,0.61362,64,0.0437453,10,0.000399324,-3.2121,0.107771,0.547456,0.650498,
2,1,0,1,0,42733.9,0.655008,0.654724,0.669457,64,0.0442643,10,0.00043831,-3.17428,0.104059,0.566985,0.65443,
2,1,0,1,0,42734.7,0.659003,0.658699,0.731985,64,0.0448302,10,0.000482158,-3.1355,0.0960012,0.614575,0.658377,
2,1,0,1,0,42735.5,0.662998,0.662667,0.806069,64,0.0454509,10,0.000534155,-3.09363,0.0964253,0.611872,0.662313,
2,1,0,0,0,42736.3,0.666994,0.666692,0.891318,64,0.0461348,10,0.000594234,-3.04997,0.0871451,0.677032,0.666299,
2,1,0,1,0,42737,0.670989,0.670681,0.987425,64,0.0468918,10,0.000662247,-3.0055,0.087025,0.677966,0.670246,
2,1,0,0,0,42737.8,0.674984,0.674674,1.09892,64,0.0477318,10,0.000741415,-2.95903,0.0839868,0.702492,0.674191,
2,1,0,1,0,42738.6,0.67898,0.678675,1.22577,64,0.0486667,10,0.000831901,-2.91159,0.0828122,0.712455,0.678135,
2,1,0,1,0,42739.4,0.682974,0.682698,1.36873,64,0.0497095,10,0.000934431,-2.86368,0.0824095,0.715937,0.682096,
2,1,0,1,0,42740.2,0.686969,0.686728,1.52899,64,0.0508731,10,0.00105,-2.81559,0.0818052,0.721225,0.686055,
2,1,0,1,0,42741,0.690965,0.690682,1.70609,64,0.0521715,10,0.00117837,-2.768,0.0806973,0.731128,0.689931,
2,1,0,0,0,42741.8,0.69496,0.694686,1.90519,64,0.0536205,10,0.00132351,-2.72006,0.0823631,0.71634,0.693848,
2,1,0,1,0,42742.6,0.698955,0.698652,2.12098,64,0.0552346,10,0.00148182,-2.67346,0.0850828,0.693442,0.697719,
2,1,0,1,0,42743.4,0.70295,0.70273,2.35726,64,0.05703,10,0.00165652,-2.62759,0.0855966,0.68928,0.701692,
2,1,0,1,0,42744.2,0.706945,0.706637,2.61446,64,0.059022,10,0.00184747,-2.58262,0.0879192,0.67107,0.705487,
2,1,0,1,0,42745,0.71094,0.710669,2.89063,64,0.0612271,10,0.00205429,-2.53901,0.0893947,0.659995,0.709398,
2,1,0,0,0,42745.8,0.714936,0.714661,3.18555,64,0.0636608,10,0.00227659,-2.49682,0.0922423,0.63962,0.71326,
2,1,0,1,0,42746.6,0.718931,0.718629,3.50395,64,0.0663397,10,0.00251804,-2.45544,0.0951371,0.620158,0.717088,
2,1,0,1,0,42747.4,0.722927,0.722662,3.84188,64,0.069281,10,0.00277638,-2.41546,0.0969021,0.608862,0.720972,
2,1,0,1,0,42748.2,0.726921,0.726695,4.2008,64,0.0725,10,0.0030527,-2.37667,0.101824,0.579434,0.724846,
2,1,0,1,0,42749,0.730916,0.730616,4.57918,64,0.0760133,10,0.00334562,-2.33921,0.10341,0.570544,0.728601,
2,1,0,1,0,42749.8,0.734911,0.734625,4.97983,64,0.0798388,10,0.00365831,-2.30279,0.105395,0.559796,0.732434,
2,1,0,1,0,42750.6,0.738907,0.738609,5.40348,64,0.0839934,10,0.00399106,-2.26733,0.110312,0.534846,0.736232,
2,1,0,0,0,42751.4,0.742902,0.742635,5.84812,64,0.0884938,10,0.00434302,-2.23298,0.111497,0.529163,0.740061,
2,1,0,1,0,42752.2,0.746897,0.746599,6.31608,64,0.09336,10,0.00471558,-2.19955,0.114802,0.513926,0.74382,
2,1,0,1,0,42753,0.750892,0.750606,6.80808,64,0.0986087,10,0.00511019,-2.16698,0.117254,0.50318,0.74761,
2,1,0,1,0,42753.8,0.754887,0.754649,7.32433,64,0.104261,10,0.00552729,-2.13523,0.119379,0.494226,0.751426,
2,1,0,1,0,42754.6,0.758883,0.758614,7.86917,64,0.110337,10,0.00596966,-2.10407,0.123425,0.478022,0.755152,
2,1,0,0,0,42755.4,0.762878,0.762592,8.43686,64,0.116857,10,0.00643388,-2.07382,0.122538,0.481485,0.758879,
2,1,0,1,0,42756.2,0.766873,0.766603,9.03804,64,0.123845,10,0.00692859,-2.04393,0.126767,0.465422,0.762626,
2,1,0,1,0,42757,0.770868,0.770578,9.67149,64,0.131326,10,0.00745264,-2.01451,0.126585,0.466089,0.766322,
2,1,0,1,0,42757.8,0.774863,0.774613,10.3389,64,0.139325,10,0.00800866,-1.98552,0.126875,0.465026,0.770064,
2,1,0,1,0,42758.6,0.778858,0.778597,11.0444,64,0.147874,10,0.00859915,-1.95686,0.130611,0.451723,0.773737,
2,1,0,0,0,42759.4,0.782854,0.782595,11.7918,64,0.157001,10,0.00922821,-1.92842,0.127977,0.46102,0.777407,
2,1,0,1,0,42760.2,0.786849,0.786566,12.6052,64,0.16675,10,0.0099148,-1.89945,0.124293,0.474685,0.78102,
2,1,0,0,0,42761,0.790844,0.790547,13.4714,64,0.177172,10,0.0106497,-1.87059,0.125806,0.468974,0.78462,
2,1,0,1,0,42761.8,0.794839,0.794575,14.3859,64,0.188308,10,0.0114307,-1.84206,0.137799,0.428159,0.788245,
2,1,0,1,0,42762.6,0.798834,0.798558,15.2711,64,0.200135,10,0.0121949,-1.81613,0.14277,0.413253,0.791839,
2,1,0,1,0,42763.4,0.802829,0.802584,16.196,64,0.212698,10,0.0129987,-1.79059,0.124002,0.475798,0.795458,
2,1,0,1,0,42764.2,0.806825,0.80656,17.2777,64,0.226077,10,0.0139355,-1.76251,0.125315,0.470814,0.798958,
2,1,0,0,0,42765,0.81082,0.810521,18.4064,64,0.240342,10,0.0149188,-1.73503,0.129626,0.455157,0.802422,
2,1,0,1,0,42765.8,0.814815,0.814559,19.5768,64,0.255522,10,0.0159465,-1.70826,0.130462,0.452238,0.805945,
2,1,0,1,0,42766.6,0.81881,0.81857,20.8109,64,0.27166,10,0.0170352,-1.68171,0.130899,0.450729,0.809413,
2,1,0,1,0,42767.4,0.822805,0.822527,22.0724,64,0.288801,10,0.0181552,-1.65615,0.141959,0.415612,0.812815,
2,1,0,1,0,42768.2,0.826801,0.826567,23.2488,64,0.30692,10,0.0192167,-1.6336,0.150597,0.391774,0.816337,
2,1,0,0,0,42769,0.830796,0.830547,24.6021,64,0.326046,10,0.0204332,-1.60903,0.144213,0.409118,0.819722,
2,1,0,1,0,42769.8,0.834791,0.834553,25.8839,64,0.346241,10,0.0216015,-1.58697,0.166915,0.353474,0.823164,
2,1,0,1,0,42770.6,0.838786,0.838512,27.232,64,0.36743,10,0.0228344,-1.56492,0.14436,0.408699,0.826529,
2,1,0,1,0,42771.4,0.842781,0.842538,28.681,64,0.389774,10,0.0241648,-1.54241,0.15329,0.384892,0.829918,
2,1,0,1,0,42772.2,0.846776,0.846502,30.115,64,0.41328,10,0.0254924,-1.52122,0.162922,0.362137,0.833252,
2,1,0,1,0,42772.9,0.849723,0.849482,31.0677,64,0.434782,10,0.0263915,-1.50769,0.0505046,1.16821,0.835813,
2,1,0,0,0,42773.7,0.845728,0.845496,28.9689,64,0.458705,10,0.0244931,-1.53807,0.113037,0.521951,0.83275,
2,1,0,1,0,42774.5,0.841732,0.841466,27.2352,64,0.481125,10,0.0229175,-1.56487,0.126072,0.467988,0.829482,
2,1,0,1,0,42775.3,0.837737,0.837474,25.6563,64,0.502241,10,0.0214865,-1.59081,0.128765,0.4582,0.826185,
2,1,0,1,0,42776.1,0.833742,0.833467,24.1446,64,0.522122,10,0.0201237,-1.61718,0.122431,0.481903,0.822843,
2,1,0,1,0,42776.9,0.829747,0.82948,22.6808,64,0.540813,10,0.0188133,-1.64434,0.11318,0.521292,0.819501,
2,1,0,0,0,42777.7,0.825752,0.82552,21.2133,64,0.558313,10,0.017512,-1.67339,0.128046,0.460771,0.816186,
2,1,0,1,0,42778.5,0.821757,0.821494,19.9395,64,0.574738,10,0.0163802,-1.70028,0.126265,0.46727,0.812721,
2,1,0,1,0,42779.3,0.817761,0.817484,18.6931,64,0.590155,10,0.0152813,-1.72832,0.124756,0.472925,0.809259,
2,1,0,1,0,42780.1,0.813766,0.813488,17.5016,64,0.604604,10,0.0142373,-1.75692,0.119317,0.494481,0.805787,
2,1,0,1,0,42780.9,0.809771,0.809507,16.3681,64,0.618122,10,0.0132501,-1.786,0.1204,0.490034,0.802305,
2,1,0,1,0,42781.7,0.805776,0.805496,15.3051,64,0.630763,10,0.0123282,-1.81516,0.121388,0.486047,0.798762,
2,1,0,1,0,42782.5,0.801781,0.801507,14.2826,64,0.642574,10,0.0114476,-1.84519,0.116671,0.505695,0.795223,
2,1,0,0,0,42783.3,0.797786,0.797539,13.3139,64,0.653586,10,0.0106184,-1.87569,0.117741,0.501101,0.791681,
2,1,0,1,0,42784.1,0.79379,0.793563,12.4021,64,0.663849,10,0.00984186,-1.9065,0.115934,0.508909,0.788107,
2,1,0,1,0,42784.9,0.789795,0.789536,11.5413,64,0.673403,10,0.00911229,-1.93774,0.115118,0.512517,0.784457,
2,1,0,1,0,42785.7,0.7858,0.785503,10.7303,64,0.682289,10,0.00842865,-1.96939,0.113707,0.518879,0.780782,
2,1,0,1,0,42786.5,0.781805,0.781528,9.96568,64,0.690548,10,0.00778846,-2.00149,0.114397,0.515748,0.777143,
2,1,0,0,0,42787.3,0.77781,0.777545,9.25061,64,0.698215,10,0.00719277,-2.03383,0.11277,0.523188,0.773475,
2,1,0,1,0,42788.1,0.773814,0.773528,8.57382,64,0.705325,10,0.00663209,-2.06683,0.111032,0.531376,0.769755,
2,1,0,1,0,42788.9,0.769819,0.76956,7.93908,64,0.711913,10,0.0061096,-2.10023,0.109919,0.53676,0.766067,
2,1,0,1,0,42789.7,0.765824,0.765558,7.34016,64,0.718006,10,0.00561932,-2.13429,0.10978,0.537439,0.762329,
2,1,0,1,0,42790.5,0.761829,0.761543,6.77823,64,0.723637,10,0.00516192,-2.16888,0.106988,0.551463,0.758561,
2,1,0,0,0,42791.3,0.757834,0.757601,6.24943,64,0.728832,10,0.00473458,-2.20416,0.106548,0.553739,0.754852,
2,1,0,1,0,42792.1,0.753839,0.753557,5.75155,64,0.733617,10,0.00433412,-2.24021,0.103977,0.567436,0.751026,
2,1,0,0,0,42792.9,0.749844,0.749532,5.2871,64,0.738017,10,0.00396285,-2.27678,0.102185,0.577384,0.747205,
2,1,0,1,0,42793.7,0.745848,0.745609,4.85054,64,0.742059,10,0.00361661,-2.31421,0.10098,0.584272,0.743475,
2,1,0,1,0,42794.5,0.741853,0.741565,4.43787,64,0.745761,10,0.00329096,-2.35283,0.0969706,0.608432,0.739612,
2,1,0,1,0,42795.3,0.737858,0.737596,4.05151,64,0.749144,10,0.00298838,-2.39238,0.0960171,0.614474,0.735813,
2,1,0,1,0,42796.1,0.733863,0.733569,3.68729,64,0.752227,10,0.00270488,-2.43329,0.0905063,0.651888,0.731947,
2,1,0,0,0,42796.9,0.729868,0.729612,3.34634,64,0.755028,10,0.00244153,-2.47543,0.0901072,0.654776,0.728139,
2,1,0,1,0,42797.7,0.725872,0.725608,3.02534,64,0.757565,10,0.00219521,-2.51923,0.0877918,0.672044,0.724277,
2,1,0,1,0,42798.5,0.721877,0.721637,2.72671,64,0.759855,10,0.00196769,-2.56436,0.0843847,0.699179,0.720438,
2,1,0,1,0,42799.3,0.717882,0.717607,2.44799,64,0.761914,10,0.00175669,-2.61119,0.0851284,0.693071,0.71653,
2,1,0,1,0,42800.1,0.713887,0.713609,2.20438,64,0.763767,10,0.00157307,-2.65671,0.079749,0.739821,0.712639,
2,1,0,0,0,42800.9,0.709892,0.709575,1.96566,64,0.765424,10,0.00139478,-2.70649,0.0776378,0.759939,0.708711,
2,1,0,1,0,42801.7,0.705897,0.705671,1.74334,64,0.766897,10,0.00123022,-2.75862,0.0730295,0.807893,0.704904,
2,1,0,1,0,42802.5,0.701901,0.701634,1.53837,64,0.768199,10,0.00107937,-2.81294,0.0702614,0.839721,0.700957,
2,1,0,1,0,42803.3,0.697906,0.697649,1.34893,64,0.769345,10,0.000941081,-2.87001,0.0677081,0.871388,0.697055,
2,1,0,1,0,42804.1,0.693911,0.69365,1.17746,64,0.770346,10,0.000816747,-2.92905,0.0641124,0.920259,0.693131,
2,1,0,0,0,42804.9,0.689916,0.689606,1.02128,64,0.771216,10,0.000704278,-2.99086,0.0626365,0.941942,0.689157,
2,1,0,1,0,42805.7,0.685921,0.685657,0.879674,64,0.771968,10,0.000603154,-3.05568,0.0591815,0.996933,0.68527,
2,1,0,0,0,42806.5,0.681926,0.681634,0.750531,64,0.772611,10,0.000511587,-3.12463,0.0560754,1.05215,0.681303,
2,1,0,1,0,42807.3,0.67793,0.677682,0.636333,64,0.773157,10,0.000431232,-3.19632,0.0531479,1.11011,0.677402,
2,1,0,1,0,42808.1,0.673935,0.673644,0.535894,64,0.773618,10,0.000361002,-3.27092,0.0517805,1.13942,0.673408,
2,1,0,1,0,42808.9,0.66994,0.669655,0.447925,64,0.774002,10,0.000299955,-3.34879,0.0484868,1.21683,0.669458,
2,1,0,1,0,42809.7,0.665945,0.665635,0.367515,64,0.77432,10,0.000244631,-3.43472,0.0468605,1.25906,0.665474,
2,1,0,0,0,42810.5,0.66195,0.661684,0.299483,64,0.774579,10,0.000198163,-3.52363,0.0419887,1.40514,0.661552,
2,1,0,1,0,42811.3,0.657955,0.657685,0.240375,64,0.774787,10,0.000158091,-3.61911,0.0405128,1.45633,0.657579,
2,1,0,1,0,42812.1,0.653959,0.653642,0.189403,64,0.774951,10,0.000123802,-3.72261,0.0368462,1.60125,0.653559,
2,1,0,1,0,42812.9,0.649964,0.649648,0.145784,64,0.775077,10,9.47086e-05,-3.83629,0.031826,1.85383,0.649584,
2,1,0,1,0,42813.7,0.64597,0.645662,0.107677,64,0.775171,10,6.95232e-05,-3.96788,0.0282937,2.08527,0.645615,
2,1,0,0,0,42814.5,0.641974,0.641688,0.076245,64,0.775237,10,4.89255e-05,-4.11779,0.0236722,2.49238,0.641655,
2,1,0,1,0,42815.3,0.637979,0.637699,0.0495861,64,0.775279,10,3.1621e-05,-4.30464,0.0181147,3.25703,0.637677,
2,1,0,1,0,42816.1,0.633983,0.633689,0.0263834,64,0.775302,10,1.67189e-05,-4.57867,0.0117137,5.03682,0.633678,
2,1,0,1,0,42816.9,0.629988,0.629687,0.00648942,64,0.775309,10,4.0863e-06,-5.18779,0.00376063,15.6889,0.629684,
2,0,0,1,0,42817.7,0.625993,0.625662,-0.00908996,64,0.775301,10,-5.68724e-06,-5.04144,-0.00377166,-15.643,0.625666,
2,0,0,0,0,42818.5,0.621998,0.621694,-0.0221574,64,0.775281,10,-1.37751e-05,-4.65448,-0.0185089,-3.18765,0.621704,
2,0,0,1,0,42819.3,0.618003,0.617703,-0.0325135,64,0.775253,10,-2.00837e-05,-4.48794,-0.0287703,-2.05072,0.617717,
2,0,0,0,0,42820,0.614008,0.613718,-0.0424986,64,0.775216,10,-2.60822e-05,-4.37163,-0.0452157,-1.30486,0.613737,
2,0,0,1,0,42820.8,0.610012,0.609734,-0.049893,64,0.775172,10,-3.04214e-05,-4.30196,-0.0592827,-0.995232,0.609756,
2,0,0,1,0,42821.6,0.606017,0.605723,-0.0560941,64,0.775122,10,-3.39775e-05,-4.25108,-0.0962369,-0.613071,0.605748,
2,0,0,1,0,42822.4,0.602022,0.601713,-0.062815,64,0.775068,10,-3.77966e-05,-4.20194,-0.099778,-0.591313,0.601741,
2,0,0,1,0,42823.2,0.598027,0.597721,-0.0674246,64,0.775008,10,-4.03011e-05,-4.17118,-0.137253,-0.429863,0.59775,
2,0,0,0,0,42824,0.594032,0.593743,-0.0713056,64,0.774946,10,-4.23372e-05,-4.14688,-0.201058,-0.293447,0.593774,
2,0,0,1,0,42824.8,0.590037,0.589776,-0.0754251,64,0.77488,10,-4.44839e-05,-4.12248,-0.184733,-0.31938,0.589809,
2,0,0,1,0,42825.6,0.586041,0.585807,-0.0784553,64,0.774812,10,-4.59596e-05,-4.10538,-0.262329,-0.224909,0.585841,
2,0,0,1,0,42826.4,0.582046,0.581765,-0.0813053,64,0.774741,10,-4.73005e-05,-4.08988,-0.29752,-0.198306,0.5818,
2,0,0,1,0,42827.2,0.578052,0.577748,-0.0823427,64,0.774668,10,-4.75734e-05,-4.08437,-0.342538,-0.172244,0.577785,
2,0,0,0,0,42828,0.574056,0.57377,-0.0836051,64,0.774593,10,-4.79701e-05,-4.07777,-0.404383,-0.145901,0.573807,
2,0,0,1,0,42828.8,0.570061,0.569766,-0.0874154,64,0.774517,10,-4.98064e-05,-4.05841,-0.703087,-0.0839157,0.569805,
2,0,0,1,0,42829.6,0.566065,0.565781,-0.0884818,64,0.77444,10,-5.00613e-05,-4.05315,-0.2969,-0.19872,0.56582,
2,0,0,1,0,42830.4,0.56207,0.56176,-0.0899124,64,0.774361,10,-5.05092e-05,-4.04618,-0.564214,-0.10457,0.5618,
2,0,0,1,0,42831.2,0.558075,0.557773,-0.0919305,64,0.774281,10,-5.12764e-05,-4.03654,-0.662372,-0.0890739,0.557814,
2,0,0,1,0,42832,0.55408,0.553788,-0.0922119,64,0.7742,10,-5.10659e-05,-4.03521,-0.573184,-0.102934,0.553829,
2,0,0,1,0,42832.8,0.550085,0.549792,-0.0938243,64,0.774117,10,-5.15839e-05,-4.02768,-3.92599,-0.0150281,0.549834,
2,0,0,0,0,42833.6,0.54609,0.545791,-0.0956367,64,0.774034,10,-5.21977e-05,-4.01938,-0.401574,-0.146922,0.545833,
2,0,0,1,0,42834.4,0.542094,0.541815,-0.095367,64,0.77395,10,-5.16713e-05,-4.0206,-2.01349,-0.0293024,0.541857,
2,0,0,1,0,42835.2,0.538099,0.537787,-0.0976287,64,0.773865,10,-5.25035e-05,-4.01042,-1.08555,-0.0543505,0.53783,
2,0,0,1,0,42836,0.534104,0.533811,-0.0983881,64,0.773779,10,-5.25207e-05,-4.00706,-0.43534,-0.135526,0.533854,
2,0,0,1,0,42836.8,0.530109,0.529843,-0.0999535,64,0.773692,10,-5.29597e-05,-4.0002,-3.62341,-0.016283,0.529887,
2,0,0,0,0,42837.6,0.526114,0.525774,-0.101471,64,0.773604,10,-5.33511e-05,-3.99366,-0.470726,-0.125338,0.525819,
2,0,0,1,0,42838.4,0.522119,0.521788,-0.101408,64,0.773515,10,-5.29136e-05,-3.99393,7.81067,0.00755377,0.521833,
2,0,0,1,0,42839.2,0.518123,0.517827,-0.102711,64,0.773425,10,-5.31866e-05,-3.98838,-0.505373,-0.116746,0.517872,
2,0,0,1,0,42840,0.514128,0.513841,-0.104077,64,0.773335,10,-5.34792e-05,-3.98264,-1.21499,-0.0485602,0.513887,
2,0,0,1,0,42840.8,0.510133,0.509815,-0.104648,64,0.773243,10,-5.33509e-05,-3.98027,-0.629065,-0.09379,0.509861,
2,0,0,0,0,42841.6,0.506138,0.505811,-0.106508,64,0.773151,10,-5.3873e-05,-3.97262,-1.56805,-0.0376263,0.505858,
2,0,0,1,0,42842.4,0.502143,0.501839,-0.10778,64,0.773058,10,-5.40883e-05,-3.96746,-0.768141,-0.0768088,0.501886,
2,0,0,0,0,42843.2,0.498148,0.497848,-0.108644,64,0.772963,10,-5.40883e-05,-3.96399,-0.793217,-0.0743807,0.497896,
2,0,0,1,0,42844,0.494152,0.493872,-0.109392,64,0.772868,10,-5.40257e-05,-3.96101,-1.04089,-0.0566825,0.49392,
2,0,0,1,0,42844.8,0.490157,0.489871,-0.111414,64,0.772772,10,-5.45787e-05,-3.95306,-0.600408,-0.0982666,0.48992,
2,0,0,1,0,42845.6,0.486162,0.485883,-0.111998,64,0.772675,10,-5.44178e-05,-3.95079,-0.780266,-0.0756152,0.485932,
2,0,0,1,0,42846.4,0.482167,0.481841,-0.113203,64,0.772577,10,-5.45458e-05,-3.94614,-1.13196,-0.0521221,0.481891,
2,0,0,0,0,42847.2,0.478172,0.477846,-0.114039,64,0.772478,10,-5.44931e-05,-3.94295,-1.66709,-0.0353909,0.477896,
2,0,0,1,0,42848,0.474177,0.473852,-0.116616,64,0.772377,10,-5.52588e-05,-3.93324,-0.825573,-0.0714655,0.473904,
2,0,0,1,0,42848.8,0.470181,0.469851,-0.117457,64,0.772276,10,-5.51872e-05,-3.93012,-0.438767,-0.134468,0.469903,
2,0,0,1,0,42849.6,0.466186,0.465881,-0.119281,64,0.772173,10,-5.55708e-05,-3.92343,-0.695858,-0.0847874,0.465934,
2,0,0,1,0,42850.4,0.462191,0.461881,-0.120504,64,0.772069,10,-5.56587e-05,-3.919,-0.779584,-0.0756814,0.461934,
2,0,0,0,0,42851.2,0.458196,0.457937,-0.123144,64,0.771964,10,-5.6392e-05,-3.90959,-0.524103,-0.112573,0.457991,
2,0,0,1,0,42852,0.454201,0.453879,-0.123889,64,0.771857,10,-5.62304e-05,-3.90697,-1.05932,-0.0556961,0.453933,
2,0,0,1,0,42852.8,0.450205,0.449911,-0.125223,64,0.77175,10,-5.63392e-05,-3.90232,-0.742782,-0.0794311,0.449966,
2,0,0,1,0,42853.6,0.44621,0.445911,-0.126624,64,0.77164,10,-5.64629e-05,-3.89748,-0.583596,-0.101097,0.445966,
2,0,0,1,0,42854.4,0.442215,0.441903,-0.128936,64,0.77153,10,-5.69772e-05,-3.88963,-2.02122,-0.0291902,0.441959,
2,0,0,0,0,42855.2,0.43822,0.437891,-0.130906,64,0.771418,10,-5.73224e-05,-3.88304,-0.433706,-0.136037,0.437948,
2,0,0,1,0,42856,0.434225,0.433974,-0.132344,64,0.771304,10,-5.74338e-05,-3.8783,-0.859282,-0.068662,0.434032,
2,0,0,0,0,42856.8,0.43023,0.429906,-0.133925,64,0.77119,10,-5.75753e-05,-3.87314,-0.681355,-0.0865922,0.429965,
2,0,0,1,0,42857.6,0.426234,0.425978,-0.13568,64,0.771073,10,-5.77966e-05,-3.86749,-0.512599,-0.1151,0.426038,
2,0,0,1,0,42858.4,0.422239,0.421938,-0.138042,64,0.770956,10,-5.8245e-05,-3.85999,-0.766488,-0.0769745,0.421999,
2,0,0,1,0,42859.2,0.418244,0.417937,-0.139771,64,0.770836,10,-5.84155e-05,-3.85458,-0.630996,-0.0935029,0.417999,
2,0,0,1,0,42860,0.414249,0.413929,-0.140648,64,0.770715,10,-5.82182e-05,-3.85187,-0.616894,-0.0956405,0.413991,
2,0,0,0,0,42860.8,0.410254,0.40992,-0.143005,64,0.770592,10,-5.86206e-05,-3.84465,-1.73001,-0.0341038,0.409983,
2,0,0,1,0,42861.6,0.406259,0.405942,-0.145525,64,0.770468,10,-5.90747e-05,-3.83706,-0.548049,-0.107655,0.406006,
2,0,0,1,0,42862.4,0.402263,0.401949,-0.14794,64,0.770342,10,-5.94645e-05,-3.82991,-0.455999,-0.129386,0.402014,
2,0,0,1,0,42863.2,0.398268,0.397954,-0.150784,64,0.770214,10,-6.00049e-05,-3.82165,-1.14182,-0.0516718,0.39802,
2,0,0,1,0,42864,0.394274,0.393957,-0.151331,64,0.770085,10,-5.96179e-05,-3.82007,-0.632431,-0.0932908,0.394024,
2,0,0,0,0,42864.8,0.390278,0.390001,-0.15457,64,0.769954,10,-6.02823e-05,-3.81088,-0.459162,-0.128495,0.390069,
2,0,0,1,0,42865.6,0.386283,0.385963,-0.156017,64,0.76982,10,-6.02168e-05,-3.80683,-0.878799,-0.0671371,0.386031,
2,0,0,1,0,42866.4,0.382287,0.381929,-0.157307,64,0.769685,10,-6.00799e-05,-3.80325,-1.16842,-0.0504955,0.381998,
2,0,0,1,0,42867.2,0.378292,0.377963,-0.160697,64,0.769548,10,-6.07374e-05,-3.79399,-0.732267,-0.0805717,0.378034,
2,0,0,1,0,42868,0.374297,0.373996,-0.162216,64,0.76941,10,-6.06683e-05,-3.78991,-0.418107,-0.141112,0.374068,
2,0,0,1,0,42868.8,0.370303,0.370004,-0.164281,64,0.76927,10,-6.07847e-05,-3.78441,-0.776229,-0.0760085,0.370076,
2,0,0,1,0,42869.6,0.366307,0.365953,-0.167115,64,0.769128,10,-6.11563e-05,-3.77698,-0.664964,-0.0887266,0.366026,
2,0,0,0,0,42870.4,0.362312,0.362035,-0.169051,64,0.768984,10,-6.12024e-05,-3.77198,-0.827934,-0.0712617,0.362109,
2,0,0,1,0,42871.2,0.358316,0.358016,-0.170438,64,0.768838,10,-6.10197e-05,-3.76843,-1.23134,-0.0479151,0.358091,
2,0,0,1,0,42872,0.354321,0.354025,-0.173694,64,0.768691,10,-6.14919e-05,-3.76022,-0.623486,-0.0946292,0.354101,
2,0,0,1,0,42872.8,0.350327,0.349996,-0.175293,64,0.768542,10,-6.13517e-05,-3.75624,-0.509502,-0.115799,0.350073,
2,0,0,1,0,42873.6,0.346331,0.345996,-0.177563,64,0.76839,10,-6.1436e-05,-3.75065,-3.73549,-0.0157945,0.346074,
2,0,0,0,0,42874.4,0.342336,0.34201,-0.180127,64,0.768237,10,-6.16054e-05,-3.74442,-0.536482,-0.109976,0.342089,
2,0,0,1,0,42875.2,0.338341,0.338029,-0.182869,64,0.768082,10,-6.1815e-05,-3.73786,-0.760783,-0.0775517,0.33811,
2,0,0,1,0,42876,0.334345,0.333989,-0.185356,64,0.767925,10,-6.19069e-05,-3.73199,-0.602262,-0.097964,0.33407,
2,0,0,1,0,42876.8,0.33035,0.330024,-0.18727,64,0.767766,10,-6.18036e-05,-3.72753,-0.639556,-0.0922514,0.330107,
2,0,0,1,0,42877.6,0.326355,0.326067,-0.189193,64,0.767605,10,-6.16897e-05,-3.72309,-0.774408,-0.0761872,0.32615,
2,0,0,0,0,42878.4,0.32236,0.322044,-0.192663,64,0.767442,10,-6.20457e-05,-3.7152,-0.681213,-0.0866102,0.322128,
2,0,0,1,0,42879.2,0.318365,0.318026,-0.193918,64,0.767277,10,-6.1671e-05,-3.71238,-0.78745,-0.0749254,0.318111,
2,0,0,0,0,42880,0.31437,0.314107,-0.196799,64,0.76711,10,-6.1816e-05,-3.70598,-1.27405,-0.046309,0.314194,
2,0,0,1,0,42880.8,0.310374,0.310056,-0.198572,64,0.766941,10,-6.15685e-05,-3.70208,-0.453494,-0.130101,0.310143,
2,0,0,1,0,42881.6,0.306379,0.306047,-0.201414,64,0.76677,10,-6.16422e-05,-3.69591,-1.31014,-0.0450332,0.306136,
2,0,0,1,0,42882.4,0.302385,0.302082,-0.204889,64,0.766598,10,-6.18932e-05,-3.68848,-0.740821,-0.0796414,0.302172,
2,0,0,1,0,42883.2,0.298389,0.298088,-0.206802,64,0.766422,10,-6.16453e-05,-3.68444,-0.504248,-0.117006,0.298179,
2,0,0,0,0,42884,0.294394,0.294083,-0.209849,64,0.766245,10,-6.17129e-05,-3.67809,-1.0216,-0.0577523,0.294175,
2,0,0,1,0,42884.8,0.290398,0.290072,-0.212933,64,0.766066,10,-6.17658e-05,-3.67176,-0.626167,-0.094224,0.290166,
2,0,0,1,0,42885.6,0.286403,0.286087,-0.214459,64,0.765884,10,-6.1354e-05,-3.66866,-0.727501,-0.0810996,0.286182,
2,0,0,1,0,42886.4,0.282408,0.282089,-0.218069,64,0.7657,10,-6.15148e-05,-3.66141,-1.32281,-0.044602,0.282185,
2,0,0,1,0,42887.2,0.278414,0.278108,-0.220936,64,0.765514,10,-6.14442e-05,-3.65573,-0.466684,-0.126424,0.278205,
2,0,0,0,0,42888,0.274418,0.274093,-0.223163,64,0.765326,10,-6.11673e-05,-3.65138,-1.18247,-0.0498954,0.274191,
2,0,0,1,0,42888.8,0.270423,0.270096,-0.226456,64,0.765136,10,-6.1165e-05,-3.64502,-0.507138,-0.116339,0.270196,
2,0,0,1,0,42889.6,0.266427,0.266061,-0.22851,64,0.764943,10,-6.07976e-05,-3.6411,-1.34696,-0.0438023,0.266162,
2,0,0,1,0,42890.4,0.262432,0.262126,-0.231096,64,0.764748,10,-6.05763e-05,-3.63621,-1.0292,-0.057326,0.262228,
2,0,0,1,0,42891.2,0.258437,0.258147,-0.233483,64,0.764552,10,-6.02729e-05,-3.63174,-0.588882,-0.10019,0.25825,
2,0,0,0,0,42892,0.254442,0.254138,-0.23607,64,0.764353,10,-5.99945e-05,-3.62696,-0.999,-0.0590591,0.254242,
2,0,0,1,0,42892.8,0.250447,0.250089,-0.238011,64,0.764152,10,-5.95238e-05,-3.6234,-4.10425,-0.0143753,0.250193,
2,0,0,0,0,42893.6,0.246452,0.246175,-0.241518,64,0.763949,10,-5.94555e-05,-3.61705,-0.508247,-0.116085,0.246281,
2,0,0,1,0,42894.4,0.242456,0.242083,-0.243844,64,0.763744,10,-5.90305e-05,-3.61289,-1.11354,-0.0529841,0.242191,
2,0,0,1,0,42895.2,0.238461,0.238128,-0.246443,64,0.763537,10,-5.86849e-05,-3.60828,-1.25367,-0.047062,0.238237,
2,0,0,1,0,42896,0.234467,0.234169,-0.248389,64,0.763329,10,-5.81651e-05,-3.60487,-0.520163,-0.113426,0.234278,
2,0,0,1,0,42896.8,0.230471,0.230192,-0.25183,64,0.763118,10,-5.79692e-05,-3.59889,-1.28067,-0.0460695,0.230303,
2,0,0,0,0,42897.6,0.226476,0.226152,-0.253764,64,0.762905,10,-5.73893e-05,-3.59557,-1.10384,-0.0534497,0.226264,
2,0,0,1,0,42898.4,0.222481,0.222188,-0.25492,64,0.76269,10,-5.66403e-05,-3.5936,-1.14955,-0.0513242,0.2223,
2,0,0,1,0,42899.2,0.218485,0.218153,-0.259661,64,0.762473,10,-5.66459e-05,-3.58559,-0.858225,-0.0687465,0.218267,
2,0,0,1,0,42900,0.21449,0.214132,-0.261506,64,0.762254,10,-5.59969e-05,-3.58252,-0.737522,-0.0799976,0.214248,
2,0,0,1,0,42900.8,0.210496,0.210176,-0.264063,64,0.762033,10,-5.54998e-05,-3.57829,-1.03219,-0.0571602,0.210293,
2,0,0,0,0,42901.6,0.2065,0.206159,-0.267767,64,0.761809,10,-5.52027e-05,-3.57224,-0.919575,-0.06416,0.206277,
2,0,0,1,0,42902.4,0.202505,0.202146,-0.270289,64,0.761583,10,-5.46378e-05,-3.56817,-0.732789,-0.0805143,0.202264,
2,0,0,1,0,42903.1,0.198509,0.198167,-0.273536,64,0.761355,10,-5.42059e-05,-3.56299,-0.745041,-0.0791903,0.198288,
2,0,0,1,0,42903.9,0.194514,0.194179,-0.277152,64,0.761123,10,-5.38169e-05,-3.55728,-0.556472,-0.106025,0.194301,
2,0,0,1,0,42904.7,0.190519,0.190187,-0.280156,64,0.760889,10,-5.32818e-05,-3.5526,-0.693564,-0.0850679,0.19031,
2,0,0,0,0,42905.5,0.186524,0.186194,-0.285479,64,0.760651,10,-5.31544e-05,-3.54443,-0.599976,-0.0983373,0.186319,
2,0,0,1,0,42906.3,0.182529,0.18218,-0.289883,64,0.760409,10,-5.28109e-05,-3.53778,-0.49851,-0.118353,0.182308,
2,0,0,0,0,42907.1,0.178534,0.178185,-0.29502,64,0.760164,10,-5.25679e-05,-3.53015,-0.535142,-0.110251,0.178314,
2,0,0,1,0,42907.9,0.174538,0.174179,-0.3009,64,0.759914,10,-5.24106e-05,-3.52158,-0.464479,-0.127024,0.174312,
2,0,0,1,0,42908.7,0.170543,0.170215,-0.307159,64,0.75966,10,-5.2283e-05,-3.51264,-0.323733,-0.182249,0.17035,
2,0,0,1,0,42909.5,0.166549,0.166198,-0.316586,64,0.759398,10,-5.2616e-05,-3.49951,-0.323168,-0.182568,0.166337,
2,0,0,1,0,42910.3,0.162553,0.162261,-0.325565,64,0.75913,10,-5.28267e-05,-3.48736,-0.290252,-0.203272,0.162405,
2,0,0,0,0,42911.1,0.158558,0.158213,-0.338186,64,0.758852,10,-5.35053e-05,-3.47084,-0.122466,-0.481765,0.158362,
2,0,0,1,0,42911.9,0.154563,0.154256,-0.354508,64,0.758561,10,-5.46852e-05,-3.45037,-0.605038,-0.0975146,0.154412,
2,0,0,1,0,42912.7,0.150567,0.150249,-0.375686,64,0.758257,10,-5.64464e-05,-3.42518,-0.133979,-0.440369,0.150414,
2,0,0,1,0,42913.5,0.146572,0.146223,-0.403861,64,0.757933,10,-5.90538e-05,-3.39377,-0.117062,-0.504007,0.146401,
2,0,0,1,0,42914.3,0.142578,0.142255,-0.440332,64,0.757584,10,-6.26396e-05,-3.35622,-0.098412,-0.59952,0.142449,
2,0,0,0,0,42915.1,0.138582,0.138264,-0.484937,64,0.757202,10,-6.70495e-05,-3.31431,-0.0918151,-0.642596,0.138478,
2,0,0,1,0,42915.9,0.134587,0.134216,-0.535148,64,0.756781,10,-7.18254e-05,-3.27153,-0.0968609,-0.609121,0.134451,
2,0,0,1,0,42916.7,0.130591,0.130281,-0.585248,64,0.75632,10,-7.62468e-05,-3.23266,-0.110046,-0.536139,0.130539,
2,0,0,1,0,42917.5,0.126596,0.126247,-0.626226,64,0.755821,10,-7.90591e-05,-3.20327,-0.163277,-0.361349,0.126522,
2,0,0,1,0,42918.3,0.122602,0.122261,-0.658861,64,0.755293,10,-8.05531e-05,-3.18121,-0.253519,-0.232724,0.122551,
2,0,0,1,0,42919.1,0.118607,0.118295,-0.677164,64,0.754745,10,-8.01054e-05,-3.16931,-0.374282,-0.157635,0.118593,
2,0,0,1,0,42919.9,0.114611,0.114294,-0.686881,64,0.754185,10,-7.85064e-05,-3.16312,-2.15029,-0.0274382,0.114596,
2,0,0,0,0,42920.7,0.110616,0.110288,-0.689524,64,0.753621,10,-7.60461e-05,-3.16145,-2392.14,-2.46641e-05,0.110591,
2,0,0,1,0,42921.5,0.10662,0.106285,-0.686955,64,0.753058,10,-7.30133e-05,-3.16307,5.85778,0.0100721,0.106588,
2,0,0,1,0,42922.3,0.102625,0.102303,-0.682497,64,0.752497,10,-6.98214e-05,-3.1659,0.764575,0.0771671,0.102603,
2,0,0,1,0,42923.1,0.0986305,0.0983067,-0.676456,64,0.751941,10,-6.65001e-05,-3.16976,1.28075,0.0460667,0.0986043,
2,0,0,1,0,42923.9,0.0946351,0.0943265,-0.667181,64,0.75139,10,-6.29328e-05,-3.17576,0.735678,0.0801982,0.0946201,
2,0,0,0,0,42924.7,0.0906399,0.0903256,-0.661259,64,0.750845,10,-5.97286e-05,-3.17963,0.5695,0.1036,0.0906166,
2,0,0,1,0,42925.5,0.0866448,0.0863247,-0.652699,64,0.750308,10,-5.63441e-05,-3.18529,0.717212,0.082263,0.0866119,
2,0,0,1,0,42926.3,0.0826492,0.0822843,-0.643482,64,0.749777,10,-5.29484e-05,-3.19146,0.883138,0.0668072,0.0825674,
2,0,0,1,0,42927.1,0.0786544,0.0783432,-0.635421,64,0.749254,10,-4.97809e-05,-3.19694,0.727945,0.0810501,0.0786227,
2,0,0,1,0,42927.9,0.0746596,0.0743297,-0.624312,64,0.748737,10,-4.64049e-05,-3.2046,0.622661,0.0947546,0.0746044,
2,0,0,0,0,42928.7,0.0706641,0.0703136,-0.618221,64,0.748227,10,-4.34694e-05,-3.20886,0.645035,0.091468,0.0705857,
2,0,0,1,0,42929.5,0.0666689,0.0663202,-0.609947,64,0.747724,10,-4.04518e-05,-3.21471,0.817398,0.0721802,0.0665885,
2,0,0,0,0,42930.3,0.0626737,0.0623701,-0.600184,64,0.747227,10,-3.74336e-05,-3.22172,0.522163,0.112991,0.0626342,
2,0,0,1,0,42931.1,0.0586783,0.0583457,-0.593091,64,0.746737,10,-3.46043e-05,-3.22688,0.6623,0.0890835,0.0586066,
2,0,0,1,0,42931.9,0.0546835,0.0543493,-0.583259,64,0.746254,10,-3.16997e-05,-3.23414,0.719472,0.0820046,0.0546059,
2,0,0,1,0,42932.7,0.0506886,0.0503243,-0.574643,64,0.745778,10,-2.89185e-05,-3.2406,0.494866,0.119224,0.0505771,
2,0,0,1,0,42933.5,0.046693,0.0463453,-0.563443,64,0.74531,10,-2.61129e-05,-3.24915,0.47233,0.124913,0.0465932,
2,0,0,0,0,42934.3,0.0426979,0.0423719,-0.553437,64,0.744851,10,-2.34502e-05,-3.25693,0.656762,0.0898346,0.0426155,
2,0,0,1,0,42935.1,0.0387022,0.0383399,-0.544021,64,0.744398,10,-2.08577e-05,-3.26438,0.408991,0.144257,0.0385793,
2,0,0,1,0,42935.9,0.0347074,0.0343509,-0.550519,64,0.743953,10,-1.89108e-05,-3.25923,0.527787,0.111787,0.0345931,
2,0,0,1,0,42936.7,0.0307126,0.0303706,-0.521777,64,0.743516,10,-1.58467e-05,-3.28252,0.510781,0.115509,0.0306002,
2,0,0,1,0,42937.5,0.0267172,0.0264033,-0.51573,64,0.743087,10,-1.3617e-05,-3.28758,0.516939,0.114133,0.0266302,
2,0,0,0,0,42938.3,0.022722,0.022396,-0.507674,64,0.742665,10,-1.13699e-05,-3.29442,0.743291,0.0793767,0.0226194,
2,0,0,1,0,42939.1,0.0187268,0.0184396,-0.500608,64,0.742249,10,-9.23102e-06,-3.3005,0.668432,0.0882662,0.0186599,
2,0,0,1,0,42939.9,0.0147313,0.0143959,-0.497829,64,0.741838,10,-7.16667e-06,-3.30292,1.19192,0.0495001,0.0146149,
2,0,0,1,0,42940.7,0.0107365,0.0103604,-0.493333,64,0.74143,10,-5.11113e-06,-3.30686,3.08259,0.0191397,0.0105775,
2,0,0,1,0,42941.5,0.00674163,0.00639161,-0.491941,64,0.741024,10,-3.14429e-06,-3.30809,5.10332,0.0115611,0.00660806,
2,0,0,0,0,42942.3,0.00274612,0.00245082,-0.491509,64,0.740619,10,-1.2046e-06,-3.30847,-1.65878,-0.0355682,0.00266708,
2,0,0,1,0,42942.8,0.000274105,-0.00016666,-0.493558,64,0.740365,10,8.22565e-08,-3.30666, , ,5.05054e-05,