File: Figure_codes/Fig_3-5/workspace_calculate_alpha_eff/20221101_1-115_003_TrumpetPlot_ParaChange_from10_every3_16_CV_C01_51.csv
mode,ox/red,error,control changes,counter inc.,time/s,control/V,Ewe/V,<I>/mA,cycle number,(Q-Qo)/C,I Range,P/W,log(|I|),Tafel slope mV/dec,alpha_eff,E-IR/V,
2,0,0,1,0,34722.3,2.44065e-05,-0.000325324,-0.0497836,52,0.0000000E+000,10,1.61958e-08,-4.30291, , ,-0.000303419,
2,1,0,1,0,34723.1,0.00379485,0.00349108,0.202226,52,0.000133129,10,7.05988e-07,-3.69416,0.0476221,1.23892,0.0034021,
2,1,0,0,0,34723.9,0.00779002,0.00746124,0.224558,52,0.00031561,10,1.67548e-06,-3.64867,0.0955596,0.617416,0.00736244,
2,1,0,1,0,34724.7,0.0117852,0.0115173,0.240175,52,0.000514039,10,2.76616e-06,-3.61947,0.144481,0.408359,0.0114116,
2,1,0,1,0,34725.5,0.0157806,0.0154337,0.257053,52,0.000724807,10,3.96727e-06,-3.58998,0.158489,0.372266,0.0153206,
2,1,0,1,0,34726.3,0.0197754,0.0194535,0.27009,52,0.000946789,10,5.25419e-06,-3.56849,0.184161,0.320371,0.0193346,
2,1,0,1,0,34727.1,0.0237704,0.023439,0.283728,52,0.00117971,10,6.65031e-06,-3.5471,0.185091,0.318761,0.0233142,
2,1,0,0,0,34727.9,0.0277659,0.0274075,0.297326,52,0.00142341,10,8.14897e-06,-3.52677,0.208036,0.283605,0.0272767,
2,1,0,1,0,34728.7,0.0317611,0.0314285,0.311438,52,0.00167848,10,9.78805e-06,-3.50663,0.191966,0.307346,0.0312915,
2,1,0,1,0,34729.5,0.0357567,0.0354268,0.325423,52,0.00194496,10,1.15287e-05,-3.48755,0.263004,0.224331,0.0352836,
2,1,0,1,0,34730.3,0.0397516,0.0393903,0.33904,52,0.00222213,10,1.33549e-05,-3.46975,0.196529,0.300211,0.0392411,
2,1,0,1,0,34731.1,0.0437465,0.0434344,0.35082,52,0.00251048,10,1.52376e-05,-3.45492,0.243639,0.242161,0.0432801,
2,1,0,1,0,34731.9,0.0477413,0.0474212,0.365605,52,0.00280897,10,1.73374e-05,-3.43699,0.270719,0.217938,0.0472603,
2,1,0,1,0,34732.7,0.0517369,0.0513769,0.376866,52,0.00311774,10,1.93622e-05,-3.42381,0.264155,0.223353,0.0512111,
2,1,0,0,0,34733.5,0.0557321,0.0554065,0.38938,52,0.00343682,10,2.15742e-05,-3.40963,0.385761,0.152944,0.0552351,
2,1,0,1,0,34734.3,0.0597277,0.059395,0.400652,52,0.00376457,10,2.37967e-05,-3.39723,0.363077,0.1625,0.0592187,
2,1,0,1,0,34735.1,0.0637226,0.0634253,0.409781,52,0.00410075,10,2.59905e-05,-3.38745,0.338148,0.17448,0.063245,
2,1,0,1,0,34735.9,0.0677174,0.06743,0.420191,52,0.00444498,10,2.83335e-05,-3.37655,0.55641,0.106037,0.0672451,
2,1,0,1,0,34736.7,0.0717128,0.0714197,0.428515,52,0.0047958,10,3.06044e-05,-3.36803,0.404157,0.145983,0.0712311,
2,1,0,0,0,34737.5,0.075708,0.0753782,0.43488,52,0.00515346,10,3.27805e-05,-3.36163,0.545437,0.10817,0.0751868,
2,1,0,1,0,34738.3,0.0797031,0.0793621,0.443272,52,0.00551657,10,3.5179e-05,-3.35333,0.612498,0.0963269,0.0791671,
2,1,0,1,0,34739.1,0.0836986,0.0833635,0.451101,52,0.00588569,10,3.76054e-05,-3.34573,0.449829,0.131161,0.083165,
2,1,0,1,0,34739.9,0.0876935,0.0873628,0.461514,52,0.00626242,10,4.03192e-05,-3.33581,0.362687,0.162675,0.0871597,
2,1,0,1,0,34740.7,0.0916883,0.0913707,0.474972,52,0.00664812,10,4.33985e-05,-3.32333,0.30578,0.192949,0.0911617,
2,1,0,0,0,34741.5,0.0956838,0.0953626,0.490234,52,0.00704593,10,4.675e-05,-3.3096,0.222743,0.264879,0.0951469,
2,1,0,1,0,34742.3,0.099679,0.099355,0.511553,52,0.00745872,10,5.08253e-05,-3.29111,0.264493,0.223068,0.0991299,
2,1,0,0,0,34743.1,0.103674,0.10335,0.532739,52,0.00788806,10,5.50583e-05,-3.27349,0.203651,0.289711,0.103115,
2,1,0,1,0,34743.9,0.10767,0.107348,0.553566,52,0.00833529,10,5.94239e-05,-3.25683,0.232073,0.25423,0.107104,
2,1,0,1,0,34744.7,0.111664,0.111363,0.573288,52,0.00879778,10,6.38431e-05,-3.24163,0.360653,0.163592,0.111111,
2,1,0,1,0,34745.5,0.115659,0.115323,0.586956,52,0.00927324,10,6.76897e-05,-3.23139,0.348708,0.169196,0.115065,
2,1,0,1,0,34746.3,0.119655,0.119307,0.599979,52,0.00976034,10,7.15814e-05,-3.22186,0.621771,0.0948902,0.119043,
2,1,0,0,0,34747.1,0.12365,0.123365,0.610652,52,0.010256,10,7.53329e-05,-3.21421,0.485566,0.121508,0.123096,
2,1,0,1,0,34747.9,0.127646,0.127311,0.619172,52,0.0107601,10,7.88274e-05,-3.20819,0.920602,0.0640885,0.127039,
2,1,0,1,0,34748.7,0.131641,0.131309,0.62342,52,0.0112704,10,8.18609e-05,-3.20522,-1.65323,-0.0356878,0.131035,
2,1,0,1,0,34749.5,0.135635,0.135329,0.612125,52,0.0117779,10,8.28382e-05,-3.21316,-0.328889,-0.179392,0.13506,
2,1,0,1,0,34750.3,0.139631,0.13933,0.581652,52,0.0122697,10,8.10417e-05,-3.23534,-0.132252,-0.446118,0.139074,
2,1,0,0,0,34751.1,0.143626,0.143326,0.534999,52,0.012729,10,7.66792e-05,-3.27165,-0.0907143,-0.650393,0.14309,
2,1,0,1,0,34751.9,0.147621,0.147311,0.477097,52,0.0131449,10,7.02815e-05,-3.32139,-0.0742987,-0.794092,0.147101,
2,1,0,1,0,34752.7,0.151617,0.151317,0.423359,52,0.0135157,10,6.40617e-05,-3.37329,-0.0881554,-0.669272,0.151131,
2,1,0,1,0,34753.5,0.155612,0.155281,0.386244,52,0.0138497,10,5.99763e-05,-3.41314,-0.116007,-0.508591,0.155111,
2,1,0,1,0,34754.3,0.159606,0.159291,0.359935,52,0.0141584,10,5.73345e-05,-3.44378,-0.158562,-0.372094,0.159133,
2,1,0,0,0,34755.1,0.163602,0.163286,0.343286,52,0.0144505,10,5.60537e-05,-3.46434,-0.195256,-0.302168,0.163135,
2,1,0,1,0,34755.8,0.167597,0.167319,0.331472,52,0.0147313,10,5.54614e-05,-3.47955,-0.412373,-0.143074,0.167173,
2,1,0,0,0,34756.6,0.171592,0.171292,0.322176,52,0.0150043,10,5.51862e-05,-3.49191,-0.370791,-0.159119,0.17115,
2,1,0,1,0,34757.4,0.175588,0.175246,0.31748,52,0.0152714,10,5.56372e-05,-3.49828,-0.577933,-0.102088,0.175107,
2,1,0,1,0,34758.2,0.179582,0.179245,0.312813,52,0.0155338,10,5.60702e-05,-3.50471,-0.816428,-0.072266,0.179107,
2,1,0,1,0,34759,0.183577,0.183302,0.308919,52,0.0157932,10,5.66254e-05,-3.51016,-0.788654,-0.074811,0.183166,
2,1,0,1,0,34759.8,0.187573,0.187241,0.305477,52,0.0160498,10,5.7198e-05,-3.51502,-1.03162,-0.0571914,0.187107,
2,1,0,0,0,34760.6,0.191568,0.191257,0.302668,52,0.0163039,10,5.78874e-05,-3.51903,-1.2146,-0.0485756,0.191124,
2,1,0,1,0,34761.4,0.195563,0.195254,0.301108,52,0.0165562,10,5.87926e-05,-3.52128,-0.765206,-0.0771034,0.195121,
2,1,0,1,0,34762.2,0.199559,0.19923,0.298658,52,0.0168065,10,5.95015e-05,-3.52483,-2.7986,-0.021082,0.199098,
2,1,0,1,0,34763,0.203553,0.203221,0.295694,52,0.0170553,10,6.00911e-05,-3.52916,-1.70354,-0.0346337,0.203091,
2,1,0,1,0,34763.8,0.207548,0.207249,0.294568,52,0.0173027,10,6.10488e-05,-3.53081,-1.59459,-0.0370001,0.207119,
2,1,0,0,0,34764.6,0.211544,0.211203,0.293089,52,0.0175486,10,6.19015e-05,-3.533,-1.47124,-0.0401022,0.211075,
2,1,0,1,0,34765.4,0.215539,0.215221,0.291839,52,0.0177934,10,6.281e-05,-3.53486,-2.21023,-0.0266941,0.215093,
2,1,0,1,0,34766.2,0.219535,0.219253,0.291998,52,0.0180369,10,6.40215e-05,-3.53462,-1.80909,-0.032613,0.219125,
2,1,0,1,0,34767,0.223529,0.223218,0.288831,52,0.0182798,10,6.44724e-05,-3.53936,-2.46398,-0.023945,0.223091,
2,1,0,1,0,34767.8,0.227524,0.227231,0.287721,52,0.0185215,10,6.53793e-05,-3.54103,-1.01022,-0.0584033,0.227105,
2,1,0,0,0,34768.6,0.23152,0.231185,0.286677,52,0.0187622,10,6.62754e-05,-3.54261,2.59276,0.0227557,0.231059,
2,1,0,1,0,34769.4,0.235515,0.23521,0.285162,52,0.0190021,10,6.7073e-05,-3.54491,-1.51928,-0.0388343,0.235085,
2,1,0,0,0,34770.2,0.23951,0.239182,0.28456,52,0.0192412,10,6.80617e-05,-3.54583,-8.31627,-0.00709452,0.239057,
2,1,0,1,0,34771,0.243506,0.243163,0.283738,52,0.0194796,10,6.89946e-05,-3.54708,-5.64158,-0.0104581,0.243038,
2,1,0,1,0,34771.8,0.2475,0.247185,0.283524,52,0.0197172,10,7.00831e-05,-3.54741,-0.974687,-0.0605322,0.247061,
2,1,0,1,0,34772.6,0.251495,0.251174,0.282615,52,0.0199539,10,7.09856e-05,-3.5488,5.76798,0.0102289,0.25105,
2,1,0,1,0,34773.4,0.255491,0.255183,0.280187,52,0.0201897,10,7.1499e-05,-3.55255,-1.33462,-0.0442074,0.25506,
2,1,0,0,0,34774.2,0.259486,0.259224,0.280009,52,0.020425,10,7.25851e-05,-3.55283,-1.37079,-0.043041,0.259101,
2,1,0,1,0,34775,0.263481,0.263143,0.279828,52,0.0206592,10,7.36348e-05,-3.55311,-5.72937,-0.0102978,0.26302,
2,1,0,1,0,34775.8,0.267477,0.267153,0.276794,52,0.0208929,10,7.39463e-05,-3.55784,-10.1637,-0.00580498,0.267031,
2,1,0,1,0,34776.6,0.271471,0.271196,0.277788,52,0.0211259,10,7.5335e-05,-3.55629,-71.8999,-0.000820585,0.271073,
2,1,0,1,0,34777.4,0.275466,0.275131,0.276876,52,0.0213581,10,7.61771e-05,-3.55771,-1.56421,-0.0377186,0.275009,
2,1,0,0,0,34778.2,0.279462,0.27917,0.275379,52,0.0215897,10,7.68776e-05,-3.56007,-4.53169,-0.0130194,0.279049,
2,1,0,1,0,34779,0.283457,0.283162,0.27503,52,0.0218201,10,7.78779e-05,-3.56062,-4.61071,-0.0127963,0.283041,
2,1,0,0,0,34779.8,0.287452,0.287128,0.274166,52,0.02205,10,7.87207e-05,-3.56199,-1.16966,-0.0504419,0.287007,
2,1,0,1,0,34780.6,0.291448,0.291154,0.272965,52,0.022279,10,7.94748e-05,-3.56389,-2.29306,-0.0257299,0.291034,
2,1,0,1,0,34781.4,0.295442,0.295078,0.271676,52,0.0225074,10,8.01657e-05,-3.56595,40.9711,0.00144004,0.294959,
2,1,0,1,0,34782.2,0.299437,0.299082,0.270813,52,0.0227356,10,8.09952e-05,-3.56733,-59.8824,-0.000985264,0.298963,
2,1,0,1,0,34783,0.303433,0.303134,0.270891,52,0.0229628,10,8.21165e-05,-3.5672,-1.40708,-0.0419309,0.303015,
2,1,0,0,0,34783.8,0.307428,0.307113,0.268877,52,0.0231892,10,8.25757e-05,-3.57045,-3.60548,-0.016364,0.306995,
2,1,0,1,0,34784.6,0.311424,0.311139,0.269352,52,0.0234152,10,8.38058e-05,-3.56968,-3.23753,-0.0182238,0.31102,
2,1,0,1,0,34785.4,0.315418,0.315122,0.268485,52,0.0236402,10,8.46056e-05,-3.57108,-3.61944,-0.0163008,0.315004,
2,1,0,1,0,34786.2,0.319413,0.319121,0.266742,52,0.0238647,10,8.51228e-05,-3.57391,-37.0727,-0.00159147,0.319003,
2,1,0,1,0,34787,0.323409,0.323123,0.266541,52,0.0240888,10,8.61254e-05,-3.57424,-0.911601,-0.0647213,0.323006,
2,1,0,0,0,34787.8,0.327404,0.327079,0.266445,52,0.0243118,10,8.71487e-05,-3.57439,4.55503,0.0129527,0.326962,
2,1,0,1,0,34788.6,0.331399,0.331064,0.264442,52,0.0245344,10,8.75475e-05,-3.57767,-3.33816,-0.0176744,0.330948,
2,1,0,1,0,34789.4,0.335395,0.335101,0.264837,52,0.0247563,10,8.8747e-05,-3.57702,-2.40589,-0.0245231,0.334984,
2,1,0,1,0,34790.2,0.339389,0.339058,0.26427,52,0.0249776,10,8.9603e-05,-3.57795,-29.7456,-0.00198348,0.338942,
2,1,0,1,0,34791,0.343384,0.343096,0.263046,52,0.0251986,10,9.02501e-05,-3.57997,-1.99601,-0.0295589,0.34298,
2,1,0,0,0,34791.8,0.34738,0.347042,0.262212,52,0.0254186,10,9.09985e-05,-3.58135,-2.96586,-0.019893,0.346926,
2,1,0,1,0,34792.6,0.351375,0.351036,0.261865,52,0.0256383,10,9.1924e-05,-3.58192,-8.44907,-0.00698302,0.350921,
2,1,0,0,0,34793.4,0.35537,0.355034,0.261712,52,0.0258576,10,9.29165e-05,-3.58218,-2.85606,-0.0206578,0.354919,
2,1,0,1,0,34794.2,0.359366,0.359035,0.260889,52,0.0260765,10,9.36683e-05,-3.58354,-35.4507,-0.00166428,0.35892,
2,1,0,1,0,34795,0.36336,0.363076,0.260758,52,0.026295,10,9.46749e-05,-3.58376,6.16344,0.00957257,0.362961,
2,1,0,1,0,34795.8,0.367355,0.36705,0.25979,52,0.026513,10,9.53558e-05,-3.58538,-4.49598,-0.0131228,0.366935,
2,1,0,1,0,34796.6,0.371351,0.371079,0.259826,52,0.0267308,10,9.64158e-05,-3.58532,-20.6754,-0.00285363,0.370965,
2,1,0,0,0,34797.4,0.375346,0.375076,0.259625,52,0.0269485,10,9.73791e-05,-3.58565,-3.09016,-0.0190928,0.374961,
2,1,0,1,0,34798.2,0.379342,0.379008,0.260087,52,0.0271655,10,9.85751e-05,-3.58488,-9.42088,-0.00626269,0.378893,
2,1,0,1,0,34799,0.383336,0.383044,0.25844,52,0.0273819,10,9.8994e-05,-3.58764,-1.55099,-0.0380401,0.38293,
2,1,0,1,0,34799.8,0.387331,0.387029,0.258194,52,0.0275979,10,9.99288e-05,-3.58805,-5.14191,-0.0114743,0.386916,
2,1,0,1,0,34800.6,0.391327,0.391043,0.258023,52,0.0278135,10,0.000100898,-3.58834,8.27431,0.0071305,0.39093,
2,1,0,0,0,34801.4,0.395322,0.395052,0.256787,52,0.0280288,10,0.000101444,-3.59043,-7.30198,-0.00808,0.394939,
2,1,0,1,0,34802.2,0.399317,0.398969,0.256994,52,0.0282438,10,0.000102533,-3.59008,-3.12051,-0.0189071,0.398856,
2,1,0,1,0,34803,0.403313,0.403006,0.25694,52,0.028458,10,0.000103548,-3.59017,-2.10787,-0.0279903,0.402893,
2,1,0,1,0,34803.8,0.407307,0.407038,0.255589,52,0.0286719,10,0.000104035,-3.59246,18.4305,0.00320122,0.406926,
2,1,0,1,0,34804.6,0.411302,0.410981,0.256462,52,0.0288853,10,0.000105401,-3.59098,-4.49227,-0.0131337,0.410868,
2,1,0,0,0,34805.4,0.415298,0.415002,0.254929,52,0.029099,10,0.000105796,-3.59358,3.54237,0.0166555,0.41489,
2,1,0,1,0,34806.2,0.419293,0.419023,0.255101,52,0.0293123,10,0.000106893,-3.59329,-1.20461,-0.0489785,0.418911,
2,1,0,0,0,34807,0.423288,0.422997,0.254763,52,0.0295251,10,0.000107764,-3.59386,4.8791,0.0120924,0.422885,
2,1,0,1,0,34807.8,0.427283,0.426986,0.254305,52,0.0297379,10,0.000108585,-3.59465,8.71651,0.00676877,0.426874,
2,1,0,1,0,34808.6,0.431278,0.430998,0.254826,52,0.0299503,10,0.000109829,-3.59376,1.92277,0.0306848,0.430886,
2,1,0,1,0,34809.4,0.435273,0.434998,0.254411,52,0.0301626,10,0.000110668,-3.59446,-5.70065,-0.0103497,0.434886,
2,1,0,1,0,34810.2,0.439269,0.438985,0.254584,52,0.030375,10,0.000111759,-3.59417,-2.06905,-0.0285154,0.438873,
2,1,0,0,0,34811,0.443264,0.443002,0.254131,52,0.0305872,10,0.00011258,-3.59494,56.2465,0.00104895,0.44289,
2,1,0,1,0,34811.8,0.447259,0.446949,0.254774,52,0.0307992,10,0.000113871,-3.59385,3.98011,0.0148237,0.446837,
2,1,0,1,0,34812.6,0.451254,0.450952,0.254037,52,0.0310116,10,0.000114558,-3.5951,-2.17666,-0.0271058,0.45084,
2,1,0,1,0,34813.4,0.455249,0.454968,0.254845,52,0.0312237,10,0.000115946,-3.59372,4.74144,0.0124435,0.454856,
2,1,0,1,0,34814.2,0.459244,0.458947,0.254274,52,0.0314358,10,0.000116698,-3.5947,6.91611,0.0085308,0.458835,
2,1,0,0,0,34815,0.46324,0.462882,0.254297,52,0.031648,10,0.00011771,-3.59466,5.58898,0.0105565,0.462771,
2,1,0,1,0,34815.8,0.467235,0.46689,0.254486,52,0.0318603,10,0.000118817,-3.59434,-7.06186,-0.00835473,0.466778,
2,1,0,1,0,34816.6,0.471231,0.47092,0.254522,52,0.0320726,10,0.000119859,-3.59428,2.94182,0.0200556,0.470808,
2,1,0,1,0,34817.4,0.475225,0.474924,0.256179,52,0.0322849,10,0.000121665,-3.59146,14.0431,0.00420134,0.474811,
2,1,0,1,0,34818.2,0.47922,0.478941,0.255757,52,0.0324975,10,0.000122493,-3.59217,-5.21065,-0.011323,0.478828,
2,1,0,0,0,34819,0.483216,0.482923,0.255945,52,0.0327103,10,0.000123602,-3.59185,-14.1899,-0.0041579,0.48281,
2,1,0,1,0,34819.8,0.487211,0.486889,0.256611,52,0.0329233,10,0.000124941,-3.59072,1.42943,0.0412752,0.486776,
2,1,0,0,0,34820.6,0.491206,0.490876,0.255788,52,0.0331367,10,0.00012556,-3.59212,6.29821,0.00936774,0.490764,
2,1,0,1,0,34821.4,0.495201,0.494904,0.257435,52,0.0333506,10,0.000127405,-3.58933,3.11935,0.0189142,0.494791,
2,1,0,1,0,34822.2,0.499196,0.498927,0.257723,52,0.0335649,10,0.000128585,-3.58885,1.78752,0.0330066,0.498813,
2,1,0,1,0,34823,0.503191,0.502849,0.258687,52,0.03378,10,0.00013008,-3.58723,-15.2511,-0.00386858,0.502735,
2,1,0,1,0,34823.8,0.507187,0.506841,0.259321,52,0.0339954,10,0.000131434,-3.58616,1.92472,0.0306538,0.506726,
2,1,0,0,0,34824.6,0.511182,0.510907,0.261154,52,0.0342114,10,0.000133425,-3.5831,4.30382,0.0137088,0.510792,
2,1,0,1,0,34825.4,0.515177,0.514851,0.261565,52,0.0344282,10,0.000134667,-3.58242,60.9476,0.000968044,0.514736,
2,1,0,1,0,34826.2,0.519173,0.518861,0.262939,52,0.0346456,10,0.000136429,-3.58014,0.992858,0.0594244,0.518745,
2,1,0,1,0,34827,0.523167,0.522898,0.263431,52,0.0348642,10,0.000137748,-3.57933,1.37399,0.0429408,0.522782,
2,1,0,1,0,34827.8,0.527162,0.52685,0.264808,52,0.0350837,10,0.000139514,-3.57707,1.67516,0.0352205,0.526734,
2,1,0,0,0,34828.6,0.531158,0.530913,0.266373,52,0.0353041,10,0.000141421,-3.57451,2.47624,0.0238265,0.530796,
2,1,0,1,0,34829.4,0.535153,0.534866,0.267804,52,0.0355257,10,0.000143239,-3.57218,2.61742,0.0225413,0.534748,
2,1,0,0,0,34830.2,0.539148,0.53887,0.269737,52,0.0357484,10,0.000145353,-3.56906,1.23975,0.0475903,0.538751,
2,1,0,1,0,34831,0.543143,0.542801,0.271598,52,0.0359726,10,0.000147424,-3.56607,1.59907,0.0368964,0.542682,
2,1,0,1,0,34831.8,0.547138,0.5468,0.273178,52,0.0361984,10,0.000149373,-3.56355,1.60492,0.036762,0.54668,
2,1,0,1,0,34832.6,0.551133,0.550827,0.275608,52,0.0364255,10,0.000151812,-3.55971,0.783577,0.0752957,0.550706,
2,1,0,1,0,34833.4,0.555129,0.554872,0.277814,52,0.0366546,10,0.000154151,-3.55625,1.09009,0.0541238,0.554749,
2,1,0,0,0,34834.2,0.559124,0.55883,0.280262,52,0.0368854,10,0.000156619,-3.55244,0.700035,0.0842815,0.558707,
2,1,0,1,0,34835,0.56312,0.562798,0.28339,52,0.0371186,10,0.000159491,-3.54761,0.853657,0.0691144,0.562673,
2,1,0,1,0,34835.8,0.567114,0.56682,0.287147,52,0.0373544,10,0.000162761,-3.5419,0.987747,0.0597319,0.566694,
2,1,0,1,0,34836.6,0.571109,0.570828,0.290411,52,0.0375925,10,0.000165775,-3.53699,0.666731,0.0884915,0.570701,
2,1,0,1,0,34837.4,0.575105,0.574807,0.293864,52,0.0378335,10,0.000168915,-3.53185,0.819765,0.0719718,0.574678,
2,1,0,0,0,34838.1,0.5791,0.578789,0.298348,52,0.0380777,10,0.000172681,-3.52528,0.706039,0.0835648,0.578658,
2,1,0,1,0,34838.9,0.583095,0.582776,0.303032,52,0.0383253,10,0.0001766,-3.51851,0.480416,0.12281,0.582643,
2,1,0,1,0,34839.7,0.58709,0.586829,0.307254,52,0.0385769,10,0.000180306,-3.5125,0.560768,0.105213,0.586694,
2,1,0,1,0,34840.5,0.591085,0.590776,0.314075,52,0.0388327,10,0.000185548,-3.50297,0.446448,0.132154,0.590638,
2,1,0,1,0,34841.3,0.59508,0.594779,0.320389,52,0.0390936,10,0.000190561,-3.49432,0.415991,0.14183,0.594638,
2,1,0,0,0,34842.1,0.599076,0.598788,0.328396,52,0.0393602,10,0.00019664,-3.4836,0.374165,0.157684,0.598644,
2,1,0,1,0,34842.9,0.603071,0.602785,0.336417,52,0.0396329,10,0.000202787,-3.47312,0.381248,0.154755,0.602637,
2,1,0,0,0,34843.7,0.607066,0.606781,0.345474,52,0.0399127,10,0.000209627,-3.46158,0.288338,0.204621,0.606629,
2,1,0,1,0,34844.5,0.611061,0.610764,0.356787,52,0.0402007,10,0.000217913,-3.44759,0.300098,0.196603,0.610607,
2,1,0,1,0,34845.3,0.615056,0.614742,0.369669,52,0.0404982,10,0.000227251,-3.43219,0.237121,0.248818,0.61458,
2,1,0,1,0,34846.1,0.619051,0.618769,0.384027,52,0.0408071,10,0.000237624,-3.41564,0.218508,0.270014,0.6186,
2,1,0,1,0,34846.9,0.623047,0.622731,0.401284,52,0.0411284,10,0.000249892,-3.39655,0.19755,0.298658,0.622555,
2,1,0,0,0,34847.7,0.627042,0.62678,0.421597,52,0.0414644,10,0.000264249,-3.3751,0.18195,0.324265,0.626594,
2,1,0,1,0,34848.5,0.631037,0.630735,0.443346,52,0.0418176,10,0.000279634,-3.35326,0.173267,0.340516,0.63054,
2,1,0,1,0,34849.3,0.635032,0.634763,0.470597,52,0.0421902,10,0.000298718,-3.32735,0.147335,0.400448,0.634556,
2,1,0,1,0,34850.1,0.639027,0.638741,0.501877,52,0.0425862,10,0.000320569,-3.2994,0.132292,0.445982,0.63852,
2,1,0,1,0,34850.9,0.643022,0.642725,0.538555,52,0.0430093,10,0.000346142,-3.26877,0.132021,0.446898,0.642488,
2,1,0,0,0,34851.7,0.647018,0.646735,0.58024,52,0.0434634,10,0.000375261,-3.23639,0.113564,0.51953,0.646479,
2,1,0,1,0,34852.5,0.651013,0.650732,0.630544,52,0.0439544,10,0.000410315,-3.20028,0.106917,0.551829,0.650455,
2,1,0,1,0,34853.3,0.655008,0.654737,0.689654,52,0.044489,10,0.000451542,-3.16137,0.0992057,0.594724,0.654434,
2,1,0,1,0,34854.1,0.659003,0.658698,0.758227,52,0.045074,10,0.000499443,-3.1202,0.0929364,0.634843,0.658365,
2,1,0,1,0,34854.9,0.662998,0.662701,0.837272,52,0.0457183,10,0.000554861,-3.07713,0.0921346,0.640368,0.662333,
2,1,0,0,0,34855.7,0.666994,0.666684,0.929395,52,0.0464305,10,0.000619613,-3.0318,0.0850752,0.693504,0.666275,
2,1,0,1,0,34856.5,0.670989,0.670711,1.03427,52,0.0472212,10,0.000693698,-2.98537,0.0821148,0.718506,0.670256,
2,1,0,0,0,34857.3,0.674984,0.674738,1.15491,52,0.0481019,10,0.00077926,-2.93745,0.0830842,0.710123,0.67423,
2,1,0,1,0,34858.1,0.67898,0.678708,1.29225,52,0.0490853,10,0.000877059,-2.88865,0.0789484,0.747324,0.67814,
2,1,0,1,0,34858.9,0.682974,0.682689,1.44688,52,0.050186,10,0.000987766,-2.83957,0.079745,0.739858,0.682052,
2,1,0,1,0,34859.7,0.686969,0.686672,1.62096,52,0.0514176,10,0.00111306,-2.79023,0.0797834,0.739502,0.685958,
2,1,0,1,0,34860.5,0.690965,0.690724,1.81554,52,0.0527969,10,0.00125404,-2.74099,0.079559,0.741588,0.689925,
2,1,0,0,0,34861.3,0.69496,0.694693,2.03095,52,0.0543407,10,0.00141089,-2.6923,0.0797379,0.739924,0.693799,
2,1,0,1,0,34862.1,0.698955,0.698687,2.26908,52,0.0560648,10,0.00158538,-2.64415,0.0824923,0.715218,0.697689,
2,1,0,1,0,34862.9,0.70295,0.702628,2.52688,52,0.0579876,10,0.00177546,-2.59742,0.0824167,0.715874,0.701516,
2,1,0,1,0,34863.7,0.706945,0.706661,2.80955,52,0.0601262,10,0.0019854,-2.55136,0.0868707,0.67917,0.705425,
2,1,0,1,0,34864.5,0.71094,0.710661,3.11268,52,0.0624987,10,0.00221206,-2.50687,0.0873792,0.675218,0.709291,
2,1,0,0,0,34865.3,0.714936,0.714653,3.43945,52,0.0651233,10,0.00245801,-2.46351,0.0894075,0.6599,0.713139,
2,1,0,1,0,34866.1,0.718931,0.718641,3.78854,52,0.0680175,10,0.0027226,-2.42153,0.0929888,0.634485,0.716974,
2,1,0,1,0,34866.9,0.722927,0.722644,4.16068,52,0.0712006,10,0.00300669,-2.38084,0.0961205,0.613813,0.720814,
2,1,0,1,0,34867.7,0.726921,0.726619,4.55438,52,0.0746893,10,0.0033093,-2.34157,0.0993413,0.593912,0.724616,
2,1,0,1,0,34868.5,0.730916,0.730646,4.97222,52,0.0785023,10,0.00363293,-2.30345,0.100157,0.589072,0.728458,
2,1,0,1,0,34869.3,0.734911,0.734633,5.41304,52,0.0826586,10,0.0039766,-2.26656,0.105376,0.5599,0.732252,
2,1,0,1,0,34870.1,0.738907,0.738603,5.87821,52,0.0871763,10,0.00434166,-2.23076,0.107744,0.547592,0.736017,
2,1,0,0,0,34870.9,0.742902,0.742625,6.36491,52,0.0920735,10,0.00472674,-2.19621,0.111066,0.531216,0.739825,
2,1,0,1,0,34871.7,0.746897,0.746614,6.87615,52,0.0973705,10,0.00513382,-2.16265,0.112826,0.522928,0.743588,
2,1,0,1,0,34872.5,0.750892,0.750609,7.41138,52,0.103085,10,0.00556305,-2.1301,0.11754,0.501955,0.747348,
2,1,0,1,0,34873.3,0.754887,0.754616,7.97349,52,0.109239,10,0.00601692,-2.09835,0.118733,0.496911,0.751108,
2,1,0,1,0,34874.1,0.758883,0.758613,8.56274,52,0.115852,10,0.00649581,-2.06739,0.122982,0.479744,0.754845,
2,1,0,0,0,34874.9,0.762878,0.76259,9.17758,52,0.122946,10,0.00699874,-2.03727,0.125786,0.469049,0.758552,
2,1,0,1,0,34875.7,0.766873,0.766595,9.82593,52,0.130545,10,0.0075325,-2.00763,0.125629,0.469638,0.762271,
2,1,0,1,0,34876.5,0.770868,0.770574,10.5095,52,0.138675,10,0.00809835,-1.97842,0.126245,0.467347,0.765949,
2,1,0,1,0,34877.3,0.774863,0.774582,11.2316,52,0.147366,10,0.00869978,-1.94956,0.126603,0.466022,0.76964,
2,1,0,1,0,34878.1,0.778858,0.778579,12.0036,52,0.156655,10,0.00934578,-1.92069,0.125862,0.468766,0.773297,
2,1,0,0,0,34878.9,0.782854,0.782544,12.8321,52,0.166582,10,0.0100417,-1.8917,0.124912,0.472332,0.776898,
2,1,0,1,0,34879.7,0.786849,0.786561,13.712,52,0.177193,10,0.0107853,-1.8629,0.127521,0.462669,0.780528,
2,1,0,0,0,34880.5,0.790844,0.790563,14.638,52,0.188524,10,0.0115722,-1.83452,0.125845,0.468832,0.784122,
2,1,0,1,0,34881.3,0.794839,0.794537,15.6191,52,0.200619,10,0.01241,-1.80634,0.128123,0.460493,0.787665,
2,1,0,1,0,34882.1,0.798834,0.79859,16.6521,52,0.213515,10,0.0132982,-1.77853,0.124702,0.473127,0.791263,
2,1,0,1,0,34882.9,0.802829,0.802567,17.7537,52,0.227264,10,0.0142485,-1.75071,0.128619,0.458719,0.794756,
2,1,0,1,0,34883.7,0.806825,0.806573,18.9025,52,0.24192,10,0.0152462,-1.72348,0.128339,0.459721,0.798256,
2,1,0,0,0,34884.5,0.81082,0.810528,20.0908,52,0.257505,10,0.0162841,-1.697,0.131323,0.449273,0.801688,
2,1,0,1,0,34885.3,0.814815,0.814559,21.3091,52,0.274061,10,0.0173575,-1.67143,0.13762,0.428717,0.805183,
2,1,0,1,0,34886.1,0.81881,0.818526,22.5573,52,0.291592,10,0.0184637,-1.64671,0.146214,0.403518,0.808601,
2,1,0,1,0,34886.9,0.822805,0.822535,23.8321,52,0.310123,10,0.0196027,-1.62284,0.141806,0.416061,0.812049,
2,1,0,1,0,34887.7,0.826801,0.8266,25.1597,52,0.329707,10,0.020797,-1.59929,0.148698,0.396777,0.815529,
2,1,0,0,0,34888.5,0.830796,0.830522,26.4944,52,0.35035,10,0.0220042,-1.57685,0.151748,0.388802,0.818865,
2,1,0,1,0,34889.3,0.834791,0.834553,27.8773,52,0.372081,10,0.023265,-1.55475,0.155955,0.378315,0.822287,
2,1,0,1,0,34890.1,0.838786,0.838551,29.3018,52,0.394937,10,0.0245711,-1.53311,0.163954,0.359858,0.825658,
2,1,0,1,0,34890.9,0.842781,0.842531,30.7246,52,0.418904,10,0.0258864,-1.51251,0.158055,0.373289,0.829013,
2,1,0,1,0,34891.7,0.846776,0.84651,32.1814,52,0.44405,10,0.0272419,-1.4924,0.176172,0.3349,0.83235,
2,1,0,1,0,34892.4,0.849723,0.849449,33.0708,52,0.466986,10,0.028092,-1.48055,0.0427935,1.37871,0.834898,
2,1,0,0,0,34893.2,0.845728,0.845516,30.9274,52,0.492482,10,0.0261496,-1.50966,0.12316,0.479053,0.831908,
2,1,0,1,0,34894,0.841732,0.841486,29.1647,52,0.516468,10,0.0245417,-1.53514,0.127777,0.461743,0.828653,
2,1,0,1,0,34894.8,0.837737,0.837465,27.5095,52,0.539096,10,0.0230382,-1.56052,0.13217,0.446396,0.825361,
2,1,0,1,0,34895.6,0.833742,0.833514,25.9549,52,0.56044,10,0.0216338,-1.58578,0.130528,0.45201,0.822094,
2,1,0,1,0,34896.4,0.829747,0.829471,24.5033,52,0.58058,10,0.0203248,-1.61078,0.128168,0.460332,0.818689,
2,1,0,0,0,34897.2,0.825752,0.825488,23.0767,52,0.599575,10,0.0190495,-1.63683,0.132313,0.445913,0.815335,
2,1,0,1,0,34898,0.821757,0.821521,21.7134,52,0.617454,10,0.017838,-1.66327,0.127568,0.462498,0.811968,
2,1,0,1,0,34898.8,0.817761,0.817491,20.3891,52,0.634261,10,0.0166679,-1.6906,0.125043,0.471838,0.80852,
2,1,0,1,0,34899.6,0.813766,0.813492,19.1447,52,0.650042,10,0.0155741,-1.71795,0.122737,0.480703,0.805068,
2,1,0,1,0,34900.4,0.809771,0.809536,17.9294,52,0.664836,10,0.0145145,-1.74643,0.121614,0.485143,0.801647,
2,1,0,1,0,34901.2,0.805776,0.805483,16.7766,52,0.678689,10,0.0135132,-1.7753,0.121525,0.485498,0.798101,
2,1,0,1,0,34902,0.801781,0.801495,15.6779,52,0.691643,10,0.0125657,-1.80471,0.11793,0.500296,0.794596,
2,1,0,0,0,34902.8,0.797786,0.797485,14.6312,52,0.703738,10,0.0116681,-1.83472,0.116108,0.508148,0.791048,
2,1,0,1,0,34903.6,0.79379,0.793516,13.6277,52,0.715015,10,0.0108138,-1.86558,0.116568,0.506141,0.787519,
2,1,0,1,0,34904.4,0.789795,0.789526,12.69,52,0.725517,10,0.0100191,-1.89654,0.114012,0.51749,0.783942,
2,1,0,1,0,34905.2,0.7858,0.785496,11.7987,52,0.735288,10,0.00926786,-1.92816,0.11266,0.523698,0.780305,
2,1,0,1,0,34906,0.781805,0.781525,10.955,52,0.744368,10,0.00856161,-1.96039,0.113882,0.518079,0.776705,
2,1,0,0,0,34906.8,0.77781,0.777528,10.1673,52,0.752796,10,0.00790534,-1.9928,0.111573,0.5288,0.773055,
2,1,0,1,0,34907.6,0.773814,0.773588,9.41571,52,0.760608,10,0.00728388,-2.02615,0.109204,0.540272,0.769445,
2,1,0,1,0,34908.4,0.769819,0.769504,8.71537,52,0.767842,10,0.00670651,-2.05971,0.108216,0.545207,0.765669,
2,1,0,1,0,34909.2,0.765824,0.765533,8.05629,52,0.77453,10,0.00616736,-2.09387,0.105885,0.55721,0.761988,
2,1,0,1,0,34910,0.761829,0.761505,7.42514,52,0.780705,10,0.00565428,-2.1293,0.104829,0.56282,0.758238,
2,1,0,0,0,34910.8,0.757834,0.757542,6.83612,52,0.786392,10,0.00517865,-2.16519,0.104311,0.565619,0.754534,
2,1,0,1,0,34911.6,0.753839,0.7536,6.28416,52,0.791622,10,0.00473574,-2.20175,0.101799,0.579572,0.750835,
2,1,0,0,0,34912.4,0.749844,0.749572,5.76441,52,0.796425,10,0.00432084,-2.23924,0.105652,0.558439,0.747035,
2,1,0,1,0,34913.2,0.745848,0.745554,5.36435,52,0.800852,10,0.00399941,-2.27048,0.113695,0.518931,0.743193,
2,1,0,1,0,34914,0.741853,0.741628,4.90719,52,0.804947,10,0.00363931,-2.30917,0.0881699,0.669162,0.739469,
2,1,0,1,0,34914.8,0.737858,0.737572,4.44766,52,0.808671,10,0.00328047,-2.35187,0.0967006,0.610131,0.735615,
2,1,0,1,0,34915.6,0.733863,0.733596,4.04458,52,0.812054,10,0.00296709,-2.39313,0.0899299,0.656066,0.731816,
2,1,0,0,0,34916.4,0.729868,0.729605,3.66486,52,0.815124,10,0.0026739,-2.43594,0.0892647,0.660955,0.727993,
2,1,0,1,0,34917.2,0.725872,0.725577,3.31086,52,0.817902,10,0.00240228,-2.48006,0.0857543,0.688012,0.72412,
2,1,0,1,0,34918,0.721877,0.721603,2.98156,52,0.820406,10,0.0021515,-2.52556,0.0830193,0.710678,0.720291,
2,1,0,1,0,34918.8,0.717882,0.717594,2.67293,52,0.822657,10,0.00191808,-2.57301,0.0800132,0.737379,0.716418,
2,1,0,1,0,34919.6,0.713887,0.713612,2.38918,52,0.82467,10,0.00170495,-2.62175,0.0782166,0.754316,0.712561,
2,1,0,0,0,34920.4,0.709892,0.709606,2.12382,52,0.826463,10,0.00150707,-2.67288,0.0742528,0.794583,0.708672,
2,1,0,1,0,34921.2,0.705897,0.705584,1.88069,52,0.828053,10,0.00132699,-2.72568,0.0710546,0.830347,0.704756,
2,1,0,1,0,34921.9,0.701901,0.701576,1.65518,52,0.829456,10,0.00116124,-2.78115,0.069338,0.850904,0.700848,
2,1,0,1,0,34922.7,0.697906,0.697659,1.4496,52,0.830687,10,0.00101133,-2.83875,0.06642,0.888287,0.697021,
2,1,0,1,0,34923.5,0.693911,0.693666,1.26025,52,0.831759,10,0.000874196,-2.89954,0.0637009,0.926203,0.693112,
2,1,0,0,0,34924.3,0.689916,0.689605,1.08953,52,0.832689,10,0.000751347,-2.96276,0.0614676,0.959855,0.689125,
2,1,0,1,0,34925.1,0.685921,0.68562,0.937922,52,0.83349,10,0.000643058,-3.02783,0.0582712,1.01251,0.685207,
2,1,0,0,0,34925.9,0.681926,0.681602,0.801075,52,0.834177,10,0.000546014,-3.09633,0.0552412,1.06804,0.681249,
2,1,0,1,0,34926.7,0.67793,0.677593,0.678429,52,0.834759,10,0.000459699,-3.1685,0.0544762,1.08304,0.677295,
2,1,0,1,0,34927.5,0.673935,0.673658,0.570251,52,0.835249,10,0.000384155,-3.24393,0.0538826,1.09497,0.673408,
2,1,0,1,0,34928.3,0.66994,0.669648,0.477922,52,0.83566,10,0.00032004,-3.32064,0.0473349,1.24644,0.669438,
2,1,0,1,0,34929.1,0.665945,0.665672,0.39266,52,0.835999,10,0.000261383,-3.40598,0.0449028,1.31395,0.6655,
2,1,0,0,0,34929.9,0.66195,0.66168,0.320103,52,0.836275,10,0.000211806,-3.49471,0.0441229,1.33717,0.661539,
2,1,0,1,0,34930.7,0.657955,0.657676,0.257157,52,0.836498,10,0.000169126,-3.5898,0.0399978,1.47508,0.657563,
2,1,0,1,0,34931.5,0.653959,0.653662,0.203635,52,0.836674,10,0.000133109,-3.69115,0.0377902,1.56125,0.653573,
2,1,0,1,0,34932.3,0.649964,0.6497,0.158242,52,0.83681,10,0.00010281,-3.80068,0.0329448,1.79087,0.64963,
2,1,0,1,0,34933.1,0.64597,0.645682,0.117314,52,0.836912,10,7.57476e-05,-3.93065,0.0300493,1.96344,0.645631,
2,1,0,0,0,34933.9,0.641974,0.641699,0.0843043,52,0.836985,10,5.4098e-05,-4.07415,0.0256585,2.29943,0.641662,
2,1,0,1,0,34934.7,0.637979,0.637689,0.0568195,52,0.837033,10,3.62332e-05,-4.2455,0.0184342,3.20057,0.637664,
2,1,0,1,0,34935.5,0.633983,0.633677,0.0323454,52,0.83706,10,2.04966e-05,-4.49019,0.014729,4.00569,0.633663,
2,1,0,1,0,34936.3,0.629988,0.629708,0.0125509,52,0.83707,10,7.90338e-06,-4.90133,0.00496883,11.874,0.629702,
2,0,0,1,0,34937.1,0.625993,0.625664,-0.00470928,52,0.837066,10,-2.94642e-06,-5.32705,-0.00739364,-7.97983,0.625666,
2,0,0,0,0,34937.9,0.621998,0.621699,-0.0182985,52,0.837049,10,-1.13761e-05,-4.73758,-0.0138281,-4.26668,0.621707,
2,0,0,1,0,34938.7,0.618003,0.617714,-0.029669,52,0.837023,10,-1.8327e-05,-4.5277,-0.0220409,-2.67685,0.617727,
2,0,0,0,0,34939.5,0.614008,0.613715,-0.0389607,52,0.836988,10,-2.39108e-05,-4.40937,-0.0575971,-1.02436,0.613732,
2,0,0,1,0,34940.3,0.610012,0.609695,-0.0477335,52,0.836946,10,-2.91029e-05,-4.32118,-0.0484343,-1.21814,0.609716,
2,0,0,1,0,34941.1,0.606017,0.605709,-0.0529766,52,0.836897,10,-3.20884e-05,-4.27592,-0.0755364,-0.78108,0.605732,
2,0,0,1,0,34941.9,0.602022,0.601717,-0.0604192,52,0.836844,10,-3.63553e-05,-4.21883,-0.119492,-0.493755,0.601744,
2,0,0,1,0,34942.7,0.598027,0.597703,-0.064904,52,0.836787,10,-3.87933e-05,-4.18773,-0.117787,-0.500905,0.597731,
2,0,0,0,0,34943.5,0.594032,0.593722,-0.0689116,52,0.836725,10,-4.09143e-05,-4.16171,-0.162559,-0.362944,0.593752,
2,0,0,1,0,34944.3,0.590037,0.589701,-0.0727911,52,0.836661,10,-4.2925e-05,-4.13792,-0.179467,-0.328751,0.589733,
2,0,0,1,0,34945.1,0.586041,0.585746,-0.0759878,52,0.836593,10,-4.45096e-05,-4.11926,-0.2318,-0.25453,0.58578,
2,0,0,1,0,34945.9,0.582046,0.581714,-0.0794612,52,0.836523,10,-4.62237e-05,-4.09984,-0.276327,-0.213515,0.581749,
2,0,0,1,0,34946.7,0.578052,0.577764,-0.081538,52,0.836451,10,-4.71098e-05,-4.08864,-0.296949,-0.198687,0.5778,
2,0,0,0,0,34947.5,0.574056,0.573736,-0.0832106,52,0.836377,10,-4.77409e-05,-4.07982,-0.38368,-0.153774,0.573773,
2,0,0,1,0,34948.3,0.570061,0.569739,-0.0853807,52,0.836301,10,-4.86447e-05,-4.06864,-0.734773,-0.0802969,0.569776,
2,0,0,1,0,34949.1,0.566065,0.56575,-0.0878504,52,0.836224,10,-4.97014e-05,-4.05626,-0.352058,-0.167586,0.565789,
2,0,0,1,0,34949.9,0.56207,0.561722,-0.0889041,52,0.836145,10,-4.99394e-05,-4.05108,-0.55388,-0.106521,0.561761,
2,0,0,1,0,34950.7,0.558075,0.557747,-0.0904877,52,0.836065,10,-5.04692e-05,-4.04341,-0.397862,-0.148293,0.557787,
2,0,0,1,0,34951.5,0.55408,0.553788,-0.0916293,52,0.835984,10,-5.07433e-05,-4.03797,-0.723534,-0.0815442,0.553829,
2,0,0,1,0,34952.3,0.550085,0.549744,-0.0932325,52,0.835902,10,-5.1254e-05,-4.03043,-2.56462,-0.0230054,0.549785,
2,0,0,0,0,34953.1,0.54609,0.545729,-0.0939951,52,0.835819,10,-5.12959e-05,-4.02689,-0.528685,-0.111598,0.54577,
2,0,0,1,0,34953.9,0.542094,0.541779,-0.0947978,52,0.835735,10,-5.13595e-05,-4.0232,-1.22912,-0.0480019,0.541821,
2,0,0,1,0,34954.7,0.538099,0.537783,-0.0971226,52,0.83565,10,-5.22309e-05,-4.01268,-0.630352,-0.0935985,0.537826,
2,0,0,1,0,34955.5,0.534104,0.533825,-0.0985065,52,0.835564,10,-5.25852e-05,-4.00653,-0.511516,-0.115343,0.533868,
2,0,0,1,0,34956.3,0.530109,0.52978,-0.0992277,52,0.835477,10,-5.25689e-05,-4.00337,-0.799751,-0.073773,0.529824,
2,0,0,0,0,34957.1,0.526114,0.525742,-0.100429,52,0.835389,10,-5.27998e-05,-3.99814,-1.17624,-0.0501599,0.525786,
2,0,0,1,0,34957.9,0.522119,0.521805,-0.101529,52,0.835301,10,-5.29783e-05,-3.99341,-0.831467,-0.0709589,0.52185,
2,0,0,1,0,34958.7,0.518123,0.517811,-0.102338,52,0.835211,10,-5.29918e-05,-3.98996,-0.950929,-0.0620446,0.517856,
2,0,0,1,0,34959.5,0.514128,0.513822,-0.103289,52,0.835121,10,-5.3072e-05,-3.98595,-0.714684,-0.082554,0.513868,
2,0,0,1,0,34960.3,0.510133,0.509843,-0.103543,52,0.835029,10,-5.27907e-05,-3.98488,-0.947051,-0.0622987,0.509889,
2,0,0,0,0,34961.1,0.506138,0.505824,-0.105123,52,0.834937,10,-5.31736e-05,-3.9783,-1.7546,-0.033626,0.50587,
2,0,0,1,0,34961.9,0.502143,0.501832,-0.106797,52,0.834843,10,-5.35941e-05,-3.97144,-0.568366,-0.103806,0.501879,
2,0,0,0,0,34962.7,0.498148,0.497825,-0.108738,52,0.834749,10,-5.41327e-05,-3.96362,-0.915248,-0.0644634,0.497873,
2,0,0,1,0,34963.5,0.494152,0.493808,-0.108872,52,0.834654,10,-5.3762e-05,-3.96308,-0.749085,-0.0787627,0.493856,
2,0,0,1,0,34964.3,0.490157,0.489843,-0.110381,52,0.834558,10,-5.40696e-05,-3.9571,-0.89633,-0.0658239,0.489892,
2,0,0,1,0,34965.1,0.486162,0.485822,-0.111369,52,0.834461,10,-5.41055e-05,-3.95324,-0.662169,-0.0891011,0.485871,
2,0,0,1,0,34965.9,0.482167,0.481848,-0.113291,52,0.834363,10,-5.4589e-05,-3.9458,-1.41001,-0.0418436,0.481898,
2,0,0,0,0,34966.7,0.478172,0.477872,-0.11437,52,0.834264,10,-5.46544e-05,-3.94169,-0.595668,-0.0990484,0.477923,
2,0,0,1,0,34967.5,0.474177,0.473845,-0.115594,52,0.834163,10,-5.47738e-05,-3.93706,-2.18862,-0.0269576,0.473896,
2,0,0,1,0,34968.3,0.470181,0.469832,-0.116927,52,0.834062,10,-5.49362e-05,-3.93208,-0.590761,-0.0998711,0.469884,
2,0,0,1,0,34969.1,0.466186,0.465866,-0.117841,52,0.833959,10,-5.4898e-05,-3.9287,-0.67454,-0.087467,0.465917,
2,0,0,1,0,34969.9,0.462191,0.46187,-0.120102,52,0.833856,10,-5.54716e-05,-3.92045,-0.874102,-0.0674978,0.461923,
2,0,0,0,0,34970.7,0.458196,0.457916,-0.120221,52,0.833751,10,-5.50511e-05,-3.92002,-0.716105,-0.0823901,0.457968,
2,0,0,1,0,34971.5,0.454201,0.453886,-0.122609,52,0.833645,10,-5.56506e-05,-3.91148,-0.768348,-0.0767881,0.45394,
2,0,0,1,0,34972.3,0.450205,0.449928,-0.123574,52,0.833537,10,-5.55992e-05,-3.90807,-0.712695,-0.0827843,0.449982,
2,0,0,1,0,34973.1,0.44621,0.445882,-0.125373,52,0.833429,10,-5.59014e-05,-3.9018,-0.451661,-0.130629,0.445937,
2,0,0,1,0,34973.9,0.442215,0.441917,-0.127165,52,0.833318,10,-5.61965e-05,-3.89563,-2.69746,-0.0218724,0.441973,
2,0,0,0,0,34974.7,0.43822,0.437899,-0.128996,52,0.833207,10,-5.64873e-05,-3.88942,-0.431027,-0.136882,0.437956,
2,0,0,1,0,34975.5,0.434225,0.433919,-0.131257,52,0.833094,10,-5.69551e-05,-3.88188,-1.24576,-0.0473608,0.433976,
2,0,0,0,0,34976.3,0.43023,0.429908,-0.133494,52,0.83298,10,-5.73901e-05,-3.87454,-0.536497,-0.109973,0.429967,
2,0,0,1,0,34977.1,0.426234,0.42594,-0.135404,52,0.832864,10,-5.7674e-05,-3.86837,-0.480907,-0.122685,0.425999,
2,0,0,1,0,34977.9,0.422239,0.421937,-0.137132,52,0.832747,10,-5.78613e-05,-3.86286,-1.17905,-0.0500402,0.421997,
2,0,0,1,0,34978.7,0.418244,0.417943,-0.138631,52,0.832628,10,-5.79399e-05,-3.85814,-0.813948,-0.0724862,0.418004,
2,0,0,1,0,34979.5,0.414249,0.4139,-0.140096,52,0.832507,10,-5.79856e-05,-3.85358,-0.656309,-0.0898966,0.413962,
2,0,0,0,0,34980.3,0.410254,0.409953,-0.142267,52,0.832385,10,-5.8323e-05,-3.84689,-1.23321,-0.0478428,0.410016,
2,0,0,1,0,34981.1,0.406259,0.405972,-0.143984,52,0.832262,10,-5.84533e-05,-3.84169,-0.464717,-0.126959,0.406035,
2,0,0,1,0,34981.9,0.402263,0.401928,-0.145938,52,0.832136,10,-5.86565e-05,-3.83583,-0.754903,-0.0781557,0.401992,
2,0,0,1,0,34982.7,0.398268,0.397957,-0.148131,52,0.832009,10,-5.89496e-05,-3.82936,-0.677837,-0.0870416,0.398022,
2,0,0,1,0,34983.5,0.394274,0.393928,-0.149916,52,0.831881,10,-5.9056e-05,-3.82415,-0.641791,-0.0919302,0.393994,
2,0,0,0,0,34984.3,0.390278,0.389981,-0.151662,52,0.83175,10,-5.91452e-05,-3.81912,-0.578008,-0.102075,0.390047,
2,0,0,1,0,34985.1,0.386283,0.385963,-0.154489,52,0.831619,10,-5.96269e-05,-3.8111,-0.635367,-0.0928597,0.386031,
2,0,0,1,0,34985.9,0.382287,0.381985,-0.156371,52,0.831485,10,-5.97315e-05,-3.80584,-0.568328,-0.103813,0.382054,
2,0,0,1,0,34986.7,0.378292,0.378,-0.158441,52,0.831349,10,-5.98906e-05,-3.80013,-2.82375,-0.0208942,0.37807,
2,0,0,1,0,34987.5,0.374297,0.374004,-0.160449,52,0.831212,10,-6.00087e-05,-3.79466,-0.487487,-0.121029,0.374074,
2,0,0,1,0,34988.3,0.370303,0.369983,-0.162702,52,0.831072,10,-6.01971e-05,-3.78861,-0.615686,-0.0958281,0.370054,
2,0,0,1,0,34989.1,0.366307,0.366025,-0.166191,52,0.830931,10,-6.08299e-05,-3.77939,-0.415382,-0.142038,0.366098,
2,0,0,0,0,34989.9,0.362312,0.362011,-0.16785,52,0.830788,10,-6.07636e-05,-3.77508,-0.520498,-0.113353,0.362085,
2,0,0,1,0,34990.7,0.358316,0.357998,-0.17028,52,0.830643,10,-6.096e-05,-3.76884,-18.9767,-0.00310907,0.358073,
2,0,0,1,0,34991.5,0.354321,0.354,-0.17279,52,0.830496,10,-6.11675e-05,-3.76248,-0.679578,-0.0868186,0.354076,
2,0,0,1,0,34992.3,0.350327,0.350007,-0.173513,52,0.830348,10,-6.07309e-05,-3.76067,-0.452308,-0.130442,0.350083,
2,0,0,1,0,34993.1,0.346331,0.345993,-0.177862,52,0.830197,10,-6.15388e-05,-3.74992,-1.78486,-0.0330558,0.346071,
2,0,0,0,0,34993.9,0.342336,0.341993,-0.180306,52,0.830044,10,-6.16632e-05,-3.74399,-0.490659,-0.120247,0.342072,
2,0,0,1,0,34994.7,0.338341,0.338015,-0.182135,52,0.829889,10,-6.15644e-05,-3.73961,-0.910419,-0.0648053,0.338096,
2,0,0,1,0,34995.5,0.334345,0.334046,-0.184497,52,0.829733,10,-6.16303e-05,-3.73401,-0.709009,-0.0832147,0.334127,
2,0,0,1,0,34996.3,0.33035,0.330007,-0.186984,52,0.829574,10,-6.17061e-05,-3.7282,-0.564082,-0.104595,0.33009,
2,0,0,1,0,34997.1,0.326355,0.326049,-0.188474,52,0.829414,10,-6.14519e-05,-3.72475,-1.35568,-0.0435206,0.326132,
2,0,0,0,0,34997.9,0.32236,0.322036,-0.191071,52,0.829251,10,-6.15318e-05,-3.71881,-0.689378,-0.0855844,0.32212,
2,0,0,1,0,34998.7,0.318365,0.318029,-0.192533,52,0.829087,10,-6.1231e-05,-3.71549,-0.52905,-0.111521,0.318114,
2,0,0,0,0,34999.5,0.31437,0.314061,-0.195898,52,0.82892,10,-6.15238e-05,-3.70797,-1.73485,-0.0340088,0.314147,
2,0,0,1,0,35000.3,0.310374,0.31003,-0.199027,52,0.828752,10,-6.17042e-05,-3.70109,-0.572222,-0.103107,0.310118,
2,0,0,1,0,35001.1,0.306379,0.306067,-0.201808,52,0.828581,10,-6.17666e-05,-3.69506,-0.597226,-0.0987901,0.306155,
2,0,0,1,0,35001.9,0.302385,0.302087,-0.204046,52,0.828409,10,-6.16396e-05,-3.69027,-0.619734,-0.0952021,0.302177,
2,0,0,1,0,35002.7,0.298389,0.298084,-0.20635,52,0.828234,10,-6.15097e-05,-3.68539,-0.729092,-0.0809226,0.298174,
2,0,0,0,0,35003.5,0.294394,0.294104,-0.209913,52,0.828057,10,-6.17364e-05,-3.67796,-1.1469,-0.0514431,0.294196,
2,0,0,1,0,35004.2,0.290398,0.290052,-0.212181,52,0.827878,10,-6.15433e-05,-3.67329,-0.505273,-0.116768,0.290145,
2,0,0,1,0,35005,0.286403,0.286098,-0.213812,52,0.827697,10,-6.11712e-05,-3.66997,-0.851016,-0.0693289,0.286192,
2,0,0,1,0,35005.8,0.282408,0.28208,-0.216758,52,0.827513,10,-6.11431e-05,-3.66403,-0.915923,-0.0644159,0.282176,
2,0,0,1,0,35006.6,0.278414,0.278097,-0.219477,52,0.827328,10,-6.10358e-05,-3.65861,-0.685352,-0.0860871,0.278193,
2,0,0,0,0,35007.4,0.274418,0.274062,-0.223254,52,0.82714,10,-6.11855e-05,-3.6512,-0.728575,-0.08098,0.27416,
2,0,0,1,0,35008.2,0.270423,0.270108,-0.22463,52,0.82695,10,-6.06745e-05,-3.64853,-0.973478,-0.0606075,0.270207,
2,0,0,1,0,35009,0.266427,0.266142,-0.22764,52,0.826758,10,-6.05845e-05,-3.64275,-0.755021,-0.0781436,0.266242,
2,0,0,1,0,35009.8,0.262432,0.262105,-0.230668,52,0.826564,10,-6.04594e-05,-3.63701,-0.634999,-0.0929136,0.262207,
2,0,0,1,0,35010.6,0.258437,0.258128,-0.233369,52,0.826368,10,-6.0239e-05,-3.63196,-0.766532,-0.0769701,0.258231,
2,0,0,0,0,35011.4,0.254442,0.254135,-0.235035,52,0.826169,10,-5.97307e-05,-3.62887,-0.905162,-0.0651817,0.254239,
2,0,0,1,0,35012.2,0.250447,0.250131,-0.238346,52,0.825969,10,-5.96178e-05,-3.62279,-1.59907,-0.0368964,0.250236,
2,0,0,0,0,35013,0.246452,0.246156,-0.241179,52,0.825766,10,-5.93676e-05,-3.61766,-0.605001,-0.0975205,0.246262,
2,0,0,1,0,35013.8,0.242456,0.242154,-0.244229,52,0.825561,10,-5.91412e-05,-3.6122,-0.794155,-0.0742928,0.242262,
2,0,0,1,0,35014.6,0.238461,0.238139,-0.245799,52,0.825355,10,-5.85343e-05,-3.60942,-1.11026,-0.0531407,0.238247,
2,0,0,1,0,35015.4,0.234467,0.234117,-0.248737,52,0.825147,10,-5.82337e-05,-3.60426,-0.972379,-0.0606759,0.234226,
2,0,0,1,0,35016.2,0.230471,0.230166,-0.25098,52,0.824936,10,-5.7767e-05,-3.60036,-1.17237,-0.0503254,0.230276,
2,0,0,0,0,35017,0.226476,0.226134,-0.25301,52,0.824724,10,-5.72143e-05,-3.59686,-0.914452,-0.0645195,0.226245,
2,0,0,1,0,35017.8,0.222481,0.222188,-0.255175,52,0.824509,10,-5.66968e-05,-3.59316,-0.736231,-0.0801379,0.2223,
2,0,0,1,0,35018.6,0.218485,0.218153,-0.258566,52,0.824293,10,-5.6407e-05,-3.58743,-1.5896,-0.0371163,0.218267,
2,0,0,1,0,35019.4,0.21449,0.214149,-0.261575,52,0.824074,10,-5.6016e-05,-3.5824,-0.654389,-0.0901604,0.214264,
2,0,0,1,0,35020.2,0.210496,0.210203,-0.263296,52,0.823853,10,-5.53455e-05,-3.57956,-0.817681,-0.0721553,0.210319,
2,0,0,0,0,35021,0.2065,0.206136,-0.268742,52,0.823629,10,-5.53973e-05,-3.57066,-0.857704,-0.0687883,0.206254,
2,0,0,1,0,35021.8,0.202505,0.202168,-0.27007,52,0.823403,10,-5.45994e-05,-3.56852,-0.804868,-0.073304,0.202287,
2,0,0,1,0,35022.6,0.198509,0.198138,-0.274954,52,0.823174,10,-5.44788e-05,-3.56074,-0.629207,-0.0937688,0.198259,
2,0,0,1,0,35023.4,0.194514,0.194207,-0.27842,52,0.822943,10,-5.40712e-05,-3.5553,-0.635006,-0.0929125,0.19433,
2,0,0,1,0,35024.2,0.190519,0.190184,-0.280864,52,0.822707,10,-5.34159e-05,-3.5515,-0.586669,-0.100568,0.190308,
2,0,0,0,0,35025,0.186524,0.186179,-0.286205,52,0.822469,10,-5.32853e-05,-3.54332,-0.953431,-0.0618817,0.186305,
2,0,0,1,0,35025.8,0.182529,0.182263,-0.290433,52,0.822228,10,-5.29352e-05,-3.53695,-0.425609,-0.138625,0.182391,
2,0,0,0,0,35026.6,0.178534,0.178262,-0.295873,52,0.821982,10,-5.2743e-05,-3.52889,-0.442514,-0.133329,0.178392,
2,0,0,1,0,35027.4,0.174538,0.174184,-0.302465,52,0.821731,10,-5.26847e-05,-3.51932,-0.438576,-0.134526,0.174317,
2,0,0,1,0,35028.2,0.170543,0.170243,-0.309434,52,0.821475,10,-5.26791e-05,-3.50943,-0.319451,-0.184692,0.170379,
2,0,0,1,0,35029,0.166549,0.166208,-0.318135,52,0.821213,10,-5.28765e-05,-3.49739,-0.38023,-0.155169,0.166348,
2,0,0,1,0,35029.8,0.162553,0.16222,-0.328837,52,0.820943,10,-5.33439e-05,-3.48302,-0.248882,-0.23706,0.162365,
2,0,0,0,0,35030.6,0.158558,0.158198,-0.34107,52,0.820663,10,-5.39566e-05,-3.46716,-0.225453,-0.261695,0.158348,
2,0,0,1,0,35031.4,0.154563,0.154238,-0.359077,52,0.820371,10,-5.53835e-05,-3.44481,-0.154584,-0.38167,0.154396,
2,0,0,1,0,35032.2,0.150567,0.150233,-0.38159,52,0.820063,10,-5.73275e-05,-3.4184,-0.135734,-0.434672,0.150401,
2,0,0,1,0,35033,0.146572,0.146281,-0.411299,52,0.819735,10,-6.01654e-05,-3.38584,-0.112251,-0.52561,0.146462,
2,0,0,1,0,35033.8,0.142578,0.142302,-0.451541,52,0.819379,10,-6.4255e-05,-3.3453,-0.0923813,-0.638657,0.1425,
2,0,0,0,0,35034.6,0.138582,0.138235,-0.498835,52,0.818988,10,-6.89564e-05,-3.30204,-0.0910461,-0.648024,0.138454,
2,0,0,1,0,35035.4,0.134587,0.134253,-0.549239,52,0.818557,10,-7.3737e-05,-3.26024,-0.0987872,-0.597243,0.134495,
2,0,0,1,0,35036.2,0.130591,0.130243,-0.601861,52,0.818084,10,-7.83883e-05,-3.2205,-0.109171,-0.540437,0.130508,
2,0,0,1,0,35037,0.126596,0.126239,-0.642375,52,0.817573,10,-8.1093e-05,-3.19221,-0.163355,-0.361177,0.126522,
2,0,0,1,0,35037.8,0.122602,0.122261,-0.674805,52,0.817033,10,-8.25025e-05,-3.17082,-0.289488,-0.203808,0.122558,
2,0,0,1,0,35038.6,0.118607,0.118266,-0.692031,52,0.816474,10,-8.18436e-05,-3.15987,-0.404046,-0.146023,0.11857,
2,0,0,1,0,35039.4,0.114611,0.114274,-0.699576,52,0.815904,10,-7.99432e-05,-3.15517,-2.37567,-0.0248351,0.114582,
2,0,0,0,0,35040.2,0.110616,0.110289,-0.700656,52,0.815331,10,-7.72746e-05,-3.1545,2.80619,0.021025,0.110597,
2,0,0,1,0,35041,0.10662,0.106274,-0.696135,52,0.81476,10,-7.39808e-05,-3.15731,1.72608,0.0341816,0.10658,
2,0,0,1,0,35041.8,0.102625,0.102304,-0.691555,52,0.814193,10,-7.07489e-05,-3.16017,0.831435,0.0709617,0.102608,
2,0,0,1,0,35042.6,0.0986305,0.0983478,-0.683854,52,0.813631,10,-6.72556e-05,-3.16504,1.14577,0.0514938,0.0986487,
2,0,0,1,0,35043.4,0.0946351,0.094317,-0.673675,52,0.813075,10,-6.3539e-05,-3.17155,0.621299,0.0949624,0.0946134,
2,0,0,0,0,35044.2,0.0906399,0.090279,-0.667759,52,0.812526,10,-6.02846e-05,-3.17538,0.571638,0.103212,0.0905728,
2,0,0,1,0,35045,0.0866448,0.0862919,-0.657791,52,0.811985,10,-5.6762e-05,-3.18191,0.775832,0.0760474,0.0865813,
2,0,0,1,0,35045.8,0.0826492,0.0823478,-0.647929,52,0.811452,10,-5.33556e-05,-3.18847,0.627375,0.0940427,0.0826329,
2,0,0,1,0,35046.6,0.0786544,0.078323,-0.639923,52,0.810926,10,-5.01207e-05,-3.19387,0.668978,0.0881942,0.0786046,
2,0,0,1,0,35047.4,0.0746596,0.0743171,-0.630285,52,0.810408,10,-4.6841e-05,-3.20046,0.758361,0.0777994,0.0745944,
2,0,0,0,0,35048.2,0.0706641,0.0703094,-0.621176,52,0.809895,10,-4.36745e-05,-3.20679,0.571747,0.103192,0.0705827,
2,0,0,1,0,35049,0.0666689,0.0663573,-0.613716,52,0.80939,10,-4.07245e-05,-3.21203,0.809608,0.0728748,0.0666273,
2,0,0,0,0,35049.8,0.0626737,0.0623532,-0.602483,52,0.808891,10,-3.75668e-05,-3.22005,0.58896,0.100177,0.0626183,
2,0,0,1,0,35050.6,0.0586783,0.0583488,-0.596116,52,0.808399,10,-3.47826e-05,-3.22467,0.533479,0.110595,0.0586111,
2,0,0,1,0,35051.4,0.0546835,0.0543652,-0.587249,52,0.807914,10,-3.19259e-05,-3.23118,0.746628,0.079022,0.0546236,
2,0,0,1,0,35052.2,0.0506886,0.0503856,-0.577474,52,0.807436,10,-2.90964e-05,-3.23847,0.506841,0.116407,0.0506397,
2,0,0,1,0,35053,0.046693,0.0462986,-0.567438,52,0.806966,10,-2.62716e-05,-3.24608,0.547966,0.107671,0.0465483,
2,0,0,0,0,35053.8,0.0426979,0.0423475,-0.557182,52,0.806505,10,-2.35953e-05,-3.254,0.536419,0.109989,0.0425927,
2,0,0,1,0,35054.6,0.0387022,0.0383655,-0.547909,52,0.80605,10,-2.10208e-05,-3.26129,0.425566,0.138639,0.0386065,
2,0,0,1,0,35055.4,0.0347074,0.0344091,-0.536994,52,0.805605,10,-1.84775e-05,-3.27003,0.597557,0.0987354,0.0346454,
2,0,0,1,0,35056.2,0.0307126,0.0303992,-0.525235,52,0.805168,10,-1.59667e-05,-3.27965,0.528561,0.111624,0.0306303,
2,0,0,1,0,35057,0.0267172,0.0263937,-0.519113,52,0.804737,10,-1.37013e-05,-3.28474,0.482733,0.122221,0.0266221,
2,0,0,0,0,35057.8,0.022722,0.0223493,-0.511309,52,0.804314,10,-1.14274e-05,-3.29132,0.712924,0.0827577,0.0225743,
2,0,0,1,0,35058.6,0.0187268,0.0184216,-0.503927,52,0.803897,10,-9.28313e-06,-3.29763,0.783756,0.0752785,0.0186433,
2,0,0,1,0,35059.4,0.0147313,0.0144056,-0.500688,52,0.803485,10,-7.21271e-06,-3.30043,1.23996,0.047582,0.0146259,
2,0,0,1,0,35060.2,0.0107365,0.0103891,-0.496017,52,0.803076,10,-5.15315e-06,-3.3045,1.3572,0.0434719,0.0106073,
2,0,0,1,0,35061,0.00674163,0.00643186,-0.494572,52,0.802669,10,-3.18102e-06,-3.30577,6.08948,0.00968884,0.00664947,
2,0,0,0,0,35061.8,0.00274612,0.00244658,-0.493523,52,0.802263,10,-1.20744e-06,-3.30669,-2.27982,-0.0258793,0.00266373,
2,0,0,1,0,35062.3,0.000274105,-0.000117749,-0.495486,52,0.802009,10,5.8343e-08,-3.30497, , ,0.000100265,