File: Figure_codes/Fig_3-5/workspace_calculate_alpha_eff/20221101_1-115_003_TrumpetPlot_ParaChange_from10_every3_16_CV_C01_16.csv
mode,ox/red,error,control changes,counter inc.,time/s,control/V,Ewe/V,<I>/mA,cycle number,(Q-Qo)/C,I Range,P/W,log(|I|),Tafel slope mV/dec,alpha_eff,E-IR/V,
2,0,0,0,0,11450.8,2.44065e-05,-0.000287149,-0.0815851,17,0.0000000E+000,10,2.34271e-08,-4.08839, , ,-0.000251251,
2,1,0,0,0,11451.5,0.00379485,0.00349638,0.163135,17,0.000110842,10,5.70384e-07,-3.78745,0.0414658,1.42286,0.0034246,
2,1,0,1,0,11452.3,0.00779002,0.00748669,0.186047,17,0.000264844,10,1.39288e-06,-3.73038,0.0818492,0.720838,0.00740483,
2,1,0,0,0,11453.1,0.0117852,0.0114685,0.202149,17,0.00043457,10,2.31835e-06,-3.69433,0.118829,0.496511,0.0113796,
2,1,0,1,0,11453.9,0.0157806,0.0154549,0.219619,17,0.000616941,10,3.39419e-06,-3.65833,0.147357,0.400388,0.0153582,
2,1,0,1,0,11454.7,0.0197754,0.0194012,0.232512,17,0.000810727,10,4.51102e-06,-3.63355,0.147278,0.400602,0.0192989,
2,1,0,1,0,11455.5,0.0237704,0.0234583,0.246152,17,0.00101607,10,5.77429e-06,-3.6088,0.169679,0.347716,0.02335,
2,1,0,1,0,11456.3,0.0277659,0.027486,0.260746,17,0.00123261,10,7.16685e-06,-3.58378,0.157039,0.375704,0.0273712,
2,1,0,0,0,11457.1,0.0317611,0.0314667,0.275046,17,0.00146137,10,8.6548e-06,-3.56059,0.166468,0.354423,0.0313457,
2,1,0,1,0,11457.9,0.0357567,0.0354459,0.290555,17,0.00170206,10,1.0299e-05,-3.53677,0.211309,0.279212,0.0353181,
2,1,0,1,0,11458.7,0.0397516,0.039401,0.306022,17,0.00195435,10,1.20576e-05,-3.51425,0.154854,0.381003,0.0392663,
2,1,0,1,0,11459.5,0.0437465,0.0434513,0.318661,17,0.00221855,10,1.38462e-05,-3.49667,0.216544,0.272462,0.0433111,
2,1,0,1,0,11460.3,0.0477413,0.0474073,0.333409,17,0.0024933,10,1.5806e-05,-3.47702,0.230547,0.255913,0.0472606,
2,1,0,0,0,11461.1,0.0517369,0.0513843,0.34642,17,0.00277878,10,1.78006e-05,-3.4604,0.211131,0.279447,0.0512319,
2,1,0,1,0,11461.9,0.0557321,0.0554075,0.361276,17,0.00307572,10,2.00174e-05,-3.44216,0.339017,0.174032,0.0552486,
2,1,0,1,0,11462.7,0.0597277,0.0593621,0.3722,17,0.00338182,10,2.20946e-05,-3.42922,0.25762,0.229019,0.0591983,
2,1,0,1,0,11463.5,0.0637226,0.0633892,0.384215,17,0.00369834,10,2.43551e-05,-3.41543,0.298394,0.197725,0.0632201,
2,1,0,1,0,11464.3,0.0677174,0.0674047,0.396188,17,0.00402478,10,2.67049e-05,-3.4021,0.405567,0.145475,0.0672304,
2,1,0,0,0,11465.1,0.0717128,0.0713825,0.406719,17,0.00435912,10,2.90327e-05,-3.39071,0.303215,0.194581,0.0712036,
2,1,0,1,0,11465.9,0.075708,0.0753909,0.415516,17,0.00470188,10,3.13262e-05,-3.38141,0.453318,0.130151,0.0752081,
2,1,0,0,0,11466.7,0.0797031,0.0793695,0.426263,17,0.0050522,10,3.38323e-05,-3.37032,0.400719,0.147235,0.079182,
2,1,0,1,0,11467.5,0.0836986,0.0833696,0.435969,17,0.00541025,10,3.63466e-05,-3.36054,0.325891,0.181042,0.0831778,
2,1,0,1,0,11468.3,0.0876935,0.0873702,0.448317,17,0.00577767,10,3.91695e-05,-3.34841,0.30072,0.196196,0.0871729,
2,1,0,1,0,11469.1,0.0916883,0.0913825,0.465394,17,0.00615574,10,4.25289e-05,-3.33218,0.24197,0.243832,0.0911777,
2,1,0,1,0,11469.9,0.0956838,0.0953308,0.480867,17,0.00654806,10,4.58414e-05,-3.31797,0.233232,0.252967,0.0951192,
2,1,0,0,0,11470.7,0.099679,0.0993412,0.505129,17,0.00695717,10,5.01802e-05,-3.2966,0.214697,0.274806,0.099119,
2,1,0,1,0,11471.5,0.103674,0.103359,0.532283,17,0.00738522,10,5.50163e-05,-3.27386,0.163167,0.361592,0.103125,
2,1,0,1,0,11472.3,0.10767,0.107359,0.554067,17,0.00783403,10,5.94842e-05,-3.25644,0.231973,0.25434,0.107115,
2,1,0,1,0,11473.1,0.111664,0.111325,0.577699,17,0.00830049,10,6.43123e-05,-3.2383,0.244758,0.241054,0.111071,
2,1,0,1,0,11473.9,0.115659,0.115352,0.594672,17,0.00878299,10,6.85965e-05,-3.22572,0.308143,0.191469,0.11509,
2,1,0,0,0,11474.7,0.119655,0.11932,0.611728,17,0.00928015,10,7.29916e-05,-3.21344,0.361679,0.163128,0.119051,
2,1,0,1,0,11475.5,0.12365,0.123338,0.630994,17,0.00979008,10,7.78257e-05,-3.19997,0.338736,0.174177,0.123061,
2,1,0,1,0,11476.3,0.127646,0.127362,0.645746,17,0.0103148,10,8.22435e-05,-3.18994,0.373746,0.157861,0.127078,
2,1,0,1,0,11477.1,0.131641,0.131355,0.657864,17,0.0108518,10,8.64138e-05,-3.18186,3.06155,0.0192713,0.131066,
2,1,0,1,0,11477.9,0.135635,0.135356,0.654617,17,0.0113917,10,8.86061e-05,-3.18401,-0.587371,-0.100448,0.135068,
2,1,0,0,0,11478.7,0.139631,0.13931,0.624964,17,0.0119204,10,8.70637e-05,-3.20415,-0.134964,-0.437154,0.139035,
2,1,0,1,0,11479.5,0.143626,0.143361,0.577111,17,0.0124164,10,8.27351e-05,-3.23874,-0.0899756,-0.655734,0.143107,
2,1,0,0,0,11480.3,0.147621,0.147336,0.511033,17,0.0128646,10,7.52937e-05,-3.29155,-0.0698488,-0.844682,0.147111,
2,1,0,1,0,11481.1,0.151617,0.151304,0.447079,17,0.0132609,10,6.76446e-05,-3.34962,-0.0738394,-0.799031,0.151107,
2,1,0,1,0,11481.9,0.155612,0.155291,0.39939,17,0.0136118,10,6.20219e-05,-3.3986,-0.08862,-0.665764,0.155116,
2,1,0,1,0,11482.7,0.159606,0.159294,0.363191,17,0.0139295,10,5.78542e-05,-3.43987,-0.117993,-0.500031,0.159135,
2,1,0,1,0,11483.5,0.163602,0.163275,0.33867,17,0.0142235,10,5.52964e-05,-3.47022,-0.136515,-0.432186,0.163126,
2,1,0,0,0,11484.3,0.167597,0.167289,0.321282,17,0.0145007,10,5.37469e-05,-3.49311,-0.2305,-0.255965,0.167148,
2,1,0,1,0,11485.1,0.171592,0.171266,0.308507,17,0.0147664,10,5.28368e-05,-3.51074,-0.247841,-0.238056,0.171131,
2,1,0,1,0,11485.9,0.175588,0.175271,0.299457,17,0.0150226,10,5.2486e-05,-3.52367,-0.326339,-0.180794,0.175139,
2,1,0,1,0,11486.7,0.179582,0.179262,0.291579,17,0.0152715,10,5.22691e-05,-3.53524,-0.477665,-0.123518,0.179134,
2,1,0,1,0,11487.5,0.183577,0.183276,0.284459,17,0.0155151,10,5.21347e-05,-3.54598,-0.378062,-0.156059,0.183151,
2,1,0,0,0,11488.3,0.187573,0.18723,0.279388,17,0.0157537,10,5.23098e-05,-3.55379,-0.434235,-0.135871,0.187107,
2,1,0,1,0,11489.1,0.191568,0.191252,0.274822,17,0.0159887,10,5.25603e-05,-3.56095,-0.587749,-0.100383,0.191131,
2,1,0,0,0,11489.9,0.195563,0.195266,0.271171,17,0.0162206,10,5.29504e-05,-3.56676,-0.7067,-0.0834866,0.195146,
2,1,0,1,0,11490.7,0.199559,0.199236,0.268074,17,0.0164492,10,5.34099e-05,-3.57175,-1.10448,-0.0534189,0.199118,
2,1,0,1,0,11491.5,0.203553,0.203269,0.263013,17,0.0166753,10,5.34624e-05,-3.58002,-0.812696,-0.0725979,0.203154,
2,1,0,1,0,11492.3,0.207548,0.207241,0.262154,17,0.0168994,10,5.43291e-05,-3.58144,-1.01344,-0.0582174,0.207126,
2,1,0,1,0,11493.1,0.211544,0.211211,0.258969,17,0.0171213,10,5.4697e-05,-3.58675,-0.816561,-0.0722543,0.211097,
2,1,0,0,0,11493.9,0.215539,0.21522,0.257661,17,0.0173413,10,5.5454e-05,-3.58895,-0.969144,-0.0608784,0.215107,
2,1,0,1,0,11494.7,0.219535,0.219199,0.255841,17,0.0175595,10,5.60801e-05,-3.59203,-0.993923,-0.0593607,0.219087,
2,1,0,1,0,11495.5,0.223529,0.223216,0.252938,17,0.0177761,10,5.64598e-05,-3.59699,-5.91319,-0.0099777,0.223105,
2,1,0,1,0,11496.3,0.227524,0.227199,0.251238,17,0.0179913,10,5.70812e-05,-3.59991,-0.801079,-0.0736506,0.227089,
2,1,0,1,0,11497.1,0.23152,0.23118,0.250198,17,0.0182053,10,5.78409e-05,-3.60172,-41.0967,-0.00143564,0.23107,
2,1,0,0,0,11497.9,0.235515,0.23519,0.247202,17,0.018418,10,5.81394e-05,-3.60695,-1.16029,-0.0508495,0.235081,
2,1,0,1,0,11498.7,0.23951,0.23921,0.247601,17,0.0186296,10,5.92286e-05,-3.60625,-1.25704,-0.0469357,0.239101,
2,1,0,1,0,11499.5,0.243506,0.243207,0.246824,17,0.0188403,10,6.00294e-05,-3.60761,7.72357,0.00763896,0.243098,
2,1,0,1,0,11500.3,0.2475,0.247201,0.245288,17,0.0190503,10,6.06354e-05,-3.61032,-0.985159,-0.0598888,0.247093,
2,1,0,1,0,11501.1,0.251495,0.251185,0.245047,17,0.0192588,10,6.1552e-05,-3.61075,-5.28136,-0.0111714,0.251077,
2,1,0,0,0,11501.9,0.255491,0.255152,0.243359,17,0.0194667,10,6.20937e-05,-3.61375,-1.20072,-0.0491371,0.255045,
2,1,0,1,0,11502.7,0.259486,0.259194,0.242207,17,0.0196738,10,6.27786e-05,-3.61581,-1.80584,-0.0326717,0.259088,
2,1,0,0,0,11503.5,0.263481,0.263144,0.241946,17,0.0198797,10,6.36666e-05,-3.61628,-7.25478,-0.00813257,0.263038,
2,1,0,1,0,11504.3,0.267477,0.267168,0.239555,17,0.020085,10,6.40014e-05,-3.62059,-7.83336,-0.00753189,0.267062,
2,1,0,1,0,11505.1,0.271471,0.271155,0.239308,17,0.0202895,10,6.48895e-05,-3.62104,-1.31852,-0.044747,0.271049,
2,1,0,1,0,11505.9,0.275466,0.275135,0.237027,17,0.0204929,10,6.52144e-05,-3.6252,-4.02206,-0.0146691,0.275031,
2,1,0,1,0,11506.7,0.279462,0.279153,0.236584,17,0.0206958,10,6.60432e-05,-3.62601,-1.29794,-0.0454568,0.279049,
2,1,0,0,0,11507.5,0.283457,0.283183,0.234701,17,0.0208975,10,6.64633e-05,-3.62949,-9.92702,-0.00594338,0.28308,
2,1,0,1,0,11508.3,0.287452,0.287186,0.234315,17,0.0210985,10,6.72919e-05,-3.6302,-1.75473,-0.0336235,0.287083,
2,1,0,1,0,11509.1,0.291448,0.291143,0.233669,17,0.0212989,10,6.80312e-05,-3.6314,-0.871549,-0.0676956,0.291041,
2,1,0,1,0,11509.9,0.295442,0.295154,0.232232,17,0.0214985,10,6.85443e-05,-3.63408,191.368,0.000308306,0.295051,
2,1,0,1,0,11510.7,0.299437,0.299138,0.231186,17,0.0216976,10,6.91567e-05,-3.63604,10.9516,0.00538734,0.299037,
2,1,0,0,0,11511.5,0.303433,0.303135,0.231752,17,0.0218958,10,7.02522e-05,-3.63498,-1.29033,-0.0457247,0.303033,
2,1,0,1,0,11512.3,0.307428,0.307096,0.231078,17,0.0220932,10,7.0963e-05,-3.63624,-2.20516,-0.0267554,0.306994,
2,1,0,1,0,11513.1,0.311424,0.311146,0.230258,17,0.0222903,10,7.16438e-05,-3.63779,-1.91677,-0.0307809,0.311045,
2,1,0,1,0,11513.8,0.315418,0.315137,0.2298,17,0.0224864,10,7.24186e-05,-3.63865,-4.05142,-0.0145628,0.315036,
2,1,0,1,0,11514.6,0.319413,0.319127,0.229699,17,0.0226823,10,7.33033e-05,-3.63884,3.50274,0.0168439,0.319026,
2,1,0,0,0,11515.4,0.323409,0.323101,0.229046,17,0.022878,10,7.40049e-05,-3.64008,-1.17334,-0.0502839,0.323,
2,1,0,1,0,11516.2,0.327404,0.327121,0.227251,17,0.0230729,10,7.43385e-05,-3.64349,-5.73721,-0.0102837,0.327021,
2,1,0,0,0,11517,0.331399,0.331086,0.225591,17,0.0232671,10,7.469e-05,-3.64668,-2.04564,-0.0288418,0.330986,
2,1,0,1,0,11517.8,0.335395,0.335115,0.225311,17,0.0234606,10,7.55051e-05,-3.64722,-358.534,-0.000164559,0.335015,
2,1,0,1,0,11518.6,0.339389,0.339057,0.225234,17,0.0236536,10,7.63671e-05,-3.64737,6.00639,0.00982287,0.338958,
2,1,0,1,0,11519.4,0.343384,0.343108,0.225097,17,0.0238463,10,7.72327e-05,-3.64763,-2.94235,-0.020052,0.343009,
2,1,0,1,0,11520.2,0.34738,0.347102,0.224623,17,0.0240382,10,7.79671e-05,-3.64855,-10.2604,-0.00575029,0.347003,
2,1,0,0,0,11521,0.351375,0.351063,0.223765,17,0.0242297,10,7.85554e-05,-3.65021,-1.02228,-0.0577138,0.350964,
2,1,0,1,0,11521.8,0.35537,0.355087,0.22308,17,0.0244207,10,7.92129e-05,-3.65154,-1.80996,-0.0325974,0.354989,
2,1,0,1,0,11522.6,0.359366,0.359058,0.222547,17,0.0246111,10,7.99073e-05,-3.65258,2.89593,0.0203734,0.35896,
2,1,0,1,0,11523.4,0.36336,0.363073,0.221417,17,0.0248013,10,8.03906e-05,-3.65479,-2.08231,-0.0283339,0.362975,
2,1,0,1,0,11524.2,0.367355,0.367057,0.221518,17,0.0249906,10,8.131e-05,-3.65459,-12.2895,-0.00480086,0.36696,
2,1,0,0,0,11525,0.371351,0.371089,0.221709,17,0.0251796,10,8.2274e-05,-3.65422,-21.9352,-0.00268974,0.370992,
2,1,0,1,0,11525.8,0.375346,0.375038,0.220085,17,0.0253684,10,8.25405e-05,-3.65741,-1.27904,-0.0461283,0.374942,
2,1,0,1,0,11526.6,0.379342,0.379065,0.219728,17,0.0255566,10,8.32912e-05,-3.65811,-4.05446,-0.0145519,0.378969,
2,1,0,1,0,11527.4,0.383336,0.383033,0.219908,17,0.0257446,10,8.42319e-05,-3.65776,1.58589,0.0372031,0.382936,
2,1,0,1,0,11528.2,0.387331,0.387058,0.220082,17,0.0259324,10,8.51845e-05,-3.65742,-1.46331,-0.0403195,0.386961,
2,1,0,0,0,11529,0.391327,0.391009,0.219031,17,0.0261197,10,8.56432e-05,-3.65949,-5.91658,-0.00997198,0.390913,
2,1,0,1,0,11529.8,0.395322,0.39501,0.218307,17,0.026307,10,8.62334e-05,-3.66093,-37.9075,-0.00155642,0.394914,
2,1,0,0,0,11530.6,0.399317,0.399005,0.218429,17,0.026494,10,8.71542e-05,-3.66069,-3.01953,-0.0195395,0.398909,
2,1,0,1,0,11531.4,0.403313,0.403044,0.217734,17,0.0266806,10,8.77563e-05,-3.66207,-53.3459,-0.00110599,0.402948,
2,1,0,1,0,11532.2,0.407307,0.406998,0.218796,17,0.0268672,10,8.90497e-05,-3.65996,20.6101,0.00286267,0.406902,
2,1,0,1,0,11533,0.411302,0.410949,0.218721,17,0.0270535,10,8.9883e-05,-3.66011,3.95433,0.0149203,0.410853,
2,1,0,1,0,11533.8,0.415298,0.414985,0.218617,17,0.0272401,10,9.0723e-05,-3.66032,-11.0821,-0.00532389,0.414889,
2,1,0,0,0,11534.6,0.419293,0.418973,0.218059,17,0.0274266,10,9.13611e-05,-3.66143,-1.25464,-0.0470256,0.418877,
2,1,0,1,0,11535.4,0.423288,0.42295,0.217871,17,0.0276125,10,9.21485e-05,-3.6618,-8.08502,-0.00729745,0.422854,
2,1,0,1,0,11536.2,0.427283,0.427002,0.217504,17,0.0277984,10,9.28745e-05,-3.66253,2.04844,0.0288024,0.426906,
2,1,0,1,0,11537,0.431278,0.430986,0.217349,17,0.027984,10,9.36745e-05,-3.66284,6.8633,0.00859645,0.430891,
2,1,0,1,0,11537.8,0.435273,0.434958,0.217649,17,0.0281696,10,9.46681e-05,-3.66224,-5.06254,-0.0116542,0.434863,
2,1,0,0,0,11538.6,0.439269,0.438978,0.217011,17,0.0283553,10,9.52631e-05,-3.66352,-32.4357,-0.00181898,0.438882,
2,1,0,1,0,11539.4,0.443264,0.442985,0.217828,17,0.0285411,10,9.64947e-05,-3.66189,2.40602,0.0245218,0.442889,
2,1,0,0,0,11540.2,0.447259,0.446975,0.217988,17,0.0287271,10,9.74351e-05,-3.66157,-3.30352,-0.0178597,0.446879,
2,1,0,1,0,11541,0.451254,0.450976,0.21854,17,0.0289132,10,9.85564e-05,-3.66047,-7.64478,-0.00771768,0.45088,
2,1,0,1,0,11541.8,0.455249,0.454993,0.218297,17,0.0290993,10,9.93234e-05,-3.66095,1.3305,0.0443442,0.454897,
2,1,0,1,0,11542.6,0.459244,0.458916,0.217701,17,0.0292857,10,9.99065e-05,-3.66214,1.98774,0.029682,0.45882,
2,1,0,1,0,11543.4,0.46324,0.462958,0.219781,17,0.0294724,10,0.000101749,-3.65801,-1.94474,-0.0303382,0.462861,
2,1,0,0,0,11544.2,0.467235,0.466937,0.219887,17,0.029659,10,0.000102673,-3.6578,1.64776,0.0358062,0.466841,
2,1,0,1,0,11545,0.471231,0.470934,0.22008,17,0.0298463,10,0.000103643,-3.65742,4.00524,0.0147307,0.470838,
2,1,0,1,0,11545.8,0.475225,0.474965,0.220638,17,0.0300339,10,0.000104795,-3.65632,4.59477,0.0128407,0.474868,
2,1,0,1,0,11546.6,0.47922,0.47895,0.220434,17,0.030222,10,0.000105577,-3.65672,3.34746,0.0176253,0.478853,
2,1,0,1,0,11547.4,0.483216,0.482934,0.221751,17,0.0304106,10,0.000107091,-3.65414,-6.01994,-0.00980076,0.482836,
2,1,0,0,0,11548.2,0.487211,0.486915,0.223161,17,0.0305995,10,0.00010866,-3.65138,1.28299,0.0459864,0.486816,
2,1,0,1,0,11549,0.491206,0.490931,0.223336,17,0.0307892,10,0.000109643,-3.65104,2.9948,0.0197008,0.490833,
2,1,0,1,0,11549.8,0.495201,0.494875,0.224577,17,0.0309795,10,0.000111137,-3.64864,3.91118,0.015085,0.494776,
2,1,0,1,0,11550.6,0.499196,0.498859,0.225368,17,0.0311702,10,0.000112427,-3.64711,3.57001,0.0165266,0.49876,
2,1,0,1,0,11551.4,0.503191,0.502926,0.226352,17,0.0313619,10,0.000113838,-3.64522,1.23393,0.0478149,0.502827,
2,1,0,0,0,11552.2,0.507187,0.506867,0.227267,17,0.0315544,10,0.000115194,-3.64346,1.90224,0.0310161,0.506767,
2,1,0,1,0,11553,0.511182,0.510892,0.228071,17,0.0317475,10,0.00011652,-3.64193,1.35432,0.0435644,0.510792,
2,1,0,0,0,11553.8,0.515177,0.514883,0.229872,17,0.0319419,10,0.000118357,-3.63851,2.48567,0.0237361,0.514782,
2,1,0,1,0,11554.6,0.519173,0.518845,0.230871,17,0.032137,10,0.000119786,-3.63663,1.05855,0.0557365,0.518743,
2,1,0,1,0,11555.4,0.523167,0.522858,0.231956,17,0.0323334,10,0.00012128,-3.63459,1.20226,0.0490743,0.522756,
2,1,0,1,0,11556.2,0.527162,0.526931,0.234576,17,0.032531,10,0.000123605,-3.62972,1.60512,0.0367574,0.526827,
2,1,0,1,0,11557,0.531158,0.530879,0.235307,17,0.0327297,10,0.00012492,-3.62836,1.91941,0.0307386,0.530775,
2,1,0,0,0,11557.8,0.535153,0.534859,0.237529,17,0.0329298,10,0.000127045,-3.62428,1.3435,0.043915,0.534754,
2,1,0,1,0,11558.6,0.539148,0.538895,0.23979,17,0.0331314,10,0.000129222,-3.62017,0.983308,0.0600016,0.538789,
2,1,0,1,0,11559.4,0.543143,0.542903,0.241794,17,0.0333347,10,0.000131271,-3.61655,0.849865,0.0694228,0.542797,
2,1,0,1,0,11560.2,0.547138,0.546858,0.244634,17,0.0335401,10,0.00013378,-3.61148,1.31531,0.0448565,0.54675,
2,1,0,1,0,11561,0.551133,0.550863,0.247679,17,0.0337475,10,0.000136437,-3.60611,0.512416,0.115141,0.550754,
2,1,0,0,0,11561.8,0.555129,0.554857,0.249914,17,0.0339575,10,0.000138667,-3.60221,0.788821,0.0747951,0.554747,
2,1,0,1,0,11562.6,0.559124,0.558837,0.253118,17,0.0341698,10,0.000141451,-3.59668,0.674815,0.0874314,0.558725,
2,1,0,1,0,11563.4,0.56312,0.562821,0.257728,17,0.034385,10,0.000145055,-3.58884,0.599679,0.098386,0.562707,
2,1,0,1,0,11564.2,0.567114,0.566824,0.261577,17,0.0346035,10,0.000148268,-3.5824,0.61887,0.0953351,0.566709,
2,1,0,1,0,11565,0.571109,0.570796,0.266168,17,0.0348251,10,0.000151928,-3.57484,0.4754,0.124106,0.570679,
2,1,0,0,0,11565.8,0.575105,0.574797,0.270529,17,0.0350507,10,0.000155499,-3.56779,0.446299,0.132198,0.574678,
2,1,0,1,0,11566.6,0.5791,0.578835,0.277032,17,0.0352806,10,0.000160356,-3.55747,0.462148,0.127665,0.578713,
2,1,0,0,0,11567.4,0.583095,0.582772,0.282608,17,0.0355151,10,0.000164696,-3.54882,0.344296,0.171364,0.582648,
2,1,0,1,0,11568.2,0.58709,0.58681,0.289567,17,0.0357548,10,0.000169921,-3.53825,0.367714,0.160451,0.586683,
2,1,0,1,0,11569,0.591085,0.590793,0.298534,17,0.0360006,10,0.000176372,-3.52501,0.315093,0.187247,0.590662,
2,1,0,1,0,11569.8,0.59508,0.594805,0.307761,17,0.0362533,10,0.000183058,-3.51179,0.309107,0.190873,0.59467,
2,1,0,1,0,11570.6,0.599076,0.598803,0.317676,17,0.0365139,10,0.000190226,-3.49801,0.234446,0.251657,0.598664,
2,1,0,0,0,11571.4,0.603071,0.602806,0.3301,17,0.0367833,10,0.000198986,-3.48135,0.270899,0.217793,0.602661,
2,1,0,1,0,11572.2,0.607066,0.606774,0.343493,17,0.0370629,10,0.000208423,-3.46408,0.197313,0.299018,0.606623,
2,1,0,1,0,11573,0.611061,0.610771,0.359213,17,0.0373544,10,0.000219397,-3.44465,0.208327,0.283208,0.610613,
2,1,0,1,0,11573.8,0.615056,0.614777,0.378617,17,0.0376597,10,0.000232765,-3.4218,0.162099,0.363975,0.614611,
2,1,0,1,0,11574.6,0.619051,0.618775,0.400383,17,0.0379819,10,0.000247747,-3.39752,0.149579,0.39444,0.618599,
2,1,0,0,0,11575.4,0.623047,0.62276,0.427249,17,0.0383228,10,0.000266074,-3.36932,0.144391,0.408611,0.622572,
2,1,0,1,0,11576.2,0.627042,0.626807,0.455171,17,0.0386854,10,0.000285304,-3.34183,0.132178,0.446369,0.626606,
2,1,0,1,0,11577,0.631037,0.630776,0.490529,17,0.039074,10,0.000309414,-3.30934,0.117533,0.501986,0.63056,
2,1,0,1,0,11577.8,0.635032,0.634803,0.53092,17,0.0394926,10,0.00033703,-3.27497,0.11141,0.529577,0.63457,
2,1,0,1,0,11578.6,0.639027,0.638776,0.578404,17,0.0399463,10,0.000369471,-3.23777,0.101664,0.580342,0.638522,
2,1,0,1,0,11579.4,0.643022,0.642733,0.636492,17,0.0404424,10,0.000409095,-3.19621,0.0926941,0.636502,0.642453,
2,1,0,1,0,11580.2,0.647018,0.646719,0.703552,17,0.0409883,10,0.000455,-3.1527,0.0882071,0.66888,0.646409,
2,1,0,0,0,11581,0.651013,0.650779,0.782993,17,0.041593,10,0.000509555,-3.10624,0.0825089,0.715074,0.650435,
2,1,0,1,0,11581.8,0.655008,0.654788,0.877615,17,0.0422668,10,0.000574652,-3.0567,0.0783625,0.752911,0.654402,
2,1,0,1,0,11582.6,0.659003,0.658743,0.98635,17,0.0430219,10,0.000649751,-3.00597,0.0751171,0.78544,0.658309,
2,1,0,1,0,11583.4,0.662998,0.662721,1.11486,17,0.0438718,10,0.000738841,-2.95278,0.0743373,0.79368,0.662231,
2,1,0,1,0,11584.2,0.666994,0.666736,1.26407,17,0.044832,10,0.000842803,-2.89823,0.0707042,0.834462,0.66618,
2,1,0,0,0,11585,0.670989,0.670706,1.43718,17,0.0459212,10,0.000963922,-2.84249,0.0698601,0.844545,0.670074,
2,1,0,1,0,11585.8,0.674984,0.674731,1.63525,17,0.0471585,10,0.00110335,-2.78642,0.0693977,0.850172,0.674011,
2,1,0,1,0,11586.6,0.67898,0.678693,1.86188,17,0.0485654,10,0.00126365,-2.73005,0.0685992,0.860068,0.677873,
2,1,0,1,0,11587.4,0.682974,0.682707,2.11997,17,0.0501665,10,0.00144732,-2.67367,0.0691608,0.853085,0.681774,
2,1,0,1,0,11588.2,0.686969,0.686712,2.41107,17,0.0519863,10,0.00165571,-2.61779,0.0705855,0.835865,0.685651,
2,1,0,0,0,11589,0.690965,0.690705,2.73532,17,0.0540515,10,0.0018893,-2.56299,0.0701447,0.841119,0.689501,
2,1,0,1,0,11589.8,0.69496,0.694687,3.09459,17,0.0563899,10,0.00214977,-2.5094,0.0724228,0.81466,0.693326,
2,1,0,0,0,11590.6,0.698955,0.698693,3.4893,17,0.0590292,10,0.00243795,-2.45726,0.0745179,0.791757,0.697157,
2,1,0,1,0,11591.4,0.70295,0.70268,3.92055,17,0.061999,10,0.00275489,-2.40665,0.0757644,0.77873,0.700955,
2,1,0,1,0,11592.2,0.706945,0.706688,4.3883,17,0.0653278,10,0.00310116,-2.3577,0.0794675,0.742442,0.704757,
2,1,0,1,0,11593,0.71094,0.71068,4.89199,17,0.0690442,10,0.00347664,-2.31051,0.0812886,0.725809,0.708528,
2,1,0,1,0,11593.8,0.714936,0.714726,5.42849,17,0.0731777,10,0.00387988,-2.26532,0.0843846,0.699179,0.712337,
2,1,0,0,0,11594.6,0.718931,0.718672,6.00066,17,0.0777537,10,0.00431251,-2.2218,0.0873048,0.675793,0.716031,
2,1,0,1,0,11595.4,0.722927,0.722701,6.60524,17,0.0828008,10,0.00477361,-2.18011,0.0927098,0.636395,0.719794,
2,1,0,1,0,11596.2,0.726921,0.726654,7.24329,17,0.0883432,10,0.00526336,-2.14006,0.0941012,0.626984,0.723466,
2,1,0,1,0,11596.9,0.730916,0.730662,7.9099,17,0.0944066,10,0.00577946,-2.10183,0.0985638,0.598597,0.727181,
2,1,0,1,0,11597.7,0.734911,0.734619,8.60597,17,0.101016,10,0.00632211,-2.0652,0.101851,0.579275,0.730832,
2,1,0,0,0,11598.5,0.738907,0.738632,9.33356,17,0.108194,10,0.00689406,-2.02995,0.10648,0.554095,0.734525,
2,1,0,1,0,11599.3,0.742902,0.742664,10.089,17,0.115963,10,0.00749275,-1.99615,0.109173,0.540425,0.738225,
2,1,0,1,0,11600.1,0.746897,0.746641,10.8741,17,0.12435,10,0.00811902,-1.96361,0.114195,0.516661,0.741857,
2,1,0,1,0,11600.9,0.750892,0.750617,11.6999,17,0.133377,10,0.00878212,-1.93182,0.115282,0.511789,0.74547,
2,1,0,1,0,11601.7,0.754887,0.75462,12.561,17,0.143079,10,0.00947878,-1.90098,0.118655,0.497241,0.749093,
2,1,0,0,0,11602.5,0.758883,0.758662,13.4723,17,0.15349,10,0.0102209,-1.87056,0.118275,0.498837,0.752734,
2,1,0,1,0,11603.3,0.762878,0.762607,14.446,17,0.164651,10,0.0110166,-1.84025,0.117599,0.501706,0.756251,
2,1,0,0,0,11604.1,0.766873,0.766595,15.4521,17,0.176608,10,0.0118455,-1.81101,0.122507,0.481606,0.759796,
2,1,0,1,0,11604.9,0.770868,0.770619,16.5346,17,0.189396,10,0.0127419,-1.78161,0.118874,0.496326,0.763344,
2,1,0,1,0,11605.7,0.774863,0.774593,17.6865,17,0.203074,10,0.0136999,-1.75236,0.119304,0.494536,0.766811,
2,1,0,1,0,11606.5,0.778858,0.778643,18.9078,17,0.217704,10,0.0147224,-1.72336,0.121977,0.483697,0.770323,
2,1,0,1,0,11607.3,0.782854,0.78262,20.1842,17,0.233328,10,0.0157966,-1.69499,0.119519,0.493647,0.773739,
2,1,0,0,0,11608.1,0.786849,0.786614,21.5267,17,0.250001,10,0.0169332,-1.66702,0.124575,0.473612,0.777142,
2,1,0,1,0,11608.9,0.790844,0.790582,22.9268,17,0.267767,10,0.0181255,-1.63966,0.123077,0.479376,0.780494,
2,1,0,1,0,11609.7,0.794839,0.794573,24.3987,17,0.286688,10,0.0193865,-1.61263,0.13085,0.450897,0.783837,
2,1,0,1,0,11610.5,0.798834,0.798563,25.8586,17,0.306765,10,0.0206497,-1.5874,0.12776,0.461804,0.787185,
2,1,0,1,0,11611.3,0.802829,0.802569,27.384,17,0.328054,10,0.0219775,-1.5625,0.134361,0.439116,0.79052,
2,1,0,0,0,11612.1,0.806825,0.806556,28.9759,17,0.350591,10,0.0233707,-1.53796,0.139091,0.424183,0.793807,
2,1,0,1,0,11612.9,0.81082,0.810592,30.5559,17,0.374401,10,0.0247684,-1.5149,0.146588,0.402489,0.797147,
2,1,0,1,0,11613.7,0.814815,0.814537,32.1276,17,0.399458,10,0.0261691,-1.49312,0.153953,0.383235,0.800401,
2,1,0,1,0,11614.5,0.81881,0.818514,33.7753,17,0.425791,10,0.0276456,-1.4714,0.152286,0.387428,0.803653,
2,1,0,1,0,11615.3,0.822805,0.822526,35.3747,17,0.453439,10,0.0290966,-1.45131,0.170278,0.346493,0.806962,
2,1,0,0,0,11616.1,0.826801,0.826523,36.9714,17,0.482363,10,0.0305577,-1.43213,0.173475,0.340107,0.810256,
2,1,0,1,0,11616.9,0.830796,0.830533,38.6348,17,0.512579,10,0.0320874,-1.41302,0.187809,0.31415,0.813534,
2,1,0,0,0,11617.7,0.834791,0.834542,40.1233,17,0.544064,10,0.0334846,-1.3966,0.234293,0.251821,0.816888,
2,1,0,1,0,11618.5,0.838786,0.838527,41.4922,17,0.576641,10,0.0347923,-1.38203,0.201906,0.292215,0.82027,
2,1,0,1,0,11619.3,0.842781,0.842524,43.0099,17,0.610416,10,0.0362368,-1.36643,0.211466,0.279004,0.823599,
2,1,0,1,0,11620.1,0.846776,0.84653,44.5102,17,0.645417,10,0.0376792,-1.35154,0.255924,0.230537,0.826945,
2,1,0,0,0,11620.8,0.849723,0.849509,45.5063,17,0.676995,10,0.038658,-1.34193,0.0917845,0.64281,0.829486,
2,1,0,1,0,11621.6,0.845728,0.84549,43.2212,17,0.712457,10,0.0365431,-1.3643,0.141514,0.41692,0.826473,
2,1,0,0,0,11622.4,0.841732,0.841504,41.2977,17,0.746197,10,0.0347522,-1.38407,0.163913,0.359946,0.823333,
2,1,0,1,0,11623.2,0.837737,0.837478,39.4448,17,0.778447,10,0.0330342,-1.40401,0.151998,0.388163,0.820123,
2,1,0,1,0,11624,0.833742,0.833522,37.662,17,0.809226,10,0.0313921,-1.4241,0.161801,0.364644,0.816951,
2,1,0,1,0,11624.8,0.829747,0.829484,35.8965,17,0.838596,10,0.0297756,-1.44495,0.155039,0.380549,0.81369,
2,1,0,1,0,11625.6,0.825752,0.825521,34.198,17,0.86658,10,0.0282311,-1.466,0.152605,0.386618,0.810474,
2,1,0,0,0,11626.4,0.821757,0.821552,32.4636,17,0.893212,10,0.0266705,-1.4886,0.131636,0.448206,0.807268,
2,1,0,1,0,11627.2,0.817761,0.817489,30.7843,17,0.918449,10,0.0251658,-1.51167,0.150582,0.391814,0.803944,
2,1,0,1,0,11628,0.813766,0.813481,29.1566,17,0.942383,10,0.0237184,-1.53526,0.132536,0.445161,0.800652,
2,1,0,1,0,11628.8,0.809771,0.809527,27.5272,17,0.965004,10,0.022284,-1.56024,0.128917,0.45766,0.797415,
2,1,0,1,0,11629.6,0.805776,0.805496,25.9646,17,0.986344,10,0.0209144,-1.58562,0.131879,0.447381,0.794071,
2,1,0,0,0,11630.4,0.801781,0.801526,24.4341,17,1.00647,10,0.0195845,-1.612,0.120824,0.488315,0.790775,
2,1,0,1,0,11631.2,0.797786,0.797553,22.9384,17,1.02537,10,0.0182946,-1.63944,0.121497,0.485609,0.78746,
2,1,0,1,0,11632,0.79379,0.79359,21.508,17,1.04312,10,0.0170685,-1.6674,0.122234,0.482679,0.784127,
2,1,0,1,0,11632.8,0.789795,0.789504,20.1373,17,1.05974,10,0.0158984,-1.696,0.108261,0.544978,0.780643,
2,1,0,1,0,11633.6,0.7858,0.785523,18.7452,17,1.07525,10,0.0147248,-1.72711,0.114445,0.515531,0.777275,
2,1,0,0,0,11634.4,0.781805,0.781546,17.4967,17,1.08972,10,0.0136745,-1.75704,0.115775,0.50961,0.773848,
2,1,0,1,0,11635.2,0.77781,0.777494,16.3123,17,1.10321,10,0.0126827,-1.78749,0.112846,0.522835,0.770316,
2,1,0,0,0,11636,0.773815,0.773543,15.1591,17,1.11577,10,0.0117262,-1.81933,0.107269,0.550019,0.766873,
2,1,0,1,0,11636.8,0.769819,0.769543,14.0535,17,1.12742,10,0.0108148,-1.85221,0.104746,0.563269,0.763359,
2,1,0,1,0,11637.6,0.765824,0.765565,12.9903,17,1.13821,10,0.00994492,-1.88638,0.101246,0.582739,0.759849,
2,1,0,1,0,11638.4,0.761829,0.761607,11.9764,17,1.14817,10,0.0091213,-1.92167,0.100087,0.58949,0.756337,
2,1,0,1,0,11639.2,0.757834,0.757541,11.0238,17,1.15734,10,0.00835095,-1.95767,0.0983959,0.599619,0.75269,
2,1,0,0,0,11640,0.753839,0.753534,10.1073,17,1.16577,10,0.00761619,-1.99536,0.0949088,0.621649,0.749086,
2,1,0,1,0,11640.8,0.749844,0.749577,9.2586,17,1.17349,10,0.00694003,-2.03345,0.0941182,0.626871,0.745503,
2,1,0,1,0,11641.6,0.745848,0.745582,8.46178,17,1.18055,10,0.00630896,-2.07254,0.0934104,0.631621,0.741859,
2,1,0,1,0,11642.4,0.741853,0.741545,7.71669,17,1.187,10,0.00572228,-2.11257,0.0884333,0.667169,0.73815,
2,1,0,1,0,11643.2,0.737858,0.737628,7.0106,17,1.19287,10,0.00517122,-2.15424,0.084855,0.695304,0.734543,
2,1,0,0,0,11644,0.733863,0.733587,6.33791,17,1.19819,10,0.00464941,-2.19805,0.084439,0.698729,0.730799,
2,1,0,1,0,11644.8,0.729868,0.729583,5.71494,17,1.20299,10,0.00416953,-2.24299,0.0827526,0.712969,0.727069,
2,1,0,1,0,11645.6,0.725872,0.725602,5.13684,17,1.20731,10,0.0037273,-2.2893,0.0790776,0.746102,0.723342,
2,1,0,1,0,11646.4,0.721877,0.721615,4.59798,17,1.21118,10,0.00331797,-2.33743,0.0776501,0.759819,0.719592,
2,1,0,1,0,11647.2,0.717882,0.717601,4.10394,17,1.21464,10,0.00294499,-2.3868,0.0751142,0.785471,0.715795,
2,1,0,0,0,11648,0.713887,0.713602,3.64787,17,1.21773,10,0.00260313,-2.43796,0.0729699,0.808553,0.711997,
2,1,0,1,0,11648.8,0.709892,0.709669,3.2271,17,1.22046,10,0.00229017,-2.49119,0.0704895,0.837004,0.708249,
2,1,0,0,0,11649.6,0.705897,0.705617,2.84253,17,1.22287,10,0.00200573,-2.5463,0.0688073,0.857468,0.704366,
2,1,0,1,0,11650.4,0.701901,0.70161,2.49115,17,1.22499,10,0.00174781,-2.6036,0.0654922,0.90087,0.700513,
2,1,0,1,0,11651.2,0.697906,0.69767,2.17144,17,1.22684,10,0.00151495,-2.66325,0.0636869,0.926407,0.696715,
2,1,0,1,0,11652,0.693911,0.693647,1.88235,17,1.22844,10,0.00130569,-2.7253,0.0603386,0.977815,0.692819,
2,1,0,1,0,11652.8,0.689916,0.689603,1.62107,17,1.22983,10,0.0011179,-2.7902,0.059682,0.988572,0.68889,
2,1,0,0,0,11653.6,0.685921,0.685642,1.38946,17,1.23102,10,0.000952673,-2.85715,0.057106,1.03317,0.685031,
2,1,0,1,0,11654.4,0.681926,0.681612,1.18355,17,1.23203,10,0.000806724,-2.92681,0.0542106,1.08835,0.681091,
2,1,0,1,0,11655.2,0.67793,0.67765,0.998983,17,1.23289,10,0.000676961,-3.00044,0.0532366,1.10826,0.677211,
2,1,0,1,0,11656,0.673935,0.673668,0.839157,17,1.23361,10,0.000565313,-3.07616,0.0503484,1.17183,0.673299,
2,1,0,1,0,11656.8,0.66994,0.669691,0.699496,17,1.23422,10,0.000468446,-3.15522,0.0484086,1.21879,0.669383,
2,1,0,0,0,11657.6,0.665945,0.665655,0.576112,17,1.23471,10,0.000383491,-3.23949,0.0460978,1.27989,0.665401,
2,1,0,1,0,11658.4,0.66195,0.661686,0.495157,17,1.23513,10,0.000327639,-3.30526,0.049807,1.18457,0.661469,
2,1,0,0,0,11659.2,0.657955,0.657669,0.389595,17,1.23546,10,0.000256225,-3.40939,0.0413863,1.42559,0.657497,
2,1,0,1,0,11660,0.653959,0.653694,0.311371,17,1.23573,10,0.000203542,-3.50672,0.0404084,1.46009,0.653557,
2,1,0,1,0,11660.8,0.649964,0.649672,0.245165,17,1.23594,10,0.000159277,-3.61054,0.0360964,1.63451,0.649564,
2,1,0,1,0,11661.6,0.64597,0.645679,0.189587,17,1.2361,10,0.000122412,-3.72219,0.0330262,1.78646,0.645596,
2,1,0,1,0,11662.4,0.641974,0.641717,0.140372,17,1.23622,10,9.00793e-05,-3.85272,0.0288713,2.04355,0.641655,
2,1,0,0,0,11663.2,0.637979,0.637701,0.100968,17,1.23631,10,6.43873e-05,-3.99582,0.0249206,2.36752,0.637657,
2,1,0,1,0,11664,0.633983,0.63374,0.0673603,17,1.23637,10,4.26889e-05,-4.1716,0.02001,2.94853,0.63371,
2,1,0,1,0,11664.8,0.629988,0.629702,0.0386666,17,1.2364,10,2.43485e-05,-4.41266,0.0129599,4.55249,0.629685,
2,1,0,1,0,11665.6,0.625993,0.625666,0.0142551,17,1.23641,10,8.91896e-06,-4.84603,0.00515142,11.4532,0.62566,
2,1,0,1,0,11666.4,0.621998,0.621689,-0.00418507,17,1.2364,10,-2.60181e-06,-5.3783,-0.00797102,-7.40181,0.621691,
2,0,0,0,0,11667.2,0.618003,0.617757,-0.0202375,17,1.23638,10,-1.25019e-05,-4.69384,-0.0116489,-5.06485,0.617766,
2,0,0,1,0,11668,0.614008,0.613714,-0.0333395,17,1.23634,10,-2.04609e-05,-4.47704,-0.0305588,-1.9307,0.613728,
2,0,0,1,0,11668.8,0.610012,0.609741,-0.0453669,17,1.2363,10,-2.76621e-05,-4.34326,-0.0420999,-1.40143,0.609761,
2,0,0,1,0,11669.6,0.606017,0.605726,-0.0537711,17,1.23625,10,-3.25705e-05,-4.26945,-0.0580743,-1.01594,0.605749,
2,0,0,1,0,11670.4,0.602022,0.601737,-0.0640182,17,1.23619,10,-3.85221e-05,-4.1937,-0.076847,-0.76776,0.601765,
2,0,0,0,0,11671.2,0.598027,0.597729,-0.0694682,17,1.23613,10,-4.15231e-05,-4.15821,-0.0894259,-0.659764,0.59776,
2,0,0,1,0,11672,0.594032,0.593716,-0.0765057,17,1.23606,10,-4.54227e-05,-4.11631,-0.121531,-0.485473,0.59375,
2,0,0,0,0,11672.8,0.590037,0.589775,-0.0815866,17,1.23598,10,-4.81178e-05,-4.08838,-0.176911,-0.333502,0.589811,
2,0,0,1,0,11673.6,0.586041,0.585724,-0.0855997,17,1.23591,10,-5.01378e-05,-4.06753,-0.216444,-0.272588,0.585762,
2,0,0,1,0,11674.4,0.582046,0.581776,-0.088949,17,1.23583,10,-5.17484e-05,-4.05086,-0.208599,-0.282839,0.581816,
2,0,0,1,0,11675.2,0.578052,0.577777,-0.0913756,17,1.23574,10,-5.27947e-05,-4.03917,-0.304692,-0.193638,0.577817,
2,0,0,1,0,11676,0.574056,0.57378,-0.093259,17,1.23566,10,-5.35101e-05,-4.03031,-0.267854,-0.220269,0.573821,
2,0,0,0,0,11676.8,0.570061,0.569801,-0.0967174,17,1.23557,10,-5.51097e-05,-4.0145,-1.2599,-0.0468293,0.569844,
2,0,0,1,0,11677.6,0.566065,0.565774,-0.100224,17,1.23548,10,-5.67044e-05,-3.99903,-0.342521,-0.172252,0.565819,
2,0,0,1,0,11678.4,0.56207,0.56181,-0.101661,17,1.23539,10,-5.7114e-05,-3.99285,-0.395141,-0.149314,0.561854,
2,0,0,1,0,11679.2,0.558075,0.557759,-0.102878,17,1.23529,10,-5.73812e-05,-3.98768,-0.987537,-0.0597446,0.557805,
2,0,0,1,0,11679.9,0.55408,0.553819,-0.10402,17,1.2352,10,-5.7608e-05,-3.98288,-0.39322,-0.150043,0.553865,
2,0,0,0,0,11680.7,0.550085,0.549801,-0.104862,17,1.2351,10,-5.76533e-05,-3.97938,-0.599718,-0.0983795,0.549847,
2,0,0,1,0,11681.5,0.54609,0.545822,-0.107347,17,1.23501,10,-5.85926e-05,-3.96921,-1.58392,-0.0372494,0.545869,
2,0,0,1,0,11682.3,0.542094,0.541786,-0.107634,17,1.23491,10,-5.83143e-05,-3.96805,-0.596711,-0.0988754,0.541833,
2,0,0,1,0,11683.1,0.538099,0.537826,-0.108809,17,1.23481,10,-5.85205e-05,-3.96333,3.65377,0.0161477,0.537873,
2,0,0,1,0,11683.9,0.534104,0.533809,-0.110135,17,1.23471,10,-5.87909e-05,-3.95808,-0.4184,-0.141013,0.533858,
2,0,0,0,0,11684.7,0.530109,0.529803,-0.111992,17,1.23461,10,-5.93339e-05,-3.95081,-1.15109,-0.0512557,0.529852,
2,0,0,1,0,11685.5,0.526114,0.525805,-0.112961,17,1.23451,10,-5.93956e-05,-3.94707,-3.43307,-0.0171858,0.525855,
2,0,0,0,0,11686.3,0.522119,0.521793,-0.113597,17,1.23441,10,-5.92743e-05,-3.94463,-0.594105,-0.099309,0.521843,
2,0,0,1,0,11687.1,0.518123,0.517791,-0.114748,17,1.23431,10,-5.94154e-05,-3.94026,-8.7084,-0.00677507,0.517841,
2,0,0,1,0,11687.9,0.514128,0.513798,-0.115738,17,1.23421,10,-5.94661e-05,-3.93652,-1.27942,-0.0461148,0.513849,
2,0,0,1,0,11688.7,0.510133,0.509822,-0.115518,17,1.2341,10,-5.88937e-05,-3.93735,-0.655519,-0.090005,0.509873,
2,0,0,1,0,11689.5,0.506138,0.505827,-0.117371,17,1.234,10,-5.93693e-05,-3.93044,3.49312,0.0168903,0.505879,
2,0,0,0,0,11690.3,0.502143,0.50183,-0.117534,17,1.23389,10,-5.89822e-05,-3.92984,-0.469058,-0.125784,0.501882,
2,0,0,1,0,11691.1,0.498148,0.49787,-0.120212,17,1.23378,10,-5.98497e-05,-3.92005,-0.899297,-0.0656068,0.497923,
2,0,0,1,0,11691.9,0.494152,0.493873,-0.120553,17,1.23368,10,-5.95379e-05,-3.91882,-0.990156,-0.0595865,0.493926,
2,0,0,1,0,11692.7,0.490157,0.489897,-0.121882,17,1.23357,10,-5.97098e-05,-3.91406,-0.911326,-0.0647409,0.489951,
2,0,0,1,0,11693.5,0.486162,0.485844,-0.122843,17,1.23346,10,-5.96826e-05,-3.91065,-0.862079,-0.0684392,0.485898,
2,0,0,0,0,11694.3,0.482167,0.481854,-0.123912,17,1.23335,10,-5.97076e-05,-3.90689,-0.82926,-0.0711477,0.481909,
2,0,0,1,0,11695.1,0.478172,0.477893,-0.125059,17,1.23324,10,-5.97648e-05,-3.90288,-0.690868,-0.0853999,0.477948,
2,0,0,0,0,11695.9,0.474177,0.473904,-0.126783,17,1.23312,10,-6.00829e-05,-3.89694,2.04682,0.0288252,0.47396,
2,0,0,1,0,11696.7,0.470181,0.469849,-0.128548,17,1.23301,10,-6.0398e-05,-3.89094,-0.357448,-0.165059,0.469906,
2,0,0,1,0,11697.5,0.466186,0.465932,-0.129798,17,1.2329,10,-6.04771e-05,-3.88673,-1.51525,-0.0389375,0.46599,
2,0,0,1,0,11698.3,0.462191,0.461864,-0.130597,17,1.23278,10,-6.03181e-05,-3.88407,-0.894878,-0.0659308,0.461921,
2,0,0,1,0,11699.1,0.458196,0.457924,-0.132708,17,1.23266,10,-6.077e-05,-3.8771,-0.53482,-0.110317,0.457982,
2,0,0,0,0,11699.9,0.454201,0.453854,-0.133665,17,1.23254,10,-6.06643e-05,-3.87398,-1.37234,-0.0429923,0.453913,
2,0,0,1,0,11700.7,0.450205,0.449954,-0.136159,17,1.23242,10,-6.12651e-05,-3.86595,-0.769426,-0.0766805,0.450014,
2,0,0,1,0,11701.5,0.44621,0.445931,-0.137091,17,1.2323,10,-6.11329e-05,-3.86299,-1.15563,-0.0510544,0.445991,
2,0,0,1,0,11702.3,0.442215,0.441941,-0.139306,17,1.23218,10,-6.15651e-05,-3.85603,-1.01903,-0.057898,0.442002,
2,0,0,1,0,11703.1,0.43822,0.4379,-0.140065,17,1.23206,10,-6.13344e-05,-3.85367,-0.474465,-0.124351,0.437962,
2,0,0,0,0,11703.9,0.434225,0.433911,-0.141431,17,1.23193,10,-6.13685e-05,-3.84946,-2.5881,-0.0227966,0.433973,
2,0,0,1,0,11704.7,0.43023,0.429924,-0.143158,17,1.23181,10,-6.15471e-05,-3.84418,-0.511084,-0.115441,0.429987,
2,0,0,1,0,11705.5,0.426234,0.425971,-0.145151,17,1.23168,10,-6.18302e-05,-3.83818,-0.590697,-0.099882,0.426035,
2,0,0,1,0,11706.3,0.422239,0.421922,-0.147184,17,1.23155,10,-6.21003e-05,-3.83214,-2.104,-0.0280418,0.421987,
2,0,0,1,0,11707.1,0.418244,0.417993,-0.148698,17,1.23142,10,-6.21545e-05,-3.8277,-0.461031,-0.127974,0.418058,
2,0,0,0,0,11707.9,0.414249,0.413991,-0.149963,17,1.23129,10,-6.20834e-05,-3.82402,-0.8087,-0.0729566,0.414057,
2,0,0,1,0,11708.7,0.410254,0.4099,-0.152043,17,1.23115,10,-6.23226e-05,-3.81803,-1.98407,-0.0297369,0.409967,
2,0,0,0,0,11709.5,0.406259,0.405986,-0.155093,17,1.23102,10,-6.29655e-05,-3.80941,-0.567565,-0.103953,0.406055,
2,0,0,1,0,11710.3,0.402263,0.401971,-0.15678,17,1.23088,10,-6.30209e-05,-3.80471,-0.599015,-0.098495,0.40204,
2,0,0,1,0,11711.1,0.398268,0.39796,-0.158208,17,1.23074,10,-6.29606e-05,-3.80077,-0.688555,-0.0856867,0.39803,
2,0,0,1,0,11711.9,0.394274,0.393972,-0.1612,17,1.2306,10,-6.35082e-05,-3.79264,-0.628742,-0.0938381,0.394043,
2,0,0,1,0,11712.7,0.390278,0.389986,-0.163987,17,1.23046,10,-6.39525e-05,-3.78519,-0.770227,-0.0766008,0.390058,
2,0,0,0,0,11713.5,0.386283,0.385968,-0.165128,17,1.23032,10,-6.3734e-05,-3.78218,-0.760307,-0.0776002,0.386041,
2,0,0,1,0,11714.3,0.382287,0.382019,-0.166899,17,1.23017,10,-6.37586e-05,-3.77755,-0.702334,-0.0840056,0.382092,
2,0,0,1,0,11715.1,0.378292,0.378017,-0.167939,17,1.23003,10,-6.3484e-05,-3.77485,-2.52035,-0.0234095,0.378091,
2,0,0,1,0,11715.9,0.374297,0.373974,-0.170684,17,1.22988,10,-6.38312e-05,-3.76781,-0.468838,-0.125843,0.374049,
2,0,0,1,0,11716.7,0.370303,0.370032,-0.172831,17,1.22973,10,-6.39529e-05,-3.76238,-1.13968,-0.0517691,0.370108,
2,0,0,0,0,11717.5,0.366307,0.365993,-0.174232,17,1.22958,10,-6.37678e-05,-3.75887,-0.598053,-0.0986535,0.36607,
2,0,0,1,0,11718.3,0.362312,0.362022,-0.177639,17,1.22942,10,-6.43093e-05,-3.75046,-0.620634,-0.095064,0.3621,
2,0,0,1,0,11719.1,0.358316,0.358005,-0.180362,17,1.22927,10,-6.45705e-05,-3.74385,-1.07311,-0.0549806,0.358084,
2,0,0,1,0,11719.9,0.354321,0.354027,-0.181662,17,1.22911,10,-6.43131e-05,-3.74074,-0.565554,-0.104322,0.354106,
2,0,0,1,0,11720.7,0.350327,0.350026,-0.183557,17,1.22895,10,-6.42498e-05,-3.73623,-0.902749,-0.0653559,0.350107,
2,0,0,0,0,11721.5,0.346331,0.345993,-0.185743,17,1.22879,10,-6.42657e-05,-3.73109,-0.596322,-0.0989398,0.346075,
2,0,0,1,0,11722.3,0.342336,0.342019,-0.188265,17,1.22862,10,-6.43902e-05,-3.72523,-0.841672,-0.0700986,0.342102,
2,0,0,0,0,11723.1,0.338341,0.338085,-0.19101,17,1.22846,10,-6.45776e-05,-3.71894,-0.866287,-0.0681068,0.338169,
2,0,0,1,0,11723.9,0.334345,0.334069,-0.194069,17,1.22829,10,-6.48324e-05,-3.71204,-0.745518,-0.0791396,0.334155,
2,0,0,1,0,11724.7,0.33035,0.330067,-0.196201,17,1.22812,10,-6.47595e-05,-3.7073,-0.799886,-0.0737605,0.330153,
2,0,0,1,0,11725.5,0.326355,0.326055,-0.197545,17,1.22795,10,-6.44105e-05,-3.70433,-1.07869,-0.0546958,0.326142,
2,0,0,1,0,11726.3,0.32236,0.322039,-0.200987,17,1.22778,10,-6.47257e-05,-3.69683,-0.628958,-0.0938059,0.322128,
2,0,0,0,0,11727.1,0.318365,0.318042,-0.203605,17,1.2276,10,-6.47547e-05,-3.69121,-0.626758,-0.0941353,0.318131,
2,0,0,1,0,11727.9,0.31437,0.314028,-0.206573,17,1.22743,10,-6.48698e-05,-3.68493,-2.82701,-0.0208701,0.314119,
2,0,0,1,0,11728.7,0.310374,0.310079,-0.208608,17,1.22725,10,-6.46849e-05,-3.68067,-0.424752,-0.138905,0.31017,
2,0,0,1,0,11729.5,0.306379,0.306087,-0.211286,17,1.22707,10,-6.46719e-05,-3.67513,-0.747361,-0.0789445,0.30618,
2,0,0,1,0,11730.3,0.302385,0.302067,-0.214056,17,1.22688,10,-6.46593e-05,-3.66947,-0.636884,-0.0926385,0.302161,
2,0,0,0,0,11731.1,0.298389,0.29807,-0.217229,17,1.2267,10,-6.47495e-05,-3.66308,-0.579959,-0.101731,0.298165,
2,0,0,1,0,11731.9,0.294394,0.294111,-0.218775,17,1.22651,10,-6.43443e-05,-3.66,-1.50697,-0.0391514,0.294208,
2,0,0,1,0,11732.7,0.290398,0.290098,-0.222685,17,1.22632,10,-6.46004e-05,-3.65231,-0.742958,-0.0794123,0.290196,
2,0,0,1,0,11733.5,0.286403,0.286086,-0.223505,17,1.22613,10,-6.39416e-05,-3.65071,-0.816659,-0.0722455,0.286184,
2,0,0,1,0,11734.3,0.282408,0.282094,-0.226929,17,1.22594,10,-6.40155e-05,-3.64411,-1.42327,-0.0414538,0.282194,
2,0,0,1,0,11735.1,0.278414,0.278128,-0.229135,17,1.22574,10,-6.37291e-05,-3.63991,-0.915695,-0.0644319,0.278229,
2,0,0,1,0,11735.9,0.274418,0.274109,-0.232491,17,1.22554,10,-6.37279e-05,-3.63359,-0.432758,-0.136335,0.274211,
2,0,0,0,0,11736.7,0.270423,0.27012,-0.236412,17,1.22534,10,-6.38595e-05,-3.62633,-0.82212,-0.0717657,0.270224,
2,0,0,1,0,11737.5,0.266427,0.266118,-0.237978,17,1.22514,10,-6.33303e-05,-3.62346,-0.77361,-0.0762659,0.266223,
2,0,0,1,0,11738.3,0.262432,0.262136,-0.239899,17,1.22493,10,-6.28861e-05,-3.61997,-4.43451,-0.0133047,0.262241,
2,0,0,1,0,11739.1,0.258437,0.258149,-0.242366,17,1.22473,10,-6.25665e-05,-3.61553,-0.528041,-0.111734,0.258256,
2,0,0,1,0,11739.9,0.254442,0.254126,-0.24395,17,1.22452,10,-6.19939e-05,-3.6127,-1.07269,-0.0550021,0.254233,
2,0,0,0,0,11740.7,0.250447,0.250126,-0.247087,17,1.22431,10,-6.18029e-05,-3.60715,-1.40924,-0.0418667,0.250234,
2,0,0,1,0,11741.5,0.246452,0.246166,-0.248646,17,1.2241,10,-6.12083e-05,-3.60442,-0.658974,-0.0895331,0.246276,
2,0,0,1,0,11742.3,0.242456,0.24214,-0.253148,17,1.22388,10,-6.12972e-05,-3.59662,-1.0472,-0.056341,0.242251,
2,0,0,1,0,11743.1,0.238461,0.238149,-0.25598,17,1.22367,10,-6.09613e-05,-3.59179,-0.964069,-0.061199,0.238262,
2,0,0,1,0,11743.9,0.234467,0.234176,-0.258635,17,1.22345,10,-6.05661e-05,-3.58731,-0.66496,-0.0887271,0.23429,
2,0,0,0,0,11744.7,0.230471,0.230178,-0.260918,17,1.22323,10,-6.00577e-05,-3.5835,-1.01143,-0.0583332,0.230293,
2,0,0,1,0,11745.5,0.226476,0.226187,-0.263364,17,1.223,10,-5.95695e-05,-3.57944,-1.34619,-0.0438275,0.226303,
2,0,0,0,0,11746.3,0.222481,0.222168,-0.265245,17,1.22278,10,-5.89289e-05,-3.57635,-1.06545,-0.0553758,0.222285,
2,0,0,1,0,11747.1,0.218485,0.218207,-0.268883,17,1.22255,10,-5.86723e-05,-3.57044,-1.34956,-0.043718,0.218326,
2,0,0,1,0,11747.9,0.21449,0.214149,-0.270905,17,1.22232,10,-5.80141e-05,-3.56718,-0.466314,-0.126524,0.214269,
2,0,0,1,0,11748.7,0.210496,0.210217,-0.27547,17,1.22209,10,-5.79084e-05,-3.55993,-1.05688,-0.0558249,0.210338,
2,0,0,1,0,11749.5,0.2065,0.206157,-0.278608,17,1.22186,10,-5.7437e-05,-3.55501,-0.827355,-0.0713116,0.20628,
2,0,0,0,0,11750.3,0.202505,0.202226,-0.280466,17,1.22162,10,-5.67175e-05,-3.55212,-0.709715,-0.0831319,0.20235,
2,0,0,1,0,11751.1,0.198509,0.198207,-0.285192,17,1.22138,10,-5.65269e-05,-3.54486,-0.624009,-0.09455,0.198332,
2,0,0,1,0,11751.9,0.194514,0.194213,-0.289649,17,1.22114,10,-5.62535e-05,-3.53813,-0.472262,-0.124931,0.19434,
2,0,0,1,0,11752.7,0.190519,0.19018,-0.293286,17,1.22089,10,-5.57771e-05,-3.53271,-0.589667,-0.100056,0.190309,
2,0,0,1,0,11753.5,0.186524,0.186233,-0.299332,17,1.22064,10,-5.57455e-05,-3.52385,-0.57495,-0.102618,0.186365,
2,0,0,0,0,11754.3,0.182529,0.182268,-0.304959,17,1.22038,10,-5.55843e-05,-3.51576,-0.367848,-0.160393,0.182402,
2,0,0,1,0,11755.1,0.178534,0.1782,-0.312471,17,1.22012,10,-5.56824e-05,-3.50519,-0.467401,-0.12623,0.178338,
2,0,0,1,0,11755.9,0.174538,0.174195,-0.320801,17,1.21986,10,-5.58818e-05,-3.49376,-0.306808,-0.192303,0.174336,
2,0,0,1,0,11756.7,0.170543,0.170249,-0.330891,17,1.21958,10,-5.6334e-05,-3.48032,-0.250898,-0.235155,0.170395,
2,0,0,1,0,11757.5,0.166549,0.166211,-0.344053,17,1.2193,10,-5.71852e-05,-3.46338,-0.233154,-0.253051,0.166362,
2,0,0,0,0,11758.3,0.162553,0.16223,-0.359337,17,1.219,10,-5.82951e-05,-3.4445,-0.197597,-0.298587,0.162388,
2,0,0,1,0,11759.1,0.158558,0.158213,-0.377269,17,1.2187,10,-5.96889e-05,-3.42335,-0.152349,-0.38727,0.158379,
2,0,0,0,0,11759.9,0.154563,0.154235,-0.404419,17,1.21837,10,-6.23758e-05,-3.39317,-0.137725,-0.428391,0.154413,
2,0,0,1,0,11760.7,0.150567,0.150256,-0.437678,17,1.21802,10,-6.57635e-05,-3.35885,-0.100118,-0.589304,0.150448,
2,0,0,1,0,11761.5,0.146572,0.146261,-0.481368,17,1.21764,10,-7.04053e-05,-3.31752,-0.0892099,-0.661361,0.146473,
2,0,0,1,0,11762.3,0.142578,0.142252,-0.537495,17,1.21722,10,-7.64598e-05,-3.26963,-0.0805574,-0.732397,0.142489,
2,0,0,1,0,11763,0.138582,0.138235,-0.601761,17,1.21675,10,-8.31843e-05,-3.22058,-0.083178,-0.709322,0.1385,
2,0,0,0,0,11763.8,0.134587,0.134243,-0.663843,17,1.21623,10,-8.91166e-05,-3.17793,-0.105283,-0.560397,0.134536,
2,0,0,1,0,11764.6,0.130591,0.130263,-0.717191,17,1.21566,10,-9.34236e-05,-3.14437,-0.139921,-0.421666,0.130579,
2,0,0,1,0,11765.4,0.126596,0.126279,-0.751394,17,1.21506,10,-9.4885e-05,-3.12413,-0.245706,-0.240125,0.126609,
2,0,0,1,0,11766.2,0.122602,0.122282,-0.774109,17,1.21443,10,-9.46597e-05,-3.1112,-0.805521,-0.0732445,0.122623,
2,0,0,1,0,11767,0.118607,0.118271,-0.779094,17,1.2138,10,-9.21441e-05,-3.10841,-1.66736,-0.0353852,0.118614,
2,0,0,0,0,11767.8,0.114611,0.114265,-0.775631,17,1.21316,10,-8.86278e-05,-3.11034,0.868541,0.06793,0.114607,
2,0,0,1,0,11768.6,0.110616,0.110311,-0.767491,17,1.21253,10,-8.46628e-05,-3.11493,0.734577,0.0803184,0.110649,
2,0,0,1,0,11769.4,0.10662,0.106323,-0.755266,17,1.21191,10,-8.03019e-05,-3.1219,0.509414,0.115819,0.106655,
2,0,0,1,0,11770.2,0.102625,0.102332,-0.742254,17,1.21129,10,-7.5956e-05,-3.12945,0.447233,0.131922,0.102658,
2,0,0,1,0,11771,0.0986305,0.0983245,-0.726612,17,1.21069,10,-7.14438e-05,-3.1387,0.499623,0.118089,0.0986443,
2,0,0,0,0,11771.8,0.0946351,0.0943255,-0.708483,17,1.2101,10,-6.6828e-05,-3.14967,0.413699,0.142616,0.0946372,
2,0,0,1,0,11772.6,0.0906399,0.0903108,-0.695433,17,1.20952,10,-6.28051e-05,-3.15774,0.383579,0.153815,0.0906168,
2,0,0,0,0,11773.4,0.0866448,0.0863046,-0.682844,17,1.20896,10,-5.89325e-05,-3.16568,0.514463,0.114683,0.086605,
2,0,0,1,0,11774.2,0.0826492,0.0823458,-0.670483,17,1.2084,10,-5.52115e-05,-3.17361,0.575875,0.102453,0.0826408,
2,0,0,1,0,11775,0.0786544,0.0783103,-0.659735,17,1.20786,10,-5.1664e-05,-3.18063,0.645556,0.0913941,0.0786006,
2,0,0,1,0,11775.8,0.0746596,0.0743511,-0.648301,17,1.20732,10,-4.82019e-05,-3.18822,0.605682,0.0974109,0.0746363,
2,0,0,1,0,11776.6,0.0706641,0.070354,-0.64074,17,1.20679,10,-4.50786e-05,-3.19332,0.645061,0.0914642,0.0706359,
2,0,0,0,0,11777.4,0.0666689,0.0663817,-0.63103,17,1.20627,10,-4.18888e-05,-3.19995,0.694405,0.0849648,0.0666593,
2,0,0,1,0,11778.2,0.0626737,0.0623797,-0.620649,17,1.20576,10,-3.87159e-05,-3.20715,0.571964,0.103153,0.0626528,
2,0,0,1,0,11779,0.0586783,0.0583532,-0.613447,17,1.20525,10,-3.57966e-05,-3.21222,0.508844,0.115949,0.0586232,
2,0,0,1,0,11779.8,0.0546835,0.0543844,-0.602775,17,1.20475,10,-3.27816e-05,-3.21984,0.841046,0.0701508,0.0546496,
2,0,0,1,0,11780.6,0.0506886,0.0503764,-0.59145,17,1.20426,10,-2.97951e-05,-3.22808,0.467023,0.126332,0.0506366,
2,0,0,0,0,11781.4,0.046693,0.0463591,-0.58182,17,1.20378,10,-2.69726e-05,-3.23521,0.478803,0.123224,0.0466151,
2,0,0,1,0,11782.2,0.0426979,0.0423603,-0.571115,17,1.2033,10,-2.41926e-05,-3.24328,0.487517,0.121021,0.0426116,
2,0,0,1,0,11783,0.0387022,0.0383325,-0.560175,17,1.20283,10,-2.14729e-05,-3.25168,0.431452,0.136748,0.0385789,
2,0,0,1,0,11783.8,0.0347074,0.0343541,-0.548271,17,1.20238,10,-1.88354e-05,-3.261,0.493496,0.119555,0.0345954,
2,0,0,1,0,11784.6,0.0307126,0.0304203,-0.536542,17,1.20193,10,-1.63218e-05,-3.2704,0.522317,0.112958,0.0306564,
2,0,0,0,0,11785.4,0.0267172,0.0264139,-0.528264,17,1.20149,10,-1.39535e-05,-3.27715,0.417605,0.141282,0.0266463,
2,0,0,1,0,11786.2,0.022722,0.0223366,-0.519112,17,1.20106,10,-1.15952e-05,-3.28474,0.809695,0.0728669,0.022565,
2,0,0,0,0,11787,0.0187268,0.0184121,-0.511337,17,1.20063,10,-9.41476e-06,-3.29129,0.630216,0.0936188,0.018637,
2,0,0,1,0,11787.8,0.0147313,0.0144098,-0.506848,17,1.20021,10,-7.30358e-06,-3.29512,0.995961,0.0592393,0.0146328,
2,0,0,1,0,11788.6,0.0107365,0.0104134,-0.50174,17,1.19979,10,-5.22484e-06,-3.29952,1.5182,0.0388619,0.0106342,
2,0,0,1,0,11789.4,0.00674163,0.00644345,-0.499441,17,1.19938,10,-3.21812e-06,-3.30152,4.50725,0.01309,0.0066632,
2,0,0,1,0,11790.2,0.00274612,0.0023925,-0.499439,17,1.19897,10,-1.19491e-06,-3.30152,-2.19931,-0.0268266,0.00261225,
2,0,0,0,0,11790.7,0.000274105,-0.00010224,-0.498617,17,1.19871,10,5.09788e-08,-3.30223, , ,0.000117151,