File: Figure_codes/Fig_3-5/workspace_calculate_alpha_eff/20221101_1-115_003_TrumpetPlot_ParaChange_from10_every3_16_CV_C01_47.csv
mode,ox/red,error,control changes,counter inc.,time/s,control/V,Ewe/V,<I>/mA,cycle number,(Q-Qo)/C,I Range,P/W,log(|I|),Tafel slope mV/dec,alpha_eff,E-IR/V,
2,0,0,0,0,31522.1,2.44065e-05,-0.000287149,-0.102574,48,0.0000000E+000,10,2.94541e-08,-3.98896, , ,-0.000242016,
2,1,0,0,0,31522.8,0.00379485,0.00345291,0.148502,48,9.60656e-05,10,5.12764e-07,-3.82827,0.0345858,1.7059,0.00338756,
2,1,0,1,0,31523.6,0.00779002,0.00747397,0.172599,48,0.000237983,10,1.29e-06,-3.76296,0.0732007,0.806003,0.00739802,
2,1,0,0,0,31524.4,0.0117852,0.0114717,0.187203,48,0.000395566,10,2.14754e-06,-3.72769,0.114959,0.513225,0.0113893,
2,1,0,1,0,31525.2,0.0157806,0.0154601,0.204035,48,0.000565162,10,3.15439e-06,-3.6903,0.132872,0.444035,0.0153703,
2,1,0,1,0,31526,0.0197754,0.0194225,0.217495,48,0.000745472,10,4.2243e-06,-3.66255,0.148002,0.398645,0.0193268,
2,1,0,1,0,31526.8,0.0237704,0.0234816,0.230045,48,0.000936802,10,5.40184e-06,-3.63819,0.159408,0.37012,0.0233804,
2,1,0,1,0,31527.6,0.0277659,0.0274541,0.244503,48,0.00113898,10,6.71263e-06,-3.61172,0.160058,0.368617,0.0273466,
2,1,0,0,0,31528.4,0.0317611,0.0314614,0.257399,48,0.00135259,10,8.09815e-06,-3.58939,0.165565,0.356356,0.0313482,
2,1,0,1,0,31529.2,0.0357567,0.0354183,0.274006,48,0.00157801,10,9.70483e-06,-3.56224,0.205654,0.28689,0.0352978,
2,1,0,1,0,31530,0.0397516,0.0393977,0.286802,48,0.00181441,10,1.12994e-05,-3.54242,0.152975,0.385683,0.0392715,
2,1,0,1,0,31530.8,0.0437465,0.043429,0.300919,48,0.0020629,10,1.30686e-05,-3.52155,0.230347,0.256135,0.0432966,
2,1,0,1,0,31531.6,0.0477413,0.0473849,0.315594,48,0.00232172,10,1.49544e-05,-3.50087,0.203574,0.289821,0.047246,
2,1,0,0,0,31532.4,0.0517369,0.0513822,0.328065,48,0.00259099,10,1.68567e-05,-3.48404,0.204501,0.288507,0.0512379,
2,1,0,1,0,31533.2,0.0557321,0.055381,0.340204,48,0.00287085,10,1.88408e-05,-3.46826,0.296203,0.199188,0.0552313,
2,1,0,1,0,31534,0.0597277,0.0593824,0.351256,48,0.00315993,10,2.08584e-05,-3.45438,0.310295,0.190142,0.0592279,
2,1,0,1,0,31534.8,0.0637226,0.0633999,0.362535,48,0.00345801,10,2.29847e-05,-3.44065,0.304939,0.193481,0.0632404,
2,1,0,1,0,31535.6,0.0677174,0.0674016,0.372805,48,0.00376537,10,2.51277e-05,-3.42852,0.471718,0.125075,0.0672375,
2,1,0,0,0,31536.4,0.0717128,0.0713507,0.381424,48,0.00408022,10,2.72149e-05,-3.41859,0.307115,0.192111,0.0711829,
2,1,0,1,0,31537.2,0.075708,0.075358,0.389594,48,0.00440246,10,2.9359e-05,-3.40939,0.397814,0.14831,0.0751866,
2,1,0,0,0,31538,0.0797031,0.0794066,0.401494,48,0.00473153,10,3.18813e-05,-3.39632,0.387444,0.15228,0.07923,
2,1,0,1,0,31538.8,0.0836986,0.0833516,0.409141,48,0.00506739,10,3.41025e-05,-3.38813,0.444447,0.132749,0.0831716,
2,1,0,1,0,31539.6,0.0876935,0.0873629,0.419883,48,0.00541142,10,3.66822e-05,-3.37687,0.323749,0.18224,0.0871782,
2,1,0,1,0,31540.4,0.0916883,0.0913317,0.434901,48,0.00576486,10,3.97202e-05,-3.36161,0.272046,0.216875,0.0911403,
2,1,0,1,0,31541.2,0.0956838,0.0953318,0.4493,48,0.00613098,10,4.28326e-05,-3.34746,0.198235,0.297627,0.0951341,
2,1,0,0,0,31542,0.099679,0.099372,0.526417,48,0.00651484,10,5.23111e-05,-3.27867,0.205546,0.287041,0.0991404,
2,1,0,1,0,31542.8,0.103674,0.103341,0.494945,48,0.00692326,10,5.11482e-05,-3.30544,0.180357,0.327129,0.103123,
2,1,0,1,0,31543.6,0.10767,0.107346,0.518176,48,0.00734352,10,5.56244e-05,-3.28552,0.232135,0.254163,0.107118,
2,1,0,1,0,31544.4,0.111664,0.111334,0.53852,48,0.00778046,10,5.99558e-05,-3.2688,0.264503,0.223059,0.111097,
2,1,0,1,0,31545.2,0.115659,0.115318,0.553017,48,0.00823164,10,6.37727e-05,-3.25726,0.284996,0.207021,0.115075,
2,1,0,0,0,31546,0.119655,0.119334,0.56861,48,0.00869558,10,6.78546e-05,-3.24519,0.555969,0.106121,0.119084,
2,1,0,1,0,31546.8,0.12365,0.123328,0.581633,48,0.00916898,10,7.17314e-05,-3.23535,0.436243,0.135246,0.123072,
2,1,0,1,0,31547.6,0.127646,0.127305,0.590277,48,0.00965198,10,7.51449e-05,-3.22894,0.680165,0.0867437,0.127045,
2,1,0,1,0,31548.4,0.131641,0.131359,0.595573,48,0.0101415,10,7.82342e-05,-3.22506,-1.53389,-0.0384643,0.131097,
2,1,0,1,0,31549.2,0.135635,0.135309,0.585991,48,0.0106292,10,7.92898e-05,-3.23211,-0.334441,-0.176414,0.135051,
2,1,0,0,0,31550,0.139631,0.139304,0.55587,48,0.0111015,10,7.74348e-05,-3.25503,-0.123712,-0.476915,0.139059,
2,1,0,1,0,31550.8,0.143626,0.143343,0.507374,48,0.011541,10,7.27285e-05,-3.29467,-0.0804696,-0.733196,0.14312,
2,1,0,0,0,31551.6,0.147621,0.147286,0.441731,48,0.011934,10,6.50609e-05,-3.35484,-0.0673641,-0.875837,0.147092,
2,1,0,1,0,31552.4,0.151617,0.151302,0.386905,48,0.0122784,10,5.85397e-05,-3.4124,-0.0697708,-0.845627,0.151132,
2,1,0,1,0,31553.2,0.155612,0.155286,0.345634,48,0.0125829,10,5.36723e-05,-3.46138,-0.0959359,-0.614994,0.155134,
2,1,0,1,0,31554,0.159606,0.159304,0.318021,48,0.0128605,10,5.06619e-05,-3.49754,-0.141956,-0.415622,0.159164,
2,1,0,1,0,31554.8,0.163602,0.163272,0.299373,48,0.0131205,10,4.88792e-05,-3.52379,-0.15941,-0.370115,0.16314,
2,1,0,0,0,31555.6,0.167597,0.167304,0.287062,48,0.0133682,10,4.80265e-05,-3.54202,-0.303545,-0.19437,0.167177,
2,1,0,1,0,31556.4,0.171592,0.17129,0.2761,48,0.0136077,10,4.72931e-05,-3.55893,-0.345887,-0.170576,0.171168,
2,1,0,1,0,31557.2,0.175588,0.175295,0.271844,48,0.0138405,10,4.76531e-05,-3.56568,-0.326077,-0.180939,0.175176,
2,1,0,1,0,31558,0.179582,0.179251,0.266832,48,0.0140689,10,4.783e-05,-3.57376,-0.842731,-0.0700105,0.179134,
2,1,0,1,0,31558.8,0.183577,0.18326,0.262451,48,0.014294,10,4.80968e-05,-3.58095,-0.745636,-0.079127,0.183145,
2,1,0,0,0,31559.6,0.187573,0.187282,0.260105,48,0.0145158,10,4.8713e-05,-3.58485,-1.04921,-0.0562329,0.187167,
2,1,0,1,0,31560.4,0.191568,0.191298,0.257772,48,0.0147352,10,4.93111e-05,-3.58876,-0.633148,-0.0931852,0.191184,
2,1,0,0,0,31561.2,0.195563,0.195224,0.254197,48,0.0149527,10,4.96254e-05,-3.59483,-0.682357,-0.086465,0.195112,
2,1,0,1,0,31562,0.199559,0.199225,0.25201,48,0.0151681,10,5.02068e-05,-3.59858,-2.25859,-0.0261225,0.199114,
2,1,0,1,0,31562.8,0.203553,0.203272,0.249431,48,0.0153821,10,5.07023e-05,-3.60305,-1.81513,-0.0325045,0.203162,
2,1,0,1,0,31563.6,0.207548,0.207221,0.248835,48,0.015595,10,5.15638e-05,-3.60409,-1.65616,-0.0356247,0.207112,
2,1,0,1,0,31564.4,0.211544,0.211262,0.246273,48,0.0158062,10,5.20281e-05,-3.60858,-1.84719,-0.0319405,0.211153,
2,1,0,0,0,31565.2,0.215539,0.215209,0.246071,48,0.0160163,10,5.29567e-05,-3.60894,-1.61164,-0.0366087,0.2151,
2,1,0,1,0,31566,0.219535,0.219243,0.246597,48,0.0162256,10,5.40647e-05,-3.60801,-1.6496,-0.0357664,0.219134,
2,1,0,1,0,31566.8,0.223529,0.223227,0.243358,48,0.0164339,10,5.4324e-05,-3.61375,-2.08827,-0.028253,0.223119,
2,1,0,1,0,31567.6,0.227524,0.227247,0.242594,48,0.0166411,10,5.51288e-05,-3.61512,-0.98931,-0.0596375,0.22714,
2,1,0,1,0,31568.4,0.23152,0.231176,0.241323,48,0.0168472,10,5.57882e-05,-3.6174,8.07906,0.00730283,0.23107,
2,1,0,0,0,31569.2,0.235515,0.23525,0.239397,48,0.0170527,10,5.63183e-05,-3.62088,-1.05102,-0.0561361,0.235145,
2,1,0,1,0,31570,0.23951,0.239169,0.240006,48,0.0172574,10,5.74018e-05,-3.61978,-2.34523,-0.0251574,0.239063,
2,1,0,1,0,31570.8,0.243506,0.243193,0.238268,48,0.017461,10,5.79452e-05,-3.62293,2.31796,0.0254534,0.243088,
2,1,0,1,0,31571.6,0.2475,0.247229,0.238456,48,0.0176643,10,5.89531e-05,-3.62259,-1.10658,-0.0533175,0.247124,
2,1,0,1,0,31572.4,0.251495,0.251207,0.236835,48,0.0178664,10,5.94945e-05,-3.62555,-2.60288,-0.0226672,0.251103,
2,1,0,0,0,31573.2,0.255491,0.255137,0.235571,48,0.0180677,10,6.01029e-05,-3.62788,-6.1508,-0.00959225,0.255034,
2,1,0,1,0,31574,0.259486,0.259184,0.234393,48,0.0182686,10,6.07509e-05,-3.63006,-1.23225,-0.0478797,0.259081,
2,1,0,0,0,31574.8,0.263481,0.26317,0.234111,48,0.0184686,10,6.1611e-05,-3.63058,-2.21238,-0.0266681,0.263067,
2,1,0,1,0,31575.6,0.267477,0.267149,0.231937,48,0.018668,10,6.19617e-05,-3.63463,-12.386,-0.00476344,0.267047,
2,1,0,1,0,31576.4,0.271471,0.271146,0.232788,48,0.0188669,10,6.31195e-05,-3.63304,-52.4814,-0.00112421,0.271044,
2,1,0,1,0,31577.2,0.275466,0.275165,0.23151,48,0.0190651,10,6.37034e-05,-3.63543,-1.41863,-0.0415894,0.275063,
2,1,0,1,0,31578,0.279462,0.279185,0.230515,48,0.0192629,10,6.43564e-05,-3.6373,-2.12669,-0.0277427,0.279084,
2,1,0,0,0,31578.8,0.283457,0.283145,0.230461,48,0.0194593,10,6.52537e-05,-3.6374,-2.71745,-0.0217115,0.283043,
2,1,0,1,0,31579.6,0.287452,0.287134,0.229203,48,0.0196551,10,6.58119e-05,-3.63978,-1.79603,-0.0328502,0.287033,
2,1,0,1,0,31580.4,0.291448,0.291145,0.228953,48,0.0198505,10,6.66584e-05,-3.64025,-2.13722,-0.027606,0.291044,
2,1,0,1,0,31581.2,0.295442,0.295142,0.228761,48,0.0200451,10,6.7517e-05,-3.64062,3.58949,0.0164369,0.295041,
2,1,0,1,0,31582,0.299437,0.299139,0.226089,48,0.0202391,10,6.76321e-05,-3.64572,-1.3388,-0.0440692,0.29904,
2,1,0,0,0,31582.8,0.303433,0.30311,0.226126,48,0.0204323,10,6.85411e-05,-3.64565,8.31039,0.00709955,0.303011,
2,1,0,1,0,31583.6,0.307428,0.3071,0.2252,48,0.0206248,10,6.9159e-05,-3.64743,-2.13086,-0.0276884,0.307001,
2,1,0,1,0,31584.4,0.311424,0.311117,0.225735,48,0.0208169,10,7.02302e-05,-3.6464,-1.69752,-0.0347566,0.311018,
2,1,0,1,0,31585.2,0.315418,0.315105,0.224075,48,0.0210084,10,7.06074e-05,-3.64961,-1.83048,-0.032232,0.315007,
2,1,0,1,0,31586,0.319413,0.319083,0.223811,48,0.0211991,10,7.14142e-05,-3.65012,-2.05279,-0.0287414,0.318984,
2,1,0,0,0,31586.8,0.323409,0.32311,0.222574,48,0.0213895,10,7.19158e-05,-3.65253,-2.02126,-0.0291897,0.323012,
2,1,0,1,0,31587.6,0.327404,0.327068,0.220926,48,0.0215787,10,7.22578e-05,-3.65575,-9.60853,-0.00614038,0.326971,
2,1,0,0,0,31588.4,0.331399,0.33106,0.220698,48,0.0217677,10,7.30642e-05,-3.6562,-2.14717,-0.027478,0.330963,
2,1,0,1,0,31589.1,0.335395,0.335078,0.221811,48,0.0219562,10,7.43242e-05,-3.65402,12.676,0.00465446,0.334981,
2,1,0,1,0,31589.9,0.339389,0.339102,0.22079,48,0.0221441,10,7.48702e-05,-3.65602,12.9215,0.00456604,0.339005,
2,1,0,1,0,31590.7,0.343384,0.343069,0.220099,48,0.0223316,10,7.55091e-05,-3.65738,-1.7511,-0.0336932,0.342972,
2,1,0,1,0,31591.5,0.34738,0.347024,0.219374,48,0.0225186,10,7.6128e-05,-3.65881,-17.828,-0.00330941,0.346927,
2,1,0,0,0,31592.3,0.351375,0.351051,0.219105,48,0.0227052,10,7.69169e-05,-3.65935,-1.95657,-0.0301548,0.350955,
2,1,0,1,0,31593.1,0.35537,0.355082,0.218381,48,0.0228913,10,7.75432e-05,-3.66078,-1.43689,-0.041061,0.354986,
2,1,0,1,0,31593.9,0.359366,0.359088,0.218271,48,0.0230769,10,7.83784e-05,-3.661,3.03179,0.0194605,0.358992,
2,1,0,1,0,31594.7,0.36336,0.363058,0.217123,48,0.0232623,10,7.88282e-05,-3.66329,31.8463,0.00185265,0.362962,
2,1,0,1,0,31595.5,0.367355,0.367052,0.218168,48,0.0234473,10,8.00792e-05,-3.66121,-2.76517,-0.0213369,0.366956,
2,1,0,0,0,31596.3,0.371351,0.371007,0.217186,48,0.0236321,10,8.05776e-05,-3.66317,3.14536,0.0187578,0.370911,
2,1,0,1,0,31597.1,0.375346,0.375061,0.216681,48,0.0238169,10,8.12687e-05,-3.66418,-1.47678,-0.0399517,0.374965,
2,1,0,1,0,31597.9,0.379342,0.379026,0.216743,48,0.024001,10,8.21511e-05,-3.66406,22.6596,0.00260375,0.378931,
2,1,0,1,0,31598.7,0.383336,0.383027,0.215682,48,0.0241849,10,8.2612e-05,-3.66619,-11.4594,-0.00514861,0.382932,
2,1,0,1,0,31599.5,0.387331,0.387034,0.216182,48,0.0243689,10,8.36698e-05,-3.66518,-2.27122,-0.0259773,0.386938,
2,1,0,0,0,31600.3,0.391327,0.391,0.216109,48,0.0245524,10,8.44984e-05,-3.66533,4.90641,0.0120251,0.390905,
2,1,0,1,0,31601.1,0.395322,0.395018,0.214463,48,0.0247355,10,8.47165e-05,-3.66865,-3.63478,-0.0162321,0.394923,
2,1,0,0,0,31601.9,0.399317,0.398992,0.216082,48,0.0249183,10,8.62151e-05,-3.66538,3.48593,0.0169252,0.398897,
2,1,0,1,0,31602.7,0.403313,0.402994,0.215212,48,0.025101,10,8.67293e-05,-3.66713,-0.868303,-0.0679486,0.4029,
2,1,0,1,0,31603.5,0.407307,0.406998,0.21521,48,0.0252833,10,8.75901e-05,-3.66714,2.27454,0.0259393,0.406903,
2,1,0,1,0,31604.3,0.411302,0.410932,0.214602,48,0.0254654,10,8.81869e-05,-3.66837,15.5641,0.00379077,0.410837,
2,1,0,1,0,31605.1,0.415298,0.41503,0.21529,48,0.0256473,10,8.93518e-05,-3.66698,1.78669,0.033022,0.414935,
2,1,0,0,0,31605.9,0.419293,0.418985,0.215431,48,0.0258292,10,9.02625e-05,-3.66669,-2.46984,-0.0238881,0.41889,
2,1,0,1,0,31606.7,0.423288,0.422967,0.215381,48,0.0260109,10,9.10988e-05,-3.66679,5.79004,0.0101899,0.422872,
2,1,0,1,0,31607.5,0.427283,0.426996,0.213765,48,0.0261927,10,9.12767e-05,-3.67006,-4.1351,-0.0142681,0.426902,
2,1,0,1,0,31608.3,0.431278,0.43095,0.214896,48,0.0263741,10,9.26095e-05,-3.66777,70.7158,0.000834326,0.430856,
2,1,0,1,0,31609.1,0.435273,0.434966,0.215254,48,0.0265555,10,9.3628e-05,-3.66705,2.02812,0.029091,0.434871,
2,1,0,0,0,31609.9,0.439269,0.438964,0.215822,48,0.0267371,10,9.47379e-05,-3.66591,-14.1541,-0.00416842,0.438869,
2,1,0,1,0,31610.7,0.443264,0.442945,0.216078,48,0.0269189,10,9.57105e-05,-3.66539,3.83228,0.0153955,0.44285,
2,1,0,0,0,31611.5,0.447259,0.446937,0.215019,48,0.0271007,10,9.60999e-05,-3.66752,-4.21687,-0.0139914,0.446843,
2,1,0,1,0,31612.3,0.451254,0.450936,0.215805,48,0.0272829,10,9.73143e-05,-3.66594,-16.585,-0.00355742,0.450841,
2,1,0,1,0,31613.1,0.455249,0.454987,0.216735,48,0.0274649,10,9.86114e-05,-3.66407,3.98542,0.014804,0.454891,
2,1,0,1,0,31613.9,0.459244,0.458939,0.21506,48,0.027647,10,9.86993e-05,-3.66744,9.75945,0.00604542,0.458844,
2,1,0,1,0,31614.7,0.46324,0.462886,0.217292,48,0.0278294,10,0.000100582,-3.66296,2.09386,0.0281776,0.46279,
2,1,0,0,0,31615.5,0.467235,0.466904,0.217148,48,0.028012,10,0.000101387,-3.66324,1.21687,0.0484849,0.466808,
2,1,0,1,0,31616.3,0.471231,0.470884,0.217478,48,0.0281949,10,0.000102407,-3.66259,-4.05798,-0.0145392,0.470788,
2,1,0,1,0,31617.1,0.475225,0.474908,0.219328,48,0.028378,10,0.000104161,-3.65891,-52.5794,-0.00112211,0.474811,
2,1,0,1,0,31617.9,0.47922,0.478941,0.21818,48,0.0285614,10,0.000104495,-3.66118,1.95609,0.0301622,0.478845,
2,1,0,1,0,31618.7,0.483216,0.482931,0.218961,48,0.0287452,10,0.000105743,-3.65963,-2.17286,-0.0271531,0.482834,
2,1,0,0,0,31619.5,0.487211,0.48693,0.219367,48,0.0289292,10,0.000106816,-3.65883,0.91543,0.0644506,0.486834,
2,1,0,1,0,31620.3,0.491206,0.490907,0.220024,48,0.0291139,10,0.000108011,-3.65753,-10.8563,-0.00543462,0.49081,
2,1,0,1,0,31621.1,0.495201,0.494893,0.221196,48,0.0292989,10,0.000109469,-3.65522,2.11008,0.027961,0.494796,
2,1,0,1,0,31621.9,0.499196,0.498858,0.221604,48,0.0294845,10,0.000110549,-3.65442,1.71586,0.034385,0.49876,
2,1,0,1,0,31622.7,0.503191,0.502911,0.222389,48,0.029671,10,0.000111842,-3.65289,2.08444,0.028305,0.502813,
2,1,0,0,0,31623.5,0.507187,0.506882,0.223436,48,0.0298581,10,0.000113256,-3.65085,1.28167,0.0460336,0.506784,
2,1,0,1,0,31624.3,0.511182,0.510897,0.224798,48,0.0300459,10,0.000114849,-3.64821,3.89887,0.0151326,0.510798,
2,1,0,0,0,31625.1,0.515177,0.514854,0.225621,48,0.0302347,10,0.000116162,-3.64662,12.7461,0.00462888,0.514755,
2,1,0,1,0,31625.9,0.519173,0.518917,0.228649,48,0.0304245,10,0.00011865,-3.64083,0.63955,0.0922524,0.518816,
2,1,0,1,0,31626.7,0.523167,0.52287,0.228528,48,0.0306157,10,0.00011949,-3.64106,-11.8214,-0.00499096,0.522769,
2,1,0,1,0,31627.5,0.527162,0.526826,0.230812,48,0.0308076,10,0.000121597,-3.63674,1.09497,0.0538828,0.526724,
2,1,0,1,0,31628.3,0.531158,0.530845,0.23223,48,0.0310006,10,0.000123278,-3.63408,1.00758,0.0585562,0.530743,
2,1,0,0,0,31629.1,0.535153,0.534866,0.233152,48,0.031195,10,0.000124705,-3.63236,1.7664,0.0334013,0.534764,
2,1,0,1,0,31629.9,0.539148,0.538826,0.235069,48,0.0313907,10,0.000126661,-3.62881,1.25397,0.0470507,0.538722,
2,1,0,1,0,31630.7,0.543143,0.542863,0.236992,48,0.0315879,10,0.000128654,-3.62527,1.06115,0.0555998,0.542758,
2,1,0,1,0,31631.5,0.547138,0.546818,0.238943,48,0.0317867,10,0.000130658,-3.62171,1.17673,0.050139,0.546713,
2,1,0,1,0,31632.3,0.551133,0.550809,0.24196,48,0.0319871,10,0.000133274,-3.61626,0.713437,0.0826983,0.550702,
2,1,0,0,0,31633.1,0.555129,0.554835,0.243661,48,0.0321897,10,0.000135192,-3.61321,0.803304,0.0734467,0.554727,
2,1,0,1,0,31633.9,0.559124,0.558867,0.24736,48,0.0323942,10,0.000138241,-3.60667,0.959097,0.0615162,0.558759,
2,1,0,1,0,31634.7,0.56312,0.56278,0.249979,48,0.032601,10,0.000140683,-3.6021,0.58836,0.100279,0.56267,
2,1,0,1,0,31635.5,0.567114,0.566807,0.252725,48,0.0328106,10,0.000143246,-3.59735,0.757827,0.0778542,0.566695,
2,1,0,1,0,31636.3,0.571109,0.570798,0.25633,48,0.0330227,10,0.000146312,-3.5912,0.58674,0.100556,0.570685,
2,1,0,0,0,31637.1,0.575105,0.574841,0.26054,48,0.0332378,10,0.000149769,-3.58413,0.565963,0.104247,0.574727,
2,1,0,1,0,31637.9,0.5791,0.578829,0.264884,48,0.0334564,10,0.000153323,-3.57694,0.646137,0.0913119,0.578713,
2,1,0,0,0,31638.7,0.583095,0.582792,0.270372,48,0.0336788,10,0.00015757,-3.56804,0.465866,0.126646,0.582673,
2,1,0,1,0,31639.5,0.58709,0.586824,0.275515,48,0.0339052,10,0.000161679,-3.55986,0.42963,0.137328,0.586703,
2,1,0,1,0,31640.3,0.591085,0.590756,0.2824,48,0.0341362,10,0.000166829,-3.54914,0.362974,0.162546,0.590632,
2,1,0,1,0,31641.1,0.59508,0.594778,0.288989,48,0.0343726,10,0.000171884,-3.53912,0.324637,0.181742,0.59465,
2,1,0,1,0,31641.9,0.599076,0.598811,0.296721,48,0.0346151,10,0.00017768,-3.52765,0.350136,0.168506,0.59868,
2,1,0,0,0,31642.7,0.603071,0.602794,0.305763,48,0.0348642,10,0.000184312,-3.51462,0.286141,0.206192,0.602659,
2,1,0,1,0,31643.5,0.607066,0.606763,0.316428,48,0.035121,10,0.000191997,-3.49972,0.282268,0.209021,0.606623,
2,1,0,1,0,31644.3,0.611061,0.610805,0.327696,48,0.0353862,10,0.000200158,-3.48453,0.250147,0.235862,0.610661,
2,1,0,1,0,31645.1,0.615056,0.614757,0.340472,48,0.0356614,10,0.000209308,-3.46792,0.214356,0.275242,0.614607,
2,1,0,1,0,31645.9,0.619051,0.618742,0.35647,48,0.0359484,10,0.000220563,-3.44798,0.186394,0.316534,0.618585,
2,1,0,0,0,31646.7,0.623047,0.622788,0.375037,48,0.0362486,10,0.000233568,-3.42593,0.182245,0.323739,0.622623,
2,1,0,1,0,31647.5,0.627042,0.626736,0.395498,48,0.0365644,10,0.000247872,-3.40286,0.153001,0.38562,0.626561,
2,1,0,1,0,31648.3,0.631037,0.630717,0.420478,48,0.0368987,10,0.000265203,-3.37626,0.148682,0.396821,0.630532,
2,1,0,1,0,31649.1,0.635032,0.634741,0.44931,48,0.037254,10,0.000285195,-3.34745,0.13501,0.437005,0.634543,
2,1,0,1,0,31649.9,0.639027,0.638777,0.48274,48,0.0376339,10,0.000308363,-3.31629,0.121038,0.487449,0.638565,
2,1,0,1,0,31650.7,0.643022,0.642715,0.521875,48,0.0380433,10,0.000335417,-3.28243,0.114052,0.517308,0.642486,
2,1,0,1,0,31651.5,0.647018,0.646751,0.566796,48,0.0384861,10,0.000366576,-3.24657,0.105754,0.557898,0.646501,
2,1,0,0,0,31652.3,0.651013,0.650738,0.621595,48,0.0389685,10,0.000404495,-3.20649,0.0950804,0.620527,0.650464,
2,1,0,1,0,31653.1,0.655008,0.654711,0.685134,48,0.0394983,10,0.000448565,-3.16422,0.0927656,0.636011,0.65441,
2,1,0,1,0,31653.9,0.659003,0.658715,0.758182,48,0.0400825,10,0.000499426,-3.12023,0.087243,0.676272,0.658382,
2,1,0,1,0,31654.7,0.662998,0.662758,0.844102,48,0.0407304,10,0.000559436,-3.0736,0.0835101,0.706501,0.662387,
2,1,0,1,0,31655.5,0.666994,0.666715,0.943282,48,0.0414522,10,0.0006289,-3.02536,0.0792526,0.744455,0.6663,
2,1,0,0,0,31656.3,0.670989,0.670776,1.05762,48,0.0422594,10,0.000709424,-2.97567,0.0790661,0.746211,0.670311,
2,1,0,1,0,31657.1,0.674984,0.674672,1.18842,48,0.0431642,10,0.000801796,-2.92503,0.076938,0.766851,0.674149,
2,1,0,1,0,31657.9,0.67898,0.678692,1.33832,48,0.0441814,10,0.000908308,-2.87344,0.075437,0.782109,0.678104,
2,1,0,1,0,31658.7,0.682974,0.682723,1.50855,48,0.0453263,10,0.00102992,-2.82144,0.0764873,0.77137,0.682059,
2,1,0,1,0,31659.5,0.686969,0.686708,1.69825,48,0.046614,10,0.0011662,-2.77,0.07655,0.770738,0.68596,
2,1,0,0,0,31660.3,0.690965,0.690668,1.91135,48,0.0480634,10,0.00132011,-2.71866,0.0763902,0.77235,0.689827,
2,1,0,1,0,31661.1,0.69496,0.694696,2.14637,48,0.0496916,10,0.00149108,-2.66829,0.0768344,0.767885,0.693751,
2,1,0,0,0,31661.9,0.698955,0.698671,2.40598,48,0.0515172,10,0.00168099,-2.61871,0.0797396,0.739909,0.697613,
2,1,0,1,0,31662.7,0.70295,0.70266,2.68799,48,0.0535596,10,0.00188874,-2.57057,0.0811837,0.726747,0.701477,
2,1,0,1,0,31663.5,0.706945,0.706674,2.99651,48,0.055838,10,0.00211756,-2.52338,0.0836949,0.704941,0.705356,
2,1,0,1,0,31664.3,0.71094,0.71066,3.328,48,0.0583713,10,0.00236507,-2.47782,0.0843152,0.699755,0.709195,
2,1,0,1,0,31665.1,0.714936,0.714676,3.68443,48,0.0611807,10,0.00263317,-2.43363,0.0878346,0.671717,0.713055,
2,1,0,0,0,31665.9,0.718931,0.718649,4.06748,48,0.0642846,10,0.00292309,-2.39067,0.0914428,0.645212,0.71686,
2,1,0,1,0,31666.7,0.722927,0.722619,4.47229,48,0.0677038,10,0.00323176,-2.34947,0.0938435,0.628707,0.720651,
2,1,0,1,0,31667.5,0.726921,0.726679,4.90383,48,0.0714568,10,0.00356351,-2.30946,0.0950991,0.620406,0.724521,
2,1,0,1,0,31668.3,0.730916,0.730603,5.36047,48,0.0755642,10,0.00391638,-2.2708,0.101734,0.579944,0.728245,
2,1,0,1,0,31669.1,0.734911,0.734662,5.84105,48,0.0800464,10,0.0042912,-2.23351,0.10205,0.578149,0.732092,
2,1,0,0,0,31669.9,0.738907,0.73863,6.34953,48,0.0849241,10,0.00468995,-2.19726,0.105618,0.558619,0.735836,
2,1,0,1,0,31670.7,0.742902,0.742586,6.88174,48,0.0902169,10,0.00511028,-2.1623,0.110119,0.535785,0.739558,
2,1,0,1,0,31671.5,0.746897,0.746648,7.44036,48,0.0959473,10,0.00555532,-2.12841,0.109982,0.536453,0.743374,
2,1,0,1,0,31672.2,0.750892,0.750614,8.03024,48,0.102135,10,0.00602761,-2.09527,0.115429,0.511135,0.747081,
2,1,0,1,0,31673,0.754887,0.754615,8.64696,48,0.108805,10,0.00652512,-2.06314,0.116457,0.506623,0.75081,
2,1,0,0,0,31673.8,0.758883,0.758644,9.29732,48,0.115982,10,0.00705335,-2.03164,0.118564,0.497621,0.754553,
2,1,0,1,0,31674.6,0.762878,0.762624,9.98067,48,0.12369,10,0.0076115,-2.00084,0.12103,0.487482,0.758233,
2,1,0,0,0,31675.4,0.766873,0.766593,10.7044,48,0.13196,10,0.00820593,-1.97044,0.122081,0.483287,0.761883,
2,1,0,1,0,31676.2,0.770868,0.770546,11.4672,48,0.140826,10,0.00883603,-1.94054,0.122595,0.48126,0.7655,
2,1,0,1,0,31677,0.774863,0.774603,12.2827,48,0.150321,10,0.00951423,-1.91071,0.119813,0.492432,0.769198,
2,1,0,1,0,31677.8,0.778858,0.778591,13.1667,48,0.160495,10,0.0102515,-1.88052,0.11985,0.492282,0.772797,
2,1,0,1,0,31678.6,0.782854,0.782575,14.1031,48,0.171397,10,0.0110367,-1.85068,0.119313,0.494499,0.77637,
2,1,0,0,0,31679.4,0.786849,0.786562,15.1065,48,0.183074,10,0.0118822,-1.82084,0.119855,0.49226,0.779915,
2,1,0,1,0,31680.2,0.790844,0.790548,16.1998,48,0.195584,10,0.0128068,-1.79049,0.116574,0.506117,0.78342,
2,1,0,1,0,31681,0.794839,0.794587,17.3523,48,0.208994,10,0.0137879,-1.76064,0.127495,0.462764,0.786952,
2,1,0,1,0,31681.8,0.798834,0.798545,18.4663,48,0.223288,10,0.0147461,-1.73362,0.117482,0.502204,0.790419,
2,1,0,1,0,31682.6,0.802829,0.802548,19.7456,48,0.238562,10,0.0158468,-1.70453,0.117775,0.500954,0.79386,
2,1,0,0,0,31683.4,0.806825,0.80655,21.109,48,0.254888,10,0.0170255,-1.67553,0.116375,0.506982,0.797262,
2,1,0,1,0,31684.2,0.81082,0.81053,22.4896,48,0.272317,10,0.0182285,-1.64802,0.127895,0.461315,0.800635,
2,1,0,1,0,31685,0.814815,0.814557,23.9263,48,0.290868,10,0.0194893,-1.62112,0.124704,0.473121,0.80403,
2,1,0,1,0,31685.8,0.81881,0.818554,25.3943,48,0.310583,10,0.0207866,-1.59526,0.131225,0.449608,0.80738,
2,1,0,1,0,31686.6,0.822805,0.82253,26.9255,48,0.331495,10,0.022147,-1.56984,0.136943,0.430836,0.810683,
2,1,0,0,0,31687.4,0.826801,0.826563,28.45,48,0.35363,10,0.0235157,-1.54592,0.138608,0.42566,0.814045,
2,1,0,1,0,31688.2,0.830796,0.83052,30.0083,48,0.376998,10,0.0249225,-1.52276,0.145717,0.404894,0.817317,
2,1,0,0,0,31689,0.834791,0.83452,31.6017,48,0.401625,10,0.0263723,-1.50029,0.153379,0.384667,0.820615,
2,1,0,1,0,31689.8,0.838786,0.838492,33.1786,48,0.427513,10,0.02782,-1.47914,0.155284,0.37995,0.823893,
2,1,0,1,0,31690.6,0.842781,0.84254,34.7882,48,0.454683,10,0.0293104,-1.45857,0.172883,0.341272,0.827233,
2,1,0,1,0,31691.4,0.846776,0.846538,36.0355,48,0.483071,10,0.0305054,-1.44327,0.211653,0.278758,0.830683,
2,1,0,0,0,31692.1,0.849723,0.849464,37.0968,48,0.508785,10,0.0315124,-1.43066,0.0405464,1.45512,0.833142,
2,1,0,1,0,31692.9,0.845728,0.845508,34.7063,48,0.53738,10,0.0293445,-1.45959,0.121904,0.483987,0.830237,
2,1,0,0,0,31693.7,0.841732,0.841484,32.7289,48,0.564307,10,0.0275408,-1.48507,0.126344,0.466981,0.827083,
2,1,0,1,0,31694.5,0.837737,0.837471,30.8909,48,0.589715,10,0.0258702,-1.51017,0.122329,0.482308,0.823879,
2,1,0,1,0,31695.3,0.833742,0.833499,29.1094,48,0.613661,10,0.0242626,-1.53597,0.129152,0.456825,0.820691,
2,1,0,1,0,31696.1,0.829747,0.82952,27.4631,48,0.636245,10,0.0227812,-1.56125,0.127495,0.462764,0.817437,
2,1,0,1,0,31696.9,0.825752,0.825473,25.8613,48,0.657537,10,0.0213478,-1.58735,0.126385,0.466826,0.814094,
2,1,0,0,0,31697.7,0.821757,0.821495,24.2977,48,0.67756,10,0.0199605,-1.61443,0.119722,0.492807,0.810804,
2,1,0,1,0,31698.5,0.817761,0.817484,22.806,48,0.696361,10,0.0186435,-1.64195,0.121919,0.483929,0.80745,
2,1,0,1,0,31699.3,0.813766,0.813476,21.4054,48,0.714013,10,0.0174128,-1.66948,0.122897,0.480076,0.804057,
2,1,0,1,0,31700.1,0.809771,0.80949,20.0964,48,0.730572,10,0.0162678,-1.69688,0.124656,0.473303,0.800648,
2,1,0,1,0,31700.9,0.805776,0.805481,18.8024,48,0.746102,10,0.015145,-1.72579,0.115052,0.512809,0.797208,
2,1,0,0,0,31701.7,0.801781,0.801496,17.5606,48,0.760616,10,0.0140747,-1.75546,0.117388,0.502608,0.793769,
2,1,0,1,0,31702.5,0.797786,0.797524,16.3875,48,0.774162,10,0.0130694,-1.78549,0.113964,0.517706,0.790314,
2,1,0,1,0,31703.3,0.79379,0.793511,15.2874,48,0.786805,10,0.0121307,-1.81567,0.116287,0.507365,0.786785,
2,1,0,1,0,31704.1,0.789795,0.78952,14.2068,48,0.798579,10,0.0112165,-1.84751,0.10945,0.539061,0.78327,
2,1,0,1,0,31704.9,0.7858,0.785503,13.2104,48,0.809517,10,0.0103768,-1.87908,0.113505,0.519799,0.77969,
2,1,0,0,0,31705.7,0.781805,0.781514,12.2757,48,0.819687,10,0.00959365,-1.91095,0.111596,0.528694,0.776112,
2,1,0,1,0,31706.5,0.77781,0.777513,11.3665,48,0.829124,10,0.0088376,-1.94437,0.107905,0.546776,0.772511,
2,1,0,0,0,31707.3,0.773815,0.773522,10.5206,48,0.837854,10,0.00813792,-1.97796,0.1071,0.550887,0.768893,
2,1,0,1,0,31708.1,0.769819,0.769525,9.73726,48,0.845935,10,0.00749306,-2.01156,0.106666,0.55313,0.765241,
2,1,0,1,0,31708.9,0.765824,0.765576,8.99701,48,0.853406,10,0.00688789,-2.0459,0.105763,0.55785,0.761617,
2,1,0,1,0,31709.7,0.761829,0.761563,8.30096,48,0.860304,10,0.00632171,-2.08087,0.106705,0.552926,0.757911,
2,1,0,1,0,31710.5,0.757834,0.757523,7.64309,48,0.866663,10,0.00578982,-2.11673,0.100265,0.588443,0.75416,
2,1,0,0,0,31711.3,0.753839,0.753528,7.0204,48,0.872509,10,0.00529007,-2.15364,0.101187,0.583077,0.750439,
2,1,0,1,0,31712.1,0.749844,0.74957,6.43788,48,0.877875,10,0.00482564,-2.19126,0.0971319,0.607421,0.746737,
2,1,0,1,0,31712.9,0.745848,0.745565,5.89255,48,0.88279,10,0.00439329,-2.2297,0.0980289,0.601864,0.742973,
2,1,0,1,0,31713.7,0.741853,0.741565,5.37941,48,0.887282,10,0.00398918,-2.26927,0.0933419,0.632085,0.739198,
2,1,0,1,0,31714.5,0.737858,0.737589,4.89844,48,0.891377,10,0.00361303,-2.30994,0.0918033,0.642678,0.735433,
2,1,0,0,0,31715.3,0.733863,0.73361,4.44821,48,0.8951,10,0.00326325,-2.35181,0.0894314,0.659723,0.731652,
2,1,0,1,0,31716.1,0.729868,0.729598,4.02552,48,0.898474,10,0.00293701,-2.39518,0.0867515,0.680104,0.727827,
2,1,0,1,0,31716.9,0.725872,0.725569,3.63314,48,0.901524,10,0.00263609,-2.43972,0.0845207,0.698053,0.723971,
2,1,0,1,0,31717.7,0.721877,0.721591,3.26633,48,0.90427,10,0.00235696,-2.48594,0.0821621,0.718093,0.720154,
2,1,0,1,0,31718.5,0.717882,0.717614,2.9253,48,0.906733,10,0.00209924,-2.53383,0.0780096,0.756317,0.716327,
2,1,0,0,0,31719.3,0.713887,0.71362,2.61047,48,0.908935,10,0.00186288,-2.58328,0.0775164,0.761129,0.712471,
2,1,0,1,0,31720.1,0.709892,0.709566,2.31838,48,0.910894,10,0.00164504,-2.63482,0.0730601,0.807554,0.708546,
2,1,0,0,0,31720.9,0.705897,0.70564,2.04738,48,0.912628,10,0.00144471,-2.6888,0.0703549,0.838605,0.70474,
2,1,0,1,0,31721.7,0.701901,0.70162,1.80065,48,0.914155,10,0.00126337,-2.74457,0.0682988,0.863851,0.700828,
2,1,0,1,0,31722.5,0.697906,0.697628,1.57244,48,0.915492,10,0.00109698,-2.80343,0.0658762,0.895619,0.696936,
2,1,0,1,0,31723.3,0.693911,0.693596,1.3671,48,0.916657,10,0.000948212,-2.8642,0.0628076,0.939376,0.692994,
2,1,0,1,0,31724.1,0.689916,0.689656,1.18011,48,0.917665,10,0.000813872,-2.92808,0.0591185,0.997996,0.689137,
2,1,0,0,0,31724.9,0.685921,0.685642,1.01176,48,0.91853,10,0.000693707,-2.99492,0.0574145,1.02761,0.685197,
2,1,0,1,0,31725.7,0.681926,0.681643,0.861247,48,0.919269,10,0.000587063,-3.06487,0.0542733,1.08709,0.681264,
2,1,0,1,0,31726.5,0.67793,0.677681,0.72541,48,0.919893,10,0.000491596,-3.13942,0.0526561,1.12048,0.677362,
2,1,0,1,0,31727.3,0.673935,0.673693,0.605449,48,0.920416,10,0.000407887,-3.21792,0.0481937,1.22423,0.673427,
2,1,0,1,0,31728.1,0.66994,0.669649,0.503475,48,0.920849,10,0.000337152,-3.29802,0.0470693,1.25347,0.669428,
2,1,0,0,0,31728.9,0.665945,0.665616,0.410623,48,0.921204,10,0.000273317,-3.38656,0.0441723,1.33568,0.665436,
2,1,0,1,0,31729.7,0.66195,0.661667,0.330985,48,0.921491,10,0.000219002,-3.48019,0.0410753,1.43639,0.661522,
2,1,0,0,0,31730.5,0.657955,0.657698,0.262774,48,0.921719,10,0.000172826,-3.58042,0.0378619,1.5583,0.657583,
2,1,0,1,0,31731.3,0.653959,0.653679,0.202787,48,0.921896,10,0.000132558,-3.69296,0.0349122,1.68995,0.65359,
2,1,0,1,0,31732.1,0.649964,0.649668,0.153395,48,0.922029,10,9.96555e-05,-3.81419,0.0291764,2.02218,0.6496,
2,1,0,1,0,31732.9,0.64597,0.645692,0.109248,48,0.922125,10,7.05408e-05,-3.96158,0.0247822,2.38074,0.645644,
2,1,0,1,0,31733.7,0.641974,0.641713,0.0733814,48,0.92219,10,4.70898e-05,-4.13441,0.0204057,2.89135,0.64168,
2,1,0,0,0,31734.5,0.637979,0.637689,0.0436763,48,0.922228,10,2.78519e-05,-4.35975,0.0140976,4.18511,0.637669,
2,1,0,1,0,31735.3,0.633983,0.633717,0.018414,48,0.922243,10,1.16693e-05,-4.73485,0.00675508,8.73416,0.633709,
2,0,0,1,0,31736.1,0.629988,0.62973,-0.00345449,48,0.92224,10,-2.1754e-06,-5.46162,-0.018527,-3.18453,0.629731,
2,0,0,1,0,31736.9,0.625993,0.625687,-0.0206503,48,0.922221,10,-1.29206e-05,-4.68507,-0.0110205,-5.35368,0.625696,
2,0,0,1,0,31737.7,0.621998,0.621728,-0.0355391,48,0.92219,10,-2.20957e-05,-4.44929,-0.0250501,-2.35528,0.621744,
2,0,0,0,0,31738.5,0.618003,0.617687,-0.0477724,48,0.922148,10,-2.95084e-05,-4.32082,-0.0360415,-1.637,0.617708,
2,0,0,1,0,31739.3,0.614008,0.613642,-0.0580593,48,0.922097,10,-3.56276e-05,-4.23613,-0.0600079,-0.983204,0.613667,
2,0,0,1,0,31740.1,0.610012,0.609723,-0.066446,48,0.922038,10,-4.05137e-05,-4.17753,-0.0765631,-0.770606,0.609752,
2,0,0,1,0,31740.9,0.606017,0.605713,-0.0739629,48,0.921972,10,-4.48003e-05,-4.13099,-0.0982796,-0.600328,0.605745,
2,0,0,1,0,31741.7,0.602022,0.601716,-0.0819276,48,0.921901,10,-4.92972e-05,-4.08657,-0.137233,-0.429927,0.601752,
2,0,0,0,0,31742.5,0.598027,0.597695,-0.0811184,48,0.921825,10,-4.84841e-05,-4.09088,-0.190091,-0.310377,0.597731,
2,0,0,1,0,31743.3,0.594032,0.593724,-0.089936,48,0.921747,10,-5.33972e-05,-4.04607,-0.180623,-0.326646,0.593764,
2,0,0,0,0,31744.1,0.590037,0.589726,-0.0946724,48,0.921664,10,-5.58308e-05,-4.02378,-0.292582,-0.201653,0.589768,
2,0,0,1,0,31744.9,0.586041,0.585795,-0.0980083,48,0.921578,10,-5.74128e-05,-4.00874,-0.21885,-0.269592,0.585838,
2,0,0,1,0,31745.7,0.582046,0.581739,-0.10075,48,0.92149,10,-5.86101e-05,-3.99676,-0.326146,-0.180901,0.581783,
2,0,0,1,0,31746.5,0.578052,0.577713,-0.10334,48,0.921399,10,-5.97006e-05,-3.98573,-0.412737,-0.142948,0.577759,
2,0,0,1,0,31747.3,0.574056,0.573763,-0.105099,48,0.921307,10,-6.0302e-05,-3.9784,-0.345904,-0.170568,0.573809,
2,0,0,0,0,31748.1,0.570061,0.569722,-0.107169,48,0.921212,10,-6.10566e-05,-3.96993,346.169,0.000170437,0.569769,
2,0,0,1,0,31748.9,0.566065,0.565757,-0.109165,48,0.921117,10,-6.17608e-05,-3.96192,-0.361664,-0.163135,0.565805,
2,0,0,1,0,31749.7,0.56207,0.561742,-0.11032,48,0.92102,10,-6.19712e-05,-3.95735,-1.57481,-0.0374649,0.56179,
2,0,0,1,0,31750.5,0.558075,0.557785,-0.111507,48,0.920922,10,-6.21971e-05,-3.9527,-0.502178,-0.117488,0.557834,
2,0,0,1,0,31751.3,0.55408,0.553785,-0.113097,48,0.920823,10,-6.26316e-05,-3.94655,-0.566416,-0.104164,0.553835,
2,0,0,0,0,31752.1,0.550085,0.549771,-0.114373,48,0.920723,10,-6.28791e-05,-3.94168,-3.72263,-0.015849,0.549822,
2,0,0,1,0,31752.9,0.54609,0.545773,-0.116027,48,0.920623,10,-6.33242e-05,-3.93544,-1.10262,-0.0535091,0.545824,
2,0,0,1,0,31753.7,0.542094,0.541799,-0.116287,48,0.920521,10,-6.3004e-05,-3.93447,-1.37275,-0.0429795,0.54185,
2,0,0,1,0,31754.5,0.538099,0.537824,-0.11718,48,0.920418,10,-6.30222e-05,-3.93115,-1.64766,-0.0358083,0.537876,
2,0,0,1,0,31755.2,0.534104,0.533792,-0.118463,48,0.920315,10,-6.32349e-05,-3.92642,-0.622822,-0.0947301,0.533844,
2,0,0,0,0,31756,0.530109,0.529825,-0.119484,48,0.92021,10,-6.33054e-05,-3.92269,-0.81864,-0.0720707,0.529877,
2,0,0,1,0,31756.8,0.526114,0.525829,-0.121057,48,0.920105,10,-6.36555e-05,-3.91701,-3.57583,-0.0164997,0.525883,
2,0,0,0,0,31757.6,0.522119,0.521827,-0.121811,48,0.919999,10,-6.35644e-05,-3.91431,-1.03832,-0.0568226,0.521881,
2,0,0,1,0,31758.4,0.518123,0.51781,-0.121892,48,0.919892,10,-6.31169e-05,-3.91402,-1.40269,-0.0420622,0.517864,
2,0,0,1,0,31759.2,0.514128,0.513827,-0.123586,48,0.919785,10,-6.35017e-05,-3.90803,-0.49573,-0.119016,0.513882,
2,0,0,1,0,31760,0.510133,0.509858,-0.124127,48,0.919676,10,-6.32869e-05,-3.90614,-1.57593,-0.0374383,0.509912,
2,0,0,1,0,31760.8,0.506138,0.50584,-0.126467,48,0.919567,10,-6.39718e-05,-3.89802,-3.58821,-0.0164427,0.505895,
2,0,0,0,0,31761.6,0.502143,0.501872,-0.126132,48,0.919457,10,-6.33023e-05,-3.89917,-0.4039,-0.146076,0.501927,
2,0,0,1,0,31762.4,0.498148,0.497843,-0.128325,48,0.919345,10,-6.38856e-05,-3.89169,1.50543,0.0391914,0.497899,
2,0,0,1,0,31763.2,0.494152,0.493858,-0.129368,48,0.919233,10,-6.38892e-05,-3.88817,-0.494055,-0.11942,0.493915,
2,0,0,1,0,31764,0.490157,0.489825,-0.129578,48,0.91912,10,-6.34703e-05,-3.88747,-2.06051,-0.0286337,0.489882,
2,0,0,1,0,31764.8,0.486162,0.485837,-0.130883,48,0.919006,10,-6.35881e-05,-3.88312,-1.47906,-0.0398903,0.485895,
2,0,0,0,0,31765.6,0.482167,0.481869,-0.131651,48,0.918891,10,-6.34383e-05,-3.88058,-0.873601,-0.0675365,0.481927,
2,0,0,1,0,31766.4,0.478172,0.47785,-0.132503,48,0.918775,10,-6.33166e-05,-3.87777,-1.59472,-0.036997,0.477908,
2,0,0,0,0,31767.2,0.474177,0.473868,-0.135478,48,0.918658,10,-6.41987e-05,-3.86813,-1.68494,-0.035016,0.473928,
2,0,0,1,0,31768,0.470181,0.469845,-0.136334,48,0.918541,10,-6.40557e-05,-3.8654,-0.548651,-0.107536,0.469905,
2,0,0,1,0,31768.8,0.466186,0.465889,-0.137967,48,0.918421,10,-6.42774e-05,-3.86022,-1.9374,-0.0304531,0.46595,
2,0,0,1,0,31769.6,0.462191,0.46187,-0.138999,48,0.918301,10,-6.41996e-05,-3.85699,-0.476872,-0.123723,0.461931,
2,0,0,1,0,31770.4,0.458196,0.457929,-0.140365,48,0.91818,10,-6.42773e-05,-3.85274,-1.86066,-0.0317092,0.457991,
2,0,0,0,0,31771.2,0.454201,0.453884,-0.141804,48,0.918057,10,-6.43624e-05,-3.84831,-0.912521,-0.0646561,0.453946,
2,0,0,1,0,31772,0.450205,0.449905,-0.143559,48,0.917934,10,-6.45879e-05,-3.84297,-0.652245,-0.0904569,0.449968,
2,0,0,1,0,31772.8,0.44621,0.445933,-0.144963,48,0.917808,10,-6.46436e-05,-3.83874,-2.4209,-0.0243711,0.445997,
2,0,0,1,0,31773.6,0.442215,0.441943,-0.146296,48,0.917682,10,-6.46546e-05,-3.83477,-0.736877,-0.0800676,0.442007,
2,0,0,1,0,31774.4,0.43822,0.437914,-0.147509,48,0.917555,10,-6.45961e-05,-3.83118,-0.746072,-0.0790808,0.437979,
2,0,0,0,0,31775.2,0.434225,0.433943,-0.149586,48,0.917426,10,-6.49118e-05,-3.82511,-1.45452,-0.0405633,0.434009,
2,0,0,1,0,31776,0.43023,0.429919,-0.15175,48,0.917295,10,-6.52403e-05,-3.81887,-0.498802,-0.118284,0.429986,
2,0,0,1,0,31776.8,0.426234,0.425964,-0.153588,48,0.917164,10,-6.54228e-05,-3.81364,-0.647787,-0.0910793,0.426032,
2,0,0,1,0,31777.6,0.422239,0.421954,-0.15469,48,0.917031,10,-6.52719e-05,-3.81054,-2.87918,-0.0204919,0.422022,
2,0,0,1,0,31778.4,0.418244,0.41795,-0.156255,48,0.916896,10,-6.5307e-05,-3.80616,-0.884753,-0.0666853,0.418019,
2,0,0,0,0,31779.2,0.414249,0.413951,-0.157441,48,0.91676,10,-6.51728e-05,-3.80288,-0.574439,-0.102709,0.41402,
2,0,0,1,0,31780,0.410254,0.409964,-0.160147,48,0.916622,10,-6.56545e-05,-3.79548,-1.83339,-0.0321808,0.410034,
2,0,0,0,0,31780.8,0.406259,0.40594,-0.162623,48,0.916483,10,-6.6015e-05,-3.78882,-0.480287,-0.122843,0.406011,
2,0,0,1,0,31781.6,0.402263,0.401904,-0.163968,48,0.916342,10,-6.58995e-05,-3.78524,-0.678151,-0.0870013,0.401976,
2,0,0,1,0,31782.4,0.398268,0.398004,-0.166024,48,0.9162,10,-6.60782e-05,-3.77983,-0.697906,-0.0845386,0.398077,
2,0,0,1,0,31783.2,0.394274,0.393995,-0.168127,48,0.916055,10,-6.6241e-05,-3.77436,-1.66504,-0.0354345,0.394069,
2,0,0,1,0,31784,0.390278,0.389929,-0.169536,48,0.91591,10,-6.61068e-05,-3.77074,-0.559348,-0.10548,0.390003,
2,0,0,0,0,31784.8,0.386283,0.385975,-0.171834,48,0.915762,10,-6.63237e-05,-3.76489,-0.666079,-0.088578,0.386051,
2,0,0,1,0,31785.6,0.382287,0.382005,-0.174121,48,0.915613,10,-6.6515e-05,-3.75915,-3.39426,-0.0173823,0.382081,
2,0,0,1,0,31786.4,0.378292,0.37801,-0.176565,48,0.915462,10,-6.67434e-05,-3.75309,-1.18608,-0.0497437,0.378087,
2,0,0,1,0,31787.2,0.374297,0.373964,-0.176937,48,0.91531,10,-6.61682e-05,-3.75218,-0.515306,-0.114495,0.374041,
2,0,0,1,0,31788,0.370303,0.370029,-0.179318,48,0.915156,10,-6.63528e-05,-3.74638,-0.633938,-0.093069,0.370107,
2,0,0,0,0,31788.8,0.366307,0.365993,-0.18201,48,0.915,10,-6.66146e-05,-3.7399,-0.804331,-0.0733529,0.366073,
2,0,0,1,0,31789.6,0.362312,0.362043,-0.184879,48,0.914842,10,-6.6934e-05,-3.73311,-0.838364,-0.0703752,0.362124,
2,0,0,1,0,31790.4,0.358316,0.357969,-0.186254,48,0.914682,10,-6.66732e-05,-3.72989,-0.643391,-0.0917016,0.358051,
2,0,0,1,0,31791.2,0.354321,0.353984,-0.189552,48,0.91452,10,-6.70983e-05,-3.72227,-0.802144,-0.0735529,0.354068,
2,0,0,1,0,31792,0.350327,0.349999,-0.191739,48,0.914357,10,-6.71084e-05,-3.71729,-0.59037,-0.0999374,0.350084,
2,0,0,0,0,31792.8,0.346331,0.345976,-0.194216,48,0.914191,10,-6.7194e-05,-3.71172,-2.18459,-0.0270074,0.346061,
2,0,0,1,0,31793.6,0.342336,0.342009,-0.195428,48,0.914023,10,-6.6838e-05,-3.70901,-0.579201,-0.101864,0.342095,
2,0,0,0,0,31794.4,0.338341,0.338028,-0.198387,48,0.913854,10,-6.70603e-05,-3.70249,-0.725574,-0.0813149,0.338115,
2,0,0,1,0,31795.2,0.334345,0.334023,-0.199954,48,0.913683,10,-6.67891e-05,-3.69907,-1.14081,-0.0517174,0.334111,
2,0,0,1,0,31796,0.33035,0.329999,-0.202301,48,0.91351,10,-6.67592e-05,-3.694,-0.470487,-0.125402,0.330088,
2,0,0,1,0,31796.8,0.326355,0.325997,-0.205514,48,0.913335,10,-6.69969e-05,-3.68716,-1.62483,-0.0363114,0.326088,
2,0,0,1,0,31797.6,0.32236,0.322028,-0.207767,48,0.913158,10,-6.69067e-05,-3.68242,-0.80057,-0.0736975,0.322119,
2,0,0,0,0,31798.4,0.318365,0.318044,-0.209339,48,0.912979,10,-6.6579e-05,-3.67915,-0.771328,-0.0764915,0.318136,
2,0,0,1,0,31799.2,0.31437,0.314052,-0.211744,48,0.912798,10,-6.64987e-05,-3.67419,-3.85595,-0.015301,0.314146,
2,0,0,1,0,31800,0.310374,0.310043,-0.214,48,0.912616,10,-6.63491e-05,-3.66959,-0.44769,-0.131788,0.310137,
2,0,0,1,0,31800.8,0.306379,0.30604,-0.216204,48,0.912431,10,-6.6167e-05,-3.66514,-0.714394,-0.0825875,0.306135,
2,0,0,1,0,31801.6,0.302385,0.302083,-0.218871,48,0.912245,10,-6.61172e-05,-3.65981,-0.926089,-0.0637088,0.302179,
2,0,0,0,0,31802.4,0.298389,0.298048,-0.222422,48,0.912056,10,-6.62924e-05,-3.65282,-0.75346,-0.0783054,0.298145,
2,0,0,1,0,31803.2,0.294394,0.294094,-0.224823,48,0.911865,10,-6.61193e-05,-3.64816,-0.830297,-0.0710589,0.294193,
2,0,0,1,0,31804,0.290398,0.290125,-0.22652,48,0.911673,10,-6.5719e-05,-3.64489,-2.11719,-0.0278671,0.290224,
2,0,0,1,0,31804.8,0.286403,0.286086,-0.228497,48,0.911478,10,-6.53697e-05,-3.64112,-0.685595,-0.0860567,0.286187,
2,0,0,1,0,31805.6,0.282408,0.2821,-0.231424,48,0.911282,10,-6.52849e-05,-3.63559,-0.773782,-0.0762489,0.282202,
2,0,0,1,0,31806.4,0.278414,0.278135,-0.233987,48,0.911083,10,-6.50798e-05,-3.63081,-0.8488,-0.0695099,0.278238,
2,0,0,1,0,31807.2,0.274418,0.274104,-0.237663,48,0.910882,10,-6.51444e-05,-3.62404,-0.907922,-0.0649835,0.274208,
2,0,0,0,0,31808,0.270423,0.27011,-0.241304,48,0.910679,10,-6.51787e-05,-3.61744,-0.634332,-0.0930113,0.270216,
2,0,0,1,0,31808.8,0.266427,0.266148,-0.242773,48,0.910473,10,-6.46136e-05,-3.6148,-0.696532,-0.0847053,0.266255,
2,0,0,1,0,31809.6,0.262432,0.262103,-0.246132,48,0.910266,10,-6.4512e-05,-3.60883,-1.69179,-0.0348743,0.262211,
2,0,0,1,0,31810.4,0.258437,0.258105,-0.248333,48,0.910057,10,-6.40958e-05,-3.60497,-0.645649,-0.0913809,0.258214,
2,0,0,1,0,31811.2,0.254442,0.254139,-0.249842,48,0.909845,10,-6.34947e-05,-3.60233,-0.968819,-0.0608989,0.254249,
2,0,0,0,0,31812,0.250447,0.250089,-0.252906,48,0.909632,10,-6.32489e-05,-3.59704,-3.09609,-0.0190563,0.2502,
2,0,0,1,0,31812.8,0.246452,0.246134,-0.25483,48,0.909417,10,-6.27225e-05,-3.59375,-0.639939,-0.0921963,0.246246,
2,0,0,1,0,31813.6,0.242456,0.242117,-0.257074,48,0.909199,10,-6.22421e-05,-3.58994,-1.37828,-0.042807,0.242231,
2,0,0,1,0,31814.4,0.238461,0.238132,-0.259651,48,0.90898,10,-6.18312e-05,-3.58561,-0.730898,-0.0807227,0.238247,
2,0,0,1,0,31815.2,0.234467,0.234119,-0.260412,48,0.90876,10,-6.09676e-05,-3.58434,-0.890915,-0.0662241,0.234234,
2,0,0,0,0,31816,0.230471,0.230142,-0.264886,48,0.908537,10,-6.09615e-05,-3.57694,-1.43511,-0.0411118,0.230259,
2,0,0,1,0,31816.8,0.226476,0.22618,-0.266978,48,0.908312,10,-6.0385e-05,-3.57352,-0.731992,-0.080602,0.226297,
2,0,0,0,0,31817.6,0.222481,0.22217,-0.267956,48,0.908085,10,-5.95318e-05,-3.57194,-1.40419,-0.0420172,0.222288,
2,0,0,1,0,31818.4,0.218485,0.2182,-0.272923,48,0.907855,10,-5.95517e-05,-3.56396,-2.41566,-0.024424,0.21832,
2,0,0,1,0,31819.2,0.21449,0.214163,-0.274825,48,0.907624,10,-5.88573e-05,-3.56094,-0.638063,-0.0924674,0.214284,
2,0,0,1,0,31820,0.210496,0.210186,-0.27745,48,0.907391,10,-5.83162e-05,-3.55681,-0.796157,-0.074106,0.210308,
2,0,0,1,0,31820.8,0.2065,0.206182,-0.280257,48,0.907155,10,-5.7784e-05,-3.55244,-1.08708,-0.054274,0.206306,
2,0,0,0,0,31821.6,0.202505,0.202175,-0.283173,48,0.906917,10,-5.72506e-05,-3.54795,-0.647818,-0.091075,0.2023,
2,0,0,1,0,31822.4,0.198509,0.198142,-0.287963,48,0.906676,10,-5.70577e-05,-3.54066,-0.587135,-0.100488,0.198269,
2,0,0,1,0,31823.2,0.194514,0.194201,-0.290889,48,0.906432,10,-5.64909e-05,-3.53627,-0.860823,-0.068539,0.194329,
2,0,0,1,0,31824,0.190519,0.190181,-0.293767,48,0.906185,10,-5.58689e-05,-3.532,-0.578805,-0.101934,0.19031,
2,0,0,1,0,31824.8,0.186524,0.1862,-0.298799,48,0.905934,10,-5.56364e-05,-3.52462,-1.34825,-0.0437603,0.186332,
2,0,0,0,0,31825.6,0.182529,0.182202,-0.303843,48,0.90568,10,-5.53609e-05,-3.51735,-0.423095,-0.139449,0.182336,
2,0,0,1,0,31826.4,0.178534,0.178255,-0.308493,48,0.905421,10,-5.49902e-05,-3.51076,-0.470169,-0.125487,0.17839,
2,0,0,1,0,31827.2,0.174538,0.17425,-0.31536,48,0.905158,10,-5.49516e-05,-3.50119,-0.457286,-0.129022,0.174389,
2,0,0,1,0,31828,0.170543,0.170215,-0.323096,48,0.90489,10,-5.49958e-05,-3.49067,-0.331319,-0.178076,0.170357,
2,0,0,1,0,31828.8,0.166549,0.1662,-0.331131,48,0.904614,10,-5.5034e-05,-3.48,-0.3464,-0.170323,0.166346,
2,0,0,0,0,31829.6,0.162553,0.162232,-0.342586,48,0.904331,10,-5.55784e-05,-3.46523,-0.247442,-0.23844,0.162383,
2,0,0,1,0,31830.4,0.158558,0.15825,-0.355694,48,0.904038,10,-5.62886e-05,-3.44892,-0.19024,-0.310135,0.158407,
2,0,0,0,0,31831.2,0.154563,0.154195,-0.374936,48,0.903733,10,-5.78132e-05,-3.42604,-0.203161,-0.29041,0.15436,
2,0,0,1,0,31832,0.150567,0.150267,-0.398291,48,0.903411,10,-5.985e-05,-3.3998,-0.125756,-0.469161,0.150442,
2,0,0,1,0,31832.8,0.146572,0.146256,-0.429415,48,0.903067,10,-6.28046e-05,-3.36712,-0.111722,-0.528095,0.146445,
2,0,0,1,0,31833.6,0.142578,0.142247,-0.472272,48,0.902694,10,-6.71791e-05,-3.32581,-0.0893752,-0.660138,0.142454,
2,0,0,1,0,31834.4,0.138582,0.138269,-0.521014,48,0.902284,10,-7.204e-05,-3.28315,-0.091673,-0.643592,0.138498,
2,0,0,0,0,31835.2,0.134587,0.13423,-0.575677,48,0.901831,10,-7.7273e-05,-3.23982,-0.0981427,-0.601165,0.134483,
2,0,0,1,0,31836,0.130591,0.130277,-0.627674,48,0.901335,10,-8.17715e-05,-3.20227,-0.11498,-0.513135,0.130553,
2,0,0,1,0,31836.8,0.126596,0.126259,-0.667087,48,0.900801,10,-8.42261e-05,-3.17582,-0.180266,-0.327295,0.126553,
2,0,0,1,0,31837.6,0.122602,0.122275,-0.699911,48,0.900239,10,-8.55814e-05,-3.15496,-0.28523,-0.20685,0.122583,
2,0,0,1,0,31838.3,0.118607,0.118276,-0.715913,48,0.899658,10,-8.46755e-05,-3.14514,-0.492422,-0.119816,0.118591,
2,0,0,0,0,31839.1,0.114611,0.11427,-0.722417,48,0.899067,10,-8.25503e-05,-3.14121,-10.2674,-0.00574633,0.114588,
2,0,0,1,0,31839.9,0.110616,0.110303,-0.721551,48,0.898476,10,-7.9589e-05,-3.14173,2.31948,0.0254368,0.11062,
2,0,0,1,0,31840.7,0.10662,0.106292,-0.716498,48,0.897887,10,-7.61579e-05,-3.14478,1.36682,0.043166,0.106607,
2,0,0,1,0,31841.5,0.102625,0.102318,-0.709086,48,0.897302,10,-7.2552e-05,-3.1493,0.627122,0.0940806,0.10263,
2,0,0,1,0,31842.3,0.0986305,0.0982989,-0.700989,48,0.896724,10,-6.89065e-05,-3.15429,0.916569,0.0643705,0.0986074,
2,0,0,0,0,31843.1,0.0946351,0.0943064,-0.687989,48,0.896153,10,-6.48817e-05,-3.16242,0.647889,0.091065,0.0946091,
2,0,0,1,0,31843.9,0.0906399,0.0903532,-0.678793,48,0.89559,10,-6.13311e-05,-3.16826,0.449292,0.131318,0.0906519,
2,0,0,0,0,31844.7,0.0866448,0.0863406,-0.669872,48,0.895037,10,-5.78371e-05,-3.17401,0.676926,0.0871588,0.0866354,
2,0,0,1,0,31845.5,0.0826492,0.0823374,-0.659152,48,0.894491,10,-5.42728e-05,-3.18101,0.626896,0.0941145,0.0826274,
2,0,0,1,0,31846.3,0.0786544,0.0783069,-0.649604,48,0.893955,10,-5.08684e-05,-3.18735,0.711302,0.0829465,0.0785927,
2,0,0,1,0,31847.1,0.0746596,0.0743679,-0.639444,48,0.893425,10,-4.75541e-05,-3.1942,0.738629,0.0798777,0.0746493,
2,0,0,1,0,31847.9,0.0706641,0.0703084,-0.631622,48,0.892903,10,-4.44083e-05,-3.19954,0.559157,0.105516,0.0705863,
2,0,0,0,0,31848.7,0.0666689,0.0663276,-0.623206,48,0.892388,10,-4.13358e-05,-3.20537,0.614133,0.0960704,0.0666018,
2,0,0,1,0,31849.5,0.0626737,0.0623267,-0.613593,48,0.89188,10,-3.82432e-05,-3.21212,0.697254,0.0846176,0.0625967,
2,0,0,1,0,31850.3,0.0586783,0.0583352,-0.605773,48,0.891378,10,-3.53379e-05,-3.21769,0.517915,0.113918,0.0586017,
2,0,0,1,0,31851.1,0.0546835,0.0543356,-0.595129,48,0.890885,10,-3.23367e-05,-3.22539,0.748997,0.078772,0.0545974,
2,0,0,1,0,31851.9,0.0506886,0.0503063,-0.585241,48,0.890398,10,-2.94413e-05,-3.23266,0.492378,0.119827,0.0505638,
2,0,0,0,0,31852.7,0.046693,0.0463538,-0.575895,48,0.889921,10,-2.66949e-05,-3.23966,0.481884,0.122436,0.0466072,
2,0,0,1,0,31853.5,0.0426979,0.0423645,-0.563717,48,0.889452,10,-2.38816e-05,-3.24894,0.529438,0.111439,0.0426126,
2,0,0,1,0,31854.3,0.0387022,0.0383503,-0.553814,48,0.888991,10,-2.1239e-05,-3.25664,0.421295,0.140044,0.038594,
2,0,0,1,0,31855.1,0.0347074,0.034405,-0.544454,48,0.888538,10,-1.87319e-05,-3.26404,0.546578,0.107944,0.0346445,
2,0,0,1,0,31855.9,0.0307126,0.0304128,-0.532585,48,0.888094,10,-1.61974e-05,-3.27361,0.505535,0.116708,0.0306472,
2,0,0,0,0,31856.7,0.0267172,0.0263439,-0.523432,48,0.887658,10,-1.37892e-05,-3.28114,0.436006,0.135319,0.0265742,
2,0,0,1,0,31857.5,0.022722,0.0223801,-0.515818,48,0.887229,10,-1.15441e-05,-3.2875,0.85601,0.0689244,0.0226071,
2,0,0,0,0,31858.3,0.0187268,0.0184036,-0.510053,48,0.886806,10,-9.38679e-06,-3.29238,0.697677,0.0845663,0.018628,
2,0,0,1,0,31859.1,0.0147313,0.0144223,-0.504452,48,0.886388,10,-7.27538e-06,-3.29718,1.43665,0.0410679,0.0146443,
2,0,0,1,0,31859.9,0.0107365,0.0103879,-0.501661,48,0.885973,10,-5.21119e-06,-3.29959,1.50207,0.0392792,0.0106086,
2,0,0,1,0,31860.7,0.00674163,0.00638419,-0.498071,48,0.885561,10,-3.17978e-06,-3.30271,5.2408,0.0112578,0.00660334,
2,0,0,1,0,31861.5,0.00274612,0.0023978,-0.498317,48,0.885149,10,-1.19486e-06,-3.30249,-1.49832,-0.0393775,0.00261706,
2,0,0,0,0,31862,0.000274105,-0.000138029,-0.499872,48,0.884891,10,6.8997e-08,-3.30114, , ,8.19146e-05,