File: Figure_codes/Fig_3-5/workspace_calculate_alpha_eff/20221101_1-115_003_TrumpetPlot_ParaChange_from10_every3_16_CV_C01_64.csv
mode,ox/red,error,control changes,counter inc.,time/s,control/V,Ewe/V,<I>/mA,cycle number,(Q-Qo)/C,I Range,P/W,log(|I|),Tafel slope mV/dec,alpha_eff,E-IR/V,
2,0,0,0,0,42972.9,2.44065e-05,-0.000306236,-0.098758,65,0.0000000E+000,10,3.02433e-08,-4.00543, , ,-0.000262783,
2,1,0,0,0,42973.6,0.00379485,0.00346139,0.15527,65,0.000100806,10,5.37451e-07,-3.80891,0.037054,1.59227,0.00339307,
2,1,0,1,0,42974.4,0.00779002,0.007457,0.178578,65,0.000247803,10,1.33166e-06,-3.74817,0.0756589,0.779816,0.00737843,
2,1,0,0,0,42975.2,0.0117852,0.0115131,0.194435,65,0.000410226,10,2.23854e-06,-3.71123,0.137157,0.430165,0.0114275,
2,1,0,1,0,42976,0.0157806,0.015459,0.209244,65,0.000584471,10,3.23469e-06,-3.67935,0.124277,0.474747,0.0153669,
2,1,0,1,0,42976.8,0.0197754,0.0194278,0.221737,65,0.000769335,10,4.30786e-06,-3.65416,0.161205,0.365994,0.0193302,
2,1,0,1,0,42977.6,0.0237704,0.0234412,0.235417,65,0.000964911,10,5.51845e-06,-3.62816,0.177252,0.33286,0.0233376,
2,1,0,1,0,42978.4,0.0277659,0.0274011,0.248928,65,0.00117097,10,6.8209e-06,-3.60393,0.162204,0.36374,0.0272916,
2,1,0,0,0,42979.2,0.0317611,0.0314307,0.262963,65,0.00138853,10,8.2651e-06,-3.58011,0.158275,0.37277,0.031315,
2,1,0,1,0,42980,0.0357567,0.0354554,0.277422,65,0.00161767,10,9.83608e-06,-3.55686,0.230648,0.255801,0.0353333,
2,1,0,1,0,42980.8,0.0397516,0.0394318,0.292674,65,0.00185757,10,1.15407e-05,-3.53362,0.156971,0.375866,0.039303,
2,1,0,1,0,42981.6,0.0437465,0.04341,0.305364,65,0.0021092,10,1.32558e-05,-3.51518,0.218482,0.270046,0.0432757,
2,1,0,1,0,42982.4,0.0477413,0.047402,0.319341,65,0.00237123,10,1.51374e-05,-3.49575,0.215401,0.273908,0.0472615,
2,1,0,0,0,42983.2,0.0517369,0.0513896,0.330581,65,0.00264345,10,1.69884e-05,-3.48072,0.243986,0.241817,0.0512442,
2,1,0,1,0,42984,0.0557321,0.055381,0.343261,65,0.00292604,10,1.90101e-05,-3.46438,0.308898,0.191002,0.05523,
2,1,0,1,0,42984.8,0.0597277,0.0593982,0.355022,65,0.00321761,10,2.10877e-05,-3.44974,0.287007,0.20557,0.059242,
2,1,0,1,0,42985.6,0.0637226,0.0634032,0.364386,65,0.0035181,10,2.31032e-05,-3.43844,0.297407,0.198382,0.0632429,
2,1,0,1,0,42986.4,0.0677174,0.0673623,0.375711,65,0.00382753,10,2.53088e-05,-3.42515,0.524987,0.112384,0.067197,
2,1,0,0,0,42987.2,0.0717128,0.0713422,0.384276,65,0.00414383,10,2.74151e-05,-3.41536,0.308321,0.191359,0.0711732,
2,1,0,1,0,42988,0.075708,0.0753442,0.3899,65,0.00446736,10,2.93767e-05,-3.40905,0.535294,0.11022,0.0751727,
2,1,0,0,0,42988.8,0.0797031,0.0793398,0.400634,65,0.00479689,10,3.17863e-05,-3.39725,0.390373,0.151138,0.0791636,
2,1,0,1,0,42989.6,0.0836986,0.0833272,0.408685,65,0.00513336,10,3.40546e-05,-3.38861,0.440207,0.134028,0.0831474,
2,1,0,1,0,42990.4,0.0876935,0.0873882,0.419632,65,0.00547759,10,3.66709e-05,-3.37713,0.347748,0.169663,0.0872036,
2,1,0,1,0,42991.2,0.0916883,0.0913412,0.434075,65,0.00583073,10,3.96489e-05,-3.36244,0.259323,0.227515,0.0911502,
2,1,0,1,0,42992,0.0956838,0.0953467,0.448085,65,0.00619639,10,4.27234e-05,-3.34864,0.214058,0.275626,0.0951495,
2,1,0,0,0,42992.8,0.099679,0.0994059,0.469879,65,0.00657684,10,4.67088e-05,-3.32801,0.232957,0.253265,0.0991992,
2,1,0,1,0,42993.6,0.103674,0.10333,0.491457,65,0.00697418,10,5.07825e-05,-3.30851,0.17189,0.343242,0.103114,
2,1,0,1,0,42994.4,0.10767,0.10738,0.512995,65,0.00739057,10,5.50857e-05,-3.28989,0.227795,0.259005,0.107155,
2,1,0,1,0,42995.2,0.111664,0.111333,0.533736,65,0.00782294,10,5.94226e-05,-3.27267,0.281035,0.209938,0.111098,
2,1,0,1,0,42996,0.115659,0.115281,0.549472,65,0.00826928,10,6.33437e-05,-3.26005,0.308287,0.19138,0.115039,
2,1,0,0,0,42996.8,0.119655,0.119346,0.562696,65,0.00872801,10,6.71554e-05,-3.24973,0.545614,0.108135,0.119098,
2,1,0,1,0,42997.6,0.12365,0.123356,0.57317,65,0.0091949,10,7.07041e-05,-3.24172,0.546067,0.108045,0.123104,
2,1,0,1,0,42998.4,0.127646,0.12735,0.582104,65,0.00966983,10,7.41312e-05,-3.235,0.970703,0.0607807,0.127094,
2,1,0,1,0,42999.2,0.131641,0.131322,0.58365,65,0.0101494,10,7.66463e-05,-3.23385,-0.928617,-0.0635353,0.131065,
2,1,0,1,0,43000,0.135635,0.135308,0.572619,65,0.0106255,10,7.74798e-05,-3.24213,-0.326809,-0.180534,0.135056,
2,1,0,0,0,43000.8,0.139631,0.139294,0.541071,65,0.0110854,10,7.5368e-05,-3.26675,-0.121107,-0.487172,0.139056,
2,1,0,1,0,43001.6,0.143626,0.143274,0.492456,65,0.0115128,10,7.0556e-05,-3.30763,-0.077402,-0.762254,0.143057,
2,1,0,0,0,43002.4,0.147621,0.147299,0.432427,65,0.011895,10,6.36962e-05,-3.36409,-0.0706365,-0.835263,0.147109,
2,1,0,1,0,43003.2,0.151617,0.151298,0.378561,65,0.0122315,10,5.72757e-05,-3.42186,-0.0755111,-0.781342,0.151132,
2,1,0,1,0,43004,0.155612,0.155277,0.342549,65,0.0125311,10,5.31899e-05,-3.46528,-0.110705,-0.532949,0.155126,
2,1,0,1,0,43004.8,0.159606,0.15925,0.317499,65,0.0128065,10,5.05617e-05,-3.49826,-0.148333,-0.397753,0.15911,
2,1,0,1,0,43005.6,0.163602,0.163277,0.303397,65,0.0130667,10,4.95378e-05,-3.51799,-0.184588,-0.319632,0.163144,
2,1,0,0,0,43006.4,0.167597,0.16729,0.291289,65,0.013316,10,4.87296e-05,-3.53568,-0.364957,-0.161663,0.167162,
2,1,0,1,0,43007.2,0.171592,0.171292,0.282694,65,0.0135586,10,4.84232e-05,-3.54868,-0.409209,-0.144181,0.171168,
2,1,0,1,0,43008,0.175588,0.175274,0.277647,65,0.0137954,10,4.86643e-05,-3.55651,-0.479561,-0.123029,0.175152,
2,1,0,1,0,43008.8,0.179582,0.179318,0.273958,65,0.0140281,10,4.91256e-05,-3.56232,-0.945337,-0.0624116,0.179198,
2,1,0,1,0,43009.6,0.183577,0.183246,0.270756,65,0.0142583,10,4.96148e-05,-3.56742,-0.638267,-0.0924379,0.183126,
2,1,0,0,0,43010.4,0.187573,0.187226,0.268356,65,0.0144858,10,5.02431e-05,-3.57129,-1.52525,-0.0386821,0.187108,
2,1,0,1,0,43011.2,0.191568,0.191243,0.265194,65,0.0147112,10,5.07165e-05,-3.57644,-0.847694,-0.0696006,0.191127,
2,1,0,0,0,43012,0.195563,0.195215,0.263319,65,0.014935,10,5.14038e-05,-3.57952,-0.663194,-0.0889635,0.195099,
2,1,0,1,0,43012.8,0.199559,0.199214,0.261192,65,0.0151569,10,5.20331e-05,-3.58304,-30.6599,-0.00192434,0.199099,
2,1,0,1,0,43013.6,0.203553,0.203204,0.259456,65,0.0153775,10,5.27224e-05,-3.58594,-1.57466,-0.0374685,0.203089,
2,1,0,1,0,43014.4,0.207548,0.20721,0.259266,65,0.0155971,10,5.37224e-05,-3.58625,-3.37421,-0.0174856,0.207095,
2,1,0,1,0,43015.2,0.211544,0.211231,0.256433,65,0.0158152,10,5.41667e-05,-3.59103,-1.17605,-0.0501679,0.211118,
2,1,0,0,0,43016,0.215539,0.215228,0.256009,65,0.0160323,10,5.51003e-05,-3.59174,-4.73544,-0.0124592,0.215115,
2,1,0,1,0,43016.8,0.219535,0.219181,0.25686,65,0.0162486,10,5.62989e-05,-3.5903,-1.21096,-0.0487218,0.219068,
2,1,0,1,0,43017.6,0.223529,0.223204,0.254491,65,0.0164637,10,5.68035e-05,-3.59433,-1.21776,-0.0484497,0.223092,
2,1,0,1,0,43018.4,0.227524,0.227194,0.252938,65,0.0166779,10,5.74661e-05,-3.59699,-1.7951,-0.0328672,0.227083,
2,1,0,1,0,43019.2,0.23152,0.231194,0.250778,65,0.0168908,10,5.79785e-05,-3.60071,-5.09858,-0.0115718,0.231084,
2,1,0,0,0,43020,0.235515,0.235178,0.249489,65,0.0171033,10,5.86743e-05,-3.60295,-3.25147,-0.0181456,0.235068,
2,1,0,1,0,43020.8,0.23951,0.239206,0.250541,65,0.0173151,10,5.99309e-05,-3.60112,-2.56899,-0.0229662,0.239095,
2,1,0,1,0,43021.6,0.243506,0.243171,0.248855,65,0.0175259,10,6.05143e-05,-3.60405,-4.79345,-0.0123085,0.243061,
2,1,0,1,0,43022.4,0.2475,0.247181,0.247794,65,0.0177359,10,6.12498e-05,-3.60591,-2.31781,-0.0254551,0.247072,
2,1,0,1,0,43023.2,0.251495,0.251148,0.246649,65,0.017945,10,6.19455e-05,-3.60792,-1.32076,-0.0446711,0.25104,
2,1,0,0,0,43024,0.255491,0.255189,0.24459,65,0.0181533,10,6.24168e-05,-3.61156,-2.18585,-0.0269918,0.255082,
2,1,0,1,0,43024.7,0.259486,0.25919,0.244891,65,0.0183611,10,6.34732e-05,-3.61103,-1.96296,-0.0300567,0.259082,
2,1,0,0,0,43025.5,0.263481,0.263131,0.244964,65,0.018568,10,6.44575e-05,-3.6109,7.31028,0.00807083,0.263023,
2,1,0,1,0,43026.3,0.267477,0.26716,0.242694,65,0.0187744,10,6.48381e-05,-3.61494,-1.24101,-0.0475418,0.267053,
2,1,0,1,0,43027.1,0.271471,0.271177,0.242642,65,0.0189801,10,6.5799e-05,-3.61503,9.3552,0.00630665,0.27107,
2,1,0,1,0,43027.9,0.275466,0.275144,0.241295,65,0.0191849,10,6.6391e-05,-3.61745,-2.74866,-0.021465,0.275038,
2,1,0,1,0,43028.7,0.279462,0.279153,0.241064,65,0.0193893,10,6.72938e-05,-3.61787,-1.97802,-0.0298277,0.279047,
2,1,0,0,0,43029.5,0.283457,0.283114,0.240139,65,0.0195928,10,6.79868e-05,-3.61954,-2.61533,-0.0225593,0.283008,
2,1,0,1,0,43030.3,0.287452,0.287105,0.238901,65,0.0197955,10,6.85898e-05,-3.62178,-1.52294,-0.0387409,0.287,
2,1,0,1,0,43031.1,0.291448,0.291162,0.238341,65,0.0199977,10,6.93957e-05,-3.6228,-1.20164,-0.0490996,0.291057,
2,1,0,1,0,43031.9,0.295442,0.295112,0.237974,65,0.0201989,10,7.0229e-05,-3.62347,3.13894,0.0187962,0.295007,
2,1,0,1,0,43032.7,0.299437,0.299122,0.235352,65,0.0203999,10,7.03989e-05,-3.62828,-2.30346,-0.0256136,0.299018,
2,1,0,0,0,43033.5,0.303433,0.303114,0.23639,65,0.0205997,10,7.1653e-05,-3.62637,155.272,0.000379979,0.30301,
2,1,0,1,0,43034.3,0.307428,0.307118,0.234914,65,0.020799,10,7.21465e-05,-3.62909,-13.1493,-0.00448694,0.307015,
2,1,0,1,0,43035.1,0.311424,0.311123,0.235124,65,0.0209978,10,7.31523e-05,-3.6287,-1.50346,-0.0392428,0.311019,
2,1,0,1,0,43035.9,0.315418,0.315067,0.233514,65,0.0211956,10,7.35727e-05,-3.63169,-2.59197,-0.0227626,0.314965,
2,1,0,1,0,43036.7,0.319413,0.319125,0.232419,65,0.0213929,10,7.41707e-05,-3.63373,-2.4318,-0.0242619,0.319023,
2,1,0,0,0,43037.5,0.323409,0.323075,0.232799,65,0.0215896,10,7.52115e-05,-3.63302,-1.65907,-0.0355621,0.322973,
2,1,0,1,0,43038.3,0.327404,0.327071,0.231683,65,0.0217856,10,7.57766e-05,-3.63511,-91.496,-0.000644837,0.326969,
2,1,0,0,0,43039.1,0.331399,0.331107,0.230918,65,0.0219811,10,7.64585e-05,-3.63654,-2.2332,-0.0264195,0.331005,
2,1,0,1,0,43039.9,0.335395,0.335097,0.231433,65,0.0221762,10,7.75525e-05,-3.63557,9.46917,0.00623075,0.334995,
2,1,0,1,0,43040.7,0.339389,0.339093,0.229394,65,0.0223706,10,7.7786e-05,-3.63942,-2.7155,-0.0217271,0.338992,
2,1,0,1,0,43041.5,0.343384,0.343047,0.228839,65,0.0225647,10,7.85025e-05,-3.64047,-29.6194,-0.00199194,0.342946,
2,1,0,1,0,43042.3,0.34738,0.347039,0.229733,65,0.0227582,10,7.97265e-05,-3.63878,-1.26794,-0.0465322,0.346938,
2,1,0,0,0,43043.1,0.351375,0.351058,0.22847,65,0.0229514,10,8.02063e-05,-3.64117,-11.2457,-0.00524646,0.350958,
2,1,0,1,0,43043.9,0.35537,0.355012,0.227693,65,0.023144,10,8.08336e-05,-3.64265,-2.38848,-0.0247019,0.354911,
2,1,0,1,0,43044.7,0.359366,0.359032,0.227522,65,0.0233362,10,8.16876e-05,-3.64298,5.30966,0.0111118,0.358932,
2,1,0,1,0,43045.5,0.36336,0.363064,0.226213,65,0.0235281,10,8.21298e-05,-3.64548,-5.10432,-0.0115588,0.362965,
2,1,0,1,0,43046.3,0.367355,0.367061,0.227001,65,0.0237198,10,8.3323e-05,-3.64397,9.73112,0.00606302,0.366961,
2,1,0,0,0,43047.1,0.371351,0.371062,0.226268,65,0.0239112,10,8.39592e-05,-3.64538,-13.1807,-0.00447623,0.370962,
2,1,0,1,0,43047.9,0.375346,0.375063,0.227364,65,0.0241025,10,8.52759e-05,-3.64328,-2.27888,-0.0258899,0.374963,
2,1,0,1,0,43048.7,0.379342,0.379044,0.225884,65,0.0242929,10,8.56199e-05,-3.64611,-2.99962,-0.0196692,0.378945,
2,1,0,1,0,43049.5,0.383336,0.38301,0.225793,65,0.024483,10,8.6481e-05,-3.64629,11.4023,0.00517442,0.38291,
2,1,0,1,0,43050.3,0.387331,0.387006,0.225444,65,0.0246731,10,8.72483e-05,-3.64696,-2.3221,-0.025408,0.386907,
2,1,0,0,0,43051.1,0.391327,0.391021,0.22449,65,0.0248627,10,8.77805e-05,-3.6488,4.41274,0.0133704,0.390922,
2,1,0,1,0,43051.9,0.395322,0.395001,0.223429,65,0.0250518,10,8.82545e-05,-3.65086,-1.25254,-0.0471042,0.394902,
2,1,0,0,0,43052.7,0.399317,0.398995,0.224688,65,0.0252405,10,8.96493e-05,-3.64842,7.97127,0.00740158,0.398896,
2,1,0,1,0,43053.5,0.403313,0.402966,0.224311,65,0.0254288,10,9.03898e-05,-3.64915,10.6628,0.00553324,0.402867,
2,1,0,1,0,43054.3,0.407307,0.407005,0.22295,65,0.0256171,10,9.0742e-05,-3.65179,-31.9022,-0.0018494,0.406907,
2,1,0,1,0,43055.1,0.411302,0.410972,0.224399,65,0.0258051,10,9.22216e-05,-3.64898,-1.45373,-0.0405854,0.410873,
2,1,0,1,0,43055.9,0.415298,0.415006,0.22338,65,0.0259929,10,9.27042e-05,-3.65096,1.59954,0.0368856,0.414908,
2,1,0,0,0,43056.7,0.419293,0.418977,0.223327,65,0.0261806,10,9.35691e-05,-3.65106,-1.0891,-0.0541731,0.418879,
2,1,0,1,0,43057.5,0.423288,0.422993,0.222838,65,0.026368,10,9.42588e-05,-3.65201,3.24527,0.0181803,0.422895,
2,1,0,1,0,43058.3,0.427283,0.426973,0.222121,65,0.0265554,10,9.48398e-05,-3.65341,16.159,0.00365121,0.426875,
2,1,0,1,0,43059.1,0.431278,0.430963,0.222972,65,0.0267425,10,9.60929e-05,-3.65175,2.84996,0.0207021,0.430865,
2,1,0,1,0,43059.9,0.435273,0.434972,0.222434,65,0.0269296,10,9.67524e-05,-3.6528,17.4424,0.00338256,0.434874,
2,1,0,0,0,43060.7,0.439269,0.438949,0.223067,65,0.0271168,10,9.79149e-05,-3.65157,-3.38835,-0.0174126,0.438851,
2,1,0,1,0,43061.5,0.443264,0.442966,0.223776,65,0.027304,10,9.91253e-05,-3.65019,3.40114,0.0173471,0.442867,
2,1,0,0,0,43062.3,0.447259,0.446931,0.223317,65,0.0274911,10,9.98073e-05,-3.65108,-29.1066,-0.00202703,0.446833,
2,1,0,1,0,43063.1,0.451254,0.450924,0.223178,65,0.0276785,10,0.000100636,-3.65135,-3.3556,-0.0175826,0.450826,
2,1,0,1,0,43063.9,0.455249,0.454982,0.224108,65,0.0278655,10,0.000101965,-3.64954,5.50029,0.0107267,0.454884,
2,1,0,1,0,43064.7,0.459244,0.458918,0.223309,65,0.0280531,10,0.000102481,-3.65109,1.76189,0.0334867,0.45882,
2,1,0,1,0,43065.5,0.46324,0.462939,0.224298,65,0.0282408,10,0.000103836,-3.64918,-5.7114,-0.0103302,0.46284,
2,1,0,0,0,43066.3,0.467235,0.466913,0.224311,65,0.0284285,10,0.000104734,-3.64915,10.1478,0.00581406,0.466814,
2,1,0,1,0,43067.1,0.471231,0.470866,0.224381,65,0.0286162,10,0.000105653,-3.64901,-180.054,-0.000327679,0.470767,
2,1,0,1,0,43067.9,0.475225,0.474947,0.224823,65,0.028804,10,0.000106779,-3.64816,4.86005,0.0121398,0.474848,
2,1,0,1,0,43068.7,0.47922,0.478923,0.224768,65,0.0289921,10,0.000107647,-3.64826,2.16472,0.0272553,0.478824,
2,1,0,1,0,43069.5,0.483216,0.482898,0.226206,65,0.0291807,10,0.000109234,-3.6455,-4.43484,-0.0133037,0.482798,
2,1,0,0,0,43070.3,0.487211,0.486839,0.226703,65,0.0293696,10,0.000110368,-3.64454,1.25725,0.0469278,0.486739,
2,1,0,1,0,43071.1,0.491206,0.490924,0.226457,65,0.0295591,10,0.000111173,-3.64501,5.02484,0.0117417,0.490824,
2,1,0,1,0,43071.9,0.495201,0.494907,0.227394,65,0.0297489,10,0.000112539,-3.64322,1.16929,0.050458,0.494807,
2,1,0,1,0,43072.7,0.499196,0.498893,0.228809,65,0.0299394,10,0.000114151,-3.64053,2.15786,0.0273419,0.498792,
2,1,0,1,0,43073.5,0.503191,0.502902,0.229314,65,0.0301307,10,0.000115322,-3.63957,-11.1749,-0.00527971,0.502801,
2,1,0,0,0,43074.3,0.507187,0.506878,0.230067,65,0.0303223,10,0.000116616,-3.63814,1.72581,0.0341868,0.506776,
2,1,0,1,0,43075.1,0.511182,0.510849,0.231256,65,0.0305147,10,0.000118137,-3.63591,14.6804,0.00401896,0.510747,
2,1,0,0,0,43075.9,0.515177,0.514885,0.232318,65,0.030708,10,0.000119617,-3.63392,1.72487,0.0342055,0.514783,
2,1,0,1,0,43076.7,0.519173,0.518864,0.234551,65,0.0309024,10,0.0001217,-3.62976,0.635992,0.0927685,0.518761,
2,1,0,1,0,43077.5,0.523167,0.522863,0.234766,65,0.031098,10,0.000122751,-3.62936,11.9922,0.00491985,0.52276,
2,1,0,1,0,43078.3,0.527162,0.526829,0.237167,65,0.0312945,10,0.000124946,-3.62495,1.02788,0.0573994,0.526725,
2,1,0,1,0,43079.1,0.531158,0.530875,0.237902,65,0.031492,10,0.000126296,-3.6236,2.3182,0.0254508,0.53077,
2,1,0,0,0,43079.9,0.535153,0.534832,0.239336,65,0.0316909,10,0.000128004,-3.62099,1.07506,0.0548806,0.534727,
2,1,0,1,0,43080.7,0.539148,0.538858,0.242023,65,0.0318911,10,0.000130416,-3.61614,1.2406,0.0475578,0.538752,
2,1,0,1,0,43081.5,0.543143,0.542857,0.24383,65,0.0320927,10,0.000132365,-3.61291,1.62954,0.0362065,0.54275,
2,1,0,1,0,43082.3,0.547138,0.546821,0.245563,65,0.0322956,10,0.000134279,-3.60984,1.98607,0.0297068,0.546713,
2,1,0,1,0,43083.1,0.551133,0.550814,0.246958,65,0.0325001,10,0.000136028,-3.60738,0.735121,0.0802589,0.550705,
2,1,0,0,0,43083.9,0.555129,0.554794,0.248661,65,0.0327066,10,0.000137956,-3.60439,0.950303,0.0620854,0.554685,
2,1,0,1,0,43084.7,0.559124,0.558835,0.252669,65,0.0329147,10,0.0001412,-3.59745,0.846927,0.0696636,0.558724,
2,1,0,1,0,43085.5,0.56312,0.562851,0.255349,65,0.033125,10,0.000143724,-3.59287,0.717417,0.0822395,0.562738,
2,1,0,1,0,43086.3,0.567114,0.566849,0.259216,65,0.0333379,10,0.000146936,-3.58634,0.884228,0.0667249,0.566735,
2,1,0,1,0,43087.1,0.571109,0.57083,0.261238,65,0.0335531,10,0.000149123,-3.58296,0.708291,0.0832991,0.570716,
2,1,0,0,0,43087.9,0.575105,0.574817,0.265101,65,0.0337713,10,0.000152384,-3.57659,0.555136,0.10628,0.5747,
2,1,0,1,0,43088.7,0.5791,0.578841,0.270064,65,0.0339928,10,0.000156324,-3.56853,0.678311,0.0869808,0.578722,
2,1,0,0,0,43089.5,0.583095,0.582794,0.274245,65,0.0342175,10,0.000159829,-3.56186,0.454275,0.129877,0.582674,
2,1,0,1,0,43090.3,0.58709,0.586791,0.278748,65,0.0344461,10,0.000163567,-3.55479,0.457502,0.128961,0.586669,
2,1,0,1,0,43091.1,0.591085,0.59081,0.285767,65,0.0346791,10,0.000168834,-3.54399,0.393668,0.149873,0.590684,
2,1,0,1,0,43091.9,0.59508,0.594834,0.291593,65,0.0349171,10,0.00017345,-3.53522,0.455819,0.129437,0.594706,
2,1,0,1,0,43092.7,0.599076,0.598775,0.299507,65,0.0351605,10,0.000179337,-3.52359,0.362728,0.162656,0.598643,
2,1,0,0,0,43093.5,0.603071,0.602763,0.306702,65,0.0354099,10,0.000184869,-3.51328,0.284492,0.207387,0.602628,
2,1,0,1,0,43094.3,0.607066,0.606777,0.316319,65,0.0356663,10,0.000191935,-3.49987,0.309708,0.190502,0.606638,
2,1,0,1,0,43095.1,0.611061,0.610754,0.326884,65,0.0359307,10,0.000199646,-3.48561,0.285963,0.20632,0.61061,
2,1,0,1,0,43095.9,0.615056,0.614785,0.339057,65,0.036204,10,0.000208447,-3.46973,0.222805,0.264805,0.614635,
2,1,0,1,0,43096.7,0.619051,0.618767,0.352259,65,0.0364879,10,0.000217966,-3.45314,0.225553,0.261579,0.618612,
2,1,0,0,0,43097.5,0.623047,0.622752,0.369186,65,0.0367837,10,0.000229911,-3.43275,0.193923,0.304244,0.622589,
2,1,0,1,0,43098.3,0.627042,0.626763,0.387481,65,0.0370934,10,0.000242859,-3.41175,0.167812,0.351584,0.626593,
2,1,0,1,0,43099.1,0.631037,0.630768,0.409993,65,0.0374197,10,0.00025861,-3.38722,0.16807,0.351045,0.630587,
2,1,0,1,0,43099.9,0.635032,0.634756,0.435727,65,0.0377646,10,0.00027658,-3.36079,0.140712,0.419297,0.634564,
2,1,0,1,0,43100.7,0.639027,0.638758,0.465006,65,0.0381313,10,0.000297026,-3.33254,0.135542,0.435291,0.638554,
2,1,0,1,0,43101.5,0.643022,0.642743,0.499083,65,0.0385237,10,0.000320782,-3.30183,0.123276,0.478599,0.642523,
2,1,0,1,0,43102.3,0.647018,0.646728,0.54084,65,0.0389462,10,0.000349776,-3.26693,0.113201,0.521198,0.64649,
2,1,0,0,0,43103.1,0.651013,0.650762,0.58586,65,0.0394031,10,0.000381255,-3.23221,0.106518,0.553896,0.650504,
2,1,0,1,0,43103.9,0.655008,0.654749,0.642667,65,0.0399008,10,0.000420785,-3.19201,0.0979642,0.602261,0.654466,
2,1,0,1,0,43104.7,0.659003,0.658662,0.706449,65,0.0404463,10,0.000465311,-3.15092,0.094662,0.62327,0.658351,
2,1,0,1,0,43105.5,0.662998,0.662738,0.781091,65,0.0410468,10,0.000517659,-3.1073,0.0878789,0.671379,0.662394,
2,1,0,1,0,43106.3,0.666994,0.66672,0.866289,65,0.0417113,10,0.000577573,-3.06234,0.0852223,0.692307,0.666339,
2,1,0,0,0,43107.1,0.670989,0.670703,0.96419,65,0.0424498,10,0.000646685,-3.01584,0.0842009,0.700705,0.670279,
2,1,0,1,0,43107.8,0.674984,0.67474,1.07741,65,0.0432723,10,0.000726973,-2.96762,0.0819051,0.720346,0.674266,
2,1,0,1,0,43108.6,0.67898,0.678698,1.20607,65,0.0441908,10,0.000818555,-2.91863,0.0790054,0.746784,0.678167,
2,1,0,1,0,43109.4,0.682974,0.682681,1.35089,65,0.0452188,10,0.000922226,-2.86938,0.0788974,0.747807,0.682087,
2,1,0,1,0,43110.2,0.686969,0.686684,1.51425,65,0.0463697,10,0.00103981,-2.8198,0.0811021,0.727479,0.686018,
2,1,0,0,0,43111,0.690965,0.690697,1.69442,65,0.0476577,10,0.00117033,-2.77098,0.0793955,0.743115,0.689951,
2,1,0,1,0,43111.8,0.69496,0.694715,1.89696,65,0.0490986,10,0.00131785,-2.72194,0.0800823,0.736742,0.69388,
2,1,0,0,0,43112.6,0.698955,0.69866,2.11626,65,0.0507078,10,0.00147854,-2.67443,0.0827277,0.713183,0.697728,
2,1,0,1,0,43113.4,0.70295,0.702655,2.35801,65,0.052502,10,0.00165687,-2.62745,0.0827148,0.713294,0.701618,
2,1,0,1,0,43114.2,0.706945,0.706684,2.62049,65,0.0544975,10,0.00185186,-2.58162,0.0865633,0.681582,0.705531,
2,1,0,1,0,43115,0.71094,0.710678,2.90389,65,0.0567106,10,0.00206373,-2.53702,0.0890641,0.662444,0.7094,
2,1,0,1,0,43115.8,0.714936,0.714637,3.20715,65,0.0591581,10,0.00229195,-2.49388,0.0898356,0.656756,0.713226,
2,1,0,0,0,43116.6,0.718931,0.718644,3.53227,65,0.0618574,10,0.00253844,-2.45195,0.0918189,0.64257,0.71709,
2,1,0,1,0,43117.4,0.722927,0.722622,3.88156,65,0.0648262,10,0.0028049,-2.41099,0.0966406,0.610509,0.720914,
2,1,0,1,0,43118.2,0.726921,0.726633,4.25007,65,0.0680811,10,0.00308824,-2.3716,0.0988544,0.596837,0.724763,
2,1,0,1,0,43119,0.730916,0.730619,4.64174,65,0.0716398,10,0.00339134,-2.33332,0.0999642,0.590211,0.728577,
2,1,0,1,0,43119.8,0.734911,0.734605,5.05799,65,0.0755215,10,0.00371562,-2.29602,0.104508,0.56455,0.732379,
2,1,0,0,0,43120.6,0.738907,0.738627,5.49607,65,0.0797448,10,0.00405955,-2.25995,0.107917,0.546715,0.736209,
2,1,0,1,0,43121.4,0.742902,0.742643,5.95814,65,0.0843272,10,0.00442477,-2.22489,0.108273,0.544918,0.740022,
2,1,0,1,0,43122.2,0.746897,0.746612,6.44746,65,0.0892908,10,0.00481375,-2.19061,0.111388,0.529679,0.743775,
2,1,0,1,0,43123,0.750892,0.750614,6.96164,65,0.0946542,10,0.0052255,-2.15729,0.114091,0.51713,0.747551,
2,1,0,1,0,43123.8,0.754887,0.754573,7.50571,65,0.10044,10,0.00566361,-2.12461,0.116468,0.506575,0.751271,
2,1,0,0,0,43124.6,0.758883,0.758635,8.07905,65,0.106674,10,0.00612905,-2.09264,0.118581,0.497549,0.75508,
2,1,0,1,0,43125.4,0.762878,0.762592,8.6842,65,0.113377,10,0.0066225,-2.06127,0.120058,0.49143,0.75877,
2,1,0,0,0,43126.2,0.766873,0.766585,9.32353,65,0.120577,10,0.00714728,-2.03042,0.120438,0.489879,0.762483,
2,1,0,1,0,43127,0.770868,0.770628,10.0053,65,0.128305,10,0.0077104,-1.99977,0.119876,0.492175,0.766225,
2,1,0,1,0,43127.8,0.774863,0.774619,10.7339,65,0.136597,10,0.00831468,-1.96924,0.121293,0.486426,0.769896,
2,1,0,1,0,43128.6,0.778858,0.778562,11.5003,65,0.145485,10,0.00895373,-1.93929,0.120495,0.489647,0.773502,
2,1,0,1,0,43129.4,0.782854,0.782569,12.324,65,0.155009,10,0.00964436,-1.90925,0.122509,0.481599,0.777147,
2,1,0,0,0,43130.2,0.786849,0.786546,13.1833,65,0.16521,10,0.0103693,-1.87997,0.122986,0.479729,0.780745,
2,1,0,1,0,43131,0.790844,0.790595,14.1201,65,0.176121,10,0.0111633,-1.85016,0.121333,0.486265,0.784382,
2,1,0,1,0,43131.8,0.794839,0.794561,15.1272,65,0.187808,10,0.0120195,-1.82024,0.118238,0.498992,0.787905,
2,1,0,1,0,43132.6,0.798834,0.798569,16.1866,65,0.200325,10,0.0129261,-1.79084,0.118132,0.499441,0.791447,
2,1,0,1,0,43133.4,0.802829,0.80259,17.3267,65,0.213716,10,0.0139062,-1.76128,0.118087,0.499634,0.794966,
2,1,0,0,0,43134.2,0.806825,0.806551,18.538,65,0.228053,10,0.0149518,-1.73194,0.119075,0.495486,0.798394,
2,1,0,1,0,43135,0.81082,0.81053,19.8,65,0.243373,10,0.0160485,-1.70334,0.121729,0.484682,0.801818,
2,1,0,1,0,43135.8,0.814815,0.814503,21.1078,65,0.259728,10,0.0171923,-1.67556,0.124048,0.475621,0.805216,
2,1,0,1,0,43136.6,0.81881,0.818488,22.4612,65,0.27714,10,0.0183842,-1.64857,0.126171,0.467618,0.808605,
2,1,0,1,0,43137.4,0.822805,0.822547,23.8799,65,0.295659,10,0.0196423,-1.62197,0.129891,0.454227,0.812039,
2,1,0,0,0,43138.2,0.826801,0.826532,25.3188,65,0.315324,10,0.0209268,-1.59656,0.136636,0.431805,0.815392,
2,1,0,1,0,43139,0.830796,0.830565,26.7699,65,0.336143,10,0.0222341,-1.57235,0.139368,0.423338,0.818786,
2,1,0,0,0,43139.8,0.834791,0.834524,28.2785,65,0.358139,10,0.0235991,-1.54854,0.141308,0.417526,0.822082,
2,1,0,1,0,43140.6,0.838786,0.838547,29.8158,65,0.381364,10,0.0250019,-1.52555,0.148261,0.397948,0.825428,
2,1,0,1,0,43141.4,0.842781,0.842517,31.343,65,0.405805,10,0.026407,-1.50386,0.155325,0.379848,0.828726,
2,1,0,1,0,43142.2,0.846776,0.84652,32.8654,65,0.431472,10,0.0278212,-1.48326,0.165156,0.357239,0.832059,
2,1,0,0,0,43142.9,0.849723,0.849493,33.9008,65,0.454937,10,0.0287985,-1.46979,0.0400888,1.47173,0.834576,
2,1,0,1,0,43143.7,0.845728,0.845453,31.5017,65,0.480981,10,0.0266332,-1.50167,0.109499,0.538818,0.831592,
2,1,0,0,0,43144.5,0.841732,0.84149,29.5708,65,0.505363,10,0.0248835,-1.52914,0.11645,0.506656,0.828479,
2,1,0,1,0,43145.3,0.837737,0.837468,27.7621,65,0.528249,10,0.0232499,-1.55655,0.118782,0.496708,0.825252,
2,1,0,1,0,43146.1,0.833742,0.833491,26.0721,65,0.549742,10,0.0217309,-1.58382,0.118401,0.498309,0.82202,
2,1,0,1,0,43146.9,0.829747,0.829466,24.4891,65,0.569924,10,0.0203129,-1.61103,0.120125,0.491154,0.818691,
2,1,0,1,0,43147.7,0.825752,0.825492,22.9907,65,0.588871,10,0.0189787,-1.63845,0.12437,0.474391,0.815376,
2,1,0,0,0,43148.5,0.821757,0.821533,21.5674,65,0.606659,10,0.0177183,-1.6662,0.11869,0.497095,0.812043,
2,1,0,1,0,43149.3,0.817761,0.817471,20.1604,65,0.623314,10,0.0164805,-1.6955,0.115304,0.51169,0.808601,
2,1,0,1,0,43150.1,0.813766,0.81347,18.8476,65,0.638884,10,0.0153319,-1.72474,0.116223,0.507647,0.805177,
2,1,0,1,0,43150.9,0.809771,0.809488,17.5834,65,0.653426,10,0.0142336,-1.7549,0.114725,0.514273,0.801752,
2,1,0,1,0,43151.7,0.805776,0.805492,16.4025,65,0.66699,10,0.0132121,-1.78509,0.113301,0.520739,0.798275,
2,1,0,0,0,43152.5,0.801781,0.801535,15.2836,65,0.679637,10,0.0122504,-1.81577,0.114437,0.515568,0.79481,
2,1,0,1,0,43153.3,0.797786,0.797471,14.2253,65,0.691412,10,0.0113442,-1.84694,0.111643,0.528472,0.791212,
2,1,0,1,0,43154.1,0.79379,0.793513,13.2212,65,0.702367,10,0.0104912,-1.87873,0.110917,0.531931,0.787696,
2,1,0,1,0,43154.9,0.789795,0.789476,12.2712,65,0.712538,10,0.00968785,-1.91111,0.111622,0.528567,0.784077,
2,1,0,1,0,43155.7,0.7858,0.785503,11.3757,65,0.721973,10,0.00893566,-1.94402,0.109362,0.539491,0.780498,
2,1,0,0,0,43156.5,0.781805,0.781511,10.553,65,0.730722,10,0.00824729,-1.97662,0.111286,0.530163,0.776868,
2,1,0,1,0,43157.3,0.77781,0.777554,9.75464,65,0.738824,10,0.00758476,-2.01079,0.106613,0.553405,0.773262,
2,1,0,0,0,43158.1,0.773814,0.773552,9.02613,65,0.746315,10,0.00698218,-2.0445,0.107764,0.547493,0.76958,
2,1,0,1,0,43158.9,0.769819,0.769551,8.34307,65,0.753244,10,0.00642042,-2.07867,0.108087,0.545854,0.76588,
2,1,0,1,0,43159.7,0.765824,0.765529,7.70206,65,0.759642,10,0.00589615,-2.11339,0.104571,0.564212,0.76214,
2,1,0,1,0,43160.5,0.761829,0.761566,7.10091,65,0.765546,10,0.00540782,-2.14869,0.104875,0.562576,0.758442,
2,1,0,1,0,43161.3,0.757834,0.757547,6.5233,65,0.770977,10,0.00494171,-2.18553,0.102055,0.57812,0.754677,
2,1,0,0,0,43162.1,0.753839,0.753542,5.99475,65,0.775968,10,0.0045173,-2.22223,0.101541,0.581048,0.750904,
2,1,0,1,0,43162.9,0.749844,0.749585,5.50387,65,0.780553,10,0.00412562,-2.25933,0.101789,0.579628,0.747163,
2,1,0,1,0,43163.7,0.745848,0.745577,5.04281,65,0.784758,10,0.0037598,-2.29733,0.0980757,0.601576,0.743358,
2,1,0,1,0,43164.5,0.741853,0.741582,4.60778,65,0.788604,10,0.00341704,-2.33651,0.0973759,0.605899,0.739554,
2,1,0,1,0,43165.3,0.737858,0.737585,4.20476,65,0.792115,10,0.00310137,-2.37626,0.0930132,0.634319,0.735735,
2,1,0,0,0,43166.1,0.733863,0.733598,3.82375,65,0.795311,10,0.00280509,-2.41751,0.0917173,0.643281,0.731915,
2,1,0,1,0,43166.9,0.729868,0.729576,3.46582,65,0.798214,10,0.00252858,-2.46019,0.0894849,0.659329,0.728051,
2,1,0,1,0,43167.7,0.725872,0.725578,3.13264,65,0.800841,10,0.00227297,-2.50409,0.0873489,0.675452,0.724199,
2,1,0,1,0,43168.5,0.721877,0.721525,2.82315,65,0.803211,10,0.00203697,-2.54927,0.0837005,0.704894,0.720283,
2,1,0,1,0,43169.3,0.717882,0.717618,2.53302,65,0.805342,10,0.00181774,-2.59636,0.0810741,0.727729,0.716503,
2,1,0,0,0,43170.1,0.713887,0.713602,2.265,65,0.807251,10,0.00161631,-2.64493,0.078117,0.755277,0.712605,
2,1,0,1,0,43170.9,0.709892,0.709624,2.01471,65,0.808951,10,0.00142969,-2.69579,0.074179,0.795374,0.708738,
2,1,0,0,0,43171.7,0.705897,0.705626,1.78242,65,0.81046,10,0.00125772,-2.74899,0.0710155,0.830804,0.704842,
2,1,0,1,0,43172.5,0.701901,0.701623,1.56924,65,0.81179,10,0.00110101,-2.80431,0.0694586,0.849427,0.700933,
2,1,0,1,0,43173.3,0.697906,0.697609,1.37343,65,0.812957,10,0.000958119,-2.86219,0.0672808,0.876922,0.697004,
2,1,0,1,0,43174.1,0.693911,0.693629,1.19502,65,0.813974,10,0.000828898,-2.92263,0.0626739,0.94138,0.693103,
2,1,0,1,0,43174.9,0.689916,0.689661,1.03277,65,0.814855,10,0.000712264,-2.98599,0.0603231,0.978067,0.689207,
2,1,0,0,0,43175.7,0.685921,0.685693,0.887196,65,0.815614,10,0.000608344,-3.05198,0.0589099,1.00153,0.685303,
2,1,0,1,0,43176.5,0.681926,0.681604,0.755025,65,0.816261,10,0.000514628,-3.12204,0.0537903,1.09685,0.681272,
2,1,0,1,0,43177.3,0.67793,0.67764,0.63704,65,0.816809,10,0.000431683,-3.19583,0.0523707,1.12658,0.67736,
2,1,0,1,0,43178.1,0.673935,0.673663,0.533549,65,0.817267,10,0.000359432,-3.27283,0.0496919,1.18732,0.673428,
2,1,0,1,0,43178.9,0.66994,0.66964,0.441664,65,0.817648,10,0.000295756,-3.35491,0.045157,1.30655,0.669445,
2,1,0,0,0,43179.7,0.665945,0.665669,0.359049,65,0.817959,10,0.000239008,-3.44485,0.0445588,1.32409,0.665511,
2,1,0,1,0,43180.5,0.66195,0.661671,0.289538,65,0.81821,10,0.000191579,-3.53829,0.0403909,1.46073,0.661543,
2,1,0,0,0,43181.3,0.657955,0.65768,0.228496,65,0.818408,10,0.000150277,-3.64112,0.0370221,1.59364,0.65758,
2,1,0,1,0,43182.1,0.653959,0.653672,0.175829,65,0.818562,10,0.000114934,-3.75491,0.0322861,1.82741,0.653594,
2,1,0,1,0,43182.9,0.649964,0.649696,0.131286,65,0.818676,10,8.52961e-05,-3.88178,0.0283876,2.07837,0.649639,
2,1,0,1,0,43183.7,0.64597,0.645672,0.0928234,65,0.818757,10,5.99335e-05,-4.03234,0.0250909,2.35145,0.645631,
2,1,0,1,0,43184.5,0.641974,0.641672,0.0598819,65,0.81881,10,3.84245e-05,-4.2227,0.0175334,3.36501,0.641646,
2,1,0,0,0,43185.3,0.637979,0.637718,0.0325178,65,0.818839,10,2.07372e-05,-4.48788,0.0113438,5.20108,0.637704,
2,1,0,1,0,43186.1,0.633983,0.633691,0.0113069,65,0.818849,10,7.16509e-06,-4.94666,0.0019097,30.895,0.633686,
2,0,0,1,0,43186.9,0.629988,0.629754,-0.0097035,65,0.818841,10,-6.11082e-06,-5.01307,-0.00199307,-29.6026,0.629758,
2,0,0,1,0,43187.7,0.625993,0.625707,-0.0256731,65,0.818819,10,-1.60638e-05,-4.59052,-0.0156739,-3.76422,0.625719,
2,0,0,1,0,43188.5,0.621998,0.621739,-0.0392345,65,0.818786,10,-2.43936e-05,-4.40633,-0.0292544,-2.01679,0.621756,
2,0,0,0,0,43189.3,0.618003,0.617735,-0.0497467,65,0.818742,10,-3.07303e-05,-4.30324,-0.040618,-1.45256,0.617757,
2,0,0,1,0,43190.1,0.614008,0.613732,-0.0596362,65,0.818691,10,-3.66006e-05,-4.22449,-0.0766252,-0.769982,0.613758,
2,0,0,1,0,43190.8,0.610012,0.609743,-0.0682075,65,0.818632,10,-4.1589e-05,-4.16617,-0.0797054,-0.740226,0.609773,
2,0,0,1,0,43191.6,0.606017,0.60573,-0.0747753,65,0.818567,10,-4.52936e-05,-4.12624,-0.109929,-0.536708,0.605763,
2,0,0,1,0,43192.4,0.602022,0.601708,-0.0808358,65,0.818497,10,-4.86396e-05,-4.0924,-0.142412,-0.414291,0.601744,
2,0,0,0,0,43193.2,0.598027,0.597728,-0.0855545,65,0.818422,10,-5.11383e-05,-4.06776,-0.164496,-0.35867,0.597766,
2,0,0,1,0,43194,0.594032,0.593724,-0.0896636,65,0.818344,10,-5.32354e-05,-4.04738,-0.198989,-0.296498,0.593763,
2,0,0,0,0,43194.8,0.590037,0.58975,-0.093814,65,0.818263,10,-5.53268e-05,-4.02773,-0.255298,-0.231103,0.589791,
2,0,0,1,0,43195.6,0.586041,0.585752,-0.0962569,65,0.818179,10,-5.63826e-05,-4.01657,-0.308408,-0.191305,0.585794,
2,0,0,1,0,43196.4,0.582046,0.581718,-0.0996016,65,0.818094,10,-5.79401e-05,-4.00173,-0.389581,-0.151445,0.581762,
2,0,0,1,0,43197.2,0.578052,0.577756,-0.101834,65,0.818006,10,-5.88354e-05,-3.99211,-0.559537,-0.105444,0.5778,
2,0,0,1,0,43198,0.574056,0.573727,-0.102247,65,0.817916,10,-5.8662e-05,-3.99035,-0.526242,-0.112116,0.573772,
2,0,0,0,0,43198.8,0.570061,0.56973,-0.104892,65,0.817825,10,-5.97599e-05,-3.97926,-0.547552,-0.107752,0.569776,
2,0,0,1,0,43199.6,0.566065,0.565736,-0.106469,65,0.817732,10,-6.02334e-05,-3.97278,-0.99344,-0.0593896,0.565783,
2,0,0,1,0,43200.4,0.56207,0.561769,-0.107897,65,0.817638,10,-6.06133e-05,-3.96699,-0.375353,-0.157185,0.561817,
2,0,0,1,0,43201.2,0.558075,0.557767,-0.109662,65,0.817543,10,-6.11658e-05,-3.95994,-1.02624,-0.0574913,0.557815,
2,0,0,1,0,43202,0.55408,0.553838,-0.110095,65,0.817447,10,-6.09746e-05,-3.95823,-2.10736,-0.0279971,0.553887,
2,0,0,0,0,43202.8,0.550085,0.549811,-0.111489,65,0.81735,10,-6.12979e-05,-3.95277,-0.554163,-0.106467,0.549861,
2,0,0,1,0,43203.6,0.54609,0.545806,-0.113111,65,0.817252,10,-6.17369e-05,-3.94649,-1.4912,-0.0395654,0.545856,
2,0,0,1,0,43204.4,0.542094,0.541802,-0.113241,65,0.817154,10,-6.1354e-05,-3.946,-0.641592,-0.0919587,0.541852,
2,0,0,1,0,43205.2,0.538099,0.537797,-0.115412,65,0.817054,10,-6.20685e-05,-3.93775,-2.97412,-0.0198378,0.537848,
2,0,0,1,0,43206,0.534104,0.533818,-0.115852,65,0.816953,10,-6.18436e-05,-3.9361,-1.06595,-0.0553499,0.533869,
2,0,0,0,0,43206.8,0.530109,0.52979,-0.116938,65,0.816852,10,-6.19525e-05,-3.93204,-0.488301,-0.120827,0.529841,
2,0,0,1,0,43207.6,0.526114,0.525779,-0.1194,65,0.816749,10,-6.27778e-05,-3.923,-1.86384,-0.0316551,0.525832,
2,0,0,0,0,43208.4,0.522119,0.521815,-0.119726,65,0.816646,10,-6.2475e-05,-3.92181,-4.38016,-0.0134698,0.521867,
2,0,0,1,0,43209.2,0.518123,0.517852,-0.120664,65,0.816542,10,-6.24864e-05,-3.91842,-0.899267,-0.065609,0.517906,
2,0,0,1,0,43210,0.514128,0.513862,-0.12155,65,0.816438,10,-6.24602e-05,-3.91524,-0.747657,-0.0789132,0.513916,
2,0,0,1,0,43210.8,0.510133,0.509816,-0.122519,65,0.816332,10,-6.24622e-05,-3.9118,-0.751322,-0.0785282,0.50987,
2,0,0,1,0,43211.6,0.506138,0.505801,-0.12336,65,0.816225,10,-6.23957e-05,-3.90883,4.02734,0.0146499,0.505856,
2,0,0,0,0,43212.4,0.502143,0.501863,-0.124012,65,0.816118,10,-6.22372e-05,-3.90654,-0.597509,-0.0987433,0.501918,
2,0,0,1,0,43213.2,0.498148,0.497844,-0.125053,65,0.81601,10,-6.2257e-05,-3.90291,-6.45677,-0.00913769,0.497899,
2,0,0,1,0,43214,0.494152,0.493836,-0.12665,65,0.815901,10,-6.25441e-05,-3.8974,-0.49688,-0.118741,0.493891,
2,0,0,1,0,43214.8,0.490157,0.489911,-0.127813,65,0.815791,10,-6.2617e-05,-3.89342,-1.01576,-0.0580847,0.489968,
2,0,0,1,0,43215.6,0.486162,0.485843,-0.128839,65,0.81568,10,-6.25955e-05,-3.88995,-2.75482,-0.021417,0.485899,
2,0,0,0,0,43216.4,0.482167,0.48185,-0.12927,65,0.815568,10,-6.22887e-05,-3.8885,-10.4717,-0.00563423,0.481907,
2,0,0,1,0,43217.2,0.478172,0.477855,-0.13076,65,0.815455,10,-6.24843e-05,-3.88353,-0.489824,-0.120452,0.477913,
2,0,0,0,0,43218,0.474177,0.473896,-0.132384,65,0.815341,10,-6.27363e-05,-3.87816,-2.85298,-0.0206801,0.473954,
2,0,0,1,0,43218.8,0.470181,0.469876,-0.133164,65,0.815226,10,-6.25708e-05,-3.87561,-0.560927,-0.105183,0.469934,
2,0,0,1,0,43219.6,0.466186,0.46589,-0.135765,65,0.81511,10,-6.32517e-05,-3.86721,-1.74111,-0.0338865,0.46595,
2,0,0,1,0,43220.4,0.462191,0.461906,-0.136534,65,0.814993,10,-6.30659e-05,-3.86476,-0.706219,-0.0835435,0.461966,
2,0,0,1,0,43221.2,0.458196,0.457915,-0.13816,65,0.814875,10,-6.32653e-05,-3.85962,-0.752879,-0.0783659,0.457975,
2,0,0,0,0,43222,0.454201,0.453866,-0.139532,65,0.814756,10,-6.33287e-05,-3.85533,-1.66168,-0.0355061,0.453927,
2,0,0,1,0,43222.8,0.450205,0.449891,-0.139614,65,0.814636,10,-6.2811e-05,-3.85507,-0.70369,-0.0838438,0.449953,
2,0,0,1,0,43223.6,0.44621,0.445933,-0.141499,65,0.814514,10,-6.3099e-05,-3.84925,-0.828735,-0.0711929,0.445995,
2,0,0,1,0,43224.4,0.442215,0.441888,-0.143046,65,0.814391,10,-6.32102e-05,-3.84452,-6.32297,-0.00933106,0.441951,
2,0,0,1,0,43225.2,0.43822,0.437928,-0.144973,65,0.814267,10,-6.34879e-05,-3.83871,-0.824769,-0.0715352,0.437992,
2,0,0,0,0,43226,0.434225,0.433915,-0.14716,65,0.814141,10,-6.38549e-05,-3.83221,-0.473834,-0.124516,0.43398,
2,0,0,1,0,43226.8,0.43023,0.429888,-0.147868,65,0.814014,10,-6.35666e-05,-3.83013,-1.45173,-0.0406413,0.429953,
2,0,0,1,0,43227.6,0.426234,0.425946,-0.150107,65,0.813886,10,-6.39374e-05,-3.8236,-0.462623,-0.127534,0.426012,
2,0,0,1,0,43228.4,0.422239,0.421949,-0.152027,65,0.813756,10,-6.41477e-05,-3.81808,-1.04095,-0.0566791,0.422016,
2,0,0,1,0,43229.2,0.418244,0.417972,-0.154755,65,0.813625,10,-6.46831e-05,-3.81036,-0.747719,-0.0789067,0.41804,
2,0,0,0,0,43230,0.414249,0.41393,-0.154928,65,0.813492,10,-6.41291e-05,-3.80987,-0.565941,-0.104251,0.413998,
2,0,0,1,0,43230.8,0.410254,0.409897,-0.158234,65,0.813357,10,-6.48598e-05,-3.8007,-1.29892,-0.0454222,0.409967,
2,0,0,0,0,43231.6,0.406259,0.405976,-0.159494,65,0.813221,10,-6.47506e-05,-3.79726,-0.747912,-0.0788863,0.406046,
2,0,0,1,0,43232.4,0.402263,0.401935,-0.161756,65,0.813083,10,-6.50154e-05,-3.79114,-0.905746,-0.0651397,0.402007,
2,0,0,1,0,43233.2,0.398268,0.397947,-0.163562,65,0.812944,10,-6.50891e-05,-3.78632,-1.20653,-0.0489005,0.398019,
2,0,0,1,0,43234,0.394274,0.393949,-0.165835,65,0.812803,10,-6.53304e-05,-3.78032,-0.54377,-0.108502,0.394022,
2,0,0,1,0,43234.8,0.390278,0.389966,-0.167949,65,0.81266,10,-6.54942e-05,-3.77482,-0.667742,-0.0883575,0.39004,
2,0,0,0,0,43235.6,0.386283,0.385935,-0.16906,65,0.812516,10,-6.52462e-05,-3.77196,-0.761669,-0.0774614,0.38601,
2,0,0,1,0,43236.4,0.382287,0.382009,-0.170785,65,0.81237,10,-6.52416e-05,-3.76755,-0.65046,-0.0907051,0.382084,
2,0,0,1,0,43237.2,0.378292,0.378007,-0.173991,65,0.812222,10,-6.577e-05,-3.75947,-0.943075,-0.0625613,0.378084,
2,0,0,1,0,43238,0.374297,0.374001,-0.175001,65,0.812073,10,-6.54508e-05,-3.75696,-0.677365,-0.0871023,0.374079,
2,0,0,1,0,43238.8,0.370303,0.369989,-0.17774,65,0.811921,10,-6.57619e-05,-3.75022,-0.826315,-0.0714014,0.370068,
2,0,0,0,0,43239.6,0.366307,0.366009,-0.179711,65,0.811768,10,-6.57758e-05,-3.74543,-0.984438,-0.0599327,0.366088,
2,0,0,1,0,43240.4,0.362312,0.361969,-0.18282,65,0.811613,10,-6.61752e-05,-3.73798,-0.792528,-0.0744453,0.362049,
2,0,0,1,0,43241.2,0.358316,0.357995,-0.183787,65,0.811457,10,-6.57949e-05,-3.73568,-0.757644,-0.077873,0.358076,
2,0,0,1,0,43242,0.354321,0.353995,-0.186453,65,0.811298,10,-6.60034e-05,-3.72943,-0.690976,-0.0853864,0.354077,
2,0,0,1,0,43242.8,0.350327,0.350048,-0.187688,65,0.811138,10,-6.56997e-05,-3.72656,-0.749745,-0.0786935,0.350131,
2,0,0,0,0,43243.6,0.346331,0.346014,-0.191385,65,0.810976,10,-6.62217e-05,-3.71809,-1.24128,-0.0475315,0.346098,
2,0,0,1,0,43244.4,0.342336,0.342005,-0.193742,65,0.810812,10,-6.62606e-05,-3.71278,-0.539539,-0.109353,0.34209,
2,0,0,0,0,43245.2,0.338341,0.338003,-0.195074,65,0.810646,10,-6.59357e-05,-3.7098,-0.804653,-0.0733235,0.338088,
2,0,0,1,0,43246,0.334345,0.334031,-0.19818,65,0.810478,10,-6.61983e-05,-3.70294,-1.09292,-0.0539839,0.334118,
2,0,0,1,0,43246.8,0.33035,0.330009,-0.199417,65,0.810309,10,-6.58095e-05,-3.70024,-0.542039,-0.108848,0.330097,
2,0,0,1,0,43247.6,0.326355,0.326089,-0.202336,65,0.810137,10,-6.59798e-05,-3.69393,-0.848608,-0.0695256,0.326178,
2,0,0,1,0,43248.4,0.32236,0.322083,-0.204819,65,0.809964,10,-6.59688e-05,-3.68863,-1.17864,-0.0500578,0.322173,
2,0,0,0,0,43249.2,0.318365,0.318012,-0.205815,65,0.809788,10,-6.54515e-05,-3.68652,-0.627542,-0.0940175,0.318102,
2,0,0,1,0,43250,0.31437,0.314049,-0.209079,65,0.809611,10,-6.5661e-05,-3.67969,-1.45742,-0.0404824,0.314141,
2,0,0,1,0,43250.8,0.310374,0.310058,-0.212227,65,0.809431,10,-6.58025e-05,-3.6732,-0.506469,-0.116493,0.310151,
2,0,0,1,0,43251.6,0.306379,0.306074,-0.214512,65,0.80925,10,-6.56565e-05,-3.66855,-0.993798,-0.0593682,0.306168,
2,0,0,1,0,43252.4,0.302385,0.302037,-0.216667,65,0.809066,10,-6.54415e-05,-3.66421,-0.963143,-0.0612578,0.302133,
2,0,0,0,0,43253.2,0.298389,0.298128,-0.219321,65,0.808881,10,-6.53859e-05,-3.65892,-0.77977,-0.0756633,0.298225,
2,0,0,1,0,43254,0.294394,0.294082,-0.221684,65,0.808694,10,-6.51933e-05,-3.65426,-0.621739,-0.0948952,0.294179,
2,0,0,1,0,43254.8,0.290398,0.290084,-0.224752,65,0.808504,10,-6.51969e-05,-3.6483,-1.18847,-0.0496436,0.290183,
2,0,0,1,0,43255.6,0.286403,0.286118,-0.227391,65,0.808312,10,-6.50606e-05,-3.64323,-0.645337,-0.0914251,0.286218,
2,0,0,1,0,43256.4,0.282408,0.282127,-0.23057,65,0.808118,10,-6.50499e-05,-3.6372,-1.07741,-0.0547608,0.282228,
2,0,0,1,0,43257.2,0.278414,0.278075,-0.23257,65,0.807922,10,-6.46719e-05,-3.63345,-1.01328,-0.0582269,0.278178,
2,0,0,1,0,43258,0.274418,0.2741,-0.2349,65,0.807724,10,-6.43861e-05,-3.62912,-0.537065,-0.109856,0.274204,
2,0,0,0,0,43258.8,0.270423,0.27015,-0.237513,65,0.807524,10,-6.41643e-05,-3.62431,-0.820604,-0.0718983,0.270255,
2,0,0,1,0,43259.6,0.266427,0.266094,-0.240572,65,0.807322,10,-6.40147e-05,-3.61875,-0.879303,-0.0670986,0.2662,
2,0,0,1,0,43260.4,0.262432,0.262134,-0.243367,65,0.807117,10,-6.37946e-05,-3.61374,-1.0826,-0.0544985,0.262241,
2,0,0,1,0,43261.2,0.258437,0.258137,-0.245944,65,0.806911,10,-6.34873e-05,-3.60916,-1.09769,-0.0537494,0.258246,
2,0,0,1,0,43262,0.254442,0.254115,-0.247763,65,0.806702,10,-6.29603e-05,-3.60596,-0.801482,-0.0736136,0.254224,
2,0,0,0,0,43262.8,0.250447,0.250095,-0.249375,65,0.806492,10,-6.23675e-05,-3.60315,-1.2511,-0.0471587,0.250205,
2,0,0,1,0,43263.6,0.246452,0.246141,-0.252623,65,0.80628,10,-6.21809e-05,-3.59753,-0.620131,-0.0951412,0.246252,
2,0,0,1,0,43264.4,0.242456,0.242134,-0.255441,65,0.806065,10,-6.1851e-05,-3.59271,-1.03731,-0.0568776,0.242247,
2,0,0,1,0,43265.2,0.238461,0.23815,-0.256836,65,0.80585,10,-6.11654e-05,-3.59034,-1.38386,-0.0426344,0.238263,
2,0,0,1,0,43266,0.234467,0.234132,-0.258596,65,0.805632,10,-6.05456e-05,-3.58738,-1.00205,-0.0588795,0.234246,
2,0,0,0,0,43266.8,0.230471,0.230197,-0.261704,65,0.805412,10,-6.02437e-05,-3.58219,-1.66831,-0.0353651,0.230313,
2,0,0,1,0,43267.6,0.226476,0.226162,-0.263886,65,0.80519,10,-5.9681e-05,-3.57858,-0.883786,-0.0667582,0.226278,
2,0,0,0,0,43268.4,0.222481,0.222206,-0.266182,65,0.804967,10,-5.91473e-05,-3.57482,-0.68222,-0.0864824,0.222323,
2,0,0,1,0,43269.2,0.218485,0.218179,-0.26903,65,0.804741,10,-5.86967e-05,-3.5702,-3.09294,-0.0190757,0.218297,
2,0,0,1,0,43270,0.21449,0.214171,-0.271865,65,0.804513,10,-5.82255e-05,-3.56565,-0.647545,-0.0911133,0.21429,
2,0,0,1,0,43270.8,0.210496,0.210167,-0.275023,65,0.804282,10,-5.78006e-05,-3.56063,-0.828383,-0.0712231,0.210288,
2,0,0,1,0,43271.6,0.2065,0.206156,-0.279197,65,0.80405,10,-5.75581e-05,-3.55409,-0.728099,-0.081033,0.206279,
2,0,0,0,0,43272.4,0.202505,0.202208,-0.280416,65,0.803814,10,-5.67023e-05,-3.5522,-0.923226,-0.0639064,0.202331,
2,0,0,1,0,43273.2,0.198509,0.19818,-0.284282,65,0.803577,10,-5.63391e-05,-3.54625,-0.66951,-0.0881242,0.198305,
2,0,0,1,0,43273.9,0.194514,0.194162,-0.287814,65,0.803336,10,-5.58825e-05,-3.54089,-0.989105,-0.0596499,0.194288,
2,0,0,1,0,43274.7,0.190519,0.190182,-0.29133,65,0.803092,10,-5.54059e-05,-3.53561,-0.532031,-0.110896,0.19031,
2,0,0,1,0,43275.5,0.186524,0.186196,-0.295282,65,0.802845,10,-5.49802e-05,-3.52976,-1.10168,-0.0535546,0.186326,
2,0,0,0,0,43276.3,0.182529,0.182194,-0.299232,65,0.802595,10,-5.45182e-05,-3.52399,-0.478604,-0.123275,0.182326,
2,0,0,1,0,43277.1,0.178534,0.178211,-0.304386,65,0.802341,10,-5.4245e-05,-3.51657,-0.481103,-0.122635,0.178345,
2,0,0,1,0,43277.9,0.174538,0.174228,-0.310761,65,0.802083,10,-5.41433e-05,-3.50757,-0.565881,-0.104262,0.174365,
2,0,0,1,0,43278.7,0.170543,0.170215,-0.317437,65,0.801819,10,-5.40324e-05,-3.49834,-0.325542,-0.181236,0.170354,
2,0,0,1,0,43279.5,0.166549,0.1662,-0.324778,65,0.80155,10,-5.39781e-05,-3.48841,-0.382382,-0.154296,0.166343,
2,0,0,0,0,43280.3,0.162553,0.16224,-0.335556,65,0.801273,10,-5.44407e-05,-3.47423,-0.293463,-0.201047,0.162388,
2,0,0,1,0,43281.1,0.158558,0.158236,-0.346223,65,0.800988,10,-5.4785e-05,-3.46064,-0.234849,-0.251226,0.158389,
2,0,0,0,0,43281.9,0.154563,0.154264,-0.362455,65,0.800691,10,-5.59138e-05,-3.44075,-0.203833,-0.289453,0.154423,
2,0,0,1,0,43282.7,0.150567,0.150222,-0.384307,65,0.800381,10,-5.77315e-05,-3.41532,-0.13824,-0.426793,0.150392,
2,0,0,1,0,43283.5,0.146572,0.14624,-0.4104,65,0.800051,10,-6.00168e-05,-3.38679,-0.118068,-0.499714,0.14642,
2,0,0,1,0,43284.3,0.142578,0.142252,-0.447774,65,0.799697,10,-6.36968e-05,-3.34894,-0.103148,-0.571992,0.142449,
2,0,0,1,0,43285.1,0.138582,0.138241,-0.491384,65,0.799309,10,-6.79295e-05,-3.30858,-0.0926085,-0.637091,0.138457,
2,0,0,0,0,43285.9,0.134587,0.134214,-0.541969,65,0.798883,10,-7.27397e-05,-3.26603,-0.100728,-0.585737,0.134452,
2,0,0,1,0,43286.7,0.130591,0.130284,-0.590935,65,0.798417,10,-7.69891e-05,-3.22846,-0.111764,-0.527896,0.130544,
2,0,0,1,0,43287.5,0.126596,0.12623,-0.632005,65,0.797914,10,-7.97779e-05,-3.19928,-0.15733,-0.375009,0.126508,
2,0,0,1,0,43288.3,0.122602,0.12227,-0.666509,65,0.797381,10,-8.14938e-05,-3.17619,-0.252425,-0.233733,0.122563,
2,0,0,1,0,43289.1,0.118607,0.118315,-0.684141,65,0.796828,10,-8.09445e-05,-3.16485,-0.36132,-0.16329,0.118616,
2,0,0,0,0,43289.9,0.114611,0.11427,-0.692953,65,0.796263,10,-7.91835e-05,-3.1593,-1.97043,-0.0299428,0.114575,
2,0,0,1,0,43290.7,0.110616,0.110219,-0.69579,65,0.795694,10,-7.66892e-05,-3.15752,-7.67516,-0.00768714,0.110525,
2,0,0,1,0,43291.5,0.10662,0.106302,-0.694258,65,0.795125,10,-7.38013e-05,-3.15848,2.51405,0.0234681,0.106608,
2,0,0,1,0,43292.3,0.102625,0.102293,-0.690037,65,0.794558,10,-7.05863e-05,-3.16113,0.956627,0.061675,0.102597,
2,0,0,1,0,43293.1,0.0986305,0.098299,-0.683631,65,0.793996,10,-6.72003e-05,-3.16518,0.96997,0.0608267,0.0985998,
2,0,0,0,0,43293.9,0.0946351,0.094316,-0.67487,65,0.793439,10,-6.3651e-05,-3.17078,0.831371,0.0709671,0.0946129,
2,0,0,1,0,43294.7,0.0906399,0.090297,-0.669227,65,0.792888,10,-6.04292e-05,-3.17443,0.721664,0.0817555,0.0905915,
2,0,0,0,0,43295.5,0.0866448,0.0863343,-0.660485,65,0.792342,10,-5.70225e-05,-3.18014,0.676341,0.0872341,0.0866249,
2,0,0,1,0,43296.3,0.0826492,0.0823064,-0.65093,65,0.791804,10,-5.35757e-05,-3.18647,0.60465,0.0975772,0.0825928,
2,0,0,1,0,43297.1,0.0786544,0.0783207,-0.643018,65,0.791275,10,-5.03616e-05,-3.19178,0.787829,0.0748894,0.0786036,
2,0,0,1,0,43297.9,0.0746596,0.0743542,-0.634709,65,0.790752,10,-4.71933e-05,-3.19743,0.717602,0.0822182,0.0746335,
2,0,0,1,0,43298.7,0.0706641,0.0703296,-0.626108,65,0.790236,10,-4.40339e-05,-3.20335,0.581306,0.101496,0.070605,
2,0,0,0,0,43299.5,0.0666689,0.0663488,-0.618224,65,0.789727,10,-4.10184e-05,-3.20885,0.757497,0.0778881,0.0666208,
2,0,0,1,0,43300.3,0.0626737,0.0623744,-0.607175,65,0.789224,10,-3.78722e-05,-3.21669,0.60797,0.0970443,0.0626416,
2,0,0,1,0,43301.1,0.0586783,0.0582906,-0.600156,65,0.788728,10,-3.49834e-05,-3.22174,0.591876,0.099683,0.0585546,
2,0,0,1,0,43301.9,0.0546835,0.0543325,-0.59083,65,0.788239,10,-3.21013e-05,-3.22854,0.684214,0.0862303,0.0545925,
2,0,0,1,0,43302.7,0.0506886,0.0503605,-0.580844,65,0.787758,10,-2.92516e-05,-3.23594,0.569012,0.103688,0.050616,
2,0,0,0,0,43303.5,0.046693,0.0463379,-0.571023,65,0.787285,10,-2.646e-05,-3.24335,0.486339,0.121314,0.0465891,
2,0,0,1,0,43304.3,0.0426979,0.0423804,-0.560345,65,0.78682,10,-2.37477e-05,-3.25154,0.561551,0.105066,0.042627,
2,0,0,1,0,43305.1,0.0387022,0.038378,-0.550563,65,0.786362,10,-2.11295e-05,-3.25919,0.420099,0.140443,0.0386202,
2,0,0,1,0,43305.9,0.0347074,0.0343797,-0.541127,65,0.785914,10,-1.86038e-05,-3.2667,0.537016,0.109866,0.0346178,
2,0,0,1,0,43306.7,0.0307126,0.0303449,-0.529698,65,0.785473,10,-1.60737e-05,-3.27597,0.556535,0.106013,0.030578,
2,0,0,0,0,43307.5,0.0267172,0.0263863,-0.521626,65,0.78504,10,-1.37638e-05,-3.28264,0.459168,0.128493,0.0266158,
2,0,0,1,0,43308.3,0.022722,0.0224109,-0.513508,65,0.784614,10,-1.15082e-05,-3.28945,0.810678,0.0727786,0.0226368,
2,0,0,0,0,43309.1,0.0187268,0.0183643,-0.508,65,0.784193,10,-9.32909e-06,-3.29414,0.920249,0.0641131,0.0185879,
2,0,0,1,0,43309.9,0.0147313,0.0144099,-0.503613,65,0.783778,10,-7.25699e-06,-3.2979,1.03447,0.0570339,0.0146314,
2,0,0,1,0,43310.7,0.0107365,0.0104496,-0.498383,65,0.783365,10,-5.20792e-06,-3.30244,3.90691,0.0151015,0.0106689,
2,0,0,1,0,43311.5,0.00674163,0.00638852,-0.498403,65,0.782954,10,-3.18406e-06,-3.30242,2.54082,0.0232209,0.00660782,
2,0,0,1,0,43312.3,0.00274612,0.00242325,-0.498457,65,0.782544,10,-1.20789e-06,-3.30237,-1.63145,-0.036164,0.00264257,
2,0,0,0,0,43312.8,0.000274105,-0.000120135,-0.50022,65,0.782287,10,6.00939e-08,-3.30084, , ,9.9962e-05,