File: Figure_codes/Fig_3-5/workspace_calculate_alpha_eff/20221101_1-115_003_TrumpetPlot_ParaChange_from10_every3_16_CV_C01_26.csv
mode,ox/red,error,control changes,counter inc.,time/s,control/V,Ewe/V,<I>/mA,cycle number,(Q-Qo)/C,I Range,P/W,log(|I|),Tafel slope mV/dec,alpha_eff,E-IR/V,
2,0,0,0,0,17731.2,2.44065e-05,-0.000325324,-0.110207,27,0.0000000E+000,10,3.58528e-08,-3.95779, , ,-0.000276833,
2,1,0,0,0,17731.9,0.00379485,0.00348472,0.151387,27,0.000100196,10,5.27539e-07,-3.81991,0.0360744,1.63551,0.00341811,
2,1,0,1,0,17732.7,0.00779002,0.00749517,0.176374,27,0.000244854,10,1.32196e-06,-3.75356,0.0729784,0.808459,0.00741757,
2,1,0,0,0,17733.5,0.0117852,0.0114622,0.190584,27,0.000405633,10,2.18451e-06,-3.71991,0.123337,0.478363,0.0113783,
2,1,0,1,0,17734.3,0.0157806,0.0154698,0.207915,27,0.000578854,10,3.2164e-06,-3.68211,0.115514,0.510759,0.0153783,
2,1,0,1,0,17735.1,0.0197754,0.0194544,0.221345,27,0.00076335,10,4.30614e-06,-3.65493,0.155229,0.380083,0.0193571,
2,1,0,1,0,17735.9,0.0237704,0.0234348,0.235238,27,0.000959455,10,5.51274e-06,-3.62849,0.167197,0.352877,0.0233313,
2,1,0,1,0,17736.7,0.0277659,0.0274764,0.250809,27,0.00116684,10,6.89134e-06,-3.60066,0.142745,0.413324,0.0273661,
2,1,0,0,0,17737.5,0.0317611,0.0314349,0.264425,27,0.00138601,10,8.31218e-06,-3.5777,0.172736,0.341561,0.0313186,
2,1,0,1,0,17738.3,0.0357567,0.0354692,0.279568,27,0.00161697,10,9.91605e-06,-3.55351,0.191435,0.308199,0.0353462,
2,1,0,1,0,17739.1,0.0397516,0.0393923,0.294404,27,0.00185947,10,1.15973e-05,-3.53106,0.156858,0.376137,0.0392628,
2,1,0,1,0,17739.9,0.0437465,0.0434618,0.308272,27,0.00211413,10,1.33981e-05,-3.51107,0.217426,0.271357,0.0433262,
2,1,0,1,0,17740.7,0.0477413,0.0474413,0.322514,27,0.00237946,10,1.53005e-05,-3.49145,0.229592,0.256978,0.0472994,
2,1,0,0,0,17741.5,0.0517369,0.0514045,0.335247,27,0.0026552,10,1.72332e-05,-3.47464,0.204787,0.288104,0.051257,
2,1,0,1,0,17742.3,0.0557321,0.055434,0.347602,27,0.00294181,10,1.9269e-05,-3.45892,0.33828,0.174412,0.0552811,
2,1,0,1,0,17743.1,0.0597277,0.0593897,0.36007,27,0.00323779,10,2.13844e-05,-3.44361,0.272291,0.21668,0.0592313,
2,1,0,1,0,17743.9,0.0637226,0.0633987,0.37035,27,0.00354358,10,2.34797e-05,-3.43139,0.297598,0.198254,0.0632358,
2,1,0,1,0,17744.7,0.0677174,0.0673908,0.381904,27,0.00385891,10,2.57368e-05,-3.41805,0.451242,0.13075,0.0672228,
2,1,0,0,0,17745.5,0.0717128,0.0713571,0.391302,27,0.00418185,10,2.79221e-05,-3.40749,0.277567,0.212561,0.0711849,
2,1,0,1,0,17746.3,0.075708,0.0753686,0.399897,27,0.00451259,10,3.01397e-05,-3.39805,0.433907,0.135974,0.0751927,
2,1,0,0,0,17747.1,0.0797031,0.0794024,0.410702,27,0.00485049,10,3.26107e-05,-3.38647,0.385639,0.152993,0.0792217,
2,1,0,1,0,17747.9,0.0836986,0.0834079,0.41958,27,0.00519579,10,3.49963e-05,-3.37719,0.363736,0.162206,0.0832233,
2,1,0,1,0,17748.7,0.0876935,0.087368,0.431618,27,0.00554973,10,3.77096e-05,-3.3649,0.313519,0.188186,0.0871781,
2,1,0,1,0,17749.5,0.0916883,0.091374,0.446044,27,0.00591356,10,4.07569e-05,-3.35062,0.249687,0.236296,0.0911778,
2,1,0,1,0,17750.3,0.0956838,0.095352,0.463091,27,0.00629096,10,4.41566e-05,-3.33433,0.216999,0.271891,0.0951482,
2,1,0,0,0,17751.1,0.099679,0.0994176,0.486755,27,0.00668474,10,4.8392e-05,-3.31269,0.210818,0.279863,0.0992034,
2,1,0,1,0,17751.9,0.103674,0.103376,0.510868,27,0.007097,10,5.28115e-05,-3.29169,0.167568,0.352095,0.103151,
2,1,0,1,0,17752.7,0.10767,0.107351,0.532554,27,0.00752942,10,5.71701e-05,-3.27364,0.225735,0.261369,0.107117,
2,1,0,1,0,17753.5,0.111664,0.111346,0.555989,27,0.00797858,10,6.19071e-05,-3.25493,0.255654,0.230781,0.111101,
2,1,0,1,0,17754.3,0.115659,0.115303,0.571575,27,0.00844235,10,6.59042e-05,-3.24293,0.292671,0.201591,0.115051,
2,1,0,0,0,17755.1,0.119655,0.119332,0.586368,27,0.00891987,10,6.99724e-05,-3.23183,0.541037,0.10905,0.119074,
2,1,0,1,0,17755.9,0.12365,0.123347,0.601423,27,0.00940821,10,7.41836e-05,-3.22082,0.356548,0.165476,0.123082,
2,1,0,1,0,17756.7,0.127646,0.12733,0.614024,27,0.00990906,10,7.81837e-05,-3.21181,0.458462,0.128691,0.12706,
2,1,0,1,0,17757.5,0.131641,0.131307,0.625375,27,0.01042,10,8.21163e-05,-3.20386,-112.324,-0.000525267,0.131032,
2,1,0,1,0,17758.3,0.135635,0.135361,0.61565,27,0.0109319,10,8.3335e-05,-3.21067,-0.437613,-0.134822,0.13509,
2,1,0,0,0,17759.1,0.139631,0.139328,0.589319,27,0.0114301,10,8.21088e-05,-3.22965,-0.130891,-0.450758,0.139069,
2,1,0,1,0,17759.9,0.143626,0.143321,0.540117,27,0.0118959,10,7.74098e-05,-3.26751,-0.0866124,-0.681196,0.143083,
2,1,0,0,0,17760.7,0.147621,0.147344,0.475178,27,0.0123151,10,7.00145e-05,-3.32314,-0.0675148,-0.873883,0.147135,
2,1,0,1,0,17761.5,0.151617,0.151291,0.416135,27,0.0126839,10,6.29575e-05,-3.38077,-0.0701746,-0.84076,0.151108,
2,1,0,1,0,17762.3,0.155612,0.15532,0.371191,27,0.0130099,10,5.76534e-05,-3.4304,-0.0945045,-0.624309,0.155157,
2,1,0,1,0,17763.1,0.159606,0.159312,0.339132,27,0.0133055,10,5.4028e-05,-3.46963,-0.12062,-0.489141,0.159163,
2,1,0,1,0,17763.9,0.163602,0.16326,0.317609,27,0.0135802,10,5.18529e-05,-3.49811,-0.150391,-0.392309,0.163121,
2,1,0,0,0,17764.7,0.167597,0.167309,0.302041,27,0.01384,10,5.05341e-05,-3.51993,-0.268465,-0.219768,0.167176,
2,1,0,1,0,17765.5,0.171592,0.171268,0.28931,27,0.0140898,10,4.95494e-05,-3.53864,-0.22753,-0.259306,0.17114,
2,1,0,1,0,17766.3,0.175588,0.175273,0.282601,27,0.0143316,10,4.95323e-05,-3.54883,-0.391737,-0.150611,0.175149,
2,1,0,1,0,17767.1,0.179582,0.179328,0.275128,27,0.0145672,10,4.93381e-05,-3.56046,-0.449443,-0.131273,0.179207,
2,1,0,1,0,17767.9,0.183577,0.183275,0.270061,27,0.0147983,10,4.94955e-05,-3.56854,-0.476729,-0.12376,0.183156,
2,1,0,0,0,17768.7,0.187573,0.187275,0.265618,27,0.0150252,10,4.97436e-05,-3.57574,-0.575942,-0.102441,0.187159,
2,1,0,1,0,17769.5,0.191568,0.191238,0.260828,27,0.0152489,10,4.98803e-05,-3.58365,-0.654787,-0.0901056,0.191123,
2,1,0,0,0,17770.3,0.195563,0.195284,0.258497,27,0.0154701,10,5.04802e-05,-3.58754,-0.568176,-0.103841,0.19517,
2,1,0,1,0,17771.1,0.199559,0.199284,0.256101,27,0.0156884,10,5.10367e-05,-3.59159,-1.92561,-0.0306396,0.199171,
2,1,0,1,0,17771.9,0.203553,0.203242,0.251901,27,0.0159048,10,5.11967e-05,-3.59877,-0.82735,-0.071312,0.203131,
2,1,0,1,0,17772.7,0.207548,0.207239,0.251852,27,0.0161195,10,5.21936e-05,-3.59885,-3.16923,-0.0186165,0.207128,
2,1,0,1,0,17773.5,0.211544,0.211257,0.249093,27,0.0163323,10,5.26224e-05,-3.60364,-1.09741,-0.0537631,0.211147,
2,1,0,0,0,17774.3,0.215539,0.215226,0.246089,27,0.0165438,10,5.29647e-05,-3.60891,-0.921235,-0.0640444,0.215117,
2,1,0,1,0,17775.1,0.219535,0.219215,0.245217,27,0.0167535,10,5.37554e-05,-3.61045,-1.64645,-0.0358348,0.219107,
2,1,0,1,0,17775.9,0.223529,0.2232,0.244682,27,0.0169617,10,5.46129e-05,-3.6114,-2.73554,-0.021568,0.223092,
2,1,0,1,0,17776.7,0.227524,0.227206,0.243336,27,0.0171691,10,5.52875e-05,-3.61379,-0.953227,-0.061895,0.227099,
2,1,0,1,0,17777.5,0.23152,0.231227,0.242413,27,0.0173752,10,5.60524e-05,-3.61544,-3.24799,-0.0181651,0.231121,
2,1,0,0,0,17778.3,0.235515,0.235209,0.238985,27,0.0175806,10,5.62115e-05,-3.62163,-1.05819,-0.0557555,0.235104,
2,1,0,1,0,17779.1,0.23951,0.23921,0.240014,27,0.0177847,10,5.74138e-05,-3.61976,-7.4262,-0.00794484,0.239104,
2,1,0,1,0,17779.9,0.243506,0.243223,0.238301,27,0.0179882,10,5.79603e-05,-3.62287,-20.3041,-0.00290581,0.243118,
2,1,0,1,0,17780.7,0.2475,0.247186,0.237521,27,0.0181909,10,5.8712e-05,-3.6243,-0.74762,-0.0789171,0.247082,
2,1,0,1,0,17781.5,0.251495,0.251179,0.236126,27,0.0183925,10,5.931e-05,-3.62686,12.396,0.00475958,0.251076,
2,1,0,0,0,17782.3,0.255491,0.255183,0.235262,27,0.0185932,10,6.00348e-05,-3.62845,-2.15075,-0.0274323,0.255079,
2,1,0,1,0,17783.1,0.259486,0.259195,0.233894,27,0.0187936,10,6.06243e-05,-3.63098,-1.19214,-0.0494907,0.259093,
2,1,0,0,0,17783.9,0.263481,0.2632,0.233412,27,0.0189928,10,6.1434e-05,-3.63188,-14.0749,-0.00419187,0.263097,
2,1,0,1,0,17784.7,0.267477,0.267205,0.23214,27,0.0191917,10,6.20289e-05,-3.63425,-1.70244,-0.0346561,0.267103,
2,1,0,1,0,17785.5,0.271471,0.271139,0.232161,27,0.0193898,10,6.29478e-05,-3.63421,-5.21142,-0.0113213,0.271036,
2,1,0,1,0,17786.3,0.275466,0.275187,0.23151,27,0.0195869,10,6.37086e-05,-3.63543,-11.1783,-0.00527808,0.275085,
2,1,0,1,0,17787.1,0.279462,0.279197,0.230068,27,0.0197837,10,6.42341e-05,-3.63814,-1.09998,-0.0536376,0.279096,
2,1,0,0,0,17787.8,0.283457,0.283162,0.23004,27,0.0199793,10,6.51384e-05,-3.6382,-2.08147,-0.0283453,0.28306,
2,1,0,1,0,17788.6,0.287452,0.287157,0.227657,27,0.0201744,10,6.53734e-05,-3.64272,-11.0859,-0.00532209,0.287057,
2,1,0,1,0,17789.4,0.291448,0.29113,0.228455,27,0.0203691,10,6.65099e-05,-3.6412,-1.24171,-0.0475152,0.291029,
2,1,0,1,0,17790.2,0.295442,0.295123,0.228131,27,0.0205628,10,6.73266e-05,-3.64182,14.6687,0.00402217,0.295022,
2,1,0,1,0,17791,0.299437,0.299144,0.22478,27,0.020756,10,6.72416e-05,-3.64824,-2.21274,-0.0266638,0.299045,
2,1,0,0,0,17791.8,0.303433,0.303133,0.225265,27,0.0209486,10,6.82853e-05,-3.64731,-52.4748,-0.00112435,0.303034,
2,1,0,1,0,17792.6,0.307428,0.307095,0.224755,27,0.0211403,10,6.90213e-05,-3.64829,-1.78488,-0.0330555,0.306996,
2,1,0,1,0,17793.4,0.311424,0.311105,0.223727,27,0.0213317,10,6.96024e-05,-3.65028,-1.35063,-0.0436832,0.311006,
2,1,0,1,0,17794.2,0.315418,0.315096,0.224497,27,0.021522,10,7.07379e-05,-3.64879,6.10878,0.00965824,0.314997,
2,1,0,1,0,17795,0.319413,0.319094,0.222307,27,0.0217119,10,7.0937e-05,-3.65305,-1.86573,-0.0316231,0.318996,
2,1,0,0,0,17795.8,0.323409,0.32311,0.221028,27,0.0219014,10,7.14163e-05,-3.65555,-1.36943,-0.0430835,0.323013,
2,1,0,1,0,17796.6,0.327404,0.327078,0.221147,27,0.0220901,10,7.23324e-05,-3.65532,10.37,0.00568949,0.326981,
2,1,0,0,0,17797.4,0.331399,0.331119,0.219794,27,0.0222783,10,7.27779e-05,-3.65798,-3.21087,-0.0183751,0.331022,
2,1,0,1,0,17798.2,0.335395,0.335086,0.219944,27,0.022466,10,7.37002e-05,-3.65769,-3.47926,-0.0169576,0.334989,
2,1,0,1,0,17799,0.339389,0.339084,0.218234,27,0.0226531,10,7.39997e-05,-3.66108,-3.54796,-0.0166293,0.338988,
2,1,0,1,0,17799.8,0.343384,0.343099,0.218746,27,0.02284,10,7.50513e-05,-3.66006,-2.35486,-0.0250545,0.343002,
2,1,0,1,0,17800.6,0.34738,0.347084,0.219635,27,0.0230264,10,7.62317e-05,-3.6583,-2.13933,-0.0275787,0.346987,
2,1,0,0,0,17801.4,0.351375,0.351059,0.217541,27,0.0232123,10,7.63699e-05,-3.66246,2.15605,0.0273648,0.350964,
2,1,0,1,0,17802.2,0.35537,0.355088,0.216762,27,0.0233978,10,7.69697e-05,-3.66402,-1.49446,-0.0394792,0.354993,
2,1,0,1,0,17803,0.359366,0.359048,0.217265,27,0.0235827,10,7.80084e-05,-3.66301,3.77847,0.0156148,0.358952,
2,1,0,1,0,17803.8,0.36336,0.363047,0.214823,27,0.0237677,10,7.7991e-05,-3.66792,-1.21515,-0.0485536,0.362953,
2,1,0,1,0,17804.6,0.367355,0.367058,0.2157,27,0.0239522,10,7.91743e-05,-3.66615,-12.384,-0.0047642,0.366964,
2,1,0,0,0,17805.4,0.371351,0.371066,0.216047,27,0.0241361,10,8.01677e-05,-3.66545,6.94187,0.00849915,0.370971,
2,1,0,1,0,17806.2,0.375346,0.375068,0.215393,27,0.0243199,10,8.07871e-05,-3.66677,-1.35507,-0.0435401,0.374973,
2,1,0,1,0,17807,0.379342,0.379062,0.214848,27,0.0245032,10,8.14407e-05,-3.66787,-4.48081,-0.0131673,0.378968,
2,1,0,1,0,17807.8,0.383336,0.383061,0.214943,27,0.0246862,10,8.23365e-05,-3.66768,9.23647,0.00638772,0.382967,
2,1,0,1,0,17808.6,0.387331,0.387038,0.214563,27,0.0248692,10,8.30439e-05,-3.66845,-4.42867,-0.0133223,0.386943,
2,1,0,0,0,17809.4,0.391327,0.391036,0.214336,27,0.0250518,10,8.38131e-05,-3.6689,-65.4695,-0.000901182,0.390941,
2,1,0,1,0,17810.2,0.395322,0.395001,0.213286,27,0.0252342,10,8.42482e-05,-3.67104,4.75565,0.0124063,0.394907,
2,1,0,0,0,17811,0.399317,0.399027,0.213021,27,0.0254163,10,8.50012e-05,-3.67158,-1.3597,-0.0433918,0.398933,
2,1,0,1,0,17811.8,0.403313,0.40305,0.213795,27,0.0255982,10,8.61699e-05,-3.67,4.1803,0.0141138,0.402955,
2,1,0,1,0,17812.6,0.407307,0.407004,0.213428,27,0.0257801,10,8.68663e-05,-3.67075,-42.7195,-0.0013811,0.406911,
2,1,0,1,0,17813.4,0.411302,0.410985,0.214544,27,0.0259616,10,8.81744e-05,-3.66848,10.2354,0.00576431,0.41089,
2,1,0,1,0,17814.2,0.415298,0.415044,0.213199,27,0.0261432,10,8.84872e-05,-3.67121,11.733,0.00502856,0.414951,
2,1,0,0,0,17815,0.419293,0.419006,0.213282,27,0.0263246,10,8.93664e-05,-3.67105,-1.24492,-0.0473925,0.418912,
2,1,0,1,0,17815.8,0.423288,0.422997,0.21271,27,0.0265056,10,8.99757e-05,-3.67221,2.07988,0.028367,0.422904,
2,1,0,1,0,17816.6,0.427283,0.427005,0.211955,27,0.0266867,10,9.0506e-05,-3.67376,14.2801,0.00413163,0.426912,
2,1,0,1,0,17817.4,0.431278,0.431004,0.213473,27,0.0268679,10,9.2008e-05,-3.67066,7.57405,0.00778976,0.430911,
2,1,0,1,0,17818.2,0.435273,0.434954,0.212884,27,0.0270488,10,9.25948e-05,-3.67186,4.2488,0.0138863,0.434861,
2,1,0,0,0,17819,0.439269,0.438977,0.213447,27,0.0272302,10,9.36982e-05,-3.67071,-8.68005,-0.0067972,0.438883,
2,1,0,1,0,17819.8,0.443264,0.44298,0.213551,27,0.0274114,10,9.45989e-05,-3.6705,-30.1243,-0.00195855,0.442886,
2,1,0,0,0,17820.6,0.447259,0.446962,0.213446,27,0.0275926,10,9.54024e-05,-3.67071,1.53534,0.038428,0.446868,
2,1,0,1,0,17821.4,0.451254,0.450993,0.214045,27,0.0277741,10,9.65329e-05,-3.66949,-1.08925,-0.0541655,0.450899,
2,1,0,1,0,17822.2,0.455249,0.454955,0.213579,27,0.0279555,10,9.71687e-05,-3.67044,2.1678,0.0272165,0.454861,
2,1,0,1,0,17823,0.459244,0.458928,0.213909,27,0.0281375,10,9.81689e-05,-3.66977,1.95121,0.0302377,0.458834,
2,1,0,1,0,17823.8,0.46324,0.462932,0.214043,27,0.0283195,10,9.90874e-05,-3.6695,-9.11515,-0.00647274,0.462838,
2,1,0,0,0,17824.6,0.467235,0.466906,0.215068,27,0.0285015,10,0.000100416,-3.66742,1.91408,0.0308242,0.466811,
2,1,0,1,0,17825.4,0.471231,0.470913,0.21571,27,0.0286838,10,0.000101581,-3.66613,4.87425,0.0121044,0.470819,
2,1,0,1,0,17826.2,0.475225,0.474934,0.216821,27,0.0288665,10,0.000102976,-3.6639,3.45173,0.0170929,0.474839,
2,1,0,1,0,17827,0.47922,0.478949,0.216031,27,0.0290496,10,0.000103468,-3.66548,3.47332,0.0169867,0.478854,
2,1,0,1,0,17827.8,0.483216,0.482884,0.216456,27,0.0292332,10,0.000104523,-3.66463,-2.54668,-0.0231675,0.482789,
2,1,0,0,0,17828.6,0.487211,0.486943,0.217413,27,0.029417,10,0.000105868,-3.66271,3.05708,0.0192995,0.486848,
2,1,0,1,0,17829.4,0.491206,0.490968,0.217278,27,0.0296015,10,0.000106676,-3.66298,1.37458,0.0429223,0.490873,
2,1,0,1,0,17830.2,0.495201,0.494933,0.218642,27,0.0297864,10,0.000108213,-3.66027,2.29439,0.025715,0.494837,
2,1,0,1,0,17831,0.499196,0.498943,0.220129,27,0.029972,10,0.000109832,-3.65732,1.21606,0.0485174,0.498846,
2,1,0,1,0,17831.8,0.503191,0.502886,0.221149,27,0.0301588,10,0.000111213,-3.65532,1.87658,0.0314401,0.502789,
2,1,0,0,0,17832.6,0.507187,0.506865,0.22206,27,0.0303459,10,0.000112554,-3.65353,4.40677,0.0133885,0.506767,
2,1,0,1,0,17833.4,0.511182,0.510928,0.22285,27,0.0305341,10,0.000113861,-3.65199,1.27203,0.0463825,0.51083,
2,1,0,0,0,17834.2,0.515177,0.51488,0.225069,27,0.0307236,10,0.000115883,-3.64768,-216.305,-0.000272763,0.514781,
2,1,0,1,0,17835,0.519173,0.518881,0.226105,27,0.0309139,10,0.000117321,-3.64569,0.709781,0.0831242,0.518781,
2,1,0,1,0,17835.8,0.523167,0.522892,0.226454,27,0.0311053,10,0.000118411,-3.64502,1.29524,0.0455513,0.522792,
2,1,0,1,0,17836.6,0.527162,0.526885,0.228728,27,0.0312976,10,0.000120513,-3.64068,2.74123,0.0215232,0.526785,
2,1,0,1,0,17837.4,0.531158,0.530877,0.230989,27,0.0314912,10,0.000122627,-3.63641,0.920145,0.0641203,0.530775,
2,1,0,0,0,17838.2,0.535153,0.534885,0.232753,27,0.0316863,10,0.000124496,-3.6331,1.04979,0.0562016,0.534783,
2,1,0,1,0,17839,0.539148,0.538862,0.234524,27,0.0318825,10,0.000126376,-3.62981,2.22884,0.0264712,0.538758,
2,1,0,1,0,17839.8,0.543143,0.542897,0.236048,27,0.0320805,10,0.000128149,-3.627,1.34162,0.0439765,0.542793,
2,1,0,1,0,17840.6,0.547138,0.546828,0.237682,27,0.0322799,10,0.000129971,-3.624,0.727076,0.081147,0.546723,
2,1,0,1,0,17841.4,0.551133,0.550838,0.241628,27,0.0324815,10,0.000133098,-3.61685,0.868319,0.0679474,0.550732,
2,1,0,0,0,17842.2,0.555129,0.554854,0.242866,27,0.0326853,10,0.000134755,-3.61463,0.602228,0.0979695,0.554747,
2,1,0,1,0,17843,0.559124,0.558838,0.24741,27,0.0328912,10,0.000138262,-3.60658,0.786512,0.0750147,0.558729,
2,1,0,1,0,17843.8,0.56312,0.562876,0.250623,27,0.0330997,10,0.00014107,-3.60098,0.553429,0.106608,0.562766,
2,1,0,1,0,17844.6,0.567114,0.566819,0.254331,27,0.033311,10,0.00014416,-3.5946,0.719467,0.0820052,0.566708,
2,1,0,1,0,17845.4,0.571109,0.570797,0.257442,27,0.0335252,10,0.000146947,-3.58932,0.526649,0.112029,0.570683,
2,1,0,0,0,17846.2,0.575105,0.574801,0.261856,27,0.0337428,10,0.000150515,-3.58194,0.708408,0.0832853,0.574686,
2,1,0,1,0,17847,0.5791,0.578813,0.268249,27,0.0339645,10,0.000155266,-3.57146,0.479283,0.1231,0.578695,
2,1,0,0,0,17847.8,0.583095,0.582819,0.273555,27,0.0341902,10,0.000159433,-3.56296,0.372937,0.158204,0.582698,
2,1,0,1,0,17848.6,0.58709,0.586845,0.27933,27,0.034421,10,0.000163923,-3.55388,0.380018,0.155256,0.586722,
2,1,0,1,0,17849.4,0.591085,0.59083,0.28746,27,0.0346572,10,0.00016984,-3.54142,0.298289,0.197795,0.590704,
2,1,0,1,0,17850.2,0.59508,0.594773,0.29547,27,0.0348997,10,0.000175738,-3.52949,0.304613,0.193689,0.594643,
2,1,0,1,0,17851,0.599076,0.598787,0.304981,27,0.0351492,10,0.000182619,-3.51573,0.277007,0.212991,0.598653,
2,1,0,0,0,17851.8,0.603071,0.60279,0.316575,27,0.0354064,10,0.000190828,-3.49952,0.269148,0.21921,0.602651,
2,1,0,1,0,17852.6,0.607066,0.606818,0.326835,27,0.0356724,10,0.000198329,-3.48567,0.236368,0.24961,0.606674,
2,1,0,1,0,17853.4,0.611061,0.610803,0.34182,27,0.035949,10,0.000208785,-3.4662,0.221197,0.266731,0.610653,
2,1,0,1,0,17854.2,0.615056,0.61479,0.356077,27,0.0362371,10,0.000218913,-3.44846,0.175906,0.335406,0.614633,
2,1,0,1,0,17855,0.619051,0.618782,0.375545,27,0.0365398,10,0.000232381,-3.42534,0.175715,0.33577,0.618617,
2,1,0,0,0,17855.8,0.623047,0.62277,0.397784,27,0.0368585,10,0.000247728,-3.40035,0.150596,0.391777,0.622595,
2,1,0,1,0,17856.6,0.627042,0.626773,0.422823,27,0.0371962,10,0.000265014,-3.37384,0.14012,0.421067,0.626587,
2,1,0,1,0,17857.4,0.631037,0.630765,0.452943,27,0.0375561,10,0.000285701,-3.34396,0.133367,0.442387,0.630566,
2,1,0,1,0,17858.2,0.635032,0.634755,0.488235,27,0.0379413,10,0.00030991,-3.31137,0.116342,0.507127,0.634541,
2,1,0,1,0,17859,0.639027,0.638758,0.529214,27,0.038357,10,0.000338039,-3.27637,0.108784,0.54236,0.638525,
2,1,0,1,0,17859.8,0.643022,0.642739,0.576791,27,0.038808,10,0.000370726,-3.23898,0.107143,0.550667,0.642485,
2,1,0,1,0,17860.6,0.647018,0.646759,0.634478,27,0.0393006,10,0.000410354,-3.19758,0.0902324,0.653867,0.64648,
2,1,0,0,0,17861.4,0.651013,0.650768,0.700095,27,0.0398432,10,0.000455599,-3.15484,0.088968,0.66316,0.650459,
2,1,0,1,0,17862.2,0.655008,0.654739,0.780027,27,0.040444,10,0.000510714,-3.10789,0.081986,0.719635,0.654396,
2,1,0,1,0,17863,0.659003,0.658726,0.873018,27,0.0411131,10,0.000575079,-3.05898,0.0798073,0.739281,0.658342,
2,1,0,1,0,17863.8,0.662998,0.662712,0.980465,27,0.0418624,10,0.000649766,-3.00857,0.0770399,0.765837,0.66228,
2,1,0,1,0,17864.6,0.666994,0.666754,1.10435,27,0.0427042,10,0.000736332,-2.95689,0.0735696,0.801962,0.666268,
2,1,0,0,0,17865.4,0.670989,0.670732,1.24908,27,0.0436533,10,0.000837796,-2.90341,0.0743852,0.793169,0.670182,
2,1,0,1,0,17866.2,0.674984,0.674716,1.41562,27,0.0447266,10,0.00095514,-2.84905,0.0718456,0.821205,0.674093,
2,1,0,1,0,17867,0.67898,0.678682,1.6046,27,0.0459417,10,0.00108902,-2.79463,0.0713811,0.82655,0.677976,
2,1,0,1,0,17867.8,0.682974,0.682667,1.82006,27,0.0473185,10,0.0012425,-2.73991,0.0705646,0.836113,0.681866,
2,1,0,1,0,17868.6,0.686969,0.686698,2.06227,27,0.0488783,10,0.00141615,-2.68566,0.072518,0.813591,0.685791,
2,1,0,0,0,17869.4,0.690965,0.690669,2.33371,27,0.050643,10,0.00161182,-2.63195,0.0727935,0.810512,0.689643,
2,1,0,1,0,17870.2,0.69496,0.694708,2.63399,27,0.052636,10,0.00182985,-2.57939,0.073824,0.799198,0.693549,
2,1,0,0,0,17870.9,0.698955,0.698668,2.9637,27,0.0548806,10,0.00207064,-2.52817,0.0764615,0.77163,0.697364,
2,1,0,1,0,17871.7,0.70295,0.702675,3.32491,27,0.0574015,10,0.00233633,-2.47822,0.0782938,0.753572,0.701212,
2,1,0,1,0,17872.5,0.706945,0.706665,3.71777,27,0.0602234,10,0.00262722,-2.42972,0.0806186,0.731841,0.705029,
2,1,0,1,0,17873.3,0.71094,0.710658,4.13967,27,0.0633708,10,0.00294189,-2.38303,0.0807875,0.730311,0.708836,
2,1,0,1,0,17874.1,0.714936,0.714689,4.59246,27,0.0668687,10,0.00328218,-2.33795,0.0859287,0.686616,0.712668,
2,1,0,0,0,17874.9,0.718931,0.718683,5.07734,27,0.07074,10,0.003649,-2.29436,0.0893972,0.659976,0.716449,
2,1,0,1,0,17875.7,0.722927,0.722649,5.58921,27,0.0750106,10,0.00403903,-2.25265,0.0914578,0.645106,0.720189,
2,1,0,1,0,17876.5,0.726921,0.726668,6.13134,27,0.0797021,10,0.00445545,-2.21244,0.0946266,0.623503,0.72397,
2,1,0,1,0,17877.3,0.730916,0.730619,6.7027,27,0.084838,10,0.00489712,-2.17375,0.0997839,0.591278,0.72767,
2,1,0,1,0,17878.1,0.734911,0.734625,7.30147,27,0.090442,10,0.00536384,-2.13659,0.101774,0.579714,0.731412,
2,1,0,0,0,17878.9,0.738907,0.73864,7.92857,27,0.0965364,10,0.00585636,-2.10081,0.10544,0.559562,0.735152,
2,1,0,1,0,17879.7,0.742902,0.742625,8.58351,27,0.103142,10,0.00637433,-2.06634,0.112561,0.524159,0.738848,
2,1,0,1,0,17880.5,0.746897,0.746639,9.25011,27,0.11027,10,0.0069065,-2.03385,0.113149,0.521435,0.742569,
2,1,0,1,0,17881.3,0.750892,0.750618,9.96232,27,0.117954,10,0.00747789,-2.00164,0.112833,0.522895,0.746234,
2,1,0,1,0,17882.1,0.754887,0.754615,10.7124,27,0.126223,10,0.00808374,-1.97011,0.12024,0.490685,0.749902,
2,1,0,0,0,17882.9,0.758883,0.758608,11.4946,27,0.135104,10,0.00871987,-1.93951,0.120079,0.491343,0.75355,
2,1,0,1,0,17883.7,0.762878,0.762571,12.318,27,0.144625,10,0.00939337,-1.90946,0.119661,0.493058,0.757151,
2,1,0,0,0,17884.5,0.766873,0.76656,13.2002,27,0.154829,10,0.0101187,-1.87942,0.120853,0.488198,0.760752,
2,1,0,1,0,17885.3,0.770868,0.770609,14.097,27,0.165755,10,0.0108633,-1.85087,0.12754,0.4626,0.764406,
2,1,0,1,0,17886.1,0.774863,0.774594,15.0836,27,0.177417,10,0.0116837,-1.8215,0.122473,0.48174,0.767957,
2,1,0,1,0,17886.9,0.778858,0.778611,16.1146,27,0.189885,10,0.012547,-1.79278,0.119956,0.491848,0.77152,
2,1,0,1,0,17887.7,0.782854,0.782616,17.2236,27,0.203214,10,0.0134795,-1.76388,0.124247,0.474859,0.775038,
2,1,0,0,0,17888.5,0.786849,0.786616,18.4224,27,0.217455,10,0.0144914,-1.73465,0.116899,0.504709,0.77851,
2,1,0,1,0,17889.3,0.790844,0.7906,19.6638,27,0.232679,10,0.0155462,-1.70633,0.122618,0.48117,0.781948,
2,1,0,1,0,17890.1,0.794839,0.794566,20.9636,27,0.248923,10,0.016657,-1.67853,0.122609,0.481205,0.785342,
2,1,0,1,0,17890.9,0.798834,0.798579,22.3533,27,0.266242,10,0.0178509,-1.65066,0.123538,0.477585,0.788744,
2,1,0,1,0,17891.7,0.802829,0.802537,23.7647,27,0.284681,10,0.019072,-1.62407,0.12903,0.457259,0.79208,
2,1,0,0,0,17892.5,0.806825,0.806581,25.2391,27,0.304268,10,0.0203574,-1.59793,0.125593,0.469771,0.795476,
2,1,0,1,0,17893.3,0.81082,0.810617,26.787,27,0.325071,10,0.021714,-1.57208,0.133822,0.440884,0.798831,
2,1,0,1,0,17894.1,0.814815,0.814564,28.3344,27,0.347101,10,0.0230802,-1.54769,0.136868,0.431073,0.802096,
2,1,0,1,0,17894.9,0.81881,0.818529,29.8864,27,0.370381,10,0.0244629,-1.52453,0.142003,0.415485,0.805379,
2,1,0,1,0,17895.7,0.822805,0.822565,31.4726,27,0.394923,10,0.0258882,-1.50207,0.161114,0.366199,0.808717,
2,1,0,0,0,17896.5,0.826801,0.826533,32.9977,27,0.420697,10,0.0272737,-1.48152,0.170248,0.346554,0.812014,
2,1,0,1,0,17897.3,0.830796,0.830555,34.5769,27,0.447688,10,0.028718,-1.46121,0.158203,0.37294,0.815341,
2,1,0,0,0,17898.1,0.834791,0.834561,36.1816,27,0.475964,10,0.0301957,-1.44151,0.168392,0.350373,0.818642,
2,1,0,1,0,17898.9,0.838786,0.838579,37.8025,27,0.50554,10,0.0317004,-1.42248,0.184999,0.31892,0.821945,
2,1,0,1,0,17899.7,0.842781,0.842529,39.3324,27,0.536364,10,0.0331387,-1.40525,0.194517,0.303315,0.825223,
2,1,0,1,0,17900.5,0.846776,0.846516,40.8398,27,0.568397,10,0.0345716,-1.38892,0.197713,0.298412,0.828547,
2,1,0,0,0,17901.2,0.849723,0.849472,41.8965,27,0.597474,10,0.0355899,-1.37782,0.049056,1.20271,0.831037,
2,1,0,1,0,17902,0.845728,0.845512,39.5517,27,0.629891,10,0.0334414,-1.40283,0.144222,0.40909,0.828109,
2,1,0,0,0,17902.8,0.841732,0.841487,37.6061,27,0.660687,10,0.0316451,-1.42474,0.14445,0.408446,0.82494,
2,1,0,1,0,17903.6,0.837737,0.837501,35.7574,27,0.689988,10,0.0299469,-1.44663,0.147464,0.400098,0.821768,
2,1,0,1,0,17904.4,0.833742,0.833531,33.9821,27,0.71784,10,0.0283251,-1.46875,0.142214,0.414867,0.818578,
2,1,0,1,0,17905.2,0.829747,0.829509,32.2517,27,0.744292,10,0.0267531,-1.49145,0.138361,0.42642,0.815318,
2,1,0,1,0,17906,0.825752,0.825526,30.5275,27,0.769361,10,0.0252012,-1.51531,0.131677,0.448065,0.812094,
2,1,0,0,0,17906.8,0.821757,0.821549,28.8503,27,0.793059,10,0.023702,-1.53985,0.131544,0.448519,0.808855,
2,1,0,1,0,17907.6,0.817761,0.817494,27.1796,27,0.815423,10,0.0222192,-1.56576,0.12894,0.457578,0.805535,
2,1,0,1,0,17908.4,0.813766,0.813492,25.6053,27,0.836491,10,0.0208297,-1.59167,0.124738,0.472992,0.802226,
2,1,0,1,0,17909.2,0.809771,0.809517,24.0951,27,0.856327,10,0.0195054,-1.61807,0.124603,0.473505,0.798915,
2,1,0,1,0,17910,0.805776,0.805572,22.621,27,0.874974,10,0.0182228,-1.64549,0.122409,0.481991,0.795619,
2,1,0,0,0,17910.8,0.801781,0.801517,21.2263,27,0.892475,10,0.0170133,-1.67313,0.123398,0.478129,0.792177,
2,1,0,1,0,17911.6,0.797786,0.797558,19.8871,27,0.908883,10,0.0158611,-1.70143,0.115292,0.511742,0.788807,
2,1,0,1,0,17912.4,0.79379,0.793538,18.5929,27,0.92424,10,0.0147542,-1.73065,0.119881,0.492155,0.785357,
2,1,0,1,0,17913.2,0.789795,0.789547,17.365,27,0.938588,10,0.0137105,-1.76033,0.113273,0.520868,0.781907,
2,1,0,1,0,17914,0.7858,0.785568,16.1802,27,0.951971,10,0.0127106,-1.79102,0.112387,0.52497,0.778448,
2,1,0,0,0,17914.8,0.781805,0.781528,15.0447,27,0.964434,10,0.0117578,-1.82262,0.109307,0.539765,0.774909,
2,1,0,1,0,17915.6,0.77781,0.777563,13.9617,27,0.976006,10,0.0108561,-1.85506,0.108212,0.545227,0.77142,
2,1,0,0,0,17916.4,0.773815,0.773557,12.9418,27,0.986739,10,0.0100112,-1.88801,0.103577,0.569622,0.767863,
2,1,0,1,0,17917.2,0.769819,0.769559,11.9558,27,0.996665,10,0.00920066,-1.92242,0.10455,0.564321,0.764299,
2,1,0,1,0,17918,0.765824,0.765564,11.0314,27,1.00583,10,0.00844525,-1.95737,0.10376,0.56862,0.76071,
2,1,0,1,0,17918.8,0.761829,0.761605,10.1689,27,1.01429,10,0.00774469,-1.99273,0.100809,0.585265,0.75713,
2,1,0,1,0,17919.6,0.757834,0.75756,9.35199,27,1.02207,10,0.00708469,-2.0291,0.0991204,0.595236,0.753445,
2,1,0,0,0,17920.4,0.753839,0.75359,8.58556,27,1.02922,10,0.00646999,-2.06623,0.096298,0.612681,0.749812,
2,1,0,1,0,17921.2,0.749844,0.74956,7.85852,27,1.03578,10,0.00589044,-2.10466,0.0951507,0.620069,0.746102,
2,1,0,1,0,17922,0.745848,0.745602,7.17484,27,1.04177,10,0.00534957,-2.14419,0.0925469,0.637515,0.742445,
2,1,0,1,0,17922.8,0.741853,0.741554,6.52881,27,1.04723,10,0.00484147,-2.18517,0.08859,0.665989,0.738682,
2,1,0,1,0,17923.6,0.737858,0.737618,5.92899,27,1.0522,10,0.00437333,-2.22702,0.0880419,0.670135,0.73501,
2,1,0,0,0,17924.4,0.733863,0.733614,5.36711,27,1.0567,10,0.00393739,-2.27026,0.0866773,0.680686,0.731252,
2,1,0,1,0,17925.2,0.729868,0.729577,4.84376,27,1.06076,10,0.0035339,-2.31482,0.0827163,0.713282,0.727446,
2,1,0,1,0,17926,0.725872,0.725592,4.35683,27,1.06443,10,0.00316128,-2.36083,0.0802801,0.734927,0.723675,
2,1,0,1,0,17926.8,0.721877,0.721557,3.90204,27,1.06771,10,0.00281554,-2.40871,0.0785742,0.750882,0.71984,
2,1,0,1,0,17927.6,0.717882,0.717606,3.48378,27,1.07065,10,0.00249999,-2.45795,0.074359,0.793448,0.716073,
2,1,0,0,0,17928.4,0.713887,0.713622,3.09015,27,1.07326,10,0.0022052,-2.51002,0.074072,0.796522,0.712262,
2,1,0,1,0,17929.2,0.709892,0.709631,2.73582,27,1.07558,10,0.00194142,-2.56291,0.0708008,0.833324,0.708427,
2,1,0,0,0,17930,0.705897,0.705605,2.40972,27,1.07762,10,0.00170031,-2.61803,0.0691852,0.852784,0.704545,
2,1,0,1,0,17930.8,0.701901,0.701634,2.11099,27,1.07941,10,0.00148114,-2.67551,0.0659167,0.895069,0.700705,
2,1,0,1,0,17931.6,0.697906,0.697629,1.83849,27,1.08098,10,0.00128258,-2.73554,0.0635046,0.929067,0.69682,
2,1,0,1,0,17932.4,0.693911,0.693663,1.59263,27,1.08234,10,0.00110475,-2.79789,0.0605751,0.973998,0.692963,
2,1,0,1,0,17933.2,0.689916,0.689676,1.3728,27,1.08351,10,0.000946785,-2.86239,0.0595293,0.991108,0.689072,
2,1,0,0,0,17934,0.685921,0.685676,1.17493,27,1.08452,10,0.000805621,-2.92999,0.0570081,1.03494,0.685159,
2,1,0,1,0,17934.8,0.681926,0.681608,0.998426,27,1.08538,10,0.000680535,-3.00068,0.0540887,1.0908,0.681169,
2,1,0,1,0,17935.6,0.67793,0.677675,0.84057,27,1.0861,10,0.000569633,-3.07543,0.0513403,1.14919,0.677305,
2,1,0,1,0,17936.4,0.673935,0.67365,0.703063,27,1.08671,10,0.000473618,-3.15301,0.0496876,1.18742,0.673341,
2,1,0,1,0,17937.2,0.66994,0.669717,0.581789,27,1.08721,10,0.000389634,-3.23523,0.047459,1.24318,0.669461,
2,1,0,0,0,17938,0.665945,0.665656,0.477677,27,1.08762,10,0.000317968,-3.32087,0.0440051,1.34075,0.665445,
2,1,0,1,0,17938.8,0.66195,0.661649,0.386624,27,1.08796,10,0.00025581,-3.41271,0.041445,1.42357,0.661479,
2,1,0,0,0,17939.6,0.657955,0.65769,0.308815,27,1.08822,10,0.000203104,-3.5103,0.0403272,1.46303,0.657554,
2,1,0,1,0,17940.4,0.653959,0.653695,0.241608,27,1.08843,10,0.000157938,-3.61689,0.0354906,1.66241,0.653589,
2,1,0,1,0,17941.2,0.649964,0.649709,0.187041,27,1.08859,10,0.000121522,-3.72806,0.044863,1.31512,0.649627,
2,1,0,1,0,17942,0.64597,0.645688,0.145834,27,1.08872,10,9.4163e-05,-3.83614,0.0265956,2.21842,0.645623,
2,1,0,1,0,17942.8,0.641974,0.641723,0.102712,27,1.08881,10,6.5913e-05,-3.98838,0.0247873,2.38025,0.641678,
2,1,0,0,0,17943.6,0.637979,0.637692,0.0696859,27,1.08887,10,4.44381e-05,-4.15686,0.0192823,3.0598,0.637661,
2,1,0,1,0,17944.4,0.633983,0.633707,0.0392853,27,1.0889,10,2.48954e-05,-4.40577,0.0136837,4.31171,0.63369,
2,1,0,1,0,17945.2,0.629988,0.629698,0.0146663,27,1.08891,10,9.23534e-06,-4.83368,0.00445316,13.249,0.629692,
2,1,0,1,0,17946,0.625993,0.625687,-0.00607897,27,1.08891,10,-3.80353e-06,-5.21617,-0.00652319,-9.04466,0.62569,
2,0,0,1,0,17946.8,0.621998,0.621728,-0.0221471,27,1.08888,10,-1.37695e-05,-4.65468,-0.0122605,-4.81221,0.621738,
2,0,0,0,0,17947.6,0.618003,0.617707,-0.0360632,27,1.08885,10,-2.22765e-05,-4.44294,-0.0244214,-2.41592,0.617723,
2,0,0,1,0,17948.4,0.614008,0.613753,-0.0483407,27,1.08881,10,-2.96692e-05,-4.31569,-0.0464415,-1.27042,0.613774,
2,0,0,1,0,17949.2,0.610012,0.609715,-0.0583879,27,1.08875,10,-3.56e-05,-4.23368,-0.0553059,-1.06679,0.60974,
2,0,0,1,0,17950,0.606017,0.605722,-0.0665853,27,1.08869,10,-4.03322e-05,-4.17662,-0.083206,-0.709084,0.605752,
2,0,0,1,0,17950.8,0.602022,0.601735,-0.073863,27,1.08862,10,-4.4446e-05,-4.13157,-0.11153,-0.529007,0.601768,
2,0,0,0,0,17951.6,0.598027,0.59773,-0.0808196,27,1.08855,10,-4.83083e-05,-4.09248,-0.109571,-0.538465,0.597766,
2,0,0,1,0,17952.4,0.594032,0.593754,-0.0856855,27,1.08847,10,-5.08761e-05,-4.06709,-0.167795,-0.35162,0.593791,
2,0,0,0,0,17953.2,0.590037,0.589739,-0.0907296,27,1.08839,10,-5.35068e-05,-4.04225,-0.253365,-0.232866,0.589779,
2,0,0,1,0,17953.9,0.586041,0.585774,-0.0939618,27,1.08831,10,-5.50404e-05,-4.02705,-0.325732,-0.18113,0.585815,
2,0,0,1,0,17954.7,0.582046,0.581789,-0.0964,27,1.08822,10,-5.60845e-05,-4.01592,-0.222778,-0.264837,0.581831,
2,0,0,1,0,17955.5,0.578052,0.577748,-0.0999414,27,1.08813,10,-5.7741e-05,-4.00025,-0.381807,-0.154528,0.577792,
2,0,0,1,0,17956.3,0.574056,0.573767,-0.101516,27,1.08804,10,-5.82463e-05,-3.99347,-0.28329,-0.208267,0.573812,
2,0,0,0,0,17957.1,0.570061,0.569726,-0.104385,27,1.08795,10,-5.94709e-05,-3.98136,-0.867716,-0.0679946,0.569772,
2,0,0,1,0,17957.9,0.566065,0.56575,-0.106426,27,1.08785,10,-6.02104e-05,-3.97295,-0.404432,-0.145883,0.565797,
2,0,0,1,0,17958.7,0.56207,0.561747,-0.108156,27,1.08776,10,-6.07561e-05,-3.96595,-0.888042,-0.0664383,0.561795,
2,0,0,1,0,17959.5,0.558075,0.557793,-0.109617,27,1.08766,10,-6.11439e-05,-3.96012,-0.536493,-0.109974,0.557842,
2,0,0,1,0,17960.3,0.55408,0.553783,-0.110769,27,1.08756,10,-6.13421e-05,-3.95558,-0.462312,-0.127619,0.553832,
2,0,0,0,0,17961.1,0.550085,0.549832,-0.111526,27,1.08746,10,-6.13204e-05,-3.95262,15.6529,0.00376928,0.549881,
2,0,0,1,0,17961.9,0.54609,0.545761,-0.1133,27,1.08736,10,-6.18346e-05,-3.94577,-0.611744,-0.0964456,0.545811,
2,0,0,1,0,17962.7,0.542094,0.541808,-0.113764,27,1.08726,10,-6.16381e-05,-3.944,-0.686589,-0.0859321,0.541858,
2,0,0,1,0,17963.5,0.538099,0.537801,-0.116777,27,1.08716,10,-6.28026e-05,-3.93264,-2.6859,-0.0219665,0.537853,
2,0,0,1,0,17964.3,0.534104,0.533817,-0.117467,27,1.08705,10,-6.27057e-05,-3.93009,-1.57752,-0.0374006,0.533869,
2,0,0,0,0,17965.1,0.530109,0.529826,-0.118016,27,1.08695,10,-6.25278e-05,-3.92806,-0.678949,-0.086899,0.529878,
2,0,0,1,0,17965.9,0.526114,0.525809,-0.119189,27,1.08684,10,-6.26707e-05,-3.92376,-0.628739,-0.0938387,0.525862,
2,0,0,0,0,17966.7,0.522119,0.521836,-0.11994,27,1.08674,10,-6.2589e-05,-3.92104,-2.31253,-0.0255132,0.521889,
2,0,0,1,0,17967.5,0.518123,0.517807,-0.12172,27,1.08663,10,-6.30275e-05,-3.91464,-0.654671,-0.0901216,0.51786,
2,0,0,1,0,17968.3,0.514128,0.513832,-0.122634,27,1.08652,10,-6.30132e-05,-3.91139,-4.99849,-0.0118036,0.513886,
2,0,0,1,0,17969.1,0.510133,0.509857,-0.122732,27,1.08641,10,-6.25757e-05,-3.91104,-0.745123,-0.0791815,0.509911,
2,0,0,1,0,17969.9,0.506138,0.505801,-0.12384,27,1.0863,10,-6.26385e-05,-3.90714,2.05988,0.0286425,0.505856,
2,0,0,0,0,17970.7,0.502143,0.501884,-0.125236,27,1.08619,10,-6.28539e-05,-3.90227,-0.511981,-0.115239,0.501939,
2,0,0,1,0,17971.5,0.498148,0.49786,-0.126551,27,1.08608,10,-6.30048e-05,-3.89773,-0.914416,-0.0645221,0.497916,
2,0,0,1,0,17972.3,0.494152,0.493883,-0.128027,27,1.08597,10,-6.32303e-05,-3.8927,-0.951163,-0.0620293,0.493939,
2,0,0,1,0,17973.1,0.490157,0.489845,-0.128604,27,1.08586,10,-6.29962e-05,-3.89074,-4.8939,-0.0120558,0.489902,
2,0,0,1,0,17973.9,0.486162,0.485894,-0.129537,27,1.08574,10,-6.29411e-05,-3.88761,-0.710204,-0.0830747,0.485951,
2,0,0,0,0,17974.7,0.482167,0.481873,-0.13058,27,1.08563,10,-6.29231e-05,-3.88412,-1.05441,-0.0559557,0.481931,
2,0,0,1,0,17975.5,0.478172,0.477858,-0.131043,27,1.08551,10,-6.26197e-05,-3.88259,-0.904897,-0.0652008,0.477915,
2,0,0,0,0,17976.3,0.474177,0.4739,-0.133782,27,1.0854,10,-6.33992e-05,-3.8736,-8.51738,-0.00692701,0.473959,
2,0,0,1,0,17977.1,0.470181,0.469864,-0.133814,27,1.08528,10,-6.28746e-05,-3.8735,-0.596187,-0.0989622,0.469923,
2,0,0,1,0,17977.9,0.466186,0.465873,-0.136123,27,1.08516,10,-6.3416e-05,-3.86607,-1.36634,-0.0431811,0.465933,
2,0,0,1,0,17978.7,0.462191,0.461878,-0.137133,27,1.08504,10,-6.33386e-05,-3.86286,-0.510802,-0.115505,0.461938,
2,0,0,1,0,17979.5,0.458196,0.457936,-0.13812,27,1.08492,10,-6.325e-05,-3.85974,-1.87948,-0.0313916,0.457996,
2,0,0,0,0,17980.3,0.454201,0.453904,-0.140009,27,1.0848,10,-6.35506e-05,-3.85384,-4.35046,-0.0135618,0.453966,
2,0,0,1,0,17981.1,0.450205,0.449919,-0.142029,27,1.08467,10,-6.39016e-05,-3.84762,-0.446639,-0.132098,0.449981,
2,0,0,1,0,17981.9,0.44621,0.445928,-0.14196,27,1.08455,10,-6.33037e-05,-3.84784,-0.808388,-0.0729848,0.44599,
2,0,0,1,0,17982.7,0.442215,0.441897,-0.143569,27,1.08442,10,-6.34427e-05,-3.84294,-5.01224,-0.0117712,0.441961,
2,0,0,1,0,17983.5,0.43822,0.437977,-0.145743,27,1.0843,10,-6.38322e-05,-3.83641,-0.545015,-0.108254,0.438041,
2,0,0,0,0,17984.3,0.434225,0.433962,-0.147618,27,1.08417,10,-6.40605e-05,-3.83086,-1.1148,-0.0529245,0.434027,
2,0,0,1,0,17985.1,0.43023,0.429916,-0.149533,27,1.08404,10,-6.42866e-05,-3.82526,-0.603349,-0.0977876,0.429981,
2,0,0,1,0,17985.9,0.426234,0.425981,-0.150865,27,1.08391,10,-6.42655e-05,-3.82141,-0.477134,-0.123655,0.426047,
2,0,0,1,0,17986.7,0.422239,0.421953,-0.152415,27,1.08377,10,-6.43118e-05,-3.81697,-0.913124,-0.0646134,0.42202,
2,0,0,1,0,17987.5,0.418244,0.417985,-0.154738,27,1.08364,10,-6.46783e-05,-3.8104,-1.49314,-0.0395141,0.418053,
2,0,0,0,0,17988.3,0.414249,0.414006,-0.155602,27,1.0835,10,-6.44202e-05,-3.80799,-0.633761,-0.093095,0.414075,
2,0,0,1,0,17989.1,0.410254,0.409943,-0.15723,27,1.08336,10,-6.44554e-05,-3.80346,-2.06221,-0.0286101,0.410012,
2,0,0,0,0,17989.9,0.406259,0.40595,-0.160322,27,1.08323,10,-6.50826e-05,-3.79501,-0.61255,-0.0963186,0.406021,
2,0,0,1,0,17990.7,0.402263,0.40199,-0.161906,27,1.08308,10,-6.50845e-05,-3.79074,-0.740462,-0.07968,0.402061,
2,0,0,1,0,17991.5,0.398268,0.397924,-0.164545,27,1.08294,10,-6.54763e-05,-3.78372,-0.831967,-0.0709163,0.397997,
2,0,0,1,0,17992.3,0.394274,0.393977,-0.165889,27,1.0828,10,-6.53562e-05,-3.78018,-0.432779,-0.136328,0.39405,
2,0,0,1,0,17993.1,0.390278,0.389991,-0.168476,27,1.08265,10,-6.5704e-05,-3.77346,-1.445,-0.0408305,0.390065,
2,0,0,0,0,17993.9,0.386283,0.385995,-0.169852,27,1.08251,10,-6.5562e-05,-3.76993,-0.737483,-0.0800018,0.386069,
2,0,0,1,0,17994.7,0.382287,0.381984,-0.171439,27,1.08236,10,-6.54869e-05,-3.76589,-0.549054,-0.107457,0.382059,
2,0,0,1,0,17995.5,0.378292,0.377948,-0.173933,27,1.08221,10,-6.57376e-05,-3.75962,-8.42387,-0.0070039,0.378025,
2,0,0,1,0,17996.3,0.374297,0.373977,-0.176524,27,1.08205,10,-6.60161e-05,-3.7532,-0.465839,-0.126653,0.374055,
2,0,0,1,0,17997.1,0.370303,0.370009,-0.178426,27,1.0819,10,-6.60193e-05,-3.74854,-0.821009,-0.0718628,0.370088,
2,0,0,0,0,17997.9,0.366307,0.366005,-0.181034,27,1.08174,10,-6.62594e-05,-3.74224,-1.00982,-0.0584263,0.366084,
2,0,0,1,0,17998.7,0.362312,0.361981,-0.182317,27,1.08159,10,-6.59951e-05,-3.73917,-0.736355,-0.0801244,0.362061,
2,0,0,1,0,17999.5,0.358316,0.358019,-0.185428,27,1.08143,10,-6.63866e-05,-3.73182,-0.685703,-0.086043,0.3581,
2,0,0,1,0,18000.3,0.354321,0.353993,-0.186928,27,1.08126,10,-6.61712e-05,-3.72833,-0.698727,-0.0844392,0.354075,
2,0,0,1,0,18001.1,0.350327,0.350044,-0.18892,27,1.0811,10,-6.61301e-05,-3.72372,-0.752015,-0.0784559,0.350127,
2,0,0,0,0,18001.9,0.346331,0.34602,-0.192258,27,1.08094,10,-6.65251e-05,-3.71612,-1.41547,-0.0416821,0.346105,
2,0,0,1,0,18002.7,0.342336,0.342049,-0.194313,27,1.08077,10,-6.64646e-05,-3.7115,-0.560494,-0.105264,0.342135,
2,0,0,0,0,18003.5,0.338341,0.338015,-0.197343,27,1.0806,10,-6.67048e-05,-3.70478,-1.01296,-0.0582452,0.338102,
2,0,0,1,0,18004.3,0.334345,0.334044,-0.198911,27,1.08043,10,-6.64449e-05,-3.70134,-0.714156,-0.082615,0.334131,
2,0,0,1,0,18005.1,0.33035,0.330051,-0.2012,27,1.08025,10,-6.64062e-05,-3.69637,-0.57734,-0.102193,0.330139,
2,0,0,1,0,18005.9,0.326355,0.326067,-0.20349,27,1.08008,10,-6.63513e-05,-3.69146,-1.89942,-0.0310621,0.326157,
2,0,0,1,0,18006.7,0.32236,0.322015,-0.206224,27,1.0799,10,-6.64072e-05,-3.68566,-0.531484,-0.11101,0.322106,
2,0,0,0,0,18007.5,0.318365,0.318081,-0.207886,27,1.07972,10,-6.61246e-05,-3.68217,-0.659846,-0.0894148,0.318172,
2,0,0,1,0,18008.3,0.31437,0.314076,-0.211508,27,1.07954,10,-6.64296e-05,-3.67467,3.6509,0.0161604,0.314169,
2,0,0,1,0,18009.1,0.310374,0.310043,-0.213664,27,1.07936,10,-6.6245e-05,-3.67027,-0.471321,-0.12518,0.310137,
2,0,0,1,0,18009.9,0.306379,0.306072,-0.215356,27,1.07918,10,-6.59143e-05,-3.66684,-0.821624,-0.071809,0.306167,
2,0,0,1,0,18010.7,0.302385,0.302093,-0.218173,27,1.07899,10,-6.59084e-05,-3.6612,-0.640083,-0.0921756,0.302189,
2,0,0,0,0,18011.5,0.298389,0.298125,-0.220548,27,1.0788,10,-6.57508e-05,-3.6565,-0.657275,-0.0897645,0.298222,
2,0,0,1,0,18012.3,0.294394,0.294092,-0.224126,27,1.07861,10,-6.59136e-05,-3.64951,-1.52667,-0.0386462,0.294191,
2,0,0,1,0,18013.1,0.290398,0.290096,-0.226261,27,1.07842,10,-6.56374e-05,-3.64539,-0.710447,-0.0830463,0.290196,
2,0,0,1,0,18013.9,0.286403,0.286063,-0.228733,27,1.07822,10,-6.5432e-05,-3.64067,-0.669211,-0.0881635,0.286164,
2,0,0,1,0,18014.7,0.282408,0.282072,-0.232053,27,1.07803,10,-6.54557e-05,-3.63441,-1.47978,-0.0398707,0.282174,
2,0,0,1,0,18015.5,0.278414,0.278126,-0.234385,27,1.07783,10,-6.51885e-05,-3.63007,-0.477441,-0.123575,0.278229,
2,0,0,1,0,18016.3,0.274418,0.274102,-0.237326,27,1.07763,10,-6.50515e-05,-3.62465,-1.72879,-0.0341279,0.274206,
2,0,0,0,0,18017.1,0.270423,0.270124,-0.240633,27,1.07742,10,-6.50007e-05,-3.61865,-0.809948,-0.0728442,0.27023,
2,0,0,1,0,18017.9,0.266427,0.266125,-0.242084,27,1.07722,10,-6.44246e-05,-3.61603,-1.06748,-0.0552702,0.266231,
2,0,0,1,0,18018.7,0.262432,0.262178,-0.244659,27,1.07701,10,-6.41443e-05,-3.61144,-0.715358,-0.0824762,0.262286,
2,0,0,1,0,18019.5,0.258437,0.258105,-0.247925,27,1.0768,10,-6.39905e-05,-3.60568,-0.741626,-0.0795549,0.258214,
2,0,0,1,0,18020.3,0.254442,0.254131,-0.248236,27,1.07659,10,-6.30844e-05,-3.60514,-0.88679,-0.0665321,0.25424,
2,0,0,0,0,18021.1,0.250447,0.25013,-0.251344,27,1.07637,10,-6.28686e-05,-3.59973,-6.68048,-0.0088317,0.250241,
2,0,0,1,0,18021.9,0.246452,0.246142,-0.254719,27,1.07616,10,-6.26971e-05,-3.59394,-0.580691,-0.101603,0.246254,
2,0,0,1,0,18022.7,0.242456,0.242143,-0.257059,27,1.07594,10,-6.22449e-05,-3.58997,-1.42025,-0.0415419,0.242256,
2,0,0,1,0,18023.5,0.238461,0.238132,-0.259491,27,1.07572,10,-6.1793e-05,-3.58588,-0.719753,-0.0819726,0.238246,
2,0,0,1,0,18024.3,0.234467,0.234163,-0.262077,27,1.0755,10,-6.13686e-05,-3.58157,-0.990358,-0.0595744,0.234278,
2,0,0,0,0,18025.1,0.230471,0.230153,-0.26352,27,1.07528,10,-6.06499e-05,-3.57919,-0.935278,-0.0630828,0.230269,
2,0,0,1,0,18025.9,0.226476,0.226166,-0.266335,27,1.07505,10,-6.02358e-05,-3.57457,-1.76159,-0.0334925,0.226283,
2,0,0,0,0,18026.7,0.222481,0.222188,-0.267935,27,1.07482,10,-5.9532e-05,-3.57197,-0.668523,-0.0882542,0.222306,
2,0,0,1,0,18027.5,0.218485,0.218161,-0.271864,27,1.07459,10,-5.93099e-05,-3.56565,-3.6652,-0.0160974,0.21828,
2,0,0,1,0,18028.3,0.21449,0.214218,-0.27381,27,1.07436,10,-5.8655e-05,-3.56255,-0.573943,-0.102798,0.214339,
2,0,0,1,0,18029.1,0.210496,0.210166,-0.278182,27,1.07413,10,-5.84643e-05,-3.55567,-0.763964,-0.0772288,0.210288,
2,0,0,1,0,18029.9,0.2065,0.206214,-0.28143,27,1.07389,10,-5.80349e-05,-3.55063,-0.583549,-0.101105,0.206338,
2,0,0,0,0,18030.7,0.202505,0.202188,-0.284462,27,1.07365,10,-5.75147e-05,-3.54598,-0.999998,-0.0590001,0.202313,
2,0,0,1,0,18031.5,0.198509,0.198221,-0.287595,27,1.07341,10,-5.70074e-05,-3.54122,-0.779422,-0.0756971,0.198348,
2,0,0,1,0,18032.3,0.194514,0.194216,-0.292115,27,1.07317,10,-5.67332e-05,-3.53445,-0.608074,-0.0970277,0.194344,
2,0,0,1,0,18033.1,0.190519,0.190223,-0.296439,27,1.07292,10,-5.63895e-05,-3.52806,-0.525281,-0.112321,0.190353,
2,0,0,1,0,18033.9,0.186524,0.186207,-0.300835,27,1.07266,10,-5.60175e-05,-3.52167,-0.979077,-0.0602608,0.186339,
2,0,0,0,0,18034.7,0.182529,0.182213,-0.30577,27,1.07241,10,-5.57153e-05,-3.5146,-0.368071,-0.160295,0.182348,
2,0,0,1,0,18035.5,0.178534,0.178223,-0.313245,27,1.07215,10,-5.58274e-05,-3.50412,-0.422931,-0.139503,0.178361,
2,0,0,1,0,18036.3,0.174538,0.174191,-0.320241,27,1.07188,10,-5.57831e-05,-3.49452,-0.378525,-0.155868,0.174332,
2,0,0,1,0,18037,0.170543,0.170229,-0.329096,27,1.07161,10,-5.60218e-05,-3.48268,-0.286866,-0.205671,0.170374,
2,0,0,1,0,18037.8,0.166549,0.166268,-0.34013,27,1.07132,10,-5.65528e-05,-3.46835,-0.268024,-0.22013,0.166418,
2,0,0,0,0,18038.6,0.162553,0.162189,-0.353499,27,1.07103,10,-5.73338e-05,-3.45161,-0.211862,-0.278483,0.162345,
2,0,0,1,0,18039.4,0.158558,0.158251,-0.369951,27,1.07073,10,-5.85451e-05,-3.43186,-0.180958,-0.326042,0.158414,
2,0,0,0,0,18040.2,0.154563,0.154244,-0.393583,27,1.07041,10,-6.07077e-05,-3.40496,-0.150456,-0.39214,0.154417,
2,0,0,1,0,18041,0.150567,0.150286,-0.422999,27,1.07007,10,-6.35709e-05,-3.37366,-0.109943,-0.536642,0.150472,
2,0,0,1,0,18041.8,0.146572,0.146274,-0.462347,27,1.0697,10,-6.76292e-05,-3.33503,-0.0920098,-0.641236,0.146477,
2,0,0,1,0,18042.6,0.142578,0.142299,-0.513343,27,1.0693,10,-7.30481e-05,-3.28959,-0.085253,-0.692058,0.142525,
2,0,0,1,0,18043.4,0.138582,0.138215,-0.570426,27,1.06885,10,-7.88412e-05,-3.2438,-0.0858131,-0.687541,0.138466,
2,0,0,0,0,18044.2,0.134587,0.134246,-0.632108,27,1.06836,10,-8.48577e-05,-3.19921,-0.102653,-0.574752,0.134524,
2,0,0,1,0,18045,0.130591,0.13027,-0.686262,27,1.06781,10,-8.93991e-05,-3.16351,-0.12733,-0.463362,0.130572,
2,0,0,1,0,18045.8,0.126596,0.126279,-0.723982,27,1.06723,10,-9.14234e-05,-3.14027,-0.200148,-0.294782,0.126597,
2,0,0,1,0,18046.6,0.122602,0.12228,-0.751172,27,1.06663,10,-9.18534e-05,-3.12426,-0.435993,-0.135323,0.122611,
2,0,0,1,0,18047.4,0.118607,0.118267,-0.760678,27,1.06601,10,-8.9963e-05,-3.1188,-0.983541,-0.0599874,0.118602,
2,0,0,0,0,18048.2,0.114611,0.114291,-0.761648,27,1.06539,10,-8.70493e-05,-3.11825,1.35902,0.0434138,0.114626,
2,0,0,1,0,18049,0.110616,0.110275,-0.754554,27,1.06477,10,-8.32085e-05,-3.12231,0.847858,0.0695871,0.110607,
2,0,0,1,0,18049.8,0.10662,0.106303,-0.744032,27,1.06415,10,-7.90931e-05,-3.12841,0.687394,0.0858315,0.106631,
2,0,0,1,0,18050.6,0.102625,0.10236,-0.733728,27,1.06355,10,-7.51045e-05,-3.13447,0.525223,0.112333,0.102683,
2,0,0,1,0,18051.4,0.0986305,0.0983161,-0.720378,27,1.06295,10,-7.08247e-05,-3.14244,0.526765,0.112004,0.0986331,
2,0,0,0,0,18052.2,0.0946351,0.0943213,-0.704389,27,1.06237,10,-6.64388e-05,-3.15219,0.451388,0.130708,0.0946312,
2,0,0,1,0,18053,0.0906399,0.0902938,-0.69447,27,1.06179,10,-6.27063e-05,-3.15835,0.393827,0.149812,0.0905994,
2,0,0,0,0,18053.8,0.0866448,0.0863597,-0.680048,27,1.06123,10,-5.87287e-05,-3.16746,0.585658,0.100741,0.086659,
2,0,0,1,0,18054.6,0.0826492,0.0823086,-0.668545,27,1.06067,10,-5.50271e-05,-3.17487,0.518219,0.113852,0.0826028,
2,0,0,1,0,18055.4,0.0786544,0.0783409,-0.658787,27,1.06013,10,-5.161e-05,-3.18125,0.628259,0.0939102,0.0786308,
2,0,0,1,0,18056.2,0.0746596,0.0743542,-0.647132,27,1.0596,10,-4.8117e-05,-3.18901,0.799215,0.0738224,0.0746389,
2,0,0,1,0,18057,0.0706641,0.0703412,-0.638243,27,1.05907,10,-4.48948e-05,-3.19501,0.54286,0.108684,0.0706221,
2,0,0,0,0,18057.8,0.0666689,0.0663711,-0.629962,27,1.05855,10,-4.18113e-05,-3.20069,0.686927,0.0858898,0.0666483,
2,0,0,1,0,18058.6,0.0626737,0.0623903,-0.617931,27,1.05803,10,-3.85529e-05,-3.20906,0.532571,0.110783,0.0626622,
2,0,0,1,0,18059.4,0.0586783,0.0583882,-0.611553,27,1.05753,10,-3.57075e-05,-3.21357,0.494368,0.119344,0.0586572,
2,0,0,1,0,18060.2,0.0546835,0.0543865,-0.601346,27,1.05703,10,-3.27051e-05,-3.22088,0.719132,0.0820434,0.0546511,
2,0,0,1,0,18061,0.0506886,0.0503795,-0.5896,27,1.05654,10,-2.97038e-05,-3.22944,0.521423,0.113152,0.050639,
2,0,0,0,0,18061.8,0.046693,0.0463389,-0.579681,27,1.05606,10,-2.68618e-05,-3.23681,0.476401,0.123845,0.046594,
2,0,0,1,0,18062.6,0.0426979,0.0423476,-0.568886,27,1.05558,10,-2.40909e-05,-3.24497,0.539905,0.109278,0.0425979,
2,0,0,1,0,18063.4,0.0387022,0.0384056,-0.557327,27,1.05512,10,-2.14045e-05,-3.25389,0.409639,0.144029,0.0386508,
2,0,0,1,0,18064.2,0.0347074,0.0344155,-0.548003,27,1.05466,10,-1.88598e-05,-3.26122,0.531249,0.111059,0.0346567,
2,0,0,1,0,18065,0.0307126,0.0304163,-0.534005,27,1.05422,10,-1.62424e-05,-3.27245,0.5052,0.116785,0.0306512,
2,0,0,0,0,18065.8,0.0267172,0.026364,-0.52611,27,1.05378,10,-1.38704e-05,-3.27892,0.416763,0.141567,0.0265955,
2,0,0,1,0,18066.6,0.022722,0.0224077,-0.518359,27,1.05335,10,-1.16152e-05,-3.28537,0.711146,0.0829646,0.0226357,
2,0,0,0,0,18067.4,0.0187268,0.0184258,-0.51059,27,1.05292,10,-9.40806e-06,-3.29193,0.658189,0.0896399,0.0186505,
2,0,0,1,0,18068.2,0.0147313,0.0143981,-0.505211,27,1.0525,10,-7.27409e-06,-3.29653,0.812631,0.0726037,0.0146204,
2,0,0,1,0,18069,0.0107365,0.0104028,-0.500563,27,1.05209,10,-5.20727e-06,-3.30054,7.55212,0.00781238,0.0106231,
2,0,0,1,0,18069.8,0.00674163,0.00638848,-0.498432,27,1.05168,10,-3.18423e-06,-3.30239,2.1267,0.0277425,0.00660779,
2,0,0,1,0,18070.6,0.00274612,0.00242219,-0.498888,27,1.05126,10,-1.2084e-06,-3.302,-2.59905,-0.0227006,0.0026417,
2,0,0,0,0,18071.1,0.000274105,-0.000121328,-0.49997,27,1.05101,10,6.06603e-08,-3.30106, , ,9.86589e-05,