File: Figure_codes/Fig_3-5/workspace_calculate_alpha_eff/20221101_1-115_003_TrumpetPlot_ParaChange_from10_every3_16_CV_C01_28.csv
mode,ox/red,error,control changes,counter inc.,time/s,control/V,Ewe/V,<I>/mA,cycle number,(Q-Qo)/C,I Range,P/W,log(|I|),Tafel slope mV/dec,alpha_eff,E-IR/V,
2,0,0,0,0,19331.3,2.44065e-05,-0.000401673,-0.0962139,29,0.0000000E+000,10,3.86465e-08,-4.01676, , ,-0.000359339,
2,1,0,0,0,19332,0.00379485,0.0034879,0.163608,29,0.000108252,10,5.70648e-07,-3.7862,0.0392726,1.50232,0.00341591,
2,1,0,1,0,19332.8,0.00779002,0.00745276,0.187442,29,0.000262365,10,1.39696e-06,-3.72713,0.0761372,0.774917,0.00737028,
2,1,0,0,0,19333.6,0.0117852,0.0114611,0.203667,29,0.000432504,10,2.33425e-06,-3.69108,0.129057,0.457163,0.0113715,
2,1,0,1,0,19334.4,0.0157806,0.0154442,0.220111,29,0.000615024,10,3.39944e-06,-3.65736,0.128424,0.459416,0.0153473,
2,1,0,1,0,19335.2,0.0197754,0.0194247,0.233464,29,0.000808964,10,4.53497e-06,-3.63178,0.160166,0.368369,0.019322,
2,1,0,1,0,19336,0.0237704,0.023457,0.248475,29,0.00101444,10,5.82848e-06,-3.60472,0.162256,0.363624,0.0233477,
2,1,0,1,0,19336.8,0.0277659,0.0274754,0.263018,29,0.00123121,10,7.2265e-06,-3.58002,0.185104,0.31874,0.0273596,
2,1,0,0,0,19337.6,0.0317611,0.0314455,0.276143,29,0.00145976,10,8.68346e-06,-3.55887,0.167291,0.352679,0.031324,
2,1,0,1,0,19338.4,0.0357567,0.0354162,0.291332,29,0.00170014,10,1.03179e-05,-3.53561,0.203519,0.2899,0.035288,
2,1,0,1,0,19339.2,0.0397516,0.0393966,0.306677,29,0.00195184,10,1.2082e-05,-3.51332,0.165022,0.357527,0.0392616,
2,1,0,1,0,19340,0.0437465,0.0434734,0.319616,29,0.00221544,10,1.38948e-05,-3.49537,0.230427,0.256047,0.0433328,
2,1,0,1,0,19340.8,0.0477413,0.0474498,0.334667,29,0.00248939,10,1.58799e-05,-3.47539,0.220761,0.267257,0.0473026,
2,1,0,0,0,19341.6,0.0517369,0.0514055,0.346441,29,0.00277422,10,1.7809e-05,-3.46037,0.225633,0.261486,0.0512531,
2,1,0,1,0,19342.4,0.0557321,0.0553651,0.360291,29,0.00306992,10,1.99475e-05,-3.44335,0.30539,0.193196,0.0552066,
2,1,0,1,0,19343.2,0.0597277,0.0593738,0.371736,29,0.00337501,10,2.20714e-05,-3.42977,0.307735,0.191723,0.0592103,
2,1,0,1,0,19344,0.0637226,0.0634445,0.381074,29,0.00368956,10,2.4177e-05,-3.41899,0.306865,0.192267,0.0632768,
2,1,0,1,0,19344.8,0.0677174,0.0673995,0.394145,29,0.00401362,10,2.65651e-05,-3.40434,0.440897,0.133818,0.0672261,
2,1,0,0,0,19345.6,0.0717128,0.071391,0.403588,29,0.00434528,10,2.88126e-05,-3.39406,0.320258,0.184226,0.0712135,
2,1,0,1,0,19346.4,0.075708,0.0753729,0.410522,29,0.00468491,10,3.09422e-05,-3.38666,0.46938,0.125698,0.0751922,
2,1,0,0,0,19347.2,0.0797031,0.079378,0.422469,29,0.00503115,10,3.35347e-05,-3.37421,0.422583,0.139618,0.0791921,
2,1,0,1,0,19348,0.0836986,0.0834143,0.430356,29,0.00538437,10,3.58979e-05,-3.36617,0.341628,0.172702,0.0832249,
2,1,0,1,0,19348.8,0.0876935,0.0873926,0.441144,29,0.00574612,10,3.85527e-05,-3.35542,0.356761,0.165377,0.0871985,
2,1,0,1,0,19349.6,0.0916883,0.0913485,0.456169,29,0.00611775,10,4.16703e-05,-3.34087,0.243656,0.242144,0.0911478,
2,1,0,1,0,19350.4,0.0956838,0.0953732,0.473591,29,0.00650303,10,4.51679e-05,-3.3246,0.21929,0.26905,0.0951648,
2,1,0,0,0,19351.2,0.099679,0.0994027,0.496616,29,0.00690454,10,4.9365e-05,-3.30398,0.206516,0.285693,0.0991842,
2,1,0,1,0,19352,0.103674,0.103418,0.521723,29,0.00732463,10,5.39558e-05,-3.28256,0.182617,0.323081,0.103189,
2,1,0,1,0,19352.8,0.10767,0.107345,0.544552,29,0.0077647,10,5.84551e-05,-3.26396,0.239755,0.246084,0.107106,
2,1,0,1,0,19353.6,0.111664,0.111345,0.56586,29,0.00822155,10,6.30056e-05,-3.24729,0.257546,0.229085,0.111096,
2,1,0,1,0,19354.4,0.115659,0.115342,0.58273,29,0.00869371,10,6.72134e-05,-3.23453,0.288253,0.204682,0.115086,
2,1,0,0,0,19355.2,0.119655,0.119325,0.598614,29,0.00917998,10,7.14294e-05,-3.22285,0.455084,0.129646,0.119061,
2,1,0,1,0,19356,0.12365,0.123335,0.614035,29,0.00967756,10,7.5732e-05,-3.21181,0.338241,0.174432,0.123065,
2,1,0,1,0,19356.8,0.127646,0.127339,0.627992,29,0.0101884,10,7.99676e-05,-3.20205,0.425056,0.138805,0.127062,
2,1,0,1,0,19357.6,0.131641,0.131346,0.638604,29,0.0107099,10,8.38783e-05,-3.19477,-6.1229,-0.00963595,0.131065,
2,1,0,1,0,19358.4,0.135635,0.135289,0.632055,29,0.0112325,10,8.551e-05,-3.19924,-0.442439,-0.133352,0.135011,
2,1,0,0,0,19359.2,0.139631,0.139342,0.601482,29,0.0117419,10,8.38117e-05,-3.22078,-0.132234,-0.446179,0.139077,
2,1,0,1,0,19360,0.143626,0.143344,0.551928,29,0.0122177,10,7.91154e-05,-3.25812,-0.0838498,-0.703639,0.143101,
2,1,0,0,0,19360.8,0.147621,0.147301,0.487669,29,0.0126459,10,7.18343e-05,-3.31187,-0.0695104,-0.848794,0.147087,
2,1,0,1,0,19361.6,0.151617,0.151287,0.426853,29,0.0130234,10,6.45772e-05,-3.36972,-0.0741206,-0.796,0.151099,
2,1,0,1,0,19362.4,0.155612,0.155287,0.382356,29,0.0133576,10,5.9375e-05,-3.41753,-0.0921572,-0.640211,0.155119,
2,1,0,1,0,19363.2,0.159606,0.159267,0.349722,29,0.0136611,10,5.56991e-05,-3.45628,-0.124739,-0.472989,0.159113,
2,1,0,1,0,19364,0.163602,0.163274,0.327285,29,0.0139435,10,5.34371e-05,-3.48507,-0.147911,-0.398889,0.16313,
2,1,0,0,0,19364.8,0.167597,0.167269,0.312077,29,0.014211,10,5.22008e-05,-3.50574,-0.237451,-0.248472,0.167131,
2,1,0,1,0,19365.6,0.171592,0.171265,0.299763,29,0.0144683,10,5.1339e-05,-3.52322,-0.29209,-0.201992,0.171134,
2,1,0,1,0,19366.4,0.175588,0.17528,0.291983,29,0.0147172,10,5.11789e-05,-3.53464,-0.345389,-0.170822,0.175152,
2,1,0,1,0,19367.2,0.179582,0.179244,0.284431,29,0.0149601,10,5.09826e-05,-3.54602,-0.445123,-0.132548,0.179119,
2,1,0,1,0,19368,0.183577,0.183264,0.279958,29,0.0151984,10,5.13062e-05,-3.55291,-0.606713,-0.0972454,0.18314,
2,1,0,0,0,19368.8,0.187573,0.187263,0.275355,29,0.0154325,10,5.15638e-05,-3.56011,-0.644245,-0.09158,0.187142,
2,1,0,1,0,19369.6,0.191568,0.191276,0.271588,29,0.0156632,10,5.19483e-05,-3.56609,-0.682812,-0.0864074,0.191157,
2,1,0,0,0,19370.4,0.195563,0.195279,0.268775,29,0.0158914,10,5.24862e-05,-3.57061,-0.474365,-0.124377,0.195161,
2,1,0,1,0,19371.2,0.199559,0.199241,0.266646,29,0.0161169,10,5.3127e-05,-3.57406,-3.77497,-0.0156293,0.199124,
2,1,0,1,0,19372,0.203553,0.203222,0.262055,29,0.0163403,10,5.32553e-05,-3.58161,-0.840805,-0.0701709,0.203106,
2,1,0,1,0,19372.8,0.207548,0.207242,0.26005,29,0.016562,10,5.38934e-05,-3.58494,-1.43981,-0.0409776,0.207128,
2,1,0,1,0,19373.6,0.211544,0.211228,0.256899,29,0.0167817,10,5.42642e-05,-3.59024,-0.744827,-0.079213,0.211115,
2,1,0,0,0,19374.4,0.215539,0.215277,0.255451,29,0.0169996,10,5.49927e-05,-3.59269,-1.185,-0.0497892,0.215164,
2,1,0,1,0,19375.2,0.219535,0.219219,0.254539,29,0.0172157,10,5.57996e-05,-3.59425,-1.64371,-0.0358944,0.219107,
2,1,0,1,0,19376,0.223529,0.223206,0.252531,29,0.0174308,10,5.63666e-05,-3.59768,-2.06406,-0.0285844,0.223095,
2,1,0,1,0,19376.8,0.227524,0.227195,0.252199,29,0.017645,10,5.72984e-05,-3.59826,-0.880412,-0.0670141,0.227084,
2,1,0,1,0,19377.6,0.23152,0.231218,0.250064,29,0.0178576,10,5.78193e-05,-3.60195,-14.0586,-0.00419673,0.231108,
2,1,0,0,0,19378.4,0.235515,0.235202,0.247991,29,0.0180696,10,5.83279e-05,-3.60556,-4.72156,-0.0124959,0.235092,
2,1,0,1,0,19379.2,0.23951,0.239234,0.248031,29,0.0182804,10,5.93375e-05,-3.60549,-1.10033,-0.0536205,0.239125,
2,1,0,1,0,19380,0.243506,0.243184,0.24627,29,0.0184901,10,5.98888e-05,-3.60859,3.50642,0.0168263,0.243075,
2,1,0,1,0,19380.8,0.2475,0.247198,0.246,29,0.0186994,10,6.08106e-05,-3.60907,-0.977846,-0.0603367,0.24709,
2,1,0,1,0,19381.6,0.251495,0.251189,0.245781,29,0.0189076,10,6.17375e-05,-3.60945,8.04142,0.00733702,0.251081,
2,1,0,0,0,19382.4,0.255491,0.255188,0.244285,29,0.0191152,10,6.23388e-05,-3.6121,-1.37576,-0.0428854,0.255081,
2,1,0,1,0,19383.2,0.259486,0.259192,0.243505,29,0.0193223,10,6.31146e-05,-3.61349,-2.14768,-0.0274716,0.259085,
2,1,0,0,0,19384,0.263481,0.263177,0.242461,29,0.0195285,10,6.38102e-05,-3.61536,3.67994,0.0160329,0.263071,
2,1,0,1,0,19384.8,0.267477,0.267188,0.240976,29,0.0197342,10,6.43859e-05,-3.61803,-0.89493,-0.0659269,0.267082,
2,1,0,1,0,19385.6,0.271471,0.271202,0.240617,29,0.0199391,10,6.52558e-05,-3.61867,-2.04182,-0.0288958,0.271096,
2,1,0,1,0,19386.4,0.275466,0.275178,0.239404,29,0.020143,10,6.58787e-05,-3.62087,-7.35716,-0.0080194,0.275072,
2,1,0,1,0,19387.2,0.279462,0.279186,0.238527,29,0.0203464,10,6.65935e-05,-3.62246,-2.84287,-0.0207537,0.279081,
2,1,0,0,0,19388,0.283457,0.28314,0.238308,29,0.0205491,10,6.74746e-05,-3.62286,-3.40063,-0.0173497,0.283036,
2,1,0,1,0,19388.8,0.287452,0.287141,0.237828,29,0.020751,10,6.82903e-05,-3.62374,-1.43975,-0.0409794,0.287037,
2,1,0,1,0,19389.6,0.291448,0.291144,0.23625,29,0.0209521,10,6.87826e-05,-3.62663,-0.824529,-0.071556,0.29104,
2,1,0,1,0,19390.4,0.295442,0.295129,0.235456,29,0.0211523,10,6.94898e-05,-3.62809,1.31356,0.0449161,0.295026,
2,1,0,1,0,19391.2,0.299437,0.299155,0.233592,29,0.0213522,10,6.98801e-05,-3.63154,-3.24518,-0.0181808,0.299053,
2,1,0,0,0,19392,0.303433,0.303135,0.233607,29,0.0215512,10,7.08146e-05,-3.63151,-2.34728,-0.0251355,0.303033,
2,1,0,1,0,19392.8,0.307428,0.30712,0.232897,29,0.0217493,10,7.15275e-05,-3.63284,-3.62324,-0.0162838,0.307018,
2,1,0,1,0,19393.6,0.311424,0.311128,0.23174,29,0.0219469,10,7.21008e-05,-3.635,-2.00391,-0.0294425,0.311026,
2,1,0,1,0,19394.4,0.315418,0.315095,0.23176,29,0.0221436,10,7.30264e-05,-3.63496,-3.16438,-0.018645,0.314993,
2,1,0,1,0,19395.2,0.319413,0.319094,0.231875,29,0.0223398,10,7.399e-05,-3.63475,-2.51755,-0.0234355,0.318992,
2,1,0,0,0,19396,0.323409,0.323115,0.230997,29,0.0225356,10,7.46384e-05,-3.63639,-2.47499,-0.0238385,0.323013,
2,1,0,1,0,19396.8,0.327404,0.327107,0.229595,29,0.0227309,10,7.51021e-05,-3.63904,-6.09981,-0.00967243,0.327006,
2,1,0,0,0,19397.6,0.331399,0.331076,0.228375,29,0.0229256,10,7.56095e-05,-3.64135,-2.42621,-0.0243177,0.330976,
2,1,0,1,0,19398.4,0.335395,0.335094,0.229029,29,0.0231198,10,7.67462e-05,-3.64011,3.5414,0.0166601,0.334994,
2,1,0,1,0,19399.2,0.339389,0.339106,0.227955,29,0.0233134,10,7.73009e-05,-3.64215,-1.1988,-0.0492157,0.339006,
2,1,0,1,0,19400,0.343384,0.34308,0.226954,29,0.0235067,10,7.78631e-05,-3.64406,-2.79425,-0.0211148,0.34298,
2,1,0,1,0,19400.8,0.34738,0.347097,0.226839,29,0.0236994,10,7.8735e-05,-3.64428,-2.18703,-0.0269772,0.346997,
2,1,0,0,0,19401.6,0.351375,0.351058,0.226013,29,0.0238916,10,7.93437e-05,-3.64587,-33.6398,-0.00175387,0.350959,
2,1,0,1,0,19402.4,0.35537,0.355078,0.225973,29,0.0240836,10,8.02381e-05,-3.64594,-2.9668,-0.0198868,0.354979,
2,1,0,1,0,19403.2,0.359366,0.359053,0.225311,29,0.0242751,10,8.08985e-05,-3.64722,4.57946,0.0128836,0.358954,
2,1,0,1,0,19404,0.36336,0.363044,0.224225,29,0.0244665,10,8.14036e-05,-3.64932,-2.82677,-0.0208719,0.362945,
2,1,0,1,0,19404.8,0.367355,0.367067,0.22464,29,0.0246571,10,8.24578e-05,-3.64851,-2.44103,-0.0241701,0.366968,
2,1,0,0,0,19405.6,0.371351,0.371009,0.223966,29,0.0248472,10,8.30935e-05,-3.64982,2.31421,0.0254947,0.37091,
2,1,0,1,0,19406.4,0.375346,0.37506,0.224195,29,0.0250373,10,8.40863e-05,-3.64937,-1.22808,-0.0480426,0.374961,
2,1,0,1,0,19407.2,0.379342,0.379006,0.223826,29,0.025227,10,8.48312e-05,-3.65009,9.26533,0.00636782,0.378907,
2,1,0,1,0,19408,0.383336,0.383013,0.222935,29,0.0254163,10,8.53871e-05,-3.65182,-12.9929,-0.00454094,0.382915,
2,1,0,1,0,19408.8,0.387331,0.387035,0.223223,29,0.0256054,10,8.63951e-05,-3.65126,-3.14264,-0.018774,0.386936,
2,1,0,0,0,19409.6,0.391327,0.391022,0.223017,29,0.025794,10,8.72044e-05,-3.65166,-4.68834,-0.0125844,0.390924,
2,1,0,1,0,19410.4,0.395322,0.395035,0.220842,29,0.0259823,10,8.72403e-05,-3.65592,14.3379,0.00411498,0.394937,
2,1,0,0,0,19411.2,0.399317,0.399041,0.221818,29,0.0261703,10,8.85145e-05,-3.654,-2.09137,-0.0282112,0.398943,
2,1,0,1,0,19412,0.403313,0.403048,0.221987,29,0.026358,10,8.94713e-05,-3.65367,-97.7493,-0.000603585,0.402951,
2,1,0,1,0,19412.7,0.407307,0.406986,0.221553,29,0.0265456,10,9.01692e-05,-3.65452,18.7811,0.00314145,0.406889,
2,1,0,1,0,19413.5,0.411302,0.410967,0.222184,29,0.026733,10,9.13103e-05,-3.65329,-1.87598,-0.0314503,0.410869,
2,1,0,1,0,19414.3,0.415298,0.415,0.220347,29,0.0269203,10,9.14441e-05,-3.65689,2.87397,0.0205291,0.414903,
2,1,0,0,0,19415.1,0.419293,0.419007,0.21953,29,0.0271075,10,9.19848e-05,-3.65851,-2.39863,-0.0245974,0.418911,
2,1,0,1,0,19415.9,0.423288,0.42298,0.220903,29,0.0272943,10,9.34376e-05,-3.6558,3.44909,0.017106,0.422883,
2,1,0,1,0,19416.7,0.427283,0.426967,0.219524,29,0.0274812,10,9.37293e-05,-3.65852,-6.37077,-0.00926105,0.42687,
2,1,0,1,0,19417.5,0.431278,0.430989,0.221129,29,0.0276678,10,9.53039e-05,-3.65536,2.26849,0.0260084,0.430891,
2,1,0,1,0,19418.3,0.435273,0.435003,0.22001,29,0.0278544,10,9.57049e-05,-3.65756,-2.57172,-0.0229419,0.434906,
2,1,0,0,0,19419.1,0.439269,0.439,0.220754,29,0.028041,10,9.69109e-05,-3.65609,4.60555,0.0128106,0.438903,
2,1,0,1,0,19419.9,0.443264,0.442961,0.220901,29,0.0282275,10,9.78504e-05,-3.6558,14.0866,0.00418838,0.442863,
2,1,0,0,0,19420.7,0.447259,0.446896,0.221389,29,0.028414,10,9.89377e-05,-3.65484,-5.80436,-0.0101648,0.446798,
2,1,0,1,0,19421.5,0.451254,0.450974,0.221447,29,0.0286011,10,9.98671e-05,-3.65473,-125.406,-0.00047047,0.450877,
2,1,0,1,0,19422.3,0.455249,0.454979,0.2208,29,0.0287879,10,0.00010046,-3.656,1.7787,0.0331703,0.454882,
2,1,0,1,0,19423.1,0.459244,0.45892,0.220493,29,0.0289749,10,0.000101189,-3.65661,-22.5957,-0.00261111,0.458823,
2,1,0,1,0,19423.9,0.46324,0.462959,0.22131,29,0.029162,10,0.000102458,-3.655,8.56904,0.00688526,0.462861,
2,1,0,0,0,19424.7,0.467235,0.466901,0.22217,29,0.0293492,10,0.000103732,-3.65331,-39.9654,-0.00147628,0.466804,
2,1,0,1,0,19425.5,0.471231,0.470921,0.222701,29,0.0295368,10,0.000104874,-3.65228,2.64636,0.0222947,0.470823,
2,1,0,1,0,19426.3,0.475225,0.474924,0.223885,29,0.0297246,10,0.000106328,-3.64997,3.72581,0.0158355,0.474825,
2,1,0,1,0,19427.1,0.47922,0.478989,0.222096,29,0.0299129,10,0.000106381,-3.65346,4.16666,0.01416,0.478891,
2,1,0,1,0,19427.9,0.483216,0.482915,0.224047,29,0.0301016,10,0.000108196,-3.64966,153.063,0.000385462,0.482816,
2,1,0,0,0,19428.7,0.487211,0.486891,0.224467,29,0.0302906,10,0.000109291,-3.64885,0.972784,0.0606506,0.486792,
2,1,0,1,0,19429.5,0.491206,0.490922,0.225184,29,0.0304803,10,0.000110548,-3.64746,-39.1886,-0.00150554,0.490823,
2,1,0,1,0,19430.3,0.495201,0.4949,0.226524,29,0.0306706,10,0.000112107,-3.64489,4.74023,0.0124467,0.4948,
2,1,0,1,0,19431.1,0.499196,0.498891,0.227401,29,0.0308615,10,0.000113448,-3.64321,0.849867,0.0694226,0.498791,
2,1,0,1,0,19431.9,0.503191,0.50289,0.227891,29,0.0310532,10,0.000114604,-3.64227,-2.92094,-0.020199,0.50279,
2,1,0,0,0,19432.7,0.507187,0.506896,0.228775,29,0.0312454,10,0.000115965,-3.64059,1.23479,0.0477815,0.506795,
2,1,0,1,0,19433.5,0.511182,0.510833,0.229576,29,0.0314388,10,0.000117275,-3.63907,1.48898,0.0396244,0.510732,
2,1,0,0,0,19434.3,0.515177,0.514909,0.231502,29,0.0316331,10,0.000119202,-3.63545,-79.8356,-0.000739019,0.514807,
2,1,0,1,0,19435.1,0.519173,0.518884,0.232611,29,0.0318283,10,0.000120698,-3.63337,0.824386,0.0715684,0.518781,
2,1,0,1,0,19435.9,0.523167,0.522834,0.233826,29,0.0320246,10,0.000122252,-3.63111,2.32349,0.0253929,0.522732,
2,1,0,1,0,19436.7,0.527162,0.526883,0.235582,29,0.0322222,10,0.000124124,-3.62786,1.00133,0.0589213,0.526779,
2,1,0,1,0,19437.5,0.531158,0.530856,0.236881,29,0.0324209,10,0.00012575,-3.62547,2.01275,0.0293131,0.530751,
2,1,0,0,0,19438.3,0.535153,0.534892,0.239205,29,0.0326209,10,0.000127949,-3.62123,1.48278,0.0397901,0.534786,
2,1,0,1,0,19439.1,0.539148,0.538851,0.24139,29,0.0328223,10,0.000130073,-3.61728,0.663567,0.0889134,0.538745,
2,1,0,1,0,19439.9,0.543143,0.542824,0.242828,29,0.0330253,10,0.000131813,-3.6147,1.67238,0.0352791,0.542718,
2,1,0,1,0,19440.7,0.547138,0.546887,0.24505,29,0.03323,10,0.000134014,-3.61075,1.07585,0.0548404,0.546779,
2,1,0,1,0,19441.5,0.551133,0.550837,0.247722,29,0.0334363,10,0.000136455,-3.60604,0.70551,0.0836274,0.550728,
2,1,0,0,0,19442.3,0.555129,0.554837,0.250304,29,0.0336449,10,0.000138878,-3.60153,0.874331,0.0674802,0.554727,
2,1,0,1,0,19443.1,0.559124,0.558811,0.253225,29,0.0338556,10,0.000141505,-3.59649,0.529684,0.111387,0.5587,
2,1,0,1,0,19443.9,0.56312,0.562848,0.256676,29,0.034069,10,0.00014447,-3.59061,0.79639,0.0740843,0.562735,
2,1,0,1,0,19444.7,0.567114,0.566818,0.259897,29,0.0342854,10,0.000147314,-3.5852,0.715306,0.0824822,0.566704,
2,1,0,1,0,19445.5,0.571109,0.570857,0.264988,29,0.0345048,10,0.00015127,-3.57677,0.608701,0.0969277,0.570741,
2,1,0,0,0,19446.3,0.575105,0.574855,0.268419,29,0.0347277,10,0.000154302,-3.57119,0.483209,0.1221,0.574737,
2,1,0,1,0,19447.1,0.5791,0.578823,0.274307,29,0.0349545,10,0.000158775,-3.56176,0.527162,0.11192,0.578702,
2,1,0,0,0,19447.9,0.583095,0.582824,0.280205,29,0.0351856,10,0.00016331,-3.55252,0.377578,0.156259,0.582701,
2,1,0,1,0,19448.7,0.58709,0.586744,0.285345,29,0.0354218,10,0.000167424,-3.54463,0.408555,0.144411,0.586618,
2,1,0,1,0,19449.5,0.591085,0.590801,0.294734,29,0.0356631,10,0.000174129,-3.53057,0.328705,0.179492,0.590672,
2,1,0,1,0,19450.3,0.59508,0.59482,0.302174,29,0.0359105,10,0.000179739,-3.51974,0.301609,0.195617,0.594687,
2,1,0,1,0,19451.1,0.599076,0.598762,0.311228,29,0.0361648,10,0.000186351,-3.50692,0.323887,0.182162,0.598625,
2,1,0,0,0,19451.9,0.603071,0.602836,0.321908,29,0.0364267,10,0.000194058,-3.49227,0.264421,0.223129,0.602694,
2,1,0,1,0,19452.7,0.607066,0.606805,0.333619,29,0.0366975,10,0.000202442,-3.47675,0.264382,0.223162,0.606658,
2,1,0,1,0,19453.5,0.611061,0.610807,0.346027,29,0.0369784,10,0.000211356,-3.46089,0.219212,0.269145,0.610655,
2,1,0,1,0,19454.3,0.615056,0.614792,0.362801,29,0.0372709,10,0.000223047,-3.44033,0.184227,0.320257,0.614633,
2,1,0,1,0,19455.1,0.619051,0.618777,0.380819,29,0.0375778,10,0.000235642,-3.41928,0.169983,0.347093,0.618609,
2,1,0,0,0,19455.9,0.623047,0.622764,0.403367,29,0.0379006,10,0.000251203,-3.3943,0.158441,0.372379,0.622587,
2,1,0,1,0,19456.7,0.627042,0.626735,0.428384,29,0.0382421,10,0.000268484,-3.36817,0.143668,0.41067,0.626547,
2,1,0,1,0,19457.5,0.631037,0.630783,0.457294,29,0.0386056,10,0.000288454,-3.3398,0.134587,0.438377,0.630582,
2,1,0,1,0,19458.3,0.635032,0.634776,0.492577,29,0.0389942,10,0.000312676,-3.30753,0.121593,0.485224,0.634559,
2,1,0,1,0,19459.1,0.639027,0.638737,0.532331,29,0.0394128,10,0.000340019,-3.27382,0.110713,0.532908,0.638503,
2,1,0,1,0,19459.9,0.643022,0.642727,0.578755,29,0.0398664,10,0.000371982,-3.23751,0.103303,0.571135,0.642473,
2,1,0,1,0,19460.7,0.647018,0.646741,0.6373,29,0.0403614,10,0.000412168,-3.19566,0.0948654,0.621934,0.646461,
2,1,0,0,0,19461.5,0.651013,0.650723,0.702333,29,0.0409057,10,0.000457024,-3.15346,0.090703,0.650474,0.650414,
2,1,0,1,0,19462.3,0.655008,0.654714,0.780711,29,0.0415071,10,0.000511142,-3.10751,0.0828328,0.712278,0.65437,
2,1,0,1,0,19463.1,0.659003,0.658703,0.871075,29,0.0421757,10,0.00057378,-3.05994,0.0821646,0.718071,0.658319,
2,1,0,1,0,19463.9,0.662998,0.662705,0.97651,29,0.0429226,10,0.000647138,-3.01032,0.0786958,0.749722,0.662276,
2,1,0,1,0,19464.7,0.666994,0.66672,1.09765,29,0.0437601,10,0.000731829,-2.95953,0.074878,0.787948,0.666237,
2,1,0,0,0,19465.5,0.670989,0.67072,1.2384,29,0.0447026,10,0.000830621,-2.90714,0.0743985,0.793027,0.670175,
2,1,0,1,0,19466.3,0.674984,0.674715,1.4025,29,0.0457661,10,0.000946287,-2.8531,0.0733428,0.804442,0.674098,
2,1,0,1,0,19467.1,0.67898,0.678647,1.58546,29,0.0469681,10,0.00107597,-2.79984,0.0731468,0.806597,0.677949,
2,1,0,1,0,19467.9,0.682974,0.682703,1.79565,29,0.0483273,10,0.0012259,-2.74578,0.0724767,0.814055,0.681912,
2,1,0,1,0,19468.7,0.686969,0.686707,2.03182,29,0.0498643,10,0.00139527,-2.69211,0.0720103,0.819327,0.685813,
2,1,0,0,0,19469.5,0.690965,0.690693,2.29444,29,0.0516005,10,0.00158475,-2.63932,0.0744798,0.792161,0.689683,
2,1,0,1,0,19470.3,0.69496,0.694718,2.58537,29,0.0535581,10,0.0017961,-2.58748,0.0751113,0.785501,0.693581,
2,1,0,0,0,19471.1,0.698955,0.698664,2.90613,29,0.0557598,10,0.00203041,-2.53669,0.0770741,0.765497,0.697385,
2,1,0,1,0,19471.9,0.70295,0.702655,3.25453,29,0.0582289,10,0.00228681,-2.48751,0.0781384,0.75507,0.701223,
2,1,0,1,0,19472.7,0.706945,0.706684,3.63459,29,0.0609894,10,0.00256851,-2.43954,0.0823667,0.716309,0.705084,
2,1,0,1,0,19473.5,0.71094,0.710701,4.04269,29,0.0640648,10,0.00287314,-2.39333,0.083027,0.710613,0.708922,
2,1,0,1,0,19474.3,0.714936,0.714713,4.48143,29,0.0674794,10,0.00320294,-2.34858,0.0867171,0.680373,0.712741,
2,1,0,0,0,19475.1,0.718931,0.718698,4.94938,29,0.0712548,10,0.00355711,-2.30545,0.0901709,0.654313,0.71652,
2,1,0,1,0,19475.9,0.722927,0.722641,5.44476,29,0.0754161,10,0.00393461,-2.26402,0.0919133,0.64191,0.720245,
2,1,0,1,0,19476.7,0.726921,0.726643,5.96727,29,0.0799839,10,0.00433607,-2.22422,0.0972177,0.606885,0.724017,
2,1,0,1,0,19477.5,0.730916,0.73061,6.51913,29,0.0849808,10,0.00476294,-2.18581,0.0984313,0.599403,0.727741,
2,1,0,1,0,19478.3,0.734911,0.734623,7.09705,29,0.0904295,10,0.00521365,-2.14892,0.102149,0.57759,0.7315,
2,1,0,0,0,19479.1,0.738907,0.738626,7.70444,29,0.0963522,10,0.0056907,-2.11326,0.106785,0.552513,0.735236,
2,1,0,1,0,19479.9,0.742902,0.742644,8.33747,29,0.10277,10,0.00619177,-2.07897,0.111282,0.530184,0.738976,
2,1,0,1,0,19480.7,0.746897,0.74661,8.97307,29,0.109698,10,0.00669938,-2.04706,0.11826,0.4989,0.742661,
2,1,0,1,0,19481.5,0.750892,0.750619,9.66025,29,0.117151,10,0.00725117,-2.01501,0.116266,0.507457,0.746368,
2,1,0,1,0,19482.3,0.754887,0.754597,10.3779,29,0.125165,10,0.00783116,-1.98389,0.120635,0.489078,0.75003,
2,1,0,0,0,19483.1,0.758883,0.758625,11.1301,29,0.133767,10,0.00844358,-1.9535,0.121342,0.486228,0.753727,
2,1,0,1,0,19483.9,0.762878,0.762611,11.9155,29,0.142981,10,0.00908691,-1.92389,0.121913,0.483951,0.757368,
2,1,0,0,0,19484.7,0.766873,0.766618,12.7447,29,0.152841,10,0.00977033,-1.89467,0.125293,0.470895,0.76101,
2,1,0,1,0,19485.5,0.770868,0.770599,13.6331,29,0.163387,10,0.0105057,-1.8654,0.122788,0.480503,0.7646,
2,1,0,1,0,19486.3,0.774863,0.774625,14.5749,29,0.174664,10,0.0112901,-1.83639,0.125001,0.471995,0.768212,
2,1,0,1,0,19487.1,0.778858,0.778561,15.5636,29,0.18671,10,0.0121172,-1.80789,0.123752,0.476759,0.771713,
2,1,0,1,0,19487.9,0.782854,0.782594,16.617,29,0.199573,10,0.0130044,-1.77945,0.125094,0.471645,0.775283,
2,1,0,0,0,19488.7,0.786849,0.786591,17.7266,29,0.213304,10,0.0139436,-1.75138,0.127507,0.462718,0.778791,
2,1,0,1,0,19489.5,0.790844,0.790563,18.8482,29,0.227923,10,0.0149007,-1.72473,0.128331,0.45975,0.78227,
2,1,0,1,0,19490.3,0.794839,0.794554,20.0897,29,0.243487,10,0.0159623,-1.69703,0.124798,0.472763,0.785715,
2,1,0,1,0,19491.1,0.798834,0.798572,21.3873,29,0.260067,10,0.0170793,-1.66984,0.129062,0.457145,0.789162,
2,1,0,1,0,19491.9,0.802829,0.802558,22.7359,29,0.277703,10,0.0182468,-1.64329,0.129051,0.457184,0.792554,
2,1,0,0,0,19492.7,0.806825,0.806586,24.1036,29,0.296431,10,0.0194416,-1.61792,0.135982,0.433882,0.79598,
2,1,0,1,0,19493.5,0.81082,0.810559,25.5129,29,0.31626,10,0.0206797,-1.59324,0.138644,0.425549,0.799333,
2,1,0,1,0,19494.3,0.814815,0.814567,26.9624,29,0.337241,10,0.0219626,-1.56924,0.142495,0.414049,0.802703,
2,1,0,1,0,19495,0.81881,0.818508,28.4755,29,0.359385,10,0.0233074,-1.54553,0.137229,0.429938,0.805979,
2,1,0,1,0,19495.8,0.822805,0.822578,30.0615,29,0.38278,10,0.0247279,-1.52199,0.148095,0.398392,0.809351,
2,1,0,0,0,19496.6,0.826801,0.826544,31.6195,29,0.407432,10,0.0261349,-1.50004,0.151228,0.390139,0.812631,
2,1,0,1,0,19497.4,0.830796,0.830548,33.2215,29,0.433348,10,0.0275921,-1.47858,0.160016,0.368713,0.81593,
2,1,0,0,0,19498.2,0.834791,0.834576,34.8074,29,0.460525,10,0.0290494,-1.45833,0.162587,0.362882,0.819261,
2,1,0,1,0,19499,0.838786,0.83853,36.2932,29,0.488985,10,0.0304329,-1.44017,0.184875,0.319134,0.822561,
2,1,0,1,0,19499.8,0.842781,0.842518,37.9994,29,0.518672,10,0.0320152,-1.42022,0.168359,0.350442,0.825799,
2,1,0,1,0,19500.6,0.846776,0.846568,39.6215,29,0.549695,10,0.0335423,-1.40207,0.190912,0.309043,0.829135,
2,1,0,0,0,19501.3,0.849723,0.84946,40.6104,29,0.577874,10,0.0344969,-1.39136,0.0487252,1.21087,0.831591,
2,1,0,1,0,19502.1,0.845728,0.845431,38.3863,29,0.609325,10,0.032453,-1.41582,0.150545,0.39191,0.828541,
2,1,0,0,0,19502.9,0.841732,0.841509,36.5386,29,0.63924,10,0.0307476,-1.43725,0.145179,0.406394,0.825432,
2,1,0,1,0,19503.7,0.837737,0.837491,34.6729,29,0.667679,10,0.0290382,-1.46001,0.140564,0.419739,0.822235,
2,1,0,1,0,19504.5,0.833742,0.833506,32.9093,29,0.694662,10,0.0274301,-1.48268,0.136838,0.431166,0.819026,
2,1,0,1,0,19505.3,0.829747,0.829469,30.7653,29,0.720136,10,0.0255188,-1.51194,0.112094,0.526346,0.815932,
2,1,0,1,0,19506.1,0.825752,0.825472,29.2296,29,0.744105,10,0.0241282,-1.53418,0.139813,0.421993,0.81261,
2,1,0,0,0,19506.9,0.821757,0.821494,27.6792,29,0.766824,10,0.0227383,-1.55785,0.137596,0.42879,0.809315,
2,1,0,1,0,19507.7,0.817761,0.817503,26.137,29,0.788306,10,0.021367,-1.58274,0.134418,0.438931,0.806003,
2,1,0,1,0,19508.5,0.813766,0.813497,24.6564,29,0.808585,10,0.0200579,-1.60807,0.130416,0.452399,0.802648,
2,1,0,1,0,19509.3,0.809771,0.8095,23.2393,29,0.827701,10,0.0188122,-1.63378,0.134357,0.439127,0.799275,
2,1,0,1,0,19510.1,0.805776,0.805544,21.8981,29,0.845724,10,0.0176399,-1.65959,0.15416,0.382719,0.795909,
2,1,0,0,0,19510.9,0.801781,0.801474,20.7922,29,0.862783,10,0.0166644,-1.6821,0.124858,0.472538,0.792325,
2,1,0,1,0,19511.7,0.797786,0.797522,19.466,29,0.878848,10,0.0155246,-1.71072,0.116024,0.508515,0.788957,
2,1,0,1,0,19512.5,0.79379,0.79352,18.1617,29,0.893871,10,0.0144117,-1.74084,0.1145,0.515284,0.785529,
2,1,0,1,0,19513.3,0.789795,0.789516,16.9391,29,0.907875,10,0.0133737,-1.77111,0.114609,0.514795,0.782063,
2,1,0,1,0,19514.1,0.7858,0.785537,15.7533,29,0.920926,10,0.0123748,-1.80263,0.108544,0.543559,0.778605,
2,1,0,0,0,19514.9,0.781805,0.781512,14.6546,29,0.933061,10,0.0114527,-1.83403,0.112137,0.526142,0.775064,
2,1,0,1,0,19515.7,0.77781,0.777554,13.609,29,0.944335,10,0.0105818,-1.86617,0.107444,0.549123,0.771566,
2,1,0,0,0,19516.5,0.773815,0.773552,12.6102,29,0.954797,10,0.00975465,-1.89928,0.107809,0.547266,0.768004,
2,1,0,1,0,19517.3,0.769819,0.769565,11.6771,29,0.964488,10,0.0089863,-1.93266,0.10592,0.557024,0.764427,
2,1,0,1,0,19518.1,0.765824,0.765571,10.7836,29,0.973447,10,0.00825561,-1.96724,0.102889,0.573431,0.760827,
2,1,0,1,0,19518.9,0.761829,0.7616,9.91814,29,0.98171,10,0.00755366,-2.00357,0.0971927,0.607041,0.757236,
2,1,0,1,0,19519.7,0.757834,0.757573,9.11639,29,0.989295,10,0.00690632,-2.04018,0.100352,0.587928,0.753561,
2,1,0,0,0,19520.5,0.753839,0.753588,8.37366,29,0.996268,10,0.00631029,-2.07708,0.0996366,0.592152,0.749903,
2,1,0,1,0,19521.3,0.749844,0.749594,7.67863,29,1.00267,10,0.00575585,-2.11472,0.096161,0.613555,0.746216,
2,1,0,1,0,19522.1,0.745848,0.745602,7.03167,29,1.00853,10,0.00524283,-2.15294,0.0947863,0.622453,0.742508,
2,1,0,1,0,19522.9,0.741853,0.741578,6.41029,29,1.01389,10,0.00475373,-2.19312,0.0912816,0.646351,0.738757,
2,1,0,1,0,19523.7,0.737858,0.737551,5.83212,29,1.01877,10,0.00430149,-2.23417,0.0907487,0.650147,0.734985,
2,1,0,0,0,19524.5,0.733863,0.73361,5.29187,29,1.0232,10,0.00388216,-2.27639,0.0869802,0.678315,0.731281,
2,1,0,1,0,19525.3,0.729868,0.729623,4.78221,29,1.02721,10,0.00348921,-2.32037,0.0844456,0.698674,0.727519,
2,1,0,1,0,19526.1,0.725872,0.725569,4.30827,29,1.03083,10,0.00312595,-2.3657,0.0824273,0.715782,0.723674,
2,1,0,1,0,19526.9,0.721877,0.721586,3.8667,29,1.03408,10,0.00279016,-2.41266,0.079278,0.744216,0.719884,
2,1,0,1,0,19527.7,0.717882,0.717618,3.45631,29,1.03699,10,0.00248031,-2.46139,0.0783732,0.752808,0.716097,
2,1,0,0,0,19528.5,0.713887,0.713611,3.0787,29,1.03959,10,0.002197,-2.51163,0.0754055,0.782437,0.712257,
2,1,0,1,0,19529.3,0.709892,0.709616,2.73147,29,1.0419,10,0.00193829,-2.5636,0.0714272,0.826016,0.708414,
2,1,0,0,0,19530.1,0.705897,0.705637,2.41139,29,1.04394,10,0.00170157,-2.61773,0.0698594,0.844554,0.704576,
2,1,0,1,0,19530.9,0.701901,0.701607,2.11611,29,1.04574,10,0.00148468,-2.67446,0.0678051,0.870141,0.700676,
2,1,0,1,0,19531.7,0.697906,0.697662,1.84695,29,1.04731,10,0.00128854,-2.73355,0.0642944,0.917654,0.696849,
2,1,0,1,0,19532.5,0.693911,0.693658,1.60293,29,1.04868,10,0.00111188,-2.79509,0.0622008,0.948541,0.692953,
2,1,0,1,0,19533.3,0.689916,0.689632,1.38534,29,1.04986,10,0.000955377,-2.85844,0.0600544,0.982442,0.689023,
2,1,0,0,0,19534.1,0.685921,0.685646,1.18815,29,1.05088,10,0.000814651,-2.92513,0.0562696,1.04852,0.685124,
2,1,0,1,0,19534.9,0.681926,0.681624,1.01206,29,1.05175,10,0.000689847,-2.99479,0.0553567,1.06582,0.681179,
2,1,0,1,0,19535.7,0.67793,0.67767,0.854882,29,1.05248,10,0.000579328,-3.06809,0.0533001,1.10694,0.677294,
2,1,0,1,0,19536.5,0.673935,0.673654,0.715392,29,1.0531,10,0.000481927,-3.14546,0.0488681,1.20733,0.67334,
2,1,0,1,0,19537.3,0.66994,0.669656,0.594426,29,1.05361,10,0.00039806,-3.2259,0.0482909,1.22176,0.669394,
2,1,0,0,0,19538.1,0.665945,0.665618,0.489937,29,1.05403,10,0.000326111,-3.30986,0.0464851,1.26922,0.665403,
2,1,0,1,0,19538.9,0.66195,0.661677,0.398746,29,1.05438,10,0.000263841,-3.3993,0.0412624,1.42987,0.661501,
2,1,0,0,0,19539.7,0.657955,0.657686,0.319477,29,1.05466,10,0.000210116,-3.49556,0.0408274,1.44511,0.657545,
2,1,0,1,0,19540.5,0.653959,0.653674,0.252654,29,1.05487,10,0.000165154,-3.59747,0.0372787,1.58267,0.653563,
2,1,0,1,0,19541.3,0.649964,0.649722,0.195069,29,1.05504,10,0.000126741,-3.70981,0.0333744,1.76782,0.649636,
2,1,0,1,0,19542.1,0.64597,0.645673,0.147283,29,1.05517,10,9.50965e-05,-3.83185,0.0302281,1.95183,0.645608,
2,1,0,1,0,19542.9,0.641974,0.641693,0.104488,29,1.05526,10,6.70492e-05,-3.98093,0.0255564,2.30862,0.641647,
2,1,0,0,0,19543.7,0.637979,0.637699,0.0712436,29,1.05532,10,4.5432e-05,-4.14725,0.020164,2.926,0.637668,
2,1,0,1,0,19544.5,0.633983,0.633708,0.042451,29,1.05536,10,2.69016e-05,-4.37211,0.0143296,4.11736,0.63369,
2,1,0,1,0,19545.3,0.629988,0.629712,0.0170048,29,1.05537,10,1.07081e-05,-4.76943,0.00585191,10.0822,0.629705,
2,1,0,1,0,19546.1,0.625993,0.625738,-0.00294056,29,1.05536,10,-1.84002e-06,-5.53157,-0.012479,-4.72795,0.625739,
2,0,0,1,0,19546.9,0.621998,0.621711,-0.0200491,29,1.05535,10,-1.24647e-05,-4.69791,-0.0115567,-5.10527,0.62172,
2,0,0,0,0,19547.7,0.618003,0.617719,-0.034373,29,1.05531,10,-2.12329e-05,-4.46378,-0.022717,-2.59717,0.617734,
2,0,0,1,0,19548.5,0.614008,0.613714,-0.0460012,29,1.05527,10,-2.82316e-05,-4.33723,-0.0442508,-1.33331,0.613734,
2,0,0,1,0,19549.3,0.610012,0.609758,-0.0564524,29,1.05522,10,-3.44223e-05,-4.24832,-0.0579594,-1.01795,0.609783,
2,0,0,1,0,19550.1,0.606017,0.605749,-0.0637295,29,1.05516,10,-3.86041e-05,-4.19566,-0.0845288,-0.697987,0.605777,
2,0,0,1,0,19550.9,0.602022,0.601751,-0.0714637,29,1.0551,10,-4.30034e-05,-4.14591,-0.107456,-0.549064,0.601783,
2,0,0,0,0,19551.7,0.598027,0.597717,-0.0775746,29,1.05503,10,-4.63677e-05,-4.11028,-0.105583,-0.558804,0.597752,
2,0,0,1,0,19552.5,0.594032,0.59377,-0.0827821,29,1.05496,10,-4.91535e-05,-4.08206,-0.209164,-0.282075,0.593806,
2,0,0,0,0,19553.3,0.590037,0.589726,-0.087517,29,1.05488,10,-5.16111e-05,-4.05791,-0.170216,-0.346619,0.589765,
2,0,0,1,0,19554.1,0.586041,0.585756,-0.0915375,29,1.0548,10,-5.36186e-05,-4.0384,-0.227565,-0.259266,0.585796,
2,0,0,1,0,19554.9,0.582046,0.581704,-0.0938157,29,1.05472,10,-5.4573e-05,-4.02772,-0.342793,-0.172116,0.581746,
2,0,0,1,0,19555.7,0.578052,0.577792,-0.0970656,29,1.05463,10,-5.60837e-05,-4.01293,-0.309169,-0.190834,0.577835,
2,0,0,1,0,19556.5,0.574056,0.573769,-0.09844,29,1.05454,10,-5.64818e-05,-4.00683,-0.246396,-0.239452,0.573813,
2,0,0,0,0,19557.3,0.570061,0.56975,-0.101174,29,1.05445,10,-5.7644e-05,-3.99493,-2.6718,-0.0220825,0.569795,
2,0,0,1,0,19558.1,0.566065,0.565796,-0.103622,29,1.05436,10,-5.86289e-05,-3.98455,-0.349781,-0.168677,0.565841,
2,0,0,1,0,19558.9,0.56207,0.561765,-0.104698,29,1.05427,10,-5.88159e-05,-3.98006,-0.762767,-0.07735,0.561811,
2,0,0,1,0,19559.7,0.558075,0.557752,-0.106237,29,1.05417,10,-5.92542e-05,-3.97372,-0.522011,-0.113024,0.557799,
2,0,0,1,0,19560.5,0.55408,0.553824,-0.107375,29,1.05408,10,-5.94668e-05,-3.9691,-0.984485,-0.0599298,0.553872,
2,0,0,0,0,19561.3,0.550085,0.549779,-0.108229,29,1.05398,10,-5.95021e-05,-3.96566,-3.18012,-0.0185527,0.549826,
2,0,0,1,0,19562.1,0.54609,0.545799,-0.110669,29,1.05388,10,-6.0403e-05,-3.95597,-0.770342,-0.0765894,0.545848,
2,0,0,1,0,19562.9,0.542094,0.541828,-0.111295,29,1.05379,10,-6.03026e-05,-3.95353,-3.86452,-0.0152671,0.541877,
2,0,0,1,0,19563.7,0.538099,0.537787,-0.112524,29,1.05369,10,-6.05139e-05,-3.94876,-0.54144,-0.108969,0.537837,
2,0,0,1,0,19564.5,0.534104,0.533838,-0.113608,29,1.05359,10,-6.06484e-05,-3.94459,-1.01979,-0.0578549,0.533888,
2,0,0,0,0,19565.3,0.530109,0.529823,-0.113962,29,1.05349,10,-6.03799e-05,-3.94324,-0.802877,-0.0734857,0.529873,
2,0,0,1,0,19566.1,0.526114,0.525788,-0.115399,29,1.05338,10,-6.06756e-05,-3.9378,-1.13042,-0.052193,0.525839,
2,0,0,0,0,19566.9,0.522119,0.521819,-0.11599,29,1.05328,10,-6.05257e-05,-3.93558,-0.673703,-0.0875757,0.52187,
2,0,0,1,0,19567.7,0.518123,0.517818,-0.11793,29,1.05318,10,-6.10662e-05,-3.92838,-3.99557,-0.0147663,0.51787,
2,0,0,1,0,19568.5,0.514128,0.513813,-0.118883,29,1.05307,10,-6.10835e-05,-3.92488,-0.540582,-0.109142,0.513865,
2,0,0,1,0,19569.3,0.510133,0.509862,-0.119466,29,1.05297,10,-6.0911e-05,-3.92276,-0.816191,-0.072287,0.509915,
2,0,0,1,0,19570.1,0.506138,0.505848,-0.120442,29,1.05286,10,-6.09253e-05,-3.91922,-9.57528,-0.0061617,0.505901,
2,0,0,0,0,19570.9,0.502143,0.501836,-0.122353,29,1.05276,10,-6.14011e-05,-3.91239,-0.759951,-0.0776365,0.501889,
2,0,0,1,0,19571.7,0.498148,0.497844,-0.123313,29,1.05265,10,-6.13906e-05,-3.90899,-9.09779,-0.00648509,0.497898,
2,0,0,1,0,19572.5,0.494152,0.493874,-0.124331,29,1.05254,10,-6.14039e-05,-3.90542,-1.02226,-0.0577151,0.493928,
2,0,0,1,0,19573.3,0.490157,0.489883,-0.124633,29,1.05243,10,-6.10555e-05,-3.90437,-0.447353,-0.131887,0.489937,
2,0,0,1,0,19574.1,0.486162,0.485869,-0.126149,29,1.05232,10,-6.12918e-05,-3.89912,-1.4448,-0.0408361,0.485925,
2,0,0,0,0,19574.9,0.482167,0.481899,-0.127787,29,1.05221,10,-6.15805e-05,-3.89351,-1.55777,-0.0378746,0.481955,
2,0,0,1,0,19575.7,0.478172,0.477965,-0.127359,29,1.0521,10,-6.0873e-05,-3.89497,-1.03774,-0.0568545,0.478021,
2,0,0,0,0,19576.5,0.474177,0.473872,-0.130646,29,1.05198,10,-6.19093e-05,-3.8839,-1.21954,-0.0483788,0.473929,
2,0,0,1,0,19577.3,0.470181,0.469858,-0.131042,29,1.05187,10,-6.15712e-05,-3.88259,-0.506538,-0.116477,0.469916,
2,0,0,1,0,19578.1,0.466186,0.465921,-0.132592,29,1.05175,10,-6.17771e-05,-3.87748,-3.21498,-0.0183516,0.465979,
2,0,0,1,0,19578.8,0.462191,0.461914,-0.134582,29,1.05164,10,-6.21655e-05,-3.87101,-0.524781,-0.112428,0.461973,
2,0,0,1,0,19579.6,0.458196,0.457928,-0.135137,29,1.05152,10,-6.1883e-05,-3.86923,-0.772916,-0.0763343,0.457988,
2,0,0,0,0,19580.4,0.454201,0.453894,-0.136464,29,1.0514,10,-6.194e-05,-3.86498,-2.44622,-0.0241189,0.453955,
2,0,0,1,0,19581.2,0.450205,0.449951,-0.138507,29,1.05128,10,-6.23213e-05,-3.85853,-0.715016,-0.0825157,0.450012,
2,0,0,1,0,19582,0.44621,0.44591,-0.14015,29,1.05116,10,-6.24945e-05,-3.85341,-0.859086,-0.0686776,0.445972,
2,0,0,1,0,19582.8,0.442215,0.441875,-0.14157,29,1.05104,10,-6.25563e-05,-3.84903,-0.821116,-0.0718535,0.441937,
2,0,0,1,0,19583.6,0.43822,0.437905,-0.142644,29,1.05091,10,-6.24646e-05,-3.84575,-0.676229,-0.0872485,0.437967,
2,0,0,0,0,19584.4,0.434225,0.433958,-0.145322,29,1.05079,10,-6.30638e-05,-3.83767,-0.644854,-0.0914936,0.434022,
2,0,0,1,0,19585.2,0.43023,0.429922,-0.146491,29,1.05066,10,-6.29798e-05,-3.83419,-0.845155,-0.0698097,0.429986,
2,0,0,1,0,19586,0.426234,0.425958,-0.148233,29,1.05053,10,-6.31411e-05,-3.82905,-0.702444,-0.0839924,0.426023,
2,0,0,1,0,19586.8,0.422239,0.421994,-0.151092,29,1.0504,10,-6.37598e-05,-3.82076,-0.865003,-0.0682078,0.422061,
2,0,0,1,0,19587.6,0.418244,0.417914,-0.152207,29,1.05027,10,-6.36093e-05,-3.81757,-0.737195,-0.0800331,0.417981,
2,0,0,0,0,19588.4,0.414249,0.41396,-0.153003,29,1.05014,10,-6.33372e-05,-3.8153,-1.79242,-0.0329164,0.414027,
2,0,0,1,0,19589.2,0.410254,0.409953,-0.156054,29,1.05,10,-6.39748e-05,-3.80673,-1.00088,-0.058948,0.410022,
2,0,0,0,0,19590,0.406259,0.405962,-0.157776,29,1.04987,10,-6.40512e-05,-3.80196,-0.485829,-0.121442,0.406031,
2,0,0,1,0,19590.8,0.402263,0.401954,-0.159585,29,1.04973,10,-6.41458e-05,-3.79701,-0.826233,-0.0714084,0.402025,
2,0,0,1,0,19591.6,0.398268,0.397975,-0.162534,29,1.04959,10,-6.46846e-05,-3.78905,-0.507718,-0.116206,0.398047,
2,0,0,1,0,19592.4,0.394274,0.393999,-0.164063,29,1.04945,10,-6.46407e-05,-3.78499,-0.636947,-0.0926294,0.394071,
2,0,0,1,0,19593.2,0.390278,0.389983,-0.165652,29,1.0493,10,-6.46013e-05,-3.7808,-0.615035,-0.0959295,0.390056,
2,0,0,0,0,19594,0.386283,0.38599,-0.167979,29,1.04916,10,-6.48385e-05,-3.77474,-1.4765,-0.0399594,0.386064,
2,0,0,1,0,19594.8,0.382287,0.381998,-0.169647,29,1.04901,10,-6.48046e-05,-3.77045,-0.777837,-0.0758514,0.382072,
2,0,0,1,0,19595.6,0.378292,0.378002,-0.172837,29,1.04887,10,-6.53329e-05,-3.76236,-2.00392,-0.0294423,0.378078,
2,0,0,1,0,19596.4,0.374297,0.374002,-0.173464,29,1.04872,10,-6.48759e-05,-3.76079,-0.39426,-0.149647,0.374078,
2,0,0,1,0,19597.2,0.370303,0.370023,-0.176806,29,1.04856,10,-6.54222e-05,-3.7525,-0.608772,-0.0969164,0.370101,
2,0,0,0,0,19598,0.366307,0.366005,-0.178492,29,1.04841,10,-6.53288e-05,-3.74838,-0.738239,-0.07992,0.366083,
2,0,0,1,0,19598.8,0.362312,0.362044,-0.181659,29,1.04826,10,-6.57684e-05,-3.74074,-0.731513,-0.0806547,0.362124,
2,0,0,1,0,19599.6,0.358316,0.358086,-0.182683,29,1.0481,10,-6.54163e-05,-3.7383,-1.49243,-0.0395327,0.358167,
2,0,0,1,0,19600.4,0.354321,0.354032,-0.185111,29,1.04794,10,-6.55351e-05,-3.73257,-0.659743,-0.0894288,0.354113,
2,0,0,1,0,19601.2,0.350327,0.350004,-0.187235,29,1.04778,10,-6.55329e-05,-3.72761,-0.993716,-0.0593731,0.350086,
2,0,0,0,0,19602,0.346331,0.346025,-0.18998,29,1.04762,10,-6.57378e-05,-3.72129,-0.891681,-0.0661672,0.346108,
2,0,0,1,0,19602.8,0.342336,0.342033,-0.191628,29,1.04745,10,-6.5543e-05,-3.71754,-0.461661,-0.127799,0.342118,
2,0,0,0,0,19603.6,0.338341,0.33804,-0.19479,29,1.04729,10,-6.58466e-05,-3.71043,-1.37584,-0.0428829,0.338125,
2,0,0,1,0,19604.4,0.334345,0.334069,-0.196951,29,1.04712,10,-6.57955e-05,-3.70564,-0.577301,-0.1022,0.334156,
2,0,0,1,0,19605.2,0.33035,0.330035,-0.1997,29,1.04695,10,-6.59079e-05,-3.69962,-0.80747,-0.0730678,0.330123,
2,0,0,1,0,19606,0.326355,0.326019,-0.201711,29,1.04677,10,-6.57617e-05,-3.69527,-0.758072,-0.077829,0.326108,
2,0,0,1,0,19606.8,0.32236,0.322019,-0.203471,29,1.0466,10,-6.55215e-05,-3.6915,-1.06478,-0.0554107,0.322109,
2,0,0,0,0,19607.6,0.318365,0.318031,-0.206156,29,1.04642,10,-6.5564e-05,-3.6858,-0.727469,-0.0811032,0.318122,
2,0,0,1,0,19608.4,0.31437,0.314069,-0.208646,29,1.04625,10,-6.55293e-05,-3.68059,-1.14264,-0.0516347,0.314161,
2,0,0,1,0,19609.2,0.310374,0.310089,-0.21159,29,1.04607,10,-6.56118e-05,-3.6745,-0.523821,-0.112634,0.310182,
2,0,0,1,0,19610,0.306379,0.30605,-0.214791,29,1.04588,10,-6.57368e-05,-3.66798,-0.870397,-0.0677852,0.306144,
2,0,0,1,0,19610.8,0.302385,0.302072,-0.216456,29,1.0457,10,-6.53853e-05,-3.66463,-0.709103,-0.0832037,0.302167,
2,0,0,0,0,19611.6,0.298389,0.298124,-0.218731,29,1.04551,10,-6.5209e-05,-3.66009,-1.03573,-0.0569649,0.29822,
2,0,0,1,0,19612.4,0.294394,0.294076,-0.221534,29,1.04533,10,-6.5148e-05,-3.65456,-1.41936,-0.041568,0.294174,
2,0,0,1,0,19613.2,0.290398,0.290068,-0.224774,29,1.04514,10,-6.51996e-05,-3.64825,-0.554621,-0.106379,0.290167,
2,0,0,1,0,19614,0.286403,0.286139,-0.225571,29,1.04494,10,-6.45446e-05,-3.64672,-0.685305,-0.086093,0.286238,
2,0,0,1,0,19614.8,0.282408,0.282093,-0.228366,29,1.04475,10,-6.44205e-05,-3.64137,-3.4744,-0.0169813,0.282193,
2,0,0,1,0,19615.6,0.278414,0.278151,-0.231878,29,1.04455,10,-6.44969e-05,-3.63474,-0.576031,-0.102425,0.278253,
2,0,0,1,0,19616.4,0.274418,0.274086,-0.234688,29,1.04435,10,-6.43245e-05,-3.62951,-0.716405,-0.0823557,0.274189,
2,0,0,0,0,19617.2,0.270423,0.270112,-0.238165,29,1.04415,10,-6.43314e-05,-3.62312,-1.4436,-0.0408702,0.270217,
2,0,0,1,0,19618,0.266427,0.266079,-0.239101,29,1.04395,10,-6.36197e-05,-3.62142,-0.511032,-0.115453,0.266185,
2,0,0,1,0,19618.8,0.262432,0.262134,-0.242651,29,1.04375,10,-6.3607e-05,-3.61502,-0.889143,-0.0663561,0.26224,
2,0,0,1,0,19619.6,0.258437,0.25813,-0.245537,29,1.04354,10,-6.33805e-05,-3.60988,-0.75728,-0.0779104,0.258238,
2,0,0,1,0,19620.4,0.254442,0.254135,-0.246786,29,1.04333,10,-6.27169e-05,-3.60768,-1.32788,-0.0444319,0.254244,
2,0,0,0,0,19621.2,0.250447,0.250151,-0.250502,29,1.04312,10,-6.26633e-05,-3.60119,-2.59668,-0.0227213,0.250261,
2,0,0,1,0,19622,0.246452,0.246146,-0.252657,29,1.04291,10,-6.21906e-05,-3.59747,-0.731414,-0.0806657,0.246257,
2,0,0,1,0,19622.8,0.242456,0.242128,-0.254485,29,1.04269,10,-6.16179e-05,-3.59434,-0.727405,-0.0811103,0.24224,
2,0,0,1,0,19623.6,0.238461,0.238127,-0.257058,29,1.04248,10,-6.12125e-05,-3.58997,-0.821502,-0.0718197,0.23824,
2,0,0,1,0,19624.4,0.234467,0.23419,-0.259429,29,1.04226,10,-6.07557e-05,-3.58598,-0.999112,-0.0590525,0.234304,
2,0,0,0,0,19625.2,0.230471,0.230173,-0.26253,29,1.04204,10,-6.04274e-05,-3.58082,-1.30571,-0.0451863,0.230289,
2,0,0,1,0,19626,0.226476,0.226165,-0.264477,29,1.04181,10,-5.98153e-05,-3.57761,-1.04313,-0.0565607,0.226281,
2,0,0,0,0,19626.8,0.222481,0.222167,-0.266227,29,1.04159,10,-5.91468e-05,-3.57475,-0.905006,-0.0651929,0.222284,
2,0,0,1,0,19627.6,0.218485,0.218203,-0.270555,29,1.04136,10,-5.9036e-05,-3.56774,-2.94082,-0.0200624,0.218322,
2,0,0,1,0,19628.4,0.21449,0.214212,-0.271812,29,1.04113,10,-5.82254e-05,-3.56573,-0.446873,-0.132029,0.214332,
2,0,0,1,0,19629.2,0.210496,0.210218,-0.275774,29,1.0409,10,-5.79726e-05,-3.55945,-0.790071,-0.0746769,0.210339,
2,0,0,1,0,19630,0.2065,0.206193,-0.279967,29,1.04067,10,-5.77272e-05,-3.55289,-0.801817,-0.0735828,0.206316,
2,0,0,0,0,19630.8,0.202505,0.202193,-0.282087,29,1.04043,10,-5.70361e-05,-3.54962,-1.27813,-0.0461611,0.202317,
2,0,0,1,0,19631.6,0.198509,0.198209,-0.285188,29,1.04019,10,-5.65269e-05,-3.54487,-0.484316,-0.121821,0.198334,
2,0,0,1,0,19632.4,0.194514,0.194171,-0.290894,29,1.03995,10,-5.64832e-05,-3.53627,-1.06643,-0.0553247,0.194299,
2,0,0,1,0,19633.2,0.190519,0.190168,-0.292893,29,1.0397,10,-5.5699e-05,-3.53329,-0.443762,-0.132954,0.190297,
2,0,0,1,0,19634,0.186524,0.186214,-0.298502,29,1.03945,10,-5.55852e-05,-3.52505,-1.12899,-0.052259,0.186345,
2,0,0,0,0,19634.8,0.182529,0.182222,-0.304242,29,1.0392,10,-5.54394e-05,-3.51678,-0.357453,-0.165057,0.182355,
2,0,0,1,0,19635.6,0.178534,0.178217,-0.310364,29,1.03894,10,-5.53122e-05,-3.50813,-0.404927,-0.145705,0.178354,
2,0,0,1,0,19636.4,0.174538,0.174185,-0.317892,29,1.03868,10,-5.53723e-05,-3.49772,-0.398628,-0.148008,0.174325,
2,0,0,1,0,19637.2,0.170543,0.170227,-0.326667,29,1.03841,10,-5.56077e-05,-3.48589,-0.317542,-0.185802,0.170371,
2,0,0,1,0,19638,0.166549,0.166229,-0.336183,29,1.03813,10,-5.58832e-05,-3.47342,-0.276359,-0.213491,0.166377,
2,0,0,0,0,19638.8,0.162553,0.16223,-0.349758,29,1.03784,10,-5.67411e-05,-3.45623,-0.213442,-0.276422,0.162384,
2,0,0,1,0,19639.6,0.158558,0.158249,-0.364906,29,1.03754,10,-5.77461e-05,-3.43782,-0.18277,-0.32281,0.158409,
2,0,0,0,0,19640.4,0.154563,0.154243,-0.388679,29,1.03723,10,-5.99509e-05,-3.41041,-0.151184,-0.390253,0.154414,
2,0,0,1,0,19641.2,0.150567,0.150263,-0.415513,29,1.0369,10,-6.24361e-05,-3.38142,-0.112946,-0.522371,0.150446,
2,0,0,1,0,19642,0.146572,0.146297,-0.45299,29,1.03654,10,-6.6271e-05,-3.34391,-0.0996709,-0.591948,0.146496,
2,0,0,1,0,19642.8,0.142578,0.142245,-0.503573,29,1.03614,10,-7.16305e-05,-3.29794,-0.0845274,-0.697999,0.142466,
2,0,0,1,0,19643.6,0.138582,0.138306,-0.558687,29,1.0357,10,-7.72697e-05,-3.25283,-0.0831448,-0.709606,0.138552,
2,0,0,0,0,19644.4,0.134587,0.134228,-0.620288,29,1.03522,10,-8.32597e-05,-3.20741,-0.099651,-0.592066,0.1345,
2,0,0,1,0,19645.2,0.130591,0.130289,-0.674049,29,1.03469,10,-8.78209e-05,-3.17131,-0.128027,-0.46084,0.130585,
2,0,0,1,0,19646,0.126596,0.126278,-0.712804,29,1.03412,10,-9.00111e-05,-3.14703,-0.198792,-0.296793,0.126591,
2,0,0,1,0,19646.8,0.122602,0.122243,-0.740625,29,1.03352,10,-9.05363e-05,-3.1304,-0.424589,-0.138958,0.122569,
2,0,0,1,0,19647.6,0.118607,0.118265,-0.751306,29,1.03291,10,-8.8853e-05,-3.12418,-0.778668,-0.0757704,0.118595,
2,0,0,0,0,19648.4,0.114611,0.114289,-0.753282,29,1.0323,10,-8.60916e-05,-3.12304,2.35722,0.0250295,0.11462,
2,0,0,1,0,19649.2,0.110616,0.110312,-0.747985,29,1.03168,10,-8.25118e-05,-3.12611,0.912449,0.0646612,0.110641,
2,0,0,1,0,19650,0.10662,0.106283,-0.740352,29,1.03108,10,-7.8687e-05,-3.13056,0.929081,0.0635036,0.106609,
2,0,0,1,0,19650.8,0.102625,0.10232,-0.728855,29,1.03048,10,-7.45764e-05,-3.13736,0.468433,0.125952,0.102641,
2,0,0,1,0,19651.6,0.0986305,0.0983361,-0.716944,29,1.02988,10,-7.05015e-05,-3.14451,0.59739,0.098763,0.0986515,
2,0,0,0,0,19652.4,0.0946351,0.0943181,-0.701855,29,1.0293,10,-6.61976e-05,-3.15375,0.465921,0.126631,0.0946269,
2,0,0,1,0,19653.2,0.0906399,0.0903034,-0.692317,29,1.02873,10,-6.25186e-05,-3.15969,0.433723,0.136032,0.090608,
2,0,0,0,0,19654,0.0866448,0.0862887,-0.678947,29,1.02817,10,-5.85854e-05,-3.16816,0.647794,0.0910784,0.0865874,
2,0,0,1,0,19654.8,0.0826492,0.0823033,-0.668736,29,1.02762,10,-5.50392e-05,-3.17475,0.558436,0.105652,0.0825976,
2,0,0,1,0,19655.6,0.0786544,0.0783251,-0.657314,29,1.02708,10,-5.14842e-05,-3.18223,0.626607,0.094158,0.0786143,
2,0,0,1,0,19656.4,0.0746596,0.0743477,-0.647142,29,1.02654,10,-4.81136e-05,-3.189,0.746847,0.0789988,0.0746325,
2,0,0,1,0,19657.2,0.0706641,0.0703306,-0.638383,29,1.02602,10,-4.48978e-05,-3.19492,0.570923,0.103341,0.0706115,
2,0,0,0,0,19658,0.0666689,0.0663774,-0.630569,29,1.0255,10,-4.18556e-05,-3.20027,0.683314,0.0863439,0.0666549,
2,0,0,1,0,19658.8,0.0626737,0.0623829,-0.619383,29,1.02498,10,-3.86389e-05,-3.20804,0.676254,0.0872453,0.0626554,
2,0,0,1,0,19659.6,0.0586783,0.0583446,-0.61293,29,1.02448,10,-3.57612e-05,-3.21259,0.552255,0.106835,0.0586143,
2,0,0,1,0,19660.4,0.0546835,0.0543694,-0.601687,29,1.02398,10,-3.27134e-05,-3.22063,0.661227,0.089228,0.0546341,
2,0,0,1,0,19661.1,0.0506886,0.0503422,-0.591686,29,1.02349,10,-2.97867e-05,-3.22791,0.484345,0.121814,0.0506025,
2,0,0,0,0,19661.9,0.046693,0.046357,-0.581093,29,1.02301,10,-2.69377e-05,-3.23575,0.51433,0.114712,0.0466126,
2,0,0,1,0,19662.7,0.0426979,0.0423932,-0.570591,29,1.02253,10,-2.41891e-05,-3.24368,0.546625,0.107935,0.0426442,
2,0,0,1,0,19663.5,0.0387022,0.0383663,-0.561169,29,1.02207,10,-2.153e-05,-3.25091,0.394689,0.149485,0.0386132,
2,0,0,1,0,19664.3,0.0347074,0.0343965,-0.549612,29,1.02161,10,-1.89047e-05,-3.25994,0.547518,0.107759,0.0346383,
2,0,0,1,0,19665.1,0.0307126,0.0304321,-0.53738,29,1.02116,10,-1.63536e-05,-3.26972,0.479597,0.12302,0.0306686,
2,0,0,0,0,19665.9,0.0267172,0.0263789,-0.530156,29,1.02072,10,-1.39849e-05,-3.2756,0.500508,0.11788,0.0266122,
2,0,0,1,0,19666.7,0.022722,0.0223653,-0.521235,29,1.02029,10,-1.16575e-05,-3.28297,0.683353,0.086339,0.0225946,
2,0,0,0,0,19667.5,0.0187268,0.0183962,-0.51448,29,1.01986,10,-9.46445e-06,-3.28863,0.696434,0.0847173,0.0186225,
2,0,0,1,0,19668.3,0.0147313,0.0143876,-0.509977,29,1.01944,10,-7.33732e-06,-3.29245,1.27473,0.0462842,0.0146119,
2,0,0,1,0,19669.1,0.0107365,0.0104027,-0.505073,29,1.01903,10,-5.25414e-06,-3.29665,1.18164,0.0499307,0.010625,
2,0,0,1,0,19669.9,0.00674163,0.00644353,-0.501655,29,1.01861,10,-3.23243e-06,-3.29959,1.967,0.0299949,0.00666426,
2,0,0,1,0,19670.7,0.00274612,0.00241053,-0.500967,29,1.0182,10,-1.20759e-06,-3.30019,-1.88786,-0.0312523,0.00263095,
2,0,0,0,0,19671.2,0.000274105,-9.26968e-05,-0.502857,29,1.01794,10,4.66132e-08,-3.29856, , ,0.00012856,