File: Figure_codes/Fig_3-5/workspace_calculate_alpha_eff/20221101_1-115_003_TrumpetPlot_ParaChange_from10_every3_16_CV_C01_37.csv
mode,ox/red,error,control changes,counter inc.,time/s,control/V,Ewe/V,<I>/mA,cycle number,(Q-Qo)/C,I Range,P/W,log(|I|),Tafel slope mV/dec,alpha_eff,E-IR/V,
2,0,0,0,0,25241.7,2.44065e-05,-0.000344411,-0.0898536,38,0.0000000E+000,10,3.09465e-08,-4.04646, , ,-0.000304875,
2,1,0,0,0,25242.4,0.00379485,0.00347517,0.15732,38,0.000105571,10,5.46714e-07,-3.80322,0.0371922,1.58636,0.00340595,
2,1,0,1,0,25243.2,0.00779002,0.0075132,0.181536,38,0.000255609,10,1.36392e-06,-3.74104,0.0786877,0.749799,0.00743333,
2,1,0,0,0,25244,0.0117852,0.0114229,0.197539,38,0.000421751,10,2.25648e-06,-3.70435,0.10752,0.548733,0.011336,
2,1,0,1,0,25244.8,0.0157806,0.0154793,0.212616,38,0.000600513,10,3.29115e-06,-3.6724,0.142448,0.414187,0.0153858,
2,1,0,1,0,25245.6,0.0197754,0.0194606,0.227615,38,0.000790444,10,4.42951e-06,-3.6428,0.151193,0.39023,0.0193604,
2,1,0,1,0,25246.4,0.0237704,0.0234816,0.241255,38,0.000991849,10,5.66506e-06,-3.61752,0.156791,0.376297,0.0233754,
2,1,0,1,0,25247.2,0.0277659,0.0274329,0.255172,38,0.00120445,10,7.00011e-06,-3.59317,0.158315,0.372676,0.0273207,
2,1,0,0,0,25248,0.0317611,0.0314211,0.271395,38,0.00142896,10,8.52753e-06,-3.5664,0.183839,0.320933,0.0313017,
2,1,0,1,0,25248.8,0.0357567,0.03547,0.285493,38,0.00166529,10,1.01264e-05,-3.5444,0.195906,0.301165,0.0353444,
2,1,0,1,0,25249.6,0.0397516,0.039403,0.299613,38,0.00191294,10,1.18057e-05,-3.52344,0.168462,0.350227,0.0392711,
2,1,0,1,0,25250.4,0.0437465,0.0434651,0.313287,38,0.00217251,10,1.36171e-05,-3.50406,0.198864,0.296685,0.0433273,
2,1,0,1,0,25251.2,0.0477413,0.047417,0.327081,38,0.00244286,10,1.55092e-05,-3.48535,0.23918,0.246676,0.0472731,
2,1,0,0,0,25252,0.0517369,0.051378,0.340005,38,0.00272359,10,1.74688e-05,-3.46851,0.222717,0.26491,0.0512284,
2,1,0,1,0,25252.8,0.0557321,0.0554404,0.351678,38,0.00301487,10,1.94972e-05,-3.45386,0.309973,0.190339,0.0552857,
2,1,0,1,0,25253.6,0.0597277,0.0594048,0.363974,38,0.00331516,10,2.16218e-05,-3.43893,0.301995,0.195367,0.0592446,
2,1,0,1,0,25254.4,0.0637226,0.063385,0.374169,38,0.00362469,10,2.37167e-05,-3.42693,0.324326,0.181916,0.0632203,
2,1,0,1,0,25255.2,0.0677174,0.0673794,0.385915,38,0.00394352,10,2.60027e-05,-3.41351,0.441858,0.133527,0.0672096,
2,1,0,0,0,25256,0.0717128,0.0713963,0.396035,38,0.00426985,10,2.82754e-05,-3.40227,0.339349,0.173863,0.0712221,
2,1,0,1,0,25256.8,0.075708,0.0753845,0.401404,38,0.00460334,10,3.02597e-05,-3.39642,0.449114,0.13137,0.0752079,
2,1,0,0,0,25257.6,0.0797031,0.07943,0.41158,38,0.0049435,10,3.26918e-05,-3.38555,0.409097,0.14422,0.0792489,
2,1,0,1,0,25258.4,0.0836986,0.0833909,0.420658,38,0.00529045,10,3.50791e-05,-3.37607,0.384568,0.153419,0.0832059,
2,1,0,1,0,25259.2,0.0876935,0.0873564,0.43169,38,0.00564562,10,3.77109e-05,-3.36483,0.305816,0.192926,0.0871664,
2,1,0,1,0,25260,0.0916883,0.0913827,0.446088,38,0.00601043,10,4.07647e-05,-3.35058,0.2815,0.209592,0.0911864,
2,1,0,1,0,25260.8,0.0956838,0.095352,0.462091,38,0.00638848,10,4.40613e-05,-3.33527,0.208278,0.283275,0.0951487,
2,1,0,0,0,25261.6,0.099679,0.0993423,0.485412,38,0.00678232,10,4.8222e-05,-3.31389,0.231975,0.254338,0.0991287,
2,1,0,1,0,25262.4,0.103674,0.103374,0.510043,38,0.00719399,10,5.27251e-05,-3.29239,0.162317,0.363486,0.10315,
2,1,0,1,0,25263.2,0.10767,0.10732,0.530997,38,0.0076257,10,5.69865e-05,-3.27491,0.251471,0.234619,0.107086,
2,1,0,1,0,25264,0.111664,0.111367,0.551297,38,0.0080735,10,6.13964e-05,-3.25861,0.256539,0.229984,0.111125,
2,1,0,1,0,25264.8,0.115659,0.115317,0.567193,38,0.00853594,10,6.54068e-05,-3.24627,0.306832,0.192287,0.115067,
2,1,0,0,0,25265.6,0.119655,0.119307,0.582841,38,0.00901121,10,6.95368e-05,-3.23445,0.55829,0.10568,0.11905,
2,1,0,1,0,25266.4,0.12365,0.123338,0.596389,38,0.00949653,10,7.35576e-05,-3.22447,0.367461,0.160561,0.123076,
2,1,0,1,0,25267.2,0.127646,0.127301,0.607777,38,0.00999277,10,7.73708e-05,-3.21626,0.590052,0.0999912,0.127034,
2,1,0,1,0,25268,0.131641,0.131305,0.614405,38,0.0104973,10,8.06745e-05,-3.21155,-3.07345,-0.0191966,0.131035,
2,1,0,1,0,25268.8,0.135635,0.135302,0.605309,38,0.0110005,10,8.18993e-05,-3.21802,-0.348126,-0.169479,0.135035,
2,1,0,0,0,25269.6,0.139631,0.139297,0.574243,38,0.0114888,10,7.99906e-05,-3.2409,-0.12723,-0.463726,0.139045,
2,1,0,1,0,25270.4,0.143626,0.143346,0.526651,38,0.011944,10,7.54933e-05,-3.27848,-0.0833396,-0.707947,0.143114,
2,1,0,0,0,25271.2,0.147621,0.147324,0.46263,38,0.012353,10,6.81563e-05,-3.33477,-0.069771,-0.845624,0.14712,
2,1,0,1,0,25272,0.151617,0.151318,0.405914,38,0.0127136,10,6.14223e-05,-3.39157,-0.0729478,-0.808798,0.15114,
2,1,0,1,0,25272.8,0.155612,0.155318,0.362581,38,0.0130336,10,5.63153e-05,-3.4406,-0.0987758,-0.597312,0.155158,
2,1,0,1,0,25273.6,0.159606,0.159267,0.334087,38,0.0133255,10,5.32089e-05,-3.47614,-0.13028,-0.452872,0.15912,
2,1,0,1,0,25274.4,0.163602,0.163305,0.315464,38,0.0135987,10,5.15168e-05,-3.50105,-0.182476,-0.323329,0.163166,
2,1,0,0,0,25275.2,0.167597,0.167316,0.301867,38,0.013859,10,5.05073e-05,-3.52018,-0.27065,-0.217994,0.167184,
2,1,0,1,0,25276,0.171592,0.171279,0.291891,38,0.0141104,10,4.99948e-05,-3.53478,-0.263833,-0.223626,0.171151,
2,1,0,1,0,25276.8,0.175588,0.175282,0.285132,38,0.0143547,10,4.99786e-05,-3.54495,-0.557311,-0.105865,0.175157,
2,1,0,1,0,25277.6,0.179582,0.179266,0.279295,38,0.0145936,10,5.00682e-05,-3.55394,-0.52953,-0.11142,0.179143,
2,1,0,1,0,25278.4,0.183577,0.183249,0.274536,38,0.0148289,10,5.03085e-05,-3.5614,-0.481552,-0.122521,0.183128,
2,1,0,0,0,25279.2,0.187573,0.187221,0.271713,38,0.0150604,10,5.08705e-05,-3.56589,-0.836074,-0.0705679,0.187102,
2,1,0,1,0,25280,0.191568,0.191256,0.268265,38,0.0152892,10,5.13073e-05,-3.57144,-1.27303,-0.0463461,0.191138,
2,1,0,0,0,25280.8,0.195563,0.195235,0.264767,38,0.015516,10,5.16917e-05,-3.57714,-0.457175,-0.129053,0.195118,
2,1,0,1,0,25281.6,0.199559,0.199221,0.262123,38,0.0157404,10,5.22204e-05,-3.5815,-2.19305,-0.0269032,0.199106,
2,1,0,1,0,25282.4,0.203553,0.203228,0.259166,38,0.0159629,10,5.26697e-05,-3.58642,-0.989841,-0.0596055,0.203114,
2,1,0,1,0,25283.2,0.207548,0.207177,0.257483,38,0.0161836,10,5.33444e-05,-3.58925,-1.25951,-0.0468438,0.207063,
2,1,0,1,0,25284,0.211544,0.211259,0.255225,38,0.0164025,10,5.39184e-05,-3.59308,-2.11148,-0.0279425,0.211146,
2,1,0,0,0,25284.8,0.215539,0.215217,0.252837,38,0.0166198,10,5.44148e-05,-3.59716,-1.14882,-0.0513569,0.215106,
2,1,0,1,0,25285.6,0.219535,0.21924,0.253833,38,0.0168358,10,5.56503e-05,-3.59545,-1.25369,-0.047061,0.219128,
2,1,0,1,0,25286.4,0.223529,0.223255,0.251145,38,0.0170506,10,5.60694e-05,-3.60008,-1.43459,-0.0411267,0.223145,
2,1,0,1,0,25287.2,0.227524,0.227205,0.250065,38,0.0172644,10,5.6816e-05,-3.60195,-1.21768,-0.0484526,0.227095,
2,1,0,1,0,25288,0.23152,0.231192,0.249257,38,0.017477,10,5.76264e-05,-3.60335,36.1229,0.00163331,0.231082,
2,1,0,0,0,25288.8,0.235515,0.235211,0.247103,38,0.0176888,10,5.81215e-05,-3.60712,-3.35838,-0.017568,0.235102,
2,1,0,1,0,25289.6,0.23951,0.239188,0.247025,38,0.0178996,10,5.90854e-05,-3.60726,-2.20946,-0.0267034,0.239079,
2,1,0,1,0,25290.4,0.243506,0.243157,0.245152,38,0.0181095,10,5.96104e-05,-3.61057,-5.0024,-0.0117943,0.243049,
2,1,0,1,0,25291.2,0.2475,0.24718,0.244757,38,0.0183186,10,6.0499e-05,-3.61127,-1.05807,-0.0557621,0.247072,
2,1,0,1,0,25292,0.251495,0.251187,0.242937,38,0.0185267,10,6.10226e-05,-3.61451,-6.04307,-0.00976325,0.25108,
2,1,0,0,0,25292.8,0.255491,0.255157,0.241637,38,0.0187342,10,6.16554e-05,-3.61684,-1.37937,-0.0427731,0.255051,
2,1,0,1,0,25293.6,0.259486,0.259169,0.241769,38,0.0189413,10,6.26591e-05,-3.6166,-1.25148,-0.0471441,0.259062,
2,1,0,0,0,25294.4,0.263481,0.263195,0.241339,38,0.0191475,10,6.35193e-05,-3.61737,20.1634,0.00292609,0.263089,
2,1,0,1,0,25295.2,0.267477,0.267175,0.239052,38,0.0193531,10,6.38687e-05,-3.62151,-1.76055,-0.0335122,0.26707,
2,1,0,1,0,25296,0.271471,0.271126,0.240356,38,0.019558,10,6.51666e-05,-3.61915,3.44675,0.0171176,0.27102,
2,1,0,1,0,25296.8,0.275466,0.27518,0.238307,38,0.0197621,10,6.55775e-05,-3.62286,-2.78292,-0.0212008,0.275076,
2,1,0,1,0,25297.6,0.279462,0.279147,0.238136,38,0.0199656,10,6.64749e-05,-3.62318,-1.3176,-0.0447784,0.279042,
2,1,0,0,0,25298.4,0.283457,0.283184,0.237531,38,0.0201682,10,6.72648e-05,-3.62428,-2.00471,-0.0294306,0.283079,
2,1,0,1,0,25299.2,0.287452,0.287154,0.23668,38,0.0203699,10,6.79635e-05,-3.62584,-2.08916,-0.028241,0.28705,
2,1,0,1,0,25300,0.291448,0.291113,0.23524,38,0.020571,10,6.84814e-05,-3.62849,-1.36421,-0.0432484,0.291009,
2,1,0,1,0,25300.8,0.295442,0.295151,0.234319,38,0.0207712,10,6.91597e-05,-3.63019,3.23223,0.0182536,0.295048,
2,1,0,1,0,25301.6,0.299437,0.29912,0.232713,38,0.020971,10,6.9609e-05,-3.63318,-1.12617,-0.0523898,0.299018,
2,1,0,0,0,25302.4,0.303433,0.303135,0.231876,38,0.0211697,10,7.02897e-05,-3.63475,-2.17742,-0.0270963,0.303033,
2,1,0,1,0,25303.2,0.307428,0.307135,0.232694,38,0.0213677,10,7.14686e-05,-3.63321,-10.1385,-0.00581941,0.307033,
2,1,0,1,0,25304,0.311424,0.311132,0.231374,38,0.0215652,10,7.1988e-05,-3.63569,-1.93327,-0.0305183,0.311031,
2,1,0,1,0,25304.8,0.315418,0.315106,0.230252,38,0.0217619,10,7.25538e-05,-3.6378,-4.79852,-0.0122955,0.315004,
2,1,0,1,0,25305.6,0.319413,0.319136,0.229964,38,0.0219581,10,7.33896e-05,-3.63834,5.43786,0.0108499,0.319034,
2,1,0,0,0,25306.4,0.323409,0.323115,0.230131,38,0.0221541,10,7.43586e-05,-3.63803,-1.09834,-0.0537175,0.323013,
2,1,0,1,0,25307.2,0.327404,0.327088,0.228182,38,0.0223493,10,7.46354e-05,-3.64172,4.32723,0.0136346,0.326988,
2,1,0,0,0,25308,0.331399,0.331077,0.227628,38,0.022544,10,7.53625e-05,-3.64277,-6.38904,-0.00923456,0.330977,
2,1,0,1,0,25308.8,0.335395,0.335071,0.227859,38,0.0227383,10,7.63491e-05,-3.64233,-1.24626,-0.0473416,0.334971,
2,1,0,1,0,25309.6,0.339389,0.339056,0.226429,38,0.0229318,10,7.67722e-05,-3.64507,15.7389,0.00374867,0.338956,
2,1,0,1,0,25310.4,0.343384,0.343074,0.226592,38,0.0231252,10,7.7738e-05,-3.64475,-2.40134,-0.0245696,0.342975,
2,1,0,1,0,25311.2,0.34738,0.347039,0.225524,38,0.0233178,10,7.82657e-05,-3.64681,-2.14173,-0.0275479,0.34694,
2,1,0,0,0,25312,0.351375,0.351068,0.225074,38,0.0235099,10,7.90161e-05,-3.64768,-2.73866,-0.0215434,0.350969,
2,1,0,1,0,25312.8,0.35537,0.35512,0.224545,38,0.0237017,10,7.97404e-05,-3.6487,-36.5073,-0.00161611,0.355021,
2,1,0,1,0,25313.6,0.359366,0.359061,0.223975,38,0.023893,10,8.04209e-05,-3.6498,6.75473,0.00873462,0.358963,
2,1,0,1,0,25314.4,0.36336,0.363063,0.223155,38,0.0240841,10,8.10193e-05,-3.65139,-4.8918,-0.012061,0.362965,
2,1,0,1,0,25315.1,0.367355,0.367068,0.223218,38,0.0242744,10,8.19361e-05,-3.65127,-1.32631,-0.0444845,0.36697,
2,1,0,0,0,25315.9,0.371351,0.37105,0.222613,38,0.0244642,10,8.26007e-05,-3.65245,2.27761,0.0259043,0.370952,
2,1,0,1,0,25316.7,0.375346,0.375036,0.222811,38,0.0246538,10,8.35621e-05,-3.65206,-1.31489,-0.0448705,0.374938,
2,1,0,1,0,25317.5,0.379342,0.379029,0.222215,38,0.024843,10,8.42262e-05,-3.65323,-5.95948,-0.0099002,0.378931,
2,1,0,1,0,25318.3,0.383336,0.382978,0.220854,38,0.0250318,10,8.45822e-05,-3.65589,-5.6125,-0.0105122,0.382881,
2,1,0,1,0,25319.1,0.387331,0.387073,0.221531,38,0.0252205,10,8.57488e-05,-3.65456,-4.01287,-0.0147027,0.386975,
2,1,0,0,0,25319.9,0.391327,0.391023,0.220639,38,0.0254087,10,8.62749e-05,-3.65632,2.81806,0.0209364,0.390926,
2,1,0,1,0,25320.7,0.395322,0.395008,0.220456,38,0.0255968,10,8.7082e-05,-3.65668,-4.38717,-0.0134483,0.394911,
2,1,0,0,0,25321.5,0.399317,0.399025,0.221385,38,0.0257846,10,8.83383e-05,-3.65485,-3.2848,-0.0179615,0.398927,
2,1,0,1,0,25322.3,0.403313,0.403003,0.220602,38,0.0259719,10,8.89031e-05,-3.65639,364.113,0.000162038,0.402906,
2,1,0,1,0,25323.1,0.407307,0.407044,0.22054,38,0.0261593,10,8.97695e-05,-3.65651,4.91471,0.0120048,0.406947,
2,1,0,1,0,25323.9,0.411302,0.410987,0.221039,38,0.0263466,10,9.0844e-05,-3.65553,-10.0151,-0.00589112,0.410889,
2,1,0,1,0,25324.7,0.415298,0.414998,0.220321,38,0.0265338,10,9.14327e-05,-3.65694,-4.02668,-0.0146523,0.414901,
2,1,0,0,0,25325.5,0.419293,0.418971,0.220478,38,0.0267208,10,9.23741e-05,-3.65663,-3.21973,-0.0183245,0.418874,
2,1,0,1,0,25326.3,0.423288,0.42299,0.220167,38,0.0269075,10,9.31282e-05,-3.65725,1.84576,0.0319652,0.422893,
2,1,0,1,0,25327.1,0.427283,0.426984,0.218951,38,0.0270946,10,9.34885e-05,-3.65965,-36.6584,-0.00160945,0.426887,
2,1,0,1,0,25327.9,0.431278,0.430962,0.219385,38,0.0272812,10,9.45466e-05,-3.65879,107.178,0.000550486,0.430865,
2,1,0,1,0,25328.7,0.435273,0.435009,0.21965,38,0.0274677,10,9.55498e-05,-3.65827,-2.19691,-0.0268559,0.434913,
2,1,0,0,0,25329.5,0.439269,0.438967,0.220362,38,0.0276542,10,9.67317e-05,-3.65686,10.3596,0.00569518,0.43887,
2,1,0,1,0,25330.3,0.443264,0.442998,0.219301,38,0.0278405,10,9.71497e-05,-3.65896,-65.5746,-0.000899738,0.442901,
2,1,0,0,0,25331.1,0.447259,0.446977,0.219802,38,0.0280267,10,9.82465e-05,-3.65797,4.7727,0.012362,0.446881,
2,1,0,1,0,25331.9,0.451254,0.450954,0.220062,38,0.0282132,10,9.92381e-05,-3.65745,-5.17665,-0.0113973,0.450858,
2,1,0,1,0,25332.7,0.455249,0.454969,0.22066,38,0.0283996,10,0.000100393,-3.65628,4.20791,0.0140212,0.454871,
2,1,0,1,0,25333.5,0.459244,0.458949,0.220236,38,0.0285862,10,0.000101077,-3.65711,6.46214,0.00913011,0.458852,
2,1,0,1,0,25334.3,0.46324,0.462927,0.22042,38,0.0287731,10,0.000102038,-3.65675,9.26393,0.00636879,0.46283,
2,1,0,0,0,25335.1,0.467235,0.46689,0.222017,38,0.0289602,10,0.000103657,-3.65361,20.2067,0.00291982,0.466792,
2,1,0,1,0,25335.9,0.471231,0.470934,0.220755,38,0.0291474,10,0.000103961,-3.65609,2.2402,0.026337,0.470836,
2,1,0,1,0,25336.7,0.475225,0.474925,0.222426,38,0.0293349,10,0.000105635,-3.65281,24.2918,0.00242881,0.474827,
2,1,0,1,0,25337.5,0.47922,0.47891,0.222755,38,0.0295229,10,0.00010668,-3.65217,2.89137,0.0204056,0.478812,
2,1,0,1,0,25338.3,0.483216,0.482915,0.22275,38,0.0297115,10,0.000107569,-3.65218,3.62419,0.0162795,0.482817,
2,1,0,0,0,25339.1,0.487211,0.486895,0.223782,38,0.0299004,10,0.000108959,-3.65017,1.81438,0.0325179,0.486797,
2,1,0,1,0,25339.9,0.491206,0.490911,0.223963,38,0.0300899,10,0.000109946,-3.64982,2.07042,0.0284966,0.490813,
2,1,0,1,0,25340.7,0.495201,0.494905,0.226547,38,0.0302801,10,0.000112119,-3.64484,-5.85222,-0.0100816,0.494805,
2,1,0,1,0,25341.5,0.499196,0.498921,0.226508,38,0.0304707,10,0.000113009,-3.64492,0.814101,0.0724726,0.498821,
2,1,0,1,0,25342.3,0.503191,0.50289,0.227407,38,0.0306624,10,0.000114361,-3.6432,6.49805,0.00907965,0.50279,
2,1,0,0,0,25343.1,0.507187,0.506893,0.22804,38,0.0308545,10,0.000115592,-3.64199,1.678,0.035161,0.506792,
2,1,0,1,0,25343.9,0.511182,0.510889,0.228997,38,0.0310474,10,0.000116992,-3.64017,2.88026,0.0204843,0.510788,
2,1,0,0,0,25344.7,0.515177,0.514869,0.230283,38,0.031241,10,0.000118566,-3.63774,2.97126,0.0198569,0.514768,
2,1,0,1,0,25345.5,0.519173,0.518889,0.231661,38,0.0314354,10,0.000120207,-3.63515,0.804523,0.0733354,0.518787,
2,1,0,1,0,25346.3,0.523167,0.522837,0.232118,38,0.031631,10,0.00012136,-3.63429,3.23186,0.0182557,0.522735,
2,1,0,1,0,25347.1,0.527162,0.526881,0.234934,38,0.0318276,10,0.000123782,-3.62905,1.6828,0.0350606,0.526777,
2,1,0,1,0,25347.9,0.531158,0.530816,0.235723,38,0.0320251,10,0.000125125,-3.6276,2.10707,0.028001,0.530713,
2,1,0,0,0,25348.7,0.535153,0.534897,0.237302,38,0.0322242,10,0.000126932,-3.6247,0.888261,0.0664219,0.534792,
2,1,0,1,0,25349.5,0.539148,0.538837,0.238892,38,0.0324244,10,0.000128724,-3.6218,1.54624,0.038157,0.538732,
2,1,0,1,0,25350.3,0.543143,0.542838,0.240325,38,0.032626,10,0.000130458,-3.6192,1.12973,0.0522247,0.542733,
2,1,0,1,0,25351.1,0.547138,0.546823,0.242757,38,0.0328292,10,0.000132745,-3.61483,1.67886,0.0351428,0.546716,
2,1,0,1,0,25351.9,0.551133,0.550809,0.245921,38,0.0330341,10,0.000135456,-3.6092,0.641705,0.0919425,0.550701,
2,1,0,0,0,25352.7,0.555129,0.554851,0.247798,38,0.0332413,10,0.000137491,-3.6059,0.783165,0.0753354,0.554741,
2,1,0,1,0,25353.5,0.559124,0.558818,0.251799,38,0.0334508,10,0.000140709,-3.59895,0.683828,0.086279,0.558707,
2,1,0,1,0,25354.3,0.56312,0.562827,0.25469,38,0.0336625,10,0.000143346,-3.59399,0.66104,0.0892533,0.562715,
2,1,0,1,0,25355.1,0.567114,0.566832,0.258157,38,0.0338772,10,0.000146332,-3.58812,0.666967,0.0884601,0.566719,
2,1,0,1,0,25355.9,0.571109,0.57082,0.262175,38,0.0340946,10,0.000149655,-3.58141,0.491707,0.11999,0.570705,
2,1,0,0,0,25356.7,0.575105,0.574831,0.266507,38,0.0343152,10,0.000153196,-3.57429,0.680203,0.0867388,0.574714,
2,1,0,1,0,25357.5,0.5791,0.578812,0.271211,38,0.0345395,10,0.00015698,-3.56669,0.670956,0.0879343,0.578693,
2,1,0,0,0,25358.3,0.583095,0.582807,0.277548,38,0.0347675,10,0.000161757,-3.55666,0.38271,0.154164,0.582685,
2,1,0,1,0,25359.1,0.58709,0.586821,0.281265,38,0.0350001,10,0.000165052,-3.55088,0.426865,0.138217,0.586697,
2,1,0,1,0,25359.9,0.591085,0.590794,0.288399,38,0.0352376,10,0.000170384,-3.54001,0.351491,0.167856,0.590667,
2,1,0,1,0,25360.7,0.59508,0.594772,0.295954,38,0.0354806,10,0.000176025,-3.52878,0.350068,0.168539,0.594642,
2,1,0,1,0,25361.5,0.599076,0.598729,0.303085,38,0.0357301,10,0.000181466,-3.51844,0.343792,0.171615,0.598596,
2,1,0,0,0,25362.3,0.603071,0.602768,0.314343,38,0.0359864,10,0.000189476,-3.5026,0.276864,0.213101,0.60263,
2,1,0,1,0,25363.1,0.607066,0.606752,0.324174,38,0.0362508,10,0.000196693,-3.48922,0.258,0.228682,0.60661,
2,1,0,1,0,25363.9,0.611061,0.61075,0.336596,38,0.0365243,10,0.000205576,-3.47289,0.249619,0.23636,0.610602,
2,1,0,1,0,25364.7,0.615056,0.614768,0.351718,38,0.0368084,10,0.000216225,-3.45381,0.192891,0.305873,0.614613,
2,1,0,1,0,25365.5,0.619051,0.618766,0.367893,38,0.0371056,10,0.00022764,-3.43428,0.18653,0.316304,0.618604,
2,1,0,0,0,25366.3,0.623047,0.622756,0.388597,38,0.0374174,10,0.000242001,-3.4105,0.16829,0.350586,0.622585,
2,1,0,1,0,25367.1,0.627042,0.62674,0.410848,38,0.0377459,10,0.000257495,-3.38632,0.150339,0.392446,0.626559,
2,1,0,1,0,25367.9,0.631037,0.630734,0.438295,38,0.0380943,10,0.000276448,-3.35823,0.140754,0.41917,0.630541,
2,1,0,1,0,25368.7,0.635032,0.634757,0.468583,38,0.0384654,10,0.000297436,-3.32921,0.131811,0.44761,0.63455,
2,1,0,1,0,25369.5,0.639027,0.63873,0.504845,38,0.0388633,10,0.00032246,-3.29684,0.112471,0.524579,0.638508,
2,1,0,1,0,25370.3,0.643022,0.642722,0.546494,38,0.0392928,10,0.000351243,-3.26241,0.113348,0.520521,0.642481,
2,1,0,1,0,25371.1,0.647018,0.646691,0.595565,38,0.0397585,10,0.000385147,-3.22507,0.101046,0.58389,0.646429,
2,1,0,0,0,25371.9,0.651013,0.650759,0.655574,38,0.0402682,10,0.000426621,-3.18338,0.091708,0.643347,0.650471,
2,1,0,1,0,25372.7,0.655008,0.654735,0.725576,38,0.0408291,10,0.00047506,-3.13932,0.0895424,0.658905,0.654416,
2,1,0,1,0,25373.5,0.659003,0.658716,0.806621,38,0.0414497,10,0.000531334,-3.09333,0.0841746,0.700924,0.658361,
2,1,0,1,0,25374.3,0.662998,0.662725,0.900632,38,0.0421401,10,0.000596872,-3.04545,0.0802194,0.735483,0.662329,
2,1,0,1,0,25375.1,0.666994,0.666722,1.00972,38,0.0429117,10,0.000673201,-2.9958,0.0781222,0.755227,0.666278,
2,1,0,0,0,25375.9,0.670989,0.670698,1.13472,38,0.0437769,10,0.000761057,-2.94511,0.0765372,0.770867,0.670199,
2,1,0,1,0,25376.7,0.674984,0.674715,1.28016,38,0.0447502,10,0.000863742,-2.89274,0.0751312,0.785293,0.674151,
2,1,0,1,0,25377.5,0.67898,0.678684,1.4461,38,0.0458477,10,0.000981445,-2.8398,0.0743928,0.793088,0.678048,
2,1,0,1,0,25378.3,0.682974,0.682721,1.63288,38,0.0470861,10,0.0011148,-2.78705,0.0725892,0.812793,0.682002,
2,1,0,1,0,25379.1,0.686969,0.686662,1.84576,38,0.048484,10,0.00126741,-2.73383,0.0740874,0.796356,0.68585,
2,1,0,0,0,25379.9,0.690965,0.690687,2.08112,38,0.0500617,10,0.0014374,-2.6817,0.0739615,0.797712,0.689771,
2,1,0,1,0,25380.7,0.69496,0.694702,2.3463,38,0.0518391,10,0.00162998,-2.62962,0.0761253,0.775038,0.69367,
2,1,0,0,0,25381.5,0.698955,0.698664,2.6352,38,0.0538372,10,0.00184112,-2.57919,0.077827,0.758092,0.697504,
2,1,0,1,0,25382.3,0.70295,0.702661,2.95186,38,0.056078,10,0.00207416,-2.5299,0.0788006,0.748725,0.701362,
2,1,0,1,0,25383.1,0.706945,0.706666,3.29769,38,0.0585829,10,0.00233036,-2.48179,0.0811197,0.72732,0.705215,
2,1,0,1,0,25383.9,0.71094,0.710679,3.67096,38,0.0613752,10,0.00260887,-2.43522,0.0835062,0.706535,0.709064,
2,1,0,1,0,25384.7,0.714936,0.714672,4.07218,38,0.0644774,10,0.00291027,-2.39017,0.086426,0.682665,0.71288,
2,1,0,0,0,25385.5,0.718931,0.718665,4.50145,38,0.0679107,10,0.00323504,-2.34665,0.0884181,0.667284,0.716685,
2,1,0,1,0,25386.3,0.722927,0.722616,4.95903,38,0.0716989,10,0.00358347,-2.3046,0.0915323,0.644581,0.720434,
2,1,0,1,0,25387.1,0.726921,0.726654,5.44569,38,0.075864,10,0.00395713,-2.26395,0.0952789,0.619234,0.724258,
2,1,0,1,0,25387.9,0.730916,0.730609,5.95772,38,0.0804276,10,0.00435276,-2.22492,0.0974927,0.605174,0.727987,
2,1,0,1,0,25388.7,0.734911,0.734636,6.49814,38,0.0854132,10,0.00477377,-2.18721,0.100935,0.584537,0.731777,
2,1,0,0,0,25389.5,0.738907,0.738682,7.06882,38,0.0908428,10,0.00522161,-2.15065,0.105579,0.558822,0.735571,
2,1,0,1,0,25390.3,0.742902,0.742607,7.66626,38,0.0967386,10,0.00569302,-2.11542,0.10703,0.551249,0.739234,
2,1,0,1,0,25391.1,0.746897,0.746574,8.29394,38,0.103124,10,0.00619205,-2.08124,0.110542,0.533735,0.742925,
2,1,0,1,0,25391.9,0.750892,0.75059,8.95213,38,0.110023,10,0.00671938,-2.04807,0.112141,0.526124,0.746651,
2,1,0,1,0,25392.7,0.754887,0.754587,9.64136,38,0.11746,10,0.00727525,-2.01586,0.115556,0.510576,0.750345,
2,1,0,0,0,25393.5,0.758883,0.758611,10.3675,38,0.125464,10,0.00786489,-1.98433,0.1178,0.50085,0.754049,
2,1,0,1,0,25394.3,0.762878,0.762614,11.1332,38,0.134061,10,0.00849032,-1.95338,0.119401,0.494132,0.757715,
2,1,0,0,0,25395.1,0.766873,0.766612,11.9465,38,0.143289,10,0.00915833,-1.92276,0.11742,0.50247,0.761355,
2,1,0,1,0,25395.9,0.770868,0.770663,12.8118,38,0.15319,10,0.00987354,-1.89239,0.119841,0.492321,0.765025,
2,1,0,1,0,25396.7,0.774863,0.774519,13.7318,38,0.163802,10,0.0106355,-1.86227,0.118032,0.499866,0.768477,
2,1,0,1,0,25397.5,0.778858,0.778585,14.7159,38,0.175175,10,0.0114576,-1.83221,0.11796,0.500167,0.77211,
2,1,0,1,0,25398.2,0.782854,0.782557,15.7716,38,0.187364,10,0.0123422,-1.80212,0.11739,0.502597,0.775617,
2,1,0,0,0,25399,0.786849,0.786608,16.8951,38,0.200424,10,0.0132898,-1.77224,0.116484,0.506509,0.779174,
2,1,0,1,0,25399.8,0.790844,0.79057,18.0921,38,0.214407,10,0.0143031,-1.74251,0.117471,0.50225,0.78261,
2,1,0,1,0,25400.6,0.794839,0.794552,19.3662,38,0.229385,10,0.0153875,-1.71296,0.11524,0.511976,0.786031,
2,1,0,1,0,25401.4,0.798834,0.798566,20.7089,38,0.245405,10,0.0165374,-1.68384,0.11677,0.505266,0.789454,
2,1,0,1,0,25402.2,0.802829,0.802558,22.1443,38,0.26254,10,0.0177721,-1.65474,0.117633,0.501558,0.792814,
2,1,0,0,0,25403,0.806825,0.806532,23.5886,38,0.280827,10,0.0190249,-1.6273,0.125467,0.470243,0.796153,
2,1,0,1,0,25403.8,0.81082,0.810577,25.084,38,0.300285,10,0.0203325,-1.6006,0.126947,0.46476,0.79954,
2,1,0,1,0,25404.6,0.814815,0.814517,26.6062,38,0.320956,10,0.0216712,-1.57502,0.133338,0.442484,0.80281,
2,1,0,1,0,25405.4,0.81881,0.818477,28.1654,38,0.342848,10,0.0230528,-1.55028,0.130588,0.451803,0.806084,
2,1,0,1,0,25406.2,0.822805,0.822528,29.8365,38,0.36603,10,0.0245413,-1.52525,0.133863,0.440748,0.8094,
2,1,0,0,0,25407,0.826801,0.826574,31.5206,38,0.390557,10,0.0260541,-1.50141,0.139078,0.424223,0.812705,
2,1,0,1,0,25407.8,0.830796,0.830552,33.2014,38,0.416435,10,0.0275755,-1.47884,0.155641,0.379078,0.815943,
2,1,0,0,0,25408.6,0.834791,0.834555,34.8084,38,0.443616,10,0.0290495,-1.45832,0.156156,0.377826,0.819239,
2,1,0,1,0,25409.4,0.838786,0.83857,36.4709,38,0.472112,10,0.0305834,-1.43805,0.173041,0.34096,0.822523,
2,1,0,1,0,25410.2,0.842781,0.842533,38.1552,38,0.501925,10,0.032147,-1.41845,0.163551,0.360744,0.825745,
2,1,0,1,0,25411,0.846776,0.84653,39.8248,38,0.53309,10,0.0337129,-1.39985,0.190331,0.309986,0.829007,
2,1,0,0,0,25411.7,0.849723,0.849465,40.7587,38,0.561408,10,0.0346231,-1.38978,0.0305187,1.93324,0.831532,
2,1,0,1,0,25412.5,0.845728,0.845481,38.5154,38,0.592885,10,0.0325641,-1.41437,0.163087,0.361771,0.828535,
2,1,0,0,0,25413.3,0.841732,0.841479,36.3874,38,0.622796,10,0.0306192,-1.43905,0.119741,0.492732,0.825469,
2,1,0,1,0,25414.1,0.837737,0.837466,34.3429,38,0.651025,10,0.028761,-1.46416,0.127774,0.461754,0.822356,
2,1,0,1,0,25414.9,0.833742,0.833506,32.4399,38,0.677684,10,0.0270388,-1.48892,0.126939,0.464791,0.819233,
2,1,0,1,0,25415.7,0.829747,0.82948,30.6135,38,0.70285,10,0.0253933,-1.51409,0.132699,0.444615,0.81601,
2,1,0,1,0,25416.5,0.825752,0.825514,28.9109,38,0.726628,10,0.0238664,-1.53894,0.122257,0.482592,0.812793,
2,1,0,0,0,25417.3,0.821757,0.821478,27.1893,38,0.749025,10,0.0223354,-1.5656,0.125591,0.469778,0.809515,
2,1,0,1,0,25418.1,0.817761,0.817454,25.5573,38,0.770093,10,0.0208919,-1.59248,0.117831,0.500717,0.806209,
2,1,0,1,0,25418.9,0.813766,0.813495,23.9755,38,0.789872,10,0.019504,-1.62023,0.120502,0.489618,0.802946,
2,1,0,1,0,25419.7,0.809771,0.809491,22.337,38,0.808407,10,0.0180816,-1.65098,0.102562,0.57526,0.799663,
2,1,0,1,0,25420.5,0.805776,0.805541,20.9279,38,0.825663,10,0.0168583,-1.67927,0.124278,0.474743,0.796332,
2,1,0,0,0,25421.3,0.801781,0.801484,19.5929,38,0.84184,10,0.0157034,-1.7079,0.116149,0.507968,0.792863,
2,1,0,1,0,25422.1,0.797786,0.79752,18.2877,38,0.856957,10,0.0145848,-1.73784,0.111036,0.53136,0.789474,
2,1,0,1,0,25422.9,0.79379,0.793469,16.1552,38,0.870894,10,0.0128186,-1.79169,0.0594173,0.992976,0.786361,
2,1,0,1,0,25423.7,0.789795,0.789519,15.0949,38,0.88336,10,0.0119177,-1.82117,0.120795,0.488429,0.782878,
2,1,0,1,0,25424.5,0.7858,0.785508,14.1015,38,0.895013,10,0.0110768,-1.85073,0.115768,0.509638,0.779304,
2,1,0,0,0,25425.3,0.781805,0.781566,13.1274,38,0.905882,10,0.0102599,-1.88182,0.110024,0.536246,0.77579,
2,1,0,1,0,25426.1,0.77781,0.777555,12.1587,38,0.915962,10,0.00945404,-1.91511,0.111572,0.528806,0.772205,
2,1,0,0,0,25426.9,0.773815,0.773538,11.2786,38,0.925313,10,0.0087244,-1.94775,0.107976,0.546416,0.768576,
2,1,0,1,0,25427.7,0.769819,0.76956,10.4543,38,0.933981,10,0.00804523,-1.9807,0.110295,0.53493,0.76496,
2,1,0,1,0,25428.5,0.765824,0.765531,9.67084,38,0.942009,10,0.00740333,-2.01454,0.106811,0.552377,0.761276,
2,1,0,1,0,25429.3,0.761829,0.761529,8.92692,38,0.949427,10,0.00679811,-2.0493,0.105008,0.56186,0.757601,
2,1,0,1,0,25430.1,0.757834,0.75754,8.22255,38,0.956267,10,0.00622891,-2.08499,0.103657,0.569182,0.753922,
2,1,0,0,0,25430.9,0.753839,0.753569,7.59898,38,0.962573,10,0.00572635,-2.11924,0.106341,0.554818,0.750225,
2,1,0,1,0,25431.7,0.749844,0.749591,6.97532,38,0.968385,10,0.00522864,-2.15644,0.0982827,0.600309,0.746522,
2,1,0,1,0,25432.5,0.745848,0.74557,6.38476,38,0.973711,10,0.00476029,-2.19486,0.0951452,0.620105,0.74276,
2,1,0,1,0,25433.3,0.741853,0.741555,5.82891,38,0.978579,10,0.00432246,-2.23441,0.0942956,0.625692,0.738991,
2,1,0,1,0,25434.1,0.737858,0.737604,5.30736,38,0.983016,10,0.00391473,-2.27512,0.0913936,0.64556,0.735269,
2,1,0,0,0,25434.9,0.733863,0.73359,4.81592,38,0.987048,10,0.00353291,-2.31732,0.0876787,0.672912,0.731471,
2,1,0,1,0,25435.7,0.729868,0.72962,4.35672,38,0.9907,10,0.00317875,-2.36084,0.0861147,0.685133,0.727703,
2,1,0,1,0,25436.5,0.725872,0.725617,3.92934,38,0.994,10,0.00285119,-2.40568,0.0842998,0.699883,0.723888,
2,1,0,1,0,25437.3,0.721877,0.721583,3.52956,38,0.996969,10,0.00254688,-2.45228,0.0804861,0.733046,0.72003,
2,1,0,1,0,25438.1,0.717882,0.717589,3.1586,38,0.99963,10,0.00226658,-2.5005,0.0784941,0.751649,0.716199,
2,1,0,0,0,25438.9,0.713887,0.713607,2.81651,38,1.00201,10,0.00200988,-2.55029,0.0746564,0.790287,0.712368,
2,1,0,1,0,25439.7,0.709892,0.709618,2.4993,38,1.00412,10,0.00177355,-2.60218,0.0729954,0.80827,0.708518,
2,1,0,0,0,25440.5,0.705897,0.705622,2.2061,38,1.00599,10,0.00155667,-2.65637,0.0708755,0.832446,0.704652,
2,1,0,1,0,25441.3,0.701901,0.701629,1.93839,38,1.00763,10,0.00136003,-2.71256,0.0666438,0.885304,0.700776,
2,1,0,1,0,25442.1,0.697906,0.697673,1.6926,38,1.00907,10,0.00118088,-2.77145,0.0659195,0.895031,0.696929,
2,1,0,1,0,25442.9,0.693911,0.693677,1.47161,38,1.01033,10,0.00102082,-2.83221,0.06129,0.962636,0.69303,
2,1,0,1,0,25443.7,0.689916,0.689615,1.27143,38,1.01141,10,0.000876796,-2.89571,0.0611922,0.964176,0.689056,
2,1,0,0,0,25444.5,0.685921,0.685609,1.08906,38,1.01234,10,0.000746668,-2.96295,0.0580529,1.01632,0.68513,
2,1,0,1,0,25445.3,0.681926,0.681641,0.929112,38,1.01314,10,0.000633321,-3.03193,0.053891,1.0948,0.681232,
2,1,0,1,0,25446.1,0.67793,0.677642,0.7848,38,1.01381,10,0.000531813,-3.10524,0.052821,1.11698,0.677297,
2,1,0,1,0,25446.9,0.673935,0.673679,0.657254,38,1.01438,10,0.000442778,-3.18227,0.0495398,1.19096,0.67339,
2,1,0,1,0,25447.7,0.66994,0.669639,0.545708,38,1.01485,10,0.000365427,-3.26304,0.047371,1.24549,0.669399,
2,1,0,0,0,25448.5,0.665945,0.665676,0.447527,38,1.01524,10,0.000297908,-3.34918,0.0455747,1.29458,0.665479,
2,1,0,1,0,25449.3,0.66195,0.661683,0.361703,38,1.01555,10,0.000239333,-3.44165,0.0415204,1.42099,0.661524,
2,1,0,0,0,25450.1,0.657955,0.657691,0.28983,38,1.0158,10,0.000190619,-3.53786,0.042102,1.40136,0.657563,
2,1,0,1,0,25450.9,0.653959,0.653655,0.228954,38,1.016,10,0.000149657,-3.64025,0.0351456,1.67873,0.653554,
2,1,0,1,0,25451.7,0.649964,0.649646,0.176322,38,1.01615,10,0.000114547,-3.75369,0.0323094,1.82609,0.649568,
2,1,0,1,0,25452.5,0.64597,0.645647,0.130405,38,1.01627,10,8.41954e-05,-3.88471,0.0286259,2.06107,0.64559,
2,1,0,1,0,25453.3,0.641974,0.641718,0.0910327,38,1.01635,10,5.84173e-05,-4.0408,0.0232792,2.53445,0.641678,
2,1,0,0,0,25454.1,0.637979,0.637708,0.0597994,38,1.0164,10,3.81346e-05,-4.2233,0.0180137,3.27528,0.637681,
2,1,0,1,0,25454.9,0.633983,0.633683,0.0308459,38,1.01642,10,1.95465e-05,-4.5108,0.0116765,5.0529,0.633669,
2,1,0,1,0,25455.7,0.629988,0.629676,0.00768503,38,1.01643,10,4.83908e-06,-5.11435,0.00420397,14.0344,0.629672,
2,0,0,1,0,25456.5,0.625993,0.625753,-0.0109023,38,1.01642,10,-6.82212e-06,-4.96248,-0.00431733,-13.6659,0.625757,
2,0,0,1,0,25457.3,0.621998,0.621707,-0.0266111,38,1.0164,10,-1.65443e-05,-4.57494,-0.0168183,-3.50808,0.621719,
2,0,0,0,0,25458.1,0.618003,0.617703,-0.0397219,38,1.01636,10,-2.45363e-05,-4.40097,-0.0275363,-2.14263,0.61772,
2,0,0,1,0,25458.9,0.614008,0.613721,-0.0502915,38,1.01632,10,-3.0865e-05,-4.29851,-0.0537813,-1.09704,0.613743,
2,0,0,1,0,25459.7,0.610012,0.609691,-0.0598861,38,1.01626,10,-3.65121e-05,-4.22267,-0.0645476,-0.914055,0.609717,
2,0,0,1,0,25460.5,0.606017,0.605709,-0.0672839,38,1.0162,10,-4.07544e-05,-4.17209,-0.0841927,-0.700774,0.605738,
2,0,0,1,0,25461.3,0.602022,0.601671,-0.0744839,38,1.01614,10,-4.48148e-05,-4.12794,-0.131,-0.45038,0.601704,
2,0,0,0,0,25462.1,0.598027,0.597694,-0.0796358,38,1.01607,10,-4.75979e-05,-4.09889,-0.128299,-0.459862,0.597729,
2,0,0,1,0,25462.9,0.594032,0.593699,-0.0845165,38,1.01599,10,-5.01773e-05,-4.07306,-0.133557,-0.441758,0.593736,
2,0,0,0,0,25463.7,0.590037,0.589737,-0.0885123,38,1.01591,10,-5.2199e-05,-4.053,-0.299607,-0.196924,0.589776,
2,0,0,1,0,25464.5,0.586041,0.585718,-0.0920026,38,1.01583,10,-5.38876e-05,-4.0362,-0.217958,-0.270695,0.585758,
2,0,0,1,0,25465.3,0.582046,0.581759,-0.095467,38,1.01575,10,-5.55388e-05,-4.02015,-0.391795,-0.150589,0.581801,
2,0,0,1,0,25466.1,0.578052,0.577744,-0.0979923,38,1.01566,10,-5.66145e-05,-4.00881,-0.281151,-0.209851,0.577787,
2,0,0,1,0,25466.9,0.574056,0.57376,-0.100191,38,1.01557,10,-5.74853e-05,-3.99917,-0.353987,-0.166673,0.573804,
2,0,0,0,0,25467.7,0.570061,0.569725,-0.103474,38,1.01548,10,-5.89516e-05,-3.98517,-1.36649,-0.0431764,0.56977,
2,0,0,1,0,25468.5,0.566065,0.565773,-0.105028,38,1.01539,10,-5.9422e-05,-3.97869,-0.377079,-0.156466,0.56582,
2,0,0,1,0,25469.3,0.56207,0.561748,-0.106786,38,1.0153,10,-5.99867e-05,-3.97149,-0.541884,-0.108879,0.561795,
2,0,0,1,0,25470.1,0.558075,0.557748,-0.107703,38,1.0152,10,-6.00709e-05,-3.96777,-0.92998,-0.0634422,0.557795,
2,0,0,1,0,25470.9,0.55408,0.553792,-0.107924,38,1.01511,10,-5.97677e-05,-3.96688,-0.959938,-0.0614623,0.55384,
2,0,0,0,0,25471.7,0.550085,0.549789,-0.109721,38,1.01501,10,-6.03233e-05,-3.95971,-1.4969,-0.0394147,0.549837,
2,0,0,1,0,25472.5,0.54609,0.545783,-0.111265,38,1.01491,10,-6.07266e-05,-3.95364,-0.788122,-0.0748615,0.545832,
2,0,0,1,0,25473.3,0.542094,0.541819,-0.111744,38,1.01481,10,-6.05451e-05,-3.95177,-0.46318,-0.12738,0.541868,
2,0,0,1,0,25474.1,0.538099,0.537806,-0.113366,38,1.01471,10,-6.09689e-05,-3.94552,2.69143,0.0219214,0.537856,
2,0,0,1,0,25474.9,0.534104,0.533826,-0.114483,38,1.01461,10,-6.11139e-05,-3.94126,-0.433601,-0.13607,0.533876,
2,0,0,0,0,25475.7,0.530109,0.529802,-0.115837,38,1.01451,10,-6.13704e-05,-3.93615,-1.50583,-0.0391811,0.529853,
2,0,0,1,0,25476.5,0.526114,0.525804,-0.117567,38,1.01441,10,-6.1817e-05,-3.92972,-1.35288,-0.0436105,0.525856,
2,0,0,0,0,25477.3,0.522119,0.521869,-0.117865,38,1.01431,10,-6.15103e-05,-3.92861,-1.61755,-0.036475,0.521921,
2,0,0,1,0,25478.1,0.518123,0.517797,-0.118601,38,1.0142,10,-6.14113e-05,-3.92591,-1.06381,-0.0554608,0.517849,
2,0,0,1,0,25478.9,0.514128,0.513822,-0.120078,38,1.0141,10,-6.16987e-05,-3.92054,-1.2419,-0.0475078,0.513875,
2,0,0,1,0,25479.7,0.510133,0.509823,-0.120125,38,1.01399,10,-6.12423e-05,-3.92037,-0.673283,-0.0876303,0.509876,
2,0,0,1,0,25480.5,0.506138,0.50581,-0.121125,38,1.01389,10,-6.12663e-05,-3.91677,-2.84454,-0.0207415,0.505863,
2,0,0,0,0,25481.2,0.502143,0.501858,-0.122656,38,1.01378,10,-6.1556e-05,-3.91131,-0.80721,-0.0730912,0.501912,
2,0,0,1,0,25482,0.498148,0.497832,-0.1235,38,1.01367,10,-6.14821e-05,-3.90833,-2.27384,-0.0259473,0.497887,
2,0,0,1,0,25482.8,0.494152,0.493864,-0.12475,38,1.01356,10,-6.16097e-05,-3.90396,-2.10576,-0.0280183,0.493919,
2,0,0,1,0,25483.6,0.490157,0.489853,-0.126733,38,1.01345,10,-6.20806e-05,-3.89711,-0.364508,-0.161862,0.489909,
2,0,0,1,0,25484.4,0.486162,0.485864,-0.126958,38,1.01334,10,-6.16843e-05,-3.89634,2.80109,0.0210632,0.48592,
2,0,0,0,0,25485.2,0.482167,0.481857,-0.127968,38,1.01323,10,-6.16625e-05,-3.8929,-0.842905,-0.0699961,0.481914,
2,0,0,1,0,25486,0.478172,0.477827,-0.128373,38,1.01312,10,-6.13402e-05,-3.89153,-1.13034,-0.0521969,0.477883,
2,0,0,0,0,25486.8,0.474177,0.473831,-0.13048,38,1.01301,10,-6.18256e-05,-3.88446,-2.61152,-0.0225922,0.473889,
2,0,0,1,0,25487.6,0.470181,0.4699,-0.131035,38,1.01289,10,-6.15731e-05,-3.88261,-0.508314,-0.11607,0.469958,
2,0,0,1,0,25488.4,0.466186,0.465864,-0.133306,38,1.01278,10,-6.21027e-05,-3.87515,-0.922346,-0.0639674,0.465923,
2,0,0,1,0,25489.2,0.462191,0.46191,-0.134294,38,1.01266,10,-6.20315e-05,-3.87194,-1.03222,-0.0571584,0.461969,
2,0,0,1,0,25490,0.458196,0.457911,-0.136755,38,1.01254,10,-6.26217e-05,-3.86406,-0.674465,-0.0874767,0.457971,
2,0,0,0,0,25490.8,0.454201,0.453905,-0.137678,38,1.01242,10,-6.24928e-05,-3.86113,-0.844346,-0.0698765,0.453966,
2,0,0,1,0,25491.6,0.450205,0.449917,-0.138972,38,1.0123,10,-6.2526e-05,-3.85707,-0.80313,-0.0734626,0.449979,
2,0,0,1,0,25492.4,0.44621,0.445924,-0.13988,38,1.01218,10,-6.23761e-05,-3.85424,-1.41724,-0.0416303,0.445986,
2,0,0,1,0,25493.2,0.442215,0.441876,-0.141932,38,1.01206,10,-6.27165e-05,-3.84792,-0.901263,-0.0654637,0.441938,
2,0,0,1,0,25494,0.43822,0.437915,-0.143607,38,1.01194,10,-6.28877e-05,-3.84282,-0.576247,-0.102387,0.437978,
2,0,0,0,0,25494.8,0.434225,0.433946,-0.145269,38,1.01181,10,-6.30391e-05,-3.83783,-0.791782,-0.0745155,0.43401,
2,0,0,1,0,25495.6,0.43023,0.429953,-0.14672,38,1.01168,10,-6.30825e-05,-3.83351,-0.816039,-0.0723004,0.430017,
2,0,0,1,0,25496.4,0.426234,0.42594,-0.148318,38,1.01156,10,-6.31747e-05,-3.82881,-0.480109,-0.122889,0.426005,
2,0,0,1,0,25497.2,0.422239,0.421936,-0.151165,38,1.01143,10,-6.37818e-05,-3.82055,-1.55218,-0.038011,0.422003,
2,0,0,1,0,25498,0.418244,0.417955,-0.153049,38,1.01129,10,-6.39674e-05,-3.81517,-0.49572,-0.119019,0.418023,
2,0,0,0,0,25498.8,0.414249,0.413966,-0.153554,38,1.01116,10,-6.35661e-05,-3.81374,-0.769047,-0.0767183,0.414034,
2,0,0,1,0,25499.6,0.410254,0.40993,-0.156906,38,1.01103,10,-6.43206e-05,-3.80436,-9.15957,-0.00644135,0.409999,
2,0,0,0,0,25500.4,0.406259,0.405916,-0.158642,38,1.01089,10,-6.43954e-05,-3.79958,-0.604443,-0.0976105,0.405986,
2,0,0,1,0,25501.2,0.402263,0.401926,-0.16024,38,1.01075,10,-6.44045e-05,-3.79523,-0.546301,-0.107999,0.401996,
2,0,0,1,0,25502,0.398268,0.397941,-0.162595,38,1.01061,10,-6.47032e-05,-3.78889,-0.643575,-0.0916754,0.398013,
2,0,0,1,0,25502.8,0.394274,0.393986,-0.164171,38,1.01047,10,-6.46809e-05,-3.7847,-0.938036,-0.0628974,0.394058,
2,0,0,1,0,25503.6,0.390278,0.389992,-0.165861,38,1.01033,10,-6.46845e-05,-3.78026,-0.987999,-0.0597166,0.390065,
2,0,0,0,0,25504.4,0.386283,0.385956,-0.168423,38,1.01019,10,-6.50038e-05,-3.7736,-0.726475,-0.081214,0.38603,
2,0,0,1,0,25505.2,0.382287,0.382007,-0.17026,38,1.01004,10,-6.50406e-05,-3.76889,-1.02727,-0.057434,0.382082,
2,0,0,1,0,25506,0.378292,0.377994,-0.171694,38,1.00989,10,-6.48991e-05,-3.76525,-0.580703,-0.101601,0.378069,
2,0,0,1,0,25506.8,0.374297,0.374,-0.173846,38,1.00974,10,-6.50186e-05,-3.75983,-0.714309,-0.0825973,0.374077,
2,0,0,1,0,25507.6,0.370303,0.369987,-0.176092,38,1.00959,10,-6.51518e-05,-3.75426,-0.769714,-0.0766519,0.370065,
2,0,0,0,0,25508.4,0.366307,0.365987,-0.179253,38,1.00944,10,-6.56042e-05,-3.74653,-0.668167,-0.0883013,0.366066,
2,0,0,1,0,25509.2,0.362312,0.362008,-0.180351,38,1.00929,10,-6.52886e-05,-3.74388,-1.0714,-0.0550684,0.362088,
2,0,0,1,0,25510,0.358316,0.358021,-0.183319,38,1.00913,10,-6.56321e-05,-3.73679,-0.732651,-0.0805295,0.358101,
2,0,0,1,0,25510.8,0.354321,0.354026,-0.185396,38,1.00897,10,-6.56351e-05,-3.7319,-0.980211,-0.0601911,0.354108,
2,0,0,1,0,25511.6,0.350327,0.349997,-0.187191,38,1.00881,10,-6.55163e-05,-3.72772,-0.674774,-0.0874367,0.35008,
2,0,0,0,0,25512.4,0.346331,0.345972,-0.189927,38,1.00865,10,-6.57094e-05,-3.72141,-1.04936,-0.0562248,0.346055,
2,0,0,1,0,25513.2,0.342336,0.34198,-0.192274,38,1.00849,10,-6.57539e-05,-3.71608,-0.598542,-0.0985729,0.342065,
2,0,0,0,0,25514,0.338341,0.338025,-0.194688,38,1.00832,10,-6.58094e-05,-3.71066,-0.57552,-0.102516,0.338111,
2,0,0,1,0,25514.8,0.334345,0.33407,-0.197247,38,1.00815,10,-6.58944e-05,-3.70499,-1.04156,-0.0566456,0.334157,
2,0,0,1,0,25515.6,0.33035,0.330015,-0.199297,38,1.00798,10,-6.57709e-05,-3.7005,-0.586415,-0.100611,0.330102,
2,0,0,1,0,25516.4,0.326355,0.326067,-0.201488,38,1.00781,10,-6.56986e-05,-3.69575,-1.02044,-0.057818,0.326156,
2,0,0,1,0,25517.2,0.32236,0.322062,-0.204024,38,1.00764,10,-6.57084e-05,-3.69032,-0.870672,-0.0677638,0.322151,
2,0,0,0,0,25518,0.318365,0.318048,-0.205395,38,1.00746,10,-6.53254e-05,-3.68741,-0.732364,-0.080561,0.318138,
2,0,0,1,0,25518.8,0.31437,0.314045,-0.208852,38,1.00729,10,-6.5589e-05,-3.68016,-1.42069,-0.041529,0.314137,
2,0,0,1,0,25519.6,0.310374,0.310052,-0.211006,38,1.00711,10,-6.54229e-05,-3.67571,-0.567317,-0.103998,0.310145,
2,0,0,1,0,25520.4,0.306379,0.306043,-0.213568,38,1.00692,10,-6.53609e-05,-3.67046,-0.812926,-0.0725773,0.306137,
2,0,0,1,0,25521.2,0.302385,0.302037,-0.216299,38,1.00674,10,-6.53303e-05,-3.66495,-0.697089,-0.0846377,0.302133,
2,0,0,0,0,25522,0.298389,0.298097,-0.218297,38,1.00656,10,-6.50737e-05,-3.66095,-0.695701,-0.0848066,0.298193,
2,0,0,1,0,25522.8,0.294394,0.294062,-0.220629,38,1.00637,10,-6.48784e-05,-3.65634,-0.778092,-0.0758265,0.294159,
2,0,0,1,0,25523.6,0.290398,0.290065,-0.22379,38,1.00618,10,-6.49137e-05,-3.65016,-1.59424,-0.0370082,0.290164,
2,0,0,1,0,25524.4,0.286403,0.286089,-0.225775,38,1.00599,10,-6.45919e-05,-3.64632,-0.612174,-0.0963779,0.286189,
2,0,0,1,0,25525.2,0.282408,0.282079,-0.22932,38,1.00579,10,-6.46864e-05,-3.63956,-1.41443,-0.0417128,0.28218,
2,0,0,1,0,25526,0.278414,0.278099,-0.231727,38,1.0056,10,-6.44429e-05,-3.63502,-0.46335,-0.127334,0.278201,
2,0,0,1,0,25526.8,0.274418,0.27408,-0.234722,38,1.0054,10,-6.43326e-05,-3.62945,-0.933369,-0.0632119,0.274184,
2,0,0,0,0,25527.6,0.270423,0.270095,-0.237977,38,1.0052,10,-6.42764e-05,-3.62347,-0.794841,-0.0742287,0.2702,
2,0,0,1,0,25528.4,0.266427,0.266107,-0.239225,38,1.005,10,-6.36593e-05,-3.62119,-1.07219,-0.0550276,0.266212,
2,0,0,1,0,25529.2,0.262432,0.262137,-0.2426,38,1.00479,10,-6.35945e-05,-3.61511,-0.655743,-0.0899743,0.262244,
2,0,0,1,0,25530,0.258437,0.258104,-0.24597,38,1.00459,10,-6.3486e-05,-3.60912,-1.83108,-0.0322214,0.258213,
2,0,0,1,0,25530.8,0.254442,0.25409,-0.247057,38,1.00438,10,-6.27745e-05,-3.6072,-0.683873,-0.0862734,0.254198,
2,0,0,0,0,25531.6,0.250447,0.25018,-0.249645,38,1.00417,10,-6.24561e-05,-3.60268,-1.64832,-0.035794,0.25029,
2,0,0,1,0,25532.4,0.246452,0.246136,-0.251588,38,1.00396,10,-6.19251e-05,-3.59931,-0.702433,-0.0839938,0.246247,
2,0,0,1,0,25533.2,0.242456,0.242081,-0.254974,38,1.00374,10,-6.17244e-05,-3.5935,-0.980306,-0.0601853,0.242193,
2,0,0,1,0,25534,0.238461,0.238187,-0.255935,38,1.00353,10,-6.09603e-05,-3.59187,-0.926146,-0.0637049,0.238299,
2,0,0,1,0,25534.8,0.234467,0.234117,-0.25923,38,1.00331,10,-6.06903e-05,-3.58631,-0.846618,-0.069689,0.234231,
2,0,0,0,0,25535.6,0.230471,0.230174,-0.261408,38,1.00309,10,-6.01695e-05,-3.58268,-2.17797,-0.0270894,0.230289,
2,0,0,1,0,25536.4,0.226476,0.226198,-0.264742,38,1.00287,10,-5.9884e-05,-3.57718,-0.730719,-0.0807424,0.226314,
2,0,0,0,0,25537.2,0.222481,0.222183,-0.266683,38,1.00264,10,-5.92524e-05,-3.57401,-1.26218,-0.0467444,0.2223,
2,0,0,1,0,25538,0.218485,0.218171,-0.270148,38,1.00242,10,-5.89385e-05,-3.5684,-1.18486,-0.0497948,0.21829,
2,0,0,1,0,25538.8,0.21449,0.21419,-0.272938,38,1.00219,10,-5.84605e-05,-3.56394,-0.53333,-0.110626,0.21431,
2,0,0,1,0,25539.6,0.210496,0.210154,-0.275355,38,1.00196,10,-5.78669e-05,-3.56011,-1.02056,-0.0578112,0.210275,
2,0,0,1,0,25540.4,0.2065,0.206207,-0.280076,38,1.00172,10,-5.77535e-05,-3.55272,-0.755537,-0.0780902,0.20633,
2,0,0,0,0,25541.2,0.202505,0.20222,-0.281759,38,1.00149,10,-5.69771e-05,-3.55012,-0.736955,-0.0800591,0.202344,
2,0,0,1,0,25542,0.198509,0.198205,-0.286406,38,1.00125,10,-5.67671e-05,-3.54302,-0.711703,-0.0828997,0.198331,
2,0,0,1,0,25542.8,0.194514,0.194207,-0.289128,38,1.00101,10,-5.61508e-05,-3.53891,-0.781271,-0.075518,0.194334,
2,0,0,1,0,25543.6,0.190519,0.190213,-0.292134,38,1.00076,10,-5.55676e-05,-3.53442,-0.572294,-0.103094,0.190341,
2,0,0,1,0,25544.4,0.186524,0.18616,-0.29739,38,1.00051,10,-5.53621e-05,-3.52667,-0.791637,-0.0745291,0.186291,
2,0,0,0,0,25545.2,0.182529,0.18223,-0.302958,38,1.00026,10,-5.52081e-05,-3.51862,-0.443915,-0.132908,0.182363,
2,0,0,1,0,25546,0.178534,0.178187,-0.308205,38,1.00001,10,-5.49181e-05,-3.51116,-0.447,-0.131991,0.178322,
2,0,0,1,0,25546.8,0.174538,0.174221,-0.315609,38,0.999744,10,-5.49858e-05,-3.50085,-0.383835,-0.153712,0.17436,
2,0,0,1,0,25547.6,0.170543,0.170203,-0.32393,38,0.999477,10,-5.51339e-05,-3.48955,-0.295345,-0.199766,0.170345,
2,0,0,1,0,25548.4,0.166549,0.166271,-0.333845,38,0.999202,10,-5.55088e-05,-3.47645,-0.336067,-0.17556,0.166418,
2,0,0,0,0,25549.2,0.162553,0.16223,-0.344412,38,0.998919,10,-5.58739e-05,-3.46292,-0.243373,-0.242426,0.162381,
2,0,0,1,0,25550,0.158558,0.158226,-0.35791,38,0.998625,10,-5.66306e-05,-3.44623,-0.199356,-0.295953,0.158383,
2,0,0,0,0,25550.8,0.154563,0.154231,-0.379469,38,0.998318,10,-5.85259e-05,-3.42082,-0.171203,-0.34462,0.154398,
2,0,0,1,0,25551.6,0.150567,0.150252,-0.405018,38,0.997993,10,-6.08548e-05,-3.39253,-0.118383,-0.498384,0.15043,
2,0,0,1,0,25552.4,0.146572,0.146249,-0.436691,38,0.997644,10,-6.38654e-05,-3.35983,-0.102405,-0.576144,0.146441,
2,0,0,1,0,25553.2,0.142578,0.142248,-0.48427,38,0.997264,10,-6.88862e-05,-3.31491,-0.0906505,-0.650852,0.142461,
2,0,0,1,0,25554,0.138582,0.138267,-0.535466,38,0.996845,10,-7.40371e-05,-3.27127,-0.0870895,-0.677464,0.138502,
2,0,0,0,0,25554.8,0.134587,0.13427,-0.593207,38,0.996381,10,-7.96498e-05,-3.22679,-0.0979397,-0.602411,0.134531,
2,0,0,1,0,25555.6,0.130591,0.130263,-0.646127,38,0.995873,10,-8.41666e-05,-3.18968,-0.119004,-0.495782,0.130548,
2,0,0,1,0,25556.4,0.126596,0.126311,-0.684717,38,0.995326,10,-8.64875e-05,-3.16449,-0.181954,-0.324258,0.126613,
2,0,0,1,0,25557.2,0.122602,0.122263,-0.714807,38,0.994752,10,-8.73948e-05,-3.14581,-0.343638,-0.171692,0.122578,
2,0,0,1,0,25558,0.118607,0.118287,-0.731723,38,0.994161,10,-8.65533e-05,-3.13565,-0.57501,-0.102607,0.118609,
2,0,0,0,0,25558.8,0.114611,0.114337,-0.732461,38,0.993562,10,-8.37477e-05,-3.13522,6.22041,0.0094849,0.11466,
2,0,0,1,0,25559.6,0.110616,0.11033,-0.731797,38,0.992964,10,-8.07393e-05,-3.13561,1.72011,0.0343001,0.110652,
2,0,0,1,0,25560.4,0.10662,0.106293,-0.725844,38,0.992368,10,-7.71521e-05,-3.13916,0.926512,0.0636797,0.106612,
2,0,0,1,0,25561.2,0.102625,0.102255,-0.717484,38,0.991778,10,-7.33664e-05,-3.14419,0.647131,0.0911716,0.102571,
2,0,0,1,0,25562,0.0986305,0.0983479,-0.707106,38,0.991197,10,-6.95424e-05,-3.15052,0.649444,0.090847,0.098659,
2,0,0,0,0,25562.8,0.0946351,0.0943403,-0.693613,38,0.990623,10,-6.54357e-05,-3.15888,0.544761,0.108304,0.0946455,
2,0,0,1,0,25563.6,0.0906399,0.0903193,-0.684452,38,0.990058,10,-6.18192e-05,-3.16466,0.486841,0.121189,0.0906204,
2,0,0,0,0,25564.3,0.0866448,0.0862664,-0.67251,38,0.989503,10,-5.8015e-05,-3.1723,0.732225,0.0805764,0.0865623,
2,0,0,1,0,25565.1,0.0826492,0.0823298,-0.663705,38,0.988956,10,-5.46427e-05,-3.17803,0.506311,0.116529,0.0826219,
2,0,0,1,0,25565.9,0.0786544,0.0783325,-0.653946,38,0.988418,10,-5.12252e-05,-3.18446,0.745514,0.0791401,0.0786202,
2,0,0,1,0,25566.7,0.0746596,0.0743319,-0.642543,38,0.987888,10,-4.77615e-05,-3.1921,0.565487,0.104335,0.0746147,
2,0,0,1,0,25567.5,0.0706641,0.0703805,-0.634724,38,0.987365,10,-4.46722e-05,-3.19742,0.721553,0.0817681,0.0706597,
2,0,0,0,0,25568.3,0.0666689,0.0663255,-0.626183,38,0.986849,10,-4.15319e-05,-3.2033,0.780636,0.0755794,0.066601,
2,0,0,1,0,25569.1,0.0626737,0.0623362,-0.615254,38,0.98634,10,-3.83526e-05,-3.21095,0.599441,0.098425,0.0626069,
2,0,0,1,0,25569.9,0.0586783,0.0583116,-0.607904,38,0.985838,10,-3.54479e-05,-3.21616,0.493231,0.119619,0.0585791,
2,0,0,1,0,25570.7,0.0546835,0.0543239,-0.598092,38,0.985343,10,-3.24907e-05,-3.22323,0.841016,0.0701532,0.0545871,
2,0,0,1,0,25571.5,0.0506886,0.0503764,-0.59034,38,0.984855,10,-2.97392e-05,-3.2289,0.50374,0.117124,0.0506362,
2,0,0,0,0,25572.3,0.046693,0.0463612,-0.578641,38,0.984376,10,-2.68265e-05,-3.23759,0.497715,0.118542,0.0466158,
2,0,0,1,0,25573.1,0.0426979,0.0423995,-0.568217,38,0.983905,10,-2.40921e-05,-3.24549,0.538349,0.109594,0.0426495,
2,0,0,1,0,25573.9,0.0387022,0.0383377,-0.558385,38,0.983442,10,-2.14072e-05,-3.25307,0.439239,0.134323,0.0385834,
2,0,0,1,0,25574.7,0.0347074,0.0343985,-0.546549,38,0.982988,10,-1.88005e-05,-3.26237,0.460912,0.128007,0.034639,
2,0,0,1,0,25575.5,0.0307126,0.0304086,-0.534348,38,0.982542,10,-1.62488e-05,-3.27218,0.520994,0.113245,0.0306437,
2,0,0,0,0,25576.3,0.0267172,0.0263651,-0.528231,38,0.982104,10,-1.39269e-05,-3.27718,0.5154,0.114474,0.0265975,
2,0,0,1,0,25577.1,0.022722,0.0223737,-0.519054,38,0.981674,10,-1.16132e-05,-3.28479,0.711855,0.082882,0.0226021,
2,0,0,0,0,25577.9,0.0187268,0.0184269,-0.512494,38,0.981249,10,-9.44368e-06,-3.29031,0.688134,0.0857391,0.0186524,
2,0,0,1,0,25578.7,0.0147313,0.0143958,-0.507087,38,0.98083,10,-7.29993e-06,-3.29492,1.2931,0.0456268,0.0146189,
2,0,0,1,0,25579.5,0.0107365,0.0104387,-0.503887,38,0.980414,10,-5.25991e-06,-3.29767,1.24733,0.0473009,0.0106604,
2,0,0,1,0,25580.3,0.00674163,0.00640861,-0.500636,38,0.980001,10,-3.20838e-06,-3.30048,5.06906,0.0116392,0.00662889,
2,0,0,1,0,25581.1,0.00274612,0.00245188,-0.500369,38,0.979588,10,-1.22685e-06,-3.30071,-2.10247,-0.0280623,0.00267204,
2,0,0,0,0,25581.6,0.000274105,-9.38898e-05,-0.502391,38,0.979331,10,4.71694e-08,-3.29896, , ,0.000127162,