File: Figure_codes/Fig_3-5/workspace_calculate_alpha_eff/20221101_1-115_003_TrumpetPlot_ParaChange_from10_every3_16_CV_C01_56.csv
mode,ox/red,error,control changes,counter inc.,time/s,control/V,Ewe/V,<I>/mA,cycle number,(Q-Qo)/C,I Range,P/W,log(|I|),Tafel slope mV/dec,alpha_eff,E-IR/V,
2,0,0,0,0,37432.5,2.44065e-05,-0.000458935,-0.113387,57,0.0000000E+000,10,5.20371e-08,-3.94544, , ,-0.000409045,
2,1,0,0,0,37433.2,0.00379485,0.00347093,0.146123,57,9.09814e-05,10,5.07183e-07,-3.83528,0.0332602,1.77389,0.00340664,
2,1,0,1,0,37434,0.00779002,0.00748457,0.168353,57,0.000229169,10,1.26005e-06,-3.77378,0.0744216,0.79278,0.00741049,
2,1,0,0,0,37434.8,0.0117852,0.011477,0.184883,57,0.000383099,10,2.1219e-06,-3.7331,0.115259,0.511892,0.0113957,
2,1,0,1,0,37435.6,0.0157806,0.015423,0.201926,57,0.000549105,10,3.11431e-06,-3.69481,0.14471,0.407713,0.0153342,
2,1,0,1,0,37436.4,0.0197754,0.0194374,0.213856,57,0.00072597,10,4.15681e-06,-3.66988,0.135407,0.435722,0.0193433,
2,1,0,1,0,37437.2,0.0237704,0.0234316,0.226747,57,0.000913994,10,5.31305e-06,-3.64446,0.169095,0.348917,0.0233318,
2,1,0,1,0,37438,0.0277659,0.0274276,0.241874,57,0.00111254,10,6.63403e-06,-3.61641,0.149563,0.394483,0.0273212,
2,1,0,0,0,37438.8,0.0317611,0.0314551,0.254219,57,0.00132268,10,7.99647e-06,-3.59479,0.156223,0.377666,0.0313432,
2,1,0,1,0,37439.6,0.0357567,0.0354235,0.269752,57,0.00154429,10,9.55557e-06,-3.56904,0.218019,0.270618,0.0353048,
2,1,0,1,0,37440.4,0.0397516,0.0394242,0.283881,57,0.00177712,10,1.11918e-05,-3.54686,0.150257,0.392661,0.0392993,
2,1,0,1,0,37441.2,0.0437465,0.0434545,0.295713,57,0.00202157,10,1.28501e-05,-3.52913,0.208643,0.282779,0.0433244,
2,1,0,1,0,37442,0.0477413,0.047347,0.310835,57,0.00227632,10,1.47171e-05,-3.50747,0.212532,0.277606,0.0472102,
2,1,0,0,0,37442.8,0.0517369,0.0513833,0.324019,57,0.00254156,10,1.66492e-05,-3.48943,0.227575,0.259255,0.0512407,
2,1,0,1,0,37443.6,0.0557321,0.0554234,0.335737,57,0.0028174,10,1.86077e-05,-3.474,0.317474,0.185842,0.0552757,
2,1,0,1,0,37444.4,0.0597277,0.0593856,0.346481,57,0.00310159,10,2.0576e-05,-3.46032,0.270748,0.217915,0.0592331,
2,1,0,1,0,37445.2,0.0637226,0.0633872,0.357335,57,0.00339486,10,2.26505e-05,-3.44692,0.295633,0.199572,0.06323,
2,1,0,1,0,37446,0.0677174,0.0673857,0.3684,57,0.00369707,10,2.48249e-05,-3.43368,0.521009,0.113242,0.0672236,
2,1,0,0,0,37446.8,0.0717128,0.071373,0.377405,57,0.00400655,10,2.69365e-05,-3.42319,0.305384,0.193199,0.0712069,
2,1,0,1,0,37447.6,0.075708,0.0753219,0.384062,57,0.00432329,10,2.89283e-05,-3.4156,0.508463,0.116036,0.075153,
2,1,0,0,0,37448.4,0.0797031,0.079395,0.394055,57,0.0046463,10,3.1286e-05,-3.40444,0.417194,0.141421,0.0792216,
2,1,0,1,0,37449.2,0.0836986,0.0833868,0.40244,57,0.00497583,10,3.35582e-05,-3.3953,0.346391,0.170328,0.0832097,
2,1,0,1,0,37450,0.0876935,0.0873649,0.413066,57,0.00531364,10,3.60875e-05,-3.38398,0.345092,0.170969,0.0871832,
2,1,0,1,0,37450.8,0.0916883,0.0913275,0.428014,57,0.00566068,10,3.90894e-05,-3.36854,0.236028,0.249971,0.0911391,
2,1,0,1,0,37451.6,0.0956838,0.0953912,0.442181,57,0.0060205,10,4.21802e-05,-3.3544,0.229648,0.256915,0.0951966,
2,1,0,0,0,37452.4,0.099679,0.0993709,0.46404,57,0.00639507,10,4.61121e-05,-3.33344,0.224174,0.263188,0.0991667,
2,1,0,1,0,37453.2,0.103674,0.103351,0.486539,57,0.00678651,10,5.02841e-05,-3.31288,0.171586,0.34385,0.103137,
2,1,0,1,0,37454,0.10767,0.107338,0.509374,57,0.00719693,10,5.46752e-05,-3.29296,0.229475,0.257108,0.107114,
2,1,0,1,0,37454.8,0.111664,0.111334,0.52971,57,0.00762357,10,5.89749e-05,-3.27596,0.260976,0.226075,0.111101,
2,1,0,1,0,37455.6,0.115659,0.1153,0.544446,57,0.00806422,10,6.27745e-05,-3.26405,0.307568,0.191828,0.11506,
2,1,0,0,0,37456.4,0.119655,0.119282,0.557113,57,0.00851708,10,6.64536e-05,-3.25406,0.573119,0.102946,0.119037,
2,1,0,1,0,37457.2,0.12365,0.123303,0.569505,57,0.00897896,10,7.02218e-05,-3.2445,0.467023,0.126332,0.123053,
2,1,0,1,0,37458,0.127646,0.127297,0.576911,57,0.00944945,10,7.34391e-05,-3.23889,0.609224,0.0968445,0.127043,
2,1,0,1,0,37458.8,0.131641,0.131314,0.581595,57,0.00992567,10,7.63713e-05,-3.23538,-0.879999,-0.0670455,0.131058,
2,1,0,1,0,37459.6,0.135635,0.135284,0.571399,57,0.0103992,10,7.73009e-05,-3.24306,-0.329831,-0.178879,0.135032,
2,1,0,0,0,37460.4,0.139631,0.139312,0.541192,57,0.0108577,10,7.53946e-05,-3.26665,-0.122193,-0.482843,0.139074,
2,1,0,1,0,37461.2,0.143626,0.143327,0.492939,57,0.0112843,10,7.06513e-05,-3.30721,-0.0823342,-0.716591,0.14311,
2,1,0,0,0,37462,0.147621,0.147316,0.434992,57,0.0116663,10,6.40813e-05,-3.36152,-0.0685995,-0.860065,0.147125,
2,1,0,1,0,37462.8,0.151617,0.151279,0.380337,57,0.0120025,10,5.7537e-05,-3.41983,-0.0727093,-0.811451,0.151112,
2,1,0,1,0,37463.6,0.155612,0.155318,0.341914,57,0.0123009,10,5.31054e-05,-3.46608,-0.109958,-0.53657,0.155168,
2,1,0,1,0,37464.4,0.159606,0.159246,0.316292,57,0.0125744,10,5.03683e-05,-3.49991,-0.137973,-0.427618,0.159107,
2,1,0,1,0,37465.2,0.163602,0.16327,0.30003,57,0.0128314,10,4.89858e-05,-3.52284,-0.181351,-0.325336,0.163138,
2,1,0,0,0,37466,0.167597,0.167331,0.288195,57,0.0130771,10,4.82241e-05,-3.54031,-0.322265,-0.183079,0.167205,
2,1,0,1,0,37466.8,0.171592,0.17129,0.278754,57,0.0133153,10,4.77477e-05,-3.55478,-0.32818,-0.179779,0.171167,
2,1,0,1,0,37467.6,0.175588,0.175307,0.274039,57,0.0135474,10,4.80409e-05,-3.56219,-0.570818,-0.103361,0.175186,
2,1,0,1,0,37468.4,0.179582,0.179224,0.268619,57,0.0137752,10,4.81429e-05,-3.57086,-0.65652,-0.0898678,0.179106,
2,1,0,1,0,37469.2,0.183577,0.183275,0.265591,57,0.0139998,10,4.86763e-05,-3.57579,-0.713822,-0.0826536,0.183159,
2,1,0,0,0,37470,0.187573,0.187269,0.262261,57,0.0142215,10,4.91133e-05,-3.58127,-0.647988,-0.091051,0.187154,
2,1,0,1,0,37470.8,0.191568,0.191238,0.25989,57,0.0144409,10,4.97009e-05,-3.58521,-0.786302,-0.0750347,0.191124,
2,1,0,0,0,37471.6,0.195563,0.195233,0.257044,57,0.0146585,10,5.01834e-05,-3.58999,-0.849112,-0.0694843,0.19512,
2,1,0,1,0,37472.4,0.199559,0.19923,0.256259,57,0.0148741,10,5.10544e-05,-3.59132,-31.5325,-0.00187109,0.199117,
2,1,0,1,0,37473.2,0.203553,0.203221,0.251721,57,0.0150882,10,5.1155e-05,-3.59908,-1.08354,-0.0544513,0.20311,
2,1,0,1,0,37474,0.207548,0.207281,0.25189,57,0.015301,10,5.2212e-05,-3.59879,-1.43975,-0.0409794,0.20717,
2,1,0,1,0,37474.8,0.211544,0.211213,0.249918,57,0.0155121,10,5.2786e-05,-3.6022,-1.53102,-0.0385365,0.211103,
2,1,0,0,0,37475.6,0.215539,0.215231,0.2483,57,0.0157222,10,5.34419e-05,-3.60502,-2.00006,-0.0294991,0.215122,
2,1,0,1,0,37476.4,0.219535,0.219185,0.247649,57,0.0159307,10,5.42809e-05,-3.60616,-1.01533,-0.0581094,0.219076,
2,1,0,1,0,37477.2,0.223529,0.223232,0.245848,57,0.0161384,10,5.48812e-05,-3.60933,-5.56596,-0.0106001,0.223124,
2,1,0,1,0,37478,0.227524,0.227233,0.244377,57,0.0163451,10,5.55304e-05,-3.61194,-1.19098,-0.0495391,0.227125,
2,1,0,1,0,37478.8,0.23152,0.231186,0.243985,57,0.0165508,10,5.64059e-05,-3.61264,-3.91962,-0.0150525,0.231078,
2,1,0,0,0,37479.6,0.235515,0.235176,0.242186,57,0.0167559,10,5.69564e-05,-3.61585,-1.28647,-0.0458621,0.23507,
2,1,0,1,0,37480.4,0.23951,0.239229,0.241344,57,0.0169599,10,5.77364e-05,-3.61736,-22.1488,-0.0026638,0.239123,
2,1,0,1,0,37481.2,0.243506,0.243168,0.241078,57,0.0171634,10,5.86223e-05,-3.61784,-2.96259,-0.019915,0.243062,
2,1,0,1,0,37482,0.2475,0.2472,0.240865,57,0.0173663,10,5.95419e-05,-3.61823,-2.21443,-0.0266434,0.247094,
2,1,0,1,0,37482.8,0.251495,0.251206,0.238499,57,0.0175686,10,5.99123e-05,-3.62251,-5.77626,-0.0102142,0.251101,
2,1,0,0,0,37483.6,0.255491,0.25518,0.238377,57,0.0177703,10,6.0829e-05,-3.62274,-8.81372,-0.00669411,0.255075,
2,1,0,1,0,37484.4,0.259486,0.259186,0.238495,57,0.0179715,10,6.18145e-05,-3.62252,-0.966307,-0.0610572,0.259081,
2,1,0,0,0,37485.2,0.263481,0.263205,0.237345,57,0.0181717,10,6.24704e-05,-3.62462,10.2349,0.00576458,0.2631,
2,1,0,1,0,37486,0.267477,0.267128,0.235568,57,0.0183715,10,6.29269e-05,-3.62788,-3.17398,-0.0185886,0.267025,
2,1,0,1,0,37486.8,0.271471,0.27119,0.2369,57,0.0185705,10,6.42447e-05,-3.62544,-8.11133,-0.00727377,0.271085,
2,1,0,1,0,37487.6,0.275466,0.275131,0.235113,57,0.0187689,10,6.46868e-05,-3.62872,-1.49883,-0.039364,0.275027,
2,1,0,1,0,37488.4,0.279462,0.279107,0.23376,57,0.0189666,10,6.5244e-05,-3.63123,-2.30507,-0.0255957,0.279004,
2,1,0,0,0,37489.2,0.283457,0.283107,0.233435,57,0.0191634,10,6.60869e-05,-3.63183,-2.1041,-0.0280404,0.283004,
2,1,0,1,0,37490,0.287452,0.287142,0.231228,57,0.0193594,10,6.63952e-05,-3.63596,-1.23867,-0.0476317,0.287041,
2,1,0,1,0,37490.8,0.291448,0.291136,0.23096,57,0.0195546,10,6.72407e-05,-3.63646,-1.86359,-0.0316594,0.291035,
2,1,0,1,0,37491.6,0.295442,0.29514,0.229592,57,0.0197488,10,6.77617e-05,-3.63904,4.26841,0.0138225,0.295039,
2,1,0,1,0,37492.3,0.299437,0.299135,0.227262,57,0.0199427,10,6.7982e-05,-3.64347,-1.35097,-0.0436722,0.299035,
2,1,0,0,0,37493.1,0.303433,0.303125,0.228318,57,0.0201357,10,6.9209e-05,-3.64146,-3.48546,-0.0169275,0.303024,
2,1,0,1,0,37493.9,0.307428,0.307083,0.22766,57,0.0203279,10,6.99107e-05,-3.64271,16.9764,0.00347541,0.306983,
2,1,0,1,0,37494.7,0.311424,0.311129,0.227462,57,0.0205196,10,7.07701e-05,-3.64309,-1.2953,-0.0455494,0.311029,
2,1,0,1,0,37495.5,0.315418,0.31513,0.225958,57,0.0207108,10,7.12061e-05,-3.64597,-7.50888,-0.00785736,0.31503,
2,1,0,1,0,37496.3,0.319413,0.319108,0.226003,57,0.0209011,10,7.21192e-05,-3.64589,-2.43066,-0.0242733,0.319009,
2,1,0,0,0,37497.1,0.323409,0.323147,0.224526,57,0.0210911,10,7.25549e-05,-3.64873,-1.39909,-0.0421703,0.323049,
2,1,0,1,0,37497.9,0.327404,0.32711,0.224548,57,0.0212803,10,7.34519e-05,-3.64869,8.76199,0.00673363,0.327011,
2,1,0,0,0,37498.7,0.331399,0.331096,0.223375,57,0.0214693,10,7.39587e-05,-3.65097,-6.48959,-0.00909148,0.330998,
2,1,0,1,0,37499.5,0.335395,0.335132,0.224513,57,0.0216579,10,7.52415e-05,-3.64876,-5.83159,-0.0101173,0.335034,
2,1,0,1,0,37500.3,0.339389,0.33908,0.222352,57,0.0218457,10,7.53952e-05,-3.65296,-1.81581,-0.0324924,0.338982,
2,1,0,1,0,37501.1,0.343384,0.343081,0.223087,57,0.0220333,10,7.65369e-05,-3.65153,-2.62306,-0.0224928,0.342982,
2,1,0,1,0,37501.9,0.34738,0.347091,0.222519,57,0.0222202,10,7.72345e-05,-3.65263,4.91588,0.0120019,0.346994,
2,1,0,0,0,37502.7,0.351375,0.351082,0.222138,57,0.0224072,10,7.79885e-05,-3.65338,-3.83403,-0.0153885,0.350984,
2,1,0,1,0,37503.5,0.35537,0.355054,0.220822,57,0.0225935,10,7.84038e-05,-3.65596,-1.12238,-0.0525671,0.354957,
2,1,0,1,0,37504.3,0.359366,0.359041,0.220997,57,0.0227793,10,7.9347e-05,-3.65561,1.75547,0.0336093,0.358944,
2,1,0,1,0,37505.1,0.36336,0.36302,0.219478,57,0.0229649,10,7.96748e-05,-3.65861,-4.43919,-0.0132907,0.362923,
2,1,0,1,0,37505.9,0.367355,0.367063,0.220188,57,0.0231499,10,8.08229e-05,-3.65721,80.2519,0.000735185,0.366966,
2,1,0,0,0,37506.7,0.371351,0.371042,0.219619,57,0.0233346,10,8.14877e-05,-3.65833,-7.61341,-0.00774949,0.370945,
2,1,0,1,0,37507.5,0.375346,0.375079,0.218881,57,0.0235193,10,8.20976e-05,-3.65979,-1.89963,-0.0310586,0.374982,
2,1,0,1,0,37508.3,0.379342,0.378987,0.219528,57,0.0237033,10,8.31984e-05,-3.65851,-4.22082,-0.0139783,0.37889,
2,1,0,1,0,37509.1,0.383336,0.38302,0.218073,57,0.0238869,10,8.35263e-05,-3.6614,-3.18239,-0.0185395,0.382924,
2,1,0,1,0,37509.9,0.387331,0.387057,0.217877,57,0.0240702,10,8.43306e-05,-3.66179,-2.75682,-0.0214015,0.386961,
2,1,0,0,0,37510.7,0.391327,0.391024,0.217288,57,0.0242532,10,8.49648e-05,-3.66296,3.69265,0.0159777,0.390928,
2,1,0,1,0,37511.5,0.395322,0.39497,0.216896,57,0.0244361,10,8.56675e-05,-3.66375,-12.5182,-0.00471313,0.394874,
2,1,0,0,0,37512.3,0.399317,0.39901,0.218386,57,0.0246187,10,8.71383e-05,-3.66077,156.933,0.000375955,0.398914,
2,1,0,1,0,37513.1,0.403313,0.403001,0.218291,57,0.0248011,10,8.79715e-05,-3.66096,-25.5983,-0.00230484,0.402905,
2,1,0,1,0,37513.9,0.407307,0.406976,0.217105,57,0.0249834,10,8.83565e-05,-3.66333,-4.59483,-0.0128405,0.40688,
2,1,0,1,0,37514.7,0.411302,0.410975,0.217721,57,0.0251653,10,8.9478e-05,-3.6621,-3.47329,-0.0169868,0.410879,
2,1,0,1,0,37515.5,0.415298,0.414976,0.215434,57,0.0253471,10,8.94002e-05,-3.66669,21.4556,0.00274986,0.414882,
2,1,0,0,0,37516.3,0.419293,0.418988,0.216344,57,0.0255289,10,9.06456e-05,-3.66485,-3.21774,-0.0183359,0.418893,
2,1,0,1,0,37517.1,0.423288,0.422979,0.217408,57,0.0257104,10,9.1959e-05,-3.66273,2.44952,0.0240864,0.422884,
2,1,0,1,0,37517.9,0.427283,0.427004,0.216079,57,0.0258919,10,9.22667e-05,-3.66539,-1.50304,-0.0392537,0.426909,
2,1,0,1,0,37518.7,0.431278,0.430961,0.216884,57,0.0260732,10,9.34686e-05,-3.66377,21.9942,0.00268253,0.430865,
2,1,0,1,0,37519.5,0.435273,0.434976,0.215592,57,0.0262541,10,9.37775e-05,-3.66637,2.90586,0.0203038,0.434882,
2,1,0,0,0,37520.3,0.439269,0.438943,0.216084,57,0.0264352,10,9.48483e-05,-3.66538,5.84546,0.0100933,0.438848,
2,1,0,1,0,37521.1,0.443264,0.443005,0.216328,57,0.026616,10,9.58345e-05,-3.66489,-4.54322,-0.0129864,0.44291,
2,1,0,0,0,37521.9,0.447259,0.446952,0.216106,57,0.0267969,10,9.6589e-05,-3.66533,26.6159,0.00221672,0.446857,
2,1,0,1,0,37522.7,0.451254,0.45093,0.216964,57,0.026978,10,9.78354e-05,-3.66361,-1.85162,-0.031864,0.450834,
2,1,0,1,0,37523.5,0.455249,0.454992,0.216859,57,0.0271589,10,9.8669e-05,-3.66382,1.32539,0.0445152,0.454897,
2,1,0,1,0,37524.3,0.459244,0.458911,0.215902,57,0.02734,10,9.90795e-05,-3.66574,-8.66546,-0.00680864,0.458816,
2,1,0,1,0,37525.1,0.46324,0.462919,0.217085,57,0.0275215,10,0.000100493,-3.66337,2.15834,0.0273359,0.462823,
2,1,0,0,0,37525.9,0.467235,0.466954,0.217035,57,0.027703,10,0.000101345,-3.66347,4.59569,0.0128381,0.466859,
2,1,0,1,0,37526.7,0.471231,0.470912,0.217996,57,0.0278848,10,0.000102657,-3.66155,9.67065,0.00610093,0.470816,
2,1,0,1,0,37527.5,0.475225,0.474912,0.218536,57,0.028067,10,0.000103785,-3.66048,2.29179,0.0257441,0.474816,
2,1,0,1,0,37528.3,0.47922,0.478907,0.218448,57,0.0282496,10,0.000104617,-3.66065,10.2738,0.00574277,0.478811,
2,1,0,1,0,37529.1,0.483216,0.482929,0.219579,57,0.0284327,10,0.000106041,-3.65841,-26.3634,-0.00223795,0.482833,
2,1,0,0,0,37529.9,0.487211,0.486944,0.219943,57,0.0286161,10,0.0001071,-3.65769,2.02926,0.0290746,0.486847,
2,1,0,1,0,37530.7,0.491206,0.490893,0.220478,57,0.0288002,10,0.000108231,-3.65663,1.0395,0.0567583,0.490796,
2,1,0,1,0,37531.5,0.495201,0.494885,0.221492,57,0.0289849,10,0.000109613,-3.65464,19.2464,0.00306551,0.494787,
2,1,0,1,0,37532.3,0.499196,0.498911,0.222761,57,0.0291702,10,0.000111138,-3.65216,1.09671,0.0537971,0.498813,
2,1,0,1,0,37533.1,0.503191,0.502905,0.223508,57,0.0293564,10,0.000112403,-3.65071,-25.2139,-0.00233998,0.502807,
2,1,0,0,0,37533.9,0.507187,0.506891,0.224096,57,0.0295431,10,0.000113592,-3.64957,1.5258,0.0386683,0.506793,
2,1,0,1,0,37534.7,0.511182,0.510881,0.225306,57,0.0297303,10,0.000115105,-3.64723,2.20442,0.0267644,0.510782,
2,1,0,0,0,37535.5,0.515177,0.51484,0.226244,57,0.0299184,10,0.00011648,-3.64542,-23.6736,-0.00249222,0.514741,
2,1,0,1,0,37536.3,0.519173,0.518867,0.227655,57,0.0301071,10,0.000118123,-3.64272,0.971384,0.0607381,0.518767,
2,1,0,1,0,37537.1,0.523167,0.522899,0.228077,57,0.0302969,10,0.000119261,-3.64192,2.99574,0.0196946,0.522799,
2,1,0,1,0,37537.9,0.527162,0.526861,0.22969,57,0.0304876,10,0.000121015,-3.63886,0.878356,0.067171,0.52676,
2,1,0,1,0,37538.7,0.531158,0.530894,0.231656,57,0.0306795,10,0.000122985,-3.63516,3.69946,0.0159483,0.530792,
2,1,0,0,0,37539.5,0.535153,0.534876,0.233826,57,0.0308727,10,0.000125068,-3.63111,1.0271,0.0574432,0.534773,
2,1,0,1,0,37540.3,0.539148,0.538832,0.234743,57,0.0310672,10,0.000126487,-3.62941,1.3901,0.0424429,0.538729,
2,1,0,1,0,37541.1,0.543143,0.542852,0.236912,57,0.031263,10,0.000128608,-3.62541,1.25808,0.0468968,0.542748,
2,1,0,1,0,37541.9,0.547138,0.546825,0.238791,57,0.0314603,10,0.000130577,-3.62198,0.981081,0.0601378,0.54672,
2,1,0,1,0,37542.7,0.551133,0.550853,0.241323,57,0.0316593,10,0.000132933,-3.6174,0.825329,0.0714866,0.550747,
2,1,0,0,0,37543.5,0.555129,0.554793,0.242832,57,0.0318606,10,0.000134722,-3.61469,0.908177,0.0649653,0.554686,
2,1,0,1,0,37544.3,0.559124,0.558862,0.246007,57,0.0320635,10,0.000137484,-3.60905,0.701196,0.084142,0.558754,
2,1,0,1,0,37545.1,0.56312,0.562825,0.248845,57,0.0322685,10,0.000140056,-3.60407,0.6983,0.0844909,0.562716,
2,1,0,1,0,37545.9,0.567114,0.566781,0.252646,57,0.0324761,10,0.000143195,-3.59749,0.999661,0.05902,0.56667,
2,1,0,1,0,37546.7,0.571109,0.57083,0.255611,57,0.0326862,10,0.000145911,-3.59242,0.527035,0.111947,0.570717,
2,1,0,0,0,37547.5,0.575105,0.574744,0.259371,57,0.0328994,10,0.000149072,-3.58608,0.568072,0.10386,0.57463,
2,1,0,1,0,37548.3,0.5791,0.578786,0.263442,57,0.0331159,10,0.000152476,-3.57932,0.616394,0.095718,0.57867,
2,1,0,0,0,37549.1,0.583095,0.582768,0.268312,57,0.0333356,10,0.000156363,-3.57136,0.549901,0.107292,0.58265,
2,1,0,1,0,37549.9,0.58709,0.586762,0.273545,57,0.0335593,10,0.000160505,-3.56297,0.459658,0.128356,0.586641,
2,1,0,1,0,37550.7,0.591085,0.590821,0.27935,57,0.0337874,10,0.000165045,-3.55385,0.437707,0.134793,0.590698,
2,1,0,1,0,37551.5,0.59508,0.594795,0.286579,57,0.0340203,10,0.000170456,-3.54275,0.335294,0.175965,0.594668,
2,1,0,1,0,37552.3,0.599076,0.598767,0.294573,57,0.0342592,10,0.000176381,-3.53081,0.372704,0.158302,0.598638,
2,1,0,0,0,37553.1,0.603071,0.602795,0.302209,57,0.034504,10,0.00018217,-3.51969,0.294118,0.2006,0.602662,
2,1,0,1,0,37553.9,0.607066,0.606765,0.310386,57,0.0347559,10,0.000188331,-3.5081,0.286608,0.205856,0.606628,
2,1,0,1,0,37554.7,0.611061,0.61076,0.323114,57,0.0350159,10,0.000197346,-3.49064,0.254411,0.231909,0.610618,
2,1,0,1,0,37555.5,0.615056,0.61474,0.33449,57,0.035285,10,0.000205624,-3.47562,0.223969,0.26343,0.614593,
2,1,0,1,0,37556.3,0.619051,0.618767,0.347964,57,0.0355651,10,0.000215309,-3.45847,0.212748,0.277323,0.618614,
2,1,0,0,0,37557.1,0.623047,0.622757,0.365327,57,0.0358573,10,0.00022751,-3.43732,0.192185,0.306996,0.622596,
2,1,0,1,0,37557.9,0.627042,0.626776,0.383992,57,0.0361637,10,0.000240677,-3.41568,0.163336,0.361219,0.626607,
2,1,0,1,0,37558.7,0.631037,0.630782,0.407763,57,0.0364872,10,0.00025721,-3.38959,0.155519,0.379374,0.630603,
2,1,0,1,0,37559.5,0.635032,0.634727,0.433533,57,0.03683,10,0.000275175,-3.36298,0.143193,0.412031,0.634536,
2,1,0,1,0,37560.3,0.639027,0.638689,0.463321,57,0.0371953,10,0.000295918,-3.33412,0.130838,0.45094,0.638485,
2,1,0,1,0,37561.1,0.643022,0.642714,0.498979,57,0.0375869,10,0.000320701,-3.30192,0.11797,0.500129,0.642495,
2,1,0,1,0,37561.9,0.647018,0.646721,0.541864,57,0.0380093,10,0.000350435,-3.26611,0.112582,0.52406,0.646482,
2,1,0,0,0,37562.7,0.651013,0.650742,0.588517,57,0.038467,10,0.000382973,-3.23024,0.10312,0.57215,0.650483,
2,1,0,1,0,37563.5,0.655008,0.654752,0.645889,57,0.0389667,10,0.000422897,-3.18984,0.0936432,0.630051,0.654468,
2,1,0,1,0,37564.3,0.659003,0.658709,0.711668,57,0.0395156,10,0.000468782,-3.14772,0.0926986,0.636472,0.658396,
2,1,0,1,0,37565.1,0.662998,0.662695,0.788542,57,0.0401212,10,0.000522562,-3.10318,0.0881102,0.669616,0.662348,
2,1,0,1,0,37565.9,0.666994,0.666696,0.877786,57,0.0407928,10,0.000585217,-3.05661,0.0828141,0.712439,0.66631,
2,1,0,0,0,37566.7,0.670989,0.670724,0.977551,57,0.0415404,10,0.000655667,-3.00986,0.082201,0.717753,0.670294,
2,1,0,1,0,37567.5,0.674984,0.674717,1.0933,57,0.0423745,10,0.000737669,-2.96126,0.081213,0.726484,0.674236,
2,1,0,1,0,37568.3,0.67898,0.678678,1.2253,57,0.0433074,10,0.000831586,-2.91176,0.0784935,0.751654,0.678139,
2,1,0,1,0,37569.1,0.682974,0.682698,1.37546,57,0.0443532,10,0.000939024,-2.86155,0.0779574,0.756824,0.682093,
2,1,0,1,0,37569.9,0.686969,0.686693,1.54336,57,0.0455256,10,0.00105981,-2.81153,0.079736,0.739941,0.686014,
2,1,0,0,0,37570.7,0.690965,0.690707,1.72987,57,0.0468389,10,0.00119483,-2.76199,0.0797158,0.74013,0.689945,
2,1,0,1,0,37571.5,0.69496,0.694681,1.93679,57,0.0483097,10,0.00134545,-2.71292,0.0794825,0.742302,0.693829,
2,1,0,0,0,37572.3,0.698955,0.698664,2.16285,57,0.0499534,10,0.00151111,-2.66497,0.0811658,0.726908,0.697712,
2,1,0,1,0,37573.1,0.70295,0.70264,2.4107,57,0.0517872,10,0.00169386,-2.61786,0.0857309,0.6882,0.701579,
2,1,0,1,0,37573.9,0.706945,0.706641,2.6796,57,0.0538267,10,0.00189351,-2.57193,0.0845521,0.697795,0.705462,
2,1,0,1,0,37574.7,0.71094,0.710686,2.9674,57,0.0560891,10,0.00210889,-2.52762,0.0875846,0.673635,0.70938,
2,1,0,1,0,37575.4,0.714936,0.714681,3.27695,57,0.0585906,10,0.00234198,-2.48453,0.0907952,0.649814,0.713239,
2,1,0,0,0,37576.2,0.718931,0.71864,3.61013,57,0.0613479,10,0.00259438,-2.44248,0.0931085,0.633669,0.717051,
2,1,0,1,0,37577,0.722927,0.722652,3.96176,57,0.0643793,10,0.00286298,-2.40211,0.0964553,0.611682,0.720909,
2,1,0,1,0,37577.8,0.726921,0.726712,4.3361,57,0.0677004,10,0.0031511,-2.3629,0.100183,0.588923,0.724804,
2,1,0,1,0,37578.6,0.730916,0.73061,4.73047,57,0.071328,10,0.00345613,-2.3251,0.101815,0.579483,0.728528,
2,1,0,1,0,37579.4,0.734911,0.734636,5.14646,57,0.0752807,10,0.00378077,-2.28849,0.105045,0.561662,0.732371,
2,1,0,0,0,37580.2,0.738907,0.738594,5.58692,57,0.0795757,10,0.00412647,-2.25283,0.108169,0.545445,0.736136,
2,1,0,1,0,37581,0.742902,0.742635,6.0486,57,0.0842305,10,0.0044919,-2.21835,0.112219,0.525756,0.739973,
2,1,0,1,0,37581.8,0.746897,0.746591,6.53502,57,0.0892651,10,0.00487899,-2.18475,0.113955,0.517749,0.743716,
2,1,0,1,0,37582.6,0.750892,0.750568,7.04542,57,0.0946965,10,0.00528806,-2.15209,0.119087,0.495436,0.747468,
2,1,0,1,0,37583.4,0.754887,0.754605,7.58097,57,0.100546,10,0.00572064,-2.12028,0.115736,0.509783,0.75127,
2,1,0,0,0,37584.2,0.758883,0.758563,8.14539,57,0.106836,10,0.00617879,-2.08909,0.123011,0.479633,0.754979,
2,1,0,1,0,37585,0.762878,0.762621,8.74008,57,0.113587,10,0.00666537,-2.05848,0.121117,0.487134,0.758776,
2,1,0,0,0,37585.8,0.766873,0.766619,9.36389,57,0.120826,10,0.00717853,-2.02854,0.126172,0.467615,0.762499,
2,1,0,1,0,37586.6,0.770868,0.770603,10.0251,57,0.128578,10,0.00772541,-1.99891,0.125695,0.469391,0.766192,
2,1,0,1,0,37587.4,0.774863,0.774588,10.7224,57,0.136872,10,0.00830542,-1.96971,0.126402,0.466765,0.76987,
2,1,0,1,0,37588.2,0.778858,0.778587,11.4627,57,0.145741,10,0.00892469,-1.94071,0.126465,0.466531,0.773544,
2,1,0,1,0,37589,0.782854,0.782593,12.2597,57,0.155223,10,0.00959435,-1.91152,0.124976,0.472092,0.777199,
2,1,0,0,0,37589.8,0.786849,0.786555,13.099,57,0.165359,10,0.0103031,-1.88276,0.123135,0.479148,0.780791,
2,1,0,1,0,37590.6,0.790844,0.790559,14.0116,57,0.176197,10,0.011077,-1.85351,0.12477,0.47287,0.784394,
2,1,0,1,0,37591.4,0.794839,0.794548,14.9746,57,0.187781,10,0.011898,-1.82465,0.123139,0.479134,0.787959,
2,1,0,1,0,37592.2,0.798834,0.798532,16.0126,57,0.200166,10,0.0127866,-1.79554,0.118825,0.496529,0.791486,
2,1,0,1,0,37593,0.802829,0.80256,17.118,57,0.213414,10,0.0137382,-1.76655,0.127377,0.463193,0.795028,
2,1,0,0,0,37593.8,0.806825,0.806563,18.2359,57,0.227545,10,0.0147084,-1.73907,0.123831,0.476457,0.79854,
2,1,0,1,0,37594.6,0.81082,0.810573,19.432,57,0.242605,10,0.015751,-1.71148,0.128013,0.460891,0.802023,
2,1,0,1,0,37595.4,0.814815,0.814561,20.6416,57,0.258633,10,0.0168139,-1.68526,0.132868,0.444049,0.805478,
2,1,0,1,0,37596.2,0.81881,0.818529,21.9263,57,0.275643,10,0.0179473,-1.65903,0.134042,0.440159,0.808882,
2,1,0,1,0,37597,0.822805,0.822528,23.2238,57,0.29369,10,0.0191022,-1.63407,0.140435,0.420123,0.81231,
2,1,0,0,0,37597.8,0.826801,0.826562,24.592,57,0.312795,10,0.0203268,-1.60921,0.132717,0.444556,0.815741,
2,1,0,1,0,37598.6,0.830796,0.830559,26.0143,57,0.333027,10,0.0216064,-1.58479,0.149967,0.393419,0.819113,
2,1,0,0,0,37599.4,0.834791,0.83456,27.3869,57,0.354372,10,0.022856,-1.56246,0.150972,0.390802,0.82251,
2,1,0,1,0,37600.2,0.838786,0.838509,28.8271,57,0.376836,10,0.0241718,-1.5402,0.150288,0.39258,0.825825,
2,1,0,1,0,37601,0.842781,0.842524,30.2908,57,0.400467,10,0.0255207,-1.51869,0.158772,0.371603,0.829196,
2,1,0,1,0,37601.8,0.846776,0.846519,31.7739,57,0.425272,10,0.0268972,-1.49793,0.166556,0.354236,0.832539,
2,1,0,0,0,37602.5,0.849723,0.849456,32.7471,57,0.447949,10,0.0278172,-1.48483,0.049327,1.1961,0.835047,
2,1,0,1,0,37603.3,0.845728,0.845435,30.6103,57,0.473174,10,0.025879,-1.51413,0.124624,0.473425,0.831966,
2,1,0,0,0,37604.1,0.841732,0.841489,28.8462,57,0.496912,10,0.0242737,-1.53991,0.123756,0.476745,0.828797,
2,1,0,1,0,37604.9,0.837737,0.83747,27.1484,57,0.519269,10,0.0227359,-1.56626,0.122709,0.480813,0.825524,
2,1,0,1,0,37605.7,0.833742,0.833484,25.5184,57,0.540292,10,0.0212692,-1.59315,0.124657,0.473297,0.822256,
2,1,0,1,0,37606.5,0.829747,0.829509,24.0177,57,0.560068,10,0.0199229,-1.61947,0.125926,0.468528,0.818941,
2,1,0,1,0,37607.3,0.825752,0.825482,22.5874,57,0.578679,10,0.0186455,-1.64613,0.124899,0.472382,0.815544,
2,1,0,0,0,37608.1,0.821757,0.821495,21.2028,57,0.59616,10,0.017418,-1.67361,0.124816,0.472696,0.812166,
2,1,0,1,0,37608.9,0.817761,0.817515,19.8919,57,0.612569,10,0.0162619,-1.70132,0.121508,0.485565,0.808762,
2,1,0,1,0,37609.7,0.813766,0.813418,18.6371,57,0.62795,10,0.0151597,-1.72962,0.1219,0.484004,0.805217,
2,1,0,1,0,37610.5,0.809771,0.809506,17.4521,57,0.64235,10,0.0141276,-1.75815,0.123231,0.478777,0.801828,
2,1,0,1,0,37611.3,0.805776,0.805497,16.3281,57,0.655835,10,0.0131522,-1.78706,0.116267,0.507453,0.798313,
2,1,0,0,0,37612.1,0.801781,0.801502,15.2437,57,0.668436,10,0.0122179,-1.81691,0.111526,0.529026,0.794795,
2,1,0,1,0,37612.9,0.797786,0.797516,14.1633,57,0.680152,10,0.0112955,-1.84883,0.117614,0.501641,0.791284,
2,1,0,1,0,37613.7,0.79379,0.793472,13.1863,57,0.691068,10,0.010463,-1.87988,0.112802,0.52304,0.78767,
2,1,0,1,0,37614.5,0.789795,0.789499,12.2603,57,0.701224,10,0.00967951,-1.9115,0.112245,0.525635,0.784105,
2,1,0,1,0,37615.3,0.7858,0.785524,11.3827,57,0.710658,10,0.00894141,-1.94375,0.110559,0.533653,0.780516,
2,1,0,0,0,37616.1,0.781805,0.781528,10.5573,57,0.719411,10,0.0082508,-1.97645,0.111268,0.530251,0.776883,
2,1,0,1,0,37616.9,0.77781,0.777524,9.78242,57,0.727523,10,0.00760607,-2.00955,0.111169,0.530725,0.77322,
2,1,0,0,0,37617.7,0.773814,0.773544,9.06205,57,0.73504,10,0.0070099,-2.04277,0.109434,0.53914,0.769557,
2,1,0,1,0,37618.5,0.769819,0.769526,8.38596,57,0.742002,10,0.00645322,-2.07645,0.11013,0.53573,0.765836,
2,1,0,1,0,37619.3,0.765824,0.765572,7.75084,57,0.748436,10,0.00593383,-2.11065,0.107186,0.550445,0.762162,
2,1,0,1,0,37620.1,0.761829,0.761567,7.14948,57,0.754379,10,0.00544481,-2.14573,0.106301,0.555028,0.758422,
2,1,0,1,0,37620.9,0.757834,0.757609,6.58354,57,0.759857,10,0.00498775,-2.18154,0.102842,0.573696,0.754712,
2,1,0,0,0,37621.7,0.753839,0.753577,6.05171,57,0.764894,10,0.00456043,-2.21812,0.102766,0.574122,0.750914,
2,1,0,1,0,37622.5,0.749844,0.749533,5.55544,57,0.769521,10,0.00416399,-2.25528,0.101131,0.583399,0.747088,
2,1,0,1,0,37623.3,0.745848,0.745588,5.09157,57,0.773766,10,0.00379622,-2.29315,0.0977504,0.603578,0.743347,
2,1,0,1,0,37624.1,0.741853,0.741582,4.65433,57,0.777649,10,0.00345157,-2.33214,0.096898,0.608888,0.739534,
2,1,0,1,0,37624.9,0.737858,0.737546,4.24419,57,0.781196,10,0.00313029,-2.3722,0.0940291,0.627465,0.735679,
2,1,0,0,0,37625.7,0.733863,0.73358,3.85972,57,0.784424,10,0.00283141,-2.41344,0.0909174,0.648941,0.731882,
2,1,0,1,0,37626.5,0.729868,0.729629,3.49556,57,0.787353,10,0.00255046,-2.45648,0.0883971,0.667443,0.728091,
2,1,0,1,0,37627.3,0.725872,0.725584,3.15816,57,0.790003,10,0.00229151,-2.50057,0.0862185,0.684308,0.724195,
2,1,0,1,0,37628.1,0.721877,0.721581,2.84465,57,0.792391,10,0.00205265,-2.54597,0.0832567,0.708651,0.72033,
2,1,0,1,0,37628.9,0.717882,0.717625,2.54995,57,0.794538,10,0.00182991,-2.59347,0.0803891,0.73393,0.716503,
2,1,0,0,0,37629.7,0.713887,0.713583,2.27807,57,0.796458,10,0.00162559,-2.64243,0.0762089,0.774188,0.71258,
2,1,0,1,0,37630.5,0.709892,0.709666,2.02393,57,0.798167,10,0.00143632,-2.6938,0.0753012,0.78352,0.708775,
2,1,0,0,0,37631.3,0.705897,0.705595,1.79018,57,0.799682,10,0.00126314,-2.7471,0.071545,0.824656,0.704807,
2,1,0,1,0,37632.1,0.701901,0.701606,1.57449,57,0.801018,10,0.00110467,-2.80286,0.0673708,0.87575,0.700914,
2,1,0,1,0,37632.9,0.697906,0.697603,1.37493,57,0.802188,10,0.000959153,-2.86172,0.0664184,0.888308,0.696998,
2,1,0,1,0,37633.7,0.693911,0.693653,1.19623,57,0.803207,10,0.000829765,-2.92219,0.0628024,0.939454,0.693126,
2,1,0,1,0,37634.5,0.689916,0.689613,1.03297,57,0.804089,10,0.000712349,-2.98591,0.0597834,0.986896,0.689159,
2,1,0,0,0,37635.3,0.685921,0.685659,0.885573,57,0.804847,10,0.000607201,-3.05278,0.0582255,1.0133,0.685269,
2,1,0,1,0,37636.1,0.681926,0.681632,0.752859,57,0.805493,10,0.000513173,-3.12329,0.0541687,1.08919,0.6813,
2,1,0,1,0,37636.9,0.67793,0.677636,0.634103,57,0.806039,10,0.000429691,-3.19784,0.0509603,1.15776,0.677357,
2,1,0,1,0,37637.7,0.673935,0.67361,0.529806,57,0.806496,10,0.000356882,-3.27588,0.0496964,1.18721,0.673377,
2,1,0,1,0,37638.5,0.66994,0.669669,0.437911,57,0.806874,10,0.000293255,-3.35861,0.0455841,1.29431,0.669476,
2,1,0,0,0,37639.3,0.665945,0.665697,0.354454,57,0.807182,10,0.000235959,-3.45044,0.0429696,1.37306,0.665541,
2,1,0,1,0,37640.1,0.66195,0.661633,0.285075,57,0.80743,10,0.000188615,-3.54504,0.0391134,1.50844,0.661508,
2,1,0,0,0,37640.9,0.657955,0.657663,0.223645,57,0.807625,10,0.000147083,-3.65044,0.0367362,1.60605,0.657565,
2,1,0,1,0,37641.7,0.653959,0.653696,0.170848,57,0.807775,10,0.000111683,-3.76739,0.0314727,1.87464,0.653621,
2,1,0,1,0,37642.5,0.649964,0.649702,0.125864,57,0.807885,10,8.17739e-05,-3.9001,0.0271893,2.16997,0.649646,
2,1,0,1,0,37643.3,0.64597,0.645717,0.0874864,57,0.807962,10,5.64915e-05,-4.05806,0.0230071,2.56442,0.645679,
2,1,0,1,0,37644.1,0.641974,0.641689,0.0543549,57,0.808012,10,3.48789e-05,-4.26476,0.0156003,3.78199,0.641665,
2,1,0,0,0,37644.9,0.637979,0.637674,0.0271233,57,0.808036,10,1.72958e-05,-4.56666,0.00951113,6.20326,0.637662,
2,1,0,1,0,37645.7,0.633983,0.633679,0.003503,57,0.808041,10,2.21978e-06,-5.45556,0.00975224,6.04989,0.633677,
2,0,0,1,0,37646.5,0.629988,0.629694,-0.0150143,57,0.808029,10,-9.45441e-06,-4.8235,-0.00681975,-8.65134,0.629701,
2,0,0,1,0,37647.3,0.625993,0.625738,-0.0317344,57,0.808003,10,-1.98574e-05,-4.49847,-0.0179927,-3.27911,0.625752,
2,0,0,1,0,37648.1,0.621998,0.621711,-0.0446879,57,0.807965,10,-2.7783e-05,-4.34981,-0.0328652,-1.79521,0.621731,
2,0,0,0,0,37648.9,0.618003,0.617702,-0.0557272,57,0.807918,10,-3.44228e-05,-4.25393,-0.0446723,-1.32073,0.617726,
2,0,0,1,0,37649.7,0.614008,0.613725,-0.0581521,57,0.807862,10,-3.56894e-05,-4.23543,-0.0837402,-0.70456,0.613751,
2,0,0,1,0,37650.5,0.610012,0.609769,-0.0729761,57,0.8078,10,-4.44985e-05,-4.13682,-0.0858635,-0.687137,0.609801,
2,0,0,1,0,37651.3,0.606017,0.605718,-0.0794379,57,0.807731,10,-4.8117e-05,-4.09997,-0.125976,-0.468344,0.605753,
2,0,0,1,0,37652.1,0.602022,0.601744,-0.0855193,57,0.807658,10,-5.14607e-05,-4.06794,-0.178297,-0.330909,0.601782,
2,0,0,0,0,37652.9,0.598027,0.597739,-0.0898757,57,0.80758,10,-5.37221e-05,-4.04636,-0.140534,-0.419827,0.597778,
2,0,0,1,0,37653.7,0.594032,0.593683,-0.0946474,57,0.807498,10,-5.61905e-05,-4.02389,-0.274363,-0.215044,0.593724,
2,0,0,0,0,37654.5,0.590037,0.589739,-0.0978879,57,0.807414,10,-5.77283e-05,-4.00927,-0.291066,-0.202703,0.589782,
2,0,0,1,0,37655.3,0.586041,0.585736,-0.100784,57,0.807327,10,-5.90327e-05,-3.99661,-0.303917,-0.194132,0.58578,
2,0,0,1,0,37656.1,0.582046,0.581746,-0.103799,57,0.807237,10,-6.03848e-05,-3.98381,-0.444264,-0.132804,0.581791,
2,0,0,1,0,37656.9,0.578052,0.577798,-0.10592,57,0.807146,10,-6.12005e-05,-3.97502,-0.420242,-0.140395,0.577845,
2,0,0,1,0,37657.7,0.574056,0.573731,-0.10753,57,0.807053,10,-6.16933e-05,-3.96847,-0.62003,-0.0951567,0.573778,
2,0,0,0,0,37658.4,0.570061,0.56975,-0.109444,57,0.806958,10,-6.23557e-05,-3.96081,-0.602722,-0.0978892,0.569798,
2,0,0,1,0,37659.2,0.566065,0.565728,-0.111601,57,0.806862,10,-6.31361e-05,-3.95233,-0.3938,-0.149822,0.565777,
2,0,0,1,0,37660,0.56207,0.561796,-0.112664,57,0.806765,10,-6.3294e-05,-3.94822,-0.932547,-0.0632676,0.561845,
2,0,0,1,0,37660.8,0.558075,0.557794,-0.114205,57,0.806666,10,-6.3703e-05,-3.94231,-0.714741,-0.0825474,0.557844,
2,0,0,1,0,37661.6,0.55408,0.553755,-0.114803,57,0.806567,10,-6.35729e-05,-3.94005,-0.492916,-0.119696,0.553805,
2,0,0,0,0,37662.4,0.550085,0.549773,-0.116914,57,0.806467,10,-6.42764e-05,-3.93213,5.53931,0.0106511,0.549825,
2,0,0,1,0,37663.2,0.54609,0.545771,-0.117643,57,0.806365,10,-6.42063e-05,-3.92943,-1.41426,-0.041718,0.545823,
2,0,0,1,0,37664,0.542094,0.541802,-0.118672,57,0.806263,10,-6.42968e-05,-3.92565,-0.684201,-0.086232,0.541854,
2,0,0,1,0,37664.8,0.538099,0.5378,-0.120203,57,0.80616,10,-6.46454e-05,-3.92008,-1.90217,-0.0310172,0.537853,
2,0,0,1,0,37665.6,0.534104,0.533839,-0.120525,57,0.806056,10,-6.43411e-05,-3.91892,-0.689335,-0.0855898,0.533892,
2,0,0,0,0,37666.4,0.530109,0.529775,-0.122503,57,0.805951,10,-6.48991e-05,-3.91185,-1.78685,-0.033019,0.529829,
2,0,0,1,0,37667.2,0.526114,0.525801,-0.123665,57,0.805845,10,-6.50231e-05,-3.90775,-0.988751,-0.0596712,0.525855,
2,0,0,0,0,37668,0.522119,0.521841,-0.124014,57,0.805739,10,-6.47155e-05,-3.90653,-0.860858,-0.0685363,0.521896,
2,0,0,1,0,37668.8,0.518123,0.517821,-0.124678,57,0.805631,10,-6.4561e-05,-3.90421,7.81129,0.00755317,0.517875,
2,0,0,1,0,37669.6,0.514128,0.513821,-0.125612,57,0.805524,10,-6.45421e-05,-3.90097,-0.819882,-0.0719616,0.513877,
2,0,0,1,0,37670.4,0.510133,0.509829,-0.126377,57,0.805415,10,-6.44308e-05,-3.89833,-2.35724,-0.0250293,0.509885,
2,0,0,1,0,37671.2,0.506138,0.505865,-0.127047,57,0.805305,10,-6.42685e-05,-3.89604,-1.11183,-0.0530657,0.505921,
2,0,0,0,0,37672,0.502143,0.501818,-0.127914,57,0.805195,10,-6.41896e-05,-3.89308,-0.813357,-0.0725389,0.501875,
2,0,0,1,0,37672.8,0.498148,0.497821,-0.129732,57,0.805083,10,-6.45835e-05,-3.88695,-1.336,-0.0441616,0.497878,
2,0,0,1,0,37673.6,0.494152,0.493831,-0.130238,57,0.804971,10,-6.43154e-05,-3.88526,-2.10866,-0.0279799,0.493889,
2,0,0,1,0,37674.4,0.490157,0.489861,-0.131516,57,0.804859,10,-6.44245e-05,-3.88102,-0.596447,-0.0989192,0.489919,
2,0,0,1,0,37675.2,0.486162,0.485861,-0.133028,57,0.804745,10,-6.46331e-05,-3.87606,-75.8902,-0.000777439,0.485919,
2,0,0,0,0,37676,0.482167,0.481872,-0.134641,57,0.80463,10,-6.48797e-05,-3.87082,-0.552528,-0.106782,0.481932,
2,0,0,1,0,37676.8,0.478172,0.477882,-0.134582,57,0.804515,10,-6.43143e-05,-3.87101,-0.883212,-0.0668017,0.477941,
2,0,0,0,0,37677.6,0.474177,0.473877,-0.136006,57,0.804398,10,-6.44501e-05,-3.86644,7.91793,0.00745144,0.473937,
2,0,0,1,0,37678.4,0.470181,0.469837,-0.136868,57,0.80428,10,-6.43058e-05,-3.8637,-0.605869,-0.0973807,0.469898,
2,0,0,1,0,37679.2,0.466186,0.465894,-0.13919,57,0.804162,10,-6.4848e-05,-3.85639,-1.06342,-0.0554816,0.465955,
2,0,0,1,0,37680,0.462191,0.461866,-0.140037,57,0.804042,10,-6.46782e-05,-3.85376,-0.964772,-0.0611544,0.461928,
2,0,0,1,0,37680.8,0.458196,0.457908,-0.140579,57,0.803921,10,-6.43721e-05,-3.85208,-0.624598,-0.0944608,0.45797,
2,0,0,0,0,37681.6,0.454201,0.453919,-0.143447,57,0.803799,10,-6.51131e-05,-3.84331,-4.10049,-0.0143885,0.453982,
2,0,0,1,0,37682.4,0.450205,0.449881,-0.14471,57,0.803676,10,-6.51023e-05,-3.8395,-0.610261,-0.0966799,0.449945,
2,0,0,1,0,37683.2,0.44621,0.44589,-0.145483,57,0.803551,10,-6.48697e-05,-3.83719,-0.641994,-0.0919012,0.445954,
2,0,0,1,0,37684,0.442215,0.441954,-0.147589,57,0.803425,10,-6.52276e-05,-3.83095,-2.00172,-0.0294746,0.442019,
2,0,0,1,0,37684.8,0.43822,0.437899,-0.149066,57,0.803297,10,-6.52761e-05,-3.82662,-0.60151,-0.0980864,0.437965,
2,0,0,0,0,37685.6,0.434225,0.433925,-0.150649,57,0.803168,10,-6.53704e-05,-3.82203,-0.929502,-0.0634749,0.433991,
2,0,0,1,0,37686.4,0.43023,0.429946,-0.152638,57,0.803038,10,-6.56262e-05,-3.81634,-0.749553,-0.0787135,0.430013,
2,0,0,1,0,37687.2,0.426234,0.425936,-0.154105,57,0.802907,10,-6.56387e-05,-3.81218,-0.979772,-0.0602181,0.426004,
2,0,0,1,0,37688,0.422239,0.421931,-0.155658,57,0.802774,10,-6.5677e-05,-3.80783,-1.43921,-0.0409947,0.421999,
2,0,0,1,0,37688.8,0.418244,0.417925,-0.158095,57,0.802639,10,-6.60719e-05,-3.80108,-0.55802,-0.105731,0.417994,
2,0,0,0,0,37689.6,0.414249,0.413946,-0.158561,57,0.802503,10,-6.56357e-05,-3.7998,-0.535774,-0.110121,0.414016,
2,0,0,1,0,37690.4,0.410254,0.409912,-0.162033,57,0.802366,10,-6.64192e-05,-3.7904,-2.91278,-0.0202556,0.409983,
2,0,0,0,0,37691.2,0.406259,0.405936,-0.163905,57,0.802227,10,-6.6535e-05,-3.78541,-0.771402,-0.0764841,0.406009,
2,0,0,1,0,37692,0.402263,0.401997,-0.16586,57,0.802086,10,-6.66751e-05,-3.78026,-0.677265,-0.0871151,0.40207,
2,0,0,1,0,37692.8,0.398268,0.397942,-0.167085,57,0.801944,10,-6.64903e-05,-3.77706,-1.04787,-0.0563046,0.398016,
2,0,0,1,0,37693.6,0.394274,0.393949,-0.16874,57,0.8018,10,-6.6475e-05,-3.77278,-0.540834,-0.109091,0.394023,
2,0,0,1,0,37694.4,0.390278,0.389958,-0.170795,57,0.801655,10,-6.66027e-05,-3.76753,-0.87266,-0.0676094,0.390033,
2,0,0,0,0,37695.2,0.386283,0.385977,-0.173455,57,0.801508,10,-6.69495e-05,-3.76081,-0.639723,-0.0922275,0.386053,
2,0,0,1,0,37696,0.382287,0.381962,-0.175306,57,0.801359,10,-6.69603e-05,-3.7562,-1.46087,-0.0403868,0.38204,
2,0,0,1,0,37696.8,0.378292,0.377953,-0.177985,57,0.801208,10,-6.72702e-05,-3.74962,-0.783575,-0.075296,0.378032,
2,0,0,1,0,37697.6,0.374297,0.373981,-0.178796,57,0.801056,10,-6.68663e-05,-3.74764,-0.790876,-0.0746008,0.37406,
2,0,0,1,0,37698.4,0.370303,0.369938,-0.181161,57,0.800902,10,-6.70185e-05,-3.74194,-0.581612,-0.101442,0.370018,
2,0,0,0,0,37699.2,0.366307,0.365968,-0.183961,57,0.800747,10,-6.73239e-05,-3.73527,-0.625794,-0.0942802,0.366049,
2,0,0,1,0,37700,0.362312,0.361994,-0.185729,57,0.800589,10,-6.7233e-05,-3.73112,-0.680106,-0.0867512,0.362076,
2,0,0,1,0,37700.8,0.358316,0.358051,-0.188564,57,0.800429,10,-6.75158e-05,-3.72454,-1.05578,-0.0558826,0.358134,
2,0,0,1,0,37701.6,0.354321,0.35401,-0.191018,57,0.800268,10,-6.76221e-05,-3.71893,-1.33569,-0.0441719,0.354094,
2,0,0,1,0,37702.4,0.350327,0.350013,-0.192159,57,0.800105,10,-6.72583e-05,-3.71634,-0.661561,-0.089183,0.350098,
2,0,0,0,0,37703.2,0.346331,0.346036,-0.193985,57,0.799941,10,-6.71257e-05,-3.71223,-1.09145,-0.0540564,0.346122,
2,0,0,1,0,37704,0.342336,0.34203,-0.197193,57,0.799774,10,-6.74459e-05,-3.70511,-0.765332,-0.0770907,0.342117,
2,0,0,0,0,37704.8,0.338341,0.338028,-0.199631,57,0.799605,10,-6.7481e-05,-3.69977,-1.37129,-0.0430252,0.338116,
2,0,0,1,0,37705.6,0.334345,0.334031,-0.201553,57,0.799435,10,-6.73248e-05,-3.69561,-0.493314,-0.119599,0.33412,
2,0,0,1,0,37706.4,0.33035,0.330053,-0.204435,57,0.799263,10,-6.74742e-05,-3.68945,-0.855832,-0.0689388,0.330143,
2,0,0,1,0,37707.2,0.326355,0.326054,-0.205647,57,0.799088,10,-6.7052e-05,-3.68688,-0.977857,-0.060336,0.326145,
2,0,0,1,0,37708,0.32236,0.322037,-0.209092,57,0.798912,10,-6.73354e-05,-3.67966,-0.563031,-0.10479,0.322129,
2,0,0,0,0,37708.8,0.318365,0.318053,-0.210585,57,0.798734,10,-6.69772e-05,-3.67657,-0.801678,-0.0735956,0.318146,
2,0,0,1,0,37709.6,0.31437,0.314074,-0.214299,57,0.798554,10,-6.73055e-05,-3.66898,-1.50596,-0.0391777,0.314168,
2,0,0,1,0,37710.4,0.310374,0.310064,-0.216449,57,0.798371,10,-6.7113e-05,-3.66464,-0.589123,-0.100149,0.310159,
2,0,0,1,0,37711.2,0.306379,0.30605,-0.219313,57,0.798187,10,-6.71208e-05,-3.65893,-0.918636,-0.0642257,0.306146,
2,0,0,1,0,37712,0.302385,0.302038,-0.220784,57,0.798001,10,-6.66852e-05,-3.65603,-0.577113,-0.102233,0.302135,
2,0,0,0,0,37712.8,0.298389,0.298091,-0.223263,57,0.797813,10,-6.65526e-05,-3.65118,-0.644591,-0.0915309,0.298189,
2,0,0,1,0,37713.6,0.294394,0.294094,-0.226461,57,0.797622,10,-6.66008e-05,-3.64501,-1.44948,-0.0407042,0.294194,
2,0,0,1,0,37714.4,0.290398,0.290066,-0.228474,57,0.79743,10,-6.62726e-05,-3.64116,-0.810976,-0.0727519,0.290167,
2,0,0,1,0,37715.2,0.286403,0.286098,-0.231231,57,0.797236,10,-6.61548e-05,-3.63595,-0.939372,-0.0628079,0.286199,
2,0,0,1,0,37716,0.282408,0.282075,-0.233946,57,0.797039,10,-6.59903e-05,-3.63088,-1.90103,-0.0310357,0.282178,
2,0,0,1,0,37716.8,0.278414,0.278107,-0.236224,57,0.796841,10,-6.56955e-05,-3.62668,-0.508389,-0.116053,0.278211,
2,0,0,1,0,37717.6,0.274418,0.274099,-0.23953,57,0.79664,10,-6.56551e-05,-3.62064,-0.848716,-0.0695168,0.274205,
2,0,0,0,0,37718.4,0.270423,0.270126,-0.242834,57,0.796437,10,-6.55958e-05,-3.61469,-0.967742,-0.0609666,0.270233,
2,0,0,1,0,37719.2,0.266427,0.266114,-0.243345,57,0.796233,10,-6.47576e-05,-3.61378,-1.26704,-0.0465653,0.266221,
2,0,0,1,0,37720,0.262432,0.26206,-0.246835,57,0.796026,10,-6.46854e-05,-3.60759,-1.11468,-0.0529298,0.262168,
2,0,0,1,0,37720.8,0.258437,0.258132,-0.248732,57,0.795817,10,-6.42057e-05,-3.60427,-0.86503,-0.0682057,0.258241,
2,0,0,1,0,37721.6,0.254442,0.254115,-0.25093,57,0.795606,10,-6.37651e-05,-3.60045,-0.741514,-0.079567,0.254225,
2,0,0,0,0,37722.4,0.250447,0.250164,-0.253991,57,0.795394,10,-6.35394e-05,-3.59518,17.7702,0.00332016,0.250276,
2,0,0,1,0,37723.2,0.246452,0.246116,-0.256402,57,0.795179,10,-6.31047e-05,-3.59108,-0.517111,-0.114095,0.246229,
2,0,0,1,0,37724,0.242456,0.24214,-0.259188,57,0.794962,10,-6.27597e-05,-3.58638,-0.669066,-0.0881826,0.242254,
2,0,0,1,0,37724.8,0.238461,0.238164,-0.260653,57,0.794744,10,-6.20783e-05,-3.58394,-1.09197,-0.054031,0.238279,
2,0,0,1,0,37725.6,0.234467,0.23415,-0.263087,57,0.794524,10,-6.16018e-05,-3.5799,-1.08604,-0.0543257,0.234266,
2,0,0,0,0,37726.4,0.230471,0.230152,-0.265478,57,0.794301,10,-6.11002e-05,-3.57597,-1.44765,-0.0407558,0.230269,
2,0,0,1,0,37727.2,0.226476,0.226166,-0.269159,57,0.794077,10,-6.08745e-05,-3.56999,-1.2497,-0.0472114,0.226284,
2,0,0,0,0,37728,0.222481,0.222163,-0.269757,57,0.79385,10,-5.993e-05,-3.56903,-0.759686,-0.0776637,0.222281,
2,0,0,1,0,37728.8,0.218485,0.218128,-0.273893,57,0.793622,10,-5.97437e-05,-3.56242,-2.33969,-0.0252171,0.218248,
2,0,0,1,0,37729.6,0.21449,0.214165,-0.276432,57,0.793391,10,-5.92022e-05,-3.55841,-0.570094,-0.103492,0.214287,
2,0,0,1,0,37730.4,0.210496,0.210127,-0.278583,57,0.793158,10,-5.85379e-05,-3.55505,-0.789499,-0.074731,0.21025,
2,0,0,1,0,37731.2,0.2065,0.206129,-0.284329,57,0.792923,10,-5.86086e-05,-3.54618,-0.885506,-0.0666285,0.206255,
2,0,0,0,0,37732,0.202505,0.202165,-0.284688,57,0.792685,10,-5.75539e-05,-3.54563,-1.06838,-0.055224,0.20229,
2,0,0,1,0,37732.8,0.198509,0.198215,-0.288645,57,0.792445,10,-5.72138e-05,-3.53964,-0.694029,-0.0850108,0.198342,
2,0,0,1,0,37733.6,0.194514,0.194182,-0.290968,57,0.792202,10,-5.65007e-05,-3.53615,-0.731481,-0.0806583,0.19431,
2,0,0,1,0,37734.4,0.190519,0.190209,-0.294206,57,0.791956,10,-5.59605e-05,-3.53135,-0.751284,-0.0785322,0.190338,
2,0,0,1,0,37735.2,0.186524,0.186245,-0.299457,57,0.791706,10,-5.57723e-05,-3.52367,-0.635553,-0.0928326,0.186376,
2,0,0,0,0,37736,0.182529,0.182184,-0.305016,57,0.791453,10,-5.55692e-05,-3.51568,-0.483905,-0.121925,0.182319,
2,0,0,1,0,37736.8,0.178534,0.178232,-0.309775,57,0.791196,10,-5.52119e-05,-3.50895,-0.4931,-0.119651,0.178369,
2,0,0,1,0,37737.6,0.174538,0.174194,-0.315807,57,0.790935,10,-5.50116e-05,-3.50058,-0.515449,-0.114463,0.174333,
2,0,0,1,0,37738.4,0.170543,0.170251,-0.322892,57,0.790668,10,-5.49725e-05,-3.49094,-0.350445,-0.168357,0.170393,
2,0,0,1,0,37739.2,0.166549,0.166202,-0.330477,57,0.790395,10,-5.49259e-05,-3.48086,-0.355586,-0.165923,0.166348,
2,0,0,0,0,37740,0.162553,0.162234,-0.341379,57,0.790114,10,-5.53833e-05,-3.46676,-0.248381,-0.237538,0.162384,
2,0,0,1,0,37740.7,0.158558,0.158223,-0.352812,57,0.789825,10,-5.58231e-05,-3.45246,-0.230633,-0.255818,0.158379,
2,0,0,0,0,37741.5,0.154563,0.154248,-0.3716,57,0.789523,10,-5.73185e-05,-3.42992,-0.195785,-0.301351,0.154412,
2,0,0,1,0,37742.3,0.150567,0.150255,-0.393117,57,0.789207,10,-5.90679e-05,-3.40548,-0.135504,-0.435411,0.150428,
2,0,0,1,0,37743.1,0.146572,0.146245,-0.421252,57,0.78887,10,-6.1606e-05,-3.37546,-0.122427,-0.481918,0.14643,
2,0,0,1,0,37743.9,0.142578,0.142243,-0.460216,57,0.788507,10,-6.54626e-05,-3.33704,-0.0958219,-0.615726,0.142446,
2,0,0,1,0,37744.7,0.138582,0.138284,-0.505815,57,0.788109,10,-6.9946e-05,-3.29601,-0.0938821,-0.628448,0.138506,
2,0,0,0,0,37745.5,0.134587,0.134275,-0.5567,57,0.787672,10,-7.4751e-05,-3.25438,-0.0991028,-0.595342,0.13452,
2,0,0,1,0,37746.3,0.130591,0.13024,-0.608224,57,0.787193,10,-7.92151e-05,-3.21594,-0.115203,-0.51214,0.130508,
2,0,0,1,0,37747.1,0.126596,0.126294,-0.649316,57,0.786677,10,-8.20051e-05,-3.18754,-0.166374,-0.354623,0.12658,
2,0,0,1,0,37747.9,0.122602,0.122311,-0.680887,57,0.786132,10,-8.32798e-05,-3.16693,-0.271664,-0.21718,0.12261,
2,0,0,1,0,37748.7,0.118607,0.118294,-0.70027,57,0.785567,10,-8.28379e-05,-3.15473,-0.436152,-0.135274,0.118602,
2,0,0,0,0,37749.5,0.114611,0.114283,-0.7078,57,0.784991,10,-8.08898e-05,-3.15009,-1.79171,-0.0329294,0.114595,
2,0,0,1,0,37750.3,0.110616,0.11026,-0.709296,57,0.784412,10,-7.82071e-05,-3.14917,7.04193,0.00837838,0.110572,
2,0,0,1,0,37751.1,0.10662,0.106261,-0.706528,57,0.783834,10,-7.50765e-05,-3.15087,1.56313,0.0377447,0.106572,
2,0,0,1,0,37751.9,0.102625,0.102299,-0.70009,57,0.783259,10,-7.16183e-05,-3.15485,0.868367,0.0679436,0.102607,
2,0,0,1,0,37752.7,0.0986305,0.0983117,-0.693459,57,0.78269,10,-6.81752e-05,-3.15898,0.955016,0.0617791,0.0986169,
2,0,0,0,0,37753.5,0.0946351,0.0943011,-0.68289,57,0.782126,10,-6.43973e-05,-3.16565,0.744274,0.0792719,0.0946016,
2,0,0,1,0,37754.3,0.0906399,0.0902938,-0.676998,57,0.78157,10,-6.11287e-05,-3.16941,0.510871,0.115489,0.0905917,
2,0,0,0,0,37755.1,0.0866448,0.0863109,-0.666964,57,0.781021,10,-5.75663e-05,-3.1759,0.748236,0.0788522,0.0866044,
2,0,0,1,0,37755.9,0.0826492,0.0823511,-0.657703,57,0.78048,10,-5.41625e-05,-3.18197,0.615173,0.095908,0.0826404,
2,0,0,1,0,37756.7,0.0786544,0.0783238,-0.648552,57,0.779947,10,-5.0797e-05,-3.18806,0.871717,0.0676825,0.0786092,
2,0,0,1,0,37757.5,0.0746596,0.0743298,-0.638555,57,0.779421,10,-4.74636e-05,-3.1948,0.668739,0.0882257,0.0746107,
2,0,0,1,0,37758.3,0.0706641,0.0703476,-0.629337,57,0.778903,10,-4.42723e-05,-3.20112,0.563667,0.104672,0.0706245,
2,0,0,0,0,37759.1,0.0666689,0.0663074,-0.621488,57,0.778391,10,-4.12093e-05,-3.20657,0.792301,0.0744666,0.0665809,
2,0,0,1,0,37759.9,0.0626737,0.0623606,-0.610343,57,0.777886,10,-3.80614e-05,-3.21443,0.599038,0.0984912,0.0626292,
2,0,0,1,0,37760.7,0.0586783,0.0583531,-0.603465,57,0.777388,10,-3.5214e-05,-3.21935,0.468603,0.125906,0.0586186,
2,0,0,1,0,37761.5,0.0546835,0.0543683,-0.593109,57,0.776897,10,-3.22464e-05,-3.22687,0.706787,0.0834763,0.0546293,
2,0,0,1,0,37762.3,0.0506886,0.0503307,-0.58305,57,0.776414,10,-2.93453e-05,-3.23429,0.551517,0.106978,0.0505872,
2,0,0,0,0,37763.1,0.046693,0.0463421,-0.573568,57,0.77594,10,-2.65803e-05,-3.24142,0.476697,0.123768,0.0465945,
2,0,0,1,0,37763.9,0.0426979,0.0423868,-0.562517,57,0.775473,10,-2.38433e-05,-3.24986,0.534949,0.110291,0.0426343,
2,0,0,1,0,37764.7,0.0387022,0.0383951,-0.552732,57,0.775015,10,-2.12222e-05,-3.25749,0.44381,0.13294,0.0386383,
2,0,0,1,0,37765.5,0.0347074,0.0343625,-0.542522,57,0.774566,10,-1.86424e-05,-3.26558,0.520938,0.113257,0.0346012,
2,0,0,1,0,37766.3,0.0307126,0.0303928,-0.530428,57,0.774125,10,-1.61212e-05,-3.27537,0.558718,0.105599,0.0306262,
2,0,0,0,0,37767.1,0.0267172,0.0264012,-0.523047,57,0.773692,10,-1.38091e-05,-3.28146,0.480909,0.122684,0.0266313,
2,0,0,1,0,37767.9,0.022722,0.0223769,-0.514849,57,0.773266,10,-1.15207e-05,-3.28832,0.912841,0.0646334,0.0226035,
2,0,0,0,0,37768.7,0.0187268,0.0183877,-0.509552,57,0.772845,10,-9.36948e-06,-3.29281,0.58793,0.100352,0.0186119,
2,0,0,1,0,37769.5,0.0147313,0.0144075,-0.504236,57,0.77243,10,-7.26479e-06,-3.29737,1.05698,0.0558195,0.0146294,
2,0,0,1,0,37770.3,0.0107365,0.0104242,-0.499048,57,0.772018,10,-5.20215e-06,-3.30186,1.68758,0.0349614,0.0106437,
2,0,0,1,0,37771.1,0.00674163,0.00642453,-0.497342,57,0.771608,10,-3.19519e-06,-3.30334,32.2201,0.00183116,0.00664336,
2,0,0,1,0,37771.9,0.00274612,0.00243597,-0.497622,57,0.771199,10,-1.2122e-06,-3.3031,-2.89506,-0.0203795,0.00265493,
2,0,0,0,0,37772.4,0.000274105,-0.000120135,-0.499155,57,0.770943,10,5.99659e-08,-3.30176, , ,9.94934e-05,