File: Figure_codes/Fig_3-5/workspace_calculate_alpha_eff/20221101_1-115_003_TrumpetPlot_ParaChange_from10_every3_16_CV_C01_70.csv
mode,ox/red,error,control changes,counter inc.,time/s,control/V,Ewe/V,<I>/mA,cycle number,(Q-Qo)/C,I Range,P/W,log(|I|),Tafel slope mV/dec,alpha_eff,E-IR/V,
2,0,0,0,0,46913.1,2.44065e-05,-0.000363498,-0.101302,71,0.0000000E+000,10,3.68231e-08,-3.99438, , ,-0.000318925,
2,1,0,0,0,46913.9,0.00379485,0.00347305,0.152212,71,9.53831e-05,10,5.28642e-07,-3.81755,0.034227,1.72378,0.00340608,
2,1,0,1,0,46914.7,0.00779002,0.00746442,0.175379,71,0.000238818,10,1.3091e-06,-3.75602,0.0807213,0.73091,0.00738726,
2,1,0,0,0,46915.5,0.0117852,0.0114569,0.191265,71,0.000397825,10,2.1913e-06,-3.71836,0.12045,0.489828,0.0113727,
2,1,0,1,0,46916.3,0.0157806,0.0154633,0.20731,71,0.000568663,10,3.20569e-06,-3.68338,0.145753,0.404794,0.0153721,
2,1,0,1,0,46917.1,0.0197754,0.0194596,0.219818,71,0.000749994,10,4.27758e-06,-3.65794,0.139821,0.421967,0.0193629,
2,1,0,1,0,46917.9,0.0237704,0.0234954,0.232556,71,0.000942081,10,5.46398e-06,-3.63347,0.173128,0.340788,0.023393,
2,1,0,1,0,46918.7,0.0277659,0.0274552,0.24734,71,0.00114455,10,6.79078e-06,-3.6067,0.159933,0.368904,0.0273464,
2,1,0,0,0,46919.5,0.0317611,0.0314614,0.258813,71,0.00135828,10,8.14261e-06,-3.58701,0.176976,0.333378,0.0313475,
2,1,0,1,0,46920.3,0.0357567,0.0354703,0.273768,71,0.0015832,10,9.71063e-06,-3.56262,0.207585,0.284221,0.0353499,
2,1,0,1,0,46921.1,0.0397516,0.0394062,0.288532,71,0.00181928,10,1.137e-05,-3.53981,0.153857,0.383473,0.0392793,
2,1,0,1,0,46921.9,0.0437465,0.0434534,0.300877,71,0.00206698,10,1.30741e-05,-3.52161,0.214245,0.275386,0.043321,
2,1,0,1,0,46922.7,0.0477413,0.0474107,0.314268,71,0.00232494,10,1.48997e-05,-3.5027,0.217841,0.27084,0.0472724,
2,1,0,0,0,46923.5,0.0517369,0.0514278,0.327804,71,0.00259313,10,1.68583e-05,-3.48439,0.235795,0.250217,0.0512836,
2,1,0,1,0,46924.3,0.0557321,0.0553959,0.340575,71,0.00287196,10,1.88664e-05,-3.46779,0.28404,0.207717,0.055246,
2,1,0,1,0,46925.1,0.0597277,0.0593963,0.351031,71,0.00315936,10,2.08499e-05,-3.45465,0.327418,0.180198,0.0592418,
2,1,0,1,0,46925.9,0.0637226,0.0634329,0.361179,71,0.00345554,10,2.29106e-05,-3.44228,0.295253,0.199828,0.063274,
2,1,0,1,0,46926.7,0.0677174,0.0674036,0.371294,71,0.0037603,10,2.50265e-05,-3.43028,0.460633,0.128085,0.0672403,
2,1,0,0,0,46927.5,0.0717128,0.0713772,0.380535,71,0.00407233,10,2.71615e-05,-3.41961,0.31235,0.18889,0.0712098,
2,1,0,1,0,46928.3,0.075708,0.075411,0.387733,71,0.00439183,10,2.92393e-05,-3.41147,0.501663,0.117609,0.0752404,
2,1,0,0,0,46929.1,0.0797031,0.0794554,0.396965,71,0.00471727,10,3.15411e-05,-3.40125,0.46438,0.127051,0.0792807,
2,1,0,1,0,46929.9,0.0836986,0.0833845,0.404799,71,0.0050493,10,3.3754e-05,-3.39276,0.347256,0.169903,0.0832064,
2,1,0,1,0,46930.7,0.0876935,0.0873673,0.41439,71,0.00538927,10,3.62041e-05,-3.38259,0.400589,0.147283,0.0871849,
2,1,0,1,0,46931.5,0.0916883,0.0913581,0.429436,71,0.00573796,10,3.92324e-05,-3.3671,0.259217,0.227608,0.0911691,
2,1,0,1,0,46932.2,0.0956838,0.0953732,0.443358,71,0.00609871,10,4.22844e-05,-3.35325,0.218302,0.270268,0.0951781,
2,1,0,0,0,46933,0.099679,0.0993624,0.464308,71,0.00647367,10,4.61348e-05,-3.33319,0.248759,0.237178,0.0991581,
2,1,0,1,0,46933.8,0.103674,0.103358,0.485121,71,0.00686465,10,5.01412e-05,-3.31415,0.180621,0.326652,0.103145,
2,1,0,1,0,46934.6,0.10767,0.107349,0.504495,71,0.00727377,10,5.41569e-05,-3.29714,0.223763,0.263672,0.107127,
2,1,0,1,0,46935.4,0.111664,0.111369,0.527906,71,0.00769892,10,5.87925e-05,-3.27744,0.254382,0.231935,0.111137,
2,1,0,1,0,46936.2,0.115659,0.11533,0.543016,71,0.00813823,10,6.26258e-05,-3.26519,0.322756,0.182801,0.115091,
2,1,0,0,0,46937,0.119655,0.11937,0.555374,71,0.00858999,10,6.62951e-05,-3.25541,0.51688,0.114146,0.119126,
2,1,0,1,0,46937.8,0.12365,0.123299,0.566403,71,0.00905024,10,6.98369e-05,-3.24687,0.594445,0.0992522,0.12305,
2,1,0,1,0,46938.6,0.127646,0.127329,0.574116,71,0.00951822,10,7.31015e-05,-3.241,0.715489,0.0824611,0.127076,
2,1,0,1,0,46939.4,0.131641,0.131348,0.577237,71,0.00999111,10,7.58187e-05,-3.23865,-0.949599,-0.0621315,0.131094,
2,1,0,1,0,46940.2,0.135635,0.135313,0.567373,71,0.0104606,10,7.6773e-05,-3.24613,-0.313953,-0.187926,0.135064,
2,1,0,0,0,46941,0.139631,0.139329,0.537651,71,0.010915,10,7.49104e-05,-3.2695,-0.127066,-0.464327,0.139093,
2,1,0,1,0,46941.8,0.143626,0.143318,0.491151,71,0.0113388,10,7.0391e-05,-3.30878,-0.0832824,-0.708433,0.143102,
2,1,0,0,0,46942.6,0.147621,0.14729,0.432713,71,0.011719,10,6.37341e-05,-3.3638,-0.0707424,-0.834012,0.147099,
2,1,0,1,0,46943.4,0.151617,0.151294,0.380959,71,0.0120548,10,5.76368e-05,-3.41912,-0.0760201,-0.77611,0.151126,
2,1,0,1,0,46944.2,0.155612,0.15523,0.34423,71,0.0123538,10,5.34348e-05,-3.46315,-0.106018,-0.556509,0.155078,
2,1,0,1,0,46945,0.159606,0.159364,0.319157,71,0.0126289,10,5.08622e-05,-3.496,-0.162514,-0.363045,0.159224,
2,1,0,1,0,46945.8,0.163602,0.163278,0.302703,71,0.0128884,10,4.94249e-05,-3.51898,-0.181169,-0.325663,0.163145,
2,1,0,0,0,46946.6,0.167597,0.167257,0.292073,71,0.013137,10,4.88513e-05,-3.53451,-0.390137,-0.151229,0.167129,
2,1,0,1,0,46947.4,0.171592,0.171273,0.283826,71,0.0133788,10,4.86117e-05,-3.54695,-0.353423,-0.166939,0.171148,
2,1,0,1,0,46948.2,0.175588,0.175234,0.279069,71,0.013615,10,4.89023e-05,-3.55429,-0.702217,-0.0840196,0.175111,
2,1,0,1,0,46949,0.179582,0.179259,0.274018,71,0.0138473,10,4.91201e-05,-3.56222,-0.595248,-0.0991183,0.179138,
2,1,0,1,0,46949.8,0.183577,0.183269,0.272436,71,0.0140768,10,4.99289e-05,-3.56474,-0.972053,-0.0606963,0.183149,
2,1,0,0,0,46950.6,0.187573,0.187237,0.269079,71,0.0143036,10,5.03816e-05,-3.57012,-0.762831,-0.0773435,0.187119,
2,1,0,1,0,46951.4,0.191568,0.191278,0.266703,71,0.0145285,10,5.10145e-05,-3.57397,-1.47885,-0.0398959,0.191161,
2,1,0,0,0,46952.2,0.195563,0.195239,0.265061,71,0.0147522,10,5.17502e-05,-3.57665,-0.869785,-0.0678329,0.195122,
2,1,0,1,0,46953,0.199559,0.199273,0.263267,71,0.0149741,10,5.24619e-05,-3.5796,-7.40589,-0.00796663,0.199157,
2,1,0,1,0,46953.8,0.203553,0.203228,0.261046,71,0.0151947,10,5.3052e-05,-3.58328,-1.18942,-0.0496039,0.203113,
2,1,0,1,0,46954.6,0.207548,0.207256,0.261529,71,0.0154144,10,5.42036e-05,-3.58248,-2.51381,-0.0234703,0.207141,
2,1,0,1,0,46955.4,0.211544,0.211241,0.259538,71,0.0156328,10,5.48251e-05,-3.5858,-1.19197,-0.0494979,0.211126,
2,1,0,0,0,46956.2,0.215539,0.215253,0.257878,71,0.01585,10,5.5509e-05,-3.58859,-1.44894,-0.0407194,0.21514,
2,1,0,1,0,46957,0.219535,0.219239,0.25703,71,0.0160661,10,5.63508e-05,-3.59002,-2.72311,-0.0216664,0.219125,
2,1,0,1,0,46957.8,0.223529,0.223162,0.255326,71,0.0162813,10,5.6979e-05,-3.5929,-5.81763,-0.0101416,0.22305,
2,1,0,1,0,46958.6,0.227524,0.227236,0.254551,71,0.0164961,10,5.78431e-05,-3.59422,-0.921639,-0.0640164,0.227124,
2,1,0,1,0,46959.4,0.23152,0.23122,0.253761,71,0.0167096,10,5.86746e-05,-3.59557,2.6489,0.0222734,0.231108,
2,1,0,0,0,46960.2,0.235515,0.235195,0.25092,71,0.0169224,10,5.90151e-05,-3.60047,-1.01696,-0.0580159,0.235085,
2,1,0,1,0,46961,0.23951,0.239157,0.25137,71,0.0171341,10,6.01169e-05,-3.59969,6.7178,0.00878264,0.239046,
2,1,0,1,0,46961.8,0.243506,0.243208,0.250305,71,0.0173451,10,6.08762e-05,-3.60153,-25.8931,-0.0022786,0.243098,
2,1,0,1,0,46962.6,0.2475,0.247165,0.249558,71,0.0175556,10,6.16819e-05,-3.60283,-1.04547,-0.0564341,0.247055,
2,1,0,1,0,46963.4,0.251495,0.251177,0.248432,71,0.0177652,10,6.24005e-05,-3.60479,-2.31031,-0.0255377,0.251068,
2,1,0,0,0,46964.2,0.255491,0.255172,0.247673,71,0.017974,10,6.31993e-05,-3.60612,-9.64502,-0.00611715,0.255063,
2,1,0,1,0,46965,0.259486,0.259165,0.246765,71,0.0181824,10,6.39527e-05,-3.60772,-1.32481,-0.0445345,0.259056,
2,1,0,0,0,46965.8,0.263481,0.263159,0.246176,71,0.0183895,10,6.47834e-05,-3.60875,-5.13151,-0.0114976,0.263051,
2,1,0,1,0,46966.6,0.267477,0.267148,0.244573,71,0.0185962,10,6.5337e-05,-3.61159,-1.54246,-0.0382506,0.26704,
2,1,0,1,0,46967.4,0.271471,0.271145,0.244827,71,0.018802,10,6.63835e-05,-3.61114,-7.64122,-0.00772128,0.271037,
2,1,0,1,0,46968.2,0.275466,0.275177,0.242754,71,0.0190069,10,6.68005e-05,-3.61483,-2.55899,-0.0230559,0.275071,
2,1,0,1,0,46969,0.279462,0.279193,0.242871,71,0.0192113,10,6.78076e-05,-3.61463,-2.8535,-0.0206764,0.279086,
2,1,0,0,0,46969.8,0.283457,0.283145,0.241905,71,0.019415,10,6.8494e-05,-3.61636,-2.52732,-0.0233449,0.283038,
2,1,0,1,0,46970.6,0.287452,0.287151,0.241474,71,0.0196179,10,6.93395e-05,-3.61713,-2.33968,-0.0252171,0.287045,
2,1,0,1,0,46971.4,0.291448,0.291115,0.238742,71,0.0198201,10,6.95014e-05,-3.62207,-0.985006,-0.0598981,0.29101,
2,1,0,1,0,46972.2,0.295442,0.295126,0.239222,71,0.0200215,10,7.06006e-05,-3.6212,2.45038,0.0240779,0.295021,
2,1,0,1,0,46973,0.299437,0.299096,0.237115,71,0.0202224,10,7.09202e-05,-3.62504,-1.5669,-0.037654,0.298991,
2,1,0,0,0,46973.8,0.303433,0.303142,0.238092,71,0.0204224,10,7.21755e-05,-3.62326,-1.59393,-0.0370155,0.303037,
2,1,0,1,0,46974.6,0.307428,0.307072,0.237006,71,0.0206215,10,7.2778e-05,-3.62524,5.3804,0.0109657,0.306967,
2,1,0,1,0,46975.4,0.311424,0.311163,0.235433,71,0.0208202,10,7.32582e-05,-3.62813,-1.48916,-0.0396198,0.31106,
2,1,0,1,0,46976.2,0.315418,0.315107,0.235327,71,0.0210178,10,7.41532e-05,-3.62833,-1.97326,-0.0298997,0.315004,
2,1,0,1,0,46977,0.319413,0.319123,0.234247,71,0.021215,10,7.47535e-05,-3.63033,29.2029,0.00202035,0.31902,
2,1,0,0,0,46977.8,0.323409,0.323092,0.234358,71,0.0214118,10,7.57192e-05,-3.63012,-1.31116,-0.0449984,0.322989,
2,1,0,1,0,46978.6,0.327404,0.327131,0.233421,71,0.0216079,10,7.63595e-05,-3.63186,4.77779,0.0123488,0.327029,
2,1,0,0,0,46979.4,0.331399,0.331127,0.232524,71,0.0218036,10,7.6995e-05,-3.63353,-2.349,-0.0251171,0.331025,
2,1,0,1,0,46980.2,0.335395,0.335071,0.232436,71,0.0219987,10,7.78825e-05,-3.6337,-4.44606,-0.0132702,0.334969,
2,1,0,1,0,46981,0.339389,0.33908,0.232008,71,0.0221932,10,7.86692e-05,-3.6345,-4.58113,-0.0128789,0.338978,
2,1,0,1,0,46981.8,0.343384,0.343113,0.230661,71,0.0223874,10,7.91429e-05,-3.63703,-2.48933,-0.0237012,0.343012,
2,1,0,1,0,46982.6,0.34738,0.347059,0.230602,71,0.0225808,10,8.00324e-05,-3.63714,-61.505,-0.000959271,0.346957,
2,1,0,0,0,46983.4,0.351375,0.351038,0.229549,71,0.0227739,10,8.05806e-05,-3.63912,-2.17304,-0.0271509,0.350937,
2,1,0,1,0,46984.2,0.35537,0.355094,0.229996,71,0.0229665,10,8.16704e-05,-3.63828,-1.64982,-0.0357615,0.354993,
2,1,0,1,0,46985,0.359366,0.359097,0.228731,71,0.0231586,10,8.21366e-05,-3.64067,2.51496,0.0234597,0.358996,
2,1,0,1,0,46985.8,0.36336,0.363057,0.228442,71,0.0233506,10,8.29375e-05,-3.64122,-2.70062,-0.0218468,0.362956,
2,1,0,1,0,46986.6,0.367355,0.367046,0.2282,71,0.023542,10,8.37598e-05,-3.64168,-5.47319,-0.0107798,0.366945,
2,1,0,0,0,46987.4,0.371351,0.371066,0.227869,71,0.023733,10,8.45546e-05,-3.64231,8.58085,0.00687577,0.370966,
2,1,0,1,0,46988.2,0.375346,0.375057,0.22853,71,0.0239238,10,8.5712e-05,-3.64106,-3.35805,-0.0175697,0.374957,
2,1,0,1,0,46989,0.379342,0.379021,0.228433,71,0.0241143,10,8.65808e-05,-3.64124,-2.40686,-0.0245132,0.37892,
2,1,0,1,0,46989.8,0.383336,0.383079,0.226756,71,0.0243043,10,8.68653e-05,-3.64444,2.35247,0.02508,0.382979,
2,1,0,1,0,46990.6,0.387331,0.387014,0.226135,71,0.0244942,10,8.75174e-05,-3.64563,-1.05719,-0.0558081,0.386915,
2,1,0,0,0,46991.4,0.391327,0.391015,0.226369,71,0.0246835,10,8.85136e-05,-3.64518,3.83874,0.0153696,0.390915,
2,1,0,1,0,46992.2,0.395322,0.395009,0.22502,71,0.0248726,10,8.88851e-05,-3.64778,-115.672,-0.000510062,0.39491,
2,1,0,0,0,46993,0.399317,0.399038,0.226552,71,0.0250614,10,9.04026e-05,-3.64483,-1.68945,-0.0349226,0.398938,
2,1,0,1,0,46993.8,0.403313,0.403038,0.225249,71,0.02525,10,9.0784e-05,-3.64734,1.69184,0.0348733,0.402939,
2,1,0,1,0,46994.6,0.407307,0.407029,0.22535,71,0.0254387,10,9.1724e-05,-3.64714,-4.01276,-0.0147031,0.40693,
2,1,0,1,0,46995.4,0.411302,0.410997,0.225845,71,0.025627,10,9.28219e-05,-3.64619,-17.6854,-0.00333609,0.410898,
2,1,0,1,0,46996.2,0.415298,0.415032,0.224666,71,0.0258155,10,9.32433e-05,-3.64846,-7.79147,-0.00757239,0.414933,
2,1,0,0,0,46997,0.419293,0.41898,0.224471,71,0.0260036,10,9.40489e-05,-3.64884,-1.50452,-0.0392151,0.418881,
2,1,0,1,0,46997.8,0.423288,0.422971,0.224203,71,0.0261911,10,9.48313e-05,-3.64936,1.70877,0.0345279,0.422872,
2,1,0,1,0,46998.6,0.427283,0.426986,0.224176,71,0.0263789,10,9.57201e-05,-3.64941,-5.89505,-0.0100084,0.426887,
2,1,0,1,0,46999.4,0.431278,0.431033,0.224548,71,0.0265665,10,9.67874e-05,-3.64869,7.01773,0.00840728,0.430934,
2,1,0,1,0,47000.2,0.435273,0.43501,0.22467,71,0.0267539,10,9.77339e-05,-3.64845,-8.41777,-0.00700898,0.434911,
2,1,0,0,0,47001,0.439269,0.438951,0.224627,71,0.0269414,10,9.86005e-05,-3.64854,-3.09319,-0.0190741,0.438852,
2,1,0,1,0,47001.8,0.443264,0.443006,0.224259,71,0.0271287,10,9.93483e-05,-3.64925,-95.8239,-0.000615713,0.442908,
2,1,0,0,0,47002.6,0.447259,0.446992,0.224725,71,0.0273157,10,0.00010045,-3.64835,-27.2038,-0.00216881,0.446893,
2,1,0,1,0,47003.4,0.451254,0.450974,0.224729,71,0.0275028,10,0.000101347,-3.64834,6.06441,0.0097289,0.450875,
2,1,0,1,0,47004.2,0.455249,0.454954,0.224414,71,0.0276901,10,0.000102098,-3.64895,1.60846,0.0366811,0.454855,
2,1,0,1,0,47005,0.459244,0.458951,0.223765,71,0.0278774,10,0.000102697,-3.65021,-2.2305,-0.0264514,0.458853,
2,1,0,1,0,47005.8,0.46324,0.462893,0.22511,71,0.0280649,10,0.000104202,-3.6476,2.36339,0.0249641,0.462794,
2,1,0,0,0,47006.6,0.467235,0.466921,0.224239,71,0.0282524,10,0.000104702,-3.64929,2.18294,0.0270278,0.466822,
2,1,0,1,0,47007.4,0.471231,0.470942,0.225594,71,0.0284404,10,0.000106242,-3.64667,-5.15397,-0.0114475,0.470843,
2,1,0,1,0,47008.2,0.475225,0.47491,0.227247,71,0.0286286,10,0.000107922,-3.6435,1.94646,0.0303115,0.47481,
2,1,0,1,0,47009,0.47922,0.478952,0.227247,71,0.0288174,10,0.000108841,-3.6435,2.07093,0.0284896,0.478852,
2,1,0,1,0,47009.8,0.483216,0.482914,0.227464,71,0.0290065,10,0.000109846,-3.64309,-119.011,-0.000495753,0.482813,
2,1,0,0,0,47010.6,0.487211,0.486894,0.227796,71,0.0291959,10,0.000110912,-3.64245,5.4136,0.0108985,0.486794,
2,1,0,1,0,47011.4,0.491206,0.490887,0.228056,71,0.0293859,10,0.00011195,-3.64196,5.02062,0.0117515,0.490786,
2,1,0,1,0,47012.2,0.495201,0.494921,0.229479,71,0.0295762,10,0.000113574,-3.63926,3.60026,0.0163877,0.49482,
2,1,0,1,0,47013,0.499196,0.498879,0.229865,71,0.029767,10,0.000114675,-3.63853,1.5813,0.0373112,0.498778,
2,1,0,1,0,47013.8,0.503191,0.502883,0.230722,71,0.0299585,10,0.000116026,-3.63691,4.23792,0.0139219,0.502781,
2,1,0,0,0,47014.6,0.507187,0.506905,0.231831,71,0.0301504,10,0.000117517,-3.63483,2.50132,0.0235875,0.506803,
2,1,0,1,0,47015.3,0.511182,0.510906,0.232987,71,0.0303433,10,0.000119035,-3.63267,3.04578,0.0193711,0.510804,
2,1,0,0,0,47016.1,0.515177,0.514822,0.233814,71,0.0305372,10,0.000120373,-3.63113,2.62484,0.0224775,0.514719,
2,1,0,1,0,47016.9,0.519173,0.518838,0.235787,71,0.0307318,10,0.000122336,-3.62748,0.898388,0.0656732,0.518735,
2,1,0,1,0,47017.7,0.523167,0.52291,0.236093,71,0.0309274,10,0.000123456,-3.62692,2.86227,0.020613,0.522806,
2,1,0,1,0,47018.5,0.527162,0.526894,0.238101,71,0.0311239,10,0.000125454,-3.62324,1.08582,0.0543369,0.526789,
2,1,0,1,0,47019.3,0.531158,0.530826,0.239406,71,0.0313216,10,0.000127083,-3.62086,3.04429,0.0193805,0.530721,
2,1,0,0,0,47020.1,0.535153,0.534873,0.240256,71,0.0315204,10,0.000128506,-3.61933,1.28859,0.0457866,0.534768,
2,1,0,1,0,47020.9,0.539148,0.538851,0.242465,71,0.0317202,10,0.000130653,-3.61535,1.30934,0.0450607,0.538744,
2,1,0,1,0,47021.7,0.543143,0.542836,0.244138,71,0.0319214,10,0.000132527,-3.61236,0.93014,0.0634313,0.542729,
2,1,0,1,0,47022.5,0.547138,0.546861,0.246876,71,0.0321242,10,0.000135007,-3.60752,1.44232,0.0409064,0.546753,
2,1,0,1,0,47023.3,0.551133,0.550833,0.249037,71,0.0323286,10,0.000137178,-3.60374,1.14232,0.0516493,0.550724,
2,1,0,0,0,47024.1,0.555129,0.554847,0.250684,71,0.0325352,10,0.000139091,-3.60087,0.790406,0.0746452,0.554737,
2,1,0,1,0,47024.9,0.559124,0.558835,0.253523,71,0.0327435,10,0.000141677,-3.59598,0.868683,0.0679189,0.558724,
2,1,0,1,0,47025.7,0.56312,0.562784,0.255689,71,0.0329538,10,0.000143898,-3.59229,0.790282,0.0746569,0.562671,
2,1,0,1,0,47026.5,0.567114,0.566828,0.259462,71,0.0331665,10,0.00014707,-3.58593,0.749815,0.0786861,0.566714,
2,1,0,1,0,47027.3,0.571109,0.570801,0.262304,71,0.0333817,10,0.000149724,-3.58119,0.685103,0.0861185,0.570686,
2,1,0,0,0,47028.1,0.575105,0.574791,0.266351,71,0.0335998,10,0.000153096,-3.57455,0.532742,0.110748,0.574674,
2,1,0,1,0,47028.9,0.5791,0.578777,0.270956,71,0.0338212,10,0.000156823,-3.5671,0.798633,0.0738762,0.578658,
2,1,0,0,0,47029.7,0.583095,0.582812,0.275834,71,0.0340457,10,0.000160759,-3.55935,0.413672,0.142625,0.582691,
2,1,0,1,0,47030.5,0.58709,0.586881,0.279805,71,0.0342745,10,0.000164212,-3.55314,0.474928,0.124229,0.586758,
2,1,0,1,0,47031.3,0.591085,0.590798,0.286122,71,0.0345076,10,0.00016904,-3.54345,0.466274,0.126535,0.590672,
2,1,0,1,0,47032.1,0.59508,0.59477,0.292207,71,0.0347454,10,0.000173796,-3.53431,0.398183,0.148173,0.594642,
2,1,0,1,0,47032.9,0.599076,0.598756,0.299863,71,0.0349886,10,0.000179545,-3.52308,0.378208,0.155999,0.598624,
2,1,0,0,0,47033.7,0.603071,0.602772,0.308317,71,0.0352375,10,0.000185845,-3.511,0.312238,0.188958,0.602637,
2,1,0,1,0,47034.5,0.607066,0.606761,0.317142,71,0.0354934,10,0.000192429,-3.49875,0.304794,0.193573,0.606621,
2,1,0,1,0,47035.3,0.611061,0.610783,0.326925,71,0.0357569,10,0.00019968,-3.48555,0.29887,0.19741,0.610639,
2,1,0,1,0,47036.1,0.615056,0.614786,0.338834,71,0.0360292,10,0.00020831,-3.47001,0.232443,0.253826,0.614637,
2,1,0,1,0,47036.9,0.619051,0.618815,0.352406,71,0.0363121,10,0.000218074,-3.45296,0.221671,0.26616,0.61866,
2,1,0,0,0,47037.7,0.623047,0.622782,0.368434,71,0.0366062,10,0.000229454,-3.43364,0.192462,0.306554,0.62262,
2,1,0,1,0,47038.5,0.627042,0.626755,0.386378,71,0.0369143,10,0.000242164,-3.41299,0.177851,0.331738,0.626585,
2,1,0,1,0,47039.3,0.631037,0.630796,0.408371,71,0.0372384,10,0.000257599,-3.38895,0.168674,0.349788,0.630617,
2,1,0,1,0,47040.1,0.635032,0.634768,0.432558,71,0.0375806,10,0.000274574,-3.36396,0.15146,0.389543,0.634578,
2,1,0,1,0,47040.9,0.639027,0.638722,0.460557,71,0.037944,10,0.000294168,-3.33672,0.132082,0.446692,0.63852,
2,1,0,1,0,47041.7,0.643022,0.642739,0.495913,71,0.0383324,10,0.000318742,-3.30459,0.126687,0.465714,0.64252,
2,1,0,1,0,47042.5,0.647018,0.646742,0.534771,71,0.0387499,10,0.000345859,-3.27183,0.117259,0.503158,0.646507,
2,1,0,0,0,47043.3,0.651013,0.650739,0.578495,71,0.0392007,10,0.000376449,-3.2377,0.107812,0.54725,0.650484,
2,1,0,1,0,47044.1,0.655008,0.654746,0.632908,71,0.0396908,10,0.000414393,-3.19866,0.0989544,0.596234,0.654467,
2,1,0,1,0,47044.9,0.659003,0.658741,0.694741,71,0.0402276,10,0.000457654,-3.15818,0.0964223,0.611891,0.658435,
2,1,0,1,0,47045.7,0.662998,0.662748,0.767014,71,0.0408176,10,0.000508337,-3.1152,0.0891795,0.661587,0.66241,
2,1,0,1,0,47046.5,0.666994,0.666711,0.849449,71,0.0414695,10,0.000566337,-3.07086,0.0879975,0.670474,0.666337,
2,1,0,0,0,47047.3,0.670989,0.67069,0.944428,71,0.0421926,10,0.000633419,-3.02483,0.0838364,0.703752,0.670275,
2,1,0,1,0,47048.1,0.674984,0.674755,1.05353,71,0.0429964,10,0.000710874,-2.97735,0.0847496,0.696169,0.674291,
2,1,0,1,0,47048.9,0.67898,0.67868,1.1747,71,0.0438921,10,0.000797244,-2.93007,0.0821563,0.718143,0.678163,
2,1,0,1,0,47049.7,0.682974,0.682725,1.31402,71,0.0448923,10,0.000897114,-2.8814,0.0804705,0.733188,0.682147,
2,1,0,1,0,47050.5,0.686969,0.686711,1.46868,71,0.0460094,10,0.00100856,-2.83307,0.0819727,0.719752,0.686064,
2,1,0,0,0,47051.3,0.690965,0.690685,1.64026,71,0.0472569,10,0.0011329,-2.78509,0.0822094,0.717679,0.689964,
2,1,0,1,0,47052.1,0.69496,0.694666,1.83098,71,0.0486493,10,0.00127192,-2.73732,0.081219,0.726431,0.693861,
2,1,0,0,0,47052.9,0.698955,0.69867,2.03939,71,0.0502015,10,0.00142486,-2.6905,0.0849455,0.694563,0.697773,
2,1,0,1,0,47053.7,0.70295,0.702678,2.26757,71,0.0519279,10,0.00159337,-2.64444,0.0847373,0.69627,0.70168,
2,1,0,1,0,47054.5,0.706945,0.706623,2.51446,71,0.0538438,10,0.00177677,-2.59956,0.0884831,0.666794,0.705517,
2,1,0,1,0,47055.3,0.71094,0.710696,2.78043,71,0.0559642,10,0.00197604,-2.55589,0.0896413,0.658179,0.709472,
2,1,0,1,0,47056.1,0.714936,0.714639,3.06244,71,0.0583049,10,0.00218854,-2.51393,0.0927638,0.636024,0.713291,
2,1,0,0,0,47056.9,0.718931,0.718678,3.36913,71,0.0608802,10,0.00242132,-2.47248,0.094875,0.621871,0.717196,
2,1,0,1,0,47057.7,0.722927,0.722664,3.69256,71,0.063707,10,0.00266848,-2.43267,0.0976859,0.603977,0.72104,
2,1,0,1,0,47058.5,0.726921,0.726683,4.03584,71,0.0668005,10,0.00293278,-2.39407,0.103413,0.570527,0.724907,
2,1,0,1,0,47059.3,0.730916,0.730672,4.39953,71,0.0701763,10,0.00321462,-2.35659,0.101652,0.580411,0.728736,
2,1,0,1,0,47060.1,0.734911,0.734623,4.78465,71,0.0738511,10,0.00351491,-2.32015,0.107009,0.551355,0.732518,
2,1,0,0,0,47060.9,0.738907,0.738607,5.1908,71,0.0778422,10,0.00383397,-2.28477,0.108288,0.544842,0.736323,
2,1,0,1,0,47061.7,0.742902,0.742656,5.61605,71,0.0821649,10,0.00417079,-2.25057,0.112381,0.525,0.740185,
2,1,0,1,0,47062.5,0.746897,0.746613,6.06616,71,0.0868387,10,0.00452908,-2.21709,0.115363,0.511428,0.743944,
2,1,0,1,0,47063.3,0.750892,0.750615,6.53906,71,0.0918801,10,0.00490832,-2.18448,0.117753,0.501048,0.747738,
2,1,0,1,0,47064.1,0.754887,0.754597,7.03602,71,0.097309,10,0.00530935,-2.15267,0.119873,0.492186,0.751501,
2,1,0,0,0,47064.9,0.758883,0.758626,7.56123,71,0.103147,10,0.00573614,-2.12141,0.120692,0.488847,0.755299,
2,1,0,1,0,47065.7,0.762878,0.762607,8.11306,71,0.109414,10,0.00618708,-2.09082,0.123908,0.47616,0.759038,
2,1,0,0,0,47066.5,0.766873,0.76662,8.69401,71,0.116134,10,0.006665,-2.06078,0.126333,0.46702,0.762795,
2,1,0,1,0,47067.3,0.770868,0.77062,9.31206,71,0.123334,10,0.00717606,-2.03095,0.131101,0.450035,0.766523,
2,1,0,1,0,47068.1,0.774863,0.774639,9.92789,71,0.131016,10,0.00769053,-2.00314,0.126171,0.467619,0.770271,
2,1,0,1,0,47068.9,0.778858,0.778607,10.6176,71,0.13923,10,0.00826691,-1.97397,0.129035,0.457239,0.773935,
2,1,0,1,0,47069.7,0.782854,0.782571,11.3509,71,0.14801,10,0.00888286,-1.94497,0.126983,0.46463,0.777576,
2,1,0,0,0,47070.5,0.786849,0.786579,12.1324,71,0.157397,10,0.00954305,-1.91605,0.123445,0.477945,0.781241,
2,1,0,1,0,47071.3,0.790844,0.790552,12.9692,71,0.16743,10,0.0102528,-1.88709,0.123423,0.47803,0.784846,
2,1,0,1,0,47072.1,0.794839,0.794548,13.8702,71,0.178162,10,0.0110205,-1.85792,0.125141,0.471468,0.788445,
2,1,0,1,0,47072.9,0.798834,0.798572,14.8168,71,0.189628,10,0.0118323,-1.82924,0.125234,0.47112,0.792053,
2,1,0,1,0,47073.7,0.802829,0.802553,15.8178,71,0.201872,10,0.0126946,-1.80085,0.124921,0.472297,0.795593,
2,1,0,0,0,47074.5,0.806825,0.806584,16.8677,71,0.214944,10,0.0136052,-1.77295,0.127198,0.463843,0.799163,
2,1,0,1,0,47075.3,0.81082,0.81054,17.9952,71,0.228879,10,0.0145858,-1.74484,0.125572,0.469851,0.802622,
2,1,0,1,0,47076.1,0.814815,0.81457,19.1548,71,0.243728,10,0.0156029,-1.71772,0.128645,0.458625,0.806142,
2,1,0,1,0,47076.9,0.81881,0.818546,20.3747,71,0.259527,10,0.0166776,-1.69091,0.12958,0.455319,0.809581,
2,1,0,1,0,47077.7,0.822805,0.822546,21.6296,71,0.276316,10,0.0177913,-1.66495,0.137529,0.428999,0.813029,
2,1,0,0,0,47078.5,0.826801,0.82655,22.9145,71,0.294121,10,0.0189399,-1.63989,0.1369,0.430972,0.816468,
2,1,0,1,0,47079.3,0.830796,0.830557,24.2435,71,0.31297,10,0.0201356,-1.6154,0.139154,0.423991,0.81989,
2,1,0,0,0,47080.1,0.834791,0.834562,25.6158,71,0.332897,10,0.021378,-1.59149,0.148336,0.397745,0.823291,
2,1,0,1,0,47080.9,0.838786,0.838574,27.0021,71,0.353921,10,0.0226433,-1.5686,0.14613,0.40375,0.826693,
2,1,0,1,0,47081.7,0.842781,0.842515,28.4513,71,0.376084,10,0.0239707,-1.5459,0.15626,0.377577,0.829997,
2,1,0,1,0,47082.5,0.846776,0.846557,29.8749,71,0.399398,10,0.0252908,-1.52469,0.157419,0.374796,0.833412,
2,1,0,0,0,47083.2,0.849723,0.849456,30.8253,71,0.420737,10,0.0261847,-1.51109,0.0466075,1.26589,0.835893,
2,1,0,1,0,47084,0.845728,0.845452,28.6853,71,0.444438,10,0.024252,-1.54234,0.154791,0.381159,0.83283,
2,1,0,0,0,47084.8,0.841732,0.841454,27.3349,71,0.466839,10,0.023001,-1.56328,0.115813,0.509441,0.829427,
2,1,0,1,0,47085.6,0.837737,0.837451,25.6025,71,0.487976,10,0.0214408,-1.59172,0.117382,0.502633,0.826186,
2,1,0,1,0,47086.4,0.833742,0.833489,24.0356,71,0.507792,10,0.0200334,-1.61914,0.117307,0.502952,0.822914,
2,1,0,1,0,47087.2,0.829747,0.829504,22.5469,71,0.526378,10,0.0187027,-1.64691,0.1218,0.484402,0.819583,
2,1,0,1,0,47088,0.825752,0.825519,21.1106,71,0.543803,10,0.0174272,-1.6755,0.119945,0.491892,0.816231,
2,1,0,0,0,47088.8,0.821757,0.821523,19.8203,71,0.560133,10,0.0162828,-1.70289,0.123233,0.478769,0.812802,
2,1,0,1,0,47089.6,0.817761,0.817478,18.525,71,0.575431,10,0.0151437,-1.73224,0.116961,0.504441,0.809327,
2,1,0,1,0,47090.4,0.813766,0.813473,17.3269,71,0.589744,10,0.014095,-1.76128,0.117465,0.502276,0.805849,
2,1,0,1,0,47091.2,0.809771,0.809481,16.1831,71,0.603117,10,0.0130999,-1.79094,0.120443,0.48986,0.80236,
2,1,0,1,0,47092,0.805776,0.805531,15.0999,71,0.615603,10,0.0121634,-1.82103,0.117907,0.500395,0.798887,
2,1,0,0,0,47092.8,0.801781,0.801554,14.0937,71,0.627257,10,0.0112968,-1.85098,0.115452,0.511037,0.795353,
2,1,0,1,0,47093.6,0.797786,0.797484,13.1303,71,0.638118,10,0.0104712,-1.88173,0.11804,0.49983,0.791707,
2,1,0,1,0,47094.4,0.79379,0.793502,12.2227,71,0.648237,10,0.00969873,-1.91283,0.114436,0.51557,0.788124,
2,1,0,1,0,47095.2,0.789795,0.789505,11.3704,71,0.657653,10,0.00897701,-1.94422,0.112974,0.522244,0.784502,
2,1,0,1,0,47096,0.7858,0.785511,10.5593,71,0.666403,10,0.00829443,-1.97637,0.11352,0.519732,0.780865,
2,1,0,0,0,47096.8,0.781805,0.781518,9.80927,71,0.67453,10,0.00766612,-2.00836,0.114782,0.51402,0.777201,
2,1,0,1,0,47097.6,0.77781,0.777535,9.09747,71,0.682073,10,0.0070736,-2.04108,0.113578,0.519468,0.773532,
2,1,0,0,0,47098.3,0.773814,0.773539,8.42907,71,0.689064,10,0.00652022,-2.07422,0.109205,0.54027,0.76983,
2,1,0,1,0,47099.1,0.769819,0.769564,7.79451,71,0.695536,10,0.00599837,-2.10821,0.109708,0.537789,0.766134,
2,1,0,1,0,47099.9,0.765824,0.765574,7.20718,71,0.701518,10,0.00551763,-2.14223,0.109395,0.539328,0.762403,
2,1,0,1,0,47100.7,0.761829,0.761541,6.65661,71,0.707047,10,0.00506928,-2.17675,0.10977,0.537485,0.758612,
2,1,0,1,0,47101.5,0.757834,0.757585,6.14126,71,0.712151,10,0.00465253,-2.21174,0.105144,0.561137,0.754883,
2,1,0,0,0,47102.3,0.753839,0.753532,5.65456,71,0.716854,10,0.00426089,-2.2476,0.104904,0.562417,0.751044,
2,1,0,1,0,47103.1,0.749844,0.749619,5.19818,71,0.721181,10,0.00389665,-2.28415,0.103008,0.572771,0.747332,
2,1,0,1,0,47103.9,0.745848,0.74557,4.76928,71,0.725155,10,0.00355583,-2.32155,0.10027,0.588413,0.743471,
2,1,0,1,0,47104.7,0.741853,0.741585,4.36849,71,0.728796,10,0.00323961,-2.35967,0.0982348,0.600602,0.739663,
2,1,0,1,0,47105.5,0.737858,0.737585,3.99155,71,0.732127,10,0.0029441,-2.39886,0.0968842,0.608975,0.735828,
2,1,0,0,0,47106.3,0.733863,0.733615,3.637,71,0.735166,10,0.00266816,-2.43926,0.0953205,0.618964,0.732015,
2,1,0,1,0,47107.1,0.729868,0.729614,3.30297,71,0.73793,10,0.00240989,-2.4811,0.0888762,0.663845,0.728161,
2,1,0,1,0,47107.9,0.725872,0.725574,2.99057,71,0.740435,10,0.00216988,-2.52425,0.0881335,0.669439,0.724259,
2,1,0,1,0,47108.7,0.721877,0.721583,2.69687,71,0.7427,10,0.00194602,-2.56914,0.0858124,0.687547,0.720397,
2,1,0,1,0,47109.5,0.717882,0.717615,2.42484,71,0.744738,10,0.0017401,-2.61532,0.0810559,0.727893,0.716548,
2,1,0,0,0,47110.3,0.713887,0.713614,2.17121,71,0.746566,10,0.00154941,-2.6633,0.0787799,0.748922,0.712659,
2,1,0,1,0,47111.1,0.709892,0.709598,1.93327,71,0.748198,10,0.00137184,-2.71371,0.0772958,0.763301,0.708747,
2,1,0,0,0,47111.9,0.705897,0.705642,1.71436,71,0.749647,10,0.00120972,-2.7659,0.0727019,0.811533,0.704888,
2,1,0,1,0,47112.7,0.701901,0.7016,1.51346,71,0.750928,10,0.00106184,-2.82003,0.0701486,0.841071,0.700934,
2,1,0,1,0,47113.5,0.697906,0.697666,1.32646,71,0.752055,10,0.000925428,-2.87731,0.0677818,0.87044,0.697082,
2,1,0,1,0,47114.3,0.693911,0.69366,1.15613,71,0.753039,10,0.000801963,-2.93699,0.0631181,0.934756,0.693151,
2,1,0,1,0,47115.1,0.689916,0.689655,1.00144,71,0.753893,10,0.00069065,-2.99937,0.0618598,0.953769,0.689214,
2,1,0,0,0,47115.9,0.685921,0.685689,0.860656,71,0.754629,10,0.000590142,-3.06517,0.0589614,1.00065,0.68531,
2,1,0,1,0,47116.7,0.681926,0.681672,0.733291,71,0.755258,10,0.000499864,-3.13472,0.0545537,1.0815,0.681349,
2,1,0,1,0,47117.5,0.67793,0.677646,0.619675,71,0.755791,10,0.000419921,-3.20784,0.0528879,1.11557,0.677374,
2,1,0,1,0,47118.3,0.673935,0.673674,0.519171,71,0.756238,10,0.000349752,-3.28469,0.0496047,1.1894,0.673446,
2,1,0,1,0,47119.1,0.66994,0.66967,0.430397,71,0.75661,10,0.000288224,-3.36613,0.0474609,1.24313,0.66948,
2,1,0,0,0,47119.9,0.665945,0.665683,0.351071,71,0.756914,10,0.000233702,-3.4546,0.0433808,1.36005,0.665529,
2,1,0,1,0,47120.7,0.66195,0.661663,0.283606,71,0.75716,10,0.000187652,-3.54728,0.0400937,1.47155,0.661538,
2,1,0,0,0,47121.5,0.657955,0.657641,0.222588,71,0.757355,10,0.000146383,-3.6525,0.0370849,1.59094,0.657543,
2,1,0,1,0,47122.3,0.653959,0.653702,0.172043,71,0.757505,10,0.000112465,-3.76436,0.0327331,1.80246,0.653627,
2,1,0,1,0,47123.1,0.649964,0.649711,0.127609,71,0.757617,10,8.29089e-05,-3.89412,0.0283127,2.08387,0.649655,
2,1,0,1,0,47123.9,0.64597,0.645702,0.0899505,71,0.757697,10,5.80812e-05,-4.046,0.023628,2.49704,0.645662,
2,1,0,1,0,47124.7,0.641974,0.641725,0.0574776,71,0.757749,10,3.68848e-05,-4.2405,0.0176631,3.3403,0.6417,
2,1,0,0,0,47125.5,0.637979,0.637721,0.0315755,71,0.757777,10,2.01364e-05,-4.50065,0.0112476,5.24555,0.637707,
2,1,0,1,0,47126.3,0.633983,0.63369,0.00869601,71,0.757786,10,5.51058e-06,-5.06068,0.00332066,17.7675,0.633686,
2,0,0,1,0,47127.1,0.629988,0.629726,-0.0111439,71,0.757778,10,-7.01757e-06,-4.95296,-0.00340989,-17.3026,0.629731,
2,0,0,1,0,47127.9,0.625993,0.625726,-0.0261792,71,0.757756,10,-1.6381e-05,-4.58204,-0.0161494,-3.65338,0.625738,
2,0,0,1,0,47128.7,0.621998,0.621742,-0.0395746,71,0.757723,10,-2.46052e-05,-4.40258,-0.0276436,-2.13431,0.621759,
2,0,0,0,0,47129.5,0.618003,0.617723,-0.0502989,71,0.75768,10,-3.10708e-05,-4.29844,-0.0440455,-1.33953,0.617745,
2,0,0,1,0,47130.3,0.614008,0.613677,-0.0602972,71,0.757628,10,-3.7003e-05,-4.2197,-0.0667563,-0.883811,0.613703,
2,0,0,1,0,47131.1,0.610012,0.609739,-0.0683901,71,0.75757,10,-4.17001e-05,-4.16501,-0.0796141,-0.741075,0.609769,
2,0,0,1,0,47131.9,0.606017,0.605745,-0.0738484,71,0.757505,10,-4.47333e-05,-4.13166,-0.129448,-0.45578,0.605777,
2,0,0,1,0,47132.7,0.602022,0.601752,-0.0808134,71,0.757436,10,-4.86297e-05,-4.09252,-0.143998,-0.409729,0.601788,
2,0,0,0,0,47133.5,0.598027,0.597749,-0.0853233,71,0.757362,10,-5.10019e-05,-4.06893,-0.172211,-0.342603,0.597787,
2,0,0,1,0,47134.3,0.594032,0.593733,-0.0904631,71,0.757285,10,-5.3711e-05,-4.04353,-0.195582,-0.301663,0.593773,
2,0,0,0,0,47135.1,0.590037,0.589747,-0.0935858,71,0.757204,10,-5.5192e-05,-4.02879,-0.240784,-0.245032,0.589789,
2,0,0,1,0,47135.9,0.586041,0.58573,-0.0964903,71,0.757122,10,-5.65173e-05,-4.01552,-0.36326,-0.162418,0.585773,
2,0,0,1,0,47136.7,0.582046,0.581757,-0.0995035,71,0.757036,10,-5.78869e-05,-4.00216,-0.336,-0.175595,0.581801,
2,0,0,1,0,47137.5,0.578052,0.577754,-0.10107,71,0.756949,10,-5.83937e-05,-3.99538,-0.352812,-0.167228,0.577798,
2,0,0,1,0,47138.3,0.574056,0.573757,-0.10263,71,0.756859,10,-5.88848e-05,-3.98873,-0.477246,-0.123626,0.573803,
2,0,0,0,0,47139.1,0.570061,0.569743,-0.105491,71,0.756768,10,-6.01026e-05,-3.97679,-1.24696,-0.047315,0.569789,
2,0,0,1,0,47139.9,0.566065,0.565755,-0.107577,71,0.756676,10,-6.08621e-05,-3.96828,-0.689665,-0.0855488,0.565803,
2,0,0,1,0,47140.7,0.56207,0.561776,-0.108379,71,0.756582,10,-6.08847e-05,-3.96505,-0.879955,-0.0670489,0.561823,
2,0,0,1,0,47141.5,0.558075,0.557742,-0.110407,71,0.756488,10,-6.15788e-05,-3.957,-0.557997,-0.105735,0.55779,
2,0,0,1,0,47142.3,0.55408,0.553783,-0.110826,71,0.756393,10,-6.13738e-05,-3.95536,-0.844562,-0.0698587,0.553832,
2,0,0,0,0,47143.1,0.550085,0.54974,-0.11191,71,0.756296,10,-6.15215e-05,-3.95113,-0.702306,-0.084009,0.54979,
2,0,0,1,0,47143.9,0.54609,0.545785,-0.113521,71,0.756199,10,-6.19579e-05,-3.94492,-0.68589,-0.0860197,0.545835,
2,0,0,1,0,47144.7,0.542094,0.541809,-0.113916,71,0.7561,10,-6.17208e-05,-3.94341,-0.553131,-0.106666,0.541859,
2,0,0,1,0,47145.5,0.538099,0.53781,-0.116063,71,0.756001,10,-6.24197e-05,-3.93531,4.52947,0.0130258,0.537861,
2,0,0,1,0,47146.3,0.534104,0.533811,-0.116716,71,0.755901,10,-6.23041e-05,-3.93287,-1.14488,-0.0515339,0.533863,
2,0,0,0,0,47147.1,0.530109,0.52981,-0.117029,71,0.7558,10,-6.20032e-05,-3.93171,-1.73569,-0.0339922,0.529862,
2,0,0,1,0,47147.9,0.526114,0.525757,-0.118316,71,0.755698,10,-6.22055e-05,-3.92696,-0.563832,-0.104641,0.525809,
2,0,0,0,0,47148.7,0.522119,0.521826,-0.119323,71,0.755596,10,-6.22659e-05,-3.92328,2.87453,0.0205251,0.521879,
2,0,0,1,0,47149.5,0.518123,0.517839,-0.121073,71,0.755493,10,-6.26963e-05,-3.91695,-0.645036,-0.0914678,0.517892,
2,0,0,1,0,47150.3,0.514128,0.513832,-0.121334,71,0.755388,10,-6.23452e-05,-3.91602,-1.43737,-0.0410471,0.513885,
2,0,0,1,0,47151.1,0.510133,0.509834,-0.121736,71,0.755283,10,-6.20652e-05,-3.91458,-0.848939,-0.0694985,0.509888,
2,0,0,1,0,47151.9,0.506138,0.505809,-0.12302,71,0.755178,10,-6.22246e-05,-3.91002,49.9986,0.00118003,0.505863,
2,0,0,0,0,47152.7,0.502143,0.501818,-0.124246,71,0.755071,10,-6.23491e-05,-3.90572,-0.548474,-0.107571,0.501873,
2,0,0,1,0,47153.5,0.498148,0.49788,-0.124856,71,0.754964,10,-6.21633e-05,-3.90359,-1.19805,-0.0492467,0.497935,
2,0,0,1,0,47154.3,0.494152,0.493842,-0.126169,71,0.754856,10,-6.23076e-05,-3.89905,-0.968636,-0.0609104,0.493897,
2,0,0,1,0,47155.1,0.490157,0.489859,-0.127556,71,0.754747,10,-6.24843e-05,-3.8943,-1.33226,-0.0442856,0.489915,
2,0,0,1,0,47155.9,0.486162,0.48583,-0.129091,71,0.754637,10,-6.27165e-05,-3.8891,-0.749329,-0.0787372,0.485887,
2,0,0,0,0,47156.7,0.482167,0.48181,-0.130579,71,0.754526,10,-6.29141e-05,-3.88413,-0.79146,-0.0745457,0.481867,
2,0,0,1,0,47157.5,0.478172,0.477878,-0.130113,71,0.754414,10,-6.21783e-05,-3.88568,-1.71385,-0.0344255,0.477935,
2,0,0,0,0,47158.3,0.474177,0.473887,-0.132108,71,0.754301,10,-6.26044e-05,-3.87907,-1.49001,-0.0395971,0.473946,
2,0,0,1,0,47159.1,0.470181,0.469902,-0.133951,71,0.754187,10,-6.2944e-05,-3.87305,-0.506985,-0.116374,0.469961,
2,0,0,1,0,47159.9,0.466186,0.465903,-0.134987,71,0.754071,10,-6.28909e-05,-3.86971,-1.79188,-0.0329264,0.465962,
2,0,0,1,0,47160.7,0.462191,0.461914,-0.136792,71,0.753955,10,-6.31863e-05,-3.86394,-0.753431,-0.0783084,0.461974,
2,0,0,1,0,47161.5,0.458196,0.457878,-0.137737,71,0.753837,10,-6.30668e-05,-3.86095,-0.614608,-0.0959962,0.457939,
2,0,0,0,0,47162.3,0.454201,0.453909,-0.139875,71,0.753718,10,-6.34905e-05,-3.85426,4.84926,0.0121668,0.453971,
2,0,0,1,0,47163.1,0.450205,0.449935,-0.141154,71,0.753598,10,-6.35102e-05,-3.85031,-0.466233,-0.126546,0.449997,
2,0,0,1,0,47163.9,0.44621,0.445939,-0.142183,71,0.753477,10,-6.34051e-05,-3.84715,-1.23587,-0.0477395,0.446002,
2,0,0,1,0,47164.7,0.442215,0.441938,-0.144737,71,0.753354,10,-6.39646e-05,-3.83942,-0.807829,-0.0730352,0.442001,
2,0,0,1,0,47165.5,0.43822,0.437909,-0.146041,71,0.75323,10,-6.39525e-05,-3.83553,-0.595639,-0.0990532,0.437973,
2,0,0,0,0,47166.3,0.434225,0.433882,-0.147725,71,0.753105,10,-6.40953e-05,-3.83055,-1.17989,-0.0500045,0.433947,
2,0,0,1,0,47167.1,0.43023,0.42992,-0.149295,71,0.752978,10,-6.41847e-05,-3.82596,-0.466214,-0.126551,0.429985,
2,0,0,1,0,47167.9,0.426234,0.425938,-0.15069,71,0.75285,10,-6.41847e-05,-3.82191,-0.777356,-0.0758983,0.426004,
2,0,0,1,0,47168.7,0.422239,0.421942,-0.152544,71,0.75272,10,-6.43646e-05,-3.81661,-1.68862,-0.0349397,0.422009,
2,0,0,1,0,47169.5,0.418244,0.417943,-0.154163,71,0.752589,10,-6.44311e-05,-3.81202,-0.621705,-0.0949003,0.418011,
2,0,0,0,0,47170.3,0.414249,0.413981,-0.156496,71,0.752456,10,-6.47862e-05,-3.8055,-1.43794,-0.0410309,0.41405,
2,0,0,1,0,47171.1,0.410254,0.410005,-0.158451,71,0.752321,10,-6.49657e-05,-3.80011,-1.44406,-0.040857,0.410075,
2,0,0,0,0,47171.9,0.406259,0.405977,-0.16054,71,0.752185,10,-6.51757e-05,-3.79442,-0.448462,-0.131561,0.406047,
2,0,0,1,0,47172.7,0.402263,0.401961,-0.162311,71,0.752048,10,-6.52428e-05,-3.78965,-1.09287,-0.0539862,0.402032,
2,0,0,1,0,47173.5,0.398268,0.398007,-0.164495,71,0.751909,10,-6.547e-05,-3.78385,-0.612722,-0.0962916,0.398079,
2,0,0,1,0,47174.3,0.394274,0.393972,-0.165123,71,0.751768,10,-6.50538e-05,-3.78219,-0.663564,-0.0889138,0.394045,
2,0,0,1,0,47175.1,0.390278,0.389986,-0.167545,71,0.751626,10,-6.53403e-05,-3.77587,-1.19741,-0.0492729,0.39006,
2,0,0,0,0,47175.9,0.386283,0.385992,-0.169181,71,0.751482,10,-6.53025e-05,-3.77165,-0.637742,-0.0925139,0.386067,
2,0,0,1,0,47176.7,0.382287,0.382002,-0.171496,71,0.751336,10,-6.55116e-05,-3.76575,-0.893634,-0.0660226,0.382077,
2,0,0,1,0,47177.5,0.378292,0.377953,-0.174484,71,0.751189,10,-6.59467e-05,-3.75825,-0.926732,-0.0636646,0.37803,
2,0,0,1,0,47178.3,0.374297,0.373999,-0.175531,71,0.75104,10,-6.56486e-05,-3.75565,-0.516495,-0.114231,0.374077,
2,0,0,1,0,47179.1,0.370303,0.370004,-0.178597,71,0.750889,10,-6.60815e-05,-3.74813,-1.0776,-0.0547513,0.370083,
2,0,0,0,0,47179.9,0.366307,0.366006,-0.180993,71,0.750736,10,-6.62445e-05,-3.74234,-0.626164,-0.0942245,0.366086,
2,0,0,1,0,47180.7,0.362312,0.362017,-0.182233,71,0.750581,10,-6.59713e-05,-3.73937,-0.577455,-0.102172,0.362097,
2,0,0,1,0,47181.4,0.358316,0.357984,-0.184999,71,0.750424,10,-6.62267e-05,-3.73283,-4.18748,-0.0140896,0.358065,
2,0,0,1,0,47182.2,0.354321,0.353996,-0.187486,71,0.750266,10,-6.63691e-05,-3.72703,-0.524198,-0.112553,0.354078,
2,0,0,1,0,47183,0.350327,0.350033,-0.188675,71,0.750106,10,-6.60425e-05,-3.72429,-0.871809,-0.0676754,0.350116,
2,0,0,0,0,47183.8,0.346331,0.346008,-0.191766,71,0.749944,10,-6.63525e-05,-3.71723,-1.73795,-0.033948,0.346092,
2,0,0,1,0,47184.6,0.342336,0.341988,-0.194481,71,0.74978,10,-6.651e-05,-3.71112,-0.499398,-0.118142,0.342073,
2,0,0,0,0,47185.4,0.338341,0.338034,-0.196732,71,0.749614,10,-6.65023e-05,-3.70612,-1.15639,-0.051021,0.338121,
2,0,0,1,0,47186.2,0.334345,0.334044,-0.198461,71,0.749446,10,-6.62945e-05,-3.70233,-0.607706,-0.0970865,0.334131,
2,0,0,1,0,47187,0.33035,0.330058,-0.200964,71,0.749277,10,-6.63298e-05,-3.69688,-0.732724,-0.0805215,0.330147,
2,0,0,1,0,47187.8,0.326355,0.326063,-0.202853,71,0.749106,10,-6.61429e-05,-3.69282,-0.76877,-0.076746,0.326152,
2,0,0,1,0,47188.6,0.32236,0.322027,-0.205898,71,0.748933,10,-6.63048e-05,-3.68635,-0.739963,-0.0797337,0.322117,
2,0,0,0,0,47189.4,0.318365,0.318089,-0.207274,71,0.748757,10,-6.59315e-05,-3.68346,-0.898859,-0.0656388,0.31818,
2,0,0,1,0,47190.2,0.31437,0.314076,-0.210733,71,0.74858,10,-6.6186e-05,-3.67627,-1.75218,-0.0336723,0.314168,
2,0,0,1,0,47191,0.310374,0.310062,-0.212299,71,0.748401,10,-6.58258e-05,-3.67305,-0.509179,-0.115873,0.310155,
2,0,0,1,0,47191.8,0.306379,0.306058,-0.214932,71,0.74822,10,-6.57817e-05,-3.6677,-1.25205,-0.0471226,0.306153,
2,0,0,1,0,47192.6,0.302385,0.302097,-0.217371,71,0.748037,10,-6.5667e-05,-3.6628,-0.620481,-0.0950876,0.302192,
2,0,0,0,0,47193.4,0.298389,0.298065,-0.219847,71,0.747852,10,-6.55286e-05,-3.65788,-0.560298,-0.105301,0.298161,
2,0,0,1,0,47194.2,0.294394,0.294066,-0.223442,71,0.747664,10,-6.57067e-05,-3.65083,-1.32374,-0.0445708,0.294164,
2,0,0,1,0,47195,0.290398,0.290107,-0.225553,71,0.747475,10,-6.54346e-05,-3.64675,-0.769722,-0.076651,0.290206,
2,0,0,1,0,47195.8,0.286403,0.286084,-0.226855,71,0.747284,10,-6.48997e-05,-3.64425,-0.875669,-0.0673771,0.286184,
2,0,0,1,0,47196.6,0.282408,0.282103,-0.230654,71,0.74709,10,-6.50683e-05,-3.63704,-1.47131,-0.0401003,0.282205,
2,0,0,1,0,47197.4,0.278414,0.278087,-0.232967,71,0.746895,10,-6.47851e-05,-3.63271,-0.538753,-0.109512,0.27819,
2,0,0,1,0,47198.2,0.274418,0.274126,-0.235732,71,0.746697,10,-6.46201e-05,-3.62758,-1.63091,-0.0361762,0.27423,
2,0,0,0,0,47199,0.270423,0.270123,-0.239115,71,0.746497,10,-6.45904e-05,-3.62139,-0.671838,-0.0878188,0.270228,
2,0,0,1,0,47199.8,0.266427,0.266105,-0.24159,71,0.746295,10,-6.42882e-05,-3.61692,-0.666453,-0.0885284,0.266211,
2,0,0,1,0,47200.6,0.262432,0.262123,-0.244014,71,0.746091,10,-6.39616e-05,-3.61259,-1.28836,-0.0457947,0.26223,
2,0,0,1,0,47201.4,0.258437,0.258136,-0.245543,71,0.745885,10,-6.33835e-05,-3.60987,-0.712505,-0.0828064,0.258244,
2,0,0,1,0,47202.2,0.254442,0.254162,-0.247352,71,0.745677,10,-6.28675e-05,-3.60668,-1.07037,-0.0551211,0.25427,
2,0,0,0,0,47203,0.250447,0.250133,-0.250774,71,0.745467,10,-6.27269e-05,-3.60072,-2.93942,-0.020072,0.250243,
2,0,0,1,0,47203.8,0.246452,0.246143,-0.252988,71,0.745255,10,-6.22712e-05,-3.5969,-0.700522,-0.0842229,0.246254,
2,0,0,1,0,47204.6,0.242456,0.242114,-0.25548,71,0.745041,10,-6.18553e-05,-3.59264,-0.696291,-0.0847347,0.242227,
2,0,0,1,0,47205.4,0.238461,0.238145,-0.258309,71,0.744825,10,-6.15152e-05,-3.58786,-1.49639,-0.0394281,0.238259,
2,0,0,1,0,47206.2,0.234467,0.234156,-0.260643,71,0.744607,10,-6.10313e-05,-3.58395,-0.69575,-0.0848006,0.234271,
2,0,0,0,0,47207,0.230471,0.230162,-0.263006,71,0.744387,10,-6.05341e-05,-3.58003,-1.33306,-0.0442591,0.230278,
2,0,0,1,0,47207.8,0.226476,0.226158,-0.265784,71,0.744165,10,-6.01093e-05,-3.57547,-0.960402,-0.0614326,0.226275,
2,0,0,0,0,47208.6,0.222481,0.222206,-0.26718,71,0.743941,10,-5.93691e-05,-3.5732,-1.14859,-0.0513673,0.222324,
2,0,0,1,0,47209.4,0.218485,0.218155,-0.270684,71,0.743715,10,-5.90512e-05,-3.56754,-1.3963,-0.0422544,0.218275,
2,0,0,1,0,47210.2,0.21449,0.214161,-0.273828,71,0.743488,10,-5.86432e-05,-3.56252,-0.62832,-0.0939012,0.214281,
2,0,0,1,0,47211,0.210496,0.210187,-0.276359,71,0.743257,10,-5.80871e-05,-3.55853,-0.917271,-0.0643212,0.210309,
2,0,0,1,0,47211.8,0.2065,0.206152,-0.279758,71,0.743025,10,-5.76725e-05,-3.55322,-0.799382,-0.073807,0.206275,
2,0,0,0,0,47212.6,0.202505,0.202203,-0.28128,71,0.74279,10,-5.68756e-05,-3.55086,-0.930099,-0.0634341,0.202327,
2,0,0,1,0,47213.4,0.198509,0.198195,-0.284601,71,0.742552,10,-5.64065e-05,-3.54576,-0.847586,-0.0696095,0.19832,
2,0,0,1,0,47214.2,0.194514,0.194173,-0.288533,71,0.742312,10,-5.60253e-05,-3.5398,-0.819761,-0.0719722,0.1943,
2,0,0,1,0,47215,0.190519,0.190161,-0.291276,71,0.742068,10,-5.53893e-05,-3.5357,-0.662483,-0.0890589,0.190289,
2,0,0,1,0,47215.8,0.186524,0.186172,-0.295981,71,0.741822,10,-5.51032e-05,-3.52874,-0.679176,-0.08687,0.186302,
2,0,0,0,0,47216.6,0.182529,0.182234,-0.301199,71,0.741572,10,-5.48887e-05,-3.52115,-0.43447,-0.135798,0.182367,
2,0,0,1,0,47217.4,0.178534,0.178222,-0.306046,71,0.741318,10,-5.45439e-05,-3.51421,-0.630196,-0.0936217,0.178356,
2,0,0,1,0,47218.2,0.174538,0.174202,-0.310851,71,0.741061,10,-5.4151e-05,-3.50745,-0.493066,-0.119659,0.174339,
2,0,0,1,0,47219,0.170543,0.170254,-0.317569,71,0.740798,10,-5.40674e-05,-3.49816,-0.37374,-0.157864,0.170393,
2,0,0,1,0,47219.8,0.166549,0.166206,-0.324946,71,0.740529,10,-5.40078e-05,-3.48819,-0.410085,-0.143873,0.166349,
2,0,0,0,0,47220.6,0.162553,0.162232,-0.334576,71,0.740254,10,-5.42788e-05,-3.47551,-0.276639,-0.213275,0.162379,
2,0,0,1,0,47221.4,0.158558,0.158234,-0.345693,71,0.73997,10,-5.47004e-05,-3.46131,-0.261609,-0.225527,0.158386,
2,0,0,0,0,47222.2,0.154563,0.154233,-0.361579,71,0.739675,10,-5.57675e-05,-3.4418,-0.198314,-0.297508,0.154392,
2,0,0,1,0,47223,0.150567,0.150255,-0.381943,71,0.739367,10,-5.73889e-05,-3.418,-0.145341,-0.405942,0.150423,
2,0,0,1,0,47223.8,0.146572,0.146297,-0.407939,71,0.73904,10,-5.96804e-05,-3.3894,-0.12354,-0.477578,0.146477,
2,0,0,1,0,47224.6,0.142578,0.142252,-0.442762,71,0.73869,10,-6.29838e-05,-3.35383,-0.104962,-0.562106,0.142447,
2,0,0,1,0,47225.4,0.138582,0.138273,-0.485331,71,0.738308,10,-6.71082e-05,-3.31396,-0.0945581,-0.623955,0.138487,
2,0,0,0,0,47226.2,0.134587,0.134246,-0.533165,71,0.737889,10,-7.1575e-05,-3.27314,-0.104671,-0.56367,0.13448,
2,0,0,1,0,47227,0.130591,0.130287,-0.581831,71,0.737431,10,-7.58048e-05,-3.2352,-0.112576,-0.524092,0.130543,
2,0,0,1,0,47227.8,0.126596,0.126247,-0.622963,71,0.736936,10,-7.86472e-05,-3.20554,-0.149075,-0.395774,0.126521,
2,0,0,1,0,47228.6,0.122602,0.122301,-0.655927,71,0.736411,10,-8.02208e-05,-3.18314,-0.247395,-0.238485,0.12259,
2,0,0,1,0,47229.4,0.118607,0.118299,-0.67579,71,0.735866,10,-7.99451e-05,-3.17019,-0.371122,-0.158978,0.118596,
2,0,0,0,0,47230.2,0.114611,0.114239,-0.686422,71,0.735308,10,-7.84161e-05,-3.16341,-2.15252,-0.0274098,0.114541,
2,0,0,1,0,47231,0.110616,0.110267,-0.689421,71,0.734746,10,-7.60201e-05,-3.16152,-2.82267,-0.0209022,0.11057,
2,0,0,1,0,47231.8,0.10662,0.106307,-0.687555,71,0.734183,10,-7.30917e-05,-3.16269,-16.9073,-0.00348962,0.106609,
2,0,0,1,0,47232.6,0.102625,0.102313,-0.685521,71,0.733621,10,-7.01374e-05,-3.16398,0.884725,0.0666874,0.102614,
2,0,0,1,0,47233.4,0.0986305,0.09833,-0.681727,71,0.733062,10,-6.70342e-05,-3.16639,2.10473,0.0280322,0.0986299,
2,0,0,0,0,47234.2,0.0946351,0.0943234,-0.672999,71,0.732508,10,-6.34796e-05,-3.17199,0.809323,0.0729004,0.0946195,
2,0,0,1,0,47235,0.0906399,0.0903267,-0.666849,71,0.73196,10,-6.02343e-05,-3.17597,0.637836,0.0925003,0.0906201,
2,0,0,0,0,47235.8,0.0866448,0.0863194,-0.658448,71,0.731418,10,-5.68369e-05,-3.18148,0.882282,0.0668721,0.0866091,
2,0,0,1,0,47236.6,0.0826492,0.0823211,-0.649933,71,0.730883,10,-5.35032e-05,-3.18713,0.651279,0.090591,0.0826071,
2,0,0,1,0,47237.4,0.0786544,0.0783271,-0.642183,71,0.730356,10,-5.03004e-05,-3.19234,0.850697,0.0693549,0.0786097,
2,0,0,1,0,47238.2,0.0746596,0.0743245,-0.631824,71,0.729835,10,-4.696e-05,-3.1994,0.640958,0.0920497,0.0746025,
2,0,0,1,0,47239,0.0706641,0.0703402,-0.625094,71,0.72932,10,-4.39692e-05,-3.20405,0.588389,0.100274,0.0706152,
2,0,0,0,0,47239.8,0.0666689,0.0663085,-0.616919,71,0.728813,10,-4.0907e-05,-3.20977,0.848546,0.0695307,0.0665799,
2,0,0,1,0,47240.6,0.0626737,0.0623797,-0.606573,71,0.728311,10,-3.78379e-05,-3.21712,0.631047,0.0934954,0.0626466,
2,0,0,1,0,47241.4,0.0586783,0.0583638,-0.599485,71,0.727817,10,-3.49882e-05,-3.22222,0.560631,0.105239,0.0586276,
2,0,0,1,0,47242.2,0.0546835,0.0543662,-0.589647,71,0.72733,10,-3.20569e-05,-3.22941,0.75397,0.0782524,0.0546257,
2,0,0,1,0,47243,0.0506886,0.0503593,-0.579928,71,0.72685,10,-2.92048e-05,-3.23663,0.463979,0.127161,0.0506145,
2,0,0,0,0,47243.8,0.046693,0.0463898,-0.570489,71,0.726378,10,-2.64649e-05,-3.24375,0.538828,0.109497,0.0466408,
2,0,0,1,0,47244.6,0.0426979,0.0423656,-0.559803,71,0.725914,10,-2.37164e-05,-3.25196,0.550308,0.107213,0.0426119,
2,0,0,1,0,47245.4,0.0387022,0.0383855,-0.550428,71,0.725458,10,-2.11285e-05,-3.2593,0.440991,0.13379,0.0386277,
2,0,0,1,0,47246.2,0.0347074,0.0344028,-0.540066,71,0.725011,10,-1.85798e-05,-3.26755,0.591197,0.0997975,0.0346405,
2,0,0,1,0,47247,0.0307126,0.0303981,-0.528289,71,0.724571,10,-1.6059e-05,-3.27713,0.508584,0.116008,0.0306306,
2,0,0,0,0,47247.8,0.0267172,0.026398,-0.52195,71,0.724138,10,-1.37784e-05,-3.28237,0.539092,0.109443,0.0266276,
2,0,0,1,0,47248.6,0.022722,0.0223981,-0.513549,71,0.723713,10,-1.15025e-05,-3.28942,0.701989,0.0840469,0.0226241,
2,0,0,0,0,47249.4,0.0187268,0.0183749,-0.507769,71,0.723293,10,-9.33023e-06,-3.29433,0.899257,0.0656097,0.0185984,
2,0,0,1,0,47250.2,0.0147313,0.0143886,-0.505138,71,0.722878,10,-7.26824e-06,-3.29659,1.22477,0.0481724,0.0146109,
2,0,0,1,0,47251,0.0107365,0.0104251,-0.499452,71,0.722467,10,-5.20682e-06,-3.30151,1.96794,0.0299806,0.0106448,
2,0,0,1,0,47251.8,0.00674163,0.0064732,-0.498068,71,0.722056,10,-3.2241e-06,-3.30271,2.21005,0.0266962,0.00669235,
2,0,0,1,0,47252.6,0.00274612,0.00240628,-0.498905,71,0.721647,10,-1.20051e-06,-3.30198,-1.35325,-0.0435988,0.0026258,
2,0,0,0,0,47253.1,0.000274105,-0.00014638,-0.500339,71,0.721391,10,7.32396e-08,-3.30074, , ,7.37694e-05,