File: Figure_codes/Fig_3-5/workspace_calculate_alpha_eff/20221101_1-115_003_TrumpetPlot_ParaChange_from10_every3_16_CV_C01_5.csv
mode,ox/red,error,control changes,counter inc.,time/s,control/V,Ewe/V,<I>/mA,cycle number,(Q-Qo)/C,I Range,P/W,log(|I|),Tafel slope mV/dec,alpha_eff,E-IR/V,
2,0,0,0,0,3940.25,2.44065e-05,-0.000382585,-0.0917617,6,0.0000000E+000,10,3.51067e-08,-4.03734, , ,-0.00034221,
2,1,0,0,0,3941,0.00379485,0.00347729,0.155502,6,0.000110622,10,5.40725e-07,-3.80827,0.043998,1.34097,0.00340887,
2,1,0,1,0,3941.8,0.00779002,0.00748669,0.176598,6,0.000259492,10,1.32214e-06,-3.75301,0.0847236,0.696382,0.00740899,
2,1,0,0,0,3942.6,0.0117852,0.0114982,0.189715,6,0.000422696,10,2.18138e-06,-3.7219,0.134428,0.438895,0.0114147,
2,1,0,1,0,3943.4,0.0157806,0.015455,0.203577,6,0.000596654,10,3.14628e-06,-3.69127,0.159631,0.369602,0.0153654,
2,1,0,1,0,3944.2,0.0197754,0.0194628,0.216056,6,0.000779683,10,4.20506e-06,-3.66543,0.156962,0.375887,0.0193678,
2,1,0,1,0,3945,0.0237704,0.0234498,0.228256,6,0.000972665,10,5.35257e-06,-3.64158,0.182785,0.322784,0.0233494,
2,1,0,1,0,3945.8,0.0277659,0.02747,0.240565,6,0.0011753,10,6.60833e-06,-3.61877,0.156357,0.377343,0.0273642,
2,1,0,0,0,3946.6,0.0317611,0.0314254,0.253621,6,0.00138841,10,7.97014e-06,-3.59581,0.172288,0.34245,0.0313138,
2,1,0,1,0,3947.4,0.0357567,0.0354511,0.269314,6,0.00161298,10,9.54746e-06,-3.56974,0.210671,0.280058,0.0353326,
2,1,0,1,0,3948.2,0.0397516,0.0394288,0.28442,6,0.00184873,10,1.12143e-05,-3.54604,0.142131,0.415111,0.0393036,
2,1,0,1,0,3948.99,0.0437465,0.0434057,0.297627,6,0.00209742,10,1.29187e-05,-3.52633,0.169125,0.348855,0.0432747,
2,1,0,1,0,3949.79,0.0477413,0.0473999,0.314804,6,0.0023581,10,1.49217e-05,-3.50196,0.201976,0.292114,0.0472613,
2,1,0,0,0,3950.59,0.0517369,0.0514151,0.329833,6,0.002631,10,1.69584e-05,-3.48171,0.162411,0.363275,0.05127,
2,1,0,1,0,3951.39,0.0557321,0.0554075,0.345869,6,0.00291709,10,1.91638e-05,-3.46109,0.252857,0.233333,0.0552553,
2,1,0,1,0,3952.19,0.0597277,0.0593951,0.362682,6,0.00321471,10,2.15415e-05,-3.44047,0.24726,0.238615,0.0592355,
2,1,0,1,0,3952.99,0.0637226,0.0633937,0.374679,6,0.00352423,10,2.37523e-05,-3.42634,0.221401,0.266485,0.0632288,
2,1,0,1,0,3953.79,0.0677174,0.0674227,0.38905,6,0.00384569,10,2.62308e-05,-3.40999,0.340317,0.173368,0.0672515,
2,1,0,0,0,3954.59,0.0717128,0.0714228,0.402584,6,0.00417731,10,2.87537e-05,-3.39514,0.222457,0.26522,0.0712457,
2,1,0,1,0,3955.39,0.075708,0.0754153,0.413162,6,0.00451943,10,3.11587e-05,-3.38388,0.322926,0.182704,0.0752335,
2,1,0,0,0,3956.19,0.0797031,0.079431,0.427177,6,0.004871,10,3.39311e-05,-3.36939,0.323317,0.182483,0.0792431,
2,1,0,1,0,3956.99,0.0836986,0.0833982,0.438445,6,0.00523167,10,3.65655e-05,-3.35809,0.317078,0.186074,0.0832053,
2,1,0,1,0,3957.78,0.0876935,0.0873883,0.451743,6,0.0056028,10,3.94771e-05,-3.34511,0.324696,0.181708,0.0871895,
2,1,0,1,0,3958.58,0.0916883,0.0913644,0.469218,6,0.00598516,10,4.28698e-05,-3.32863,0.269747,0.218723,0.091158,
2,1,0,1,0,3959.38,0.0956838,0.0953721,0.48631,6,0.00638155,10,4.63804e-05,-3.31309,0.195376,0.301982,0.0951581,
2,1,0,0,0,3960.18,0.099679,0.0993964,0.509651,6,0.00679483,10,5.06574e-05,-3.29273,0.215029,0.274382,0.0991721,
2,1,0,1,0,3960.98,0.103674,0.103348,0.535151,6,0.00722768,10,5.53071e-05,-3.27152,0.154863,0.380982,0.103113,
2,1,0,1,0,3961.78,0.10767,0.107342,0.56268,6,0.00768341,10,6.03993e-05,-3.24974,0.193757,0.304505,0.107095,
2,1,0,1,0,3962.58,0.111664,0.111333,0.591715,6,0.00816088,10,6.58776e-05,-3.22789,0.200433,0.294363,0.111073,
2,1,0,1,0,3963.38,0.115659,0.115372,0.616699,6,0.00865975,10,7.11499e-05,-3.20993,0.207263,0.284663,0.115101,
2,1,0,0,0,3964.18,0.119655,0.119351,0.640719,6,0.00917943,10,7.64705e-05,-3.19333,0.302482,0.195053,0.119069,
2,1,0,1,0,3964.98,0.12365,0.123353,0.662812,6,0.00971654,10,8.17599e-05,-3.17861,0.255441,0.230973,0.123061,
2,1,0,1,0,3965.77,0.127646,0.127319,0.684637,6,0.0102716,10,8.71677e-05,-3.16454,0.276233,0.213588,0.127018,
2,1,0,1,0,3966.57,0.13164,0.131303,0.701832,6,0.0108436,10,9.21526e-05,-3.15377,0.821925,0.0717827,0.130994,
2,1,0,1,0,3967.37,0.135635,0.135351,0.709944,6,0.011425,10,9.6092e-05,-3.14878,2.40887,0.0244929,0.135039,
2,1,0,0,0,3968.17,0.139631,0.13931,0.694893,6,0.0120054,10,9.68056e-05,-3.15808,-0.230594,-0.255861,0.139004,
2,1,0,1,0,3968.97,0.143626,0.143327,0.656296,6,0.0125642,10,9.40648e-05,-3.1829,-0.113786,-0.518516,0.143038,
2,1,0,0,0,3969.77,0.147621,0.147332,0.592969,6,0.0130807,10,8.73634e-05,-3.22697,-0.0770922,-0.765318,0.147071,
2,1,0,1,0,3970.57,0.151617,0.151325,0.522489,6,0.0135419,10,7.90656e-05,-3.28192,-0.0699147,-0.843885,0.151095,
2,1,0,1,0,3971.37,0.155612,0.155265,0.458617,6,0.0139472,10,7.12071e-05,-3.33855,-0.0746365,-0.790498,0.155063,
2,1,0,1,0,3972.17,0.159606,0.159295,0.404467,6,0.0143065,10,6.44296e-05,-3.39312,-0.0853738,-0.691078,0.159117,
2,1,0,1,0,3972.97,0.163602,0.16327,0.368166,6,0.014631,10,6.01104e-05,-3.43396,-0.0982793,-0.60033,0.163108,
2,1,0,0,0,3973.76,0.167597,0.167261,0.340094,6,0.0149292,10,5.68845e-05,-3.4684,-0.14424,-0.40904,0.167112,
2,1,0,1,0,3974.56,0.171592,0.171291,0.319773,6,0.0152085,10,5.47741e-05,-3.49516,-0.152375,-0.387202,0.17115,
2,1,0,1,0,3975.36,0.175588,0.175274,0.305426,6,0.0154732,10,5.35332e-05,-3.51509,-0.237106,-0.248834,0.17514,
2,1,0,1,0,3976.16,0.179582,0.179238,0.292654,6,0.0157272,10,5.24546e-05,-3.53365,-0.265171,-0.222498,0.179109,
2,1,0,1,0,3976.96,0.183577,0.183277,0.283338,6,0.0159731,10,5.19295e-05,-3.54769,-0.320065,-0.184338,0.183153,
2,1,0,0,0,3977.76,0.187573,0.187244,0.275049,6,0.0162119,10,5.15012e-05,-3.56059,-0.37904,-0.155656,0.187123,
2,1,0,1,0,3978.56,0.191568,0.191268,0.26927,6,0.0164452,10,5.15028e-05,-3.56981,-0.410522,-0.143719,0.191149,
2,1,0,0,0,3979.36,0.195563,0.195241,0.264002,6,0.0166743,10,5.15441e-05,-3.57839,-0.409703,-0.144007,0.195125,
2,1,0,1,0,3980.16,0.199559,0.199235,0.260605,6,0.016899,10,5.19217e-05,-3.58402,-0.730591,-0.0807566,0.19912,
2,1,0,1,0,3980.96,0.203553,0.203253,0.255191,6,0.0171207,10,5.18684e-05,-3.59314,-0.646604,-0.091246,0.203141,
2,1,0,1,0,3981.76,0.207548,0.207225,0.252291,6,0.0173398,10,5.2281e-05,-3.5981,-0.804062,-0.0733774,0.207114,
2,1,0,1,0,3982.55,0.211544,0.21126,0.248355,6,0.0175558,10,5.24674e-05,-3.60493,-0.637635,-0.0925294,0.21115,
2,1,0,0,0,3983.35,0.215539,0.215247,0.247373,6,0.0177698,10,5.32462e-05,-3.60665,-0.846373,-0.0697092,0.215138,
2,1,0,1,0,3984.15,0.219535,0.219182,0.24483,6,0.0179817,10,5.36624e-05,-3.61114,-1.17108,-0.0503809,0.219075,
2,1,0,1,0,3984.95,0.223529,0.223265,0.24224,6,0.0181917,10,5.40835e-05,-3.61576,-0.88576,-0.0666095,0.223158,
2,1,0,1,0,3985.75,0.227524,0.227223,0.240804,6,0.0184002,10,5.47161e-05,-3.61834,-1.10703,-0.053296,0.227117,
2,1,0,1,0,3986.55,0.23152,0.231239,0.238966,6,0.0186072,10,5.52582e-05,-3.62166,-38.59,-0.00152889,0.231134,
2,1,0,0,0,3987.35,0.235515,0.235247,0.237076,6,0.0188131,10,5.57714e-05,-3.62511,-0.96602,-0.0610753,0.235143,
2,1,0,1,0,3988.15,0.23951,0.239204,0.236768,6,0.0190179,10,5.66357e-05,-3.62568,6.71916,0.00878086,0.239099,
2,1,0,1,0,3988.95,0.243506,0.243213,0.23567,6,0.0192218,10,5.73179e-05,-3.6277,-1.4801,-0.0398622,0.24311,
2,1,0,1,0,3989.75,0.2475,0.247231,0.233686,6,0.0194246,10,5.77743e-05,-3.63137,-0.937849,-0.0629099,0.247128,
2,1,0,1,0,3990.54,0.251495,0.251208,0.233175,6,0.0196262,10,5.85755e-05,-3.63232,-14.9523,-0.00394588,0.251105,
2,1,0,0,0,3991.34,0.255491,0.255176,0.230712,6,0.0198272,10,5.88724e-05,-3.63693,-1.5673,-0.0376444,0.255075,
2,1,0,1,0,3992.14,0.259486,0.25917,0.231303,6,0.0200276,10,5.99467e-05,-3.63582,-0.828672,-0.0711982,0.259068,
2,1,0,0,0,3992.94,0.263481,0.263181,0.22979,6,0.0202269,10,6.04764e-05,-3.63867,-19.2612,-0.00306316,0.26308,
2,1,0,1,0,3993.74,0.267476,0.267178,0.228865,6,0.0204256,10,6.11478e-05,-3.64042,-1.84011,-0.0320633,0.267077,
2,1,0,1,0,3994.54,0.271471,0.271185,0.228163,6,0.0206236,10,6.18745e-05,-3.64175,3.10964,0.0189732,0.271085,
2,1,0,1,0,3995.34,0.275466,0.275115,0.227888,6,0.0208208,10,6.26955e-05,-3.64228,-1.03066,-0.0572449,0.275015,
2,1,0,1,0,3996.14,0.279462,0.279172,0.226848,6,0.0210177,10,6.33296e-05,-3.64427,2.5728,0.0229322,0.279073,
2,1,0,0,0,3996.94,0.283457,0.283169,0.225935,6,0.0212136,10,6.39777e-05,-3.64602,-0.994038,-0.0593539,0.28307,
2,1,0,1,0,3997.74,0.287452,0.287164,0.225481,6,0.0214088,10,6.47499e-05,-3.64689,-4.25264,-0.0138737,0.287064,
2,1,0,1,0,3998.53,0.291448,0.291152,0.224034,6,0.0216035,10,6.52278e-05,-3.64969,-1.76013,-0.0335203,0.291053,
2,1,0,1,0,3999.33,0.295442,0.295177,0.224557,6,0.0217973,10,6.62841e-05,-3.64867,-2.40125,-0.0245705,0.295078,
2,1,0,1,0,4000.13,0.299437,0.299169,0.221428,6,0.0219907,10,6.62444e-05,-3.65477,-1.66679,-0.0353973,0.299072,
2,1,0,0,0,4000.93,0.303433,0.303162,0.22182,6,0.0221831,10,6.72473e-05,-3.654,-1.61062,-0.0366319,0.303064,
2,1,0,1,0,4001.73,0.307428,0.307121,0.221362,6,0.0223746,10,6.7985e-05,-3.6549,1.7209,0.0342843,0.307024,
2,1,0,1,0,4002.53,0.311424,0.311126,0.220475,6,0.0225661,10,6.85955e-05,-3.65664,-0.905913,-0.0651277,0.311029,
2,1,0,1,0,4003.33,0.315418,0.315121,0.220789,6,0.0227568,10,6.95753e-05,-3.65602,-4.28835,-0.0137582,0.315024,
2,1,0,1,0,4004.13,0.319413,0.319158,0.219616,6,0.0229471,10,7.00922e-05,-3.65834,-5.1274,-0.0115068,0.319061,
2,1,0,0,0,4004.93,0.323409,0.323112,0.218588,6,0.0231368,10,7.06285e-05,-3.66037,-1.87625,-0.0314458,0.323016,
2,1,0,1,0,4005.73,0.327404,0.327092,0.217986,6,0.0233259,10,7.13015e-05,-3.66157,6.45405,0.00914154,0.326996,
2,1,0,0,0,4006.53,0.331399,0.331089,0.216157,6,0.0235144,10,7.15672e-05,-3.66523,-4.85467,-0.0121533,0.330994,
2,1,0,1,0,4007.32,0.335395,0.335128,0.21773,6,0.0237025,10,7.29674e-05,-3.66208,-1.76946,-0.0333434,0.335032,
2,1,0,1,0,4008.12,0.339389,0.339095,0.21641,6,0.02389,10,7.33835e-05,-3.66472,4.93893,0.0119459,0.339,
2,1,0,1,0,4008.92,0.343384,0.343088,0.215498,6,0.0240772,10,7.39346e-05,-3.66656,-1.9676,-0.0299857,0.342993,
2,1,0,1,0,4009.72,0.34738,0.347054,0.214751,6,0.0242636,10,7.45303e-05,-3.66806,-1.32567,-0.0445059,0.34696,
2,1,0,0,0,4010.52,0.351375,0.351092,0.213989,6,0.0244495,10,7.51297e-05,-3.66961,2.56159,0.0230326,0.350998,
2,1,0,1,0,4011.32,0.35537,0.35508,0.213219,6,0.024635,10,7.57099e-05,-3.67117,-0.906609,-0.0650777,0.354987,
2,1,0,1,0,4012.12,0.359365,0.359089,0.212806,6,0.0248197,10,7.64163e-05,-3.67202,-70.5794,-0.000835938,0.358995,
2,1,0,1,0,4012.92,0.36336,0.363119,0.212193,6,0.0250042,10,7.70513e-05,-3.67327,-4.24394,-0.0139022,0.363026,
2,1,0,1,0,4013.72,0.367355,0.367052,0.211009,6,0.0251881,10,7.74514e-05,-3.6757,-2.88733,-0.0204341,0.366959,
2,1,0,0,0,4014.52,0.371351,0.371079,0.212421,6,0.0253717,10,7.88248e-05,-3.6728,-31.6911,-0.00186172,0.370985,
2,1,0,1,0,4015.31,0.375346,0.375081,0.210752,6,0.0255551,10,7.90492e-05,-3.67623,-2.59889,-0.022702,0.374988,
2,1,0,1,0,4016.11,0.379342,0.37904,0.210521,6,0.025738,10,7.97957e-05,-3.67671,-109.932,-0.000536694,0.378947,
2,1,0,1,0,4016.91,0.383336,0.383074,0.210774,6,0.0259204,10,8.07421e-05,-3.67618,-1.51783,-0.0388712,0.382982,
2,1,0,1,0,4017.71,0.387331,0.387029,0.209962,6,0.0261029,10,8.12616e-05,-3.67786,2.36087,0.0249908,0.386937,
2,1,0,0,0,4018.51,0.391327,0.391042,0.210021,6,0.0262849,10,8.21269e-05,-3.67774,24.7531,0.00238354,0.39095,
2,1,0,1,0,4019.31,0.395322,0.395013,0.208157,6,0.0264669,10,8.22247e-05,-3.68161,-1.91865,-0.0307508,0.394922,
2,1,0,0,0,4020.11,0.399317,0.399013,0.20956,6,0.0266485,10,8.36171e-05,-3.67869,-2.87399,-0.020529,0.398921,
2,1,0,1,0,4020.91,0.403313,0.403025,0.209538,6,0.0268297,10,8.44493e-05,-3.67874,5.68782,0.010373,0.402933,
2,1,0,1,0,4021.71,0.407307,0.407054,0.209364,6,0.0270109,10,8.52226e-05,-3.6791,2.8114,0.020986,0.406962,
2,1,0,1,0,4022.51,0.411302,0.411035,0.210262,6,0.027192,10,8.64249e-05,-3.67724,-11.376,-0.00518634,0.410942,
2,1,0,1,0,4023.31,0.415298,0.415013,0.207865,6,0.0273731,10,8.62667e-05,-3.68222,-6.3584,-0.00927907,0.414921,
2,1,0,0,0,4024.1,0.419293,0.419025,0.208619,6,0.0275539,10,8.74167e-05,-3.68065,-1.37047,-0.0430511,0.418933,
2,1,0,1,0,4024.9,0.423288,0.422975,0.208601,6,0.0277342,10,8.82331e-05,-3.68068,3.98083,0.014821,0.422883,
2,1,0,1,0,4025.7,0.427283,0.42701,0.206951,6,0.0279148,10,8.837e-05,-3.68413,-2.70784,-0.0217886,0.426919,
2,1,0,1,0,4026.5,0.431278,0.430961,0.208054,6,0.0280953,10,8.9663e-05,-3.68182,31.6404,0.0018647,0.430869,
2,1,0,1,0,4027.3,0.435273,0.434995,0.208584,6,0.0282756,10,9.0733e-05,-3.68072,2.48993,0.0236955,0.434903,
2,1,0,0,0,4028.1,0.439269,0.439021,0.208643,6,0.0284561,10,9.15985e-05,-3.6806,2.32664,0.0253584,0.438929,
2,1,0,1,0,4028.9,0.443264,0.442998,0.208709,6,0.0286365,10,9.24576e-05,-3.68046,-1.4296,-0.0412703,0.442906,
2,1,0,0,0,4029.7,0.447259,0.446939,0.209654,6,0.0288171,10,9.37028e-05,-3.6785,4.09757,0.0143988,0.446847,
2,1,0,1,0,4030.5,0.451254,0.450973,0.209301,6,0.0289981,10,9.43892e-05,-3.67923,4.57596,0.0128935,0.450881,
2,1,0,1,0,4031.3,0.455249,0.454949,0.209918,6,0.0291791,10,9.55021e-05,-3.67795,2.41853,0.024395,0.454857,
2,1,0,1,0,4032.09,0.459244,0.458958,0.2093,6,0.0293604,10,9.60597e-05,-3.67923,-7.71189,-0.00765052,0.458865,
2,1,0,1,0,4032.89,0.46324,0.462949,0.210697,6,0.029542,10,9.75418e-05,-3.67634,2.81712,0.0209434,0.462857,
2,1,0,0,0,4033.69,0.467235,0.466941,0.211038,6,0.029724,10,9.85423e-05,-3.67564,1.11412,0.0529565,0.466848,
2,1,0,1,0,4034.49,0.471231,0.470935,0.211041,6,0.0299066,10,9.93867e-05,-3.67563,-1.41829,-0.0415995,0.470842,
2,1,0,1,0,4035.29,0.475225,0.4749,0.21257,6,0.0300894,10,0.00010095,-3.6725,0.789311,0.0747487,0.474807,
2,1,0,1,0,4036.09,0.47922,0.478941,0.213322,6,0.0302728,10,0.000102168,-3.67097,-16.4351,-0.00358987,0.478847,
2,1,0,1,0,4036.89,0.483216,0.482942,0.213189,6,0.0304569,10,0.000102958,-3.67123,3.48186,0.016945,0.482848,
2,1,0,0,0,4037.69,0.487211,0.486919,0.215582,6,0.0306414,10,0.000104971,-3.66639,1.55081,0.0380446,0.486824,
2,1,0,1,0,4038.49,0.491206,0.490913,0.214815,6,0.0308266,10,0.000105455,-3.66794,2.29303,0.0257301,0.490819,
2,1,0,1,0,4039.29,0.495201,0.494916,0.216229,6,0.0310123,10,0.000107015,-3.66509,1.84495,0.0319793,0.49482,
2,1,0,1,0,4040.08,0.499196,0.498919,0.217192,6,0.0311986,10,0.000108361,-3.66316,1.52588,0.0386662,0.498824,
2,1,0,1,0,4040.88,0.503191,0.5029,0.218237,6,0.031386,10,0.000109751,-3.66107,1.00363,0.0587868,0.502804,
2,1,0,0,0,4041.68,0.507187,0.506888,0.219228,6,0.0315745,10,0.000111124,-3.6591,5.06016,0.0116597,0.506792,
2,1,0,1,0,4042.48,0.511182,0.510854,0.220129,6,0.0317638,10,0.000112454,-3.65732,2.31583,0.0254768,0.510757,
2,1,0,0,0,4043.28,0.515177,0.514881,0.222716,6,0.0319543,10,0.000114672,-3.65225,2.34837,0.0251238,0.514783,
2,1,0,1,0,4044.08,0.519172,0.518886,0.223278,6,0.0321455,10,0.000115856,-3.65115,1.17441,0.0502379,0.518788,
2,1,0,1,0,4044.88,0.523167,0.522884,0.224757,6,0.0323381,10,0.000117522,-3.64829,1.71351,0.0344322,0.522785,
2,1,0,1,0,4045.68,0.527162,0.526891,0.227144,6,0.0325322,10,0.00011968,-3.6437,0.822136,0.0717643,0.526791,
2,1,0,1,0,4046.48,0.531158,0.530876,0.22803,6,0.0327275,10,0.000121056,-3.64201,0.754009,0.0782484,0.530775,
2,1,0,0,0,4047.28,0.535153,0.534879,0.231108,6,0.0329247,10,0.000123615,-3.63618,1.00476,0.0587206,0.534777,
2,1,0,1,0,4048.08,0.539148,0.538907,0.23465,6,0.0331237,10,0.000126455,-3.62958,0.840381,0.0702063,0.538804,
2,1,0,1,0,4048.87,0.543143,0.542911,0.237099,6,0.033325,10,0.000128724,-3.62507,0.727999,0.0810441,0.542807,
2,1,0,1,0,4049.67,0.547138,0.546907,0.238967,6,0.0335282,10,0.000130693,-3.62166,0.88898,0.0663682,0.546802,
2,1,0,1,0,4050.47,0.551133,0.550869,0.24186,6,0.0337338,10,0.000133233,-3.61644,0.517597,0.113988,0.550763,
2,1,0,0,0,4051.27,0.555129,0.554858,0.245316,6,0.0339423,10,0.000136116,-3.61027,0.787306,0.074939,0.55475,
2,1,0,1,0,4052.07,0.559124,0.558877,0.249427,6,0.0341534,10,0.000139399,-3.60306,0.52644,0.112074,0.558767,
2,1,0,1,0,4052.87,0.56312,0.562853,0.254059,6,0.034368,10,0.000142998,-3.59507,0.512124,0.115206,0.562741,
2,1,0,1,0,4053.67,0.567114,0.566837,0.258507,6,0.0345865,10,0.000146531,-3.58753,0.502317,0.117456,0.566724,
2,1,0,1,0,4054.47,0.571109,0.570825,0.264211,6,0.0348087,10,0.000150818,-3.57805,0.423876,0.139192,0.570709,
2,1,0,0,0,4055.27,0.575105,0.574785,0.269852,6,0.0350357,10,0.000155107,-3.56887,0.371944,0.158626,0.574666,
2,1,0,1,0,4056.07,0.5791,0.578828,0.276423,6,0.0352677,10,0.000160001,-3.55843,0.377919,0.156118,0.578707,
2,1,0,0,0,4056.86,0.583095,0.58284,0.284148,6,0.0355053,10,0.000165613,-3.54646,0.310668,0.189914,0.582715,
2,1,0,1,0,4057.66,0.58709,0.586823,0.292057,6,0.0357497,10,0.000171386,-3.53453,0.294859,0.200095,0.586694,
2,1,0,1,0,4058.46,0.591085,0.590775,0.304658,6,0.0360016,10,0.000179984,-3.51619,0.244302,0.241504,0.590641,
2,1,0,1,0,4059.26,0.59508,0.594792,0.315325,6,0.036262,10,0.000187553,-3.50124,0.246385,0.239462,0.594654,
2,1,0,1,0,4060.06,0.599076,0.598781,0.32863,6,0.0365322,10,0.000196778,-3.48329,0.214225,0.275411,0.598636,
2,1,0,0,0,4060.86,0.603071,0.602774,0.345275,6,0.0368137,10,0.000208123,-3.46184,0.182867,0.322639,0.602623,
2,1,0,1,0,4061.66,0.607066,0.606805,0.361991,6,0.0371084,10,0.000219658,-3.4413,0.176636,0.334021,0.606646,
2,1,0,1,0,4062.46,0.611061,0.610803,0.381975,6,0.037419,10,0.000233312,-3.41796,0.159826,0.369151,0.610635,
2,1,0,1,0,4063.26,0.615056,0.614741,0.408004,6,0.0377477,10,0.000250817,-3.38934,0.127625,0.462291,0.614562,
2,1,0,1,0,4064.06,0.619051,0.618703,0.435685,6,0.0380981,10,0.00026956,-3.36083,0.139027,0.424378,0.618512,
2,1,0,0,0,4064.85,0.623047,0.622785,0.469074,6,0.038473,10,0.000292133,-3.32876,0.114562,0.515003,0.622579,
2,1,0,1,0,4065.65,0.627042,0.626793,0.509221,6,0.0388769,10,0.000319176,-3.29309,0.106343,0.55481,0.626569,
2,1,0,1,0,4066.45,0.631037,0.630764,0.555398,6,0.0393155,10,0.000350326,-3.2554,0.104493,0.56463,0.63052,
2,1,0,1,0,4067.25,0.635032,0.634771,0.61076,6,0.0397939,10,0.000387693,-3.21413,0.0899477,0.655937,0.634502,
2,1,0,1,0,4068.05,0.639027,0.63872,0.677686,6,0.0403213,10,0.000432852,-3.16897,0.0858959,0.686878,0.638422,
2,1,0,1,0,4068.85,0.643022,0.642718,0.755138,6,0.0409063,10,0.000485341,-3.12197,0.0808671,0.729592,0.642386,
2,1,0,1,0,4069.65,0.647018,0.64676,0.847834,6,0.0415597,10,0.000548345,-3.07169,0.077464,0.761644,0.646387,
2,1,0,0,0,4070.45,0.651013,0.650762,0.957312,6,0.0422939,10,0.000622983,-3.01895,0.0718684,0.820945,0.650341,
2,1,0,1,0,4071.25,0.655008,0.654767,1.08886,6,0.0431242,10,0.000712946,-2.96303,0.0702688,0.839633,0.654287,
2,1,0,1,0,4072.05,0.659003,0.658698,1.2427,6,0.0440674,10,0.000818562,-2.90563,0.0672943,0.876746,0.658151,
2,1,0,1,0,4072.85,0.662998,0.66269,1.42306,6,0.0451437,10,0.000943051,-2.84678,0.0663267,0.889536,0.662064,
2,1,0,1,0,4073.64,0.666994,0.666725,1.63216,6,0.0463752,10,0.00108821,-2.78724,0.0650494,0.907003,0.666007,
2,1,0,0,0,4074.44,0.670989,0.670712,1.87693,6,0.0477881,10,0.00125888,-2.72655,0.0633792,0.930904,0.669886,
2,1,0,1,0,4075.24,0.674984,0.674693,2.15669,6,0.0494105,10,0.0014551,-2.66621,0.0643859,0.91635,0.673744,
2,1,0,1,0,4076.04,0.678979,0.678713,2.47798,6,0.0512734,10,0.00168183,-2.6059,0.0638001,0.924763,0.677622,
2,1,0,1,0,4076.84,0.682974,0.682674,2.84174,6,0.0534101,10,0.00193998,-2.54642,0.0640109,0.921718,0.681424,
2,1,0,1,0,4077.64,0.686969,0.686707,3.25203,6,0.0558554,10,0.00223319,-2.48785,0.0666413,0.885337,0.685277,
2,1,0,0,0,4078.44,0.690965,0.690673,3.70933,6,0.058648,10,0.00256193,-2.4307,0.0670515,0.87992,0.689041,
2,1,0,1,0,4079.24,0.69496,0.694704,4.21669,6,0.0618257,10,0.00292935,-2.37503,0.0681662,0.865531,0.692849,
2,1,0,0,0,4080.04,0.698955,0.698725,4.7697,6,0.0654263,10,0.00333271,-2.32151,0.0720281,0.819125,0.696627,
2,1,0,1,0,4080.84,0.70295,0.702698,5.3707,6,0.0694895,10,0.00377398,-2.26997,0.0729995,0.808224,0.700335,
2,1,0,1,0,4081.63,0.706945,0.706693,6.02072,6,0.0740518,10,0.0042548,-2.22035,0.0768742,0.767488,0.704044,
2,1,0,1,0,4082.43,0.71094,0.710663,6.71154,6,0.07915,10,0.00476965,-2.17318,0.0805178,0.732757,0.70771,
2,1,0,1,0,4083.23,0.714936,0.714685,7.44439,6,0.0848188,10,0.00532039,-2.12817,0.0814637,0.724249,0.711409,
2,1,0,0,0,4084.03,0.718931,0.71867,8.21888,6,0.0910889,10,0.00590666,-2.08519,0.088242,0.668616,0.715053,
2,1,0,1,0,4084.83,0.722927,0.72264,9.02767,6,0.0979928,10,0.00652375,-2.04442,0.0929783,0.634557,0.718668,
2,1,0,1,0,4085.63,0.726921,0.726643,9.87388,6,0.105557,10,0.00717479,-2.00551,0.0935767,0.630499,0.722298,
2,1,0,1,0,4086.43,0.730916,0.730671,10.7525,6,0.11381,10,0.00785657,-1.96849,0.0995595,0.59261,0.72594,
2,1,0,1,0,4087.23,0.734911,0.734641,11.6652,6,0.122779,10,0.00856976,-1.93311,0.103921,0.567736,0.729508,
2,1,0,0,0,4088.03,0.738907,0.738609,12.6163,6,0.132494,10,0.00931854,-1.89907,0.106922,0.551806,0.733058,
2,1,0,1,0,4088.83,0.742902,0.742648,13.6093,6,0.142982,10,0.0101069,-1.86616,0.108679,0.542884,0.73666,
2,1,0,1,0,4089.62,0.746897,0.74662,14.653,6,0.154288,10,0.0109402,-1.83407,0.111713,0.528141,0.740173,
2,1,0,1,0,4090.42,0.750892,0.750612,15.7479,6,0.166443,10,0.0118206,-1.80278,0.112714,0.523448,0.743683,
2,1,0,1,0,4091.22,0.754887,0.754605,16.8906,6,0.179495,10,0.0127457,-1.77235,0.115123,0.512495,0.747173,
2,1,0,0,0,4092.02,0.758883,0.758637,18.0943,6,0.193488,10,0.013727,-1.74246,0.114404,0.515717,0.750676,
2,1,0,1,0,4092.82,0.762878,0.762636,19.3796,6,0.208472,10,0.0147796,-1.71266,0.117891,0.500461,0.754109,
2,1,0,0,0,4093.62,0.766873,0.76661,20.7087,6,0.224509,10,0.0158755,-1.68385,0.118647,0.497273,0.757499,
2,1,0,1,0,4094.42,0.770868,0.770601,22.3418,6,0.241649,10,0.0172166,-1.65088,0.1029,0.573372,0.760771,
2,1,0,1,0,4095.22,0.774863,0.774605,23.8086,6,0.260089,10,0.0184423,-1.62327,0.116795,0.505159,0.764129,
2,1,0,1,0,4096.02,0.778858,0.778611,25.3806,6,0.279754,10,0.0197616,-1.5955,0.122971,0.479788,0.767443,
2,1,0,1,0,4096.82,0.782854,0.782597,26.9256,6,0.300668,10,0.0210719,-1.56984,0.166091,0.355226,0.77075,
2,1,0,0,0,4097.62,0.786849,0.786575,28.2555,6,0.322679,10,0.022225,-1.5489,0.128466,0.459265,0.774142,
2,1,0,1,0,4098.41,0.790844,0.790595,29.8882,6,0.345929,10,0.0236295,-1.5245,0.13818,0.42698,0.777444,
2,1,0,1,0,4099.21,0.794839,0.794556,31.6882,6,0.370525,10,0.0251781,-1.4991,0.124542,0.473735,0.780613,
2,1,0,1,0,4100.01,0.798834,0.798588,33.4536,6,0.396578,10,0.0267157,-1.47556,0.149898,0.393601,0.783868,
2,1,0,1,0,4100.81,0.802829,0.802546,35.0898,6,0.42398,10,0.0281612,-1.45482,0.161595,0.36511,0.787107,
2,1,0,0,0,4101.61,0.806825,0.806552,36.7005,6,0.452684,10,0.0296009,-1.43533,0.164501,0.358661,0.790404,
2,1,0,1,0,4102.41,0.81082,0.810538,38.3999,6,0.482717,10,0.0311246,-1.41567,0.168079,0.351024,0.793642,
2,1,0,1,0,4103.21,0.814815,0.814585,40.0553,6,0.514088,10,0.0326284,-1.39734,0.187592,0.314512,0.79696,
2,1,0,1,0,4104.01,0.81881,0.818543,41.7512,6,0.546775,10,0.0341752,-1.37933,0.180892,0.326162,0.800172,
2,1,0,1,0,4104.81,0.822805,0.822613,43.4099,6,0.580826,10,0.0357096,-1.36241,0.195666,0.301534,0.803513,
2,1,0,0,0,4105.61,0.826801,0.826573,45.0963,6,0.616227,10,0.0372754,-1.34586,0.206758,0.285357,0.806731,
2,1,0,1,0,4106.4,0.830796,0.830574,46.6408,6,0.652937,10,0.0387386,-1.33123,0.244598,0.241212,0.810052,
2,1,0,0,0,4107.2,0.834791,0.834593,48.1163,6,0.690798,10,0.0401576,-1.31771,0.266018,0.22179,0.813422,
2,1,0,1,0,4108,0.838786,0.838552,49.5084,6,0.729815,10,0.0415154,-1.30532,0.209263,0.281942,0.816768,
2,1,0,1,0,4108.8,0.842781,0.842557,51.3894,6,0.77015,10,0.0432985,-1.28913,0.283255,0.208293,0.819945,
2,1,0,1,0,4109.6,0.846776,0.846532,52.6835,6,0.811712,10,0.0445983,-1.27832,0.316466,0.186434,0.823351,
2,1,0,0,0,4110.3,0.849723,0.849492,53.2571,6,0.84893,10,0.0452415,-1.27362,0.0598928,0.985093,0.826059,
2,1,0,1,0,4111.1,0.845728,0.845485,51.1236,6,0.890611,10,0.0432242,-1.29138,0.17655,0.334183,0.82299,
2,1,0,0,0,4111.9,0.841732,0.841535,49.2678,6,0.930693,10,0.0414606,-1.30744,0.207352,0.28454,0.819857,
2,1,0,1,0,4112.7,0.837737,0.837523,47.4409,6,0.969307,10,0.0397328,-1.32385,0.240478,0.245345,0.816649,
2,1,0,1,0,4113.5,0.833742,0.833519,45.9976,6,1.0067,10,0.0383399,-1.33727,0.191323,0.30838,0.81328,
2,1,0,1,0,4114.3,0.829747,0.829536,44.2443,6,1.04271,10,0.0367023,-1.35414,0.187665,0.31439,0.810069,
2,1,0,1,0,4115.09,0.825752,0.825487,42.4473,6,1.07733,10,0.0350397,-1.37215,0.186578,0.316222,0.806811,
2,1,0,0,0,4115.89,0.821757,0.821516,40.7988,6,1.11057,10,0.0335168,-1.38935,0.181667,0.32477,0.803565,
2,1,0,1,0,4116.69,0.817761,0.817484,38.405,6,1.14243,10,0.0313955,-1.41561,0.0495673,1.1903,0.800586,
2,1,0,1,0,4117.49,0.813766,0.813478,35.3193,6,1.17128,10,0.0287315,-1.45199,0.176165,0.334914,0.797938,
2,1,0,1,0,4118.29,0.809771,0.809549,33.6487,6,1.19882,10,0.0272403,-1.47303,0.14624,0.403446,0.794744,
2,1,0,1,0,4119.09,0.805776,0.805499,31.9084,6,1.22499,10,0.0257022,-1.49609,0.143422,0.411372,0.79146,
2,1,0,0,0,4119.89,0.801781,0.801563,30.2918,6,1.24982,10,0.0242807,-1.51868,0.143281,0.411779,0.788234,
2,1,0,1,0,4120.69,0.797786,0.79755,28.7033,6,1.27338,10,0.0228923,-1.54207,0.135828,0.434374,0.784921,
2,1,0,1,0,4121.49,0.79379,0.79354,27.1141,6,1.29566,10,0.0215162,-1.5668,0.133981,0.44036,0.78161,
2,1,0,1,0,4122.29,0.789795,0.789543,25.4913,6,1.31668,10,0.0201265,-1.59361,0.117955,0.500191,0.778327,
2,1,0,1,0,4123.08,0.7858,0.785521,23.9403,6,1.33642,10,0.0188056,-1.62087,0.11813,0.499449,0.774987,
2,1,0,0,0,4123.88,0.781805,0.78154,22.4217,6,1.35492,10,0.0175234,-1.64933,0.116791,0.505177,0.771674,
2,1,0,1,0,4124.68,0.77781,0.777535,20.9808,6,1.37224,10,0.0163133,-1.67818,0.114946,0.513284,0.768303,
2,1,0,0,0,4125.48,0.773815,0.773542,19.589,6,1.38843,10,0.0151529,-1.70799,0.110468,0.534091,0.764923,
2,1,0,1,0,4126.28,0.769819,0.76954,18.195,6,1.4035,10,0.0140018,-1.74005,0.10104,0.583929,0.761534,
2,1,0,1,0,4127.08,0.765824,0.765581,16.86,6,1.41748,10,0.0129077,-1.77314,0.107313,0.549795,0.758162,
2,1,0,1,0,4127.88,0.761829,0.761568,15.6177,6,1.43044,10,0.0118939,-1.80638,0.0995502,0.592666,0.754697,
2,1,0,1,0,4128.68,0.757834,0.757525,14.4085,6,1.44242,10,0.0109148,-1.84138,0.097246,0.606709,0.751185,
2,1,0,0,0,4129.48,0.753839,0.753559,13.2553,6,1.45345,10,0.00998865,-1.87761,0.0949457,0.621408,0.747727,
2,1,0,1,0,4130.28,0.749844,0.749605,12.1683,6,1.46359,10,0.00912138,-1.91477,0.0949927,0.6211,0.744251,
2,1,0,1,0,4131.08,0.745848,0.745582,11.1485,6,1.47289,10,0.00831213,-1.95278,0.0921457,0.64029,0.740677,
2,1,0,1,0,4131.87,0.741853,0.741568,10.1755,6,1.48139,10,0.0075458,-1.99245,0.0866939,0.680556,0.737091,
2,1,0,1,0,4132.67,0.737858,0.737603,9.24208,6,1.48912,10,0.00681698,-2.03423,0.0969755,0.608401,0.733536,
2,1,0,0,0,4133.47,0.733863,0.733597,8.46683,6,1.49619,10,0.00621124,-2.07228,0.0848162,0.695622,0.729871,
2,1,0,1,0,4134.27,0.729868,0.729604,7.64834,6,1.50261,10,0.00558026,-2.11643,0.0811167,0.727347,0.726239,
2,1,0,1,0,4135.07,0.725872,0.725612,6.87179,6,1.50839,10,0.00498625,-2.16293,0.0774078,0.762197,0.722588,
2,1,0,1,0,4135.87,0.721877,0.721633,6.16079,6,1.51358,10,0.00444583,-2.21036,0.076539,0.770849,0.718922,
2,1,0,1,0,4136.67,0.717882,0.71761,5.50031,6,1.51822,10,0.00394707,-2.25961,0.0784699,0.751881,0.715189,
2,1,0,0,0,4137.47,0.713887,0.713616,4.92683,6,1.52238,10,0.00351586,-2.30743,0.07231,0.815932,0.711448,
2,1,0,1,0,4138.27,0.709892,0.709632,4.35957,6,1.52607,10,0.00309369,-2.36056,0.0693093,0.851257,0.707714,
2,1,0,0,0,4139.07,0.705897,0.705612,3.83842,6,1.52933,10,0.00270843,-2.41585,0.068298,0.863861,0.703923,
2,1,0,1,0,4139.86,0.701901,0.701632,3.36357,6,1.53219,10,0.00235999,-2.4732,0.0636341,0.927176,0.700152,
2,1,0,1,0,4140.66,0.697906,0.697661,2.93256,6,1.53469,10,0.00204593,-2.53275,0.0624903,0.944147,0.69637,
2,1,0,1,0,4141.46,0.693911,0.693634,2.54148,6,1.53686,10,0.00176286,-2.59491,0.0614242,0.960533,0.692516,
2,1,0,1,0,4142.26,0.689916,0.689693,2.19073,6,1.53874,10,0.00151093,-2.65941,0.0582857,1.01226,0.688729,
2,1,0,0,0,4143.06,0.685921,0.685653,1.87872,6,1.54035,10,0.00128815,-2.72614,0.0557055,1.05914,0.684826,
2,1,0,1,0,4143.86,0.681926,0.68165,1.59793,6,1.54172,10,0.00108923,-2.79644,0.0550387,1.07197,0.680947,
2,1,0,1,0,4144.66,0.67793,0.677692,1.35354,6,1.54288,10,0.000917284,-2.86853,0.0526089,1.12148,0.677096,
2,1,0,1,0,4145.46,0.673935,0.673661,1.13704,6,1.54386,10,0.000765981,-2.94422,0.051566,1.14416,0.67316,
2,1,0,1,0,4146.26,0.66994,0.669663,0.950415,6,1.54468,10,0.000636458,-3.02209,0.0485118,1.2162,0.669245,
2,1,0,0,0,4147.06,0.665945,0.665681,0.787872,6,1.54536,10,0.000524471,-3.10354,0.0476834,1.23733,0.665334,
2,1,0,1,0,4147.86,0.66195,0.661649,0.647209,6,1.54592,10,0.000428225,-3.18896,0.0443573,1.33011,0.661365,
2,1,0,0,0,4148.65,0.657955,0.657667,0.528266,6,1.54637,10,0.000347423,-3.27715,0.0439625,1.34205,0.657434,
2,1,0,1,0,4149.45,0.653959,0.653707,0.426205,6,1.54674,10,0.000278613,-3.37038,0.0406057,1.453,0.653519,
2,1,0,1,0,4150.25,0.649964,0.649709,0.339364,6,1.54703,10,0.000220488,-3.46933,0.0398721,1.47973,0.64956,
2,1,0,1,0,4151.05,0.64597,0.645709,0.267114,6,1.54726,10,0.000172478,-3.5733,0.036296,1.62552,0.645591,
2,1,0,1,0,4151.85,0.641974,0.641737,0.205094,6,1.54744,10,0.000131617,-3.68805,0.0339926,1.73567,0.641647,
2,1,0,0,0,4152.65,0.637979,0.637716,0.154936,6,1.54757,10,9.88053e-05,-3.80985,0.0288061,2.04818,0.637648,
2,1,0,1,0,4153.45,0.633983,0.633731,0.110641,6,1.54766,10,7.01166e-05,-3.95608,0.0267628,2.20455,0.633683,
2,1,0,1,0,4154.25,0.629988,0.629722,0.074599,6,1.54772,10,4.69766e-05,-4.12727,0.0200549,2.94193,0.62969,
2,1,0,1,0,4155.05,0.625993,0.625746,0.0454579,6,1.54775,10,2.84451e-05,-4.34239,0.0142932,4.12782,0.625726,
2,1,0,1,0,4155.85,0.621998,0.62173,0.0191184,6,1.54776,10,1.18865e-05,-4.71855,0.00697604,8.45752,0.621722,
2,1,0,0,0,4156.64,0.618003,0.617772,-0.00131704,6,1.54776,10,-8.13628e-07,-5.8804,-0.0277879,-2.12322,0.617772,
2,1,0,1,0,4157.44,0.614008,0.613758,-0.0190832,6,1.54774,10,-1.17125e-05,-4.71935,-0.0108295,-5.44807,0.613767,
2,0,0,1,0,4158.24,0.610012,0.609744,-0.0328052,6,1.5477,10,-2.00028e-05,-4.48406,-0.0238825,-2.47043,0.609759,
2,0,0,1,0,4159.04,0.606017,0.605737,-0.0443127,6,1.54766,10,-2.68419e-05,-4.35347,-0.0365911,-1.61242,0.605757,
2,0,0,1,0,4159.84,0.602022,0.60178,-0.0551276,6,1.54761,10,-3.31747e-05,-4.25863,-0.0587544,-1.00418,0.601804,
2,0,0,0,0,4160.64,0.598027,0.597717,-0.0638234,6,1.54755,10,-3.81483e-05,-4.19502,-0.0700524,-0.842226,0.597746,
2,0,0,1,0,4161.44,0.594032,0.593693,-0.0708035,6,1.54748,10,-4.20356e-05,-4.14995,-0.0893959,-0.659986,0.593724,
2,0,0,0,0,4162.24,0.590037,0.589753,-0.0774627,6,1.54741,10,-4.56839e-05,-4.11091,-0.132144,-0.446484,0.589787,
2,0,0,1,0,4163.04,0.586041,0.585751,-0.0822835,6,1.54733,10,-4.81976e-05,-4.08469,-0.157968,-0.373494,0.585787,
2,0,0,1,0,4163.84,0.582046,0.581768,-0.0866939,6,1.54725,10,-5.04357e-05,-4.06201,-0.192266,-0.306866,0.581806,
2,0,0,1,0,4164.63,0.578052,0.577817,-0.0905987,6,1.54716,10,-5.23495e-05,-4.04288,-0.241915,-0.243887,0.577857,
2,0,0,1,0,4165.43,0.574056,0.5738,-0.0932634,6,1.54708,10,-5.35145e-05,-4.03029,-0.287577,-0.205162,0.573841,
2,0,0,0,0,4166.23,0.570061,0.569783,-0.0974035,6,1.54699,10,-5.54989e-05,-4.01143,-0.294774,-0.200153,0.569826,
2,0,0,1,0,4167.03,0.566065,0.565779,-0.0996283,6,1.5469,10,-5.63676e-05,-4.00162,-0.298632,-0.197567,0.565823,
2,0,0,1,0,4167.83,0.56207,0.561764,-0.102544,6,1.5468,10,-5.76056e-05,-3.98909,-0.731637,-0.0806411,0.561809,
2,0,0,1,0,4168.63,0.558075,0.557792,-0.10481,6,1.54671,10,-5.84621e-05,-3.9796,-0.343487,-0.171768,0.557838,
2,0,0,1,0,4169.43,0.55408,0.553831,-0.105856,6,1.54661,10,-5.86263e-05,-3.97528,-0.595277,-0.0991135,0.553877,
2,0,0,0,0,4170.23,0.550085,0.549825,-0.107314,6,1.54651,10,-5.90037e-05,-3.96935,-0.472688,-0.124818,0.549872,
2,0,0,1,0,4171.03,0.54609,0.545806,-0.109385,6,1.54641,10,-5.9703e-05,-3.96104,-6.88505,-0.0085693,0.545854,
2,0,0,1,0,4171.83,0.542094,0.541828,-0.109916,6,1.54631,10,-5.95556e-05,-3.95894,-0.791126,-0.0745773,0.541877,
2,0,0,1,0,4172.63,0.538099,0.537812,-0.112094,6,1.54621,10,-6.02855e-05,-3.95042,-1.80126,-0.0327549,0.537861,
2,0,0,1,0,4173.42,0.534104,0.533829,-0.112438,6,1.5461,10,-6.00226e-05,-3.94909,-0.469459,-0.125677,0.533879,
2,0,0,0,0,4174.22,0.530109,0.529841,-0.113914,6,1.546,10,-6.03562e-05,-3.94342,-1.04209,-0.0566172,0.529891,
2,0,0,1,0,4175.02,0.526114,0.525819,-0.11447,6,1.5459,10,-6.01907e-05,-3.94131,-0.776194,-0.0760119,0.525869,
2,0,0,0,0,4175.82,0.522119,0.521839,-0.116679,6,1.54579,10,-6.08875e-05,-3.93301,-2.09312,-0.0281876,0.52189,
2,0,0,1,0,4176.62,0.518123,0.517837,-0.116747,6,1.54568,10,-6.04558e-05,-3.93275,-0.698872,-0.0844218,0.517888,
2,0,0,1,0,4177.42,0.514128,0.513844,-0.118514,6,1.54558,10,-6.08979e-05,-3.92623,2.50704,0.0235337,0.513897,
2,0,0,1,0,4178.22,0.510133,0.509832,-0.118725,6,1.54547,10,-6.05298e-05,-3.92546,-0.415861,-0.141874,0.509885,
2,0,0,1,0,4179.02,0.506138,0.505822,-0.119787,6,1.54536,10,-6.05908e-05,-3.92159,-1.78427,-0.0330667,0.505874,
2,0,0,0,0,4179.82,0.502143,0.501852,-0.120966,6,1.54525,10,-6.07071e-05,-3.91734,-0.791631,-0.0745296,0.501906,
2,0,0,1,0,4180.62,0.498148,0.497855,-0.122974,6,1.54514,10,-6.12233e-05,-3.91019,-102.973,-0.000572963,0.497909,
2,0,0,1,0,4181.41,0.494152,0.493883,-0.12339,6,1.54503,10,-6.09403e-05,-3.90872,-1.20447,-0.0489844,0.493938,
2,0,0,1,0,4182.21,0.490157,0.489859,-0.124227,6,1.54491,10,-6.08535e-05,-3.90579,-0.49591,-0.118973,0.489914,
2,0,0,1,0,4183.01,0.486162,0.485896,-0.125695,6,1.5448,10,-6.10745e-05,-3.90068,-1.26842,-0.0465145,0.485951,
2,0,0,0,0,4183.81,0.482167,0.481883,-0.126698,6,1.54469,10,-6.10535e-05,-3.89723,-1.58386,-0.0372507,0.481939,
2,0,0,1,0,4184.61,0.478172,0.477862,-0.128394,6,1.54457,10,-6.13545e-05,-3.89146,-0.715434,-0.0824675,0.477918,
2,0,0,0,0,4185.41,0.474177,0.473901,-0.129165,6,1.54446,10,-6.12115e-05,-3.88886,4.49775,0.0131177,0.473958,
2,0,0,1,0,4186.21,0.470181,0.469897,-0.131424,6,1.54434,10,-6.17558e-05,-3.88132,-0.611886,-0.0964232,0.469955,
2,0,0,1,0,4187.01,0.466186,0.465903,-0.131352,6,1.54422,10,-6.11974e-05,-3.88156,-1.88776,-0.0312539,0.46596,
2,0,0,1,0,4187.81,0.462191,0.461897,-0.133879,6,1.5441,10,-6.18384e-05,-3.87329,-0.357936,-0.164834,0.461956,
2,0,0,1,0,4188.61,0.458196,0.457912,-0.135387,6,1.54398,10,-6.19955e-05,-3.86842,-0.915336,-0.0644572,0.457972,
2,0,0,0,0,4189.4,0.454201,0.453935,-0.136939,6,1.54386,10,-6.21614e-05,-3.86347,-1.00657,-0.0586147,0.453995,
2,0,0,1,0,4190.2,0.450205,0.44995,-0.138372,6,1.54374,10,-6.22603e-05,-3.85895,-0.96964,-0.0608473,0.450011,
2,0,0,1,0,4191,0.44621,0.445932,-0.139485,6,1.54361,10,-6.22009e-05,-3.85547,-0.728971,-0.080936,0.445993,
2,0,0,1,0,4191.8,0.442215,0.441958,-0.141267,6,1.54348,10,-6.24341e-05,-3.84996,-2.74095,-0.0215254,0.44202,
2,0,0,1,0,4192.6,0.43822,0.437943,-0.142696,6,1.54336,10,-6.24926e-05,-3.84559,-0.388999,-0.151671,0.438006,
2,0,0,0,0,4193.4,0.434225,0.433937,-0.144324,6,1.54323,10,-6.26275e-05,-3.84066,-0.785923,-0.075071,0.434,
2,0,0,1,0,4194.2,0.43023,0.429936,-0.147043,6,1.5431,10,-6.32192e-05,-3.83255,-1.37697,-0.0428478,0.43,
2,0,0,1,0,4195,0.426234,0.42592,-0.148519,6,1.54297,10,-6.32574e-05,-3.82822,-0.65069,-0.090673,0.425985,
2,0,0,1,0,4195.8,0.422239,0.421953,-0.149381,6,1.54284,10,-6.30319e-05,-3.8257,-0.729558,-0.0808709,0.422019,
2,0,0,1,0,4196.6,0.418244,0.417917,-0.151957,6,1.5427,10,-6.35056e-05,-3.81828,-0.660234,-0.0893622,0.417984,
2,0,0,0,0,4197.4,0.414249,0.413972,-0.153025,6,1.54257,10,-6.33483e-05,-3.81524,-2.50934,-0.0235121,0.41404,
2,0,0,1,0,4198.19,0.410254,0.409943,-0.154365,6,1.54243,10,-6.32809e-05,-3.81145,-0.867803,-0.0679878,0.410011,
2,0,0,0,0,4198.99,0.406259,0.405956,-0.157185,6,1.54229,10,-6.38103e-05,-3.80359,-0.438548,-0.134535,0.406025,
2,0,0,1,0,4199.79,0.402263,0.401936,-0.158968,6,1.54215,10,-6.38947e-05,-3.79869,-1.52439,-0.038704,0.402005,
2,0,0,1,0,4200.59,0.398268,0.39795,-0.160672,6,1.54201,10,-6.39393e-05,-3.79406,-0.844641,-0.0698522,0.39802,
2,0,0,1,0,4201.39,0.394274,0.393966,-0.162053,6,1.54186,10,-6.38432e-05,-3.79034,-0.458444,-0.128696,0.394038,
2,0,0,1,0,4202.19,0.390278,0.38996,-0.165711,6,1.54172,10,-6.46206e-05,-3.78065,-0.755899,-0.0780528,0.390033,
2,0,0,0,0,4202.99,0.386283,0.386008,-0.167028,6,1.54157,10,-6.44744e-05,-3.77721,-0.989787,-0.0596088,0.386082,
2,0,0,1,0,4203.79,0.382287,0.38204,-0.168311,6,1.54142,10,-6.43014e-05,-3.77389,-1.01875,-0.0579144,0.382114,
2,0,0,1,0,4204.59,0.378292,0.377988,-0.171458,6,1.54127,10,-6.48092e-05,-3.76584,-0.902397,-0.0653814,0.378064,
2,0,0,1,0,4205.39,0.374297,0.374018,-0.172801,6,1.54112,10,-6.46308e-05,-3.76245,-0.628397,-0.0938897,0.374094,
2,0,0,1,0,4206.18,0.370303,0.370002,-0.175501,6,1.54097,10,-6.49356e-05,-3.75572,-0.932084,-0.063299,0.370079,
2,0,0,0,0,4206.98,0.366307,0.365997,-0.177916,6,1.54081,10,-6.51168e-05,-3.74978,-0.595178,-0.09913,0.366076,
2,0,0,1,0,4207.78,0.362312,0.362012,-0.181024,6,1.54065,10,-6.55329e-05,-3.74226,-0.553674,-0.106561,0.362092,
2,0,0,1,0,4208.58,0.358316,0.358016,-0.182487,6,1.5405,10,-6.53335e-05,-3.73877,-0.664973,-0.0887254,0.358097,
2,0,0,1,0,4209.38,0.354321,0.354031,-0.184926,6,1.54033,10,-6.54694e-05,-3.733,-1.04109,-0.0566715,0.354112,
2,0,0,1,0,4210.18,0.350327,0.350014,-0.186411,6,1.54017,10,-6.52466e-05,-3.72953,-0.817592,-0.0721631,0.350096,
2,0,0,0,0,4210.98,0.346331,0.345977,-0.189462,6,1.54001,10,-6.55494e-05,-3.72248,-1.02717,-0.0574392,0.34606,
2,0,0,1,0,4211.78,0.342336,0.342077,-0.192665,6,1.53984,10,-6.59064e-05,-3.7152,-0.450012,-0.131108,0.342162,
2,0,0,0,0,4212.58,0.338341,0.338064,-0.193947,6,1.53967,10,-6.55665e-05,-3.71232,-0.765083,-0.0771158,0.338149,
2,0,0,1,0,4213.38,0.334345,0.334019,-0.196042,6,1.5395,10,-6.54817e-05,-3.70765,-0.884668,-0.0666917,0.334106,
2,0,0,1,0,4214.17,0.33035,0.330059,-0.199116,6,1.53933,10,-6.57201e-05,-3.70089,-0.574495,-0.102699,0.330147,
2,0,0,1,0,4214.97,0.326355,0.326054,-0.202011,6,1.53915,10,-6.58665e-05,-3.69462,-0.693311,-0.0850988,0.326143,
2,0,0,1,0,4215.77,0.32236,0.322061,-0.20454,6,1.53897,10,-6.58741e-05,-3.68922,-1.44995,-0.040691,0.322151,
2,0,0,0,0,4216.57,0.318365,0.318097,-0.206947,6,1.53879,10,-6.58291e-05,-3.68414,-0.454833,-0.129718,0.318188,
2,0,0,1,0,4217.37,0.31437,0.314063,-0.20965,6,1.53861,10,-6.58432e-05,-3.67851,-13.3191,-0.00442972,0.314155,
2,0,0,1,0,4218.17,0.310374,0.310064,-0.21088,6,1.53843,10,-6.53863e-05,-3.67596,-0.448762,-0.131473,0.310157,
2,0,0,1,0,4218.97,0.306379,0.306076,-0.215141,6,1.53824,10,-6.58494e-05,-3.66728,-0.647851,-0.0910703,0.306171,
2,0,0,1,0,4219.77,0.302385,0.30212,-0.216901,6,1.53806,10,-6.55301e-05,-3.66374,-1.02697,-0.0574506,0.302216,
2,0,0,0,0,4220.57,0.298389,0.298125,-0.218822,6,1.53787,10,-6.52364e-05,-3.65991,-0.735585,-0.0802083,0.298221,
2,0,0,1,0,4221.37,0.294394,0.294108,-0.221271,6,1.53768,10,-6.50775e-05,-3.65508,-0.98597,-0.0598396,0.294206,
2,0,0,1,0,4222.17,0.290398,0.290068,-0.225013,6,1.53748,10,-6.52691e-05,-3.64779,-1.04665,-0.0563701,0.290167,
2,0,0,1,0,4222.96,0.286403,0.286066,-0.226446,6,1.53729,10,-6.47786e-05,-3.64503,-0.548642,-0.107538,0.286166,
2,0,0,1,0,4223.76,0.282408,0.282106,-0.230552,6,1.53709,10,-6.50401e-05,-3.63723,-1.02551,-0.0575321,0.282207,
2,0,0,1,0,4224.56,0.278414,0.278133,-0.233049,6,1.53689,10,-6.48186e-05,-3.63255,-0.833481,-0.0707874,0.278235,
2,0,0,1,0,4225.36,0.274418,0.27412,-0.236191,6,1.53669,10,-6.47446e-05,-3.62674,-0.573071,-0.102954,0.274223,
2,0,0,0,0,4226.16,0.270423,0.270133,-0.238257,6,1.53648,10,-6.43611e-05,-3.62296,-1.21991,-0.0483644,0.270238,
2,0,0,1,0,4226.96,0.266427,0.266094,-0.240778,6,1.53628,10,-6.40695e-05,-3.61838,-1.01965,-0.057863,0.2662,
2,0,0,1,0,4227.76,0.262432,0.262156,-0.243002,6,1.53607,10,-6.37045e-05,-3.61439,-0.913271,-0.0646029,0.262263,
2,0,0,1,0,4228.56,0.258437,0.258148,-0.245745,6,1.53586,10,-6.34384e-05,-3.60952,-0.86001,-0.0686038,0.258256,
2,0,0,1,0,4229.36,0.254442,0.254134,-0.246441,6,1.53565,10,-6.26291e-05,-3.60829,-0.698623,-0.0844518,0.254242,
2,0,0,0,0,4230.16,0.250447,0.250148,-0.251167,6,1.53543,10,-6.2829e-05,-3.60004,-313.563,-0.00018816,0.250259,
2,0,0,1,0,4230.95,0.246452,0.246133,-0.253659,6,1.53522,10,-6.2434e-05,-3.59575,-0.620949,-0.0950159,0.246245,
2,0,0,1,0,4231.75,0.242456,0.242144,-0.25462,6,1.535,10,-6.16546e-05,-3.59411,-1.07105,-0.055086,0.242256,
2,0,0,1,0,4232.55,0.238461,0.238185,-0.257622,6,1.53478,10,-6.13618e-05,-3.58902,-0.715524,-0.082457,0.238299,
2,0,0,1,0,4233.35,0.234467,0.234165,-0.259938,6,1.53456,10,-6.08684e-05,-3.58513,-0.971598,-0.0607247,0.234279,
2,0,0,0,0,4234.15,0.230471,0.230169,-0.262365,6,1.53433,10,-6.03884e-05,-3.58109,-1.40721,-0.0419269,0.230284,
2,0,0,1,0,4234.95,0.226476,0.226198,-0.265304,6,1.53411,10,-6.00112e-05,-3.57626,-0.676135,-0.0872607,0.226314,
2,0,0,0,0,4235.75,0.222481,0.222188,-0.267802,6,1.53388,10,-5.95024e-05,-3.57219,-0.746104,-0.0790775,0.222306,
2,0,0,1,0,4236.55,0.218485,0.218167,-0.272341,6,1.53365,10,-5.94158e-05,-3.56489,-1.38746,-0.0425237,0.218287,
2,0,0,1,0,4237.35,0.21449,0.214177,-0.275488,6,1.53342,10,-5.90032e-05,-3.5599,-0.494654,-0.119275,0.214298,
2,0,0,1,0,4238.15,0.210496,0.210198,-0.279477,6,1.53318,10,-5.87455e-05,-3.55365,-1.04377,-0.0565261,0.210321,
2,0,0,1,0,4238.95,0.2065,0.206194,-0.283559,6,1.53294,10,-5.84682e-05,-3.54736,-0.542603,-0.108735,0.206319,
2,0,0,0,0,4239.74,0.202505,0.202242,-0.286895,6,1.5327,10,-5.80223e-05,-3.54228,-0.677746,-0.0870532,0.202368,
2,0,0,1,0,4240.54,0.198509,0.198214,-0.290061,6,1.53245,10,-5.74942e-05,-3.53751,-0.587301,-0.10046,0.198342,
2,0,0,1,0,4241.34,0.194514,0.194193,-0.295565,6,1.5322,10,-5.73968e-05,-3.52935,-0.611631,-0.0964635,0.194323,
2,0,0,1,0,4242.14,0.190519,0.190207,-0.299813,6,1.53195,10,-5.70265e-05,-3.52315,-0.448072,-0.131675,0.190339,
2,0,0,1,0,4242.94,0.186524,0.186207,-0.306368,6,1.53169,10,-5.70477e-05,-3.51376,-0.527995,-0.111743,0.186341,
2,0,0,0,0,4243.74,0.182529,0.182224,-0.315527,6,1.53143,10,-5.74965e-05,-3.50096,-0.293531,-0.201001,0.182363,
2,0,0,1,0,4244.54,0.178534,0.178212,-0.324488,6,1.53116,10,-5.78276e-05,-3.4888,-0.265498,-0.222224,0.178355,
2,0,0,1,0,4245.34,0.174538,0.174259,-0.335058,6,1.53088,10,-5.83868e-05,-3.47488,-0.257344,-0.229265,0.174406,
2,0,0,1,0,4246.14,0.170543,0.170246,-0.348205,6,1.53059,10,-5.92807e-05,-3.45816,-0.197017,-0.299466,0.1704,
2,0,0,1,0,4246.94,0.166549,0.16623,-0.36596,6,1.53029,10,-6.08335e-05,-3.43657,-0.17786,-0.331721,0.166391,
2,0,0,0,0,4247.73,0.162553,0.162257,-0.387246,6,1.52997,10,-6.28334e-05,-3.41201,-0.148777,-0.396566,0.162428,
2,0,0,1,0,4248.53,0.158558,0.158281,-0.412677,6,1.52964,10,-6.53188e-05,-3.38439,-0.132212,-0.446252,0.158462,
2,0,0,0,0,4249.33,0.154563,0.15421,-0.450678,6,1.52928,10,-6.9499e-05,-3.34613,-0.101475,-0.581422,0.154408,
2,0,0,1,0,4250.13,0.150567,0.150269,-0.499431,6,1.52888,10,-7.50491e-05,-3.30152,-0.078513,-0.751468,0.150489,
2,0,0,1,0,4250.93,0.146572,0.146312,-0.559465,6,1.52844,10,-8.18565e-05,-3.25223,-0.0788161,-0.748578,0.146558,
2,0,0,1,0,4251.73,0.142578,0.142278,-0.633283,6,1.52795,10,-9.01026e-05,-3.1984,-0.0792881,-0.744122,0.142557,
2,0,0,1,0,4252.53,0.138582,0.13826,-0.70173,6,1.5274,10,-9.70213e-05,-3.15383,-0.0936367,-0.630095,0.138569,
2,0,0,0,0,4253.33,0.134587,0.134264,-0.763693,6,1.5268,10,-0.000102536,-3.11708,-0.138248,-0.42677,0.1346,
2,0,0,1,0,4254.13,0.130591,0.130304,-0.804695,6,1.52616,10,-0.000104855,-3.09437,-0.212816,-0.277235,0.130658,
2,0,0,1,0,4254.93,0.126596,0.126284,-0.826032,6,1.52549,10,-0.000104315,-3.083,-0.556226,-0.106072,0.126647,
2,0,0,1,0,4255.72,0.122602,0.122314,-0.836107,6,1.52481,10,-0.000102268,-3.07774,3.60421,0.0163697,0.122682,
2,0,0,1,0,4256.52,0.118607,0.118265,-0.829828,6,1.52413,10,-9.81393e-05,-3.08101,1.11503,0.0529135,0.11863,
2,0,0,0,0,4257.32,0.114611,0.114313,-0.816246,6,1.52345,10,-9.33076e-05,-3.08818,0.493224,0.119621,0.114672,
2,0,0,1,0,4258.12,0.110616,0.110303,-0.800833,6,1.52279,10,-8.8334e-05,-3.09646,0.45297,0.130252,0.110655,
2,0,0,1,0,4258.92,0.10662,0.106327,-0.783661,6,1.52214,10,-8.3324e-05,-3.10587,0.373255,0.158069,0.106671,
2,0,0,1,0,4259.72,0.102625,0.102318,-0.763748,6,1.52151,10,-7.81451e-05,-3.11705,0.32535,0.181343,0.102654,
2,0,0,1,0,4260.52,0.0986305,0.0982927,-0.742792,6,1.52089,10,-7.3011e-05,-3.12913,0.389875,0.15133,0.0986195,
2,0,0,0,0,4261.32,0.0946351,0.0943361,-0.719298,6,1.52029,10,-6.78558e-05,-3.14309,0.312102,0.189041,0.0946526,
2,0,0,1,0,4262.12,0.0906399,0.0903691,-0.704098,6,1.5197,10,-6.36288e-05,-3.15237,0.341514,0.17276,0.0906789,
2,0,0,0,0,4262.92,0.0866448,0.0863714,-0.68869,6,1.51913,10,-5.94831e-05,-3.16198,0.537952,0.109675,0.0866744,
2,0,0,1,0,4263.72,0.0826492,0.0823254,-0.676185,6,1.51857,10,-5.56672e-05,-3.16993,0.45949,0.128403,0.082623,
2,0,0,1,0,4264.51,0.0786544,0.0783599,-0.663949,6,1.51802,10,-5.2027e-05,-3.17787,0.59241,0.0995932,0.078652,
2,0,0,1,0,4265.31,0.0746596,0.0743562,-0.653051,6,1.51748,10,-4.85584e-05,-3.18505,0.610289,0.0966756,0.0746436,
2,0,0,1,0,4266.11,0.0706641,0.0704017,-0.642054,6,1.51695,10,-4.52017e-05,-3.19243,0.495031,0.119184,0.0706842,
2,0,0,0,0,4266.91,0.0666689,0.0663541,-0.631891,6,1.51642,10,-4.19286e-05,-3.19936,0.691841,0.0852797,0.0666321,
2,0,0,1,0,4267.71,0.0626737,0.0623415,-0.619606,6,1.51591,10,-3.86272e-05,-3.20788,0.494173,0.119391,0.0626141,
2,0,0,1,0,4268.51,0.0586783,0.0584135,-0.610689,6,1.5154,10,-3.56725e-05,-3.21418,0.44873,0.131482,0.0586822,
2,0,0,1,0,4269.31,0.0546835,0.0543781,-0.599258,6,1.5149,10,-3.25865e-05,-3.22239,0.512576,0.115105,0.0546418,
2,0,0,1,0,4270.11,0.0506886,0.0503827,-0.584395,6,1.51441,10,-2.94434e-05,-3.23329,0.389025,0.151661,0.0506398,
2,0,0,0,0,4270.91,0.046693,0.0464238,-0.571393,6,1.51393,10,-2.65262e-05,-3.24307,0.430931,0.136913,0.0466752,
2,0,0,1,0,4271.71,0.0426979,0.0424494,-0.558456,6,1.51347,10,-2.37061e-05,-3.25301,0.398237,0.148153,0.0426951,
2,0,0,1,0,4272.5,0.0387022,0.0383834,-0.547179,6,1.51301,10,-2.10026e-05,-3.26187,0.350979,0.168101,0.0386242,
2,0,0,1,0,4273.3,0.0347074,0.0344166,-0.5339,6,1.51256,10,-1.8375e-05,-3.27254,0.485375,0.121555,0.0346515,
2,0,0,1,0,4274.1,0.0307126,0.0304097,-0.521691,6,1.51212,10,-1.58645e-05,-3.28259,0.452219,0.130468,0.0306393,
2,0,0,0,0,4274.9,0.0267172,0.0263948,-0.513616,6,1.51169,10,-1.35568e-05,-3.28936,0.440446,0.133955,0.0266208,
2,0,0,1,0,4275.7,0.022722,0.0224246,-0.506089,6,1.51127,10,-1.13489e-05,-3.29577,1.09405,0.053928,0.0226473,
2,0,0,0,0,4276.5,0.0187268,0.0184343,-0.50111,6,1.51085,10,-9.23763e-06,-3.30007,0.899959,0.0655586,0.0186548,
2,0,0,1,0,4277.3,0.0147313,0.0144099,-0.496713,6,1.51044,10,-7.15758e-06,-3.30389,0.934694,0.0631222,0.0146284,
2,0,0,1,0,4278.1,0.0107365,0.010458,-0.493438,6,1.51003,10,-5.16036e-06,-3.30677,5.10107,0.0115662,0.0106751,
2,0,0,1,0,4278.9,0.00674163,0.0064277,-0.492393,6,1.50962,10,-3.16495e-06,-3.30769,-9.0438,-0.00652381,0.00664435,
2,0,0,1,0,4279.7,0.00274612,0.00243916,-0.493226,6,1.50921,10,-1.20305e-06,-3.30695,-1.76501,-0.0334276,0.00265618,
2,0,0,0,0,4280.19,0.000274105,-6.64518e-05,-0.49703,6,1.50896,10,3.30285e-08,-3.30362, , ,0.000152241,