File: Figure_codes/Fig_3-5/workspace_calculate_alpha_eff/20221101_1-115_003_TrumpetPlot_ParaChange_from10_every3_16_CV_C01_97.csv
mode,ox/red,error,control changes,counter inc.,time/s,control/V,Ewe/V,<I>/mA,cycle number,(Q-Qo)/C,I Range,P/W,log(|I|),Tafel slope mV/dec,alpha_eff,E-IR/V,
2,0,0,0,0,64644.3,2.44065e-05,-0.000287149,-0.107662,98,0.0000000E+000,10,3.09151e-08,-3.96794, , ,-0.000239777,
2,1,0,0,0,64645,0.00379485,0.00347835,0.148329,98,8.85968e-05,10,5.15939e-07,-3.82878,0.0310156,1.90227,0.00341309,
2,1,0,1,0,64645.8,0.00779002,0.00748245,0.172452,98,0.000227563,10,1.29036e-06,-3.76333,0.07385,0.798916,0.00740657,
2,1,0,0,0,64646.6,0.0117852,0.0114802,0.188004,98,0.000382098,10,2.15832e-06,-3.72583,0.12351,0.477694,0.0113975,
2,1,0,1,0,64647.4,0.0157806,0.0154655,0.203024,98,0.000548462,10,3.13987e-06,-3.69245,0.134645,0.438191,0.0153762,
2,1,0,1,0,64648.2,0.0197754,0.0194311,0.214613,98,0.000725356,10,4.17016e-06,-3.66834,0.156607,0.376739,0.0193367,
2,1,0,1,0,64649,0.0237704,0.0234623,0.227783,98,0.000912571,10,5.34432e-06,-3.64248,0.176379,0.334507,0.0233621,
2,1,0,1,0,64649.8,0.0277659,0.0274192,0.24053,98,0.0011096,10,6.59512e-06,-3.61883,0.168845,0.349433,0.0273133,
2,1,0,0,0,64650.6,0.0317611,0.0314169,0.253322,98,0.0013173,10,7.9586e-06,-3.59633,0.166915,0.353474,0.0313054,
2,1,0,1,0,64651.4,0.0357567,0.0354448,0.268311,98,0.001536,10,9.51021e-06,-3.57136,0.200316,0.294535,0.0353267,
2,1,0,1,0,64652.2,0.0397516,0.0394105,0.281371,98,0.00176522,10,1.10889e-05,-3.55072,0.174935,0.337268,0.0392866,
2,1,0,1,0,64653,0.0437465,0.0433899,0.293133,98,0.00200547,10,1.2719e-05,-3.53294,0.208052,0.283582,0.043261,
2,1,0,1,0,64653.8,0.0477413,0.0474392,0.307606,98,0.00225542,10,1.45926e-05,-3.512,0.216391,0.272655,0.0473038,
2,1,0,0,0,64654.6,0.0517369,0.0513939,0.318682,98,0.00251516,10,1.63783e-05,-3.49664,0.24514,0.240679,0.0512537,
2,1,0,1,0,64655.4,0.0557321,0.0553916,0.330509,98,0.00278465,10,1.83074e-05,-3.48082,0.331239,0.178119,0.0552462,
2,1,0,1,0,64656.2,0.0597277,0.0594302,0.340216,98,0.00306231,10,2.02191e-05,-3.46824,0.299277,0.197142,0.0592805,
2,1,0,1,0,64657,0.0637226,0.0634094,0.350052,98,0.00334838,10,2.21966e-05,-3.45587,0.371138,0.158971,0.0632554,
2,1,0,1,0,64657.8,0.0677174,0.0673878,0.360199,98,0.00364245,10,2.4273e-05,-3.44346,0.357298,0.165128,0.0672293,
2,1,0,0,0,64658.6,0.0717128,0.0713497,0.367571,98,0.00394362,10,2.62261e-05,-3.43466,0.388417,0.151898,0.0711879,
2,1,0,1,0,64659.4,0.075708,0.0753898,0.374885,98,0.00425153,10,2.82625e-05,-3.4261,0.421063,0.140122,0.0752249,
2,1,0,0,0,64660.2,0.0797031,0.0794363,0.383887,98,0.00456535,10,3.04946e-05,-3.4158,0.437379,0.134894,0.0792674,
2,1,0,1,0,64661,0.0836986,0.0833963,0.39183,98,0.00488563,10,3.26771e-05,-3.4069,0.417162,0.141432,0.0832239,
2,1,0,1,0,64661.8,0.0876935,0.0873692,0.401725,98,0.00521322,10,3.50984e-05,-3.39607,0.383161,0.153982,0.0871924,
2,1,0,1,0,64662.6,0.0916883,0.0913699,0.415055,98,0.00554927,10,3.79236e-05,-3.38189,0.230253,0.25624,0.0911873,
2,1,0,1,0,64663.4,0.0956838,0.0953149,0.429687,98,0.005897,10,4.09556e-05,-3.36685,0.25499,0.231382,0.0951258,
2,1,0,0,0,64664.2,0.099679,0.0993338,0.44805,98,0.00625791,10,4.45065e-05,-3.34867,0.240812,0.245004,0.0991367,
2,1,0,1,0,64665,0.103674,0.103378,0.468678,98,0.00663373,10,4.84511e-05,-3.32913,0.194219,0.303781,0.103172,
2,1,0,1,0,64665.8,0.10767,0.107392,0.487122,98,0.00702665,10,5.2313e-05,-3.31236,0.218503,0.270019,0.107178,
2,1,0,1,0,64666.6,0.111664,0.111359,0.506441,98,0.00743477,10,5.63966e-05,-3.29547,0.267087,0.220902,0.111136,
2,1,0,1,0,64667.4,0.115659,0.115327,0.522387,98,0.0078567,10,6.02451e-05,-3.28201,0.315963,0.18673,0.115097,
2,1,0,0,0,64668.2,0.119655,0.119309,0.533483,98,0.00828984,10,6.36491e-05,-3.27288,0.69735,0.084606,0.119074,
2,1,0,1,0,64669,0.12365,0.123363,0.543606,98,0.00873028,10,6.70607e-05,-3.26472,0.633074,0.093196,0.123123,
2,1,0,1,0,64669.8,0.127646,0.127292,0.547592,98,0.00917675,10,6.97039e-05,-3.26154,1.63129,0.0361676,0.127051,
2,1,0,1,0,64670.6,0.131641,0.13131,0.547696,98,0.0096257,10,7.19182e-05,-3.26146,-0.730187,-0.0808012,0.131069,
2,1,0,1,0,64671.4,0.135635,0.135325,0.537223,98,0.0100697,10,7.26997e-05,-3.26985,-0.272699,-0.216356,0.135089,
2,1,0,0,0,64672.2,0.139631,0.139322,0.505693,98,0.010498,10,7.0454e-05,-3.29611,-0.127277,-0.463556,0.139099,
2,1,0,1,0,64673,0.143626,0.143321,0.462517,98,0.0108962,10,6.62881e-05,-3.33487,-0.0850656,-0.693582,0.143117,
2,1,0,0,0,64673.8,0.147621,0.147295,0.410076,98,0.0112549,10,6.04022e-05,-3.38714,-0.0750135,-0.786525,0.147115,
2,1,0,1,0,64674.6,0.151617,0.151279,0.36464,98,0.0115737,10,5.51624e-05,-3.43814,-0.0826214,-0.714101,0.151119,
2,1,0,1,0,64675.4,0.155612,0.155283,0.3312,98,0.0118599,10,5.14298e-05,-3.47991,-0.120565,-0.489363,0.155137,
2,1,0,1,0,64676.2,0.159606,0.159308,0.309419,98,0.0121252,10,4.92929e-05,-3.50945,-0.162988,-0.361989,0.159172,
2,1,0,1,0,64677,0.163602,0.163259,0.296393,98,0.0123769,10,4.83889e-05,-3.52813,-0.231866,-0.254457,0.163129,
2,1,0,0,0,64677.8,0.167597,0.167288,0.287275,98,0.0126193,10,4.80576e-05,-3.5417,-0.419413,-0.140673,0.167161,
2,1,0,1,0,64678.6,0.171592,0.171254,0.278533,98,0.0128555,10,4.76998e-05,-3.55512,-0.361461,-0.163227,0.171131,
2,1,0,1,0,64679.4,0.175588,0.175237,0.27461,98,0.0130866,10,4.81218e-05,-3.56128,-0.621296,-0.0949628,0.175116,
2,1,0,1,0,64680.2,0.179582,0.179267,0.270946,98,0.013314,10,4.85718e-05,-3.56712,-0.80599,-0.0732019,0.179148,
2,1,0,1,0,64681,0.183577,0.183212,0.268198,98,0.0135391,10,4.91371e-05,-3.57154,-0.873208,-0.067567,0.183094,
2,1,0,0,0,64681.8,0.187573,0.18723,0.265977,98,0.013762,10,4.97988e-05,-3.57516,-1.03175,-0.0571845,0.187113,
2,1,0,1,0,64682.6,0.191568,0.191294,0.26411,98,0.013983,10,5.05227e-05,-3.57822,-1.11918,-0.0527174,0.191178,
2,1,0,0,0,64683.4,0.195563,0.19526,0.262464,98,0.0142028,10,5.12488e-05,-3.58093,-2.66,-0.0221804,0.195145,
2,1,0,1,0,64684.2,0.199559,0.199265,0.261521,98,0.0144211,10,5.2112e-05,-3.58249,-2.5189,-0.0234229,0.19915,
2,1,0,1,0,64685,0.203553,0.203212,0.25918,98,0.0146385,10,5.26684e-05,-3.5864,-1.67569,-0.0352093,0.203098,
2,1,0,1,0,64685.8,0.207548,0.207228,0.258534,98,0.014855,10,5.35754e-05,-3.58748,-1.56041,-0.0378105,0.207114,
2,1,0,1,0,64686.6,0.211544,0.211267,0.257716,98,0.0150702,10,5.44469e-05,-3.58886,-2.94125,-0.0200595,0.211154,
2,1,0,0,0,64687.4,0.215539,0.21524,0.256003,98,0.0152846,10,5.51023e-05,-3.59175,-2.55972,-0.0230494,0.215128,
2,1,0,1,0,64688.2,0.219535,0.21926,0.255981,98,0.0154979,10,5.61263e-05,-3.59179,-2.02307,-0.0291635,0.219147,
2,1,0,1,0,64689,0.223529,0.223194,0.253271,98,0.0157106,10,5.65284e-05,-3.59642,-2.85044,-0.0206986,0.223082,
2,1,0,1,0,64689.8,0.227524,0.227183,0.253752,98,0.0159228,10,5.76481e-05,-3.59559,-1.73945,-0.0339188,0.227071,
2,1,0,1,0,64690.6,0.23152,0.231192,0.253281,98,0.0161341,10,5.85566e-05,-3.5964,-5.32612,-0.0110775,0.231081,
2,1,0,0,0,64691.4,0.235515,0.235188,0.251691,98,0.016345,10,5.91947e-05,-3.59913,-2.9056,-0.0203056,0.235077,
2,1,0,1,0,64692.2,0.23951,0.239201,0.251719,98,0.016555,10,6.02116e-05,-3.59908,16.5789,0.00355874,0.239091,
2,1,0,1,0,64693,0.243506,0.243179,0.250855,98,0.0167644,10,6.10027e-05,-3.60058,-2.69275,-0.0219107,0.243069,
2,1,0,1,0,64693.8,0.2475,0.247182,0.250516,98,0.0169734,10,6.1923e-05,-3.60117,-1.41213,-0.0417808,0.247072,
2,1,0,1,0,64694.6,0.251495,0.251155,0.248736,98,0.0171814,10,6.24715e-05,-3.60426,-1.89304,-0.0311668,0.251046,
2,1,0,0,0,64695.4,0.255491,0.255155,0.247018,98,0.0173887,10,6.30279e-05,-3.60727,-2.008,-0.0293824,0.255047,
2,1,0,1,0,64696.2,0.259486,0.259159,0.247161,98,0.0175956,10,6.4054e-05,-3.60702,-1.1207,-0.0526455,0.259051,
2,1,0,0,0,64697,0.263481,0.263143,0.246206,98,0.0178013,10,6.47876e-05,-3.6087,1.45568,0.0405309,0.263035,
2,1,0,1,0,64697.8,0.267477,0.267207,0.244589,98,0.0180066,10,6.53559e-05,-3.61156,-1.67468,-0.0352307,0.2671,
2,1,0,1,0,64698.6,0.271471,0.27113,0.244486,98,0.018211,10,6.62875e-05,-3.61175,-2.38983,-0.0246879,0.271022,
2,1,0,1,0,64699.4,0.275466,0.275139,0.243271,98,0.0184146,10,6.69333e-05,-3.61391,-4.73406,-0.0124629,0.275032,
2,1,0,1,0,64700.2,0.279462,0.279104,0.24262,98,0.0186176,10,6.77164e-05,-3.61507,-1.45811,-0.0404633,0.278998,
2,1,0,0,0,64701,0.283457,0.283134,0.241699,98,0.0188199,10,6.84331e-05,-3.61673,-12.5131,-0.00471506,0.283028,
2,1,0,1,0,64701.8,0.287452,0.287154,0.24037,98,0.0190214,10,6.90233e-05,-3.61912,-1.991,-0.0296334,0.287048,
2,1,0,1,0,64702.6,0.291448,0.29112,0.240386,98,0.0192223,10,6.99813e-05,-3.61909,-0.967592,-0.0609761,0.291014,
2,1,0,1,0,64703.4,0.295442,0.295142,0.239665,98,0.0194222,10,7.07351e-05,-3.6204,3.69657,0.0159607,0.295036,
2,1,0,1,0,64704.2,0.299437,0.299125,0.237446,98,0.0196216,10,7.10261e-05,-3.62444,-8.83658,-0.00667679,0.299021,
2,1,0,0,0,64705,0.303433,0.303117,0.237819,98,0.0198203,10,7.20871e-05,-3.62375,-1.15878,-0.0509157,0.303013,
2,1,0,1,0,64705.8,0.307428,0.307116,0.236874,98,0.0200182,10,7.27478e-05,-3.62548,-3.61479,-0.0163218,0.307012,
2,1,0,1,0,64706.6,0.311424,0.311143,0.236347,98,0.0202155,10,7.35377e-05,-3.62645,-2.61835,-0.0225333,0.311039,
2,1,0,1,0,64707.4,0.315418,0.315099,0.234934,98,0.0204119,10,7.40276e-05,-3.62905,-6.59155,-0.00895085,0.314996,
2,1,0,1,0,64708.2,0.319413,0.319074,0.234616,98,0.020608,10,7.48599e-05,-3.62964,-2.51416,-0.0234671,0.318971,
2,1,0,0,0,64709,0.323409,0.323079,0.233552,98,0.0208037,10,7.54558e-05,-3.63162,-1.52491,-0.0386909,0.322976,
2,1,0,1,0,64709.8,0.327404,0.327078,0.232893,98,0.0209984,10,7.61742e-05,-3.63284,49.0219,0.00120354,0.326976,
2,1,0,0,0,64710.6,0.331399,0.331088,0.23243,98,0.0211927,10,7.69547e-05,-3.63371,82.0786,0.000718823,0.330986,
2,1,0,1,0,64711.4,0.335395,0.335077,0.232534,98,0.0213867,10,7.79167e-05,-3.63351,-3.90545,-0.0151071,0.334975,
2,1,0,1,0,64712.2,0.339389,0.339044,0.231666,98,0.02158,10,7.85449e-05,-3.63514,-2.66103,-0.0221719,0.338942,
2,1,0,1,0,64713,0.343384,0.343101,0.231207,98,0.021773,10,7.93275e-05,-3.636,-13.0395,-0.00452472,0.342999,
2,1,0,1,0,64713.8,0.34738,0.347065,0.231509,98,0.0219653,10,8.03486e-05,-3.63543,-1.90428,-0.0309829,0.346963,
2,1,0,0,0,64714.6,0.351375,0.351062,0.228897,98,0.0221573,10,8.03569e-05,-3.64036,-6.56844,-0.00898235,0.350961,
2,1,0,1,0,64715.4,0.35537,0.35506,0.229893,98,0.0223488,10,8.16259e-05,-3.63847,-1.68145,-0.0350888,0.354959,
2,1,0,1,0,64716.2,0.359366,0.359052,0.229148,98,0.0225398,10,8.2276e-05,-3.63988,3.37503,0.0174813,0.358951,
2,1,0,1,0,64717,0.36336,0.363055,0.229001,98,0.0227308,10,8.314e-05,-3.64016,-2.38323,-0.0247563,0.362954,
2,1,0,1,0,64717.8,0.367355,0.367062,0.228542,98,0.0229213,10,8.38892e-05,-3.64103,-5.00518,-0.0117878,0.366961,
2,1,0,0,0,64718.6,0.371351,0.371053,0.228589,98,0.0231113,10,8.48189e-05,-3.64094,2.6043,0.0226549,0.370953,
2,1,0,1,0,64719.4,0.375346,0.375008,0.227843,98,0.0233014,10,8.54428e-05,-3.64236,-2.52751,-0.0233431,0.374907,
2,1,0,1,0,64720.2,0.379342,0.379031,0.227473,98,0.0234908,10,8.62196e-05,-3.64307,-3.28615,-0.0179541,0.378931,
2,1,0,1,0,64721,0.383336,0.383031,0.226863,98,0.0236798,10,8.68955e-05,-3.64424,-17.045,-0.00346143,0.382931,
2,1,0,1,0,64721.8,0.387331,0.387034,0.22675,98,0.0238686,10,8.776e-05,-3.64445,-1.27987,-0.0460983,0.386935,
2,1,0,0,0,64722.6,0.391327,0.391009,0.226454,98,0.024057,10,8.85458e-05,-3.64502,2.09752,0.0281285,0.39091,
2,1,0,1,0,64723.4,0.395322,0.394992,0.226138,98,0.0242452,10,8.93227e-05,-3.64563,-3.0906,-0.0190901,0.394893,
2,1,0,0,0,64724.2,0.399317,0.398945,0.226404,98,0.024433,10,9.0323e-05,-3.64512,-8.83223,-0.00668008,0.398846,
2,1,0,1,0,64724.9,0.403313,0.403028,0.225921,98,0.0246205,10,9.10525e-05,-3.64604,-2.9695,-0.0198686,0.402929,
2,1,0,1,0,64725.7,0.407307,0.406991,0.224712,98,0.0248076,10,9.14558e-05,-3.64837,7.6213,0.00774147,0.406892,
2,1,0,1,0,64726.5,0.411302,0.41102,0.2247,98,0.0249942,10,9.23563e-05,-3.6484,61.7739,0.000955096,0.410921,
2,1,0,1,0,64727.3,0.415298,0.414969,0.225004,98,0.0251808,10,9.33698e-05,-3.64781,-6.26046,-0.00942423,0.41487,
2,1,0,0,0,64728.1,0.419293,0.418963,0.22462,98,0.0253672,10,9.41074e-05,-3.64855,-1.49103,-0.03957,0.418864,
2,1,0,1,0,64728.9,0.423288,0.422986,0.224422,98,0.0255533,10,9.49273e-05,-3.64893,3.68641,0.0160047,0.422887,
2,1,0,1,0,64729.7,0.427283,0.426962,0.223554,98,0.0257394,10,9.54492e-05,-3.65062,-5.59604,-0.0105432,0.426864,
2,1,0,1,0,64730.5,0.431278,0.430953,0.22396,98,0.0259252,10,9.6516e-05,-3.64983,-12.7408,-0.00463078,0.430854,
2,1,0,1,0,64731.3,0.435273,0.434944,0.223972,98,0.0261109,10,9.74151e-05,-3.64981,6.23842,0.00945753,0.434845,
2,1,0,0,0,64732.1,0.439269,0.438963,0.223971,98,0.0262966,10,9.83148e-05,-3.64981,-7.52035,-0.00784538,0.438864,
2,1,0,1,0,64732.9,0.443264,0.442984,0.224015,98,0.0264823,10,9.9235e-05,-3.64972,-25.6263,-0.00230232,0.442885,
2,1,0,0,0,64733.7,0.447259,0.446977,0.224034,98,0.026668,10,0.000100138,-3.64969,1.71631,0.0343761,0.446879,
2,1,0,1,0,64734.5,0.451254,0.450919,0.224013,98,0.0268538,10,0.000101012,-3.64973,-1.38659,-0.0425505,0.450821,
2,1,0,1,0,64735.3,0.455249,0.454935,0.224375,98,0.0270392,10,0.000102076,-3.64902,2.34932,0.0251136,0.454836,
2,1,0,1,0,64736.1,0.459244,0.458945,0.223474,98,0.0272247,10,0.000102562,-3.65077,7.23652,0.00815309,0.458847,
2,1,0,1,0,64736.9,0.46324,0.462974,0.225433,98,0.0274104,10,0.000104369,-3.64698,-35.0911,-0.00168134,0.462875,
2,1,0,0,0,64737.7,0.467235,0.466876,0.224451,98,0.0275961,10,0.000104791,-3.64888,17.625,0.00334752,0.466777,
2,1,0,1,0,64738.5,0.471231,0.470905,0.22533,98,0.0277821,10,0.000106109,-3.64718,4.4182,0.0133539,0.470806,
2,1,0,1,0,64739.3,0.475225,0.474921,0.225585,98,0.0279682,10,0.000107135,-3.64669,3.71612,0.0158768,0.474822,
2,1,0,1,0,64740.1,0.47922,0.478916,0.224881,98,0.0281545,10,0.000107699,-3.64805,4.58828,0.0128589,0.478817,
2,1,0,1,0,64740.9,0.483216,0.482898,0.226232,98,0.0283412,10,0.000109247,-3.64545,-5.00833,-0.0117804,0.482798,
2,1,0,0,0,64741.7,0.487211,0.486841,0.226537,98,0.0285281,10,0.000110288,-3.64486,1.0947,0.0538959,0.486742,
2,1,0,1,0,64742.5,0.491206,0.49088,0.226865,98,0.0287156,10,0.000111364,-3.64423,7.53281,0.0078324,0.490781,
2,1,0,1,0,64743.3,0.495201,0.494906,0.22789,98,0.0289035,10,0.000112784,-3.64227,2.69762,0.0218711,0.494806,
2,1,0,1,0,64744.1,0.499196,0.498882,0.228061,98,0.0290916,10,0.000113776,-3.64195,2.24305,0.0263035,0.498782,
2,1,0,1,0,64744.9,0.503191,0.502875,0.22921,98,0.0292804,10,0.000115264,-3.63977,6.25098,0.00943852,0.502775,
2,1,0,0,0,64745.7,0.507187,0.506857,0.229863,98,0.0294697,10,0.000116507,-3.63853,1.47982,0.0398697,0.506755,
2,1,0,1,0,64746.5,0.511182,0.510852,0.230356,98,0.0296597,10,0.000117678,-3.6376,5.5846,0.0105648,0.510751,
2,1,0,0,0,64747.3,0.515177,0.514863,0.231963,98,0.0298507,10,0.000119429,-3.63458,87.4225,0.000674884,0.51476,
2,1,0,1,0,64748.1,0.519173,0.518809,0.232617,98,0.0300422,10,0.000120684,-3.63336,1.47492,0.0400021,0.518706,
2,1,0,1,0,64748.9,0.523167,0.522862,0.233895,98,0.0302345,10,0.000122295,-3.63098,1.29945,0.0454039,0.522759,
2,1,0,1,0,64749.7,0.527162,0.526832,0.235574,98,0.0304279,10,0.000124108,-3.62787,1.47792,0.0399209,0.526728,
2,1,0,1,0,64750.5,0.531158,0.530819,0.236391,98,0.0306221,10,0.000125481,-3.62637,1.57117,0.0375515,0.530715,
2,1,0,0,0,64751.3,0.535153,0.53485,0.238504,98,0.0308175,10,0.000127564,-3.6225,1.50433,0.03922,0.534745,
2,1,0,1,0,64752.1,0.539148,0.538828,0.240236,98,0.031014,10,0.000129446,-3.61936,2.00016,0.0294977,0.538722,
2,1,0,1,0,64752.9,0.543143,0.542861,0.240972,98,0.0312118,10,0.000130814,-3.61803,1.02417,0.0576076,0.542755,
2,1,0,1,0,64753.7,0.547138,0.546823,0.243562,98,0.0314111,10,0.000133185,-3.61339,1.65353,0.0356813,0.546716,
2,1,0,1,0,64754.5,0.551133,0.550827,0.244544,98,0.0316116,10,0.000134701,-3.61164,0.85031,0.0693865,0.550719,
2,1,0,0,0,64755.3,0.555129,0.554812,0.246903,98,0.0318139,10,0.000136985,-3.60747,1.21753,0.0484587,0.554704,
2,1,0,1,0,64756.1,0.559124,0.558875,0.249793,98,0.0320176,10,0.000139603,-3.60242,1.04549,0.056433,0.558765,
2,1,0,1,0,64756.9,0.56312,0.562802,0.25222,98,0.0322233,10,0.00014195,-3.59822,0.80515,0.0732783,0.562691,
2,1,0,1,0,64757.7,0.567114,0.566795,0.254162,98,0.0324312,10,0.000144058,-3.59489,1.03725,0.056881,0.566683,
2,1,0,1,0,64758.5,0.571109,0.570818,0.257327,98,0.0326411,10,0.000146887,-3.58951,0.71951,0.0820003,0.570705,
2,1,0,0,0,64759.3,0.575105,0.574782,0.260662,98,0.0328536,10,0.000149824,-3.58392,0.723171,0.0815851,0.574667,
2,1,0,1,0,64760.1,0.5791,0.578801,0.264783,98,0.0330691,10,0.000153256,-3.57711,0.626884,0.0941163,0.578684,
2,1,0,0,0,64760.9,0.583095,0.582804,0.26834,98,0.0332875,10,0.000156389,-3.57131,0.551324,0.107015,0.582686,
2,1,0,1,0,64761.7,0.58709,0.586774,0.272771,98,0.0335091,10,0.000160055,-3.5642,0.571205,0.10329,0.586654,
2,1,0,1,0,64762.5,0.591085,0.590774,0.27745,98,0.033734,10,0.00016391,-3.55681,0.514538,0.114666,0.590652,
2,1,0,1,0,64763.3,0.59508,0.594799,0.282614,98,0.0339629,10,0.000168099,-3.54881,0.449348,0.131301,0.594675,
2,1,0,1,0,64764.1,0.599076,0.598789,0.288756,98,0.0341964,10,0.000172904,-3.53947,0.426862,0.138218,0.598662,
2,1,0,0,0,64764.9,0.603071,0.602819,0.295436,98,0.0344347,10,0.000178094,-3.52954,0.383032,0.154034,0.602689,
2,1,0,1,0,64765.7,0.607066,0.606765,0.302798,98,0.0346788,10,0.000183727,-3.51885,0.360829,0.163512,0.606632,
2,1,0,1,0,64766.5,0.611061,0.610756,0.310887,98,0.0349292,10,0.000189876,-3.5074,0.310898,0.189773,0.61062,
2,1,0,1,0,64767.3,0.615056,0.614755,0.320254,98,0.0351866,10,0.000196878,-3.49451,0.279214,0.211307,0.614614,
2,1,0,1,0,64768.1,0.619051,0.618787,0.331298,98,0.0354524,10,0.000205003,-3.47978,0.277017,0.212983,0.618642,
2,1,0,0,0,64768.9,0.623047,0.622733,0.343496,98,0.0357272,10,0.000213907,-3.46408,0.248242,0.237671,0.622582,
2,1,0,1,0,64769.7,0.627042,0.626746,0.357757,98,0.0360122,10,0.000224223,-3.44641,0.210767,0.279929,0.626589,
2,1,0,1,0,64770.5,0.631037,0.630756,0.374581,98,0.0363099,10,0.000236269,-3.42645,0.196417,0.300381,0.630591,
2,1,0,1,0,64771.3,0.635032,0.634725,0.394424,98,0.0366219,10,0.000250351,-3.40404,0.170458,0.346126,0.634551,
2,1,0,1,0,64772.1,0.639027,0.638717,0.416134,98,0.0369505,10,0.000265792,-3.38077,0.159606,0.36966,0.638534,
2,1,0,1,0,64772.9,0.643022,0.642719,0.441734,98,0.0372982,10,0.000283911,-3.35484,0.150915,0.39095,0.642524,
2,1,0,1,0,64773.7,0.647018,0.646729,0.470315,98,0.0376678,10,0.000304167,-3.32761,0.134335,0.439202,0.646522,
2,1,0,0,0,64774.5,0.651013,0.650727,0.505137,98,0.0380631,10,0.000328706,-3.29659,0.12323,0.478779,0.650505,
2,1,0,1,0,64775.3,0.655008,0.654752,0.546073,98,0.0384883,10,0.000357542,-3.26275,0.116511,0.50639,0.654512,
2,1,0,1,0,64776.1,0.659003,0.658718,0.591646,98,0.0389474,10,0.000389728,-3.22794,0.110228,0.535254,0.658458,
2,1,0,1,0,64776.9,0.662998,0.66272,0.646451,98,0.0394467,10,0.000428416,-3.18946,0.100473,0.587223,0.662436,
2,1,0,1,0,64777.7,0.666994,0.666722,0.70732,98,0.0399923,10,0.000471586,-3.15038,0.0994588,0.593211,0.666411,
2,1,0,0,0,64778.5,0.670989,0.670719,0.778604,98,0.0405904,10,0.000522224,-3.10868,0.0924926,0.637889,0.670376,
2,1,0,1,0,64779.3,0.674984,0.674733,0.859936,98,0.0412495,10,0.000580227,-3.06553,0.0913538,0.645841,0.674354,
2,1,0,1,0,64780.1,0.67898,0.678718,0.949965,98,0.0419773,10,0.000644758,-3.02229,0.0886809,0.665307,0.6783,
2,1,0,1,0,64780.9,0.682974,0.682692,1.05409,98,0.0427827,10,0.000719622,-2.97712,0.0899009,0.656278,0.682228,
2,1,0,1,0,64781.7,0.686969,0.686644,1.16874,98,0.0436745,10,0.000802505,-2.93228,0.0863374,0.683366,0.68613,
2,1,0,0,0,64782.5,0.690965,0.690719,1.29724,98,0.044664,10,0.000896026,-2.88698,0.0865866,0.681399,0.690149,
2,1,0,1,0,64783.3,0.69496,0.694676,1.43975,98,0.0457618,10,0.00100016,-2.84171,0.0876176,0.673381,0.694042,
2,1,0,0,0,64784.1,0.698955,0.698682,1.5945,98,0.0469784,10,0.00111405,-2.79737,0.0886183,0.665777,0.69798,
2,1,0,1,0,64784.9,0.70295,0.702671,1.76646,98,0.0483254,10,0.00124124,-2.7529,0.0893102,0.660619,0.701894,
2,1,0,1,0,64785.7,0.706945,0.706686,1.95084,98,0.0498147,10,0.00137863,-2.70978,0.0927312,0.636248,0.705827,
2,1,0,1,0,64786.5,0.71094,0.710641,2.15131,98,0.0514578,10,0.00152881,-2.6673,0.0907277,0.650297,0.709694,
2,1,0,1,0,64787.3,0.714936,0.714643,2.36629,98,0.0532673,10,0.00169105,-2.62593,0.0964408,0.611774,0.713602,
2,1,0,0,0,64788.1,0.718931,0.718646,2.59602,98,0.0552541,10,0.00186562,-2.58569,0.0972065,0.606956,0.717504,
2,1,0,1,0,64788.9,0.722927,0.722639,2.84241,98,0.0574313,10,0.00205404,-2.54631,0.102038,0.578216,0.721388,
2,1,0,1,0,64789.7,0.726921,0.726648,3.10162,98,0.0598101,10,0.00225379,-2.50841,0.102058,0.578105,0.725283,
2,1,0,1,0,64790.5,0.730916,0.730615,3.37902,98,0.0624033,10,0.00246876,-2.47121,0.106054,0.556321,0.729128,
2,1,0,1,0,64791.3,0.734911,0.734594,3.67147,98,0.0652246,10,0.00269704,-2.43516,0.10684,0.552228,0.732979,
2,1,0,0,0,64792.1,0.738907,0.738588,3.98275,98,0.0682876,10,0.00294161,-2.39982,0.112074,0.526438,0.736836,
2,1,0,1,0,64792.9,0.742902,0.742577,4.31027,98,0.0716047,10,0.00320071,-2.3655,0.112513,0.524382,0.740681,
2,1,0,1,0,64793.7,0.746897,0.746566,4.65582,98,0.0751915,10,0.00347588,-2.332,0.115896,0.509077,0.744517,
2,1,0,1,0,64794.5,0.750892,0.750604,5.0221,98,0.0790625,10,0.0037696,-2.29912,0.119019,0.495718,0.748394,
2,1,0,1,0,64795.3,0.754887,0.754588,5.40793,98,0.0832339,10,0.00408076,-2.26697,0.119733,0.492765,0.752209,
2,1,0,0,0,64796.1,0.758883,0.7586,5.81559,98,0.087722,10,0.00441171,-2.23541,0.121349,0.486203,0.756041,
2,1,0,1,0,64796.9,0.762878,0.762579,6.24459,98,0.0925437,10,0.00476199,-2.2045,0.124418,0.474207,0.759831,
2,1,0,0,0,64797.7,0.766873,0.766583,6.69733,98,0.0977185,10,0.00513406,-2.1741,0.126962,0.464706,0.763636,
2,1,0,1,0,64798.5,0.770868,0.770583,7.17713,98,0.103266,10,0.00553057,-2.14405,0.125397,0.470506,0.767425,
2,1,0,1,0,64799.3,0.774863,0.774571,7.6807,98,0.109206,10,0.00594924,-2.1146,0.128847,0.457908,0.771191,
2,1,0,1,0,64800.1,0.778858,0.778562,8.21138,98,0.115559,10,0.00639307,-2.08558,0.130315,0.452748,0.774949,
2,1,0,1,0,64800.9,0.782854,0.782597,8.77141,98,0.122348,10,0.00686448,-2.05693,0.132386,0.445668,0.778738,
2,1,0,0,0,64801.7,0.786849,0.786552,9.36419,98,0.129597,10,0.00736542,-2.02853,0.130596,0.451774,0.782432,
2,1,0,1,0,64802.5,0.790844,0.79055,9.99719,98,0.137336,10,0.00790328,-2.00012,0.13022,0.45308,0.786151,
2,1,0,1,0,64803.3,0.794839,0.794554,10.6614,98,0.145594,10,0.00847109,-1.97218,0.133108,0.443249,0.789862,
2,1,0,1,0,64804.1,0.798834,0.798539,11.3667,98,0.154398,10,0.00907674,-1.94437,0.132876,0.444022,0.793538,
2,1,0,1,0,64804.9,0.802829,0.802533,12.1181,98,0.163785,10,0.00972514,-1.91657,0.131448,0.448848,0.797201,
2,1,0,0,0,64805.7,0.806825,0.806528,12.9227,98,0.173794,10,0.0104226,-1.88865,0.14106,0.41826,0.800842,
2,1,0,1,0,64806.5,0.81082,0.810565,13.7164,98,0.184432,10,0.011118,-1.86276,0.13039,0.452489,0.80453,
2,1,0,1,0,64807.2,0.814815,0.814548,14.5992,98,0.19575,10,0.0118918,-1.83567,0.132229,0.446194,0.808124,
2,1,0,1,0,64808,0.81881,0.818524,15.5342,98,0.207792,10,0.0127151,-1.80871,0.133036,0.443489,0.811689,
2,1,0,1,0,64808.8,0.822805,0.82251,16.5298,98,0.220605,10,0.0135959,-1.78173,0.134257,0.439456,0.815236,
2,1,0,0,0,64809.6,0.826801,0.826553,17.5423,98,0.234225,10,0.0144997,-1.75591,0.138708,0.425355,0.818834,
2,1,0,1,0,64810.4,0.830796,0.830524,18.6096,98,0.248678,10,0.0154557,-1.73026,0.139557,0.422767,0.822336,
2,1,0,0,0,64811.2,0.834791,0.834573,19.705,98,0.263992,10,0.0164452,-1.70542,0.147255,0.400665,0.825903,
2,1,0,1,0,64812,0.838786,0.838502,20.8072,98,0.280183,10,0.0174469,-1.68179,0.147804,0.399177,0.829347,
2,1,0,1,0,64812.8,0.842781,0.842526,21.9438,98,0.297271,10,0.0184883,-1.65869,0.153842,0.383509,0.832871,
2,1,0,1,0,64813.6,0.846776,0.84655,23.1211,98,0.315279,10,0.0195732,-1.63599,0.157223,0.375263,0.836377,
2,1,0,0,0,64814.3,0.849723,0.849458,23.8958,98,0.33181,10,0.0202985,-1.62168,0.0504247,1.17006,0.838944,
2,1,0,1,0,64815.1,0.845728,0.845479,22.0905,98,0.350127,10,0.0186771,-1.65579,0.106882,0.552012,0.835759,
2,1,0,0,0,64815.9,0.841732,0.841484,20.6791,98,0.367184,10,0.0174011,-1.68447,0.122939,0.479912,0.832385,
2,1,0,1,0,64816.7,0.837737,0.8375,19.3795,98,0.383177,10,0.0162304,-1.71266,0.122953,0.479857,0.828973,
2,1,0,1,0,64817.5,0.833742,0.83349,18.1487,98,0.398155,10,0.0151268,-1.74115,0.118132,0.499442,0.825505,
2,1,0,1,0,64818.3,0.829747,0.829493,16.9569,98,0.412166,10,0.0140656,-1.77065,0.116473,0.506557,0.822032,
2,1,0,1,0,64819.1,0.825752,0.825485,15.8398,98,0.425254,10,0.0130756,-1.80025,0.120762,0.488566,0.818516,
2,1,0,0,0,64819.9,0.821757,0.821514,14.806,98,0.437486,10,0.0121633,-1.82956,0.120396,0.49005,0.814999,
2,1,0,1,0,64820.7,0.817761,0.817451,13.8194,98,0.448908,10,0.0112967,-1.85951,0.120676,0.488912,0.811371,
2,1,0,1,0,64821.5,0.813766,0.81351,12.9076,98,0.459579,10,0.0105005,-1.88915,0.123032,0.479549,0.807831,
2,1,0,1,0,64822.3,0.809771,0.809525,12.0487,98,0.46954,10,0.00975376,-1.91906,0.117476,0.502232,0.804224,
2,1,0,1,0,64823.1,0.805776,0.805539,11.2386,98,0.478833,10,0.00905312,-1.94929,0.12249,0.481671,0.800594,
2,1,0,0,0,64823.9,0.801781,0.801553,10.4711,98,0.487496,10,0.00839316,-1.98001,0.118292,0.498765,0.796946,
2,1,0,1,0,64824.7,0.797786,0.797535,9.75635,98,0.495567,10,0.00778103,-2.01071,0.119299,0.494557,0.793242,
2,1,0,1,0,64825.5,0.79379,0.79351,9.08736,98,0.503085,10,0.00721092,-2.04156,0.120436,0.489885,0.789512,
2,1,0,1,0,64826.3,0.789795,0.789497,8.44992,98,0.510084,10,0.00667119,-2.07315,0.117824,0.500746,0.785779,
2,1,0,1,0,64827.1,0.7858,0.785517,7.84866,98,0.51659,10,0.00616525,-2.1052,0.114137,0.516923,0.782063,
2,1,0,0,0,64827.9,0.781805,0.781527,7.28773,98,0.52263,10,0.00569556,-2.13741,0.117435,0.502407,0.778321,
2,1,0,1,0,64828.7,0.77781,0.777553,6.76492,98,0.528235,10,0.00526008,-2.16974,0.112993,0.522154,0.774576,
2,1,0,0,0,64829.5,0.773814,0.773526,6.26966,98,0.533434,10,0.00484974,-2.20276,0.116353,0.507076,0.770768,
2,1,0,1,0,64830.3,0.769819,0.769569,5.80624,98,0.538252,10,0.0044683,-2.23611,0.112799,0.523057,0.767014,
2,1,0,1,0,64831.1,0.765824,0.765559,5.37177,98,0.542709,10,0.00411241,-2.26988,0.111374,0.529745,0.763195,
2,1,0,1,0,64831.9,0.761829,0.761556,4.9653,98,0.546831,10,0.00378135,-2.30405,0.111858,0.527456,0.759371,
2,1,0,1,0,64832.7,0.757834,0.757579,4.58253,98,0.550639,10,0.00347163,-2.33889,0.109468,0.538969,0.755563,
2,1,0,0,0,64833.5,0.753839,0.75357,4.2248,98,0.55415,10,0.00318368,-2.37419,0.107355,0.549577,0.751711,
2,1,0,1,0,64834.3,0.749844,0.749582,3.8889,98,0.557385,10,0.00291505,-2.41017,0.106164,0.555746,0.747871,
2,1,0,1,0,64835.1,0.745848,0.745581,3.57307,98,0.560359,10,0.00266402,-2.44696,0.104014,0.56723,0.744009,
2,1,0,1,0,64835.9,0.741853,0.741576,3.27403,98,0.563088,10,0.00242794,-2.48492,0.100126,0.589256,0.740135,
2,1,0,1,0,64836.7,0.737858,0.737576,2.99417,98,0.565585,10,0.00220843,-2.52372,0.0990866,0.595439,0.736259,
2,1,0,0,0,64837.5,0.733863,0.733581,2.74467,98,0.567867,10,0.00201344,-2.56151,0.113547,0.519609,0.732373,
2,1,0,1,0,64838.3,0.729868,0.729561,2.53025,98,0.569974,10,0.00184597,-2.59684,0.0987029,0.597754,0.728448,
2,1,0,1,0,64839.1,0.725872,0.725603,2.30085,98,0.571898,10,0.0016695,-2.63811,0.0912115,0.646849,0.724591,
2,1,0,1,0,64839.9,0.721877,0.721603,2.08065,98,0.573642,10,0.0015014,-2.6818,0.0882742,0.668372,0.720688,
2,1,0,1,0,64840.7,0.717882,0.71759,1.87456,98,0.575217,10,0.00134517,-2.7271,0.0846024,0.69738,0.716765,
2,1,0,0,0,64841.5,0.713887,0.713604,1.67829,98,0.57663,10,0.00119763,-2.77513,0.0783989,0.752562,0.712865,
2,1,0,1,0,64842.3,0.709892,0.709632,1.49749,98,0.577892,10,0.00106267,-2.82464,0.0782738,0.753764,0.708973,
2,1,0,0,0,64843.1,0.705897,0.705651,1.32787,98,0.579015,10,0.000937015,-2.87684,0.0737021,0.80052,0.705067,
2,1,0,1,0,64843.9,0.701901,0.701589,1.17231,98,0.580007,10,0.000822479,-2.93096,0.0693545,0.850702,0.701073,
2,1,0,1,0,64844.7,0.697906,0.697601,1.02699,98,0.580879,10,0.00071643,-2.98843,0.0677835,0.870419,0.697149,
2,1,0,1,0,64845.5,0.693911,0.693646,0.89399,98,0.58164,10,0.000620113,-3.04867,0.0631923,0.933659,0.693253,
2,1,0,1,0,64846.3,0.689916,0.689629,0.772212,98,0.582299,10,0.00053254,-3.11226,0.0605672,0.974125,0.689289,
2,1,0,0,0,64847.1,0.685921,0.685619,0.662491,98,0.582866,10,0.000454216,-3.17882,0.0576922,1.02267,0.685327,
2,1,0,1,0,64847.9,0.681926,0.681624,0.562902,98,0.583349,10,0.000383688,-3.24957,0.0546909,1.07879,0.681376,
2,1,0,1,0,64848.7,0.67793,0.677655,0.473122,98,0.583757,10,0.000320613,-3.32503,0.0511986,1.15237,0.677447,
2,1,0,1,0,64849.5,0.673935,0.673646,0.393687,98,0.584097,10,0.000265206,-3.40485,0.0470724,1.25339,0.673473,
2,1,0,1,0,64850.3,0.66994,0.669698,0.32381,98,0.584378,10,0.000216855,-3.48971,0.0448367,1.31589,0.669556,
2,1,0,0,0,64851.1,0.665945,0.665652,0.261039,98,0.584605,10,0.000173761,-3.5833,0.0411266,1.4346,0.665538,
2,1,0,1,0,64851.9,0.66195,0.661705,0.206932,98,0.584786,10,0.000136928,-3.68417,0.0375553,1.57102,0.661614,
2,1,0,0,0,64852.7,0.657955,0.657682,0.159118,98,0.584926,10,0.000104649,-3.79828,0.0325159,1.8145,0.657612,
2,1,0,1,0,64853.5,0.653959,0.65366,0.117961,98,0.585031,10,7.71066e-05,-3.92826,0.0279334,2.11217,0.653608,
2,1,0,1,0,64854.3,0.649964,0.649692,0.082839,98,0.585105,10,5.38199e-05,-4.08176,0.023457,2.51525,0.649656,
2,1,0,1,0,64855.1,0.64597,0.645671,0.0526235,98,0.585153,10,3.39774e-05,-4.27882,0.0169027,3.49057,0.645648,
2,1,0,1,0,64855.9,0.641974,0.641656,0.0271969,98,0.585179,10,1.74511e-05,-4.56548,0.00966079,6.10716,0.641644,
2,1,0,0,0,64856.7,0.637979,0.637649,0.00598997,98,0.585185,10,3.8195e-06,-5.22258,0.00776311,7.60005,0.637646,
2,0,0,1,0,64857.5,0.633983,0.633645,-0.0133621,98,0.585176,10,-8.4668e-06,-4.87413,-0.00611432,-9.64948,0.63365,
2,0,0,1,0,64858.3,0.629988,0.629698,-0.0279048,98,0.585155,10,-1.75716e-05,-4.55432,-0.0182427,-3.23416,0.62971,
2,0,0,1,0,64859.1,0.625993,0.62572,-0.0408038,98,0.585121,10,-2.55317e-05,-4.3893,-0.0313757,-1.88044,0.625738,
2,0,0,1,0,64859.9,0.621998,0.621691,-0.0505742,98,0.585079,10,-3.14415e-05,-4.29607,-0.0469008,-1.25797,0.621713,
2,0,0,0,0,64860.7,0.618003,0.617703,-0.0608464,98,0.585028,10,-3.7585e-05,-4.21577,-0.0601215,-0.981346,0.61773,
2,0,0,1,0,64861.5,0.614008,0.613713,-0.0694417,98,0.58497,10,-4.26172e-05,-4.15838,-0.0985792,-0.598503,0.613743,
2,0,0,1,0,64862.3,0.610012,0.609723,-0.0755435,98,0.584907,10,-4.60606e-05,-4.1218,-0.11811,-0.499536,0.609756,
2,0,0,1,0,64863.1,0.606017,0.605696,-0.0805344,98,0.584839,10,-4.87794e-05,-4.09402,-0.148894,-0.396256,0.605731,
2,0,0,1,0,64863.9,0.602022,0.601743,-0.0861098,98,0.584766,10,-5.18159e-05,-4.06495,-0.215516,-0.273762,0.601781,
2,0,0,0,0,64864.7,0.598027,0.597739,-0.0890791,98,0.58469,10,-5.3246e-05,-4.05022,-0.168535,-0.350076,0.597778,
2,0,0,1,0,64865.5,0.594032,0.593691,-0.0932649,98,0.584611,10,-5.53705e-05,-4.03028,-0.253434,-0.232802,0.593732,
2,0,0,0,0,64866.3,0.590037,0.589746,-0.0964936,98,0.58453,10,-5.69068e-05,-4.0155,-0.314685,-0.187489,0.589789,
2,0,0,1,0,64867.1,0.586041,0.585758,-0.0986279,98,0.584446,10,-5.77721e-05,-4.006,-0.390867,-0.150946,0.585801,
2,0,0,1,0,64867.9,0.582046,0.581737,-0.101676,98,0.58436,10,-5.91489e-05,-3.99278,-0.44036,-0.133981,0.581782,
2,0,0,1,0,64868.7,0.578052,0.577815,-0.103327,98,0.584273,10,-5.97042e-05,-3.98578,-0.370101,-0.159416,0.577861,
2,0,0,1,0,64869.5,0.574056,0.573761,-0.104415,98,0.584184,10,-5.9909e-05,-3.98124,-0.862511,-0.068405,0.573807,
2,0,0,0,0,64870.3,0.570061,0.56973,-0.106811,98,0.584093,10,-6.08537e-05,-3.97138,-2.60167,-0.0226777,0.569777,
2,0,0,1,0,64871.1,0.566065,0.565725,-0.107906,98,0.584002,10,-6.1045e-05,-3.96696,-0.309648,-0.190539,0.565772,
2,0,0,1,0,64871.9,0.56207,0.561779,-0.109255,98,0.583909,10,-6.13773e-05,-3.96156,-1.96117,-0.0300841,0.561827,
2,0,0,1,0,64872.7,0.558075,0.557765,-0.110497,98,0.583815,10,-6.16311e-05,-3.95665,-0.945669,-0.0623897,0.557813,
2,0,0,1,0,64873.5,0.55408,0.553762,-0.111663,98,0.58372,10,-6.18347e-05,-3.95209,-1.60949,-0.0366576,0.553811,
2,0,0,0,0,64874.3,0.550085,0.549795,-0.113028,98,0.583625,10,-6.2142e-05,-3.94682,-0.639792,-0.0922174,0.549845,
2,0,0,1,0,64875.1,0.54609,0.54579,-0.113697,98,0.583529,10,-6.20549e-05,-3.94425,-1.90165,-0.0310257,0.54584,
2,0,0,1,0,64875.9,0.542094,0.541849,-0.114864,98,0.583431,10,-6.22387e-05,-3.93982,-0.924117,-0.0638447,0.541899,
2,0,0,1,0,64876.7,0.538099,0.537805,-0.116197,98,0.583333,10,-6.24912e-05,-3.93481,-1.11358,-0.0529821,0.537856,
2,0,0,1,0,64877.5,0.534104,0.533809,-0.116783,98,0.583234,10,-6.23396e-05,-3.93262,-0.674711,-0.0874448,0.53386,
2,0,0,0,0,64878.3,0.530109,0.529793,-0.117855,98,0.583134,10,-6.24388e-05,-3.92865,-1.28182,-0.0460284,0.529845,
2,0,0,1,0,64879.1,0.526114,0.525794,-0.119451,98,0.583034,10,-6.28067e-05,-3.92281,-0.967739,-0.0609668,0.525847,
2,0,0,0,0,64879.9,0.522119,0.521838,-0.120109,98,0.582932,10,-6.26776e-05,-3.92042,-2.27716,-0.0259095,0.521891,
2,0,0,1,0,64880.7,0.518123,0.517836,-0.120583,98,0.58283,10,-6.24422e-05,-3.91871,-1.02443,-0.057593,0.517889,
2,0,0,1,0,64881.5,0.514128,0.513772,-0.121364,98,0.582726,10,-6.23534e-05,-3.91591,-0.620555,-0.0950762,0.513826,
2,0,0,1,0,64882.3,0.510133,0.509848,-0.121809,98,0.582622,10,-6.2104e-05,-3.91432,9.72084,0.00606944,0.509902,
2,0,0,1,0,64883.1,0.506138,0.505801,-0.123289,98,0.582518,10,-6.23599e-05,-3.90907,-1.21551,-0.0485391,0.505856,
2,0,0,0,0,64883.9,0.502143,0.50185,-0.124666,98,0.582412,10,-6.25637e-05,-3.90425,-0.535184,-0.110242,0.501905,
2,0,0,1,0,64884.7,0.498148,0.497803,-0.125588,98,0.582305,10,-6.25178e-05,-3.90105,-3.57132,-0.0165205,0.497858,
2,0,0,1,0,64885.5,0.494152,0.49388,-0.126366,98,0.582198,10,-6.24098e-05,-3.89837,-0.947253,-0.0622854,0.493936,
2,0,0,1,0,64886.3,0.490157,0.489882,-0.12755,98,0.58209,10,-6.24846e-05,-3.89432,-0.486578,-0.121255,0.489939,
2,0,0,1,0,64887.1,0.486162,0.485837,-0.129217,98,0.581981,10,-6.27783e-05,-3.88868,-7.92811,-0.00744187,0.485894,
2,0,0,0,0,64887.9,0.482167,0.481845,-0.129856,98,0.58187,10,-6.25703e-05,-3.88654,-1.44046,-0.0409593,0.481902,
2,0,0,1,0,64888.7,0.478172,0.477879,-0.130906,98,0.581759,10,-6.2557e-05,-3.88304,-1.02347,-0.0576471,0.477936,
2,0,0,0,0,64889.5,0.474177,0.473892,-0.132764,98,0.581647,10,-6.29156e-05,-3.87692,-1.63281,-0.0361341,0.47395,
2,0,0,1,0,64890.3,0.470181,0.469894,-0.133348,98,0.581534,10,-6.26595e-05,-3.87501,-0.719647,-0.0819846,0.469952,
2,0,0,1,0,64891,0.466186,0.465831,-0.13498,98,0.581419,10,-6.28778e-05,-3.86973,-0.810438,-0.0728002,0.465891,
2,0,0,1,0,64891.8,0.462191,0.461855,-0.137431,98,0.581304,10,-6.34733e-05,-3.86191,-0.687101,-0.085868,0.461916,
2,0,0,1,0,64892.6,0.458196,0.457913,-0.13773,98,0.581187,10,-6.30683e-05,-3.86097,-0.99647,-0.059209,0.457974,
2,0,0,0,0,64893.4,0.454201,0.453918,-0.140346,98,0.581069,10,-6.37055e-05,-3.8528,-0.729218,-0.0809086,0.45398,
2,0,0,1,0,64894.2,0.450205,0.449912,-0.14116,98,0.58095,10,-6.35095e-05,-3.85029,-1.46277,-0.0403345,0.449974,
2,0,0,1,0,64895,0.44621,0.445917,-0.142572,98,0.58083,10,-6.35754e-05,-3.84596,-0.507292,-0.116304,0.44598,
2,0,0,1,0,64895.8,0.442215,0.441934,-0.14433,98,0.580708,10,-6.37845e-05,-3.84064,-5.50238,-0.0107226,0.441998,
2,0,0,1,0,64896.6,0.43822,0.437903,-0.145593,98,0.580585,10,-6.37556e-05,-3.83686,-0.444169,-0.132832,0.437967,
2,0,0,0,0,64897.4,0.434225,0.43393,-0.14774,98,0.58046,10,-6.41088e-05,-3.8305,-1.28085,-0.0460633,0.433995,
2,0,0,1,0,64898.2,0.43023,0.429945,-0.149378,98,0.580334,10,-6.42246e-05,-3.82571,-0.822461,-0.0717359,0.430011,
2,0,0,1,0,64899,0.426234,0.425981,-0.150546,98,0.580207,10,-6.41295e-05,-3.82233,-0.932039,-0.063302,0.426047,
2,0,0,1,0,64899.8,0.422239,0.421963,-0.153046,98,0.580078,10,-6.45795e-05,-3.81518,-0.938527,-0.0628645,0.42203,
2,0,0,1,0,64900.6,0.418244,0.417957,-0.154757,98,0.579948,10,-6.46817e-05,-3.81035,-0.476314,-0.123868,0.418025,
2,0,0,0,0,64901.4,0.414249,0.41395,-0.156238,98,0.579816,10,-6.46747e-05,-3.80621,-0.79479,-0.0742335,0.414019,
2,0,0,1,0,64902.2,0.410254,0.40992,-0.159074,98,0.579682,10,-6.52075e-05,-3.7984,-1.58282,-0.0372753,0.40999,
2,0,0,0,0,64903,0.406259,0.405949,-0.160878,98,0.579547,10,-6.53081e-05,-3.7935,-0.496256,-0.11889,0.40602,
2,0,0,1,0,64903.8,0.402263,0.401961,-0.162721,98,0.579411,10,-6.54075e-05,-3.78856,-0.64553,-0.0913978,0.402033,
2,0,0,1,0,64904.6,0.398268,0.397953,-0.164339,98,0.579272,10,-6.53992e-05,-3.78426,-0.893001,-0.0660694,0.398025,
2,0,0,1,0,64905.4,0.394274,0.393927,-0.166442,98,0.579133,10,-6.55659e-05,-3.77874,-1.19206,-0.0494942,0.394,
2,0,0,1,0,64906.2,0.390278,0.389957,-0.168222,98,0.578991,10,-6.55995e-05,-3.77412,-0.900874,-0.065492,0.390031,
2,0,0,0,0,64907,0.386283,0.385968,-0.170472,98,0.578848,10,-6.57968e-05,-3.76835,-0.78769,-0.0749026,0.386043,
2,0,0,1,0,64907.8,0.382287,0.381962,-0.17117,98,0.578703,10,-6.53802e-05,-3.76657,-0.66192,-0.0891346,0.382037,
2,0,0,1,0,64908.6,0.378292,0.377974,-0.174437,98,0.578557,10,-6.59327e-05,-3.75836,-1.27685,-0.0462074,0.378051,
2,0,0,1,0,64909.4,0.374297,0.373986,-0.17648,98,0.578409,10,-6.60012e-05,-3.7533,-0.54733,-0.107796,0.374063,
2,0,0,1,0,64910.2,0.370303,0.369939,-0.177884,98,0.578259,10,-6.58063e-05,-3.74986,-0.654315,-0.0901706,0.370018,
2,0,0,0,0,64911,0.366307,0.365956,-0.180089,98,0.578108,10,-6.59047e-05,-3.74451,-1.3173,-0.0447887,0.366035,
2,0,0,1,0,64911.8,0.362312,0.361979,-0.182187,98,0.577955,10,-6.5948e-05,-3.73948,-0.599393,-0.0984329,0.36206,
2,0,0,1,0,64912.6,0.358316,0.357991,-0.184526,98,0.577799,10,-6.60587e-05,-3.73394,-2.47025,-0.0238842,0.358072,
2,0,0,1,0,64913.4,0.354321,0.353953,-0.187685,98,0.577643,10,-6.64316e-05,-3.72657,-0.561479,-0.10508,0.354036,
2,0,0,1,0,64914.2,0.350327,0.349974,-0.188951,98,0.577484,10,-6.61278e-05,-3.72365,-0.583097,-0.101184,0.350057,
2,0,0,0,0,64915,0.346331,0.345989,-0.190968,98,0.577323,10,-6.60727e-05,-3.71904,-1.1418,-0.0516727,0.346073,
2,0,0,1,0,64915.8,0.342336,0.342021,-0.193543,98,0.577161,10,-6.61957e-05,-3.71322,-0.65563,-0.0899898,0.342106,
2,0,0,0,0,64916.6,0.338341,0.338023,-0.195535,98,0.576996,10,-6.60951e-05,-3.70878,-0.792895,-0.0744109,0.338109,
2,0,0,1,0,64917.4,0.334345,0.334024,-0.198435,98,0.57683,10,-6.62819e-05,-3.70238,-0.571076,-0.103314,0.334111,
2,0,0,1,0,64918.2,0.33035,0.330041,-0.199148,98,0.576662,10,-6.5727e-05,-3.70082,5.16746,0.0114176,0.330129,
2,0,0,1,0,64919,0.326355,0.326011,-0.203314,98,0.576492,10,-6.62826e-05,-3.69183,-0.464477,-0.127025,0.326101,
2,0,0,1,0,64919.8,0.32236,0.322064,-0.204853,98,0.57632,10,-6.59758e-05,-3.68856,-0.971273,-0.060745,0.322154,
2,0,0,0,0,64920.6,0.318365,0.318033,-0.207028,98,0.576146,10,-6.58417e-05,-3.68397,-0.727355,-0.0811158,0.318124,
2,0,0,1,0,64921.4,0.31437,0.314081,-0.209421,98,0.575969,10,-6.57751e-05,-3.67898,-0.923138,-0.0639124,0.314173,
2,0,0,1,0,64922.2,0.310374,0.310048,-0.212188,98,0.575792,10,-6.57886e-05,-3.67328,-0.642874,-0.0917754,0.310141,
2,0,0,1,0,64923,0.306379,0.306044,-0.215468,98,0.575612,10,-6.59428e-05,-3.66662,-1.14758,-0.0514125,0.306139,
2,0,0,1,0,64923.8,0.302385,0.302052,-0.217058,98,0.57543,10,-6.55629e-05,-3.66342,-0.660076,-0.0893837,0.302148,
2,0,0,0,0,64924.6,0.298389,0.298079,-0.219386,98,0.575246,10,-6.53945e-05,-3.65879,-0.857893,-0.0687731,0.298176,
2,0,0,1,0,64925.4,0.294394,0.294048,-0.223173,98,0.57506,10,-6.56235e-05,-3.65136,-0.927175,-0.0636342,0.294146,
2,0,0,1,0,64926.2,0.290398,0.290061,-0.22482,98,0.574872,10,-6.52117e-05,-3.64816,-0.701577,-0.0840962,0.29016,
2,0,0,1,0,64927,0.286403,0.286056,-0.226417,98,0.574682,10,-6.47679e-05,-3.64509,-1.56783,-0.0376316,0.286156,
2,0,0,1,0,64927.8,0.282408,0.282084,-0.230328,98,0.57449,10,-6.49721e-05,-3.63765,-0.678005,-0.08702,0.282186,
2,0,0,1,0,64928.6,0.278414,0.278088,-0.232797,98,0.574296,10,-6.47379e-05,-3.63302,-0.772824,-0.0763434,0.27819,
2,0,0,1,0,64929.4,0.274418,0.274065,-0.23521,98,0.5741,10,-6.4463e-05,-3.62854,-0.74906,-0.0787654,0.274169,
2,0,0,0,0,64930.2,0.270423,0.270081,-0.238784,98,0.573902,10,-6.4491e-05,-3.622,-0.79961,-0.073786,0.270187,
2,0,0,1,0,64931,0.266427,0.266077,-0.240122,98,0.573701,10,-6.38909e-05,-3.61957,-1.02173,-0.0577454,0.266183,
2,0,0,1,0,64931.8,0.262432,0.262072,-0.243212,98,0.573499,10,-6.37391e-05,-3.61402,-0.852661,-0.0691952,0.262179,
2,0,0,1,0,64932.6,0.258437,0.258101,-0.245505,98,0.573294,10,-6.33652e-05,-3.60994,-0.707906,-0.0833444,0.258209,
2,0,0,1,0,64933.4,0.254442,0.25411,-0.247606,98,0.573087,10,-6.2919e-05,-3.60624,-1.14159,-0.0516821,0.254219,
2,0,0,0,0,64934.2,0.250447,0.250118,-0.250602,98,0.572879,10,-6.26801e-05,-3.60102,-2.3093,-0.0255489,0.250229,
2,0,0,1,0,64935,0.246452,0.246115,-0.253261,98,0.572668,10,-6.23314e-05,-3.59643,-0.600961,-0.0981761,0.246227,
2,0,0,1,0,64935.8,0.242456,0.242109,-0.255511,98,0.572456,10,-6.18614e-05,-3.59259,-0.891406,-0.0661876,0.242221,
2,0,0,1,0,64936.6,0.238461,0.238138,-0.257929,98,0.572242,10,-6.14226e-05,-3.5885,-1.03799,-0.0568409,0.238251,
2,0,0,1,0,64937.4,0.234467,0.234171,-0.25968,98,0.572026,10,-6.08095e-05,-3.58556,-1.27059,-0.0464351,0.234285,
2,0,0,0,0,64938.2,0.230471,0.230155,-0.261771,98,0.571808,10,-6.02478e-05,-3.58208,-1.24744,-0.0472968,0.23027,
2,0,0,1,0,64939,0.226476,0.226161,-0.264938,98,0.571588,10,-5.99184e-05,-3.57686,-0.837972,-0.0704081,0.226277,
2,0,0,0,0,64939.8,0.222481,0.222206,-0.266772,98,0.571366,10,-5.92785e-05,-3.57386,-0.829936,-0.0710898,0.222324,
2,0,0,1,0,64940.6,0.218485,0.218205,-0.269927,98,0.571142,10,-5.88995e-05,-3.56875,-1.33056,-0.0443423,0.218324,
2,0,0,1,0,64941.4,0.21449,0.214172,-0.271306,98,0.570916,10,-5.8106e-05,-3.56654,-0.893127,-0.06606,0.214291,
2,0,0,1,0,64942.2,0.210496,0.210178,-0.274858,98,0.570688,10,-5.77692e-05,-3.56089,-0.860061,-0.0685998,0.210299,
2,0,0,1,0,64943,0.2065,0.206139,-0.278056,98,0.570457,10,-5.73181e-05,-3.55587,-0.916621,-0.0643668,0.206261,
2,0,0,0,0,64943.8,0.202505,0.202179,-0.280392,98,0.570225,10,-5.66895e-05,-3.55223,-1.03872,-0.0568009,0.202303,
2,0,0,1,0,64944.6,0.198509,0.198214,-0.282896,98,0.569989,10,-5.60739e-05,-3.54837,-0.81503,-0.07239,0.198339,
2,0,0,1,0,64945.4,0.194514,0.194189,-0.286728,98,0.569752,10,-5.56795e-05,-3.54253,-0.735324,-0.0802367,0.194315,
2,0,0,1,0,64946.2,0.190519,0.190218,-0.288488,98,0.569511,10,-5.48758e-05,-3.53987,-0.744319,-0.0792671,0.190345,
2,0,0,1,0,64947,0.186524,0.186184,-0.293133,98,0.569267,10,-5.45768e-05,-3.53293,-0.835393,-0.0706254,0.186313,
2,0,0,0,0,64947.8,0.182529,0.182209,-0.297204,98,0.569021,10,-5.41532e-05,-3.52694,-0.50757,-0.11624,0.18234,
2,0,0,1,0,64948.6,0.178534,0.178152,-0.302609,98,0.56877,10,-5.39103e-05,-3.51912,-0.565893,-0.10426,0.178285,
2,0,0,1,0,64949.4,0.174538,0.174201,-0.30856,98,0.568516,10,-5.37516e-05,-3.51066,-0.619043,-0.0953085,0.174337,
2,0,0,1,0,64950.2,0.170543,0.170207,-0.313711,98,0.568257,10,-5.33958e-05,-3.50347,-0.367218,-0.160668,0.170345,
2,0,0,1,0,64951,0.166549,0.166169,-0.320476,98,0.567993,10,-5.32533e-05,-3.4942,-0.439654,-0.134197,0.16631,
2,0,0,0,0,64951.8,0.162553,0.162231,-0.329704,98,0.567722,10,-5.34881e-05,-3.48188,-0.337277,-0.174931,0.162376,
2,0,0,1,0,64952.6,0.158558,0.158252,-0.338398,98,0.567445,10,-5.35522e-05,-3.47057,-0.265057,-0.222594,0.158401,
2,0,0,0,0,64953.4,0.154563,0.154218,-0.352424,98,0.567158,10,-5.43502e-05,-3.45293,-0.250899,-0.235154,0.154373,
2,0,0,1,0,64954.2,0.150567,0.150251,-0.369096,98,0.566859,10,-5.54571e-05,-3.43286,-0.162351,-0.36341,0.150414,
2,0,0,1,0,64955,0.146572,0.146229,-0.391485,98,0.566545,10,-5.72465e-05,-3.40728,-0.147543,-0.399883,0.146401,
2,0,0,1,0,64955.8,0.142578,0.14225,-0.419466,98,0.566211,10,-5.9669e-05,-3.3773,-0.117307,-0.502953,0.142435,
2,0,0,1,0,64956.6,0.138582,0.138259,-0.455351,98,0.565851,10,-6.29565e-05,-3.34165,-0.102014,-0.578353,0.13846,
2,0,0,0,0,64957.4,0.134587,0.134242,-0.498672,98,0.565459,10,-6.69429e-05,-3.30219,-0.110571,-0.533593,0.134462,
2,0,0,1,0,64958.2,0.130591,0.130263,-0.541724,98,0.565033,10,-7.05668e-05,-3.26622,-0.11218,-0.525938,0.130502,
2,0,0,1,0,64959,0.126596,0.126292,-0.581534,98,0.564572,10,-7.34433e-05,-3.23543,-0.133194,-0.442963,0.126548,
2,0,0,1,0,64959.8,0.122602,0.122227,-0.619205,98,0.56408,10,-7.56838e-05,-3.20817,-0.200374,-0.29445,0.1225,
2,0,0,1,0,64960.6,0.118607,0.118294,-0.641768,98,0.563565,10,-7.59175e-05,-3.19262,-0.306459,-0.192522,0.118577,
2,0,0,0,0,64961.4,0.114611,0.114251,-0.655095,98,0.563034,10,-7.48449e-05,-3.1837,-0.693966,-0.0850185,0.114539,
2,0,0,1,0,64962.2,0.110616,0.110278,-0.66263,98,0.562496,10,-7.30737e-05,-3.17873,-0.957731,-0.061604,0.11057,
2,0,0,1,0,64963,0.10662,0.106335,-0.663535,98,0.561954,10,-7.05571e-05,-3.17814,-5.1659,-0.0114211,0.106627,
2,0,0,1,0,64963.8,0.102625,0.102294,-0.665396,98,0.561412,10,-6.80663e-05,-3.17692,1.79197,0.0329247,0.102587,
2,0,0,1,0,64964.6,0.0986305,0.0982831,-0.661467,98,0.560871,10,-6.5011e-05,-3.17949,2.27812,0.0258986,0.0985741,
2,0,0,0,0,64965.4,0.0946351,0.0942852,-0.656074,98,0.560332,10,-6.1858e-05,-3.18305,1.60518,0.0367561,0.0945739,
2,0,0,1,0,64966.2,0.0906399,0.0902938,-0.653153,98,0.559797,10,-5.89756e-05,-3.18499,0.821975,0.0717784,0.0905812,
2,0,0,0,0,64967,0.0866448,0.0863141,-0.646539,98,0.559267,10,-5.58054e-05,-3.18941,1.13908,0.0517963,0.0865986,
2,0,0,1,0,64967.8,0.0826492,0.082348,-0.639738,98,0.558743,10,-5.26812e-05,-3.194,0.634479,0.0929897,0.0826295,
2,0,0,1,0,64968.6,0.0786544,0.0782921,-0.632402,98,0.558224,10,-4.95121e-05,-3.19901,0.996119,0.0592298,0.0785704,
2,0,0,1,0,64969.4,0.0746596,0.0743117,-0.62326,98,0.557712,10,-4.63155e-05,-3.20533,0.63426,0.0930218,0.0745859,
2,0,0,1,0,64970.2,0.0706641,0.0703168,-0.616098,98,0.557206,10,-4.33221e-05,-3.21035,0.738772,0.0798622,0.0705879,
2,0,0,0,0,64971,0.0666689,0.0663064,-0.607323,98,0.556706,10,-4.02694e-05,-3.21658,0.886228,0.0665743,0.0665736,
2,0,0,1,0,64971.8,0.0626737,0.0623458,-0.598409,98,0.556212,10,-3.73083e-05,-3.223,0.626763,0.0941345,0.0626091,
2,0,0,1,0,64972.6,0.0586783,0.0583139,-0.591245,98,0.555724,10,-3.44778e-05,-3.22823,0.569644,0.103573,0.058574,
2,0,0,1,0,64973.3,0.0546835,0.0543578,-0.581608,98,0.555244,10,-3.16149e-05,-3.23537,0.701848,0.0840638,0.0546137,
2,0,0,1,0,64974.1,0.0506886,0.0503446,-0.57412,98,0.55477,10,-2.89039e-05,-3.241,0.512183,0.115193,0.0505972,
2,0,0,0,0,64974.9,0.046693,0.0463591,-0.564314,98,0.554304,10,-2.61611e-05,-3.24848,0.576724,0.102302,0.0466074,
2,0,0,1,0,64975.7,0.0426979,0.042356,-0.554244,98,0.553846,10,-2.34756e-05,-3.2563,0.569544,0.103592,0.0425999,
2,0,0,1,0,64976.5,0.0387022,0.0383821,-0.545743,98,0.553395,10,-2.09468e-05,-3.26301,0.448736,0.13148,0.0386223,
2,0,0,1,0,64977.3,0.0347074,0.0343764,-0.536156,98,0.552952,10,-1.84311e-05,-3.27071,0.586527,0.100592,0.0346123,
2,0,0,1,0,64978.1,0.0307126,0.0304279,-0.524653,98,0.552516,10,-1.59641e-05,-3.28013,0.564631,0.104493,0.0306587,
2,0,0,0,0,64978.9,0.0267172,0.0264139,-0.518959,98,0.552087,10,-1.37077e-05,-3.28487,0.525949,0.112178,0.0266422,
2,0,0,1,0,64979.7,0.022722,0.0223695,-0.511266,98,0.551665,10,-1.14368e-05,-3.29135,0.764209,0.077204,0.0225945,
2,0,0,0,0,64980.5,0.0187268,0.018376,-0.50525,98,0.551248,10,-9.28448e-06,-3.29649,0.98711,0.0597704,0.0185983,
2,0,0,1,0,64981.3,0.0147313,0.0144065,-0.502385,98,0.550836,10,-7.2376e-06,-3.29896,1.10636,0.0533281,0.0146275,
2,0,0,1,0,64982.1,0.0107365,0.0103984,-0.497271,98,0.550426,10,-5.17081e-06,-3.30341,2.24689,0.0262585,0.0106172,
2,0,0,1,0,64982.9,0.00674163,0.00642761,-0.497185,98,0.550019,10,-3.19571e-06,-3.30348,3.95465,0.0149191,0.00664637,
2,0,0,1,0,64983.7,0.00274612,0.00241477,-0.496092,98,0.549611,10,-1.19795e-06,-3.30444,-1.49802,-0.0393854,0.00263305,
2,0,0,0,0,64984.2,0.000274105,-8.43461e-05,-0.498327,98,0.549357,10,4.20319e-08,-3.30249, , ,0.000134918,