File: Figure_codes/Fig_3-5/workspace_calculate_alpha_eff/20221101_1-115_003_TrumpetPlot_ParaChange_from10_every3_16_CV_C01_95.csv
mode,ox/red,error,control changes,counter inc.,time/s,control/V,Ewe/V,<I>/mA,cycle number,(Q-Qo)/C,I Range,P/W,log(|I|),Tafel slope mV/dec,alpha_eff,E-IR/V,
2,0,0,0,0,63044.2,2.44065e-05,-0.00042076,-0.10321,96,0.0000000E+000,10,4.34267e-08,-3.98628, , ,-0.000375348,
2,1,0,0,0,63044.9,0.00379485,0.00343806,0.139253,96,8.16618e-05,10,4.78761e-07,-3.85619,0.0287387,2.05298,0.00337679,
2,1,0,1,0,63045.7,0.00779002,0.00742837,0.162713,96,0.000213387,10,1.20869e-06,-3.78858,0.0707867,0.83349,0.00735677,
2,1,0,0,0,63046.5,0.0117852,0.0114717,0.17999,96,0.000360749,10,2.06479e-06,-3.74475,0.108491,0.543826,0.0113925,
2,1,0,1,0,63047.3,0.0157806,0.0154134,0.194512,96,0.00051994,10,2.9981e-06,-3.71105,0.134708,0.437984,0.0153278,
2,1,0,1,0,63048.1,0.0197754,0.0193876,0.206641,96,0.00068949,10,4.00626e-06,-3.68478,0.148192,0.398133,0.0192966,
2,1,0,1,0,63048.9,0.0237704,0.0234148,0.219007,96,0.000869312,10,5.12802e-06,-3.65954,0.161884,0.364459,0.0233185,
2,1,0,1,0,63049.7,0.0277659,0.027417,0.232731,96,0.00105933,10,6.38079e-06,-3.63315,0.16534,0.35684,0.0273146,
2,1,0,0,0,63050.5,0.0317611,0.0313766,0.2442,96,0.00125969,10,7.66217e-06,-3.61225,0.175153,0.336849,0.0312691,
2,1,0,1,0,63051.3,0.0357567,0.0354459,0.258644,96,0.00147087,10,9.16787e-06,-3.5873,0.191384,0.308281,0.0353321,
2,1,0,1,0,63052.1,0.0397516,0.0394052,0.272836,96,0.00169265,10,1.07512e-05,-3.5641,0.15845,0.372356,0.0392851,
2,1,0,1,0,63052.9,0.0437465,0.0433846,0.283731,96,0.00192578,10,1.23096e-05,-3.54709,0.218422,0.270119,0.0432598,
2,1,0,1,0,63053.7,0.0477413,0.0473884,0.297407,96,0.00216861,10,1.40937e-05,-3.52665,0.225286,0.26189,0.0472575,
2,1,0,0,0,63054.5,0.0517369,0.0513483,0.308667,96,0.0024212,10,1.58495e-05,-3.51051,0.205243,0.287464,0.0512125,
2,1,0,1,0,63055.3,0.0557321,0.0553725,0.321129,96,0.00268341,10,1.77817e-05,-3.49332,0.351147,0.168021,0.0552312,
2,1,0,1,0,63056.1,0.0597277,0.0593496,0.331572,96,0.00295397,10,1.96787e-05,-3.47942,0.271437,0.217362,0.0592037,
2,1,0,1,0,63056.9,0.0637226,0.0633436,0.341716,96,0.00323311,10,2.16455e-05,-3.46633,0.348358,0.169366,0.0631933,
2,1,0,1,0,63057.7,0.0677174,0.0674281,0.350541,96,0.00352048,10,2.36363e-05,-3.45526,0.471524,0.125126,0.0672738,
2,1,0,0,0,63058.5,0.0717128,0.0713359,0.359815,96,0.00381458,10,2.56677e-05,-3.44392,0.297897,0.198055,0.0711776,
2,1,0,1,0,63059.3,0.075708,0.0753198,0.366019,96,0.00411556,10,2.75685e-05,-3.4365,0.460909,0.128008,0.0751588,
2,1,0,0,0,63060.1,0.0797031,0.0793154,0.375544,96,0.0044227,10,2.97864e-05,-3.42534,0.414917,0.142197,0.0791502,
2,1,0,1,0,63060.9,0.0836986,0.0833274,0.383598,96,0.00473638,10,3.19642e-05,-3.41612,0.463096,0.127403,0.0831586,
2,1,0,1,0,63061.7,0.0876935,0.0873736,0.394156,96,0.00505747,10,3.44388e-05,-3.40433,0.303627,0.194317,0.0872001,
2,1,0,1,0,63062.5,0.0916883,0.0913602,0.407151,96,0.00538746,10,3.71974e-05,-3.39024,0.245066,0.240752,0.0911811,
2,1,0,1,0,63063.3,0.0956838,0.0953159,0.421794,96,0.005729,10,4.02037e-05,-3.3749,0.223398,0.264103,0.0951303,
2,1,0,0,0,63064.1,0.099679,0.0993677,0.4408,96,0.00608445,10,4.38013e-05,-3.35576,0.231844,0.254482,0.0991738,
2,1,0,1,0,63064.9,0.103674,0.103329,0.46212,96,0.00645517,10,4.77505e-05,-3.33525,0.18028,0.327268,0.103126,
2,1,0,1,0,63065.7,0.10767,0.107325,0.481827,96,0.00684328,10,5.17122e-05,-3.31711,0.235299,0.250744,0.107113,
2,1,0,1,0,63066.5,0.111664,0.111316,0.502101,96,0.00724687,10,5.58921e-05,-3.29921,0.259858,0.227047,0.111095,
2,1,0,1,0,63067.3,0.115659,0.115261,0.517439,96,0.00766462,10,5.96403e-05,-3.28614,0.301498,0.195689,0.115033,
2,1,0,0,0,63068.1,0.119655,0.119316,0.529011,96,0.00809359,10,6.31196e-05,-3.27654,0.697058,0.0846415,0.119083,
2,1,0,1,0,63068.9,0.12365,0.123271,0.53691,96,0.00852947,10,6.61857e-05,-3.2701,0.562426,0.104903,0.123035,
2,1,0,1,0,63069.7,0.127646,0.127254,0.54186,96,0.00897098,10,6.89537e-05,-3.26611,2.49607,0.0236371,0.127015,
2,1,0,1,0,63070.5,0.131641,0.131323,0.541095,96,0.00941494,10,7.10583e-05,-3.26673,-0.684209,-0.086231,0.131085,
2,1,0,1,0,63071.3,0.135635,0.135294,0.529502,96,0.0098538,10,7.16385e-05,-3.27613,-0.276554,-0.21334,0.135061,
2,1,0,0,0,63072.1,0.139631,0.139297,0.499555,96,0.0102767,10,6.95867e-05,-3.30142,-0.118147,-0.499378,0.139078,
2,1,0,1,0,63072.9,0.143626,0.143289,0.455052,96,0.0106692,10,6.52038e-05,-3.34194,-0.0858408,-0.687319,0.143088,
2,1,0,0,0,63073.7,0.147621,0.147299,0.401703,96,0.0110215,10,5.91706e-05,-3.39609,-0.0714388,-0.825881,0.147122,
2,1,0,1,0,63074.5,0.151617,0.151245,0.355133,96,0.0113332,10,5.37122e-05,-3.44961,-0.0809538,-0.728811,0.151089,
2,1,0,1,0,63075.3,0.155612,0.155224,0.322831,96,0.0116124,10,5.0111e-05,-3.49103,-0.108794,-0.542311,0.155082,
2,1,0,1,0,63076.1,0.159606,0.159244,0.300091,96,0.0118704,10,4.77879e-05,-3.52275,-0.172253,-0.342519,0.159112,
2,1,0,1,0,63076.9,0.163602,0.163221,0.286521,96,0.0121145,10,4.67663e-05,-3.54284,-0.200222,-0.294673,0.163095,
2,1,0,0,0,63077.7,0.167597,0.167236,0.276953,96,0.0123491,10,4.63164e-05,-3.55759,-0.364463,-0.161882,0.167114,
2,1,0,1,0,63078.5,0.171592,0.171236,0.269256,96,0.0125776,10,4.61062e-05,-3.56983,-0.391598,-0.150665,0.171117,
2,1,0,1,0,63079.3,0.175588,0.175223,0.265291,96,0.0128012,10,4.64851e-05,-3.57628,-0.611924,-0.0964172,0.175106,
2,1,0,1,0,63080.1,0.179582,0.179214,0.261772,96,0.0130213,10,4.69132e-05,-3.58208,-1.15445,-0.0511067,0.179099,
2,1,0,1,0,63080.9,0.183577,0.183288,0.258233,96,0.013239,10,4.7331e-05,-3.58799,-0.687222,-0.0858529,0.183174,
2,1,0,0,0,63081.7,0.187573,0.187241,0.256713,96,0.0134543,10,4.80673e-05,-3.59055,-1.13066,-0.0521818,0.187129,
2,1,0,1,0,63082.5,0.191568,0.191228,0.253677,96,0.0136681,10,4.85101e-05,-3.59572,-1.20799,-0.0488413,0.191116,
2,1,0,0,0,63083.3,0.195563,0.195201,0.253156,96,0.0138805,10,4.94163e-05,-3.59661,-0.700967,-0.0841694,0.19509,
2,1,0,1,0,63084.1,0.199559,0.199227,0.25187,96,0.0140912,10,5.01794e-05,-3.59882,4.21347,0.0140027,0.199117,
2,1,0,1,0,63084.9,0.203553,0.203225,0.249232,96,0.0143009,10,5.06501e-05,-3.6034,-1.66809,-0.0353698,0.203115,
2,1,0,1,0,63085.7,0.207548,0.207184,0.248493,96,0.0145095,10,5.14837e-05,-3.60469,-2.55829,-0.0230623,0.207075,
2,1,0,1,0,63086.5,0.211544,0.211243,0.247993,96,0.0147171,10,5.23867e-05,-3.60556,-1.18924,-0.0496115,0.211134,
2,1,0,0,0,63087.3,0.215539,0.215213,0.246276,96,0.0149236,10,5.30018e-05,-3.60858,-9.61938,-0.00613345,0.215105,
2,1,0,1,0,63088.1,0.219535,0.219211,0.246261,96,0.0151294,10,5.39831e-05,-3.6086,-2.80304,-0.0210486,0.219103,
2,1,0,1,0,63088.9,0.223529,0.223243,0.244636,96,0.0153345,10,5.46132e-05,-3.61148,-1.64067,-0.0359609,0.223135,
2,1,0,1,0,63089.7,0.227524,0.227172,0.244399,96,0.0155388,10,5.55205e-05,-3.6119,-1.25861,-0.0468772,0.227064,
2,1,0,1,0,63090.5,0.23152,0.231164,0.242647,96,0.0157422,10,5.60911e-05,-3.61503,6.85622,0.00860532,0.231057,
2,1,0,0,0,63091.3,0.235515,0.235144,0.24118,96,0.0159453,10,5.67122e-05,-3.61766,-1.51656,-0.0389039,0.235038,
2,1,0,1,0,63092.1,0.23951,0.239187,0.241641,96,0.0161475,10,5.77973e-05,-3.61683,2.59175,0.0227645,0.23908,
2,1,0,1,0,63092.9,0.243506,0.243162,0.240622,96,0.0163491,10,5.85103e-05,-3.61866,-4.4543,-0.0132456,0.243056,
2,1,0,1,0,63093.7,0.2475,0.247188,0.240002,96,0.0165504,10,5.93257e-05,-3.61979,-1.0144,-0.0581622,0.247083,
2,1,0,1,0,63094.5,0.251495,0.251139,0.238562,96,0.016751,10,5.99122e-05,-3.6224,-8.82098,-0.0066886,0.251034,
2,1,0,0,0,63095.3,0.255491,0.255136,0.238314,96,0.0169509,10,6.08025e-05,-3.62285,-1.87099,-0.0315341,0.255031,
2,1,0,1,0,63096.1,0.259486,0.259203,0.238183,96,0.0171504,10,6.17376e-05,-3.62309,-1.92805,-0.0306009,0.259098,
2,1,0,0,0,63096.9,0.263481,0.263127,0.236956,96,0.0173489,10,6.23497e-05,-3.62533,11.273,0.00523374,0.263023,
2,1,0,1,0,63097.7,0.267477,0.267117,0.235743,96,0.017547,10,6.29709e-05,-3.62756,-1.61739,-0.0364786,0.267013,
2,1,0,1,0,63098.5,0.271471,0.271151,0.235951,96,0.0177441,10,6.39783e-05,-3.62718,-2.71841,-0.0217039,0.271047,
2,1,0,1,0,63099.3,0.275466,0.275153,0.233969,96,0.0179403,10,6.43772e-05,-3.63084,-1.85414,-0.0318208,0.27505,
2,1,0,1,0,63100,0.279462,0.279127,0.23394,96,0.0181361,10,6.52988e-05,-3.6309,-5.76952,-0.0102262,0.279024,
2,1,0,0,0,63100.8,0.283457,0.28313,0.232887,96,0.018331,10,6.59372e-05,-3.63285,-1.44482,-0.0408356,0.283027,
2,1,0,1,0,63101.6,0.287452,0.287111,0.232529,96,0.0185253,10,6.67615e-05,-3.63352,-12.9817,-0.00454484,0.287008,
2,1,0,1,0,63102.4,0.291448,0.291059,0.231352,96,0.0187189,10,6.73369e-05,-3.63573,-1.17641,-0.0501526,0.290957,
2,1,0,1,0,63103.2,0.295442,0.295087,0.230798,96,0.0189116,10,6.81055e-05,-3.63677,2.61381,0.0225724,0.294985,
2,1,0,1,0,63104,0.299437,0.299097,0.229135,96,0.0191039,10,6.85336e-05,-3.63991,-1.33423,-0.0442202,0.298996,
2,1,0,0,0,63104.8,0.303433,0.303103,0.228382,96,0.0192953,10,6.92231e-05,-3.64134,-3.61171,-0.0163357,0.303002,
2,1,0,1,0,63105.6,0.307428,0.30707,0.227939,96,0.0194859,10,6.9993e-05,-3.64218,-5.15874,-0.0114369,0.306969,
2,1,0,1,0,63106.4,0.311424,0.311057,0.226435,96,0.019676,10,7.04343e-05,-3.64506,-1.65956,-0.0355516,0.310958,
2,1,0,1,0,63107.2,0.315418,0.315088,0.226493,96,0.0198653,10,7.13652e-05,-3.64495,-13.3156,-0.00443088,0.314989,
2,1,0,1,0,63108,0.319413,0.319054,0.225977,96,0.0200543,10,7.20989e-05,-3.64594,-1.7524,-0.0336681,0.318954,
2,1,0,0,0,63108.8,0.323409,0.323105,0.225548,96,0.0202428,10,7.28755e-05,-3.64676,-1.47379,-0.0400329,0.323006,
2,1,0,1,0,63109.6,0.327404,0.327099,0.224468,96,0.0204303,10,7.34233e-05,-3.64884,2.61808,0.0225356,0.327,
2,1,0,0,0,63110.4,0.331399,0.331096,0.222678,96,0.0206176,10,7.37278e-05,-3.65232,-3.06826,-0.0192291,0.330998,
2,1,0,1,0,63111.2,0.335395,0.335078,0.223931,96,0.0208044,10,7.50345e-05,-3.64989,-3.17185,-0.0186011,0.33498,
2,1,0,1,0,63112,0.339389,0.33907,0.223271,96,0.0209908,10,7.57048e-05,-3.65117,-14.958,-0.00394438,0.338972,
2,1,0,1,0,63112.8,0.343384,0.343065,0.222362,96,0.0211768,10,7.62845e-05,-3.65294,-8.26103,-0.00714196,0.342967,
2,1,0,1,0,63113.6,0.34738,0.347039,0.222859,96,0.0213622,10,7.73409e-05,-3.65197,-2.38566,-0.0247311,0.346941,
2,1,0,0,0,63114.4,0.351375,0.351019,0.220671,96,0.021547,10,7.74599e-05,-3.65625,-1.76968,-0.0333393,0.350922,
2,1,0,1,0,63115.2,0.35537,0.355003,0.220775,96,0.0217314,10,7.83757e-05,-3.65605,-1.4144,-0.0417137,0.354906,
2,1,0,1,0,63116,0.359366,0.359025,0.221002,96,0.0219154,10,7.9345e-05,-3.6556,1.80731,0.0326452,0.358927,
2,1,0,1,0,63116.8,0.36336,0.363024,0.220211,96,0.0220993,10,7.99418e-05,-3.65716,-3.49341,-0.016889,0.362927,
2,1,0,1,0,63117.6,0.367355,0.367037,0.219465,96,0.0222825,10,8.05516e-05,-3.65864,-3.84336,-0.0153512,0.366941,
2,1,0,0,0,63118.4,0.371351,0.371054,0.218444,96,0.0224653,10,8.10545e-05,-3.66066,2.4159,0.0244216,0.370958,
2,1,0,1,0,63119.2,0.375346,0.375045,0.218473,96,0.0226479,10,8.19372e-05,-3.6606,-0.905606,-0.0651497,0.374949,
2,1,0,1,0,63120,0.379342,0.379025,0.218657,96,0.02283,10,8.28763e-05,-3.66024,10.9288,0.00539856,0.378929,
2,1,0,1,0,63120.8,0.383336,0.382981,0.218373,96,0.0230119,10,8.36327e-05,-3.6608,-3.14176,-0.0187793,0.382885,
2,1,0,1,0,63121.6,0.387331,0.387001,0.217803,96,0.0231935,10,8.42899e-05,-3.66194,-1.4892,-0.0396187,0.386905,
2,1,0,0,0,63122.4,0.391327,0.390978,0.217142,96,0.0233748,10,8.48979e-05,-3.66326,669.384,8.81407e-05,0.390883,
2,1,0,1,0,63123.2,0.395322,0.394985,0.216868,96,0.0235559,10,8.56597e-05,-3.6638,1.4126,0.0417668,0.394889,
2,1,0,0,0,63124,0.399317,0.398975,0.217314,96,0.0237368,10,8.6703e-05,-3.66291,-11.9449,-0.00493933,0.398879,
2,1,0,1,0,63124.8,0.403313,0.402997,0.216984,96,0.0239174,10,8.7444e-05,-3.66357,-6.84202,-0.00862318,0.402901,
2,1,0,1,0,63125.6,0.407307,0.406989,0.217163,96,0.024098,10,8.83829e-05,-3.66321,-5.07504,-0.0116255,0.406893,
2,1,0,1,0,63126.4,0.411302,0.410985,0.21745,96,0.0242784,10,8.93686e-05,-3.66264,-3.81336,-0.0154719,0.410889,
2,1,0,1,0,63127.2,0.415298,0.414969,0.217102,96,0.0244587,10,9.00908e-05,-3.66334,-4.7087,-0.01253,0.414874,
2,1,0,0,0,63128,0.419293,0.418976,0.216372,96,0.0246384,10,9.06548e-05,-3.6648,-2.28589,-0.0258105,0.418881,
2,1,0,1,0,63128.8,0.423288,0.422975,0.216412,96,0.024818,10,9.15369e-05,-3.66472,3.03952,0.019411,0.42288,
2,1,0,1,0,63129.6,0.427283,0.426942,0.215769,96,0.0249975,10,9.21209e-05,-3.66601,-3.44047,-0.0171488,0.426848,
2,1,0,1,0,63130.4,0.431278,0.430929,0.216003,96,0.0251766,10,9.30819e-05,-3.66554,3.91904,0.0150547,0.430834,
2,1,0,1,0,63131.2,0.435273,0.434973,0.215506,96,0.0253557,10,9.37392e-05,-3.66654,22.6885,0.00260044,0.434879,
2,1,0,0,0,63132,0.439269,0.438932,0.215782,96,0.0255347,10,9.47136e-05,-3.66599,-6.70545,-0.00879882,0.438837,
2,1,0,1,0,63132.8,0.443264,0.442911,0.215908,96,0.0257136,10,9.56282e-05,-3.66573,-11.3641,-0.00519178,0.442816,
2,1,0,0,0,63133.6,0.447259,0.446885,0.215732,96,0.0258925,10,9.64073e-05,-3.66609,-7.11584,-0.00829137,0.44679,
2,1,0,1,0,63134.4,0.451254,0.450917,0.216047,96,0.0260715,10,9.74191e-05,-3.66545,-12.6871,-0.00465038,0.450822,
2,1,0,1,0,63135.2,0.455249,0.454964,0.215844,96,0.0262502,10,9.82013e-05,-3.66586,3.91012,0.0150891,0.454869,
2,1,0,1,0,63136,0.459244,0.458943,0.216112,96,0.0264292,10,9.91828e-05,-3.66532,2.34935,0.0251134,0.458848,
2,1,0,1,0,63136.8,0.46324,0.462913,0.216559,96,0.0266085,10,0.000100248,-3.66442,3.8358,0.0153814,0.462818,
2,1,0,0,0,63137.6,0.467235,0.466897,0.216898,96,0.026788,10,0.000101269,-3.66374,3.45601,0.0170717,0.466802,
2,1,0,1,0,63138.4,0.471231,0.470878,0.216979,96,0.0269677,10,0.000102171,-3.66358,7.26947,0.00811613,0.470782,
2,1,0,1,0,63139.2,0.475225,0.474919,0.218029,96,0.0271476,10,0.000103546,-3.66149,14.0981,0.00418496,0.474823,
2,1,0,1,0,63140,0.47922,0.478911,0.21807,96,0.0273277,10,0.000104436,-3.6614,3.34532,0.0176366,0.478815,
2,1,0,1,0,63140.8,0.483216,0.482879,0.218481,96,0.0275085,10,0.0001055,-3.66059,-3.08127,-0.019148,0.482782,
2,1,0,0,0,63141.6,0.487211,0.486895,0.21803,96,0.0276893,10,0.000106158,-3.66148,1.42855,0.0413007,0.486799,
2,1,0,1,0,63142.4,0.491206,0.490887,0.218519,96,0.0278705,10,0.000107268,-3.66051,9.55255,0.00617636,0.490791,
2,1,0,1,0,63143.2,0.495201,0.494902,0.219993,96,0.028052,10,0.000108875,-3.65759,1.44754,0.0407587,0.494805,
2,1,0,1,0,63144,0.499196,0.498876,0.221032,96,0.0282342,10,0.000110268,-3.65554,2.39686,0.0246156,0.498779,
2,1,0,1,0,63144.8,0.503191,0.502888,0.221859,96,0.0284172,10,0.00011157,-3.65392,5.72286,0.0103095,0.502791,
2,1,0,0,0,63145.6,0.507187,0.506853,0.222294,96,0.0286003,10,0.00011267,-3.65307,2.47308,0.0238569,0.506755,
2,1,0,1,0,63146.4,0.511182,0.510787,0.223174,96,0.0287841,10,0.000113995,-3.65136,2.52897,0.0233296,0.510689,
2,1,0,0,0,63147.2,0.515177,0.514907,0.224072,96,0.0289686,10,0.000115376,-3.64961,28.6499,0.00205935,0.514808,
2,1,0,1,0,63148,0.519173,0.518815,0.2243,96,0.0291536,10,0.00011637,-3.64917,0.968057,0.0609468,0.518716,
2,1,0,1,0,63148.8,0.523167,0.522859,0.2258,96,0.0293396,10,0.000118061,-3.64628,5.14722,0.0114625,0.52276,
2,1,0,1,0,63149.6,0.527162,0.526834,0.227475,96,0.0295263,10,0.000119842,-3.64307,2.44974,0.0240842,0.526734,
2,1,0,1,0,63150.4,0.531158,0.530859,0.228744,96,0.029714,10,0.000121431,-3.64065,1.11765,0.0527896,0.530758,
2,1,0,0,0,63151.2,0.535153,0.534813,0.230344,96,0.029903,10,0.000123191,-3.63762,0.971922,0.0607045,0.534712,
2,1,0,1,0,63152,0.539148,0.538843,0.23109,96,0.0300932,10,0.000124521,-3.63622,1.34181,0.0439703,0.538741,
2,1,0,1,0,63152.8,0.543143,0.542793,0.23355,96,0.0302847,10,0.000126769,-3.63162,3.50485,0.0168338,0.54269,
2,1,0,1,0,63153.6,0.547138,0.546802,0.235535,96,0.0304773,10,0.000128791,-3.62795,1.23807,0.0476548,0.546698,
2,1,0,1,0,63154.4,0.551133,0.55079,0.236596,96,0.0306715,10,0.000130315,-3.62599,0.681433,0.0865822,0.550685,
2,1,0,0,0,63155.2,0.555129,0.554783,0.239029,96,0.0308674,10,0.000132609,-3.62155,0.883829,0.066755,0.554677,
2,1,0,1,0,63156,0.559124,0.558804,0.24136,96,0.031065,10,0.000134873,-3.61733,1.19225,0.0494863,0.558697,
2,1,0,1,0,63156.8,0.56312,0.562806,0.243837,96,0.0312644,10,0.000137233,-3.6129,0.882052,0.0668895,0.562699,
2,1,0,1,0,63157.6,0.567114,0.566806,0.246208,96,0.0314657,10,0.000139552,-3.6087,0.996535,0.0592051,0.566698,
2,1,0,1,0,63158.4,0.571109,0.570809,0.24973,96,0.0316689,10,0.000142548,-3.60253,0.902096,0.0654033,0.5707,
2,1,0,0,0,63159.2,0.575105,0.574779,0.252274,96,0.0318746,10,0.000145002,-3.59813,0.591435,0.0997573,0.574668,
2,1,0,1,0,63160,0.5791,0.578766,0.255473,96,0.0320831,10,0.000147859,-3.59265,0.902715,0.0653584,0.578653,
2,1,0,0,0,63160.8,0.583095,0.582772,0.259588,96,0.0322943,10,0.000151281,-3.58571,0.450657,0.13092,0.582658,
2,1,0,1,0,63161.6,0.58709,0.586774,0.263566,96,0.0325088,10,0.000154654,-3.57911,0.645389,0.0914178,0.586658,
2,1,0,1,0,63162.4,0.591085,0.590747,0.268564,96,0.0327268,10,0.000158653,-3.57095,0.475408,0.124104,0.590629,
2,1,0,1,0,63163.2,0.59508,0.594747,0.273969,96,0.0329488,10,0.000162942,-3.5623,0.387745,0.152162,0.594626,
2,1,0,1,0,63164,0.599076,0.598747,0.280008,96,0.0331755,10,0.000167654,-3.55283,0.490947,0.120176,0.598624,
2,1,0,0,0,63164.8,0.603071,0.602796,0.286545,96,0.0334069,10,0.000172728,-3.54281,0.354361,0.166497,0.60267,
2,1,0,1,0,63165.6,0.607066,0.606779,0.29423,96,0.033644,10,0.000178533,-3.53131,0.320914,0.18385,0.606649,
2,1,0,1,0,63166.4,0.611061,0.610731,0.302648,96,0.0338877,10,0.000184837,-3.51906,0.327582,0.180108,0.610598,
2,1,0,1,0,63167.2,0.615056,0.614731,0.31163,96,0.0341381,10,0.000191569,-3.50636,0.273483,0.215735,0.614593,
2,1,0,1,0,63168,0.619051,0.618719,0.321974,96,0.0343967,10,0.000199211,-3.49218,0.273569,0.215668,0.618578,
2,1,0,0,0,63168.8,0.623047,0.622698,0.334174,96,0.034664,10,0.000208089,-3.47603,0.237018,0.248926,0.622551,
2,1,0,1,0,63169.6,0.627042,0.626716,0.348063,96,0.0349415,10,0.000218137,-3.45834,0.209236,0.281978,0.626563,
2,1,0,1,0,63170.4,0.631037,0.630764,0.364618,96,0.0352313,10,0.000229988,-3.43816,0.207641,0.284144,0.630603,
2,1,0,1,0,63171.2,0.635032,0.634716,0.383159,96,0.0355347,10,0.000243197,-3.41662,0.171089,0.344849,0.634548,
2,1,0,1,0,63172,0.639027,0.638724,0.4042,96,0.0358545,10,0.000258172,-3.3934,0.15398,0.383167,0.638546,
2,1,0,1,0,63172.8,0.643022,0.642744,0.4301,96,0.036193,10,0.000276444,-3.36643,0.154204,0.382609,0.642555,
2,1,0,1,0,63173.6,0.647018,0.64673,0.458531,96,0.0365529,10,0.000296546,-3.33863,0.132832,0.444171,0.646529,
2,1,0,0,0,63174.4,0.651013,0.650723,0.492557,96,0.0369378,10,0.000320518,-3.30754,0.121156,0.486977,0.650506,
2,1,0,1,0,63175.2,0.655008,0.654677,0.531877,96,0.0373522,10,0.000348208,-3.27419,0.116607,0.505973,0.654443,
2,1,0,1,0,63176,0.659003,0.658676,0.57637,96,0.0377998,10,0.000379641,-3.2393,0.110814,0.532425,0.658422,
2,1,0,1,0,63176.8,0.662998,0.662699,0.630288,96,0.0382862,10,0.000417691,-3.20046,0.0997275,0.591612,0.662421,
2,1,0,1,0,63177.6,0.666994,0.666723,0.690683,96,0.0388183,10,0.000460494,-3.16072,0.0968498,0.609191,0.666419,
2,1,0,0,0,63178.4,0.670989,0.67074,0.75908,96,0.0394022,10,0.000509145,-3.11971,0.0926187,0.63702,0.670406,
2,1,0,1,0,63179.2,0.674984,0.674729,0.83915,96,0.0400458,10,0.000566199,-3.07616,0.0925575,0.637442,0.67436,
2,1,0,1,0,63180,0.67898,0.678686,0.929514,96,0.0407569,10,0.000630849,-3.03174,0.0879233,0.671039,0.678277,
2,1,0,1,0,63180.8,0.682974,0.682696,1.0314,96,0.0415448,10,0.00070413,-2.98657,0.0871541,0.676962,0.682243,
2,1,0,1,0,63181.6,0.686969,0.686664,1.14548,96,0.0424183,10,0.00078656,-2.94101,0.0869536,0.678523,0.68616,
2,1,0,0,0,63182.4,0.690965,0.690665,1.27219,96,0.0433881,10,0.00087866,-2.89545,0.0850986,0.693313,0.690105,
2,1,0,1,0,63183.1,0.69496,0.694686,1.41342,96,0.044465,10,0.00098188,-2.84973,0.0864778,0.682256,0.694064,
2,1,0,0,0,63183.9,0.698955,0.698648,1.56646,96,0.0456596,10,0.0010944,-2.80508,0.0877207,0.672589,0.697959,
2,1,0,1,0,63184.7,0.70295,0.702598,1.73627,96,0.0469833,10,0.0012199,-2.76038,0.0886071,0.66586,0.701834,
2,1,0,1,0,63185.5,0.706945,0.706672,1.92075,96,0.0484483,10,0.00135734,-2.71653,0.0914058,0.645473,0.705827,
2,1,0,1,0,63186.3,0.71094,0.710648,2.11797,96,0.0500656,10,0.00150513,-2.67408,0.0917819,0.642828,0.709716,
2,1,0,1,0,63187.1,0.714936,0.71466,2.33149,96,0.0518479,10,0.00166622,-2.63237,0.0943593,0.625269,0.713634,
2,1,0,0,0,63187.9,0.718931,0.718659,2.559,96,0.0538062,10,0.00183905,-2.59193,0.0993331,0.593961,0.717533,
2,1,0,1,0,63188.7,0.722927,0.722588,2.80346,96,0.0559533,10,0.00202575,-2.55231,0.0997057,0.591741,0.721354,
2,1,0,1,0,63189.5,0.726921,0.726619,3.06145,96,0.058301,10,0.00222451,-2.51407,0.101503,0.581265,0.725272,
2,1,0,1,0,63190.3,0.730916,0.730608,3.33724,96,0.0608616,10,0.00243821,-2.47661,0.105045,0.561662,0.729139,
2,1,0,1,0,63191.1,0.734911,0.734587,3.62807,96,0.0636489,10,0.00266513,-2.44032,0.107169,0.550531,0.73299,
2,1,0,0,0,63191.9,0.738907,0.738612,3.9371,96,0.0666761,10,0.00290799,-2.40482,0.109961,0.536552,0.736879,
2,1,0,1,0,63192.7,0.742902,0.742603,4.26194,96,0.0699561,10,0.00316493,-2.37039,0.111779,0.527825,0.740728,
2,1,0,1,0,63193.5,0.746897,0.746591,4.60608,96,0.073504,10,0.00343886,-2.33667,0.116253,0.507516,0.744565,
2,1,0,1,0,63194.3,0.750892,0.750613,4.96895,96,0.0773338,10,0.00372976,-2.30374,0.118108,0.499544,0.748427,
2,1,0,1,0,63195.1,0.754887,0.754576,5.35365,96,0.0814623,10,0.00403973,-2.27135,0.119315,0.494491,0.75222,
2,1,0,0,0,63195.9,0.758883,0.758597,5.75889,96,0.0859064,10,0.00436867,-2.23966,0.121857,0.484175,0.756063,
2,1,0,1,0,63196.7,0.762878,0.762593,6.18508,96,0.0906813,10,0.0047167,-2.20865,0.123881,0.476264,0.759871,
2,1,0,0,0,63197.5,0.766873,0.766631,6.6346,96,0.0958068,10,0.00508629,-2.17819,0.126007,0.46823,0.763711,
2,1,0,1,0,63198.3,0.770868,0.77056,7.11032,96,0.101303,10,0.00547893,-2.14811,0.126587,0.466082,0.767431,
2,1,0,1,0,63199.1,0.774863,0.774583,7.61131,96,0.107188,10,0.00589559,-2.11854,0.127468,0.462861,0.771234,
2,1,0,1,0,63199.9,0.778858,0.77856,8.13998,96,0.113485,10,0.00633746,-2.08938,0.128912,0.457675,0.774978,
2,1,0,1,0,63200.7,0.782854,0.782589,8.6997,96,0.120216,10,0.00680829,-2.0605,0.131938,0.447181,0.778761,
2,1,0,0,0,63201.5,0.786849,0.786565,9.29041,96,0.127407,10,0.00730751,-2.03197,0.130906,0.450704,0.782477,
2,1,0,1,0,63202.3,0.790844,0.790593,9.91553,96,0.135084,10,0.00783914,-2.00368,0.130986,0.450431,0.78623,
2,1,0,1,0,63203.1,0.794839,0.794541,10.5807,96,0.143277,10,0.00840681,-1.97548,0.133916,0.440574,0.789885,
2,1,0,1,0,63203.9,0.798834,0.79854,11.2875,96,0.152017,10,0.00901349,-1.9474,0.129066,0.457129,0.793574,
2,1,0,1,0,63204.7,0.802829,0.802546,12.041,96,0.161339,10,0.00966346,-1.91934,0.131432,0.448901,0.797248,
2,1,0,0,0,63205.5,0.806825,0.806507,12.8354,96,0.171282,10,0.0103518,-1.89159,0.128828,0.457976,0.80086,
2,1,0,1,0,63206.3,0.81082,0.810542,13.6836,96,0.181881,10,0.0110912,-1.8638,0.131149,0.449869,0.804521,
2,1,0,1,0,63207.1,0.814815,0.814499,14.5858,96,0.19318,10,0.0118801,-1.83607,0.129909,0.454166,0.808081,
2,1,0,1,0,63207.9,0.81881,0.818453,15.5279,96,0.205215,10,0.0127088,-1.80889,0.131563,0.448454,0.81162,
2,1,0,1,0,63208.7,0.822805,0.822514,16.5341,96,0.21803,10,0.0135996,-1.78162,0.135457,0.435564,0.815239,
2,1,0,0,0,63209.5,0.826801,0.826532,17.5625,96,0.231655,10,0.0145159,-1.75541,0.132472,0.445378,0.818804,
2,1,0,1,0,63210.3,0.830796,0.830536,18.6355,96,0.246126,10,0.0154775,-1.72966,0.13978,0.422091,0.822336,
2,1,0,0,0,63211.1,0.834791,0.834515,19.7417,96,0.261465,10,0.0164747,-1.70462,0.140549,0.419782,0.825828,
2,1,0,1,0,63211.9,0.838786,0.838503,20.8698,96,0.277699,10,0.0174994,-1.68048,0.14711,0.401061,0.829321,
2,1,0,1,0,63212.7,0.842781,0.842521,22.0013,96,0.294841,10,0.0185366,-1.65755,0.156988,0.375826,0.83284,
2,1,0,1,0,63213.5,0.846776,0.846512,23.1812,96,0.312901,10,0.0196232,-1.63486,0.15418,0.38267,0.836312,
2,1,0,0,0,63214.2,0.849723,0.849429,23.9811,96,0.32948,10,0.0203702,-1.62013,0.0498761,1.18293,0.838878,
2,1,0,1,0,63215,0.845728,0.845424,22.2024,96,0.347883,10,0.0187704,-1.6536,0.108154,0.54552,0.835655,
2,1,0,0,0,63215.8,0.841732,0.841471,20.7664,96,0.365028,10,0.0174743,-1.68264,0.11951,0.493683,0.832334,
2,1,0,1,0,63216.6,0.837737,0.837481,19.4465,96,0.381083,10,0.0162861,-1.71116,0.119348,0.494351,0.828924,
2,1,0,1,0,63217.4,0.833742,0.833493,18.2071,96,0.396114,10,0.0151755,-1.73976,0.119098,0.495392,0.825481,
2,1,0,1,0,63218.2,0.829747,0.829455,17.0275,96,0.410174,10,0.0141235,-1.76885,0.12134,0.486236,0.821963,
2,1,0,1,0,63219,0.825752,0.825491,15.9444,96,0.423331,10,0.013162,-1.79739,0.123676,0.477051,0.818475,
2,1,0,0,0,63219.8,0.821757,0.82148,14.9093,96,0.435647,10,0.0122477,-1.82654,0.120124,0.49116,0.81492,
2,1,0,1,0,63220.6,0.817761,0.817498,13.9373,96,0.447158,10,0.0113937,-1.85582,0.125434,0.470368,0.811366,
2,1,0,1,0,63221.4,0.813766,0.81345,13.0215,96,0.457919,10,0.0105923,-1.88534,0.123511,0.477692,0.80772,
2,1,0,1,0,63222.2,0.809771,0.809483,12.181,96,0.467977,10,0.00986031,-1.91432,0.120733,0.488682,0.804123,
2,1,0,1,0,63223,0.805776,0.80546,11.3549,96,0.47737,10,0.00914594,-1.94482,0.119108,0.495349,0.800464,
2,1,0,0,0,63223.8,0.801781,0.801477,10.584,96,0.486127,10,0.00848286,-1.97535,0.118404,0.498296,0.79682,
2,1,0,1,0,63224.6,0.797786,0.797537,9.85741,96,0.494283,10,0.00786165,-2.00624,0.119395,0.494156,0.7932,
2,1,0,1,0,63225.4,0.79379,0.793458,9.17115,96,0.501877,10,0.00727692,-2.03758,0.118432,0.498176,0.789422,
2,1,0,1,0,63226.2,0.789795,0.789489,8.52905,96,0.508939,10,0.00673359,-2.0691,0.118113,0.49952,0.785736,
2,1,0,1,0,63227,0.7858,0.785491,7.92812,96,0.515505,10,0.00622747,-2.10083,0.117224,0.503308,0.782003,
2,1,0,0,0,63227.8,0.781805,0.781537,7.36203,96,0.521607,10,0.00575369,-2.133,0.11471,0.514342,0.778297,
2,1,0,1,0,63228.6,0.77781,0.777522,6.83096,96,0.527268,10,0.00531122,-2.16552,0.115587,0.510436,0.774516,
2,1,0,0,0,63229.4,0.773814,0.773502,6.33392,96,0.53252,10,0.0048993,-2.19833,0.114144,0.516889,0.770715,
2,1,0,1,0,63230.2,0.769819,0.769489,5.86952,96,0.537387,10,0.00451653,-2.2314,0.114775,0.514049,0.766907,
2,1,0,1,0,63231,0.765824,0.765514,5.43178,96,0.541893,10,0.00415811,-2.26506,0.112542,0.52425,0.763124,
2,1,0,1,0,63231.8,0.761829,0.761541,5.01903,96,0.546061,10,0.0038222,-2.29938,0.110279,0.535005,0.759333,
2,1,0,1,0,63232.6,0.757834,0.75755,4.6313,96,0.549909,10,0.00350844,-2.3343,0.10885,0.542032,0.755513,
2,1,0,0,0,63233.4,0.753839,0.753572,4.26711,96,0.553458,10,0.00321557,-2.36987,0.105362,0.559972,0.751694,
2,1,0,1,0,63234.2,0.749844,0.749542,3.9264,96,0.556724,10,0.002943,-2.40601,0.106865,0.552097,0.747815,
2,1,0,1,0,63235,0.745848,0.745536,3.60481,96,0.559727,10,0.00268751,-2.44312,0.103061,0.572474,0.743949,
2,1,0,1,0,63235.8,0.741853,0.741527,3.30148,96,0.562479,10,0.00244814,-2.48129,0.0997735,0.59134,0.740074,
2,1,0,1,0,63236.6,0.737858,0.73761,3.01796,96,0.564997,10,0.00222608,-2.52029,0.0981094,0.601369,0.736282,
2,1,0,0,0,63237.4,0.733863,0.733554,2.75238,96,0.567296,10,0.00201902,-2.56029,0.0942067,0.626282,0.732343,
2,1,0,1,0,63238.2,0.729868,0.729585,2.49938,96,0.569387,10,0.00182351,-2.60217,0.0922615,0.639487,0.728486,
2,1,0,1,0,63239,0.725872,0.725553,2.26341,96,0.571284,10,0.00164222,-2.64524,0.0874644,0.67456,0.724557,
2,1,0,1,0,63239.8,0.721877,0.721574,2.04085,96,0.572997,10,0.00147262,-2.69019,0.0865584,0.681621,0.720676,
2,1,0,1,0,63240.6,0.717882,0.717577,1.83331,96,0.574539,10,0.00131555,-2.73676,0.0815344,0.723621,0.716771,
2,1,0,0,0,63241.4,0.713887,0.713642,1.6392,96,0.57592,10,0.0011698,-2.78537,0.0788301,0.748445,0.712921,
2,1,0,1,0,63242.2,0.709892,0.709586,1.45934,96,0.577151,10,0.00103553,-2.83584,0.075467,0.781799,0.708944,
2,1,0,0,0,63243,0.705897,0.7056,1.2924,96,0.578244,10,0.000911918,-2.8886,0.0727692,0.810783,0.705031,
2,1,0,1,0,63243.8,0.701901,0.701592,1.1375,96,0.579208,10,0.00079806,-2.94405,0.0692811,0.851603,0.701092,
2,1,0,1,0,63244.6,0.697906,0.697582,0.99426,96,0.580054,10,0.000693578,-3.0025,0.0672841,0.876879,0.697145,
2,1,0,1,0,63245.4,0.693911,0.693625,0.863878,96,0.58079,10,0.000599208,-3.06355,0.0615357,0.958793,0.693245,
2,1,0,1,0,63246.2,0.689916,0.689645,0.744514,96,0.581427,10,0.000513451,-3.12813,0.0596423,0.98923,0.689318,
2,1,0,0,0,63247,0.685921,0.685613,0.63537,96,0.581972,10,0.000435618,-3.19697,0.0560228,1.05314,0.685334,
2,1,0,1,0,63247.8,0.681926,0.681621,0.538548,96,0.582435,10,0.000367086,-3.26878,0.0528571,1.11622,0.681384,
2,1,0,1,0,63248.6,0.67793,0.677625,0.450771,96,0.582824,10,0.000305454,-3.34604,0.0503008,1.17294,0.677427,
2,1,0,1,0,63249.4,0.673935,0.673651,0.372599,96,0.583147,10,0.000251002,-3.42876,0.0459135,1.28503,0.673487,
2,1,0,1,0,63250.2,0.66994,0.669642,0.304325,96,0.583411,10,0.000203789,-3.51666,0.0427995,1.37852,0.669508,
2,1,0,0,0,63251,0.665945,0.665624,0.243055,96,0.583624,10,0.000161783,-3.6143,0.0395107,1.49327,0.665517,
2,1,0,1,0,63251.8,0.66195,0.661629,0.190024,96,0.583791,10,0.000125725,-3.72119,0.0348056,1.69513,0.661546,
2,1,0,0,0,63252.6,0.657955,0.657646,0.143163,96,0.583918,10,9.41509e-05,-3.84417,0.0306139,1.92723,0.657583,
2,1,0,1,0,63253.4,0.653959,0.653673,0.103002,96,0.584011,10,6.73299e-05,-3.98715,0.0255346,2.31059,0.653627,
2,1,0,1,0,63254.2,0.649964,0.64965,0.0690465,96,0.584075,10,4.4856e-05,-4.16086,0.0198918,2.96604,0.64962,
2,1,0,1,0,63255,0.64597,0.645643,0.0407721,96,0.584112,10,2.63242e-05,-4.38964,0.0135387,4.35787,0.645625,
2,1,0,1,0,63255.8,0.641974,0.641686,0.0150564,96,0.584129,10,9.66146e-06,-4.82228,0.00527705,11.1805,0.641679,
2,0,0,0,0,63256.6,0.637979,0.637653,-0.0051185,96,0.584127,10,-3.26383e-06,-5.29086,-0.0086432,-6.82618,0.637656,
2,0,0,1,0,63257.4,0.633983,0.633644,-0.0229839,96,0.58411,10,-1.45636e-05,-4.63858,-0.0125045,-4.71828,0.633654,
2,0,0,1,0,63258.2,0.629988,0.629709,-0.0375412,96,0.58408,10,-2.364e-05,-4.42549,-0.0231268,-2.55116,0.629725,
2,0,0,1,0,63259,0.625993,0.625682,-0.0491814,96,0.58404,10,-3.07719e-05,-4.3082,-0.0416604,-1.41621,0.625703,
2,0,0,1,0,63259.8,0.621998,0.621682,-0.0595537,96,0.583991,10,-3.70234e-05,-4.22509,-0.0600095,-0.983178,0.621708,
2,0,0,0,0,63260.6,0.618003,0.617653,-0.0682476,96,0.583934,10,-4.21533e-05,-4.16591,-0.0728578,-0.809796,0.617683,
2,0,0,1,0,63261.4,0.614008,0.613692,-0.0764144,96,0.58387,10,-4.6895e-05,-4.11682,-0.116896,-0.504721,0.613726,
2,0,0,1,0,63262.2,0.610012,0.609678,-0.0829262,96,0.583801,10,-5.05583e-05,-4.08131,-0.112248,-0.525624,0.609715,
2,0,0,1,0,63263,0.606017,0.605722,-0.0874251,96,0.583727,10,-5.29553e-05,-4.05836,-0.178451,-0.330623,0.605761,
2,0,0,1,0,63263.8,0.602022,0.601745,-0.0923835,96,0.583649,10,-5.55913e-05,-4.03441,-0.202847,-0.290859,0.601786,
2,0,0,0,0,63264.6,0.598027,0.597734,-0.0962227,96,0.583567,10,-5.75156e-05,-4.01672,-0.249612,-0.236366,0.597777,
2,0,0,1,0,63265.4,0.594032,0.59372,-0.100229,96,0.583483,10,-5.95078e-05,-3.99901,-0.257007,-0.229566,0.593764,
2,0,0,0,0,63266.1,0.590037,0.589716,-0.102473,96,0.583397,10,-6.04297e-05,-3.98939,-0.412016,-0.143198,0.589761,
2,0,0,1,0,63266.9,0.586041,0.585752,-0.105286,96,0.583308,10,-6.16715e-05,-3.97763,-0.439779,-0.134158,0.585798,
2,0,0,1,0,63267.7,0.582046,0.581676,-0.107272,96,0.583217,10,-6.23978e-05,-3.96951,-0.621295,-0.0949629,0.581723,
2,0,0,1,0,63268.5,0.578052,0.57774,-0.108536,96,0.583125,10,-6.27055e-05,-3.96443,-0.418595,-0.140948,0.577788,
2,0,0,1,0,63269.3,0.574056,0.573746,-0.109753,96,0.583032,10,-6.29704e-05,-3.95958,-0.648321,-0.0910043,0.573794,
2,0,0,0,0,63270.1,0.570061,0.569734,-0.111281,96,0.582937,10,-6.34008e-05,-3.95358,-6.02682,-0.00978958,0.569783,
2,0,0,1,0,63270.9,0.566065,0.565696,-0.113355,96,0.582841,10,-6.41246e-05,-3.94556,-0.366612,-0.160933,0.565746,
2,0,0,1,0,63271.7,0.56207,0.561715,-0.115051,96,0.582744,10,-6.46261e-05,-3.93911,-1.56452,-0.0377113,0.561766,
2,0,0,1,0,63272.5,0.558075,0.557758,-0.115804,96,0.582646,10,-6.45908e-05,-3.93628,-0.966495,-0.0610453,0.557809,
2,0,0,1,0,63273.3,0.55408,0.553808,-0.116578,96,0.582547,10,-6.45617e-05,-3.93338,-0.855673,-0.0689515,0.553859,
2,0,0,0,0,63274.1,0.550085,0.549774,-0.117879,96,0.582447,10,-6.48067e-05,-3.92856,-1.63235,-0.0361441,0.549826,
2,0,0,1,0,63274.9,0.54609,0.545767,-0.118382,96,0.582347,10,-6.46091e-05,-3.92671,-1.51411,-0.0389668,0.545819,
2,0,0,1,0,63275.7,0.542094,0.541766,-0.119731,96,0.582246,10,-6.48663e-05,-3.92179,-0.700383,-0.0842397,0.541818,
2,0,0,1,0,63276.5,0.538099,0.537775,-0.120684,96,0.582144,10,-6.49011e-05,-3.91835,7.89037,0.00747747,0.537828,
2,0,0,1,0,63277.3,0.534104,0.533787,-0.121426,96,0.582041,10,-6.48155e-05,-3.91569,-0.688491,-0.0856946,0.53384,
2,0,0,0,0,63278.1,0.530109,0.529792,-0.122291,96,0.581937,10,-6.47889e-05,-3.9126,-1.84943,-0.0319017,0.529846,
2,0,0,1,0,63278.9,0.526114,0.525775,-0.12332,96,0.581833,10,-6.48388e-05,-3.90897,-0.879833,-0.0670582,0.525829,
2,0,0,0,0,63279.7,0.522119,0.52181,-0.124143,96,0.581728,10,-6.47793e-05,-3.90608,-2.06479,-0.0285743,0.521865,
2,0,0,1,0,63280.5,0.518123,0.517815,-0.124991,96,0.581622,10,-6.47221e-05,-3.90312,-1.54537,-0.0381785,0.51787,
2,0,0,1,0,63281.3,0.514128,0.513804,-0.125884,96,0.581515,10,-6.468e-05,-3.90003,-1.50614,-0.039173,0.51386,
2,0,0,1,0,63282.1,0.510133,0.509776,-0.126022,96,0.581408,10,-6.42431e-05,-3.89955,-1.24172,-0.0475148,0.509832,
2,0,0,1,0,63282.9,0.506138,0.505768,-0.128207,96,0.5813,10,-6.4843e-05,-3.89209,-0.98001,-0.0602035,0.505825,
2,0,0,0,0,63283.7,0.502143,0.501812,-0.129048,96,0.581191,10,-6.47576e-05,-3.88925,-1.0646,-0.0554201,0.501869,
2,0,0,1,0,63284.5,0.498148,0.49782,-0.130489,96,0.581081,10,-6.49602e-05,-3.88442,-1.1049,-0.0533987,0.497877,
2,0,0,1,0,63285.3,0.494152,0.493833,-0.131823,96,0.580971,10,-6.50988e-05,-3.88001,-0.83429,-0.0707188,0.493891,
2,0,0,1,0,63286.1,0.490157,0.489861,-0.132424,96,0.580859,10,-6.48695e-05,-3.87803,-0.699726,-0.0843187,0.48992,
2,0,0,1,0,63286.9,0.486162,0.485811,-0.133711,96,0.580746,10,-6.49581e-05,-3.87383,-2.3454,-0.0251557,0.48587,
2,0,0,0,0,63287.7,0.482167,0.481822,-0.135184,96,0.580633,10,-6.51347e-05,-3.86907,-1.26487,-0.0466451,0.481882,
2,0,0,1,0,63288.5,0.478172,0.477826,-0.135247,96,0.580518,10,-6.46247e-05,-3.86887,-1.13623,-0.0519261,0.477885,
2,0,0,0,0,63289.3,0.474177,0.473897,-0.137113,96,0.580403,10,-6.49776e-05,-3.86292,-1.40736,-0.0419224,0.473957,
2,0,0,1,0,63290.1,0.470181,0.469875,-0.138537,96,0.580286,10,-6.5095e-05,-3.85843,-0.712451,-0.0828128,0.469936,
2,0,0,1,0,63290.9,0.466186,0.465866,-0.139679,96,0.580169,10,-6.50717e-05,-3.85487,-0.872107,-0.0676522,0.465928,
2,0,0,1,0,63291.7,0.462191,0.461833,-0.140874,96,0.58005,10,-6.50601e-05,-3.85117,-1.47789,-0.0399218,0.461895,
2,0,0,1,0,63292.5,0.458196,0.457869,-0.142102,96,0.57993,10,-6.50643e-05,-3.8474,-0.626882,-0.0941167,0.457931,
2,0,0,0,0,63293.3,0.454201,0.453905,-0.143444,96,0.579809,10,-6.51098e-05,-3.84332,-1.24989,-0.0472042,0.453968,
2,0,0,1,0,63294.1,0.450205,0.449893,-0.145295,96,0.579687,10,-6.53671e-05,-3.83775,-0.769909,-0.0766324,0.449957,
2,0,0,1,0,63294.9,0.44621,0.445911,-0.146709,96,0.579563,10,-6.54191e-05,-3.83354,-1.0622,-0.0555453,0.445975,
2,0,0,1,0,63295.7,0.442215,0.441902,-0.148646,96,0.579438,10,-6.56871e-05,-3.82785,-0.880908,-0.0669763,0.441967,
2,0,0,1,0,63296.5,0.43822,0.437861,-0.150072,96,0.579312,10,-6.57107e-05,-3.8237,-0.668343,-0.088278,0.437927,
2,0,0,0,0,63297.3,0.434225,0.433931,-0.151634,96,0.579184,10,-6.57988e-05,-3.8192,-0.834315,-0.0707167,0.433998,
2,0,0,1,0,63298.1,0.43023,0.429873,-0.153204,96,0.579055,10,-6.58581e-05,-3.81473,-0.97425,-0.0605594,0.42994,
2,0,0,1,0,63298.9,0.426234,0.425887,-0.154832,96,0.578925,10,-6.59408e-05,-3.81014,-0.831758,-0.0709341,0.425955,
2,0,0,1,0,63299.7,0.422239,0.421913,-0.156018,96,0.578794,10,-6.58259e-05,-3.80683,-0.886833,-0.0665289,0.421981,
2,0,0,1,0,63300.5,0.418244,0.417938,-0.158481,96,0.578661,10,-6.62355e-05,-3.80002,-0.665404,-0.0886679,0.418008,
2,0,0,0,0,63301.3,0.414249,0.413904,-0.159823,96,0.578526,10,-6.61514e-05,-3.79636,-0.845753,-0.0697603,0.413975,
2,0,0,1,0,63302.1,0.410254,0.409917,-0.161451,96,0.57839,10,-6.61817e-05,-3.79196,-12.396,-0.00475962,0.409988,
2,0,0,0,0,63302.9,0.406259,0.405942,-0.163463,96,0.578253,10,-6.63567e-05,-3.78658,-0.657067,-0.089793,0.406014,
2,0,0,1,0,63303.7,0.402263,0.401885,-0.165266,96,0.578114,10,-6.64177e-05,-3.78182,-0.572386,-0.103077,0.401957,
2,0,0,1,0,63304.5,0.398268,0.397921,-0.167047,96,0.577974,10,-6.64716e-05,-3.77716,-0.999544,-0.0590269,0.397995,
2,0,0,1,0,63305.3,0.394274,0.393925,-0.16891,96,0.577832,10,-6.65379e-05,-3.77234,-0.970542,-0.0607908,0.393999,
2,0,0,1,0,63306.1,0.390278,0.389956,-0.170721,96,0.577689,10,-6.65737e-05,-3.76771,-0.884322,-0.0667178,0.390031,
2,0,0,0,0,63306.9,0.386283,0.385897,-0.173375,96,0.577544,10,-6.69051e-05,-3.76101,-0.552265,-0.106833,0.385973,
2,0,0,1,0,63307.7,0.382287,0.381964,-0.174681,96,0.577397,10,-6.67218e-05,-3.75775,-0.855367,-0.0689763,0.38204,
2,0,0,1,0,63308.5,0.378292,0.377987,-0.177065,96,0.577248,10,-6.69282e-05,-3.75187,-1.041,-0.0566764,0.378065,
2,0,0,1,0,63309.3,0.374297,0.373954,-0.179525,96,0.577098,10,-6.71339e-05,-3.74588,-0.667806,-0.088349,0.374033,
2,0,0,1,0,63310.1,0.370303,0.369974,-0.181525,96,0.576946,10,-6.71598e-05,-3.74106,-0.649173,-0.0908848,0.370054,
2,0,0,0,0,63310.9,0.366307,0.366005,-0.183992,96,0.576792,10,-6.7342e-05,-3.7352,-0.747581,-0.0789212,0.366086,
2,0,0,1,0,63311.7,0.362312,0.361969,-0.18609,96,0.576637,10,-6.73589e-05,-3.73028,-0.783045,-0.0753468,0.362051,
2,0,0,1,0,63312.5,0.358316,0.357963,-0.187997,96,0.576479,10,-6.72962e-05,-3.72585,-1.16264,-0.0507465,0.358046,
2,0,0,1,0,63313.3,0.354321,0.353981,-0.190294,96,0.57632,10,-6.73605e-05,-3.72057,-0.843831,-0.0699192,0.354065,
2,0,0,1,0,63314.1,0.350327,0.349985,-0.191328,96,0.576159,10,-6.69621e-05,-3.71822,-0.786579,-0.0750083,0.35007,
2,0,0,0,0,63314.9,0.346331,0.345953,-0.193988,96,0.575996,10,-6.71105e-05,-3.71223,-1.08643,-0.0543063,0.346038,
2,0,0,1,0,63315.7,0.342336,0.341993,-0.196395,96,0.575832,10,-6.71656e-05,-3.70687,-0.693998,-0.0850146,0.342079,
2,0,0,0,0,63316.5,0.338341,0.338047,-0.19889,96,0.575665,10,-6.72341e-05,-3.70139,-0.652419,-0.0904327,0.338135,
2,0,0,1,0,63317.3,0.334345,0.333999,-0.201653,96,0.575497,10,-6.73519e-05,-3.6954,-1.19951,-0.0491868,0.334088,
2,0,0,1,0,63318.1,0.33035,0.330019,-0.203184,96,0.575327,10,-6.70544e-05,-3.69211,-0.689356,-0.0855872,0.330108,
2,0,0,1,0,63318.9,0.326355,0.326022,-0.206155,96,0.575155,10,-6.72112e-05,-3.68581,-0.748759,-0.078797,0.326113,
2,0,0,1,0,63319.7,0.32236,0.321999,-0.208216,96,0.574981,10,-6.70453e-05,-3.68149,-0.916039,-0.0644078,0.322091,
2,0,0,0,0,63320.5,0.318365,0.318054,-0.209408,96,0.574805,10,-6.66032e-05,-3.67901,-1.16989,-0.050432,0.318146,
2,0,0,1,0,63321.3,0.31437,0.314055,-0.212359,96,0.574628,10,-6.66924e-05,-3.67293,-1.23426,-0.0478021,0.314149,
2,0,0,1,0,63322.1,0.310374,0.310029,-0.214932,96,0.574448,10,-6.66352e-05,-3.6677,-0.400398,-0.147354,0.310124,
2,0,0,1,0,63322.9,0.306379,0.306057,-0.217182,96,0.574266,10,-6.64699e-05,-3.66318,-1.3893,-0.0424675,0.306152,
2,0,0,1,0,63323.7,0.302385,0.302072,-0.2199,96,0.574082,10,-6.64257e-05,-3.65777,-0.65919,-0.0895038,0.302169,
2,0,0,0,0,63324.5,0.298389,0.298074,-0.221634,96,0.573897,10,-6.60635e-05,-3.65436,-0.892422,-0.0661122,0.298172,
2,0,0,1,0,63325.3,0.294394,0.294042,-0.224834,96,0.573709,10,-6.61106e-05,-3.64814,-1.20694,-0.0488839,0.294141,
2,0,0,1,0,63326.1,0.290398,0.2901,-0.227445,96,0.573519,10,-6.5982e-05,-3.64312,-0.718052,-0.0821667,0.290201,
2,0,0,1,0,63326.9,0.286403,0.286057,-0.229576,96,0.573327,10,-6.56719e-05,-3.63907,-0.693637,-0.085059,0.286158,
2,0,0,1,0,63327.7,0.282408,0.282084,-0.232703,96,0.573133,10,-6.56418e-05,-3.6332,-1.58138,-0.0373092,0.282187,
2,0,0,1,0,63328.5,0.278414,0.278092,-0.235277,96,0.572937,10,-6.54287e-05,-3.62842,-0.499515,-0.118115,0.278196,
2,0,0,1,0,63329.3,0.274418,0.274087,-0.237582,96,0.572738,10,-6.51181e-05,-3.62419,-1.63992,-0.0359773,0.274191,
2,0,0,0,0,63330.1,0.270423,0.270104,-0.24088,96,0.572537,10,-6.50627e-05,-3.6182,-0.777102,-0.0759231,0.27021,
2,0,0,1,0,63330.9,0.266427,0.266089,-0.242684,96,0.572335,10,-6.45754e-05,-3.61496,-0.769606,-0.0766626,0.266195,
2,0,0,1,0,63331.7,0.262432,0.262121,-0.245446,96,0.57213,10,-6.43365e-05,-3.61004,-1.59304,-0.0370362,0.262229,
2,0,0,1,0,63332.5,0.258437,0.258117,-0.247278,96,0.571924,10,-6.38268e-05,-3.60681,-0.90498,-0.0651948,0.258226,
2,0,0,1,0,63333.3,0.254442,0.254075,-0.249218,96,0.571716,10,-6.33199e-05,-3.60342,-0.820775,-0.0718833,0.254184,
2,0,0,0,0,63334.1,0.250447,0.250126,-0.251996,96,0.571505,10,-6.30307e-05,-3.59861,-1.26469,-0.0466517,0.250237,
2,0,0,1,0,63334.9,0.246452,0.246098,-0.254565,96,0.571294,10,-6.26479e-05,-3.5942,-1.10863,-0.0532188,0.24621,
2,0,0,1,0,63335.7,0.242456,0.242107,-0.25741,96,0.571079,10,-6.23206e-05,-3.58938,-0.773697,-0.0762572,0.24222,
2,0,0,1,0,63336.5,0.238461,0.238149,-0.259432,96,0.570864,10,-6.17834e-05,-3.58598,-0.892497,-0.0661067,0.238263,
2,0,0,1,0,63337.3,0.234467,0.234119,-0.26066,96,0.570646,10,-6.10256e-05,-3.58393,-1.14818,-0.0513857,0.234234,
2,0,0,0,0,63338.1,0.230471,0.230153,-0.263851,96,0.570427,10,-6.07261e-05,-3.57864,-1.31616,-0.0448274,0.230269,
2,0,0,1,0,63338.9,0.226476,0.226128,-0.266492,96,0.570205,10,-6.02613e-05,-3.57432,-1.0095,-0.0584449,0.226245,
2,0,0,0,0,63339.7,0.222481,0.222117,-0.267406,96,0.569982,10,-5.93955e-05,-3.57283,-1.11937,-0.0527082,0.222235,
2,0,0,1,0,63340.5,0.218485,0.218122,-0.270985,96,0.569757,10,-5.91078e-05,-3.56706,-0.966839,-0.0610236,0.218242,
2,0,0,1,0,63341.3,0.21449,0.214168,-0.273403,96,0.569529,10,-5.85543e-05,-3.5632,-0.625738,-0.0942887,0.214289,
2,0,0,1,0,63342.1,0.210496,0.210171,-0.276189,96,0.5693,10,-5.80468e-05,-3.55879,-0.716133,-0.0823869,0.210293,
2,0,0,1,0,63342.9,0.2065,0.206151,-0.280535,96,0.569067,10,-5.78325e-05,-3.55201,-2.61203,-0.0225878,0.206274,
2,0,0,0,0,63343.7,0.202505,0.20217,-0.281975,96,0.568833,10,-5.70068e-05,-3.54979,-0.819551,-0.0719907,0.202294,
2,0,0,1,0,63344.5,0.198509,0.198174,-0.28563,96,0.568596,10,-5.66044e-05,-3.5442,-0.687519,-0.0858158,0.198299,
2,0,0,1,0,63345.3,0.194514,0.194184,-0.288505,96,0.568357,10,-5.6023e-05,-3.53985,-1.12273,-0.0525503,0.194311,
2,0,0,1,0,63346.1,0.190519,0.190176,-0.291411,96,0.568115,10,-5.54194e-05,-3.53549,-0.596392,-0.0989283,0.190304,
2,0,0,1,0,63346.9,0.186524,0.186195,-0.29584,96,0.567869,10,-5.50838e-05,-3.52894,-1.19464,-0.0493872,0.186325,
2,0,0,0,0,63347.7,0.182529,0.182196,-0.300108,96,0.567621,10,-5.46784e-05,-3.52272,-0.481792,-0.12246,0.182328,
2,0,0,1,0,63348.5,0.178534,0.17814,-0.304678,96,0.567369,10,-5.42753e-05,-3.51616,-0.720879,-0.0818445,0.178274,
2,0,0,1,0,63349.2,0.174538,0.174219,-0.309882,96,0.567114,10,-5.39875e-05,-3.5088,-0.462648,-0.127527,0.174356,
2,0,0,1,0,63350,0.170543,0.170193,-0.315405,96,0.566854,10,-5.36798e-05,-3.50113,-0.432229,-0.136502,0.170332,
2,0,0,1,0,63350.8,0.166549,0.166249,-0.322479,96,0.566588,10,-5.36118e-05,-3.4915,-0.424992,-0.138826,0.166391,
2,0,0,0,0,63351.6,0.162553,0.162208,-0.330821,96,0.566317,10,-5.3662e-05,-3.48041,-0.342573,-0.172226,0.162354,
2,0,0,1,0,63352.4,0.158558,0.158194,-0.339015,96,0.566038,10,-5.363e-05,-3.46978,-0.290189,-0.203316,0.158343,
2,0,0,0,0,63353.2,0.154563,0.154242,-0.353292,96,0.56575,10,-5.44924e-05,-3.45187,-0.238571,-0.247305,0.154397,
2,0,0,1,0,63354,0.150567,0.150249,-0.369625,96,0.565451,10,-5.55358e-05,-3.43224,-0.166606,-0.354129,0.150412,
2,0,0,1,0,63354.8,0.146572,0.146234,-0.391235,96,0.565137,10,-5.7212e-05,-3.40756,-0.145131,-0.406528,0.146407,
2,0,0,1,0,63355.6,0.142578,0.142245,-0.42113,96,0.564802,10,-5.99034e-05,-3.37558,-0.12164,-0.485039,0.14243,
2,0,0,1,0,63356.4,0.138582,0.138233,-0.45647,96,0.564442,10,-6.30991e-05,-3.34059,-0.103242,-0.571471,0.138434,
2,0,0,0,0,63357.2,0.134587,0.134181,-0.49792,96,0.56405,10,-6.68113e-05,-3.30284,-0.107823,-0.547193,0.1344,
2,0,0,1,0,63358,0.130591,0.130249,-0.541018,96,0.563624,10,-7.04672e-05,-3.26679,-0.112496,-0.524462,0.130487,
2,0,0,1,0,63358.8,0.126596,0.126219,-0.581532,96,0.563163,10,-7.34005e-05,-3.23543,-0.139701,-0.422331,0.126475,
2,0,0,1,0,63359.6,0.122602,0.122265,-0.617561,96,0.562671,10,-7.55063e-05,-3.20932,-0.196151,-0.300789,0.122537,
2,0,0,1,0,63360.4,0.118607,0.118236,-0.642537,96,0.562156,10,-7.5971e-05,-3.1921,-0.294856,-0.200098,0.118519,
2,0,0,0,0,63361.2,0.114611,0.114258,-0.655873,96,0.561625,10,-7.49387e-05,-3.18318,-0.603343,-0.0977884,0.114547,
2,0,0,1,0,63362,0.110616,0.110269,-0.662702,96,0.561087,10,-7.30753e-05,-3.17868,-1.18098,-0.0499586,0.11056,
2,0,0,1,0,63362.8,0.10662,0.106269,-0.664693,96,0.560545,10,-7.06359e-05,-3.17738,-3.3111,-0.0178188,0.106561,
2,0,0,1,0,63363.6,0.102625,0.102276,-0.665592,96,0.560001,10,-6.80744e-05,-3.17679,1.68716,0.03497,0.102569,
2,0,0,1,0,63364.4,0.0986305,0.0982745,-0.662704,96,0.55946,10,-6.51269e-05,-3.17868,2.64864,0.0222756,0.0985661,
2,0,0,0,0,63365.2,0.0946351,0.0942831,-0.65695,96,0.55892,10,-6.19392e-05,-3.18247,1.37615,0.0428732,0.0945721,
2,0,0,1,0,63366,0.0906399,0.090296,-0.653568,96,0.558384,10,-5.90145e-05,-3.18471,0.923545,0.0638843,0.0905835,
2,0,0,0,0,63366.8,0.0866448,0.0862781,-0.647146,96,0.557854,10,-5.58345e-05,-3.189,0.934479,0.0631368,0.0865628,
2,0,0,1,0,63367.6,0.0826492,0.0823298,-0.640828,96,0.557328,10,-5.27592e-05,-3.19326,0.900456,0.0655224,0.0826118,
2,0,0,1,0,63368.4,0.0786544,0.0782965,-0.632542,96,0.556809,10,-4.95258e-05,-3.19891,0.641675,0.0919468,0.0785748,
2,0,0,1,0,63369.2,0.0746596,0.0743478,-0.623123,96,0.556296,10,-4.63278e-05,-3.20543,0.785179,0.0751421,0.074622,
2,0,0,1,0,63370,0.0706641,0.0702808,-0.61741,96,0.555789,10,-4.3392e-05,-3.20943,0.615496,0.0958576,0.0705524,
2,0,0,0,0,63370.8,0.0666689,0.0663117,-0.609904,96,0.555289,10,-4.04437e-05,-3.21474,0.905902,0.0651285,0.06658,
2,0,0,1,0,63371.6,0.0626737,0.0623617,-0.599176,96,0.554794,10,-3.73656e-05,-3.22245,0.592167,0.0996341,0.0626253,
2,0,0,1,0,63372.4,0.0586783,0.058367,-0.592203,96,0.554306,10,-3.45651e-05,-3.22753,0.557272,0.105873,0.0586275,
2,0,0,1,0,63373.2,0.0546835,0.0543185,-0.583518,96,0.553826,10,-3.16958e-05,-3.23395,0.739977,0.0797322,0.0545753,
2,0,0,1,0,63374,0.0506886,0.0503561,-0.573494,96,0.553352,10,-2.88789e-05,-3.24147,0.510288,0.115621,0.0506084,
2,0,0,0,0,63374.8,0.046693,0.0463612,-0.563469,96,0.552886,10,-2.61231e-05,-3.24913,0.538049,0.109655,0.0466091,
2,0,0,1,0,63375.6,0.0426979,0.0423709,-0.553983,96,0.552428,10,-2.34728e-05,-3.2565,0.600338,0.098278,0.0426146,
2,0,0,1,0,63376.4,0.0387022,0.0383441,-0.544947,96,0.551978,10,-2.08955e-05,-3.26365,0.465373,0.12678,0.0385839,
2,0,0,1,0,63377.2,0.0347074,0.0343912,-0.534405,96,0.551535,10,-1.83788e-05,-3.27213,0.546056,0.108048,0.0346263,
2,0,0,1,0,63378,0.0307126,0.0303716,-0.523584,96,0.551101,10,-1.59021e-05,-3.28101,0.490966,0.120171,0.030602,
2,0,0,0,0,63378.8,0.0267172,0.0263842,-0.517738,96,0.550673,10,-1.36601e-05,-3.28589,0.572344,0.103085,0.026612,
2,0,0,1,0,63379.6,0.022722,0.0223896,-0.508953,96,0.550252,10,-1.13953e-05,-3.29332,0.952955,0.0619127,0.0226136,
2,0,0,0,0,63380.4,0.0187268,0.0183707,-0.503561,96,0.549836,10,-9.25078e-06,-3.29795,0.757654,0.077872,0.0185923,
2,0,0,1,0,63381.2,0.0147313,0.0143937,-0.500733,96,0.549424,10,-7.20739e-06,-3.30039,1.15627,0.051026,0.014614,
2,0,0,1,0,63382,0.0107365,0.0103879,-0.496632,96,0.549016,10,-5.15897e-06,-3.30397,1.57867,0.0373731,0.0106064,
2,0,0,1,0,63382.8,0.00674163,0.00638419,-0.4948,96,0.54861,10,-3.1589e-06,-3.30557,5.66096,0.0104223,0.0066019,
2,0,0,1,0,63383.6,0.00274612,0.00240416,-0.494784,96,0.548204,10,-1.18954e-06,-3.30558,-1.34157,-0.0439782,0.00262187,
2,0,0,0,0,63384.1,0.000274105,-0.000105819,-0.495511,96,0.547951,10,5.24347e-08,-3.30495, , ,0.000112206,