File: Figure_codes/Fig_3-5/workspace_calculate_alpha_eff/20221101_1-115_003_TrumpetPlot_ParaChange_from10_every3_16_CV_C01_90.csv
mode,ox/red,error,control changes,counter inc.,time/s,control/V,Ewe/V,<I>/mA,cycle number,(Q-Qo)/C,I Range,P/W,log(|I|),Tafel slope mV/dec,alpha_eff,E-IR/V,
2,0,0,1,0,60334,2.44065e-05,-0.000306236,-0.0307026,91,0.0000000E+000,10,9.40224e-09,-4.51283, , ,-0.000292727,
2,1,0,1,0,60334.8,0.00379485,0.00347517,0.199433,91,0.000124584,10,6.93066e-07,-3.7002,0.0410088,1.43872,0.00338742,
2,1,0,0,0,60335.6,0.00779002,0.00745276,0.22172,91,0.000302803,10,1.65242e-06,-3.6542,0.09485,0.622035,0.0073552,
2,1,0,1,0,60336.4,0.0117852,0.0114441,0.238076,91,0.000496498,10,2.72457e-06,-3.62328,0.153948,0.383247,0.0113394,
2,1,0,1,0,60337.2,0.0157806,0.0153955,0.252036,91,0.000702063,10,3.88023e-06,-3.59854,0.178101,0.331273,0.0152846,
2,1,0,1,0,60338,0.0197754,0.0194363,0.264496,91,0.000918208,10,5.14084e-06,-3.57758,0.185808,0.317532,0.0193199,
2,1,0,1,0,60338.8,0.0237704,0.0234783,0.278882,91,0.00114495,10,6.5477e-06,-3.55458,0.185117,0.318718,0.0233556,
2,1,0,0,0,60339.6,0.0277659,0.0273979,0.291988,91,0.00138211,10,7.99987e-06,-3.53464,0.214427,0.275151,0.0272695,
2,1,0,1,0,60340.4,0.0317611,0.031436,0.303569,91,0.00162992,10,9.54298e-06,-3.51774,0.206443,0.285793,0.0313024,
2,1,0,1,0,60341.2,0.0357567,0.0354426,0.318378,91,0.00188838,10,1.12841e-05,-3.49706,0.247799,0.238096,0.0353025,
2,1,0,1,0,60342,0.0397516,0.0393892,0.33084,91,0.00215696,10,1.30315e-05,-3.48038,0.220711,0.267318,0.0392437,
2,1,0,1,0,60342.8,0.0437465,0.0433867,0.342307,91,0.00243608,10,1.48516e-05,-3.46558,0.252457,0.233703,0.0432361,
2,1,0,1,0,60343.6,0.0477413,0.0473924,0.355206,91,0.00272466,10,1.68341e-05,-3.44952,0.273635,0.215616,0.0472361,
2,1,0,1,0,60344.4,0.0517369,0.0513949,0.365856,91,0.00302256,10,1.88031e-05,-3.43669,0.278375,0.211944,0.051234,
2,1,0,0,0,60345.2,0.0557321,0.0553831,0.377999,91,0.0033299,10,2.09348e-05,-3.42251,0.392295,0.150397,0.0552168,
2,1,0,1,0,60346,0.0597277,0.0593983,0.388058,91,0.00364548,10,2.305e-05,-3.4111,0.342042,0.172494,0.0592276,
2,1,0,1,0,60346.8,0.0637226,0.0633841,0.395467,91,0.00396892,10,2.50663e-05,-3.40289,0.40376,0.146126,0.0632101,
2,1,0,1,0,60347.6,0.0677174,0.0673519,0.405718,91,0.00429974,10,2.73259e-05,-3.39178,0.536984,0.109873,0.0671733,
2,1,0,1,0,60348.4,0.0717128,0.0713741,0.413271,91,0.004637,10,2.94968e-05,-3.38376,0.45501,0.129668,0.0711922,
2,1,0,0,0,60349.2,0.075708,0.0753654,0.419833,91,0.00498041,10,3.16409e-05,-3.37692,0.602455,0.0979326,0.0751807,
2,1,0,1,0,60350,0.0797031,0.0793345,0.427841,91,0.00532906,10,3.39426e-05,-3.36872,0.547138,0.107834,0.0791463,
2,1,0,1,0,60350.8,0.0836986,0.0833221,0.43475,91,0.00568325,10,3.62242e-05,-3.36176,0.493507,0.119553,0.0831308,
2,1,0,1,0,60351.6,0.0876935,0.0873331,0.445016,91,0.00604448,10,3.88646e-05,-3.35162,0.353503,0.166901,0.0871373,
2,1,0,1,0,60352.4,0.0916883,0.0913083,0.457842,91,0.00641425,10,4.18048e-05,-3.33928,0.311831,0.189205,0.0911069,
2,1,0,0,0,60353.2,0.0956838,0.0953265,0.47219,91,0.00679567,10,4.50122e-05,-3.32588,0.243563,0.242237,0.0951188,
2,1,0,1,0,60354,0.099679,0.0993359,0.491699,91,0.00719096,10,4.88434e-05,-3.3083,0.240816,0.245,0.0991196,
2,1,0,0,0,60354.8,0.103674,0.103302,0.512953,91,0.007602,10,5.2989e-05,-3.28992,0.196398,0.30041,0.103076,
2,1,0,1,0,60355.6,0.10767,0.107342,0.532348,91,0.00803033,10,5.71434e-05,-3.2738,0.265024,0.222621,0.107108,
2,1,0,1,0,60356.4,0.111664,0.111339,0.550084,91,0.00847299,10,6.12455e-05,-3.25957,0.322015,0.183221,0.111097,
2,1,0,1,0,60357.2,0.115659,0.115277,0.563886,91,0.00892793,10,6.50033e-05,-3.24881,0.390654,0.151029,0.115029,
2,1,0,1,0,60358,0.119655,0.119298,0.575654,91,0.00939324,10,6.86744e-05,-3.23984,0.920935,0.0640653,0.119045,
2,1,0,0,0,60358.8,0.12365,0.123334,0.582032,91,0.00986506,10,7.17843e-05,-3.23505,0.714449,0.0825811,0.123078,
2,1,0,1,0,60359.6,0.127646,0.127291,0.58614,91,0.0103422,10,7.46102e-05,-3.232,1.59159,0.0370698,0.127033,
2,1,0,1,0,60360.4,0.131641,0.131294,0.586814,91,0.0108217,10,7.7045e-05,-3.2315,-0.635631,-0.0928212,0.131035,
2,1,0,1,0,60361.2,0.135635,0.135279,0.571418,91,0.0112951,10,7.73009e-05,-3.24305,-0.255173,-0.231215,0.135028,
2,1,0,1,0,60362,0.139631,0.139294,0.539632,91,0.0117508,10,7.51676e-05,-3.2679,-0.126191,-0.467547,0.139057,
2,1,0,0,0,60362.8,0.143626,0.14328,0.493361,91,0.0121746,10,7.06889e-05,-3.30684,-0.0843852,-0.699174,0.143063,
2,1,0,1,0,60363.5,0.147621,0.14728,0.43948,91,0.012557,10,6.47266e-05,-3.35706,-0.0819825,-0.719666,0.147087,
2,1,0,1,0,60364.3,0.151617,0.151265,0.393713,91,0.012899,10,5.95551e-05,-3.40482,-0.089756,-0.657338,0.151092,
2,1,0,1,0,60365.1,0.155612,0.155253,0.361895,91,0.0132089,10,5.61854e-05,-3.44142,-0.127475,-0.462835,0.155094,
2,1,0,1,0,60365.9,0.159606,0.159268,0.340215,91,0.0134979,10,5.41854e-05,-3.46825,-0.198997,-0.296487,0.159118,
2,1,0,0,0,60366.7,0.163602,0.163274,0.327062,91,0.0137737,10,5.34008e-05,-3.48537,-0.247206,-0.238667,0.16313,
2,1,0,1,0,60367.5,0.167597,0.167238,0.317781,91,0.0140401,10,5.31451e-05,-3.49787,-0.455551,-0.129513,0.167098,
2,1,0,0,0,60368.3,0.171592,0.171291,0.310521,91,0.0143007,10,5.31894e-05,-3.50791,-0.555193,-0.106269,0.171154,
2,1,0,1,0,60369.1,0.175588,0.175258,0.30681,91,0.0145565,10,5.3771e-05,-3.51313,-0.627224,-0.0940653,0.175123,
2,1,0,1,0,60369.9,0.179582,0.179242,0.303673,91,0.014809,10,5.44309e-05,-3.51759,-1.26318,-0.0467074,0.179108,
2,1,0,1,0,60370.7,0.183577,0.183211,0.300496,91,0.0150594,10,5.50541e-05,-3.52216,-0.758563,-0.0777787,0.183078,
2,1,0,1,0,60371.5,0.187573,0.187238,0.29825,91,0.0153076,10,5.58437e-05,-3.52542,-2.08688,-0.0282719,0.187107,
2,1,0,0,0,60372.3,0.191568,0.191211,0.296757,91,0.0155544,10,5.6743e-05,-3.5276,-1.82794,-0.0322768,0.19108,
2,1,0,1,0,60373.1,0.195563,0.195197,0.295999,91,0.0158002,10,5.7778e-05,-3.52871,-0.959138,-0.0615136,0.195066,
2,1,0,1,0,60373.9,0.199559,0.199216,0.294781,91,0.0160447,10,5.87251e-05,-3.5305,2.87087,0.0205513,0.199086,
2,1,0,1,0,60374.7,0.203553,0.203178,0.292727,91,0.0162885,10,5.94757e-05,-3.53354,-2.3009,-0.0256421,0.203049,
2,1,0,1,0,60375.5,0.207548,0.207184,0.292174,91,0.0165315,10,6.05339e-05,-3.53436,-2.75737,-0.0213972,0.207056,
2,1,0,0,0,60376.3,0.211544,0.211187,0.290685,91,0.0167735,10,6.13887e-05,-3.53658,-1.65942,-0.0355545,0.211059,
2,1,0,1,0,60377.1,0.215539,0.215194,0.29027,91,0.0170146,10,6.24642e-05,-3.5372,-1.32204,-0.0446281,0.215066,
2,1,0,1,0,60377.9,0.219535,0.219141,0.288935,91,0.0172545,10,6.33176e-05,-3.5392,-12.5816,-0.00468937,0.219014,
2,1,0,1,0,60378.7,0.223529,0.223198,0.28776,91,0.0174939,10,6.42273e-05,-3.54097,-2.65305,-0.0222385,0.223071,
2,1,0,1,0,60379.5,0.227524,0.227156,0.287608,91,0.0177325,10,6.53319e-05,-3.5412,-1.23812,-0.0476529,0.227029,
2,1,0,0,0,60380.3,0.23152,0.231164,0.286605,91,0.0179699,10,6.62527e-05,-3.54272,3.28919,0.0179375,0.231037,
2,1,0,1,0,60381.1,0.235515,0.235147,0.283557,91,0.018207,10,6.66778e-05,-3.54736,-2.10491,-0.0280298,0.235023,
2,1,0,0,0,60381.9,0.23951,0.239145,0.284185,91,0.0184431,10,6.79614e-05,-3.5464,-6.15564,-0.0095847,0.23902,
2,1,0,1,0,60382.7,0.243506,0.243158,0.283653,91,0.0186787,10,6.89725e-05,-3.54721,-56.7221,-0.00104016,0.243033,
2,1,0,1,0,60383.5,0.2475,0.247122,0.2827,91,0.0189141,10,6.98614e-05,-3.54867,-1.18571,-0.0497594,0.246997,
2,1,0,1,0,60384.3,0.251495,0.251151,0.282994,91,0.0191486,10,7.10741e-05,-3.54822,7.62594,0.00773675,0.251026,
2,1,0,1,0,60385.1,0.255491,0.255131,0.280608,91,0.0193824,10,7.15919e-05,-3.5519,-2.89458,-0.0203829,0.255007,
2,1,0,0,0,60385.9,0.259486,0.259158,0.281926,91,0.0196158,10,7.30635e-05,-3.54986,-0.999607,-0.0590232,0.259034,
2,1,0,1,0,60386.7,0.263481,0.263159,0.280053,91,0.0198484,10,7.36986e-05,-3.55276,4.24594,0.0138956,0.263036,
2,1,0,1,0,60387.5,0.267477,0.267103,0.278721,91,0.0200805,10,7.44473e-05,-3.55483,-2.39657,-0.0246185,0.26698,
2,1,0,1,0,60388.3,0.271471,0.271093,0.278464,91,0.0203117,10,7.54897e-05,-3.55523,-28.4415,-0.00207444,0.27097,
2,1,0,1,0,60389.1,0.275466,0.275132,0.278116,91,0.0205425,10,7.65185e-05,-3.55577,-4.50017,-0.0131106,0.275009,
2,1,0,0,0,60389.9,0.279462,0.2791,0.276611,91,0.0207728,10,7.72023e-05,-3.55813,-2.17495,-0.0271271,0.278979,
2,1,0,1,0,60390.7,0.283457,0.283101,0.276128,91,0.0210021,10,7.81722e-05,-3.55889,-1.71997,-0.034303,0.28298,
2,1,0,0,0,60391.5,0.287452,0.287114,0.275172,91,0.0212305,10,7.90056e-05,-3.5604,-2.66597,-0.0221308,0.286993,
2,1,0,1,0,60392.3,0.291448,0.291092,0.274154,91,0.0214582,10,7.9804e-05,-3.56201,-0.981912,-0.0600868,0.290971,
2,1,0,1,0,60393.1,0.295442,0.295086,0.272739,91,0.0216851,10,8.04814e-05,-3.56425,2.36027,0.0249971,0.294966,
2,1,0,1,0,60393.9,0.299437,0.299126,0.271254,91,0.0219114,10,8.11389e-05,-3.56662,-3.32292,-0.0177554,0.299006,
2,1,0,1,0,60394.7,0.303433,0.303077,0.272287,91,0.0221369,10,8.2524e-05,-3.56497,-3.37849,-0.0174634,0.302957,
2,1,0,0,0,60395.5,0.307428,0.307102,0.269993,91,0.0223615,10,8.29156e-05,-3.56865,-6.05939,-0.00973695,0.306984,
2,1,0,1,0,60396.3,0.311424,0.311099,0.269528,91,0.0225857,10,8.38498e-05,-3.5694,-1.54039,-0.0383021,0.31098,
2,1,0,1,0,60397.1,0.315418,0.315143,0.26975,91,0.0228092,10,8.50097e-05,-3.56904,-4.28885,-0.0137566,0.315024,
2,1,0,1,0,60397.9,0.319413,0.319103,0.268508,91,0.0230321,10,8.56816e-05,-3.57104,4.98795,0.0118285,0.318985,
2,1,0,1,0,60398.7,0.323409,0.323055,0.268857,91,0.0232557,10,8.68555e-05,-3.57048,-1.08181,-0.0545383,0.322937,
2,1,0,0,0,60399.5,0.327404,0.327034,0.267611,91,0.0234779,10,8.75179e-05,-3.5725,-4.86671,-0.0121232,0.326916,
2,1,0,1,0,60400.3,0.331399,0.33109,0.266757,91,0.0236996,10,8.83204e-05,-3.57388,-8.34105,-0.00707345,0.330972,
2,1,0,1,0,60401.1,0.335395,0.335065,0.265567,91,0.0239205,10,8.89822e-05,-3.57583,-2.39576,-0.0246268,0.334948,
2,1,0,1,0,60401.9,0.339389,0.339077,0.265524,91,0.0241408,10,9.00332e-05,-3.5759,-23.4274,-0.00251842,0.33896,
2,1,0,1,0,60402.7,0.343384,0.343078,0.265068,91,0.0243605,10,9.0939e-05,-3.57664,-41.2452,-0.00143047,0.342962,
2,1,0,0,0,60403.5,0.34738,0.347052,0.264472,91,0.02458,10,9.17856e-05,-3.57762,-3.54836,-0.0166274,0.346936,
2,1,0,1,0,60404.3,0.351375,0.350991,0.264181,91,0.0247992,10,9.27249e-05,-3.5781,-3.27918,-0.0179923,0.350874,
2,1,0,0,0,60405.1,0.35537,0.354988,0.263978,91,0.0250179,10,9.37092e-05,-3.57843,-1.64069,-0.0359605,0.354872,
2,1,0,1,0,60405.9,0.359366,0.358964,0.262351,91,0.0252359,10,9.41747e-05,-3.58112,3.2939,0.0179119,0.358849,
2,1,0,1,0,60406.7,0.36336,0.363022,0.26258,91,0.0254536,10,9.53222e-05,-3.58074,-3.90631,-0.0151038,0.362906,
2,1,0,1,0,60407.5,0.367355,0.367025,0.262199,91,0.0256709,10,9.62333e-05,-3.58137,-4.25771,-0.0138572,0.366909,
2,1,0,1,0,60408.3,0.371351,0.371006,0.260749,91,0.0258876,10,9.67392e-05,-3.58378,-6.94214,-0.00849883,0.370891,
2,1,0,0,0,60409.1,0.375346,0.375015,0.26118,91,0.026104,10,9.79464e-05,-3.58306,-1.74748,-0.033763,0.3749,
2,1,0,1,0,60409.9,0.379342,0.379011,0.260517,91,0.0263199,10,9.87388e-05,-3.58416,1046.75,5.63648e-05,0.378897,
2,1,0,1,0,60410.7,0.383336,0.382988,0.260168,91,0.0265353,10,9.96411e-05,-3.58475,-5.4363,-0.010853,0.382874,
2,1,0,1,0,60411.5,0.387331,0.387014,0.259294,91,0.0267503,10,0.00010035,-3.58621,-1.38676,-0.0425452,0.3869,
2,1,0,1,0,60412.3,0.391327,0.390981,0.259457,91,0.0269647,10,0.000101443,-3.58593,3.90081,0.0151251,0.390866,
2,1,0,0,0,60413.1,0.395322,0.394997,0.258287,91,0.0271789,10,0.000102023,-3.5879,-2.78422,-0.0211909,0.394884,
2,1,0,1,0,60413.9,0.399317,0.399014,0.258546,91,0.0273928,10,0.000103164,-3.58746,2.67921,0.0220215,0.3989,
2,1,0,1,0,60414.7,0.403313,0.402957,0.257189,91,0.027606,10,0.000103636,-3.58975,-1.79764,-0.0328209,0.402844,
2,1,0,1,0,60415.5,0.407307,0.407014,0.258076,91,0.0278189,10,0.00010504,-3.58825,-7.43709,-0.00793321,0.4069,
2,1,0,1,0,60416.3,0.411302,0.410946,0.258255,91,0.0280315,10,0.000106129,-3.58795,-9.96849,-0.00591865,0.410832,
2,1,0,0,0,60417.1,0.415298,0.414966,0.255644,91,0.0282442,10,0.000106084,-3.59236,6.26766,0.0094134,0.414853,
2,1,0,1,0,60417.9,0.419293,0.418993,0.256173,91,0.0284564,10,0.000107335,-3.59147,-2.18326,-0.0270238,0.418881,
2,1,0,0,0,60418.7,0.423288,0.422948,0.256041,91,0.0286685,10,0.000108292,-3.59169,3.98847,0.0147926,0.422835,
2,1,0,1,0,60419.5,0.427283,0.426969,0.256007,91,0.0288807,10,0.000109307,-3.59175,-35.7205,-0.00165171,0.426856,
2,1,0,1,0,60420.3,0.431278,0.430942,0.255725,91,0.0290924,10,0.000110203,-3.59223,-73.8081,-0.00079937,0.430829,
2,1,0,1,0,60421.1,0.435273,0.434989,0.255375,91,0.0293036,10,0.000111085,-3.59282,-2.9081,-0.0202882,0.434877,
2,1,0,1,0,60421.9,0.439269,0.43896,0.255554,91,0.0295149,10,0.000112178,-3.59252,3.86729,0.0152562,0.438847,
2,1,0,0,0,60422.7,0.443264,0.442971,0.255366,91,0.029726,10,0.00011312,-3.59284,-3.84671,-0.0153378,0.442859,
2,1,0,1,0,60423.5,0.447259,0.446921,0.254842,91,0.0299368,10,0.000113894,-3.59373,-7.17715,-0.00822053,0.446809,
2,1,0,1,0,60424.3,0.451254,0.450909,0.255241,91,0.0301475,10,0.00011509,-3.59305,-2.69651,-0.0218801,0.450797,
2,1,0,1,0,60425.1,0.455249,0.454935,0.25502,91,0.0303579,10,0.000116017,-3.59343,3.56206,0.0165635,0.454822,
2,1,0,1,0,60425.9,0.459244,0.45892,0.254718,91,0.0305682,10,0.000116896,-3.59394,-37.3047,-0.00158157,0.458808,
2,1,0,0,0,60426.7,0.46324,0.46291,0.255001,91,0.0307785,10,0.000118042,-3.59346,-773.124,-7.63137e-05,0.462798,
2,1,0,1,0,60427.5,0.467235,0.466894,0.255052,91,0.0309888,10,0.000119082,-3.59337,-4.55051,-0.0129656,0.466782,
2,1,0,1,0,60428.3,0.471231,0.470911,0.255152,91,0.0311992,10,0.000120154,-3.5932,-35.6189,-0.00165642,0.470799,
2,1,0,1,0,60429.1,0.475225,0.474951,0.256168,91,0.0314097,10,0.000121667,-3.59147,2.91278,0.0202556,0.474838,
2,1,0,1,0,60429.9,0.47922,0.47891,0.255802,91,0.0316203,10,0.000122506,-3.5921,4.24799,0.0138889,0.478798,
2,1,0,0,0,60430.7,0.483216,0.482917,0.256037,91,0.0318311,10,0.000123645,-3.5917,3.27103,0.0180371,0.482804,
2,1,0,1,0,60431.5,0.487211,0.486849,0.256457,91,0.0320421,10,0.000124856,-3.59099,3.59106,0.0164297,0.486736,
2,1,0,0,0,60432.3,0.491206,0.490878,0.256885,91,0.0322537,10,0.000126099,-3.59026,49.5067,0.00119176,0.490765,
2,1,0,1,0,60433.1,0.495201,0.494889,0.257677,91,0.0324657,10,0.000127522,-3.58892,2.1282,0.027723,0.494776,
2,1,0,1,0,60433.9,0.499196,0.498872,0.258527,91,0.032678,10,0.000128972,-3.58749,2.27783,0.0259019,0.498758,
2,1,0,1,0,60434.7,0.503191,0.502903,0.258564,91,0.032891,10,0.000130032,-3.58743,4.09171,0.0144194,0.502789,
2,1,0,1,0,60435.5,0.507187,0.506829,0.259717,91,0.0331043,10,0.000131632,-3.5855,-6.1489,-0.00959521,0.506715,
2,1,0,0,0,60436.3,0.511182,0.510858,0.260961,91,0.0333181,10,0.000133314,-3.58342,1.85047,0.0318838,0.510744,
2,1,0,1,0,60437.1,0.515177,0.51483,0.261235,91,0.033533,10,0.000134491,-3.58297,2.3261,0.0253644,0.514715,
2,1,0,1,0,60437.9,0.519173,0.518802,0.262204,91,0.0337481,10,0.000136032,-3.58136,3.20513,0.018408,0.518687,
2,1,0,1,0,60438.7,0.523167,0.522874,0.262851,91,0.033964,10,0.000137438,-3.58029,2.05113,0.0287646,0.522758,
2,1,0,1,0,60439.5,0.527162,0.526817,0.264778,91,0.0341807,10,0.000139489,-3.57712,1.87728,0.0314284,0.526701,
2,1,0,0,0,60440.3,0.531158,0.530826,0.265585,91,0.0343983,10,0.000140979,-3.5758,2.08363,0.0283159,0.530709,
2,1,0,1,0,60441.1,0.535153,0.534812,0.267537,91,0.034617,10,0.000143082,-3.57262,1.80336,0.0327168,0.534694,
2,1,0,0,0,60441.9,0.539148,0.538837,0.268741,91,0.0348364,10,0.000144808,-3.57067,1.66589,0.0354165,0.538719,
2,1,0,1,0,60442.7,0.543143,0.542794,0.269151,91,0.0350571,10,0.000146094,-3.57,2.3987,0.0245967,0.542675,
2,1,0,1,0,60443.5,0.547138,0.546772,0.271702,91,0.0352791,10,0.000148559,-3.56591,1.13267,0.0520892,0.546653,
2,1,0,1,0,60444.3,0.551133,0.550827,0.273234,91,0.0355024,10,0.000150504,-3.56347,1.51249,0.0390086,0.550707,
2,1,0,1,0,60445.1,0.555129,0.554797,0.274808,91,0.0357275,10,0.000152463,-3.56097,1.24213,0.0474989,0.554677,
2,1,0,0,0,60445.9,0.559124,0.558788,0.277483,91,0.035954,10,0.000155054,-3.55676,1.04153,0.0566475,0.558666,
2,1,0,1,0,60446.6,0.56312,0.562803,0.279445,91,0.0361824,10,0.000157273,-3.5537,0.861411,0.0684923,0.56268,
2,1,0,1,0,60447.4,0.567114,0.566814,0.282284,91,0.0364131,10,0.000160002,-3.54931,0.918943,0.0642042,0.56669,
2,1,0,1,0,60448.2,0.571109,0.570807,0.285736,91,0.0366456,10,0.0001631,-3.54404,0.964235,0.0611884,0.570682,
2,1,0,1,0,60449,0.575105,0.574792,0.288687,91,0.0368806,10,0.000165935,-3.53957,0.886303,0.0665686,0.574665,
2,1,0,0,0,60449.8,0.5791,0.578786,0.29201,91,0.0371181,10,0.000169011,-3.5346,0.961421,0.0613675,0.578657,
2,1,0,1,0,60450.6,0.583095,0.582817,0.296381,91,0.0373583,10,0.000172736,-3.52815,0.517641,0.113979,0.582686,
2,1,0,1,0,60451.4,0.58709,0.586762,0.299852,91,0.0376018,10,0.000175942,-3.52309,0.703814,0.083829,0.58663,
2,1,0,1,0,60452.2,0.591085,0.590812,0.305032,91,0.0378488,10,0.000180217,-3.51565,0.55142,0.106997,0.590678,
2,1,0,1,0,60453,0.59508,0.594727,0.309506,91,0.0380996,10,0.000184071,-3.50933,0.488951,0.120667,0.59459,
2,1,0,0,0,60453.8,0.599076,0.598752,0.315782,91,0.0383548,10,0.000189075,-3.50061,0.506543,0.116476,0.598613,
2,1,0,1,0,60454.6,0.603071,0.602752,0.322885,91,0.038615,10,0.00019462,-3.49095,0.398653,0.147999,0.60261,
2,1,0,0,0,60455.4,0.607066,0.606743,0.329536,91,0.0388807,10,0.000199944,-3.4821,0.397032,0.148603,0.606598,
2,1,0,1,0,60456.2,0.611061,0.610753,0.338022,91,0.0391527,10,0.000206448,-3.47105,0.377429,0.156321,0.610604,
2,1,0,1,0,60457,0.615056,0.614738,0.347147,91,0.0394316,10,0.000213404,-3.45949,0.28171,0.209436,0.614585,
2,1,0,1,0,60457.8,0.619051,0.618745,0.358838,91,0.0397193,10,0.000222029,-3.4451,0.302512,0.195033,0.618587,
2,1,0,1,0,60458.6,0.623047,0.622731,0.371766,91,0.0400163,10,0.00023151,-3.42973,0.230338,0.256146,0.622568,
2,1,0,0,0,60459.4,0.627042,0.626776,0.385661,91,0.0403243,10,0.000241723,-3.41379,0.224388,0.262937,0.626606,
2,1,0,1,0,60460.2,0.631037,0.630764,0.403995,91,0.0406453,10,0.000254826,-3.39362,0.20414,0.289017,0.630587,
2,1,0,1,0,60461,0.635032,0.634702,0.423367,91,0.0409807,10,0.000268712,-3.37328,0.184178,0.320342,0.634516,
2,1,0,1,0,60461.8,0.639027,0.638718,0.445082,91,0.041333,10,0.000284282,-3.35156,0.171419,0.344185,0.638522,
2,1,0,1,0,60462.6,0.643022,0.642727,0.47264,91,0.0417048,10,0.000303779,-3.32547,0.156116,0.377924,0.642519,
2,1,0,0,0,60463.4,0.647018,0.646694,0.502715,91,0.0420992,10,0.000325103,-3.29868,0.132873,0.444032,0.646473,
2,1,0,1,0,60464.2,0.651013,0.650719,0.537902,91,0.0425201,10,0.000350023,-3.2693,0.134756,0.437829,0.650482,
2,1,0,1,0,60465,0.655008,0.65471,0.57818,91,0.0429709,10,0.000378541,-3.23794,0.119729,0.49278,0.654456,
2,1,0,1,0,60465.8,0.659003,0.658678,0.62528,91,0.0434566,10,0.000411859,-3.20393,0.110655,0.533188,0.658403,
2,1,0,1,0,60466.6,0.662998,0.662688,0.681873,91,0.043984,10,0.00045187,-3.1663,0.107091,0.550935,0.662388,
2,1,0,0,0,60467.4,0.666994,0.666683,0.743519,91,0.044558,10,0.000495691,-3.12871,0.0995963,0.592391,0.666356,
2,1,0,1,0,60468.2,0.670989,0.670669,0.816835,91,0.0451864,10,0.000547826,-3.08787,0.0981092,0.601371,0.67031,
2,1,0,0,0,60469,0.674984,0.674663,0.900056,91,0.0458766,10,0.000607234,-3.04573,0.0920282,0.641108,0.674267,
2,1,0,1,0,60469.8,0.67898,0.678667,0.992358,91,0.046637,10,0.000673481,-3.00333,0.0918772,0.642162,0.67823,
2,1,0,1,0,60470.6,0.682974,0.68267,1.0975,91,0.0474769,10,0.000749233,-2.95959,0.0897328,0.657508,0.682187,
2,1,0,1,0,60471.4,0.686969,0.686632,1.21496,91,0.0484054,10,0.000834232,-2.91544,0.0874251,0.674863,0.686098,
2,1,0,1,0,60472.2,0.690965,0.69069,1.34618,91,0.0494337,10,0.000929794,-2.8709,0.0891762,0.661612,0.690097,
2,1,0,0,0,60473,0.69496,0.694655,1.49273,91,0.0505728,10,0.00103694,-2.82602,0.0878234,0.671802,0.693999,
2,1,0,1,0,60473.8,0.698955,0.698678,1.65307,91,0.0518334,10,0.00115496,-2.78171,0.0895122,0.659128,0.69795,
2,1,0,1,0,60474.6,0.70295,0.702613,1.82654,91,0.053228,10,0.00128335,-2.73837,0.0906027,0.651195,0.701809,
2,1,0,1,0,60475.4,0.706945,0.706694,2.01736,91,0.0547687,10,0.00142566,-2.69522,0.0920444,0.640995,0.705807,
2,1,0,1,0,60476.2,0.71094,0.710631,2.22227,91,0.0564667,10,0.00157921,-2.6532,0.0935843,0.630448,0.709653,
2,1,0,0,0,60477,0.714936,0.714624,2.44411,91,0.0583359,10,0.00174662,-2.61188,0.0954899,0.617867,0.713549,
2,1,0,1,0,60477.8,0.718931,0.718628,2.67956,91,0.0603869,10,0.00192561,-2.57194,0.0988455,0.596891,0.717449,
2,1,0,1,0,60478.6,0.722927,0.72261,2.93117,91,0.0626334,10,0.00211809,-2.53296,0.100607,0.586442,0.721321,
2,1,0,1,0,60479.4,0.726921,0.726604,3.19879,91,0.0650865,10,0.00232425,-2.49501,0.104104,0.566742,0.725196,
2,1,0,1,0,60480.2,0.730916,0.730605,3.48324,91,0.0677606,10,0.00254487,-2.45802,0.105381,0.559873,0.729072,
2,1,0,1,0,60481,0.734911,0.734592,3.78417,91,0.0706686,10,0.00277982,-2.42203,0.109395,0.53933,0.732927,
2,1,0,1,0,60481.8,0.738907,0.738622,4.10235,91,0.0738243,10,0.00303008,-2.38697,0.111243,0.530372,0.736817,
2,1,0,0,0,60482.6,0.742902,0.742594,4.43757,91,0.0772405,10,0.00329532,-2.35285,0.114631,0.514695,0.740642,
2,1,0,1,0,60483.4,0.746897,0.746618,4.7932,91,0.0809326,10,0.00357869,-2.31937,0.115061,0.512773,0.744509,
2,1,0,1,0,60484.2,0.750892,0.750614,5.16624,91,0.0849153,10,0.00387786,-2.28683,0.11742,0.502471,0.748341,
2,1,0,1,0,60485,0.754887,0.754567,5.56037,91,0.0892052,10,0.00419567,-2.2549,0.119582,0.493385,0.752121,
2,1,0,1,0,60485.8,0.758883,0.758603,5.97671,91,0.0938197,10,0.00453395,-2.22354,0.124384,0.474338,0.755974,
2,1,0,0,0,60486.6,0.762878,0.762502,6.41531,91,0.0987746,10,0.00489169,-2.19278,0.123907,0.476162,0.75968,
2,1,0,1,0,60487.4,0.766873,0.766577,6.87621,91,0.104089,10,0.00527114,-2.16265,0.127376,0.463195,0.763551,
2,1,0,1,0,60488.2,0.770868,0.770559,7.36452,91,0.109783,10,0.0056748,-2.13286,0.127715,0.461966,0.767319,
2,1,0,1,0,60489,0.774863,0.774581,7.87703,91,0.115876,10,0.0061014,-2.10364,0.129605,0.455231,0.771115,
2,1,0,1,0,60489.8,0.778858,0.77854,8.41649,91,0.122389,10,0.00655257,-2.07487,0.130728,0.451319,0.774836,
2,1,0,0,0,60490.6,0.782854,0.782604,8.99129,91,0.129348,10,0.00703662,-2.04618,0.130141,0.453354,0.778648,
2,1,0,1,0,60491.4,0.786849,0.786595,9.59527,91,0.136777,10,0.00754759,-2.01794,0.13291,0.443908,0.782373,
2,1,0,0,0,60492.2,0.790844,0.790536,10.2361,91,0.144703,10,0.00809202,-1.98986,0.132943,0.443799,0.786033,
2,1,0,1,0,60493,0.794839,0.794536,10.9152,91,0.153157,10,0.00867253,-1.96197,0.131485,0.448719,0.789733,
2,1,0,1,0,60493.8,0.798834,0.798486,11.6434,91,0.162174,10,0.00929711,-1.93392,0.131697,0.447998,0.793363,
2,1,0,1,0,60494.6,0.802829,0.802556,12.426,91,0.171793,10,0.00997254,-1.90567,0.128449,0.459326,0.797088,
2,1,0,1,0,60495.4,0.806825,0.806543,13.2538,91,0.182057,10,0.0106898,-1.87766,0.129452,0.455766,0.800712,
2,1,0,0,0,60496.2,0.81082,0.810501,14.1241,91,0.193001,10,0.0114476,-1.85004,0.132541,0.445145,0.804286,
2,1,0,1,0,60497,0.814815,0.814501,15.0369,91,0.204656,10,0.0122476,-1.82284,0.134169,0.439743,0.807885,
2,1,0,1,0,60497.8,0.81881,0.818497,15.9825,91,0.217052,10,0.0130817,-1.79635,0.133569,0.441719,0.811465,
2,1,0,1,0,60498.6,0.822805,0.822519,16.9942,91,0.230231,10,0.013978,-1.7697,0.134151,0.439803,0.815042,
2,1,0,1,0,60499.4,0.826801,0.826562,18.09,91,0.244247,10,0.0149525,-1.74256,0.129948,0.454027,0.818602,
2,1,0,0,0,60500.2,0.830796,0.830505,19.1806,91,0.259142,10,0.0159296,-1.71714,0.140771,0.419121,0.822066,
2,1,0,1,0,60501,0.834791,0.834511,20.3073,91,0.27492,10,0.0169467,-1.69235,0.143118,0.412248,0.825576,
2,1,0,1,0,60501.8,0.838786,0.838553,21.4653,91,0.291619,10,0.0179998,-1.66826,0.145978,0.404171,0.829108,
2,1,0,1,0,60502.6,0.842781,0.842509,22.6214,91,0.309243,10,0.0190588,-1.64548,0.157474,0.374664,0.832556,
2,1,0,1,0,60503.4,0.846776,0.846483,23.8343,91,0.327811,10,0.0201754,-1.6228,0.154711,0.381356,0.835996,
2,1,0,1,0,60504.1,0.849723,0.849472,24.4401,91,0.34482,10,0.0207612,-1.6119,0.0346476,1.70286,0.838718,
2,1,0,0,0,60504.9,0.845728,0.84546,22.6458,91,0.363574,10,0.0191462,-1.64501,0.111042,0.53133,0.835496,
2,1,0,1,0,60505.7,0.841732,0.841463,21.1842,91,0.381066,10,0.0178258,-1.67399,0.113961,0.517721,0.832142,
2,1,0,1,0,60506.5,0.837737,0.837483,19.8132,91,0.397427,10,0.0165932,-1.70305,0.120932,0.487877,0.828766,
2,1,0,1,0,60507.3,0.833742,0.833505,18.545,91,0.412739,10,0.0154573,-1.73177,0.1204,0.490033,0.825345,
2,1,0,1,0,60508.1,0.829747,0.829483,17.3607,91,0.42707,10,0.0144004,-1.76043,0.119066,0.495523,0.821845,
2,1,0,0,0,60508.9,0.825752,0.82547,16.2359,91,0.44048,10,0.0134022,-1.78952,0.120912,0.487958,0.818327,
2,1,0,1,0,60509.7,0.821757,0.82148,15.1686,91,0.453015,10,0.0124607,-1.81905,0.119546,0.493532,0.814806,
2,1,0,1,0,60510.5,0.817761,0.817501,14.1743,91,0.464725,10,0.0115875,-1.8485,0.12401,0.475768,0.811264,
2,1,0,1,0,60511.3,0.813766,0.813472,13.2493,91,0.475671,10,0.0107779,-1.87781,0.121634,0.485062,0.807642,
2,1,0,1,0,60512.1,0.809771,0.809449,12.3778,91,0.4859,10,0.0100192,-1.90736,0.121568,0.485326,0.804003,
2,1,0,1,0,60512.9,0.805776,0.805453,11.5517,91,0.495449,10,0.00930438,-1.93735,0.120735,0.488673,0.800371,
2,1,0,1,0,60513.7,0.801781,0.801517,10.7625,91,0.504357,10,0.00862636,-1.96809,0.118729,0.496929,0.796781,
2,1,0,0,0,60514.5,0.797786,0.797489,10.0145,91,0.512647,10,0.00798642,-1.99937,0.11609,0.508227,0.793083,
2,1,0,1,0,60515.3,0.79379,0.793498,9.32376,91,0.520365,10,0.00739838,-2.03041,0.11852,0.497805,0.789395,
2,1,0,1,0,60516.1,0.789795,0.78951,8.67345,91,0.527546,10,0.00684778,-2.06181,0.118587,0.497526,0.785694,
2,1,0,1,0,60516.9,0.7858,0.785488,8.06397,91,0.534224,10,0.00633416,-2.09345,0.116628,0.505884,0.78194,
2,1,0,1,0,60517.7,0.781805,0.781466,7.48407,91,0.540428,10,0.00584854,-2.12586,0.115569,0.510518,0.778173,
2,1,0,0,0,60518.5,0.77781,0.777512,6.94464,91,0.546184,10,0.00539954,-2.15835,0.114733,0.514238,0.774457,
2,1,0,1,0,60519.3,0.773814,0.773506,6.43857,91,0.551523,10,0.00498028,-2.19121,0.114143,0.516893,0.770673,
2,1,0,1,0,60520.1,0.769819,0.769525,5.96512,91,0.556471,10,0.00459031,-2.22438,0.113962,0.517717,0.766901,
2,1,0,1,0,60520.9,0.765824,0.765558,5.52045,91,0.561052,10,0.00422622,-2.25803,0.113353,0.5205,0.763129,
2,1,0,1,0,60521.7,0.761829,0.761559,5.10482,91,0.565289,10,0.00388762,-2.29202,0.110701,0.532966,0.759313,
2,1,0,0,0,60522.5,0.757834,0.757509,4.71398,91,0.569205,10,0.00357088,-2.32661,0.109904,0.536831,0.755435,
2,1,0,1,0,60523.3,0.753839,0.753541,4.3438,91,0.572816,10,0.00327323,-2.36213,0.107162,0.550568,0.75163,
2,1,0,0,0,60524.1,0.749844,0.749541,3.99477,91,0.57614,10,0.00299424,-2.39851,0.103998,0.567321,0.747783,
2,1,0,1,0,60524.9,0.745848,0.745528,3.6675,91,0.579195,10,0.00273422,-2.43563,0.102808,0.573884,0.743915,
2,1,0,1,0,60525.7,0.741853,0.741535,3.36106,91,0.581996,10,0.00249234,-2.47352,0.100387,0.587723,0.740056,
2,1,0,1,0,60526.5,0.737858,0.737588,3.07133,91,0.584559,10,0.00226538,-2.51267,0.0976442,0.604235,0.736236,
2,1,0,1,0,60527.3,0.733863,0.733562,2.80175,91,0.586898,10,0.00205526,-2.55257,0.0956589,0.616775,0.732329,
2,1,0,0,0,60528.1,0.729868,0.729554,2.54496,91,0.589028,10,0.00185669,-2.59432,0.100031,0.589819,0.728434,
2,1,0,1,0,60528.9,0.725872,0.725559,2.328,91,0.590969,10,0.0016891,-2.63302,0.0901193,0.654688,0.724534,
2,1,0,1,0,60529.6,0.721877,0.721597,2.10367,91,0.592733,10,0.001518,-2.67702,0.0891729,0.661636,0.720672,
2,1,0,1,0,60530.4,0.717882,0.717604,1.89452,91,0.594325,10,0.00135952,-2.7225,0.0831555,0.709514,0.71677,
2,1,0,1,0,60531.2,0.713887,0.713598,1.69786,91,0.595753,10,0.00121159,-2.7701,0.0810774,0.7277,0.712851,
2,1,0,0,0,60532,0.709892,0.709573,1.51569,91,0.59703,10,0.00107549,-2.81939,0.0764992,0.771249,0.708906,
2,1,0,1,0,60532.8,0.705897,0.705635,1.34515,91,0.598166,10,0.000949185,-2.87123,0.0748523,0.788219,0.705043,
2,1,0,1,0,60533.6,0.701901,0.701589,1.18699,91,0.599171,10,0.000832779,-2.92555,0.0706998,0.834514,0.701067,
2,1,0,1,0,60534.4,0.697906,0.697603,1.04241,91,0.600055,10,0.000727189,-2.98196,0.0678421,0.869666,0.697145,
2,1,0,1,0,60535.2,0.693911,0.693611,0.909861,91,0.600828,10,0.00063109,-3.04103,0.06443,0.915722,0.693211,
2,1,0,0,0,60536,0.689916,0.68965,0.787508,91,0.6015,10,0.000543105,-3.10374,0.0611564,0.96474,0.689304,
2,1,0,1,0,60536.8,0.685921,0.685669,0.676619,91,0.602079,10,0.000463937,-3.16966,0.0594,0.993266,0.685371,
2,1,0,0,0,60537.6,0.681926,0.681626,0.576913,91,0.602573,10,0.000393239,-3.23889,0.0565632,1.04308,0.681372,
2,1,0,1,0,60538.4,0.67793,0.677696,0.489213,91,0.602993,10,0.000331538,-3.3105,0.0526324,1.12098,0.677481,
2,1,0,1,0,60539.2,0.673935,0.67365,0.410003,91,0.603346,10,0.000276199,-3.38721,0.0493098,1.19652,0.67347,
2,1,0,1,0,60540,0.66994,0.669654,0.339217,91,0.603639,10,0.000227158,-3.46952,0.0474201,1.2442,0.669504,
2,1,0,1,0,60540.8,0.665945,0.665622,0.276979,91,0.603879,10,0.000184363,-3.55755,0.0441354,1.33679,0.6655,
2,1,0,0,0,60541.6,0.66195,0.661657,0.223298,91,0.604072,10,0.000147747,-3.65112,0.0398725,1.47972,0.661558,
2,1,0,1,0,60542.4,0.657955,0.657661,0.176336,91,0.604226,10,0.00011597,-3.75366,0.0374603,1.575,0.657583,
2,1,0,1,0,60543.2,0.653959,0.653666,0.134755,91,0.604344,10,8.80847e-05,-3.87046,0.0318711,1.85121,0.653607,
2,1,0,1,0,60544,0.649964,0.649706,0.100096,91,0.604432,10,6.50331e-05,-3.99958,0.0279082,2.11408,0.649662,
2,1,0,1,0,60544.8,0.64597,0.645619,0.0698362,91,0.604494,10,4.50876e-05,-4.15592,0.0232141,2.54155,0.645589,
2,1,0,0,0,60545.6,0.641974,0.641657,0.0448232,91,0.604534,10,2.87612e-05,-4.3485,0.0170481,3.46079,0.641638,
2,1,0,1,0,60546.4,0.637979,0.637727,0.0231083,91,0.604555,10,1.47368e-05,-4.63623,0.00976661,6.04099,0.637716,
2,1,0,1,0,60547.2,0.633983,0.633681,0.0037344,91,0.60456,10,2.36642e-06,-5.42778,0.00735586,8.02082,0.633679,
2,0,0,1,0,60548,0.629988,0.629696,-0.010014,91,0.604551,10,-6.30581e-06,-4.99939,-0.00587674,-10.0396,0.629701,
2,0,0,1,0,60548.8,0.625993,0.625717,-0.0236831,91,0.604532,10,-1.48189e-05,-4.62556,-0.0178886,-3.29818,0.625727,
2,0,0,0,0,60549.6,0.621998,0.621702,-0.0341021,91,0.604503,10,-2.12013e-05,-4.46722,-0.0299054,-1.97289,0.621717,
2,0,0,1,0,60550.4,0.618003,0.617702,-0.0427519,91,0.604467,10,-2.64079e-05,-4.36904,-0.0487488,-1.21029,0.617721,
2,0,0,0,0,60551.2,0.614008,0.61369,-0.05053,91,0.604424,10,-3.10098e-05,-4.29645,-0.0722907,-0.81615,0.613713,
2,0,0,1,0,60552,0.610012,0.609691,-0.0570165,91,0.604375,10,-3.47625e-05,-4.244,-0.0947496,-0.622694,0.609716,
2,0,0,1,0,60552.8,0.606017,0.605724,-0.0619883,91,0.604321,10,-3.75478e-05,-4.20769,-0.113612,-0.519311,0.605751,
2,0,0,1,0,60553.6,0.602022,0.60171,-0.0672076,91,0.604263,10,-4.04395e-05,-4.17258,-0.171033,-0.344963,0.601739,
2,0,0,1,0,60554.4,0.598027,0.597739,-0.0717193,91,0.604202,10,-4.28694e-05,-4.14436,-0.136635,-0.431808,0.59777,
2,0,0,0,0,60555.2,0.594032,0.593719,-0.0746094,91,0.604137,10,-4.4297e-05,-4.12721,-0.186648,-0.316102,0.593751,
2,0,0,1,0,60556,0.590037,0.589703,-0.0785758,91,0.60407,10,-4.63364e-05,-4.10471,-0.294659,-0.200231,0.589737,
2,0,0,1,0,60556.8,0.586041,0.585707,-0.0805219,91,0.604001,10,-4.71622e-05,-4.09409,-0.252078,-0.234054,0.585742,
2,0,0,1,0,60557.6,0.582046,0.581698,-0.0823506,91,0.603929,10,-4.79032e-05,-4.08433,-0.533002,-0.110694,0.581734,
2,0,0,1,0,60558.4,0.578052,0.577711,-0.0846255,91,0.603856,10,-4.88891e-05,-4.0725,-0.352661,-0.167299,0.577748,
2,0,0,0,0,60559.2,0.574056,0.573736,-0.086722,91,0.603782,10,-4.97556e-05,-4.06187,-0.493981,-0.119438,0.573774,
2,0,0,1,0,60560,0.570061,0.569718,-0.0889775,91,0.603706,10,-5.06921e-05,-4.05072,-0.871083,-0.0677318,0.569758,
2,0,0,1,0,60560.8,0.566065,0.565719,-0.0896569,91,0.603629,10,-5.07206e-05,-4.04742,-0.387936,-0.152087,0.565759,
2,0,0,1,0,60561.6,0.56207,0.561707,-0.0909943,91,0.60355,10,-5.11121e-05,-4.04099,-0.609082,-0.0968671,0.561747,
2,0,0,1,0,60562.4,0.558075,0.557756,-0.0918753,91,0.603471,10,-5.1244e-05,-4.0368,-0.933546,-0.0631999,0.557797,
2,0,0,1,0,60563.2,0.55408,0.553739,-0.0935929,91,0.603391,10,-5.1826e-05,-4.02876,-0.455749,-0.129457,0.55378,
2,0,0,1,0,60564,0.550085,0.549742,-0.0938921,91,0.603309,10,-5.16165e-05,-4.02737,-1.88969,-0.0312221,0.549784,
2,0,0,0,0,60564.8,0.54609,0.545763,-0.0964524,91,0.603227,10,-5.26401e-05,-4.01569,-0.974693,-0.0605319,0.545805,
2,0,0,1,0,60565.6,0.542094,0.541768,-0.0965684,91,0.603144,10,-5.23176e-05,-4.01517,-0.786853,-0.0749822,0.54181,
2,0,0,1,0,60566.4,0.538099,0.537786,-0.0985343,91,0.60306,10,-5.29904e-05,-4.00641,-0.880084,-0.067039,0.53783,
2,0,0,1,0,60567.2,0.534104,0.533827,-0.0991922,91,0.602975,10,-5.29515e-05,-4.00352,-0.545077,-0.108242,0.533871,
2,0,0,1,0,60568,0.530109,0.529811,-0.100005,91,0.602889,10,-5.29838e-05,-3.99998,-1.86574,-0.0316228,0.529855,
2,0,0,0,0,60568.8,0.526114,0.525793,-0.102046,91,0.602802,10,-5.36549e-05,-3.99121,-0.956321,-0.0616948,0.525838,
2,0,0,1,0,60569.6,0.522119,0.521815,-0.102171,91,0.602715,10,-5.33142e-05,-3.99067,-0.524746,-0.112435,0.52186,
2,0,0,1,0,60570.4,0.518123,0.517753,-0.102905,91,0.602626,10,-5.32793e-05,-3.98756,2.73143,0.0216004,0.517798,
2,0,0,1,0,60571.2,0.514128,0.513807,-0.103629,91,0.602537,10,-5.32455e-05,-3.98452,-0.644741,-0.0915096,0.513853,
2,0,0,1,0,60572,0.510133,0.509787,-0.104517,91,0.602447,10,-5.32815e-05,-3.98081,-0.515253,-0.114507,0.509833,
2,0,0,0,0,60572.8,0.506138,0.505818,-0.106429,91,0.602356,10,-5.38336e-05,-3.97294,15.5933,0.00378368,0.505865,
2,0,0,1,0,60573.6,0.502143,0.501835,-0.108011,91,0.602264,10,-5.42039e-05,-3.96653,-0.58773,-0.100386,0.501883,
2,0,0,0,0,60574.4,0.498148,0.497824,-0.108542,91,0.602171,10,-5.40347e-05,-3.9644,-0.86197,-0.0684479,0.497872,
2,0,0,1,0,60575.2,0.494152,0.493884,-0.110306,91,0.602077,10,-5.44786e-05,-3.9574,-0.599952,-0.0983412,0.493933,
2,0,0,1,0,60576,0.490157,0.489888,-0.11088,91,0.601982,10,-5.43187e-05,-3.95515,-0.556572,-0.106006,0.489937,
2,0,0,1,0,60576.8,0.486162,0.485859,-0.112597,91,0.601886,10,-5.47063e-05,-3.94847,-0.965525,-0.0611066,0.485908,
2,0,0,1,0,60577.6,0.482167,0.481814,-0.114079,91,0.601789,10,-5.49647e-05,-3.9428,-1.14995,-0.0513064,0.481864,
2,0,0,0,0,60578.4,0.478172,0.47784,-0.114001,91,0.601691,10,-5.4474e-05,-3.94309,-0.552264,-0.106833,0.47789,
2,0,0,1,0,60579.2,0.474177,0.47384,-0.11667,91,0.601591,10,-5.52831e-05,-3.93304,33.9874,0.00173594,0.473891,
2,0,0,1,0,60580,0.470181,0.469812,-0.118145,91,0.601491,10,-5.55057e-05,-3.92759,-0.430396,-0.137083,0.469864,
2,0,0,1,0,60580.8,0.466186,0.465856,-0.118827,91,0.601389,10,-5.53564e-05,-3.92508,-0.661446,-0.0891985,0.465908,
2,0,0,1,0,60581.6,0.462191,0.461855,-0.121188,91,0.601287,10,-5.59715e-05,-3.91654,-0.654345,-0.0901665,0.461909,
2,0,0,0,0,60582.4,0.458196,0.457859,-0.12347,91,0.601182,10,-5.65321e-05,-3.90844,-0.826985,-0.0713435,0.457914,
2,0,0,1,0,60583.2,0.454201,0.453884,-0.124579,91,0.601077,10,-5.65445e-05,-3.90455,-2.66805,-0.0221135,0.453939,
2,0,0,1,0,60584,0.450205,0.449914,-0.125282,91,0.600971,10,-5.63661e-05,-3.90211,-0.528618,-0.111612,0.449969,
2,0,0,1,0,60584.8,0.44621,0.445904,-0.126625,91,0.600863,10,-5.64627e-05,-3.89748,-0.511707,-0.1153,0.44596,
2,0,0,1,0,60585.6,0.442215,0.44189,-0.128732,91,0.600753,10,-5.68853e-05,-3.89031,1.87201,0.031517,0.441947,
2,0,0,0,0,60586.4,0.43822,0.437876,-0.129977,91,0.600643,10,-5.69136e-05,-3.88613,-0.316779,-0.18625,0.437933,
2,0,0,1,0,60587.2,0.434225,0.433886,-0.132242,91,0.600531,10,-5.73781e-05,-3.87863,-0.582658,-0.10126,0.433944,
2,0,0,0,0,60588,0.43023,0.429878,-0.134732,91,0.600417,10,-5.79184e-05,-3.87053,-1.12345,-0.0525169,0.429938,
2,0,0,1,0,60588.8,0.426234,0.425897,-0.136362,91,0.600302,10,-5.80761e-05,-3.86531,-0.509994,-0.115688,0.425957,
2,0,0,1,0,60589.6,0.422239,0.421915,-0.138279,91,0.600185,10,-5.8342e-05,-3.85924,-1.59295,-0.0370382,0.421976,
2,0,0,1,0,60590.4,0.418244,0.417898,-0.139521,91,0.600067,10,-5.83057e-05,-3.85536,-0.431008,-0.136888,0.41796,
2,0,0,1,0,60591.2,0.414249,0.413949,-0.141403,91,0.599947,10,-5.85336e-05,-3.84954,-1.17446,-0.0502359,0.414011,
2,0,0,0,0,60592,0.410254,0.409906,-0.143801,91,0.599826,10,-5.8945e-05,-3.84224,-0.676073,-0.0872686,0.409969,
2,0,0,1,0,60592.8,0.406259,0.405952,-0.146125,91,0.599703,10,-5.93196e-05,-3.83528,-0.543246,-0.108606,0.406017,
2,0,0,1,0,60593.6,0.402263,0.401922,-0.147916,91,0.599578,10,-5.94506e-05,-3.82999,-0.571578,-0.103223,0.401987,
2,0,0,1,0,60594.4,0.398268,0.397901,-0.150186,91,0.599452,10,-5.97591e-05,-3.82337,-0.851687,-0.0692742,0.397967,
2,0,0,1,0,60595.2,0.394274,0.39393,-0.151681,91,0.599324,10,-5.97518e-05,-3.81907,-0.69568,-0.0848091,0.393997,
2,0,0,0,0,60596,0.390278,0.389914,-0.154065,91,0.599194,10,-6.0072e-05,-3.8123,-0.727272,-0.0811251,0.389982,
2,0,0,1,0,60596.8,0.386283,0.385939,-0.155876,91,0.599063,10,-6.01586e-05,-3.80722,-0.568895,-0.10371,0.386008,
2,0,0,1,0,60597.6,0.382287,0.381999,-0.157035,91,0.598929,10,-5.99871e-05,-3.804,-0.896665,-0.0657994,0.382068,
2,0,0,1,0,60598.4,0.378292,0.377967,-0.160284,91,0.598795,10,-6.05822e-05,-3.79511,-0.717176,-0.0822671,0.378038,
2,0,0,1,0,60599.2,0.374297,0.373971,-0.162348,91,0.598658,10,-6.07134e-05,-3.78955,-0.585834,-0.100711,0.374042,
2,0,0,1,0,60600,0.370303,0.369982,-0.16481,91,0.59852,10,-6.09767e-05,-3.78302,-1.04042,-0.056708,0.370054,
2,0,0,1,0,60600.8,0.366307,0.36602,-0.166482,91,0.59838,10,-6.09357e-05,-3.77863,-0.602161,-0.0979804,0.366093,
2,0,0,0,0,60601.6,0.362312,0.361976,-0.168161,91,0.598239,10,-6.08701e-05,-3.77428,-0.61281,-0.0962779,0.36205,
2,0,0,1,0,60602.4,0.358316,0.357956,-0.170733,91,0.598095,10,-6.1115e-05,-3.76768,-0.996855,-0.0591861,0.358031,
2,0,0,1,0,60603.2,0.354321,0.353988,-0.173085,91,0.59795,10,-6.12701e-05,-3.76174,-0.61775,-0.0955079,0.354065,
2,0,0,1,0,60604,0.350327,0.35002,-0.174001,91,0.597803,10,-6.09038e-05,-3.75945,-0.602775,-0.0978807,0.350096,
2,0,0,1,0,60604.8,0.346331,0.345978,-0.177401,91,0.597653,10,-6.13767e-05,-3.75104,-1.65644,-0.0356186,0.346056,
2,0,0,0,0,60605.6,0.342336,0.342013,-0.179561,91,0.597502,10,-6.14121e-05,-3.74579,-0.717184,-0.0822662,0.342092,
2,0,0,1,0,60606.4,0.338341,0.33801,-0.181166,91,0.597349,10,-6.1236e-05,-3.74192,-0.628613,-0.0938575,0.33809,
2,0,0,1,0,60607.2,0.334345,0.33405,-0.18505,91,0.597195,10,-6.18161e-05,-3.73271,-0.636696,-0.0926659,0.334132,
2,0,0,1,0,60608,0.33035,0.32999,-0.186435,91,0.597038,10,-6.15218e-05,-3.72947,-0.819672,-0.07198,0.330072,
2,0,0,1,0,60608.8,0.326355,0.325994,-0.189048,91,0.596879,10,-6.16284e-05,-3.72343,-0.668222,-0.088294,0.326077,
2,0,0,0,0,60609.6,0.32236,0.322021,-0.190996,91,0.596719,10,-6.15047e-05,-3.71898,-0.847799,-0.069592,0.322105,
2,0,0,1,0,60610.4,0.318365,0.318046,-0.192474,91,0.596556,10,-6.12156e-05,-3.71563,-0.606592,-0.0972647,0.31813,
2,0,0,0,0,60611.2,0.31437,0.314013,-0.196242,91,0.596392,10,-6.16225e-05,-3.70721,-0.908167,-0.064966,0.314099,
2,0,0,1,0,60611.9,0.310374,0.310056,-0.198291,91,0.596225,10,-6.14815e-05,-3.7027,-0.609274,-0.0968366,0.310144,
2,0,0,1,0,60612.7,0.306379,0.306008,-0.201042,91,0.596057,10,-6.15204e-05,-3.69671,-0.956966,-0.0616532,0.306097,
2,0,0,1,0,60613.5,0.302385,0.302085,-0.203598,91,0.595886,10,-6.1504e-05,-3.69123,-0.652236,-0.0904581,0.302175,
2,0,0,1,0,60614.3,0.298389,0.298049,-0.205734,91,0.595714,10,-6.13186e-05,-3.68669,-0.543403,-0.108575,0.298139,
2,0,0,0,0,60615.1,0.294394,0.294034,-0.20803,91,0.595539,10,-6.1168e-05,-3.68187,-2.8009,-0.0210647,0.294126,
2,0,0,1,0,60615.9,0.290398,0.290059,-0.211498,91,0.595362,10,-6.1347e-05,-3.67469,-0.601426,-0.0981002,0.290152,
2,0,0,1,0,60616.7,0.286403,0.286066,-0.21315,91,0.595183,10,-6.09751e-05,-3.67131,-0.711675,-0.0829031,0.28616,
2,0,0,1,0,60617.5,0.282408,0.282061,-0.216383,91,0.595002,10,-6.10331e-05,-3.66478,-1.04958,-0.0562127,0.282156,
2,0,0,1,0,60618.3,0.278414,0.278071,-0.217983,91,0.594819,10,-6.06147e-05,-3.66158,-0.586613,-0.100577,0.278167,
2,0,0,0,0,60619.1,0.274418,0.274053,-0.221353,91,0.594634,10,-6.06624e-05,-3.65491,-1.31746,-0.044783,0.27415,
2,0,0,1,0,60619.9,0.270423,0.270091,-0.22465,91,0.594447,10,-6.06758e-05,-3.64849,-0.516827,-0.114158,0.27019,
2,0,0,1,0,60620.7,0.266427,0.266111,-0.2275,91,0.594258,10,-6.05404e-05,-3.64302,-1.02406,-0.0576136,0.266211,
2,0,0,1,0,60621.5,0.262432,0.262089,-0.230089,91,0.594066,10,-6.03039e-05,-3.6381,-0.610032,-0.0967162,0.26219,
2,0,0,1,0,60622.3,0.258437,0.258122,-0.232674,91,0.593872,10,-6.00585e-05,-3.63325,-0.908801,-0.0649207,0.258225,
2,0,0,0,0,60623.1,0.254442,0.254069,-0.234028,91,0.593677,10,-5.94594e-05,-3.63073,-0.750195,-0.0786463,0.254172,
2,0,0,1,0,60623.9,0.250447,0.250085,-0.237169,91,0.593479,10,-5.93124e-05,-3.62494,-1.57676,-0.0374186,0.25019,
2,0,0,0,0,60624.7,0.246452,0.246112,-0.240252,91,0.593279,10,-5.91289e-05,-3.61933,-0.773007,-0.0763253,0.246218,
2,0,0,1,0,60625.5,0.242456,0.242156,-0.242081,91,0.593077,10,-5.86215e-05,-3.61604,-0.88714,-0.0665058,0.242263,
2,0,0,1,0,60626.3,0.238461,0.238136,-0.244161,91,0.592873,10,-5.81435e-05,-3.61232,-0.894856,-0.0659324,0.238243,
2,0,0,1,0,60627.1,0.234467,0.234119,-0.246996,91,0.592667,10,-5.78265e-05,-3.60731,-0.646244,-0.0912968,0.234228,
2,0,0,1,0,60627.9,0.230471,0.230114,-0.249442,91,0.592459,10,-5.73999e-05,-3.60303,-1.31435,-0.0448892,0.230223,
2,0,0,0,0,60628.7,0.226476,0.226126,-0.251831,91,0.59225,10,-5.69455e-05,-3.59889,-0.890601,-0.0662474,0.226236,
2,0,0,1,0,60629.5,0.222481,0.222158,-0.253453,91,0.592038,10,-5.63065e-05,-3.5961,-1.09253,-0.0540031,0.222269,
2,0,0,1,0,60630.3,0.218485,0.218151,-0.257131,91,0.591824,10,-5.60934e-05,-3.58985,-2.80866,-0.0210065,0.218264,
2,0,0,1,0,60631.1,0.21449,0.214167,-0.259998,91,0.591608,10,-5.56831e-05,-3.58503,-0.516548,-0.11422,0.214282,
2,0,0,1,0,60631.9,0.210496,0.210143,-0.262327,91,0.59139,10,-5.51261e-05,-3.58116,-0.797606,-0.0739714,0.210258,
2,0,0,0,0,60632.7,0.2065,0.2062,-0.266485,91,0.59117,10,-5.49493e-05,-3.57433,-0.85279,-0.0691846,0.206318,
2,0,0,1,0,60633.5,0.202505,0.202178,-0.268293,91,0.590947,10,-5.4243e-05,-3.57139,-0.700346,-0.0842441,0.202296,
2,0,0,1,0,60634.3,0.198509,0.19817,-0.271358,91,0.590722,10,-5.37748e-05,-3.56646,-1.3165,-0.0448159,0.198289,
2,0,0,1,0,60635.1,0.194514,0.194153,-0.27525,91,0.590494,10,-5.34407e-05,-3.56027,-0.581151,-0.101523,0.194274,
2,0,0,1,0,60635.9,0.190519,0.190162,-0.277232,91,0.590264,10,-5.27191e-05,-3.55716,-1.02846,-0.0573672,0.190284,
2,0,0,0,0,60636.7,0.186524,0.186191,-0.281997,91,0.59003,10,-5.25052e-05,-3.54976,-0.649664,-0.0908162,0.186315,
2,0,0,1,0,60637.5,0.182529,0.182224,-0.286427,91,0.589794,10,-5.21938e-05,-3.54299,-0.515183,-0.114522,0.18235,
2,0,0,0,0,60638.3,0.178534,0.178179,-0.291212,91,0.589553,10,-5.1888e-05,-3.53579,-0.574717,-0.102659,0.178307,
2,0,0,1,0,60639.1,0.174538,0.174212,-0.296573,91,0.589309,10,-5.16666e-05,-3.52787,-0.433239,-0.136184,0.174343,
2,0,0,1,0,60639.9,0.170543,0.170192,-0.302499,91,0.58906,10,-5.1483e-05,-3.51928,-0.421427,-0.140001,0.170325,
2,0,0,1,0,60640.7,0.166549,0.166237,-0.308408,91,0.588805,10,-5.12689e-05,-3.51088,-0.429664,-0.137317,0.166373,
2,0,0,1,0,60641.5,0.162553,0.16225,-0.316873,91,0.588545,10,-5.14126e-05,-3.49912,-0.316898,-0.18618,0.162389,
2,0,0,0,0,60642.3,0.158558,0.158173,-0.327662,91,0.588277,10,-5.18271e-05,-3.48457,-0.27062,-0.218018,0.158317,
2,0,0,1,0,60643.1,0.154563,0.154206,-0.340118,91,0.588,10,-5.2448e-05,-3.46837,-0.226972,-0.259943,0.154355,
2,0,0,1,0,60643.9,0.150567,0.150202,-0.357194,91,0.587711,10,-5.36513e-05,-3.4471,-0.153729,-0.383791,0.150359,
2,0,0,1,0,60644.7,0.146572,0.146191,-0.378912,91,0.587407,10,-5.53936e-05,-3.42146,-0.144094,-0.409454,0.146358,
2,0,0,1,0,60645.5,0.142578,0.14222,-0.409411,91,0.587082,10,-5.82265e-05,-3.38784,-0.113702,-0.518901,0.1424,
2,0,0,0,0,60646.3,0.138582,0.138221,-0.444487,91,0.586732,10,-6.14374e-05,-3.35214,-0.0993972,-0.593578,0.138417,
2,0,0,1,0,60647.1,0.134587,0.134232,-0.487971,91,0.586348,10,-6.55012e-05,-3.31161,-0.102027,-0.578276,0.134446,
2,0,0,1,0,60647.9,0.130591,0.130265,-0.532443,91,0.58593,10,-6.93589e-05,-3.27373,-0.111355,-0.529836,0.1305,
2,0,0,1,0,60648.7,0.126596,0.12627,-0.572478,91,0.585477,10,-7.22869e-05,-3.24224,-0.131211,-0.449657,0.126522,
2,0,0,1,0,60649.5,0.122602,0.122236,-0.610613,91,0.584992,10,-7.46386e-05,-3.21423,-0.191891,-0.307466,0.122504,
2,0,0,1,0,60650.3,0.118607,0.118263,-0.634333,91,0.584484,10,-7.50179e-05,-3.19768,-0.280349,-0.210452,0.118542,
2,0,0,1,0,60651.1,0.114611,0.114249,-0.648356,91,0.58396,10,-7.40743e-05,-3.18819,-0.662736,-0.0890249,0.114535,
2,0,0,0,0,60651.9,0.110616,0.110259,-0.654741,91,0.583428,10,-7.21912e-05,-3.18393,-1.97475,-0.0298773,0.110547,
2,0,0,1,0,60652.7,0.10662,0.106282,-0.656934,91,0.582893,10,-6.98206e-05,-3.18248,-3.51877,-0.0167672,0.106571,
2,0,0,1,0,60653.5,0.102625,0.102305,-0.656807,91,0.582358,10,-6.71947e-05,-3.18256,2.1682,0.0272115,0.102594,
2,0,0,1,0,60654.3,0.0986305,0.0982736,-0.653288,91,0.581823,10,-6.42009e-05,-3.1849,2.74103,0.0215247,0.098561,
2,0,0,1,0,60655.1,0.0946351,0.0943,-0.64854,91,0.581291,10,-6.11573e-05,-3.18806,1.25714,0.0469319,0.0945854,
2,0,0,0,0,60655.9,0.0906399,0.09028,-0.645613,91,0.580763,10,-5.8286e-05,-3.19003,0.8521,0.0692407,0.0905641,
2,0,0,1,0,60656.7,0.0866448,0.0862685,-0.638338,91,0.58024,10,-5.50684e-05,-3.19495,1.2239,0.0482065,0.0865494,
2,0,0,1,0,60657.5,0.0826492,0.08228,-0.631793,91,0.579721,10,-5.19839e-05,-3.19943,0.698155,0.0845085,0.082558,
2,0,0,1,0,60658.3,0.0786544,0.0783058,-0.624819,91,0.57921,10,-4.89269e-05,-3.20425,0.833657,0.0707725,0.0785807,
2,0,0,1,0,60659.1,0.0746596,0.0743202,-0.617356,91,0.578703,10,-4.58821e-05,-3.20946,0.79344,0.0743597,0.0745919,
2,0,0,0,0,60659.9,0.0706641,0.0703349,-0.609334,91,0.578202,10,-4.28574e-05,-3.21514,0.665891,0.0886031,0.070603,
2,0,0,1,0,60660.7,0.0666689,0.0662926,-0.602482,91,0.577708,10,-3.99401e-05,-3.22006,0.855872,0.0689355,0.0665577,
2,0,0,0,0,60661.5,0.0626737,0.0623299,-0.592253,91,0.57722,10,-3.6915e-05,-3.22749,0.690521,0.0854427,0.0625904,
2,0,0,1,0,60662.3,0.0586783,0.0582959,-0.585377,91,0.576738,10,-3.41251e-05,-3.23256,0.50462,0.11692,0.0585535,
2,0,0,1,0,60663.1,0.0546835,0.0542921,-0.577217,91,0.576262,10,-3.13383e-05,-3.23866,0.9123,0.0646717,0.0545461,
2,0,0,1,0,60663.9,0.0506886,0.0503563,-0.568272,91,0.575794,10,-2.86161e-05,-3.24544,0.517268,0.114061,0.0506063,
2,0,0,1,0,60664.7,0.046693,0.046357,-0.558855,91,0.575332,10,-2.59068e-05,-3.2527,0.548739,0.107519,0.0466028,
2,0,0,0,0,60665.5,0.0426979,0.0423624,-0.549326,91,0.574879,10,-2.32708e-05,-3.26017,0.555526,0.106206,0.0426041,
2,0,0,1,0,60666.3,0.0387022,0.0383737,-0.540026,91,0.574433,10,-2.07228e-05,-3.26759,0.472084,0.124978,0.0386114,
2,0,0,1,0,60667.1,0.0347074,0.0343541,-0.531167,91,0.573994,10,-1.82478e-05,-3.27477,0.594885,0.0991788,0.0345878,
2,0,0,1,0,60667.9,0.0307126,0.0303291,-0.51965,91,0.573564,10,-1.57605e-05,-3.28429,0.553335,0.106626,0.0305577,
2,0,0,1,0,60668.7,0.0267172,0.0263937,-0.513697,91,0.573139,10,-1.35584e-05,-3.28929,0.48367,0.121984,0.0266198,
2,0,0,0,0,60669.5,0.022722,0.0223727,-0.506625,91,0.572722,10,-1.13346e-05,-3.29531,0.85429,0.0690632,0.0225956,
2,0,0,1,0,60670.3,0.0187268,0.0183506,-0.5005,91,0.57231,10,-9.18446e-06,-3.3006,0.778996,0.0757385,0.0185708,
2,0,0,1,0,60671.1,0.0147313,0.0143568,-0.495743,91,0.571902,10,-7.11728e-06,-3.30474,1.58379,0.0372525,0.0145749,
2,0,0,1,0,60671.9,0.0107365,0.0103413,-0.491444,91,0.571498,10,-5.08217e-06,-3.30853,1.93857,0.0304348,0.0105575,
2,0,0,1,0,60672.7,0.00674163,0.00637464,-0.489107,91,0.571096,10,-3.11788e-06,-3.3106,1.43369,0.0411526,0.00658985,
2,0,0,0,0,60673.5,0.00274612,0.00244234,-0.489566,91,0.570694,10,-1.19568e-06,-3.31019,-1.32012,-0.044693,0.00265775,
2,0,0,1,0,60674,0.000274105,-8.6732e-05,-0.490448,91,0.570443,10,4.25375e-08,-3.30941, , ,0.000129065,