File: Figure_codes/Fig_3-5/workspace_calculate_alpha_eff/20221101_1-115_003_TrumpetPlot_ParaChange_from10_every3_16_CV_C01_21.csv
mode,ox/red,error,control changes,counter inc.,time/s,control/V,Ewe/V,<I>/mA,cycle number,(Q-Qo)/C,I Range,P/W,log(|I|),Tafel slope mV/dec,alpha_eff,E-IR/V,
2,0,0,1,0,15021,2.44065e-05,-0.000229887,-0.0427872,22,0.0000000E+000,10,9.83622e-09,-4.36869, , ,-0.000211061,
2,1,0,1,0,15021.8,0.00379485,0.00346457,0.211742,22,0.000148288,10,7.33594e-07,-3.67419,0.0587254,1.00468,0.0033714,
2,1,0,0,0,15022.6,0.00779002,0.00743579,0.234985,22,0.000341254,10,1.7473e-06,-3.62896,0.0994184,0.593451,0.0073324,
2,1,0,1,0,15023.4,0.0117852,0.0115099,0.248592,22,0.000549717,10,2.86126e-06,-3.60451,0.159107,0.370819,0.0114005,
2,1,0,1,0,15024.2,0.0157806,0.0154611,0.267389,22,0.00077085,10,4.13413e-06,-3.57286,0.156962,0.375887,0.0153435,
2,1,0,1,0,15025,0.0197754,0.0194407,0.280318,22,0.00100364,10,5.44959e-06,-3.55235,0.173964,0.339151,0.0193174,
2,1,0,1,0,15025.8,0.0237704,0.0234126,0.295575,22,0.00124821,10,6.92018e-06,-3.52933,0.191087,0.30876,0.0232826,
2,1,0,0,0,15026.6,0.0277659,0.0274573,0.310576,22,0.00150383,10,8.52758e-06,-3.50783,0.1943,0.303654,0.0273207,
2,1,0,1,0,15027.4,0.0317611,0.031437,0.322431,22,0.00177124,10,1.01363e-05,-3.49156,0.218715,0.269757,0.0312952,
2,1,0,1,0,15028.2,0.0357567,0.0354065,0.338148,22,0.00205026,10,1.19726e-05,-3.47089,0.256948,0.229619,0.0352577,
2,1,0,1,0,15029,0.0397516,0.0394306,0.352479,22,0.00234022,10,1.38984e-05,-3.45287,0.187293,0.315015,0.0392755,
2,1,0,1,0,15029.8,0.0437465,0.0434482,0.365544,22,0.0026424,10,1.58822e-05,-3.43706,0.269106,0.219245,0.0432874,
2,1,0,1,0,15030.6,0.0477413,0.0474082,0.379145,22,0.0029549,10,1.79746e-05,-3.42119,0.265377,0.222326,0.0472414,
2,1,0,1,0,15031.4,0.0517369,0.0513992,0.392026,22,0.00327756,10,2.01498e-05,-3.40669,0.231206,0.255184,0.0512267,
2,1,0,0,0,15032.2,0.0557321,0.0553884,0.405444,22,0.00361093,10,2.24569e-05,-3.39207,0.450666,0.130917,0.05521,
2,1,0,1,0,15033,0.0597277,0.059444,0.416486,22,0.00395327,10,2.47576e-05,-3.3804,0.301468,0.195709,0.0592608,
2,1,0,1,0,15033.8,0.0637226,0.0634191,0.426184,22,0.00430458,10,2.70282e-05,-3.3704,0.407542,0.144771,0.0632315,
2,1,0,1,0,15034.6,0.0677174,0.0673942,0.436181,22,0.00466484,10,2.9396e-05,-3.36033,0.515868,0.11437,0.0672022,
2,1,0,1,0,15035.4,0.0717128,0.0713741,0.445984,22,0.00503177,10,3.18317e-05,-3.35068,0.393299,0.150013,0.0711778,
2,1,0,0,0,15036.2,0.075708,0.0753591,0.4518,22,0.00540598,10,3.40472e-05,-3.34505,0.574904,0.102626,0.0751603,
2,1,0,1,0,15037,0.0797031,0.0794035,0.464332,22,0.00578686,10,3.68696e-05,-3.33317,0.477207,0.123636,0.0791992,
2,1,0,1,0,15037.8,0.0836986,0.0833812,0.470765,22,0.00617437,10,3.9253e-05,-3.3272,0.374417,0.157578,0.0831741,
2,1,0,1,0,15038.6,0.0876935,0.0873861,0.483631,22,0.00657075,10,4.22627e-05,-3.31549,0.375244,0.157231,0.0871733,
2,1,0,1,0,15039.4,0.0916883,0.0913433,0.497832,22,0.0069772,10,4.54736e-05,-3.30292,0.262134,0.225075,0.0911243,
2,1,0,0,0,15040.2,0.0956838,0.0953467,0.51583,22,0.00739756,10,4.91827e-05,-3.28749,0.213904,0.275825,0.0951197,
2,1,0,1,0,15041,0.099679,0.0993529,0.538758,22,0.00783437,10,5.35272e-05,-3.26861,0.245322,0.2405,0.0991158,
2,1,0,0,0,15041.8,0.103674,0.103358,0.562703,22,0.00828927,10,5.81599e-05,-3.24972,0.198076,0.297866,0.10311,
2,1,0,1,0,15042.6,0.10767,0.107352,0.584578,22,0.00876409,10,6.27555e-05,-3.23316,0.258054,0.228635,0.107094,
2,1,0,1,0,15043.4,0.111664,0.111337,0.606141,22,0.00925566,10,6.74861e-05,-3.21743,0.282737,0.208674,0.111071,
2,1,0,1,0,15044.2,0.115659,0.115369,0.622362,22,0.00976182,10,7.18011e-05,-3.20596,0.334727,0.176263,0.115095,
2,1,0,1,0,15045,0.119655,0.119342,0.637399,22,0.0102814,10,7.60682e-05,-3.19559,0.499128,0.118206,0.119061,
2,1,0,0,0,15045.8,0.12365,0.123344,0.652553,22,0.0108121,10,8.04882e-05,-3.18538,0.367583,0.160508,0.123056,
2,1,0,1,0,15046.6,0.127646,0.127338,0.667605,22,0.0113552,10,8.50118e-05,-3.17548,0.505672,0.116676,0.127045,
2,1,0,1,0,15047.4,0.131641,0.13135,0.677533,22,0.0119085,10,8.89938e-05,-3.16907,-8.72445,-0.00676261,0.131052,
2,1,0,1,0,15048.2,0.135635,0.135301,0.67018,22,0.0124619,10,9.06757e-05,-3.17381,-0.425144,-0.138776,0.135006,
2,1,0,1,0,15049,0.139631,0.139297,0.636976,22,0.013001,10,8.87291e-05,-3.19588,-0.134164,-0.43976,0.139017,
2,1,0,0,0,15049.8,0.143626,0.143299,0.584855,22,0.0135051,10,8.38094e-05,-3.23295,-0.0890165,-0.662799,0.143042,
2,1,0,1,0,15050.6,0.147621,0.147327,0.519795,22,0.0139605,10,7.65797e-05,-3.28417,-0.0731808,-0.806223,0.147098,
2,1,0,1,0,15051.3,0.151617,0.151278,0.459269,22,0.0143656,10,6.94773e-05,-3.33793,-0.0799447,-0.73801,0.151076,
2,1,0,1,0,15052.1,0.155612,0.155285,0.415257,22,0.0147276,10,6.44834e-05,-3.38168,-0.10058,-0.5866,0.155103,
2,1,0,1,0,15052.9,0.159606,0.159308,0.381142,22,0.0150591,10,6.07189e-05,-3.41891,-0.133683,-0.441341,0.15914,
2,1,0,0,0,15053.7,0.163602,0.16329,0.359236,22,0.0153695,10,5.86598e-05,-3.44462,-0.165687,-0.356094,0.163132,
2,1,0,1,0,15054.5,0.167597,0.167307,0.344596,22,0.0156647,10,5.76533e-05,-3.46269,-0.28034,-0.210458,0.167155,
2,1,0,0,0,15055.3,0.171592,0.171328,0.332063,22,0.0159496,10,5.68916e-05,-3.47878,-0.300325,-0.196454,0.171182,
2,1,0,1,0,15056.1,0.175588,0.175258,0.325285,22,0.0162261,10,5.70089e-05,-3.48774,-0.490479,-0.120291,0.175115,
2,1,0,1,0,15056.9,0.179582,0.179267,0.317736,22,0.0164967,10,5.69597e-05,-3.49793,-0.463595,-0.127266,0.179127,
2,1,0,1,0,15057.7,0.183577,0.183291,0.312809,22,0.016763,10,5.73351e-05,-3.50472,-0.786693,-0.0749975,0.183153,
2,1,0,1,0,15058.5,0.187573,0.187223,0.309355,22,0.0170255,10,5.79185e-05,-3.50954,-0.592197,-0.0996291,0.187087,
2,1,0,0,0,15059.3,0.191568,0.191259,0.306421,22,0.0172849,10,5.86059e-05,-3.51368,-0.7791,-0.0757284,0.191125,
2,1,0,1,0,15060.1,0.195563,0.19522,0.30252,22,0.0175422,10,5.90579e-05,-3.51925,-0.770344,-0.0765892,0.195087,
2,1,0,1,0,15060.9,0.199559,0.199243,0.300229,22,0.0177969,10,5.98186e-05,-3.52255,-3.09441,-0.0190666,0.199111,
2,1,0,1,0,15061.7,0.203553,0.203229,0.296528,22,0.0180497,10,6.02631e-05,-3.52793,-0.995247,-0.0592818,0.203099,
2,1,0,1,0,15062.5,0.207548,0.207213,0.29532,22,0.0183006,10,6.1194e-05,-3.52971,-1.00496,-0.0587088,0.207083,
2,1,0,0,0,15063.3,0.211544,0.211269,0.293339,22,0.0185497,10,6.19736e-05,-3.53263,-6.32143,-0.00933334,0.21114,
2,1,0,1,0,15064.1,0.215539,0.215244,0.292197,22,0.0187974,10,6.28935e-05,-3.53432,-1.32811,-0.0444239,0.215115,
2,1,0,1,0,15064.9,0.219535,0.219215,0.291327,22,0.0190434,10,6.38634e-05,-3.53562,-1.41492,-0.0416984,0.219087,
2,1,0,1,0,15065.7,0.223529,0.223244,0.287458,22,0.0192881,10,6.41734e-05,-3.54143,-1.03975,-0.0567443,0.223118,
2,1,0,1,0,15066.5,0.227524,0.227208,0.28748,22,0.0195314,10,6.53178e-05,-3.54139,-1.36052,-0.0433658,0.227082,
2,1,0,0,0,15067.3,0.23152,0.231214,0.284706,22,0.0197733,10,6.58281e-05,-3.5456,-3.43583,-0.017172,0.231089,
2,1,0,1,0,15068.1,0.235515,0.235206,0.282964,22,0.0200143,10,6.65548e-05,-3.54827,-1.30451,-0.0452278,0.235081,
2,1,0,0,0,15068.9,0.23951,0.239187,0.282147,22,0.020254,10,6.74858e-05,-3.54952,-1.86079,-0.031707,0.239062,
2,1,0,1,0,15069.7,0.243506,0.243218,0.28176,22,0.0204928,10,6.85291e-05,-3.55012,-5.135,-0.0114898,0.243094,
2,1,0,1,0,15070.5,0.2475,0.247233,0.280131,22,0.020731,10,6.92576e-05,-3.55264,-1.1501,-0.0512999,0.24711,
2,1,0,1,0,15071.3,0.251495,0.251213,0.278715,22,0.0209679,10,7.0017e-05,-3.55484,24.4062,0.00241742,0.251091,
2,1,0,1,0,15072.1,0.255491,0.255185,0.276819,22,0.021204,10,7.064e-05,-3.5578,-1.63924,-0.0359923,0.255063,
2,1,0,0,0,15072.9,0.259486,0.259165,0.276542,22,0.0214394,10,7.16699e-05,-3.55824,-1.39532,-0.0422841,0.259043,
2,1,0,1,0,15073.7,0.263481,0.263173,0.276158,22,0.0216736,10,7.26773e-05,-3.55884,-5.71358,-0.0103263,0.263051,
2,1,0,1,0,15074.5,0.267477,0.267194,0.273525,22,0.0219072,10,7.30844e-05,-3.563,-74.7211,-0.000789603,0.267074,
2,1,0,1,0,15075.3,0.271471,0.271175,0.273806,22,0.0221403,10,7.42493e-05,-3.56256,-2.32664,-0.0253584,0.271054,
2,1,0,1,0,15076.1,0.275466,0.275164,0.273026,22,0.0223724,10,7.51268e-05,-3.5638,-8.92368,-0.00661162,0.275043,
2,1,0,0,0,15076.9,0.279462,0.27916,0.272125,22,0.0226039,10,7.59664e-05,-3.56523,-1.44574,-0.0408096,0.27904,
2,1,0,1,0,15077.7,0.283457,0.283153,0.272053,22,0.0228343,10,7.70327e-05,-3.56535,-4.58525,-0.0128674,0.283033,
2,1,0,0,0,15078.5,0.287452,0.287192,0.270706,22,0.0230639,10,7.77447e-05,-3.5675,-1.21497,-0.048561,0.287073,
2,1,0,1,0,15079.3,0.291448,0.291124,0.268938,22,0.0232931,10,7.82944e-05,-3.57035,-5.14656,-0.011464,0.291006,
2,1,0,1,0,15080.1,0.295442,0.29514,0.26855,22,0.0235212,10,7.92597e-05,-3.57098,-4.37644,-0.0134813,0.295022,
2,1,0,1,0,15080.9,0.299437,0.299132,0.266776,22,0.0237489,10,7.98013e-05,-3.57385,-3.6042,-0.0163698,0.299014,
2,1,0,1,0,15081.7,0.303433,0.303127,0.267308,22,0.0239757,10,8.10282e-05,-3.57299,-7.71873,-0.00764375,0.303009,
2,1,0,0,0,15082.5,0.307428,0.307167,0.266014,22,0.0242019,10,8.17106e-05,-3.5751,-2.86505,-0.020593,0.30705,
2,1,0,1,0,15083.3,0.311424,0.311126,0.264809,22,0.0244277,10,8.2389e-05,-3.57707,-1.64455,-0.035876,0.31101,
2,1,0,1,0,15084.1,0.315418,0.315148,0.264268,22,0.0246525,10,8.32836e-05,-3.57796,-3.48073,-0.0169504,0.315032,
2,1,0,1,0,15084.9,0.319413,0.319116,0.263806,22,0.0248768,10,8.41845e-05,-3.57872,-8.47767,-0.00695946,0.319,
2,1,0,1,0,15085.7,0.323409,0.323119,0.262758,22,0.0251007,10,8.49022e-05,-3.58044,-1.3969,-0.0422363,0.323003,
2,1,0,0,0,15086.5,0.327404,0.32709,0.262068,22,0.0253237,10,8.57198e-05,-3.58159,-5.01034,-0.0117757,0.326975,
2,1,0,1,0,15087.3,0.331399,0.331088,0.260303,22,0.0255462,10,8.61831e-05,-3.58452,-4.12633,-0.0142984,0.330973,
2,1,0,1,0,15088.1,0.335395,0.335055,0.260394,22,0.0257681,10,8.72462e-05,-3.58437,-1.8294,-0.0322511,0.33494,
2,1,0,1,0,15088.9,0.339389,0.339073,0.259969,22,0.0259891,10,8.81485e-05,-3.58508,4.02853,0.0146455,0.338958,
2,1,0,1,0,15089.7,0.343384,0.343077,0.258363,22,0.02621,10,8.86384e-05,-3.58777,-2.16093,-0.0273031,0.342964,
2,1,0,0,0,15090.5,0.34738,0.347055,0.259783,22,0.0264302,10,9.0159e-05,-3.58539,-2.53852,-0.0232419,0.346941,
2,1,0,1,0,15091.3,0.351375,0.351088,0.258143,22,0.0266499,10,9.06309e-05,-3.58814,-11.1035,-0.00531362,0.350975,
2,1,0,0,0,15092.1,0.35537,0.355075,0.257524,22,0.0268691,10,9.14404e-05,-3.58918,-2.43237,-0.0242562,0.354962,
2,1,0,1,0,15092.9,0.359366,0.359057,0.256867,22,0.0270877,10,9.22298e-05,-3.59029,17.2874,0.00341289,0.358944,
2,1,0,1,0,15093.7,0.36336,0.363046,0.255383,22,0.0273059,10,9.27158e-05,-3.59281,-9.65372,-0.00611163,0.362934,
2,1,0,1,0,15094.5,0.367355,0.367073,0.255877,22,0.0275237,10,9.39257e-05,-3.59197,-1.81363,-0.0325314,0.366961,
2,1,0,1,0,15095.3,0.371351,0.371047,0.2553,22,0.0277408,10,9.47282e-05,-3.59295,3.63271,0.0162413,0.370935,
2,1,0,0,0,15096.1,0.375346,0.37508,0.254977,22,0.0279578,10,9.56368e-05,-3.5935,-1.21612,-0.0485149,0.374968,
2,1,0,1,0,15096.9,0.379342,0.379079,0.254958,22,0.0281739,10,9.66492e-05,-3.59353,-2.79773,-0.0210885,0.378967,
2,1,0,1,0,15097.7,0.383336,0.383053,0.253065,22,0.0283895,10,9.69372e-05,-3.59677,2.26325,0.0260687,0.382942,
2,1,0,1,0,15098.5,0.387331,0.387015,0.253008,22,0.0286048,10,9.79179e-05,-3.59687,-1.26088,-0.0467928,0.386904,
2,1,0,1,0,15099.3,0.391327,0.39104,0.252212,22,0.0288196,10,9.86251e-05,-3.59823,3.85832,0.0152916,0.390929,
2,1,0,0,0,15100.1,0.395322,0.395002,0.252118,22,0.0290341,10,9.9587e-05,-3.5984,-7.80029,-0.00756383,0.394891,
2,1,0,1,0,15100.9,0.399317,0.39899,0.253283,22,0.0292484,10,0.000101057,-3.59639,-3.42572,-0.0172226,0.398878,
2,1,0,1,0,15101.7,0.403313,0.403043,0.252106,22,0.0294622,10,0.000101609,-3.59842,-15.0058,-0.00393182,0.402932,
2,1,0,1,0,15102.5,0.407307,0.407028,0.252857,22,0.0296759,10,0.00010292,-3.59713,13.1065,0.00450158,0.406916,
2,1,0,1,0,15103.3,0.411302,0.410975,0.252834,22,0.0298894,10,0.000103908,-3.59716,-6.55495,-0.00900083,0.410864,
2,1,0,0,0,15104.1,0.415298,0.415018,0.251732,22,0.0301026,10,0.000104473,-3.59906,-3.82696,-0.0154169,0.414907,
2,1,0,1,0,15104.9,0.419293,0.418976,0.251219,22,0.0303158,10,0.000105255,-3.59995,-7.22066,-0.008171,0.418866,
2,1,0,0,0,15105.7,0.423288,0.422996,0.251538,22,0.0305288,10,0.0001064,-3.5994,3.39804,0.017363,0.422886,
2,1,0,1,0,15106.5,0.427283,0.426982,0.251248,22,0.0307418,10,0.000107278,-3.5999,-14.7115,-0.00401047,0.426871,
2,1,0,1,0,15107.3,0.431278,0.430962,0.250895,22,0.0309543,10,0.000108126,-3.60051,5.33782,0.0110532,0.430852,
2,1,0,1,0,15108.1,0.435273,0.434935,0.250481,22,0.0311668,10,0.000108943,-3.60123,-3.98439,-0.0148078,0.434825,
2,1,0,1,0,15108.9,0.439269,0.438944,0.250868,22,0.0313792,10,0.000110117,-3.60055,-3.45577,-0.0170729,0.438833,
2,1,0,0,0,15109.7,0.443264,0.442946,0.251004,22,0.0315915,10,0.000111181,-3.60032,6.1864,0.00953705,0.442835,
2,1,0,1,0,15110.5,0.447259,0.446941,0.250222,22,0.0318036,10,0.000111835,-3.60167,-4.82383,-0.0122309,0.446831,
2,1,0,1,0,15111.3,0.451254,0.45099,0.250253,22,0.032016,10,0.000112861,-3.60162,-4.05323,-0.0145563,0.45088,
2,1,0,1,0,15112.1,0.455249,0.45499,0.250839,22,0.0322278,10,0.000114129,-3.60061,2.5396,0.023232,0.454879,
2,1,0,1,0,15112.9,0.459244,0.458972,0.249678,22,0.03244,10,0.000114595,-3.60262,-309.609,-0.000190563,0.458862,
2,1,0,0,0,15113.7,0.46324,0.462929,0.25032,22,0.0326523,10,0.000115881,-3.6015,-27.1655,-0.00217188,0.462819,
2,1,0,1,0,15114.5,0.467235,0.466952,0.251058,22,0.0328643,10,0.000117232,-3.60023,32.8719,0.00179485,0.466842,
2,1,0,1,0,15115.3,0.471231,0.470931,0.251762,22,0.0330768,10,0.000118563,-3.59901,20.9525,0.00281589,0.470821,
2,1,0,1,0,15116.1,0.475225,0.474879,0.25228,22,0.0332892,10,0.000119803,-3.59812,2.25192,0.0261999,0.474768,
2,1,0,1,0,15116.9,0.47922,0.478941,0.251238,22,0.033502,10,0.000120328,-3.59992,-6.56519,-0.00898679,0.478831,
2,1,0,0,0,15117.7,0.483216,0.482933,0.252436,22,0.0337152,10,0.00012191,-3.59785,2.82098,0.0209148,0.482822,
2,1,0,1,0,15118.5,0.487211,0.486885,0.252511,22,0.0339285,10,0.000122944,-3.59772,1.25466,0.0470248,0.486774,
2,1,0,0,0,15119.3,0.491206,0.490912,0.253477,22,0.0341424,10,0.000124435,-3.59606,6.2243,0.00947898,0.490801,
2,1,0,1,0,15120.1,0.495201,0.494906,0.255716,22,0.0343568,10,0.000126556,-3.59224,2.67611,0.022047,0.494794,
2,1,0,1,0,15120.9,0.499196,0.498928,0.25505,22,0.034572,10,0.000127251,-3.59337,4.52853,0.0130285,0.498816,
2,1,0,1,0,15121.7,0.503191,0.502899,0.255884,22,0.0347879,10,0.000128684,-3.59196,2.26528,0.0260453,0.502786,
2,1,0,1,0,15122.5,0.507187,0.506863,0.257264,22,0.0350044,10,0.000130397,-3.58962,8.03729,0.00734079,0.50675,
2,1,0,0,0,15123.3,0.511182,0.510865,0.258634,22,0.0352216,10,0.000132127,-3.58731,1.30823,0.0450993,0.510751,
2,1,0,1,0,15124.1,0.515177,0.514865,0.259461,22,0.0354399,10,0.000133587,-3.58593,1.65135,0.0357284,0.514751,
2,1,0,1,0,15124.9,0.519173,0.518893,0.26096,22,0.035659,10,0.00013541,-3.58343,2.77827,0.0212362,0.518778,
2,1,0,1,0,15125.7,0.523167,0.522843,0.261381,22,0.035879,10,0.000136661,-3.58273,1.54307,0.0382356,0.522728,
2,1,0,1,0,15126.5,0.527162,0.526842,0.263045,22,0.0361,10,0.000138583,-3.57997,1.76537,0.0334208,0.526726,
2,1,0,0,0,15127.3,0.531158,0.530846,0.265233,22,0.036322,10,0.000140798,-3.57637,1.70961,0.0345109,0.530729,
2,1,0,1,0,15128.1,0.535153,0.534895,0.266526,22,0.0365456,10,0.000142563,-3.57426,0.975822,0.0604618,0.534777,
2,1,0,0,0,15128.9,0.539148,0.538865,0.268548,22,0.0367705,10,0.000144711,-3.57098,2.24666,0.0262612,0.538747,
2,1,0,1,0,15129.7,0.543143,0.542845,0.270358,22,0.036997,10,0.000146763,-3.56806,0.970845,0.0607718,0.542726,
2,1,0,1,0,15130.5,0.547138,0.546885,0.273305,22,0.0372252,10,0.000149466,-3.56335,1.83027,0.0322357,0.546764,
2,1,0,1,0,15131.3,0.551133,0.550874,0.275569,22,0.0374554,10,0.000151804,-3.55977,0.609324,0.0968286,0.550752,
2,1,0,1,0,15132.1,0.555129,0.554835,0.27821,22,0.0376881,10,0.000154361,-3.55563,1.04223,0.0566096,0.554712,
2,1,0,0,0,15132.9,0.559124,0.55882,0.281981,22,0.037923,10,0.000157576,-3.54978,0.725043,0.0813745,0.558696,
2,1,0,1,0,15133.7,0.56312,0.562825,0.286174,22,0.0381605,10,0.000161066,-3.54337,0.52897,0.111537,0.562699,
2,1,0,1,0,15134.4,0.567114,0.566846,0.28939,22,0.0384011,10,0.00016404,-3.53852,0.778379,0.0757986,0.566719,
2,1,0,1,0,15135.2,0.571109,0.570824,0.29402,22,0.0386448,10,0.000167834,-3.53162,0.527435,0.111862,0.570695,
2,1,0,1,0,15136,0.575105,0.574798,0.29873,22,0.0388924,10,0.000171709,-3.52472,0.560219,0.105316,0.574666,
2,1,0,0,0,15136.8,0.5791,0.578764,0.30405,22,0.039144,10,0.000175973,-3.51705,0.643367,0.091705,0.57863,
2,1,0,1,0,15137.6,0.583095,0.582765,0.309504,22,0.0393998,10,0.000180368,-3.50933,0.460706,0.128064,0.582629,
2,1,0,1,0,15138.4,0.58709,0.5868,0.315232,22,0.0396607,10,0.000184978,-3.50137,0.361569,0.163178,0.586661,
2,1,0,1,0,15139.2,0.591085,0.590788,0.324578,22,0.0399274,10,0.000191757,-3.48868,0.353781,0.16677,0.590645,
2,1,0,1,0,15140,0.59508,0.594798,0.332591,22,0.0402004,10,0.000197824,-3.47809,0.362227,0.162881,0.594652,
2,1,0,0,0,15140.8,0.599076,0.598827,0.342355,22,0.0404811,10,0.000205011,-3.46552,0.309472,0.190647,0.598676,
2,1,0,1,0,15141.6,0.603071,0.602787,0.354515,22,0.0407699,10,0.000213697,-3.45037,0.244656,0.241155,0.602631,
2,1,0,0,0,15142.4,0.607066,0.606783,0.367318,22,0.0410688,10,0.000222882,-3.43496,0.23745,0.248474,0.606621,
2,1,0,1,0,15143.2,0.611061,0.610739,0.383263,22,0.0413791,10,0.000234074,-3.4165,0.226956,0.259962,0.610571,
2,1,0,1,0,15144,0.615056,0.614761,0.40057,22,0.0417026,10,0.000246255,-3.39732,0.175695,0.335809,0.614585,
2,1,0,1,0,15144.8,0.619051,0.618797,0.420851,22,0.0420419,10,0.000260421,-3.37587,0.178633,0.330286,0.618612,
2,1,0,1,0,15145.6,0.623047,0.622759,0.445204,22,0.0423985,10,0.000277255,-3.35144,0.163796,0.360204,0.622563,
2,1,0,0,0,15146.4,0.627042,0.626743,0.47282,22,0.0427756,10,0.000296336,-3.3253,0.138474,0.426074,0.626535,
2,1,0,1,0,15147.2,0.631037,0.630774,0.506037,22,0.0431774,10,0.000319195,-3.29582,0.135717,0.434729,0.630551,
2,1,0,1,0,15148,0.635032,0.634751,0.544776,22,0.0436073,10,0.000345797,-3.26378,0.11693,0.504577,0.634511,
2,1,0,1,0,15148.8,0.639027,0.638785,0.588532,22,0.0440701,10,0.000375945,-3.23023,0.111026,0.531408,0.638526,
2,1,0,1,0,15149.6,0.643022,0.642722,0.644167,22,0.0445727,10,0.00041402,-3.191,0.101364,0.582062,0.642438,
2,1,0,0,0,15150.4,0.647018,0.64677,0.706675,22,0.0451224,10,0.000457056,-3.15078,0.0932237,0.632887,0.646459,
2,1,0,1,0,15151.2,0.651013,0.650729,0.779976,22,0.0457271,10,0.000507553,-3.10792,0.088026,0.670257,0.650386,
2,1,0,1,0,15152,0.655008,0.654737,0.869219,22,0.0463962,10,0.00056911,-3.06087,0.0836199,0.705573,0.654355,
2,1,0,1,0,15152.8,0.659003,0.658697,0.97093,22,0.0471411,10,0.000639549,-3.01281,0.0796412,0.740823,0.65827,
2,1,0,1,0,15153.6,0.662998,0.662739,1.09048,22,0.0479745,10,0.000722704,-2.96238,0.0771487,0.764757,0.66226,
2,1,0,0,0,15154.4,0.666994,0.666735,1.22954,22,0.0489106,10,0.00081978,-2.91026,0.0734867,0.802866,0.666194,
2,1,0,1,0,15155.2,0.670989,0.670711,1.39003,22,0.0499668,10,0.000932305,-2.85698,0.0735718,0.801938,0.670099,
2,1,0,0,0,15156,0.674984,0.674653,1.57415,22,0.0511609,10,0.00106201,-2.80295,0.0712207,0.828411,0.67396,
2,1,0,1,0,15156.8,0.67898,0.678733,1.78658,22,0.0525131,10,0.00121261,-2.74798,0.0716157,0.823841,0.677947,
2,1,0,1,0,15157.6,0.682974,0.68268,2.00639,22,0.0540424,10,0.00136973,-2.69758,0.0749966,0.786702,0.681798,
2,1,0,1,0,15158.4,0.686969,0.686681,2.28159,22,0.0557655,10,0.00156672,-2.64176,0.072532,0.813434,0.685677,
2,1,0,1,0,15159.2,0.690965,0.690715,2.57856,22,0.0577159,10,0.00178105,-2.58862,0.0724585,0.814259,0.689581,
2,1,0,0,0,15160,0.69496,0.694703,2.90987,22,0.0599174,10,0.0020215,-2.53613,0.0747011,0.789815,0.693423,
2,1,0,1,0,15160.8,0.698955,0.698733,3.27197,22,0.0623952,10,0.00228624,-2.48519,0.0753048,0.783482,0.697293,
2,1,0,1,0,15161.6,0.70295,0.702665,3.66953,22,0.0651776,10,0.00257845,-2.43539,0.0783215,0.753305,0.70105,
2,1,0,1,0,15162.4,0.706945,0.706674,4.10142,22,0.0682909,10,0.00289837,-2.38707,0.0794503,0.742603,0.704869,
2,1,0,1,0,15163.2,0.71094,0.710646,4.56399,22,0.0717613,10,0.00324338,-2.34066,0.0826658,0.713717,0.708638,
2,1,0,0,0,15164,0.714936,0.714693,5.06151,22,0.0756166,10,0.00361743,-2.29572,0.086302,0.683646,0.712466,
2,1,0,1,0,15164.8,0.718931,0.718678,5.59009,22,0.0798811,10,0.00401747,-2.25258,0.0889466,0.66332,0.716218,
2,1,0,1,0,15165.6,0.722927,0.722658,6.14971,22,0.0845813,10,0.00444413,-2.21115,0.0922579,0.639512,0.719952,
2,1,0,1,0,15166.4,0.726921,0.726659,6.74055,22,0.0897407,10,0.00489808,-2.1713,0.0953929,0.618495,0.723693,
2,1,0,1,0,15167.2,0.730916,0.730656,7.36126,22,0.0953834,10,0.00537855,-2.13305,0.0993778,0.593694,0.727417,
2,1,0,1,0,15168,0.734911,0.73462,8.00931,22,0.101534,10,0.0058838,-2.0964,0.102099,0.577868,0.731096,
2,1,0,1,0,15168.8,0.738907,0.738642,8.68734,22,0.108214,10,0.00641684,-2.06111,0.107584,0.54841,0.73482,
2,1,0,0,0,15169.6,0.742902,0.742632,9.3902,22,0.115446,10,0.00697346,-2.02733,0.109561,0.538515,0.7385,
2,1,0,1,0,15170.4,0.746897,0.746653,10.1251,22,0.123253,10,0.00755994,-1.9946,0.115923,0.508961,0.742198,
2,1,0,1,0,15171.2,0.750892,0.750627,10.8831,22,0.131655,10,0.00816915,-1.96325,0.117667,0.501414,0.745838,
2,1,0,1,0,15172,0.754887,0.754633,11.6773,22,0.140678,10,0.0088121,-1.93266,0.119424,0.49404,0.749495,
2,1,0,1,0,15172.8,0.758883,0.758565,12.5096,22,0.15035,10,0.00948934,-1.90276,0.123635,0.477212,0.753061,
2,1,0,0,0,15173.6,0.762878,0.762541,13.3815,22,0.160702,10,0.010204,-1.87349,0.123196,0.47891,0.756653,
2,1,0,1,0,15174.4,0.766873,0.766612,14.3084,22,0.171773,10,0.010969,-1.84441,0.123328,0.478398,0.760316,
2,1,0,1,0,15175.2,0.770868,0.770588,15.3058,22,0.183615,10,0.0117945,-1.81514,0.120433,0.489901,0.763854,
2,1,0,1,0,15176,0.774863,0.774574,16.3483,22,0.196269,10,0.012663,-1.78653,0.124413,0.474227,0.767381,
2,1,0,1,0,15176.8,0.778858,0.778558,17.4503,22,0.20978,10,0.0135861,-1.7582,0.126033,0.468133,0.77088,
2,1,0,0,0,15177.6,0.782854,0.782587,18.6033,22,0.224192,10,0.0145587,-1.73041,0.12487,0.472493,0.774401,
2,1,0,1,0,15178.4,0.786849,0.786573,19.82,22,0.239557,10,0.0155899,-1.7029,0.123082,0.479357,0.777852,
2,1,0,0,0,15179.2,0.790844,0.790587,21.1008,22,0.255916,10,0.016682,-1.6757,0.129797,0.454556,0.781303,
2,1,0,1,0,15180,0.794839,0.794555,22.4315,22,0.273319,10,0.0178231,-1.64914,0.132234,0.446179,0.784685,
2,1,0,1,0,15180.8,0.798834,0.798569,23.779,22,0.291791,10,0.0189892,-1.62381,0.133525,0.441865,0.788106,
2,1,0,1,0,15181.6,0.802829,0.802562,25.2239,22,0.311377,10,0.0202437,-1.59819,0.133054,0.443431,0.791464,
2,1,0,1,0,15182.4,0.806825,0.80657,26.6472,22,0.332116,10,0.0214928,-1.57435,0.14728,0.400597,0.794845,
2,1,0,0,0,15183.2,0.81082,0.810599,28.1085,22,0.353995,10,0.0227847,-1.55116,0.142379,0.414387,0.798232,
2,1,0,1,0,15184,0.814815,0.814527,29.5874,22,0.37706,10,0.0240997,-1.52889,0.126746,0.465499,0.801508,
2,1,0,1,0,15184.8,0.81881,0.818476,31.3978,22,0.40149,10,0.0256984,-1.5031,0.148044,0.39853,0.804661,
2,1,0,1,0,15185.6,0.822805,0.822558,32.9769,22,0.427222,10,0.0271254,-1.48179,0.168451,0.35025,0.808048,
2,1,0,1,0,15186.4,0.826801,0.826555,34.4984,22,0.454184,10,0.0285148,-1.4622,0.169916,0.34723,0.811376,
2,1,0,0,0,15187.2,0.830796,0.83052,36.0438,22,0.482379,10,0.0299351,-1.44317,0.1744,0.338303,0.814661,
2,1,0,1,0,15188,0.834791,0.834608,37.66,22,0.511834,10,0.0314314,-1.42412,0.177362,0.332654,0.818038,
2,1,0,1,0,15188.8,0.838786,0.838532,39.2571,22,0.542579,10,0.0329183,-1.40608,0.198289,0.297546,0.821259,
2,1,0,1,0,15189.6,0.842781,0.842526,40.7224,22,0.574536,10,0.0343097,-1.39017,0.197789,0.298298,0.824608,
2,1,0,1,0,15190.4,0.846776,0.84657,42.289,22,0.607728,10,0.0358006,-1.37377,0.231631,0.254715,0.827963,
2,1,0,1,0,15191.1,0.849723,0.849514,43.1739,22,0.637728,10,0.0366768,-1.36478,0.0430684,1.36992,0.830518,
2,1,0,0,0,15191.9,0.845728,0.845527,40.8165,22,0.671161,10,0.0345114,-1.38916,0.149908,0.393575,0.827568,
2,1,0,1,0,15192.7,0.841732,0.841501,38.9157,22,0.702982,10,0.0327476,-1.40987,0.153624,0.384054,0.824378,
2,1,0,1,0,15193.5,0.837737,0.837487,37.082,22,0.733322,10,0.0310556,-1.43084,0.158002,0.373414,0.821171,
2,1,0,1,0,15194.3,0.833742,0.83347,35.3985,22,0.762263,10,0.0295036,-1.45101,0.155656,0.379042,0.817895,
2,1,0,1,0,15195.1,0.829747,0.829486,33.6934,22,0.789843,10,0.0279482,-1.47246,0.153025,0.385558,0.81466,
2,1,0,0,0,15195.9,0.825752,0.8255,32.0634,22,0.816098,10,0.0264683,-1.49399,0.149519,0.3946,0.811392,
2,1,0,1,0,15196.7,0.821757,0.821499,30.4508,22,0.841056,10,0.0250153,-1.5164,0.141303,0.417542,0.808101,
2,1,0,1,0,15197.5,0.817761,0.817476,28.8561,22,0.864733,10,0.0235891,-1.53976,0.143053,0.412434,0.804779,
2,1,0,1,0,15198.3,0.813766,0.813461,27.2815,22,0.887149,10,0.0221925,-1.56413,0.132771,0.444375,0.801457,
2,1,0,1,0,15199.1,0.809771,0.80953,25.7544,22,0.908314,10,0.0208489,-1.58915,0.131184,0.449751,0.798198,
2,1,0,1,0,15199.9,0.805776,0.805548,24.2743,22,0.928284,10,0.0195541,-1.61485,0.127461,0.462886,0.794867,
2,1,0,1,0,15200.7,0.801781,0.801492,22.8074,22,0.947073,10,0.0182799,-1.64192,0.122354,0.482206,0.791456,
2,1,0,0,0,15201.5,0.797786,0.797535,21.4169,22,0.964719,10,0.0170807,-1.66924,0.125014,0.471948,0.788112,
2,1,0,1,0,15202.3,0.79379,0.793545,20.0715,22,0.981286,10,0.0159277,-1.69742,0.118633,0.49733,0.784714,
2,1,0,1,0,15203.1,0.789795,0.789484,18.7743,22,0.996792,10,0.014822,-1.72644,0.117143,0.503656,0.781224,
2,1,0,1,0,15203.9,0.7858,0.78554,17.5288,22,1.01128,10,0.0137696,-1.75625,0.113094,0.521688,0.777827,
2,1,0,1,0,15204.7,0.781805,0.781575,16.314,22,1.02479,10,0.0127506,-1.78744,0.11149,0.529194,0.774397,
2,1,0,0,0,15205.5,0.77781,0.777508,15.1836,22,1.03735,10,0.0118054,-1.81862,0.11012,0.535781,0.770828,
2,1,0,1,0,15206.3,0.773815,0.773547,14.0866,22,1.04903,10,0.0108967,-1.85119,0.106887,0.551985,0.767349,
2,1,0,1,0,15207.1,0.769819,0.769574,13.0452,22,1.05986,10,0.0100393,-1.88455,0.103249,0.571435,0.763834,
2,1,0,1,0,15207.9,0.765824,0.765558,12.0582,22,1.06987,10,0.00923125,-1.91872,0.105099,0.561376,0.760253,
2,1,0,1,0,15208.7,0.761829,0.761517,11.1388,22,1.07912,10,0.00848237,-1.95316,0.102694,0.574521,0.756616,
2,1,0,0,0,15209.5,0.757834,0.75758,10.2582,22,1.08765,10,0.00777143,-1.98893,0.0996328,0.592174,0.753066,
2,1,0,1,0,15210.3,0.753839,0.753581,9.4108,22,1.09549,10,0.0070918,-2.02637,0.0958639,0.615456,0.749441,
2,1,0,0,0,15211.1,0.749844,0.749593,8.61727,22,1.10268,10,0.00645944,-2.06463,0.0940506,0.627322,0.745802,
2,1,0,1,0,15211.9,0.745848,0.745599,7.87646,22,1.10926,10,0.00587268,-2.10367,0.093103,0.633707,0.742134,
2,1,0,1,0,15212.7,0.741853,0.741533,7.17951,22,1.11526,10,0.00532384,-2.14391,0.09128,0.646363,0.738374,
2,1,0,1,0,15213.5,0.737858,0.737562,6.52641,22,1.12072,10,0.00481363,-2.18533,0.0868888,0.679029,0.734691,
2,1,0,1,0,15214.3,0.733863,0.7336,5.90719,22,1.12567,10,0.00433351,-2.22862,0.0845787,0.697575,0.731001,
2,1,0,0,0,15215.1,0.729868,0.729602,5.32956,22,1.13015,10,0.00388846,-2.27331,0.0828365,0.712247,0.727257,
2,1,0,1,0,15215.9,0.725872,0.725614,4.79417,22,1.13418,10,0.00347871,-2.31929,0.0801688,0.735947,0.723504,
2,1,0,1,0,15216.7,0.721877,0.721647,4.29283,22,1.1378,10,0.00309791,-2.36726,0.0788074,0.748661,0.719758,
2,1,0,1,0,15217.4,0.717882,0.717627,3.82018,22,1.14102,10,0.00274147,-2.41792,0.0732208,0.805782,0.715946,
2,1,0,1,0,15218.2,0.713887,0.713616,3.39907,22,1.1439,10,0.00242563,-2.46864,0.074226,0.79487,0.71212,
2,1,0,0,0,15219,0.709892,0.709618,3.01047,22,1.14644,10,0.00213628,-2.52137,0.0714535,0.825712,0.708293,
2,1,0,1,0,15219.8,0.705897,0.7056,2.65408,22,1.14869,10,0.00187272,-2.57609,0.0684789,0.861579,0.704432,
2,1,0,1,0,15220.6,0.701901,0.701613,2.32941,22,1.15067,10,0.00163435,-2.63275,0.0667437,0.883979,0.700588,
2,1,0,1,0,15221.4,0.697906,0.697641,2.03234,22,1.1524,10,0.00141785,-2.692,0.0646773,0.912221,0.696747,
2,1,0,1,0,15222.2,0.693911,0.693607,1.76599,22,1.15391,10,0.0012249,-2.75301,0.0611472,0.964884,0.69283,
2,1,0,0,0,15223,0.689916,0.689637,1.52421,22,1.15521,10,0.00105115,-2.81696,0.0613517,0.961668,0.688966,
2,1,0,1,0,15223.8,0.685921,0.68566,1.30886,22,1.15633,10,0.00089743,-2.88311,0.056834,1.03811,0.685084,
2,1,0,0,0,15224.6,0.681926,0.681652,1.11519,22,1.15728,10,0.000760168,-2.95265,0.0567637,1.0394,0.681161,
2,1,0,1,0,15225.4,0.67793,0.67763,0.946116,22,1.1581,10,0.000641117,-3.02406,0.0527242,1.11903,0.677214,
2,1,0,1,0,15226.2,0.673935,0.673643,0.798022,22,1.15878,10,0.000537582,-3.09799,0.0515583,1.14434,0.673292,
2,1,0,1,0,15227,0.66994,0.669714,0.666436,22,1.15935,10,0.000446321,-3.17624,0.0492338,1.19836,0.669421,
2,1,0,1,0,15227.8,0.665945,0.665673,0.552204,22,1.15983,10,0.000367587,-3.2579,0.0488073,1.20883,0.66543,
2,1,0,0,0,15228.6,0.66195,0.661672,0.454094,22,1.16022,10,0.000300461,-3.34285,0.0446529,1.3213,0.661472,
2,1,0,1,0,15229.4,0.657955,0.657658,0.369083,22,1.16054,10,0.000242731,-3.43288,0.043589,1.35355,0.657496,
2,1,0,1,0,15230.2,0.653959,0.653686,0.297735,22,1.16079,10,0.000194625,-3.52617,0.0398821,1.47936,0.653555,
2,1,0,1,0,15231,0.649964,0.649676,0.235361,22,1.16099,10,0.000152908,-3.62827,0.0544716,1.08313,0.649573,
2,1,0,1,0,15231.8,0.64597,0.645666,0.190054,22,1.16115,10,0.000122712,-3.72112,0.0306197,1.92686,0.645583,
2,1,0,0,0,15232.6,0.641974,0.641662,0.14207,22,1.16128,10,9.11608e-05,-3.8475,0.0305806,1.92932,0.641599,
2,1,0,1,0,15233.4,0.637979,0.637705,0.105971,22,1.16136,10,6.75781e-05,-3.97481,0.0279102,2.11393,0.637659,
2,1,0,1,0,15234.2,0.633983,0.633746,0.0742801,22,1.16143,10,4.70747e-05,-4.12913,0.0242226,2.43574,0.633714,
2,1,0,1,0,15235,0.629988,0.629708,0.0474112,22,1.16146,10,2.98552e-05,-4.32412,0.0171809,3.43404,0.629687,
2,1,0,1,0,15235.8,0.625993,0.625693,0.0254856,22,1.16148,10,1.59461e-05,-4.59371,0.0109739,5.37641,0.625682,
2,1,0,0,0,15236.6,0.621998,0.621755,0.00630357,22,1.16148,10,3.91927e-06,-5.20041,0.00476631,12.3785,0.621752,
2,0,0,1,0,15237.4,0.618003,0.617749,-0.00895384,22,1.16147,10,-5.53122e-06,-5.04799,-0.00444309,-13.2791,0.617752,
2,0,0,0,0,15238.2,0.614008,0.613713,-0.0218011,22,1.16145,10,-1.33796e-05,-4.66152,-0.02068,-2.853,0.613722,
2,0,0,1,0,15239,0.610012,0.609699,-0.0327111,22,1.16142,10,-1.99439e-05,-4.48531,-0.0288988,-2.04161,0.609713,
2,0,0,1,0,15239.8,0.606017,0.605733,-0.0408445,22,1.16138,10,-2.47409e-05,-4.38887,-0.0456462,-1.29255,0.605751,
2,0,0,1,0,15240.6,0.602022,0.601716,-0.0488304,22,1.16133,10,-2.9382e-05,-4.31131,-0.0700717,-0.841995,0.601738,
2,0,0,1,0,15241.4,0.598027,0.597739,-0.0549616,22,1.16128,10,-3.28527e-05,-4.25994,-0.0757564,-0.778812,0.597763,
2,0,0,0,0,15242.2,0.594032,0.593701,-0.0610275,22,1.16122,10,-3.62321e-05,-4.21447,-0.0992665,-0.59436,0.593728,
2,0,0,1,0,15243,0.590037,0.589747,-0.0666885,22,1.16116,10,-3.93294e-05,-4.17595,-0.144996,-0.406907,0.589777,
2,0,0,1,0,15243.8,0.586041,0.585726,-0.0699043,22,1.1611,10,-4.09448e-05,-4.1555,-0.169232,-0.348635,0.585757,
2,0,0,1,0,15244.6,0.582046,0.581745,-0.0734028,22,1.16103,10,-4.27017e-05,-4.13429,-0.230828,-0.255602,0.581777,
2,0,0,1,0,15245.4,0.578052,0.577802,-0.0755955,22,1.16096,10,-4.36793e-05,-4.1215,-0.251648,-0.234454,0.577836,
2,0,0,0,0,15246.2,0.574056,0.573761,-0.0777292,22,1.16088,10,-4.4598e-05,-4.10942,-0.259905,-0.227006,0.573795,
2,0,0,1,0,15247,0.570061,0.56978,-0.0810154,22,1.16081,10,-4.61609e-05,-4.09143,-0.447697,-0.131786,0.569816,
2,0,0,1,0,15247.8,0.566065,0.565774,-0.0832183,22,1.16073,10,-4.70828e-05,-4.07978,-0.396278,-0.148885,0.565811,
2,0,0,1,0,15248.6,0.56207,0.561785,-0.0856782,22,1.16066,10,-4.81327e-05,-4.06713,-0.55222,-0.106841,0.561823,
2,0,0,1,0,15249.4,0.558075,0.557775,-0.0866041,22,1.16058,10,-4.83056e-05,-4.06246,-0.383271,-0.153938,0.557814,
2,0,0,1,0,15250.2,0.55408,0.553797,-0.0877617,22,1.1605,10,-4.86022e-05,-4.0567,-0.44277,-0.133252,0.553836,
2,0,0,1,0,15251,0.550085,0.549785,-0.0899331,22,1.16042,10,-4.94439e-05,-4.04608,-0.787056,-0.0749629,0.549825,
2,0,0,0,0,15251.8,0.54609,0.545774,-0.0914584,22,1.16033,10,-4.99156e-05,-4.03878,-0.540605,-0.109137,0.545815,
2,0,0,1,0,15252.6,0.542094,0.541793,-0.0910885,22,1.16025,10,-4.93511e-05,-4.04054,-0.451388,-0.130708,0.541833,
2,0,0,1,0,15253.4,0.538099,0.537828,-0.0941011,22,1.16016,10,-5.06102e-05,-4.02641,3.19488,0.018467,0.537869,
2,0,0,1,0,15254.2,0.534104,0.533831,-0.0941832,22,1.16008,10,-5.02779e-05,-4.02603,-0.771986,-0.0764263,0.533873,
2,0,0,1,0,15255,0.530109,0.529804,-0.0955411,22,1.15999,10,-5.0618e-05,-4.01981,-0.460518,-0.128117,0.529846,
2,0,0,0,0,15255.8,0.526114,0.525834,-0.0963125,22,1.1599,10,-5.06444e-05,-4.01632,-0.74562,-0.0791287,0.525876,
2,0,0,1,0,15256.6,0.522119,0.521835,-0.0975875,22,1.15981,10,-5.09246e-05,-4.01061,-0.436197,-0.13526,0.521878,
2,0,0,1,0,15257.4,0.518123,0.517866,-0.0989107,22,1.15972,10,-5.12225e-05,-4.00476,-1.26855,-0.0465097,0.51791,
2,0,0,1,0,15258.2,0.514128,0.51382,-0.100391,22,1.15963,10,-5.15829e-05,-3.99831,-4.33333,-0.0136154,0.513864,
2,0,0,1,0,15259,0.510133,0.509806,-0.100867,22,1.15954,10,-5.14228e-05,-3.99625,-0.66083,-0.0892817,0.50985,
2,0,0,0,0,15259.8,0.506138,0.505818,-0.102414,22,1.15945,10,-5.18027e-05,-3.98964,-2.83638,-0.0208012,0.505863,
2,0,0,1,0,15260.6,0.502143,0.501842,-0.103446,22,1.15936,10,-5.19134e-05,-3.98529,-0.361539,-0.163191,0.501887,
2,0,0,0,0,15261.4,0.498148,0.497816,-0.105111,22,1.15926,10,-5.23261e-05,-3.97835,5.15665,0.0114415,0.497862,
2,0,0,1,0,15262.2,0.494152,0.493873,-0.105162,22,1.15917,10,-5.19367e-05,-3.97814,-0.481602,-0.122508,0.493919,
2,0,0,1,0,15263,0.490157,0.489852,-0.107689,22,1.15907,10,-5.27518e-05,-3.96783,-0.474048,-0.12446,0.489899,
2,0,0,1,0,15263.8,0.486162,0.485858,-0.109231,22,1.15897,10,-5.30707e-05,-3.96165,-0.873833,-0.0675186,0.485906,
2,0,0,1,0,15264.6,0.482167,0.481819,-0.109367,22,1.15888,10,-5.26953e-05,-3.96111,-2.49463,-0.0236508,0.481867,
2,0,0,0,0,15265.4,0.478172,0.477869,-0.11105,22,1.15878,10,-5.30675e-05,-3.95448,-1.01521,-0.0581162,0.477918,
2,0,0,1,0,15266.2,0.474177,0.473876,-0.111853,22,1.15868,10,-5.30043e-05,-3.95135,-1.07847,-0.0547072,0.473925,
2,0,0,1,0,15267,0.470181,0.469869,-0.113838,22,1.15857,10,-5.34891e-05,-3.94371,-0.843685,-0.0699313,0.469919,
2,0,0,1,0,15267.8,0.466186,0.465901,-0.11505,22,1.15847,10,-5.36019e-05,-3.93911,-0.49421,-0.119382,0.465951,
2,0,0,1,0,15268.6,0.462191,0.461889,-0.11729,22,1.15837,10,-5.41748e-05,-3.93074,-0.60777,-0.0970761,0.461941,
2,0,0,0,0,15269.4,0.458196,0.457857,-0.118549,22,1.15826,10,-5.42783e-05,-3.9261,-0.811009,-0.0727489,0.457909,
2,0,0,1,0,15270.2,0.454201,0.453908,-0.119067,22,1.15816,10,-5.40454e-05,-3.92421,-0.604772,-0.0975574,0.453961,
2,0,0,1,0,15271,0.450205,0.449915,-0.121691,22,1.15805,10,-5.47506e-05,-3.91474,-1.18648,-0.0497268,0.449969,
2,0,0,1,0,15271.8,0.44621,0.445957,-0.122391,22,1.15794,10,-5.45811e-05,-3.91225,-0.362182,-0.162901,0.446011,
2,0,0,1,0,15272.6,0.442215,0.441979,-0.124231,22,1.15783,10,-5.49075e-05,-3.90577,-6.60831,-0.00892816,0.442034,
2,0,0,0,0,15273.4,0.43822,0.43788,-0.125783,22,1.15772,10,-5.50781e-05,-3.90038,-0.376086,-0.156879,0.437936,
2,0,0,1,0,15274.2,0.434225,0.433923,-0.128519,22,1.1576,10,-5.57673e-05,-3.89103,-1.45465,-0.0405597,0.433979,
2,0,0,0,0,15275,0.43023,0.42993,-0.129485,22,1.15749,10,-5.56695e-05,-3.88778,-0.670952,-0.0879348,0.429987,
2,0,0,1,0,15275.8,0.426234,0.425928,-0.131392,22,1.15737,10,-5.59634e-05,-3.88143,-0.50476,-0.116887,0.425986,
2,0,0,1,0,15276.6,0.422239,0.421902,-0.133846,22,1.15726,10,-5.64697e-05,-3.8734,-1.23397,-0.0478131,0.421961,
2,0,0,1,0,15277.4,0.418244,0.417938,-0.134512,22,1.15714,10,-5.62178e-05,-3.87124,-0.534291,-0.110427,0.417998,
2,0,0,1,0,15278.2,0.414249,0.414004,-0.137344,22,1.15702,10,-5.6861e-05,-3.86219,-0.562707,-0.10485,0.414065,
2,0,0,0,0,15279,0.410254,0.409931,-0.139192,22,1.15689,10,-5.7059e-05,-3.85639,-0.781592,-0.0754869,0.409992,
2,0,0,1,0,15279.8,0.406259,0.405948,-0.142403,22,1.15677,10,-5.78082e-05,-3.84648,-0.586832,-0.10054,0.406011,
2,0,0,1,0,15280.6,0.402263,0.40196,-0.143738,22,1.15664,10,-5.77767e-05,-3.84243,-0.451554,-0.13066,0.402023,
2,0,0,1,0,15281.4,0.398268,0.397959,-0.145849,22,1.15652,10,-5.80421e-05,-3.8361,-4.4232,-0.0133388,0.398023,
2,0,0,1,0,15282.2,0.394274,0.393932,-0.147778,22,1.15639,10,-5.82147e-05,-3.83039,-0.602487,-0.0979275,0.393997,
2,0,0,0,0,15283,0.390278,0.389999,-0.149186,22,1.15626,10,-5.81822e-05,-3.82627,-0.380571,-0.15503,0.390064,
2,0,0,1,0,15283.8,0.386283,0.385963,-0.15086,22,1.15612,10,-5.82262e-05,-3.82143,-0.983574,-0.0599853,0.386029,
2,0,0,1,0,15284.6,0.382287,0.38198,-0.153393,22,1.15599,10,-5.8593e-05,-3.8142,-0.693693,-0.085052,0.382048,
2,0,0,1,0,15285.4,0.378292,0.377981,-0.155516,22,1.15585,10,-5.8782e-05,-3.80823,-1.45382,-0.0405828,0.378049,
2,0,0,1,0,15286.2,0.374297,0.374042,-0.157876,22,1.15571,10,-5.90523e-05,-3.80168,-0.372399,-0.158432,0.374111,
2,0,0,1,0,15287,0.370303,0.369941,-0.160175,22,1.15557,10,-5.92552e-05,-3.79541,-0.804048,-0.0733787,0.370012,
2,0,0,1,0,15287.8,0.366307,0.366021,-0.163412,22,1.15543,10,-5.98123e-05,-3.78671,-0.511711,-0.1153,0.366093,
2,0,0,0,0,15288.6,0.362312,0.361981,-0.165609,22,1.15529,10,-5.99473e-05,-3.78092,-0.760029,-0.0776286,0.362053,
2,0,0,1,0,15289.4,0.358316,0.358061,-0.167095,22,1.15514,10,-5.98301e-05,-3.77704,-1.03486,-0.0570126,0.358134,
2,0,0,1,0,15290.2,0.354321,0.35406,-0.169262,22,1.155,10,-5.99291e-05,-3.77144,-0.564199,-0.104573,0.354135,
2,0,0,1,0,15291,0.350327,0.350021,-0.171587,22,1.15485,10,-6.00591e-05,-3.76551,-0.76823,-0.0767999,0.350096,
2,0,0,1,0,15291.8,0.346331,0.346008,-0.174634,22,1.1547,10,-6.04248e-05,-3.75787,-1.54392,-0.0382143,0.346085,
2,0,0,0,0,15292.6,0.342336,0.342063,-0.175884,22,1.15454,10,-6.01635e-05,-3.75477,-0.362754,-0.162645,0.34214,
2,0,0,1,0,15293.4,0.338341,0.338056,-0.179898,22,1.15439,10,-6.08157e-05,-3.74497,-0.919642,-0.0641554,0.338135,
2,0,0,1,0,15294.2,0.334345,0.334021,-0.181214,22,1.15423,10,-6.05294e-05,-3.74181,-0.599839,-0.0983596,0.334101,
2,0,0,1,0,15295,0.33035,0.330038,-0.182883,22,1.15407,10,-6.03585e-05,-3.73783,-1.16902,-0.0504697,0.330118,
2,0,0,1,0,15295.8,0.326355,0.326079,-0.186013,22,1.15391,10,-6.06549e-05,-3.73046,-0.561941,-0.104993,0.326161,
2,0,0,0,0,15296.6,0.32236,0.322009,-0.189537,22,1.15375,10,-6.10325e-05,-3.72231,-0.592188,-0.0996306,0.322092,
2,0,0,1,0,15297.4,0.318365,0.318091,-0.191178,22,1.15358,10,-6.08122e-05,-3.71856,-0.849136,-0.0694824,0.318176,
2,0,0,0,0,15298.2,0.31437,0.314065,-0.194866,22,1.15342,10,-6.12008e-05,-3.71026,-2.34705,-0.0251379,0.314151,
2,0,0,1,0,15299,0.310374,0.31007,-0.196476,22,1.15325,10,-6.09213e-05,-3.70669,-0.466816,-0.126388,0.310157,
2,0,0,1,0,15299.7,0.306379,0.306073,-0.19897,22,1.15308,10,-6.08994e-05,-3.70121,-0.527209,-0.11191,0.30616,
2,0,0,1,0,15300.5,0.302385,0.302069,-0.201657,22,1.1529,10,-6.09144e-05,-3.69539,-0.736139,-0.0801479,0.302158,
2,0,0,1,0,15301.3,0.298389,0.298049,-0.203213,22,1.15273,10,-6.05674e-05,-3.69205,-0.855728,-0.0689471,0.298138,
2,0,0,0,0,15302.1,0.294394,0.294066,-0.207209,22,1.15255,10,-6.0933e-05,-3.68359,-0.866746,-0.0680707,0.294157,
2,0,0,1,0,15302.9,0.290398,0.290086,-0.209237,22,1.15237,10,-6.06967e-05,-3.67936,-1.01767,-0.0579758,0.290178,
2,0,0,1,0,15303.7,0.286403,0.286107,-0.211103,22,1.15219,10,-6.03982e-05,-3.6755,-0.469857,-0.12557,0.2862,
2,0,0,1,0,15304.5,0.282408,0.282122,-0.215508,22,1.15201,10,-6.07994e-05,-3.66654,-1.6349,-0.0360877,0.282216,
2,0,0,1,0,15305.3,0.278414,0.278099,-0.217877,22,1.15182,10,-6.05913e-05,-3.66179,-0.425915,-0.138525,0.278194,
2,0,0,0,0,15306.1,0.274418,0.274087,-0.219966,22,1.15163,10,-6.02898e-05,-3.65764,-0.882319,-0.0668692,0.274183,
2,0,0,1,0,15306.9,0.270423,0.270159,-0.221994,22,1.15144,10,-5.99736e-05,-3.65366,-0.695721,-0.0848041,0.270257,
2,0,0,1,0,15307.7,0.266427,0.266129,-0.224567,22,1.15125,10,-5.97638e-05,-3.64865,-1.03841,-0.0568176,0.266228,
2,0,0,1,0,15308.5,0.262432,0.262158,-0.228534,22,1.15105,10,-5.99121e-05,-3.64105,-0.649376,-0.0908564,0.262259,
2,0,0,1,0,15309.3,0.258437,0.258127,-0.230997,22,1.15086,10,-5.96266e-05,-3.63639,-0.935789,-0.0630484,0.258228,
2,0,0,0,0,15310.1,0.254442,0.254141,-0.232922,22,1.15066,10,-5.91953e-05,-3.63279,-0.872555,-0.0676175,0.254244,
2,0,0,1,0,15310.9,0.250447,0.250141,-0.235951,22,1.15046,10,-5.90209e-05,-3.62718,-1.32294,-0.0445976,0.250244,
2,0,0,0,0,15311.7,0.246452,0.246133,-0.239649,22,1.15026,10,-5.89857e-05,-3.62042,-0.675916,-0.087289,0.246239,
2,0,0,1,0,15312.5,0.242456,0.24216,-0.24176,22,1.15005,10,-5.85446e-05,-3.61661,-0.627834,-0.0939738,0.242266,
2,0,0,1,0,15313.3,0.238461,0.238144,-0.243482,22,1.14984,10,-5.79839e-05,-3.61353,-0.972137,-0.060691,0.238251,
2,0,0,1,0,15314.1,0.234467,0.234151,-0.246783,22,1.14963,10,-5.77845e-05,-3.60768,-0.887824,-0.0664546,0.234259,
2,0,0,1,0,15314.9,0.230471,0.230133,-0.247706,22,1.14942,10,-5.70052e-05,-3.60606,-0.970263,-0.0608083,0.230242,
2,0,0,0,0,15315.7,0.226476,0.226205,-0.250936,22,1.14921,10,-5.6763e-05,-3.60044,-1.07805,-0.0547283,0.226315,
2,0,0,1,0,15316.5,0.222481,0.222174,-0.252758,22,1.14899,10,-5.61563e-05,-3.5973,-0.825242,-0.0714941,0.222286,
2,0,0,1,0,15317.3,0.218485,0.218166,-0.25765,22,1.14878,10,-5.62103e-05,-3.58897,-1.02303,-0.0576721,0.218279,
2,0,0,1,0,15318.1,0.21449,0.214151,-0.260295,22,1.14856,10,-5.57426e-05,-3.58453,-0.519744,-0.113518,0.214266,
2,0,0,1,0,15318.9,0.210496,0.210185,-0.263604,22,1.14833,10,-5.54055e-05,-3.57905,-1.12919,-0.0522497,0.210301,
2,0,0,0,0,15319.7,0.2065,0.206192,-0.268506,22,1.14811,10,-5.53639e-05,-3.57105,-0.611261,-0.0965218,0.20631,
2,0,0,1,0,15320.5,0.202505,0.20216,-0.270281,22,1.14788,10,-5.464e-05,-3.56819,-0.61269,-0.0962967,0.202279,
2,0,0,1,0,15321.3,0.198509,0.198178,-0.273437,22,1.14765,10,-5.41893e-05,-3.56314,-0.846564,-0.0696935,0.198298,
2,0,0,1,0,15322.1,0.194514,0.194222,-0.278153,22,1.14741,10,-5.40234e-05,-3.55572,-0.603286,-0.0977978,0.194344,
2,0,0,1,0,15322.9,0.190519,0.190193,-0.28164,22,1.14718,10,-5.3566e-05,-3.5503,-0.520301,-0.113396,0.190317,
2,0,0,0,0,15323.7,0.186524,0.186192,-0.286745,22,1.14694,10,-5.33896e-05,-3.5425,-0.65538,-0.0900241,0.186318,
2,0,0,1,0,15324.5,0.182529,0.182184,-0.293379,22,1.14669,10,-5.34492e-05,-3.53257,-0.353833,-0.166745,0.182314,
2,0,0,0,0,15325.3,0.178534,0.178208,-0.298783,22,1.14644,10,-5.32454e-05,-3.52464,-0.475332,-0.124124,0.178339,
2,0,0,1,0,15326.1,0.174538,0.174199,-0.306832,22,1.14618,10,-5.34499e-05,-3.5131,-0.286344,-0.206046,0.174334,
2,0,0,1,0,15326.9,0.170543,0.170293,-0.31606,22,1.14592,10,-5.38229e-05,-3.50023,-0.268381,-0.219837,0.170432,
2,0,0,1,0,15327.7,0.166549,0.166256,-0.327765,22,1.14565,10,-5.4493e-05,-3.48444,-0.245606,-0.240222,0.166401,
2,0,0,1,0,15328.5,0.162553,0.162263,-0.34188,22,1.14537,10,-5.54743e-05,-3.46613,-0.20731,-0.284598,0.162413,
2,0,0,0,0,15329.3,0.158558,0.158237,-0.358626,22,1.14507,10,-5.67479e-05,-3.44536,-0.15532,-0.379861,0.158395,
2,0,0,1,0,15330.1,0.154563,0.15424,-0.384453,22,1.14476,10,-5.92979e-05,-3.41516,-0.139028,-0.424374,0.154409,
2,0,0,1,0,15330.9,0.150567,0.150259,-0.41501,22,1.14443,10,-6.23587e-05,-3.38194,-0.102766,-0.574121,0.150441,
2,0,0,1,0,15331.7,0.146572,0.14627,-0.455445,22,1.14407,10,-6.66177e-05,-3.34156,-0.0886561,-0.665493,0.14647,
2,0,0,1,0,15332.5,0.142578,0.142275,-0.510537,22,1.14367,10,-7.26369e-05,-3.29197,-0.083464,-0.706892,0.1425,
2,0,0,0,0,15333.3,0.138582,0.138252,-0.568759,22,1.14322,10,-7.8632e-05,-3.24507,-0.0812245,-0.726381,0.138502,
2,0,0,1,0,15334.1,0.134587,0.134263,-0.631611,22,1.14273,10,-8.48018e-05,-3.19955,-0.0995598,-0.592609,0.13454,
2,0,0,1,0,15334.9,0.130591,0.130277,-0.686524,22,1.14219,10,-8.94384e-05,-3.16334,-0.131636,-0.448207,0.130579,
2,0,0,1,0,15335.7,0.126596,0.126289,-0.721393,22,1.14161,10,-9.11042e-05,-3.14183,-0.216638,-0.272344,0.126607,
2,0,0,1,0,15336.5,0.122602,0.1223,-0.747831,22,1.141,10,-9.14598e-05,-3.1262,-0.472845,-0.124777,0.122629,
2,0,0,1,0,15337.3,0.118607,0.118293,-0.755059,22,1.14039,10,-8.93184e-05,-3.12202,-1.58505,-0.0372228,0.118626,
2,0,0,1,0,15338.1,0.114611,0.114305,-0.754887,22,1.13977,10,-8.62871e-05,-3.12212,1.0418,0.0566327,0.114637,
2,0,0,0,0,15338.9,0.110616,0.110313,-0.747087,22,1.13916,10,-8.24135e-05,-3.12663,1.01504,0.0581258,0.110642,
2,0,0,1,0,15339.7,0.10662,0.106296,-0.735942,22,1.13855,10,-7.82277e-05,-3.13316,0.582541,0.10128,0.10662,
2,0,0,1,0,15340.5,0.102625,0.102314,-0.723524,22,1.13795,10,-7.40263e-05,-3.14055,0.449501,0.131257,0.102632,
2,0,0,1,0,15341.3,0.0986305,0.0983184,-0.711074,22,1.13737,10,-6.99116e-05,-3.14809,0.505566,0.116701,0.0986312,
2,0,0,1,0,15342.1,0.0946351,0.0943276,-0.693666,22,1.13679,10,-6.54318e-05,-3.15885,0.461586,0.12782,0.0946328,
2,0,0,0,0,15342.9,0.0906399,0.0903288,-0.68255,22,1.13622,10,-6.16539e-05,-3.16587,0.395173,0.149302,0.0906292,
2,0,0,1,0,15343.7,0.0866448,0.0863247,-0.670303,22,1.13567,10,-5.78637e-05,-3.17373,0.593534,0.0994045,0.0866197,
2,0,0,1,0,15344.5,0.0826492,0.0822724,-0.658208,22,1.13512,10,-5.41524e-05,-3.18164,0.510882,0.115486,0.0825621,
2,0,0,1,0,15345.3,0.0786544,0.0783218,-0.649938,22,1.13459,10,-5.09043e-05,-3.18713,0.8089,0.0729385,0.0786078,
2,0,0,1,0,15346.1,0.0746596,0.0743626,-0.638321,22,1.13406,10,-4.74672e-05,-3.19496,0.652844,0.0903738,0.0746434,
2,0,0,0,0,15346.9,0.0706641,0.0703603,-0.629935,22,1.13354,10,-4.43224e-05,-3.2007,0.651691,0.0905337,0.0706375,
2,0,0,1,0,15347.7,0.0666689,0.0663467,-0.622467,22,1.13302,10,-4.12986e-05,-3.20588,0.714711,0.0825508,0.0666206,
2,0,0,0,0,15348.5,0.0626737,0.06235,-0.613742,22,1.13251,10,-3.82668e-05,-3.21201,0.68024,0.0867341,0.0626201,
2,0,0,1,0,15349.3,0.0586783,0.0583328,-0.606245,22,1.13201,10,-3.5364e-05,-3.21735,0.442408,0.133361,0.0585995,
2,0,0,1,0,15350.1,0.0546835,0.054379,-0.594495,22,1.13152,10,-3.2328e-05,-3.22585,0.755496,0.0780944,0.0546406,
2,0,0,1,0,15350.9,0.0506886,0.0503657,-0.584621,22,1.13103,10,-2.94448e-05,-3.23313,0.492841,0.119714,0.050623,
2,0,0,1,0,15351.7,0.046693,0.0463729,-0.574242,22,1.13055,10,-2.66292e-05,-3.24091,0.517869,0.113928,0.0466255,
2,0,0,0,0,15352.5,0.0426979,0.0423656,-0.563697,22,1.13009,10,-2.38814e-05,-3.24895,0.612849,0.0962716,0.0426136,
2,0,0,1,0,15353.3,0.0387022,0.0383525,-0.553067,22,1.12962,10,-2.12115e-05,-3.25722,0.415767,0.141906,0.0385959,
2,0,0,1,0,15354.1,0.0347074,0.0343997,-0.542748,22,1.12917,10,-1.86704e-05,-3.2654,0.473646,0.124566,0.0346385,
2,0,0,1,0,15354.9,0.0307126,0.0303822,-0.530766,22,1.12873,10,-1.61258e-05,-3.2751,0.490092,0.120386,0.0306157,
2,0,0,1,0,15355.7,0.0267172,0.0263842,-0.522826,22,1.12829,10,-1.37944e-05,-3.28164,0.483467,0.122035,0.0266142,
2,0,0,0,0,15356.5,0.022722,0.0223939,-0.514584,22,1.12786,10,-1.15235e-05,-3.28854,0.70746,0.083397,0.0226203,
2,0,0,1,0,15357.3,0.0187268,0.0183856,-0.507146,22,1.12744,10,-9.32417e-06,-3.29487,0.609178,0.0968518,0.0186087,
2,0,0,1,0,15358.1,0.0147313,0.0144172,-0.502288,22,1.12703,10,-7.24159e-06,-3.29905,0.937016,0.0629658,0.0146382,
2,0,0,1,0,15358.9,0.0107365,0.0104135,-0.49694,22,1.12661,10,-5.17488e-06,-3.3037,1.60461,0.0367692,0.0106321,
2,0,0,1,0,15359.7,0.00674163,0.0064332,-0.494981,22,1.1262,10,-3.18431e-06,-3.30541,5.38509,0.0109562,0.00665099,
2,0,0,0,0,15360.5,0.00274612,0.00242643,-0.494059,22,1.12579,10,-1.1988e-06,-3.30622,-3.46893,-0.0170081,0.00264382,
2,0,0,1,0,15361,0.000274105,-9.62757e-05,-0.494769,22,1.12554,10,4.76342e-08,-3.3056, , ,0.000121423,