File: Figure_codes/Fig_3-5/workspace_calculate_alpha_eff/20221101_1-115_003_TrumpetPlot_ParaChange_from10_every3_16_CV_C01_25.csv
mode,ox/red,error,control changes,counter inc.,time/s,control/V,Ewe/V,<I>/mA,cycle number,(Q-Qo)/C,I Range,P/W,log(|I|),Tafel slope mV/dec,alpha_eff,E-IR/V,
2,0,0,0,0,17361.2,2.44065e-05,-0.000401673,-0.103846,26,0.0000000E+000,10,4.17122e-08,-3.98361, , ,-0.00035598,
2,1,0,0,0,17361.9,0.00379485,0.00351229,0.159527,26,0.000107509,10,5.60304e-07,-3.79717,0.0416441,1.41677,0.0034421,
2,1,0,1,0,17362.7,0.00779002,0.00745806,0.184353,26,0.000259024,10,1.37491e-06,-3.73435,0.0795799,0.741393,0.00737695,
2,1,0,0,0,17363.5,0.0117852,0.0114834,0.19958,26,0.000426559,10,2.29185e-06,-3.69988,0.114273,0.516305,0.0113955,
2,1,0,1,0,17364.3,0.0157806,0.0154789,0.216391,26,0.000606746,10,3.34949e-06,-3.66476,0.129562,0.455381,0.0153837,
2,1,0,1,0,17365.1,0.0197754,0.0194659,0.231604,26,0.000798473,10,4.50838e-06,-3.63525,0.150809,0.391223,0.019364,
2,1,0,1,0,17365.9,0.0237704,0.0234625,0.245433,26,0.00100201,10,5.75848e-06,-3.61007,0.162164,0.36383,0.0233545,
2,1,0,1,0,17366.7,0.0277659,0.0274531,0.25945,26,0.00121701,10,7.12271e-06,-3.58595,0.156118,0.377918,0.0273389,
2,1,0,0,0,17367.5,0.0317611,0.0314179,0.273508,26,0.00144388,10,8.59305e-06,-3.56303,0.169172,0.348758,0.0312976,
2,1,0,1,0,17368.3,0.0357567,0.0354181,0.288804,26,0.00168278,10,1.02289e-05,-3.5394,0.217685,0.271034,0.035291,
2,1,0,1,0,17369.1,0.0397516,0.0394454,0.303778,26,0.00193303,10,1.19826e-05,-3.51744,0.160502,0.367597,0.0393117,
2,1,0,1,0,17369.9,0.0437465,0.0434419,0.317099,26,0.00219541,10,1.37754e-05,-3.4988,0.219779,0.268451,0.0433023,
2,1,0,1,0,17370.7,0.0477413,0.0473797,0.331857,26,0.00246827,10,1.57233e-05,-3.47905,0.214039,0.275651,0.0472337,
2,1,0,0,0,17371.5,0.0517369,0.0513992,0.34362,26,0.00275154,10,1.76618e-05,-3.46392,0.236955,0.248993,0.051248,
2,1,0,1,0,17372.3,0.0557321,0.0554266,0.357549,26,0.00304565,10,1.98177e-05,-3.44666,0.323478,0.182393,0.0552693,
2,1,0,1,0,17373.1,0.0597277,0.0594078,0.36857,26,0.00334882,10,2.1896e-05,-3.43348,0.342619,0.172203,0.0592457,
2,1,0,1,0,17373.9,0.0637226,0.0633904,0.379266,26,0.00366167,10,2.40418e-05,-3.42106,0.255258,0.231139,0.0632235,
2,1,0,1,0,17374.7,0.0677174,0.0673919,0.390813,26,0.00398393,10,2.63376e-05,-3.40803,0.462362,0.127606,0.06722,
2,1,0,0,0,17375.5,0.0717128,0.0713603,0.400917,26,0.00431388,10,2.86096e-05,-3.39695,0.310825,0.189818,0.0711839,
2,1,0,1,0,17376.3,0.075708,0.0753866,0.40757,26,0.00465168,10,3.07254e-05,-3.3898,0.586801,0.100545,0.0752073,
2,1,0,0,0,17377.1,0.0797031,0.0794141,0.419814,26,0.00499613,10,3.33391e-05,-3.37694,0.370271,0.159343,0.0792293,
2,1,0,1,0,17377.9,0.0836986,0.0833737,0.427502,26,0.00534792,10,3.56424e-05,-3.36906,0.342365,0.172331,0.0831856,
2,1,0,1,0,17378.7,0.0876935,0.0873555,0.439626,26,0.00570852,10,3.84038e-05,-3.35692,0.322857,0.182744,0.0871621,
2,1,0,1,0,17379.5,0.0916883,0.0913855,0.454415,26,0.00607879,10,4.15269e-05,-3.34255,0.249668,0.236313,0.0911855,
2,1,0,1,0,17380.3,0.0956838,0.0953689,0.47003,26,0.00646277,10,4.48262e-05,-3.32787,0.223316,0.2642,0.0951621,
2,1,0,0,0,17381.1,0.099679,0.0993794,0.494189,26,0.00686319,10,4.91122e-05,-3.30611,0.210663,0.280068,0.099162,
2,1,0,1,0,17381.9,0.103674,0.103354,0.518798,26,0.00728215,10,5.36197e-05,-3.285,0.170086,0.346883,0.103126,
2,1,0,1,0,17382.7,0.10767,0.107346,0.541622,26,0.00772106,10,5.81412e-05,-3.2663,0.235722,0.250295,0.107108,
2,1,0,1,0,17383.5,0.111664,0.111351,0.562606,26,0.00817671,10,6.26468e-05,-3.2498,0.266992,0.22098,0.111104,
2,1,0,1,0,17384.3,0.115659,0.115314,0.578805,26,0.00864679,10,6.67441e-05,-3.23747,0.321096,0.183746,0.115059,
2,1,0,0,0,17385.1,0.119655,0.119332,0.594305,26,0.00913057,10,7.09196e-05,-3.22599,0.429841,0.13726,0.119071,
2,1,0,1,0,17385.9,0.12365,0.12335,0.609455,26,0.00962561,10,7.51762e-05,-3.21506,0.35329,0.167002,0.123082,
2,1,0,1,0,17386.7,0.127646,0.127318,0.623697,26,0.0101334,10,7.9408e-05,-3.20503,0.409199,0.144184,0.127044,
2,1,0,1,0,17387.5,0.131641,0.13133,0.634049,26,0.0106516,10,8.32698e-05,-3.19788,-5.88391,-0.0100273,0.131051,
2,1,0,1,0,17388.3,0.135635,0.135329,0.626871,26,0.0111704,10,8.48338e-05,-3.20282,-0.431635,-0.13669,0.135053,
2,1,0,0,0,17389.1,0.139631,0.139311,0.595531,26,0.0116759,10,8.29641e-05,-3.2251,-0.133267,-0.44272,0.139049,
2,1,0,1,0,17389.9,0.143626,0.143366,0.54768,26,0.0121478,10,7.85188e-05,-3.26147,-0.0834272,-0.707203,0.143125,
2,1,0,0,0,17390.7,0.147621,0.147332,0.482259,26,0.0125727,10,7.10521e-05,-3.31672,-0.0700583,-0.842156,0.14712,
2,1,0,1,0,17391.5,0.151617,0.151325,0.4242,26,0.0129476,10,6.4192e-05,-3.37243,-0.0740966,-0.796258,0.151138,
2,1,0,1,0,17392.3,0.155612,0.155279,0.378023,26,0.01328,10,5.86989e-05,-3.42248,-0.0950358,-0.620819,0.155112,
2,1,0,1,0,17393.1,0.159606,0.159282,0.346779,26,0.0135823,10,5.52354e-05,-3.45995,-0.122474,-0.481734,0.159129,
2,1,0,1,0,17393.9,0.163602,0.163318,0.325452,26,0.013864,10,5.3152e-05,-3.48751,-0.153866,-0.383452,0.163175,
2,1,0,0,0,17394.7,0.167597,0.16732,0.309892,26,0.014131,10,5.18511e-05,-3.50879,-0.261029,-0.226029,0.167183,
2,1,0,1,0,17395.5,0.171592,0.171257,0.297707,26,0.0143879,10,5.09844e-05,-3.52621,-0.273056,-0.216073,0.171126,
2,1,0,1,0,17396.3,0.175588,0.175288,0.291524,26,0.0146369,10,5.11005e-05,-3.53533,-0.388028,-0.152051,0.175159,
2,1,0,1,0,17397.1,0.179582,0.179275,0.284871,26,0.0148799,10,5.10702e-05,-3.54535,-0.547947,-0.107675,0.179149,
2,1,0,1,0,17397.9,0.183577,0.183274,0.280557,26,0.0151187,10,5.14188e-05,-3.55198,-0.506807,-0.116415,0.183151,
2,1,0,0,0,17398.7,0.187573,0.187278,0.274478,26,0.0153531,10,5.14035e-05,-3.56149,-0.66762,-0.0883736,0.187157,
2,1,0,1,0,17399.5,0.191568,0.191265,0.270355,26,0.0155844,10,5.17094e-05,-3.56806,-0.48534,-0.121564,0.191146,
2,1,0,0,0,17400.3,0.195563,0.195269,0.267789,26,0.0158131,10,5.22908e-05,-3.57221,-0.68549,-0.0860699,0.195151,
2,1,0,1,0,17401.1,0.199559,0.199224,0.264933,26,0.0160392,10,5.27811e-05,-3.57686,-1.62674,-0.0362688,0.199108,
2,1,0,1,0,17401.9,0.203553,0.203227,0.260408,26,0.0162632,10,5.29221e-05,-3.58434,-0.585971,-0.100688,0.203113,
2,1,0,1,0,17402.7,0.207548,0.207258,0.260092,26,0.0164852,10,5.39063e-05,-3.58487,-2.0888,-0.0282458,0.207144,
2,1,0,1,0,17403.5,0.211544,0.211241,0.258243,26,0.0167053,10,5.45514e-05,-3.58797,-1.20227,-0.0490739,0.211127,
2,1,0,0,0,17404.3,0.215539,0.215211,0.255771,26,0.0169238,10,5.50446e-05,-3.59215,-1.12165,-0.0526013,0.215098,
2,1,0,1,0,17405.1,0.219535,0.219215,0.254207,26,0.0171405,10,5.57261e-05,-3.59481,-0.955274,-0.0617624,0.219103,
2,1,0,1,0,17405.9,0.223529,0.223242,0.251943,26,0.0173559,10,5.62444e-05,-3.5987,-5.39603,-0.010934,0.223132,
2,1,0,1,0,17406.7,0.227524,0.227233,0.251165,26,0.0175702,10,5.70731e-05,-3.60004,-0.640353,-0.0921367,0.227123,
2,1,0,1,0,17407.5,0.23152,0.23124,0.248789,26,0.0177833,10,5.753e-05,-3.60417,1.97499,0.0298735,0.23113,
2,1,0,0,0,17408.3,0.235515,0.235223,0.247078,26,0.0179953,10,5.81185e-05,-3.60717,-0.918437,-0.0642396,0.235114,
2,1,0,1,0,17409.1,0.23951,0.239246,0.246962,26,0.0182062,10,5.90847e-05,-3.60737,-10.3353,-0.00570861,0.239137,
2,1,0,1,0,17409.9,0.243506,0.24322,0.245977,26,0.018416,10,5.98263e-05,-3.60911,-1.64589,-0.0358469,0.243111,
2,1,0,1,0,17410.7,0.2475,0.24717,0.244502,26,0.0186251,10,6.04337e-05,-3.61172,-2.96346,-0.0199092,0.247063,
2,1,0,1,0,17411.5,0.251495,0.2512,0.244353,26,0.0188332,10,6.13814e-05,-3.61198,-1.51856,-0.0388525,0.251092,
2,1,0,0,0,17412.3,0.255491,0.255145,0.243246,26,0.0190407,10,6.20629e-05,-3.61395,5.50688,0.0107139,0.255038,
2,1,0,1,0,17413.1,0.259486,0.259228,0.241959,26,0.0192477,10,6.27227e-05,-3.61626,-0.838339,-0.0703772,0.259122,
2,1,0,0,0,17413.9,0.263481,0.263157,0.241403,26,0.0194536,10,6.35269e-05,-3.61726,-3.22229,-0.01831,0.263051,
2,1,0,1,0,17414.7,0.267477,0.267139,0.238748,26,0.0196588,10,6.37788e-05,-3.62206,-2.19054,-0.026934,0.267034,
2,1,0,1,0,17415.5,0.271471,0.271169,0.239906,26,0.0198631,10,6.50553e-05,-3.61996,-3.57828,-0.0164884,0.271064,
2,1,0,1,0,17416.3,0.275466,0.275186,0.238343,26,0.0200667,10,6.55887e-05,-3.6228,-3.08947,-0.0190971,0.275081,
2,1,0,1,0,17417,0.279462,0.279205,0.238256,26,0.0202695,10,6.65225e-05,-3.62296,-1.95959,-0.0301084,0.2791,
2,1,0,0,0,17417.8,0.283457,0.283166,0.236317,26,0.0204713,10,6.6917e-05,-3.6265,-2.16728,-0.027223,0.283062,
2,1,0,1,0,17418.6,0.287452,0.28711,0.23525,26,0.0206722,10,6.75425e-05,-3.62847,-2.0655,-0.0285645,0.287006,
2,1,0,1,0,17419.4,0.291448,0.291141,0.234431,26,0.0208725,10,6.82525e-05,-3.62999,-0.941231,-0.0626838,0.291038,
2,1,0,1,0,17420.2,0.295442,0.29516,0.233603,26,0.0210717,10,6.89504e-05,-3.63152,74.534,0.000791585,0.295057,
2,1,0,1,0,17421,0.299437,0.299145,0.232174,26,0.0212702,10,6.94536e-05,-3.63419,-3.84518,-0.0153439,0.299043,
2,1,0,0,0,17421.8,0.303433,0.303147,0.231338,26,0.0214678,10,7.01295e-05,-3.63575,-2.47805,-0.023809,0.303045,
2,1,0,1,0,17422.6,0.307428,0.307112,0.229691,26,0.0216644,10,7.05407e-05,-3.63886,-2.82644,-0.0208743,0.307011,
2,1,0,1,0,17423.4,0.311424,0.311076,0.229491,26,0.0218609,10,7.13894e-05,-3.63923,-1.75872,-0.0335471,0.310975,
2,1,0,1,0,17424.2,0.315418,0.315078,0.22866,26,0.0220565,10,7.20456e-05,-3.64081,-4.82605,-0.0122253,0.314977,
2,1,0,1,0,17425,0.319413,0.319148,0.229274,26,0.0222516,10,7.31724e-05,-3.63965,2.34461,0.0251641,0.319047,
2,1,0,0,0,17425.8,0.323409,0.323142,0.228068,26,0.0224465,10,7.36984e-05,-3.64194,-0.955272,-0.0617625,0.323042,
2,1,0,1,0,17426.6,0.327404,0.327088,0.227747,26,0.0226407,10,7.44934e-05,-3.64255,2.30557,0.0255902,0.326988,
2,1,0,0,0,17427.4,0.331399,0.331142,0.225964,26,0.0228347,10,7.48263e-05,-3.64596,-1.36397,-0.043256,0.331042,
2,1,0,1,0,17428.2,0.335395,0.335123,0.226834,26,0.023028,10,7.60173e-05,-3.64429,-1.56774,-0.0376337,0.335023,
2,1,0,1,0,17429,0.339389,0.339149,0.225493,26,0.0232206,10,7.64756e-05,-3.64687,9.77804,0.00603393,0.33905,
2,1,0,1,0,17429.8,0.343384,0.343106,0.225753,26,0.0234128,10,7.74572e-05,-3.64637,8.03722,0.00734085,0.343007,
2,1,0,1,0,17430.6,0.34738,0.347099,0.225986,26,0.0236047,10,7.84396e-05,-3.64592,-7.9249,-0.00744488,0.346999,
2,1,0,0,0,17431.4,0.351375,0.351057,0.224689,26,0.0237963,10,7.88788e-05,-3.64842,-1.95008,-0.0302551,0.350959,
2,1,0,1,0,17432.2,0.35537,0.355116,0.223391,26,0.0239875,10,7.93296e-05,-3.65093,-1.61855,-0.0364525,0.355017,
2,1,0,1,0,17433,0.359366,0.359077,0.223424,26,0.024178,10,8.02267e-05,-3.65087,-4.09448,-0.0144097,0.358979,
2,1,0,1,0,17433.8,0.36336,0.363039,0.221365,26,0.0243682,10,8.0364e-05,-3.65489,6.38792,0.00923618,0.362941,
2,1,0,1,0,17434.6,0.367355,0.367068,0.22177,26,0.0245577,10,8.14047e-05,-3.6541,-1.47398,-0.0400277,0.36697,
2,1,0,0,0,17435.4,0.371351,0.371066,0.220493,26,0.0247467,10,8.18176e-05,-3.6566,10.363,0.00569333,0.370969,
2,1,0,1,0,17436.2,0.375346,0.375041,0.221185,26,0.0249357,10,8.29534e-05,-3.65524,-2.6151,-0.0225613,0.374943,
2,1,0,1,0,17437,0.379342,0.379062,0.220922,26,0.0251241,10,8.37432e-05,-3.65576,-3.8249,-0.0154252,0.378965,
2,1,0,1,0,17437.8,0.383336,0.383041,0.220646,26,0.0253121,10,8.45164e-05,-3.6563,3.78034,0.0156071,0.382944,
2,1,0,1,0,17438.6,0.387331,0.387057,0.220494,26,0.0255,10,8.53438e-05,-3.6566,-1.80164,-0.032748,0.38696,
2,1,0,0,0,17439.4,0.391327,0.391031,0.219324,26,0.0256876,10,8.57627e-05,-3.65891,3.48048,0.0169517,0.390935,
2,1,0,1,0,17440.2,0.395322,0.395037,0.218529,26,0.0258748,10,8.6327e-05,-3.66049,-1.09646,-0.0538094,0.394941,
2,1,0,0,0,17441,0.399317,0.399011,0.219168,26,0.0260616,10,8.74505e-05,-3.65922,1.72623,0.0341786,0.398915,
2,1,0,1,0,17441.8,0.403313,0.403074,0.22002,26,0.0262483,10,8.86845e-05,-3.65754,-26.2598,-0.00224678,0.402977,
2,1,0,1,0,17442.6,0.407307,0.407038,0.218568,26,0.0264352,10,8.89656e-05,-3.66041,-3.31519,-0.0177968,0.406942,
2,1,0,1,0,17443.4,0.411302,0.410999,0.21982,26,0.0266217,10,9.03457e-05,-3.65793,70.6981,0.000834534,0.410902,
2,1,0,1,0,17444.2,0.415298,0.414996,0.219357,26,0.0268083,10,9.1032e-05,-3.65885,8.2626,0.00714061,0.414899,
2,1,0,0,0,17445,0.419293,0.419028,0.218433,26,0.0269947,10,9.15298e-05,-3.66068,-1.97909,-0.0298117,0.418932,
2,1,0,1,0,17445.8,0.423288,0.422968,0.219394,26,0.0271809,10,9.27968e-05,-3.65877,37.8389,0.00155924,0.422871,
2,1,0,1,0,17446.6,0.427283,0.427024,0.217672,26,0.027367,10,9.29511e-05,-3.6622,-10.1599,-0.00580713,0.426928,
2,1,0,1,0,17447.4,0.431278,0.431044,0.217995,26,0.0275528,10,9.39654e-05,-3.66155,8.76273,0.00673306,0.430948,
2,1,0,1,0,17448.2,0.435273,0.435001,0.218269,26,0.0277383,10,9.49471e-05,-3.66101,2.17422,0.0271362,0.434905,
2,1,0,0,0,17449,0.439269,0.438963,0.217961,26,0.027924,10,9.56767e-05,-3.66162,-3.11962,-0.0189126,0.438867,
2,1,0,1,0,17449.8,0.443264,0.443008,0.21832,26,0.0281096,10,9.67176e-05,-3.66091,-3.03204,-0.0194589,0.442912,
2,1,0,0,0,17450.6,0.447259,0.446982,0.218669,26,0.028295,10,9.77411e-05,-3.66021,8.76254,0.00673321,0.446886,
2,1,0,1,0,17451.4,0.451254,0.45096,0.21853,26,0.0284808,10,9.85484e-05,-3.66049,-9.7483,-0.00605234,0.450864,
2,1,0,1,0,17452.2,0.455249,0.454968,0.218782,26,0.0286666,10,9.95388e-05,-3.65999,2.27813,0.0258984,0.454871,
2,1,0,1,0,17453,0.459244,0.458991,0.219084,26,0.0288527,10,0.000100558,-3.65939,2.56294,0.0230204,0.458895,
2,1,0,1,0,17453.8,0.46324,0.462972,0.219346,26,0.0290392,10,0.000101551,-3.65887,6.14746,0.00959746,0.462875,
2,1,0,0,0,17454.6,0.467235,0.466929,0.220486,26,0.0292256,10,0.000102951,-3.65662,12.6191,0.00467544,0.466832,
2,1,0,1,0,17455.4,0.471231,0.47093,0.221026,26,0.0294125,10,0.000104088,-3.65556,1.40799,0.0419036,0.470833,
2,1,0,1,0,17456.2,0.475225,0.47495,0.221347,26,0.0295994,10,0.000105129,-3.65493,-2.0337,-0.0290112,0.474852,
2,1,0,1,0,17457,0.47922,0.478949,0.221469,26,0.0297868,10,0.000106073,-3.65469,0.913894,0.0645589,0.478852,
2,1,0,1,0,17457.8,0.483216,0.482918,0.222846,26,0.029975,10,0.000107616,-3.652,-1.92381,-0.0306682,0.48282,
2,1,0,0,0,17458.6,0.487211,0.486926,0.223015,26,0.0301634,10,0.000108592,-3.65167,1.61853,0.0364529,0.486828,
2,1,0,1,0,17459.4,0.491206,0.490914,0.222784,26,0.0303524,10,0.000109368,-3.65212,3.19333,0.018476,0.490816,
2,1,0,1,0,17460.2,0.495201,0.494964,0.224422,26,0.0305419,10,0.000111081,-3.64893,4.12365,0.0143077,0.494866,
2,1,0,1,0,17461,0.499196,0.498881,0.225323,26,0.0307321,10,0.00011241,-3.64719,1.3386,0.0440759,0.498782,
2,1,0,1,0,17461.8,0.503191,0.502888,0.226254,26,0.0309233,10,0.00011378,-3.6454,1.00883,0.0584834,0.502789,
2,1,0,0,0,17462.6,0.507187,0.506877,0.227101,26,0.0311151,10,0.000115112,-3.64378,14.5591,0.00405244,0.506777,
2,1,0,1,0,17463.4,0.511182,0.510871,0.228762,26,0.0313077,10,0.000116868,-3.64062,1.54578,0.0381684,0.510771,
2,1,0,0,0,17464.2,0.515177,0.514891,0.230368,26,0.0315012,10,0.000118614,-3.63758,5.62352,0.0104917,0.51479,
2,1,0,1,0,17465,0.519173,0.518839,0.230632,26,0.0316956,10,0.000119661,-3.63708,0.959647,0.0614809,0.518738,
2,1,0,1,0,17465.8,0.523167,0.522888,0.232969,26,0.0318911,10,0.000121817,-3.6327,1.2989,0.045423,0.522785,
2,1,0,1,0,17466.6,0.527162,0.526844,0.233749,26,0.0320877,10,0.000123149,-3.63125,2.16585,0.0272411,0.526741,
2,1,0,1,0,17467.4,0.531158,0.53087,0.235665,26,0.0322855,10,0.000125108,-3.6277,1.2482,0.0472679,0.530767,
2,1,0,0,0,17468.2,0.535153,0.534897,0.237497,26,0.0324849,10,0.000127036,-3.62434,0.914345,0.064527,0.534792,
2,1,0,1,0,17469,0.539148,0.53886,0.239525,26,0.0326856,10,0.00012907,-3.62065,1.53037,0.0385527,0.538754,
2,1,0,1,0,17469.8,0.543143,0.542882,0.241116,26,0.032888,10,0.000130898,-3.61777,0.820528,0.0719049,0.542776,
2,1,0,1,0,17470.6,0.547138,0.546856,0.243343,26,0.033092,10,0.000133074,-3.61378,1.83643,0.0321276,0.546749,
2,1,0,1,0,17471.4,0.551133,0.550851,0.246502,26,0.0332979,10,0.000135786,-3.60818,0.556818,0.105959,0.550743,
2,1,0,0,0,17472.2,0.555129,0.554825,0.248392,26,0.0335062,10,0.000137814,-3.60486,1.06602,0.0553458,0.554716,
2,1,0,1,0,17473,0.559124,0.558838,0.251987,26,0.0337168,10,0.00014082,-3.59862,0.593889,0.0993451,0.558727,
2,1,0,1,0,17473.8,0.56312,0.562828,0.255799,26,0.0339298,10,0.000143971,-3.5921,0.648992,0.0909102,0.562716,
2,1,0,1,0,17474.6,0.567114,0.566844,0.258962,26,0.0341458,10,0.000146791,-3.58676,0.849128,0.069483,0.56673,
2,1,0,1,0,17475.4,0.571109,0.570873,0.263674,26,0.0343648,10,0.000150524,-3.57893,0.528145,0.111712,0.570757,
2,1,0,0,0,17476.2,0.575105,0.574786,0.267693,26,0.0345874,10,0.000153867,-3.57236,0.401602,0.146912,0.574668,
2,1,0,1,0,17477,0.5791,0.578806,0.27369,26,0.0348141,10,0.000158414,-3.56274,0.739627,0.0797699,0.578686,
2,1,0,0,0,17477.8,0.583095,0.58283,0.279018,26,0.0350448,10,0.00016262,-3.55437,0.323688,0.182274,0.582708,
2,1,0,1,0,17478.6,0.58709,0.586778,0.285603,26,0.0352806,10,0.000167585,-3.54424,0.442931,0.133204,0.586652,
2,1,0,1,0,17479.4,0.591085,0.5908,0.293262,26,0.0355216,10,0.00017326,-3.53274,0.329606,0.179002,0.590671,
2,1,0,1,0,17480.2,0.59508,0.594781,0.300685,26,0.0357687,10,0.000178842,-3.52189,0.285662,0.206538,0.594648,
2,1,0,1,0,17481,0.599076,0.598774,0.310411,26,0.0360229,10,0.000185866,-3.50806,0.295146,0.199901,0.598637,
2,1,0,0,0,17481.8,0.603071,0.602758,0.320723,26,0.0362848,10,0.000193318,-3.49387,0.284953,0.207052,0.602616,
2,1,0,1,0,17482.6,0.607066,0.606777,0.332629,26,0.0365558,10,0.000201832,-3.47804,0.237291,0.24864,0.60663,
2,1,0,1,0,17483.4,0.611061,0.6108,0.346288,26,0.036837,10,0.000211513,-3.46056,0.221628,0.266212,0.610648,
2,1,0,1,0,17484.2,0.615056,0.614769,0.362734,26,0.0371302,10,0.000222998,-3.44041,0.177968,0.331521,0.614609,
2,1,0,1,0,17485,0.619051,0.618748,0.381014,26,0.037438,10,0.000235752,-3.41906,0.170241,0.346568,0.61858,
2,1,0,0,0,17485.8,0.623047,0.622762,0.403719,26,0.037762,10,0.000251421,-3.39392,0.160689,0.36717,0.622585,
2,1,0,1,0,17486.6,0.627042,0.626747,0.430494,26,0.038105,10,0.000269811,-3.36603,0.133312,0.442572,0.626558,
2,1,0,1,0,17487.4,0.631037,0.6308,0.460439,26,0.0384708,10,0.000290445,-3.33683,0.136389,0.432586,0.630598,
2,1,0,1,0,17488.2,0.635032,0.634729,0.495551,26,0.0388624,10,0.000314541,-3.30491,0.116368,0.507014,0.634511,
2,1,0,1,0,17489,0.639027,0.638791,0.536853,26,0.0392847,10,0.000342937,-3.27014,0.113088,0.521717,0.638555,
2,1,0,1,0,17489.8,0.643022,0.642775,0.585499,26,0.0397426,10,0.000376344,-3.23247,0.102479,0.575729,0.642517,
2,1,0,1,0,17490.6,0.647018,0.646801,0.643537,26,0.0402429,10,0.00041624,-3.19143,0.0910576,0.647942,0.646517,
2,1,0,0,0,17491.4,0.651013,0.650783,0.710459,26,0.040794,10,0.000462355,-3.14846,0.0879844,0.670573,0.650471,
2,1,0,1,0,17492.2,0.655008,0.654772,0.792827,26,0.0414041,10,0.000519121,-3.10082,0.0831882,0.709235,0.654423,
2,1,0,1,0,17493,0.659003,0.658695,0.88527,26,0.0420832,10,0.000583123,-3.05292,0.0796989,0.740286,0.658306,
2,1,0,1,0,17493.8,0.662998,0.662756,0.994973,26,0.0428432,10,0.000659425,-3.00219,0.0772557,0.763698,0.662319,
2,1,0,1,0,17494.6,0.666994,0.666731,1.1199,26,0.043697,10,0.000746672,-2.95082,0.0748647,0.788089,0.666238,
2,1,0,0,0,17495.4,0.670989,0.670742,1.26696,26,0.0446599,10,0.000849801,-2.89724,0.0727485,0.811013,0.670185,
2,1,0,1,0,17496.2,0.674984,0.674775,1.4362,26,0.0457491,10,0.00096911,-2.84279,0.0720363,0.819031,0.674143,
2,1,0,1,0,17497,0.67898,0.678731,1.62729,26,0.0469819,10,0.00110449,-2.78853,0.0708297,0.832984,0.678015,
2,1,0,1,0,17497.8,0.682974,0.682682,1.84692,26,0.0483791,10,0.00126086,-2.73355,0.0716881,0.82301,0.681869,
2,1,0,1,0,17498.6,0.686969,0.68677,2.09294,26,0.0499621,10,0.00143737,-2.67924,0.0711262,0.829512,0.685849,
2,1,0,0,0,17499.4,0.690965,0.690748,2.36953,26,0.0517541,10,0.00163675,-2.62534,0.0731459,0.806607,0.689705,
2,1,0,1,0,17500.1,0.69496,0.694645,2.67394,26,0.0537781,10,0.00185744,-2.57285,0.0742573,0.794535,0.693469,
2,1,0,0,0,17500.9,0.698955,0.698739,3.01135,26,0.0560587,10,0.00210415,-2.52124,0.0754187,0.782299,0.697414,
2,1,0,1,0,17501.7,0.70295,0.702708,3.37982,26,0.0586209,10,0.00237502,-2.47111,0.0773863,0.762409,0.70122,
2,1,0,1,0,17502.5,0.706945,0.70669,3.78074,26,0.0614902,10,0.00267181,-2.42242,0.080608,0.731938,0.705026,
2,1,0,1,0,17503.3,0.71094,0.71068,4.21102,26,0.0646921,10,0.00299269,-2.37561,0.0809518,0.728828,0.708827,
2,1,0,1,0,17504.1,0.714936,0.714717,4.67444,26,0.0682514,10,0.00334091,-2.33027,0.0855481,0.68967,0.712661,
2,1,0,0,0,17504.9,0.718931,0.718619,5.16936,26,0.0721923,10,0.0037148,-2.28656,0.0883197,0.668028,0.716344,
2,1,0,1,0,17505.7,0.722927,0.722658,5.69238,26,0.0765407,10,0.00411364,-2.24471,0.091743,0.643101,0.720153,
2,1,0,1,0,17506.5,0.726921,0.726669,6.24572,26,0.0813187,10,0.00453857,-2.20442,0.0952454,0.619452,0.723921,
2,1,0,1,0,17507.3,0.730916,0.730582,6.82732,26,0.08655,10,0.00498792,-2.16575,0.0977013,0.603881,0.727578,
2,1,0,1,0,17508.1,0.734911,0.734651,7.43686,26,0.0922583,10,0.00546349,-2.12861,0.102502,0.575599,0.731378,
2,1,0,0,0,17508.9,0.738907,0.738637,8.07692,26,0.0984669,10,0.00596591,-2.09275,0.105687,0.558253,0.735083,
2,1,0,1,0,17509.7,0.742902,0.742609,8.74472,26,0.105197,10,0.00649391,-2.05825,0.108254,0.545015,0.738762,
2,1,0,1,0,17510.5,0.746897,0.746656,9.44226,26,0.112473,10,0.00705012,-2.02492,0.114038,0.517372,0.742501,
2,1,0,1,0,17511.3,0.750892,0.750641,10.1683,26,0.120317,10,0.00763276,-1.99275,0.113427,0.520158,0.746167,
2,1,0,1,0,17512.1,0.754887,0.754636,10.9267,26,0.128754,10,0.00824567,-1.96151,0.118113,0.49952,0.749828,
2,1,0,0,0,17512.9,0.758883,0.758656,11.7372,26,0.137817,10,0.00890452,-1.93043,0.125009,0.471966,0.753492,
2,1,0,1,0,17513.7,0.762878,0.762614,12.5378,26,0.147515,10,0.00956152,-1.90178,0.122473,0.481738,0.757097,
2,1,0,0,0,17514.5,0.766873,0.766619,13.426,26,0.157895,10,0.0102927,-1.87205,0.119352,0.494337,0.760712,
2,1,0,1,0,17515.3,0.770868,0.770613,14.3767,26,0.169013,10,0.0110789,-1.84234,0.121108,0.48717,0.764287,
2,1,0,1,0,17516.1,0.774863,0.774624,15.3719,26,0.180907,10,0.0119074,-1.81327,0.122586,0.481294,0.76786,
2,1,0,1,0,17516.9,0.778858,0.778591,16.4315,26,0.193618,10,0.0127934,-1.78432,0.120592,0.489254,0.771361,
2,1,0,1,0,17517.7,0.782854,0.782591,17.5713,26,0.207209,10,0.0137511,-1.7552,0.121976,0.483703,0.774859,
2,1,0,0,0,17518.5,0.786849,0.78661,18.7709,26,0.221737,10,0.0147653,-1.72652,0.119322,0.49446,0.778351,
2,1,0,1,0,17519.3,0.790844,0.790592,20.0379,26,0.237254,10,0.0158418,-1.69815,0.122306,0.482397,0.781775,
2,1,0,1,0,17520.1,0.794839,0.794585,21.3561,26,0.253803,10,0.0169693,-1.67048,0.122066,0.483344,0.785189,
2,1,0,1,0,17520.9,0.798834,0.798508,22.7669,26,0.27144,10,0.0181796,-1.6427,0.124627,0.473413,0.788491,
2,1,0,1,0,17521.7,0.802829,0.802606,24.1945,26,0.290215,10,0.0194186,-1.61628,0.133355,0.442427,0.79196,
2,1,0,0,0,17522.5,0.806825,0.806563,25.6794,26,0.310148,10,0.0207121,-1.59042,0.125745,0.469202,0.795265,
2,1,0,1,0,17523.3,0.81082,0.810554,27.1933,26,0.331286,10,0.0220416,-1.56554,0.135814,0.434416,0.798589,
2,1,0,1,0,17524.1,0.814815,0.81455,28.7628,26,0.353651,10,0.0234288,-1.54117,0.138661,0.425497,0.801894,
2,1,0,1,0,17524.9,0.81881,0.818528,30.3355,26,0.377275,10,0.0248305,-1.51805,0.142303,0.414609,0.80518,
2,1,0,1,0,17525.7,0.822805,0.822578,31.9828,26,0.402187,10,0.0263083,-1.49508,0.147789,0.399217,0.808505,
2,1,0,0,0,17526.5,0.826801,0.826592,33.5761,26,0.428408,10,0.0277538,-1.47397,0.168811,0.349504,0.811819,
2,1,0,1,0,17527.3,0.830796,0.830543,35.1344,26,0.455862,10,0.0291806,-1.45427,0.163755,0.360294,0.815084,
2,1,0,0,0,17528.1,0.834791,0.834583,36.5923,26,0.484545,10,0.0305393,-1.43661,0.188166,0.313554,0.818482,
2,1,0,1,0,17528.9,0.838786,0.838569,38.1202,26,0.514453,10,0.0319664,-1.41884,0.187302,0.315,0.821796,
2,1,0,1,0,17529.7,0.842781,0.842545,39.78,26,0.5456,10,0.0335164,-1.40034,0.197747,0.298361,0.825042,
2,1,0,1,0,17530.5,0.846776,0.846573,41.3448,26,0.578013,10,0.0350014,-1.38358,0.203118,0.290471,0.828382,
2,1,0,0,0,17531.2,0.849723,0.849493,42.3252,26,0.607406,10,0.0359549,-1.3734,0.0478607,1.23274,0.83087,
2,1,0,1,0,17532,0.845728,0.845488,39.9463,26,0.640166,10,0.0337741,-1.39852,0.139703,0.422324,0.827911,
2,1,0,0,0,17532.8,0.841732,0.841473,37.9745,26,0.671272,10,0.0319545,-1.42051,0.146312,0.403246,0.824764,
2,1,0,1,0,17533.6,0.837737,0.837494,36.1001,26,0.700854,10,0.0302336,-1.44249,0.145871,0.404468,0.82161,
2,1,0,1,0,17534.4,0.833742,0.8335,34.3643,26,0.728986,10,0.0286426,-1.46389,0.14698,0.401415,0.81838,
2,1,0,1,0,17535.2,0.829747,0.829489,32.5836,26,0.755718,10,0.0270278,-1.487,0.137084,0.430395,0.815152,
2,1,0,1,0,17536,0.825752,0.825532,30.8839,26,0.781053,10,0.0254956,-1.51027,0.140382,0.42028,0.811943,
2,1,0,0,0,17536.8,0.821757,0.821514,29.2499,26,0.805061,10,0.0240292,-1.53388,0.141116,0.418097,0.808644,
2,1,0,1,0,17537.6,0.817761,0.817517,27.6614,26,0.827788,10,0.0226136,-1.55813,0.129895,0.454211,0.805346,
2,1,0,1,0,17538.4,0.813766,0.813501,26.0565,26,0.849234,10,0.0211969,-1.58408,0.123141,0.479127,0.802036,
2,1,0,1,0,17539.2,0.809771,0.80951,24.5063,26,0.86941,10,0.0198381,-1.61072,0.125025,0.471905,0.798727,
2,1,0,1,0,17540,0.805776,0.80549,23.031,26,0.88838,10,0.0185512,-1.63769,0.123968,0.475929,0.795356,
2,1,0,0,0,17540.8,0.801781,0.80157,21.6095,26,0.906196,10,0.0173216,-1.66535,0.119118,0.495305,0.792062,
2,1,0,1,0,17541.6,0.797786,0.797575,20.2006,26,0.922884,10,0.0161115,-1.69464,0.114974,0.513161,0.788687,
2,1,0,1,0,17542.4,0.79379,0.793508,18.8883,26,0.938484,10,0.014988,-1.72381,0.116924,0.504601,0.785198,
2,1,0,1,0,17543.2,0.789795,0.789565,17.6499,26,0.953063,10,0.0139358,-1.75326,0.1161,0.508182,0.781799,
2,1,0,1,0,17544,0.7858,0.785545,16.4604,26,0.966675,10,0.0129304,-1.78356,0.115388,0.511318,0.778303,
2,1,0,0,0,17544.8,0.781805,0.781524,15.3213,26,0.979361,10,0.011974,-1.8147,0.108375,0.544405,0.774783,
2,1,0,1,0,17545.6,0.77781,0.777554,14.2268,26,0.991152,10,0.0110621,-1.84689,0.108331,0.544629,0.771294,
2,1,0,0,0,17546.4,0.773815,0.773552,13.1853,26,1.00209,10,0.0101995,-1.87991,0.105419,0.55967,0.76775,
2,1,0,1,0,17547.2,0.769819,0.769545,12.2005,26,1.01221,10,0.00938884,-1.91362,0.107319,0.549763,0.764177,
2,1,0,1,0,17548,0.765824,0.765553,11.3533,26,1.02159,10,0.00869156,-1.94488,0.120025,0.491563,0.760558,
2,1,0,1,0,17548.8,0.761829,0.76157,10.5427,26,1.03033,10,0.008029,-1.97705,0.107122,0.550775,0.756931,
2,1,0,1,0,17549.6,0.757834,0.757566,9.70075,26,1.0384,10,0.00734896,-2.01319,0.0996908,0.59183,0.753298,
2,1,0,0,0,17550.4,0.753839,0.753576,8.90214,26,1.04582,10,0.00670844,-2.05051,0.0966299,0.610577,0.749659,
2,1,0,1,0,17551.2,0.749844,0.749584,8.15934,26,1.05262,10,0.00611611,-2.08835,0.0950708,0.62059,0.745993,
2,1,0,1,0,17552,0.745848,0.745625,7.45011,26,1.05885,10,0.00555499,-2.12784,0.0903488,0.653024,0.742347,
2,1,0,1,0,17552.8,0.741853,0.741549,6.78351,26,1.06452,10,0.0050303,-2.16855,0.0908829,0.649187,0.738564,
2,1,0,1,0,17553.6,0.737858,0.737598,6.15878,26,1.06968,10,0.00454271,-2.21051,0.0885529,0.666268,0.734888,
2,1,0,0,0,17554.4,0.733863,0.733575,5.57547,26,1.07435,10,0.00409002,-2.25372,0.0848606,0.695258,0.731121,
2,1,0,1,0,17555.2,0.729868,0.729581,5.03112,26,1.07857,10,0.00367061,-2.29834,0.0830515,0.710402,0.727367,
2,1,0,1,0,17556,0.725872,0.72565,4.52313,26,1.08238,10,0.00328221,-2.34456,0.0800952,0.736623,0.72366,
2,1,0,1,0,17556.8,0.721877,0.721659,4.05342,26,1.08579,10,0.00292518,-2.39218,0.0796653,0.740598,0.719875,
2,1,0,1,0,17557.6,0.717882,0.717638,3.61869,26,1.08884,10,0.00259691,-2.44145,0.0751325,0.785279,0.716046,
2,1,0,0,0,17558.4,0.713887,0.713642,3.21667,26,1.09156,10,0.00229555,-2.49259,0.0733089,0.804814,0.712227,
2,1,0,1,0,17559.2,0.709892,0.709636,2.84754,26,1.09397,10,0.00202072,-2.54553,0.0701113,0.841519,0.708383,
2,1,0,0,0,17560,0.705897,0.705619,2.50988,26,1.0961,10,0.00177102,-2.60035,0.0698791,0.844315,0.704515,
2,1,0,1,0,17560.8,0.701901,0.701638,2.2002,26,1.09797,10,0.00154375,-2.65754,0.0659523,0.894586,0.70067,
2,1,0,1,0,17561.6,0.697906,0.697644,1.91778,26,1.0996,10,0.00133793,-2.7172,0.0639993,0.921885,0.6968,
2,1,0,1,0,17562.4,0.693911,0.693708,1.66239,26,1.10102,10,0.00115321,-2.77927,0.0611796,0.964374,0.692976,
2,1,0,1,0,17563.2,0.689916,0.689629,1.43294,26,1.10224,10,0.000988195,-2.84377,0.0586258,1.00638,0.688999,
2,1,0,0,0,17564,0.685921,0.685659,1.22672,26,1.10329,10,0.000841109,-2.91126,0.0577917,1.02091,0.685119,
2,1,0,1,0,17564.8,0.681926,0.681673,1.04382,26,1.10418,10,0.000711543,-2.98137,0.0541355,1.08986,0.681214,
2,1,0,1,0,17565.6,0.67793,0.677662,0.881396,26,1.10494,10,0.000597289,-3.05483,0.0524202,1.12552,0.677274,
2,1,0,1,0,17566.4,0.673935,0.673662,0.738057,26,1.10558,10,0.000497201,-3.13191,0.0507452,1.16267,0.673338,
2,1,0,1,0,17567.2,0.66994,0.669692,0.614574,26,1.10611,10,0.000411575,-3.21143,0.047918,1.23127,0.669421,
2,1,0,0,0,17568,0.665945,0.665665,0.506774,26,1.10654,10,0.000337342,-3.29519,0.0454887,1.29703,0.665442,
2,1,0,1,0,17568.8,0.66195,0.661688,0.413315,26,1.1069,10,0.000273486,-3.38372,0.0425242,1.38744,0.661506,
2,1,0,0,0,17569.6,0.657955,0.657639,0.331666,26,1.10718,10,0.000218116,-3.4793,0.0411324,1.43439,0.657493,
2,1,0,1,0,17570.4,0.653959,0.653723,0.26193,26,1.10741,10,0.00017123,-3.58181,0.037439,1.5759,0.653607,
2,1,0,1,0,17571.2,0.649964,0.649705,0.204369,26,1.10759,10,0.000132779,-3.68959,0.0343071,1.71976,0.649615,
2,1,0,1,0,17572,0.64597,0.645693,0.15412,26,1.10772,10,9.95143e-05,-3.81214,0.0302686,1.94922,0.645625,
2,1,0,1,0,17572.8,0.641974,0.641726,0.111296,26,1.10781,10,7.14215e-05,-3.95352,0.0269235,2.1914,0.641677,
2,1,0,0,0,17573.6,0.637979,0.637719,0.0765277,26,1.10788,10,4.88032e-05,-4.11618,0.0205752,2.86753,0.637686,
2,1,0,1,0,17574.4,0.633983,0.633699,0.0453613,26,1.10792,10,2.87454e-05,-4.34331,0.0158096,3.7319,0.633679,
2,1,0,1,0,17575.2,0.629988,0.629748,0.0205762,26,1.10793,10,1.29578e-05,-4.68663,0.00728946,8.09387,0.629739,
2,1,0,1,0,17576,0.625993,0.625698,9.92239e-06,26,1.10793,10,6.20843e-09,-8.00338,0.12581,0.468962,0.625698,
2,0,0,1,0,17576.8,0.621998,0.621713,-0.0177243,26,1.10791,10,-1.10194e-05,-4.75143,-0.00891961,-6.61464,0.621721,
2,0,0,0,0,17577.6,0.618003,0.617706,-0.0320188,26,1.10788,10,-1.97782e-05,-4.49459,-0.0208112,-2.83502,0.61772,
2,0,0,1,0,17578.4,0.614008,0.613682,-0.0427121,26,1.10784,10,-2.62117e-05,-4.36945,-0.0415593,-1.41966,0.613701,
2,0,0,1,0,17579.2,0.610012,0.609729,-0.0538194,26,1.10779,10,-3.28152e-05,-4.26906,-0.0543476,-1.0856,0.609752,
2,0,0,1,0,17580,0.606017,0.605747,-0.0610247,26,1.10774,10,-3.69655e-05,-4.21449,-0.0803856,-0.733963,0.605774,
2,0,0,1,0,17580.8,0.602022,0.601769,-0.0695234,26,1.10767,10,-4.18371e-05,-4.15787,-0.0966211,-0.610633,0.6018,
2,0,0,0,0,17581.6,0.598027,0.597723,-0.0748288,26,1.10761,10,-4.47269e-05,-4.12593,-0.107044,-0.551177,0.597756,
2,0,0,1,0,17582.4,0.594032,0.593712,-0.0802675,26,1.10753,10,-4.76558e-05,-4.09546,-0.12098,-0.487682,0.593748,
2,0,0,0,0,17583.1,0.590037,0.589696,-0.0852247,26,1.10746,10,-5.02566e-05,-4.06943,-0.303238,-0.194567,0.589733,
2,0,0,1,0,17583.9,0.586041,0.58577,-0.0894533,26,1.10738,10,-5.2399e-05,-4.0484,-0.231816,-0.254512,0.585809,
2,0,0,1,0,17584.7,0.582046,0.581767,-0.0917018,26,1.10729,10,-5.33491e-05,-4.03762,-0.246836,-0.239025,0.581807,
2,0,0,1,0,17585.5,0.578052,0.577747,-0.0946189,26,1.10721,10,-5.46658e-05,-4.02402,-0.365221,-0.161546,0.577789,
2,0,0,1,0,17586.3,0.574056,0.573785,-0.0967984,26,1.10712,10,-5.55415e-05,-4.01413,-0.306486,-0.192504,0.573828,
2,0,0,0,0,17587.1,0.570061,0.569801,-0.0986093,26,1.10703,10,-5.61877e-05,-4.00608,-0.563304,-0.104739,0.569845,
2,0,0,1,0,17587.9,0.566065,0.565793,-0.102191,26,1.10694,10,-5.78191e-05,-3.99059,-0.337201,-0.17497,0.565838,
2,0,0,1,0,17588.7,0.56207,0.561768,-0.104689,26,1.10685,10,-5.88109e-05,-3.9801,-0.552279,-0.10683,0.561814,
2,0,0,1,0,17589.5,0.558075,0.557786,-0.104894,26,1.10675,10,-5.85086e-05,-3.97925,-0.723462,-0.0815523,0.557832,
2,0,0,1,0,17590.3,0.55408,0.553811,-0.106703,26,1.10666,10,-5.90932e-05,-3.97182,-0.648091,-0.0910365,0.553858,
2,0,0,0,0,17591.1,0.550085,0.549805,-0.106981,26,1.10656,10,-5.88186e-05,-3.97069,-0.929128,-0.0635004,0.549852,
2,0,0,1,0,17591.9,0.54609,0.545771,-0.109035,26,1.10646,10,-5.9508e-05,-3.96244,-2.07336,-0.0284562,0.545819,
2,0,0,1,0,17592.7,0.542094,0.541796,-0.110362,26,1.10637,10,-5.9794e-05,-3.95718,-0.539604,-0.109339,0.541845,
2,0,0,1,0,17593.5,0.538099,0.537776,-0.11142,26,1.10627,10,-5.99188e-05,-3.95304,-32.5585,-0.00181212,0.537825,
2,0,0,1,0,17594.3,0.534104,0.53389,-0.113303,26,1.10617,10,-6.04915e-05,-3.94576,-0.56207,-0.104969,0.53394,
2,0,0,0,0,17595.1,0.530109,0.529804,-0.113002,26,1.10607,10,-5.98691e-05,-3.94691,-1.15687,-0.0509996,0.529853,
2,0,0,1,0,17595.9,0.526114,0.525776,-0.11428,26,1.10596,10,-6.00859e-05,-3.94203,-0.796929,-0.0740342,0.525827,
2,0,0,0,0,17596.7,0.522119,0.521855,-0.115273,26,1.10586,10,-6.01557e-05,-3.93827,-0.900606,-0.0655115,0.521906,
2,0,0,1,0,17597.5,0.518123,0.517827,-0.116674,26,1.10576,10,-6.04172e-05,-3.93302,-1.0634,-0.0554822,0.517879,
2,0,0,1,0,17598.3,0.514128,0.513835,-0.117348,26,1.10565,10,-6.02977e-05,-3.93052,-1.32419,-0.0445556,0.513887,
2,0,0,1,0,17599.1,0.510133,0.509815,-0.118116,26,1.10555,10,-6.02175e-05,-3.92769,-1.71352,-0.034432,0.509867,
2,0,0,1,0,17599.9,0.506138,0.505844,-0.118475,26,1.10544,10,-5.99299e-05,-3.92637,7.18216,0.0082148,0.505896,
2,0,0,0,0,17600.7,0.502143,0.501856,-0.120395,26,1.10534,10,-6.04209e-05,-3.91939,-0.447156,-0.131945,0.501909,
2,0,0,1,0,17601.5,0.498148,0.497861,-0.122786,26,1.10523,10,-6.11304e-05,-3.91085,-1.42521,-0.0413974,0.497915,
2,0,0,1,0,17602.3,0.494152,0.493894,-0.122683,26,1.10512,10,-6.05923e-05,-3.91122,-1.38774,-0.0425151,0.493948,
2,0,0,1,0,17603.1,0.490157,0.489841,-0.123176,26,1.10501,10,-6.03364e-05,-3.90948,-0.498205,-0.118425,0.489895,
2,0,0,1,0,17603.9,0.486162,0.485832,-0.124335,26,1.1049,10,-6.04061e-05,-3.90541,12.9425,0.00455862,0.485887,
2,0,0,0,0,17604.7,0.482167,0.481861,-0.125704,26,1.10479,10,-6.05718e-05,-3.90065,-0.678719,-0.0869285,0.481916,
2,0,0,1,0,17605.5,0.478172,0.477876,-0.126447,26,1.10468,10,-6.04262e-05,-3.89809,-0.751653,-0.0784937,0.477931,
2,0,0,0,0,17606.3,0.474177,0.473905,-0.127985,26,1.10456,10,-6.0653e-05,-3.89284,-2.74371,-0.0215037,0.473962,
2,0,0,1,0,17607.1,0.470181,0.46987,-0.129964,26,1.10445,10,-6.10664e-05,-3.88618,-0.80235,-0.073534,0.469927,
2,0,0,1,0,17607.9,0.466186,0.465891,-0.130979,26,1.10433,10,-6.10218e-05,-3.8828,-1.55667,-0.0379013,0.465949,
2,0,0,1,0,17608.7,0.462191,0.461906,-0.132867,26,1.10422,10,-6.13721e-05,-3.87658,-0.437111,-0.134977,0.461965,
2,0,0,1,0,17609.5,0.458196,0.457915,-0.133479,26,1.1041,10,-6.1122e-05,-3.87459,-4.48828,-0.0131453,0.457973,
2,0,0,0,0,17610.3,0.454201,0.453893,-0.135265,26,1.10398,10,-6.13959e-05,-3.86881,-0.428314,-0.137749,0.453953,
2,0,0,1,0,17611.1,0.450205,0.449945,-0.137712,26,1.10386,10,-6.19629e-05,-3.86103,-1.27119,-0.0464134,0.450006,
2,0,0,1,0,17611.9,0.44621,0.445925,-0.138342,26,1.10374,10,-6.16901e-05,-3.85905,-0.52221,-0.112981,0.445986,
2,0,0,1,0,17612.7,0.442215,0.441927,-0.140515,26,1.10362,10,-6.20972e-05,-3.85228,-5.49785,-0.0107315,0.441989,
2,0,0,1,0,17613.5,0.43822,0.437918,-0.141041,26,1.10349,10,-6.17644e-05,-3.85065,-0.482189,-0.122359,0.43798,
2,0,0,0,0,17614.3,0.434225,0.433902,-0.14365,26,1.10337,10,-6.23299e-05,-3.84269,-1.07635,-0.0548147,0.433965,
2,0,0,1,0,17615.1,0.43023,0.429937,-0.14528,26,1.10324,10,-6.24611e-05,-3.8378,-1.40696,-0.0419344,0.430001,
2,0,0,1,0,17615.9,0.426234,0.425939,-0.147301,26,1.10311,10,-6.27414e-05,-3.83179,-0.445379,-0.132471,0.426003,
2,0,0,1,0,17616.7,0.422239,0.421977,-0.148619,26,1.10298,10,-6.27138e-05,-3.82793,-0.758663,-0.0777684,0.422043,
2,0,0,1,0,17617.5,0.418244,0.417928,-0.151251,26,1.10285,10,-6.32121e-05,-3.8203,-0.925427,-0.0637543,0.417994,
2,0,0,0,0,17618.3,0.414249,0.413933,-0.152386,26,1.10272,10,-6.30778e-05,-3.81705,-1.11187,-0.0530636,0.414,
2,0,0,1,0,17619.1,0.410254,0.409915,-0.154567,26,1.10259,10,-6.33593e-05,-3.81088,-1.1322,-0.0521111,0.409983,
2,0,0,0,0,17619.9,0.406259,0.405934,-0.156406,26,1.10245,10,-6.34906e-05,-3.80575,-0.449809,-0.131167,0.406003,
2,0,0,1,0,17620.7,0.402263,0.401985,-0.158787,26,1.10231,10,-6.38301e-05,-3.79918,-0.71222,-0.0828395,0.402055,
2,0,0,1,0,17621.5,0.398268,0.397978,-0.161164,26,1.10217,10,-6.41399e-05,-3.79273,-0.752588,-0.0783961,0.398049,
2,0,0,1,0,17622.3,0.394274,0.393932,-0.162684,26,1.10203,10,-6.40865e-05,-3.78866,-0.802484,-0.0735217,0.394004,
2,0,0,1,0,17623.1,0.390278,0.389989,-0.163666,26,1.10189,10,-6.38278e-05,-3.78604,-1.32776,-0.0444358,0.390061,
2,0,0,0,0,17623.9,0.386283,0.386019,-0.166719,26,1.10175,10,-6.43568e-05,-3.77801,-0.520595,-0.113332,0.386092,
2,0,0,1,0,17624.7,0.382287,0.38201,-0.167601,26,1.1016,10,-6.40252e-05,-3.77572,-0.624204,-0.0945204,0.382084,
2,0,0,1,0,17625.5,0.378292,0.377981,-0.170361,26,1.10145,10,-6.43934e-05,-3.76863,-2.04396,-0.0288655,0.378056,
2,0,0,1,0,17626.3,0.374297,0.374021,-0.172867,26,1.10131,10,-6.46558e-05,-3.76229,-0.540251,-0.109209,0.374097,
2,0,0,1,0,17627.1,0.370303,0.370012,-0.17418,26,1.10115,10,-6.44485e-05,-3.759,-0.88796,-0.0664444,0.370088,
2,0,0,0,0,17627.9,0.366307,0.366012,-0.176189,26,1.101,10,-6.44873e-05,-3.75402,-0.633405,-0.0931473,0.36609,
2,0,0,1,0,17628.7,0.362312,0.362013,-0.178885,26,1.10085,10,-6.47587e-05,-3.74743,-1.037,-0.0568949,0.362092,
2,0,0,1,0,17629.5,0.358316,0.357986,-0.18119,26,1.10069,10,-6.48634e-05,-3.74187,-0.59988,-0.098353,0.358065,
2,0,0,1,0,17630.3,0.354321,0.353987,-0.183869,26,1.10053,10,-6.50872e-05,-3.73549,-0.722903,-0.0816154,0.354068,
2,0,0,1,0,17631.1,0.350327,0.350028,-0.185282,26,1.10037,10,-6.48538e-05,-3.73217,-0.60907,-0.096869,0.35011,
2,0,0,0,0,17631.9,0.346331,0.345991,-0.188393,26,1.10021,10,-6.51822e-05,-3.72494,-4.92223,-0.0119864,0.346074,
2,0,0,1,0,17632.7,0.342336,0.342063,-0.189569,26,1.10005,10,-6.48446e-05,-3.72223,-0.460977,-0.127989,0.342146,
2,0,0,0,0,17633.5,0.338341,0.338028,-0.192555,26,1.09988,10,-6.50888e-05,-3.71545,-1.11944,-0.052705,0.338113,
2,0,0,1,0,17634.3,0.334345,0.334032,-0.194479,26,1.09971,10,-6.49623e-05,-3.71113,-0.725182,-0.0813588,0.334118,
2,0,0,1,0,17635.1,0.33035,0.330068,-0.196675,26,1.09955,10,-6.4916e-05,-3.70625,-0.725243,-0.081352,0.330154,
2,0,0,1,0,17635.9,0.326355,0.326106,-0.20007,26,1.09937,10,-6.52441e-05,-3.69882,-0.621816,-0.0948834,0.326194,
2,0,0,1,0,17636.7,0.32236,0.322086,-0.20248,26,1.0992,10,-6.52159e-05,-3.69362,-0.84726,-0.0696363,0.322175,
2,0,0,0,0,17637.5,0.318365,0.318071,-0.204141,26,1.09902,10,-6.49312e-05,-3.69007,-0.605552,-0.0974317,0.318161,
2,0,0,1,0,17638.3,0.31437,0.314052,-0.207258,26,1.09885,10,-6.50898e-05,-3.68349,-2.74635,-0.021483,0.314144,
2,0,0,1,0,17639.1,0.310374,0.310052,-0.20986,26,1.09867,10,-6.50676e-05,-3.67807,-0.516814,-0.114161,0.310145,
2,0,0,1,0,17639.9,0.306379,0.306103,-0.212793,26,1.09849,10,-6.51365e-05,-3.67204,-1.12398,-0.0524921,0.306196,
2,0,0,1,0,17640.7,0.302385,0.302094,-0.214881,26,1.0983,10,-6.49142e-05,-3.6678,-0.518472,-0.113796,0.302188,
2,0,0,0,0,17641.5,0.298389,0.298099,-0.21711,26,1.09812,10,-6.47202e-05,-3.66332,-0.987081,-0.0597722,0.298194,
2,0,0,1,0,17642.3,0.294394,0.294081,-0.220128,26,1.09793,10,-6.47354e-05,-3.65732,-0.858538,-0.0687214,0.294177,
2,0,0,1,0,17643.1,0.290398,0.290103,-0.222882,26,1.09774,10,-6.46586e-05,-3.65193,-0.934813,-0.0631142,0.290201,
2,0,0,1,0,17643.9,0.286403,0.286118,-0.22417,26,1.09755,10,-6.41389e-05,-3.64942,-0.716748,-0.0823163,0.286216,
2,0,0,1,0,17644.7,0.282408,0.28208,-0.227906,26,1.09735,10,-6.42877e-05,-3.64224,-1.1381,-0.0518406,0.28218,
2,0,0,1,0,17645.5,0.278414,0.278091,-0.230177,26,1.09716,10,-6.40101e-05,-3.63794,-0.512618,-0.115095,0.278192,
2,0,0,1,0,17646.3,0.274418,0.274091,-0.232914,26,1.09696,10,-6.38395e-05,-3.63281,-0.926466,-0.0636828,0.274193,
2,0,0,0,0,17647.1,0.270423,0.2701,-0.23607,26,1.09676,10,-6.37625e-05,-3.62696,-0.822219,-0.071757,0.270203,
2,0,0,1,0,17647.9,0.266427,0.266132,-0.238263,26,1.09656,10,-6.34096e-05,-3.62294,-0.738595,-0.0798814,0.266237,
2,0,0,1,0,17648.7,0.262432,0.262088,-0.241212,26,1.09635,10,-6.32187e-05,-3.6176,-0.833893,-0.0707525,0.262194,
2,0,0,1,0,17649.5,0.258437,0.258142,-0.243819,26,1.09615,10,-6.29398e-05,-3.61293,-0.960874,-0.0614024,0.258249,
2,0,0,1,0,17650.3,0.254442,0.254101,-0.24502,26,1.09594,10,-6.226e-05,-3.6108,-0.600821,-0.0981989,0.254209,
2,0,0,0,0,17651.1,0.250447,0.250118,-0.248468,26,1.09573,10,-6.21465e-05,-3.60473,18.5121,0.0031871,0.250228,
2,0,0,1,0,17651.9,0.246452,0.246131,-0.250402,26,1.09551,10,-6.16316e-05,-3.60136,-0.760186,-0.0776126,0.246241,
2,0,0,1,0,17652.7,0.242456,0.242094,-0.253031,26,1.0953,10,-6.12574e-05,-3.59683,-0.821489,-0.0718208,0.242205,
2,0,0,1,0,17653.5,0.238461,0.238117,-0.255726,26,1.09508,10,-6.08926e-05,-3.59222,-0.997547,-0.0591451,0.238229,
2,0,0,1,0,17654.3,0.234467,0.234164,-0.257902,26,1.09487,10,-6.03913e-05,-3.58855,-0.633634,-0.0931137,0.234277,
2,0,0,0,0,17655.1,0.230471,0.230173,-0.260571,26,1.09465,10,-5.99764e-05,-3.58407,-1.41298,-0.0417557,0.230288,
2,0,0,1,0,17655.9,0.226476,0.226202,-0.263097,26,1.09442,10,-5.95131e-05,-3.57988,-1.24419,-0.0474203,0.226318,
2,0,0,0,0,17656.7,0.222481,0.222166,-0.265463,26,1.0942,10,-5.89769e-05,-3.576,-0.841879,-0.0700814,0.222283,
2,0,0,1,0,17657.5,0.218485,0.218167,-0.268269,26,1.09397,10,-5.85273e-05,-3.57143,-1.52106,-0.0387888,0.218285,
2,0,0,1,0,17658.3,0.21449,0.214194,-0.271932,26,1.09374,10,-5.82462e-05,-3.56554,-0.522343,-0.112953,0.214313,
2,0,0,1,0,17659.1,0.210496,0.210153,-0.274015,26,1.09351,10,-5.7585e-05,-3.56223,-1.06232,-0.0555388,0.210274,
2,0,0,1,0,17659.9,0.2065,0.206189,-0.277611,26,1.09328,10,-5.72403e-05,-3.55656,-0.676077,-0.0872681,0.206311,
2,0,0,0,0,17660.7,0.202505,0.202201,-0.281491,26,1.09304,10,-5.69176e-05,-3.55054,-0.717034,-0.0822834,0.202325,
2,0,0,1,0,17661.5,0.198509,0.198197,-0.284644,26,1.0928,10,-5.64157e-05,-3.5457,-0.957415,-0.0616243,0.198323,
2,0,0,1,0,17662.3,0.194514,0.194231,-0.288854,26,1.09256,10,-5.61043e-05,-3.53932,-0.601044,-0.0981625,0.194358,
2,0,0,1,0,17663.1,0.190519,0.190221,-0.291437,26,1.09231,10,-5.54376e-05,-3.53546,-0.64245,-0.0918359,0.19035,
2,0,0,1,0,17663.9,0.186524,0.186217,-0.29779,26,1.09206,10,-5.54537e-05,-3.52609,-0.634399,-0.0930014,0.186348,
2,0,0,0,0,17664.7,0.182529,0.182231,-0.303328,26,1.09181,10,-5.52757e-05,-3.51809,-0.346028,-0.170507,0.182365,
2,0,0,1,0,17665.5,0.178534,0.178217,-0.309341,26,1.09155,10,-5.51299e-05,-3.50956,-0.527039,-0.111946,0.178354,
2,0,0,1,0,17666.2,0.174538,0.174241,-0.316798,26,1.09129,10,-5.51991e-05,-3.49922,-0.365994,-0.161205,0.17438,
2,0,0,1,0,17667,0.170543,0.1702,-0.324955,26,1.09102,10,-5.53072e-05,-3.48818,-0.273763,-0.215515,0.170343,
2,0,0,1,0,17667.8,0.166549,0.166254,-0.335745,26,1.09074,10,-5.5819e-05,-3.47399,-0.268134,-0.220039,0.166402,
2,0,0,0,0,17668.6,0.162553,0.162216,-0.348358,26,1.09045,10,-5.65092e-05,-3.45797,-0.209903,-0.281082,0.162369,
2,0,0,1,0,17669.4,0.158558,0.158285,-0.36487,26,1.09015,10,-5.77534e-05,-3.43786,-0.181589,-0.32491,0.158446,
2,0,0,0,0,17670.2,0.154563,0.154253,-0.3884,26,1.08984,10,-5.99121e-05,-3.41072,-0.151502,-0.389433,0.154424,
2,0,0,1,0,17671,0.150567,0.150202,-0.417804,26,1.0895,10,-6.27552e-05,-3.37903,-0.107227,-0.550233,0.150386,
2,0,0,1,0,17671.8,0.146572,0.146308,-0.455255,26,1.08914,10,-6.66075e-05,-3.34175,-0.0980859,-0.601514,0.146508,
2,0,0,1,0,17672.6,0.142578,0.142286,-0.505834,26,1.08875,10,-7.19731e-05,-3.29599,-0.0820937,-0.718691,0.142509,
2,0,0,1,0,17673.4,0.138582,0.138234,-0.563839,26,1.0883,10,-7.79416e-05,-3.24885,-0.0859187,-0.686696,0.138482,
2,0,0,0,0,17674.2,0.134587,0.134255,-0.625264,26,1.08781,10,-8.39449e-05,-3.20394,-0.0989253,-0.59641,0.13453,
2,0,0,1,0,17675,0.130591,0.130255,-0.678096,26,1.08728,10,-8.83253e-05,-3.16871,-0.129013,-0.457318,0.130553,
2,0,0,1,0,17675.8,0.126596,0.126293,-0.716327,26,1.08671,10,-9.04673e-05,-3.14489,-0.204578,-0.288398,0.126609,
2,0,0,1,0,17676.6,0.122602,0.122295,-0.743436,26,1.08611,10,-9.09186e-05,-3.12876,-0.442105,-0.133453,0.122622,
2,0,0,1,0,17677.4,0.118607,0.118315,-0.752793,26,1.08549,10,-8.9067e-05,-3.12332,-0.921747,-0.0640089,0.118647,
2,0,0,0,0,17678.2,0.114611,0.114314,-0.754317,26,1.08488,10,-8.62291e-05,-3.12245,1.14592,0.0514869,0.114646,
2,0,0,1,0,17679,0.110616,0.110275,-0.748437,26,1.08426,10,-8.25339e-05,-3.12584,1.11854,0.0527473,0.110604,
2,0,0,1,0,17679.8,0.10662,0.106321,-0.73923,26,1.08365,10,-7.8596e-05,-3.13122,0.774783,0.0761504,0.106647,
2,0,0,1,0,17680.6,0.102625,0.102374,-0.728702,26,1.08305,10,-7.46002e-05,-3.13745,0.525453,0.112284,0.102695,
2,0,0,1,0,17681.4,0.0986305,0.098298,-0.717085,26,1.08246,10,-7.0488e-05,-3.14443,0.541177,0.109022,0.0986135,
2,0,0,0,0,17682.2,0.0946351,0.0942948,-0.700625,26,1.08188,10,-6.60653e-05,-3.15451,0.465724,0.126684,0.094603,
2,0,0,1,0,17683,0.0906399,0.0903044,-0.68961,26,1.08131,10,-6.22748e-05,-3.1614,0.449041,0.131391,0.0906079,
2,0,0,0,0,17683.8,0.0866448,0.0863078,-0.677951,26,1.08075,10,-5.85125e-05,-3.1688,0.671012,0.0879268,0.0866061,
2,0,0,1,0,17684.6,0.0826492,0.0823288,-0.666271,26,1.0802,10,-5.48533e-05,-3.17635,0.514376,0.114702,0.0826219,
2,0,0,1,0,17685.4,0.0786544,0.0783536,-0.656899,26,1.07965,10,-5.14705e-05,-3.1825,0.579394,0.10183,0.0786427,
2,0,0,1,0,17686.2,0.0746596,0.074349,-0.646941,26,1.07912,10,-4.80994e-05,-3.18914,0.732849,0.0805077,0.0746336,
2,0,0,1,0,17687,0.0706641,0.0702956,-0.637745,26,1.07859,10,-4.48307e-05,-3.19535,0.614798,0.0959664,0.0705762,
2,0,0,0,0,17687.8,0.0666689,0.0663498,-0.630004,26,1.07807,10,-4.18007e-05,-3.20066,0.913222,0.0646064,0.0666271,
2,0,0,1,0,17688.6,0.0626737,0.062367,-0.61863,26,1.07756,10,-3.85821e-05,-3.20857,0.54891,0.107486,0.0626392,
2,0,0,1,0,17689.4,0.0586783,0.0583544,-0.611744,26,1.07705,10,-3.56979e-05,-3.21343,0.511287,0.115395,0.0586236,
2,0,0,1,0,17690.2,0.0546835,0.0543684,-0.60065,26,1.07656,10,-3.26564e-05,-3.22138,0.673916,0.087548,0.0546327,
2,0,0,1,0,17691,0.0506886,0.0503848,-0.590781,26,1.07607,10,-2.97664e-05,-3.22857,0.523913,0.112614,0.0506447,
2,0,0,0,0,17691.8,0.046693,0.0463241,-0.581065,26,1.07558,10,-2.69173e-05,-3.23578,0.490923,0.120182,0.0465797,
2,0,0,1,0,17692.6,0.0426979,0.0423751,-0.570491,26,1.07511,10,-2.41746e-05,-3.24375,0.513039,0.115001,0.0426261,
2,0,0,1,0,17693.4,0.0387022,0.0384088,-0.560235,26,1.07464,10,-2.15179e-05,-3.25163,0.432142,0.136529,0.0386553,
2,0,0,1,0,17694.2,0.0347074,0.0343425,-0.548872,26,1.07419,10,-1.88496e-05,-3.26053,0.627657,0.0940004,0.034584,
2,0,0,1,0,17695,0.0307126,0.0303981,-0.536126,26,1.07374,10,-1.62972e-05,-3.27073,0.426328,0.138391,0.030634,
2,0,0,0,0,17695.8,0.0267172,0.0263757,-0.529954,26,1.0733,10,-1.39779e-05,-3.27576,0.428212,0.137782,0.0266089,
2,0,0,1,0,17696.6,0.022722,0.0224013,-0.519249,26,1.07287,10,-1.16319e-05,-3.28462,0.629104,0.0937841,0.0226298,
2,0,0,0,0,17697.4,0.0187268,0.0183951,-0.512678,26,1.07244,10,-9.43076e-06,-3.29016,0.757983,0.0778382,0.0186207,
2,0,0,1,0,17698.2,0.0147313,0.0144224,-0.508024,26,1.07202,10,-7.3269e-06,-3.29412,1.11846,0.0527509,0.0146459,
2,0,0,1,0,17699,0.0107365,0.0104038,-0.502339,26,1.0716,10,-5.22622e-06,-3.299,1.45179,0.0406396,0.0106248,
2,0,0,1,0,17699.8,0.00674163,0.0064013,-0.499643,26,1.07119,10,-3.19837e-06,-3.30134,7.09255,0.00831858,0.00662114,
2,0,0,1,0,17700.6,0.00274612,0.00242007,-0.499857,26,1.07078,10,-1.20969e-06,-3.30115,-4.1732,-0.0141378,0.00264001,
2,0,0,0,0,17701.1,0.000274105,-8.19602e-05,-0.500763,26,1.07052,10,4.10427e-08,-3.30037, , ,0.000138376,