File: Figure_codes/Fig_3-5/workspace_calculate_alpha_eff/20221101_1-115_003_TrumpetPlot_ParaChange_from10_every3_16_CV_C01_73.csv
mode,ox/red,error,control changes,counter inc.,time/s,control/V,Ewe/V,<I>/mA,cycle number,(Q-Qo)/C,I Range,P/W,log(|I|),Tafel slope mV/dec,alpha_eff,E-IR/V,
2,0,0,0,0,48883.2,2.44065e-05,-0.000344411,-0.0936697,74,0.0000000E+000,10,3.22609e-08,-4.0284, , ,-0.000303196,
2,1,0,0,0,48884,0.00379485,0.00346139,0.149515,74,9.03468e-05,10,5.1753e-07,-3.82531,0.0314381,1.87671,0.0033956,
2,1,0,1,0,48884.8,0.00779002,0.00744321,0.174825,74,0.000230579,10,1.30126e-06,-3.7574,0.0787348,0.749351,0.00736629,
2,1,0,0,0,48885.6,0.0117852,0.0114335,0.189178,74,0.000386732,10,2.16297e-06,-3.72313,0.110093,0.53591,0.0113503,
2,1,0,1,0,48886.4,0.0157806,0.0154166,0.204701,74,0.000554539,10,3.15579e-06,-3.68888,0.146317,0.403235,0.0153265,
2,1,0,1,0,48887.2,0.0197754,0.0194078,0.217876,74,0.000733046,10,4.22849e-06,-3.66179,0.146097,0.40384,0.0193119,
2,1,0,1,0,48888,0.0237704,0.0234718,0.230392,74,0.000922264,10,5.40773e-06,-3.63753,0.158171,0.373013,0.0233705,
2,1,0,1,0,48888.8,0.0277659,0.0274594,0.245154,74,0.00112201,10,6.7318e-06,-3.61056,0.179482,0.328725,0.0273516,
2,1,0,0,0,48889.6,0.0317611,0.0314445,0.257853,74,0.00133272,10,8.10804e-06,-3.58863,0.169692,0.34769,0.031331,
2,1,0,1,0,48890.4,0.0357567,0.0354779,0.27161,74,0.00155444,10,9.63614e-06,-3.56605,0.197466,0.298786,0.0353584,
2,1,0,1,0,48891.2,0.0397516,0.0394029,0.286365,74,0.00178697,10,1.12836e-05,-3.54308,0.167167,0.35294,0.0392769,
2,1,0,1,0,48892,0.0437465,0.0434428,0.298269,74,0.00203116,10,1.29577e-05,-3.52539,0.205992,0.286419,0.0433116,
2,1,0,1,0,48892.8,0.0477413,0.047434,0.311936,74,0.00228556,10,1.47964e-05,-3.50593,0.228017,0.258753,0.0472967,
2,1,0,0,0,48893.6,0.0517369,0.051396,0.323566,74,0.00254984,10,1.663e-05,-3.49004,0.232794,0.253442,0.0512536,
2,1,0,1,0,48894.4,0.0557321,0.0554086,0.335996,74,0.00282442,10,1.86171e-05,-3.47367,0.326437,0.180739,0.0552607,
2,1,0,1,0,48895.2,0.0597277,0.0593781,0.34793,74,0.0031075,10,2.06594e-05,-3.45851,0.275267,0.214337,0.059225,
2,1,0,1,0,48896,0.0637226,0.0634105,0.356825,74,0.00339946,10,2.26264e-05,-3.44755,0.302386,0.195115,0.0632535,
2,1,0,1,0,48896.8,0.0677174,0.0673868,0.369419,74,0.00370018,10,2.48939e-05,-3.43248,0.534706,0.110341,0.0672243,
2,1,0,0,0,48897.6,0.0717128,0.0713963,0.377275,74,0.00400791,10,2.69361e-05,-3.42334,0.313148,0.18841,0.0712303,
2,1,0,1,0,48898.4,0.075708,0.0753824,0.383472,74,0.00432303,10,2.8907e-05,-3.41627,0.419548,0.140628,0.0752137,
2,1,0,0,0,48899.2,0.0797031,0.0793324,0.393193,74,0.00464443,10,3.1193e-05,-3.40539,0.431262,0.136808,0.0791594,
2,1,0,1,0,48900,0.0836986,0.0833708,0.402819,74,0.00497269,10,3.35834e-05,-3.39489,0.408631,0.144385,0.0831936,
2,1,0,1,0,48900.8,0.0876935,0.0873564,0.411779,74,0.00530848,10,3.59715e-05,-3.38534,0.349581,0.168774,0.0871752,
2,1,0,1,0,48901.6,0.0916883,0.0913275,0.425833,74,0.00565286,10,3.88903e-05,-3.37076,0.264393,0.223153,0.0911401,
2,1,0,1,0,48902.4,0.0956838,0.0953244,0.440464,74,0.00600887,10,4.1987e-05,-3.35609,0.24415,0.241655,0.0951306,
2,1,0,0,0,48903.2,0.099679,0.0993529,0.45923,74,0.00637852,10,4.56259e-05,-3.33797,0.232312,0.253969,0.0991508,
2,1,0,1,0,48904,0.103674,0.103333,0.480294,74,0.00676396,10,4.96301e-05,-3.31849,0.185439,0.318163,0.103121,
2,1,0,1,0,48904.8,0.10767,0.107363,0.500158,74,0.00716719,10,5.36987e-05,-3.30089,0.226429,0.260567,0.107143,
2,1,0,1,0,48905.6,0.111664,0.111337,0.521739,74,0.00758609,10,5.80891e-05,-3.28255,0.250392,0.235631,0.111108,
2,1,0,1,0,48906.4,0.115659,0.11534,0.536557,74,0.00801928,10,6.18866e-05,-3.27038,0.313752,0.188046,0.115104,
2,1,0,0,0,48907.2,0.119655,0.119305,0.549835,74,0.00846469,10,6.55984e-05,-3.25977,0.505267,0.11677,0.119064,
2,1,0,1,0,48908,0.12365,0.123303,0.560314,74,0.00891829,10,6.90885e-05,-3.25157,0.550684,0.107139,0.123057,
2,1,0,1,0,48908.8,0.127646,0.127295,0.565739,74,0.0093797,10,7.20158e-05,-3.24738,1.15954,0.0508821,0.127046,
2,1,0,1,0,48909.6,0.131641,0.131322,0.570624,74,0.00984574,10,7.49354e-05,-3.24365,-1.24822,-0.0472673,0.131071,
2,1,0,1,0,48910.4,0.135635,0.135308,0.561851,74,0.010309,10,7.60227e-05,-3.25038,-0.336884,-0.175134,0.135061,
2,1,0,0,0,48911.2,0.139631,0.139308,0.533221,74,0.0107586,10,7.42819e-05,-3.27309,-0.129365,-0.456072,0.139073,
2,1,0,1,0,48912,0.143626,0.143279,0.488666,74,0.0111785,10,7.00156e-05,-3.31099,-0.0873264,-0.675626,0.143064,
2,1,0,0,0,48912.8,0.147621,0.147245,0.432162,74,0.0115566,10,6.36338e-05,-3.36435,-0.074623,-0.790641,0.147055,
2,1,0,1,0,48913.6,0.151617,0.151305,0.381971,74,0.0118916,10,5.7794e-05,-3.41797,-0.0771506,-0.764738,0.151136,
2,1,0,1,0,48914.4,0.155612,0.1553,0.345576,74,0.0121909,10,5.3668e-05,-3.46146,-0.112866,-0.522745,0.155148,
2,1,0,1,0,48915.2,0.159606,0.159284,0.32066,74,0.0124662,10,5.10759e-05,-3.49396,-0.147926,-0.398849,0.159143,
2,1,0,1,0,48916,0.163602,0.163242,0.305473,74,0.0127259,10,4.98661e-05,-3.51503,-0.177201,-0.332955,0.163108,
2,1,0,0,0,48916.8,0.167597,0.167236,0.29433,74,0.0129748,10,4.92226e-05,-3.53117,-0.417528,-0.141308,0.167106,
2,1,0,1,0,48917.6,0.171592,0.171265,0.286251,74,0.0132171,10,4.90248e-05,-3.54325,-0.392095,-0.150474,0.171139,
2,1,0,1,0,48918.4,0.175588,0.175252,0.281184,74,0.0134537,10,4.92779e-05,-3.55101,-0.516895,-0.114143,0.175128,
2,1,0,1,0,48919.2,0.179582,0.179268,0.275797,74,0.013686,10,4.94417e-05,-3.55941,-0.932476,-0.0632724,0.179147,
2,1,0,1,0,48920,0.183577,0.183239,0.272648,74,0.0139155,10,4.99597e-05,-3.5644,-0.528878,-0.111557,0.183119,
2,1,0,0,0,48920.8,0.187573,0.187232,0.269967,74,0.0141421,10,5.05464e-05,-3.56869,-1.34398,-0.0438993,0.187113,
2,1,0,1,0,48921.6,0.191568,0.191247,0.267037,74,0.0143666,10,5.10699e-05,-3.57343,-1.02879,-0.0573488,0.191129,
2,1,0,0,0,48922.4,0.195563,0.195251,0.266129,74,0.0145893,10,5.19619e-05,-3.57491,-0.57294,-0.102978,0.195134,
2,1,0,1,0,48923.2,0.199559,0.199237,0.263171,74,0.0148103,10,5.24333e-05,-3.57976,17.8689,0.00330183,0.199121,
2,1,0,1,0,48924,0.203553,0.203244,0.26087,74,0.0150299,10,5.30202e-05,-3.58358,-2.47208,-0.0238665,0.203129,
2,1,0,1,0,48924.8,0.207548,0.207187,0.261987,74,0.0152485,10,5.42805e-05,-3.58172,-1.47711,-0.0399429,0.207072,
2,1,0,1,0,48925.6,0.211544,0.211235,0.259565,74,0.0154657,10,5.48293e-05,-3.58575,-1.5581,-0.0378667,0.211121,
2,1,0,0,0,48926.4,0.215539,0.215263,0.258006,74,0.0156819,10,5.5539e-05,-3.58837,-1.30479,-0.045218,0.215149,
2,1,0,1,0,48927.2,0.219535,0.21924,0.257868,74,0.0158969,10,5.6535e-05,-3.5886,-9.87522,-0.00597455,0.219126,
2,1,0,1,0,48927.9,0.223529,0.223198,0.255083,74,0.016111,10,5.6934e-05,-3.59332,-1.4159,-0.0416696,0.223086,
2,1,0,1,0,48928.7,0.227524,0.227185,0.254608,74,0.0163242,10,5.78431e-05,-3.59413,-1.51655,-0.0389042,0.227073,
2,1,0,1,0,48929.5,0.23152,0.231184,0.253208,74,0.0165365,10,5.85375e-05,-3.59652,-8.78981,-0.00671232,0.231072,
2,1,0,0,0,48930.3,0.235515,0.235222,0.250824,74,0.0167482,10,5.89992e-05,-3.60063,-1.70978,-0.0345074,0.235111,
2,1,0,1,0,48931.1,0.23951,0.239153,0.251416,74,0.0169587,10,6.01267e-05,-3.59961,-2.08508,-0.0282962,0.239042,
2,1,0,1,0,48931.9,0.243506,0.243159,0.250042,74,0.0171686,10,6.07999e-05,-3.60199,-7.39496,-0.00797841,0.243049,
2,1,0,1,0,48932.7,0.2475,0.247161,0.249096,74,0.017378,10,6.15667e-05,-3.60363,-3.50796,-0.0168189,0.247051,
2,1,0,1,0,48933.5,0.251495,0.251156,0.249368,74,0.0175865,10,6.26303e-05,-3.60316,-1.77333,-0.0332707,0.251046,
2,1,0,0,0,48934.3,0.255491,0.255133,0.247907,74,0.0177944,10,6.32493e-05,-3.60571,-1.66508,-0.0354337,0.255024,
2,1,0,1,0,48935.1,0.259486,0.259149,0.24651,74,0.0180016,10,6.38828e-05,-3.60817,-1.60081,-0.0368563,0.25904,
2,1,0,0,0,48935.9,0.263481,0.263176,0.245916,74,0.0182076,10,6.47193e-05,-3.60921,-16.4333,-0.00359028,0.263068,
2,1,0,1,0,48936.7,0.267477,0.267164,0.24479,74,0.0184133,10,6.53989e-05,-3.61121,-1.98611,-0.0297064,0.267056,
2,1,0,1,0,48937.5,0.271471,0.271141,0.24393,74,0.0186179,10,6.61394e-05,-3.61273,-3.58274,-0.0164678,0.271033,
2,1,0,1,0,48938.3,0.275466,0.275163,0.243504,74,0.0188218,10,6.70031e-05,-3.61349,-16.8818,-0.00349489,0.275055,
2,1,0,1,0,48939.1,0.279462,0.279136,0.243284,74,0.0190252,10,6.79095e-05,-3.61389,-1.21502,-0.0485588,0.279029,
2,1,0,0,0,48939.9,0.283457,0.283151,0.241758,74,0.0192276,10,6.84539e-05,-3.61662,-3.41301,-0.0172868,0.283045,
2,1,0,1,0,48940.7,0.287452,0.287095,0.24012,74,0.0194293,10,6.89372e-05,-3.61957,-2.52104,-0.023403,0.286989,
2,1,0,1,0,48941.5,0.291448,0.29113,0.239599,74,0.0196303,10,6.97544e-05,-3.62051,-0.990079,-0.0595912,0.291024,
2,1,0,1,0,48942.3,0.295442,0.295105,0.23777,74,0.0198303,10,7.01671e-05,-3.62384,-24.6068,-0.00239771,0.295,
2,1,0,1,0,48943.1,0.299437,0.299123,0.237532,74,0.0200297,10,7.10515e-05,-3.62428,-9.47024,-0.00623004,0.299019,
2,1,0,0,0,48943.9,0.303433,0.303108,0.237666,74,0.0202283,10,7.20384e-05,-3.62403,-5.8805,-0.0100332,0.303003,
2,1,0,1,0,48944.7,0.307428,0.307135,0.236635,74,0.0204262,10,7.26791e-05,-3.62592,-5.93456,-0.00994177,0.307031,
2,1,0,1,0,48945.5,0.311424,0.311093,0.236166,74,0.0206239,10,7.34696e-05,-3.62678,-1.15283,-0.0511783,0.310989,
2,1,0,1,0,48946.3,0.315418,0.315091,0.234653,74,0.0208205,10,7.3937e-05,-3.62957,-59.1614,-0.000997272,0.314988,
2,1,0,1,0,48947.1,0.319413,0.319067,0.23385,74,0.0210166,10,7.46139e-05,-3.63106,-4.40119,-0.0134055,0.318964,
2,1,0,0,0,48947.9,0.323409,0.323059,0.234941,74,0.0212123,10,7.58998e-05,-3.62904,-1.74761,-0.0337603,0.322956,
2,1,0,1,0,48948.7,0.327404,0.327077,0.232821,74,0.0214074,10,7.61504e-05,-3.63298,-6.9198,-0.00852625,0.326975,
2,1,0,0,0,48949.5,0.331399,0.331074,0.231356,74,0.0216019,10,7.65959e-05,-3.63572,-2.71895,-0.0216995,0.330972,
2,1,0,1,0,48950.3,0.335395,0.335081,0.232197,74,0.0217959,10,7.78047e-05,-3.63414,-5.21876,-0.0113054,0.334978,
2,1,0,1,0,48951.1,0.339389,0.339088,0.231606,74,0.0219893,10,7.85347e-05,-3.63525,-2.37358,-0.024857,0.338986,
2,1,0,1,0,48951.9,0.343384,0.343072,0.230081,74,0.0221823,10,7.89342e-05,-3.63812,-3.53616,-0.0166848,0.342971,
2,1,0,1,0,48952.7,0.34738,0.347051,0.230168,74,0.0223746,10,7.98799e-05,-3.63796,-2.01749,-0.0292442,0.34695,
2,1,0,0,0,48953.5,0.351375,0.351066,0.229222,74,0.0225667,10,8.04721e-05,-3.63974,5.77797,0.0102112,0.350965,
2,1,0,1,0,48954.3,0.35537,0.35506,0.229547,74,0.0227583,10,8.15031e-05,-3.63913,-1.15028,-0.0512919,0.354959,
2,1,0,1,0,48955.1,0.359366,0.35905,0.227975,74,0.0229492,10,8.18543e-05,-3.64211,3.171,0.0186061,0.35895,
2,1,0,1,0,48955.9,0.36336,0.36304,0.227256,74,0.02314,10,8.25029e-05,-3.64349,-2.63124,-0.0224229,0.36294,
2,1,0,1,0,48956.7,0.367355,0.367053,0.22792,74,0.0233302,10,8.36589e-05,-3.64222,-10.2479,-0.00575725,0.366953,
2,1,0,0,0,48957.5,0.371351,0.371024,0.22736,74,0.0235199,10,8.43559e-05,-3.64329,3.01328,0.01958,0.370924,
2,1,0,1,0,48958.3,0.375346,0.374996,0.226622,74,0.0237096,10,8.49825e-05,-3.6447,-2.06555,-0.0285638,0.374896,
2,1,0,1,0,48959.1,0.379342,0.37903,0.226848,74,0.0238989,10,8.59821e-05,-3.64427,-2.43128,-0.0242671,0.37893,
2,1,0,1,0,48959.9,0.383336,0.382996,0.226923,74,0.0240879,10,8.69105e-05,-3.64412,3.15621,0.0186933,0.382896,
2,1,0,1,0,48960.7,0.387331,0.386995,0.226758,74,0.0242766,10,8.77543e-05,-3.64444,-1.77382,-0.0332616,0.386896,
2,1,0,0,0,48961.5,0.391327,0.390993,0.225977,74,0.0244649,10,8.83557e-05,-3.64593,12.9755,0.00454701,0.390894,
2,1,0,1,0,48962.3,0.395322,0.395002,0.224427,74,0.024653,10,8.86491e-05,-3.64892,627.779,9.39821e-05,0.394903,
2,1,0,0,0,48963.1,0.399317,0.399014,0.225431,74,0.024841,10,8.99503e-05,-3.64699,-3.101,-0.0190261,0.398915,
2,1,0,1,0,48963.9,0.403313,0.403011,0.224468,74,0.0250283,10,9.04631e-05,-3.64885,8.18181,0.00721111,0.402913,
2,1,0,1,0,48964.7,0.407307,0.407017,0.224383,74,0.0252154,10,9.13278e-05,-3.64901,-2.09566,-0.0281534,0.406918,
2,1,0,1,0,48965.5,0.411302,0.410996,0.225033,74,0.0254022,10,9.24878e-05,-3.64775,-7.40599,-0.00796653,0.410897,
2,1,0,1,0,48966.3,0.415298,0.414981,0.22372,74,0.0255888,10,9.28397e-05,-3.65029,-6.41462,-0.00919774,0.414882,
2,1,0,0,0,48967.1,0.419293,0.419017,0.223112,74,0.0257751,10,9.34878e-05,-3.65148,-12.7037,-0.0046443,0.418918,
2,1,0,1,0,48967.9,0.423288,0.422963,0.22391,74,0.0259611,10,9.47057e-05,-3.64993,-13.3744,-0.00441143,0.422865,
2,1,0,1,0,48968.7,0.427283,0.426976,0.223268,74,0.0261472,10,9.53303e-05,-3.65117,6.16137,0.00957579,0.426878,
2,1,0,1,0,48969.5,0.431278,0.430986,0.223277,74,0.0263329,10,9.62295e-05,-3.65116,-3.24431,-0.0181857,0.430888,
2,1,0,1,0,48970.3,0.435273,0.434976,0.223228,74,0.0265184,10,9.70991e-05,-3.65125,5.67976,0.0103878,0.434878,
2,1,0,0,0,48971.1,0.439269,0.438974,0.22255,74,0.0267042,10,9.76935e-05,-3.65257,-14.7074,-0.00401158,0.438876,
2,1,0,1,0,48971.9,0.443264,0.44296,0.222869,74,0.0268896,10,9.87222e-05,-3.65195,-109.641,-0.000538122,0.442861,
2,1,0,0,0,48972.7,0.447259,0.446913,0.223687,74,0.0270752,10,9.99686e-05,-3.65036,-18.1693,-0.00324723,0.446814,
2,1,0,1,0,48973.5,0.451254,0.450971,0.22321,74,0.0272611,10,0.000100661,-3.65129,23.6968,0.00248979,0.450873,
2,1,0,1,0,48974.3,0.455249,0.454938,0.223825,74,0.0274469,10,0.000101826,-3.65009,1.68661,0.0349814,0.454839,
2,1,0,1,0,48975.1,0.459244,0.458955,0.223443,74,0.027633,10,0.000102551,-3.65083,-54.2518,-0.00108752,0.458857,
2,1,0,1,0,48975.9,0.46324,0.462913,0.224314,74,0.027819,10,0.000103838,-3.64914,7.19477,0.0082004,0.462815,
2,1,0,0,0,48976.7,0.467235,0.466893,0.224538,74,0.0280051,10,0.000104835,-3.64871,36.1067,0.00163405,0.466794,
2,1,0,1,0,48977.5,0.471231,0.470907,0.225417,74,0.0281916,10,0.00010615,-3.64701,2.3571,0.0250307,0.470808,
2,1,0,1,0,48978.3,0.475225,0.474953,0.22556,74,0.0283782,10,0.00010713,-3.64674,-6.27697,-0.00939944,0.474854,
2,1,0,1,0,48979.1,0.47922,0.478897,0.225682,74,0.0285652,10,0.000108078,-3.6465,3.82179,0.0154378,0.478797,
2,1,0,1,0,48979.9,0.483216,0.482949,0.226391,74,0.0287526,10,0.000109335,-3.64514,81.495,0.000723971,0.482849,
2,1,0,0,0,48980.7,0.487211,0.486882,0.226718,74,0.0289402,10,0.000110385,-3.64451,1.99079,0.0296364,0.486782,
2,1,0,1,0,48981.5,0.491206,0.490892,0.227548,74,0.0291284,10,0.000111702,-3.64293,2.2635,0.0260658,0.490792,
2,1,0,1,0,48982.3,0.495201,0.494896,0.228472,74,0.0293171,10,0.00011307,-3.64117,3.07096,0.0192123,0.494795,
2,1,0,1,0,48983.1,0.499196,0.498889,0.229898,74,0.0295063,10,0.000114693,-3.63847,1.59987,0.0368781,0.498787,
2,1,0,1,0,48983.9,0.503191,0.502869,0.230182,74,0.0296963,10,0.000115751,-3.63793,15.2297,0.003874,0.502768,
2,1,0,0,0,48984.7,0.507187,0.506868,0.230758,74,0.0298867,10,0.000116964,-3.63684,2.71021,0.0217695,0.506767,
2,1,0,1,0,48985.5,0.511182,0.510887,0.23168,74,0.0300778,10,0.000118362,-3.63511,1.348,0.0437685,0.510785,
2,1,0,0,0,48986.3,0.515177,0.514881,0.233175,74,0.0302697,10,0.000120057,-3.63232,3.31766,0.0177836,0.514778,
2,1,0,1,0,48987.1,0.519173,0.518872,0.233511,74,0.0304623,10,0.000121162,-3.63169,1.81699,0.0324712,0.51877,
2,1,0,1,0,48987.9,0.523167,0.522864,0.235229,74,0.0306558,10,0.000122993,-3.62851,1.84882,0.0319123,0.522761,
2,1,0,1,0,48988.7,0.527162,0.526852,0.236368,74,0.0308501,10,0.000124531,-3.62641,1.57723,0.0374074,0.526748,
2,1,0,1,0,48989.5,0.531158,0.530826,0.237894,74,0.0310458,10,0.00012628,-3.62362,0.974953,0.0605157,0.530721,
2,1,0,0,0,48990.3,0.535153,0.534823,0.239184,74,0.0312426,10,0.000127921,-3.62127,1.68923,0.0349271,0.534717,
2,1,0,1,0,48991.1,0.539148,0.538847,0.24138,74,0.0314405,10,0.000130067,-3.6173,1.02918,0.0573274,0.538741,
2,1,0,1,0,48991.9,0.543143,0.542853,0.242771,74,0.0316399,10,0.000131789,-3.6148,1.59973,0.0368813,0.542746,
2,1,0,1,0,48992.7,0.547138,0.546817,0.245237,74,0.0318409,10,0.0001341,-3.61041,1.99758,0.0295358,0.546709,
2,1,0,1,0,48993.5,0.551133,0.55082,0.246544,74,0.0320433,10,0.000135801,-3.6081,0.858689,0.0687094,0.550711,
2,1,0,0,0,48994.3,0.555129,0.554825,0.248124,74,0.0322476,10,0.000137665,-3.60533,1.0271,0.0574434,0.554716,
2,1,0,1,0,48995.1,0.559124,0.558832,0.252145,74,0.0324535,10,0.000140907,-3.59835,0.828813,0.0711862,0.558721,
2,1,0,1,0,48995.9,0.56312,0.562864,0.254,74,0.0326614,10,0.000142967,-3.59517,0.677038,0.0871443,0.562752,
2,1,0,1,0,48996.7,0.567114,0.566847,0.257399,74,0.0328716,10,0.000145906,-3.58939,1.36414,0.0432508,0.566734,
2,1,0,1,0,48997.5,0.571109,0.570816,0.259899,74,0.0330841,10,0.000148354,-3.5852,0.58995,0.100008,0.570701,
2,1,0,0,0,48998.3,0.575105,0.574781,0.263783,74,0.0332994,10,0.000151617,-3.57875,0.681043,0.0866318,0.574665,
2,1,0,1,0,48999.1,0.5791,0.578783,0.267467,74,0.0335177,10,0.000154805,-3.57273,0.619191,0.0952857,0.578665,
2,1,0,0,0,48999.9,0.583095,0.582819,0.272029,74,0.0337392,10,0.000158544,-3.56538,0.471633,0.125097,0.582699,
2,1,0,1,0,49000.7,0.58709,0.586786,0.276326,74,0.0339645,10,0.000162144,-3.55858,0.569369,0.103624,0.586665,
2,1,0,1,0,49001.5,0.591085,0.590763,0.281945,74,0.0341939,10,0.000166563,-3.54984,0.418268,0.141058,0.590639,
2,1,0,1,0,49002.3,0.59508,0.594742,0.287912,74,0.0344276,10,0.000171233,-3.54074,0.405099,0.145643,0.594615,
2,1,0,1,0,49003.1,0.599076,0.59878,0.294996,74,0.0346666,10,0.000176638,-3.53018,0.436234,0.135248,0.59865,
2,1,0,0,0,49003.9,0.603071,0.602759,0.30251,74,0.034911,10,0.000182341,-3.51926,0.315307,0.187119,0.602626,
2,1,0,1,0,49004.7,0.607066,0.606752,0.311299,74,0.0351622,10,0.000188881,-3.50682,0.331327,0.178072,0.606615,
2,1,0,1,0,49005.5,0.611061,0.610802,0.320293,74,0.0354203,10,0.000195635,-3.49445,0.30047,0.196359,0.610661,
2,1,0,1,0,49006.3,0.615056,0.614715,0.331042,74,0.0356864,10,0.000203496,-3.48012,0.243434,0.242365,0.614569,
2,1,0,1,0,49007.1,0.619051,0.618783,0.342775,74,0.035962,10,0.000212103,-3.46499,0.254909,0.231455,0.618632,
2,1,0,0,0,49007.9,0.623047,0.622773,0.358994,74,0.0362481,10,0.000223571,-3.44491,0.208968,0.282341,0.622615,
2,1,0,1,0,49008.7,0.627042,0.626783,0.375371,74,0.0365468,10,0.000235276,-3.42554,0.181527,0.325021,0.626618,
2,1,0,1,0,49009.5,0.631037,0.630721,0.395375,74,0.0368603,10,0.000249371,-3.40299,0.177074,0.333193,0.630547,
2,1,0,1,0,49010.3,0.635032,0.634726,0.418087,74,0.0371906,10,0.000265371,-3.37873,0.158001,0.373416,0.634542,
2,1,0,1,0,49011,0.639027,0.638762,0.443873,74,0.0375404,10,0.00028353,-3.35274,0.141159,0.41797,0.638567,
2,1,0,1,0,49011.8,0.643022,0.642712,0.474712,74,0.0379131,10,0.000305103,-3.32357,0.133894,0.440649,0.642503,
2,1,0,1,0,49012.6,0.647018,0.646753,0.51102,74,0.0383123,10,0.000330503,-3.29156,0.119424,0.49404,0.646528,
2,1,0,0,0,49013.4,0.651013,0.650732,0.551381,74,0.0387424,10,0.000358802,-3.25855,0.116685,0.505634,0.65049,
2,1,0,1,0,49014.2,0.655008,0.654759,0.600152,74,0.0392074,10,0.000392955,-3.22174,0.104611,0.563996,0.654495,
2,1,0,1,0,49015,0.659003,0.658767,0.656125,74,0.0397144,10,0.000432234,-3.18301,0.0990186,0.595848,0.658479,
2,1,0,1,0,49015.8,0.662998,0.662711,0.720393,74,0.04027,10,0.000477412,-3.14243,0.0942407,0.626056,0.662394,
2,1,0,1,0,49016.6,0.666994,0.666699,0.797281,74,0.0408814,10,0.000531547,-3.09839,0.0890673,0.662421,0.666348,
2,1,0,0,0,49017.4,0.670989,0.670722,0.881972,74,0.0415572,10,0.000591558,-3.05455,0.0885776,0.666082,0.670334,
2,1,0,1,0,49018.2,0.674984,0.6747,0.979787,74,0.0423066,10,0.000661062,-3.00887,0.085032,0.693857,0.674269,
2,1,0,1,0,49019,0.67898,0.6787,1.09105,74,0.0431394,10,0.000740499,-2.96215,0.0838853,0.703342,0.67822,
2,1,0,1,0,49019.8,0.682974,0.682676,1.21635,74,0.0440669,10,0.000830372,-2.91494,0.0830641,0.710295,0.682141,
2,1,0,1,0,49020.6,0.686969,0.686697,1.3575,74,0.0451003,10,0.000932189,-2.86726,0.0830912,0.710063,0.6861,
2,1,0,0,0,49021.4,0.690965,0.690694,1.51379,74,0.0462529,10,0.00104557,-2.81993,0.0835966,0.70577,0.690028,
2,1,0,1,0,49022.2,0.69496,0.694697,1.68641,74,0.0475365,10,0.00117154,-2.77304,0.0826137,0.714168,0.693955,
2,1,0,0,0,49023,0.698955,0.698662,1.87664,74,0.0489649,10,0.00131113,-2.72662,0.0850793,0.693471,0.697836,
2,1,0,1,0,49023.8,0.70295,0.702667,2.082,74,0.0505523,10,0.00146295,-2.68152,0.0878835,0.671343,0.701751,
2,1,0,1,0,49024.6,0.706945,0.706677,2.30876,74,0.0523119,10,0.00163155,-2.63662,0.0881691,0.669169,0.705661,
2,1,0,1,0,49025.4,0.71094,0.710663,2.54927,74,0.0542579,10,0.00181167,-2.59358,0.09078,0.649923,0.709541,
2,1,0,1,0,49026.2,0.714936,0.714644,2.80902,74,0.056404,10,0.00200745,-2.55144,0.0946685,0.623228,0.713408,
2,1,0,0,0,49027,0.718931,0.718605,3.08539,74,0.0587638,10,0.00221717,-2.51069,0.0949245,0.621547,0.717247,
2,1,0,1,0,49027.8,0.722927,0.722664,3.38037,74,0.0613523,10,0.00244287,-2.47104,0.100268,0.588426,0.721177,
2,1,0,1,0,49028.6,0.726921,0.726639,3.69315,74,0.064183,10,0.00268358,-2.4326,0.101019,0.584051,0.725014,
2,1,0,1,0,49029.4,0.730916,0.730654,4.02392,74,0.0672708,10,0.00294009,-2.39535,0.106668,0.55312,0.728884,
2,1,0,1,0,49030.2,0.734911,0.734604,4.37206,74,0.0706305,10,0.00321173,-2.35931,0.106294,0.555063,0.73268,
2,1,0,0,0,49031,0.738907,0.738643,4.73989,74,0.0742765,10,0.00350109,-2.32423,0.109901,0.536848,0.736558,
2,1,0,1,0,49031.8,0.742902,0.742575,5.12838,74,0.0782244,10,0.00380821,-2.29002,0.112837,0.52288,0.740319,
2,1,0,1,0,49032.6,0.746897,0.746594,5.53654,74,0.0824912,10,0.00413355,-2.25676,0.116477,0.506538,0.744157,
2,1,0,1,0,49033.4,0.750892,0.750603,5.9648,74,0.0870917,10,0.0044772,-2.2244,0.119991,0.491705,0.747978,
2,1,0,1,0,49034.2,0.754887,0.754599,6.41696,74,0.0920437,10,0.00484224,-2.19267,0.120374,0.490139,0.751776,
2,1,0,0,0,49035,0.758883,0.758623,6.89087,74,0.0973658,10,0.00522757,-2.16173,0.12383,0.476458,0.755591,
2,1,0,1,0,49035.8,0.762878,0.762577,7.38722,74,0.103074,10,0.00563332,-2.13152,0.125954,0.468423,0.759326,
2,1,0,0,0,49036.6,0.766873,0.766594,7.90834,74,0.10919,10,0.00606249,-2.10191,0.129906,0.454175,0.763115,
2,1,0,1,0,49037.4,0.770868,0.770558,8.45674,74,0.115734,10,0.0065164,-2.0728,0.128513,0.459097,0.766837,
2,1,0,1,0,49038.2,0.774863,0.774546,9.03708,74,0.122728,10,0.00699963,-2.04397,0.129743,0.454745,0.770569,
2,1,0,1,0,49039,0.778858,0.778594,9.64979,74,0.130198,10,0.00751327,-2.01548,0.131815,0.447595,0.774348,
2,1,0,1,0,49039.8,0.782854,0.782577,10.2983,74,0.138173,10,0.00805924,-1.98723,0.13109,0.450074,0.778046,
2,1,0,0,0,49040.6,0.786849,0.78656,10.9875,74,0.146681,10,0.00864233,-1.9591,0.130772,0.451166,0.781725,
2,1,0,1,0,49041.4,0.790844,0.790525,11.7277,74,0.15576,10,0.00927103,-1.93079,0.129079,0.457084,0.785364,
2,1,0,1,0,49042.2,0.794839,0.794553,12.5114,74,0.165449,10,0.00994098,-1.90269,0.131191,0.449725,0.789048,
2,1,0,1,0,49043,0.798834,0.79854,13.335,74,0.175779,10,0.0106485,-1.87501,0.132935,0.443825,0.792673,
2,1,0,1,0,49043.8,0.802829,0.802538,14.1851,74,0.186777,10,0.0113841,-1.84817,0.129617,0.455187,0.796296,
2,1,0,0,0,49044.6,0.806825,0.806553,15.1209,74,0.198492,10,0.0121958,-1.82042,0.134163,0.439764,0.7999,
2,1,0,1,0,49045.4,0.81082,0.81058,16.0825,74,0.210959,10,0.0130362,-1.79365,0.132267,0.446068,0.803504,
2,1,0,1,0,49046.2,0.814815,0.814549,17.11,74,0.224225,10,0.013937,-1.76675,0.129753,0.454709,0.80702,
2,1,0,1,0,49047,0.81881,0.818493,18.1996,74,0.238334,10,0.0148962,-1.73994,0.133789,0.440993,0.810485,
2,1,0,1,0,49047.8,0.822805,0.822569,19.3017,74,0.253326,10,0.015877,-1.7144,0.140519,0.419872,0.814076,
2,1,0,0,0,49048.6,0.826801,0.826547,20.4515,74,0.269214,10,0.0169041,-1.68928,0.140394,0.420245,0.817548,
2,1,0,1,0,49049.4,0.830796,0.830524,21.6142,74,0.286025,10,0.0179512,-1.66526,0.147682,0.399508,0.821014,
2,1,0,0,0,49050.2,0.834791,0.834521,22.808,74,0.303781,10,0.0190337,-1.64191,0.151559,0.389286,0.824485,
2,1,0,1,0,49051,0.838786,0.838534,24.0291,74,0.3225,10,0.0201492,-1.61926,0.151527,0.389369,0.827961,
2,1,0,1,0,49051.8,0.842781,0.842489,25.3016,74,0.342214,10,0.0213163,-1.59685,0.156964,0.375882,0.831356,
2,1,0,1,0,49052.6,0.846776,0.846524,26.6015,74,0.362951,10,0.0225188,-1.57509,0.15492,0.380842,0.83482,
2,1,0,0,0,49053.3,0.849723,0.849477,27.5187,74,0.381975,10,0.0233765,-1.56037,0.0537765,1.09713,0.837369,
2,1,0,1,0,49054.1,0.845728,0.845469,25.6359,74,0.403153,10,0.0216743,-1.59115,0.11576,0.509677,0.834189,
2,1,0,0,0,49054.9,0.841732,0.841497,24.0628,74,0.42299,10,0.0202488,-1.61865,0.124046,0.475629,0.83091,
2,1,0,1,0,49055.7,0.837737,0.837479,22.629,74,0.441631,10,0.0189513,-1.64533,0.122877,0.480154,0.827522,
2,1,0,1,0,49056.5,0.833742,0.83345,21.2403,74,0.45914,10,0.0177027,-1.67284,0.125944,0.468461,0.824104,
2,1,0,1,0,49057.3,0.829747,0.829456,19.9449,74,0.47558,10,0.0165434,-1.70017,0.123837,0.476433,0.82068,
2,1,0,1,0,49058.1,0.825752,0.825455,18.7067,74,0.491008,10,0.0154415,-1.728,0.126784,0.46536,0.817224,
2,1,0,0,0,49058.9,0.821757,0.821465,17.5554,74,0.505483,10,0.0144212,-1.75559,0.12464,0.473364,0.813741,
2,1,0,1,0,49059.7,0.817761,0.817482,16.4446,74,0.519053,10,0.0134432,-1.78398,0.124045,0.475635,0.810247,
2,1,0,1,0,49060.5,0.813766,0.813494,15.3924,74,0.531761,10,0.0125216,-1.81269,0.123172,0.479006,0.806721,
2,1,0,1,0,49061.3,0.809771,0.809489,14.3878,74,0.543647,10,0.0116467,-1.84201,0.119201,0.494962,0.803159,
2,1,0,1,0,49062.1,0.805776,0.805474,13.4352,74,0.554751,10,0.0108217,-1.87175,0.122411,0.481982,0.799562,
2,1,0,0,0,49062.9,0.801781,0.801486,12.5429,74,0.565124,10,0.010053,-1.9016,0.117726,0.501163,0.795967,
2,1,0,1,0,49063.7,0.797786,0.797497,11.6952,74,0.574794,10,0.00932689,-1.93199,0.118684,0.497118,0.792351,
2,1,0,1,0,49064.5,0.79379,0.793461,10.873,74,0.583806,10,0.00862728,-1.96365,0.116287,0.507365,0.788677,
2,1,0,1,0,49065.3,0.789795,0.789514,10.1344,74,0.59219,10,0.00800126,-1.9942,0.119077,0.495477,0.785055,
2,1,0,1,0,49066.1,0.7858,0.785502,9.43363,74,0.599998,10,0.00741013,-2.02532,0.118783,0.496706,0.781351,
2,1,0,0,0,49066.9,0.781805,0.781568,8.78017,74,0.607265,10,0.00686229,-2.0565,0.117746,0.501077,0.777704,
2,1,0,1,0,49067.7,0.77781,0.777528,8.15696,74,0.614022,10,0.00634227,-2.08847,0.116481,0.506518,0.773939,
2,1,0,0,0,49068.5,0.773814,0.773524,7.56391,74,0.620294,10,0.00585087,-2.12125,0.112636,0.523813,0.770196,
2,1,0,1,0,49069.3,0.769819,0.769531,7.00727,74,0.626107,10,0.00539232,-2.15445,0.11192,0.527162,0.766448,
2,1,0,1,0,49070.1,0.765824,0.765569,6.47939,74,0.631488,10,0.00496042,-2.18847,0.110736,0.532797,0.762718,
2,1,0,1,0,49070.9,0.761829,0.761489,5.98786,74,0.63646,10,0.00455969,-2.22273,0.111015,0.531459,0.758854,
2,1,0,1,0,49071.7,0.757834,0.75758,5.52695,74,0.641053,10,0.00418711,-2.25751,0.107199,0.550377,0.755148,
2,1,0,0,0,49072.5,0.753839,0.753549,5.09193,74,0.645287,10,0.00383702,-2.29312,0.106323,0.554912,0.751309,
2,1,0,1,0,49073.3,0.749844,0.749572,4.68595,74,0.649186,10,0.00351246,-2.3292,0.102292,0.576777,0.74751,
2,1,0,1,0,49074.1,0.745848,0.745582,4.30147,74,0.652768,10,0.0032071,-2.36638,0.101274,0.582578,0.74369,
2,1,0,1,0,49074.9,0.741853,0.741542,3.93858,74,0.656052,10,0.00292062,-2.40466,0.10002,0.589883,0.739809,
2,1,0,1,0,49075.7,0.737858,0.73759,3.59946,74,0.659056,10,0.00265493,-2.44376,0.0971183,0.607506,0.736006,
2,1,0,0,0,49076.5,0.733863,0.733586,3.27976,74,0.661796,10,0.00240599,-2.48416,0.0936358,0.630101,0.732143,
2,1,0,1,0,49077.3,0.729868,0.729602,2.97895,74,0.664289,10,0.00217345,-2.52594,0.0921474,0.640279,0.728292,
2,1,0,1,0,49078.1,0.725872,0.725612,2.69739,74,0.66655,10,0.00195726,-2.56906,0.0874047,0.675021,0.724425,
2,1,0,1,0,49078.9,0.721877,0.721599,2.43421,74,0.668593,10,0.00175653,-2.61364,0.0863634,0.68316,0.720528,
2,1,0,1,0,49079.7,0.717882,0.717563,2.18651,74,0.670432,10,0.00156896,-2.66025,0.0811334,0.727198,0.716601,
2,1,0,0,0,49080.5,0.713887,0.713591,1.95726,74,0.672081,10,0.00139668,-2.70835,0.0802448,0.73525,0.71273,
2,1,0,1,0,49081.3,0.709892,0.709603,1.74136,74,0.673551,10,0.00123567,-2.75911,0.0753738,0.782766,0.708837,
2,1,0,0,0,49082.1,0.705897,0.705615,1.54465,74,0.674857,10,0.00108992,-2.81117,0.0727377,0.811133,0.704935,
2,1,0,1,0,49082.9,0.701901,0.701625,1.36197,74,0.676011,10,0.000955593,-2.86583,0.070637,0.835257,0.701026,
2,1,0,1,0,49083.7,0.697906,0.697621,1.19291,74,0.677024,10,0.000832199,-2.92339,0.0664865,0.887398,0.697097,
2,1,0,1,0,49084.5,0.693911,0.693627,1.04007,74,0.677909,10,0.000721419,-2.98294,0.063713,0.926028,0.69317,
2,1,0,1,0,49085.3,0.689916,0.689595,0.898762,74,0.678676,10,0.000619782,-3.04636,0.0603516,0.977604,0.6892,
2,1,0,0,0,49086.1,0.685921,0.685643,0.770758,74,0.679336,10,0.000528465,-3.11308,0.0576196,1.02396,0.685304,
2,1,0,1,0,49086.9,0.681926,0.681652,0.656145,74,0.679899,10,0.000447262,-3.183,0.0546297,1.08,0.681363,
2,1,0,1,0,49087.7,0.67793,0.677652,0.552219,74,0.680375,10,0.000374212,-3.25789,0.0524573,1.12472,0.677409,
2,1,0,1,0,49088.5,0.673935,0.673601,0.461676,74,0.680773,10,0.000310985,-3.33566,0.0484614,1.21746,0.673398,
2,1,0,1,0,49089.3,0.66994,0.669648,0.380061,74,0.681103,10,0.000254507,-3.42015,0.0455809,1.2944,0.669481,
2,1,0,0,0,49090.1,0.665945,0.665617,0.309239,74,0.681371,10,0.000205835,-3.50971,0.0427308,1.38074,0.665481,
2,1,0,1,0,49090.9,0.66195,0.661663,0.246026,74,0.681586,10,0.000162786,-3.60902,0.0385138,1.53192,0.661555,
2,1,0,0,0,49091.7,0.657955,0.657687,0.192103,74,0.681755,10,0.000126344,-3.71646,0.0352264,1.67488,0.657602,
2,1,0,1,0,49092.5,0.653959,0.653683,0.144998,74,0.681883,10,9.47827e-05,-3.83864,0.0300233,1.96514,0.653619,
2,1,0,1,0,49093.3,0.649964,0.649712,0.105787,74,0.681977,10,6.8731e-05,-3.97557,0.026553,2.22197,0.649666,
2,1,0,1,0,49094,0.64597,0.645685,0.0717654,74,0.682041,10,4.63379e-05,-4.14409,0.0207608,2.8419,0.645654,
2,1,0,1,0,49094.8,0.641974,0.641656,0.0423645,74,0.682081,10,2.71835e-05,-4.373,0.0143299,4.11728,0.641638,
2,1,0,0,0,49095.6,0.637979,0.637684,0.018344,74,0.682098,10,1.16977e-05,-4.73651,0.00599954,9.8341,0.637676,
2,1,0,1,0,49096.4,0.633983,0.6337,-0.00369842,74,0.682097,10,-2.34369e-06,-5.43198,-0.0160662,-3.67231,0.633701,
2,0,0,1,0,49097.2,0.629988,0.629686,-0.0208105,74,0.682082,10,-1.31041e-05,-4.68172,-0.0105124,-5.61244,0.629695,
2,0,0,1,0,49098,0.625993,0.625713,-0.0340551,74,0.682054,10,-2.13088e-05,-4.46782,-0.023931,-2.46542,0.625728,
2,0,0,1,0,49098.8,0.621998,0.621667,-0.0462603,74,0.682016,10,-2.87585e-05,-4.33479,-0.0357398,-1.65082,0.621687,
2,0,0,0,0,49099.6,0.618003,0.617685,-0.0566754,74,0.681969,10,-3.50075e-05,-4.24661,-0.0502429,-1.17429,0.61771,
2,0,0,1,0,49100.4,0.614008,0.613712,-0.064907,74,0.681914,10,-3.98342e-05,-4.18771,-0.0928111,-0.635699,0.61374,
2,0,0,1,0,49101.2,0.610012,0.609717,-0.072626,74,0.681853,10,-4.42813e-05,-4.13891,-0.102989,-0.572876,0.609749,
2,0,0,1,0,49102,0.606017,0.605718,-0.0784976,74,0.681786,10,-4.75474e-05,-4.10514,-0.10972,-0.537733,0.605753,
2,0,0,1,0,49102.8,0.602022,0.601707,-0.0840079,74,0.681714,10,-5.05481e-05,-4.07568,-0.184325,-0.320087,0.601744,
2,0,0,0,0,49103.6,0.598027,0.597705,-0.0885653,74,0.681639,10,-5.29359e-05,-4.05274,-0.175776,-0.335654,0.597744,
2,0,0,1,0,49104.4,0.594032,0.593746,-0.0920546,74,0.68156,10,-5.46571e-05,-4.03595,-0.225997,-0.261065,0.593787,
2,0,0,0,0,49105.2,0.590037,0.589707,-0.0956205,74,0.681479,10,-5.63881e-05,-4.01945,-0.385377,-0.153097,0.589749,
2,0,0,1,0,49106,0.586041,0.58572,-0.098297,74,0.681395,10,-5.75745e-05,-4.00746,-0.287384,-0.2053,0.585763,
2,0,0,1,0,49106.8,0.582046,0.581785,-0.100969,74,0.681309,10,-5.87423e-05,-3.99581,-0.38155,-0.154633,0.581829,
2,0,0,1,0,49107.6,0.578052,0.577744,-0.10308,74,0.681221,10,-5.95537e-05,-3.98683,-0.522261,-0.11297,0.577789,
2,0,0,1,0,49108.4,0.574056,0.573766,-0.104307,74,0.681131,10,-5.98479e-05,-3.98169,-0.426444,-0.138354,0.573812,
2,0,0,0,0,49109.2,0.570061,0.569767,-0.106648,74,0.68104,10,-6.07646e-05,-3.97205,-1.14393,-0.0515764,0.569814,
2,0,0,1,0,49110,0.566065,0.565726,-0.107643,74,0.680948,10,-6.08966e-05,-3.96801,-0.529345,-0.111458,0.565773,
2,0,0,1,0,49110.8,0.56207,0.561769,-0.109876,74,0.680855,10,-6.17249e-05,-3.9591,-0.59242,-0.0995915,0.561818,
2,0,0,1,0,49111.6,0.558075,0.557764,-0.110904,74,0.68076,10,-6.1858e-05,-3.95505,-1.32185,-0.0446343,0.557812,
2,0,0,1,0,49112.4,0.55408,0.553818,-0.112491,74,0.680665,10,-6.22995e-05,-3.94888,-0.609564,-0.0967905,0.553868,
2,0,0,0,0,49113.2,0.550085,0.549766,-0.112586,74,0.680568,10,-6.18958e-05,-3.94852,9.7894,0.00602693,0.549815,
2,0,0,1,0,49114,0.54609,0.545784,-0.114199,74,0.680471,10,-6.23282e-05,-3.94234,-0.914356,-0.0645263,0.545834,
2,0,0,1,0,49114.8,0.542094,0.541759,-0.113932,74,0.680373,10,-6.17237e-05,-3.94335,-1.2682,-0.0465228,0.54181,
2,0,0,1,0,49115.6,0.538099,0.537781,-0.116192,74,0.680274,10,-6.24858e-05,-3.93482,-1.23636,-0.0477209,0.537832,
2,0,0,1,0,49116.4,0.534104,0.533788,-0.116407,74,0.680174,10,-6.21366e-05,-3.93402,-0.391699,-0.150626,0.533839,
2,0,0,0,0,49117.2,0.530109,0.529814,-0.117706,74,0.680073,10,-6.23626e-05,-3.9292,-5.11481,-0.0115351,0.529866,
2,0,0,1,0,49118,0.526114,0.525777,-0.119001,74,0.679972,10,-6.25678e-05,-3.92445,-1.60542,-0.0367504,0.52583,
2,0,0,0,0,49118.8,0.522119,0.521807,-0.120189,74,0.67987,10,-6.27153e-05,-3.92014,-1.01466,-0.0581478,0.52186,
2,0,0,1,0,49119.6,0.518123,0.517808,-0.121363,74,0.679767,10,-6.28428e-05,-3.91591,-0.857449,-0.0688088,0.517862,
2,0,0,1,0,49120.4,0.514128,0.513833,-0.122157,74,0.679663,10,-6.27681e-05,-3.91308,-0.883663,-0.0667676,0.513886,
2,0,0,1,0,49121.2,0.510133,0.509778,-0.121939,74,0.679558,10,-6.21619e-05,-3.91386,-1.75165,-0.0336826,0.509832,
2,0,0,1,0,49122,0.506138,0.505793,-0.124422,74,0.679453,10,-6.29316e-05,-3.9051,-7.15537,-0.00824555,0.505848,
2,0,0,0,0,49122.8,0.502143,0.501843,-0.125583,74,0.679346,10,-6.30231e-05,-3.90107,-0.682185,-0.0864868,0.501898,
2,0,0,1,0,49123.6,0.498148,0.497796,-0.126694,74,0.679239,10,-6.3068e-05,-3.89724,-2.09969,-0.0280994,0.497852,
2,0,0,1,0,49124.4,0.494152,0.493827,-0.127497,74,0.679131,10,-6.29615e-05,-3.8945,-0.681507,-0.0865729,0.493883,
2,0,0,1,0,49125.2,0.490157,0.489842,-0.128072,74,0.679022,10,-6.2735e-05,-3.89255,-0.697711,-0.0845623,0.489899,
2,0,0,1,0,49126,0.486162,0.485836,-0.130018,74,0.678912,10,-6.31676e-05,-3.886,-1.00447,-0.0587376,0.485894,
2,0,0,0,0,49126.8,0.482167,0.48185,-0.130985,74,0.678801,10,-6.31152e-05,-3.88278,-1.1425,-0.0516412,0.481908,
2,0,0,1,0,49127.6,0.478172,0.477834,-0.131891,74,0.678689,10,-6.30218e-05,-3.87979,-1.82673,-0.0322982,0.477892,
2,0,0,0,0,49128.4,0.474177,0.473834,-0.132685,74,0.678577,10,-6.28708e-05,-3.87718,-2.24118,-0.0263254,0.473893,
2,0,0,1,0,49129.2,0.470181,0.469881,-0.134859,74,0.678463,10,-6.33678e-05,-3.87012,-0.761339,-0.0774951,0.46994,
2,0,0,1,0,49130,0.466186,0.465884,-0.135605,74,0.678348,10,-6.31762e-05,-3.86772,-0.613487,-0.0961716,0.465943,
2,0,0,1,0,49130.8,0.462191,0.46186,-0.137807,74,0.678231,10,-6.36473e-05,-3.86073,-1.13064,-0.0521827,0.46192,
2,0,0,1,0,49131.6,0.458196,0.457864,-0.138868,74,0.678114,10,-6.35825e-05,-3.8574,-1.36973,-0.0430742,0.457925,
2,0,0,0,0,49132.4,0.454201,0.45388,-0.139339,74,0.677996,10,-6.32431e-05,-3.85593,-0.682628,-0.0864306,0.453941,
2,0,0,1,0,49133.2,0.450205,0.449873,-0.141432,74,0.677876,10,-6.36264e-05,-3.84945,-0.737876,-0.0799592,0.449935,
2,0,0,1,0,49134,0.44621,0.445882,-0.142199,74,0.677755,10,-6.34038e-05,-3.8471,-0.724653,-0.0814183,0.445944,
2,0,0,1,0,49134.8,0.442215,0.44189,-0.145583,74,0.677633,10,-6.43314e-05,-3.83689,-1.75256,-0.033665,0.441954,
2,0,0,1,0,49135.6,0.43822,0.437916,-0.146256,74,0.677509,10,-6.40478e-05,-3.83489,-0.566753,-0.104102,0.437981,
2,0,0,0,0,49136.4,0.434225,0.433947,-0.147825,74,0.677384,10,-6.41483e-05,-3.83025,-1.13228,-0.0521074,0.434012,
2,0,0,1,0,49137.2,0.43023,0.429925,-0.150053,74,0.677258,10,-6.45115e-05,-3.82376,-0.853441,-0.0691319,0.429991,
2,0,0,1,0,49138,0.426234,0.425964,-0.150953,74,0.677131,10,-6.43005e-05,-3.82116,-0.510465,-0.115581,0.426031,
2,0,0,1,0,49138.8,0.422239,0.421876,-0.153111,74,0.677002,10,-6.45939e-05,-3.81499,-1.37081,-0.0430403,0.421944,
2,0,0,1,0,49139.6,0.418244,0.417936,-0.155529,74,0.676871,10,-6.50013e-05,-3.80819,-0.832581,-0.070864,0.418005,
2,0,0,0,0,49140.4,0.414249,0.413968,-0.155834,74,0.676739,10,-6.45105e-05,-3.80734,-0.697865,-0.0845435,0.414037,
2,0,0,1,0,49141.2,0.410254,0.409948,-0.158814,74,0.676605,10,-6.51057e-05,-3.79911,-1.00553,-0.0586756,0.410018,
2,0,0,0,0,49142,0.406259,0.405969,-0.160186,74,0.67647,10,-6.50305e-05,-3.79538,-0.557938,-0.105746,0.40604,
2,0,0,1,0,49142.8,0.402263,0.401985,-0.163072,74,0.676333,10,-6.55527e-05,-3.78762,-0.946721,-0.0623204,0.402057,
2,0,0,1,0,49143.6,0.398268,0.397953,-0.164059,74,0.676195,10,-6.52876e-05,-3.785,-0.779538,-0.0756859,0.398025,
2,0,0,1,0,49144.4,0.394274,0.393953,-0.166467,74,0.676055,10,-6.55801e-05,-3.77867,-0.781491,-0.0754967,0.394027,
2,0,0,1,0,49145.2,0.390278,0.389958,-0.168577,74,0.675913,10,-6.57381e-05,-3.7732,-0.846625,-0.0696885,0.390032,
2,0,0,0,0,49146,0.386283,0.385956,-0.170441,74,0.67577,10,-6.57829e-05,-3.76843,-0.788449,-0.0748305,0.386031,
2,0,0,1,0,49146.8,0.382287,0.381955,-0.171589,74,0.675625,10,-6.55393e-05,-3.76551,-0.781142,-0.0755305,0.382031,
2,0,0,1,0,49147.6,0.378292,0.377952,-0.174658,74,0.675479,10,-6.60125e-05,-3.75781,-0.799114,-0.0738318,0.378029,
2,0,0,1,0,49148.4,0.374297,0.373951,-0.176588,74,0.675331,10,-6.60351e-05,-3.75304,-0.787997,-0.0748734,0.374028,
2,0,0,1,0,49149.2,0.370303,0.36996,-0.178189,74,0.67518,10,-6.59228e-05,-3.74912,-0.732216,-0.0805773,0.370039,
2,0,0,0,0,49150,0.366307,0.365986,-0.180163,74,0.675028,10,-6.5937e-05,-3.74434,-0.76765,-0.0768579,0.366065,
2,0,0,1,0,49150.8,0.362312,0.361992,-0.182467,74,0.674875,10,-6.60516e-05,-3.73882,-0.584274,-0.10098,0.362072,
2,0,0,1,0,49151.6,0.358316,0.358042,-0.18544,74,0.674719,10,-6.63953e-05,-3.7318,-0.746402,-0.0790459,0.358123,
2,0,0,1,0,49152.4,0.354321,0.35401,-0.18746,74,0.674562,10,-6.63626e-05,-3.72709,-0.699868,-0.0843016,0.354092,
2,0,0,1,0,49153.2,0.350327,0.350022,-0.188364,74,0.674403,10,-6.59316e-05,-3.725,-0.999136,-0.059051,0.350105,
2,0,0,0,0,49154,0.346331,0.346016,-0.192487,74,0.674242,10,-6.66037e-05,-3.7156,-0.95697,-0.0616529,0.346101,
2,0,0,1,0,49154.8,0.342336,0.342016,-0.194216,74,0.674079,10,-6.6425e-05,-3.71172,-0.724327,-0.081455,0.342102,
2,0,0,0,0,49155.6,0.338341,0.338016,-0.196089,74,0.673914,10,-6.62814e-05,-3.70755,-1.06708,-0.0552909,0.338103,
2,0,0,1,0,49156.4,0.334345,0.334029,-0.199003,74,0.673748,10,-6.64728e-05,-3.70114,-0.662142,-0.0891048,0.334117,
2,0,0,1,0,49157.2,0.33035,0.329986,-0.200619,74,0.673579,10,-6.62014e-05,-3.69763,-0.665374,-0.0886719,0.330074,
2,0,0,1,0,49158,0.326355,0.32606,-0.203478,74,0.673409,10,-6.63459e-05,-3.69148,-0.879569,-0.0670783,0.326149,
2,0,0,1,0,49158.8,0.32236,0.322004,-0.20635,74,0.673236,10,-6.64457e-05,-3.68539,-0.605497,-0.0974406,0.322095,
2,0,0,0,0,49159.6,0.318365,0.318019,-0.207658,74,0.673062,10,-6.60392e-05,-3.68265,-1.27621,-0.0462307,0.318111,
2,0,0,1,0,49160.4,0.31437,0.314025,-0.210847,74,0.672886,10,-6.62112e-05,-3.67603,-1.01672,-0.0580295,0.314118,
2,0,0,1,0,49161.2,0.310374,0.310052,-0.213008,74,0.672707,10,-6.60437e-05,-3.6716,-0.614215,-0.0960575,0.310146,
2,0,0,1,0,49162,0.306379,0.306056,-0.215378,74,0.672527,10,-6.59177e-05,-3.6668,-0.741966,-0.0795185,0.306151,
2,0,0,1,0,49162.8,0.302385,0.302022,-0.218852,74,0.672345,10,-6.60983e-05,-3.65985,-0.832773,-0.0708477,0.302119,
2,0,0,0,0,49163.6,0.298389,0.298108,-0.220087,74,0.672161,10,-6.56097e-05,-3.65741,-0.64086,-0.0920638,0.298205,
2,0,0,1,0,49164.4,0.294394,0.294034,-0.223434,74,0.671974,10,-6.5697e-05,-3.65085,-0.990799,-0.0595479,0.294132,
2,0,0,1,0,49165.2,0.290398,0.290024,-0.225273,74,0.671786,10,-6.53347e-05,-3.64729,-0.840342,-0.0702095,0.290123,
2,0,0,1,0,49166,0.286403,0.286067,-0.227204,74,0.671595,10,-6.49954e-05,-3.64358,-0.905603,-0.06515,0.286167,
2,0,0,1,0,49166.8,0.282408,0.28209,-0.230458,74,0.671403,10,-6.50099e-05,-3.63741,-0.951186,-0.0620278,0.282191,
2,0,0,1,0,49167.6,0.278414,0.278122,-0.23306,74,0.671208,10,-6.48191e-05,-3.63253,-0.639958,-0.0921935,0.278225,
2,0,0,1,0,49168.4,0.274418,0.274138,-0.236362,74,0.671011,10,-6.47956e-05,-3.62642,-0.918356,-0.0642453,0.274242,
2,0,0,0,0,49169.2,0.270423,0.270097,-0.239551,74,0.670812,10,-6.4702e-05,-3.6206,-0.668118,-0.0883078,0.270203,
2,0,0,1,0,49170,0.266427,0.266079,-0.241058,74,0.670611,10,-6.41407e-05,-3.61788,-1.52338,-0.0387295,0.266185,
2,0,0,1,0,49170.8,0.262432,0.262099,-0.244442,74,0.670408,10,-6.40678e-05,-3.61183,-1.07041,-0.0551189,0.262206,
2,0,0,1,0,49171.6,0.258437,0.2581,-0.24627,74,0.670203,10,-6.35624e-05,-3.60859,-0.748051,-0.0788717,0.258209,
2,0,0,1,0,49172.4,0.254442,0.254106,-0.24771,74,0.669996,10,-6.29448e-05,-3.60606,-1.02411,-0.0576109,0.254215,
2,0,0,0,0,49173.2,0.250447,0.250144,-0.251191,74,0.669787,10,-6.28338e-05,-3.6,-1.84307,-0.0320118,0.250254,
2,0,0,1,0,49174,0.246452,0.246129,-0.25365,74,0.669576,10,-6.24305e-05,-3.59577,-0.488606,-0.120752,0.246241,
2,0,0,1,0,49174.8,0.242456,0.242114,-0.256096,74,0.669363,10,-6.20044e-05,-3.5916,-1.56832,-0.0376198,0.242227,
2,0,0,1,0,49175.6,0.238461,0.238177,-0.258066,74,0.669148,10,-6.14653e-05,-3.58827,-0.954423,-0.0618175,0.23829,
2,0,0,1,0,49176.3,0.234467,0.234122,-0.260724,74,0.668932,10,-6.10413e-05,-3.58382,-1.27379,-0.0463186,0.234237,
2,0,0,0,0,49177.1,0.230471,0.230165,-0.26175,74,0.668713,10,-6.02456e-05,-3.58211,-2.02302,-0.0291643,0.23028,
2,0,0,1,0,49177.9,0.226476,0.226158,-0.264662,74,0.668493,10,-5.98556e-05,-3.57731,-0.709184,-0.0831942,0.226275,
2,0,0,0,0,49178.7,0.222481,0.22217,-0.266483,74,0.668271,10,-5.92046e-05,-3.57433,-0.879341,-0.0670957,0.222287,
2,0,0,1,0,49179.5,0.218485,0.218153,-0.277886,74,0.668046,10,-6.06216e-05,-3.55613,-1.59604,-0.0369665,0.218275,
2,0,0,1,0,49180.3,0.21449,0.214176,-0.272519,74,0.667818,10,-5.83671e-05,-3.5646,-0.643646,-0.0916653,0.214296,
2,0,0,1,0,49181.1,0.210496,0.210175,-0.274831,74,0.667589,10,-5.77628e-05,-3.56093,-0.988185,-0.0597054,0.210296,
2,0,0,1,0,49181.9,0.2065,0.20616,-0.279635,74,0.667358,10,-5.76497e-05,-3.55341,-0.900256,-0.0655369,0.206283,
2,0,0,0,0,49182.7,0.202505,0.20219,-0.281592,74,0.667125,10,-5.69351e-05,-3.55038,-1.0278,-0.0574041,0.202314,
2,0,0,1,0,49183.5,0.198509,0.19816,-0.285446,74,0.666889,10,-5.65639e-05,-3.54448,-0.689097,-0.0856193,0.198286,
2,0,0,1,0,49184.3,0.194514,0.194178,-0.288616,74,0.66665,10,-5.60427e-05,-3.53968,-0.676757,-0.0871805,0.194305,
2,0,0,1,0,49185.1,0.190519,0.190218,-0.291386,74,0.666408,10,-5.54268e-05,-3.53553,-0.701912,-0.0840561,0.190346,
2,0,0,1,0,49185.9,0.186524,0.186176,-0.296236,74,0.666164,10,-5.51519e-05,-3.52836,-0.802698,-0.0735021,0.186306,
2,0,0,0,0,49186.7,0.182529,0.182205,-0.300523,74,0.665916,10,-5.47567e-05,-3.52212,-0.495048,-0.11918,0.182337,
2,0,0,1,0,49187.5,0.178534,0.178193,-0.305476,74,0.665663,10,-5.44336e-05,-3.51502,-0.490406,-0.120308,0.178327,
2,0,0,1,0,49188.3,0.174538,0.174203,-0.310677,74,0.665407,10,-5.4121e-05,-3.50769,-0.50757,-0.11624,0.17434,
2,0,0,1,0,49189.1,0.170543,0.170178,-0.317158,74,0.665146,10,-5.39735e-05,-3.49872,-0.35415,-0.166596,0.170318,
2,0,0,1,0,49189.9,0.166549,0.166178,-0.323669,74,0.664879,10,-5.37866e-05,-3.4899,-0.405001,-0.145679,0.16632,
2,0,0,0,0,49190.7,0.162553,0.162243,-0.332832,74,0.664605,10,-5.39999e-05,-3.47777,-0.306963,-0.192205,0.16239,
2,0,0,1,0,49191.5,0.158558,0.158227,-0.343682,74,0.664324,10,-5.43796e-05,-3.46384,-0.24352,-0.24228,0.158378,
2,0,0,0,0,49192.3,0.154563,0.154206,-0.360252,74,0.664031,10,-5.55528e-05,-3.44339,-0.219153,-0.269218,0.154364,
2,0,0,1,0,49193.1,0.150567,0.150213,-0.378955,74,0.663726,10,-5.69238e-05,-3.42141,-0.147725,-0.399392,0.15038,
2,0,0,1,0,49193.9,0.146572,0.146219,-0.403912,74,0.663403,10,-5.90596e-05,-3.39371,-0.135039,-0.436909,0.146397,
2,0,0,1,0,49194.7,0.142578,0.142231,-0.437679,74,0.663057,10,-6.22515e-05,-3.35884,-0.107822,-0.547199,0.142424,
2,0,0,1,0,49195.5,0.138582,0.138213,-0.478111,74,0.662681,10,-6.6081e-05,-3.32047,-0.0972478,-0.606697,0.138423,
2,0,0,0,0,49196.3,0.134587,0.134212,-0.524416,74,0.662269,10,-7.03828e-05,-3.28032,-0.105417,-0.559681,0.134442,
2,0,0,1,0,49197.1,0.130591,0.130256,-0.570923,74,0.661821,10,-7.4366e-05,-3.24342,-0.112263,-0.525554,0.130507,
2,0,0,1,0,49197.9,0.126596,0.126281,-0.612846,74,0.661335,10,-7.73906e-05,-3.21265,-0.143974,-0.409796,0.12655,
2,0,0,1,0,49198.7,0.122602,0.122244,-0.646074,74,0.66082,10,-7.89787e-05,-3.18972,-0.253821,-0.232447,0.122528,
2,0,0,1,0,49199.5,0.118607,0.118253,-0.665689,74,0.660285,10,-7.87197e-05,-3.17673,-0.33423,-0.176525,0.118546,
2,0,0,0,0,49200.3,0.114611,0.114307,-0.676954,74,0.659736,10,-7.73804e-05,-3.16944,-1.16416,-0.0506805,0.114605,
2,0,0,1,0,49201.1,0.110616,0.110291,-0.681887,74,0.659183,10,-7.5206e-05,-3.16629,-2.45332,-0.024049,0.110591,
2,0,0,1,0,49201.9,0.10662,0.106317,-0.681625,74,0.658627,10,-7.24686e-05,-3.16645,385.603,0.000153007,0.106617,
2,0,0,1,0,49202.7,0.102625,0.102277,-0.679087,74,0.658072,10,-6.94553e-05,-3.16807,1.29664,0.0455023,0.102576,
2,0,0,1,0,49203.5,0.0986305,0.0983224,-0.675797,74,0.657519,10,-6.6446e-05,-3.17018,1.63344,0.03612,0.0986197,
2,0,0,0,0,49204.3,0.0946351,0.0943032,-0.667048,74,0.656971,10,-6.29048e-05,-3.17584,0.969527,0.0608544,0.0945967,
2,0,0,1,0,49205.1,0.0906399,0.0902758,-0.66376,74,0.656427,10,-5.99215e-05,-3.17799,0.692143,0.0852426,0.0905679,
2,0,0,0,0,49205.9,0.0866448,0.0863014,-0.654875,74,0.65589,10,-5.65167e-05,-3.18384,0.88154,0.0669283,0.0865896,
2,0,0,1,0,49206.7,0.0826492,0.082331,-0.647605,74,0.655359,10,-5.3318e-05,-3.18869,0.676188,0.0872538,0.0826159,
2,0,0,1,0,49207.5,0.0786544,0.0783525,-0.638711,74,0.654835,10,-5.00446e-05,-3.1947,0.723044,0.0815994,0.0786335,
2,0,0,1,0,49208.3,0.0746596,0.0743349,-0.630116,74,0.654318,10,-4.68396e-05,-3.20058,0.671762,0.0878287,0.0746122,
2,0,0,1,0,49209.1,0.0706641,0.0703306,-0.620918,74,0.653807,10,-4.36696e-05,-3.20697,0.62046,0.0950907,0.0706038,
2,0,0,0,0,49209.9,0.0666689,0.0663403,-0.613358,74,0.653304,10,-4.06903e-05,-3.21229,0.829409,0.071135,0.0666102,
2,0,0,1,0,49210.7,0.0626737,0.06235,-0.603809,74,0.652806,10,-3.76475e-05,-3.2191,0.712606,0.0827947,0.0626157,
2,0,0,1,0,49211.5,0.0586783,0.058353,-0.596213,74,0.652315,10,-3.47908e-05,-3.2246,0.553681,0.106559,0.0586154,
2,0,0,1,0,49212.3,0.0546835,0.0543282,-0.588124,74,0.651831,10,-3.19517e-05,-3.23053,0.7029,0.083938,0.0545869,
2,0,0,1,0,49213.1,0.0506886,0.0503457,-0.578526,74,0.651354,10,-2.91263e-05,-3.23768,0.507559,0.116243,0.0506003,
2,0,0,0,0,49213.9,0.046693,0.0463559,-0.56974,74,0.650885,10,-2.64108e-05,-3.24432,0.581506,0.101461,0.0466066,
2,0,0,1,0,49214.7,0.0426979,0.0423635,-0.560159,74,0.650424,10,-2.37303e-05,-3.25169,0.52956,0.111413,0.0426099,
2,0,0,1,0,49215.5,0.0387022,0.0383474,-0.549494,74,0.64997,10,-2.10717e-05,-3.26004,0.453259,0.130168,0.0385892,
2,0,0,1,0,49216.3,0.0347074,0.0343668,-0.539984,74,0.649525,10,-1.85575e-05,-3.26762,0.59818,0.0986325,0.0346044,
2,0,0,1,0,49217.1,0.0307126,0.0303876,-0.528622,74,0.649087,10,-1.60635e-05,-3.27685,0.531196,0.11107,0.0306202,
2,0,0,0,0,49217.9,0.0267172,0.0263693,-0.521551,74,0.648656,10,-1.3753e-05,-3.2827,0.47574,0.124017,0.0265988,
2,0,0,1,0,49218.7,0.022722,0.0223759,-0.513348,74,0.648232,10,-1.14866e-05,-3.28959,0.992927,0.0594203,0.0226017,
2,0,0,0,0,49219.5,0.0187268,0.018358,-0.508067,74,0.647814,10,-9.32708e-06,-3.29408,0.691556,0.0853148,0.0185815,
2,0,0,1,0,49220.3,0.0147313,0.0143833,-0.503833,74,0.6474,10,-7.24679e-06,-3.29771,1.15899,0.0509063,0.014605,
2,0,0,1,0,49221.1,0.0107365,0.0103721,-0.499563,74,0.646989,10,-5.1815e-06,-3.30141,2.15957,0.0273202,0.0105919,
2,0,0,1,0,49221.9,0.00674163,0.00642353,-0.497866,74,0.646581,10,-3.19806e-06,-3.30289,6.26973,0.0094103,0.00664259,
2,0,0,1,0,49222.7,0.00274612,0.00243385,-0.498202,74,0.646172,10,-1.21255e-06,-3.30259,-1.53645,-0.0384003,0.00265306,
2,0,0,0,0,49223.2,0.000274105,-8.31532e-05,-0.499793,74,0.645917,10,4.15593e-08,-3.30121, , ,0.000136756,