File: Figure_codes/Fig_3-5/workspace_calculate_alpha_eff/20221101_1-115_003_TrumpetPlot_ParaChange_from10_every3_16_CV_C01_9.csv
mode,ox/red,error,control changes,counter inc.,time/s,control/V,Ewe/V,<I>/mA,cycle number,(Q-Qo)/C,I Range,P/W,log(|I|),Tafel slope mV/dec,alpha_eff,E-IR/V,
2,0,0,1,0,7140.51,2.44065e-05,-0.000287149,-0.0491475,10,0.0000000E+000,10,1.41127e-08,-4.3085, , ,-0.000265524,
2,1,0,1,0,7141.26,0.00379485,0.00348472,0.216087,10,0.00015415,10,7.53001e-07,-3.66537,0.0656181,0.899142,0.00338964,
2,1,0,0,0,7142.06,0.00779002,0.00746018,0.2381,10,0.00035149,10,1.77627e-06,-3.62324,0.102801,0.573924,0.00735542,
2,1,0,1,0,7142.86,0.0117852,0.0114738,0.252294,10,0.000564008,10,2.89478e-06,-3.59809,0.192235,0.306917,0.0113628,
2,1,0,1,0,7143.66,0.0157806,0.0154602,0.268553,10,0.000787667,10,4.15188e-06,-3.57097,0.174541,0.33803,0.015342,
2,1,0,1,0,7144.46,0.0197754,0.0194492,0.281727,10,0.00102183,10,5.47937e-06,-3.55017,0.186365,0.316583,0.0193253,
2,1,0,1,0,7145.26,0.0237704,0.0234518,0.29488,10,0.00126687,10,6.91546e-06,-3.53035,0.198339,0.29747,0.023322,
2,1,0,0,0,7146.06,0.0277659,0.0274807,0.309348,10,0.00152221,10,8.50108e-06,-3.50955,0.238859,0.247007,0.0273445,
2,1,0,1,0,7146.86,0.0317611,0.0314529,0.32093,10,0.00178853,10,1.00942e-05,-3.49359,0.193546,0.304837,0.0313117,
2,1,0,1,0,7147.66,0.0357567,0.0354553,0.336573,10,0.00206648,10,1.19333e-05,-3.47292,0.278955,0.211503,0.0353072,
2,1,0,1,0,7148.45,0.0397516,0.0394443,0.350818,10,0.00235565,10,1.38378e-05,-3.45492,0.174444,0.338217,0.03929,
2,1,0,1,0,7149.25,0.0437465,0.0434759,0.364882,10,0.00265762,10,1.58636e-05,-3.43785,0.240448,0.245375,0.0433153,
2,1,0,1,0,7150.05,0.0477413,0.0474317,0.380083,10,0.00297064,10,1.8028e-05,-3.42012,0.233531,0.252643,0.0472645,
2,1,0,1,0,7150.85,0.0517369,0.0513907,0.393123,10,0.00329506,10,2.02029e-05,-3.40547,0.233207,0.252995,0.0512177,
2,1,0,0,0,7151.65,0.0557321,0.0554563,0.407771,10,0.00363102,10,2.26135e-05,-3.38958,0.364329,0.161942,0.0552769,
2,1,0,1,0,7152.45,0.0597277,0.0594109,0.420779,10,0.00397691,10,2.49988e-05,-3.37595,0.276592,0.21331,0.0592257,
2,1,0,1,0,7153.25,0.0637226,0.0634285,0.432738,10,0.00433297,10,2.7448e-05,-3.36377,0.31562,0.186934,0.0632381,
2,1,0,1,0,7154.05,0.0677174,0.0674121,0.444795,10,0.00469954,10,2.99845e-05,-3.35184,0.525892,0.11219,0.0672164,
2,1,0,1,0,7154.85,0.0717128,0.0714091,0.456168,10,0.00507446,10,3.25745e-05,-3.34088,0.320292,0.184207,0.0712083,
2,1,0,0,0,7155.65,0.075708,0.0753962,0.464011,10,0.00545803,10,3.49847e-05,-3.33347,0.471516,0.125128,0.075192,
2,1,0,1,0,7156.45,0.0797031,0.0794088,0.475776,10,0.00584929,10,3.77808e-05,-3.3226,0.377366,0.156347,0.0791994,
2,1,0,1,0,7157.24,0.0836986,0.0834132,0.486996,10,0.00624875,10,4.06219e-05,-3.31247,0.402072,0.14674,0.0831989,
2,1,0,1,0,7158.04,0.0876935,0.0873216,0.498789,10,0.00665767,10,4.3555e-05,-3.30208,0.328465,0.179623,0.0871022,
2,1,0,1,0,7158.84,0.0916883,0.0913621,0.514854,10,0.00707689,10,4.70382e-05,-3.28832,0.284668,0.207259,0.0911356,
2,1,0,0,0,7159.64,0.0956838,0.0954008,0.532714,10,0.00751007,10,5.08213e-05,-3.27351,0.231633,0.254714,0.0951664,
2,1,0,1,0,7160.44,0.099679,0.0993508,0.556399,10,0.00796004,10,5.52787e-05,-3.25461,0.22581,0.261282,0.0991059,
2,1,0,0,0,7161.24,0.103674,0.103358,0.582538,10,0.00842937,10,6.021e-05,-3.23468,0.187769,0.314216,0.103102,
2,1,0,1,0,7162.04,0.10767,0.107401,0.605286,10,0.00892007,10,6.5008e-05,-3.21804,0.227049,0.259855,0.107134,
2,1,0,1,0,7162.84,0.111664,0.111337,0.632017,10,0.00943042,10,7.03666e-05,-3.19927,0.245304,0.240517,0.111058,
2,1,0,1,0,7163.64,0.115659,0.11536,0.652727,10,0.00995883,10,7.52988e-05,-3.18527,0.27742,0.212674,0.115073,
2,1,0,1,0,7164.44,0.119655,0.119362,0.671599,10,0.0105042,10,8.01632e-05,-3.17289,0.37583,0.156986,0.119066,
2,1,0,0,0,7165.23,0.12365,0.123329,0.692635,10,0.0110638,10,8.54218e-05,-3.1595,0.373547,0.157945,0.123024,
2,1,0,1,0,7166.03,0.127646,0.127317,0.708533,10,0.0116386,10,9.02085e-05,-3.14964,0.35785,0.164873,0.127005,
2,1,0,1,0,7166.83,0.131641,0.131348,0.723192,10,0.0122277,10,9.49896e-05,-3.14075,1.16254,0.0507509,0.131029,
2,1,0,1,0,7167.63,0.135635,0.135337,0.723424,10,0.0128224,10,9.79057e-05,-3.14061,-1.25626,-0.0469649,0.135018,
2,1,0,1,0,7168.43,0.139631,0.139351,0.700105,10,0.0134094,10,9.75607e-05,-3.15484,-0.172303,-0.342421,0.139043,
2,1,0,0,0,7169.23,0.143626,0.143296,0.653441,10,0.0139678,10,9.36356e-05,-3.18479,-0.102876,-0.573509,0.143009,
2,1,0,1,0,7170.03,0.147621,0.147303,0.587173,10,0.014479,10,8.64926e-05,-3.23123,-0.0770795,-0.765444,0.147045,
2,1,0,1,0,7170.83,0.151617,0.151274,0.520711,10,0.0149355,10,7.87701e-05,-3.2834,-0.0752466,-0.784089,0.151045,
2,1,0,1,0,7171.63,0.155612,0.155293,0.46327,10,0.0153416,10,7.19423e-05,-3.33417,-0.0895937,-0.658528,0.155089,
2,1,0,1,0,7172.43,0.159606,0.159331,0.42011,10,0.0157079,10,6.69367e-05,-3.37664,-0.11207,-0.526458,0.159147,
2,1,0,0,0,7173.23,0.163602,0.163307,0.389909,10,0.0160457,10,6.36749e-05,-3.40904,-0.125144,-0.471457,0.163136,
2,1,0,1,0,7174.02,0.167597,0.167297,0.36767,10,0.0163621,10,6.15102e-05,-3.43454,-0.201393,-0.29296,0.167136,
2,1,0,0,0,7174.82,0.171592,0.171281,0.34983,10,0.016663,10,5.99194e-05,-3.45614,-0.2124,-0.277778,0.171127,
2,1,0,1,0,7175.62,0.175588,0.175251,0.337407,10,0.0169519,10,5.91307e-05,-3.47185,-0.262553,-0.224716,0.175102,
2,1,0,1,0,7176.42,0.179582,0.179239,0.329578,10,0.017232,10,5.90732e-05,-3.48204,-0.37987,-0.155316,0.179094,
2,1,0,1,0,7177.22,0.183577,0.183277,0.321188,10,0.0175057,10,5.88664e-05,-3.49324,-0.562197,-0.104945,0.183136,
2,1,0,1,0,7178.02,0.187573,0.187262,0.314635,10,0.0177738,10,5.8919e-05,-3.50219,-0.449293,-0.131318,0.187123,
2,1,0,0,0,7178.82,0.191568,0.191256,0.309305,10,0.0180374,10,5.91565e-05,-3.50961,-0.607443,-0.0971285,0.19112,
2,1,0,1,0,7179.62,0.195563,0.195268,0.305727,10,0.0182977,10,5.96986e-05,-3.51467,-0.562967,-0.104802,0.195133,
2,1,0,1,0,7180.42,0.199559,0.199224,0.302179,10,0.0185547,10,6.02014e-05,-3.51974,-1.2061,-0.048918,0.199091,
2,1,0,1,0,7181.22,0.203553,0.203263,0.298112,10,0.018809,10,6.0595e-05,-3.52562,-0.986103,-0.0598315,0.203132,
2,1,0,1,0,7182.01,0.207548,0.207242,0.296502,10,0.0190612,10,6.14479e-05,-3.52797,-1.904,-0.0309874,0.207112,
2,1,0,0,0,7182.81,0.211544,0.211267,0.294324,10,0.0193111,10,6.21811e-05,-3.53117,-0.890726,-0.0662381,0.211138,
2,1,0,1,0,7183.61,0.215539,0.215231,0.292885,10,0.0195592,10,6.30378e-05,-3.5333,-1.05662,-0.0558386,0.215102,
2,1,0,1,0,7184.41,0.219535,0.219238,0.29136,10,0.0198054,10,6.38771e-05,-3.53557,-0.942814,-0.0625786,0.219109,
2,1,0,1,0,7185.21,0.223529,0.223268,0.287562,10,0.0200501,10,6.42034e-05,-3.54127,-3.19628,-0.0184589,0.223141,
2,1,0,1,0,7186.01,0.227524,0.227207,0.285542,10,0.0202934,10,6.48772e-05,-3.54433,-1.18404,-0.0498294,0.227081,
2,1,0,0,0,7186.81,0.23152,0.231223,0.284051,10,0.0205352,10,6.5679e-05,-3.5466,-1.64452,-0.0358767,0.231098,
2,1,0,1,0,7187.61,0.235515,0.23522,0.282107,10,0.020776,10,6.63572e-05,-3.54959,-2.10417,-0.0280396,0.235095,
2,1,0,0,0,7188.41,0.23951,0.239218,0.281115,10,0.0210157,10,6.72479e-05,-3.55112,-2.39558,-0.0246287,0.239095,
2,1,0,1,0,7189.21,0.243506,0.243232,0.280854,10,0.0212543,10,6.83126e-05,-3.55152,-84.7942,-0.000695802,0.243108,
2,1,0,1,0,7190,0.2475,0.247176,0.279804,10,0.0214922,10,6.91608e-05,-3.55315,-1.25022,-0.0471915,0.247053,
2,1,0,1,0,7190.8,0.251495,0.251166,0.278166,10,0.0217289,10,6.98658e-05,-3.5557,-1.54606,-0.0381615,0.251043,
2,1,0,1,0,7191.6,0.255491,0.255206,0.276926,10,0.0219648,10,7.06733e-05,-3.55764,3.21246,0.018366,0.255084,
2,1,0,0,0,7192.4,0.259486,0.259181,0.277523,10,0.0222003,10,7.19285e-05,-3.5567,-1.05086,-0.0561447,0.259058,
2,1,0,1,0,7193.2,0.263481,0.26321,0.276102,10,0.0224348,10,7.26728e-05,-3.55893,-3.25441,-0.0181292,0.263089,
2,1,0,1,0,7194,0.267477,0.267135,0.273374,10,0.0226686,10,7.30277e-05,-3.56324,-3.35082,-0.0176076,0.267015,
2,1,0,1,0,7194.8,0.271471,0.271153,0.275499,10,0.0229019,10,7.47024e-05,-3.55988,-2.20488,-0.0267588,0.271032,
2,1,0,1,0,7195.6,0.275466,0.275153,0.27348,10,0.0231344,10,7.52488e-05,-3.56307,3.73167,0.0158106,0.275033,
2,1,0,0,0,7196.4,0.279462,0.279146,0.271482,10,0.023366,10,7.5783e-05,-3.56626,-1.04243,-0.0565983,0.279026,
2,1,0,1,0,7197.2,0.283457,0.283179,0.271549,10,0.0235967,10,7.6897e-05,-3.56615,45.8393,0.0012871,0.283059,
2,1,0,0,0,7198,0.287452,0.287145,0.269114,10,0.0238265,10,7.72747e-05,-3.57006,-0.999807,-0.0590114,0.287026,
2,1,0,1,0,7198.79,0.291448,0.291164,0.268579,10,0.0240556,10,7.82003e-05,-3.57093,-2.13036,-0.0276948,0.291045,
2,1,0,1,0,7199.59,0.295442,0.29517,0.268488,10,0.0242841,10,7.92495e-05,-3.57108,-3.05082,-0.019339,0.295051,
2,1,0,1,0,7200.39,0.299437,0.299177,0.266116,10,0.024512,10,7.96156e-05,-3.57493,-13.7003,-0.00430648,0.299059,
2,1,0,1,0,7201.19,0.303433,0.303169,0.266075,10,0.0247389,10,8.06659e-05,-3.575,-6.93981,-0.00850168,0.303052,
2,1,0,0,0,7201.99,0.307428,0.307108,0.265805,10,0.0249651,10,8.16306e-05,-3.57544,-3.40022,-0.0173518,0.306991,
2,1,0,1,0,7202.79,0.311424,0.311138,0.265021,10,0.025191,10,8.2458e-05,-3.57672,-1.49303,-0.0395168,0.311021,
2,1,0,1,0,7203.59,0.315418,0.315147,0.264797,10,0.0254158,10,8.34499e-05,-3.57709,-2.50099,-0.0235907,0.31503,
2,1,0,1,0,7204.39,0.319413,0.319121,0.263525,10,0.0256402,10,8.40963e-05,-3.57918,10.1517,0.00581182,0.319005,
2,1,0,1,0,7205.19,0.323409,0.323138,0.262724,10,0.0258642,10,8.48962e-05,-3.5805,-1.11642,-0.0528475,0.323022,
2,1,0,0,0,7205.99,0.327404,0.327072,0.262127,10,0.0260872,10,8.57343e-05,-3.58149,4.01158,0.0147074,0.326957,
2,1,0,1,0,7206.78,0.331399,0.33107,0.2598,10,0.0263097,10,8.60118e-05,-3.58536,-2.82202,-0.020907,0.330955,
2,1,0,1,0,7207.58,0.335395,0.335053,0.261213,10,0.0265317,10,8.75202e-05,-3.583,42.6536,0.00138323,0.334938,
2,1,0,1,0,7208.38,0.339389,0.339115,0.260155,10,0.0267532,10,8.82225e-05,-3.58477,-1.68768,-0.0349592,0.339001,
2,1,0,1,0,7209.18,0.343384,0.343112,0.258903,10,0.0269742,10,8.88329e-05,-3.58686,-3.05799,-0.0192937,0.342998,
2,1,0,0,0,7209.98,0.34738,0.347044,0.259078,10,0.0271945,10,8.99113e-05,-3.58657,7.95211,0.00741941,0.34693,
2,1,0,1,0,7210.78,0.351375,0.351077,0.258227,10,0.0274148,10,9.06576e-05,-3.588,-1.20902,-0.0487998,0.350964,
2,1,0,0,0,7211.58,0.35537,0.355078,0.257657,10,0.0276345,10,9.14886e-05,-3.58896,-3.61042,-0.0163416,0.354965,
2,1,0,1,0,7212.38,0.359366,0.359029,0.257842,10,0.0278537,10,9.25725e-05,-3.58865,1.85102,0.0318743,0.358915,
2,1,0,1,0,7213.18,0.36336,0.363078,0.256189,10,0.0280726,10,9.30167e-05,-3.59144,-1.40137,-0.0421016,0.362965,
2,1,0,1,0,7213.98,0.367355,0.367045,0.255297,10,0.0282908,10,9.37055e-05,-3.59295,4.17785,0.0141221,0.366932,
2,1,0,1,0,7214.77,0.371351,0.371074,0.256193,10,0.0285085,10,9.50666e-05,-3.59143,-1.47859,-0.0399028,0.370961,
2,1,0,0,0,7215.57,0.375346,0.375068,0.255195,10,0.0287259,10,9.57156e-05,-3.59313,-2.01137,-0.0293333,0.374956,
2,1,0,1,0,7216.37,0.379342,0.379015,0.253906,10,0.0289424,10,9.62344e-05,-3.59533,-5.65032,-0.0104419,0.378904,
2,1,0,1,0,7217.17,0.383336,0.383044,0.252464,10,0.0291585,10,9.67048e-05,-3.5978,-156.944,-0.000375931,0.382933,
2,1,0,1,0,7217.97,0.387331,0.387006,0.251926,10,0.0293743,10,9.7497e-05,-3.59873,6.17903,0.00954843,0.386895,
2,1,0,1,0,7218.77,0.391327,0.391017,0.252932,10,0.0295895,10,9.89007e-05,-3.597,-1.20325,-0.0490341,0.390905,
2,1,0,0,0,7219.57,0.395322,0.395077,0.251666,10,0.0298044,10,9.94275e-05,-3.59918,3.27152,0.0180345,0.394966,
2,1,0,1,0,7220.37,0.399317,0.399011,0.252473,10,0.0300189,10,0.000100739,-3.59779,-2.42562,-0.0243237,0.3989,
2,1,0,1,0,7221.17,0.403313,0.403034,0.251078,10,0.030233,10,0.000101193,-3.60019,-1.30367,-0.045257,0.402923,
2,1,0,1,0,7221.97,0.407307,0.40702,0.250714,10,0.0304467,10,0.000102046,-3.60082,1.89609,0.0311166,0.40691,
2,1,0,1,0,7222.77,0.411302,0.410977,0.251135,10,0.0306599,10,0.000103211,-3.60009,-1.56682,-0.0376559,0.410867,
2,1,0,0,0,7223.56,0.415298,0.414992,0.24962,10,0.0308731,10,0.00010359,-3.60272,4.18653,0.0140928,0.414883,
2,1,0,1,0,7224.36,0.419293,0.418987,0.250509,10,0.0310861,10,0.00010496,-3.60118,-1.95243,-0.0302187,0.418877,
2,1,0,0,0,7225.16,0.423288,0.423009,0.250651,10,0.0312988,10,0.000106028,-3.60093,5.67774,0.0103915,0.422899,
2,1,0,1,0,7225.96,0.427283,0.427023,0.249594,10,0.0315119,10,0.000106582,-3.60277,3.8733,0.0152325,0.426913,
2,1,0,1,0,7226.76,0.431278,0.430964,0.24974,10,0.0317247,10,0.000107629,-3.60251,64.8058,0.000910413,0.430854,
2,1,0,1,0,7227.56,0.435273,0.43501,0.24926,10,0.0319372,10,0.000108431,-3.60335,4.91863,0.0119952,0.434901,
2,1,0,1,0,7228.36,0.439269,0.438967,0.250191,10,0.0321497,10,0.000109826,-3.60173,-4.10934,-0.0143575,0.438857,
2,1,0,0,0,7229.16,0.443264,0.442971,0.249961,10,0.0323623,10,0.000110726,-3.60213,-3.0701,-0.0192176,0.442861,
2,1,0,1,0,7229.96,0.447259,0.446961,0.249634,10,0.0325747,10,0.000111576,-3.6027,5.13551,0.0114886,0.446851,
2,1,0,1,0,7230.76,0.451254,0.450999,0.250234,10,0.0327874,10,0.000112855,-3.60165,-1.5181,-0.0388643,0.450889,
2,1,0,1,0,7231.55,0.455249,0.454922,0.249543,10,0.0329998,10,0.000113523,-3.60285,1.19997,0.0491678,0.454812,
2,1,0,1,0,7232.35,0.459244,0.458985,0.249307,10,0.0332124,10,0.000114428,-3.60326,4.92718,0.0119744,0.458875,
2,1,0,0,0,7233.15,0.46324,0.462941,0.25069,10,0.0334252,10,0.000116055,-3.60086,3.55734,0.0165854,0.462831,
2,1,0,1,0,7233.95,0.467235,0.466937,0.249807,10,0.0336379,10,0.000116644,-3.6024,-3.64605,-0.0161819,0.466828,
2,1,0,1,0,7234.75,0.471231,0.470945,0.251007,10,0.033851,10,0.000118211,-3.60031,1.66404,0.0354559,0.470835,
2,1,0,1,0,7235.55,0.475225,0.474925,0.251892,10,0.0340642,10,0.000119629,-3.59879,-13.9091,-0.00424184,0.474814,
2,1,0,1,0,7236.35,0.47922,0.478917,0.251993,10,0.0342779,10,0.000120684,-3.59861,1.29493,0.0455622,0.478806,
2,1,0,0,0,7237.15,0.483216,0.482919,0.251604,10,0.0344922,10,0.000121504,-3.59928,-2.63004,-0.0224331,0.482808,
2,1,0,1,0,7237.95,0.487211,0.486936,0.252891,10,0.0347068,10,0.000123142,-3.59707,4.10082,0.0143874,0.486824,
2,1,0,0,0,7238.75,0.491206,0.490945,0.253489,10,0.034922,10,0.000124449,-3.59604,2.97975,0.0198004,0.490834,
2,1,0,1,0,7239.54,0.495201,0.494968,0.254737,10,0.0351377,10,0.000126087,-3.59391,2.00862,0.0293734,0.494856,
2,1,0,1,0,7240.34,0.499196,0.498912,0.256,10,0.035354,10,0.000127721,-3.59176,2.20879,0.0267114,0.498799,
2,1,0,1,0,7241.14,0.503191,0.502946,0.257451,10,0.0355714,10,0.000129484,-3.58931,1.16594,0.0506028,0.502833,
2,1,0,1,0,7241.94,0.507187,0.506886,0.258059,10,0.0357895,10,0.000130806,-3.58828,-11.6834,-0.00504992,0.506773,
2,1,0,0,0,7242.74,0.511182,0.51088,0.258146,10,0.0360082,10,0.000131881,-3.58814,1.44967,0.0406989,0.510766,
2,1,0,1,0,7243.54,0.515177,0.514889,0.260243,10,0.0362282,10,0.000133996,-3.58462,9.67991,0.0060951,0.514775,
2,1,0,1,0,7244.34,0.519173,0.518919,0.262198,10,0.0364491,10,0.00013606,-3.58137,1.03184,0.0571796,0.518804,
2,1,0,1,0,7245.14,0.523167,0.522874,0.261983,10,0.0366713,10,0.000136984,-3.58173,2.67869,0.0220257,0.522759,
2,1,0,1,0,7245.94,0.527162,0.526878,0.264409,10,0.0368946,10,0.000139311,-3.57772,0.945958,0.0623706,0.526761,
2,1,0,0,0,7246.74,0.531158,0.530868,0.266848,10,0.0371192,10,0.000141661,-3.57374,1.60927,0.0366626,0.530751,
2,1,0,1,0,7247.54,0.535153,0.534855,0.268534,10,0.0373455,10,0.000143627,-3.571,1.02293,0.0576774,0.534737,
2,1,0,0,0,7248.33,0.539148,0.538874,0.271434,10,0.0375734,10,0.000146269,-3.56634,0.806796,0.0731287,0.538755,
2,1,0,1,0,7249.13,0.543143,0.542838,0.274501,10,0.0378033,10,0.00014901,-3.56146,1.03811,0.0568339,0.542718,
2,1,0,1,0,7249.93,0.547138,0.546852,0.276908,10,0.0380351,10,0.000151428,-3.55766,1.16634,0.0505857,0.54673,
2,1,0,1,0,7250.73,0.551133,0.550842,0.279849,10,0.0382692,10,0.000154153,-3.55308,0.709677,0.0831364,0.550718,
2,1,0,1,0,7251.53,0.555129,0.554827,0.281666,10,0.0385059,10,0.000156276,-3.55027,0.741857,0.0795302,0.554703,
2,1,0,0,0,7252.33,0.559124,0.558838,0.286371,10,0.0387452,10,0.000160035,-3.54307,0.624099,0.0945362,0.558712,
2,1,0,1,0,7253.13,0.56312,0.562821,0.289838,10,0.0389876,10,0.000163127,-3.53785,0.576566,0.10233,0.562694,
2,1,0,1,0,7253.93,0.567114,0.566884,0.295528,10,0.0392337,10,0.00016753,-3.5294,0.67308,0.0876567,0.566754,
2,1,0,1,0,7254.73,0.571109,0.570827,0.300656,10,0.0394833,10,0.000171623,-3.52193,0.425029,0.138814,0.570695,
2,1,0,1,0,7255.53,0.575105,0.574806,0.305561,10,0.0397375,10,0.000175638,-3.5149,0.601607,0.0980707,0.574672,
2,1,0,0,0,7256.32,0.5791,0.578787,0.312812,10,0.0399966,10,0.000181052,-3.50472,0.385584,0.153015,0.578649,
2,1,0,1,0,7257.12,0.583095,0.582798,0.319302,10,0.0402609,10,0.000186088,-3.4958,0.348136,0.169474,0.582657,
2,1,0,1,0,7257.92,0.58709,0.586848,0.327543,10,0.0405313,10,0.000192218,-3.48473,0.384828,0.153315,0.586703,
2,1,0,1,0,7258.72,0.591085,0.590807,0.338042,10,0.0408086,10,0.000199718,-3.47103,0.326821,0.180527,0.590658,
2,1,0,1,0,7259.52,0.59508,0.594789,0.347911,10,0.0410939,10,0.000206934,-3.45853,0.254634,0.231705,0.594636,
2,1,0,0,0,7260.32,0.599076,0.598796,0.358506,10,0.0413887,10,0.000214672,-3.4455,0.283094,0.208411,0.598638,
2,1,0,1,0,7261.12,0.603071,0.602802,0.373697,10,0.041694,10,0.000225266,-3.42748,0.217829,0.270854,0.602638,
2,1,0,0,0,7261.92,0.607066,0.606759,0.391455,10,0.0420115,10,0.000237519,-3.40732,0.194296,0.303661,0.606587,
2,1,0,1,0,7262.72,0.611061,0.610821,0.410271,10,0.0423438,10,0.000250602,-3.38693,0.183234,0.321992,0.610641,
2,1,0,1,0,7263.52,0.615056,0.614756,0.43261,10,0.0426925,10,0.00026595,-3.3639,0.158775,0.371595,0.614566,
2,1,0,1,0,7264.31,0.619051,0.618791,0.459218,10,0.0430612,10,0.00028416,-3.33798,0.146959,0.401471,0.618589,
2,1,0,1,0,7265.11,0.623047,0.622765,0.490481,10,0.0434523,10,0.000305455,-3.30938,0.133034,0.443497,0.622549,
2,1,0,0,0,7265.91,0.627042,0.626756,0.527131,10,0.0438701,10,0.000330382,-3.27808,0.123931,0.47607,0.626524,
2,1,0,1,0,7266.71,0.631037,0.630796,0.56864,10,0.0443192,10,0.000358696,-3.24516,0.117837,0.500692,0.630546,
2,1,0,1,0,7267.51,0.635032,0.634745,0.618384,10,0.0448048,10,0.000392516,-3.20874,0.101806,0.579532,0.634473,
2,1,0,1,0,7268.31,0.639027,0.638764,0.67943,10,0.0453348,10,0.000433996,-3.16786,0.0935801,0.630476,0.638465,
2,1,0,1,0,7269.11,0.643022,0.642774,0.749386,10,0.0459169,10,0.000481686,-3.12529,0.0904689,0.652158,0.642444,
2,1,0,0,0,7269.91,0.647018,0.64675,0.832262,10,0.0465606,10,0.000538265,-3.07974,0.0823502,0.716452,0.646383,
2,1,0,1,0,7270.71,0.651013,0.650762,0.930627,10,0.0472767,10,0.000605617,-3.03122,0.0797432,0.739875,0.650353,
2,1,0,1,0,7271.51,0.655008,0.654745,1.04747,10,0.0480782,10,0.000685828,-2.97986,0.0756834,0.779563,0.654285,
2,1,0,1,0,7272.31,0.659003,0.658702,1.1829,10,0.0489796,10,0.000779179,-2.92705,0.073716,0.800369,0.658181,
2,1,0,1,0,7273.1,0.662998,0.662702,1.34045,10,0.0499988,10,0.000888317,-2.87275,0.0711664,0.829043,0.662112,
2,1,0,0,0,7273.9,0.666994,0.666728,1.52672,10,0.0511554,10,0.0010179,-2.81624,0.0695135,0.848756,0.666056,
2,1,0,1,0,7274.7,0.670989,0.670701,1.73985,10,0.0524709,10,0.00116692,-2.75949,0.067063,0.87977,0.669935,
2,1,0,0,0,7275.5,0.674984,0.674729,1.98734,10,0.0539707,10,0.00134092,-2.70173,0.0672731,0.877023,0.673855,
2,1,0,1,0,7276.3,0.67898,0.678689,2.26901,10,0.0556809,10,0.00153995,-2.64416,0.0667763,0.883547,0.677691,
2,1,0,1,0,7277.1,0.682974,0.682705,2.58587,10,0.0576313,10,0.00176539,-2.58739,0.0682457,0.864523,0.681567,
2,1,0,1,0,7277.9,0.686969,0.686705,2.94549,10,0.0598519,10,0.00202269,-2.53084,0.0688201,0.857308,0.685409,
2,1,0,1,0,7278.7,0.690965,0.690692,3.34509,10,0.0623751,10,0.00231042,-2.47559,0.0686874,0.858964,0.68922,
2,1,0,0,0,7279.5,0.69496,0.694694,3.78776,10,0.0652351,10,0.00263134,-2.42162,0.0714874,0.82532,0.693027,
2,1,0,1,0,7280.3,0.698955,0.698719,4.27347,10,0.0684659,10,0.00298595,-2.36922,0.0740238,0.797041,0.696839,
2,1,0,1,0,7281.09,0.70295,0.702688,4.80214,10,0.0721025,10,0.00337441,-2.31857,0.0754007,0.782486,0.700576,
2,1,0,1,0,7281.89,0.706945,0.706713,5.37398,10,0.0761784,10,0.00379787,-2.2697,0.0787739,0.748979,0.704349,
2,1,0,1,0,7282.69,0.71094,0.710627,5.98462,10,0.0807268,10,0.00425283,-2.22296,0.0798053,0.739299,0.707994,
2,1,0,0,0,7283.49,0.714936,0.714699,6.63651,10,0.085781,10,0.00474311,-2.17806,0.0855548,0.689616,0.711779,
2,1,0,1,0,7284.29,0.718931,0.718673,7.32655,10,0.0913697,10,0.00526539,-2.1351,0.0865169,0.681948,0.715449,
2,1,0,1,0,7285.09,0.722927,0.722663,8.04995,10,0.0975247,10,0.0058174,-2.09421,0.0923465,0.638898,0.719121,
2,1,0,1,0,7285.89,0.726921,0.726672,8.80937,10,0.104272,10,0.00640152,-2.05506,0.0939616,0.627916,0.722795,
2,1,0,1,0,7286.69,0.730916,0.730647,9.59955,10,0.111637,10,0.00701388,-2.01775,0.101134,0.583385,0.726423,
2,1,0,1,0,7287.49,0.734911,0.734653,10.4204,10,0.119648,10,0.0076554,-1.98211,0.104307,0.565637,0.730068,
2,1,0,1,0,7288.29,0.738907,0.738629,11.2723,10,0.128327,10,0.00832602,-1.94799,0.108697,0.542795,0.733669,
2,1,0,0,0,7289.09,0.742902,0.742637,12.1546,10,0.137697,10,0.00902648,-1.91526,0.111868,0.527408,0.737289,
2,1,0,1,0,7289.88,0.746897,0.746628,13.0737,10,0.147789,10,0.00976118,-1.8836,0.114417,0.515657,0.740875,
2,1,0,1,0,7290.68,0.750892,0.750631,14.0413,10,0.158631,10,0.0105398,-1.85259,0.116115,0.508118,0.744453,
2,1,0,1,0,7291.48,0.754887,0.754623,15.0575,10,0.170266,10,0.0113627,-1.82225,0.116478,0.506531,0.747998,
2,1,0,1,0,7292.28,0.758883,0.758657,16.1376,10,0.182741,10,0.0122429,-1.79216,0.117982,0.500076,0.751557,
2,1,0,0,0,7293.08,0.762878,0.762584,17.2725,10,0.196099,10,0.0131717,-1.76264,0.116533,0.506295,0.754984,
2,1,0,1,0,7293.88,0.766873,0.766608,18.4811,10,0.210397,10,0.0141678,-1.73327,0.119866,0.492217,0.758477,
2,1,0,1,0,7294.68,0.770868,0.770593,19.7231,10,0.225675,10,0.0151984,-1.70503,0.126389,0.466813,0.761915,
2,1,0,1,0,7295.48,0.774863,0.774555,21.0211,10,0.241957,10,0.016282,-1.67734,0.120507,0.4896,0.765306,
2,1,0,1,0,7296.28,0.778858,0.778537,22.3875,10,0.259311,10,0.0174295,-1.64999,0.129567,0.455361,0.768686,
2,1,0,0,0,7297.08,0.782854,0.782634,23.7815,10,0.277769,10,0.0186122,-1.62376,0.128711,0.45839,0.77217,
2,1,0,1,0,7297.87,0.786849,0.786591,25.2303,10,0.297358,10,0.0198459,-1.59808,0.131206,0.449675,0.775489,
2,1,0,0,0,7298.67,0.790844,0.790609,26.7135,10,0.318123,10,0.0211199,-1.57327,0.137465,0.4292,0.778855,
2,1,0,1,0,7299.47,0.794839,0.794597,28.2469,10,0.340097,10,0.0224449,-1.54903,0.138226,0.426837,0.782168,
2,1,0,1,0,7300.27,0.798834,0.798568,29.774,10,0.363298,10,0.0237766,-1.52616,0.149312,0.395146,0.785467,
2,1,0,1,0,7301.07,0.802829,0.802561,31.3244,10,0.387718,10,0.0251397,-1.50412,0.151594,0.389198,0.788778,
2,1,0,1,0,7301.87,0.806825,0.806558,32.9392,10,0.413404,10,0.0265674,-1.48229,0.153571,0.384188,0.792065,
2,1,0,0,0,7302.67,0.81082,0.810552,34.5927,10,0.440401,10,0.0280391,-1.46102,0.151206,0.390196,0.795331,
2,1,0,1,0,7303.47,0.814815,0.81457,36.2204,10,0.468736,10,0.0295041,-1.44105,0.181051,0.325875,0.798633,
2,1,0,1,0,7304.27,0.81881,0.818501,37.765,10,0.498311,10,0.0309106,-1.42291,0.179939,0.327888,0.801884,
2,1,0,1,0,7305.07,0.822805,0.822531,39.423,10,0.529162,10,0.0324266,-1.40425,0.18091,0.326129,0.805184,
2,1,0,1,0,7305.86,0.826801,0.82654,41.063,10,0.561327,10,0.0339402,-1.38655,0.190928,0.309018,0.808473,
2,1,0,0,0,7306.66,0.830796,0.830558,42.6724,10,0.594782,10,0.0354419,-1.36985,0.190336,0.309979,0.811783,
2,1,0,1,0,7307.46,0.834791,0.834534,44.2923,10,0.629563,10,0.0369634,-1.35367,0.220119,0.268037,0.815045,
2,1,0,1,0,7308.26,0.838786,0.838541,45.8884,10,0.665603,10,0.0384793,-1.3383,0.208272,0.283284,0.81835,
2,1,0,1,0,7309.06,0.842781,0.842581,47.5781,10,0.702955,10,0.0400884,-1.32259,0.223085,0.264473,0.821647,
2,1,0,1,0,7309.86,0.846776,0.846519,49.0914,10,0.741583,10,0.0415568,-1.30899,0.259665,0.227216,0.824919,
2,1,0,1,0,7310.56,0.849723,0.849487,49.9907,10,0.776371,10,0.0424665,-1.30111,0.0513045,1.15,0.827491,
2,1,0,0,0,7311.36,0.845728,0.845459,47.6765,10,0.815268,10,0.0403085,-1.3217,0.184799,0.319266,0.824482,
2,1,0,1,0,7312.16,0.841732,0.841526,45.7745,10,0.852592,10,0.0385204,-1.33938,0.175756,0.335693,0.821385,
2,1,0,1,0,7312.96,0.837737,0.837479,43.9138,10,0.888413,10,0.0367769,-1.3574,0.289339,0.203913,0.818157,
2,1,0,1,0,7313.76,0.833742,0.833506,42.6144,10,0.923078,10,0.0355194,-1.37044,0.170177,0.346699,0.814756,
2,1,0,1,0,7314.55,0.829747,0.82951,40.8873,10,0.956437,10,0.0339164,-1.38841,0.174603,0.337909,0.811519,
2,1,0,0,0,7315.35,0.825752,0.825502,39.2095,10,0.988425,10,0.0323676,-1.40661,0.168989,0.349136,0.80825,
2,1,0,1,0,7316.15,0.821757,0.821511,37.2543,10,1.01896,10,0.0306048,-1.42882,0.141143,0.418015,0.805119,
2,1,0,1,0,7316.95,0.817761,0.817478,35.4995,10,1.04802,10,0.0290201,-1.44978,0.14541,0.40575,0.801858,
2,1,0,1,0,7317.75,0.813766,0.813499,33.7226,10,1.07565,10,0.0274333,-1.47208,0.144498,0.408309,0.798661,
2,1,0,1,0,7318.55,0.809771,0.809511,31.9988,10,1.10189,10,0.0259034,-1.49487,0.137187,0.43007,0.795431,
2,1,0,1,0,7319.35,0.805776,0.805521,30.2778,10,1.12675,10,0.0243894,-1.51888,0.135297,0.436078,0.792199,
2,1,0,1,0,7320.15,0.801781,0.801461,28.5843,10,1.15026,10,0.0229092,-1.54387,0.129183,0.456717,0.788884,
2,1,0,0,0,7320.95,0.797786,0.797555,27.0076,10,1.17244,10,0.0215401,-1.56851,0.128062,0.460714,0.785672,
2,1,0,1,0,7321.75,0.79379,0.793545,25.3887,10,1.19335,10,0.0201471,-1.59536,0.123487,0.477783,0.782374,
2,1,0,1,0,7322.55,0.789795,0.789535,23.8361,10,1.21299,10,0.0188194,-1.62277,0.11959,0.49335,0.779047,
2,1,0,1,0,7323.34,0.7858,0.785547,22.3219,10,1.23141,10,0.0175349,-1.65127,0.114206,0.516612,0.775726,
2,1,0,1,0,7324.14,0.781805,0.78158,20.8526,10,1.24865,10,0.016298,-1.68084,0.111043,0.531326,0.772405,
2,1,0,0,0,7324.94,0.77781,0.777536,19.4437,10,1.26473,10,0.0151182,-1.71122,0.110206,0.535362,0.768981,
2,1,0,1,0,7325.74,0.773815,0.773535,18.0968,10,1.27971,10,0.0139985,-1.7424,0.109274,0.539927,0.765572,
2,1,0,1,0,7326.54,0.769819,0.769559,16.8167,10,1.29364,10,0.0129414,-1.77426,0.104175,0.566353,0.76216,
2,1,0,1,0,7327.34,0.765824,0.765538,15.5682,10,1.30656,10,0.0119181,-1.80776,0.101212,0.582933,0.758688,
2,1,0,1,0,7328.14,0.761829,0.761545,14.3664,10,1.3185,10,0.0109407,-1.84265,0.09868,0.597892,0.755224,
2,1,0,0,0,7328.94,0.757834,0.757592,13.2303,10,1.3295,10,0.0100232,-1.87843,0.0968799,0.609002,0.75177,
2,1,0,1,0,7329.74,0.753839,0.753567,12.1641,10,1.33963,10,0.00916649,-1.91492,0.0962648,0.612893,0.748215,
2,1,0,0,0,7330.54,0.749844,0.749598,11.139,10,1.34893,10,0.00834981,-1.95315,0.091623,0.643943,0.744697,
2,1,0,1,0,7331.33,0.745848,0.745592,10.1661,10,1.35742,10,0.00757974,-1.99285,0.0876915,0.672813,0.741119,
2,1,0,1,0,7332.13,0.741853,0.741586,9.25931,10,1.36517,10,0.00686658,-2.03342,0.0876331,0.673261,0.737512,
2,1,0,1,0,7332.93,0.737858,0.737585,8.40239,10,1.37221,10,0.00619748,-2.0756,0.084934,0.694657,0.733888,
2,1,0,1,0,7333.73,0.733863,0.733617,7.60663,10,1.37858,10,0.00558035,-2.11881,0.0827096,0.713339,0.73027,
2,1,0,0,0,7334.53,0.729868,0.729579,6.85767,10,1.38435,10,0.00500321,-2.16382,0.0812658,0.726013,0.726562,
2,1,0,1,0,7335.33,0.725872,0.725591,6.16732,10,1.38953,10,0.00447495,-2.2099,0.0780604,0.755825,0.722878,
2,1,0,1,0,7336.13,0.721877,0.721597,5.52094,10,1.39418,10,0.0039839,-2.25799,0.0776664,0.759659,0.719168,
2,1,0,1,0,7336.93,0.717882,0.717655,4.92534,10,1.39834,10,0.0035347,-2.30756,0.0724623,0.814216,0.715488,
2,1,0,1,0,7337.73,0.713887,0.713623,4.3747,10,1.40204,10,0.00312189,-2.35905,0.0720431,0.818954,0.711698,
2,1,0,0,0,7338.53,0.709892,0.709634,3.87118,10,1.40532,10,0.00274712,-2.41216,0.0703496,0.838669,0.70793,
2,1,0,1,0,7339.32,0.705897,0.70561,3.41104,10,1.40821,10,0.00240686,-2.46711,0.0673621,0.875864,0.704109,
2,1,0,1,0,7340.12,0.701901,0.701611,2.99078,10,1.41075,10,0.00209836,-2.52422,0.0664015,0.888534,0.700295,
2,1,0,1,0,7340.92,0.697906,0.697604,2.60726,10,1.41297,10,0.00181884,-2.58382,0.0627148,0.940767,0.696457,
2,1,0,1,0,7341.72,0.693911,0.693645,2.26553,10,1.4149,10,0.00157148,-2.64483,0.0609876,0.96741,0.692648,
2,1,0,0,0,7342.52,0.689916,0.689662,1.95322,10,1.41657,10,0.00134706,-2.70925,0.0595516,0.990738,0.688803,
2,1,0,1,0,7343.32,0.685921,0.685635,1.67609,10,1.41801,10,0.00114919,-2.7757,0.0575786,1.02469,0.684897,
2,1,0,0,0,7344.12,0.681926,0.681676,1.43028,10,1.41923,10,0.000974988,-2.84458,0.0551603,1.06961,0.681047,
2,1,0,1,0,7344.92,0.67793,0.677697,1.21127,10,1.42027,10,0.000820875,-2.91676,0.0533845,1.10519,0.677164,
2,1,0,1,0,7345.72,0.673935,0.673694,1.02327,10,1.42115,10,0.000689373,-2.99001,0.0529872,1.11348,0.673243,
2,1,0,1,0,7346.52,0.66994,0.66966,0.88686,10,1.4219,10,0.000593895,-3.05214,0.0581348,1.01488,0.66927,
2,1,0,1,0,7347.32,0.665945,0.665643,0.732569,10,1.42253,10,0.00048763,-3.13515,0.0495145,1.19157,0.665321,
2,1,0,0,0,7348.11,0.66195,0.661678,0.607832,10,1.42305,10,0.000402189,-3.21622,0.0479593,1.23021,0.661411,
2,1,0,1,0,7348.91,0.657955,0.657661,0.499592,10,1.42348,10,0.000328562,-3.30138,0.0459191,1.28487,0.657441,
2,1,0,1,0,7349.71,0.653959,0.653679,0.407681,10,1.42383,10,0.000266493,-3.38968,0.0425486,1.38665,0.6535,
2,1,0,1,0,7350.51,0.649964,0.649693,0.328246,10,1.42411,10,0.000213259,-3.4838,0.0414332,1.42398,0.649549,
2,1,0,1,0,7351.31,0.64597,0.645717,0.26251,10,1.42433,10,0.000169507,-3.58085,0.0391841,1.50571,0.645602,
2,1,0,0,0,7352.11,0.641974,0.641707,0.206473,10,1.4245,10,0.000132495,-3.68514,0.0365655,1.61354,0.641617,
2,1,0,1,0,7352.91,0.637979,0.63771,0.158664,10,1.42463,10,0.000101182,-3.79952,0.033549,1.75862,0.63764,
2,1,0,1,0,7353.71,0.633983,0.6337,0.118057,10,1.42473,10,7.48126e-05,-3.92791,0.0303521,1.94385,0.633648,
2,1,0,1,0,7354.51,0.629988,0.629663,0.0856508,10,1.4248,10,5.39312e-05,-4.06727,0.0241502,2.44304,0.629625,
2,1,0,1,0,7355.31,0.625993,0.625746,0.0576655,10,1.42484,10,3.6084e-05,-4.23908,0.0202297,2.91651,0.625721,
2,1,0,0,0,7356.1,0.621998,0.621732,0.0337869,10,1.42487,10,2.10064e-05,-4.47125,0.0138727,4.25295,0.621718,
2,1,0,1,0,7356.9,0.618003,0.617741,0.0144454,10,1.42487,10,8.92349e-06,-4.84027,0.00534977,11.0285,0.617735,
2,1,0,0,0,7357.7,0.614008,0.613708,-0.00234323,10,1.42486,10,-1.43806e-06,-5.63019,-0.0114821,-5.13845,0.613709,
2,0,0,1,0,7358.5,0.610012,0.609746,-0.0153831,10,1.42484,10,-9.37979e-06,-4.81296,-0.0107368,-5.49511,0.609753,
2,0,0,1,0,7359.3,0.606017,0.605714,-0.0253407,10,1.42481,10,-1.53492e-05,-4.59618,-0.0223359,-2.64148,0.605725,
2,0,0,1,0,7360.1,0.602022,0.601749,-0.0352953,10,1.42478,10,-2.12389e-05,-4.45228,-0.046938,-1.25698,0.601765,
2,0,0,1,0,7360.9,0.598027,0.597747,-0.0440696,10,1.42473,10,-2.63425e-05,-4.35586,-0.0463247,-1.27362,0.597767,
2,0,0,0,0,7361.7,0.594032,0.59375,-0.0504564,10,1.42468,10,-2.99585e-05,-4.29708,-0.0875501,-0.6739,0.593773,
2,0,0,1,0,7362.5,0.590037,0.589805,-0.057466,10,1.42462,10,-3.38937e-05,-4.24059,-0.0983477,-0.599912,0.58983,
2,0,0,1,0,7363.3,0.586041,0.585751,-0.0620386,10,1.42456,10,-3.63392e-05,-4.20734,-0.108834,-0.542109,0.585779,
2,0,0,1,0,7364.09,0.582046,0.581803,-0.0668589,10,1.4245,10,-3.88987e-05,-4.17484,-0.13683,-0.431191,0.581832,
2,0,0,1,0,7364.89,0.578052,0.57778,-0.0692284,10,1.42443,10,-3.99988e-05,-4.15972,-0.198715,-0.296908,0.577811,
2,0,0,0,0,7365.69,0.574056,0.573764,-0.0726851,10,1.42436,10,-4.17041e-05,-4.13855,-0.242514,-0.243285,0.573796,
2,0,0,1,0,7366.49,0.570061,0.569777,-0.0765087,10,1.42429,10,-4.35929e-05,-4.11629,-1.00393,-0.0587692,0.56981,
2,0,0,1,0,7367.29,0.566065,0.565746,-0.0782627,10,1.42421,10,-4.42768e-05,-4.10645,-0.177911,-0.331626,0.56578,
2,0,0,1,0,7368.09,0.56207,0.561788,-0.0810799,10,1.42413,10,-4.55498e-05,-4.09109,-0.254102,-0.23219,0.561824,
2,0,0,1,0,7368.89,0.558075,0.557786,-0.0828888,10,1.42406,10,-4.62342e-05,-4.0815,-0.631711,-0.0933971,0.557822,
2,0,0,1,0,7369.69,0.55408,0.553792,-0.0834363,10,1.42398,10,-4.62064e-05,-4.07864,-0.302251,-0.195202,0.553828,
2,0,0,1,0,7370.49,0.550085,0.549793,-0.0859593,10,1.42389,10,-4.72599e-05,-4.06571,-0.733864,-0.0803963,0.549831,
2,0,0,0,0,7371.29,0.54609,0.545762,-0.0874891,10,1.42381,10,-4.77482e-05,-4.05805,-1.01569,-0.0580886,0.5458,
2,0,0,1,0,7372.09,0.542094,0.54181,-0.0887231,10,1.42373,10,-4.80711e-05,-4.05196,-0.479182,-0.123126,0.541849,
2,0,0,1,0,7372.88,0.538099,0.53785,-0.09019,10,1.42364,10,-4.85087e-05,-4.04484,-1.14032,-0.05174,0.53789,
2,0,0,1,0,7373.68,0.534104,0.533818,-0.0913653,10,1.42356,10,-4.87724e-05,-4.03922,-0.403544,-0.146205,0.533858,
2,0,0,1,0,7374.48,0.530109,0.529858,-0.0929557,10,1.42347,10,-4.92533e-05,-4.03172,5.51536,0.0106974,0.529899,
2,0,0,0,0,7375.28,0.526114,0.525839,-0.0946474,10,1.42338,10,-4.97693e-05,-4.02389,-0.314409,-0.187654,0.52588,
2,0,0,1,0,7376.08,0.522119,0.521852,-0.0955072,10,1.42329,10,-4.98406e-05,-4.01996,-1.04937,-0.056224,0.521894,
2,0,0,1,0,7376.88,0.518123,0.517872,-0.0957713,10,1.4232,10,-4.95973e-05,-4.01876,-0.738741,-0.0798656,0.517914,
2,0,0,1,0,7377.68,0.514128,0.513825,-0.0986958,10,1.42311,10,-5.07124e-05,-4.0057,-0.419634,-0.140599,0.513869,
2,0,0,1,0,7378.48,0.510133,0.509827,-0.0994481,10,1.42302,10,-5.07014e-05,-4.0024,-1.19638,-0.0493153,0.509871,
2,0,0,0,0,7379.28,0.506138,0.505859,-0.101072,10,1.42292,10,-5.11284e-05,-3.99537,1.72389,0.034225,0.505903,
2,0,0,1,0,7380.08,0.502143,0.501857,-0.101887,10,1.42283,10,-5.11325e-05,-3.99188,-0.258145,-0.228554,0.501902,
2,0,0,0,0,7380.87,0.498148,0.497849,-0.103506,10,1.42273,10,-5.15306e-05,-3.98503,-2.86087,-0.0206231,0.497895,
2,0,0,1,0,7381.67,0.494152,0.493827,-0.10446,10,1.42264,10,-5.15852e-05,-3.98105,-0.631627,-0.0934096,0.493873,
2,0,0,1,0,7382.47,0.490157,0.489799,-0.10465,10,1.42254,10,-5.12574e-05,-3.98026,-1.00123,-0.0589273,0.489845,
2,0,0,1,0,7383.27,0.486162,0.485879,-0.106274,10,1.42244,10,-5.16363e-05,-3.97357,-0.611839,-0.0964306,0.485926,
2,0,0,1,0,7384.07,0.482167,0.481858,-0.107857,10,1.42234,10,-5.19717e-05,-3.96715,-1.49655,-0.0394239,0.481906,
2,0,0,0,0,7384.87,0.478172,0.477929,-0.107872,10,1.42224,10,-5.15549e-05,-3.96709,-0.909509,-0.0648701,0.477976,
2,0,0,1,0,7385.67,0.474177,0.473864,-0.109672,10,1.42214,10,-5.19695e-05,-3.95991,-2.51767,-0.0234344,0.473912,
2,0,0,1,0,7386.47,0.470181,0.469836,-0.111745,10,1.42204,10,-5.25021e-05,-3.95177,-0.420616,-0.140271,0.469886,
2,0,0,1,0,7387.27,0.466186,0.465877,-0.113023,10,1.42194,10,-5.26549e-05,-3.94683,-0.496516,-0.118828,0.465927,
2,0,0,1,0,7388.07,0.462191,0.461899,-0.114433,10,1.42183,10,-5.28563e-05,-3.94145,-0.803437,-0.0734345,0.461949,
2,0,0,0,0,7388.87,0.458196,0.457892,-0.116277,10,1.42173,10,-5.32423e-05,-3.93451,-0.768434,-0.0767795,0.457943,
2,0,0,1,0,7389.66,0.454201,0.453893,-0.118154,10,1.42162,10,-5.36293e-05,-3.92755,-0.682082,-0.0864999,0.453945,
2,0,0,1,0,7390.46,0.450205,0.449913,-0.11868,10,1.42151,10,-5.33956e-05,-3.92562,-0.682624,-0.0864312,0.449966,
2,0,0,1,0,7391.26,0.44621,0.44592,-0.120352,10,1.4214,10,-5.36671e-05,-3.91955,-0.626509,-0.0941726,0.445973,
2,0,0,1,0,7392.06,0.442215,0.441926,-0.12251,10,1.42129,10,-5.41402e-05,-3.91183,-2.11861,-0.0278484,0.44198,
2,0,0,0,0,7392.86,0.43822,0.437946,-0.124322,10,1.42118,10,-5.44461e-05,-3.90545,-0.390681,-0.151018,0.438001,
2,0,0,1,0,7393.66,0.434225,0.43394,-0.126555,10,1.42106,10,-5.49172e-05,-3.89772,-0.669591,-0.0881135,0.433995,
2,0,0,0,0,7394.46,0.43023,0.429945,-0.128361,10,1.42095,10,-5.51884e-05,-3.89157,-0.55553,-0.106205,0.430002,
2,0,0,1,0,7395.26,0.426234,0.425922,-0.129343,10,1.42083,10,-5.509e-05,-3.88826,-0.474098,-0.124447,0.425979,
2,0,0,1,0,7396.06,0.422239,0.421907,-0.131462,10,1.42071,10,-5.54647e-05,-3.8812,-0.675176,-0.0873846,0.421965,
2,0,0,1,0,7396.86,0.418244,0.417942,-0.133588,10,1.42059,10,-5.58321e-05,-3.87423,-1.10438,-0.0534239,0.418,
2,0,0,1,0,7397.65,0.414249,0.413933,-0.134435,10,1.42047,10,-5.5647e-05,-3.87149,-0.626216,-0.0942166,0.413992,
2,0,0,0,0,7398.45,0.410254,0.409952,-0.137796,10,1.42035,10,-5.64898e-05,-3.86076,-2.23435,-0.0264059,0.410013,
2,0,0,1,0,7399.25,0.406259,0.405978,-0.139275,10,1.42022,10,-5.65425e-05,-3.85613,-0.410592,-0.143695,0.406039,
2,0,0,1,0,7400.05,0.402263,0.401951,-0.141549,10,1.42009,10,-5.68957e-05,-3.84909,-0.608677,-0.0969316,0.402013,
2,0,0,1,0,7400.85,0.398268,0.397948,-0.144821,10,1.41997,10,-5.76313e-05,-3.83917,-0.633064,-0.0931975,0.398011,
2,0,0,1,0,7401.65,0.394274,0.393997,-0.145817,10,1.41984,10,-5.74514e-05,-3.83619,-0.591546,-0.0997387,0.394061,
2,0,0,0,0,7402.45,0.390278,0.389994,-0.148661,10,1.41971,10,-5.79771e-05,-3.8278,-0.514473,-0.11468,0.39006,
2,0,0,1,0,7403.25,0.386283,0.385973,-0.150651,10,1.41957,10,-5.81471e-05,-3.82203,-0.629255,-0.0937617,0.38604,
2,0,0,1,0,7404.05,0.382287,0.382024,-0.151598,10,1.41944,10,-5.79141e-05,-3.81931,-0.576307,-0.102376,0.382091,
2,0,0,1,0,7404.85,0.378292,0.377997,-0.154732,10,1.4193,10,-5.84881e-05,-3.81042,7.16273,0.00823709,0.378065,
2,0,0,1,0,7405.64,0.374297,0.373984,-0.156697,10,1.41916,10,-5.86023e-05,-3.80494,-0.418222,-0.141073,0.374053,
2,0,0,1,0,7406.44,0.370303,0.370004,-0.158666,10,1.41902,10,-5.87072e-05,-3.79951,-0.499663,-0.11808,0.370074,
2,0,0,1,0,7407.24,0.366307,0.366019,-0.160556,10,1.41888,10,-5.87666e-05,-3.79437,-0.684682,-0.0861714,0.366089,
2,0,0,0,0,7408.04,0.362312,0.361996,-0.162812,10,1.41873,10,-5.89373e-05,-3.78831,-0.549353,-0.107399,0.362068,
2,0,0,1,0,7408.84,0.358316,0.358033,-0.16559,10,1.41859,10,-5.92869e-05,-3.78096,-1.00507,-0.0587023,0.358106,
2,0,0,1,0,7409.64,0.354321,0.354035,-0.167916,10,1.41844,10,-5.94482e-05,-3.77491,-0.91257,-0.0646526,0.354109,
2,0,0,1,0,7410.44,0.350327,0.350068,-0.170058,10,1.41829,10,-5.95319e-05,-3.7694,-0.74307,-0.0794004,0.350143,
2,0,0,1,0,7411.24,0.346331,0.345989,-0.17347,10,1.41814,10,-6.00185e-05,-3.76078,-0.562998,-0.104796,0.346065,
2,0,0,0,0,7412.04,0.342336,0.342042,-0.175934,10,1.41798,10,-6.01769e-05,-3.75465,-0.451095,-0.130793,0.342119,
2,0,0,1,0,7412.84,0.338341,0.338055,-0.17808,10,1.41783,10,-6.02007e-05,-3.74939,-1.05689,-0.0558243,0.338133,
2,0,0,1,0,7413.64,0.334345,0.334061,-0.179935,10,1.41767,10,-6.01092e-05,-3.74488,-0.57411,-0.102768,0.33414,
2,0,0,1,0,7414.43,0.33035,0.330051,-0.180982,10,1.41751,10,-5.97332e-05,-3.74237,-0.897091,-0.0657681,0.330131,
2,0,0,1,0,7415.23,0.326355,0.326064,-0.184814,10,1.41735,10,-6.02612e-05,-3.73326,-0.914842,-0.064492,0.326145,
2,0,0,0,0,7416.03,0.32236,0.322052,-0.187037,10,1.41719,10,-6.02356e-05,-3.72807,-0.513319,-0.114938,0.322134,
2,0,0,1,0,7416.83,0.318365,0.318058,-0.189986,10,1.41702,10,-6.04264e-05,-3.72128,-0.545638,-0.10813,0.318141,
2,0,0,0,0,7417.63,0.31437,0.314054,-0.192774,10,1.41685,10,-6.05415e-05,-3.71495,-2.14016,-0.027568,0.314139,
2,0,0,1,0,7418.43,0.310374,0.310072,-0.194617,10,1.41668,10,-6.03455e-05,-3.71082,-0.437682,-0.134801,0.310158,
2,0,0,1,0,7419.23,0.306379,0.306069,-0.197391,10,1.41651,10,-6.04153e-05,-3.70467,-0.604361,-0.0976237,0.306156,
2,0,0,1,0,7420.03,0.302385,0.302084,-0.199625,10,1.41634,10,-6.03033e-05,-3.69979,-1.04807,-0.0562937,0.302172,
2,0,0,1,0,7420.83,0.298389,0.298118,-0.202807,10,1.41616,10,-6.04602e-05,-3.69292,-0.378651,-0.155816,0.298207,
2,0,0,0,0,7421.63,0.294394,0.294057,-0.205156,10,1.41598,10,-6.03278e-05,-3.68791,-32.9676,-0.00178964,0.294148,
2,0,0,1,0,7422.42,0.290398,0.290074,-0.207914,10,1.4158,10,-6.03104e-05,-3.68212,-0.613747,-0.0961308,0.290165,
2,0,0,1,0,7423.22,0.286403,0.286043,-0.210514,10,1.41562,10,-6.0216e-05,-3.67672,-0.553576,-0.10658,0.286135,
2,0,0,1,0,7424.02,0.282408,0.282116,-0.21435,10,1.41543,10,-6.04716e-05,-3.66888,-1.27517,-0.0462684,0.282211,
2,0,0,1,0,7424.82,0.278414,0.278111,-0.216574,10,1.41524,10,-6.02318e-05,-3.66439,-0.587661,-0.100398,0.278207,
2,0,0,0,0,7425.62,0.274418,0.274123,-0.217849,10,1.41505,10,-5.97174e-05,-3.66184,-0.699825,-0.0843068,0.274219,
2,0,0,1,0,7426.42,0.270423,0.270147,-0.222658,10,1.41486,10,-6.01504e-05,-3.65236,-0.702624,-0.083971,0.270245,
2,0,0,1,0,7427.22,0.266427,0.266123,-0.224464,10,1.41467,10,-5.97349e-05,-3.64885,-1.12978,-0.0522226,0.266221,
2,0,0,1,0,7428.02,0.262432,0.262093,-0.226747,10,1.41447,10,-5.9429e-05,-3.64446,-0.652126,-0.0904734,0.262193,
2,0,0,1,0,7428.82,0.258437,0.258151,-0.229862,10,1.41428,10,-5.93391e-05,-3.63853,-0.682132,-0.0864935,0.258252,
2,0,0,0,0,7429.62,0.254442,0.254165,-0.231829,10,1.41408,10,-5.89227e-05,-3.63483,-1.48813,-0.0396472,0.254267,
2,0,0,1,0,7430.41,0.250447,0.250086,-0.234502,10,1.41387,10,-5.86458e-05,-3.62985,-1.06544,-0.0553761,0.25019,
2,0,0,0,0,7431.21,0.246452,0.246138,-0.237514,10,1.41367,10,-5.84611e-05,-3.62431,-0.64603,-0.091327,0.246242,
2,0,0,1,0,7432.01,0.242456,0.242139,-0.24101,10,1.41346,10,-5.83579e-05,-3.61796,-0.579825,-0.101755,0.242245,
2,0,0,1,0,7432.81,0.238461,0.238142,-0.24205,10,1.41325,10,-5.76422e-05,-3.6161,-1.08047,-0.0546059,0.238249,
2,0,0,1,0,7433.61,0.234467,0.234135,-0.246981,10,1.41304,10,-5.7827e-05,-3.60734,-0.653969,-0.0902184,0.234244,
2,0,0,1,0,7434.41,0.230471,0.230165,-0.248654,10,1.41283,10,-5.72314e-05,-3.6044,-0.868354,-0.0679447,0.230274,
2,0,0,0,0,7435.21,0.226476,0.226183,-0.252335,10,1.41262,10,-5.70738e-05,-3.59802,-1.92604,-0.0306328,0.226294,
2,0,0,1,0,7436.01,0.222481,0.222188,-0.252674,10,1.4124,10,-5.61413e-05,-3.59744,-0.721592,-0.0817636,0.222299,
2,0,0,1,0,7436.81,0.218485,0.218149,-0.256973,10,1.41218,10,-5.60584e-05,-3.59011,-1.0927,-0.0539945,0.218262,
2,0,0,1,0,7437.61,0.21449,0.214201,-0.259801,10,1.41196,10,-5.56498e-05,-3.58536,-0.403122,-0.146358,0.214316,
2,0,0,1,0,7438.41,0.210496,0.210222,-0.263771,10,1.41173,10,-5.54506e-05,-3.57877,-1.28174,-0.0460311,0.210338,
2,0,0,0,0,7439.2,0.2065,0.206197,-0.26737,10,1.4115,10,-5.51309e-05,-3.57289,-0.551193,-0.10704,0.206315,
2,0,0,1,0,7440,0.202505,0.202208,-0.270123,10,1.41127,10,-5.46211e-05,-3.56844,-0.784405,-0.0752163,0.202327,
2,0,0,1,0,7440.8,0.198509,0.198193,-0.274299,10,1.41104,10,-5.43642e-05,-3.56178,-0.795119,-0.0742027,0.198314,
2,0,0,1,0,7441.6,0.194514,0.194223,-0.280224,10,1.4108,10,-5.44259e-05,-3.5525,-0.371091,-0.158991,0.194346,
2,0,0,1,0,7442.4,0.190519,0.190215,-0.284733,10,1.41056,10,-5.41605e-05,-3.54556,-0.442628,-0.133295,0.19034,
2,0,0,0,0,7443.2,0.186524,0.186213,-0.291415,10,1.41032,10,-5.42653e-05,-3.53549,-0.6645,-0.0887886,0.186341,
2,0,0,1,0,7444,0.182529,0.182214,-0.29701,10,1.41007,10,-5.41194e-05,-3.52723,-0.326354,-0.180785,0.182345,
2,0,0,0,0,7444.8,0.178534,0.17824,-0.305286,10,1.40981,10,-5.44141e-05,-3.51529,-0.311964,-0.189124,0.178374,
2,0,0,1,0,7445.6,0.174538,0.174244,-0.31629,10,1.40955,10,-5.51115e-05,-3.49991,-0.249797,-0.236192,0.174383,
2,0,0,1,0,7446.4,0.170543,0.17022,-0.327366,10,1.40927,10,-5.57243e-05,-3.48497,-0.214313,-0.275299,0.170364,
2,0,0,1,0,7447.19,0.166549,0.166232,-0.341097,10,1.40899,10,-5.67013e-05,-3.46712,-0.198487,-0.297249,0.166382,
2,0,0,1,0,7447.99,0.162553,0.162233,-0.359753,10,1.40869,10,-5.83638e-05,-3.444,-0.16308,-0.361785,0.162391,
2,0,0,0,0,7448.79,0.158558,0.158238,-0.383957,10,1.40838,10,-6.07566e-05,-3.41572,-0.1221,-0.483212,0.158407,
2,0,0,1,0,7449.59,0.154563,0.154218,-0.417868,10,1.40804,10,-6.4443e-05,-3.37896,-0.120411,-0.489989,0.154402,
2,0,0,1,0,7450.39,0.150567,0.150228,-0.457112,10,1.40768,10,-6.86708e-05,-3.33998,-0.0848723,-0.695162,0.150429,
2,0,0,1,0,7451.19,0.146572,0.146271,-0.510735,10,1.40728,10,-7.47056e-05,-3.2918,-0.0778057,-0.7583,0.146495,
2,0,0,1,0,7451.99,0.142578,0.142247,-0.576928,10,1.40683,10,-8.20662e-05,-3.23888,-0.0765499,-0.770739,0.142501,
2,0,0,0,0,7452.79,0.138582,0.138258,-0.645039,10,1.40632,10,-8.91819e-05,-3.19041,-0.084442,-0.698704,0.138542,
2,0,0,1,0,7453.59,0.134587,0.134244,-0.709371,10,1.40576,10,-9.52291e-05,-3.14913,-0.114713,-0.514328,0.134557,
2,0,0,1,0,7454.39,0.130591,0.130245,-0.758583,10,1.40516,10,-9.88018e-05,-3.12,-0.178007,-0.331447,0.130579,
2,0,0,1,0,7455.18,0.126596,0.126278,-0.787452,10,1.40452,10,-9.94377e-05,-3.10378,-0.326199,-0.180871,0.126624,
2,0,0,1,0,7455.98,0.122602,0.122312,-0.801077,10,1.40387,10,-9.79813e-05,-3.09633,-4.48505,-0.0131548,0.122665,
2,0,0,1,0,7456.78,0.118607,0.118304,-0.801122,10,1.40321,10,-9.47758e-05,-3.0963,8.41041,0.00701512,0.118656,
2,0,0,1,0,7457.58,0.114611,0.114301,-0.7932,10,1.40256,10,-9.0664e-05,-3.10062,0.514699,0.11463,0.11465,
2,0,0,0,0,7458.38,0.110616,0.110275,-0.778784,10,1.40191,10,-8.58804e-05,-3.10858,0.526561,0.112048,0.110618,
2,0,0,1,0,7459.18,0.10662,0.106323,-0.763369,10,1.40128,10,-8.11634e-05,-3.11727,0.49171,0.119989,0.106659,
2,0,0,1,0,7459.98,0.102625,0.102297,-0.747257,10,1.40066,10,-7.64418e-05,-3.12653,0.352528,0.167363,0.102625,
2,0,0,1,0,7460.78,0.0986305,0.098315,-0.729388,10,1.40006,10,-7.17098e-05,-3.13704,0.388208,0.15198,0.098636,
2,0,0,1,0,7461.58,0.0946351,0.0943266,-0.708395,10,1.39947,10,-6.68204e-05,-3.14972,0.35491,0.166239,0.0946382,
2,0,0,0,0,7462.38,0.0906399,0.0903013,-0.694149,10,1.39889,10,-6.26825e-05,-3.15855,0.356418,0.165536,0.0906067,
2,0,0,1,0,7463.18,0.0866448,0.0863194,-0.67926,10,1.39832,10,-5.86333e-05,-3.16796,0.507758,0.116197,0.0866183,
2,0,0,1,0,7463.97,0.0826492,0.0823437,-0.665623,10,1.39777,10,-5.48099e-05,-3.17677,0.489394,0.120557,0.0826365,
2,0,0,1,0,7464.77,0.0786544,0.0783336,-0.65505,10,1.39723,10,-5.13125e-05,-3.18373,0.647742,0.0910856,0.0786218,
2,0,0,1,0,7465.57,0.0746596,0.0743415,-0.644342,10,1.39669,10,-4.79014e-05,-3.19088,0.591262,0.0997866,0.074625,
2,0,0,0,0,7466.37,0.0706641,0.0703158,-0.634636,10,1.39617,10,-4.46249e-05,-3.19748,0.612294,0.0963589,0.070595,
2,0,0,1,0,7467.17,0.0666689,0.0663467,-0.625331,10,1.39565,10,-4.14886e-05,-3.20389,0.607042,0.0971925,0.0666218,
2,0,0,0,0,7467.97,0.0626737,0.0623638,-0.614533,10,1.39513,10,-3.83246e-05,-3.21145,0.568218,0.103833,0.0626342,
2,0,0,1,0,7468.77,0.0586783,0.0583361,-0.606054,10,1.39463,10,-3.53548e-05,-3.21749,0.493423,0.119573,0.0586027,
2,0,0,1,0,7469.57,0.0546835,0.0543641,-0.59616,10,1.39414,10,-3.24097e-05,-3.22464,0.649536,0.090834,0.0546264,
2,0,0,1,0,7470.37,0.0506886,0.0503901,-0.583816,10,1.39365,10,-2.94186e-05,-3.23372,0.405344,0.145555,0.050647,
2,0,0,1,0,7471.17,0.046693,0.046376,-0.572166,10,1.39317,10,-2.65348e-05,-3.24248,0.472962,0.124746,0.0466278,
2,0,0,0,0,7471.96,0.0426979,0.0423794,-0.560012,10,1.3927,10,-2.3733e-05,-3.2518,0.487998,0.120902,0.0426258,
2,0,0,1,0,7472.76,0.0387022,0.038378,-0.54853,10,1.39224,10,-2.10515e-05,-3.2608,0.358769,0.164451,0.0386194,
2,0,0,1,0,7473.56,0.0347074,0.0343838,-0.536856,10,1.39179,10,-1.84591e-05,-3.27014,0.529405,0.111446,0.03462,
2,0,0,1,0,7474.36,0.0307126,0.030413,-0.524969,10,1.39135,10,-1.59658e-05,-3.27987,0.432393,0.13645,0.0306439,
2,0,0,1,0,7475.16,0.0267172,0.0264012,-0.517307,10,1.39092,10,-1.36575e-05,-3.28625,0.403099,0.146366,0.0266288,
2,0,0,0,0,7475.96,0.022722,0.0223854,-0.506611,10,1.3905,10,-1.13407e-05,-3.29533,0.884389,0.0667127,0.0226083,
2,0,0,1,0,7476.76,0.0187268,0.0184068,-0.501075,10,1.39008,10,-9.22316e-06,-3.3001,0.731936,0.0806082,0.0186272,
2,0,0,1,0,7477.56,0.0147313,0.0143866,-0.497235,10,1.38966,10,-7.15349e-06,-3.30344,1.14874,0.0513607,0.0146053,
2,0,0,1,0,7478.36,0.0107365,0.0104177,-0.492739,10,1.38925,10,-5.13321e-06,-3.30738,2.45217,0.0240603,0.0106345,
2,0,0,1,0,7479.16,0.00674163,0.00643069,-0.490499,10,1.38885,10,-3.15425e-06,-3.30936,3.75004,0.0157332,0.00664651,
2,0,0,0,0,7479.96,0.00274612,0.00242113,-0.48933,10,1.38844,10,-1.18473e-06,-3.3104,-3.6799,-0.016033,0.00263643,
2,0,0,1,0,7480.45,0.000274105,-0.000118942,-0.492008,10,1.38818,10,5.85204e-08,-3.30803, , ,9.75416e-05,