File: Figure_codes/Fig_3-5/workspace_calculate_alpha_eff/20221101_1-115_003_TrumpetPlot_ParaChange_from10_every3_16_CV_C01_2.csv
mode,ox/red,error,control changes,counter inc.,time/s,control/V,Ewe/V,<I>/mA,cycle number,(Q-Qo)/C,I Range,P/W,log(|I|),Tafel slope mV/dec,alpha_eff,E-IR/V,
2,0,0,0,0,1970.12,2.44065e-05,-0.000401673,-0.110843,3,0.0000000E+000,10,4.45225e-08,-3.95529, , ,-0.000352902,
2,1,0,0,0,1970.87,0.00379485,0.00351653,0.155565,3,0.000112116,10,5.47048e-07,-3.80809,0.0486125,1.21368,0.00344808,
2,1,0,1,0,1971.67,0.00779002,0.00750578,0.175729,3,0.000260907,10,1.31899e-06,-3.75516,0.0976018,0.604497,0.00742846,
2,1,0,0,0,1972.47,0.0117852,0.0114484,0.187887,3,0.000422664,10,2.151e-06,-3.7261,0.14709,0.401115,0.0113657,
2,1,0,1,0,1973.27,0.0157806,0.0155004,0.201752,3,0.00059442,10,3.12724e-06,-3.69518,0.17931,0.329039,0.0154117,
2,1,0,1,0,1974.07,0.0197754,0.0194914,0.210584,3,0.00077436,10,4.10457e-06,-3.67658,0.165933,0.355566,0.0193988,
2,1,0,1,0,1974.87,0.0237704,0.0234433,0.223874,3,0.000963422,10,5.24833e-06,-3.65,0.165443,0.356618,0.0233447,
2,1,0,1,0,1975.67,0.0277659,0.0274997,0.235246,3,0.00116108,10,6.46919e-06,-3.62848,0.207089,0.284902,0.0273962,
2,1,0,0,0,1976.47,0.0317611,0.0314572,0.244751,3,0.00136809,10,7.69917e-06,-3.61128,0.170082,0.346892,0.0313495,
2,1,0,1,0,1977.27,0.0357567,0.0354754,0.259667,3,0.0015856,10,9.21179e-06,-3.58558,0.227415,0.259438,0.0353612,
2,1,0,1,0,1978.07,0.0397516,0.039439,0.275189,3,0.00181422,10,1.08532e-05,-3.56037,0.132873,0.444032,0.0393179,
2,1,0,1,0,1978.86,0.0437465,0.0434225,0.288664,3,0.00205563,10,1.25345e-05,-3.53961,0.149156,0.395559,0.0432955,
2,1,0,1,0,1979.66,0.0477413,0.047436,0.307471,3,0.00230927,10,1.45852e-05,-3.5122,0.194106,0.303958,0.0473007,
2,1,0,0,0,1980.46,0.0517369,0.051483,0.323243,3,0.00257583,10,1.66415e-05,-3.49047,0.17226,0.342505,0.0513407,
2,1,0,1,0,1981.26,0.0557321,0.0554393,0.339893,3,0.00285633,10,1.88435e-05,-3.46866,0.194469,0.30339,0.0552898,
2,1,0,1,0,1982.06,0.0597277,0.0594437,0.356964,3,0.00314976,10,2.12192e-05,-3.44738,0.201755,0.292434,0.0592866,
2,1,0,1,0,1982.86,0.0637226,0.0634454,0.3716,3,0.00345614,10,2.35763e-05,-3.42992,0.223007,0.264566,0.0632819,
2,1,0,1,0,1983.66,0.0677174,0.0674406,0.386386,3,0.00377544,10,2.60581e-05,-3.41298,0.280025,0.210695,0.0672706,
2,1,0,0,0,1984.46,0.0717128,0.0714366,0.401748,3,0.00410636,10,2.86995e-05,-3.39605,0.209407,0.281749,0.0712599,
2,1,0,1,0,1985.26,0.075708,0.0753962,0.413383,3,0.00444881,10,3.11675e-05,-3.38365,0.368086,0.160288,0.0752143,
2,1,0,0,0,1986.06,0.0797031,0.0794162,0.426782,3,0.00480133,10,3.38934e-05,-3.36979,0.292286,0.201857,0.0792284,
2,1,0,1,0,1986.85,0.0836986,0.083375,0.441192,3,0.00516357,10,3.67844e-05,-3.35537,0.341487,0.172774,0.0831809,
2,1,0,1,0,1987.65,0.0876935,0.0874095,0.452696,3,0.00553596,10,3.95699e-05,-3.34419,0.283381,0.2082,0.0872103,
2,1,0,1,0,1988.45,0.0916883,0.0914026,0.468508,3,0.00591929,10,4.28228e-05,-3.32928,0.266664,0.221252,0.0911965,
2,1,0,1,0,1989.25,0.0956838,0.0953965,0.484623,3,0.00631598,10,4.62313e-05,-3.3146,0.211971,0.27834,0.0951833,
2,1,0,0,0,1990.05,0.099679,0.0993804,0.507965,3,0.00672915,10,5.04818e-05,-3.29417,0.216123,0.272992,0.0991569,
2,1,0,1,0,1990.85,0.103674,0.103403,0.53516,3,0.00716164,10,5.53369e-05,-3.27152,0.154498,0.381881,0.103167,
2,1,0,1,0,1991.65,0.10767,0.107371,0.563393,3,0.00761742,10,6.04919e-05,-3.24919,0.171973,0.343076,0.107123,
2,1,0,1,0,1992.45,0.111664,0.111344,0.595301,3,0.00809711,10,6.62832e-05,-3.22526,0.178547,0.330445,0.111082,
2,1,0,1,0,1993.25,0.115659,0.115349,0.625498,3,0.00860101,10,7.21503e-05,-3.20377,0.180633,0.326629,0.115073,
2,1,0,0,0,1994.05,0.119655,0.119348,0.653445,3,0.00912955,10,7.79873e-05,-3.18479,0.251411,0.234675,0.11906,
2,1,0,1,0,1994.85,0.12365,0.123341,0.679952,3,0.00967812,10,8.38663e-05,-3.16752,0.256765,0.229782,0.123042,
2,1,0,1,0,1995.64,0.127646,0.12738,0.702419,3,0.0102466,10,8.9474e-05,-3.1534,0.272283,0.216686,0.127071,
2,1,0,1,0,1996.44,0.13164,0.131318,0.724413,3,0.0108339,10,9.51284e-05,-3.14001,0.500746,0.117824,0.130999,
2,1,0,1,0,1997.24,0.135635,0.135308,0.734633,3,0.011434,10,9.94017e-05,-3.13393,0.85223,0.0692302,0.134985,
2,1,0,0,0,1998.04,0.139631,0.139316,0.727899,3,0.0120376,10,0.000101408,-3.13793,-0.3794,-0.155509,0.138996,
2,1,0,1,0,1998.84,0.143626,0.143354,0.699693,3,0.0126262,10,0.000100304,-3.15509,-0.141342,-0.417428,0.143047,
2,1,0,0,0,1999.64,0.147621,0.14733,0.639417,3,0.0131789,10,9.42053e-05,-3.19422,-0.0871495,-0.676998,0.147049,
2,1,0,1,0,2000.44,0.151617,0.151286,0.568911,3,0.0136782,10,8.60679e-05,-3.24496,-0.0689718,-0.855422,0.151035,
2,1,0,1,0,2001.24,0.155612,0.155321,0.496858,3,0.0141181,10,7.71726e-05,-3.30377,-0.0711034,-0.829778,0.155103,
2,1,0,1,0,2002.04,0.159606,0.159301,0.437236,3,0.0145061,10,6.9652e-05,-3.35928,-0.0784058,-0.752495,0.159108,
2,1,0,1,0,2002.84,0.163602,0.163289,0.391936,3,0.0148526,10,6.39989e-05,-3.40678,-0.087672,-0.672963,0.163117,
2,1,0,0,0,2003.63,0.167597,0.167285,0.35819,3,0.0151672,10,5.99196e-05,-3.44589,-0.131623,-0.448248,0.167127,
2,1,0,1,0,2004.43,0.171592,0.171266,0.332734,3,0.015459,10,5.69863e-05,-3.4779,-0.142072,-0.415282,0.17112,
2,1,0,1,0,2005.23,0.175588,0.175316,0.314961,3,0.0157337,10,5.52178e-05,-3.50174,-0.177522,-0.332353,0.175178,
2,1,0,1,0,2006.03,0.179582,0.179291,0.301675,3,0.0159952,10,5.40875e-05,-3.52046,-0.25325,-0.232971,0.179158,
2,1,0,1,0,2006.83,0.183577,0.183268,0.291086,3,0.0162472,10,5.33466e-05,-3.53598,-0.239396,-0.246453,0.18314,
2,1,0,0,0,2007.63,0.187573,0.187268,0.280941,3,0.016491,10,5.26113e-05,-3.55138,-0.265129,-0.222534,0.187144,
2,1,0,1,0,2008.43,0.191568,0.191254,0.274307,3,0.0167286,10,5.24623e-05,-3.56176,-0.754061,-0.078243,0.191133,
2,1,0,0,0,2009.23,0.195563,0.19527,0.269703,3,0.0169616,10,5.26648e-05,-3.56911,-0.280854,-0.210074,0.195151,
2,1,0,1,0,2010.03,0.199559,0.199279,0.264754,3,0.0171899,10,5.276e-05,-3.57716,-0.945834,-0.0623788,0.199163,
2,1,0,1,0,2010.83,0.203553,0.203238,0.257994,3,0.0174147,10,5.24342e-05,-3.58839,-0.544922,-0.108272,0.203124,
2,1,0,1,0,2011.62,0.207548,0.20723,0.255762,3,0.0176364,10,5.30015e-05,-3.59216,-0.740807,-0.0796429,0.207117,
2,1,0,1,0,2012.42,0.211544,0.211228,0.252016,3,0.0178549,10,5.32329e-05,-3.59857,-0.771217,-0.0765025,0.211117,
2,1,0,0,0,2013.22,0.215539,0.215248,0.250051,3,0.0180712,10,5.38229e-05,-3.60197,-0.771585,-0.0764659,0.215138,
2,1,0,1,0,2014.02,0.219535,0.219221,0.247542,3,0.018285,10,5.42664e-05,-3.60635,-1.29235,-0.0456534,0.219112,
2,1,0,1,0,2014.82,0.223529,0.223223,0.246055,3,0.0184972,10,5.49251e-05,-3.60897,-0.886683,-0.0665401,0.223115,
2,1,0,1,0,2015.62,0.227524,0.227238,0.243433,3,0.0187078,10,5.53172e-05,-3.61362,-0.964716,-0.0611579,0.227131,
2,1,0,1,0,2016.42,0.23152,0.231252,0.242285,3,0.0189167,10,5.60287e-05,-3.61567,-1.8363,-0.0321299,0.231145,
2,1,0,0,0,2017.22,0.235515,0.235243,0.238393,3,0.0191243,10,5.60803e-05,-3.62271,-1.97743,-0.0298367,0.235138,
2,1,0,1,0,2018.02,0.23951,0.239202,0.239122,3,0.0193305,10,5.71986e-05,-3.62138,-1.11646,-0.0528457,0.239097,
2,1,0,1,0,2018.82,0.243506,0.243227,0.237904,3,0.0195357,10,5.78648e-05,-3.6236,-3.99041,-0.0147855,0.243122,
2,1,0,1,0,2019.62,0.2475,0.247229,0.236655,3,0.0197401,10,5.85078e-05,-3.62588,-2.68077,-0.0220086,0.247125,
2,1,0,1,0,2020.41,0.251495,0.251193,0.235246,3,0.0199434,10,5.90921e-05,-3.62848,-2.3284,-0.0253393,0.25109,
2,1,0,0,0,2021.21,0.255491,0.255163,0.234552,3,0.0201461,10,5.98489e-05,-3.62976,-9.27071,-0.00636413,0.255059,
2,1,0,1,0,2022.01,0.259486,0.259202,0.232902,3,0.0203482,10,6.03685e-05,-3.63283,-0.674585,-0.0874612,0.259099,
2,1,0,0,0,2022.81,0.263481,0.263203,0.232069,3,0.020549,10,6.10813e-05,-3.63438,1.77628,0.0332155,0.263101,
2,1,0,1,0,2023.61,0.267476,0.267158,0.230274,3,0.0207493,10,6.15195e-05,-3.63776,-1.18647,-0.0497272,0.267057,
2,1,0,1,0,2024.41,0.271471,0.271164,0.230264,3,0.0209488,10,6.24393e-05,-3.63777,-2.82327,-0.0208977,0.271063,
2,1,0,1,0,2025.21,0.275466,0.275189,0.229109,3,0.0211475,10,6.30482e-05,-3.63996,-1.75586,-0.0336018,0.275088,
2,1,0,1,0,2026.01,0.279462,0.279172,0.228335,3,0.0213455,10,6.37447e-05,-3.64143,11.0959,0.0053173,0.279072,
2,1,0,0,0,2026.81,0.283457,0.283144,0.228826,3,0.0215425,10,6.47907e-05,-3.64049,-0.847283,-0.0696344,0.283043,
2,1,0,1,0,2027.61,0.287452,0.287182,0.227038,3,0.0217389,10,6.52012e-05,-3.6439,3.67922,0.016036,0.287082,
2,1,0,1,0,2028.4,0.291448,0.291151,0.226232,3,0.0219347,10,6.58678e-05,-3.64545,-0.579518,-0.101809,0.291051,
2,1,0,1,0,2029.2,0.295442,0.295148,0.225707,3,0.0221294,10,6.66169e-05,-3.64646,7.3609,0.00801532,0.295049,
2,1,0,1,0,2030,0.299437,0.299157,0.223333,3,0.0223236,10,6.68119e-05,-3.65105,-5552.75,-1.06254e-05,0.299059,
2,1,0,0,0,2030.8,0.303433,0.303156,0.222915,3,0.0225172,10,6.7578e-05,-3.65186,-5.91433,-0.00997577,0.303057,
2,1,0,1,0,2031.6,0.307428,0.307127,0.221594,3,0.02271,10,6.80576e-05,-3.65444,-1.06216,-0.0555473,0.307029,
2,1,0,1,0,2032.4,0.311424,0.311105,0.221365,3,0.0229023,10,6.88677e-05,-3.65489,-1.72594,-0.0341843,0.311007,
2,1,0,1,0,2033.2,0.315418,0.315126,0.221226,3,0.0230935,10,6.9714e-05,-3.65516,-2.85351,-0.0206763,0.315028,
2,1,0,1,0,2034,0.319413,0.319106,0.219637,3,0.0232841,10,7.00875e-05,-3.65829,4.53252,0.013017,0.319009,
2,1,0,0,0,2034.8,0.323409,0.323139,0.219778,3,0.0234745,10,7.10187e-05,-3.65802,-0.670618,-0.0879785,0.323042,
2,1,0,1,0,2035.6,0.327404,0.327119,0.219128,3,0.0236641,10,7.1681e-05,-3.6593,2.57462,0.022916,0.327022,
2,1,0,0,0,2036.39,0.331399,0.331122,0.216843,3,0.0238533,10,7.18015e-05,-3.66385,-1.20156,-0.0491029,0.331026,
2,1,0,1,0,2037.19,0.335395,0.335154,0.216375,3,0.0240418,10,7.2519e-05,-3.66479,1.34341,0.0439181,0.335058,
2,1,0,1,0,2037.99,0.339389,0.339121,0.216684,3,0.0242297,10,7.34822e-05,-3.66417,-1.74896,-0.0337344,0.339026,
2,1,0,1,0,2038.79,0.343384,0.343101,0.215268,3,0.0244173,10,7.38585e-05,-3.66702,-6.52616,-0.00904053,0.343006,
2,1,0,1,0,2039.59,0.34738,0.347083,0.215808,3,0.0246044,10,7.49034e-05,-3.66593,-5.44007,-0.0108454,0.346988,
2,1,0,0,0,2040.39,0.351375,0.351086,0.21448,3,0.0247912,10,7.5301e-05,-3.66861,-1.10873,-0.0532141,0.350992,
2,1,0,1,0,2041.19,0.35537,0.355071,0.214324,3,0.0249774,10,7.61003e-05,-3.66893,-2.58369,-0.0228356,0.354977,
2,1,0,1,0,2041.99,0.359365,0.359094,0.213477,3,0.0251629,10,7.66582e-05,-3.67065,20.97,0.00281354,0.359001,
2,1,0,1,0,2042.79,0.36336,0.363077,0.211623,3,0.0253482,10,7.68353e-05,-3.67444,-14.9249,-0.00395314,0.362984,
2,1,0,1,0,2043.59,0.367355,0.367063,0.212627,3,0.025533,10,7.80473e-05,-3.67238,-4.16849,-0.0141538,0.366969,
2,1,0,0,0,2044.39,0.371351,0.371036,0.211785,3,0.0257175,10,7.85798e-05,-3.67411,-2.24301,-0.0263039,0.370943,
2,1,0,1,0,2045.18,0.375346,0.375071,0.211949,3,0.0259017,10,7.94961e-05,-3.67377,-7.89782,-0.00747042,0.374978,
2,1,0,1,0,2045.98,0.379342,0.379074,0.211342,3,0.0260854,10,8.01142e-05,-3.67501,-2.30565,-0.0255893,0.378981,
2,1,0,1,0,2046.78,0.383336,0.38303,0.21083,3,0.0262687,10,8.0754e-05,-3.67607,9.64272,0.00611861,0.382937,
2,1,0,1,0,2047.58,0.387331,0.387059,0.212565,3,0.0264519,10,8.22754e-05,-3.67251,-1.09145,-0.0540565,0.386966,
2,1,0,0,0,2048.38,0.391327,0.390993,0.210019,3,0.0266343,10,8.21161e-05,-3.67774,1.2058,0.0489303,0.390901,
2,1,0,1,0,2049.18,0.395322,0.395018,0.208535,3,0.0268168,10,8.23751e-05,-3.68082,-1.45696,-0.0404954,0.394926,
2,1,0,0,0,2049.98,0.399317,0.39899,0.209573,3,0.026999,10,8.36175e-05,-3.67866,4.53158,0.0130197,0.398898,
2,1,0,1,0,2050.78,0.403313,0.403053,0.210513,3,0.0271809,10,8.48479e-05,-3.67672,-1.50504,-0.0392016,0.40296,
2,1,0,1,0,2051.58,0.407307,0.407053,0.209748,3,0.0273628,10,8.53786e-05,-3.6783,6.52664,0.00903988,0.406961,
2,1,0,1,0,2052.38,0.411302,0.410988,0.210229,3,0.0275446,10,8.64014e-05,-3.67731,-18.2671,-0.00322985,0.410895,
2,1,0,1,0,2053.17,0.415298,0.415033,0.208322,3,0.0277264,10,8.64603e-05,-3.68127,2.55261,0.0231136,0.414941,
2,1,0,0,0,2053.97,0.419293,0.419021,0.209595,3,0.0279081,10,8.78248e-05,-3.67862,-4.34758,-0.0135708,0.418929,
2,1,0,1,0,2054.77,0.423288,0.423018,0.209954,3,0.0280897,10,8.88143e-05,-3.67788,5.89667,0.0100056,0.422925,
2,1,0,1,0,2055.57,0.427283,0.427003,0.208753,3,0.0282713,10,8.91383e-05,-3.68037,-2.09482,-0.0281648,0.426911,
2,1,0,1,0,2056.37,0.431278,0.431012,0.209545,3,0.0284528,10,9.03162e-05,-3.67872,2.09762,0.0281271,0.43092,
2,1,0,1,0,2057.17,0.435273,0.434965,0.209369,3,0.028634,10,9.10681e-05,-3.67909,4.55542,0.0129516,0.434873,
2,1,0,0,0,2057.97,0.439269,0.438965,0.208699,3,0.0288153,10,9.16114e-05,-3.68048,-1.30736,-0.0451291,0.438873,
2,1,0,1,0,2058.77,0.443264,0.443015,0.208622,3,0.0289963,10,9.24226e-05,-3.68064,2.11474,0.0278995,0.442923,
2,1,0,0,0,2059.57,0.447259,0.447006,0.209192,3,0.0291775,10,9.351e-05,-3.67946,-1.48942,-0.0396127,0.446914,
2,1,0,1,0,2060.37,0.451254,0.451002,0.209058,3,0.0293591,10,9.42856e-05,-3.67973,1.52083,0.0387947,0.45091,
2,1,0,1,0,2061.17,0.455249,0.455009,0.21012,3,0.0295406,10,9.56065e-05,-3.67753,-6.43127,-0.00917392,0.454916,
2,1,0,1,0,2061.96,0.459244,0.458964,0.20954,3,0.0297225,10,9.61715e-05,-3.67873,4.10517,0.0143721,0.458872,
2,1,0,1,0,2062.76,0.46324,0.462932,0.210959,3,0.0299046,10,9.76595e-05,-3.6758,1.32206,0.0446272,0.462839,
2,1,0,0,0,2063.56,0.467235,0.466952,0.210308,3,0.0300869,10,9.82037e-05,-3.67714,-2.43926,-0.0241876,0.46686,
2,1,0,1,0,2064.36,0.471231,0.470929,0.211552,3,0.0302698,10,9.96257e-05,-3.67458,5.69518,0.0103596,0.470835,
2,1,0,1,0,2065.16,0.475225,0.474944,0.212999,3,0.0304531,10,0.000101162,-3.67162,1.07953,0.0546534,0.47485,
2,1,0,1,0,2065.96,0.47922,0.478932,0.214119,3,0.0306369,10,0.000102549,-3.66934,2.41173,0.0244638,0.478838,
2,1,0,1,0,2066.76,0.483216,0.482905,0.213074,3,0.0308219,10,0.000102895,-3.67147,9.52335,0.0061953,0.482811,
2,1,0,0,0,2067.56,0.487211,0.486916,0.215511,3,0.0310072,10,0.000104936,-3.66653,0.727914,0.0810535,0.486821,
2,1,0,1,0,2068.36,0.491206,0.490923,0.214976,3,0.0311933,10,0.000105537,-3.66761,1.6817,0.0350836,0.490828,
2,1,0,1,0,2069.16,0.495201,0.494926,0.217033,3,0.0313801,10,0.000107415,-3.66347,1.85426,0.0318186,0.494831,
2,1,0,1,0,2069.95,0.499196,0.49893,0.219256,3,0.0315677,10,0.000109393,-3.65905,1.2574,0.0469223,0.498833,
2,1,0,1,0,2070.75,0.503191,0.502922,0.218836,3,0.0317563,10,0.000110058,-3.65988,53.0378,0.00111241,0.502826,
2,1,0,0,0,2071.55,0.507187,0.506923,0.22029,3,0.0319457,10,0.00011167,-3.65701,3.10611,0.0189948,0.506826,
2,1,0,1,0,2072.35,0.511182,0.510885,0.221824,3,0.0321361,10,0.000113327,-3.65399,1.66169,0.0355061,0.510787,
2,1,0,0,0,2073.15,0.515177,0.514943,0.223543,3,0.0323277,10,0.000115112,-3.65064,2.25159,0.0262037,0.514845,
2,1,0,1,0,2073.95,0.519172,0.518877,0.224348,3,0.0325202,10,0.000116409,-3.64908,1.04113,0.0566692,0.518778,
2,1,0,1,0,2074.75,0.523167,0.522937,0.224789,3,0.032714,10,0.000117551,-3.64822,1.05229,0.0560682,0.522838,
2,1,0,1,0,2075.55,0.527162,0.526913,0.227577,3,0.0329092,10,0.000119913,-3.64287,2.51686,0.0234419,0.526812,
2,1,0,1,0,2076.35,0.531158,0.530869,0.229551,3,0.0331058,10,0.000121861,-3.63912,0.740615,0.0796635,0.530768,
2,1,0,0,0,2077.15,0.535153,0.534888,0.232148,3,0.0333043,10,0.000124173,-3.63424,0.647823,0.0910743,0.534786,
2,1,0,1,0,2077.94,0.539148,0.538854,0.235279,3,0.0335044,10,0.000126781,-3.62842,1.05958,0.0556825,0.538751,
2,1,0,1,0,2078.74,0.543143,0.542847,0.238007,3,0.0337068,10,0.000129201,-3.62341,0.523632,0.112675,0.542742,
2,1,0,1,0,2079.54,0.547138,0.546854,0.241118,3,0.0339116,10,0.000131856,-3.61777,1.24428,0.0474169,0.546748,
2,1,0,1,0,2080.34,0.551133,0.55085,0.24248,3,0.0341188,10,0.00013357,-3.61532,0.761294,0.0774996,0.550743,
2,1,0,0,0,2081.14,0.555129,0.554818,0.246532,3,0.0343291,10,0.00013678,-3.60813,0.541469,0.108963,0.554709,
2,1,0,1,0,2081.94,0.559124,0.558788,0.251033,3,0.0345424,10,0.000140274,-3.60027,0.567733,0.103922,0.558677,
2,1,0,1,0,2082.74,0.56312,0.562824,0.256789,3,0.0347589,10,0.000144527,-3.59042,0.382965,0.154061,0.562711,
2,1,0,1,0,2083.54,0.567114,0.566854,0.261193,3,0.0349799,10,0.000148059,-3.58304,0.455599,0.1295,0.566739,
2,1,0,1,0,2084.34,0.571109,0.570839,0.268061,3,0.035205,10,0.000153019,-3.57177,0.374492,0.157547,0.570721,
2,1,0,0,0,2085.14,0.575105,0.574801,0.274836,3,0.0354354,10,0.000157976,-3.56093,0.327213,0.180311,0.57468,
2,1,0,1,0,2085.94,0.5791,0.578835,0.281501,3,0.0356718,10,0.000162942,-3.55052,0.346703,0.170174,0.578711,
2,1,0,0,0,2086.73,0.583095,0.582861,0.290488,3,0.0359141,10,0.000169314,-3.53687,0.298433,0.197699,0.582733,
2,1,0,1,0,2087.53,0.58709,0.586805,0.298816,3,0.0361637,10,0.000175346,-3.5246,0.251467,0.234623,0.586674,
2,1,0,1,0,2088.33,0.591085,0.590815,0.310403,3,0.0364213,10,0.000183391,-3.50807,0.29302,0.201352,0.590678,
2,1,0,1,0,2089.13,0.59508,0.594803,0.323891,3,0.0366882,10,0.000192652,-3.4896,0.2076,0.2842,0.594661,
2,1,0,1,0,2089.93,0.599076,0.598796,0.338476,3,0.0369663,10,0.000202678,-3.47047,0.18475,0.319351,0.598647,
2,1,0,0,0,2090.73,0.603071,0.602817,0.356214,3,0.0372569,10,0.000214732,-3.44829,0.177523,0.332351,0.60266,
2,1,0,1,0,2091.53,0.607066,0.606787,0.375141,3,0.0375623,10,0.000227631,-3.42581,0.157148,0.375442,0.606622,
2,1,0,1,0,2092.33,0.611061,0.610816,0.398049,3,0.0378853,10,0.000243134,-3.40006,0.148121,0.398324,0.610641,
2,1,0,1,0,2093.13,0.615056,0.614775,0.426307,3,0.0382281,10,0.000262083,-3.37028,0.134329,0.439219,0.614587,
2,1,0,1,0,2093.93,0.619051,0.618765,0.457032,3,0.0385948,10,0.000282795,-3.34005,0.120808,0.488377,0.618564,
2,1,0,0,0,2094.72,0.623047,0.622752,0.496088,3,0.0389887,10,0.00030894,-3.30444,0.108745,0.542556,0.622534,
2,1,0,1,0,2095.52,0.627042,0.6268,0.539067,3,0.0394151,10,0.000337887,-3.26836,0.10671,0.552899,0.626563,
2,1,0,1,0,2096.32,0.631037,0.630813,0.591993,3,0.0398799,10,0.000373437,-3.22768,0.0959329,0.615013,0.630553,
2,1,0,1,0,2097.12,0.635032,0.634778,0.654601,3,0.0403903,10,0.000415526,-3.18402,0.0880068,0.670402,0.63449,
2,1,0,1,0,2097.92,0.639027,0.638785,0.728038,3,0.0409552,10,0.000465059,-3.13785,0.0825075,0.715087,0.638464,
2,1,0,1,0,2098.72,0.643022,0.642752,0.816965,3,0.041585,10,0.000525106,-3.0878,0.0768866,0.767364,0.642393,
2,1,0,1,0,2099.52,0.647018,0.646769,0.921129,3,0.0422911,10,0.000595757,-3.03568,0.0735799,0.80185,0.646363,
2,1,0,0,0,2100.32,0.651013,0.650737,1.04327,3,0.0430885,10,0.000678895,-2.9816,0.0699911,0.842965,0.650278,
2,1,0,1,0,2101.12,0.655008,0.654724,1.1913,3,0.0439936,10,0.000779973,-2.92398,0.0682251,0.864784,0.6542,
2,1,0,1,0,2101.92,0.659003,0.658737,1.36329,3,0.0450259,10,0.000898048,-2.86541,0.065722,0.897721,0.658137,
2,1,0,1,0,2102.71,0.662998,0.662724,1.56779,3,0.0462085,10,0.00103901,-2.80471,0.0635093,0.928998,0.662034,
2,1,0,1,0,2103.51,0.666994,0.666713,1.80494,3,0.0475667,10,0.00120338,-2.74354,0.0630986,0.935045,0.665919,
2,1,0,0,0,2104.31,0.670989,0.670698,2.07938,3,0.0491304,10,0.00139464,-2.68207,0.0626954,0.941059,0.669783,
2,1,0,1,0,2105.11,0.674984,0.674683,2.39823,3,0.050931,10,0.00161804,-2.62011,0.061931,0.952673,0.673628,
2,1,0,1,0,2105.91,0.678979,0.678681,2.7619,3,0.0530034,10,0.00187445,-2.55879,0.0631273,0.93462,0.677465,
2,1,0,1,0,2106.71,0.682974,0.682721,3.17097,3,0.0553854,10,0.00216489,-2.49881,0.0637192,0.925937,0.681325,
2,1,0,1,0,2107.51,0.686969,0.686733,3.63525,3,0.0581167,10,0.00249645,-2.43947,0.0647354,0.911402,0.685133,
2,1,0,0,0,2108.31,0.690965,0.690708,4.15107,3,0.0612398,10,0.00286717,-2.38184,0.0662135,0.891057,0.688881,
2,1,0,1,0,2109.11,0.69496,0.694705,4.72036,3,0.0647956,10,0.00327926,-2.32602,0.0676759,0.871802,0.692628,
2,1,0,0,0,2109.91,0.698955,0.698686,5.34214,3,0.0688265,10,0.00373248,-2.27228,0.0709973,0.831017,0.696336,
2,1,0,1,0,2110.71,0.70295,0.702665,6.01394,3,0.0733749,10,0.00422579,-2.22084,0.0727727,0.810744,0.700019,
2,1,0,1,0,2111.5,0.706945,0.706651,6.73626,3,0.0784801,10,0.00476018,-2.17158,0.0775977,0.760332,0.703687,
2,1,0,1,0,2112.3,0.71094,0.710664,7.50088,3,0.0841799,10,0.00533061,-2.12489,0.0793435,0.743603,0.707364,
2,1,0,1,0,2113.1,0.714936,0.714645,8.31156,3,0.0905111,10,0.00593982,-2.08032,0.084048,0.70198,0.710988,
2,1,0,0,0,2113.9,0.718931,0.718662,9.16205,3,0.0975042,10,0.00658442,-2.03801,0.0869293,0.678712,0.714631,
2,1,0,1,0,2114.7,0.722927,0.72271,10.0461,3,0.105192,10,0.00726038,-1.998,0.0923856,0.638628,0.71829,
2,1,0,1,0,2115.5,0.726921,0.72666,10.9677,3,0.1136,10,0.00796981,-1.95988,0.0963008,0.612664,0.721834,
2,1,0,1,0,2116.3,0.730916,0.730671,11.9207,3,0.122757,10,0.00871013,-1.9237,0.100433,0.587455,0.725426,
2,1,0,1,0,2117.1,0.734911,0.734653,12.9115,3,0.132692,10,0.00948547,-1.88902,0.104516,0.564505,0.728972,
2,1,0,0,0,2117.9,0.738907,0.738697,13.9471,3,0.143436,10,0.0103027,-1.85552,0.107826,0.54718,0.732561,
2,1,0,1,0,2118.7,0.742902,0.742626,15.0276,3,0.155024,10,0.0111599,-1.82311,0.108901,0.541778,0.736014,
2,1,0,1,0,2119.49,0.746897,0.746624,16.159,3,0.167499,10,0.0120647,-1.79159,0.112805,0.523025,0.739514,
2,1,0,1,0,2120.29,0.750892,0.750641,17.3527,3,0.180899,10,0.0130257,-1.76063,0.112987,0.522183,0.743006,
2,1,0,1,0,2121.09,0.754887,0.75459,18.6259,3,0.195281,10,0.0140549,-1.72988,0.110889,0.532062,0.746394,
2,1,0,0,0,2121.89,0.758883,0.758613,19.9627,3,0.210713,10,0.015144,-1.69978,0.115565,0.510536,0.749829,
2,1,0,1,0,2122.69,0.762878,0.762639,21.3619,3,0.22723,10,0.0162914,-1.67036,0.116382,0.506952,0.75324,
2,1,0,0,0,2123.49,0.766873,0.766622,22.7814,3,0.244879,10,0.0174648,-1.64242,0.119675,0.493002,0.756598,
2,1,0,1,0,2124.29,0.770868,0.770609,24.3233,3,0.263705,10,0.0187437,-1.61398,0.118056,0.499762,0.759906,
2,1,0,1,0,2125.09,0.774863,0.774602,25.9158,3,0.283787,10,0.0200744,-1.58644,0.120493,0.489653,0.763199,
2,1,0,1,0,2125.89,0.778858,0.7786,27.5294,3,0.305154,10,0.0214344,-1.5602,0.126084,0.467944,0.766487,
2,1,0,1,0,2126.69,0.782854,0.782609,29.1796,3,0.327832,10,0.0228362,-1.53492,0.132924,0.443862,0.76977,
2,1,0,0,0,2127.48,0.786849,0.786566,30.2884,3,0.351663,10,0.0238238,-1.51872,0.215619,0.27363,0.773239,
2,1,0,1,0,2128.28,0.790844,0.79057,31.9653,3,0.376566,10,0.0252708,-1.49532,0.150391,0.39231,0.776506,
2,1,0,1,0,2129.08,0.794839,0.794594,33.6057,3,0.402777,10,0.0267029,-1.47359,0.14874,0.396666,0.779807,
2,1,0,1,0,2129.88,0.798834,0.79861,35.3786,3,0.430335,10,0.0282537,-1.45126,0.147437,0.40017,0.783044,
2,1,0,1,0,2130.68,0.802829,0.802542,37.0807,3,0.459315,10,0.0297588,-1.43085,0.161515,0.365292,0.786226,
2,1,0,0,0,2131.48,0.806825,0.806527,38.8128,3,0.489659,10,0.0313036,-1.41103,0.159781,0.369256,0.78945,
2,1,0,1,0,2132.28,0.81082,0.810506,40.5109,3,0.521416,10,0.0328343,-1.39243,0.200183,0.29473,0.792681,
2,1,0,1,0,2133.08,0.814815,0.814572,42.0948,3,0.554439,10,0.0342892,-1.37577,0.186458,0.316426,0.79605,
2,1,0,1,0,2133.88,0.81881,0.818542,43.7825,3,0.588771,10,0.0358378,-1.3587,0.195562,0.301694,0.799277,
2,1,0,1,0,2134.68,0.822805,0.822587,45.4623,3,0.624456,10,0.0373967,-1.34235,0.210762,0.279936,0.802583,
2,1,0,0,0,2135.48,0.826801,0.826559,46.699,3,0.661323,10,0.0385995,-1.33069,-0.362221,-0.162884,0.806012,
2,1,0,1,0,2136.27,0.830796,0.830531,45.943,3,0.698191,10,0.0381571,-1.33778,0.171395,0.344235,0.810316,
2,1,0,0,0,2137.07,0.834791,0.834577,47.5513,3,0.735611,10,0.0396852,-1.32284,0.238265,0.247623,0.813655,
2,1,0,1,0,2137.87,0.838786,0.838556,49.1206,3,0.774269,10,0.0411904,-1.30874,0.249362,0.236604,0.816943,
2,1,0,1,0,2138.67,0.842781,0.842508,50.6608,3,0.81415,10,0.0426821,-1.29533,0.262132,0.225077,0.820217,
2,1,0,1,0,2139.47,0.846776,0.846539,52.6451,3,0.855323,10,0.0445662,-1.27864,0.242562,0.243237,0.823375,
2,1,0,0,0,2140.17,0.849723,0.849473,53.0753,3,0.892385,10,0.045086,-1.27511,0.0463146,1.2739,0.82612,
2,1,0,1,0,2140.97,0.845728,0.845495,50.887,3,0.933767,10,0.0430247,-1.29339,0.221884,0.265905,0.823105,
2,1,0,0,0,2141.77,0.841732,0.841535,48.9058,3,0.973656,10,0.041156,-1.31064,0.197064,0.299395,0.820016,
2,1,0,1,0,2142.57,0.837737,0.83752,47.408,3,1.01211,10,0.0397051,-1.32415,0.254606,0.23173,0.816661,
2,1,0,1,0,2143.37,0.833742,0.833494,45.9086,3,1.0494,10,0.0382646,-1.33811,0.195536,0.301735,0.813295,
2,1,0,1,0,2144.17,0.829747,0.82952,44.206,3,1.08535,10,0.0366698,-1.35452,0.186601,0.316183,0.81007,
2,1,0,1,0,2144.96,0.825752,0.825505,42.4453,3,1.11991,10,0.0350389,-1.37217,0.19774,0.298372,0.806829,
2,1,0,0,0,2145.76,0.821757,0.821535,40.7934,3,1.15314,10,0.0335132,-1.38941,0.184049,0.320567,0.803586,
2,1,0,1,0,2146.56,0.817761,0.817505,39.132,3,1.18505,10,0.0319906,-1.40747,0.178867,0.329854,0.800287,
2,1,0,1,0,2147.36,0.813766,0.813517,37.4386,3,1.21563,10,0.0304569,-1.42668,0.163049,0.361854,0.797044,
2,1,0,1,0,2148.16,0.809771,0.809534,35.699,3,1.24483,10,0.0288995,-1.44734,0.151215,0.390172,0.793826,
2,1,0,1,0,2148.96,0.805776,0.805526,34.0521,3,1.27266,10,0.0274299,-1.46786,0.155726,0.37887,0.790543,
2,1,0,0,0,2149.76,0.801781,0.801562,32.2995,3,1.29916,10,0.02589,-1.4908,0.145834,0.404569,0.78735,
2,1,0,1,0,2150.56,0.797786,0.797547,30.6513,3,1.3243,10,0.0244459,-1.51355,0.136572,0.432006,0.78406,
2,1,0,1,0,2151.36,0.79379,0.793535,29.0141,3,1.34812,10,0.0230237,-1.53739,0.135206,0.43637,0.780769,
2,1,0,1,0,2152.16,0.789795,0.789569,27.3291,3,1.37062,10,0.0215783,-1.56337,0.12305,0.47948,0.777544,
2,1,0,1,0,2152.95,0.7858,0.785562,25.7811,3,1.39181,10,0.0202526,-1.5887,0.129892,0.454223,0.774218,
2,1,0,0,0,2153.75,0.781805,0.781528,24.2421,3,1.41179,10,0.0189459,-1.61543,0.122567,0.481368,0.770862,
2,1,0,1,0,2154.55,0.77781,0.777521,22.7281,3,1.43054,10,0.0176716,-1.64344,0.113487,0.519882,0.767521,
2,1,0,0,0,2155.35,0.773814,0.77354,21.2461,3,1.44809,10,0.0164347,-1.67272,0.112893,0.52262,0.764192,
2,1,0,1,0,2156.15,0.769819,0.769568,19.8204,3,1.46448,10,0.0152532,-1.70289,0.111117,0.530973,0.760847,
2,1,0,1,0,2156.95,0.765824,0.765578,18.4312,3,1.47974,10,0.0141105,-1.73445,0.104189,0.566279,0.757468,
2,1,0,1,0,2157.75,0.761829,0.761582,17.0978,3,1.49391,10,0.0130214,-1.76706,0.105076,0.5615,0.754059,
2,1,0,1,0,2158.55,0.757834,0.757555,15.8183,3,1.50705,10,0.0119832,-1.80084,0.0988185,0.597054,0.750595,
2,1,0,0,0,2159.35,0.753839,0.753618,14.5664,3,1.51917,10,0.0109775,-1.83665,0.0944545,0.62464,0.747209,
2,1,0,1,0,2160.15,0.749843,0.749627,13.3826,3,1.53031,10,0.010032,-1.87346,0.0926141,0.637052,0.743739,
2,1,0,1,0,2160.95,0.745848,0.745589,12.2573,3,1.54054,10,0.00913893,-1.9116,0.0920281,0.641108,0.740196,
2,1,0,1,0,2161.74,0.741853,0.741627,11.1936,3,1.54989,10,0.00830146,-1.95103,0.0873627,0.675345,0.736702,
2,1,0,1,0,2162.54,0.737858,0.737565,10.1873,3,1.55841,10,0.00751377,-1.99194,0.084826,0.695542,0.733083,
2,1,0,0,0,2163.34,0.733863,0.733605,9.24509,3,1.56616,10,0.00678225,-2.03409,0.0869188,0.678795,0.729538,
2,1,0,1,0,2164.14,0.729868,0.729586,8.49385,3,1.57321,10,0.006197,-2.0709,0.145862,0.404493,0.725849,
2,1,0,1,0,2164.94,0.725872,0.725642,7.90362,3,1.57977,10,0.0057352,-2.10217,0.0829983,0.710858,0.722165,
2,1,0,1,0,2165.74,0.721877,0.721614,7.10908,3,1.58575,10,0.00513001,-2.14819,0.0763504,0.772753,0.718486,
2,1,0,1,0,2166.54,0.717882,0.717615,6.35048,3,1.59111,10,0.0045572,-2.19719,0.0735498,0.802178,0.71482,
2,1,0,0,0,2167.34,0.713887,0.713633,5.64599,3,1.59589,10,0.00402916,-2.24826,0.0700397,0.84238,0.711148,
2,1,0,1,0,2168.14,0.709892,0.709632,4.99126,3,1.60012,10,0.00354195,-2.30179,0.0692477,0.852014,0.707435,
2,1,0,0,0,2168.94,0.705897,0.705674,4.39296,3,1.60385,10,0.0031,-2.35724,0.0651701,0.905323,0.703741,
2,1,0,1,0,2169.73,0.701901,0.701624,3.84483,3,1.60712,10,0.00269762,-2.41512,0.0638259,0.924389,0.699933,
2,1,0,1,0,2170.53,0.697906,0.697666,3.34747,3,1.60998,10,0.00233542,-2.47528,0.0623179,0.946758,0.696193,
2,1,0,1,0,2171.33,0.693911,0.69366,2.90098,3,1.61246,10,0.00201229,-2.53746,0.0590997,0.998313,0.692384,
2,1,0,1,0,2172.13,0.689916,0.689704,2.5011,3,1.6146,10,0.00172502,-2.60187,0.0596627,0.988892,0.688604,
2,1,0,0,0,2172.93,0.685921,0.685659,2.14285,3,1.61644,10,0.00146926,-2.66901,0.0557032,1.05919,0.684716,
2,1,0,1,0,2173.73,0.681926,0.681635,1.82484,3,1.618,10,0.00124387,-2.73878,0.0537894,1.09687,0.680832,
2,1,0,1,0,2174.53,0.67793,0.677641,1.54489,3,1.61933,10,0.00104688,-2.8111,0.0533856,1.10517,0.676961,
2,1,0,1,0,2175.33,0.673935,0.673682,1.30064,3,1.62045,10,0.000876214,-2.88584,0.0507457,1.16266,0.673109,
2,1,0,1,0,2176.13,0.66994,0.66969,1.08778,3,1.62139,10,0.000728475,-2.96346,0.0492967,1.19684,0.669212,
2,1,0,0,0,2176.93,0.665945,0.665628,0.902313,3,1.62217,10,0.000600605,-3.04464,0.0478287,1.23357,0.665231,
2,1,0,1,0,2177.72,0.66195,0.661682,0.743476,3,1.62281,10,0.000491945,-3.12873,0.0460075,1.2824,0.661355,
2,1,0,0,0,2178.52,0.657955,0.657664,0.607921,3,1.62334,10,0.000399808,-3.21615,0.0439721,1.34176,0.657397,
2,1,0,1,0,2179.32,0.653959,0.65371,0.494509,3,1.62376,10,0.000323266,-3.30583,0.0428117,1.37813,0.653492,
2,1,0,1,0,2180.12,0.649964,0.649713,0.395999,3,1.6241,10,0.000257286,-3.40231,0.040415,1.45985,0.649539,
2,1,0,1,0,2180.92,0.645969,0.64571,0.315301,3,1.62437,10,0.000203593,-3.50127,0.0388376,1.51915,0.645571,
2,1,0,1,0,2181.72,0.641974,0.641702,0.245328,3,1.62458,10,0.000157427,-3.61025,0.0351185,1.68002,0.641594,
2,1,0,0,0,2182.52,0.637979,0.637719,0.190635,3,1.62474,10,0.000121572,-3.7198,0.0329628,1.7899,0.637635,
2,1,0,1,0,2183.32,0.633983,0.633715,0.139407,3,1.62486,10,8.83443e-05,-3.85572,0.0292313,2.01839,0.633653,
2,1,0,1,0,2184.12,0.629988,0.629708,0.0995948,3,1.62494,10,6.27156e-05,-4.00176,0.0250214,2.35798,0.629664,
2,1,0,1,0,2184.92,0.625993,0.625688,0.0657086,3,1.62499,10,4.11131e-05,-4.18238,0.018413,3.20426,0.625659,
2,1,0,1,0,2185.72,0.621998,0.621707,0.0378239,3,1.62502,10,2.35154e-05,-4.42223,0.0139345,4.23409,0.62169,
2,1,0,0,0,2186.51,0.618003,0.617766,0.0139698,3,1.62503,10,8.63008e-06,-4.85481,0.00338281,17.4411,0.61776,
2,0,0,1,0,2187.31,0.614008,0.613741,-0.00479165,3,1.62502,10,-2.94084e-06,-5.31951,-0.0046182,-12.7755,0.613743,
2,0,0,1,0,2188.11,0.610012,0.609731,-0.0220582,3,1.62499,10,-1.34496e-05,-4.65643,-0.0111553,-5.28895,0.609741,
2,0,0,1,0,2188.91,0.606017,0.605718,-0.0350747,3,1.62496,10,-2.12454e-05,-4.45501,-0.0251055,-2.35008,0.605733,
2,0,0,1,0,2189.71,0.602022,0.601723,-0.0465939,3,1.62491,10,-2.80366e-05,-4.33167,-0.0477261,-1.23622,0.601743,
2,0,0,0,0,2190.51,0.598027,0.597728,-0.0556536,3,1.62486,10,-3.32657e-05,-4.25451,-0.0548609,-1.07545,0.597752,
2,0,0,1,0,2191.31,0.594032,0.59376,-0.0643784,3,1.6248,10,-3.82253e-05,-4.19126,-0.0806565,-0.731497,0.593788,
2,0,0,0,0,2192.11,0.590037,0.589767,-0.0708801,3,1.62473,10,-4.18028e-05,-4.14948,-0.0899136,-0.656186,0.589799,
2,0,0,1,0,2192.91,0.586041,0.585719,-0.0766255,3,1.62465,10,-4.4881e-05,-4.11563,-0.127111,-0.46416,0.585752,
2,0,0,1,0,2193.71,0.582046,0.581758,-0.0814183,3,1.62458,10,-4.73658e-05,-4.08928,-0.152803,-0.386117,0.581794,
2,0,0,1,0,2194.5,0.578052,0.57778,-0.0857762,3,1.6245,10,-4.95598e-05,-4.06663,-0.243979,-0.241824,0.577818,
2,0,0,1,0,2195.3,0.574056,0.573817,-0.0895797,3,1.62441,10,-5.14024e-05,-4.04779,-0.224345,-0.262988,0.573856,
2,0,0,0,0,2196.1,0.570061,0.569813,-0.0937272,3,1.62432,10,-5.34069e-05,-4.02813,-0.388762,-0.151764,0.569854,
2,0,0,1,0,2196.9,0.566065,0.565783,-0.0965725,3,1.62423,10,-5.46391e-05,-4.01515,-0.217212,-0.271624,0.565825,
2,0,0,1,0,2197.7,0.56207,0.561733,-0.0997477,3,1.62414,10,-5.60316e-05,-4.0011,-0.354065,-0.166636,0.561777,
2,0,0,1,0,2198.5,0.558075,0.55781,-0.101303,3,1.62405,10,-5.65079e-05,-3.99438,-0.825658,-0.0714582,0.557855,
2,0,0,1,0,2199.3,0.55408,0.553797,-0.102511,3,1.62395,10,-5.67701e-05,-3.98923,-0.202826,-0.29089,0.553842,
2,0,0,0,0,2200.1,0.550085,0.54981,-0.104878,3,1.62386,10,-5.76632e-05,-3.97931,1.78635,0.0330283,0.549856,
2,0,0,1,0,2200.9,0.54609,0.545821,-0.10579,3,1.62376,10,-5.77422e-05,-3.97556,-1.05287,-0.0560375,0.545868,
2,0,0,1,0,2201.7,0.542094,0.541812,-0.107998,3,1.62366,10,-5.85146e-05,-3.96658,-0.407186,-0.144897,0.54186,
2,0,0,1,0,2202.49,0.538099,0.537817,-0.109121,3,1.62356,10,-5.8687e-05,-3.96209,-1.55805,-0.0378678,0.537865,
2,0,0,1,0,2203.29,0.534104,0.533865,-0.110681,3,1.62346,10,-5.90888e-05,-3.95593,-0.812313,-0.0726321,0.533914,
2,0,0,0,0,2204.09,0.530109,0.529799,-0.111555,3,1.62335,10,-5.91019e-05,-3.95251,-0.818197,-0.0721097,0.529848,
2,0,0,1,0,2204.89,0.526114,0.525808,-0.112428,3,1.62325,10,-5.91157e-05,-3.94912,-0.538762,-0.10951,0.525858,
2,0,0,0,0,2205.69,0.522119,0.521824,-0.114756,3,1.62315,10,-5.98824e-05,-3.94022,-1.78412,-0.0330696,0.521875,
2,0,0,1,0,2206.49,0.518123,0.517831,-0.116029,3,1.62304,10,-6.00835e-05,-3.93543,-1.82111,-0.0323979,0.517882,
2,0,0,1,0,2207.29,0.514128,0.51386,-0.115742,3,1.62293,10,-5.94752e-05,-3.93651,-1.07667,-0.0547985,0.513911,
2,0,0,1,0,2208.09,0.510133,0.509861,-0.117018,3,1.62283,10,-5.96631e-05,-3.93175,-0.456131,-0.129349,0.509912,
2,0,0,1,0,2208.89,0.506138,0.505828,-0.118631,3,1.62272,10,-6.00069e-05,-3.9258,2.58585,0.0228165,0.50588,
2,0,0,0,0,2209.69,0.502143,0.501862,-0.118933,3,1.62261,10,-5.96879e-05,-3.9247,-1.48163,-0.0398211,0.501914,
2,0,0,1,0,2210.49,0.498148,0.497862,-0.120275,3,1.6225,10,-5.98803e-05,-3.91983,-0.562749,-0.104842,0.497915,
2,0,0,1,0,2211.28,0.494152,0.493874,-0.119794,3,1.62239,10,-5.91629e-05,-3.92157,-1.17501,-0.0502121,0.493927,
2,0,0,1,0,2212.08,0.490157,0.489879,-0.122985,3,1.62228,10,-6.02476e-05,-3.91015,-0.617589,-0.0955328,0.489934,
2,0,0,1,0,2212.88,0.486162,0.48587,-0.123854,3,1.62217,10,-6.01769e-05,-3.90709,-1.36873,-0.0431057,0.485925,
2,0,0,0,0,2213.68,0.482167,0.481851,-0.125881,3,1.62205,10,-6.06557e-05,-3.90004,-0.790483,-0.0746379,0.481906,
2,0,0,1,0,2214.48,0.478172,0.477852,-0.125193,3,1.62194,10,-5.98238e-05,-3.90242,-1.60581,-0.0367415,0.477907,
2,0,0,0,0,2215.28,0.474177,0.473875,-0.127931,3,1.62182,10,-6.06232e-05,-3.89302,-0.919669,-0.0641535,0.473931,
2,0,0,1,0,2216.08,0.470181,0.46991,-0.129744,3,1.62171,10,-6.0968e-05,-3.88691,-0.780009,-0.0756401,0.469968,
2,0,0,1,0,2216.88,0.466186,0.465871,-0.130001,3,1.62159,10,-6.05637e-05,-3.88605,-0.627644,-0.0940024,0.465928,
2,0,0,1,0,2217.68,0.462191,0.46191,-0.132208,3,1.62147,10,-6.10682e-05,-3.87874,-0.878646,-0.0671488,0.461969,
2,0,0,1,0,2218.48,0.458196,0.457929,-0.132556,3,1.62135,10,-6.07013e-05,-3.8776,-0.524108,-0.112572,0.457988,
2,0,0,0,0,2219.27,0.454201,0.453933,-0.135486,3,1.62123,10,-6.15015e-05,-3.86811,11.8253,0.0049893,0.453992,
2,0,0,1,0,2220.07,0.450205,0.449906,-0.136171,3,1.62111,10,-6.12641e-05,-3.86592,-0.721801,-0.0817399,0.449966,
2,0,0,1,0,2220.87,0.44621,0.445889,-0.137251,3,1.62098,10,-6.11986e-05,-3.86249,-0.66144,-0.0891993,0.44595,
2,0,0,1,0,2221.67,0.442215,0.441909,-0.137903,3,1.62086,10,-6.09407e-05,-3.86043,-2.11507,-0.0278951,0.44197,
2,0,0,1,0,2222.47,0.43822,0.437931,-0.141123,3,1.62073,10,-6.18023e-05,-3.8504,-0.451874,-0.130567,0.437993,
2,0,0,0,0,2223.27,0.434225,0.433956,-0.142392,3,1.62061,10,-6.1792e-05,-3.84651,-1.70778,-0.0345477,0.434018,
2,0,0,1,0,2224.07,0.43023,0.429948,-0.143722,3,1.62048,10,-6.1793e-05,-3.84248,-0.621512,-0.0949298,0.430012,
2,0,0,1,0,2224.87,0.426234,0.425936,-0.146104,3,1.62035,10,-6.22311e-05,-3.83534,-0.543242,-0.108607,0.426001,
2,0,0,1,0,2225.67,0.422239,0.421936,-0.148151,3,1.62022,10,-6.25101e-05,-3.8293,-2.61219,-0.0225864,0.422001,
2,0,0,1,0,2226.47,0.418244,0.417996,-0.149878,3,1.62008,10,-6.26484e-05,-3.82426,-0.492837,-0.119715,0.418062,
2,0,0,0,0,2227.26,0.414249,0.413921,-0.150709,3,1.61995,10,-6.23819e-05,-3.82186,-1.53736,-0.0383774,0.413988,
2,0,0,1,0,2228.06,0.410254,0.409979,-0.15375,3,1.61981,10,-6.30341e-05,-3.81319,-1.64312,-0.0359072,0.410046,
2,0,0,0,0,2228.86,0.406259,0.405977,-0.156315,3,1.61968,10,-6.34603e-05,-3.806,-0.43126,-0.136808,0.406046,
2,0,0,1,0,2229.66,0.402263,0.401962,-0.156323,3,1.61954,10,-6.28358e-05,-3.80598,-0.756778,-0.0779621,0.402031,
2,0,0,1,0,2230.46,0.398268,0.397933,-0.159999,3,1.6194,10,-6.36687e-05,-3.79588,-0.602716,-0.0978902,0.398003,
2,0,0,1,0,2231.26,0.394273,0.394002,-0.161531,3,1.61925,10,-6.36436e-05,-3.79174,-0.800907,-0.0736665,0.394073,
2,0,0,1,0,2232.06,0.390278,0.39005,-0.163485,3,1.61911,10,-6.37671e-05,-3.78652,-0.44762,-0.131808,0.390121,
2,0,0,0,0,2232.86,0.386283,0.385956,-0.165853,3,1.61896,10,-6.40122e-05,-3.78028,-1.74996,-0.0337151,0.386029,
2,0,0,1,0,2233.66,0.382287,0.381986,-0.167723,3,1.61881,10,-6.40679e-05,-3.77541,-0.571904,-0.103164,0.382059,
2,0,0,1,0,2234.46,0.378292,0.377968,-0.170462,3,1.61867,10,-6.44292e-05,-3.76837,-2.18006,-0.0270634,0.378043,
2,0,0,1,0,2235.26,0.374297,0.374017,-0.172652,3,1.61851,10,-6.45748e-05,-3.76283,-0.523283,-0.11275,0.374093,
2,0,0,1,0,2236.05,0.370302,0.370023,-0.174352,3,1.61836,10,-6.45141e-05,-3.75857,-0.434379,-0.135826,0.3701,
2,0,0,0,0,2236.85,0.366307,0.366037,-0.176211,3,1.61821,10,-6.44997e-05,-3.75397,-1.02426,-0.0576026,0.366114,
2,0,0,1,0,2237.65,0.362312,0.362054,-0.178707,3,1.61805,10,-6.47014e-05,-3.74786,-0.745707,-0.0791195,0.362132,
2,0,0,1,0,2238.45,0.358316,0.357996,-0.180617,3,1.61789,10,-6.46601e-05,-3.74324,-0.982364,-0.0600592,0.358076,
2,0,0,1,0,2239.25,0.354321,0.354066,-0.183001,3,1.61773,10,-6.47943e-05,-3.73755,-0.595298,-0.0991101,0.354146,
2,0,0,1,0,2240.05,0.350327,0.350032,-0.184796,3,1.61757,10,-6.46847e-05,-3.73331,-0.725635,-0.0813081,0.350113,
2,0,0,0,0,2240.85,0.346331,0.346034,-0.188515,3,1.6174,10,-6.52327e-05,-3.72465,-1.45796,-0.0404674,0.346117,
2,0,0,1,0,2241.65,0.342336,0.342037,-0.191203,3,1.61724,10,-6.53988e-05,-3.7185,-0.535047,-0.110271,0.342122,
2,0,0,0,0,2242.45,0.338341,0.338047,-0.19206,3,1.61707,10,-6.49253e-05,-3.71656,-0.972362,-0.060677,0.338132,
2,0,0,1,0,2243.25,0.334345,0.334053,-0.194976,3,1.6169,10,-6.51324e-05,-3.71002,-0.536142,-0.110045,0.334139,
2,0,0,1,0,2244.04,0.33035,0.33005,-0.197174,3,1.61672,10,-6.50772e-05,-3.70515,-1.1063,-0.0533307,0.330136,
2,0,0,1,0,2244.84,0.326355,0.326035,-0.199265,3,1.61655,10,-6.49673e-05,-3.70057,-0.47914,-0.123137,0.326123,
2,0,0,1,0,2245.64,0.32236,0.322083,-0.203106,3,1.61637,10,-6.54168e-05,-3.69228,-2.24679,-0.0262597,0.322172,
2,0,0,0,0,2246.44,0.318365,0.318062,-0.204928,3,1.6162,10,-6.51798e-05,-3.6884,-0.57102,-0.103324,0.318152,
2,0,0,1,0,2247.24,0.31437,0.314072,-0.20783,3,1.61602,10,-6.52735e-05,-3.68229,-5.30065,-0.0111307,0.314164,
2,0,0,1,0,2248.04,0.310374,0.310062,-0.20997,3,1.61583,10,-6.51037e-05,-3.67784,-0.571051,-0.103318,0.310154,
2,0,0,1,0,2248.84,0.306379,0.306091,-0.212761,3,1.61565,10,-6.51243e-05,-3.67211,-0.511187,-0.115418,0.306185,
2,0,0,1,0,2249.64,0.302385,0.3021,-0.215708,3,1.61546,10,-6.51654e-05,-3.66613,-1.24709,-0.0473102,0.302195,
2,0,0,0,0,2250.44,0.298389,0.298113,-0.217531,3,1.61527,10,-6.48489e-05,-3.66248,-0.479786,-0.122971,0.298209,
2,0,0,1,0,2251.24,0.294394,0.294104,-0.219982,3,1.61508,10,-6.46977e-05,-3.65761,-1.14228,-0.0516512,0.294201,
2,0,0,1,0,2252.04,0.290398,0.290102,-0.222985,3,1.61489,10,-6.46883e-05,-3.65172,-0.679403,-0.0868409,0.2902,
2,0,0,1,0,2252.83,0.286403,0.286092,-0.225045,3,1.6147,10,-6.43835e-05,-3.64773,-0.740583,-0.079667,0.286191,
2,0,0,1,0,2253.63,0.282408,0.282116,-0.228444,3,1.6145,10,-6.44478e-05,-3.64122,-1.03162,-0.0571917,0.282217,
2,0,0,1,0,2254.43,0.278413,0.278123,-0.232039,3,1.6143,10,-6.45354e-05,-3.63444,-0.665734,-0.088624,0.278225,
2,0,0,1,0,2255.23,0.274418,0.274126,-0.235135,3,1.6141,10,-6.44567e-05,-3.62868,-0.941354,-0.0626757,0.274229,
2,0,0,0,0,2256.03,0.270423,0.270135,-0.237522,3,1.61389,10,-6.41629e-05,-3.6243,-0.767999,-0.076823,0.270239,
2,0,0,1,0,2256.83,0.266427,0.26613,-0.239036,3,1.61369,10,-6.36146e-05,-3.62154,-0.641277,-0.0920039,0.266235,
2,0,0,1,0,2257.63,0.262432,0.262108,-0.242828,3,1.61348,10,-6.36473e-05,-3.6147,-0.90477,-0.0652099,0.262215,
2,0,0,1,0,2258.43,0.258437,0.258113,-0.244486,3,1.61327,10,-6.3105e-05,-3.61175,-1.13405,-0.0520261,0.25822,
2,0,0,1,0,2259.23,0.254442,0.254155,-0.245421,3,1.61306,10,-6.2375e-05,-3.61009,-1.0817,-0.054544,0.254263,
2,0,0,0,0,2260.03,0.250447,0.250125,-0.248657,3,1.61285,10,-6.21952e-05,-3.6044,-6.92828,-0.00851583,0.250234,
2,0,0,1,0,2260.82,0.246452,0.246173,-0.251118,3,1.61263,10,-6.18185e-05,-3.60012,-0.445175,-0.132532,0.246283,
2,0,0,1,0,2261.62,0.242456,0.242139,-0.253948,3,1.61242,10,-6.14905e-05,-3.59526,-0.727893,-0.0810559,0.24225,
2,0,0,1,0,2262.42,0.238461,0.238194,-0.257053,3,1.6122,10,-6.12284e-05,-3.58998,-1.49909,-0.0393571,0.238307,
2,0,0,1,0,2263.22,0.234466,0.234116,-0.259627,3,1.61197,10,-6.07827e-05,-3.58565,-0.647148,-0.0911693,0.23423,
2,0,0,0,0,2264.02,0.230471,0.230169,-0.262081,3,1.61175,10,-6.0323e-05,-3.58156,-1.06552,-0.055372,0.230284,
2,0,0,1,0,2264.82,0.226476,0.226202,-0.266137,3,1.61152,10,-6.02008e-05,-3.57489,-1.35213,-0.0436348,0.226319,
2,0,0,0,0,2265.62,0.222481,0.222192,-0.267474,3,1.6113,10,-5.94307e-05,-3.57272,-0.802268,-0.0735415,0.22231,
2,0,0,1,0,2266.42,0.218485,0.218196,-0.272548,3,1.61106,10,-5.94688e-05,-3.56456,-0.999571,-0.0590253,0.218316,
2,0,0,1,0,2267.22,0.21449,0.214205,-0.273985,3,1.61083,10,-5.86888e-05,-3.56227,-0.451794,-0.13059,0.214325,
2,0,0,1,0,2268.02,0.210496,0.21019,-0.278257,3,1.61059,10,-5.84868e-05,-3.55555,-0.915588,-0.0644395,0.210313,
2,0,0,1,0,2268.81,0.2065,0.206163,-0.282077,3,1.61035,10,-5.81539e-05,-3.54963,-0.624705,-0.0944446,0.206287,
2,0,0,0,0,2269.61,0.202505,0.202189,-0.285606,3,1.61011,10,-5.77463e-05,-3.54423,-0.488945,-0.120668,0.202315,
2,0,0,1,0,2270.41,0.198509,0.198196,-0.291737,3,1.60987,10,-5.78212e-05,-3.53501,-0.741304,-0.0795895,0.198324,
2,0,0,1,0,2271.21,0.194514,0.194178,-0.295957,3,1.60962,10,-5.74682e-05,-3.52877,-0.458129,-0.128785,0.194308,
2,0,0,1,0,2272.01,0.190519,0.190223,-0.301795,3,1.60936,10,-5.74086e-05,-3.52029,-0.388415,-0.151899,0.190356,
2,0,0,1,0,2272.81,0.186524,0.186227,-0.308961,3,1.6091,10,-5.75367e-05,-3.5101,-0.494831,-0.119233,0.186363,
2,0,0,0,0,2273.61,0.182529,0.182269,-0.319445,3,1.60883,10,-5.8225e-05,-3.4956,-0.258448,-0.228285,0.18241,
2,0,0,1,0,2274.41,0.178534,0.178199,-0.32879,3,1.60856,10,-5.85901e-05,-3.48308,-0.256362,-0.230143,0.178344,
2,0,0,1,0,2275.21,0.174538,0.174209,-0.340856,3,1.60827,10,-5.938e-05,-3.46743,-0.233609,-0.252559,0.174359,
2,0,0,1,0,2276.01,0.170543,0.170228,-0.356881,3,1.60798,10,-6.07512e-05,-3.44748,-0.174049,-0.338986,0.170385,
2,0,0,1,0,2276.81,0.166549,0.16623,-0.376215,3,1.60767,10,-6.25382e-05,-3.42456,-0.162579,-0.362901,0.166395,
2,0,0,0,0,2277.6,0.162553,0.162247,-0.40129,3,1.60735,10,-6.51079e-05,-3.39654,-0.134585,-0.438383,0.162423,
2,0,0,1,0,2278.4,0.158558,0.158231,-0.430764,3,1.607,10,-6.81601e-05,-3.36576,-0.109804,-0.537323,0.15842,
2,0,0,0,0,2279.2,0.154563,0.154232,-0.478471,3,1.60662,10,-7.37956e-05,-3.32014,-0.0866524,-0.680881,0.154443,
2,0,0,1,0,2280,0.150567,0.150278,-0.533667,3,1.6062,10,-8.01982e-05,-3.27273,-0.0761676,-0.774608,0.150512,
2,0,0,1,0,2280.8,0.146572,0.14629,-0.602959,3,1.60573,10,-8.82068e-05,-3.21971,-0.0749317,-0.787384,0.146555,
2,0,0,1,0,2281.6,0.142578,0.142284,-0.678075,3,1.6052,10,-9.64791e-05,-3.16872,-0.0806106,-0.731913,0.142582,
2,0,0,1,0,2282.4,0.138582,0.138269,-0.747939,3,1.60461,10,-0.000103417,-3.12613,-0.110889,-0.532061,0.138598,
2,0,0,0,0,2283.2,0.134587,0.134293,-0.804709,3,1.60398,10,-0.000108067,-3.09436,-0.16492,-0.357749,0.134647,
2,0,0,1,0,2284,0.130591,0.130294,-0.839064,3,1.6033,10,-0.000109325,-3.07621,-0.284191,-0.207607,0.130663,
2,0,0,1,0,2284.8,0.126596,0.126271,-0.852026,3,1.60261,10,-0.000107587,-3.06955,-0.970605,-0.0607869,0.126646,
2,0,0,1,0,2285.59,0.122602,0.122301,-0.855841,3,1.60191,10,-0.00010467,-3.06761,0.948909,0.0621767,0.122678,
2,0,0,1,0,2286.39,0.118607,0.118311,-0.844519,3,1.60121,10,-9.99162e-05,-3.07339,0.593992,0.0993279,0.118683,
2,0,0,0,0,2287.19,0.114611,0.1143,-0.828384,3,1.60053,10,-9.46846e-05,-3.08177,0.432705,0.136352,0.114665,
2,0,0,1,0,2287.99,0.110616,0.110296,-0.809067,3,1.59986,10,-8.92371e-05,-3.09202,0.369897,0.159504,0.110652,
2,0,0,1,0,2288.79,0.10662,0.10628,-0.787692,3,1.5992,10,-8.37161e-05,-3.10364,0.335705,0.175749,0.106627,
2,0,0,1,0,2289.59,0.102625,0.102354,-0.765524,3,1.59857,10,-7.83543e-05,-3.11604,0.284855,0.207123,0.102691,
2,0,0,1,0,2290.39,0.0986305,0.0983703,-0.741212,3,1.59795,10,-7.29132e-05,-3.13006,0.323538,0.182359,0.0986964,
2,0,0,0,0,2291.19,0.0946351,0.0943297,-0.716589,3,1.59735,10,-6.75957e-05,-3.14473,0.301131,0.195928,0.094645,
2,0,0,1,0,2291.99,0.0906399,0.0902938,-0.699824,3,1.59677,10,-6.31898e-05,-3.15501,0.324609,0.181757,0.0906018,
2,0,0,0,0,2292.79,0.0866447,0.0863459,-0.685362,3,1.5962,10,-5.91782e-05,-3.16408,0.549623,0.107346,0.0866475,
2,0,0,1,0,2293.58,0.0826492,0.0823329,-0.672815,3,1.59564,10,-5.53948e-05,-3.1721,0.571762,0.10319,0.082629,
2,0,0,1,0,2294.38,0.0786544,0.0783198,-0.662888,3,1.59509,10,-5.19172e-05,-3.17856,0.54491,0.108275,0.0786114,
2,0,0,1,0,2295.18,0.0746596,0.0743754,-0.651583,3,1.59455,10,-4.84618e-05,-3.18603,0.604656,0.0975762,0.0746621,
2,0,0,1,0,2295.98,0.0706641,0.0703592,-0.640542,3,1.59402,10,-4.50681e-05,-3.19345,0.512015,0.115231,0.0706411,
2,0,0,0,0,2296.78,0.0666689,0.066371,-0.630538,3,1.5935,10,-4.18495e-05,-3.20029,0.49074,0.120227,0.0666485,
2,0,0,1,0,2297.58,0.0626737,0.0623638,-0.614837,3,1.59298,10,-3.83435e-05,-3.21124,0.531955,0.110912,0.0626343,
2,0,0,1,0,2298.38,0.0586783,0.0583669,-0.604418,3,1.59248,10,-3.5278e-05,-3.21866,0.351247,0.167973,0.0586328,
2,0,0,1,0,2299.18,0.0546835,0.0543664,-0.590259,3,1.59198,10,-3.20903e-05,-3.22896,0.48166,0.122493,0.0546261,
2,0,0,1,0,2299.98,0.0506886,0.0503709,-0.576545,3,1.5915,10,-2.90411e-05,-3.23917,0.342307,0.17236,0.0506245,
2,0,0,0,0,2300.78,0.046693,0.0464025,-0.561362,3,1.59103,10,-2.60486e-05,-3.25076,0.402918,0.146432,0.0466495,
2,0,0,1,0,2301.58,0.0426979,0.0423868,-0.548272,3,1.59057,10,-2.32395e-05,-3.261,0.341101,0.172969,0.042628,
2,0,0,1,0,2302.37,0.0387022,0.0383972,-0.535273,3,1.59012,10,-2.0553e-05,-3.27142,0.390351,0.151146,0.0386327,
2,0,0,1,0,2303.17,0.0347074,0.0344293,-0.523946,3,1.58968,10,-1.80391e-05,-3.28071,0.422982,0.139486,0.0346599,
2,0,0,1,0,2303.97,0.0307126,0.0304435,-0.511465,3,1.58925,10,-1.55708e-05,-3.29118,0.584956,0.100862,0.0306686,
2,0,0,0,0,2304.77,0.0267172,0.0264818,-0.505125,3,1.58883,10,-1.33766e-05,-3.2966,0.463642,0.127253,0.026704,
2,0,0,1,0,2305.57,0.022722,0.0224289,-0.497526,3,1.58842,10,-1.1159e-05,-3.30318,1.43872,0.0410087,0.0226478,
2,0,0,0,0,2306.37,0.0187268,0.0184163,-0.49307,3,1.58801,10,-9.08052e-06,-3.30709,0.621956,0.0948621,0.0186332,
2,0,0,1,0,2307.17,0.0147313,0.0144023,-0.490534,3,1.5876,10,-7.06484e-06,-3.30933,10.0416,0.00587554,0.0146182,
2,0,0,1,0,2307.97,0.0107365,0.0104518,-0.488567,3,1.58719,10,-5.10638e-06,-3.31108,-4.99488,-0.0118121,0.0106667,
2,0,0,1,0,2308.77,0.00674162,0.00644047,-0.488874,3,1.58679,10,-3.14858e-06,-3.3108,-4.34708,-0.0135723,0.00665558,
2,0,0,1,0,2309.57,0.00274612,0.00246567,-0.490679,3,1.58638,10,-1.20985e-06,-3.3092,-1.13774,-0.0518574,0.00268156,
2,0,0,0,0,2310.06,0.000274105,-0.00011417,-0.493881,3,1.58612,10,5.63864e-08,-3.30638, , ,0.000103138,