File: Figure_codes/Fig_3-5/workspace_calculate_alpha_eff/20221101_1-115_003_TrumpetPlot_ParaChange_from10_every3_16_CV_C01_54.csv
mode,ox/red,error,control changes,counter inc.,time/s,control/V,Ewe/V,<I>/mA,cycle number,(Q-Qo)/C,I Range,P/W,log(|I|),Tafel slope mV/dec,alpha_eff,E-IR/V,
2,0,0,1,0,36692.5,2.44065e-05,-0.000382585,-0.0427872,55,0.0000000E+000,10,1.63698e-08,-4.36869, , ,-0.000363759,
2,1,0,1,0,36693.2,0.00379485,0.00351547,0.204925,55,0.000133169,10,7.20408e-07,-3.6884,0.0458929,1.2856,0.0034253,
2,1,0,0,0,36694,0.00779002,0.00742307,0.226574,55,0.00031691,10,1.68187e-06,-3.64479,0.0981087,0.601374,0.00732337,
2,1,0,1,0,36694.8,0.0117852,0.0114844,0.2426,55,0.000516567,10,2.78612e-06,-3.61511,0.151945,0.388299,0.0113777,
2,1,0,1,0,36695.6,0.0157806,0.0154856,0.258288,55,0.000728374,10,3.99976e-06,-3.5879,0.171104,0.34482,0.015372,
2,1,0,1,0,36696.4,0.0197754,0.0194608,0.272067,55,0.000951359,10,5.29464e-06,-3.56532,0.176452,0.334369,0.0193411,
2,1,0,1,0,36697.2,0.0237704,0.0234519,0.285889,55,0.0011857,10,6.70466e-06,-3.5438,0.196696,0.299956,0.0233261,
2,1,0,0,0,36698,0.0277659,0.0274329,0.300713,55,0.00143053,10,8.24943e-06,-3.52185,0.188123,0.313625,0.0273006,
2,1,0,1,0,36698.8,0.0317611,0.0314084,0.312762,55,0.00168663,10,9.82335e-06,-3.50479,0.21352,0.27632,0.0312708,
2,1,0,1,0,36699.6,0.0357567,0.0354015,0.328849,55,0.00195402,10,1.16417e-05,-3.483,0.253465,0.232774,0.0352568,
2,1,0,1,0,36700.4,0.0397516,0.039424,0.341719,55,0.00223205,10,1.34719e-05,-3.46633,0.194683,0.303057,0.0392736,
2,1,0,1,0,36701.2,0.0437465,0.043446,0.354447,55,0.00252133,10,1.53993e-05,-3.45045,0.268098,0.220069,0.0432901,
2,1,0,1,0,36702,0.0477413,0.0473841,0.367716,55,0.00282066,10,1.74239e-05,-3.43449,0.257442,0.229178,0.0472223,
2,1,0,1,0,36702.8,0.0517369,0.0514077,0.37922,55,0.00313026,10,1.94948e-05,-3.42111,0.248112,0.237795,0.0512408,
2,1,0,0,0,36703.6,0.0557321,0.055416,0.39226,55,0.0034504,10,2.17375e-05,-3.40643,0.388326,0.151934,0.0552434,
2,1,0,1,0,36704.4,0.0597277,0.0593803,0.403176,55,0.00377916,10,2.39407e-05,-3.39451,0.344511,0.171257,0.0592029,
2,1,0,1,0,36705.2,0.0637226,0.0633892,0.412504,55,0.00411633,10,2.61483e-05,-3.38457,0.379508,0.155464,0.0632077,
2,1,0,1,0,36706,0.0677174,0.0673866,0.42239,55,0.00446149,10,2.84634e-05,-3.37429,0.601739,0.0980491,0.0672008,
2,1,0,1,0,36706.8,0.0717128,0.0713868,0.429684,55,0.00481313,10,3.06738e-05,-3.36685,0.421978,0.139818,0.0711977,
2,1,0,0,0,36707.6,0.075708,0.0754004,0.436263,55,0.00517112,10,3.28944e-05,-3.36025,0.585452,0.100777,0.0752085,
2,1,0,1,0,36708.4,0.0797031,0.079431,0.444334,55,0.0055346,10,3.52939e-05,-3.35229,0.49593,0.118968,0.0792355,
2,1,0,1,0,36709.2,0.0836986,0.0833921,0.452231,55,0.00590403,10,3.77125e-05,-3.34464,0.563962,0.104617,0.0831931,
2,1,0,1,0,36710,0.0876935,0.0873543,0.462309,55,0.00628087,10,4.03846e-05,-3.33507,0.371909,0.158641,0.0871508,
2,1,0,1,0,36710.8,0.0916883,0.091355,0.47582,55,0.00666649,10,4.34686e-05,-3.32256,0.277503,0.21261,0.0911457,
2,1,0,0,0,36711.6,0.0956838,0.0953382,0.490768,55,0.00706454,10,4.6789e-05,-3.30912,0.237867,0.248038,0.0951222,
2,1,0,1,0,36712.4,0.099679,0.0993508,0.512418,55,0.00747738,10,5.09092e-05,-3.29038,0.2439,0.241902,0.0991253,
2,1,0,0,0,36713.2,0.103674,0.103343,0.534533,55,0.00790685,10,5.52403e-05,-3.27203,0.200526,0.294226,0.103108,
2,1,0,1,0,36714,0.10767,0.107362,0.554436,55,0.00835451,10,5.95256e-05,-3.25615,0.258217,0.22849,0.107118,
2,1,0,1,0,36714.8,0.111664,0.111348,0.574829,55,0.00881738,10,6.40061e-05,-3.24046,0.311888,0.18917,0.111095,
2,1,0,1,0,36715.6,0.115659,0.115299,0.589433,55,0.00929366,10,6.79608e-05,-3.22957,0.361309,0.163295,0.115039,
2,1,0,1,0,36716.4,0.119655,0.11938,0.601021,55,0.00978186,10,7.17497e-05,-3.22111,0.59897,0.0985024,0.119115,
2,1,0,0,0,36717.2,0.12365,0.123369,0.613123,55,0.0102787,10,7.56404e-05,-3.21245,0.479753,0.12298,0.123099,
2,1,0,1,0,36718,0.127646,0.127316,0.622086,55,0.0107848,10,7.92017e-05,-3.20615,0.879657,0.0670716,0.127043,
2,1,0,1,0,36718.8,0.131641,0.131258,0.626955,55,0.0112964,10,8.22932e-05,-3.20276,-1.24527,-0.0473795,0.130983,
2,1,0,1,0,36719.6,0.135635,0.135277,0.616201,55,0.0118055,10,8.33579e-05,-3.21028,-0.354483,-0.16644,0.135006,
2,1,0,1,0,36720.4,0.139631,0.139311,0.582562,55,0.0122986,10,8.11573e-05,-3.23466,-0.124802,-0.472751,0.139055,
2,1,0,0,0,36721.2,0.143626,0.143316,0.537314,55,0.0127586,10,7.70058e-05,-3.26977,-0.0884563,-0.666996,0.14308,
2,1,0,1,0,36722,0.147621,0.147329,0.476424,55,0.0131743,10,7.0191e-05,-3.32201,-0.0759101,-0.777235,0.147119,
2,1,0,1,0,36722.8,0.151617,0.151269,0.42387,55,0.0135439,10,6.41182e-05,-3.37277,-0.0842843,-0.700012,0.151082,
2,1,0,1,0,36723.6,0.155612,0.155287,0.384557,55,0.0138764,10,5.9717e-05,-3.41504,-0.115607,-0.51035,0.155118,
2,1,0,1,0,36724.4,0.159606,0.159299,0.358292,55,0.0141838,10,5.70756e-05,-3.44576,-0.163511,-0.360831,0.159142,
2,1,0,0,0,36725.2,0.163602,0.163269,0.342426,55,0.0144748,10,5.59075e-05,-3.46543,-0.204847,-0.28802,0.163118,
2,1,0,1,0,36726,0.167597,0.167294,0.331628,55,0.0147543,10,5.54794e-05,-3.47935,-0.396591,-0.148768,0.167148,
2,1,0,0,0,36726.8,0.171592,0.17129,0.322185,55,0.0150266,10,5.51871e-05,-3.49189,-0.367158,-0.160694,0.171148,
2,1,0,1,0,36727.6,0.175588,0.175221,0.317419,55,0.0152929,10,5.56185e-05,-3.49837,-0.660522,-0.0893232,0.175081,
2,1,0,1,0,36728.4,0.179582,0.179298,0.31225,55,0.0155548,10,5.59857e-05,-3.5055,-0.712694,-0.0827845,0.179161,
2,1,0,1,0,36729.2,0.183577,0.183237,0.308413,55,0.0158137,10,5.65127e-05,-3.51087,-0.655311,-0.0900337,0.183101,
2,1,0,1,0,36730,0.187573,0.187261,0.305692,55,0.0160694,10,5.72441e-05,-3.51472,-1.66877,-0.0353553,0.187126,
2,1,0,0,0,36730.8,0.191568,0.191246,0.302672,55,0.016323,10,5.78847e-05,-3.51903,-1.05291,-0.0560351,0.191112,
2,1,0,1,0,36731.6,0.195563,0.19525,0.300947,55,0.0165748,10,5.87598e-05,-3.52151,-0.87322,-0.067566,0.195117,
2,1,0,1,0,36732.4,0.199559,0.199238,0.298439,55,0.0168246,10,5.94604e-05,-3.52514,-3.25302,-0.018137,0.199107,
2,1,0,1,0,36733.2,0.203553,0.2032,0.295809,55,0.0170731,10,6.01085e-05,-3.52899,-1.6362,-0.0360592,0.20307,
2,1,0,1,0,36734,0.207548,0.207245,0.295886,55,0.0173204,10,6.13207e-05,-3.52888,-1.24023,-0.0475717,0.207114,
2,1,0,0,0,36734.8,0.211544,0.211252,0.292646,55,0.017566,10,6.18221e-05,-3.53366,-5.24842,-0.0112415,0.211124,
2,1,0,1,0,36735.6,0.215539,0.215246,0.291978,55,0.0178105,10,6.28469e-05,-3.53465,-0.964949,-0.0611431,0.215117,
2,1,0,1,0,36736.4,0.219535,0.219199,0.291069,55,0.0180539,10,6.3802e-05,-3.536,-5.83707,-0.0101078,0.219071,
2,1,0,1,0,36737.2,0.223529,0.223254,0.289242,55,0.0182961,10,6.45746e-05,-3.53874,-3.75411,-0.0157161,0.223127,
2,1,0,1,0,36738,0.227524,0.227195,0.28798,55,0.0185376,10,6.54278e-05,-3.54064,-0.77984,-0.0756565,0.227068,
2,1,0,0,0,36738.8,0.23152,0.231205,0.286426,55,0.0187776,10,6.6223e-05,-3.54299,-7.28951,-0.00809382,0.231079,
2,1,0,1,0,36739.6,0.235515,0.235206,0.285025,55,0.019017,10,6.70396e-05,-3.54512,787.633,7.4908e-05,0.23508,
2,1,0,0,0,36740.4,0.23951,0.239193,0.284673,55,0.0192555,10,6.80919e-05,-3.54565,-6.88428,-0.00857025,0.239068,
2,1,0,1,0,36741.2,0.243506,0.243208,0.284145,55,0.0194932,10,6.91063e-05,-3.54646,-2.93003,-0.0201363,0.243083,
2,1,0,1,0,36742,0.2475,0.247145,0.283517,55,0.0197305,10,7.00698e-05,-3.54742,-2.82948,-0.0208519,0.24702,
2,1,0,1,0,36742.8,0.251495,0.251172,0.281843,55,0.0199667,10,7.07909e-05,-3.54999,-1.31723,-0.0447909,0.251048,
2,1,0,1,0,36743.6,0.255491,0.255202,0.281203,55,0.020202,10,7.17636e-05,-3.55098,-3.76542,-0.0156689,0.255078,
2,1,0,0,0,36744.4,0.259486,0.259214,0.280553,55,0.0204368,10,7.27233e-05,-3.55199,-1.50004,-0.0393322,0.259091,
2,1,0,1,0,36745.2,0.263481,0.263163,0.280124,55,0.0206708,10,7.37183e-05,-3.55265,9.09312,0.00648843,0.26304,
2,1,0,1,0,36746,0.267477,0.267148,0.278796,55,0.0209045,10,7.44798e-05,-3.55471,78.4018,0.000752534,0.267025,
2,1,0,1,0,36746.8,0.271471,0.271164,0.278426,55,0.0211374,10,7.54992e-05,-3.55529,-1.19654,-0.0493088,0.271041,
2,1,0,1,0,36747.6,0.275466,0.275156,0.27795,55,0.0213695,10,7.64796e-05,-3.55603,7.66325,0.00769909,0.275034,
2,1,0,0,0,36748.4,0.279462,0.279127,0.277056,55,0.0216011,10,7.73337e-05,-3.55743,-1.21065,-0.0487341,0.279005,
2,1,0,1,0,36749.2,0.283457,0.283131,0.276094,55,0.0218316,10,7.81708e-05,-3.55894,-2.77232,-0.0212818,0.283009,
2,1,0,0,0,36750,0.287452,0.287122,0.274864,55,0.0220615,10,7.89197e-05,-3.56088,-4.82785,-0.0122208,0.287001,
2,1,0,1,0,36750.7,0.291448,0.291134,0.274228,55,0.0222906,10,7.9837e-05,-3.56189,-1.0358,-0.0569609,0.291013,
2,1,0,1,0,36751.5,0.295442,0.295179,0.272657,55,0.0225189,10,8.04827e-05,-3.56438,2.08224,0.0283349,0.295059,
2,1,0,1,0,36752.3,0.299437,0.299168,0.270394,55,0.0227469,10,8.08932e-05,-3.568,-3.06407,-0.0192554,0.299049,
2,1,0,1,0,36753.1,0.303433,0.303162,0.270713,55,0.0229738,10,8.20699e-05,-3.56749,-1.71586,-0.0343851,0.303043,
2,1,0,0,0,36753.9,0.307428,0.307076,0.270536,55,0.0231998,10,8.30752e-05,-3.56777,-25.1366,-0.00234718,0.306957,
2,1,0,1,0,36754.7,0.311424,0.311126,0.269613,55,0.0234256,10,8.38837e-05,-3.56926,-3.2463,-0.0181745,0.311008,
2,1,0,1,0,36755.5,0.315418,0.315064,0.268335,55,0.0236504,10,8.45428e-05,-3.57132,-2.3891,-0.0246955,0.314946,
2,1,0,1,0,36756.3,0.319413,0.319119,0.267007,55,0.0238747,10,8.52071e-05,-3.57348,-2.53905,-0.023237,0.319001,
2,1,0,1,0,36757.1,0.323409,0.323092,0.268344,55,0.0240986,10,8.67e-05,-3.57131,-2.1969,-0.0268561,0.322974,
2,1,0,0,0,36757.9,0.327404,0.327126,0.267906,55,0.0243219,10,8.76389e-05,-3.57202,13.4516,0.00438609,0.327008,
2,1,0,1,0,36758.7,0.331399,0.331114,0.265486,55,0.0245447,10,8.79062e-05,-3.57596,-4.46904,-0.0132019,0.330997,
2,1,0,1,0,36759.5,0.335395,0.335125,0.265661,55,0.024767,10,8.90295e-05,-3.57567,-2.37563,-0.0248355,0.335008,
2,1,0,1,0,36760.3,0.339389,0.339055,0.265603,55,0.0249886,10,9.00539e-05,-3.57577,-43.7497,-0.00134858,0.338938,
2,1,0,1,0,36761.1,0.343384,0.343083,0.264649,55,0.0252098,10,9.07964e-05,-3.57733,-2.98405,-0.0197718,0.342966,
2,1,0,0,0,36761.9,0.34738,0.347036,0.263976,55,0.0254302,10,9.16092e-05,-3.57844,97.702,0.000603877,0.34692,
2,1,0,1,0,36762.7,0.351375,0.351082,0.26384,55,0.0256505,10,9.26296e-05,-3.57866,-5.11574,-0.011533,0.350966,
2,1,0,0,0,36763.5,0.35537,0.355072,0.263388,55,0.0258705,10,9.35217e-05,-3.5794,-1.19619,-0.0493233,0.354956,
2,1,0,1,0,36764.3,0.359366,0.359052,0.262999,55,0.0260898,10,9.44304e-05,-3.58005,3.48175,0.0169455,0.358936,
2,1,0,1,0,36765.1,0.36336,0.36307,0.26196,55,0.0263091,10,9.51098e-05,-3.58176,-6.74127,-0.00875205,0.362954,
2,1,0,1,0,36765.9,0.367355,0.36705,0.261657,55,0.0265278,10,9.60411e-05,-3.58227,-9.98843,-0.00590683,0.366935,
2,1,0,1,0,36766.7,0.371351,0.370996,0.261006,55,0.0267459,10,9.68323e-05,-3.58335,-9.51809,-0.00619872,0.370881,
2,1,0,0,0,36767.5,0.375346,0.375043,0.261458,55,0.0269638,10,9.8058e-05,-3.5826,-1.73051,-0.0340941,0.374928,
2,1,0,1,0,36768.3,0.379342,0.379033,0.259686,55,0.0271809,10,9.84298e-05,-3.58555,-5.14811,-0.0114605,0.378919,
2,1,0,1,0,36769.1,0.383336,0.383052,0.259899,55,0.0273975,10,9.95549e-05,-3.5852,-2.81493,-0.0209597,0.382938,
2,1,0,1,0,36769.9,0.387331,0.386984,0.259286,55,0.027614,10,0.000100339,-3.58622,-5.05927,-0.0116618,0.38687,
2,1,0,1,0,36770.7,0.391327,0.391014,0.258898,55,0.0278299,10,0.000101233,-3.58687,-5.37616,-0.0109744,0.390901,
2,1,0,0,0,36771.5,0.395322,0.395018,0.258417,55,0.0280454,10,0.000102079,-3.58768,-5.37264,-0.0109816,0.394904,
2,1,0,1,0,36772.3,0.399317,0.398995,0.257443,55,0.0282607,10,0.000102719,-3.58932,-6.69086,-0.008818,0.398882,
2,1,0,1,0,36773.1,0.403313,0.402989,0.257365,55,0.0284755,10,0.000103715,-3.58945,-15.1184,-0.00390253,0.402876,
2,1,0,1,0,36773.9,0.407307,0.407026,0.257703,55,0.02869,10,0.000104892,-3.58888,-6.68518,-0.00882549,0.406912,
2,1,0,1,0,36774.7,0.411302,0.411017,0.25873,55,0.0289042,10,0.000106342,-3.58715,-9.90197,-0.00595841,0.410903,
2,1,0,0,0,36775.5,0.415298,0.415007,0.256386,55,0.0291182,10,0.000106402,-3.59111,6.1037,0.00966627,0.414894,
2,1,0,1,0,36776.3,0.419293,0.418989,0.256151,55,0.029332,10,0.000107324,-3.5915,-2.52763,-0.023342,0.418876,
2,1,0,0,0,36777.1,0.423288,0.423005,0.256249,55,0.0295454,10,0.000108395,-3.59134,5.18532,0.0113783,0.422892,
2,1,0,1,0,36777.9,0.427283,0.426999,0.255597,55,0.0297589,10,0.000109139,-3.59244,-4.5713,-0.0129066,0.426886,
2,1,0,1,0,36778.7,0.431278,0.431003,0.256328,55,0.0299719,10,0.000110478,-3.5912,3.54869,0.0166259,0.43089,
2,1,0,1,0,36779.5,0.435273,0.435009,0.255488,55,0.0301848,10,0.00011114,-3.59263,15.9326,0.00370309,0.434897,
2,1,0,1,0,36780.3,0.439269,0.438985,0.256045,55,0.0303976,10,0.0001124,-3.59168,-1.92729,-0.030613,0.438873,
2,1,0,0,0,36781.1,0.443264,0.442936,0.256338,55,0.0306101,10,0.000113541,-3.59119,-9.25297,-0.00637633,0.442823,
2,1,0,1,0,36781.9,0.447259,0.446954,0.256006,55,0.0308226,10,0.000114423,-3.59175,-16.5803,-0.00355844,0.446841,
2,1,0,1,0,36782.7,0.451254,0.450931,0.255951,55,0.0310352,10,0.000115416,-3.59184,-7.18485,-0.00821173,0.450818,
2,1,0,1,0,36783.5,0.455249,0.454958,0.255088,55,0.0312474,10,0.000116054,-3.59331,3.00994,0.0196017,0.454846,
2,1,0,1,0,36784.3,0.459244,0.458928,0.254348,55,0.0314596,10,0.000116727,-3.59457,-2.89541,-0.0203771,0.458816,
2,1,0,0,0,36785.1,0.46324,0.462922,0.25619,55,0.0316718,10,0.000118596,-3.59144,2.7849,0.0211857,0.462809,
2,1,0,1,0,36785.9,0.467235,0.466954,0.255908,55,0.0318841,10,0.000119497,-3.59192,-10.868,-0.00542878,0.466842,
2,1,0,1,0,36786.7,0.471231,0.470915,0.256183,55,0.0320965,10,0.00012064,-3.59145,-49.671,-0.00118781,0.470802,
2,1,0,1,0,36787.5,0.475225,0.47492,0.256624,55,0.0323089,10,0.000121876,-3.5907,2.42004,0.0243797,0.474807,
2,1,0,1,0,36788.3,0.47922,0.478901,0.256263,55,0.0325217,10,0.000122725,-3.59131,21.4068,0.00275614,0.478788,
2,1,0,0,0,36789.1,0.483216,0.482928,0.256863,55,0.0327348,10,0.000124047,-3.5903,-28.6672,-0.0020581,0.482815,
2,1,0,1,0,36789.9,0.487211,0.486918,0.257549,55,0.0329484,10,0.000125405,-3.58914,2.12634,0.0277472,0.486804,
2,1,0,0,0,36790.7,0.491206,0.490919,0.257747,55,0.0331623,10,0.000126533,-3.58881,2.67388,0.0220654,0.490805,
2,1,0,1,0,36791.5,0.495201,0.494928,0.259158,55,0.0333768,10,0.000128265,-3.58644,3.16076,0.0186664,0.494814,
2,1,0,1,0,36792.3,0.499196,0.498925,0.25973,55,0.0335917,10,0.000129586,-3.58548,1.24321,0.0474579,0.49881,
2,1,0,1,0,36793.1,0.503191,0.502923,0.260036,55,0.0338075,10,0.000130778,-3.58497,-3.35113,-0.017606,0.502809,
2,1,0,1,0,36793.9,0.507187,0.506895,0.26109,55,0.0340235,10,0.000132345,-3.58321,3.99044,0.0147853,0.50678,
2,1,0,0,0,36794.7,0.511182,0.510915,0.260791,55,0.03424,10,0.000133242,-3.58371,2.8648,0.0205948,0.5108,
2,1,0,1,0,36795.5,0.515177,0.51485,0.26288,55,0.0344575,10,0.000135343,-3.58024,11.5963,0.00508785,0.514734,
2,1,0,1,0,36796.3,0.519173,0.51887,0.264442,55,0.0346754,10,0.000137211,-3.57767,0.889847,0.0663035,0.518754,
2,1,0,1,0,36797.1,0.523167,0.522867,0.26504,55,0.0348945,10,0.000138581,-3.57669,9.01918,0.00654161,0.522751,
2,1,0,1,0,36797.9,0.527162,0.526858,0.265863,55,0.0351142,10,0.000140072,-3.57534,1.46677,0.0402246,0.526741,
2,1,0,0,0,36798.7,0.531158,0.530828,0.267361,55,0.0353349,10,0.000141923,-3.5729,1.34545,0.0438515,0.53071,
2,1,0,1,0,36799.5,0.535153,0.534816,0.268384,55,0.0355568,10,0.000143536,-3.57124,1.5346,0.0384465,0.534698,
2,1,0,0,0,36800.3,0.539148,0.53884,0.271167,55,0.0357799,10,0.000146116,-3.56676,1.14959,0.0513227,0.538721,
2,1,0,1,0,36801.1,0.543143,0.542846,0.273157,55,0.0360045,10,0.000148282,-3.56359,1.18742,0.0496877,0.542726,
2,1,0,1,0,36801.9,0.547138,0.546823,0.27528,55,0.0362307,10,0.000150529,-3.56023,3.98479,0.0148063,0.546702,
2,1,0,1,0,36802.7,0.551133,0.550791,0.276334,55,0.0364583,10,0.000152202,-3.55857,0.684724,0.0861661,0.550669,
2,1,0,1,0,36803.5,0.555129,0.554859,0.278631,55,0.0366879,10,0.000154601,-3.55497,1.74183,0.0338724,0.554736,
2,1,0,0,0,36804.3,0.559124,0.558829,0.281178,55,0.0369192,10,0.000157131,-3.55102,0.91982,0.064143,0.558705,
2,1,0,1,0,36805.1,0.56312,0.562829,0.284361,55,0.0371527,10,0.000160047,-3.54613,0.880004,0.0670452,0.562704,
2,1,0,1,0,36805.9,0.567114,0.566842,0.287609,55,0.0373887,10,0.000163029,-3.5412,0.826187,0.0714124,0.566715,
2,1,0,1,0,36806.7,0.571109,0.57083,0.291096,55,0.0376271,10,0.000166166,-3.53596,0.64862,0.0909624,0.570701,
2,1,0,1,0,36807.5,0.575105,0.574819,0.295243,55,0.0378684,10,0.000169711,-3.52982,0.738424,0.0798999,0.574689,
2,1,0,0,0,36808.3,0.5791,0.578788,0.299994,55,0.0381131,10,0.000173633,-3.52289,0.786006,0.075063,0.578656,
2,1,0,1,0,36809.1,0.583095,0.582801,0.303517,55,0.038361,10,0.00017689,-3.51782,0.465706,0.126689,0.582667,
2,1,0,1,0,36809.9,0.58709,0.586826,0.309024,55,0.0386129,10,0.000181343,-3.51001,0.496991,0.118714,0.58669,
2,1,0,1,0,36810.7,0.591085,0.590779,0.314902,55,0.0388691,10,0.000186037,-3.50182,0.465438,0.126762,0.590641,
2,1,0,1,0,36811.5,0.59508,0.594807,0.32138,55,0.0391302,10,0.000191159,-3.49298,0.424652,0.138937,0.594666,
2,1,0,0,0,36812.3,0.599076,0.598756,0.328916,55,0.0393969,10,0.00019694,-3.48292,0.433579,0.136077,0.598611,
2,1,0,1,0,36813.1,0.603071,0.602774,0.337067,55,0.0396696,10,0.000203175,-3.47228,0.346138,0.170452,0.602626,
2,1,0,0,0,36813.9,0.607066,0.606771,0.345772,55,0.0399493,10,0.000209804,-3.46121,0.306421,0.192546,0.606619,
2,1,0,1,0,36814.7,0.611061,0.61077,0.356398,55,0.040237,10,0.000217677,-3.44807,0.324564,0.181782,0.610614,
2,1,0,1,0,36815.5,0.615056,0.614738,0.369475,55,0.0405336,10,0.00022713,-3.43242,0.225538,0.261597,0.614575,
2,1,0,1,0,36816.3,0.619051,0.618747,0.383463,55,0.0408417,10,0.000237267,-3.41628,0.230728,0.255712,0.618578,
2,1,0,1,0,36817.1,0.623047,0.622757,0.400913,55,0.0411623,10,0.000249671,-3.39695,0.20372,0.289613,0.62258,
2,1,0,0,0,36817.9,0.627042,0.626767,0.420749,55,0.0414973,10,0.000263712,-3.37598,0.181143,0.325709,0.626582,
2,1,0,1,0,36818.7,0.631037,0.630775,0.442668,55,0.0418495,10,0.000279224,-3.35392,0.165135,0.357283,0.63058,
2,1,0,1,0,36819.5,0.635032,0.634737,0.468973,55,0.0422208,10,0.000297675,-3.32885,0.156073,0.378029,0.634531,
2,1,0,1,0,36820.3,0.639027,0.638732,0.500104,55,0.0426148,10,0.000319432,-3.30094,0.136106,0.433484,0.638512,
2,1,0,1,0,36821.1,0.643022,0.642755,0.536641,55,0.0430358,10,0.000344928,-3.27032,0.129739,0.454758,0.642518,
2,1,0,0,0,36821.9,0.647018,0.646716,0.577233,55,0.0434869,10,0.000373306,-3.23865,0.116443,0.506684,0.646462,
2,1,0,1,0,36822.7,0.651013,0.650709,0.625896,55,0.0439745,10,0.000407276,-3.2035,0.105711,0.558124,0.650434,
2,1,0,1,0,36823.5,0.655008,0.654724,0.684893,55,0.0445052,10,0.000448416,-3.16438,0.102525,0.575468,0.654423,
2,1,0,1,0,36824.3,0.659003,0.65873,0.749896,55,0.045085,10,0.000493979,-3.125,0.095269,0.619299,0.6584,
2,1,0,1,0,36825.1,0.662998,0.662711,0.828355,55,0.0457224,10,0.00054896,-3.08178,0.0925141,0.63774,0.662346,
2,1,0,0,0,36825.9,0.666994,0.666687,0.917783,55,0.046426,10,0.000611874,-3.03726,0.0866099,0.681216,0.666283,
2,1,0,1,0,36826.7,0.670989,0.670718,1.01953,55,0.0472059,10,0.000683819,-2.9916,0.0846218,0.69722,0.670269,
2,1,0,0,0,36827.5,0.674984,0.674674,1.13502,55,0.0480727,10,0.00076577,-2.945,0.0838571,0.703578,0.674175,
2,1,0,1,0,36828.3,0.67898,0.678726,1.26866,55,0.0490393,10,0.000861075,-2.89665,0.0812234,0.726391,0.678168,
2,1,0,1,0,36829.1,0.682974,0.682693,1.41857,55,0.0501193,10,0.000968448,-2.84815,0.0804163,0.733682,0.682069,
2,1,0,1,0,36829.9,0.686969,0.68666,1.5857,55,0.0513258,10,0.00108884,-2.79978,0.0805585,0.732387,0.685962,
2,1,0,1,0,36830.7,0.690965,0.690674,1.77484,55,0.0526745,10,0.00122584,-2.75084,0.0802928,0.734811,0.689893,
2,1,0,0,0,36831.5,0.69496,0.694689,1.98291,55,0.0541818,10,0.00137751,-2.7027,0.0822694,0.717156,0.693817,
2,1,0,1,0,36832.3,0.698955,0.6987,2.20961,55,0.0558623,10,0.00154385,-2.65568,0.083039,0.710509,0.697728,
2,1,0,1,0,36833.1,0.70295,0.702663,2.45921,55,0.0577341,10,0.00172799,-2.6092,0.084827,0.695534,0.701581,
2,1,0,1,0,36833.8,0.706945,0.706719,2.72968,55,0.0598126,10,0.00192912,-2.56389,0.0872811,0.675977,0.705518,
2,1,0,1,0,36834.6,0.71094,0.710669,3.01889,55,0.0621154,10,0.00214543,-2.52015,0.0882727,0.668384,0.709341,
2,1,0,0,0,36835.4,0.714936,0.714626,3.3309,55,0.0646587,10,0.00238035,-2.47744,0.0922607,0.639492,0.713161,
2,1,0,1,0,36836.2,0.718931,0.718658,3.66443,55,0.0674599,10,0.00263347,-2.43599,0.0930381,0.634149,0.717045,
2,1,0,1,0,36837,0.722927,0.722623,4.01971,55,0.0705369,10,0.00290473,-2.39581,0.098382,0.599703,0.720854,
2,1,0,1,0,36837.8,0.726921,0.726696,4.39656,55,0.0739056,10,0.00319496,-2.35689,0.10021,0.588766,0.724761,
2,1,0,1,0,36838.6,0.730916,0.730614,4.79408,55,0.077583,10,0.00350262,-2.31929,0.10192,0.578887,0.728504,
2,1,0,1,0,36839.4,0.734911,0.734609,5.21272,55,0.0815874,10,0.00382931,-2.28294,0.106725,0.55282,0.732315,
2,1,0,1,0,36840.2,0.738907,0.738571,5.65418,55,0.0859355,10,0.00417601,-2.24763,0.109151,0.540535,0.736083,
2,1,0,0,0,36841,0.742902,0.742582,6.11686,55,0.0906443,10,0.00454227,-2.21347,0.111966,0.526945,0.73989,
2,1,0,1,0,36841.8,0.746897,0.74661,6.60308,55,0.0957333,10,0.00492993,-2.18025,0.117208,0.503378,0.743705,
2,1,0,1,0,36842.6,0.750892,0.750624,7.1133,55,0.101219,10,0.00533941,-2.14793,0.117549,0.501918,0.747494,
2,1,0,1,0,36843.4,0.754887,0.754617,7.64696,55,0.107122,10,0.00577053,-2.11651,0.120006,0.491643,0.751252,
2,1,0,1,0,36844.2,0.758883,0.758622,8.20701,55,0.113463,10,0.00622602,-2.08582,0.123389,0.478162,0.755011,
2,1,0,0,0,36845,0.762878,0.762587,8.79243,55,0.12026,10,0.006705,-2.05589,0.126923,0.464849,0.758719,
2,1,0,1,0,36845.8,0.766873,0.766562,9.40461,55,0.127536,10,0.00720922,-2.02666,0.127046,0.4644,0.762424,
2,1,0,1,0,36846.6,0.770868,0.770553,10.0536,55,0.135317,10,0.00774686,-1.99768,0.129506,0.455578,0.766129,
2,1,0,1,0,36847.4,0.774863,0.774585,10.7331,55,0.143627,10,0.00831369,-1.96928,0.129571,0.455348,0.769862,
2,1,0,1,0,36848.2,0.778858,0.778585,11.4546,55,0.152496,10,0.00891835,-1.94102,0.130487,0.452151,0.773545,
2,1,0,0,0,36849,0.782854,0.782564,12.2232,55,0.161962,10,0.00956545,-1.91281,0.129938,0.454064,0.777186,
2,1,0,1,0,36849.8,0.786849,0.786573,13.0525,55,0.172063,10,0.0102667,-1.88431,0.126487,0.466449,0.78083,
2,1,0,0,0,36850.6,0.790844,0.790568,13.9243,55,0.182846,10,0.0110081,-1.85623,0.131785,0.447698,0.784441,
2,1,0,1,0,36851.4,0.794839,0.794539,14.8333,55,0.194338,10,0.0117856,-1.82876,0.137489,0.429126,0.788012,
2,1,0,1,0,36852.2,0.798834,0.798567,15.7617,55,0.206562,10,0.0125868,-1.8024,0.130148,0.453328,0.791632,
2,1,0,1,0,36853,0.802829,0.802597,16.7701,55,0.219562,10,0.0134596,-1.77546,0.130412,0.452413,0.795218,
2,1,0,1,0,36853.8,0.806825,0.80654,17.837,55,0.233396,10,0.0143863,-1.74868,0.132389,0.445655,0.798692,
2,1,0,0,0,36854.6,0.81082,0.810526,18.9558,55,0.248098,10,0.0153642,-1.72226,0.131902,0.447301,0.802186,
2,1,0,1,0,36855.4,0.814815,0.814519,20.1243,55,0.263718,10,0.0163916,-1.69628,0.134878,0.437431,0.805664,
2,1,0,1,0,36856.2,0.81881,0.818507,21.3417,55,0.280291,10,0.0174683,-1.67077,0.137805,0.428142,0.809117,
2,1,0,1,0,36857,0.822805,0.822531,22.5959,55,0.297851,10,0.0185858,-1.64597,0.136363,0.43267,0.812588,
2,1,0,1,0,36857.8,0.826801,0.826534,23.8987,55,0.316438,10,0.0197531,-1.62163,0.147589,0.399759,0.816019,
2,1,0,0,0,36858.6,0.830796,0.830544,25.1783,55,0.336057,10,0.0209117,-1.59897,0.155673,0.378999,0.819466,
2,1,0,1,0,36859.4,0.834791,0.83452,26.4669,55,0.356703,10,0.0220872,-1.5773,0.157977,0.373473,0.822874,
2,1,0,1,0,36860.2,0.838786,0.838554,27.8433,55,0.378408,10,0.0233481,-1.55528,0.154365,0.38221,0.826303,
2,1,0,1,0,36861,0.842781,0.842494,29.2351,55,0.401225,10,0.0246304,-1.5341,0.160873,0.366749,0.829631,
2,1,0,1,0,36861.8,0.846776,0.846498,30.6605,55,0.425167,10,0.025954,-1.51342,0.171771,0.34348,0.833007,
2,1,0,1,0,36862.5,0.849723,0.849462,31.5958,55,0.447051,10,0.0268395,-1.50037,0.0550585,1.07159,0.83556,
2,1,0,0,0,36863.3,0.845728,0.845445,29.4868,55,0.471381,10,0.0249295,-1.53037,0.122449,0.481832,0.832471,
2,1,0,1,0,36864.1,0.841732,0.841463,27.8302,55,0.494266,10,0.0234181,-1.55548,0.129338,0.45617,0.829218,
2,1,0,1,0,36864.9,0.837737,0.837494,26.2401,55,0.515855,10,0.0219759,-1.58103,0.121759,0.484566,0.825948,
2,1,0,1,0,36865.7,0.833742,0.833506,24.9133,55,0.536221,10,0.0207654,-1.60357,0.164115,0.359503,0.822544,
2,1,0,1,0,36866.5,0.829747,0.829482,23.4706,55,0.555545,10,0.0194684,-1.62948,0.126078,0.467964,0.819155,
2,1,0,0,0,36867.3,0.825752,0.825485,22.0856,55,0.573729,10,0.0182314,-1.65589,0.12888,0.457792,0.815768,
2,1,0,1,0,36868.1,0.821757,0.821459,20.7658,55,0.590837,10,0.0170582,-1.68265,0.125652,0.46955,0.812322,
2,1,0,1,0,36868.9,0.817761,0.817501,19.4945,55,0.606904,10,0.0159368,-1.71009,0.128051,0.460755,0.808923,
2,1,0,1,0,36869.7,0.813766,0.813497,18.3073,55,0.621994,10,0.0148929,-1.73738,0.125529,0.470012,0.805442,
2,1,0,1,0,36870.5,0.809771,0.809468,17.1462,55,0.636147,10,0.0138793,-1.76583,0.121337,0.486248,0.801924,
2,1,0,1,0,36871.3,0.805776,0.805496,16.042,55,0.649393,10,0.0129218,-1.79474,0.119866,0.492217,0.798437,
2,1,0,1,0,36872.1,0.801781,0.801473,14.9923,55,0.66178,10,0.0120159,-1.82413,0.121559,0.485362,0.794877,
2,1,0,0,0,36872.9,0.797786,0.797514,14.0235,55,0.673355,10,0.0111839,-1.85314,0.121617,0.48513,0.791344,
2,1,0,1,0,36873.7,0.79379,0.793487,13.0704,55,0.68417,10,0.0103712,-1.88371,0.117592,0.501733,0.787736,
2,1,0,1,0,36874.5,0.789795,0.789489,12.1726,55,0.694243,10,0.00961011,-1.91462,0.112128,0.526183,0.784133,
2,1,0,1,0,36875.3,0.7858,0.785522,11.3144,55,0.703613,10,0.0088877,-1.94637,0.11331,0.520695,0.780544,
2,1,0,1,0,36876.1,0.781805,0.781539,10.503,55,0.712318,10,0.00820854,-1.97868,0.11481,0.513891,0.776917,
2,1,0,0,0,36876.9,0.77781,0.777553,9.75006,55,0.720399,10,0.00758118,-2.01099,0.112283,0.525457,0.773263,
2,1,0,1,0,36877.7,0.773814,0.773549,9.03188,55,0.727891,10,0.0069866,-2.04422,0.109014,0.541214,0.769575,
2,1,0,1,0,36878.5,0.769819,0.769517,8.35624,55,0.734828,10,0.00643026,-2.07799,0.108855,0.542003,0.76584,
2,1,0,1,0,36879.3,0.765824,0.765475,7.72443,55,0.741241,10,0.00591286,-2.11213,0.107744,0.547592,0.762076,
2,1,0,1,0,36880.1,0.761829,0.761528,7.11586,55,0.747164,10,0.00541893,-2.14777,0.108191,0.545334,0.758397,
2,1,0,0,0,36880.9,0.757834,0.757554,6.59727,55,0.752631,10,0.00499778,-2.18064,0.111803,0.527713,0.754651,
2,1,0,1,0,36881.7,0.753839,0.75356,6.07909,55,0.757686,10,0.00458096,-2.21616,0.104196,0.56624,0.750885,
2,1,0,0,0,36882.5,0.749844,0.749571,5.58595,55,0.762338,10,0.00418707,-2.2529,0.102232,0.577117,0.747113,
2,1,0,1,0,36883.3,0.745848,0.745559,5.12446,55,0.766608,10,0.00382059,-2.29035,0.0993861,0.593644,0.743304,
2,1,0,1,0,36884.1,0.741853,0.741543,4.6855,55,0.770518,10,0.0034745,-2.32924,0.0956812,0.616631,0.739481,
2,1,0,1,0,36884.9,0.737858,0.737619,4.27483,55,0.774088,10,0.00315319,-2.36908,0.0954168,0.61834,0.735738,
2,1,0,1,0,36885.7,0.733863,0.733605,3.88954,55,0.77734,10,0.00285338,-2.4101,0.0900645,0.655086,0.731894,
2,1,0,0,0,36886.5,0.729868,0.729584,3.52547,55,0.780293,10,0.00257213,-2.45278,0.0895999,0.658483,0.728033,
2,1,0,1,0,36887.3,0.725872,0.725653,3.18703,55,0.782967,10,0.00231268,-2.49661,0.0863374,0.683366,0.724251,
2,1,0,1,0,36888.1,0.721877,0.721628,2.87245,55,0.785378,10,0.00207284,-2.54175,0.0852429,0.69214,0.720364,
2,1,0,1,0,36888.9,0.717882,0.717579,2.5771,55,0.787547,10,0.00184927,-2.58887,0.0838119,0.703957,0.716445,
2,1,0,1,0,36889.7,0.713887,0.713621,2.3154,55,0.789496,10,0.00165232,-2.63537,0.0778044,0.758312,0.712602,
2,1,0,0,0,36890.5,0.709892,0.709626,2.06022,55,0.791236,10,0.00146199,-2.68609,0.0765512,0.770726,0.70872,
2,1,0,1,0,36891.3,0.705897,0.705577,1.82587,55,0.79278,10,0.00128829,-2.73853,0.0714046,0.826278,0.704773,
2,1,0,1,0,36892.1,0.701901,0.701624,1.60949,55,0.794144,10,0.00112926,-2.79331,0.0709614,0.831438,0.700916,
2,1,0,1,0,36892.9,0.697906,0.697618,1.41196,55,0.795342,10,0.000985007,-2.85018,0.0668621,0.882414,0.696997,
2,1,0,1,0,36893.7,0.693911,0.693666,1.22985,55,0.796389,10,0.000853108,-2.91015,0.0644455,0.915502,0.693124,
2,1,0,0,0,36894.5,0.689916,0.689639,1.06609,55,0.797298,10,0.000735216,-2.97221,0.0606676,0.972512,0.68917,
2,1,0,1,0,36895.3,0.685921,0.685623,0.917858,55,0.798082,10,0.000629304,-3.03722,0.0595939,0.990035,0.685219,
2,1,0,0,0,36896.1,0.681926,0.681649,0.784744,55,0.798754,10,0.000534919,-3.10527,0.0557884,1.05757,0.681303,
2,1,0,1,0,36896.9,0.67793,0.677631,0.664459,55,0.799324,10,0.000450257,-3.17753,0.0529916,1.11338,0.677338,
2,1,0,1,0,36897.7,0.673935,0.673662,0.558186,55,0.799804,10,0.000376029,-3.25322,0.0522815,1.12851,0.673416,
2,1,0,1,0,36898.5,0.66994,0.669609,0.465543,55,0.800205,10,0.000311732,-3.33204,0.0483594,1.22003,0.669404,
2,1,0,1,0,36899.3,0.665945,0.665633,0.382792,55,0.800537,10,0.000254799,-3.41704,0.0460727,1.28058,0.665465,
2,1,0,0,0,36900.1,0.66195,0.661615,0.313089,55,0.800807,10,0.000207144,-3.50433,0.0433507,1.36099,0.661478,
2,1,0,1,0,36900.9,0.657955,0.657657,0.250892,55,0.801024,10,0.000165001,-3.60051,0.0396288,1.48882,0.657547,
2,1,0,1,0,36901.7,0.653959,0.653595,0.198612,55,0.801196,10,0.000129812,-3.702,0.0380235,1.55167,0.653508,
2,1,0,1,0,36902.5,0.649964,0.64968,0.153886,55,0.801329,10,9.99769e-05,-3.8128,0.0326576,1.80662,0.649612,
2,1,0,1,0,36903.3,0.64597,0.645719,0.113868,55,0.801428,10,7.35265e-05,-3.9436,0.0302116,1.95289,0.645669,
2,1,0,0,0,36904.1,0.641974,0.641709,0.0814819,55,0.801498,10,5.22877e-05,-4.08894,0.0239155,2.46702,0.641674,
2,1,0,1,0,36904.9,0.637979,0.637667,0.0542607,55,0.801545,10,3.46002e-05,-4.26551,0.0196548,3.00181,0.637643,
2,1,0,1,0,36905.7,0.633983,0.633721,0.0300408,55,0.80157,10,1.90375e-05,-4.52229,0.0126002,4.68248,0.633708,
2,1,0,1,0,36906.5,0.629988,0.629697,0.0101129,55,0.801579,10,6.36808e-06,-4.99512,0.00360916,16.3473,0.629693,
2,1,0,1,0,36907.3,0.625993,0.625699,-0.00618422,55,0.801573,10,-3.86946e-06,-5.20871,-0.00452179,-13.0479,0.625701,
2,0,0,0,0,36908.1,0.621998,0.62172,-0.0192305,55,0.801556,10,-1.1956e-05,-4.71601,-0.012713,-4.64092,0.621728,
2,0,0,1,0,36908.9,0.618003,0.617723,-0.0303978,55,0.801529,10,-1.87774e-05,-4.51716,-0.0244086,-2.41718,0.617736,
2,0,0,0,0,36909.7,0.614008,0.613701,-0.0402769,55,0.801493,10,-2.4718e-05,-4.39494,-0.0522674,-1.12881,0.613719,
2,0,0,1,0,36910.5,0.610012,0.609707,-0.0482165,55,0.80145,10,-2.93979e-05,-4.3168,-0.0539358,-1.09389,0.609728,
2,0,0,1,0,36911.3,0.606017,0.605743,-0.0537329,55,0.801402,10,-3.25483e-05,-4.26976,-0.0863939,-0.682918,0.605766,
2,0,0,1,0,36912.1,0.602022,0.601675,-0.0612075,55,0.801348,10,-3.68271e-05,-4.2132,-0.113459,-0.520013,0.601702,
2,0,0,1,0,36912.9,0.598027,0.597688,-0.0660981,55,0.80129,10,-3.9506e-05,-4.17981,-0.10946,-0.539007,0.597717,
2,0,0,0,0,36913.7,0.594032,0.593702,-0.0708889,55,0.801227,10,-4.20869e-05,-4.14942,-0.172963,-0.341114,0.593733,
2,0,0,1,0,36914.5,0.590037,0.589745,-0.0748141,55,0.801162,10,-4.41212e-05,-4.12602,-0.181587,-0.324913,0.589778,
2,0,0,1,0,36915.3,0.586041,0.585756,-0.0764319,55,0.801094,10,-4.47704e-05,-4.11673,-0.238018,-0.24788,0.585789,
2,0,0,1,0,36916.1,0.582046,0.581741,-0.079351,55,0.801023,10,-4.61618e-05,-4.10045,-0.321574,-0.183472,0.581776,
2,0,0,1,0,36916.8,0.578052,0.577747,-0.0830529,55,0.800951,10,-4.79836e-05,-4.08065,-0.322624,-0.182876,0.577784,
2,0,0,0,0,36917.6,0.574056,0.573766,-0.0836979,55,0.800876,10,-4.8023e-05,-4.07729,-0.482253,-0.122342,0.573803,
2,0,0,1,0,36918.4,0.570061,0.569769,-0.0862994,55,0.8008,10,-4.91708e-05,-4.06399,-0.616337,-0.0957268,0.569807,
2,0,0,1,0,36919.2,0.566065,0.565765,-0.0876828,55,0.800723,10,-4.96078e-05,-4.05709,-0.296978,-0.198668,0.565803,
2,0,0,1,0,36920,0.56207,0.561769,-0.0900552,55,0.800644,10,-5.05903e-05,-4.04549,-0.512647,-0.115089,0.561809,
2,0,0,1,0,36920.8,0.558075,0.557758,-0.0912674,55,0.800564,10,-5.09051e-05,-4.03968,-0.632524,-0.0932771,0.557798,
2,0,0,1,0,36921.6,0.55408,0.553763,-0.0916572,55,0.800483,10,-5.07564e-05,-4.03783,-0.421529,-0.139967,0.553803,
2,0,0,1,0,36922.4,0.550085,0.549768,-0.0935917,55,0.800401,10,-5.14537e-05,-4.02876,-6.70789,-0.00879561,0.549809,
2,0,0,0,0,36923.2,0.54609,0.545777,-0.0950537,55,0.800317,10,-5.18781e-05,-4.02203,-0.661943,-0.0891316,0.545818,
2,0,0,1,0,36924,0.542094,0.541797,-0.0958245,55,0.800233,10,-5.19174e-05,-4.01852,-0.540646,-0.109129,0.54184,
2,0,0,1,0,36924.8,0.538099,0.537778,-0.0973712,55,0.800148,10,-5.23641e-05,-4.01157,-0.919769,-0.0641465,0.537821,
2,0,0,1,0,36925.6,0.534104,0.533766,-0.0983049,55,0.800062,10,-5.24718e-05,-4.00742,-0.746585,-0.0790265,0.533809,
2,0,0,1,0,36926.4,0.530109,0.529826,-0.0992306,55,0.799975,10,-5.2575e-05,-4.00335,-0.619646,-0.0952156,0.52987,
2,0,0,0,0,36927.2,0.526114,0.525836,-0.100893,55,0.799886,10,-5.3053e-05,-3.99614,-0.967451,-0.060985,0.52588,
2,0,0,1,0,36928,0.522119,0.521832,-0.101828,55,0.799797,10,-5.31369e-05,-3.99213,-1.66602,-0.0354138,0.521876,
2,0,0,1,0,36928.8,0.518123,0.517816,-0.103428,55,0.799707,10,-5.35567e-05,-3.98536,-0.596448,-0.0989189,0.517862,
2,0,0,1,0,36929.6,0.514128,0.513851,-0.103942,55,0.799617,10,-5.34105e-05,-3.98321,-1.98164,-0.0297733,0.513897,
2,0,0,1,0,36930.4,0.510133,0.509767,-0.104735,55,0.799525,10,-5.33905e-05,-3.97991,-0.697177,-0.084627,0.509813,
2,0,0,0,0,36931.2,0.506138,0.50579,-0.10556,55,0.799433,10,-5.33912e-05,-3.9765,-2.95527,-0.0199644,0.505836,
2,0,0,1,0,36932,0.502143,0.501849,-0.107344,55,0.799339,10,-5.38707e-05,-3.96922,-0.401156,-0.147075,0.501896,
2,0,0,0,0,36932.8,0.498148,0.497849,-0.107762,55,0.799245,10,-5.36495e-05,-3.96753,-2.09676,-0.0281387,0.497897,
2,0,0,1,0,36933.6,0.494152,0.493856,-0.109186,55,0.79915,10,-5.39223e-05,-3.96183,-0.498896,-0.118261,0.493904,
2,0,0,1,0,36934.4,0.490157,0.489844,-0.110905,55,0.799054,10,-5.43264e-05,-3.95505,-0.897556,-0.065734,0.489893,
2,0,0,1,0,36935.2,0.486162,0.485868,-0.112061,55,0.798957,10,-5.4447e-05,-3.95054,-1.72804,-0.0341426,0.485917,
2,0,0,1,0,36936,0.482167,0.481787,-0.113013,55,0.798858,10,-5.44481e-05,-3.94687,-0.84228,-0.070048,0.481837,
2,0,0,0,0,36936.8,0.478172,0.4779,-0.11311,55,0.798759,10,-5.40552e-05,-3.9465,-0.668158,-0.0883024,0.47795,
2,0,0,1,0,36937.6,0.474177,0.473867,-0.116021,55,0.798659,10,-5.49786e-05,-3.93546,407.329,0.000144846,0.473918,
2,0,0,1,0,36938.4,0.470181,0.469867,-0.117512,55,0.798558,10,-5.52148e-05,-3.92992,-0.423794,-0.139219,0.469919,
2,0,0,1,0,36939.2,0.466186,0.465905,-0.118378,55,0.798455,10,-5.51529e-05,-3.92673,-0.989124,-0.0596487,0.465957,
2,0,0,1,0,36940,0.462191,0.461912,-0.120574,55,0.798351,10,-5.56946e-05,-3.91875,-0.499405,-0.118141,0.461966,
2,0,0,0,0,36940.8,0.458196,0.45792,-0.121212,55,0.798246,10,-5.55054e-05,-3.91645,-0.582715,-0.10125,0.457973,
2,0,0,1,0,36941.6,0.454201,0.453862,-0.12302,55,0.798139,10,-5.5834e-05,-3.91002,-2.43035,-0.0242763,0.453916,
2,0,0,1,0,36942.4,0.450205,0.449904,-0.124782,55,0.798032,10,-5.61398e-05,-3.90385,-0.678654,-0.0869368,0.449959,
2,0,0,1,0,36943.2,0.44621,0.445908,-0.125266,55,0.797923,10,-5.5857e-05,-3.90217,-0.501837,-0.117568,0.445964,
2,0,0,1,0,36944,0.442215,0.441927,-0.128027,55,0.797813,10,-5.65784e-05,-3.8927,-0.891232,-0.0662005,0.441983,
2,0,0,0,0,36944.8,0.43822,0.43789,-0.12974,55,0.797701,10,-5.68116e-05,-3.88693,-0.645068,-0.0914633,0.437947,
2,0,0,1,0,36945.6,0.434225,0.433897,-0.132063,55,0.797587,10,-5.73017e-05,-3.87922,-0.691585,-0.0853113,0.433955,
2,0,0,0,0,36946.4,0.43023,0.429903,-0.132552,55,0.797473,10,-5.69843e-05,-3.87761,-0.49653,-0.118825,0.429961,
2,0,0,1,0,36947.2,0.426234,0.425919,-0.135372,55,0.797357,10,-5.76572e-05,-3.86847,-0.619042,-0.0953086,0.425978,
2,0,0,1,0,36948,0.422239,0.421913,-0.137309,55,0.797239,10,-5.79323e-05,-3.8623,-1.05675,-0.0558318,0.421973,
2,0,0,1,0,36948.8,0.418244,0.41794,-0.139312,55,0.79712,10,-5.8224e-05,-3.85601,-0.781645,-0.0754818,0.418001,
2,0,0,1,0,36949.6,0.414249,0.413937,-0.139806,55,0.796999,10,-5.78708e-05,-3.85448,-0.658878,-0.0895461,0.413999,
2,0,0,0,0,36950.4,0.410254,0.409907,-0.143784,55,0.796877,10,-5.89379e-05,-3.84229,-1.01306,-0.0582392,0.40997,
2,0,0,1,0,36951.2,0.406259,0.405952,-0.144646,55,0.796753,10,-5.87196e-05,-3.83969,-0.517592,-0.113989,0.406016,
2,0,0,1,0,36952,0.402263,0.401943,-0.146163,55,0.796627,10,-5.87491e-05,-3.83516,-0.50537,-0.116746,0.402007,
2,0,0,1,0,36952.8,0.398268,0.397961,-0.148845,55,0.7965,10,-5.92344e-05,-3.82727,-0.928739,-0.063527,0.398027,
2,0,0,1,0,36953.6,0.394274,0.393968,-0.150291,55,0.796371,10,-5.92098e-05,-3.82307,-0.623711,-0.0945951,0.394034,
2,0,0,0,0,36954.4,0.390278,0.38998,-0.153388,55,0.79624,10,-5.9818e-05,-3.81421,-0.652614,-0.0904057,0.390047,
2,0,0,1,0,36955.2,0.386283,0.385962,-0.155266,55,0.796108,10,-5.99268e-05,-3.80892,-0.483863,-0.121935,0.38603,
2,0,0,1,0,36956,0.382287,0.381975,-0.15665,55,0.795974,10,-5.98362e-05,-3.80507,-1.15622,-0.0510286,0.382044,
2,0,0,1,0,36956.8,0.378292,0.377978,-0.159558,55,0.795838,10,-6.03092e-05,-3.79708,-1.26532,-0.0466284,0.378048,
2,0,0,1,0,36957.6,0.374297,0.373999,-0.161776,55,0.7957,10,-6.05041e-05,-3.79109,-0.366609,-0.160934,0.374071,
2,0,0,1,0,36958.4,0.370303,0.369948,-0.164117,55,0.79556,10,-6.07149e-05,-3.78485,-7.71851,-0.00764396,0.37002,
2,0,0,1,0,36959.2,0.366307,0.366011,-0.166048,55,0.795419,10,-6.07754e-05,-3.77977,-0.40425,-0.145949,0.366084,
2,0,0,0,0,36960,0.362312,0.361999,-0.168244,55,0.795276,10,-6.09043e-05,-3.77406,-0.576872,-0.102276,0.362073,
2,0,0,1,0,36960.8,0.358316,0.357994,-0.170179,55,0.79513,10,-6.09229e-05,-3.7691,-1.53823,-0.0383558,0.358069,
2,0,0,1,0,36961.6,0.354321,0.353999,-0.172787,55,0.794983,10,-6.11666e-05,-3.76249,-0.72921,-0.0809094,0.354075,
2,0,0,1,0,36962.4,0.350327,0.350028,-0.17439,55,0.794835,10,-6.10415e-05,-3.75848,-0.742438,-0.0794679,0.350105,
2,0,0,1,0,36963.2,0.346331,0.345995,-0.176559,55,0.794684,10,-6.10884e-05,-3.75311,-0.896953,-0.0657782,0.346073,
2,0,0,0,0,36964,0.342336,0.342037,-0.178732,55,0.794532,10,-6.11329e-05,-3.7478,-0.466294,-0.126529,0.342116,
2,0,0,1,0,36964.8,0.338341,0.33801,-0.181494,55,0.794378,10,-6.13469e-05,-3.74114,-0.85194,-0.0692537,0.33809,
2,0,0,1,0,36965.6,0.334345,0.334008,-0.184611,55,0.794222,10,-6.16614e-05,-3.73374,-0.724653,-0.0814183,0.334089,
2,0,0,1,0,36966.4,0.33035,0.330039,-0.187189,55,0.794064,10,-6.17797e-05,-3.72772,-0.697404,-0.0845995,0.330121,
2,0,0,1,0,36967.2,0.326355,0.326039,-0.188219,55,0.793904,10,-6.13668e-05,-3.72534,-0.793076,-0.0743939,0.326122,
2,0,0,0,0,36968,0.32236,0.32207,-0.19133,55,0.793742,10,-6.16217e-05,-3.71822,-0.618598,-0.095377,0.322154,
2,0,0,1,0,36968.8,0.318365,0.318029,-0.193019,55,0.793577,10,-6.13856e-05,-3.7144,-0.86112,-0.0685154,0.318114,
2,0,0,0,0,36969.6,0.31437,0.314037,-0.194975,55,0.793412,10,-6.12295e-05,-3.71002,-2.27753,-0.0259052,0.314123,
2,0,0,1,0,36970.4,0.310374,0.310058,-0.198286,55,0.793244,10,-6.14799e-05,-3.70271,-0.466926,-0.126358,0.310145,
2,0,0,1,0,36971.2,0.306379,0.306103,-0.201468,55,0.793073,10,-6.16698e-05,-3.69579,-0.643199,-0.091729,0.306191,
2,0,0,1,0,36972,0.302385,0.302083,-0.202702,55,0.792901,10,-6.12326e-05,-3.69314,-0.754042,-0.078245,0.302172,
2,0,0,1,0,36972.8,0.298389,0.298101,-0.206464,55,0.792727,10,-6.1547e-05,-3.68516,-0.593259,-0.0994507,0.298191,
2,0,0,0,0,36973.6,0.294394,0.294082,-0.209051,55,0.79255,10,-6.1478e-05,-3.67975,-1.17898,-0.0500434,0.294174,
2,0,0,1,0,36974.4,0.290398,0.290144,-0.211369,55,0.792372,10,-6.13274e-05,-3.67496,-0.732512,-0.0805447,0.290237,
2,0,0,1,0,36975.2,0.286403,0.286082,-0.214189,55,0.792191,10,-6.12757e-05,-3.6692,-0.586245,-0.10064,0.286176,
2,0,0,1,0,36976,0.282408,0.282073,-0.216387,55,0.792008,10,-6.10369e-05,-3.66477,-0.908886,-0.0649146,0.282168,
2,0,0,1,0,36976.8,0.278414,0.278092,-0.219065,55,0.791823,10,-6.09203e-05,-3.65943,-0.750582,-0.0786057,0.278189,
2,0,0,0,0,36977.6,0.274418,0.274107,-0.222388,55,0.791636,10,-6.09581e-05,-3.65289,-0.630039,-0.093645,0.274205,
2,0,0,1,0,36978.4,0.270423,0.270136,-0.225449,55,0.791447,10,-6.09018e-05,-3.64695,-1.15575,-0.0510491,0.270235,
2,0,0,1,0,36979.2,0.266427,0.266097,-0.227255,55,0.791255,10,-6.0472e-05,-3.64349,-0.678298,-0.0869824,0.266197,
2,0,0,1,0,36980,0.262432,0.262135,-0.229672,55,0.791062,10,-6.02051e-05,-3.63889,-0.774944,-0.0761345,0.262236,
2,0,0,1,0,36980.8,0.258437,0.258104,-0.231868,55,0.790866,10,-5.9846e-05,-3.63476,-1.09134,-0.0540621,0.258206,
2,0,0,0,0,36981.6,0.254442,0.254112,-0.234633,55,0.790669,10,-5.96231e-05,-3.62961,-0.512778,-0.115059,0.254215,
2,0,0,1,0,36982.4,0.250447,0.250111,-0.238126,55,0.790469,10,-5.95578e-05,-3.62319,-4.98369,-0.0118386,0.250216,
2,0,0,0,0,36983.2,0.246452,0.246193,-0.24078,55,0.790267,10,-5.92782e-05,-3.61838,-0.650365,-0.0907183,0.246299,
2,0,0,1,0,36984,0.242456,0.242094,-0.243336,55,0.790063,10,-5.89103e-05,-3.61379,-0.890761,-0.0662355,0.242201,
2,0,0,1,0,36984.8,0.238461,0.238127,-0.2462,55,0.789857,10,-5.8627e-05,-3.60871,-0.637287,-0.0925799,0.238236,
2,0,0,1,0,36985.6,0.234467,0.234162,-0.247854,55,0.789649,10,-5.8038e-05,-3.6058,-1.10551,-0.0533689,0.234271,
2,0,0,1,0,36986.4,0.230471,0.230158,-0.249096,55,0.789439,10,-5.73314e-05,-3.60363,-1.17601,-0.0501694,0.230268,
2,0,0,0,0,36987.2,0.226476,0.226168,-0.252451,55,0.789227,10,-5.70963e-05,-3.59782,-1.04359,-0.0565356,0.226279,
2,0,0,1,0,36988,0.222481,0.222144,-0.25438,55,0.789013,10,-5.6509e-05,-3.59452,-0.806726,-0.0731351,0.222256,
2,0,0,1,0,36988.8,0.218485,0.218157,-0.257661,55,0.788797,10,-5.62107e-05,-3.58895,-1.23712,-0.0476915,0.218271,
2,0,0,1,0,36989.6,0.21449,0.214181,-0.261798,55,0.788579,10,-5.60722e-05,-3.58203,-0.532942,-0.110706,0.214296,
2,0,0,1,0,36990.4,0.210496,0.210179,-0.26351,55,0.788358,10,-5.53841e-05,-3.5792,-1.15653,-0.0510145,0.210294,
2,0,0,0,0,36991.2,0.2065,0.206199,-0.267421,55,0.788135,10,-5.51421e-05,-3.5728,-0.742884,-0.0794202,0.206317,
2,0,0,1,0,36992,0.202505,0.202192,-0.269923,55,0.787909,10,-5.45763e-05,-3.56876,-0.750783,-0.0785846,0.202311,
2,0,0,1,0,36992.8,0.198509,0.198196,-0.273262,55,0.787681,10,-5.41595e-05,-3.56342,-0.706415,-0.0835203,0.198316,
2,0,0,1,0,36993.6,0.194514,0.194207,-0.27682,55,0.78745,10,-5.37604e-05,-3.5578,-0.731659,-0.0806387,0.194329,
2,0,0,1,0,36994.4,0.190519,0.190167,-0.280079,55,0.787215,10,-5.32619e-05,-3.55272,-0.486101,-0.121374,0.190291,
2,0,0,0,0,36995.2,0.186524,0.186185,-0.285395,55,0.786978,10,-5.31364e-05,-3.54455,-1.15539,-0.0510648,0.186311,
2,0,0,1,0,36996,0.182529,0.182231,-0.290523,55,0.786737,10,-5.29423e-05,-3.53682,-0.375949,-0.156936,0.182359,
2,0,0,0,0,36996.8,0.178534,0.178197,-0.295622,55,0.786491,10,-5.2679e-05,-3.52926,-0.539101,-0.109442,0.178327,
2,0,0,1,0,36997.6,0.174538,0.174234,-0.301701,55,0.786241,10,-5.25665e-05,-3.52042,-0.44139,-0.133668,0.174367,
2,0,0,1,0,36998.4,0.170543,0.17022,-0.308021,55,0.785986,10,-5.24313e-05,-3.51142,-0.33627,-0.175454,0.170355,
2,0,0,1,0,36999.2,0.166549,0.166218,-0.317263,55,0.785724,10,-5.27348e-05,-3.49858,-0.332877,-0.177243,0.166358,
2,0,0,1,0,36999.9,0.162553,0.162236,-0.326272,55,0.785455,10,-5.29331e-05,-3.48642,-0.265863,-0.221919,0.16238,
2,0,0,0,0,37000.7,0.158558,0.158211,-0.338332,55,0.785177,10,-5.35277e-05,-3.47066,-0.221236,-0.266683,0.15836,
2,0,0,1,0,37001.5,0.154563,0.154234,-0.356374,55,0.784887,10,-5.4965e-05,-3.44809,-0.184203,-0.320299,0.154391,
2,0,0,1,0,37002.3,0.150567,0.150229,-0.379296,55,0.784582,10,-5.69812e-05,-3.42102,-0.12754,-0.462602,0.150396,
2,0,0,1,0,37003.1,0.146572,0.146251,-0.406791,55,0.784256,10,-5.94934e-05,-3.39063,-0.114861,-0.513666,0.14643,
2,0,0,1,0,37003.9,0.142578,0.142211,-0.446117,55,0.783904,10,-6.34425e-05,-3.35055,-0.0947144,-0.622925,0.142407,
2,0,0,0,0,37004.7,0.138582,0.138291,-0.491964,55,0.783518,10,-6.80342e-05,-3.30807,-0.0920349,-0.641061,0.138507,
2,0,0,1,0,37005.5,0.134587,0.134223,-0.543459,55,0.783092,10,-7.29449e-05,-3.26483,-0.0970262,-0.608083,0.134462,
2,0,0,1,0,37006.3,0.130591,0.130262,-0.594023,55,0.782625,10,-7.73786e-05,-3.2262,-0.114663,-0.514553,0.130523,
2,0,0,1,0,37007.1,0.126596,0.126249,-0.634845,55,0.78212,10,-8.01487e-05,-3.19733,-0.154447,-0.382008,0.126529,
2,0,0,1,0,37007.9,0.122602,0.122314,-0.666882,55,0.781586,10,-8.1569e-05,-3.17595,-0.273968,-0.215354,0.122607,
2,0,0,1,0,37008.7,0.118607,0.118261,-0.685587,55,0.781032,10,-8.10785e-05,-3.16394,-0.424512,-0.138983,0.118563,
2,0,0,1,0,37009.5,0.114611,0.114274,-0.69368,55,0.780468,10,-7.92696e-05,-3.15884,-1.96939,-0.0299586,0.114579,
2,0,0,0,0,37010.3,0.110616,0.110283,-0.694954,55,0.7799,10,-7.66413e-05,-3.15804,4.94833,0.0119232,0.110588,
2,0,0,1,0,37011.1,0.10662,0.106304,-0.691228,55,0.779333,10,-7.348e-05,-3.16038,4.20638,0.0140263,0.106608,
2,0,0,1,0,37011.9,0.102625,0.102297,-0.686465,55,0.778769,10,-7.0223e-05,-3.16338,0.757735,0.0778636,0.102599,
2,0,0,1,0,37012.7,0.0986305,0.0982907,-0.68048,55,0.77821,10,-6.68848e-05,-3.16718,1.26451,0.0466584,0.0985901,
2,0,0,1,0,37013.5,0.0946351,0.0942947,-0.670629,55,0.777657,10,-6.32368e-05,-3.17352,0.599744,0.0983754,0.0945898,
2,0,0,0,0,37014.3,0.0906399,0.090297,-0.663849,55,0.77711,10,-5.99436e-05,-3.17793,0.599022,0.0984939,0.0905891,
2,0,0,1,0,37015.1,0.0866448,0.0862855,-0.65393,55,0.776572,10,-5.64247e-05,-3.18447,0.727704,0.0810769,0.0865732,
2,0,0,1,0,37015.9,0.0826492,0.0823182,-0.64537,55,0.77604,10,-5.31257e-05,-3.19019,0.689099,0.0856191,0.0826022,
2,0,0,1,0,37016.7,0.0786544,0.0783123,-0.635752,55,0.775516,10,-4.97872e-05,-3.19671,0.724663,0.0814171,0.0785921,
2,0,0,1,0,37017.5,0.0746596,0.0743203,-0.628071,55,0.774999,10,-4.66784e-05,-3.20199,0.758973,0.0777367,0.0745966,
2,0,0,0,0,37018.3,0.0706641,0.070338,-0.619307,55,0.774488,10,-4.35609e-05,-3.20809,0.559344,0.105481,0.0706105,
2,0,0,1,0,37019.1,0.0666689,0.0663753,-0.61173,55,0.773985,10,-4.06037e-05,-3.21344,0.830732,0.0710217,0.0666445,
2,0,0,0,0,37019.9,0.0626737,0.0623786,-0.602692,55,0.773487,10,-3.75951e-05,-3.2199,0.681244,0.0866062,0.0626438,
2,0,0,1,0,37020.7,0.0586783,0.0583203,-0.594828,55,0.772996,10,-3.46906e-05,-3.22561,0.521936,0.113041,0.058582,
2,0,0,1,0,37021.5,0.0546835,0.0543494,-0.586769,55,0.772512,10,-3.18906e-05,-3.23153,0.781706,0.075476,0.0546076,
2,0,0,1,0,37022.3,0.0506886,0.0503827,-0.577003,55,0.772034,10,-2.9071e-05,-3.23882,0.484229,0.121843,0.0506366,
2,0,0,1,0,37023.1,0.046693,0.0464121,-0.566792,55,0.771566,10,-2.6306e-05,-3.24658,0.536392,0.109994,0.0466615,
2,0,0,0,0,37023.9,0.0426979,0.0423719,-0.557028,55,0.771104,10,-2.36024e-05,-3.25412,0.590058,0.0999902,0.042617,
2,0,0,1,0,37024.7,0.0387022,0.0383526,-0.547684,55,0.770651,10,-2.10051e-05,-3.26147,0.436202,0.135258,0.0385935,
2,0,0,1,0,37025.5,0.0347074,0.0343891,-0.53765,55,0.770205,10,-1.84893e-05,-3.2695,0.596418,0.0989238,0.0346257,
2,0,0,1,0,37026.3,0.0307126,0.0303758,-0.527119,55,0.769768,10,-1.60117e-05,-3.27809,0.56808,0.103859,0.0306078,
2,0,0,1,0,37027.1,0.0267172,0.02638,-0.519369,55,0.769338,10,-1.37009e-05,-3.28452,0.472509,0.124865,0.0266085,
2,0,0,0,0,37027.9,0.022722,0.0223578,-0.510556,55,0.768914,10,-1.14149e-05,-3.29196,0.840262,0.0702162,0.0225825,
2,0,0,1,0,37028.7,0.0187268,0.0183993,-0.504574,55,0.768497,10,-9.28383e-06,-3.29707,0.564895,0.104444,0.0186213,
2,0,0,1,0,37029.5,0.0147313,0.014395,-0.500351,55,0.768084,10,-7.20255e-06,-3.30072,1.35856,0.0434284,0.0146151,
2,0,0,1,0,37030.3,0.0107365,0.0104335,-0.495448,55,0.767676,10,-5.16924e-06,-3.305,1.30626,0.0451672,0.0106515,
2,0,0,1,0,37031.1,0.00674163,0.00644672,-0.493111,55,0.767269,10,-3.17895e-06,-3.30706,24.702,0.00238847,0.00666369,
2,0,0,0,0,37031.9,0.00274612,0.00240946,-0.493375,55,0.766863,10,-1.18877e-06,-3.30682,-1.80845,-0.0326247,0.00262655,
2,0,0,1,0,37032.4,0.000274105,-9.62757e-05,-0.494807,55,0.76661,10,4.76379e-08,-3.30556, , ,0.000121439,