File: Figure_codes/Fig_3-5/workspace_calculate_alpha_eff/20221101_1-115_003_TrumpetPlot_ParaChange_from10_every3_16_CV_C01_65.csv
mode,ox/red,error,control changes,counter inc.,time/s,control/V,Ewe/V,<I>/mA,cycle number,(Q-Qo)/C,I Range,P/W,log(|I|),Tafel slope mV/dec,alpha_eff,E-IR/V,
2,0,0,0,0,43342.9,2.44065e-05,-0.000363498,-0.0936697,66,0.0000000E+000,10,3.40488e-08,-4.0284, , ,-0.000322283,
2,1,0,0,0,43343.6,0.00379485,0.0034476,0.144387,66,9.14104e-05,10,4.9779e-07,-3.84047,0.0344948,1.7104,0.00338407,
2,1,0,1,0,43344.4,0.00779002,0.00747078,0.166073,66,0.000228874,10,1.24069e-06,-3.7797,0.0725406,0.813338,0.00739771,
2,1,0,0,0,43345.2,0.0117852,0.0114855,0.182096,66,0.000381731,10,2.09146e-06,-3.7397,0.114382,0.515817,0.0114054,
2,1,0,1,0,43346,0.0157806,0.0154664,0.19779,66,0.000546406,10,3.05909e-06,-3.7038,0.143461,0.411261,0.0153794,
2,1,0,1,0,43346.8,0.0197754,0.0194639,0.210012,66,0.000721751,10,4.08765e-06,-3.67776,0.151037,0.390634,0.0193715,
2,1,0,1,0,43347.6,0.0237704,0.0234775,0.223221,66,0.000907619,10,5.24068e-06,-3.65126,0.147635,0.399635,0.0233793,
2,1,0,1,0,43348.4,0.0277659,0.0274085,0.237701,66,0.00110418,10,6.51505e-06,-3.62397,0.160687,0.367174,0.027304,
2,1,0,0,0,43349.2,0.0317611,0.0314614,0.251516,66,0.001312,10,7.91305e-06,-3.59943,0.160578,0.367423,0.0313508,
2,1,0,1,0,43350,0.0357567,0.0354384,0.26552,66,0.0015313,10,9.4096e-06,-3.5759,0.19718,0.299219,0.0353216,
2,1,0,1,0,43350.8,0.0397516,0.0394094,0.279521,66,0.00176139,10,1.10157e-05,-3.55359,0.168086,0.35101,0.0392864,
2,1,0,1,0,43351.6,0.0437465,0.0434355,0.292664,66,0.00200318,10,1.2712e-05,-3.53363,0.172548,0.341933,0.0433067,
2,1,0,1,0,43352.4,0.0477413,0.0474042,0.308039,66,0.00225563,10,1.46023e-05,-3.51139,0.210723,0.279989,0.0472686,
2,1,0,0,0,43353.2,0.0517369,0.0513833,0.320196,66,0.00251845,10,1.64527e-05,-3.49458,0.251905,0.234215,0.0512424,
2,1,0,1,0,43354,0.0557321,0.0553471,0.331373,66,0.00279147,10,1.83405e-05,-3.47968,0.282745,0.208669,0.0552013,
2,1,0,1,0,43354.8,0.0597277,0.0594057,0.343003,66,0.00307321,10,2.03763e-05,-3.4647,0.281841,0.209338,0.0592548,
2,1,0,1,0,43355.6,0.0637226,0.0633829,0.35358,66,0.00336377,10,2.2411e-05,-3.45151,0.306167,0.192705,0.0632273,
2,1,0,1,0,43356.4,0.0677174,0.0674417,0.36406,66,0.00366326,10,2.45528e-05,-3.43883,0.492037,0.11991,0.0672815,
2,1,0,0,0,43357.2,0.0717128,0.0713995,0.37267,66,0.00396997,10,2.66084e-05,-3.42868,0.326582,0.180659,0.0712355,
2,1,0,1,0,43358,0.075708,0.0753527,0.379899,66,0.00428387,10,2.86264e-05,-3.42033,0.394976,0.149376,0.0751856,
2,1,0,0,0,43358.8,0.0797031,0.0793642,0.389572,66,0.00460408,10,3.09181e-05,-3.40941,0.433819,0.136002,0.0791928,
2,1,0,1,0,43359.6,0.0836986,0.0833759,0.397966,66,0.00493108,10,3.31807e-05,-3.40015,0.349092,0.16901,0.0832008,
2,1,0,1,0,43360.4,0.0876935,0.0873767,0.408151,66,0.00526625,10,3.56629e-05,-3.38918,0.365713,0.161329,0.0871971,
2,1,0,1,0,43361.2,0.0916883,0.0913496,0.422002,66,0.00561042,10,3.85497e-05,-3.37469,0.240573,0.245248,0.091164,
2,1,0,1,0,43362,0.0956838,0.0953371,0.438255,66,0.00596694,10,4.17819e-05,-3.35827,0.223884,0.26353,0.0951443,
2,1,0,0,0,43362.8,0.099679,0.0993645,0.459448,66,0.00633786,10,4.56529e-05,-3.33776,0.214,0.275701,0.0991624,
2,1,0,1,0,43363.6,0.103674,0.10334,0.479191,66,0.00672532,10,4.95196e-05,-3.31949,0.185205,0.318567,0.103129,
2,1,0,1,0,43364.4,0.10767,0.107344,0.501037,66,0.00713132,10,5.37835e-05,-3.30013,0.222406,0.265281,0.107124,
2,1,0,1,0,43365.2,0.111664,0.111313,0.522362,66,0.00755367,10,5.81457e-05,-3.28203,0.248053,0.237853,0.111083,
2,1,0,1,0,43366,0.115659,0.115315,0.538253,66,0.0079903,10,6.20685e-05,-3.26901,0.302914,0.194774,0.115078,
2,1,0,0,0,43366.8,0.119655,0.11934,0.55116,66,0.00843912,10,6.57757e-05,-3.25872,0.721285,0.0817985,0.119098,
2,1,0,1,0,43367.6,0.12365,0.123342,0.562248,66,0.00889633,10,6.93491e-05,-3.25007,0.456891,0.129134,0.123095,
2,1,0,1,0,43368.4,0.127646,0.127312,0.568819,66,0.0093614,10,7.24175e-05,-3.24503,0.803985,0.0733845,0.127062,
2,1,0,1,0,43369.2,0.131641,0.131297,0.573032,66,0.00983103,10,7.52372e-05,-3.24182,-0.889802,-0.0663069,0.131045,
2,1,0,1,0,43370,0.135635,0.135338,0.561908,66,0.0102972,10,7.60472e-05,-3.25034,-0.309098,-0.190878,0.13509,
2,1,0,0,0,43370.8,0.139631,0.139343,0.530791,66,0.0107481,10,7.3962e-05,-3.27508,-0.116952,-0.504482,0.139109,
2,1,0,1,0,43371.6,0.143626,0.1433,0.48375,66,0.0111672,10,6.93216e-05,-3.31538,-0.0815387,-0.723583,0.143088,
2,1,0,0,0,43372.4,0.147621,0.147309,0.424743,66,0.011542,10,6.25684e-05,-3.37187,-0.0684072,-0.862482,0.147122,
2,1,0,1,0,43373.2,0.151617,0.151289,0.371452,66,0.0118717,10,5.61966e-05,-3.4301,-0.0745402,-0.791519,0.151125,
2,1,0,1,0,43374,0.155612,0.155324,0.334851,66,0.0121644,10,5.20106e-05,-3.47515,-0.101427,-0.5817,0.155177,
2,1,0,1,0,43374.8,0.159606,0.159293,0.309141,66,0.0124327,10,4.9244e-05,-3.50984,-0.15954,-0.369813,0.159157,
2,1,0,1,0,43375.6,0.163602,0.163282,0.29402,66,0.0126853,10,4.8008e-05,-3.53162,-0.18517,-0.318626,0.163152,
2,1,0,0,0,43376.4,0.167597,0.167261,0.282575,66,0.0129271,10,4.72639e-05,-3.54887,-0.285853,-0.2064,0.167137,
2,1,0,1,0,43377.2,0.171592,0.171266,0.274237,66,0.0131617,10,4.69675e-05,-3.56187,-0.420025,-0.140468,0.171146,
2,1,0,1,0,43378,0.175588,0.175308,0.269312,66,0.0133909,10,4.72126e-05,-3.56974,-0.542706,-0.108714,0.17519,
2,1,0,1,0,43378.8,0.179582,0.179222,0.264587,66,0.0136161,10,4.74198e-05,-3.57743,-0.830748,-0.0710203,0.179105,
2,1,0,1,0,43379.6,0.183577,0.18325,0.260675,66,0.0138382,10,4.77687e-05,-3.5839,-0.547184,-0.107825,0.183135,
2,1,0,0,0,43380.4,0.187573,0.187255,0.258252,66,0.0140576,10,4.8359e-05,-3.58796,-0.868723,-0.0679158,0.187142,
2,1,0,1,0,43381.2,0.191568,0.191229,0.255657,66,0.0142749,10,4.8889e-05,-3.59234,-0.817733,-0.0721507,0.191116,
2,1,0,0,0,43382,0.195563,0.195255,0.255349,66,0.0144906,10,4.98581e-05,-3.59287,-1.46285,-0.0403322,0.195143,
2,1,0,1,0,43382.8,0.199559,0.199245,0.252372,66,0.0147044,10,5.0284e-05,-3.59796,-1.2931,-0.0456266,0.199134,
2,1,0,1,0,43383.6,0.203553,0.203238,0.250286,66,0.014917,10,5.08676e-05,-3.60156,-1.31695,-0.0448005,0.203127,
2,1,0,1,0,43384.4,0.207548,0.207254,0.249029,66,0.0151284,10,5.16124e-05,-3.60375,-2.74332,-0.0215068,0.207145,
2,1,0,1,0,43385.2,0.211544,0.211182,0.247186,66,0.0153383,10,5.22013e-05,-3.60698,-7.01651,-0.00840874,0.211074,
2,1,0,0,0,43386,0.215539,0.215215,0.245852,66,0.0155473,10,5.2911e-05,-3.60933,-0.961756,-0.0613461,0.215107,
2,1,0,1,0,43386.8,0.219535,0.219224,0.245033,66,0.0157552,10,5.3717e-05,-3.61078,-11.6213,-0.0050769,0.219116,
2,1,0,1,0,43387.6,0.223529,0.223219,0.244546,66,0.0159622,10,5.45874e-05,-3.61164,-1.19441,-0.0493968,0.223111,
2,1,0,1,0,43388.4,0.227524,0.227236,0.242761,66,0.0161686,10,5.5164e-05,-3.61482,-1.58785,-0.0371572,0.227129,
2,1,0,1,0,43389.2,0.23152,0.231226,0.242713,66,0.0163739,10,5.61216e-05,-3.61491,-3.23702,-0.0182266,0.231119,
2,1,0,0,0,43390,0.235515,0.235173,0.240268,66,0.0165787,10,5.65044e-05,-3.6193,-23.5758,-0.00250256,0.235067,
2,1,0,1,0,43390.8,0.23951,0.239171,0.241124,66,0.0167825,10,5.76699e-05,-3.61776,-1.2475,-0.0472948,0.239065,
2,1,0,1,0,43391.6,0.243506,0.243198,0.23977,66,0.0169858,10,5.83116e-05,-3.62021,6.93005,0.00851365,0.243093,
2,1,0,1,0,43392.4,0.2475,0.247207,0.239461,66,0.0171886,10,5.91964e-05,-3.62076,-1.32254,-0.0446111,0.247101,
2,1,0,1,0,43393.2,0.251495,0.251212,0.238238,66,0.0173906,10,5.98483e-05,-3.62299,-3.56626,-0.0165439,0.251107,
2,1,0,0,0,43394,0.255491,0.255192,0.237821,66,0.017592,10,6.069e-05,-3.62375,-4.41894,-0.0133516,0.255088,
2,1,0,1,0,43394.8,0.259486,0.259218,0.237557,66,0.0177929,10,6.1579e-05,-3.62423,-1.71395,-0.0344235,0.259113,
2,1,0,0,0,43395.5,0.263481,0.263169,0.237135,66,0.0179931,10,6.24064e-05,-3.625,-5.0304,-0.0117287,0.263064,
2,1,0,1,0,43396.3,0.267477,0.267197,0.234018,66,0.0181928,10,6.25288e-05,-3.63075,-2.79894,-0.0210794,0.267094,
2,1,0,1,0,43397.1,0.271471,0.271212,0.234859,66,0.0183918,10,6.36966e-05,-3.62919,-4.79432,-0.0123062,0.271108,
2,1,0,1,0,43397.9,0.275466,0.275203,0.234341,66,0.0185899,10,6.44912e-05,-3.63015,-3.14203,-0.0187777,0.2751,
2,1,0,1,0,43398.7,0.279462,0.279191,0.232962,66,0.0187874,10,6.5041e-05,-3.63271,-1.77799,-0.0331836,0.279089,
2,1,0,0,0,43399.5,0.283457,0.283186,0.232071,66,0.018984,10,6.57194e-05,-3.63438,-2.20551,-0.0267512,0.283084,
2,1,0,1,0,43400.3,0.287452,0.287173,0.23056,66,0.01918,10,6.62106e-05,-3.63722,-2.20247,-0.0267881,0.287072,
2,1,0,1,0,43401.1,0.291448,0.291158,0.230899,66,0.0193752,10,6.72282e-05,-3.63658,-0.985377,-0.0598756,0.291057,
2,1,0,1,0,43401.9,0.295442,0.295128,0.228643,66,0.0195694,10,6.74789e-05,-3.64084,0.993928,0.0593605,0.295028,
2,1,0,1,0,43402.7,0.299437,0.299158,0.227934,66,0.0197632,10,6.81883e-05,-3.64219,-0.918294,-0.0642496,0.299057,
2,1,0,0,0,43403.5,0.303433,0.303126,0.228162,66,0.0199563,10,6.91619e-05,-3.64176,-2.67617,-0.0220465,0.303025,
2,1,0,1,0,43404.3,0.307428,0.307125,0.227247,66,0.0201487,10,6.9793e-05,-3.6435,-22.7399,-0.00259456,0.307025,
2,1,0,1,0,43405.1,0.311424,0.311103,0.226825,66,0.0203408,10,7.0566e-05,-3.64431,-2.87594,-0.020515,0.311003,
2,1,0,1,0,43405.9,0.315418,0.315087,0.226368,66,0.020532,10,7.13256e-05,-3.64519,-1.78576,-0.0330391,0.314988,
2,1,0,1,0,43406.7,0.319413,0.319082,0.225091,66,0.0207224,10,7.18224e-05,-3.64764,-2.59501,-0.022736,0.318983,
2,1,0,0,0,43407.5,0.323409,0.323142,0.224967,66,0.0209126,10,7.26965e-05,-3.64788,-1.17114,-0.0503783,0.323043,
2,1,0,1,0,43408.3,0.327404,0.327078,0.224474,66,0.0211021,10,7.34207e-05,-3.64883,2.48424,0.0237497,0.32698,
2,1,0,0,0,43409.1,0.331399,0.331079,0.223259,66,0.0212914,10,7.39165e-05,-3.65119,-6.07959,-0.0097046,0.330981,
2,1,0,1,0,43409.9,0.335395,0.335102,0.223236,66,0.0214801,10,7.48068e-05,-3.65124,-4.6918,-0.0125751,0.335003,
2,1,0,1,0,43410.7,0.339389,0.339084,0.221938,66,0.0216681,10,7.52558e-05,-3.65377,-4.17419,-0.0141345,0.338987,
2,1,0,1,0,43411.5,0.343384,0.343069,0.221606,66,0.0218558,10,7.60262e-05,-3.65442,-1.76866,-0.0333587,0.342972,
2,1,0,1,0,43412.3,0.34738,0.347084,0.221047,66,0.0220429,10,7.67218e-05,-3.65552,6.48153,0.00910279,0.346987,
2,1,0,0,0,43413.1,0.351375,0.351097,0.221142,66,0.0222299,10,7.76424e-05,-3.65533,-31.7969,-0.00185553,0.350999,
2,1,0,1,0,43413.9,0.35537,0.355021,0.220253,66,0.0224162,10,7.81944e-05,-3.65708,-0.787012,-0.074967,0.354924,
2,1,0,1,0,43414.7,0.359366,0.359048,0.21985,66,0.0226019,10,7.89367e-05,-3.65787,2.88629,0.0204415,0.358951,
2,1,0,1,0,43415.5,0.36336,0.36309,0.218276,66,0.0227873,10,7.92537e-05,-3.66099,-17.0922,-0.00345187,0.362993,
2,1,0,1,0,43416.3,0.367355,0.36704,0.219553,66,0.0229724,10,8.05849e-05,-3.65846,66.3337,0.000889442,0.366944,
2,1,0,0,0,43417.1,0.371351,0.371059,0.217862,66,0.023157,10,8.08397e-05,-3.66182,10.6293,0.00555071,0.370963,
2,1,0,1,0,43417.9,0.375346,0.375079,0.218254,66,0.0233415,10,8.18624e-05,-3.66104,-1.24305,-0.0474638,0.374983,
2,1,0,1,0,43418.7,0.379342,0.379045,0.219082,66,0.0235254,10,8.30418e-05,-3.65939,15.8019,0.00373372,0.378949,
2,1,0,1,0,43419.5,0.383336,0.383045,0.21796,66,0.0237091,10,8.34885e-05,-3.66162,-3.50205,-0.0168473,0.382949,
2,1,0,1,0,43420.3,0.387331,0.387035,0.217606,66,0.0238926,10,8.42211e-05,-3.66233,-1.23219,-0.0478821,0.386939,
2,1,0,0,0,43421.1,0.391327,0.391044,0.217345,66,0.0240755,10,8.49916e-05,-3.66285,4.72937,0.0124752,0.390949,
2,1,0,1,0,43421.9,0.395322,0.394996,0.215374,66,0.0242584,10,8.50719e-05,-3.66681,-7.44753,-0.00792209,0.394902,
2,1,0,0,0,43422.7,0.399317,0.399039,0.21625,66,0.0244409,10,8.62921e-05,-3.66504,3.61145,0.0163369,0.398943,
2,1,0,1,0,43423.5,0.403313,0.403029,0.217237,66,0.0246233,10,8.75528e-05,-3.66307,9.79055,0.00602622,0.402934,
2,1,0,1,0,43424.3,0.407307,0.406994,0.216995,66,0.0248056,10,8.83156e-05,-3.66355,-4.2291,-0.013951,0.406899,
2,1,0,1,0,43425.1,0.411302,0.41095,0.216816,66,0.0249876,10,8.91004e-05,-3.66391,-12.8818,-0.00458011,0.410854,
2,1,0,1,0,43425.9,0.415298,0.415004,0.215994,66,0.0251696,10,8.96383e-05,-3.66556,3.49137,0.0168988,0.414909,
2,1,0,0,0,43426.7,0.419293,0.419035,0.215561,66,0.0253514,10,9.03275e-05,-3.66643,-1.04769,-0.0563146,0.41894,
2,1,0,1,0,43427.5,0.423288,0.423001,0.215807,66,0.0255328,10,9.12863e-05,-3.66594,1.75868,0.0335478,0.422906,
2,1,0,1,0,43428.3,0.427283,0.426951,0.215927,66,0.0257143,10,9.219e-05,-3.66569,-332.571,-0.000177406,0.426856,
2,1,0,1,0,43429.1,0.431278,0.431026,0.215939,66,0.0258957,10,9.30753e-05,-3.66567,-14.7565,-0.00399824,0.430931,
2,1,0,1,0,43429.9,0.435273,0.43493,0.215541,66,0.0260769,10,9.37453e-05,-3.66647,-3.59838,-0.0163963,0.434835,
2,1,0,0,0,43430.7,0.439269,0.438949,0.215219,66,0.026258,10,9.44704e-05,-3.66712,45.9051,0.00128526,0.438854,
2,1,0,1,0,43431.5,0.443264,0.442938,0.216185,66,0.0264389,10,9.57567e-05,-3.66517,7.73088,0.00763173,0.442843,
2,1,0,0,0,43432.3,0.447259,0.446949,0.216612,66,0.0266197,10,9.68144e-05,-3.66432,7.05465,0.00836328,0.446853,
2,1,0,1,0,43433.1,0.451254,0.451008,0.215753,66,0.0268009,10,9.73063e-05,-3.66604,-1.73185,-0.0340676,0.450913,
2,1,0,1,0,43433.9,0.455249,0.455,0.215991,66,0.0269817,10,9.82758e-05,-3.66556,1.24877,0.0472464,0.454905,
2,1,0,1,0,43434.7,0.459244,0.45901,0.21537,66,0.0271631,10,9.88571e-05,-3.66681,4.99341,0.0118156,0.458916,
2,1,0,1,0,43435.5,0.46324,0.46293,0.217375,66,0.0273446,10,0.000100629,-3.66279,-12.037,-0.00490154,0.462835,
2,1,0,0,0,43436.3,0.467235,0.466982,0.217923,66,0.0275261,10,0.000101766,-3.6617,2.14587,0.0274947,0.466886,
2,1,0,1,0,43437.1,0.471231,0.47094,0.217357,66,0.0277082,10,0.000102362,-3.66283,-2.07686,-0.0284083,0.470844,
2,1,0,1,0,43437.9,0.475225,0.474955,0.218425,66,0.0278903,10,0.000103742,-3.6607,0.739512,0.0797824,0.474859,
2,1,0,1,0,43438.7,0.47922,0.478959,0.218254,66,0.0280728,10,0.000104535,-3.66104,-2.77154,-0.0212878,0.478863,
2,1,0,1,0,43439.5,0.483216,0.482909,0.218854,66,0.028256,10,0.000105687,-3.65984,42.654,0.00138322,0.482813,
2,1,0,0,0,43440.3,0.487211,0.486895,0.21929,66,0.0284393,10,0.000106771,-3.65898,1.31123,0.0449961,0.486799,
2,1,0,1,0,43441.1,0.491206,0.490884,0.220181,66,0.028623,10,0.000108083,-3.65722,4.63951,0.0127169,0.490787,
2,1,0,1,0,43441.9,0.495201,0.494906,0.221212,66,0.0288074,10,0.000109479,-3.65519,1.51545,0.0389324,0.494809,
2,1,0,1,0,43442.7,0.499196,0.498885,0.222574,66,0.0289924,10,0.000111039,-3.65253,1.29234,0.0456535,0.498787,
2,1,0,1,0,43443.5,0.503191,0.502874,0.222832,66,0.0291782,10,0.000112057,-3.65202,-1.92179,-0.0307005,0.502776,
2,1,0,0,0,43444.3,0.507187,0.506862,0.224192,66,0.0293643,10,0.000113634,-3.64938,1.17882,0.0500503,0.506763,
2,1,0,1,0,43445.1,0.511182,0.510884,0.224813,66,0.0295511,10,0.000114853,-3.64818,2.3814,0.0247753,0.510785,
2,1,0,0,0,43445.9,0.515177,0.514875,0.22626,66,0.0297387,10,0.000116496,-3.64539,2.99425,0.0197044,0.514776,
2,1,0,1,0,43446.7,0.519173,0.518899,0.227098,66,0.0299273,10,0.000117841,-3.64379,1.04384,0.056522,0.518799,
2,1,0,1,0,43447.5,0.523167,0.522829,0.227225,66,0.0301169,10,0.0001188,-3.64354,1.84194,0.0320314,0.522729,
2,1,0,1,0,43448.3,0.527162,0.526883,0.229965,66,0.0303074,10,0.000121165,-3.63834,1.33226,0.0442856,0.526782,
2,1,0,1,0,43449.1,0.531158,0.530848,0.231936,66,0.0304991,10,0.000123123,-3.63463,1.4198,0.0415552,0.530746,
2,1,0,0,0,43449.9,0.535153,0.534878,0.233251,66,0.0306923,10,0.000124761,-3.63218,1.21479,0.0485681,0.534775,
2,1,0,1,0,43450.7,0.539148,0.538866,0.234764,66,0.0308865,10,0.000126507,-3.62937,1.33814,0.044091,0.538763,
2,1,0,1,0,43451.5,0.543143,0.542836,0.235618,66,0.0310822,10,0.000127902,-3.62779,0.953755,0.0618608,0.542733,
2,1,0,1,0,43452.3,0.547138,0.546815,0.238255,66,0.0312795,10,0.000130281,-3.62296,1.95395,0.0301952,0.54671,
2,1,0,1,0,43453.1,0.551133,0.550854,0.240884,66,0.0314785,10,0.000132692,-3.61819,0.582967,0.101206,0.550748,
2,1,0,0,0,43453.9,0.555129,0.554835,0.243009,66,0.0316795,10,0.00013483,-3.61438,0.802814,0.0734915,0.554728,
2,1,0,1,0,43454.7,0.559124,0.558849,0.245727,66,0.0318826,10,0.000137324,-3.60955,1.31159,0.0449836,0.558741,
2,1,0,1,0,43455.5,0.56312,0.562831,0.248996,66,0.0320877,10,0.000140142,-3.60381,0.691386,0.0853358,0.562721,
2,1,0,1,0,43456.3,0.567114,0.566826,0.25176,66,0.0322953,10,0.000142704,-3.59901,0.72084,0.0818489,0.566715,
2,1,0,1,0,43457.1,0.571109,0.570839,0.25542,66,0.0325051,10,0.000145803,-3.59275,0.640505,0.0921148,0.570727,
2,1,0,0,0,43457.9,0.575105,0.574837,0.258923,66,0.032718,10,0.000148839,-3.58683,0.604465,0.097607,0.574723,
2,1,0,1,0,43458.7,0.5791,0.578792,0.262701,66,0.032934,10,0.000152049,-3.58054,0.75869,0.0777656,0.578677,
2,1,0,0,0,43459.5,0.583095,0.582803,0.267699,66,0.0331534,10,0.000156016,-3.57235,0.438573,0.134527,0.582685,
2,1,0,1,0,43460.3,0.58709,0.58675,0.271484,66,0.0333764,10,0.000159293,-3.56626,0.493028,0.119669,0.586631,
2,1,0,1,0,43461.1,0.591085,0.590799,0.278497,66,0.0336038,10,0.000164536,-3.55518,0.370895,0.159075,0.590677,
2,1,0,1,0,43461.9,0.59508,0.594742,0.284828,66,0.0338358,10,0.000169399,-3.54542,0.417804,0.141214,0.594616,
2,1,0,1,0,43462.7,0.599076,0.598805,0.29198,66,0.0340733,10,0.000174839,-3.53465,0.378051,0.156064,0.598677,
2,1,0,0,0,43463.5,0.603071,0.6028,0.300267,66,0.0343168,10,0.000181001,-3.52249,0.314075,0.187853,0.602668,
2,1,0,1,0,43464.3,0.607066,0.606755,0.309005,66,0.0345672,10,0.00018749,-3.51003,0.279481,0.211105,0.606619,
2,1,0,1,0,43465.1,0.611061,0.610769,0.318981,66,0.0348255,10,0.000194824,-3.49624,0.291699,0.202263,0.610629,
2,1,0,1,0,43465.9,0.615056,0.614765,0.3312,66,0.0350923,10,0.00020361,-3.47991,0.229067,0.257566,0.614619,
2,1,0,1,0,43466.7,0.619051,0.618766,0.344473,66,0.0353698,10,0.000213148,-3.46284,0.214459,0.275111,0.618614,
2,1,0,0,0,43467.5,0.623047,0.622764,0.360572,66,0.0356588,10,0.000224551,-3.44301,0.193412,0.305048,0.622606,
2,1,0,1,0,43468.3,0.627042,0.62676,0.378861,66,0.0359613,10,0.000237455,-3.42152,0.174454,0.338197,0.626593,
2,1,0,1,0,43469.1,0.631037,0.630785,0.400887,66,0.0362805,10,0.000252874,-3.39698,0.159332,0.370295,0.630609,
2,1,0,1,0,43469.9,0.635032,0.63475,0.426513,66,0.0366181,10,0.000270729,-3.37007,0.140941,0.418615,0.634563,
2,1,0,1,0,43470.7,0.639027,0.638738,0.454987,66,0.0369772,10,0.000290618,-3.342,0.134922,0.43729,0.638538,
2,1,0,1,0,43471.5,0.643022,0.64273,0.489539,66,0.0373616,10,0.000314642,-3.31021,0.120083,0.491328,0.642515,
2,1,0,1,0,43472.3,0.647018,0.646724,0.52992,66,0.0377756,10,0.000342712,-3.27579,0.113042,0.521932,0.646491,
2,1,0,0,0,43473.1,0.651013,0.650685,0.574462,66,0.0382238,10,0.000373794,-3.24074,0.107703,0.547802,0.650432,
2,1,0,1,0,43473.9,0.655008,0.654727,0.62944,66,0.0387116,10,0.000412112,-3.20105,0.0952964,0.619121,0.65445,
2,1,0,1,0,43474.7,0.659003,0.658728,0.692113,66,0.0392467,10,0.000455914,-3.15982,0.0942225,0.626178,0.658423,
2,1,0,1,0,43475.5,0.662998,0.662732,0.76647,66,0.0398358,10,0.000507964,-3.11551,0.088086,0.6698,0.662394,
2,1,0,1,0,43476.3,0.666994,0.666692,0.850484,66,0.0404881,10,0.000567011,-3.07033,0.0847983,0.695769,0.666317,
2,1,0,0,0,43477.1,0.670989,0.67069,0.947005,66,0.0412131,10,0.000635147,-3.02365,0.0849554,0.694482,0.670274,
2,1,0,1,0,43477.8,0.674984,0.674705,1.05804,66,0.042021,10,0.000713868,-2.9755,0.0810324,0.728104,0.67424,
2,1,0,1,0,43478.6,0.67898,0.678658,1.18523,66,0.0429233,10,0.000804363,-2.9262,0.0795711,0.741475,0.678136,
2,1,0,1,0,43479.4,0.682974,0.682661,1.32707,66,0.0439334,10,0.000905938,-2.87711,0.0793533,0.74351,0.682078,
2,1,0,1,0,43480.2,0.686969,0.686703,1.48775,66,0.0450645,10,0.00102164,-2.82747,0.0808099,0.730109,0.686049,
2,1,0,0,0,43481,0.690965,0.690716,1.66545,66,0.0463305,10,0.00115035,-2.77847,0.0795395,0.74177,0.689983,
2,1,0,1,0,43481.8,0.69496,0.694687,1.86455,66,0.0477471,10,0.00129528,-2.72943,0.080443,0.733439,0.693867,
2,1,0,0,0,43482.6,0.698955,0.698691,2.08091,66,0.0493296,10,0.00145392,-2.68175,0.0818959,0.720427,0.697776,
2,1,0,1,0,43483.4,0.70295,0.702695,2.31835,66,0.0510938,10,0.00162909,-2.63482,0.0830511,0.710406,0.701675,
2,1,0,1,0,43484.2,0.706945,0.706665,2.57651,66,0.0530561,10,0.00182073,-2.58897,0.0863131,0.683558,0.705531,
2,1,0,1,0,43485,0.71094,0.710659,2.85537,66,0.0552324,10,0.00202919,-2.54434,0.0878445,0.671641,0.709402,
2,1,0,1,0,43485.8,0.714936,0.714655,3.15262,66,0.0576394,10,0.00225303,-2.50133,0.0911483,0.647297,0.713268,
2,1,0,0,0,43486.6,0.718931,0.718685,3.47504,66,0.0602932,10,0.00249746,-2.45904,0.0920062,0.641261,0.717156,
2,1,0,1,0,43487.4,0.722927,0.722665,3.81529,66,0.0632116,10,0.00275718,-2.41847,0.0973463,0.606084,0.720986,
2,1,0,1,0,43488.2,0.726921,0.726727,4.17865,66,0.0664111,10,0.00303673,-2.37896,0.0985794,0.598502,0.724888,
2,1,0,1,0,43489,0.730916,0.73064,4.56137,66,0.0699084,10,0.00333272,-2.3409,0.101489,0.581342,0.728633,
2,1,0,1,0,43489.8,0.734911,0.734654,4.96886,66,0.0737228,10,0.00365039,-2.30374,0.103708,0.568903,0.732467,
2,1,0,0,0,43490.6,0.738907,0.738614,5.4002,66,0.0778719,10,0.00398866,-2.26759,0.107592,0.548366,0.736238,
2,1,0,1,0,43491.4,0.742902,0.742666,5.85109,66,0.0823726,10,0.00434541,-2.23276,0.108503,0.543766,0.740092,
2,1,0,1,0,43492.2,0.746897,0.746638,6.33127,66,0.0872466,10,0.00472717,-2.19851,0.11364,0.519183,0.743852,
2,1,0,1,0,43493,0.750892,0.750602,6.83606,66,0.0925125,10,0.00513116,-2.16519,0.11411,0.517044,0.747594,
2,1,0,1,0,43493.8,0.754887,0.754618,7.36775,66,0.0981926,10,0.00555984,-2.13267,0.115793,0.509528,0.751376,
2,1,0,0,0,43494.6,0.758883,0.758588,7.92951,66,0.104311,10,0.00601523,-2.10075,0.118823,0.496536,0.7551,
2,1,0,1,0,43495.4,0.762878,0.762593,8.51975,66,0.110888,10,0.0064971,-2.06957,0.120261,0.490599,0.758844,
2,1,0,0,0,43496.2,0.766873,0.766598,9.1459,66,0.117952,10,0.00701123,-2.03877,0.120474,0.489734,0.762574,
2,1,0,1,0,43497,0.770868,0.770621,9.81308,66,0.125532,10,0.00756217,-2.00819,0.122583,0.481307,0.766304,
2,1,0,1,0,43497.8,0.774863,0.774625,10.5201,66,0.13366,10,0.00814917,-1.97798,0.121918,0.483932,0.769996,
2,1,0,1,0,43498.6,0.778858,0.778555,11.2708,66,0.142371,10,0.00877493,-1.94805,0.121217,0.486732,0.773595,
2,1,0,1,0,43499.4,0.782854,0.782594,12.0761,66,0.151703,10,0.00945068,-1.91807,0.122187,0.482867,0.77728,
2,1,0,0,0,43500.2,0.786849,0.786594,12.93,66,0.161698,10,0.0101707,-1.8884,0.119289,0.494598,0.780905,
2,1,0,1,0,43501,0.790844,0.790566,13.8508,66,0.172402,10,0.01095,-1.85853,0.122424,0.481931,0.784472,
2,1,0,1,0,43501.8,0.794839,0.794555,14.8315,66,0.183867,10,0.0117845,-1.82881,0.11862,0.497386,0.788029,
2,1,0,1,0,43502.6,0.798834,0.798596,15.8714,66,0.19614,10,0.0126748,-1.79938,0.122619,0.481165,0.791612,
2,1,0,1,0,43503.4,0.802829,0.802563,16.9757,66,0.20927,10,0.013624,-1.77017,0.119738,0.492741,0.795094,
2,1,0,0,0,43504.2,0.806825,0.806549,18.1442,66,0.223309,10,0.0146342,-1.74126,0.116739,0.505402,0.798565,
2,1,0,1,0,43505,0.81082,0.810539,19.401,66,0.238314,10,0.0157253,-1.71218,0.121138,0.487047,0.802002,
2,1,0,1,0,43505.8,0.814815,0.814496,20.7158,66,0.254351,10,0.0168729,-1.6837,0.120174,0.490956,0.805381,
2,1,0,1,0,43506.6,0.81881,0.818506,22.0743,66,0.271454,10,0.0180679,-1.65611,0.126334,0.467018,0.808793,
2,1,0,1,0,43507.4,0.822805,0.822574,23.4481,66,0.289655,10,0.0192878,-1.62989,0.135533,0.435319,0.812257,
2,1,0,0,0,43508.2,0.826801,0.826554,24.8582,66,0.308956,10,0.0205466,-1.60453,0.132362,0.445748,0.815617,
2,1,0,1,0,43509,0.830796,0.830525,26.3024,66,0.32941,10,0.0218448,-1.58,0.138766,0.425177,0.818952,
2,1,0,0,0,43509.8,0.834791,0.83457,27.8046,66,0.351029,10,0.0232049,-1.55588,0.141752,0.416221,0.822336,
2,1,0,1,0,43510.6,0.838786,0.838524,29.3112,66,0.373863,10,0.0245782,-1.53297,0.147481,0.400052,0.825627,
2,1,0,1,0,43511.4,0.842781,0.842544,30.7892,66,0.397889,10,0.0259412,-1.5116,0.154824,0.381079,0.828997,
2,1,0,1,0,43512.2,0.846776,0.846514,32.369,66,0.423131,10,0.0274008,-1.48987,0.156877,0.37609,0.832272,
2,1,0,0,0,43512.9,0.849723,0.849463,33.4241,66,0.44626,10,0.0283926,-1.47594,0.0457118,1.2907,0.834757,
2,1,0,1,0,43513.7,0.845728,0.845446,31.1111,66,0.471964,10,0.0263028,-1.50708,0.111449,0.529389,0.831757,
2,1,0,0,0,43514.5,0.841732,0.841486,29.2311,66,0.496045,10,0.0245975,-1.53416,0.118746,0.496857,0.828624,
2,1,0,1,0,43515.3,0.837737,0.837464,27.4835,66,0.518684,10,0.0230164,-1.56093,0.123441,0.477961,0.825372,
2,1,0,1,0,43516.1,0.833742,0.833452,25.8392,66,0.53997,10,0.0215357,-1.58772,0.0976829,0.603995,0.822083,
2,1,0,1,0,43516.9,0.829747,0.829503,24.0129,66,0.559768,10,0.0199188,-1.61956,0.125195,0.471264,0.818938,
2,1,0,1,0,43517.7,0.825752,0.825518,22.3892,66,0.57835,10,0.0184827,-1.64996,0.102649,0.574772,0.815667,
2,1,0,0,0,43518.5,0.821757,0.821542,20.9445,66,0.595604,10,0.0172068,-1.67893,0.122434,0.481894,0.812326,
2,1,0,1,0,43519.3,0.817761,0.817493,19.6174,66,0.611794,10,0.0160371,-1.70736,0.119826,0.492379,0.808861,
2,1,0,1,0,43520.1,0.813766,0.813489,18.3434,66,0.626944,10,0.0149222,-1.73652,0.1159,0.509059,0.805418,
2,1,0,1,0,43520.9,0.809771,0.809482,17.1568,66,0.641112,10,0.0138881,-1.76556,0.120312,0.49039,0.801933,
2,1,0,1,0,43521.7,0.805776,0.805514,16.0228,66,0.654353,10,0.0129066,-1.79526,0.116202,0.507736,0.798464,
2,1,0,0,0,43522.5,0.801781,0.801519,14.9412,66,0.666711,10,0.0119756,-1.82561,0.115641,0.510198,0.794945,
2,1,0,1,0,43523.3,0.797786,0.797486,13.9284,66,0.678231,10,0.0111077,-1.8561,0.114598,0.514842,0.791358,
2,1,0,1,0,43524.1,0.79379,0.793494,12.9449,66,0.688955,10,0.0102717,-1.8879,0.11257,0.524119,0.787799,
2,1,0,1,0,43524.9,0.789795,0.789512,12.0198,66,0.698915,10,0.00948976,-1.9201,0.110576,0.53357,0.784223,
2,1,0,1,0,43525.7,0.7858,0.785481,11.1526,66,0.708162,10,0.00876014,-1.95262,0.111628,0.528543,0.780574,
2,1,0,0,0,43526.5,0.781805,0.781497,10.3278,66,0.716735,10,0.00807117,-1.98599,0.107775,0.547437,0.776953,
2,1,0,1,0,43527.3,0.77781,0.777577,9.56022,66,0.724668,10,0.00743381,-2.01953,0.108411,0.544224,0.773371,
2,1,0,0,0,43528.1,0.773814,0.773515,8.84023,66,0.732008,10,0.00683805,-2.05354,0.107944,0.546582,0.769625,
2,1,0,1,0,43528.9,0.769819,0.769542,8.17274,66,0.738795,10,0.00628927,-2.08763,0.108596,0.543299,0.765946,
2,1,0,1,0,43529.7,0.765824,0.765552,7.5395,66,0.745062,10,0.00577188,-2.12266,0.105437,0.559575,0.762235,
2,1,0,1,0,43530.5,0.761829,0.761555,6.94058,66,0.750838,10,0.00528563,-2.1586,0.104566,0.564237,0.758501,
2,1,0,1,0,43531.3,0.757834,0.75755,6.3926,66,0.756156,10,0.00484272,-2.19432,0.102155,0.577551,0.754738,
2,1,0,0,0,43532.1,0.753839,0.753563,5.8823,66,0.761049,10,0.00443269,-2.23045,0.104876,0.562571,0.750975,
2,1,0,1,0,43532.9,0.749844,0.749537,5.4021,66,0.765547,10,0.00404907,-2.26744,0.100809,0.585265,0.74716,
2,1,0,1,0,43533.7,0.745848,0.745585,4.94213,66,0.769671,10,0.00368478,-2.30609,0.0966199,0.61064,0.74341,
2,1,0,1,0,43534.5,0.741853,0.741573,4.51754,66,0.773439,10,0.00335009,-2.3451,0.106064,0.556268,0.739586,
2,1,0,1,0,43535.3,0.737858,0.737572,4.17653,66,0.776903,10,0.00308049,-2.37918,0.104207,0.566178,0.735734,
2,1,0,0,0,43536.1,0.733863,0.733575,3.80976,66,0.780086,10,0.00279474,-2.4191,0.0930439,0.634109,0.731898,
2,1,0,1,0,43536.9,0.729868,0.729632,3.45911,66,0.782981,10,0.00252387,-2.46104,0.08885,0.664041,0.72811,
2,1,0,1,0,43537.7,0.725872,0.725625,3.12718,66,0.785603,10,0.00226916,-2.50485,0.0868829,0.679075,0.72425,
2,1,0,1,0,43538.5,0.721877,0.721605,2.81725,66,0.787969,10,0.00203294,-2.55017,0.083673,0.705126,0.720365,
2,1,0,1,0,43539.3,0.717882,0.717574,2.52782,66,0.790096,10,0.0018139,-2.59725,0.0809156,0.729155,0.716462,
2,1,0,0,0,43540.1,0.713887,0.713623,2.2596,66,0.792,10,0.0016125,-2.64597,0.0785243,0.75136,0.712629,
2,1,0,1,0,43540.9,0.709892,0.709672,2.00993,66,0.793697,10,0.00142639,-2.69682,0.0743189,0.793876,0.708788,
2,1,0,0,0,43541.7,0.705897,0.705596,1.77889,66,0.795201,10,0.00125517,-2.74985,0.0719496,0.820019,0.704813,
2,1,0,1,0,43542.5,0.701901,0.701629,1.56539,66,0.796528,10,0.00109832,-2.80538,0.068684,0.859007,0.70094,
2,1,0,1,0,43543.3,0.697906,0.697624,1.37015,66,0.797692,10,0.00095585,-2.86323,0.0672584,0.877214,0.697022,
2,1,0,1,0,43544.1,0.693911,0.693647,1.19162,66,0.798707,10,0.000826566,-2.92386,0.0622263,0.948152,0.693123,
2,1,0,1,0,43544.9,0.689916,0.689611,1.02992,66,0.799586,10,0.000710245,-2.9872,0.0605315,0.974699,0.689158,
2,1,0,0,0,43545.7,0.685921,0.685611,0.882754,66,0.800342,10,0.000605226,-3.05416,0.0572304,1.03092,0.685223,
2,1,0,1,0,43546.5,0.681926,0.681641,0.750281,66,0.800986,10,0.000511422,-3.12478,0.0545431,1.08171,0.681311,
2,1,0,1,0,43547.3,0.67793,0.677643,0.632534,66,0.801531,10,0.000428633,-3.19892,0.0519761,1.13514,0.677365,
2,1,0,1,0,43548.1,0.673935,0.673667,0.529446,66,0.801987,10,0.00035667,-3.27618,0.0494156,1.19395,0.673434,
2,1,0,1,0,43548.9,0.66994,0.669722,0.437632,66,0.802365,10,0.000293091,-3.35889,0.0458298,1.28737,0.669529,
2,1,0,0,0,43549.7,0.665945,0.665665,0.354792,66,0.802673,10,0.000236172,-3.45003,0.042621,1.38429,0.665509,
2,1,0,1,0,43550.5,0.66195,0.66171,0.284681,66,0.802921,10,0.000188376,-3.54564,0.0392695,1.50244,0.661585,
2,1,0,0,0,43551.3,0.657955,0.657657,0.223338,66,0.803116,10,0.00014688,-3.65104,0.0360876,1.63491,0.657559,
2,1,0,1,0,43552.1,0.653959,0.653707,0.170885,66,0.803266,10,0.000111709,-3.7673,0.0324403,1.81872,0.653632,
2,1,0,1,0,43552.9,0.649964,0.649702,0.126015,66,0.803377,10,8.18719e-05,-3.89958,0.0271064,2.17661,0.649646,
2,1,0,1,0,43553.7,0.64597,0.645651,0.0875738,66,0.803455,10,5.65421e-05,-4.05763,0.0231665,2.54678,0.645613,
2,1,0,1,0,43554.5,0.641974,0.641681,0.0556225,66,0.803504,10,3.56919e-05,-4.25475,0.0164233,3.59246,0.641656,
2,1,0,0,0,43555.3,0.637979,0.637735,0.0280052,66,0.80353,10,1.78599e-05,-4.55276,0.00980869,6.01507,0.637723,
2,0,0,1,0,43556.1,0.633983,0.633679,0.00424817,66,0.803535,10,2.69198e-06,-5.3718,0.00822726,7.17128,0.633677,
2,0,0,1,0,43556.9,0.629988,0.62969,-0.0143845,66,0.803524,10,-9.05774e-06,-4.84211,-0.00607126,-9.71792,0.629696,
2,0,0,1,0,43557.7,0.625993,0.625704,-0.0307611,66,0.803498,10,-1.92473e-05,-4.512,-0.0192622,-3.063,0.625718,
2,0,0,1,0,43558.5,0.621998,0.621686,-0.04418,66,0.803461,10,-2.74661e-05,-4.35477,-0.0336567,-1.75299,0.621705,
2,0,0,0,0,43559.3,0.618003,0.617722,-0.0552929,66,0.803414,10,-3.41556e-05,-4.25733,-0.0441944,-1.33501,0.617746,
2,0,0,1,0,43560.1,0.614008,0.613717,-0.0643681,66,0.803358,10,-3.95038e-05,-4.19133,-0.0717438,-0.822371,0.613745,
2,0,0,1,0,43560.9,0.610012,0.609771,-0.0720017,66,0.803296,10,-4.39046e-05,-4.14266,-0.0951086,-0.620344,0.609803,
2,0,0,1,0,43561.6,0.606017,0.605717,-0.0788504,66,0.803228,10,-4.7761e-05,-4.1032,-0.118599,-0.497473,0.605752,
2,0,0,1,0,43562.4,0.602022,0.601737,-0.0852834,66,0.803154,10,-5.13181e-05,-4.06914,-0.155821,-0.37864,0.601774,
2,0,0,0,0,43563.2,0.598027,0.597734,-0.0907428,66,0.803076,10,-5.42401e-05,-4.04219,-0.164374,-0.358937,0.597774,
2,0,0,1,0,43564,0.594032,0.59372,-0.094456,66,0.802995,10,-5.60804e-05,-4.02477,-0.211788,-0.27858,0.593761,
2,0,0,0,0,43564.8,0.590037,0.58978,-0.098097,66,0.80291,10,-5.78556e-05,-4.00834,-0.304884,-0.193516,0.589823,
2,0,0,1,0,43565.6,0.586041,0.585743,-0.101492,66,0.802823,10,-5.94482e-05,-3.99357,-0.261993,-0.225197,0.585787,
2,0,0,1,0,43566.4,0.582046,0.581741,-0.104195,66,0.802733,10,-6.06147e-05,-3.98215,-0.502762,-0.117352,0.581787,
2,0,0,1,0,43567.2,0.578052,0.577768,-0.106356,66,0.802642,10,-6.14489e-05,-3.97324,-0.300179,-0.196549,0.577815,
2,0,0,1,0,43568,0.574056,0.573777,-0.108284,66,0.802548,10,-6.21307e-05,-3.96544,-0.977233,-0.0603745,0.573824,
2,0,0,0,0,43568.8,0.570061,0.569744,-0.110087,66,0.802453,10,-6.27216e-05,-3.95826,-0.761839,-0.0774441,0.569792,
2,0,0,1,0,43569.6,0.566065,0.565752,-0.111204,66,0.802357,10,-6.29137e-05,-3.95388,-0.701749,-0.0840757,0.565801,
2,0,0,1,0,43570.4,0.56207,0.561767,-0.112836,66,0.80226,10,-6.33875e-05,-3.94755,-0.507721,-0.116205,0.561817,
2,0,0,1,0,43571.2,0.558075,0.557792,-0.115075,66,0.802161,10,-6.41882e-05,-3.93902,-0.916207,-0.0643959,0.557843,
2,0,0,1,0,43572,0.55408,0.553819,-0.11631,66,0.802062,10,-6.44149e-05,-3.93438,-0.93972,-0.0627846,0.55387,
2,0,0,0,0,43572.8,0.550085,0.549792,-0.11696,66,0.801961,10,-6.43037e-05,-3.93196,-1.10949,-0.0531777,0.549844,
2,0,0,1,0,43573.6,0.54609,0.545802,-0.117888,66,0.80186,10,-6.43433e-05,-3.92853,-0.52075,-0.113298,0.545854,
2,0,0,1,0,43574.4,0.542094,0.541795,-0.119394,66,0.801758,10,-6.46871e-05,-3.92302,-1.78085,-0.0331302,0.541848,
2,0,0,1,0,43575.2,0.538099,0.537817,-0.12038,66,0.801654,10,-6.47424e-05,-3.91945,-1.41231,-0.0417754,0.53787,
2,0,0,1,0,43576,0.534104,0.533788,-0.122525,66,0.80155,10,-6.54025e-05,-3.91177,-0.632875,-0.0932253,0.533842,
2,0,0,0,0,43576.8,0.530109,0.529808,-0.121979,66,0.801445,10,-6.46255e-05,-3.91371,3.41907,0.0172562,0.529862,
2,0,0,1,0,43577.6,0.526114,0.525805,-0.12394,66,0.801339,10,-6.51683e-05,-3.90679,-0.708384,-0.0832881,0.525859,
2,0,0,0,0,43578.4,0.522119,0.521793,-0.124382,66,0.801232,10,-6.49016e-05,-3.90524,-0.847229,-0.0696388,0.521848,
2,0,0,1,0,43579.2,0.518123,0.517795,-0.125853,66,0.801125,10,-6.51661e-05,-3.90014,-2.31382,-0.0254989,0.517851,
2,0,0,1,0,43580,0.514128,0.51385,-0.125875,66,0.801016,10,-6.46808e-05,-3.90006,-2.91365,-0.0202495,0.513905,
2,0,0,1,0,43580.8,0.510133,0.509824,-0.12638,66,0.800907,10,-6.44315e-05,-3.89832,-0.716631,-0.0823297,0.509879,
2,0,0,1,0,43581.6,0.506138,0.505862,-0.12777,66,0.800798,10,-6.46338e-05,-3.89357,-2.30809,-0.0255622,0.505918,
2,0,0,0,0,43582.4,0.502143,0.501837,-0.128927,66,0.800687,10,-6.47002e-05,-3.88966,-0.910149,-0.0648245,0.501893,
2,0,0,1,0,43583.2,0.498148,0.497827,-0.130628,66,0.800576,10,-6.50302e-05,-3.88396,-0.781491,-0.0754967,0.497885,
2,0,0,1,0,43584,0.494152,0.493852,-0.131274,66,0.800464,10,-6.48298e-05,-3.88182,-2.04351,-0.0288719,0.493909,
2,0,0,1,0,43584.8,0.490157,0.489857,-0.132413,66,0.80035,10,-6.48634e-05,-3.87807,-0.627768,-0.0939838,0.489915,
2,0,0,1,0,43585.6,0.486162,0.485903,-0.133356,66,0.800236,10,-6.47984e-05,-3.87499,3.73865,0.0157811,0.485962,
2,0,0,0,0,43586.4,0.482167,0.481849,-0.134212,66,0.800121,10,-6.46701e-05,-3.87221,-0.577129,-0.10223,0.481908,
2,0,0,1,0,43587.2,0.478172,0.477854,-0.135081,66,0.800005,10,-6.45491e-05,-3.86941,-3.70053,-0.0159437,0.477914,
2,0,0,0,0,43588,0.474177,0.473894,-0.136509,66,0.799889,10,-6.46907e-05,-3.86484,-1.07654,-0.054805,0.473954,
2,0,0,1,0,43588.8,0.470181,0.46989,-0.13843,66,0.799771,10,-6.50469e-05,-3.85877,-0.922954,-0.0639252,0.469951,
2,0,0,1,0,43589.6,0.466186,0.465879,-0.139271,66,0.799652,10,-6.48836e-05,-3.85614,-0.819539,-0.0719917,0.46594,
2,0,0,1,0,43590.4,0.462191,0.461868,-0.140735,66,0.799531,10,-6.50009e-05,-3.8516,-0.595912,-0.099008,0.46193,
2,0,0,1,0,43591.2,0.458196,0.457909,-0.142122,66,0.79941,10,-6.50788e-05,-3.84734,-1.04852,-0.0562698,0.457972,
2,0,0,0,0,43592,0.454201,0.453898,-0.143581,66,0.799288,10,-6.51709e-05,-3.8429,-1.13224,-0.0521092,0.453961,
2,0,0,1,0,43592.8,0.450205,0.449903,-0.145215,66,0.799164,10,-6.53328e-05,-3.83799,-0.834739,-0.0706808,0.449967,
2,0,0,1,0,43593.6,0.44621,0.445922,-0.14603,66,0.799039,10,-6.51181e-05,-3.83556,-0.922968,-0.0639242,0.445987,
2,0,0,1,0,43594.4,0.442215,0.441909,-0.1485,66,0.798913,10,-6.56234e-05,-3.82827,-2.01555,-0.0292724,0.441974,
2,0,0,1,0,43595.2,0.43822,0.437894,-0.149339,66,0.798786,10,-6.53945e-05,-3.82583,-0.462875,-0.127464,0.43796,
2,0,0,0,0,43596,0.434225,0.433931,-0.151509,66,0.798657,10,-6.57444e-05,-3.81956,-1.53982,-0.0383161,0.433998,
2,0,0,1,0,43596.8,0.43023,0.429897,-0.152936,66,0.798527,10,-6.57466e-05,-3.81549,-0.831347,-0.0709692,0.429965,
2,0,0,1,0,43597.6,0.426234,0.425908,-0.155022,66,0.798395,10,-6.6025e-05,-3.80961,-0.562749,-0.104842,0.425976,
2,0,0,1,0,43598.4,0.422239,0.421948,-0.156643,66,0.798262,10,-6.60949e-05,-3.80509,-1.03937,-0.0567651,0.422017,
2,0,0,1,0,43599.2,0.418244,0.417896,-0.158336,66,0.798127,10,-6.61681e-05,-3.80042,-0.895091,-0.0659151,0.417966,
2,0,0,0,0,43600,0.414249,0.41392,-0.160029,66,0.797991,10,-6.62393e-05,-3.7958,-0.962707,-0.0612855,0.413991,
2,0,0,1,0,43600.8,0.410254,0.409937,-0.162401,66,0.797853,10,-6.65742e-05,-3.78941,-0.864085,-0.0682803,0.410009,
2,0,0,0,0,43601.6,0.406259,0.405963,-0.16376,66,0.797714,10,-6.64803e-05,-3.78579,-0.486732,-0.121217,0.406035,
2,0,0,1,0,43602.4,0.402263,0.401946,-0.166687,66,0.797573,10,-6.69994e-05,-3.7781,-1.05813,-0.0557589,0.402019,
2,0,0,1,0,43603.2,0.398268,0.397943,-0.168125,66,0.797431,10,-6.69041e-05,-3.77437,-0.801166,-0.0736426,0.398017,
2,0,0,1,0,43604,0.394274,0.394005,-0.169328,66,0.797287,10,-6.67162e-05,-3.77127,-0.654423,-0.0901557,0.39408,
2,0,0,1,0,43604.8,0.390278,0.389953,-0.171675,66,0.797141,10,-6.69452e-05,-3.76529,-1.21931,-0.0483881,0.390029,
2,0,0,0,0,43605.6,0.386283,0.38596,-0.173459,66,0.796994,10,-6.69483e-05,-3.7608,-0.738517,-0.0798898,0.386036,
2,0,0,1,0,43606.4,0.382287,0.382002,-0.174781,66,0.796845,10,-6.67667e-05,-3.7575,-0.789298,-0.07475,0.382078,
2,0,0,1,0,43607.2,0.378292,0.377984,-0.177207,66,0.796694,10,-6.69816e-05,-3.75152,-1.10831,-0.0532344,0.378062,
2,0,0,1,0,43608,0.374297,0.373982,-0.179133,66,0.796541,10,-6.69924e-05,-3.74683,-0.53408,-0.11047,0.374061,
2,0,0,1,0,43608.8,0.370303,0.369987,-0.182171,66,0.796387,10,-6.74008e-05,-3.73952,-0.752451,-0.0784104,0.370067,
2,0,0,0,0,43609.6,0.366307,0.365991,-0.184373,66,0.796231,10,-6.7479e-05,-3.7343,-0.894966,-0.0659243,0.366072,
2,0,0,1,0,43610.4,0.362312,0.362007,-0.186651,66,0.796073,10,-6.7569e-05,-3.72897,-0.810363,-0.0728069,0.362089,
2,0,0,1,0,43611.2,0.358316,0.358036,-0.188784,66,0.795913,10,-6.75914e-05,-3.72403,-0.950982,-0.0620412,0.358119,
2,0,0,1,0,43612,0.354321,0.353972,-0.19101,66,0.795752,10,-6.76122e-05,-3.71894,-0.553876,-0.106522,0.354056,
2,0,0,1,0,43612.8,0.350327,0.350006,-0.192092,66,0.795589,10,-6.72334e-05,-3.71649,-1.38958,-0.042459,0.35009,
2,0,0,0,0,43613.6,0.346331,0.345993,-0.194856,66,0.795423,10,-6.74189e-05,-3.71029,-1.06126,-0.0555942,0.346079,
2,0,0,1,0,43614.4,0.342336,0.342022,-0.19783,66,0.795257,10,-6.76622e-05,-3.70371,-0.784712,-0.0751868,0.342109,
2,0,0,0,0,43615.2,0.338341,0.338064,-0.19999,66,0.795088,10,-6.76093e-05,-3.69899,-0.61765,-0.0955234,0.338152,
2,0,0,1,0,43616,0.334345,0.334013,-0.203113,66,0.794917,10,-6.78423e-05,-3.69226,-0.815549,-0.0723439,0.334102,
2,0,0,1,0,43616.8,0.33035,0.330026,-0.204464,66,0.794744,10,-6.74786e-05,-3.68938,-0.669052,-0.0881845,0.330116,
2,0,0,1,0,43617.6,0.326355,0.326063,-0.207299,66,0.79457,10,-6.75926e-05,-3.6834,-0.906793,-0.0650645,0.326154,
2,0,0,1,0,43618.4,0.32236,0.322056,-0.208553,66,0.794393,10,-6.71658e-05,-3.68078,-0.828456,-0.0712168,0.322148,
2,0,0,0,0,43619.2,0.318365,0.318082,-0.210987,66,0.794214,10,-6.7111e-05,-3.67574,-0.747599,-0.0789193,0.318175,
2,0,0,1,0,43620,0.31437,0.314089,-0.214216,66,0.794034,10,-6.72828e-05,-3.66915,-1.26968,-0.0464685,0.314184,
2,0,0,1,0,43620.8,0.310374,0.310094,-0.216558,66,0.793851,10,-6.71532e-05,-3.66443,-0.880424,-0.0670132,0.310189,
2,0,0,1,0,43621.6,0.306379,0.306058,-0.219457,66,0.793667,10,-6.71665e-05,-3.65865,-0.61315,-0.0962245,0.306154,
2,0,0,1,0,43622.4,0.302385,0.302069,-0.22148,66,0.793481,10,-6.69023e-05,-3.65467,-0.64919,-0.0908824,0.302167,
2,0,0,0,0,43623.2,0.298389,0.298092,-0.22355,66,0.793292,10,-6.66384e-05,-3.65063,-0.643368,-0.0917049,0.29819,
2,0,0,1,0,43624,0.294394,0.294092,-0.226938,66,0.793102,10,-6.67406e-05,-3.64409,-1.89686,-0.031104,0.294192,
2,0,0,1,0,43624.8,0.290398,0.290095,-0.228534,66,0.79291,10,-6.62967e-05,-3.64105,-0.757994,-0.077837,0.290196,
2,0,0,1,0,43625.6,0.286403,0.286045,-0.230738,66,0.792715,10,-6.60015e-05,-3.63688,-0.657953,-0.089672,0.286146,
2,0,0,1,0,43626.4,0.282408,0.282089,-0.233818,66,0.792519,10,-6.59574e-05,-3.63112,-1.08255,-0.0545012,0.282192,
2,0,0,1,0,43627.2,0.278414,0.278127,-0.237171,66,0.79232,10,-6.59636e-05,-3.62494,-0.978371,-0.0603043,0.278231,
2,0,0,1,0,43628,0.274418,0.274128,-0.239358,66,0.792119,10,-6.56147e-05,-3.62095,-1.18034,-0.0499856,0.274233,
2,0,0,0,0,43628.8,0.270423,0.270124,-0.242538,66,0.791916,10,-6.55153e-05,-3.61522,-0.57189,-0.103167,0.270231,
2,0,0,1,0,43629.6,0.266427,0.266142,-0.244029,66,0.791711,10,-6.49462e-05,-3.61256,-1.46433,-0.0402913,0.266249,
2,0,0,1,0,43630.4,0.262432,0.262113,-0.246768,66,0.791504,10,-6.46811e-05,-3.60771,-0.798244,-0.0739122,0.262222,
2,0,0,1,0,43631.2,0.258437,0.258131,-0.24993,66,0.791296,10,-6.45147e-05,-3.60218,-1.03152,-0.0571973,0.258241,
2,0,0,1,0,43632,0.254442,0.254137,-0.250823,66,0.791085,10,-6.37434e-05,-3.60063,-0.730474,-0.0807694,0.254248,
2,0,0,0,0,43632.8,0.250447,0.250123,-0.25382,66,0.790872,10,-6.34862e-05,-3.59547,-2.25988,-0.0261076,0.250234,
2,0,0,1,0,43633.6,0.246452,0.246166,-0.255973,66,0.790658,10,-6.30118e-05,-3.59181,-0.765631,-0.0770606,0.246279,
2,0,0,1,0,43634.4,0.242456,0.242117,-0.259255,66,0.790441,10,-6.277e-05,-3.58627,-0.791877,-0.0745065,0.242231,
2,0,0,1,0,43635.2,0.238461,0.238141,-0.260749,66,0.790222,10,-6.2095e-05,-3.58378,-1.58893,-0.0371318,0.238256,
2,0,0,1,0,43636,0.234467,0.234153,-0.263322,66,0.790002,10,-6.16578e-05,-3.57951,-0.715794,-0.082426,0.234269,
2,0,0,0,0,43636.8,0.230471,0.230153,-0.26698,66,0.78978,10,-6.14461e-05,-3.57352,-1.522,-0.0387647,0.23027,
2,0,0,1,0,43637.6,0.226476,0.226183,-0.267932,66,0.789555,10,-6.06017e-05,-3.57198,-0.705106,-0.0836754,0.226301,
2,0,0,0,0,43638.4,0.222481,0.222182,-0.270512,66,0.789329,10,-6.01029e-05,-3.56781,-1.29109,-0.0456979,0.222301,
2,0,0,1,0,43639.2,0.218485,0.21817,-0.274496,66,0.7891,10,-5.98869e-05,-3.56146,-1.82924,-0.0322539,0.218291,
2,0,0,1,0,43640,0.21449,0.214165,-0.275898,66,0.78887,10,-5.90878e-05,-3.55925,-0.70731,-0.0834147,0.214287,
2,0,0,1,0,43640.8,0.210496,0.210179,-0.278566,66,0.788637,10,-5.85486e-05,-3.55507,-0.833498,-0.070786,0.210301,
2,0,0,1,0,43641.6,0.2065,0.206158,-0.28334,66,0.788401,10,-5.84128e-05,-3.54769,-0.715698,-0.082437,0.206283,
2,0,0,0,0,43642.4,0.202505,0.202184,-0.284705,66,0.788164,10,-5.75626e-05,-3.54561,-1.35865,-0.0434255,0.202309,
2,0,0,1,0,43643.2,0.198509,0.198208,-0.288185,66,0.787924,10,-5.71205e-05,-3.54033,-0.700748,-0.0841957,0.198335,
2,0,0,1,0,43643.9,0.194514,0.194165,-0.292191,66,0.787681,10,-5.67333e-05,-3.53433,-0.601923,-0.0980193,0.194293,
2,0,0,1,0,43644.7,0.190519,0.190162,-0.294503,66,0.787435,10,-5.60034e-05,-3.53091,-0.550769,-0.107123,0.190292,
2,0,0,1,0,43645.5,0.186524,0.186243,-0.300816,66,0.787185,10,-5.60247e-05,-3.5217,-1.3984,-0.042191,0.186375,
2,0,0,0,0,43646.3,0.182529,0.18221,-0.304594,66,0.786932,10,-5.55e-05,-3.51628,-0.44342,-0.133057,0.182344,
2,0,0,1,0,43647.1,0.178534,0.178182,-0.309454,66,0.786675,10,-5.51392e-05,-3.5094,-0.590131,-0.0999778,0.178319,
2,0,0,1,0,43647.9,0.174538,0.174178,-0.31503,66,0.786414,10,-5.48713e-05,-3.50165,-0.526063,-0.112154,0.174317,
2,0,0,1,0,43648.7,0.170543,0.170215,-0.321259,66,0.786148,10,-5.4683e-05,-3.49314,-0.343422,-0.1718,0.170356,
2,0,0,1,0,43649.5,0.166549,0.166209,-0.330363,66,0.785876,10,-5.49091e-05,-3.48101,-0.370561,-0.159218,0.166354,
2,0,0,0,0,43650.3,0.162553,0.162233,-0.339755,66,0.785596,10,-5.51195e-05,-3.46883,-0.283859,-0.20785,0.162382,
2,0,0,1,0,43651.1,0.158558,0.158201,-0.3507,66,0.785308,10,-5.54812e-05,-3.45506,-0.239507,-0.246339,0.158356,
2,0,0,0,0,43651.9,0.154563,0.154245,-0.368528,66,0.785009,10,-5.68435e-05,-3.43353,-0.204106,-0.289066,0.154407,
2,0,0,1,0,43652.7,0.150567,0.15025,-0.38804,66,0.784696,10,-5.83031e-05,-3.41112,-0.136276,-0.432944,0.150421,
2,0,0,1,0,43653.5,0.146572,0.14625,-0.415826,66,0.784364,10,-6.08144e-05,-3.38109,-0.130477,-0.452186,0.146433,
2,0,0,1,0,43654.3,0.142578,0.142235,-0.451818,66,0.784007,10,-6.42644e-05,-3.34504,-0.0997854,-0.591269,0.142434,
2,0,0,1,0,43655.1,0.138582,0.138233,-0.495515,66,0.783617,10,-6.84964e-05,-3.30494,-0.0971586,-0.607255,0.138451,
2,0,0,0,0,43655.9,0.134587,0.134255,-0.543469,66,0.78319,10,-7.29635e-05,-3.26482,-0.103307,-0.571111,0.134494,
2,0,0,1,0,43656.7,0.130591,0.130233,-0.592494,66,0.782724,10,-7.71625e-05,-3.22732,-0.112667,-0.523667,0.130494,
2,0,0,1,0,43657.5,0.126596,0.126252,-0.633706,66,0.78222,10,-8.00068e-05,-3.19811,-0.156037,-0.378116,0.126531,
2,0,0,1,0,43658.3,0.122602,0.122322,-0.666045,66,0.781686,10,-8.14716e-05,-3.1765,-0.253234,-0.232986,0.122615,
2,0,0,1,0,43659.1,0.118607,0.118302,-0.685413,66,0.781133,10,-8.10856e-05,-3.16405,-0.410747,-0.143641,0.118603,
2,0,0,0,0,43659.9,0.114611,0.114256,-0.695846,66,0.780567,10,-7.95045e-05,-3.15749,-1.15339,-0.0511535,0.114562,
2,0,0,1,0,43660.7,0.110616,0.110262,-0.699668,66,0.779997,10,-7.71471e-05,-3.15511,-3.50355,-0.0168401,0.11057,
2,0,0,1,0,43661.5,0.10662,0.106286,-0.696831,66,0.779426,10,-7.40636e-05,-3.15687,3.91617,0.0150657,0.106593,
2,0,0,1,0,43662.3,0.102625,0.102312,-0.694467,66,0.778857,10,-7.10526e-05,-3.15835,0.918921,0.0642057,0.102618,
2,0,0,1,0,43663.1,0.0986305,0.0983118,-0.687905,66,0.778293,10,-6.76292e-05,-3.16247,1.24577,0.0473602,0.0986145,
2,0,0,0,0,43663.9,0.0946351,0.0943032,-0.678978,66,0.777733,10,-6.40298e-05,-3.16814,0.749204,0.0787502,0.094602,
2,0,0,1,0,43664.7,0.0906399,0.0903076,-0.673221,66,0.77718,10,-6.0797e-05,-3.17184,0.594909,0.0991748,0.0906038,
2,0,0,0,0,43665.5,0.0866448,0.0863035,-0.674912,66,0.776631,10,-5.82473e-05,-3.17075,2.22401,0.0265286,0.0866005,
2,0,0,1,0,43666.3,0.0826492,0.0822938,-0.658376,66,0.776087,10,-5.41803e-05,-3.18153,0.500356,0.117916,0.0825835,
2,0,0,1,0,43667.1,0.0786544,0.0783663,-0.647024,66,0.775554,10,-5.07049e-05,-3.18908,0.646515,0.0912585,0.078651,
2,0,0,1,0,43667.9,0.0746596,0.0743596,-0.637483,66,0.775029,10,-4.74029e-05,-3.19553,0.753304,0.0783216,0.0746401,
2,0,0,1,0,43668.7,0.0706641,0.0703211,-0.629428,66,0.77451,10,-4.42621e-05,-3.20105,0.5015,0.117647,0.070598,
2,0,0,0,0,43669.5,0.0666689,0.0663594,-0.619907,66,0.774,10,-4.11366e-05,-3.20767,0.759157,0.0777178,0.0666322,
2,0,0,1,0,43670.3,0.0626737,0.0623754,-0.608474,66,0.773495,10,-3.79538e-05,-3.21576,0.705839,0.0835885,0.0626432,
2,0,0,1,0,43671.1,0.0586783,0.0583414,-0.602912,66,0.772999,10,-3.51747e-05,-3.21975,0.460943,0.127998,0.0586067,
2,0,0,1,0,43671.9,0.0546835,0.054378,-0.591147,66,0.77251,10,-3.21454e-05,-3.2283,0.693694,0.0850519,0.0546381,
2,0,0,1,0,43672.7,0.0506886,0.0503318,-0.581274,66,0.772028,10,-2.92566e-05,-3.23562,0.471918,0.125022,0.0505876,
2,0,0,0,0,43673.5,0.046693,0.0463347,-0.57075,66,0.771555,10,-2.64455e-05,-3.24355,0.551739,0.106935,0.0465858,
2,0,0,1,0,43674.3,0.0426979,0.0423772,-0.560613,66,0.771091,10,-2.37572e-05,-3.25134,0.549251,0.107419,0.0426239,
2,0,0,1,0,43675.1,0.0387022,0.0383578,-0.551571,66,0.770634,10,-2.1157e-05,-3.2584,0.401239,0.147045,0.0386005,
2,0,0,1,0,43675.9,0.0347074,0.0343701,-0.54226,66,0.770186,10,-1.86376e-05,-3.26579,0.540297,0.109199,0.0346087,
2,0,0,1,0,43676.7,0.0307126,0.0303461,-0.530874,66,0.769746,10,-1.611e-05,-3.27501,0.656716,0.089841,0.0305797,
2,0,0,0,0,43677.5,0.0267172,0.0264277,-0.522542,66,0.769313,10,-1.38096e-05,-3.28188,0.499585,0.118098,0.0266576,
2,0,0,1,0,43678.3,0.022722,0.0223674,-0.51492,66,0.768887,10,-1.15174e-05,-3.28826,0.828711,0.0711949,0.0225939,
2,0,0,0,0,43679.1,0.0187268,0.0183919,-0.508947,66,0.768467,10,-9.36051e-06,-3.29333,0.615207,0.0959027,0.0186158,
2,0,0,1,0,43679.9,0.0147313,0.0143546,-0.505123,66,0.768051,10,-7.25086e-06,-3.2966,1.35106,0.0436693,0.0145769,
2,0,0,1,0,43680.7,0.0107365,0.0104014,-0.499992,66,0.767639,10,-5.20061e-06,-3.30104,2.8764,0.0205118,0.0106214,
2,0,0,1,0,43681.5,0.00674163,0.00643618,-0.498241,66,0.767228,10,-3.20677e-06,-3.30256,2.7805,0.0212192,0.0066554,
2,0,0,1,0,43682.3,0.00274612,0.00241901,-0.498718,66,0.766817,10,-1.2064e-06,-3.30215,-1.29009,-0.0457332,0.00263844,
2,0,0,0,0,43682.8,0.000274105,-0.00013445,-0.501545,66,0.766561,10,6.74329e-08,-3.29969, , ,8.62295e-05,