File: Figure_codes/Fig_3-5/workspace_calculate_alpha_eff/20221101_1-115_003_TrumpetPlot_ParaChange_from10_every3_16_CV_C01_74.csv
mode,ox/red,error,control changes,counter inc.,time/s,control/V,Ewe/V,<I>/mA,cycle number,(Q-Qo)/C,I Range,P/W,log(|I|),Tafel slope mV/dec,alpha_eff,E-IR/V,
2,0,0,0,0,49253.2,2.44065e-05,-0.000287149,-0.102574,75,0.0000000E+000,10,2.94541e-08,-3.98896, , ,-0.000242016,
2,1,0,0,0,49254,0.00379485,0.00345397,0.140653,75,8.35911e-05,10,4.85812e-07,-3.85185,0.0297917,1.98042,0.00339208,
2,1,0,1,0,49254.8,0.00779002,0.00742731,0.165631,75,0.000216555,10,1.23019e-06,-3.78086,0.0732541,0.805416,0.00735443,
2,1,0,0,0,49255.6,0.0117852,0.0114303,0.180504,75,0.000365267,10,2.06322e-06,-3.74351,0.105653,0.558429,0.0113509,
2,1,0,1,0,49256.4,0.0157806,0.0154706,0.195978,75,0.000525905,10,3.0319e-06,-3.70779,0.140227,0.420745,0.0153843,
2,1,0,1,0,49257.2,0.0197754,0.0194807,0.207898,75,0.000696826,10,4.05e-06,-3.68215,0.146254,0.403409,0.0193892,
2,1,0,1,0,49258,0.0237704,0.023416,0.220591,75,0.000878383,10,5.16535e-06,-3.65641,0.165306,0.356915,0.0233189,
2,1,0,1,0,49258.8,0.0277659,0.0274266,0.234764,75,0.00107011,10,6.43878e-06,-3.62937,0.155199,0.380157,0.0273233,
2,1,0,0,0,49259.6,0.0317611,0.0314232,0.247221,75,0.00127287,10,7.76849e-06,-3.60691,0.158703,0.371765,0.0313145,
2,1,0,1,0,49260.4,0.0357567,0.0354214,0.261465,75,0.00148681,10,9.26145e-06,-3.58259,0.19191,0.307435,0.0353063,
2,1,0,1,0,49261.2,0.0397516,0.0394179,0.275882,75,0.00171187,10,1.08747e-05,-3.55928,0.15624,0.377624,0.0392965,
2,1,0,1,0,49262,0.0437465,0.0434416,0.289887,75,0.00194841,10,1.25931e-05,-3.53777,0.213593,0.276226,0.0433141,
2,1,0,1,0,49262.8,0.0477413,0.047401,0.30372,75,0.00219533,10,1.43966e-05,-3.51753,0.216627,0.272357,0.0472673,
2,1,0,0,0,49263.6,0.0517369,0.0514109,0.315227,75,0.00245246,10,1.62061e-05,-3.50138,0.221238,0.266681,0.0512722,
2,1,0,1,0,49264.4,0.0557321,0.0554033,0.328432,75,0.00271985,10,1.81962e-05,-3.48356,0.287511,0.20521,0.0552588,
2,1,0,1,0,49265.2,0.0597277,0.0593663,0.339457,75,0.00299592,10,2.01523e-05,-3.46922,0.280625,0.210245,0.0592169,
2,1,0,1,0,49266,0.0637226,0.0634148,0.348193,75,0.00328085,10,2.20806e-05,-3.45818,0.312578,0.188753,0.0632616,
2,1,0,1,0,49266.8,0.0677174,0.0673528,0.359336,75,0.00357421,10,2.42023e-05,-3.4445,0.440329,0.133991,0.0671947,
2,1,0,0,0,49267.6,0.0717128,0.0713825,0.367119,75,0.00387469,10,2.62059e-05,-3.43519,0.312702,0.188678,0.071221,
2,1,0,1,0,49268.4,0.075708,0.0754142,0.37344,75,0.0041823,10,2.81627e-05,-3.42778,0.427823,0.137907,0.0752499,
2,1,0,0,0,49269.2,0.0797031,0.0793854,0.384442,75,0.00449644,10,3.05191e-05,-3.41517,0.402299,0.146657,0.0792163,
2,1,0,1,0,49270,0.0836986,0.0833613,0.393211,75,0.00481726,10,3.27786e-05,-3.40537,0.378678,0.155805,0.0831882,
2,1,0,1,0,49270.8,0.0876935,0.0873874,0.40398,75,0.00514593,10,3.53027e-05,-3.39364,0.359879,0.163944,0.0872096,
2,1,0,1,0,49271.6,0.0916883,0.0913889,0.416573,75,0.00548316,10,3.80702e-05,-3.38031,0.259627,0.227249,0.0912056,
2,1,0,1,0,49272.4,0.0956838,0.0953583,0.43065,75,0.00583213,10,4.10661e-05,-3.36588,0.238782,0.247088,0.0951689,
2,1,0,0,0,49273.2,0.099679,0.0993614,0.45056,75,0.00619489,10,4.47683e-05,-3.34625,0.232184,0.254109,0.0991631,
2,1,0,1,0,49274,0.103674,0.103351,0.47022,75,0.00657316,10,4.85975e-05,-3.3277,0.182017,0.324145,0.103144,
2,1,0,1,0,49274.8,0.10767,0.10731,0.491916,75,0.00696918,10,5.27877e-05,-3.30811,0.219846,0.268369,0.107094,
2,1,0,1,0,49275.6,0.111664,0.111333,0.511869,75,0.00738077,10,5.69881e-05,-3.29084,0.258388,0.228339,0.111108,
2,1,0,1,0,49276.4,0.115659,0.115291,0.527036,75,0.00780668,10,6.07627e-05,-3.27816,0.292961,0.201392,0.115059,
2,1,0,0,0,49277.2,0.119655,0.119305,0.54182,75,0.00824478,10,6.46421e-05,-3.26614,0.577848,0.102103,0.119067,
2,1,0,1,0,49278,0.12365,0.12333,0.551328,75,0.00869153,10,6.79952e-05,-3.25859,0.500251,0.117941,0.123087,
2,1,0,1,0,49278.8,0.127646,0.127341,0.558768,75,0.0091458,10,7.11539e-05,-3.25277,1.00244,0.0588562,0.127095,
2,1,0,1,0,49279.6,0.131641,0.131313,0.561963,75,0.00960473,10,7.37933e-05,-3.25029,-0.939078,-0.0628276,0.131066,
2,1,0,1,0,49280.4,0.135635,0.135281,0.551125,75,0.0100605,10,7.45569e-05,-3.25875,-0.322286,-0.183067,0.135039,
2,1,0,0,0,49281.2,0.139631,0.139325,0.522037,75,0.010502,10,7.27328e-05,-3.2823,-0.127057,-0.464359,0.139095,
2,1,0,1,0,49282,0.143626,0.143323,0.478354,75,0.0109133,10,6.8559e-05,-3.32025,-0.0850344,-0.693837,0.143112,
2,1,0,0,0,49282.8,0.147621,0.147315,0.422661,75,0.0112831,10,6.22644e-05,-3.37401,-0.0725671,-0.81304,0.147129,
2,1,0,1,0,49283.6,0.151617,0.151254,0.373079,75,0.0116103,10,5.64296e-05,-3.4282,-0.0779049,-0.757334,0.15109,
2,1,0,1,0,49284.4,0.155612,0.15525,0.336124,75,0.0119019,10,5.21834e-05,-3.4735,-0.10758,-0.548429,0.155102,
2,1,0,1,0,49285.2,0.159606,0.159307,0.311221,75,0.0121701,10,4.95796e-05,-3.50693,-0.147248,-0.400683,0.15917,
2,1,0,1,0,49286,0.163602,0.163236,0.296755,75,0.0124231,10,4.84411e-05,-3.5276,-0.206732,-0.285394,0.163105,
2,1,0,0,0,49286.8,0.167597,0.167274,0.285817,75,0.0126653,10,4.78098e-05,-3.54391,-0.30273,-0.194893,0.167148,
2,1,0,1,0,49287.6,0.171592,0.171283,0.277406,75,0.0129006,10,4.7515e-05,-3.55688,-0.391961,-0.150525,0.171161,
2,1,0,1,0,49288.4,0.175588,0.175224,0.273057,75,0.0131302,10,4.78461e-05,-3.56375,-0.426914,-0.138201,0.175104,
2,1,0,1,0,49289.2,0.179582,0.179299,0.267362,75,0.0133556,10,4.79378e-05,-3.5729,-0.80619,-0.0731837,0.179181,
2,1,0,1,0,49290,0.183577,0.18324,0.26392,75,0.0135779,10,4.83607e-05,-3.57853,-0.777574,-0.075877,0.183124,
2,1,0,0,0,49290.8,0.187573,0.187261,0.262169,75,0.0137976,10,4.9094e-05,-3.58142,-0.75843,-0.0777923,0.187145,
2,1,0,1,0,49291.6,0.191568,0.191221,0.258405,75,0.0140148,10,4.94125e-05,-3.5877,-1.02323,-0.0576603,0.191107,
2,1,0,0,0,49292.4,0.195563,0.195204,0.256069,75,0.0142305,10,4.99858e-05,-3.59164,-0.719417,-0.0820109,0.195091,
2,1,0,1,0,49293.2,0.199559,0.199237,0.253784,75,0.0144442,10,5.05632e-05,-3.59554,-18.7092,-0.00315352,0.199125,
2,1,0,1,0,49294,0.203553,0.203229,0.251869,75,0.0146568,10,5.11871e-05,-3.59883,-1.24885,-0.0472436,0.203118,
2,1,0,1,0,49294.8,0.207548,0.207195,0.252005,75,0.0148682,10,5.22141e-05,-3.59859,-3.1905,-0.0184924,0.207084,
2,1,0,1,0,49295.6,0.211544,0.211222,0.249808,75,0.0150782,10,5.27648e-05,-3.60239,-1.48436,-0.0397477,0.211112,
2,1,0,0,0,49296.4,0.215539,0.215198,0.248876,75,0.0152872,10,5.35576e-05,-3.60402,-1.14354,-0.0515943,0.215089,
2,1,0,1,0,49297.2,0.219535,0.21923,0.247982,75,0.0154949,10,5.43651e-05,-3.60558,-1.87582,-0.0314529,0.219121,
2,1,0,1,0,49298,0.223529,0.223209,0.246636,75,0.0157019,10,5.50513e-05,-3.60794,-1.57761,-0.0373984,0.2231,
2,1,0,1,0,49298.7,0.227524,0.227205,0.244849,75,0.0159081,10,5.56309e-05,-3.6111,-2.89179,-0.0204026,0.227097,
2,1,0,1,0,49299.5,0.23152,0.231187,0.244749,75,0.0161132,10,5.65828e-05,-3.61128,-4.45676,-0.0132383,0.231079,
2,1,0,0,0,49300.3,0.235515,0.235174,0.242255,75,0.0163177,10,5.69721e-05,-3.61573,-1.59361,-0.0370229,0.235067,
2,1,0,1,0,49301.1,0.23951,0.239184,0.24233,75,0.0165213,10,5.79616e-05,-3.61559,18,0.00327777,0.239078,
2,1,0,1,0,49301.9,0.243506,0.243192,0.242619,75,0.0167242,10,5.9003e-05,-3.61508,-4.40718,-0.0133873,0.243085,
2,1,0,1,0,49302.7,0.2475,0.247196,0.241404,75,0.0169268,10,5.9674e-05,-3.61726,-1.29104,-0.0456996,0.24709,
2,1,0,1,0,49303.5,0.251495,0.25115,0.23981,75,0.0171284,10,6.02282e-05,-3.62013,-5.06206,-0.0116553,0.251044,
2,1,0,0,0,49304.3,0.255491,0.255173,0.23867,75,0.0173293,10,6.09022e-05,-3.6222,-2.5414,-0.0232156,0.255068,
2,1,0,1,0,49305.1,0.259486,0.259171,0.23952,75,0.01753,10,6.20765e-05,-3.62066,-1.40711,-0.04193,0.259066,
2,1,0,0,0,49305.9,0.263481,0.263158,0.237814,75,0.0177297,10,6.25826e-05,-3.62376,69.2305,0.000852225,0.263053,
2,1,0,1,0,49306.7,0.267477,0.267144,0.236347,75,0.017929,10,6.31387e-05,-3.62645,-2.4115,-0.0244661,0.26704,
2,1,0,1,0,49307.5,0.271471,0.271143,0.237064,75,0.0181276,10,6.42781e-05,-3.62514,-7.74908,-0.0076138,0.271039,
2,1,0,1,0,49308.3,0.275466,0.275147,0.234756,75,0.0183253,10,6.45925e-05,-3.62938,-2.26811,-0.0260128,0.275043,
2,1,0,1,0,49309.1,0.279462,0.279136,0.235206,75,0.0185226,10,6.56545e-05,-3.62855,-2.82414,-0.0208913,0.279033,
2,1,0,0,0,49309.9,0.283457,0.283139,0.234807,75,0.0187191,10,6.64831e-05,-3.62929,-1.41884,-0.0415833,0.283036,
2,1,0,1,0,49310.7,0.287452,0.287094,0.233443,75,0.0189149,10,6.70201e-05,-3.63182,-1.92433,-0.0306601,0.286991,
2,1,0,1,0,49311.5,0.291448,0.29113,0.232704,75,0.0191099,10,6.77469e-05,-3.6332,-1.71162,-0.0344702,0.291027,
2,1,0,1,0,49312.3,0.295442,0.295152,0.23194,75,0.0193039,10,6.84577e-05,-3.63462,4.63969,0.0127164,0.29505,
2,1,0,1,0,49313.1,0.299437,0.299133,0.230128,75,0.0194974,10,6.8839e-05,-3.63803,-1.62014,-0.0364166,0.299032,
2,1,0,0,0,49313.9,0.303433,0.303117,0.229595,75,0.0196901,10,6.95942e-05,-3.63904,-3.12408,-0.0188856,0.303016,
2,1,0,1,0,49314.7,0.307428,0.30709,0.229561,75,0.0198822,10,7.04958e-05,-3.6391,-12.7855,-0.00461461,0.306989,
2,1,0,1,0,49315.5,0.311424,0.311073,0.227775,75,0.0200738,10,7.08547e-05,-3.64249,-1.00833,-0.0585126,0.310973,
2,1,0,1,0,49316.3,0.315418,0.315076,0.226853,75,0.0202645,10,7.14757e-05,-3.64426,-5.6608,-0.0104225,0.314976,
2,1,0,1,0,49317.1,0.319413,0.319088,0.226394,75,0.0204547,10,7.22397e-05,-3.64513,3.87589,0.0152223,0.318989,
2,1,0,0,0,49317.9,0.323409,0.323086,0.226079,75,0.0206445,10,7.3043e-05,-3.64574,-1.10373,-0.0534553,0.322986,
2,1,0,1,0,49318.7,0.327404,0.327103,0.226215,75,0.0208335,10,7.39954e-05,-3.64548,9.78082,0.00603221,0.327003,
2,1,0,0,0,49319.5,0.331399,0.331106,0.224665,75,0.0210222,10,7.4388e-05,-3.64846,-1.69572,-0.0347936,0.331007,
2,1,0,1,0,49320.3,0.335395,0.335073,0.225563,75,0.0212103,10,7.55801e-05,-3.64673,-38.7343,-0.0015232,0.334974,
2,1,0,1,0,49321.1,0.339389,0.339071,0.224099,75,0.0213981,10,7.59855e-05,-3.64956,-3.30303,-0.0178624,0.338973,
2,1,0,1,0,49321.9,0.343384,0.343035,0.223242,75,0.0215854,10,7.658e-05,-3.65122,-4.00776,-0.0147214,0.342937,
2,1,0,1,0,49322.7,0.34738,0.347057,0.224043,75,0.0217721,10,7.77558e-05,-3.64967,-5.1076,-0.0115514,0.346959,
2,1,0,0,0,49323.5,0.351375,0.351032,0.222775,75,0.0219587,10,7.82012e-05,-3.65213,-5.98118,-0.00986428,0.350934,
2,1,0,1,0,49324.3,0.35537,0.355066,0.222624,75,0.0221449,10,7.90463e-05,-3.65243,-2.09046,-0.0282234,0.354968,
2,1,0,1,0,49325.1,0.359366,0.359072,0.222444,75,0.0223306,10,7.98736e-05,-3.65278,7.00371,0.00842411,0.358974,
2,1,0,1,0,49325.9,0.36336,0.363034,0.221668,75,0.0225158,10,8.04732e-05,-3.6543,-1.71211,-0.0344603,0.362937,
2,1,0,1,0,49326.7,0.367355,0.367082,0.221461,75,0.0227004,10,8.12944e-05,-3.6547,-6.69831,-0.00880819,0.366984,
2,1,0,0,0,49327.5,0.371351,0.371053,0.22035,75,0.0228845,10,8.17618e-05,-3.65689,2.79908,0.0210784,0.370956,
2,1,0,1,0,49328.3,0.375346,0.375045,0.220461,75,0.0230686,10,8.26827e-05,-3.65667,-1.40918,-0.0418683,0.374948,
2,1,0,1,0,49329.1,0.379342,0.378977,0.219557,75,0.0232522,10,8.3207e-05,-3.65845,-21.2431,-0.00277738,0.378881,
2,1,0,1,0,49329.9,0.383336,0.383011,0.220227,75,0.0234356,10,8.43493e-05,-3.65713,-5.48332,-0.0107599,0.382914,
2,1,0,1,0,49330.7,0.387331,0.387034,0.219539,75,0.0236189,10,8.4969e-05,-3.65849,-2.76067,-0.0213716,0.386937,
2,1,0,0,0,49331.5,0.391327,0.391063,0.219491,75,0.0238017,10,8.58347e-05,-3.65858,8.92532,0.0066104,0.390967,
2,1,0,1,0,49332.3,0.395322,0.395037,0.218033,75,0.0239844,10,8.6131e-05,-3.66148,-36.0741,-0.00163552,0.394941,
2,1,0,0,0,49333.1,0.399317,0.398992,0.218794,75,0.0241667,10,8.72971e-05,-3.65996,-4.37604,-0.0134825,0.398896,
2,1,0,1,0,49333.9,0.403313,0.403017,0.218404,75,0.0243489,10,8.80204e-05,-3.66074,8.64475,0.00682495,0.402921,
2,1,0,1,0,49334.7,0.407307,0.40699,0.218005,75,0.0245308,10,8.87256e-05,-3.66153,-12.757,-0.00462491,0.406894,
2,1,0,1,0,49335.5,0.411302,0.410996,0.219115,75,0.0247124,10,9.00555e-05,-3.65933,6.32343,0.00933039,0.4109,
2,1,0,1,0,49336.3,0.415298,0.415024,0.218142,75,0.0248943,10,9.05342e-05,-3.66126,-4.89497,-0.0120532,0.414928,
2,1,0,0,0,49337.1,0.419293,0.419005,0.218606,75,0.025076,10,9.15969e-05,-3.66034,-1.85617,-0.0317859,0.418909,
2,1,0,1,0,49337.9,0.423288,0.422978,0.218231,75,0.0252574,10,9.23071e-05,-3.66108,2.20096,0.0268065,0.422882,
2,1,0,1,0,49338.7,0.427283,0.426969,0.218088,75,0.0254389,10,9.31169e-05,-3.66137,-21.4731,-0.00274762,0.426873,
2,1,0,1,0,49339.5,0.431278,0.430982,0.217664,75,0.0256204,10,9.38091e-05,-3.66221,67.5235,0.00087377,0.430886,
2,1,0,1,0,49340.3,0.435273,0.434942,0.21765,75,0.0258018,10,9.46651e-05,-3.66224,-34.465,-0.00171188,0.434846,
2,1,0,0,0,49341.1,0.439269,0.438933,0.217831,75,0.0259831,10,9.56134e-05,-3.66188,-3.43652,-0.0171685,0.438837,
2,1,0,1,0,49341.9,0.443264,0.442965,0.216904,75,0.0261638,10,9.60807e-05,-3.66373,2.91459,0.020243,0.442869,
2,1,0,0,0,49342.7,0.447259,0.446924,0.216925,75,0.0263446,10,9.69489e-05,-3.66369,-5.06592,-0.0116465,0.446829,
2,1,0,1,0,49343.5,0.451254,0.450949,0.218297,75,0.0265255,10,9.84409e-05,-3.66095,-2.97678,-0.0198201,0.450853,
2,1,0,1,0,49344.3,0.455249,0.454938,0.217906,75,0.0267064,10,9.91339e-05,-3.66173,1.1553,0.0510688,0.454842,
2,1,0,1,0,49345.1,0.459244,0.458969,0.218813,75,0.0268876,10,0.000100428,-3.65993,4.46962,0.0132002,0.458873,
2,1,0,1,0,49345.9,0.46324,0.462932,0.21864,75,0.0270691,10,0.000101215,-3.66027,-5.4542,-0.0108173,0.462836,
2,1,0,0,0,49346.7,0.467235,0.466924,0.218682,75,0.0272505,10,0.000102108,-3.66019,9.00936,0.00654875,0.466827,
2,1,0,1,0,49347.5,0.471231,0.47094,0.21908,75,0.0274321,10,0.000103174,-3.6594,-7.26611,-0.00811988,0.470844,
2,1,0,1,0,49348.3,0.475225,0.474896,0.220348,75,0.027614,10,0.000104642,-3.65689,1.36906,0.0430954,0.474799,
2,1,0,1,0,49349.1,0.47922,0.478927,0.219828,75,0.0277963,10,0.000105282,-3.65792,-14.881,-0.0039648,0.478831,
2,1,0,1,0,49349.9,0.483216,0.482925,0.220986,75,0.0279788,10,0.00010672,-3.65563,3.41117,0.0172961,0.482828,
2,1,0,0,0,49350.7,0.487211,0.486867,0.220954,75,0.028162,10,0.000107575,-3.6557,1.51857,0.0388523,0.48677,
2,1,0,1,0,49351.5,0.491206,0.49089,0.221945,75,0.0283458,10,0.00010895,-3.65375,41.7344,0.0014137,0.490792,
2,1,0,1,0,49352.3,0.495201,0.494875,0.222989,75,0.0285301,10,0.000110352,-3.65172,12.3912,0.00476143,0.494777,
2,1,0,1,0,49353.1,0.499196,0.498909,0.223172,75,0.0287149,10,0.000111343,-3.65136,0.834104,0.0707346,0.498811,
2,1,0,1,0,49353.9,0.503191,0.502892,0.224051,75,0.0289006,10,0.000112674,-3.64965,2.72652,0.0216393,0.502794,
2,1,0,0,0,49354.7,0.507187,0.506837,0.225559,75,0.0290868,10,0.000114322,-3.64674,15.3107,0.00385352,0.506738,
2,1,0,1,0,49355.5,0.511182,0.510853,0.226041,75,0.0292738,10,0.000115474,-3.64581,1.52852,0.0385995,0.510754,
2,1,0,0,0,49356.3,0.515177,0.514877,0.226977,75,0.0294615,10,0.000116865,-3.64402,3.94996,0.0149369,0.514778,
2,1,0,1,0,49357.1,0.519173,0.518863,0.228464,75,0.0296499,10,0.000118542,-3.64118,1.04387,0.0565203,0.518762,
2,1,0,1,0,49357.9,0.523167,0.522855,0.229224,75,0.0298392,10,0.000119851,-3.63974,5.57851,0.0105763,0.522754,
2,1,0,1,0,49358.7,0.527162,0.526886,0.23041,75,0.0300295,10,0.0001214,-3.6375,1.09972,0.0536499,0.526785,
2,1,0,1,0,49359.5,0.531158,0.530852,0.23212,75,0.0302209,10,0.000123221,-3.63429,1.40869,0.041883,0.53075,
2,1,0,0,0,49360.3,0.535153,0.534908,0.23423,75,0.0304136,10,0.000125291,-3.63036,1.38147,0.0427081,0.534805,
2,1,0,1,0,49361.1,0.539148,0.538925,0.235519,75,0.0306073,10,0.000126927,-3.62797,2.00871,0.0293721,0.538822,
2,1,0,1,0,49361.9,0.543143,0.542843,0.236922,75,0.0308023,10,0.000128611,-3.62539,0.847632,0.0696057,0.542738,
2,1,0,1,0,49362.7,0.547138,0.546819,0.239596,75,0.0309988,10,0.000131015,-3.62052,1.64408,0.0358864,0.546714,
2,1,0,1,0,49363.5,0.551133,0.550848,0.241656,75,0.031197,10,0.000133116,-3.6168,0.679678,0.0868058,0.550742,
2,1,0,0,0,49364.3,0.555129,0.554812,0.243289,75,0.031397,10,0.00013498,-3.61388,1.49833,0.0393771,0.554705,
2,1,0,1,0,49365.1,0.559124,0.558793,0.245714,75,0.0315988,10,0.000137303,-3.60957,0.843502,0.0699465,0.558685,
2,1,0,1,0,49365.9,0.56312,0.562794,0.249216,75,0.0318028,10,0.000140257,-3.60342,0.6406,0.0921012,0.562685,
2,1,0,1,0,49366.7,0.567114,0.566833,0.25189,75,0.0320093,10,0.000142779,-3.59879,0.865036,0.0682052,0.566722,
2,1,0,1,0,49367.5,0.571109,0.570845,0.255941,75,0.0322179,10,0.000146103,-3.59186,0.718495,0.0821161,0.570733,
2,1,0,0,0,49368.3,0.575105,0.574769,0.25876,75,0.0324293,10,0.000148727,-3.5871,0.58729,0.100461,0.574655,
2,1,0,1,0,49369.1,0.5791,0.578801,0.262498,75,0.0326438,10,0.000151934,-3.58087,0.839166,0.0703079,0.578685,
2,1,0,0,0,49369.9,0.583095,0.582811,0.267135,75,0.0328616,10,0.00015569,-3.57327,0.399156,0.147812,0.582694,
2,1,0,1,0,49370.7,0.58709,0.586798,0.272471,75,0.0330832,10,0.000159885,-3.56468,0.499638,0.118085,0.586678,
2,1,0,1,0,49371.5,0.591085,0.590739,0.278014,75,0.0333087,10,0.000164234,-3.55593,0.505201,0.116785,0.590617,
2,1,0,1,0,49372.3,0.59508,0.594737,0.282922,75,0.0335385,10,0.000168265,-3.54833,0.403991,0.146043,0.594613,
2,1,0,1,0,49373.1,0.599076,0.598794,0.289553,75,0.0337734,10,0.000173382,-3.53827,0.399062,0.147847,0.598666,
2,1,0,0,0,49373.9,0.603071,0.602778,0.297337,75,0.0340138,10,0.000179228,-3.52675,0.328199,0.179769,0.602647,
2,1,0,1,0,49374.7,0.607066,0.60677,0.305506,75,0.0342607,10,0.000185372,-3.51498,0.296447,0.199024,0.606636,
2,1,0,1,0,49375.5,0.611061,0.610754,0.316434,75,0.034515,10,0.000193263,-3.49972,0.29776,0.198146,0.610615,
2,1,0,1,0,49376.3,0.615056,0.61475,0.327034,75,0.0347776,10,0.000201044,-3.48541,0.242864,0.242935,0.614606,
2,1,0,1,0,49377.1,0.619051,0.618744,0.339738,75,0.0350499,10,0.000210211,-3.46886,0.220382,0.267717,0.618594,
2,1,0,0,0,49377.9,0.623047,0.622729,0.353997,75,0.0353329,10,0.000220444,-3.451,0.209302,0.281889,0.622573,
2,1,0,1,0,49378.7,0.627042,0.626791,0.371724,75,0.0356285,10,0.000232993,-3.42978,0.184626,0.319566,0.626627,
2,1,0,1,0,49379.5,0.631037,0.63079,0.39206,75,0.0359392,10,0.000247308,-3.40665,0.165345,0.35683,0.630617,
2,1,0,1,0,49380.3,0.635032,0.634743,0.415873,75,0.036267,10,0.000263972,-3.38104,0.149862,0.393695,0.63456,
2,1,0,1,0,49381,0.639027,0.638743,0.442072,75,0.0366151,10,0.00028237,-3.35451,0.14016,0.420946,0.638549,
2,1,0,1,0,49381.8,0.643022,0.642705,0.473259,75,0.0369863,10,0.000304166,-3.3249,0.133535,0.441831,0.642497,
2,1,0,1,0,49382.6,0.647018,0.646729,0.509676,75,0.0373844,10,0.000329622,-3.29271,0.117308,0.50295,0.646505,
2,1,0,0,0,49383.4,0.651013,0.650702,0.551423,75,0.0378139,10,0.000358812,-3.25852,0.111809,0.527686,0.650459,
2,1,0,1,0,49384.2,0.655008,0.654759,0.600486,75,0.0382791,10,0.000393173,-3.2215,0.104147,0.566509,0.654495,
2,1,0,1,0,49385,0.659003,0.658727,0.658899,75,0.0387873,10,0.000434035,-3.18118,0.0973692,0.605941,0.658437,
2,1,0,1,0,49385.8,0.662998,0.662697,0.724052,75,0.0393449,10,0.000479827,-3.14023,0.0935086,0.630958,0.662378,
2,1,0,1,0,49386.6,0.666994,0.666713,0.801345,75,0.0399592,10,0.000534267,-3.09618,0.0896525,0.658097,0.66636,
2,1,0,0,0,49387.4,0.670989,0.670703,0.88744,75,0.0406387,10,0.000595209,-3.05186,0.0848497,0.695347,0.670313,
2,1,0,1,0,49388.2,0.674984,0.674687,0.987157,75,0.041393,10,0.000666022,-3.00561,0.085791,0.687718,0.674253,
2,1,0,1,0,49389,0.67898,0.678713,1.09993,75,0.042232,10,0.000746539,-2.95863,0.0830579,0.710348,0.678229,
2,1,0,1,0,49389.8,0.682974,0.682719,1.22653,75,0.0431668,10,0.000837379,-2.91132,0.0827295,0.713167,0.68218,
2,1,0,1,0,49390.6,0.686969,0.686671,1.37007,75,0.0442096,10,0.000940786,-2.86326,0.0826996,0.713425,0.686069,
2,1,0,0,0,49391.4,0.690965,0.690689,1.52785,75,0.0453729,10,0.00105527,-2.81592,0.0823587,0.716378,0.690016,
2,1,0,1,0,49392.2,0.69496,0.694689,1.70283,75,0.0466685,10,0.00118293,-2.76883,0.0850972,0.693325,0.69394,
2,1,0,0,0,49393,0.698955,0.698644,1.89538,75,0.0481108,10,0.0013242,-2.7223,0.0841893,0.700802,0.69781,
2,1,0,1,0,49393.8,0.70295,0.702679,2.1032,75,0.0497135,10,0.00147787,-2.67712,0.0868061,0.679676,0.701753,
2,1,0,1,0,49394.6,0.706945,0.706658,2.33058,75,0.0514899,10,0.00164692,-2.63254,0.0884723,0.666875,0.705633,
2,1,0,1,0,49395.4,0.71094,0.710616,2.57313,75,0.0534539,10,0.00182851,-2.58954,0.0915687,0.644325,0.709484,
2,1,0,1,0,49396.2,0.714936,0.714648,2.83489,75,0.0556198,10,0.00202595,-2.54746,0.0938898,0.628396,0.713401,
2,1,0,0,0,49397,0.718931,0.718623,3.11244,75,0.0580004,10,0.00223667,-2.5069,0.0960242,0.614429,0.717253,
2,1,0,1,0,49397.8,0.722927,0.722637,3.40832,75,0.0606105,10,0.00246298,-2.46746,0.100743,0.58565,0.721137,
2,1,0,1,0,49398.6,0.726921,0.726634,3.72236,75,0.063464,10,0.00270479,-2.42918,0.101941,0.578769,0.724997,
2,1,0,1,0,49399.4,0.730916,0.730627,4.05392,75,0.0665753,10,0.00296191,-2.39212,0.104936,0.562247,0.728844,
2,1,0,1,0,49400.2,0.734911,0.734644,4.40411,75,0.0699596,10,0.00323545,-2.35614,0.10908,0.540888,0.732706,
2,1,0,0,0,49401,0.738907,0.738616,4.77353,75,0.0736313,10,0.00352581,-2.32116,0.11041,0.534371,0.736515,
2,1,0,1,0,49401.8,0.742902,0.742636,5.16265,75,0.0776056,10,0.00383397,-2.28713,0.113269,0.520884,0.740364,
2,1,0,1,0,49402.6,0.746897,0.746585,5.57157,75,0.0818995,10,0.00415965,-2.25402,0.116398,0.50688,0.744134,
2,1,0,1,0,49403.4,0.750892,0.750625,6.00311,75,0.0865284,10,0.00450608,-2.22162,0.117631,0.501569,0.747984,
2,1,0,1,0,49404.2,0.754887,0.754623,6.45558,75,0.0915111,10,0.00487153,-2.19006,0.122753,0.480638,0.751783,
2,1,0,0,0,49405,0.758883,0.758599,6.93309,75,0.0968661,10,0.00525944,-2.15907,0.12313,0.479167,0.755549,
2,1,0,1,0,49405.8,0.762878,0.762551,7.43377,75,0.102611,10,0.00566863,-2.12879,0.124944,0.472212,0.75928,
2,1,0,0,0,49406.6,0.766873,0.766653,7.96297,75,0.108767,10,0.00610483,-2.09892,0.12721,0.463799,0.763149,
2,1,0,1,0,49407.4,0.770868,0.770622,8.52088,75,0.115358,10,0.00656638,-2.06952,0.12859,0.458824,0.766873,
2,1,0,1,0,49408.2,0.774863,0.774601,9.10964,75,0.122406,10,0.00705634,-2.0405,0.128544,0.458987,0.770593,
2,1,0,1,0,49409,0.778858,0.77859,9.73367,75,0.129938,10,0.00757854,-2.01172,0.129624,0.455162,0.774307,
2,1,0,1,0,49409.8,0.782854,0.782598,10.3953,75,0.137985,10,0.00813537,-1.98316,0.129574,0.455337,0.778024,
2,1,0,0,0,49410.6,0.786849,0.786561,11.1006,75,0.146578,10,0.0087313,-1.95465,0.129337,0.456171,0.781677,
2,1,0,1,0,49411.4,0.790844,0.79055,12.1449,75,0.155826,10,0.00960116,-1.91561,0.088131,0.669458,0.785206,
2,1,0,1,0,49412.2,0.794839,0.794536,12.9927,75,0.165877,10,0.0103232,-1.8863,0.124316,0.474596,0.78882,
2,1,0,1,0,49413,0.798834,0.798527,13.8922,75,0.176626,10,0.0110933,-1.85723,0.128778,0.458152,0.792414,
2,1,0,1,0,49413.8,0.802829,0.80256,14.814,75,0.188097,10,0.0118891,-1.82933,0.126057,0.468042,0.796042,
2,1,0,0,0,49414.6,0.806825,0.806552,15.7946,75,0.200332,10,0.0127392,-1.80149,0.127617,0.46232,0.799602,
2,1,0,1,0,49415.4,0.81082,0.810537,16.8238,75,0.213371,10,0.0136363,-1.77407,0.131937,0.447181,0.803134,
2,1,0,1,0,49416.2,0.814815,0.814553,17.8833,75,0.227244,10,0.0145669,-1.74755,0.134247,0.439487,0.806684,
2,1,0,1,0,49417,0.81881,0.818487,19.0093,75,0.241987,10,0.0155588,-1.72103,0.133649,0.441454,0.810123,
2,1,0,1,0,49417.8,0.822805,0.82258,20.1683,75,0.257646,10,0.01659,-1.69533,0.13804,0.427413,0.813706,
2,1,0,0,0,49418.6,0.826801,0.826552,21.3613,75,0.274239,10,0.0176563,-1.67037,0.140978,0.418505,0.817153,
2,1,0,1,0,49419.4,0.830796,0.830507,22.5718,75,0.2918,10,0.0187461,-1.64643,0.142822,0.413103,0.820576,
2,1,0,0,0,49420.2,0.834791,0.834551,23.8601,75,0.31036,10,0.0199125,-1.62233,0.148322,0.397782,0.824052,
2,1,0,1,0,49421,0.838786,0.838529,25.1479,75,0.329946,10,0.0210872,-1.5995,0.149207,0.395424,0.827464,
2,1,0,1,0,49421.8,0.842781,0.842522,26.481,75,0.350586,10,0.0223108,-1.57707,0.18209,0.324016,0.83087,
2,1,0,1,0,49422.6,0.846776,0.846553,27.6594,75,0.372163,10,0.0234152,-1.55816,0.155889,0.378474,0.834383,
2,1,0,0,0,49423.3,0.849723,0.849449,28.5532,75,0.391922,10,0.0242545,-1.54435,0.0392219,1.50426,0.836886,
2,1,0,1,0,49424.1,0.845728,0.845449,26.5277,75,0.413851,10,0.0224278,-1.5763,0.112653,0.523733,0.833776,
2,1,0,0,0,49424.9,0.841732,0.841528,24.8587,75,0.434348,10,0.0209193,-1.60452,0.122257,0.482589,0.83059,
2,1,0,1,0,49425.7,0.837737,0.837488,23.3576,75,0.453597,10,0.0195617,-1.63157,0.125573,0.469847,0.82721,
2,1,0,1,0,49426.5,0.833742,0.833437,22.023,75,0.471699,10,0.0183548,-1.65712,0.12952,0.45553,0.823747,
2,1,0,1,0,49427.3,0.829747,0.82946,20.6592,75,0.488739,10,0.017136,-1.68489,0.122279,0.482501,0.82037,
2,1,0,1,0,49428.1,0.825752,0.825505,19.3782,75,0.504717,10,0.0159968,-1.71269,0.123936,0.476051,0.816979,
2,1,0,0,0,49428.9,0.821757,0.821445,18.1819,75,0.519712,10,0.0149354,-1.74036,0.125054,0.471797,0.813445,
2,1,0,1,0,49429.7,0.817761,0.81751,17.0261,75,0.533766,10,0.013919,-1.76889,0.122661,0.481001,0.810018,
2,1,0,1,0,49430.5,0.813766,0.813497,15.9144,75,0.546913,10,0.0129463,-1.79821,0.120433,0.489897,0.806495,
2,1,0,1,0,49431.3,0.809771,0.809504,14.8727,75,0.559203,10,0.0120395,-1.82761,0.118633,0.497333,0.80296,
2,1,0,1,0,49432.1,0.805776,0.805505,13.8841,75,0.57068,10,0.0111837,-1.85748,0.12018,0.49093,0.799396,
2,1,0,0,0,49432.9,0.801781,0.801464,12.9609,75,0.581396,10,0.0103877,-1.88736,0.118678,0.497143,0.795761,
2,1,0,1,0,49433.7,0.797786,0.797492,12.0898,75,0.591393,10,0.00964154,-1.91758,0.118544,0.497707,0.792172,
2,1,0,1,0,49434.5,0.79379,0.793523,11.2563,75,0.60071,10,0.00893211,-1.94861,0.116658,0.50575,0.78857,
2,1,0,1,0,49435.3,0.789795,0.78947,10.4763,75,0.609382,10,0.00827071,-1.97979,0.114574,0.514951,0.78486,
2,1,0,1,0,49436.1,0.7858,0.785536,9.72505,75,0.61744,10,0.00763938,-2.01211,0.114821,0.513842,0.781257,
2,1,0,0,0,49436.9,0.781805,0.781528,9.02876,75,0.624924,10,0.00705623,-2.04437,0.115013,0.512983,0.777556,
2,1,0,1,0,49437.7,0.77781,0.777514,8.38129,75,0.631869,10,0.00651657,-2.07669,0.113017,0.522046,0.773826,
2,1,0,0,0,49438.5,0.773814,0.773543,7.77034,75,0.638313,10,0.0060107,-2.10956,0.114488,0.515338,0.770124,
2,1,0,1,0,49439.3,0.769819,0.769591,7.19789,75,0.644284,10,0.00553943,-2.14279,0.110257,0.535114,0.766424,
2,1,0,1,0,49440.1,0.765824,0.765525,6.65978,75,0.64981,10,0.00509823,-2.17654,0.110242,0.535187,0.762594,
2,1,0,1,0,49440.9,0.761829,0.761521,6.15193,75,0.654919,10,0.00468482,-2.21099,0.111078,0.53116,0.758814,
2,1,0,1,0,49441.7,0.757834,0.757528,5.67751,75,0.659637,10,0.00430087,-2.24584,0.106723,0.552835,0.75503,
2,1,0,0,0,49442.5,0.753839,0.753598,5.23025,75,0.663986,10,0.00394151,-2.28148,0.106505,0.553965,0.751297,
2,1,0,1,0,49443.3,0.749844,0.749497,4.81055,75,0.667989,10,0.00360549,-2.31781,0.102348,0.576465,0.74738,
2,1,0,1,0,49444.1,0.745848,0.745657,4.4154,75,0.671667,10,0.00329238,-2.35503,0.103074,0.572403,0.743714,
2,1,0,1,0,49444.9,0.741853,0.741561,4.04248,75,0.675038,10,0.00299775,-2.39335,0.0979824,0.602149,0.739782,
2,1,0,1,0,49445.7,0.737858,0.737566,3.69276,75,0.67812,10,0.00272365,-2.43265,0.0948426,0.622083,0.735941,
2,1,0,0,0,49446.5,0.733863,0.733572,3.36199,75,0.68093,10,0.00246626,-2.4734,0.0952246,0.619588,0.732093,
2,1,0,1,0,49447.3,0.729868,0.729563,3.05209,75,0.683485,10,0.00222669,-2.5154,0.0897541,0.657351,0.72822,
2,1,0,1,0,49448.1,0.725872,0.725593,2.76506,75,0.685802,10,0.00200631,-2.5583,0.0904924,0.651988,0.724377,
2,1,0,1,0,49448.9,0.721877,0.721577,2.49511,75,0.687895,10,0.00180041,-2.60291,0.0835314,0.706321,0.720479,
2,1,0,1,0,49449.7,0.717882,0.71762,2.24196,75,0.68978,10,0.00160888,-2.64937,0.082761,0.712896,0.716633,
2,1,0,0,0,49450.5,0.713887,0.713594,2.00757,75,0.69147,10,0.00143259,-2.69733,0.0793529,0.743514,0.712711,
2,1,0,1,0,49451.3,0.709892,0.709591,1.78771,75,0.692979,10,0.00126854,-2.7477,0.0757677,0.778695,0.708805,
2,1,0,0,0,49452.1,0.705897,0.70559,1.58267,75,0.694318,10,0.00111672,-2.80061,0.0777775,0.758574,0.704894,
2,1,0,1,0,49452.9,0.701901,0.701603,1.40401,75,0.695505,10,0.000985059,-2.85263,0.0690723,0.854177,0.700985,
2,1,0,1,0,49453.7,0.697906,0.697619,1.22989,75,0.69655,10,0.000857994,-2.91013,0.0665973,0.885922,0.697078,
2,1,0,1,0,49454.5,0.693911,0.693643,1.07155,75,0.697462,10,0.000743271,-2.96999,0.0643349,0.917076,0.693172,
2,1,0,1,0,49455.3,0.689916,0.689654,0.926887,75,0.698254,10,0.000639231,-3.03297,0.0606119,0.973406,0.689246,
2,1,0,0,0,49456.1,0.685921,0.685617,0.796242,75,0.698935,10,0.000545917,-3.09896,0.0571935,1.03159,0.685266,
2,1,0,1,0,49456.9,0.681926,0.68166,0.677162,75,0.699516,10,0.000461594,-3.16931,0.0548452,1.07576,0.681362,
2,1,0,1,0,49457.7,0.67793,0.677663,0.569021,75,0.700007,10,0.000385605,-3.24487,0.0522648,1.12887,0.677413,
2,1,0,1,0,49458.5,0.673935,0.673634,0.476201,75,0.700419,10,0.000320785,-3.32221,0.0491011,1.2016,0.673425,
2,1,0,1,0,49459.3,0.66994,0.669664,0.392846,75,0.700758,10,0.000263075,-3.40578,0.0443106,1.33151,0.669491,
2,1,0,0,0,49460.1,0.665945,0.665679,0.31865,75,0.701035,10,0.000212118,-3.49669,0.0427354,1.38059,0.665539,
2,1,0,1,0,49460.9,0.66195,0.661674,0.254553,75,0.701257,10,0.000168431,-3.59422,0.0388041,1.52046,0.661562,
2,1,0,0,0,49461.7,0.657955,0.657641,0.19871,75,0.701431,10,0.00013068,-3.70178,0.0356029,1.65717,0.657553,
2,1,0,1,0,49462.5,0.653959,0.653684,0.149345,75,0.701564,10,9.76245e-05,-3.82581,0.0298986,1.97333,0.653619,
2,1,0,1,0,49463.3,0.649964,0.649674,0.10838,75,0.701661,10,7.0412e-05,-3.96505,0.0266695,2.21227,0.649627,
2,1,0,1,0,49464.1,0.64597,0.645653,0.0736624,75,0.701727,10,4.75604e-05,-4.13275,0.0207884,2.83812,0.645621,
2,1,0,1,0,49464.8,0.641974,0.641703,0.0435482,75,0.701767,10,2.7945e-05,-4.36103,0.0135993,4.33847,0.641684,
2,1,0,0,0,49465.6,0.637979,0.637688,0.0190404,75,0.701785,10,1.21418e-05,-4.72032,0.00629371,9.37444,0.63768,
2,0,0,1,0,49466.4,0.633983,0.633666,-0.0031584,75,0.701785,10,-2.00137e-06,-5.50053,-0.0157537,-3.74516,0.633667,
2,0,0,1,0,49467.2,0.629988,0.629665,-0.0207501,75,0.701769,10,-1.30656e-05,-4.68298,-0.0108465,-5.43957,0.629674,
2,0,0,1,0,49468,0.625993,0.625718,-0.0361769,75,0.701739,10,-2.26366e-05,-4.44157,-0.0237954,-2.47947,0.625734,
2,0,0,1,0,49468.8,0.621998,0.621695,-0.0481478,75,0.7017,10,-2.99333e-05,-4.31742,-0.0395913,-1.49023,0.621716,
2,0,0,0,0,49469.6,0.618003,0.617725,-0.0578871,75,0.701651,10,-3.57583e-05,-4.23742,-0.0517653,-1.13976,0.617751,
2,0,0,1,0,49470.4,0.614008,0.613716,-0.0676234,75,0.701594,10,-4.15015e-05,-4.1699,-0.0848179,-0.695608,0.613746,
2,0,0,1,0,49471.2,0.610012,0.609702,-0.0753128,75,0.701531,10,-4.59184e-05,-4.12313,-0.0947473,-0.622709,0.609735,
2,0,0,1,0,49472,0.606017,0.605709,-0.0804135,75,0.701462,10,-4.87071e-05,-4.09467,-0.121906,-0.483978,0.605744,
2,0,0,1,0,49472.8,0.602022,0.601729,-0.0874079,75,0.701388,10,-5.25959e-05,-4.05845,-0.205484,-0.287127,0.601768,
2,0,0,0,0,49473.6,0.598027,0.597677,-0.0914186,75,0.70131,10,-5.46388e-05,-4.03897,-0.1505,-0.392025,0.597717,
2,0,0,1,0,49474.4,0.594032,0.593762,-0.0951479,75,0.701229,10,-5.64952e-05,-4.0216,-0.259533,-0.227331,0.593804,
2,0,0,0,0,49475.2,0.590037,0.589729,-0.0993145,75,0.701145,10,-5.85687e-05,-4.00299,-0.332236,-0.177585,0.589773,
2,0,0,1,0,49476,0.586041,0.585766,-0.101787,75,0.701058,10,-5.96232e-05,-3.99231,-0.26374,-0.223705,0.585811,
2,0,0,1,0,49476.8,0.582046,0.581772,-0.104568,75,0.700969,10,-6.08346e-05,-3.9806,-0.43335,-0.136148,0.581818,
2,0,0,1,0,49477.6,0.578052,0.577768,-0.106999,75,0.700878,10,-6.18208e-05,-3.97062,-0.432342,-0.136466,0.577816,
2,0,0,1,0,49478.4,0.574056,0.573763,-0.107344,75,0.700786,10,-6.15902e-05,-3.96922,-0.596008,-0.0989919,0.57381,
2,0,0,0,0,49479.2,0.570061,0.569706,-0.110757,75,0.700692,10,-6.3099e-05,-3.95563,-5.57925,-0.0105749,0.569754,
2,0,0,1,0,49480,0.566065,0.565763,-0.111336,75,0.700596,10,-6.29895e-05,-3.95337,-0.405342,-0.145556,0.565812,
2,0,0,1,0,49480.8,0.56207,0.56178,-0.112462,75,0.7005,10,-6.31791e-05,-3.94899,-0.64038,-0.0921328,0.56183,
2,0,0,1,0,49481.6,0.558075,0.557743,-0.114937,75,0.700402,10,-6.41054e-05,-3.93954,-1.06716,-0.055287,0.557793,
2,0,0,1,0,49482.4,0.55408,0.553794,-0.115703,75,0.700304,10,-6.40756e-05,-3.93666,-0.745785,-0.0791112,0.553845,
2,0,0,0,0,49483.2,0.550085,0.549805,-0.11682,75,0.700204,10,-6.42283e-05,-3.93248,-2.00435,-0.0294359,0.549856,
2,0,0,1,0,49484,0.54609,0.545804,-0.118456,75,0.700104,10,-6.46537e-05,-3.92644,-0.498845,-0.118273,0.545856,
2,0,0,1,0,49484.8,0.542094,0.5418,-0.119,75,0.700002,10,-6.44742e-05,-3.92445,-1.26401,-0.0466768,0.541852,
2,0,0,1,0,49485.6,0.538099,0.537851,-0.120667,75,0.6999,10,-6.4901e-05,-3.91841,-3.46574,-0.0170238,0.537904,
2,0,0,1,0,49486.4,0.534104,0.533784,-0.121901,75,0.699796,10,-6.5069e-05,-3.91399,-0.717566,-0.0822224,0.533837,
2,0,0,0,0,49487.2,0.530109,0.529793,-0.122402,75,0.699692,10,-6.48475e-05,-3.91221,-1.36274,-0.043295,0.529847,
2,0,0,1,0,49488,0.526114,0.525785,-0.123884,75,0.699587,10,-6.51364e-05,-3.90698,-1.20775,-0.048851,0.525839,
2,0,0,0,0,49488.8,0.522119,0.521811,-0.125501,75,0.699481,10,-6.54877e-05,-3.90135,-1.17328,-0.0502862,0.521867,
2,0,0,1,0,49489.6,0.518123,0.517755,-0.125588,75,0.699374,10,-6.50236e-05,-3.90105,-1.41341,-0.0417429,0.51781,
2,0,0,1,0,49490.4,0.514128,0.513811,-0.126007,75,0.699266,10,-6.47439e-05,-3.8996,-7.26045,-0.00812621,0.513866,
2,0,0,1,0,49491.2,0.510133,0.50983,-0.126559,75,0.699158,10,-6.45234e-05,-3.89771,-0.624004,-0.0945507,0.509886,
2,0,0,1,0,49492,0.506138,0.505847,-0.127901,75,0.699049,10,-6.46981e-05,-3.89313,-3.44493,-0.0171266,0.505903,
2,0,0,0,0,49492.8,0.502143,0.501855,-0.129296,75,0.698939,10,-6.4888e-05,-3.88841,-0.67443,-0.0874813,0.501911,
2,0,0,1,0,49493.6,0.498148,0.497858,-0.130699,75,0.698829,10,-6.50696e-05,-3.88373,-0.844184,-0.06989,0.497915,
2,0,0,1,0,49494.4,0.494152,0.493872,-0.131513,75,0.698717,10,-6.49503e-05,-3.88103,-1.3637,-0.0432647,0.49393,
2,0,0,1,0,49495.2,0.490157,0.489893,-0.132956,75,0.698605,10,-6.51343e-05,-3.87629,-1.05556,-0.0558947,0.489952,
2,0,0,1,0,49496,0.486162,0.485869,-0.13395,75,0.698491,10,-6.5082e-05,-3.87306,-0.979453,-0.0602377,0.485928,
2,0,0,0,0,49496.8,0.482167,0.481835,-0.135168,75,0.698377,10,-6.51286e-05,-3.86913,-1.57844,-0.0373787,0.481895,
2,0,0,1,0,49497.6,0.478172,0.477852,-0.135926,75,0.698261,10,-6.49526e-05,-3.8667,-0.659904,-0.0894069,0.477912,
2,0,0,0,0,49498.4,0.474177,0.473878,-0.137508,75,0.698145,10,-6.51622e-05,-3.86167,6.51674,0.00905361,0.473938,
2,0,0,1,0,49499.2,0.470181,0.469848,-0.139081,75,0.698028,10,-6.53467e-05,-3.85673,-0.452533,-0.130377,0.469909,
2,0,0,1,0,49500,0.466186,0.465869,-0.140343,75,0.697909,10,-6.53815e-05,-3.85281,-1.18069,-0.0499708,0.46593,
2,0,0,1,0,49500.8,0.462191,0.461885,-0.141192,75,0.697789,10,-6.52143e-05,-3.85019,-0.708389,-0.0832876,0.461947,
2,0,0,1,0,49501.6,0.458196,0.457902,-0.142566,75,0.697668,10,-6.52813e-05,-3.84598,-1.33873,-0.0440715,0.457964,
2,0,0,0,0,49502.4,0.454201,0.453889,-0.144891,75,0.697546,10,-6.57644e-05,-3.83896,-1.57814,-0.0373858,0.453953,
2,0,0,1,0,49503.2,0.450205,0.449891,-0.145683,75,0.697423,10,-6.55416e-05,-3.83659,-0.675927,-0.0872876,0.449955,
2,0,0,1,0,49504,0.44621,0.445898,-0.147227,75,0.697298,10,-6.56482e-05,-3.83201,-1.18851,-0.0496421,0.445963,
2,0,0,1,0,49504.8,0.442215,0.441871,-0.149112,75,0.697172,10,-6.58883e-05,-3.82649,-0.89881,-0.0656424,0.441936,
2,0,0,1,0,49505.6,0.43822,0.437914,-0.150338,75,0.697045,10,-6.58353e-05,-3.82293,-0.454879,-0.129705,0.43798,
2,0,0,0,0,49506.4,0.434225,0.433936,-0.15155,75,0.696916,10,-6.5763e-05,-3.81944,-1.17782,-0.0500927,0.434002,
2,0,0,1,0,49507.2,0.43023,0.429943,-0.153327,75,0.696786,10,-6.5922e-05,-3.81438,-0.974836,-0.060523,0.430011,
2,0,0,1,0,49508,0.426234,0.425893,-0.155081,75,0.696655,10,-6.60479e-05,-3.80944,-0.940217,-0.0627515,0.425961,
2,0,0,1,0,49508.8,0.422239,0.421925,-0.157409,75,0.696522,10,-6.6415e-05,-3.80297,-0.686101,-0.0859931,0.421995,
2,0,0,1,0,49509.6,0.418244,0.4179,-0.15897,75,0.696388,10,-6.64336e-05,-3.79868,-1.05635,-0.0558529,0.41797,
2,0,0,0,0,49510.4,0.414249,0.413916,-0.160054,75,0.696253,10,-6.6249e-05,-3.79573,-0.56461,-0.104497,0.413987,
2,0,0,1,0,49511.2,0.410254,0.409967,-0.163218,75,0.696115,10,-6.6914e-05,-3.78723,-1.38289,-0.0426643,0.410039,
2,0,0,0,0,49512,0.406259,0.405923,-0.165419,75,0.695976,10,-6.71475e-05,-3.78141,-0.656276,-0.0899013,0.405995,
2,0,0,1,0,49512.8,0.402263,0.401934,-0.166195,75,0.695836,10,-6.67996e-05,-3.77938,-1.13861,-0.0518175,0.402007,
2,0,0,1,0,49513.6,0.398268,0.397901,-0.16963,75,0.695693,10,-6.74959e-05,-3.7705,-0.698914,-0.0844167,0.397975,
2,0,0,1,0,49514.4,0.394274,0.393986,-0.171352,75,0.69555,10,-6.75102e-05,-3.76611,-0.837969,-0.0704084,0.394062,
2,0,0,1,0,49515.2,0.390278,0.389967,-0.171803,75,0.695404,10,-6.69975e-05,-3.76497,-0.738003,-0.0799455,0.390042,
2,0,0,0,0,49516,0.386283,0.385935,-0.174945,75,0.695257,10,-6.75174e-05,-3.7571,-0.865362,-0.0681795,0.386012,
2,0,0,1,0,49516.8,0.382287,0.381936,-0.176282,75,0.695108,10,-6.73283e-05,-3.75379,-0.633773,-0.0930933,0.382014,
2,0,0,1,0,49517.6,0.378292,0.377987,-0.179359,75,0.694958,10,-6.77952e-05,-3.74628,-1.17394,-0.0502583,0.378066,
2,0,0,1,0,49518.4,0.374297,0.373997,-0.181033,75,0.694806,10,-6.77059e-05,-3.74224,-0.596123,-0.0989729,0.374077,
2,0,0,1,0,49519.2,0.370303,0.36999,-0.182414,75,0.694652,10,-6.74916e-05,-3.73894,-1.45804,-0.0404652,0.370071,
2,0,0,0,0,49520,0.366307,0.365981,-0.184555,75,0.694497,10,-6.75436e-05,-3.73388,-0.590414,-0.0999298,0.366063,
2,0,0,1,0,49520.8,0.362312,0.361992,-0.186664,75,0.694339,10,-6.75711e-05,-3.72894,-0.814118,-0.0724711,0.362074,
2,0,0,1,0,49521.6,0.358316,0.357999,-0.188894,75,0.69418,10,-6.76238e-05,-3.72378,-0.956016,-0.0617145,0.358083,
2,0,0,1,0,49522.4,0.354321,0.354019,-0.190695,75,0.69402,10,-6.75098e-05,-3.71966,-0.853744,-0.0691073,0.354103,
2,0,0,1,0,49523.2,0.350327,0.350026,-0.191957,75,0.693857,10,-6.71899e-05,-3.7168,-0.769199,-0.0767032,0.35011,
2,0,0,0,0,49524,0.346331,0.346026,-0.195825,75,0.693693,10,-6.77605e-05,-3.70813,-1.11413,-0.0529563,0.346112,
2,0,0,1,0,49524.8,0.342336,0.34199,-0.197437,75,0.693527,10,-6.75215e-05,-3.70457,-0.641991,-0.0919016,0.342077,
2,0,0,0,0,49525.6,0.338341,0.338037,-0.199756,75,0.693359,10,-6.7525e-05,-3.6995,-1.2733,-0.0463363,0.338124,
2,0,0,1,0,49526.4,0.334345,0.334064,-0.202277,75,0.693189,10,-6.75736e-05,-3.69405,-0.905695,-0.0651433,0.334153,
2,0,0,1,0,49527.2,0.33035,0.330007,-0.204495,75,0.693018,10,-6.74848e-05,-3.68932,-0.663171,-0.0889665,0.330097,
2,0,0,1,0,49528,0.326355,0.326015,-0.206861,75,0.692844,10,-6.74397e-05,-3.68432,-0.619966,-0.0951665,0.326106,
2,0,0,1,0,49528.8,0.32236,0.322039,-0.208881,75,0.692668,10,-6.7268e-05,-3.6801,-0.853876,-0.0690967,0.322131,
2,0,0,0,0,49529.6,0.318365,0.318059,-0.210918,75,0.692491,10,-6.70841e-05,-3.67589,-0.518476,-0.113795,0.318151,
2,0,0,1,0,49530.4,0.31437,0.314054,-0.214025,75,0.692312,10,-6.72156e-05,-3.66953,-4.8895,-0.0120667,0.314149,
2,0,0,1,0,49531.2,0.310374,0.310025,-0.216484,75,0.69213,10,-6.71154e-05,-3.66457,-0.710338,-0.0830591,0.31012,
2,0,0,1,0,49532,0.306379,0.306043,-0.219465,75,0.691947,10,-6.71657e-05,-3.65864,-0.658714,-0.0895685,0.30614,
2,0,0,1,0,49532.8,0.302385,0.302027,-0.221129,75,0.691762,10,-6.67869e-05,-3.65535,-0.797839,-0.0739498,0.302124,
2,0,0,0,0,49533.6,0.298389,0.298095,-0.224299,75,0.691574,10,-6.68626e-05,-3.64917,-0.622763,-0.0947391,0.298194,
2,0,0,1,0,49534.4,0.294394,0.29409,-0.226941,75,0.691385,10,-6.6741e-05,-3.64409,-3.3885,-0.0174118,0.29419,
2,0,0,1,0,49535.2,0.290398,0.290043,-0.229945,75,0.691194,10,-6.6694e-05,-3.63838,-0.558717,-0.105599,0.290144,
2,0,0,1,0,49536,0.286403,0.286099,-0.231038,75,0.691,10,-6.60997e-05,-3.63632,-0.932061,-0.0633006,0.286201,
2,0,0,1,0,49536.8,0.282408,0.282068,-0.234432,75,0.690804,10,-6.61256e-05,-3.62998,-1.05717,-0.0558094,0.282171,
2,0,0,1,0,49537.6,0.278414,0.278121,-0.236909,75,0.690607,10,-6.58892e-05,-3.62542,-0.754124,-0.0782365,0.278225,
2,0,0,1,0,49538.4,0.274418,0.274097,-0.24044,75,0.690406,10,-6.59039e-05,-3.61899,-1.00328,-0.058807,0.274203,
2,0,0,0,0,49539.2,0.270423,0.270111,-0.242863,75,0.690204,10,-6.56001e-05,-3.61464,-0.706494,-0.083511,0.270218,
2,0,0,1,0,49540,0.266427,0.2661,-0.244935,75,0.69,10,-6.51773e-05,-3.61095,-1.23561,-0.0477497,0.266208,
2,0,0,1,0,49540.8,0.262432,0.262149,-0.246472,75,0.689794,10,-6.46124e-05,-3.60823,-0.683675,-0.0862983,0.262257,
2,0,0,1,0,49541.6,0.258437,0.258174,-0.250535,75,0.689586,10,-6.46817e-05,-3.60113,-0.843274,-0.0699654,0.258285,
2,0,0,1,0,49542.4,0.254442,0.254131,-0.251849,75,0.689376,10,-6.40026e-05,-3.59886,-0.912791,-0.0646369,0.254242,
2,0,0,0,0,49543.2,0.250447,0.250116,-0.254708,75,0.689163,10,-6.37066e-05,-3.59396,-1.83136,-0.0322164,0.250228,
2,0,0,1,0,49544,0.246452,0.246115,-0.257683,75,0.688949,10,-6.34197e-05,-3.58891,-0.745389,-0.0791533,0.246229,
2,0,0,1,0,49544.8,0.242456,0.24209,-0.258713,75,0.688733,10,-6.26318e-05,-3.58718,-0.851747,-0.0692694,0.242204,
2,0,0,1,0,49545.6,0.238461,0.238165,-0.262111,75,0.688515,10,-6.24258e-05,-3.58151,-0.957607,-0.0616119,0.238281,
2,0,0,1,0,49546.4,0.234467,0.234152,-0.264235,75,0.688295,10,-6.18712e-05,-3.57801,-0.883645,-0.0667689,0.234268,
2,0,0,0,0,49547.1,0.230471,0.230144,-0.266001,75,0.688074,10,-6.12186e-05,-3.57512,-1.63027,-0.0361903,0.230262,
2,0,0,1,0,49547.9,0.226476,0.226186,-0.269244,75,0.68785,10,-6.08992e-05,-3.56985,-1.11296,-0.0530119,0.226304,
2,0,0,0,0,49548.7,0.222481,0.222201,-0.271079,75,0.687624,10,-6.02339e-05,-3.5669,-0.816294,-0.0722779,0.22232,
2,0,0,1,0,49549.5,0.218485,0.218144,-0.274583,75,0.687396,10,-5.98986e-05,-3.56133,-2.22693,-0.0264939,0.218264,
2,0,0,1,0,49550.3,0.21449,0.214157,-0.276176,75,0.687167,10,-5.9145e-05,-3.55881,-0.559947,-0.105367,0.214278,
2,0,0,1,0,49551.1,0.210496,0.210202,-0.279494,75,0.686935,10,-5.87502e-05,-3.55363,-1.05727,-0.0558041,0.210325,
2,0,0,1,0,49551.9,0.2065,0.206163,-0.282923,75,0.6867,10,-5.83284e-05,-3.54833,-0.706934,-0.083459,0.206288,
2,0,0,0,0,49552.7,0.202505,0.202176,-0.284292,75,0.686463,10,-5.74772e-05,-3.54623,-1.4414,-0.0409323,0.202301,
2,0,0,1,0,49553.5,0.198509,0.198167,-0.287714,75,0.686224,10,-5.70156e-05,-3.54104,-0.944419,-0.0624723,0.198294,
2,0,0,1,0,49554.3,0.194514,0.194251,-0.291351,75,0.685982,10,-5.65952e-05,-3.53558,-0.681681,-0.0865507,0.194379,
2,0,0,1,0,49555.1,0.190519,0.190192,-0.294158,75,0.685737,10,-5.59463e-05,-3.53142,-0.679721,-0.0868003,0.190321,
2,0,0,1,0,49555.9,0.186524,0.186215,-0.299217,75,0.685489,10,-5.57187e-05,-3.52401,-1.01332,-0.0582244,0.186347,
2,0,0,0,0,49556.7,0.182529,0.182214,-0.303924,75,0.685238,10,-5.53792e-05,-3.51724,-0.447543,-0.131831,0.182348,
2,0,0,1,0,49557.5,0.178534,0.178228,-0.307518,75,0.684983,10,-5.48083e-05,-3.51213,-0.56612,-0.104218,0.178363,
2,0,0,1,0,49558.3,0.174538,0.174206,-0.314877,75,0.684723,10,-5.48535e-05,-3.50186,-0.50132,-0.117689,0.174344,
2,0,0,1,0,49559.1,0.170543,0.170216,-0.320836,75,0.684459,10,-5.46112e-05,-3.49372,-0.392811,-0.150199,0.170357,
2,0,0,1,0,49559.9,0.166549,0.166241,-0.327545,75,0.684189,10,-5.44516e-05,-3.48473,-0.393621,-0.149891,0.166386,
2,0,0,0,0,49560.7,0.162553,0.162258,-0.338058,75,0.683912,10,-5.48527e-05,-3.47101,-0.296741,-0.198827,0.162407,
2,0,0,1,0,49561.5,0.158558,0.15825,-0.348031,75,0.683627,10,-5.50759e-05,-3.45838,-0.239699,-0.246142,0.158403,
2,0,0,0,0,49562.3,0.154563,0.154222,-0.364263,75,0.683331,10,-5.61772e-05,-3.43858,-0.21091,-0.27974,0.154382,
2,0,0,1,0,49563.1,0.150567,0.150211,-0.381965,75,0.683023,10,-5.73754e-05,-3.41798,-0.153422,-0.384559,0.150379,
2,0,0,1,0,49563.9,0.146572,0.146243,-0.40852,75,0.682697,10,-5.97433e-05,-3.38879,-0.132478,-0.445359,0.146423,
2,0,0,1,0,49564.7,0.142578,0.142262,-0.442234,75,0.682347,10,-6.29129e-05,-3.35435,-0.107212,-0.550309,0.142456,
2,0,0,1,0,49565.5,0.138582,0.138244,-0.482718,75,0.681967,10,-6.6733e-05,-3.31631,-0.0950125,-0.620971,0.138457,
2,0,0,0,0,49566.3,0.134587,0.134246,-0.530279,75,0.681551,10,-7.11876e-05,-3.2755,-0.107155,-0.550604,0.134479,
2,0,0,1,0,49567.1,0.130591,0.130311,-0.579003,75,0.681097,10,-7.54503e-05,-3.23732,-0.111764,-0.527898,0.130566,
2,0,0,1,0,49567.9,0.126596,0.126279,-0.618284,75,0.680607,10,-7.80761e-05,-3.20881,-0.148839,-0.3964,0.126551,
2,0,0,1,0,49568.7,0.122602,0.122332,-0.65156,75,0.680086,10,-7.97067e-05,-3.18605,-0.244816,-0.240997,0.122619,
2,0,0,1,0,49569.5,0.118607,0.118295,-0.672026,75,0.679545,10,-7.94976e-05,-3.17261,-0.357883,-0.164858,0.118591,
2,0,0,0,0,49570.3,0.114611,0.114275,-0.682672,75,0.67899,10,-7.80123e-05,-3.16579,-1.04392,-0.0565175,0.114575,
2,0,0,1,0,49571.1,0.110616,0.110294,-0.687401,75,0.678431,10,-7.58163e-05,-3.16279,-1.80499,-0.0326872,0.110597,
2,0,0,1,0,49571.9,0.10662,0.106276,-0.685997,75,0.67787,10,-7.2905e-05,-3.16368,2.81911,0.0209286,0.106578,
2,0,0,1,0,49572.7,0.102625,0.10232,-0.684346,75,0.67731,10,-7.00223e-05,-3.16472,1.25884,0.0468685,0.102621,
2,0,0,1,0,49573.5,0.0986305,0.0983022,-0.680998,75,0.676753,10,-6.69436e-05,-3.16685,1.56543,0.0376894,0.0986018,
2,0,0,0,0,49574.3,0.0946351,0.094282,-0.672385,75,0.6762,10,-6.33938e-05,-3.17238,0.803753,0.0734057,0.0945779,
2,0,0,1,0,49575.1,0.0906399,0.0903097,-0.666843,75,0.675652,10,-6.02224e-05,-3.17598,0.675855,0.0872968,0.0906031,
2,0,0,0,0,49575.9,0.0866448,0.0862728,-0.65929,75,0.675112,10,-5.68788e-05,-3.18092,0.793784,0.0743275,0.0865628,
2,0,0,1,0,49576.7,0.0826492,0.082313,-0.650516,75,0.674578,10,-5.35459e-05,-3.18674,0.685344,0.0860881,0.0825992,
2,0,0,1,0,49577.5,0.0786544,0.0782668,-0.642283,75,0.674051,10,-5.02694e-05,-3.19227,0.799733,0.0737746,0.0785494,
2,0,0,1,0,49578.3,0.0746596,0.0743266,-0.630936,75,0.673531,10,-4.68953e-05,-3.20001,0.652459,0.0904271,0.0746042,
2,0,0,1,0,49579.1,0.0706641,0.070337,-0.624403,75,0.673018,10,-4.39186e-05,-3.20453,0.611975,0.0964091,0.0706117,
2,0,0,0,0,49579.9,0.0666689,0.0663371,-0.615958,75,0.672512,10,-4.08609e-05,-3.21045,0.735766,0.0801885,0.0666081,
2,0,0,1,0,49580.7,0.0626737,0.0623595,-0.604916,75,0.672012,10,-3.77223e-05,-3.2183,0.570741,0.103374,0.0626257,
2,0,0,1,0,49581.5,0.0586783,0.0583615,-0.597529,75,0.671519,10,-3.48727e-05,-3.22364,0.545244,0.108208,0.0586244,
2,0,0,1,0,49582.3,0.0546835,0.0543558,-0.588383,75,0.671034,10,-3.1982e-05,-3.23034,0.714288,0.0825998,0.0546147,
2,0,0,1,0,49583.1,0.0506886,0.0503414,-0.579825,75,0.670555,10,-2.91892e-05,-3.2367,0.536425,0.109987,0.0505965,
2,0,0,0,0,49583.9,0.046693,0.0463294,-0.569289,75,0.670086,10,-2.63748e-05,-3.24467,0.505298,0.116763,0.0465799,
2,0,0,1,0,49584.7,0.0426979,0.042356,-0.5586,75,0.669624,10,-2.36601e-05,-3.2529,0.540169,0.109225,0.0426018,
2,0,0,1,0,49585.5,0.0387022,0.0383557,-0.548746,75,0.66917,10,-2.10475e-05,-3.26063,0.407084,0.144933,0.0385972,
2,0,0,1,0,49586.3,0.0347074,0.0343453,-0.538761,75,0.668725,10,-1.85039e-05,-3.2686,0.615317,0.0958856,0.0345823,
2,0,0,1,0,49587.1,0.0307126,0.0304372,-0.527261,75,0.668287,10,-1.60483e-05,-3.27797,0.584509,0.100939,0.0306692,
2,0,0,0,0,49587.9,0.0267172,0.0263746,-0.520248,75,0.667857,10,-1.37214e-05,-3.28379,0.48073,0.12273,0.0266036,
2,0,0,1,0,49588.7,0.022722,0.0223896,-0.513271,75,0.667434,10,-1.1492e-05,-3.28965,0.838398,0.0703723,0.0226155,
2,0,0,0,0,49589.5,0.0187268,0.0183993,-0.506459,75,0.667016,10,-9.31851e-06,-3.29546,0.690288,0.0854716,0.0186222,
2,0,0,1,0,49590.3,0.0147313,0.0144003,-0.502675,75,0.666603,10,-7.23867e-06,-3.29871,1.91411,0.0308238,0.0146215,
2,0,0,1,0,49591.1,0.0107365,0.0103995,-0.498537,75,0.666192,10,-5.18451e-06,-3.3023,1.37068,0.0430443,0.0106188,
2,0,0,1,0,49591.9,0.00674163,0.00642561,-0.497332,75,0.665784,10,-3.19566e-06,-3.30335,17.9902,0.00327956,0.00664444,
2,0,0,1,0,49592.7,0.00274612,0.00244446,-0.497304,75,0.665376,10,-1.21564e-06,-3.30338,-1.99064,-0.0296387,0.00266327,
2,0,0,0,0,49593.2,0.000274105,-7.71884e-05,-0.498974,75,0.665121,10,3.8515e-08,-3.30192, , ,0.00014236,