File: Figure_codes/Fig_3-5/workspace_calculate_alpha_eff/20221101_1-115_003_TrumpetPlot_ParaChange_from10_every3_16_CV_C01_41.csv
mode,ox/red,error,control changes,counter inc.,time/s,control/V,Ewe/V,<I>/mA,cycle number,(Q-Qo)/C,I Range,P/W,log(|I|),Tafel slope mV/dec,alpha_eff,E-IR/V,
2,0,0,0,0,27581.8,2.44065e-05,-0.000458935,-0.0873094,42,0.0000000E+000,10,4.00693e-08,-4.05894, , ,-0.000420519,
2,1,0,0,0,27582.6,0.00379485,0.00343064,0.146613,42,9.52849e-05,10,5.02977e-07,-3.83383,0.0350797,1.68188,0.00336613,
2,1,0,1,0,27583.4,0.00779002,0.00742201,0.171221,42,0.000235617,10,1.27081e-06,-3.76644,0.0733395,0.804478,0.00734667,
2,1,0,0,0,27584.2,0.0117852,0.0114749,0.186881,42,0.000392008,10,2.14444e-06,-3.72843,0.111927,0.527129,0.0113927,
2,1,0,1,0,27585,0.0157806,0.0154834,0.202939,42,0.0005607,10,3.14219e-06,-3.69263,0.126159,0.467666,0.0153941,
2,1,0,1,0,27585.8,0.0197754,0.0194649,0.216388,42,0.000740528,10,4.21197e-06,-3.66477,0.148156,0.398229,0.0193697,
2,1,0,1,0,27586.6,0.0237704,0.0234701,0.230229,42,0.000931535,10,5.40349e-06,-3.63784,0.16434,0.359013,0.0233688,
2,1,0,1,0,27587.4,0.0277659,0.0274117,0.244302,42,0.00113342,10,6.69673e-06,-3.61207,0.15822,0.372898,0.0273042,
2,1,0,0,0,27588.2,0.0317611,0.0314137,0.258233,42,0.00134702,10,8.11204e-06,-3.58799,0.155241,0.380054,0.0313001,
2,1,0,1,0,27589,0.0357567,0.0354162,0.273477,42,0.00157232,10,9.68551e-06,-3.56308,0.191972,0.307337,0.0352959,
2,1,0,1,0,27589.8,0.0397516,0.0393777,0.287833,42,0.00180882,10,1.13342e-05,-3.54086,0.162877,0.362236,0.039251,
2,1,0,1,0,27590.6,0.0437465,0.0433963,0.300724,42,0.00205748,10,1.30503e-05,-3.52183,0.198945,0.296565,0.0432639,
2,1,0,1,0,27591.4,0.0477413,0.0474337,0.315753,42,0.00231663,10,1.49774e-05,-3.50065,0.231212,0.255177,0.0472948,
2,1,0,0,0,27592.2,0.0517369,0.0513939,0.327852,42,0.00258648,10,1.68496e-05,-3.48432,0.21181,0.278552,0.0512496,
2,1,0,1,0,27593,0.0557321,0.0554309,0.340167,42,0.0028668,10,1.88558e-05,-3.46831,0.294326,0.200458,0.0552812,
2,1,0,1,0,27593.8,0.0597277,0.0594081,0.353013,42,0.00315608,10,2.09718e-05,-3.45221,0.301767,0.195515,0.0592528,
2,1,0,1,0,27594.6,0.0637226,0.0633956,0.36248,42,0.00345471,10,2.29796e-05,-3.44072,0.31126,0.189552,0.0632361,
2,1,0,1,0,27595.4,0.0677174,0.0673847,0.373986,42,0.00376231,10,2.5201e-05,-3.42714,0.420845,0.140194,0.0672202,
2,1,0,0,0,27596.2,0.0717128,0.0713783,0.383737,42,0.00407757,10,2.73905e-05,-3.41597,0.325588,0.181211,0.0712095,
2,1,0,1,0,27597,0.075708,0.0753707,0.390705,42,0.0044005,10,2.94478e-05,-3.40815,0.412615,0.14299,0.0751988,
2,1,0,0,0,27597.8,0.0797031,0.0793653,0.401106,42,0.00472992,10,3.18339e-05,-3.39674,0.364642,0.161802,0.0791888,
2,1,0,1,0,27598.5,0.0836986,0.0833782,0.410829,42,0.00506635,10,3.42542e-05,-3.38634,0.378774,0.155766,0.0831975,
2,1,0,1,0,27599.3,0.0876935,0.087346,0.421364,42,0.00541132,10,3.68044e-05,-3.37534,0.316911,0.186172,0.0871605,
2,1,0,1,0,27600.1,0.0916883,0.09139,0.436031,42,0.00576569,10,3.98489e-05,-3.36048,0.260259,0.226698,0.0911982,
2,1,0,1,0,27600.9,0.0956838,0.0953689,0.451458,42,0.00613318,10,4.30551e-05,-3.34538,0.218768,0.269693,0.0951703,
2,1,0,0,0,27601.7,0.099679,0.0993317,0.474601,42,0.00651588,10,4.71429e-05,-3.32367,0.232937,0.253288,0.0991228,
2,1,0,1,0,27602.5,0.103674,0.103327,0.496899,42,0.00691619,10,5.13432e-05,-3.30373,0.159622,0.369624,0.103109,
2,1,0,1,0,27603.3,0.10767,0.107349,0.519122,42,0.00733603,10,5.57274e-05,-3.28473,0.228345,0.25838,0.107121,
2,1,0,1,0,27604.1,0.111664,0.111333,0.539964,42,0.00777219,10,6.0116e-05,-3.26764,0.270513,0.218104,0.111096,
2,1,0,1,0,27604.9,0.115659,0.115292,0.554804,42,0.0082222,10,6.39648e-05,-3.25586,0.342739,0.172142,0.115048,
2,1,0,0,0,27605.7,0.119655,0.119333,0.568319,42,0.00868478,10,6.78192e-05,-3.24541,0.450559,0.130948,0.119083,
2,1,0,1,0,27606.5,0.12365,0.123364,0.581131,42,0.00915695,10,7.16904e-05,-3.23573,0.45378,0.130019,0.123108,
2,1,0,1,0,27607.3,0.127646,0.127311,0.59032,42,0.00963893,10,7.51541e-05,-3.22891,0.593131,0.0994722,0.127051,
2,1,0,1,0,27608.1,0.131641,0.131271,0.597751,42,0.0101282,10,7.84676e-05,-3.22348,-1.53537,-0.0384273,0.131008,
2,1,0,1,0,27608.9,0.135635,0.135289,0.589753,42,0.0106164,10,7.97869e-05,-3.22933,-0.377698,-0.156209,0.135029,
2,1,0,0,0,27609.7,0.139631,0.139298,0.559196,42,0.0110902,10,7.78952e-05,-3.25244,-0.125721,-0.469292,0.139052,
2,1,0,1,0,27610.5,0.143626,0.143283,0.511983,42,0.011532,10,7.33586e-05,-3.29074,-0.0843773,-0.69924,0.143058,
2,1,0,0,0,27611.3,0.147621,0.147303,0.45065,42,0.0119288,10,6.63823e-05,-3.34616,-0.0692664,-0.851784,0.147105,
2,1,0,1,0,27612.1,0.151617,0.151298,0.394802,42,0.012278,10,5.97328e-05,-3.40362,-0.0723066,-0.815969,0.151125,
2,1,0,1,0,27612.9,0.155612,0.155313,0.353382,42,0.0125875,10,5.48847e-05,-3.45176,-0.0989719,-0.596129,0.155157,
2,1,0,1,0,27613.7,0.159606,0.15931,0.326102,42,0.0128702,10,5.19514e-05,-3.48665,-0.134612,-0.438297,0.159167,
2,1,0,1,0,27614.5,0.163602,0.163263,0.307618,42,0.0131351,10,5.02225e-05,-3.51199,-0.178176,-0.331133,0.163127,
2,1,0,0,0,27615.3,0.167597,0.167249,0.294523,42,0.0133877,10,4.92586e-05,-3.53088,-0.271724,-0.217132,0.167119,
2,1,0,1,0,27616.1,0.171592,0.171305,0.283974,42,0.0136318,10,4.86461e-05,-3.54672,-0.302421,-0.195092,0.17118,
2,1,0,1,0,27616.9,0.175588,0.175244,0.278277,42,0.0138689,10,4.87666e-05,-3.55552,-0.589737,-0.100045,0.175122,
2,1,0,1,0,27617.7,0.179582,0.179239,0.272896,42,0.0141011,10,4.89135e-05,-3.564,-0.413697,-0.142616,0.179118,
2,1,0,1,0,27618.5,0.183577,0.183249,0.268584,42,0.0143295,10,4.92176e-05,-3.57092,-0.574771,-0.10265,0.183131,
2,1,0,0,0,27619.3,0.187573,0.18726,0.264438,42,0.0145543,10,4.95186e-05,-3.57768,-0.620339,-0.0951093,0.187143,
2,1,0,1,0,27620.1,0.191568,0.191239,0.261604,42,0.0147766,10,5.0029e-05,-3.58236,-1.1039,-0.0534467,0.191124,
2,1,0,0,0,27620.9,0.195563,0.195269,0.258646,42,0.0149967,10,5.05054e-05,-3.5873,-0.628235,-0.0939138,0.195155,
2,1,0,1,0,27621.7,0.199559,0.199214,0.257757,42,0.0152144,10,5.13488e-05,-3.58879,-1.79252,-0.0329145,0.1991,
2,1,0,1,0,27622.5,0.203553,0.203215,0.253679,42,0.0154305,10,5.15514e-05,-3.59572,-1.01417,-0.0581757,0.203104,
2,1,0,1,0,27623.3,0.207548,0.207237,0.251906,42,0.015645,10,5.22043e-05,-3.59876,-1.5098,-0.0390781,0.207126,
2,1,0,1,0,27624.1,0.211544,0.211232,0.250499,42,0.0158576,10,5.29133e-05,-3.60119,-1.7109,-0.0344847,0.211122,
2,1,0,0,0,27624.9,0.215539,0.215228,0.248169,42,0.0160691,10,5.34129e-05,-3.60525,-0.911479,-0.06473,0.215119,
2,1,0,1,0,27625.7,0.219535,0.219222,0.248146,42,0.0162789,10,5.43989e-05,-3.60529,-4.64328,-0.0127065,0.219113,
2,1,0,1,0,27626.5,0.223529,0.223228,0.24622,42,0.016488,10,5.49631e-05,-3.60868,-1.09765,-0.0537512,0.223119,
2,1,0,1,0,27627.3,0.227524,0.227224,0.244864,42,0.0166961,10,5.5639e-05,-3.61107,-1.55031,-0.0380569,0.227116,
2,1,0,1,0,27628.1,0.23152,0.231208,0.242283,42,0.0169028,10,5.60178e-05,-3.61568,-3.67556,-0.016052,0.231101,
2,1,0,0,0,27628.9,0.235515,0.235196,0.240008,42,0.0171088,10,5.64491e-05,-3.61977,-1.46477,-0.0402794,0.235091,
2,1,0,1,0,27629.7,0.23951,0.239192,0.240918,42,0.0173138,10,5.76257e-05,-3.61813,-4.16705,-0.0141587,0.239086,
2,1,0,1,0,27630.5,0.243506,0.2432,0.240551,42,0.017518,10,5.85019e-05,-3.61879,-3.9641,-0.0148836,0.243094,
2,1,0,1,0,27631.3,0.2475,0.247145,0.239297,42,0.0177215,10,5.91411e-05,-3.62106,-1.08637,-0.0543093,0.24704,
2,1,0,1,0,27632.1,0.251495,0.251164,0.238687,42,0.0179239,10,5.99495e-05,-3.62217,-3.83219,-0.0153959,0.251058,
2,1,0,0,0,27632.9,0.255491,0.255133,0.236289,42,0.0181255,10,6.02852e-05,-3.62656,-1.47667,-0.0399547,0.255029,
2,1,0,1,0,27633.7,0.259486,0.259169,0.2367,42,0.0183265,10,6.13453e-05,-3.6258,-4.57513,-0.0128958,0.259065,
2,1,0,0,0,27634.5,0.263481,0.263212,0.235378,42,0.0185268,10,6.19545e-05,-3.62823,-2.29455,-0.0257131,0.263109,
2,1,0,1,0,27635.3,0.267477,0.267175,0.234411,42,0.0187265,10,6.26287e-05,-3.63002,-2.00887,-0.0293697,0.267072,
2,1,0,1,0,27636.1,0.271471,0.271131,0.233617,42,0.0189252,10,6.33408e-05,-3.6315,8.41293,0.00701302,0.271028,
2,1,0,1,0,27636.9,0.275466,0.275145,0.232652,42,0.0191232,10,6.40131e-05,-3.63329,60.348,0.000977664,0.275043,
2,1,0,1,0,27637.7,0.279462,0.279158,0.231939,42,0.0193206,10,6.47475e-05,-3.63463,-0.618181,-0.0954413,0.279055,
2,1,0,0,0,27638.5,0.283457,0.283135,0.231047,42,0.0195169,10,6.54174e-05,-3.6363,2.9463,0.0200251,0.283033,
2,1,0,1,0,27639.3,0.287452,0.28719,0.230616,42,0.0197127,10,6.62306e-05,-3.63711,-1.01317,-0.0582331,0.287089,
2,1,0,1,0,27640.1,0.291448,0.291125,0.229385,42,0.0199078,10,6.67797e-05,-3.63944,-1.79282,-0.032909,0.291024,
2,1,0,1,0,27640.9,0.295442,0.295131,0.230156,42,0.020102,10,6.79264e-05,-3.63798,5.12014,0.0115231,0.29503,
2,1,0,1,0,27641.7,0.299437,0.29915,0.226832,42,0.0202959,10,6.78567e-05,-3.6443,-3.07618,-0.0191796,0.29905,
2,1,0,0,0,27642.5,0.303433,0.303142,0.226987,42,0.0204888,10,6.88094e-05,-3.644,-1.08919,-0.0541688,0.303042,
2,1,0,1,0,27643.3,0.307428,0.307096,0.226326,42,0.0206809,10,6.9504e-05,-3.64526,3.56422,0.0165534,0.306997,
2,1,0,1,0,27644.1,0.311424,0.311125,0.224818,42,0.0208727,10,6.99465e-05,-3.64817,-1.64698,-0.0358231,0.311026,
2,1,0,1,0,27644.9,0.315418,0.315117,0.225239,42,0.0210635,10,7.09766e-05,-3.64736,-1.95001,-0.0302562,0.315018,
2,1,0,1,0,27645.7,0.319413,0.319153,0.22427,42,0.0212539,10,7.15766e-05,-3.64923,-4.22214,-0.013974,0.319054,
2,1,0,0,0,27646.5,0.323409,0.323118,0.223055,42,0.0214438,10,7.2073e-05,-3.65159,-1.83344,-0.03218,0.32302,
2,1,0,1,0,27647.3,0.327404,0.3271,0.221625,42,0.0216327,10,7.24936e-05,-3.65438,-8.6142,-0.00684916,0.327002,
2,1,0,0,0,27648.1,0.331399,0.331066,0.221375,42,0.0218211,10,7.32898e-05,-3.65487,-1.3827,-0.04267,0.330968,
2,1,0,1,0,27648.9,0.335395,0.335087,0.221785,42,0.022009,10,7.43171e-05,-3.65407,-7.75246,-0.00761048,0.334989,
2,1,0,1,0,27649.7,0.339389,0.339074,0.221013,42,0.0221962,10,7.49396e-05,-3.65558,7.22833,0.00816233,0.338976,
2,1,0,1,0,27650.5,0.343384,0.343085,0.2202,42,0.0223832,10,7.55473e-05,-3.65718,-4.95096,-0.0119169,0.342988,
2,1,0,1,0,27651.3,0.34738,0.347057,0.219492,42,0.0225695,10,7.61764e-05,-3.65858,-1.1374,-0.0518726,0.346961,
2,1,0,0,0,27652.1,0.351375,0.351077,0.218872,42,0.0227552,10,7.68411e-05,-3.65981,2.32131,0.0254167,0.350981,
2,1,0,1,0,27652.9,0.35537,0.355084,0.219957,42,0.0229407,10,7.8103e-05,-3.65766,-1.86612,-0.0316163,0.354987,
2,1,0,1,0,27653.7,0.359366,0.359065,0.218568,42,0.0231257,10,7.848e-05,-3.66041,-80.1415,-0.000736197,0.358968,
2,1,0,1,0,27654.5,0.36336,0.36305,0.217331,42,0.0233103,10,7.89021e-05,-3.66288,9.32872,0.00632455,0.362955,
2,1,0,1,0,27655.3,0.367355,0.36704,0.219178,42,0.0234946,10,8.04471e-05,-3.6592,-3.06363,-0.0192582,0.366944,
2,1,0,0,0,27656.1,0.371351,0.371101,0.218682,42,0.0236788,10,8.11532e-05,-3.66019,1.92255,0.0306884,0.371005,
2,1,0,1,0,27656.9,0.375346,0.375091,0.217839,42,0.0238631,10,8.17094e-05,-3.66187,-1.91074,-0.0308781,0.374996,
2,1,0,1,0,27657.7,0.379342,0.379011,0.217664,42,0.0240465,10,8.24973e-05,-3.66221,-1.72816,-0.0341404,0.378915,
2,1,0,1,0,27658.5,0.383336,0.383031,0.217246,42,0.0242296,10,8.32121e-05,-3.66305,10.3158,0.0057194,0.382935,
2,1,0,1,0,27659.3,0.387331,0.387024,0.217031,42,0.0244127,10,8.39963e-05,-3.66348,-2.39738,-0.0246102,0.386928,
2,1,0,0,0,27660.1,0.391327,0.391027,0.216509,42,0.0245953,10,8.4661e-05,-3.66452,2.18208,0.0270384,0.390932,
2,1,0,1,0,27660.9,0.395322,0.395049,0.215988,42,0.0247777,10,8.53259e-05,-3.66557,-10.8964,-0.00541464,0.394954,
2,1,0,0,0,27661.7,0.399317,0.398996,0.216689,42,0.02496,10,8.6458e-05,-3.66416,-2.17546,-0.0271207,0.398901,
2,1,0,1,0,27662.5,0.403313,0.402958,0.215738,42,0.0251417,10,8.69333e-05,-3.66607,-2.00505,-0.0294258,0.402863,
2,1,0,1,0,27663.3,0.407307,0.406948,0.215377,42,0.0253233,10,8.76475e-05,-3.6668,9.74542,0.00605412,0.406854,
2,1,0,1,0,27664.1,0.411302,0.410968,0.216206,42,0.0255046,10,8.88539e-05,-3.66513,-3.00755,-0.0196173,0.410873,
2,1,0,1,0,27664.9,0.415298,0.415007,0.214851,42,0.025686,10,8.91649e-05,-3.66786,2.44747,0.0241065,0.414913,
2,1,0,0,0,27665.7,0.419293,0.418994,0.215138,42,0.0258671,10,9.01418e-05,-3.66728,-1.12052,-0.0526543,0.4189,
2,1,0,1,0,27666.5,0.423288,0.422984,0.214073,42,0.0260481,10,9.05494e-05,-3.66944,1.63982,0.0359796,0.422889,
2,1,0,1,0,27667.3,0.427283,0.426973,0.213591,42,0.026229,10,9.11975e-05,-3.67042,-8.04537,-0.00733341,0.426879,
2,1,0,1,0,27668.1,0.431278,0.431021,0.21382,42,0.0264097,10,9.21611e-05,-3.66995,41.7861,0.00141195,0.430927,
2,1,0,1,0,27668.9,0.435273,0.434916,0.214788,42,0.0265903,10,9.34148e-05,-3.66799,2.07117,0.0284863,0.434821,
2,1,0,0,0,27669.7,0.439269,0.438985,0.214822,42,0.0267711,10,9.43036e-05,-3.66792,-1.94317,-0.0303628,0.438891,
2,1,0,1,0,27670.5,0.443264,0.442932,0.214678,42,0.0269517,10,9.50876e-05,-3.66821,1.13877,0.0518103,0.442838,
2,1,0,0,0,27671.3,0.447259,0.446991,0.215898,42,0.0271327,10,9.65046e-05,-3.66575,-1.20094,-0.0491283,0.446896,
2,1,0,1,0,27672.1,0.451254,0.450952,0.215544,42,0.0273141,10,9.72e-05,-3.66646,-6.86384,-0.00859577,0.450857,
2,1,0,1,0,27672.9,0.455249,0.454978,0.21547,42,0.0274951,10,9.8034e-05,-3.66661,1.41639,0.0416553,0.454883,
2,1,0,1,0,27673.7,0.459244,0.458996,0.215671,42,0.0276762,10,9.89922e-05,-3.66621,2.19911,0.0268291,0.458901,
2,1,0,1,0,27674.5,0.46324,0.462956,0.216542,42,0.0278578,10,0.000100249,-3.66446,-2.61616,-0.0225522,0.46286,
2,1,0,0,0,27675.3,0.467235,0.466963,0.216302,42,0.0280394,10,0.000101005,-3.66494,1.87749,0.031425,0.466868,
2,1,0,1,0,27676.1,0.471231,0.470945,0.216442,42,0.0282213,10,0.000101932,-3.66466,-6.22179,-0.0094828,0.47085,
2,1,0,1,0,27676.9,0.475225,0.474944,0.217588,42,0.0284033,10,0.000103342,-3.66236,4.8491,0.0121672,0.474848,
2,1,0,1,0,27677.7,0.47922,0.47892,0.217447,42,0.0285854,10,0.00010414,-3.66265,1.55782,0.0378735,0.478824,
2,1,0,1,0,27678.5,0.483216,0.482959,0.217537,42,0.0287682,10,0.000105061,-3.66247,-2.28274,-0.0258462,0.482863,
2,1,0,0,0,27679.3,0.487211,0.486903,0.218055,42,0.0289514,10,0.000106172,-3.66143,0.882432,0.0668606,0.486807,
2,1,0,1,0,27680.1,0.491206,0.490896,0.218847,42,0.0291352,10,0.000107431,-3.65986,3.11397,0.0189469,0.4908,
2,1,0,1,0,27680.9,0.495201,0.494902,0.22051,42,0.0293194,10,0.000109131,-3.65657,5.48547,0.0107557,0.494805,
2,1,0,1,0,27681.6,0.499196,0.498859,0.2214,42,0.0295042,10,0.000110448,-3.65482,1.31007,0.0450358,0.498762,
2,1,0,1,0,27682.4,0.503191,0.502927,0.222134,42,0.0296898,10,0.000111717,-3.65338,2.65056,0.0222594,0.50283,
2,1,0,0,0,27683.2,0.507187,0.506881,0.223279,42,0.029876,10,0.000113176,-3.65115,1.55731,0.0378858,0.506783,
2,1,0,1,0,27684,0.511182,0.510892,0.224022,42,0.030063,10,0.000114451,-3.64971,3.06732,0.019235,0.510794,
2,1,0,0,0,27684.8,0.515177,0.514901,0.225493,42,0.0302509,10,0.000116106,-3.64687,-13.7963,-0.0042765,0.514802,
2,1,0,1,0,27685.6,0.519173,0.518867,0.226478,42,0.0304397,10,0.000117512,-3.64497,0.687984,0.0857578,0.518767,
2,1,0,1,0,27686.4,0.523167,0.522884,0.227313,42,0.0306298,10,0.000118858,-3.64338,2.36278,0.0249706,0.522784,
2,1,0,1,0,27687.2,0.527162,0.526904,0.229627,42,0.030821,10,0.000120992,-3.63898,0.94176,0.0626487,0.526803,
2,1,0,1,0,27688,0.531158,0.530854,0.231078,42,0.0310132,10,0.000122668,-3.63624,1.60331,0.0367989,0.530752,
2,1,0,0,0,27688.8,0.535153,0.534812,0.232871,42,0.0312069,10,0.000124542,-3.63289,1.67599,0.0352031,0.53471,
2,1,0,1,0,27689.6,0.539148,0.538814,0.235451,42,0.0314019,10,0.000126864,-3.6281,0.906736,0.0650686,0.53871,
2,1,0,1,0,27690.4,0.543143,0.54286,0.237006,42,0.0315986,10,0.000128661,-3.62524,1.01022,0.0584032,0.542755,
2,1,0,1,0,27691.2,0.547138,0.546844,0.238929,42,0.0317968,10,0.000130657,-3.62173,1.29959,0.045399,0.546739,
2,1,0,1,0,27692,0.551133,0.550803,0.240977,42,0.0319968,10,0.000132731,-3.61803,0.634884,0.0929304,0.550697,
2,1,0,0,0,27692.8,0.555129,0.554877,0.243382,42,0.0321989,10,0.000135047,-3.61371,1.39206,0.0423831,0.55477,
2,1,0,1,0,27693.6,0.559124,0.558838,0.246816,42,0.0324027,10,0.00013793,-3.60763,0.78472,0.0751861,0.558729,
2,1,0,1,0,27694.4,0.56312,0.562836,0.250352,42,0.0326091,10,0.000140907,-3.60145,0.552046,0.106875,0.562726,
2,1,0,1,0,27695.2,0.567114,0.566826,0.253747,42,0.0328183,10,0.00014383,-3.5956,0.971399,0.0607371,0.566714,
2,1,0,1,0,27696,0.571109,0.570785,0.2565,42,0.0330299,10,0.000146406,-3.59091,0.533183,0.110656,0.570672,
2,1,0,0,0,27696.8,0.575105,0.574823,0.260693,42,0.0332447,10,0.000149852,-3.58387,0.54731,0.1078,0.574709,
2,1,0,1,0,27697.6,0.5791,0.578755,0.265023,42,0.0334629,10,0.000153383,-3.57672,0.580204,0.101688,0.578639,
2,1,0,0,0,27698.4,0.583095,0.582799,0.269942,42,0.0336848,10,0.000157322,-3.56873,0.408743,0.144345,0.58268,
2,1,0,1,0,27699.2,0.58709,0.586812,0.275638,42,0.0339111,10,0.000161748,-3.55966,0.48801,0.120899,0.586691,
2,1,0,1,0,27700,0.591085,0.590778,0.282585,42,0.0341421,10,0.000166945,-3.54885,0.339703,0.173681,0.590654,
2,1,0,1,0,27700.8,0.59508,0.594782,0.28926,42,0.0343786,10,0.000172046,-3.53871,0.364303,0.161953,0.594655,
2,1,0,1,0,27701.6,0.599076,0.598768,0.297262,42,0.0346212,10,0.000177991,-3.52686,0.332518,0.177434,0.598637,
2,1,0,0,0,27702.4,0.603071,0.602795,0.307448,42,0.0348705,10,0.000185328,-3.51223,0.287022,0.205559,0.602659,
2,1,0,1,0,27703.2,0.607066,0.606762,0.316296,42,0.0351275,10,0.000191916,-3.49991,0.252066,0.234065,0.606622,
2,1,0,1,0,27704,0.611061,0.610796,0.329215,42,0.0353935,10,0.000201083,-3.48252,0.261813,0.225352,0.610651,
2,1,0,1,0,27704.8,0.615056,0.614753,0.343008,42,0.0356696,10,0.000210865,-3.4647,0.193334,0.305172,0.614602,
2,1,0,1,0,27705.6,0.619051,0.618749,0.35817,42,0.0359581,10,0.000221617,-3.44591,0.207985,0.283675,0.618592,
2,1,0,0,0,27706.4,0.623047,0.622786,0.377047,42,0.0362599,10,0.000234819,-3.4236,0.167643,0.351938,0.62262,
2,1,0,1,0,27707.2,0.627042,0.626747,0.399024,42,0.0365777,10,0.000250087,-3.399,0.154857,0.380998,0.626572,
2,1,0,1,0,27708,0.631037,0.630789,0.424246,42,0.0369146,10,0.000267609,-3.37238,0.143707,0.410556,0.630602,
2,1,0,1,0,27708.8,0.635032,0.634778,0.453392,42,0.0372729,10,0.000287803,-3.34353,0.130277,0.45288,0.634578,
2,1,0,1,0,27709.6,0.639027,0.638713,0.487266,42,0.0376566,10,0.000311223,-3.31223,0.120636,0.489076,0.638498,
2,1,0,1,0,27710.4,0.643022,0.6427,0.527984,42,0.0380703,10,0.000339335,-3.27738,0.113796,0.518473,0.642468,
2,1,0,1,0,27711.2,0.647018,0.646737,0.574675,42,0.0385186,10,0.000371663,-3.24058,0.101952,0.578706,0.646484,
2,1,0,0,0,27712,0.651013,0.650719,0.630429,42,0.0390076,10,0.000410232,-3.20036,0.0955231,0.617652,0.650441,
2,1,0,1,0,27712.8,0.655008,0.654765,0.695953,42,0.0395453,10,0.000455686,-3.15742,0.0905089,0.651869,0.654458,
2,1,0,1,0,27713.6,0.659003,0.6587,0.772029,42,0.0401391,10,0.000508535,-3.11237,0.0846303,0.69715,0.658361,
2,1,0,1,0,27714.4,0.662998,0.662702,0.861063,42,0.0407991,10,0.000570628,-3.06497,0.0834313,0.707168,0.662323,
2,1,0,1,0,27715.2,0.666994,0.666736,0.963462,42,0.041535,10,0.000642375,-3.01617,0.0786367,0.750286,0.666312,
2,1,0,0,0,27716,0.670989,0.670679,1.08098,42,0.0423591,10,0.00072499,-2.96618,0.0778464,0.757903,0.670203,
2,1,0,1,0,27716.8,0.674984,0.674702,1.21619,42,0.0432843,10,0.000820565,-2.915,0.0756031,0.780391,0.674167,
2,1,0,1,0,27717.6,0.67898,0.678681,1.37101,42,0.0443253,10,0.000930478,-2.86296,0.0760623,0.77568,0.678078,
2,1,0,1,0,27718.4,0.682974,0.682705,1.54571,42,0.045498,10,0.00105526,-2.81087,0.0750683,0.78595,0.682025,
2,1,0,1,0,27719.2,0.686969,0.686688,1.74264,42,0.0468181,10,0.00119665,-2.75879,0.0755303,0.781144,0.685922,
2,1,0,0,0,27720,0.690965,0.690635,1.96174,42,0.048305,10,0.00135485,-2.70736,0.0770382,0.765854,0.689771,
2,1,0,1,0,27720.8,0.69496,0.694708,2.20435,42,0.0499762,10,0.00153138,-2.65672,0.077038,0.765855,0.693738,
2,1,0,0,0,27721.6,0.698955,0.698671,2.47078,42,0.0518507,10,0.00172626,-2.60717,0.0787581,0.74913,0.697584,
2,1,0,1,0,27722.4,0.70295,0.702691,2.76105,42,0.0539476,10,0.00194016,-2.55893,0.0804982,0.732936,0.701477,
2,1,0,1,0,27723.2,0.706945,0.706675,3.07522,42,0.0562863,10,0.00217318,-2.51212,0.0840036,0.702351,0.705322,
2,1,0,1,0,27724,0.71094,0.710663,3.41526,42,0.0588866,10,0.0024271,-2.46658,0.0842604,0.70021,0.70916,
2,1,0,1,0,27724.8,0.714936,0.714681,3.7798,42,0.0617688,10,0.00270135,-2.42253,0.0893976,0.659973,0.713018,
2,1,0,0,0,27725.6,0.718931,0.718677,4.16973,42,0.0649514,10,0.00299669,-2.37989,0.0923812,0.638658,0.716842,
2,1,0,1,0,27726.4,0.722927,0.722621,4.5815,42,0.0684551,10,0.00331069,-2.33899,0.0942094,0.626264,0.720605,
2,1,0,1,0,27727.2,0.726921,0.726671,5.01905,42,0.0722982,10,0.0036472,-2.29938,0.0976269,0.604342,0.724463,
2,1,0,1,0,27728,0.730916,0.730615,5.48004,42,0.0765001,10,0.0040038,-2.26122,0.100273,0.588395,0.728204,
2,1,0,1,0,27728.8,0.734911,0.734616,5.96497,42,0.0810805,10,0.00438196,-2.22439,0.105176,0.560964,0.731991,
2,1,0,0,0,27729.6,0.738907,0.738612,6.47621,42,0.086059,10,0.0047834,-2.18868,0.107447,0.549108,0.735762,
2,1,0,1,0,27730.4,0.742902,0.742605,7.00917,42,0.0914536,10,0.00520505,-2.15433,0.11086,0.532205,0.739521,
2,1,0,1,0,27731.2,0.746897,0.746656,7.5691,42,0.097286,10,0.00565152,-2.12096,0.114715,0.514317,0.743326,
2,1,0,1,0,27732,0.750892,0.750666,8.15485,42,0.103575,10,0.00612157,-2.08858,0.116632,0.505866,0.747078,
2,1,0,1,0,27732.8,0.754887,0.754583,8.76733,42,0.110342,10,0.00661568,-2.05713,0.118539,0.497725,0.750725,
2,1,0,0,0,27733.6,0.758883,0.758631,9.41099,42,0.117612,10,0.00713947,-2.02636,0.122675,0.480946,0.75449,
2,1,0,1,0,27734.4,0.762878,0.762604,10.0883,42,0.125408,10,0.00769334,-1.99618,0.123128,0.479176,0.758166,
2,1,0,0,0,27735.2,0.766873,0.7666,10.799,42,0.13376,10,0.00827853,-1.96662,0.125393,0.470519,0.761848,
2,1,0,1,0,27736,0.770868,0.770546,11.5514,42,0.142695,10,0.00890091,-1.93736,0.123767,0.476704,0.765463,
2,1,0,1,0,27736.8,0.774863,0.77455,12.357,42,0.152253,10,0.00957112,-1.90809,0.1249,0.472378,0.769113,
2,1,0,1,0,27737.6,0.778858,0.778609,13.2147,42,0.162475,10,0.010289,-1.87894,0.12486,0.472531,0.772794,
2,1,0,1,0,27738.4,0.782854,0.782617,14.1245,42,0.173403,10,0.0110541,-1.85003,0.123487,0.477782,0.776403,
2,1,0,0,0,27739.2,0.786849,0.786603,15.0893,42,0.185081,10,0.0118693,-1.82133,0.124516,0.473835,0.779964,
2,1,0,1,0,27740,0.790844,0.790585,16.0886,42,0.197543,10,0.0127194,-1.79348,0.127988,0.460981,0.783506,
2,1,0,1,0,27740.8,0.794839,0.79454,17.1919,42,0.210847,10,0.0136597,-1.76468,0.121049,0.487408,0.786975,
2,1,0,1,0,27741.6,0.798834,0.798539,18.3583,42,0.225056,10,0.0146598,-1.73617,0.121693,0.484827,0.790462,
2,1,0,1,0,27742.4,0.802829,0.802541,19.5835,42,0.240222,10,0.0157165,-1.70811,0.126699,0.465671,0.793924,
2,1,0,0,0,27743.2,0.806825,0.806579,20.8377,42,0.25638,10,0.0168073,-1.68115,0.125578,0.469829,0.797411,
2,1,0,1,0,27744,0.81082,0.810538,22.1558,42,0.273566,10,0.0179581,-1.65451,0.1294,0.455952,0.800789,
2,1,0,1,0,27744.8,0.814815,0.814552,23.4846,42,0.291815,10,0.0191295,-1.62922,0.139365,0.423348,0.804219,
2,1,0,1,0,27745.6,0.81881,0.818495,24.8724,42,0.311141,10,0.020358,-1.60428,0.147376,0.400336,0.807552,
2,1,0,1,0,27746.4,0.822805,0.822549,26.2341,42,0.331539,10,0.0215789,-1.58113,0.134665,0.438123,0.811006,
2,1,0,0,0,27747.2,0.826801,0.826548,27.7297,42,0.353109,10,0.0229199,-1.55705,0.14591,0.404359,0.814347,
2,1,0,1,0,27748,0.830796,0.830558,29.2157,42,0.375867,10,0.0242654,-1.53438,0.148133,0.398292,0.817703,
2,1,0,0,0,27748.8,0.834791,0.834529,30.7289,42,0.399824,10,0.0256442,-1.51245,0.158524,0.372183,0.821009,
2,1,0,1,0,27749.6,0.838786,0.838493,32.1615,42,0.424973,10,0.0269672,-1.49266,0.168025,0.351138,0.824342,
2,1,0,1,0,27750.4,0.842781,0.842558,33.6842,42,0.451297,10,0.0283809,-1.47257,0.176121,0.334996,0.827737,
2,1,0,1,0,27751.2,0.846776,0.846511,35.1524,42,0.478808,10,0.0297569,-1.45405,0.177955,0.331545,0.831043,
2,1,0,0,0,27751.9,0.849723,0.849481,36.1821,42,0.503866,10,0.030736,-1.44151,0.0469793,1.25587,0.833561,
2,1,0,1,0,27752.7,0.845728,0.845532,33.9395,42,0.531795,10,0.028697,-1.46929,0.132254,0.446111,0.830599,
2,1,0,0,0,27753.5,0.841732,0.841469,32.0961,42,0.558182,10,0.0270078,-1.49355,0.126861,0.465076,0.827346,
2,1,0,1,0,27754.3,0.837737,0.837509,30.3593,42,0.583108,10,0.0254262,-1.51771,0.138869,0.42486,0.824151,
2,1,0,1,0,27755.1,0.833742,0.833505,28.713,42,0.60669,10,0.0239325,-1.54192,0.133119,0.443213,0.820872,
2,1,0,1,0,27755.9,0.829747,0.829507,27.1385,42,0.628986,10,0.0225115,-1.56641,0.131971,0.447068,0.817566,
2,1,0,1,0,27756.7,0.825752,0.825518,25.5943,42,0.650036,10,0.0211285,-1.59186,0.12991,0.45416,0.814257,
2,1,0,0,0,27757.5,0.821757,0.821498,24.1074,42,0.669872,10,0.0198042,-1.61785,0.130603,0.45175,0.810891,
2,1,0,1,0,27758.3,0.817761,0.817464,22.6866,42,0.688555,10,0.0185455,-1.64423,0.124698,0.473143,0.807482,
2,1,0,1,0,27759.1,0.813766,0.81348,21.3532,42,0.706133,10,0.0173704,-1.67054,0.130135,0.453376,0.804085,
2,1,0,1,0,27759.9,0.809771,0.809535,20.0474,42,0.722661,10,0.0162291,-1.69794,0.119554,0.493499,0.800714,
2,1,0,1,0,27760.7,0.805776,0.805482,18.733,42,0.738133,10,0.0150891,-1.72739,0.116667,0.505714,0.79724,
2,1,0,0,0,27761.5,0.801781,0.801543,17.522,42,0.752598,10,0.0140446,-1.75642,0.121926,0.483899,0.793834,
2,1,0,1,0,27762.3,0.797786,0.797538,16.3755,42,0.766129,10,0.0130601,-1.78581,0.116911,0.504657,0.790333,
2,1,0,1,0,27763.1,0.79379,0.793494,15.2784,42,0.778762,10,0.0121233,-1.81592,0.115357,0.511454,0.786772,
2,1,0,1,0,27763.9,0.789795,0.789542,14.222,42,0.790532,10,0.0112289,-1.84704,0.115527,0.510704,0.783284,
2,1,0,1,0,27764.6,0.7858,0.785534,13.2474,42,0.801494,10,0.0104063,-1.87787,0.112729,0.523377,0.779705,
2,1,0,0,0,27765.4,0.781805,0.781548,12.3167,42,0.811697,10,0.00962614,-1.9095,0.112103,0.526303,0.776129,
2,1,0,1,0,27766.2,0.77781,0.777518,11.4269,42,0.821171,10,0.00888464,-1.94207,0.10951,0.538765,0.77249,
2,1,0,0,0,27767,0.773815,0.773544,10.5913,42,0.829953,10,0.0081928,-1.97505,0.111006,0.531501,0.768883,
2,1,0,1,0,27767.8,0.769819,0.769579,9.81425,42,0.838095,10,0.00755284,-2.00814,0.106628,0.553323,0.765261,
2,1,0,1,0,27768.6,0.765824,0.765551,9.06586,42,0.845624,10,0.00694038,-2.04259,0.10761,0.548276,0.761562,
2,1,0,1,0,27769.4,0.761829,0.761535,8.35857,42,0.852572,10,0.00636534,-2.07787,0.103057,0.572498,0.757857,
2,1,0,1,0,27770.2,0.757834,0.75756,7.69871,42,0.858976,10,0.00583223,-2.11358,0.103015,0.572734,0.754173,
2,1,0,0,0,27771,0.753839,0.753546,7.07933,42,0.864868,10,0.0053346,-2.15001,0.101423,0.581721,0.750431,
2,1,0,1,0,27771.8,0.749844,0.749578,6.48972,42,0.870278,10,0.00486455,-2.18777,0.0987493,0.597473,0.746723,
2,1,0,1,0,27772.6,0.745848,0.745566,5.94101,42,0.875233,10,0.00442942,-2.22614,0.0957477,0.616203,0.742952,
2,1,0,1,0,27773.4,0.741853,0.741592,5.4251,42,0.879762,10,0.00402322,-2.26559,0.0939386,0.62807,0.739205,
2,1,0,1,0,27774.2,0.737858,0.737549,4.9392,42,0.883891,10,0.0036429,-2.30634,0.0917213,0.643253,0.735376,
2,1,0,0,0,27775,0.733863,0.73355,4.48235,42,0.887645,10,0.00328803,-2.34849,0.0896705,0.657964,0.731578,
2,1,0,1,0,27775.8,0.729868,0.729614,4.0563,42,0.891046,10,0.00295953,-2.39187,0.0855857,0.689367,0.727829,
2,1,0,1,0,27776.6,0.725872,0.7256,3.65891,42,0.894119,10,0.0026549,-2.43665,0.0844911,0.698299,0.72399,
2,1,0,1,0,27777.4,0.721877,0.721582,3.28809,42,0.896884,10,0.00237263,-2.48306,0.081334,0.725404,0.720136,
2,1,0,1,0,27778.2,0.717882,0.717603,2.94269,42,0.899363,10,0.00211169,-2.53125,0.0781375,0.755079,0.716308,
2,1,0,0,0,27779,0.713887,0.713579,2.62291,42,0.901577,10,0.00187165,-2.58122,0.0755241,0.781208,0.712424,
2,1,0,1,0,27779.8,0.709892,0.709644,2.32745,42,0.903544,10,0.00165166,-2.63312,0.0739965,0.797335,0.70862,
2,1,0,0,0,27780.6,0.705897,0.705593,2.0543,42,0.905285,10,0.0014495,-2.68734,0.0702189,0.84023,0.704689,
2,1,0,1,0,27781.4,0.701901,0.7016,1.80388,42,0.906816,10,0.0012656,-2.74379,0.0668134,0.883057,0.700806,
2,1,0,1,0,27782.2,0.697906,0.697634,1.57368,42,0.908156,10,0.00109785,-2.80308,0.0647418,0.911312,0.696942,
2,1,0,1,0,27783,0.693911,0.693672,1.36718,42,0.909321,10,0.000948372,-2.86418,0.0620191,0.95132,0.69307,
2,1,0,1,0,27783.8,0.689916,0.689623,1.17809,42,0.910329,10,0.000812439,-2.92882,0.0591344,0.997728,0.689105,
2,1,0,0,0,27784.6,0.685921,0.685631,1.00924,42,0.911193,10,0.000691967,-2.996,0.0570881,1.03349,0.685186,
2,1,0,1,0,27785.4,0.681926,0.681586,0.856554,42,0.911929,10,0.000583815,-3.06725,0.0540697,1.09118,0.681209,
2,1,0,1,0,27786.2,0.67793,0.677608,0.720795,42,0.91255,10,0.000488417,-3.14219,0.0514211,1.14739,0.677291,
2,1,0,1,0,27787,0.673935,0.673653,0.600918,42,0.91307,10,0.00040481,-3.22118,0.0487725,1.2097,0.673389,
2,1,0,1,0,27787.8,0.66994,0.669668,0.498431,42,0.9135,10,0.000333784,-3.30239,0.0469145,1.25761,0.669449,
2,1,0,0,0,27788.6,0.665945,0.665662,0.407054,42,0.913852,10,0.00027096,-3.39035,0.0437927,1.34726,0.665483,
2,1,0,1,0,27789.4,0.66195,0.661657,0.32694,42,0.914136,10,0.000216322,-3.48553,0.0399933,1.47525,0.661513,
2,1,0,0,0,27790.2,0.657955,0.657697,0.258531,42,0.914361,10,0.000170035,-3.58749,0.0375238,1.57234,0.657583,
2,1,0,1,0,27791,0.653959,0.653655,0.200332,42,0.914536,10,0.000130948,-3.69825,0.033719,1.74975,0.653567,
2,1,0,1,0,27791.8,0.649964,0.649657,0.150746,42,0.914668,10,9.7933e-05,-3.82176,0.0296906,1.98716,0.649591,
2,1,0,1,0,27792.6,0.64597,0.645677,0.107452,42,0.914762,10,6.93792e-05,-3.96879,0.0251786,2.34326,0.64563,
2,1,0,1,0,27793.4,0.641974,0.641681,0.0712833,42,0.914825,10,4.57412e-05,-4.14701,0.0193416,3.05041,0.641649,
2,1,0,0,0,27794.2,0.637979,0.637706,0.0421849,42,0.914861,10,2.69016e-05,-4.37484,0.0133551,4.4178,0.637688,
2,1,0,1,0,27795,0.633983,0.633712,0.0159561,42,0.914876,10,1.01116e-05,-4.79707,0.00546476,10.7964,0.633705,
2,1,0,1,0,27795.8,0.629988,0.629668,-0.00581314,42,0.914871,10,-3.66035e-06,-5.23559,-0.00852713,-6.91909,0.629671,
2,0,0,1,0,27796.6,0.625993,0.625718,-0.0222432,42,0.914852,10,-1.3918e-05,-4.6528,-0.0135363,-4.35866,0.625727,
2,0,0,1,0,27797.4,0.621998,0.621697,-0.0367184,42,0.91482,10,-2.28277e-05,-4.43512,-0.0260354,-2.26614,0.621714,
2,0,0,0,0,27798.2,0.618003,0.617708,-0.0480448,42,0.914777,10,-2.96777e-05,-4.31835,-0.0364779,-1.61742,0.617729,
2,0,0,1,0,27799,0.614008,0.613666,-0.0600911,42,0.914725,10,-3.68759e-05,-4.22119,-0.062542,-0.943366,0.613692,
2,0,0,1,0,27799.8,0.610012,0.609742,-0.0689917,42,0.914666,10,-4.20671e-05,-4.1612,-0.0709787,-0.831235,0.609772,
2,0,0,1,0,27800.6,0.606017,0.605728,-0.0756296,42,0.914599,10,-4.5811e-05,-4.12131,-0.112359,-0.525101,0.605761,
2,0,0,1,0,27801.4,0.602022,0.601691,-0.0822241,42,0.914528,10,-4.94735e-05,-4.085,-0.136858,-0.431104,0.601727,
2,0,0,0,0,27802.2,0.598027,0.59775,-0.0873433,42,0.914452,10,-5.22095e-05,-4.05877,-0.151893,-0.388431,0.597789,
2,0,0,1,0,27803,0.594032,0.593713,-0.0921209,42,0.914371,10,-5.46934e-05,-4.03564,-0.2419,-0.243902,0.593754,
2,0,0,0,0,27803.8,0.590037,0.58976,-0.09613,42,0.914288,10,-5.66936e-05,-4.01714,-0.216141,-0.27297,0.589802,
2,0,0,1,0,27804.6,0.586041,0.585702,-0.0992334,42,0.914202,10,-5.81212e-05,-4.00334,-0.239551,-0.246294,0.585745,
2,0,0,1,0,27805.4,0.582046,0.581718,-0.102825,42,0.914113,10,-5.98152e-05,-3.9879,-0.546285,-0.108002,0.581763,
2,0,0,1,0,27806.2,0.578052,0.57779,-0.104161,42,0.914022,10,-6.01833e-05,-3.98229,-0.383309,-0.153923,0.577835,
2,0,0,1,0,27807,0.574056,0.573714,-0.106323,42,0.913929,10,-6.09988e-05,-3.97337,-0.357015,-0.165259,0.573761,
2,0,0,0,0,27807.8,0.570061,0.569734,-0.108703,42,0.913835,10,-6.19321e-05,-3.96376,-1.4465,-0.0407881,0.569782,
2,0,0,1,0,27808.6,0.566065,0.565769,-0.110398,42,0.913739,10,-6.24597e-05,-3.95704,-0.648984,-0.0909114,0.565817,
2,0,0,1,0,27809.4,0.56207,0.561778,-0.111561,42,0.913642,10,-6.26725e-05,-3.95249,-0.566388,-0.104169,0.561827,
2,0,0,1,0,27810.2,0.558075,0.557775,-0.11279,42,0.913544,10,-6.29114e-05,-3.94773,-1.20607,-0.0489194,0.557825,
2,0,0,1,0,27811,0.55408,0.553758,-0.113827,42,0.913445,10,-6.30326e-05,-3.94375,-0.593789,-0.0993619,0.553808,
2,0,0,0,0,27811.8,0.550085,0.549796,-0.114965,42,0.913344,10,-6.32073e-05,-3.93943,-0.607653,-0.0970949,0.549846,
2,0,0,1,0,27812.6,0.54609,0.545765,-0.116794,42,0.913243,10,-6.37419e-05,-3.93258,-1.67027,-0.0353236,0.545816,
2,0,0,1,0,27813.4,0.542094,0.541792,-0.116987,42,0.913141,10,-6.33829e-05,-3.93186,-0.71613,-0.0823873,0.541844,
2,0,0,1,0,27814.2,0.538099,0.537787,-0.118709,42,0.913038,10,-6.384e-05,-3.92552,1.6769,0.0351839,0.53784,
2,0,0,1,0,27815,0.534104,0.533798,-0.119322,42,0.912935,10,-6.36936e-05,-3.92328,-0.522337,-0.112954,0.53385,
2,0,0,0,0,27815.8,0.530109,0.529827,-0.120443,42,0.91283,10,-6.38142e-05,-3.91922,-1.26979,-0.0464645,0.52988,
2,0,0,1,0,27816.6,0.526114,0.525775,-0.121702,42,0.912725,10,-6.3988e-05,-3.9147,-1.31364,-0.0449133,0.525829,
2,0,0,0,0,27817.4,0.522119,0.521783,-0.12263,42,0.912619,10,-6.39861e-05,-3.9114,-1.12969,-0.0522266,0.521837,
2,0,0,1,0,27818.2,0.518123,0.517829,-0.124062,42,0.912512,10,-6.42431e-05,-3.90636,-0.824947,-0.0715197,0.517884,
2,0,0,1,0,27819,0.514128,0.513836,-0.124783,42,0.912405,10,-6.41178e-05,-3.90385,-1.27037,-0.0464432,0.513891,
2,0,0,1,0,27819.8,0.510133,0.509787,-0.124609,42,0.912296,10,-6.3524e-05,-3.90445,-5.51387,-0.0107003,0.509842,
2,0,0,1,0,27820.6,0.506138,0.5058,-0.126676,42,0.912187,10,-6.40726e-05,-3.89731,-0.990464,-0.0595681,0.505856,
2,0,0,0,0,27821.4,0.502143,0.501847,-0.127425,42,0.912077,10,-6.39479e-05,-3.89475,-1.19905,-0.0492055,0.501903,
2,0,0,1,0,27822.2,0.498148,0.497792,-0.12871,42,0.911966,10,-6.40709e-05,-3.89039,-0.674937,-0.0874156,0.497849,
2,0,0,1,0,27823,0.494152,0.493872,-0.128911,42,0.911854,10,-6.36655e-05,-3.88971,-1.12564,-0.0524145,0.493928,
2,0,0,1,0,27823.8,0.490157,0.48982,-0.130553,42,0.911742,10,-6.39473e-05,-3.88421,-1.16004,-0.0508602,0.489877,
2,0,0,1,0,27824.6,0.486162,0.485794,-0.131711,42,0.911628,10,-6.39846e-05,-3.88038,-1.80415,-0.0327024,0.485852,
2,0,0,0,0,27825.4,0.482167,0.481875,-0.132409,42,0.911514,10,-6.38046e-05,-3.87808,-0.714316,-0.0825965,0.481934,
2,0,0,1,0,27826.2,0.478172,0.477893,-0.133388,42,0.911398,10,-6.37451e-05,-3.87488,-1.7958,-0.0328545,0.477951,
2,0,0,0,0,27827,0.474177,0.473905,-0.134913,42,0.911282,10,-6.39361e-05,-3.86995,-0.993071,-0.0594117,0.473965,
2,0,0,1,0,27827.8,0.470181,0.469888,-0.136193,42,0.911164,10,-6.39956e-05,-3.86584,-0.812396,-0.0726247,0.469948,
2,0,0,1,0,27828.6,0.466186,0.465868,-0.137247,42,0.911046,10,-6.39389e-05,-3.8625,-2.02599,-0.0291215,0.465928,
2,0,0,1,0,27829.4,0.462191,0.461846,-0.13843,42,0.910926,10,-6.39334e-05,-3.85877,-0.827429,-0.0713052,0.461907,
2,0,0,1,0,27830.2,0.458196,0.457912,-0.139713,42,0.910806,10,-6.39763e-05,-3.85476,-0.614162,-0.0960658,0.457974,
2,0,0,0,0,27831,0.454201,0.453904,-0.141637,42,0.910684,10,-6.42897e-05,-3.84882,-13.7992,-0.0042756,0.453966,
2,0,0,1,0,27831.8,0.450205,0.449892,-0.143056,42,0.910561,10,-6.43598e-05,-3.84449,-0.630799,-0.0935322,0.449955,
2,0,0,1,0,27832.6,0.44621,0.445918,-0.14428,42,0.910437,10,-6.43371e-05,-3.84079,-0.651839,-0.0905132,0.445981,
2,0,0,1,0,27833.4,0.442215,0.441908,-0.14595,42,0.910312,10,-6.44963e-05,-3.8358,-4.59817,-0.0128312,0.441972,
2,0,0,1,0,27834.2,0.43822,0.43795,-0.147247,42,0.910185,10,-6.44867e-05,-3.83195,-0.623394,-0.0946431,0.438015,
2,0,0,0,0,27835,0.434225,0.433936,-0.149197,42,0.910057,10,-6.47421e-05,-3.82624,-0.569866,-0.103533,0.434001,
2,0,0,1,0,27835.8,0.43023,0.429927,-0.150381,42,0.909928,10,-6.46529e-05,-3.82281,-0.844066,-0.0698998,0.429993,
2,0,0,1,0,27836.6,0.426234,0.42593,-0.152652,42,0.909798,10,-6.50191e-05,-3.8163,-0.540359,-0.109187,0.425997,
2,0,0,1,0,27837.4,0.422239,0.421932,-0.154443,42,0.909665,10,-6.51643e-05,-3.81123,-0.858608,-0.0687159,0.422,
2,0,0,1,0,27838.2,0.418244,0.417911,-0.157263,42,0.909532,10,-6.5722e-05,-3.80337,-0.963579,-0.0612301,0.41798,
2,0,0,0,0,27839,0.414249,0.413941,-0.157632,42,0.909396,10,-6.52504e-05,-3.80236,-1.04505,-0.0564569,0.41401,
2,0,0,1,0,27839.8,0.410254,0.409915,-0.160553,42,0.909259,10,-6.58132e-05,-3.79438,-1.41982,-0.0415546,0.409986,
2,0,0,0,0,27840.6,0.406259,0.405927,-0.16181,42,0.909121,10,-6.5683e-05,-3.791,-0.809323,-0.0729004,0.405998,
2,0,0,1,0,27841.4,0.402263,0.401934,-0.163798,42,0.908982,10,-6.58362e-05,-3.78569,-0.63968,-0.0922337,0.402006,
2,0,0,1,0,27842.2,0.398268,0.397939,-0.16592,42,0.90884,10,-6.60259e-05,-3.7801,-0.670314,-0.0880184,0.398012,
2,0,0,1,0,27843,0.394274,0.393995,-0.167537,42,0.908698,10,-6.60086e-05,-3.77589,-0.91384,-0.0645627,0.394068,
2,0,0,1,0,27843.8,0.390278,0.389941,-0.168978,42,0.908553,10,-6.58914e-05,-3.77217,-0.691993,-0.0852609,0.390016,
2,0,0,0,0,27844.6,0.386283,0.385998,-0.17104,42,0.908407,10,-6.60212e-05,-3.7669,-0.980335,-0.0601835,0.386073,
2,0,0,1,0,27845.4,0.382287,0.38198,-0.172878,42,0.908259,10,-6.60361e-05,-3.76226,-1.22005,-0.0483587,0.382056,
2,0,0,1,0,27846.2,0.378292,0.37799,-0.175386,42,0.90811,10,-6.62944e-05,-3.756,-0.877987,-0.0671992,0.378068,
2,0,0,1,0,27847,0.374297,0.373941,-0.177234,42,0.907959,10,-6.62751e-05,-3.75145,-0.493939,-0.119448,0.374019,
2,0,0,1,0,27847.7,0.370303,0.369954,-0.179766,42,0.907805,10,-6.65054e-05,-3.74529,-1.10064,-0.0536049,0.370033,
2,0,0,0,0,27848.5,0.366307,0.36596,-0.181329,42,0.907651,10,-6.63591e-05,-3.74153,-0.588822,-0.1002,0.36604,
2,0,0,1,0,27849.3,0.362312,0.362006,-0.184643,42,0.907494,10,-6.68419e-05,-3.73367,-0.510393,-0.115597,0.362087,
2,0,0,1,0,27850.1,0.358316,0.35796,-0.186905,42,0.907335,10,-6.69047e-05,-3.72838,-1.11124,-0.0530937,0.358043,
2,0,0,1,0,27850.9,0.354321,0.353996,-0.188609,42,0.907175,10,-6.67667e-05,-3.72444,-0.830557,-0.0710366,0.354079,
2,0,0,1,0,27851.7,0.350327,0.350001,-0.190122,42,0.907013,10,-6.65428e-05,-3.72097,-1.01501,-0.0581276,0.350084,
2,0,0,0,0,27852.5,0.346331,0.345965,-0.193546,42,0.906848,10,-6.69602e-05,-3.71322,-0.670731,-0.0879637,0.34605,
2,0,0,1,0,27853.3,0.342336,0.342036,-0.195494,42,0.906682,10,-6.6866e-05,-3.70887,-0.721575,-0.0817656,0.342123,
2,0,0,0,0,27854.1,0.338341,0.338025,-0.197858,42,0.906514,10,-6.68809e-05,-3.70365,-0.801149,-0.0736442,0.338112,
2,0,0,1,0,27854.9,0.334345,0.334046,-0.200968,42,0.906344,10,-6.71326e-05,-3.69687,-0.934318,-0.0631477,0.334134,
2,0,0,1,0,27855.7,0.33035,0.330029,-0.201594,42,0.906173,10,-6.65318e-05,-3.69552,-0.739098,-0.0798271,0.330118,
2,0,0,1,0,27856.5,0.326355,0.326052,-0.20459,42,0.905999,10,-6.67071e-05,-3.68912,-1.12324,-0.0525266,0.326142,
2,0,0,1,0,27857.3,0.32236,0.322042,-0.207646,42,0.905824,10,-6.68709e-05,-3.68268,-0.715907,-0.0824129,0.322134,
2,0,0,0,0,27858.1,0.318365,0.318047,-0.20927,42,0.905646,10,-6.65577e-05,-3.67929,-0.649905,-0.0907824,0.318139,
2,0,0,1,0,27858.9,0.31437,0.314063,-0.212841,42,0.905466,10,-6.68455e-05,-3.67194,-1.04738,-0.0563312,0.314157,
2,0,0,1,0,27859.7,0.310374,0.310027,-0.214861,42,0.905285,10,-6.66127e-05,-3.66784,-0.61334,-0.0961946,0.310121,
2,0,0,1,0,27860.5,0.306379,0.306061,-0.217203,42,0.905101,10,-6.64775e-05,-3.66313,-1.11007,-0.0531497,0.306157,
2,0,0,1,0,27861.3,0.302385,0.302061,-0.219528,42,0.904916,10,-6.63109e-05,-3.65851,-0.576829,-0.102283,0.302157,
2,0,0,0,0,27862.1,0.298389,0.298056,-0.222905,42,0.904728,10,-6.64382e-05,-3.65188,-0.5819,-0.101392,0.298154,
2,0,0,1,0,27862.9,0.294394,0.294026,-0.22404,42,0.904538,10,-6.58735e-05,-3.64967,-1.28131,-0.0460465,0.294124,
2,0,0,1,0,27863.7,0.290398,0.290122,-0.227169,42,0.904347,10,-6.59066e-05,-3.64365,-0.951319,-0.0620192,0.290222,
2,0,0,1,0,27864.5,0.286403,0.286113,-0.228876,42,0.904153,10,-6.54841e-05,-3.6404,-0.742742,-0.0794354,0.286213,
2,0,0,1,0,27865.3,0.282408,0.282072,-0.232642,42,0.903957,10,-6.56219e-05,-3.63331,-1.06791,-0.0552479,0.282174,
2,0,0,1,0,27866.1,0.278414,0.278082,-0.234638,42,0.903759,10,-6.52485e-05,-3.6296,-1.01003,-0.058414,0.278185,
2,0,0,1,0,27866.9,0.274418,0.274079,-0.237933,42,0.903559,10,-6.52124e-05,-3.62355,-0.865333,-0.0681818,0.274184,
2,0,0,0,0,27867.7,0.270423,0.270079,-0.241265,42,0.903358,10,-6.51606e-05,-3.61751,-0.59895,-0.0985057,0.270186,
2,0,0,1,0,27868.5,0.266427,0.266134,-0.242704,42,0.903153,10,-6.4592e-05,-3.61492,-1.26598,-0.0466042,0.266241,
2,0,0,1,0,27869.3,0.262432,0.26213,-0.245,42,0.902947,10,-6.42217e-05,-3.61083,-1.42134,-0.04151,0.262237,
2,0,0,1,0,27870.1,0.258437,0.258166,-0.247446,42,0.90274,10,-6.38822e-05,-3.60652,-0.780175,-0.0756241,0.258275,
2,0,0,1,0,27870.9,0.254442,0.254084,-0.249068,42,0.90253,10,-6.32842e-05,-3.60368,-0.798872,-0.0738541,0.254194,
2,0,0,0,0,27871.7,0.250447,0.250127,-0.252507,42,0.902318,10,-6.31588e-05,-3.59773,-1.42441,-0.0414206,0.250238,
2,0,0,1,0,27872.5,0.246452,0.246146,-0.254949,42,0.902104,10,-6.27547e-05,-3.59355,-0.674727,-0.0874428,0.246258,
2,0,0,1,0,27873.3,0.242456,0.242089,-0.256933,42,0.901888,10,-6.22006e-05,-3.59018,-0.917655,-0.0642943,0.242202,
2,0,0,1,0,27874.1,0.238461,0.23816,-0.26037,42,0.90167,10,-6.20097e-05,-3.58441,-0.757626,-0.0778749,0.238275,
2,0,0,1,0,27874.9,0.234467,0.234157,-0.261807,42,0.90145,10,-6.1304e-05,-3.58202,-1.27817,-0.0461599,0.234273,
2,0,0,0,0,27875.7,0.230471,0.230182,-0.264378,42,0.901229,10,-6.0855e-05,-3.57777,-1.52043,-0.0388048,0.230298,
2,0,0,1,0,27876.5,0.226476,0.226202,-0.267019,42,0.901005,10,-6.04003e-05,-3.57346,-1.10429,-0.0534281,0.226319,
2,0,0,0,0,27877.3,0.222481,0.222143,-0.268496,42,0.90078,10,-5.96445e-05,-3.57106,-1.233,-0.0478508,0.222261,
2,0,0,1,0,27878.1,0.218485,0.218183,-0.272329,42,0.900552,10,-5.94176e-05,-3.56491,-1.28078,-0.0460658,0.218303,
2,0,0,1,0,27878.9,0.21449,0.214203,-0.275038,42,0.900322,10,-5.8914e-05,-3.56061,-0.566107,-0.104221,0.214324,
2,0,0,1,0,27879.7,0.210496,0.210183,-0.277784,42,0.90009,10,-5.83854e-05,-3.55629,-0.922429,-0.0639616,0.210305,
2,0,0,1,0,27880.5,0.2065,0.206187,-0.28119,42,0.899855,10,-5.79777e-05,-3.551,-0.649592,-0.0908262,0.20631,
2,0,0,0,0,27881.3,0.202505,0.20215,-0.283567,42,0.899618,10,-5.73229e-05,-3.54735,-0.820226,-0.0719314,0.202275,
2,0,0,1,0,27882.1,0.198509,0.198184,-0.287131,42,0.899379,10,-5.69049e-05,-3.54192,-1.00939,-0.0584509,0.198311,
2,0,0,1,0,27882.9,0.194514,0.194168,-0.289567,42,0.899136,10,-5.62248e-05,-3.53825,-0.722592,-0.0816505,0.194296,
2,0,0,1,0,27883.7,0.190519,0.190173,-0.29449,42,0.898891,10,-5.60039e-05,-3.53093,-0.705388,-0.0836419,0.190302,
2,0,0,1,0,27884.5,0.186524,0.186237,-0.299688,42,0.898641,10,-5.58131e-05,-3.52333,-0.774456,-0.0761825,0.186369,
2,0,0,0,0,27885.3,0.182529,0.182212,-0.304001,42,0.898388,10,-5.53925e-05,-3.51713,-0.385937,-0.152875,0.182346,
2,0,0,1,0,27886.1,0.178534,0.178203,-0.309729,42,0.898131,10,-5.51945e-05,-3.50902,-0.481299,-0.122585,0.178339,
2,0,0,1,0,27886.9,0.174538,0.174178,-0.315835,42,0.897869,10,-5.50115e-05,-3.50054,-0.438138,-0.134661,0.174317,
2,0,0,1,0,27887.7,0.170543,0.170216,-0.324205,42,0.897602,10,-5.51848e-05,-3.48918,-0.365048,-0.161623,0.170358,
2,0,0,1,0,27888.5,0.166549,0.166221,-0.331511,42,0.897327,10,-5.51043e-05,-3.4795,-0.339659,-0.173703,0.166367,
2,0,0,0,0,27889.3,0.162553,0.162245,-0.345114,42,0.897045,10,-5.59929e-05,-3.46204,-0.225056,-0.262157,0.162396,
2,0,0,1,0,27890.1,0.158558,0.158221,-0.35743,42,0.896753,10,-5.65531e-05,-3.44681,-0.21152,-0.278934,0.158379,
2,0,0,0,0,27890.9,0.154563,0.154207,-0.376377,42,0.896448,10,-5.80398e-05,-3.42438,-0.176519,-0.334242,0.154372,
2,0,0,1,0,27891.7,0.150567,0.150242,-0.400391,42,0.896126,10,-6.01555e-05,-3.39752,-0.129942,-0.454048,0.150418,
2,0,0,1,0,27892.5,0.146572,0.146273,-0.431369,42,0.895782,10,-6.30976e-05,-3.36515,-0.111236,-0.530402,0.146463,
2,0,0,1,0,27893.3,0.142578,0.142257,-0.474951,42,0.89541,10,-6.75653e-05,-3.32335,-0.0891219,-0.662015,0.142466,
2,0,0,1,0,27894.1,0.138582,0.138296,-0.523558,42,0.894999,10,-7.24062e-05,-3.28104,-0.0901695,-0.654324,0.138527,
2,0,0,0,0,27894.9,0.134587,0.134251,-0.57927,42,0.894545,10,-7.77675e-05,-3.23712,-0.0987101,-0.59771,0.134506,
2,0,0,1,0,27895.7,0.130591,0.130229,-0.631809,42,0.894049,10,-8.228e-05,-3.19941,-0.118257,-0.498913,0.130507,
2,0,0,1,0,27896.5,0.126596,0.126239,-0.669525,42,0.893514,10,-8.45204e-05,-3.17423,-0.179908,-0.327945,0.126534,
2,0,0,1,0,27897.3,0.122602,0.122271,-0.700589,42,0.892952,10,-8.56614e-05,-3.15454,-0.300367,-0.196427,0.122579,
2,0,0,1,0,27898.1,0.118607,0.118264,-0.716889,42,0.892372,10,-8.47818e-05,-3.14455,-0.507878,-0.11617,0.118579,
2,0,0,0,0,27898.9,0.114611,0.114284,-0.722459,42,0.891783,10,-8.25659e-05,-3.14119,6.85008,0.00861303,0.114602,
2,0,0,1,0,27899.7,0.110616,0.11028,-0.723497,42,0.891193,10,-7.97876e-05,-3.14056,3.29485,0.0179067,0.110599,
2,0,0,1,0,27900.5,0.10662,0.106251,-0.71737,42,0.890605,10,-7.62215e-05,-3.14426,1.36479,0.0432302,0.106567,
2,0,0,1,0,27901.3,0.102625,0.102365,-0.710559,42,0.890022,10,-7.27366e-05,-3.1484,0.673971,0.0875408,0.102678,
2,0,0,1,0,27902.1,0.0986305,0.0983329,-0.701264,42,0.889445,10,-6.89573e-05,-3.15412,0.818035,0.072124,0.0986415,
2,0,0,0,0,27902.9,0.0946351,0.094351,-0.689878,42,0.888875,10,-6.50906e-05,-3.16123,0.605261,0.0974786,0.0946545,
2,0,0,1,0,27903.7,0.0906399,0.0902684,-0.68189,42,0.888314,10,-6.15531e-05,-3.16629,0.556624,0.105996,0.0905684,
2,0,0,0,0,27904.5,0.0866448,0.0863566,-0.671774,42,0.887761,10,-5.80121e-05,-3.17278,0.635345,0.0928629,0.0866521,
2,0,0,1,0,27905.3,0.0826492,0.0823363,-0.662011,42,0.887216,10,-5.45076e-05,-3.17913,0.578235,0.102035,0.0826276,
2,0,0,1,0,27906.1,0.0786544,0.0782965,-0.650995,42,0.88668,10,-5.09706e-05,-3.18642,0.6953,0.0848555,0.0785829,
2,0,0,1,0,27906.9,0.0746596,0.0743202,-0.641737,42,0.886152,10,-4.7694e-05,-3.19264,0.671333,0.0878848,0.0746026,
2,0,0,1,0,27907.7,0.0706641,0.0703327,-0.634906,42,0.88563,10,-4.46547e-05,-3.19729,0.653388,0.0902986,0.0706121,
2,0,0,0,0,27908.5,0.0666689,0.0663488,-0.624982,42,0.885115,10,-4.14668e-05,-3.20413,0.6454,0.0914162,0.0666238,
2,0,0,1,0,27909.3,0.0626737,0.0623161,-0.614622,42,0.884607,10,-3.83008e-05,-3.21139,0.644752,0.091508,0.0625865,
2,0,0,1,0,27910.1,0.0586783,0.0583501,-0.608086,42,0.884106,10,-3.54819e-05,-3.21603,0.505043,0.116822,0.0586176,
2,0,0,1,0,27910.9,0.0546835,0.054345,-0.597672,42,0.883612,10,-3.24804e-05,-3.22354,0.834338,0.0707147,0.054608,
2,0,0,1,0,27911.7,0.0506886,0.050388,-0.587655,42,0.883126,10,-2.96107e-05,-3.23088,0.440518,0.133933,0.0506465,
2,0,0,0,0,27912.5,0.046693,0.0463294,-0.577402,42,0.882648,10,-2.67507e-05,-3.23852,0.56459,0.104501,0.0465834,
2,0,0,1,0,27913.3,0.0426979,0.0423762,-0.566738,42,0.882179,10,-2.40162e-05,-3.24662,0.545571,0.108144,0.0426256,
2,0,0,1,0,27914.1,0.0387022,0.0383559,-0.555892,42,0.881717,10,-2.13218e-05,-3.25501,0.429135,0.137486,0.0386005,
2,0,0,1,0,27914.9,0.0347074,0.034371,-0.546748,42,0.881265,10,-1.87923e-05,-3.26221,0.547479,0.107767,0.0346116,
2,0,0,1,0,27915.7,0.0307126,0.0303831,-0.534239,42,0.88082,10,-1.62318e-05,-3.27226,0.515124,0.114536,0.0306182,
2,0,0,0,0,27916.5,0.0267172,0.0264054,-0.52676,42,0.880384,10,-1.39093e-05,-3.27839,0.462473,0.127575,0.0266372,
2,0,0,1,0,27917.3,0.022722,0.0223706,-0.517913,42,0.879955,10,-1.1586e-05,-3.28574,0.762837,0.0773428,0.0225984,
2,0,0,0,0,27918.1,0.0187268,0.018394,-0.511357,42,0.879532,10,-9.40592e-06,-3.29128,0.625941,0.094258,0.018619,
2,0,0,1,0,27918.9,0.0147313,0.0143938,-0.506238,42,0.879114,10,-7.28671e-06,-3.29565,1.13736,0.0518745,0.0146166,
2,0,0,1,0,27919.7,0.0107365,0.0104314,-0.501188,42,0.8787,10,-5.22811e-06,-3.3,1.39768,0.0422129,0.010652,
2,0,0,1,0,27920.5,0.00674163,0.00644559,-0.499901,42,0.878288,10,-3.22216e-06,-3.30112,10.4286,0.00565754,0.00666555,
2,0,0,1,0,27921.3,0.00274612,0.0023872,-0.499062,42,0.877878,10,-1.19136e-06,-3.30185,-3.02114,-0.0195291,0.00260678,
2,0,0,0,0,27921.8,0.000274105,-0.000117749,-0.501318,42,0.877621,10,5.90297e-08,-3.29989, , ,0.000102831,