File: Figure_codes/Fig_3-5/workspace_calculate_alpha_eff/20221101_1-115_002_TrumpetPlot_ParaChange_18_CV_C01_0.csv
mode,ox/red,error,control changes,counter inc.,time/s,control/V,Ewe/V,<I>/mA,cycle number,(Q-Qo)/C,I Range,P/W,log(|I|),Tafel slope mV/dec,alpha_eff,E-IR/V,
2,1,0,1,0,1250.29,2.44065e-05,-0.000363498,0.120037,1,0.0000000E+000,10,-4.36332e-08,-3.92068, , ,-0.000459528,
2,1,0,1,0,1251.04,0.00379485,0.00351017,0.2286,1,0.000180767,10,8.02423e-07,-3.64092,0.102619,0.574945,0.00332729,
2,1,0,0,0,1251.84,0.00779002,0.00748245,0.243863,1,0.000390275,10,1.82469e-06,-3.61285,0.149325,0.395111,0.00728736,
2,1,0,1,0,1252.64,0.0117852,0.0114908,0.251835,1,0.000609738,10,2.89378e-06,-3.59888,0.264927,0.222703,0.0112893,
2,1,0,1,0,1253.44,0.0157806,0.0154992,0.262345,1,0.000835626,10,4.06613e-06,-3.58113,0.382723,0.154159,0.0152893,
2,1,0,1,0,1254.24,0.0197754,0.0194756,0.267721,1,0.00106633,10,5.21403e-06,-3.57232,0.413376,0.142727,0.0192615,
2,1,0,1,0,1255.04,0.0237704,0.0235007,0.272995,1,0.00130151,10,6.41556e-06,-3.56385,0.569496,0.1036,0.0232823,
2,1,0,0,0,1255.84,0.0277659,0.0274637,0.276641,1,0.00154,10,7.59757e-06,-3.55808,0.745306,0.0791622,0.0272424,
2,1,0,1,0,1256.64,0.0317611,0.0314858,0.281433,1,0.00178215,10,8.86115e-06,-3.55063,0.547968,0.107671,0.0312607,
2,1,0,1,0,1257.44,0.0357567,0.0354372,0.285622,1,0.00202799,10,1.01217e-05,-3.54421,0.751917,0.0784661,0.0352087,
2,1,0,1,0,1258.24,0.0397516,0.0394411,0.29167,1,0.00227737,10,1.15038e-05,-3.53511,0.386973,0.152465,0.0392078,
2,1,0,1,0,1259.03,0.0437465,0.0434311,0.294474,1,0.00253155,10,1.27893e-05,-3.53095,0.551661,0.10695,0.0431955,
2,1,0,1,0,1259.83,0.0477413,0.0474053,0.303095,1,0.00279017,10,1.43683e-05,-3.51842,0.259594,0.227278,0.0471628,
2,1,0,1,0,1260.63,0.0517369,0.0514607,0.309956,1,0.00305426,10,1.59505e-05,-3.5087,0.405508,0.145496,0.0512127,
2,1,0,0,0,1261.43,0.0557321,0.0554107,0.319788,1,0.00332548,10,1.77197e-05,-3.49514,0.355435,0.165994,0.0551549,
2,1,0,1,0,1262.23,0.0597277,0.059447,0.331854,1,0.00360396,10,1.97277e-05,-3.47905,0.265717,0.222041,0.0591815,
2,1,0,1,0,1263.03,0.0637226,0.0634414,0.341229,1,0.00389168,10,2.16481e-05,-3.46695,0.226811,0.260128,0.0631684,
2,1,0,1,0,1263.83,0.0677174,0.0674248,0.35649,1,0.00419057,10,2.40363e-05,-3.44795,0.301769,0.195514,0.0671396,
2,1,0,1,0,1264.63,0.0717128,0.071426,0.373192,1,0.00450101,10,2.66556e-05,-3.42807,0.162713,0.362602,0.0711275,
2,1,0,0,0,1265.43,0.075708,0.0753697,0.386188,1,0.00482478,10,2.91069e-05,-3.4132,0.221746,0.26607,0.0750607,
2,1,0,1,0,1266.23,0.0797031,0.0793844,0.407793,1,0.00516204,10,3.23724e-05,-3.38956,0.22036,0.267744,0.0790581,
2,1,0,1,0,1267.02,0.0836986,0.0833771,0.425606,1,0.00551365,10,3.54858e-05,-3.37099,0.206168,0.286174,0.0830366,
2,1,0,1,0,1267.82,0.0876935,0.0873915,0.441138,1,0.00588013,10,3.85517e-05,-3.35543,0.211353,0.279154,0.0870386,
2,1,0,1,0,1268.62,0.0916883,0.0913912,0.462084,1,0.00626058,10,4.22304e-05,-3.33528,0.224035,0.263352,0.0910215,
2,1,0,0,0,1269.42,0.0956838,0.0953976,0.480396,1,0.0066563,10,4.58286e-05,-3.3184,0.239039,0.246822,0.0950133,
2,1,0,1,0,1270.22,0.099679,0.0993889,0.499436,1,0.00706722,10,4.96384e-05,-3.30152,0.27942,0.211152,0.0989894,
2,1,0,0,0,1271.02,0.103674,0.103394,0.522802,1,0.00749455,10,5.40546e-05,-3.28166,0.161567,0.365174,0.102976,
2,1,0,1,0,1271.82,0.10767,0.107357,0.547574,1,0.00794236,10,5.87859e-05,-3.26156,0.165141,0.357271,0.106919,
2,1,0,1,0,1272.62,0.111664,0.111383,0.586605,1,0.0084146,10,6.5338e-05,-3.23165,0.132492,0.445311,0.110914,
2,1,0,1,0,1273.42,0.115659,0.115376,0.63035,1,0.00891935,10,7.27274e-05,-3.20042,0.103379,0.570715,0.114872,
2,1,0,1,0,1274.22,0.119655,0.119371,0.690705,1,0.00946655,10,8.24503e-05,-3.16071,0.109026,0.541157,0.118819,
2,1,0,0,0,1275.01,0.12365,0.123374,0.759066,1,0.0100629,10,9.36493e-05,-3.11972,0.0896997,0.65775,0.122767,
2,1,0,1,0,1275.81,0.127646,0.12736,0.831651,1,0.0107174,10,0.000105919,-3.08006,0.102237,0.577088,0.126694,
2,1,0,1,0,1276.61,0.13164,0.131327,0.904981,1,0.0114329,10,0.000118849,-3.04336,0.135038,0.436913,0.130603,
2,1,0,1,0,1277.41,0.135635,0.135352,0.964053,1,0.0121998,10,0.000130487,-3.0159,0.158339,0.372618,0.134581,
2,1,0,1,0,1278.21,0.139631,0.139319,0.999847,1,0.0130079,10,0.000139297,-3.00007,0.348332,0.169378,0.138519,
2,1,0,0,0,1279.01,0.143626,0.143385,1.01984,1,0.0138365,10,0.00014623,-2.99147,-10.7504,-0.00548818,0.142569,
2,1,0,1,0,1279.81,0.147621,0.147327,0.999988,1,0.0146643,10,0.000147325,-3.00001,-0.329344,-0.179144,0.146527,
2,1,0,1,0,1280.61,0.151617,0.151311,0.955289,1,0.0154679,10,0.000144546,-3.01987,-0.138207,-0.426895,0.150547,
2,1,0,1,0,1281.41,0.155612,0.155285,0.878699,1,0.0162208,10,0.000136449,-3.05616,-0.0939811,-0.627786,0.154582,
2,1,0,1,0,1282.21,0.159606,0.159332,0.780775,1,0.0169046,10,0.000124403,-3.10747,-0.0726971,-0.811586,0.158708,
2,1,0,0,0,1283.01,0.163602,0.163331,0.68495,1,0.01751,10,0.000111874,-3.16434,-0.0661315,-0.892161,0.162783,
2,1,0,1,0,1283.8,0.167597,0.167288,0.600905,1,0.0180414,10,0.000100524,-3.22119,-0.0793993,-0.74308,0.166807,
2,1,0,0,0,1284.6,0.171592,0.171314,0.531019,1,0.0185129,10,9.0971e-05,-3.27489,-0.083774,-0.704275,0.170889,
2,1,0,1,0,1285.4,0.175588,0.175327,0.483684,1,0.018937,10,8.48028e-05,-3.31544,-0.103312,-0.571083,0.17494,
2,1,0,1,0,1286.2,0.179582,0.1793,0.442349,1,0.0193253,10,7.93133e-05,-3.35423,-0.117604,-0.501683,0.178946,
2,1,0,1,0,1287,0.183577,0.183285,0.412501,1,0.0196862,10,7.56052e-05,-3.38457,-0.135315,-0.436019,0.182955,
2,1,0,1,0,1287.8,0.187573,0.187298,0.388292,1,0.020025,10,7.27262e-05,-3.41084,-0.179282,-0.329091,0.186987,
2,1,0,0,0,1288.6,0.191568,0.191283,0.370239,1,0.0203469,10,7.08203e-05,-3.43152,-0.204491,-0.288522,0.190986,
2,1,0,1,0,1289.4,0.195563,0.19527,0.355184,1,0.0206558,10,6.93566e-05,-3.44955,-0.193047,-0.305625,0.194986,
2,1,0,1,0,1290.2,0.199559,0.199276,0.342944,1,0.020953,10,6.83406e-05,-3.46478,-0.347783,-0.169646,0.199002,
2,1,0,1,0,1291,0.203553,0.203261,0.330852,1,0.0212413,10,6.72493e-05,-3.48037,-0.387114,-0.15241,0.202996,
2,1,0,1,0,1291.79,0.207548,0.207222,0.323038,1,0.0215222,10,6.69406e-05,-3.49075,-0.317766,-0.185671,0.206964,
2,1,0,0,0,1292.59,0.211544,0.211209,0.316449,1,0.0217964,10,6.68367e-05,-3.4997,-0.516009,-0.114339,0.210956,
2,1,0,1,0,1293.39,0.215539,0.215262,0.310144,1,0.0220655,10,6.67622e-05,-3.50844,-0.376223,-0.156822,0.215014,
2,1,0,1,0,1294.19,0.219535,0.219269,0.306473,1,0.02233,10,6.72002e-05,-3.51361,-0.566122,-0.104218,0.219024,
2,1,0,1,0,1294.99,0.223529,0.223281,0.299696,1,0.0225907,10,6.69162e-05,-3.52332,-0.686995,-0.0858812,0.223041,
2,1,0,1,0,1295.79,0.227524,0.227216,0.295017,1,0.0228481,10,6.70327e-05,-3.53015,-0.991782,-0.0594889,0.22698,
2,1,0,0,0,1296.59,0.23152,0.231231,0.291892,1,0.0231023,10,6.74946e-05,-3.53478,-1.19994,-0.049169,0.230998,
2,1,0,1,0,1297.39,0.235515,0.235229,0.287606,1,0.0233543,10,6.76534e-05,-3.5412,-0.772395,-0.0763858,0.234999,
2,1,0,0,0,1298.19,0.23951,0.239278,0.287063,1,0.0236039,10,6.86878e-05,-3.54202,-1.04709,-0.0563464,0.239048,
2,1,0,1,0,1298.99,0.243506,0.243235,0.286368,1,0.0238516,10,6.96549e-05,-3.54308,-2.45577,-0.0240251,0.243006,
2,1,0,1,0,1299.78,0.2475,0.247196,0.283682,1,0.0240982,10,7.01251e-05,-3.54717,-0.4842,-0.121851,0.246969,
2,1,0,1,0,1300.58,0.251495,0.251155,0.28099,1,0.0243428,10,7.0572e-05,-3.55131,-7.08919,-0.00832252,0.25093,
2,1,0,1,0,1301.38,0.255491,0.255225,0.27947,1,0.0245859,10,7.13279e-05,-3.55366,-1.65889,-0.035566,0.255002,
2,1,0,0,0,1302.18,0.259486,0.259213,0.276652,1,0.0248279,10,7.1712e-05,-3.55807,-2.65519,-0.0222206,0.258992,
2,1,0,1,0,1302.98,0.263481,0.263185,0.27642,1,0.0250682,10,7.27495e-05,-3.55843,-1.93211,-0.0305366,0.262964,
2,1,0,1,0,1303.78,0.267476,0.2672,0.273109,1,0.0253078,10,7.29747e-05,-3.56366,-1.36898,-0.0430976,0.266982,
2,1,0,1,0,1304.58,0.271471,0.271199,0.27381,1,0.0255467,10,7.4257e-05,-3.56255,-2.01973,-0.0292119,0.27098,
2,1,0,1,0,1305.38,0.275466,0.275145,0.272838,1,0.0257841,10,7.50702e-05,-3.56409,-3.46409,-0.0170319,0.274927,
2,1,0,0,0,1306.18,0.279462,0.279233,0.270246,1,0.0260208,10,7.54617e-05,-3.56824,-1.3679,-0.0431319,0.279017,
2,1,0,1,0,1306.98,0.283457,0.283156,0.27189,1,0.0262564,10,7.69872e-05,-3.56561,-5.266,-0.011204,0.282939,
2,1,0,0,0,1307.78,0.287452,0.287214,0.268729,1,0.0264913,10,7.71828e-05,-3.57069,-1.22848,-0.0480269,0.287,
2,1,0,1,0,1308.57,0.291448,0.291172,0.267342,1,0.0267255,10,7.78426e-05,-3.57293,6.30788,0.00935338,0.290958,
2,1,0,1,0,1309.37,0.295442,0.29519,0.26674,1,0.0269587,10,7.87389e-05,-3.57391,-0.917626,-0.0642963,0.294976,
2,1,0,1,0,1310.17,0.299437,0.299189,0.264658,1,0.0271914,10,7.91828e-05,-3.57731,-11.1493,-0.00529183,0.298977,
2,1,0,1,0,1310.97,0.303433,0.30315,0.265738,1,0.0274232,10,8.05586e-05,-3.57555,-5.05782,-0.0116651,0.302938,
2,1,0,0,0,1311.77,0.307428,0.307097,0.264319,1,0.0276542,10,8.11716e-05,-3.57787,-6.92126,-0.00852446,0.306886,
2,1,0,1,0,1312.57,0.311424,0.311126,0.263606,1,0.0278847,10,8.20147e-05,-3.57904,-2.64985,-0.0222654,0.310915,
2,1,0,1,0,1313.37,0.315418,0.315158,0.262874,1,0.0281143,10,8.28469e-05,-3.58025,-1.90463,-0.0309772,0.314948,
2,1,0,1,0,1314.17,0.319413,0.319134,0.261737,1,0.0283433,10,8.35291e-05,-3.58213,10.4198,0.00566229,0.318924,
2,1,0,1,0,1314.97,0.323409,0.323171,0.261161,1,0.0285721,10,8.43996e-05,-3.58309,-2.31278,-0.0255104,0.322962,
2,1,0,0,0,1315.77,0.327404,0.327131,0.260192,1,0.0287998,10,8.5117e-05,-3.58471,-1.35755,-0.0434607,0.326923,
2,1,0,1,0,1316.56,0.331399,0.331122,0.25791,1,0.0290271,10,8.53996e-05,-3.58853,-6.84386,-0.00862086,0.330915,
2,1,0,1,0,1317.36,0.335395,0.335113,0.259508,1,0.0292535,10,8.69647e-05,-3.58585,-1.86154,-0.0316942,0.334906,
2,1,0,1,0,1318.16,0.339389,0.339126,0.25952,1,0.0294794,10,8.80102e-05,-3.58583,-8.15485,-0.00723496,0.338919,
2,1,0,1,0,1318.96,0.343384,0.343154,0.258775,1,0.029705,10,8.87997e-05,-3.58708,-14.375,-0.00410435,0.342947,
2,1,0,0,0,1319.76,0.34738,0.347057,0.257168,1,0.02993,10,8.92521e-05,-3.58978,-1.57623,-0.037431,0.346852,
2,1,0,1,0,1320.56,0.351375,0.351089,0.256485,1,0.0301544,10,9.00491e-05,-3.59094,-9.94255,-0.00593409,0.350884,
2,1,0,0,0,1321.36,0.35537,0.355088,0.255042,1,0.0303781,10,9.05625e-05,-3.59339,-1.45073,-0.0406691,0.354884,
2,1,0,1,0,1322.16,0.359365,0.35905,0.254394,1,0.030601,10,9.13401e-05,-3.59449,11.7392,0.00502591,0.358846,
2,1,0,1,0,1322.96,0.36336,0.363111,0.252727,1,0.0308237,10,9.17679e-05,-3.59735,10.7728,0.00547677,0.362909,
2,1,0,1,0,1323.76,0.367355,0.367077,0.25341,1,0.0310456,10,9.30211e-05,-3.59618,-1.45936,-0.0404288,0.366875,
2,1,0,1,0,1324.55,0.371351,0.371099,0.251547,1,0.0312668,10,9.33488e-05,-3.59938,90.3783,0.000652812,0.370898,
2,1,0,0,0,1325.35,0.375346,0.375039,0.251442,1,0.0314874,10,9.43008e-05,-3.59956,-1.5261,-0.0386607,0.374838,
2,1,0,1,0,1326.15,0.379342,0.379084,0.249675,1,0.0317072,10,9.4648e-05,-3.60262,-1.91459,-0.030816,0.378885,
2,1,0,1,0,1326.95,0.383336,0.383067,0.249985,1,0.0319265,10,9.57611e-05,-3.60209,-1.95603,-0.0301632,0.382867,
2,1,0,1,0,1327.75,0.387331,0.387049,0.249509,1,0.0321453,10,9.65723e-05,-3.60291,-2.02243,-0.0291729,0.38685,
2,1,0,1,0,1328.55,0.391327,0.391069,0.248975,1,0.0323634,10,9.73662e-05,-3.60384,1.67013,0.0353267,0.390869,
2,1,0,0,0,1329.35,0.395322,0.395057,0.247367,1,0.0325813,10,9.7724e-05,-3.60666,-1.4029,-0.0420557,0.394859,
2,1,0,1,0,1330.15,0.399317,0.399011,0.247738,1,0.0327988,10,9.88502e-05,-3.60601,-3.01583,-0.0195634,0.398813,
2,1,0,1,0,1330.95,0.403313,0.40304,0.247196,1,0.0330157,10,9.96297e-05,-3.60696,-1.98602,-0.0297077,0.402842,
2,1,0,1,0,1331.75,0.407307,0.407069,0.246953,1,0.0332323,10,0.000100527,-3.60739,2.13072,0.0276901,0.406872,
2,1,0,1,0,1332.55,0.411302,0.410969,0.248398,1,0.0334487,10,0.000102084,-3.60485,-11.4649,-0.00514614,0.41077,
2,1,0,0,0,1333.34,0.415298,0.415068,0.246369,1,0.0336649,10,0.00010226,-3.60841,-1.6313,-0.0361674,0.414871,
2,1,0,1,0,1334.14,0.419293,0.419013,0.246565,1,0.0338807,10,0.000103314,-3.60807,2.88043,0.020483,0.418816,
2,1,0,0,0,1334.94,0.423288,0.42302,0.247243,1,0.0340965,10,0.000104589,-3.60688,-7.10698,-0.0083017,0.422822,
2,1,0,1,0,1335.74,0.427283,0.427046,0.243899,1,0.0343121,10,0.000104156,-3.61279,-4.65267,-0.0126809,0.426851,
2,1,0,1,0,1336.54,0.431278,0.431048,0.245588,1,0.0345275,10,0.00010586,-3.60979,-5.12256,-0.0115177,0.430852,
2,1,0,1,0,1337.34,0.435273,0.434995,0.245032,1,0.0347426,10,0.000106587,-3.61078,1.50731,0.0391425,0.434798,
2,1,0,1,0,1338.14,0.439269,0.438997,0.246934,1,0.0349579,10,0.000108403,-3.60742,-1.88552,-0.0312911,0.438799,
2,1,0,0,0,1338.94,0.443264,0.442935,0.246046,1,0.0351729,10,0.000108983,-3.60898,2.16045,0.0273092,0.442738,
2,1,0,1,0,1339.74,0.447259,0.446959,0.244356,1,0.035388,10,0.000109217,-3.61198,-1.16615,-0.0505936,0.446764,
2,1,0,1,0,1340.54,0.451254,0.451018,0.244501,1,0.0356032,10,0.000110274,-3.61172,5.72988,0.0102969,0.450822,
2,1,0,1,0,1341.33,0.455249,0.455003,0.244905,1,0.0358184,10,0.000111433,-3.611,1.10865,0.053218,0.454807,
2,1,0,1,0,1342.13,0.459244,0.459001,0.24346,1,0.036034,10,0.000111748,-3.61357,15.1048,0.00390604,0.458806,
2,1,0,0,0,1342.93,0.46324,0.46299,0.245441,1,0.0362498,10,0.000113637,-3.61005,3.38369,0.0174366,0.462793,
2,1,0,1,0,1343.73,0.467235,0.466955,0.247937,1,0.0364656,10,0.000115775,-3.60566,-9.80052,-0.00602009,0.466757,
2,1,0,1,0,1344.53,0.471231,0.470995,0.246541,1,0.0366822,10,0.00011612,-3.60811,11.2504,0.00524427,0.470798,
2,1,0,1,0,1345.33,0.475225,0.474979,0.248492,1,0.036899,10,0.000118028,-3.60469,3.17774,0.0185667,0.47478,
2,1,0,1,0,1346.13,0.47922,0.478969,0.247514,1,0.0371162,10,0.000118551,-3.6064,5.35172,0.0110245,0.478771,
2,1,0,0,0,1346.93,0.483216,0.482944,0.249565,1,0.0373345,10,0.000120526,-3.60282,0.826675,0.0713702,0.482745,
2,1,0,1,0,1347.73,0.487211,0.486923,0.250644,1,0.0375532,10,0.000122044,-3.60094,-5.72396,-0.0103075,0.486722,
2,1,0,0,0,1348.53,0.491206,0.490938,0.250762,1,0.0377729,10,0.000123109,-3.60074,1.26933,0.0464813,0.490737,
2,1,0,1,0,1349.33,0.495201,0.494945,0.251575,1,0.0379937,10,0.000124516,-3.59933,2.26919,0.0260004,0.494744,
2,1,0,1,0,1350.12,0.499196,0.498932,0.253927,1,0.0382156,10,0.000126693,-3.59529,2.22608,0.0265039,0.498729,
2,1,0,1,0,1350.92,0.503191,0.502963,0.256967,1,0.0384389,10,0.000129245,-3.59012,2.50113,0.0235894,0.502758,
2,1,0,1,0,1351.72,0.507187,0.506913,0.25887,1,0.0386636,10,0.000131224,-3.58692,0.484081,0.121881,0.506706,
2,1,0,0,0,1352.52,0.511182,0.510886,0.261124,1,0.0388901,10,0.000133405,-3.58315,1.14311,0.0516135,0.510677,
2,1,0,1,0,1353.32,0.515177,0.514915,0.264227,1,0.0391187,10,0.000136054,-3.57802,1.79158,0.0329318,0.514703,
2,1,0,1,0,1354.12,0.519172,0.518897,0.266901,1,0.039349,10,0.000138494,-3.57365,0.721583,0.0817647,0.518683,
2,1,0,1,0,1354.92,0.523167,0.522903,0.268033,1,0.0395816,10,0.000140155,-3.57181,0.805106,0.0732823,0.522689,
2,1,0,1,0,1355.72,0.527162,0.526866,0.271983,1,0.0398169,10,0.000143299,-3.56546,0.935644,0.0630582,0.526648,
2,1,0,0,0,1356.52,0.531158,0.530934,0.27596,1,0.0400551,10,0.000146517,-3.55915,0.611405,0.096499,0.530713,
2,1,0,1,0,1357.32,0.535153,0.534861,0.282081,1,0.0402966,10,0.000150874,-3.54963,0.446822,0.132044,0.534635,
2,1,0,0,0,1358.11,0.539148,0.538888,0.286864,1,0.040542,10,0.000154588,-3.54232,0.450133,0.131072,0.538659,
2,1,0,1,0,1358.91,0.543143,0.542871,0.292196,1,0.0407917,10,0.000158625,-3.53433,0.416551,0.141639,0.542637,
2,1,0,1,0,1359.71,0.547138,0.546908,0.29877,1,0.0410461,10,0.000163399,-3.52466,0.43797,0.134712,0.546669,
2,1,0,1,0,1360.51,0.551133,0.550872,0.305912,1,0.0413058,10,0.000168519,-3.5144,0.388179,0.151992,0.550628,
2,1,0,1,0,1361.31,0.555129,0.55486,0.311908,1,0.0415717,10,0.000173065,-3.50597,0.333544,0.176888,0.55461,
2,1,0,0,0,1362.11,0.559124,0.558866,0.322322,1,0.0418438,10,0.000180135,-3.49171,0.350358,0.168399,0.558608,
2,1,0,1,0,1362.91,0.56312,0.562875,0.330635,1,0.0421231,10,0.000186106,-3.48065,0.324136,0.182022,0.56261,
2,1,0,1,0,1363.71,0.567114,0.56687,0.341651,1,0.0424104,10,0.000193672,-3.46642,0.258546,0.228199,0.566597,
2,1,0,1,0,1364.51,0.571109,0.570882,0.354527,1,0.0427062,10,0.000202393,-3.45035,0.251818,0.234297,0.570599,
2,1,0,1,0,1365.31,0.575105,0.574786,0.366415,1,0.0430121,10,0.00021061,-3.43603,0.257543,0.229088,0.574493,
2,1,0,0,0,1366.1,0.5791,0.578852,0.380943,1,0.0433293,10,0.000220509,-3.41914,0.231722,0.254615,0.578547,
2,1,0,1,0,1366.9,0.583095,0.582826,0.397694,1,0.0436593,10,0.000231787,-3.40045,0.174541,0.338029,0.582508,
2,1,0,1,0,1367.7,0.58709,0.586832,0.417985,1,0.0440049,10,0.000245287,-3.37884,0.181891,0.32437,0.586497,
2,1,0,1,0,1368.5,0.591085,0.590857,0.444227,1,0.0443686,10,0.000262475,-3.35239,0.148477,0.397367,0.590501,
2,1,0,1,0,1369.3,0.59508,0.594818,0.473771,1,0.0447535,10,0.000281808,-3.32443,0.135611,0.435069,0.594439,
2,1,0,0,0,1370.1,0.599076,0.59879,0.506584,1,0.0451634,10,0.000303337,-3.29535,0.127803,0.46165,0.598384,
2,1,0,1,0,1370.9,0.603071,0.602763,0.547296,1,0.0456023,10,0.000329889,-3.26178,0.112481,0.524535,0.602325,
2,1,0,0,0,1371.7,0.607066,0.60678,0.591647,1,0.0460755,10,0.000358999,-3.22794,0.111564,0.528845,0.606306,
2,1,0,1,0,1372.5,0.611061,0.61078,0.64735,1,0.0465894,10,0.000395388,-3.18886,0.0984873,0.599062,0.610262,
2,1,0,1,0,1373.3,0.615056,0.6148,0.712433,1,0.0471511,10,0.000438003,-3.14726,0.0932535,0.632684,0.61423,
2,1,0,1,0,1374.1,0.619051,0.618771,0.788752,1,0.0477697,10,0.000488057,-3.10306,0.0835215,0.706405,0.61814,
2,1,0,1,0,1374.89,0.623047,0.622781,0.879064,1,0.0484547,10,0.000547465,-3.05598,0.0813075,0.72564,0.622078,
2,1,0,0,0,1375.69,0.627042,0.62677,0.986465,1,0.0492179,10,0.000618287,-3.00592,0.0770887,0.765352,0.625981,
2,1,0,1,0,1376.49,0.631037,0.630804,1.11092,1,0.0500734,10,0.000700769,-2.95432,0.0743569,0.79347,0.629915,
2,1,0,1,0,1377.29,0.635032,0.634849,1.25796,1,0.0510371,10,0.000798613,-2.90033,0.0697471,0.845913,0.633842,
2,1,0,1,0,1378.09,0.639027,0.638755,1.43166,1,0.0521293,10,0.000914481,-2.84416,0.0669344,0.88146,0.63761,
2,1,0,1,0,1378.89,0.643022,0.642769,1.63602,1,0.0533721,10,0.00105158,-2.78621,0.0649552,0.908319,0.641461,
2,1,0,0,0,1379.69,0.647018,0.646729,1.87668,1,0.0547926,10,0.00121371,-2.72661,0.0624626,0.944565,0.645228,
2,1,0,1,0,1380.49,0.651013,0.650767,2.1583,1,0.0564214,10,0.00140455,-2.66589,0.0621275,0.94966,0.649041,
2,1,0,1,0,1381.29,0.655008,0.65474,2.48701,1,0.0582938,10,0.00162835,-2.60432,0.0601347,0.98113,0.65275,
2,1,0,1,0,1382.09,0.659003,0.658768,2.86841,1,0.0604493,10,0.00188961,-2.54236,0.058968,1.00054,0.656474,
2,1,0,1,0,1382.88,0.662998,0.662739,3.30967,1,0.0629331,10,0.00219345,-2.48022,0.0575958,1.02438,0.660091,
2,1,0,0,0,1383.68,0.666994,0.666808,3.81709,1,0.065796,10,0.00254527,-2.41827,0.0579244,1.01857,0.663755,
2,1,0,1,0,1384.48,0.670989,0.670709,4.39624,1,0.0690933,10,0.0029486,-2.35692,0.0571218,1.03288,0.667192,
2,1,0,0,0,1385.28,0.674984,0.67474,5.05114,1,0.0728824,10,0.0034082,-2.29661,0.0589525,1.00081,0.670699,
2,1,0,1,0,1386.08,0.678979,0.678754,5.7833,1,0.077226,10,0.00392544,-2.23782,0.0579221,1.01861,0.674127,
2,1,0,1,0,1386.88,0.682974,0.682709,6.59628,1,0.0821879,10,0.00450334,-2.1807,0.058298,1.01204,0.677432,
2,1,0,1,0,1387.68,0.686969,0.686723,7.48672,1,0.0878302,10,0.0051413,-2.12571,0.0609041,0.968737,0.680733,
2,1,0,1,0,1388.48,0.690965,0.690714,8.45192,1,0.0942162,10,0.00583786,-2.07304,0.0621535,0.949263,0.683952,
2,1,0,0,0,1389.28,0.69496,0.694719,9.49047,1,0.101402,10,0.00659321,-2.02271,0.0643385,0.917025,0.687127,
2,1,0,1,0,1390.08,0.698955,0.69875,10.5867,1,0.109439,10,0.00739743,-1.97524,0.0671731,0.878328,0.69028,
2,1,0,1,0,1390.87,0.70295,0.702629,11.7343,1,0.118376,10,0.00824489,-1.93054,0.0700649,0.842076,0.693242,
2,1,0,1,0,1391.67,0.706945,0.706721,12.9227,1,0.128246,10,0.00913274,-1.88865,0.0747323,0.789485,0.696382,
2,1,0,1,0,1392.47,0.71094,0.710682,14.1387,1,0.139077,10,0.0100481,-1.84959,0.0802921,0.734817,0.699371,
2,1,0,0,0,1393.27,0.714936,0.714731,15.3857,1,0.150894,10,0.0109967,-1.81288,0.0832528,0.708685,0.702423,
2,1,0,1,0,1394.07,0.718931,0.718694,16.6775,1,0.163722,10,0.011986,-1.77787,0.0854223,0.690686,0.705352,
2,1,0,1,0,1394.87,0.722927,0.722709,18.0068,1,0.177599,10,0.0130137,-1.74456,0.089028,0.662713,0.708303,
2,1,0,1,0,1395.67,0.726921,0.72668,19.4053,1,0.192562,10,0.0141015,-1.71208,0.0909176,0.648939,0.711156,
2,1,0,1,0,1396.47,0.730916,0.730669,20.8734,1,0.208667,10,0.0152516,-1.68041,0.084939,0.694616,0.71397,
2,1,0,1,0,1397.27,0.734911,0.734677,22.427,1,0.225986,10,0.0164766,-1.64923,0.0930429,0.634116,0.716735,
2,1,0,1,0,1398.07,0.738907,0.738658,23.9965,1,0.24455,10,0.0177252,-1.61985,0.0901815,0.654236,0.719461,
2,1,0,0,0,1398.87,0.742902,0.742616,25.6816,1,0.264415,10,0.0190715,-1.59038,0.0957576,0.616139,0.72207,
2,1,0,1,0,1399.66,0.746897,0.746678,27.3275,1,0.285616,10,0.0204049,-1.5634,0.10062,0.586364,0.724816,
2,1,0,1,0,1400.46,0.750892,0.750661,29.0658,1,0.308154,10,0.0218186,-1.53662,0.0959371,0.614986,0.727408,
2,1,0,1,0,1401.26,0.754887,0.754632,30.8685,1,0.332117,10,0.0232944,-1.51048,0.104265,0.565865,0.729937,
2,1,0,1,0,1402.06,0.758883,0.758626,32.4973,1,0.357465,10,0.0246533,-1.48815,0.11736,0.502728,0.732628,
2,1,0,0,0,1402.86,0.762878,0.762647,34.2716,1,0.38416,10,0.0261371,-1.46507,0.111764,0.527896,0.735229,
2,1,0,1,0,1403.66,0.766873,0.766628,36.0813,1,0.412293,10,0.027661,-1.44272,0.107268,0.550027,0.737763,
2,1,0,1,0,1404.46,0.770868,0.77064,38.1803,1,0.441989,10,0.0294233,-1.41816,0.0738084,0.799367,0.740096,
2,1,0,1,0,1405.26,0.774863,0.774596,40.3861,1,0.473543,10,0.031283,-1.39377,0.142326,0.41454,0.742288,
2,1,0,1,0,1406.06,0.778858,0.7786,42.0787,1,0.506521,10,0.0327625,-1.37594,0.14455,0.408164,0.744937,
2,1,0,0,0,1406.86,0.782854,0.782656,43.9016,1,0.540894,10,0.0343598,-1.35752,0.161054,0.366336,0.747535,
2,1,0,1,0,1407.65,0.786849,0.786626,45.498,1,0.576611,10,0.0357899,-1.34201,0.173167,0.340711,0.750227,
2,1,0,0,0,1408.45,0.790844,0.790618,47.1336,1,0.613627,10,0.0372647,-1.32667,0.184919,0.319059,0.752911,
2,1,0,1,0,1409.25,0.794839,0.794601,48.6572,1,0.651916,10,0.0386631,-1.31285,0.196466,0.300306,0.755675,
2,1,0,1,0,1410.05,0.798834,0.798603,50.3096,1,0.691483,10,0.0401774,-1.29835,0.194142,0.303902,0.758355,
2,1,0,1,0,1410.85,0.802829,0.802611,51.2639,1,0.73225,10,0.041145,-1.29019,0.368557,0.160084,0.7616,
2,1,0,1,0,1411.65,0.806825,0.806574,52.794,1,0.77388,10,0.0425823,-1.27742,0.243459,0.242341,0.764339,
2,1,0,0,0,1412.45,0.81082,0.81056,54.1881,1,0.816643,10,0.0439227,-1.2661,0.299091,0.197264,0.76721,
2,1,0,1,0,1413.25,0.814815,0.814544,55.3999,1,0.860444,10,0.0451257,-1.25649,0.33266,0.177358,0.770224,
2,1,0,1,0,1414.05,0.81881,0.818544,56.5852,1,0.905201,10,0.0463175,-1.2473,0.325701,0.181148,0.773276,
2,1,0,1,0,1414.85,0.822805,0.822587,57.8256,1,0.950897,10,0.0475666,-1.23788,0.503166,0.117258,0.776326,
2,1,0,1,0,1415.64,0.826801,0.826586,58.8373,1,0.997388,10,0.0486341,-1.23035,0.22592,0.261154,0.779516,
2,1,0,0,0,1416.44,0.830796,0.830584,60.075,1,1.04499,10,0.0498973,-1.22131,0.41257,0.143006,0.782524,
2,1,0,1,0,1417.24,0.834791,0.834536,61.1579,1,1.09353,10,0.0510384,-1.21355,0.581253,0.101505,0.785609,
2,1,0,1,0,1418.04,0.838786,0.838555,61.854,1,1.14269,10,0.051868,-1.20863,0.899578,0.0655863,0.789072,
2,1,0,1,0,1418.84,0.842781,0.842566,62.4897,1,1.19237,10,0.0526517,-1.20419,0.721782,0.0817422,0.792574,
2,1,0,1,0,1419.64,0.846776,0.846516,62.8324,1,1.24247,10,0.0531887,-1.20182,0.690716,0.0854187,0.79625,
2,1,0,1,0,1420.34,0.849723,0.84949,63.2466,1,1.28679,10,0.0537273,-1.19896,0.0340379,1.73336,0.798892,
2,1,0,0,0,1421.14,0.845728,0.845524,61.7705,1,1.33668,10,0.0522284,-1.20922,0.414962,0.142182,0.796107,
2,1,0,1,0,1421.94,0.841732,0.841479,60.6748,1,1.38571,10,0.0510566,-1.21699,0.297555,0.198283,0.79294,
2,1,0,1,0,1422.74,0.837737,0.837484,59.2233,1,1.4336,10,0.0495986,-1.22751,0.35188,0.167671,0.790106,
2,1,0,1,0,1423.54,0.833742,0.833485,57.9203,1,1.48048,10,0.0482757,-1.23717,0.323994,0.182102,0.787149,
2,1,0,1,0,1424.33,0.829747,0.829535,56.9572,1,1.52644,10,0.047248,-1.24445,0.356734,0.165389,0.783969,
2,1,0,0,0,1425.13,0.825752,0.825527,55.7132,1,1.57149,10,0.0459927,-1.25404,0.268016,0.220136,0.780956,
2,1,0,1,0,1425.93,0.821757,0.821553,54.5714,1,1.6155,10,0.0448333,-1.26303,0.370379,0.159296,0.777896,
2,1,0,1,0,1426.73,0.817761,0.817527,53.1921,1,1.65859,10,0.043486,-1.27415,0.261692,0.225456,0.774974,
2,1,0,1,0,1427.53,0.813766,0.813519,52.039,1,1.70056,10,0.0423347,-1.28367,0.459921,0.128283,0.771888,
2,1,0,1,0,1428.33,0.809771,0.809537,51.1456,1,1.7419,10,0.0414042,-1.29119,0.212954,0.277055,0.76862,
2,1,0,1,0,1429.13,0.805776,0.805531,49.5189,1,1.78207,10,0.039889,-1.30523,0.182193,0.323833,0.765916,
2,1,0,1,0,1429.93,0.801781,0.801561,47.8586,1,1.82091,10,0.0383616,-1.32004,0.183815,0.320974,0.763275,
2,1,0,0,0,1430.73,0.797786,0.797516,46.1477,1,1.85843,10,0.0368035,-1.33585,0.162802,0.362403,0.760598,
2,1,0,1,0,1431.53,0.79379,0.793525,44.3947,1,1.89456,10,0.0352283,-1.35267,0.149846,0.393739,0.75801,
2,1,0,1,0,1432.33,0.789795,0.789536,42.6781,1,1.92931,10,0.0336959,-1.36979,0.135609,0.435074,0.755393,
2,1,0,1,0,1433.12,0.7858,0.785545,40.7641,1,1.9626,10,0.032022,-1.38972,0.122542,0.481469,0.752934,
2,1,0,1,0,1433.92,0.781805,0.781556,38.8359,1,1.99438,10,0.0303524,-1.41077,0.119011,0.495753,0.750487,
2,1,0,0,0,1434.72,0.77781,0.777563,36.9374,1,2.02464,10,0.0287212,-1.43253,0.108779,0.542384,0.748013,
2,1,0,1,0,1435.52,0.773814,0.773585,35.0665,1,2.05338,10,0.0271269,-1.45511,0.102832,0.573753,0.745532,
2,1,0,1,0,1436.32,0.769819,0.769589,33.1422,1,2.0806,10,0.0255059,-1.47962,0.0991804,0.594875,0.743075,
2,1,0,1,0,1437.12,0.765824,0.765611,31.2298,1,2.10628,10,0.0239099,-1.50543,0.0950457,0.620754,0.740627,
2,1,0,1,0,1437.92,0.761829,0.761605,29.2853,1,2.13043,10,0.0223038,-1.53335,0.087566,0.673778,0.738176,
2,1,0,0,0,1438.72,0.757834,0.757616,27.4231,1,2.15307,10,0.0207762,-1.56188,0.0843015,0.699869,0.735678,
2,1,0,1,0,1439.52,0.753839,0.753612,25.5368,1,2.1742,10,0.0192448,-1.59283,0.0789641,0.747175,0.733183,
2,1,0,0,0,1440.32,0.749843,0.749574,23.7543,1,2.19386,10,0.0178056,-1.62426,0.0819718,0.71976,0.73057,
2,1,0,1,0,1441.11,0.745848,0.745616,22.0241,1,2.21213,10,0.0164215,-1.6571,0.0758154,0.778206,0.727997,
2,1,0,1,0,1441.91,0.741853,0.741614,20.3151,1,2.22901,10,0.015066,-1.69218,0.0761145,0.775148,0.725361,
2,1,0,1,0,1442.71,0.737858,0.737679,18.6821,1,2.24457,10,0.0137814,-1.72857,0.0533154,1.10662,0.722733,
2,1,0,1,0,1443.51,0.733863,0.733595,16.8692,1,2.25872,10,0.0123751,-1.77291,0.0772904,0.763355,0.720099,
2,1,0,0,0,1444.31,0.729868,0.729659,15.397,1,2.27159,10,0.0112345,-1.81257,0.0894933,0.659267,0.717341,
2,1,0,1,0,1445.11,0.725872,0.72565,14.3789,1,2.28347,10,0.0104341,-1.84227,0.0698467,0.844708,0.714146,
2,1,0,1,0,1445.91,0.721877,0.721655,12.8799,1,2.29431,10,0.00929489,-1.89009,0.0661861,0.891426,0.711352,
2,1,0,1,0,1446.71,0.717882,0.717622,11.5984,1,2.30406,10,0.00832325,-1.9356,0.0639347,0.922817,0.708343,
2,1,0,1,0,1447.51,0.713887,0.713639,10.3787,1,2.31282,10,0.00740661,-1.98386,0.0612346,0.963508,0.705336,
2,1,0,0,0,1448.31,0.709892,0.709638,9.251,1,2.32063,10,0.00656486,-2.03381,0.0609338,0.968263,0.702237,
2,1,0,1,0,1449.1,0.705897,0.705671,8.20752,1,2.32758,10,0.00579181,-2.08579,0.0607526,0.971153,0.699105,
2,1,0,1,0,1449.9,0.701901,0.701656,7.24712,1,2.33373,10,0.00508498,-2.13983,0.0588887,1.00189,0.695858,
2,1,0,1,0,1450.7,0.697906,0.697624,6.3613,1,2.33914,10,0.0044378,-2.19645,0.0581605,1.01443,0.692535,
2,1,0,1,0,1451.5,0.693911,0.69368,5.5593,1,2.34387,10,0.00385638,-2.25498,0.0570095,1.03491,0.689233,
2,1,0,0,0,1452.3,0.689916,0.689642,4.82602,1,2.348,10,0.00332823,-2.31641,0.0535314,1.10216,0.685781,
2,1,0,1,0,1453.1,0.685921,0.685641,4.16894,1,2.35157,10,0.00285839,-2.37997,0.0544044,1.08447,0.682306,
2,1,0,0,0,1453.9,0.681926,0.681665,3.58807,1,2.35464,10,0.00244586,-2.44514,0.0540421,1.09174,0.678794,
2,1,0,1,0,1454.7,0.67793,0.677692,3.07088,1,2.35728,10,0.00208111,-2.51274,0.0531145,1.11081,0.675235,
2,1,0,1,0,1455.5,0.673935,0.673694,2.61994,1,2.35953,10,0.00176504,-2.58171,0.052221,1.12981,0.671598,
2,1,0,1,0,1456.3,0.66994,0.669699,2.22618,1,2.36144,10,0.00149087,-2.65244,0.0512272,1.15173,0.667918,
2,1,0,1,0,1457.1,0.665945,0.66567,1.88172,1,2.36306,10,0.0012526,-2.72545,0.051461,1.1465,0.664165,
2,1,0,0,0,1457.89,0.66195,0.66168,1.59133,1,2.36442,10,0.00105295,-2.79824,0.0502383,1.1744,0.660407,
2,1,0,1,0,1458.69,0.657955,0.65768,1.33705,1,2.36557,10,0.000879353,-2.87385,0.050257,1.17397,0.656611,
2,1,0,1,0,1459.49,0.653959,0.653717,1.11904,1,2.36653,10,0.000731539,-2.95115,0.0489725,1.20476,0.652822,
2,1,0,1,0,1460.29,0.649964,0.649704,0.9351,1,2.36733,10,0.000607538,-3.02914,0.0491563,1.20025,0.648956,
2,1,0,1,0,1461.09,0.645969,0.645733,0.777371,1,2.36799,10,0.000501975,-3.10937,0.048484,1.2169,0.645111,
2,1,0,0,0,1461.89,0.641974,0.641693,0.64402,1,2.36854,10,0.000413263,-3.1911,0.0473626,1.24571,0.641178,
2,1,0,1,0,1462.69,0.637979,0.637698,0.532227,1,2.36899,10,0.0003394,-3.2739,0.0456923,1.29125,0.637272,
2,1,0,1,0,1463.49,0.633983,0.633726,0.43599,1,2.36936,10,0.000276298,-3.36052,0.045257,1.30367,0.633378,
2,1,0,1,0,1464.29,0.629988,0.629766,0.357197,1,2.36965,10,0.00022495,-3.44709,0.0438399,1.34581,0.62948,
2,1,0,1,0,1465.09,0.625993,0.625753,0.288896,1,2.36989,10,0.000180778,-3.53926,0.0429916,1.37236,0.625521,
2,1,0,0,0,1465.88,0.621998,0.621726,0.231527,1,2.37008,10,0.000143946,-3.6354,0.0402112,1.46725,0.621541,
2,1,0,1,0,1466.68,0.618003,0.617746,0.184256,1,2.37023,10,0.000113823,-3.73458,0.0358464,1.64591,0.617599,
2,1,0,0,0,1467.48,0.614008,0.61373,0.141259,1,2.37034,10,8.66946e-05,-3.84999,0.0347702,1.69686,0.613617,
2,1,0,1,0,1468.28,0.610012,0.60971,0.107024,1,2.37042,10,6.52534e-05,-3.97052,0.0322884,1.82728,0.609625,
2,1,0,1,0,1469.08,0.606017,0.605742,0.0791191,1,2.37047,10,4.79258e-05,-4.10172,0.0273186,2.1597,0.605679,
2,1,0,1,0,1469.88,0.602022,0.601738,0.054803,1,2.37051,10,3.2977e-05,-4.2612,0.0222261,2.65454,0.601694,
2,1,0,1,0,1470.68,0.598027,0.597786,0.0343508,1,2.37052,10,2.05344e-05,-4.46406,0.0151055,3.90587,0.597759,
2,1,0,0,0,1471.48,0.594032,0.593726,0.0166553,1,2.37052,10,9.88867e-06,-4.77845,0.00753106,7.83422,0.593713,
2,1,0,1,0,1472.28,0.590037,0.589769,-0.000176007,1,2.37051,10,-1.03804e-07,-6.75447,0.0516484,1.14234,0.589769,
2,0,0,1,0,1473.08,0.586041,0.585752,-0.0116436,1,2.37049,10,-6.82025e-06,-4.93391,-0.00834887,-7.06682,0.585761,
2,0,0,1,0,1473.88,0.582046,0.581786,-0.0226416,1,2.37046,10,-1.31725e-05,-4.64509,-0.0190001,-3.10525,0.581804,
2,0,0,1,0,1474.67,0.578052,0.577794,-0.033262,1,2.37042,10,-1.92186e-05,-4.47805,-0.0389784,-1.51366,0.577821,
2,0,0,0,0,1475.47,0.574056,0.573782,-0.0394068,1,2.37037,10,-2.26109e-05,-4.40443,-0.0470049,-1.25519,0.573813,
2,0,0,1,0,1476.27,0.570061,0.569775,-0.0477591,1,2.37031,10,-2.72119e-05,-4.32094,-0.092707,-0.636414,0.569813,
2,0,0,1,0,1477.07,0.566065,0.565822,-0.0515423,1,2.37025,10,-2.91638e-05,-4.28784,-0.0808677,-0.729587,0.565863,
2,0,0,1,0,1477.87,0.56207,0.561766,-0.0568517,1,2.37019,10,-3.19374e-05,-4.24526,-0.112782,-0.523134,0.561812,
2,0,0,1,0,1478.67,0.558075,0.557788,-0.0624045,1,2.37012,10,-3.48085e-05,-4.20478,-0.128454,-0.459307,0.557838,
2,0,0,1,0,1479.47,0.55408,0.553809,-0.0668197,1,2.37005,10,-3.70053e-05,-4.1751,-0.111207,-0.53054,0.553862,
2,0,0,1,0,1480.27,0.550085,0.549818,-0.0704413,1,2.36998,10,-3.87299e-05,-4.15217,-0.336657,-0.175253,0.549874,
2,0,0,0,0,1481.07,0.54609,0.545823,-0.073514,1,2.3699,10,-4.01257e-05,-4.13363,-0.242364,-0.243436,0.545882,
2,0,0,1,0,1481.87,0.542094,0.541863,-0.0751289,1,2.36982,10,-4.07096e-05,-4.12419,-0.389427,-0.151505,0.541923,
2,0,0,1,0,1482.66,0.538099,0.53782,-0.0774498,1,2.36974,10,-4.16541e-05,-4.11098,-0.377028,-0.156487,0.537882,
2,0,0,1,0,1483.46,0.534104,0.533824,-0.0798977,1,2.36966,10,-4.26513e-05,-4.09747,-0.186897,-0.315681,0.533888,
2,0,0,1,0,1484.26,0.530109,0.529833,-0.080821,1,2.36958,10,-4.28217e-05,-4.09248,-1.30465,-0.0452228,0.529898,
2,0,0,0,0,1485.06,0.526114,0.525843,-0.0845621,1,2.36949,10,-4.44664e-05,-4.07282,-0.334504,-0.17638,0.525911,
2,0,0,1,0,1485.86,0.522119,0.521846,-0.0855073,1,2.3694,10,-4.46217e-05,-4.068,-0.306021,-0.192797,0.521915,
2,0,0,1,0,1486.66,0.518123,0.517836,-0.0884847,1,2.36931,10,-4.58205e-05,-4.05313,1.81393,0.0325261,0.517906,
2,0,0,1,0,1487.46,0.514128,0.513872,-0.0889285,1,2.36922,10,-4.56979e-05,-4.05096,-0.305583,-0.193074,0.513943,
2,0,0,1,0,1488.26,0.510133,0.509864,-0.0914664,1,2.36913,10,-4.66354e-05,-4.03874,-0.536308,-0.110011,0.509937,
2,0,0,0,0,1489.06,0.506138,0.50584,-0.0914952,1,2.36904,10,-4.62819e-05,-4.0386,-1.77462,-0.0332465,0.505913,
2,0,0,1,0,1489.86,0.502143,0.501869,-0.094294,1,2.36895,10,-4.73233e-05,-4.02552,-0.309511,-0.190623,0.501945,
2,0,0,0,0,1490.65,0.498148,0.497861,-0.0951489,1,2.36885,10,-4.73709e-05,-4.0216,-0.623601,-0.0946118,0.497937,
2,0,0,1,0,1491.45,0.494152,0.493869,-0.0962147,1,2.36876,10,-4.75175e-05,-4.01676,-0.566368,-0.104173,0.493946,
2,0,0,1,0,1492.25,0.490157,0.489914,-0.09806,1,2.36866,10,-4.8041e-05,-4.00851,-0.52068,-0.113313,0.489993,
2,0,0,1,0,1493.05,0.486162,0.485874,-0.0977068,1,2.36856,10,-4.74733e-05,-4.01008,8.62222,0.00684279,0.485953,
2,0,0,1,0,1493.85,0.482167,0.481851,-0.100964,1,2.36846,10,-4.86494e-05,-3.99584,-0.287464,-0.205243,0.481932,
2,0,0,0,0,1494.65,0.478172,0.477904,-0.101859,1,2.36836,10,-4.86787e-05,-3.992,-1.09522,-0.0538702,0.477986,
2,0,0,1,0,1495.45,0.474177,0.473912,-0.103696,1,2.36826,10,-4.91427e-05,-3.98424,1.90884,0.0309089,0.473995,
2,0,0,1,0,1496.25,0.470181,0.469905,-0.103561,1,2.36816,10,-4.86637e-05,-3.9848,-0.515984,-0.114345,0.469988,
2,0,0,1,0,1497.05,0.466186,0.465908,-0.106528,1,2.36806,10,-4.96323e-05,-3.97254,-1.82737,-0.0322869,0.465993,
2,0,0,1,0,1497.85,0.462191,0.461925,-0.108299,1,2.36795,10,-5.0026e-05,-3.96538,-0.213793,-0.275967,0.462012,
2,0,0,0,0,1498.65,0.458196,0.457964,-0.109688,1,2.36785,10,-5.02333e-05,-3.95984,-1.20873,-0.0488114,0.458052,
2,0,0,1,0,1499.44,0.454201,0.453917,-0.111878,1,2.36774,10,-5.07831e-05,-3.95126,-0.865397,-0.0681768,0.454006,
2,0,0,1,0,1500.24,0.450205,0.449931,-0.113205,1,2.36763,10,-5.09343e-05,-3.94614,-0.504093,-0.117042,0.450022,
2,0,0,1,0,1501.04,0.44621,0.445969,-0.113536,1,2.36752,10,-5.06335e-05,-3.94487,-0.785216,-0.0751385,0.44606,
2,0,0,1,0,1501.84,0.442215,0.441951,-0.116343,1,2.36741,10,-5.14179e-05,-3.93426,-3.06524,-0.0192481,0.442044,
2,0,0,0,0,1502.64,0.43822,0.437962,-0.118075,1,2.36729,10,-5.17121e-05,-3.92784,-0.454438,-0.129831,0.438056,
2,0,0,1,0,1503.44,0.434225,0.433964,-0.120127,1,2.36718,10,-5.21308e-05,-3.92036,-0.299894,-0.196736,0.43406,
2,0,0,0,0,1504.24,0.43023,0.429954,-0.121555,1,2.36706,10,-5.2263e-05,-3.91523,-0.884361,-0.0667148,0.430051,
2,0,0,1,0,1505.04,0.426234,0.425977,-0.123949,1,2.36695,10,-5.27993e-05,-3.90676,-0.532348,-0.11083,0.426076,
2,0,0,1,0,1505.84,0.422239,0.421947,-0.126817,1,2.36683,10,-5.351e-05,-3.89682,-0.540752,-0.109107,0.422048,
2,0,0,1,0,1506.64,0.418244,0.417951,-0.128957,1,2.36671,10,-5.38977e-05,-3.88956,-0.351455,-0.167873,0.418054,
2,0,0,1,0,1507.43,0.414249,0.413994,-0.130998,1,2.36658,10,-5.42325e-05,-3.88273,-2.08573,-0.0282875,0.414098,
2,0,0,0,0,1508.23,0.410254,0.409995,-0.133525,1,2.36646,10,-5.47445e-05,-3.87444,-0.663644,-0.0889031,0.410102,
2,0,0,1,0,1509.03,0.406259,0.405984,-0.13488,1,2.36633,10,-5.47591e-05,-3.87005,-0.392831,-0.150192,0.406092,
2,0,0,1,0,1509.83,0.402263,0.40201,-0.138505,1,2.3662,10,-5.56802e-05,-3.85854,-0.650865,-0.0906486,0.40212,
2,0,0,1,0,1510.63,0.398268,0.397967,-0.140132,1,2.36607,10,-5.57677e-05,-3.85346,-0.383484,-0.153853,0.398079,
2,0,0,1,0,1511.43,0.394273,0.394005,-0.142255,1,2.36594,10,-5.6049e-05,-3.84693,-0.685655,-0.0860492,0.394119,
2,0,0,0,0,1512.23,0.390278,0.389984,-0.144872,1,2.36581,10,-5.64977e-05,-3.83902,-0.463651,-0.127251,0.3901,
2,0,0,1,0,1513.03,0.386283,0.386035,-0.146173,1,2.36567,10,-5.6428e-05,-3.83513,-0.531507,-0.111005,0.386152,
2,0,0,1,0,1513.83,0.382287,0.382062,-0.149204,1,2.36553,10,-5.70051e-05,-3.82622,-1.27597,-0.0462393,0.382182,
2,0,0,1,0,1514.63,0.378292,0.378033,-0.15162,1,2.36539,10,-5.73174e-05,-3.81924,-0.731887,-0.0806135,0.378154,
2,0,0,1,0,1515.42,0.374297,0.374076,-0.155058,1,2.36525,10,-5.80034e-05,-3.80951,-0.523402,-0.112724,0.3742,
2,0,0,1,0,1516.22,0.370302,0.36999,-0.15685,1,2.36511,10,-5.80329e-05,-3.80452,-0.43346,-0.136114,0.370116,
2,0,0,1,0,1517.02,0.366307,0.36605,-0.158717,1,2.36496,10,-5.80985e-05,-3.79938,-0.635233,-0.0928793,0.366177,
2,0,0,0,0,1517.82,0.362312,0.36206,-0.161537,1,2.36481,10,-5.8486e-05,-3.79173,-0.574487,-0.1027,0.362189,
2,0,0,1,0,1518.62,0.358316,0.358057,-0.164916,1,2.36466,10,-5.90492e-05,-3.78274,-0.575659,-0.102491,0.358189,
2,0,0,1,0,1519.42,0.354321,0.354008,-0.166375,1,2.36451,10,-5.88982e-05,-3.77891,-0.459489,-0.128404,0.354142,
2,0,0,1,0,1520.22,0.350327,0.350067,-0.169649,1,2.36436,10,-5.93886e-05,-3.77045,-0.604697,-0.0975696,0.350203,
2,0,0,1,0,1521.02,0.346331,0.346036,-0.1717,1,2.3642,10,-5.94144e-05,-3.76523,-0.990187,-0.0595847,0.346174,
2,0,0,0,0,1521.82,0.342336,0.342081,-0.174615,1,2.36404,10,-5.97325e-05,-3.75792,-0.534498,-0.110384,0.342221,
2,0,0,1,0,1522.62,0.338341,0.338042,-0.178493,1,2.36388,10,-6.03382e-05,-3.74838,-0.656364,-0.0898892,0.338185,
2,0,0,1,0,1523.42,0.334345,0.334063,-0.180122,1,2.36372,10,-6.01721e-05,-3.74443,-0.551491,-0.106983,0.334207,
2,0,0,1,0,1524.21,0.33035,0.33007,-0.182996,1,2.36355,10,-6.04015e-05,-3.73756,-0.644573,-0.0915335,0.330216,
2,0,0,1,0,1525.01,0.326355,0.32608,-0.184388,1,2.36338,10,-6.01251e-05,-3.73427,-0.569374,-0.103623,0.326227,
2,0,0,0,0,1525.81,0.32236,0.322074,-0.187595,1,2.36321,10,-6.04195e-05,-3.72678,-1.76057,-0.0335119,0.322224,
2,0,0,1,0,1526.61,0.318365,0.318134,-0.189552,1,2.36304,10,-6.03028e-05,-3.72227,-0.453581,-0.130076,0.318285,
2,0,0,0,0,1527.41,0.31437,0.314103,-0.193716,1,2.36287,10,-6.08469e-05,-3.71283,41.3644,0.00142635,0.314258,
2,0,0,1,0,1528.21,0.310374,0.310083,-0.195609,1,2.36269,10,-6.06549e-05,-3.70861,-0.35659,-0.165456,0.310239,
2,0,0,1,0,1529.01,0.306379,0.306102,-0.197851,1,2.36252,10,-6.05624e-05,-3.70366,-1.18451,-0.0498094,0.30626,
2,0,0,1,0,1529.81,0.302385,0.302127,-0.20044,1,2.36234,10,-6.05583e-05,-3.69802,-0.456681,-0.129193,0.302288,
2,0,0,1,0,1530.61,0.298389,0.298135,-0.201214,1,2.36216,10,-5.99887e-05,-3.69634,-0.462088,-0.127681,0.298296,
2,0,0,0,0,1531.41,0.294394,0.29409,-0.206542,1,2.36197,10,-6.07419e-05,-3.68499,-1.78354,-0.0330803,0.294255,
2,0,0,1,0,1532.2,0.290398,0.29011,-0.207939,1,2.36179,10,-6.03252e-05,-3.68206,-1.04166,-0.0566401,0.290276,
2,0,0,1,0,1533,0.286403,0.286099,-0.211368,1,2.3616,10,-6.0472e-05,-3.67496,-0.613838,-0.0961166,0.286268,
2,0,0,1,0,1533.8,0.282408,0.282092,-0.214262,1,2.36141,10,-6.04416e-05,-3.66905,-5.28717,-0.0111591,0.282263,
2,0,0,1,0,1534.6,0.278413,0.278201,-0.216274,1,2.36121,10,-6.01677e-05,-3.665,-0.424911,-0.138852,0.278374,
2,0,0,0,0,1535.4,0.274418,0.274128,-0.219837,1,2.36102,10,-6.02634e-05,-3.6579,-0.735612,-0.0802053,0.274304,
2,0,0,1,0,1536.2,0.270423,0.270129,-0.222316,1,2.36082,10,-6.00541e-05,-3.65303,-0.508236,-0.116088,0.270307,
2,0,0,1,0,1537,0.266427,0.266133,-0.225641,1,2.36063,10,-6.00506e-05,-3.64658,-1.07632,-0.0548166,0.266314,
2,0,0,1,0,1537.8,0.262432,0.262161,-0.22905,1,2.36042,10,-6.00481e-05,-3.64007,-0.65861,-0.0895826,0.262344,
2,0,0,1,0,1538.6,0.258437,0.258167,-0.23099,1,2.36022,10,-5.96341e-05,-3.63641,-0.677149,-0.08713,0.258352,
2,0,0,0,0,1539.4,0.254442,0.254156,-0.233725,1,2.36002,10,-5.94026e-05,-3.6313,-2.28958,-0.025769,0.254343,
2,0,0,1,0,1540.19,0.250447,0.250178,-0.23775,1,2.35981,10,-5.94798e-05,-3.62388,-0.604738,-0.0975629,0.250368,
2,0,0,0,0,1540.99,0.246452,0.246203,-0.240154,1,2.3596,10,-5.91266e-05,-3.61951,-0.693059,-0.0851298,0.246395,
2,0,0,1,0,1541.79,0.242456,0.242194,-0.244416,1,2.35938,10,-5.9196e-05,-3.61187,-0.733331,-0.0804548,0.242389,
2,0,0,1,0,1542.59,0.238461,0.238201,-0.247215,1,2.35917,10,-5.88869e-05,-3.60693,-0.500614,-0.117855,0.238399,
2,0,0,1,0,1543.39,0.234466,0.234161,-0.250563,1,2.35895,10,-5.8672e-05,-3.60108,-0.384077,-0.153615,0.234361,
2,0,0,1,0,1544.19,0.230471,0.230187,-0.255198,1,2.35873,10,-5.87433e-05,-3.59312,-0.72363,-0.0815333,0.230391,
2,0,0,0,0,1544.99,0.226476,0.22621,-0.259,1,2.3585,10,-5.85884e-05,-3.5867,-0.625892,-0.0942655,0.226418,
2,0,0,1,0,1545.79,0.222481,0.222188,-0.263816,1,2.35827,10,-5.86169e-05,-3.5787,-0.607521,-0.097116,0.222399,
2,0,0,1,0,1546.59,0.218485,0.218197,-0.27015,1,2.35804,10,-5.89458e-05,-3.5684,-0.601856,-0.0980302,0.218413,
2,0,0,1,0,1547.39,0.21449,0.214238,-0.274532,1,2.35781,10,-5.88152e-05,-3.56141,-0.323094,-0.182609,0.214458,
2,0,0,1,0,1548.19,0.210496,0.210207,-0.280314,1,2.35756,10,-5.89239e-05,-3.55236,-0.471062,-0.125249,0.210431,
2,0,0,0,0,1548.98,0.2065,0.206199,-0.288907,1,2.35732,10,-5.95724e-05,-3.53924,-0.312035,-0.189082,0.206431,
2,0,0,1,0,1549.78,0.202505,0.202248,-0.295969,1,2.35706,10,-5.98593e-05,-3.52875,-0.328519,-0.179594,0.202485,
2,0,0,1,0,1550.58,0.198509,0.198229,-0.304159,1,2.3568,10,-6.02931e-05,-3.5169,-0.266751,-0.22118,0.198472,
2,0,0,1,0,1551.38,0.194514,0.194224,-0.315632,1,2.35654,10,-6.13033e-05,-3.50082,-0.261274,-0.225817,0.194477,
2,0,0,1,0,1552.18,0.190519,0.190269,-0.32949,1,2.35626,10,-6.26918e-05,-3.48216,-0.180681,-0.326543,0.190533,
2,0,0,0,0,1552.98,0.186524,0.186216,-0.344846,1,2.35597,10,-6.42159e-05,-3.46237,-0.200553,-0.294186,0.186492,
2,0,0,1,0,1553.78,0.182529,0.182257,-0.366087,1,2.35566,10,-6.67218e-05,-3.43642,-0.139312,-0.423511,0.182549,
2,0,0,0,0,1554.58,0.178534,0.178237,-0.389704,1,2.35534,10,-6.94595e-05,-3.40926,-0.15267,-0.386453,0.178548,
2,0,0,1,0,1555.38,0.174538,0.174159,-0.420143,1,2.355,10,-7.31718e-05,-3.3766,-0.112871,-0.522721,0.174495,
2,0,0,1,0,1556.18,0.170543,0.170256,-0.456459,1,2.35463,10,-7.77149e-05,-3.3406,-0.0906748,-0.650677,0.170621,
2,0,0,1,0,1556.97,0.166549,0.16625,-0.504886,1,2.35422,10,-8.39374e-05,-3.29681,-0.0852575,-0.692021,0.166654,
2,0,0,1,0,1557.77,0.162553,0.162266,-0.56683,1,2.35378,10,-9.19771e-05,-3.24655,-0.073199,-0.806022,0.162719,
2,0,0,0,0,1558.57,0.158558,0.158283,-0.644353,1,2.35327,10,-0.00010199,-3.19088,-0.0701936,-0.840532,0.158798,
2,0,0,1,0,1559.37,0.154563,0.154261,-0.740607,1,2.3527,10,-0.000114247,-3.13041,-0.0725659,-0.813054,0.154853,
2,0,0,1,0,1560.17,0.150567,0.150267,-0.834277,1,2.35205,10,-0.000125364,-3.07869,-0.0768724,-0.767506,0.150935,
2,0,0,1,0,1560.97,0.146572,0.146287,-0.918311,1,2.35133,10,-0.000134337,-3.03701,-0.109239,-0.540102,0.147021,
2,0,0,1,0,1561.77,0.142578,0.142265,-0.990867,1,2.35055,10,-0.000140965,-3.00398,-0.149723,-0.394061,0.143057,
2,0,0,0,0,1562.57,0.138582,0.138278,-1.03116,1,2.34972,10,-0.000142587,-2.98668,-0.344802,-0.171113,0.139103,
2,0,0,1,0,1563.37,0.134587,0.134316,-1.04692,1,2.34886,10,-0.000140618,-2.98008,7.73383,0.00762882,0.135153,
2,0,0,1,0,1564.17,0.130591,0.130308,-1.03436,1,2.34801,10,-0.000134785,-2.98533,0.331297,0.178088,0.131135,
2,0,0,1,0,1564.97,0.126596,0.126299,-0.987646,1,2.34718,10,-0.000124738,-3.0054,0.184471,0.319834,0.127089,
2,0,0,1,0,1565.76,0.122602,0.122278,-0.933962,1,2.34639,10,-0.000114203,-3.02967,0.135467,0.435529,0.123025,
2,0,0,1,0,1566.56,0.118607,0.118324,-0.87167,1,2.34565,10,-0.000103139,-3.05965,0.14222,0.414851,0.119021,
2,0,0,1,0,1567.36,0.114611,0.114333,-0.813472,1,2.34496,10,-9.30069e-05,-3.08966,0.132496,0.445298,0.114984,
2,0,0,0,0,1568.16,0.110616,0.110337,-0.763492,1,2.34431,10,-8.42411e-05,-3.1172,0.157887,0.373686,0.110947,
2,0,0,1,0,1568.96,0.10662,0.106352,-0.724581,1,2.3437,10,-7.70607e-05,-3.13991,0.215718,0.273505,0.106932,
2,0,0,1,0,1569.76,0.102625,0.102301,-0.694233,1,2.34311,10,-7.10207e-05,-3.15849,0.218443,0.270094,0.102856,
2,0,0,1,0,1570.56,0.0986305,0.09837,-0.67077,1,2.34255,10,-6.59836e-05,-3.17343,0.330505,0.178515,0.0989066,
2,0,0,1,0,1571.36,0.0946351,0.094352,-0.65029,1,2.342,10,-6.13562e-05,-3.18689,0.404529,0.145849,0.0948722,
2,0,0,0,0,1572.16,0.0906399,0.0903511,-0.637205,1,2.34146,10,-5.75721e-05,-3.19572,0.311673,0.189301,0.0908609,
2,0,0,1,0,1572.96,0.0866447,0.0863332,-0.622493,1,2.34094,10,-5.37418e-05,-3.20587,0.494287,0.119364,0.0868312,
2,0,0,1,0,1573.75,0.0826492,0.0823777,-0.609929,1,2.34043,10,-5.02445e-05,-3.21472,0.328627,0.179535,0.0828656,
2,0,0,1,0,1574.55,0.0786544,0.0783473,-0.593847,1,2.33993,10,-4.65263e-05,-3.22633,0.448118,0.131662,0.0788224,
2,0,0,1,0,1575.35,0.0746596,0.0743668,-0.576761,1,2.33944,10,-4.28919e-05,-3.239,0.288452,0.20454,0.0748282,
2,0,0,0,0,1576.15,0.0706641,0.070372,-0.56017,1,2.33897,10,-3.94203e-05,-3.25168,0.313295,0.188321,0.0708201,
2,0,0,1,0,1576.95,0.0666689,0.0663679,-0.546507,1,2.33851,10,-3.62705e-05,-3.2624,0.379183,0.155598,0.0668051,
2,0,0,0,0,1577.75,0.0626737,0.0624083,-0.528647,1,2.33806,10,-3.29919e-05,-3.27683,0.387844,0.152123,0.0628312,
2,0,0,1,0,1578.55,0.0586783,0.0583573,-0.520087,1,2.33762,10,-3.03508e-05,-3.28392,0.319593,0.18461,0.0587733,
2,0,0,1,0,1579.35,0.0546835,0.0544076,-0.50892,1,2.33719,10,-2.76891e-05,-3.29335,0.589519,0.100082,0.0548148,
2,0,0,1,0,1580.15,0.0506886,0.0503987,-0.500147,1,2.33677,10,-2.52067e-05,-3.3009,0.75148,0.0785117,0.0507988,
2,0,0,1,0,1580.95,0.046693,0.0463845,-0.489502,1,2.33635,10,-2.27053e-05,-3.31025,0.54096,0.109065,0.0467761,
2,0,0,0,0,1581.74,0.0426979,0.0424069,-0.485333,1,2.33594,10,-2.05815e-05,-3.31396,1.41891,0.0415812,0.0427952,
2,0,0,1,0,1582.54,0.0387022,0.0384417,-0.480614,1,2.33553,10,-1.84756e-05,-3.3182,0.900574,0.0655138,0.0388262,
2,0,0,1,0,1583.34,0.0347074,0.0343827,-0.478789,1,2.33513,10,-1.64621e-05,-3.31986,3.28239,0.0179747,0.0347658,
2,0,0,1,0,1584.14,0.0307126,0.0304171,-0.47503,1,2.33473,10,-1.4449e-05,-3.32328,9.6181,0.00613427,0.0307971,
2,0,0,1,0,1584.94,0.0267172,0.026433,-0.47706,1,2.33433,10,-1.26101e-05,-3.32143,0.894083,0.0659894,0.0268146,
2,0,0,0,0,1585.74,0.022722,0.0224183,-0.476876,1,2.33393,10,-1.06907e-05,-3.32159,-0.80567,-0.073231,0.0227998,
2,0,0,1,0,1586.54,0.0187268,0.0184174,-0.48018,1,2.33353,10,-8.84365e-06,-3.3186,112.718,0.000523428,0.0188015,
2,0,0,1,0,1587.34,0.0147313,0.0144119,-0.481403,1,2.33312,10,-6.93794e-06,-3.31749,-1.02093,-0.0577907,0.014797,
2,0,0,1,0,1588.14,0.0107365,0.0104335,-0.484762,1,2.33272,10,-5.05777e-06,-3.31447,-1.19802,-0.0492477,0.0108213,
2,0,0,1,0,1588.94,0.00674162,0.00646162,-0.488085,1,2.33231,10,-3.15382e-06,-3.3115,-0.838262,-0.0703837,0.00685209,
2,0,0,0,0,1589.74,0.00274612,0.00243385,-0.493054,1,2.3319,10,-1.20002e-06,-3.30711,-1.28567,-0.0458905,0.0028283,
2,0,0,1,0,1590.23,0.000274105,-6.0487e-05,-0.49599,1,2.33164,10,3.00009e-08,-3.30453, , ,0.000336305,