File: Figure_codes/Fig_3-5/workspace_calculate_alpha_eff/20221101_1-115_003_TrumpetPlot_ParaChange_from10_every3_16_CV_C01_50.csv
mode,ox/red,error,control changes,counter inc.,time/s,control/V,Ewe/V,<I>/mA,cycle number,(Q-Qo)/C,I Range,P/W,log(|I|),Tafel slope mV/dec,alpha_eff,E-IR/V,
2,0,0,0,0,33492.2,2.44065e-05,-0.000325324,-0.0930337,51,0.0000000E+000,10,3.02661e-08,-4.03136, , ,-0.000284389,
2,1,0,0,0,33493,0.00379485,0.00346351,0.147339,51,9.50315e-05,10,5.10311e-07,-3.83168,0.0352356,1.67444,0.00339868,
2,1,0,1,0,33493.8,0.00779002,0.00743897,0.170565,51,0.000235422,10,1.26883e-06,-3.76811,0.0742077,0.795066,0.00736392,
2,1,0,0,0,33494.6,0.0117852,0.0114791,0.185868,51,0.000391312,10,2.13361e-06,-3.73079,0.114783,0.514011,0.0113973,
2,1,0,1,0,33495.4,0.0157806,0.0154538,0.202256,51,0.00055923,10,3.12562e-06,-3.6941,0.129947,0.45403,0.0153648,
2,1,0,1,0,33496.2,0.0197754,0.0194701,0.214987,51,0.000738112,10,4.18581e-06,-3.66759,0.139842,0.421904,0.0193755,
2,1,0,1,0,33497,0.0237704,0.0234097,0.229007,51,0.000928197,10,5.36096e-06,-3.64015,0.15904,0.370976,0.0233089,
2,1,0,1,0,33497.8,0.0277659,0.0274382,0.242345,51,0.00112882,10,6.64952e-06,-3.61557,0.169421,0.348246,0.0273316,
2,1,0,0,0,33498.6,0.0317611,0.0314402,0.256302,51,0.00134098,10,8.0582e-06,-3.59125,0.160247,0.368181,0.0313274,
2,1,0,1,0,33499.4,0.0357567,0.0354673,0.270331,51,0.00156475,10,9.58791e-06,-3.5681,0.205284,0.287406,0.0353483,
2,1,0,1,0,33500.2,0.0397516,0.0394412,0.285301,51,0.00179983,10,1.12526e-05,-3.5447,0.157111,0.375531,0.0393156,
2,1,0,1,0,33501,0.0437465,0.0434354,0.298434,51,0.00204667,10,1.29626e-05,-3.52515,0.198295,0.297537,0.0433041,
2,1,0,1,0,33501.7,0.0477413,0.0473913,0.312638,51,0.00230394,10,1.48163e-05,-3.50496,0.208117,0.283494,0.0472538,
2,1,0,0,0,33502.5,0.0517369,0.0513578,0.325652,51,0.00257179,10,1.67248e-05,-3.48725,0.220776,0.267239,0.0512145,
2,1,0,1,0,33503.3,0.0557321,0.0554266,0.338598,51,0.00285032,10,1.87673e-05,-3.47032,0.321116,0.183734,0.0552776,
2,1,0,1,0,33504.1,0.0597277,0.0593737,0.350262,51,0.00313779,10,2.07964e-05,-3.45561,0.285295,0.206804,0.0592196,
2,1,0,1,0,33504.9,0.0637226,0.0634209,0.360465,51,0.00343455,10,2.2861e-05,-3.44314,0.285214,0.206863,0.0632623,
2,1,0,1,0,33505.7,0.0677174,0.0674186,0.370687,51,0.00374023,10,2.49912e-05,-3.43099,0.550705,0.107135,0.0672555,
2,1,0,0,0,33506.5,0.0717128,0.0713953,0.379725,51,0.00405311,10,2.71106e-05,-3.42053,0.282656,0.208735,0.0712282,
2,1,0,1,0,33507.3,0.075708,0.0754015,0.387026,51,0.00437356,10,2.91823e-05,-3.41226,0.438874,0.134435,0.0752312,
2,1,0,0,0,33508.1,0.0797031,0.0793801,0.397329,51,0.00470049,10,3.154e-05,-3.40085,0.513374,0.114926,0.0792053,
2,1,0,1,0,33508.9,0.0836986,0.0833547,0.405805,51,0.00503438,10,3.38258e-05,-3.39168,0.384701,0.153366,0.0831762,
2,1,0,1,0,33509.7,0.0876935,0.0873597,0.416271,51,0.00537641,10,3.63653e-05,-3.38062,0.296313,0.199114,0.0871765,
2,1,0,1,0,33510.5,0.0916883,0.0913793,0.431809,51,0.00572776,10,3.94584e-05,-3.36471,0.260063,0.226868,0.0911893,
2,1,0,1,0,33511.3,0.0956838,0.0953392,0.446678,51,0.00609207,10,4.25859e-05,-3.35001,0.207663,0.284114,0.0951427,
2,1,0,0,0,33512.1,0.099679,0.0993815,0.46796,51,0.00647138,10,4.65065e-05,-3.32979,0.213563,0.276265,0.0991756,
2,1,0,1,0,33512.9,0.103674,0.103391,0.491106,51,0.00686801,10,5.07759e-05,-3.30882,0.178923,0.32975,0.103175,
2,1,0,1,0,33513.7,0.10767,0.107329,0.51328,51,0.0072839,10,5.509e-05,-3.28965,0.218816,0.269634,0.107104,
2,1,0,1,0,33514.5,0.111664,0.111315,0.534002,51,0.00771598,10,5.94425e-05,-3.27246,0.269077,0.219268,0.11108,
2,1,0,1,0,33515.3,0.115659,0.115326,0.549035,51,0.00816199,10,6.33183e-05,-3.2604,0.32364,0.182302,0.115085,
2,1,0,0,0,33516.1,0.119655,0.119292,0.56298,51,0.00862033,10,6.71589e-05,-3.24951,0.514118,0.11476,0.119044,
2,1,0,1,0,33516.9,0.12365,0.123311,0.574516,51,0.00908756,10,7.08439e-05,-3.2407,0.48781,0.120949,0.123058,
2,1,0,1,0,33517.7,0.127646,0.127324,0.580837,51,0.00956344,10,7.39544e-05,-3.23595,0.724231,0.0814658,0.127068,
2,1,0,1,0,33518.5,0.131641,0.131335,0.587826,51,0.0100451,10,7.7202e-05,-3.23075,-0.917227,-0.0643243,0.131076,
2,1,0,1,0,33519.3,0.135635,0.135283,0.576675,51,0.0105243,10,7.80145e-05,-3.23907,-0.336838,-0.175159,0.13503,
2,1,0,0,0,33520.1,0.139631,0.139302,0.546555,51,0.0109882,10,7.6136e-05,-3.26237,-0.125862,-0.468766,0.139061,
2,1,0,1,0,33520.9,0.143626,0.143324,0.498031,51,0.01142,10,7.13797e-05,-3.30274,-0.0803763,-0.734047,0.143105,
2,1,0,0,0,33521.7,0.147621,0.147306,0.43785,51,0.0118067,10,6.44977e-05,-3.35867,-0.0678907,-0.869044,0.147113,
2,1,0,1,0,33522.5,0.151617,0.15131,0.383157,51,0.0121471,10,5.79754e-05,-3.41662,-0.0738642,-0.798763,0.151141,
2,1,0,1,0,33523.3,0.155612,0.155286,0.343842,51,0.0124491,10,5.33939e-05,-3.46364,-0.102089,-0.577925,0.155135,
2,1,0,1,0,33524.1,0.159606,0.15929,0.31798,51,0.0127253,10,5.06511e-05,-3.4976,-0.136619,-0.431859,0.15915,
2,1,0,1,0,33524.9,0.163602,0.163327,0.299744,51,0.0129843,10,4.89563e-05,-3.52325,-0.17649,-0.334297,0.163195,
2,1,0,0,0,33525.7,0.167597,0.167254,0.288764,51,0.0132312,10,4.82968e-05,-3.53946,-0.295191,-0.199871,0.167127,
2,1,0,1,0,33526.5,0.171592,0.171288,0.278455,51,0.0134702,10,4.7696e-05,-3.55524,-0.347695,-0.169689,0.171165,
2,1,0,1,0,33527.3,0.175588,0.175264,0.273121,51,0.0137032,10,4.78684e-05,-3.56364,-0.398746,-0.147964,0.175144,
2,1,0,1,0,33528.1,0.179582,0.179285,0.269029,51,0.0139311,10,4.82329e-05,-3.5702,-0.786019,-0.0750618,0.179167,
2,1,0,1,0,33528.9,0.183577,0.183264,0.263553,51,0.0141558,10,4.82999e-05,-3.57913,-0.470853,-0.125305,0.183148,
2,1,0,0,0,33529.7,0.187573,0.187277,0.260762,51,0.0143774,10,4.88346e-05,-3.58376,-1.02551,-0.0575325,0.187162,
2,1,0,1,0,33530.5,0.191568,0.191199,0.257068,51,0.0145967,10,4.91511e-05,-3.58995,-1.40746,-0.0419196,0.191086,
2,1,0,0,0,33531.3,0.195563,0.195233,0.256135,51,0.0148143,10,5.00059e-05,-3.59153,-0.53323,-0.110646,0.19512,
2,1,0,1,0,33532.1,0.199559,0.199198,0.253622,51,0.0150297,10,5.0521e-05,-3.59581,-3.26707,-0.018059,0.199086,
2,1,0,1,0,33532.9,0.203553,0.203242,0.250805,51,0.0152437,10,5.0974e-05,-3.60066,-0.917487,-0.0643061,0.203131,
2,1,0,1,0,33533.7,0.207548,0.207214,0.250222,51,0.0154562,10,5.18493e-05,-3.60168,-3.7088,-0.0159081,0.207104,
2,1,0,1,0,33534.5,0.211544,0.211241,0.247527,51,0.0156671,10,5.22879e-05,-3.60638,-1.5696,-0.0375892,0.211132,
2,1,0,0,0,33535.3,0.215539,0.21522,0.24795,51,0.0158773,10,5.33639e-05,-3.60564,-13.0686,-0.00451465,0.215111,
2,1,0,1,0,33536.1,0.219535,0.219204,0.245956,51,0.0160862,10,5.39144e-05,-3.60914,-0.941647,-0.0626562,0.219095,
2,1,0,1,0,33536.9,0.223529,0.223207,0.244206,51,0.0162938,10,5.45084e-05,-3.61224,-1.38381,-0.0426358,0.223099,
2,1,0,1,0,33537.7,0.227524,0.227214,0.242451,51,0.0165005,10,5.50883e-05,-3.61538,-2.25541,-0.0261593,0.227108,
2,1,0,1,0,33538.5,0.23152,0.231192,0.242304,51,0.0167061,10,5.60187e-05,-3.61564,-3.83986,-0.0153651,0.231086,
2,1,0,0,0,33539.3,0.235515,0.235192,0.240319,51,0.0169112,10,5.65211e-05,-3.61921,-1.43384,-0.0411482,0.235086,
2,1,0,1,0,33540.1,0.23951,0.239169,0.23988,51,0.0171152,10,5.73718e-05,-3.62001,-1.06023,-0.0556481,0.239063,
2,1,0,1,0,33540.9,0.243506,0.243178,0.238305,51,0.0173182,10,5.79507e-05,-3.62287,3.28638,0.0179529,0.243073,
2,1,0,1,0,33541.7,0.2475,0.24721,0.236985,51,0.0175207,10,5.85851e-05,-3.62528,-1.24637,-0.0473376,0.247105,
2,1,0,1,0,33542.5,0.251495,0.251183,0.236949,51,0.0177223,10,5.95174e-05,-3.62535,-6.79487,-0.00868302,0.251079,
2,1,0,0,0,33543.3,0.255491,0.25519,0.236179,51,0.0179232,10,6.02706e-05,-3.62676,-2.54398,-0.023192,0.255086,
2,1,0,1,0,33544.1,0.259486,0.259203,0.235615,51,0.0181239,10,6.10721e-05,-3.6278,-1.08009,-0.0546252,0.259099,
2,1,0,0,0,33544.9,0.263481,0.263138,0.234948,51,0.0183235,10,6.18236e-05,-3.62903,2.82724,0.0208684,0.263035,
2,1,0,1,0,33545.7,0.267477,0.267192,0.233632,51,0.0185227,10,6.24248e-05,-3.63147,-2.01055,-0.0293452,0.267089,
2,1,0,1,0,33546.5,0.271471,0.271148,0.233438,51,0.0187211,10,6.32963e-05,-3.63183,-3.78659,-0.0155813,0.271045,
2,1,0,1,0,33547.3,0.275466,0.275155,0.232466,51,0.0189187,10,6.39643e-05,-3.63364,27.7543,0.00212579,0.275053,
2,1,0,1,0,33548.1,0.279462,0.279153,0.231631,51,0.0191159,10,6.46606e-05,-3.6352,-1.30199,-0.0453151,0.279051,
2,1,0,0,0,33548.9,0.283457,0.28318,0.231063,51,0.0193121,10,6.54323e-05,-3.63627,-1.87663,-0.0314394,0.283078,
2,1,0,1,0,33549.7,0.287452,0.28713,0.229931,51,0.0195077,10,6.60199e-05,-3.6384,-2.49404,-0.0236564,0.287028,
2,1,0,1,0,33550.5,0.291448,0.291152,0.228987,51,0.0197025,10,6.66701e-05,-3.64019,-0.835285,-0.0706346,0.291051,
2,1,0,1,0,33551.3,0.295442,0.295153,0.227891,51,0.0198964,10,6.72625e-05,-3.64227,1.517,0.0388925,0.295052,
2,1,0,1,0,33552.1,0.299437,0.299147,0.226927,51,0.0200898,10,6.78845e-05,-3.64411,-1.41737,-0.0416263,0.299047,
2,1,0,0,0,33552.9,0.303433,0.303106,0.226534,51,0.0202823,10,6.86638e-05,-3.64487,-2.50448,-0.0235578,0.303006,
2,1,0,1,0,33553.7,0.307428,0.307112,0.225559,51,0.0204741,10,6.9272e-05,-3.64674,-10.6939,-0.00551715,0.307013,
2,1,0,1,0,33554.5,0.311424,0.311087,0.225675,51,0.0206657,10,7.02044e-05,-3.64652,-1.55278,-0.0379964,0.310988,
2,1,0,1,0,33555.3,0.315418,0.315096,0.224524,51,0.0208562,10,7.07464e-05,-3.64874,-12.0531,-0.00489502,0.314997,
2,1,0,1,0,33556.1,0.319413,0.319098,0.223411,51,0.021046,10,7.129e-05,-3.65089,-1.77737,-0.0331951,0.318999,
2,1,0,0,0,33556.9,0.323409,0.323077,0.222847,51,0.0212355,10,7.1997e-05,-3.65199,-1.34014,-0.0440254,0.322979,
2,1,0,1,0,33557.7,0.327404,0.327103,0.222849,51,0.0214243,10,7.28945e-05,-3.65199,3.92227,0.0150423,0.327005,
2,1,0,0,0,33558.5,0.331399,0.331074,0.220379,51,0.0216126,10,7.29619e-05,-3.65683,-1.3298,-0.0443675,0.330977,
2,1,0,1,0,33559.3,0.335395,0.335106,0.221158,51,0.0218004,10,7.41112e-05,-3.6553,7.85106,0.00751491,0.335009,
2,1,0,1,0,33560.1,0.339389,0.339059,0.219788,51,0.0219876,10,7.45212e-05,-3.658,-2.80013,-0.0210704,0.338962,
2,1,0,1,0,33560.9,0.343384,0.343122,0.220181,51,0.0221745,10,7.5549e-05,-3.65722,-3.79203,-0.015559,0.343025,
2,1,0,1,0,33561.7,0.34738,0.347057,0.219253,51,0.0223609,10,7.60936e-05,-3.65905,-3.85392,-0.0153091,0.346961,
2,1,0,0,0,33562.5,0.351375,0.351059,0.218896,51,0.0225468,10,7.68454e-05,-3.65976,-9.20573,-0.00640905,0.350963,
2,1,0,1,0,33563.3,0.35537,0.355072,0.219341,51,0.0227325,10,7.78817e-05,-3.65888,-1.42928,-0.0412794,0.354975,
2,1,0,1,0,33564.1,0.359366,0.359077,0.218464,51,0.0229175,10,7.84455e-05,-3.66062,1.60242,0.0368193,0.358981,
2,1,0,1,0,33564.9,0.36336,0.363027,0.21709,51,0.0231027,10,7.88097e-05,-3.66336,-3.93953,-0.0149764,0.362932,
2,1,0,1,0,33565.7,0.367355,0.367034,0.217341,51,0.0232873,10,7.97714e-05,-3.66286,-1.60396,-0.036784,0.366938,
2,1,0,0,0,33566.5,0.371351,0.371003,0.216973,51,0.0234714,10,8.04975e-05,-3.66359,-13.3089,-0.00443312,0.370907,
2,1,0,1,0,33567.3,0.375346,0.375037,0.217127,51,0.0236555,10,8.14309e-05,-3.66329,-4.35321,-0.0135532,0.374942,
2,1,0,1,0,33568.1,0.379342,0.379047,0.215839,51,0.023839,10,8.18132e-05,-3.66587,3.44725,0.0171151,0.378952,
2,1,0,1,0,33568.9,0.383336,0.383031,0.215863,51,0.0240222,10,8.26823e-05,-3.66582,-5.83585,-0.0101099,0.382936,
2,1,0,1,0,33569.7,0.387331,0.387049,0.216778,51,0.0242053,10,8.39037e-05,-3.66398,-1.71357,-0.0344311,0.386953,
2,1,0,0,0,33570.5,0.391327,0.391002,0.215196,51,0.0243879,10,8.4142e-05,-3.66717,2.18222,0.0270366,0.390907,
2,1,0,1,0,33571.3,0.395322,0.395002,0.214495,51,0.0245702,10,8.47259e-05,-3.66858,-1.03246,-0.057145,0.394907,
2,1,0,0,0,33572.1,0.399317,0.398993,0.214975,51,0.0247522,10,8.57735e-05,-3.66761,2.06937,0.0285111,0.398898,
2,1,0,1,0,33572.9,0.403313,0.403007,0.214286,51,0.0249339,10,8.63588e-05,-3.66901,-6.23416,-0.00946399,0.402913,
2,1,0,1,0,33573.7,0.407307,0.406987,0.214926,51,0.0251155,10,8.74721e-05,-3.66771,-2.20451,-0.0267634,0.406893,
2,1,0,1,0,33574.5,0.411302,0.41098,0.215812,51,0.0252969,10,8.86942e-05,-3.66593,2.23177,0.0264365,0.410885,
2,1,0,1,0,33575.3,0.415298,0.414987,0.214231,51,0.0254785,10,8.89033e-05,-3.66912,-3.16453,-0.0186442,0.414893,
2,1,0,0,0,33576.1,0.419293,0.418968,0.21389,51,0.0256597,10,8.9613e-05,-3.66981,-3.271,-0.0180373,0.418874,
2,1,0,1,0,33576.9,0.423288,0.422978,0.21466,51,0.0258405,10,9.07967e-05,-3.66825,10.5077,0.00561493,0.422884,
2,1,0,1,0,33577.7,0.427283,0.426944,0.213251,51,0.0260216,10,9.10462e-05,-3.67111,16.0081,0.00368563,0.426851,
2,1,0,1,0,33578.5,0.431278,0.430984,0.214418,51,0.0262023,10,9.24108e-05,-3.66874,4.35966,0.0135332,0.43089,
2,1,0,1,0,33579.3,0.435273,0.434995,0.215236,51,0.026383,10,9.36263e-05,-3.66709,-325.96,-0.000181004,0.4349,
2,1,0,0,0,33580.1,0.439269,0.438978,0.215554,51,0.0265641,10,9.46232e-05,-3.66644,5.93572,0.00993981,0.438883,
2,1,0,1,0,33580.9,0.443264,0.442973,0.214099,51,0.0267449,10,9.48401e-05,-3.66939,-2.5515,-0.0231236,0.442879,
2,1,0,0,0,33581.7,0.447259,0.44697,0.213619,51,0.0269257,10,9.54812e-05,-3.67036,3.6882,0.015997,0.446876,
2,1,0,1,0,33582.5,0.451254,0.450933,0.214837,51,0.0271067,10,9.68771e-05,-3.66789,-3.13004,-0.0188496,0.450838,
2,1,0,1,0,33583.3,0.455249,0.454985,0.216023,51,0.0272876,10,9.82872e-05,-3.6655,1.34184,0.0439695,0.45489,
2,1,0,1,0,33584.1,0.459244,0.458988,0.215872,51,0.027469,10,9.90828e-05,-3.6658,-5.57496,-0.010583,0.458893,
2,1,0,1,0,33584.8,0.46324,0.462918,0.215954,51,0.0276506,10,9.99691e-05,-3.66564,2.11988,0.0278317,0.462823,
2,1,0,0,0,33585.6,0.467235,0.466936,0.216807,51,0.0278322,10,0.000101235,-3.66393,-2.83985,-0.0207758,0.466841,
2,1,0,1,0,33586.4,0.471231,0.470896,0.215941,51,0.0280139,10,0.000101686,-3.66566,2.34348,0.0251762,0.470801,
2,1,0,1,0,33587.2,0.475225,0.474954,0.217629,51,0.028196,10,0.000103364,-3.66228,1.84745,0.0319359,0.474859,
2,1,0,1,0,33588,0.47922,0.478921,0.217387,51,0.0283786,10,0.000104111,-3.66277,3.77603,0.0156249,0.478825,
2,1,0,1,0,33588.8,0.483216,0.48291,0.218382,51,0.0285616,10,0.000105459,-3.66078,-5.22629,-0.0112891,0.482814,
2,1,0,0,0,33589.6,0.487211,0.486898,0.219365,51,0.0287448,10,0.000106808,-3.65883,1.21349,0.0486201,0.486801,
2,1,0,1,0,33590.4,0.491206,0.490902,0.218822,51,0.0289288,10,0.00010742,-3.65991,1.67808,0.0351592,0.490805,
2,1,0,1,0,33591.2,0.495201,0.494919,0.220967,51,0.0291134,10,0.000109361,-3.65567,6.40124,0.00921696,0.494822,
2,1,0,1,0,33592,0.499196,0.498893,0.221271,51,0.0292983,10,0.000110391,-3.65507,1.36603,0.0431907,0.498796,
2,1,0,1,0,33592.8,0.503191,0.502885,0.222653,51,0.0294842,10,0.000111969,-3.65237,4.07906,0.0144641,0.502787,
2,1,0,0,0,33593.6,0.507187,0.506913,0.223202,51,0.0296706,10,0.000113144,-3.6513,17.8766,0.0033004,0.506814,
2,1,0,1,0,33594.4,0.511182,0.510867,0.224033,51,0.0298576,10,0.000114451,-3.64969,2.63351,0.0224035,0.510768,
2,1,0,0,0,33595.2,0.515177,0.514833,0.2251,51,0.0300459,10,0.000115889,-3.64762,1.25111,0.0471582,0.514734,
2,1,0,1,0,33596,0.519173,0.51886,0.226602,51,0.0302347,10,0.000117575,-3.64474,1.1037,0.0534568,0.51876,
2,1,0,1,0,33596.8,0.523167,0.522844,0.227021,51,0.0304247,10,0.000118697,-3.64393,1.56839,0.0376181,0.522744,
2,1,0,1,0,33597.6,0.527162,0.526868,0.229195,51,0.0306157,10,0.000120756,-3.63979,2.7377,0.0215509,0.526767,
2,1,0,1,0,33598.4,0.531158,0.5309,0.230019,51,0.0308077,10,0.000122117,-3.63824,0.930836,0.0633839,0.530799,
2,1,0,0,0,33599.2,0.535153,0.534843,0.233115,51,0.0310014,10,0.00012468,-3.63243,1.2754,0.0462599,0.53474,
2,1,0,1,0,33600,0.539148,0.538864,0.234082,51,0.0311961,10,0.000126139,-3.63063,1.49514,0.0394611,0.538761,
2,1,0,1,0,33600.8,0.543143,0.542854,0.235558,51,0.0313923,10,0.000127874,-3.6279,1.44682,0.0407792,0.542751,
2,1,0,1,0,33601.6,0.547138,0.546854,0.237162,51,0.0315899,10,0.000129693,-3.62496,1.01017,0.0584061,0.54675,
2,1,0,1,0,33602.4,0.551133,0.550843,0.239947,51,0.031789,10,0.000132173,-3.61988,0.715702,0.0824366,0.550737,
2,1,0,0,0,33603.2,0.555129,0.554848,0.241822,51,0.0319903,10,0.000134175,-3.6165,0.716278,0.0823702,0.554742,
2,1,0,1,0,33604,0.559124,0.558881,0.245063,51,0.0321936,10,0.000136961,-3.61072,0.844996,0.0698228,0.558773,
2,1,0,1,0,33604.8,0.56312,0.562823,0.248382,51,0.0323992,10,0.000139795,-3.60488,0.743694,0.0793337,0.562714,
2,1,0,1,0,33605.6,0.567114,0.566821,0.252243,51,0.0326074,10,0.000142976,-3.59818,0.787583,0.0749127,0.56671,
2,1,0,1,0,33606.4,0.571109,0.570835,0.254653,51,0.032818,10,0.000145365,-3.59405,0.595371,0.0990979,0.570723,
2,1,0,0,0,33607.2,0.575105,0.574783,0.258841,51,0.0330316,10,0.000148777,-3.58697,0.553962,0.106505,0.574669,
2,1,0,1,0,33608,0.5791,0.578789,0.263823,51,0.0332487,10,0.000152698,-3.57869,0.638802,0.0923604,0.578673,
2,1,0,0,0,33608.8,0.583095,0.582836,0.268536,51,0.0334694,10,0.000156512,-3.571,0.440429,0.13396,0.582718,
2,1,0,1,0,33609.6,0.58709,0.586814,0.272813,51,0.0336944,10,0.00016009,-3.56413,0.410282,0.143803,0.586694,
2,1,0,1,0,33610.4,0.591085,0.590759,0.280367,51,0.0339241,10,0.000165629,-3.55227,0.410822,0.143614,0.590635,
2,1,0,1,0,33611.2,0.59508,0.594753,0.287447,51,0.0341588,10,0.00017096,-3.54144,0.364654,0.161797,0.594627,
2,1,0,1,0,33612,0.599076,0.598762,0.294232,51,0.0343993,10,0.000176175,-3.53131,0.306155,0.192713,0.598632,
2,1,0,0,0,33612.8,0.603071,0.602774,0.303317,51,0.0346461,10,0.000182832,-3.5181,0.275719,0.213986,0.602641,
2,1,0,1,0,33613.6,0.607066,0.606783,0.313925,51,0.0349005,10,0.000190485,-3.50317,0.296937,0.198695,0.606645,
2,1,0,1,0,33614.4,0.611061,0.610773,0.324155,51,0.0351634,10,0.000197985,-3.48925,0.272175,0.216772,0.610631,
2,1,0,1,0,33615.2,0.615056,0.614733,0.337124,51,0.0354355,10,0.000207241,-3.47221,0.212065,0.278216,0.614584,
2,1,0,1,0,33616,0.619051,0.618768,0.352077,51,0.0357192,10,0.000217854,-3.45336,0.205448,0.287178,0.618613,
2,1,0,0,0,33616.8,0.623047,0.622728,0.369656,51,0.0360157,10,0.000230195,-3.4322,0.175896,0.335426,0.622566,
2,1,0,1,0,33617.6,0.627042,0.626764,0.390133,51,0.0363272,10,0.000244521,-3.40879,0.164994,0.357589,0.626592,
2,1,0,1,0,33618.4,0.631037,0.630726,0.414362,51,0.0366567,10,0.000261349,-3.38262,0.153979,0.383168,0.630544,
2,1,0,1,0,33619.2,0.635032,0.634733,0.441347,51,0.0370062,10,0.000280137,-3.35522,0.129795,0.454562,0.634539,
2,1,0,1,0,33620,0.639027,0.638764,0.473419,51,0.0373797,10,0.000302403,-3.32475,0.125223,0.47116,0.638556,
2,1,0,1,0,33620.8,0.643022,0.642743,0.511686,51,0.0377812,10,0.000328883,-3.291,0.116533,0.506293,0.642518,
2,1,0,1,0,33621.6,0.647018,0.646747,0.55486,51,0.0382152,10,0.000358855,-3.25582,0.105662,0.558386,0.646503,
2,1,0,0,0,33622.4,0.651013,0.650728,0.605903,51,0.038687,10,0.000394278,-3.2176,0.0992477,0.594472,0.650462,
2,1,0,1,0,33623.2,0.655008,0.65473,0.667947,51,0.0392042,10,0.000437325,-3.17526,0.0935953,0.630373,0.654436,
2,1,0,1,0,33624,0.659003,0.658727,0.738057,51,0.0397738,10,0.000486178,-3.13191,0.0861728,0.684671,0.658402,
2,1,0,1,0,33624.8,0.662998,0.662726,0.82192,51,0.0404049,10,0.000544708,-3.08517,0.0862596,0.683982,0.662365,
2,1,0,1,0,33625.6,0.666994,0.666749,0.917169,51,0.041107,10,0.000611521,-3.03755,0.0806329,0.731711,0.666345,
2,1,0,0,0,33626.4,0.670989,0.670706,1.02753,51,0.0418912,10,0.000689171,-2.98821,0.0792896,0.744108,0.670254,
2,1,0,1,0,33627.2,0.674984,0.674691,1.15263,51,0.0427692,10,0.00077767,-2.93831,0.0789627,0.747188,0.674184,
2,1,0,1,0,33628,0.67898,0.678731,1.29744,51,0.0437552,10,0.000880616,-2.88691,0.075277,0.783772,0.67816,
2,1,0,1,0,33628.8,0.682974,0.682654,1.46033,51,0.0448641,10,0.000996902,-2.83555,0.077096,0.765279,0.682011,
2,1,0,1,0,33629.6,0.686969,0.686718,1.64325,51,0.0461108,10,0.00112845,-2.7843,0.0751425,0.785175,0.685995,
2,1,0,0,0,33630.4,0.690965,0.690662,1.84806,51,0.0475122,10,0.00127639,-2.73328,0.0775351,0.760945,0.689849,
2,1,0,1,0,33631.2,0.69496,0.6947,2.07431,51,0.0490866,10,0.00144102,-2.68313,0.0785229,0.751373,0.693787,
2,1,0,0,0,33632,0.698955,0.698669,2.32465,51,0.0508509,10,0.00162416,-2.63364,0.0784844,0.751742,0.697646,
2,1,0,1,0,33632.8,0.70295,0.702643,2.59701,51,0.0528248,10,0.00182477,-2.58553,0.0816102,0.722948,0.7015,
2,1,0,1,0,33633.6,0.706945,0.706662,2.89637,51,0.0550262,10,0.00204675,-2.53815,0.0826865,0.713538,0.705387,
2,1,0,1,0,33634.4,0.71094,0.710666,3.21511,51,0.0574738,10,0.00228487,-2.4928,0.0860669,0.685513,0.709251,
2,1,0,1,0,33635.2,0.714936,0.714644,3.55954,51,0.060188,10,0.00254381,-2.44861,0.0879149,0.671103,0.713078,
2,1,0,0,0,33636,0.718931,0.718665,3.92948,51,0.063187,10,0.00282398,-2.40566,0.0910249,0.648174,0.716936,
2,1,0,1,0,33636.8,0.722927,0.722693,4.3219,51,0.0664912,10,0.00312341,-2.36432,0.0940573,0.627277,0.720791,
2,1,0,1,0,33637.6,0.726921,0.726666,4.73955,51,0.0701185,10,0.00344407,-2.32426,0.0968436,0.60923,0.724581,
2,1,0,1,0,33638.4,0.730916,0.73066,5.18381,51,0.0740895,10,0.0037876,-2.28535,0.0998457,0.590912,0.728379,
2,1,0,1,0,33639.2,0.734911,0.734619,5.64976,51,0.0784247,10,0.00415042,-2.24797,0.101184,0.583094,0.732133,
2,1,0,0,0,33640,0.738907,0.738609,6.14414,51,0.0831444,10,0.00453812,-2.21154,0.105384,0.559859,0.735906,
2,1,0,1,0,33640.8,0.742902,0.742603,6.66275,51,0.0882679,10,0.00494777,-2.17635,0.109202,0.540283,0.739671,
2,1,0,1,0,33641.6,0.746897,0.746631,7.21007,51,0.0938182,10,0.00538326,-2.14206,0.109536,0.538636,0.743458,
2,1,0,1,0,33642.4,0.750892,0.750604,7.78629,51,0.0998161,10,0.00584442,-2.10867,0.113822,0.518355,0.747178,
2,1,0,1,0,33643.2,0.754887,0.754555,8.38907,51,0.106285,10,0.00633002,-2.07629,0.116559,0.506182,0.750864,
2,1,0,0,0,33644,0.758883,0.758618,9.02669,51,0.113252,10,0.00684781,-2.04447,0.118956,0.49598,0.754646,
2,1,0,1,0,33644.8,0.762878,0.762614,9.6948,51,0.120736,10,0.00739339,-2.01346,0.118337,0.498575,0.758348,
2,1,0,0,0,33645.6,0.766873,0.7666,10.4065,51,0.128774,10,0.00797765,-1.98269,0.121242,0.486629,0.762021,
2,1,0,1,0,33646.4,0.770868,0.77058,11.1621,51,0.137399,10,0.00860128,-1.95225,0.119445,0.49395,0.765668,
2,1,0,1,0,33647.2,0.774863,0.774565,11.9657,51,0.146646,10,0.00926825,-1.92206,0.121793,0.484429,0.7693,
2,1,0,1,0,33648,0.778858,0.778579,12.8174,51,0.156553,10,0.00997937,-1.8922,0.121235,0.486657,0.772939,
2,1,0,1,0,33648.8,0.782854,0.782578,13.7295,51,0.167164,10,0.0107444,-1.86234,0.119557,0.493487,0.776537,
2,1,0,0,0,33649.6,0.786849,0.786565,14.7093,51,0.178529,10,0.0115698,-1.83241,0.118358,0.498489,0.780093,
2,1,0,1,0,33650.4,0.790844,0.790563,15.7602,51,0.190707,10,0.0124594,-1.80244,0.119409,0.4941,0.783628,
2,1,0,1,0,33651.2,0.794839,0.79456,16.8692,51,0.203748,10,0.0134036,-1.77291,0.117379,0.502645,0.787137,
2,1,0,1,0,33652,0.798834,0.798526,18.0428,51,0.217704,10,0.0144076,-1.7437,0.120561,0.48938,0.790587,
2,1,0,1,0,33652.8,0.802829,0.802537,19.2728,51,0.23262,10,0.0154672,-1.71505,0.119572,0.493426,0.794057,
2,1,0,0,0,33653.6,0.806825,0.806574,20.5936,51,0.248554,10,0.0166103,-1.68627,0.11892,0.496132,0.797513,
2,1,0,1,0,33654.4,0.81082,0.810563,21.9719,51,0.265568,10,0.0178096,-1.65813,0.123815,0.476518,0.800896,
2,1,0,1,0,33655.2,0.814815,0.814533,23.3772,51,0.283695,10,0.0190415,-1.63121,0.124391,0.474312,0.804247,
2,1,0,1,0,33656,0.81881,0.818502,24.8306,51,0.302962,10,0.0203239,-1.60501,0.128852,0.45789,0.807576,
2,1,0,1,0,33656.8,0.822805,0.822542,26.3353,51,0.323422,10,0.0216619,-1.57946,0.136697,0.431611,0.810955,
2,1,0,0,0,33657.6,0.826801,0.826571,27.8596,51,0.345084,10,0.0230279,-1.55503,0.13422,0.439576,0.814313,
2,1,0,1,0,33658.4,0.830796,0.830529,29.4369,51,0.367991,10,0.0244482,-1.53111,0.146486,0.402769,0.817576,
2,1,0,0,0,33659.2,0.834791,0.834539,28.9656,51,0.391811,10,0.0241729,-1.53812,-0.679144,-0.0868741,0.821794,
2,1,0,1,0,33660,0.838786,0.838549,30.4349,51,0.415589,10,0.0255212,-1.51663,0.165073,0.357417,0.825158,
2,1,0,1,0,33660.8,0.842781,0.84255,31.9693,51,0.440526,10,0.0269357,-1.49527,0.160593,0.367388,0.828484,
2,1,0,1,0,33661.6,0.846776,0.846498,33.4957,51,0.466689,10,0.0283541,-1.47501,0.174407,0.338289,0.83176,
2,1,0,0,0,33662.3,0.849723,0.849451,34.434,51,0.490554,10,0.02925,-1.46301,0.052918,1.11493,0.834301,
2,1,0,1,0,33663.1,0.845728,0.845472,32.2904,51,0.51714,10,0.0273007,-1.49093,0.1266,0.466036,0.831264,
2,1,0,0,0,33663.9,0.841732,0.841477,30.5058,51,0.542209,10,0.0256699,-1.51562,0.134714,0.437966,0.828055,
2,1,0,1,0,33664.7,0.837737,0.837463,28.8388,51,0.565907,10,0.0241515,-1.54002,0.129851,0.454368,0.824774,
2,1,0,1,0,33665.5,0.833742,0.833523,27.2165,51,0.588288,10,0.0226856,-1.56517,0.129149,0.456835,0.821548,
2,1,0,1,0,33666.3,0.829747,0.829507,25.667,51,0.609398,10,0.0212909,-1.59063,0.129885,0.454246,0.818213,
2,1,0,1,0,33667.1,0.825752,0.825474,24.2259,51,0.629302,10,0.0199978,-1.61572,0.134761,0.437812,0.814814,
2,1,0,0,0,33667.8,0.821757,0.8215,22.7897,51,0.648074,10,0.0187218,-1.64226,0.121845,0.484224,0.811473,
2,1,0,1,0,33668.6,0.817761,0.817535,21.3821,51,0.665703,10,0.0174806,-1.66995,0.125665,0.469501,0.808127,
2,1,0,1,0,33669.4,0.813766,0.813501,20.0626,51,0.682252,10,0.016321,-1.69761,0.121589,0.485239,0.804674,
2,1,0,1,0,33670.2,0.809771,0.809496,18.8023,51,0.697762,10,0.0152204,-1.72579,0.118547,0.497692,0.801223,
2,1,0,1,0,33671,0.805776,0.805492,17.55,51,0.71227,10,0.0141364,-1.75572,0.116321,0.507218,0.79777,
2,1,0,0,0,33671.8,0.801781,0.801541,16.4084,51,0.725823,10,0.013152,-1.78493,0.119646,0.49312,0.794322,
2,1,0,1,0,33672.6,0.797786,0.797484,15.3152,51,0.738483,10,0.0122136,-1.81488,0.116054,0.508385,0.790745,
2,1,0,1,0,33673.4,0.79379,0.793524,14.2702,51,0.75029,10,0.0113237,-1.84557,0.114867,0.513639,0.787245,
2,1,0,1,0,33674.2,0.789795,0.789558,13.2805,51,0.761284,10,0.0104857,-1.87679,0.113906,0.517971,0.783714,
2,1,0,1,0,33675,0.7858,0.785558,12.3434,51,0.771509,10,0.00969646,-1.90856,0.111415,0.529552,0.780127,
2,1,0,0,0,33675.8,0.781805,0.781508,11.4705,51,0.781012,10,0.00896428,-1.94042,0.112864,0.522751,0.776461,
2,1,0,1,0,33676.6,0.77781,0.777531,10.6421,51,0.789833,10,0.00827454,-1.97297,0.111182,0.530663,0.772848,
2,1,0,0,0,33677.4,0.773814,0.773587,9.85538,51,0.79801,10,0.00762399,-2.00633,0.108609,0.543235,0.769251,
2,1,0,1,0,33678.2,0.769819,0.769522,9.11882,51,0.80558,10,0.00701713,-2.04006,0.108146,0.545559,0.76551,
2,1,0,1,0,33679,0.765824,0.765526,8.4078,51,0.812574,10,0.00643639,-2.07532,0.105388,0.559834,0.761826,
2,1,0,1,0,33679.8,0.761829,0.761512,7.7622,51,0.819023,10,0.00591101,-2.11002,0.104558,0.564282,0.758097,
2,1,0,1,0,33680.6,0.757834,0.757582,7.14932,51,0.82497,10,0.0054162,-2.14574,0.103509,0.57,0.754436,
2,1,0,0,0,33681.4,0.753839,0.753557,6.57151,51,0.830441,10,0.004952,-2.18234,0.102983,0.572908,0.750665,
2,1,0,1,0,33682.2,0.749844,0.749544,6.0362,51,0.835467,10,0.0045244,-2.21924,0.101398,0.581863,0.746888,
2,1,0,1,0,33683,0.745848,0.745575,5.53224,51,0.84008,10,0.0041247,-2.2571,0.0974854,0.605219,0.743141,
2,1,0,1,0,33683.8,0.741853,0.741556,5.05325,51,0.844298,10,0.00374727,-2.29643,0.0946376,0.623431,0.739333,
2,1,0,1,0,33684.6,0.737858,0.737562,4.60239,51,0.848146,10,0.00339455,-2.33702,0.0920601,0.640886,0.735537,
2,1,0,0,0,33685.4,0.733863,0.733559,4.18334,51,0.851646,10,0.00306872,-2.37848,0.0904015,0.652644,0.731718,
2,1,0,1,0,33686.2,0.729868,0.729626,3.78815,51,0.85482,10,0.00276393,-2.42157,0.0879665,0.67071,0.727959,
2,1,0,1,0,33687,0.725872,0.725613,3.41927,51,0.85769,10,0.00248107,-2.46607,0.0838281,0.703821,0.724108,
2,1,0,1,0,33687.8,0.721877,0.721554,3.07465,51,0.860275,10,0.00221852,-2.5122,0.0817769,0.721475,0.720201,
2,1,0,1,0,33688.6,0.717882,0.717591,2.75333,51,0.862593,10,0.00197577,-2.56014,0.0789341,0.747459,0.71638,
2,1,0,0,0,33689.4,0.713887,0.713594,2.45798,51,0.864666,10,0.001754,-2.60942,0.077672,0.759605,0.712513,
2,1,0,1,0,33690.2,0.709892,0.709608,2.18245,51,0.86651,10,0.00154868,-2.66106,0.0731818,0.806211,0.708648,
2,1,0,0,0,33691,0.705897,0.705602,1.92916,51,0.868143,10,0.00136122,-2.71463,0.0716678,0.823243,0.704753,
2,1,0,1,0,33691.8,0.701901,0.701645,1.69549,51,0.869582,10,0.00118963,-2.77071,0.0671325,0.878859,0.700899,
2,1,0,1,0,33692.6,0.697906,0.697605,1.48058,51,0.870841,10,0.00103286,-2.82957,0.0652511,0.904199,0.696954,
2,1,0,1,0,33693.4,0.693911,0.693657,1.28808,51,0.871938,10,0.000893487,-2.89006,0.0632381,0.932981,0.69309,
2,1,0,1,0,33694.2,0.689916,0.689636,1.10952,51,0.872886,10,0.000765163,-2.95487,0.0598337,0.986066,0.689147,
2,1,0,0,0,33695,0.685921,0.685653,0.950543,51,0.873701,10,0.000651742,-3.02203,0.0572131,1.03123,0.685234,
2,1,0,1,0,33695.8,0.681926,0.681614,0.808185,51,0.874395,10,0.00055087,-3.09249,0.0536257,1.10022,0.681258,
2,1,0,1,0,33696.6,0.67793,0.677636,0.680126,51,0.874981,10,0.000460878,-3.16741,0.0503275,1.17232,0.677336,
2,1,0,1,0,33697.4,0.673935,0.67362,0.567729,51,0.875471,10,0.000382434,-3.24586,0.0506597,1.16463,0.673371,
2,1,0,1,0,33698.2,0.66994,0.669699,0.469869,51,0.875877,10,0.000314671,-3.32802,0.0455754,1.29456,0.669492,
2,1,0,0,0,33699,0.665945,0.665644,0.381995,51,0.876208,10,0.000254273,-3.41794,0.0436293,1.3523,0.665476,
2,1,0,1,0,33699.8,0.66195,0.661681,0.307815,51,0.876475,10,0.000203675,-3.51171,0.0393929,1.49773,0.661546,
2,1,0,0,0,33700.6,0.657955,0.657622,0.242429,51,0.876686,10,0.000159426,-3.61542,0.0364629,1.61808,0.657515,
2,1,0,1,0,33701.4,0.653959,0.653671,0.18684,51,0.876849,10,0.000122132,-3.72853,0.0338,1.74556,0.653589,
2,1,0,1,0,33702.2,0.649964,0.649671,0.138273,51,0.876971,10,8.98323e-05,-3.85926,0.028683,2.05697,0.64961,
2,1,0,1,0,33703,0.64597,0.645709,0.0982868,51,0.877057,10,6.34646e-05,-4.00751,0.0235732,2.50285,0.645665,
2,1,0,1,0,33703.8,0.641974,0.641681,0.0638365,51,0.877114,10,4.09626e-05,-4.19493,0.018269,3.22951,0.641653,
2,1,0,0,0,33704.6,0.637979,0.637713,0.0350693,51,0.877145,10,2.23641e-05,-4.45507,0.01071,5.50888,0.637697,
2,1,0,1,0,33705.4,0.633983,0.633736,0.0103164,51,0.877154,10,6.53786e-06,-4.98647,0.00198366,29.7431,0.633731,
2,0,0,1,0,33706.2,0.629988,0.629727,-0.00944638,51,0.877147,10,-5.94864e-06,-5.02473,-0.0019843,-29.7334,0.629731,
2,0,0,1,0,33707,0.625993,0.625669,-0.0259728,51,0.877124,10,-1.62504e-05,-4.58548,-0.0150361,-3.92388,0.62568,
2,0,0,1,0,33707.8,0.621998,0.621671,-0.0404875,51,0.87709,10,-2.51699e-05,-4.39268,-0.0308873,-1.91017,0.621689,
2,0,0,0,0,33708.6,0.618003,0.617677,-0.0518845,51,0.877045,10,-3.20479e-05,-4.28496,-0.0401487,-1.46954,0.6177,
2,0,0,1,0,33709.4,0.614008,0.613689,-0.0618564,51,0.876991,10,-3.79606e-05,-4.20862,-0.0725489,-0.813244,0.613716,
2,0,0,1,0,33710.2,0.610012,0.609717,-0.0705718,51,0.876931,10,-4.30288e-05,-4.15137,-0.0848597,-0.695266,0.609748,
2,0,0,1,0,33711,0.606017,0.605703,-0.0771987,51,0.876863,10,-4.67595e-05,-4.11239,-0.0987825,-0.597272,0.605737,
2,0,0,1,0,33711.8,0.602022,0.601743,-0.0839751,51,0.876791,10,-5.05315e-05,-4.07585,-0.149791,-0.393883,0.60178,
2,0,0,0,0,33712.6,0.598027,0.597723,-0.0881192,51,0.876714,10,-5.26709e-05,-4.05493,-0.168896,-0.349328,0.597762,
2,0,0,1,0,33713.4,0.594032,0.593715,-0.0924698,51,0.876633,10,-5.49008e-05,-4.034,-0.243998,-0.241805,0.593756,
2,0,0,0,0,33714.2,0.590037,0.589722,-0.0974226,51,0.876549,10,-5.74523e-05,-4.01134,-0.211469,-0.279,0.589765,
2,0,0,1,0,33715,0.586041,0.585719,-0.0999132,51,0.876462,10,-5.85211e-05,-4.00038,-0.287221,-0.205417,0.585763,
2,0,0,1,0,33715.8,0.582046,0.581723,-0.103461,51,0.876373,10,-6.01857e-05,-3.98522,-0.387068,-0.152428,0.581769,
2,0,0,1,0,33716.6,0.578052,0.577747,-0.105002,51,0.876282,10,-6.06646e-05,-3.9788,-0.513169,-0.114972,0.577793,
2,0,0,1,0,33717.4,0.574056,0.573764,-0.106549,51,0.876189,10,-6.11342e-05,-3.97245,-0.457148,-0.129061,0.573811,
2,0,0,0,0,33718.2,0.570061,0.569782,-0.108521,51,0.876095,10,-6.18332e-05,-3.96449,-1.25877,-0.0468713,0.56983,
2,0,0,1,0,33719,0.566065,0.565741,-0.110712,51,0.875999,10,-6.26345e-05,-3.9558,-0.433972,-0.135953,0.565789,
2,0,0,1,0,33719.8,0.56207,0.561763,-0.113026,51,0.875902,10,-6.3494e-05,-3.94682,-15.5912,-0.00378419,0.561813,
2,0,0,1,0,33720.6,0.558075,0.557761,-0.113051,51,0.875804,10,-6.30557e-05,-3.94672,-0.358588,-0.164534,0.557811,
2,0,0,1,0,33721.4,0.55408,0.553766,-0.113562,51,0.875705,10,-6.28866e-05,-3.94477,-0.896529,-0.0658094,0.553816,
2,0,0,0,0,33722.2,0.550085,0.549803,-0.115346,51,0.875605,10,-6.34178e-05,-3.938,-1.31161,-0.044983,0.549854,
2,0,0,1,0,33723,0.54609,0.54578,-0.116972,51,0.875504,10,-6.38408e-05,-3.93192,-0.84794,-0.0695804,0.545831,
2,0,0,1,0,33723.8,0.542094,0.541797,-0.117835,51,0.875402,10,-6.38426e-05,-3.92873,-0.897626,-0.0657289,0.541849,
2,0,0,1,0,33724.6,0.538099,0.537765,-0.118643,51,0.875299,10,-6.38018e-05,-3.92576,5.40958,0.0109066,0.537817,
2,0,0,1,0,33725.4,0.534104,0.533807,-0.120146,51,0.875196,10,-6.4135e-05,-3.92029,-0.413528,-0.142675,0.53386,
2,0,0,0,0,33726.2,0.530109,0.529811,-0.120753,51,0.875091,10,-6.39761e-05,-3.9181,-8.72494,-0.00676223,0.529864,
2,0,0,1,0,33727,0.526114,0.525816,-0.122748,51,0.874986,10,-6.45426e-05,-3.91099,-0.57999,-0.101726,0.52587,
2,0,0,0,0,33727.8,0.522119,0.521785,-0.122858,51,0.87488,10,-6.41055e-05,-3.9106,1.87406,0.0314825,0.521839,
2,0,0,1,0,33728.6,0.518123,0.517787,-0.123845,51,0.874773,10,-6.41251e-05,-3.90712,-0.928197,-0.0635641,0.517841,
2,0,0,1,0,33729.4,0.514128,0.513824,-0.124697,51,0.874666,10,-6.40722e-05,-3.90414,-0.830654,-0.0710284,0.513879,
2,0,0,1,0,33730.2,0.510133,0.509827,-0.124312,51,0.874558,10,-6.33778e-05,-3.90549,-2.41247,-0.0244563,0.509882,
2,0,0,1,0,33731,0.506138,0.505832,-0.126527,51,0.874449,10,-6.40014e-05,-3.89782,-3.04199,-0.0193952,0.505888,
2,0,0,0,0,33731.8,0.502143,0.501852,-0.127098,51,0.874339,10,-6.37846e-05,-3.89586,-0.761682,-0.0774601,0.501908,
2,0,0,1,0,33732.6,0.498148,0.497829,-0.128916,51,0.874228,10,-6.41782e-05,-3.88969,-0.669296,-0.0881523,0.497886,
2,0,0,1,0,33733.4,0.494152,0.493853,-0.129454,51,0.874117,10,-6.39314e-05,-3.88788,-1.74672,-0.0337776,0.493909,
2,0,0,1,0,33734.2,0.490157,0.489838,-0.130185,51,0.874005,10,-6.37698e-05,-3.88544,-1.40558,-0.0419757,0.489895,
2,0,0,1,0,33735,0.486162,0.485816,-0.132266,51,0.873892,10,-6.42568e-05,-3.87855,-1.25342,-0.0470711,0.485874,
2,0,0,0,0,33735.8,0.482167,0.481856,-0.132846,51,0.873778,10,-6.40127e-05,-3.87665,-0.754737,-0.0781729,0.481915,
2,0,0,1,0,33736.6,0.478172,0.477882,-0.133135,51,0.873663,10,-6.36226e-05,-3.87571,-1.05883,-0.055722,0.47794,
2,0,0,0,0,33737.4,0.474177,0.473832,-0.135279,51,0.873547,10,-6.40993e-05,-3.86877,1.82279,0.032368,0.473892,
2,0,0,1,0,33738.2,0.470181,0.469827,-0.13612,51,0.87343,10,-6.3953e-05,-3.86608,-0.37767,-0.156221,0.469887,
2,0,0,1,0,33739,0.466186,0.465856,-0.13784,51,0.873312,10,-6.42134e-05,-3.86063,-0.91832,-0.0642478,0.465917,
2,0,0,1,0,33739.8,0.462191,0.461905,-0.138819,51,0.873193,10,-6.41213e-05,-3.85755,-0.856015,-0.068924,0.461966,
2,0,0,1,0,33740.6,0.458196,0.45792,-0.140034,51,0.873073,10,-6.41243e-05,-3.85377,-0.997464,-0.05915,0.457981,
2,0,0,0,0,33741.4,0.454201,0.453939,-0.143059,51,0.872951,10,-6.49402e-05,-3.84448,-0.892267,-0.0661237,0.454002,
2,0,0,1,0,33742.2,0.450205,0.449909,-0.143596,51,0.872828,10,-6.46053e-05,-3.84286,-0.834416,-0.0707081,0.449972,
2,0,0,1,0,33743,0.44621,0.445908,-0.145164,51,0.872704,10,-6.47297e-05,-3.83814,-0.592486,-0.0995805,0.445972,
2,0,0,1,0,33743.8,0.442215,0.441883,-0.146482,51,0.872578,10,-6.47278e-05,-3.83422,-4.0099,-0.0147136,0.441948,
2,0,0,1,0,33744.6,0.43822,0.437907,-0.147897,51,0.872452,10,-6.47653e-05,-3.83004,-0.773951,-0.0762322,0.437972,
2,0,0,0,0,33745.4,0.434225,0.43393,-0.149601,51,0.872324,10,-6.49163e-05,-3.82507,-0.622807,-0.0947323,0.433996,
2,0,0,1,0,33746.2,0.43023,0.429899,-0.150748,51,0.872194,10,-6.48062e-05,-3.82175,-1.67607,-0.0352015,0.429965,
2,0,0,1,0,33747,0.426234,0.425959,-0.152634,51,0.872063,10,-6.50157e-05,-3.81635,-0.51957,-0.113555,0.426026,
2,0,0,1,0,33747.8,0.422239,0.421907,-0.155296,51,0.871931,10,-6.55206e-05,-3.80884,-0.998134,-0.0591103,0.421976,
2,0,0,1,0,33748.6,0.418244,0.41796,-0.157242,51,0.871797,10,-6.57208e-05,-3.80343,-0.980479,-0.0601747,0.418029,
2,0,0,0,0,33749.4,0.414249,0.413965,-0.158563,51,0.871662,10,-6.56394e-05,-3.7998,-0.759199,-0.0777135,0.414035,
2,0,0,1,0,33750.1,0.410254,0.409923,-0.160811,51,0.871524,10,-6.592e-05,-3.79368,-1.67528,-0.035218,0.409993,
2,0,0,0,0,33750.9,0.406259,0.405961,-0.162741,51,0.871386,10,-6.60663e-05,-3.7885,-0.377572,-0.156261,0.406033,
2,0,0,1,0,33751.7,0.402263,0.401983,-0.164378,51,0.871246,10,-6.60771e-05,-3.78416,-3.52485,-0.0167383,0.402056,
2,0,0,1,0,33752.5,0.398268,0.397923,-0.166425,51,0.871104,10,-6.62244e-05,-3.77878,-0.625781,-0.0942821,0.397996,
2,0,0,1,0,33753.3,0.394274,0.393961,-0.168158,51,0.870961,10,-6.62476e-05,-3.77428,-0.753644,-0.0782863,0.394035,
2,0,0,1,0,33754.1,0.390278,0.389956,-0.169969,51,0.870816,10,-6.62803e-05,-3.76963,-1.01073,-0.0583739,0.390031,
2,0,0,0,0,33754.9,0.386283,0.385967,-0.171824,51,0.87067,10,-6.63183e-05,-3.76492,-0.678273,-0.0869857,0.386043,
2,0,0,1,0,33755.7,0.382287,0.381996,-0.174654,51,0.870522,10,-6.6717e-05,-3.75782,-0.715054,-0.0825112,0.382073,
2,0,0,1,0,33756.5,0.378292,0.378012,-0.177144,51,0.870372,10,-6.69625e-05,-3.75167,-1.90626,-0.0309507,0.37809,
2,0,0,1,0,33757.3,0.374297,0.373967,-0.178043,51,0.870221,10,-6.65821e-05,-3.74948,-0.530169,-0.111285,0.374045,
2,0,0,1,0,33758.1,0.370303,0.369924,-0.180223,51,0.870067,10,-6.66687e-05,-3.74419,-0.562361,-0.104915,0.370003,
2,0,0,0,0,33758.9,0.366307,0.366005,-0.182134,51,0.869913,10,-6.6662e-05,-3.73961,-1.17993,-0.0500028,0.366085,
2,0,0,1,0,33759.7,0.362312,0.361987,-0.184222,51,0.869756,10,-6.66859e-05,-3.73466,-0.805221,-0.0732718,0.362068,
2,0,0,1,0,33760.5,0.358316,0.358006,-0.186682,51,0.869597,10,-6.68332e-05,-3.7289,-0.969848,-0.0608343,0.358088,
2,0,0,1,0,33761.3,0.354321,0.35401,-0.188583,51,0.869437,10,-6.67601e-05,-3.7245,-0.50035,-0.117917,0.354093,
2,0,0,1,0,33762.1,0.350327,0.350018,-0.190651,51,0.869274,10,-6.67312e-05,-3.71976,-1.55382,-0.037971,0.350102,
2,0,0,0,0,33762.9,0.346331,0.346008,-0.193777,51,0.86911,10,-6.70483e-05,-3.7127,-0.88085,-0.0669808,0.346093,
2,0,0,1,0,33763.7,0.342336,0.342008,-0.195285,51,0.868945,10,-6.67889e-05,-3.70933,-0.871988,-0.0676615,0.342094,
2,0,0,0,0,33764.5,0.338341,0.338038,-0.197949,51,0.868777,10,-6.69144e-05,-3.70345,-0.650172,-0.0907452,0.338125,
2,0,0,1,0,33765.3,0.334345,0.334062,-0.20019,51,0.868608,10,-6.68758e-05,-3.69856,-0.731465,-0.0806601,0.33415,
2,0,0,1,0,33766.1,0.33035,0.33004,-0.2025,51,0.868436,10,-6.68332e-05,-3.69357,-0.757749,-0.0778622,0.330129,
2,0,0,1,0,33766.9,0.326355,0.326048,-0.204906,51,0.868263,10,-6.68092e-05,-3.68845,-0.743905,-0.0793112,0.326138,
2,0,0,1,0,33767.7,0.32236,0.322077,-0.20778,51,0.868088,10,-6.69213e-05,-3.6824,-1.42432,-0.0414234,0.322169,
2,0,0,0,0,33768.5,0.318365,0.318032,-0.208547,51,0.867911,10,-6.63247e-05,-3.6808,-0.521438,-0.113149,0.318124,
2,0,0,1,0,33769.3,0.31437,0.31405,-0.21207,51,0.867732,10,-6.66007e-05,-3.67352,-4.43655,-0.0132986,0.314144,
2,0,0,1,0,33770.1,0.310374,0.310034,-0.214697,51,0.86755,10,-6.65633e-05,-3.66817,-0.565229,-0.104382,0.310129,
2,0,0,1,0,33770.9,0.306379,0.30608,-0.216623,51,0.867367,10,-6.63039e-05,-3.6643,-0.758309,-0.0778047,0.306176,
2,0,0,1,0,33771.7,0.302385,0.302033,-0.219947,51,0.867182,10,-6.64314e-05,-3.65768,-0.788589,-0.0748172,0.30213,
2,0,0,0,0,33772.5,0.298389,0.298111,-0.221497,51,0.866995,10,-6.60309e-05,-3.65463,-0.593826,-0.0993557,0.298209,
2,0,0,1,0,33773.3,0.294394,0.294082,-0.224469,51,0.866805,10,-6.60121e-05,-3.64884,-1.74122,-0.0338844,0.29418,
2,0,0,1,0,33774.1,0.290398,0.290046,-0.226873,51,0.866614,10,-6.58036e-05,-3.64422,-0.632814,-0.0932343,0.290146,
2,0,0,1,0,33774.9,0.286403,0.286092,-0.229007,51,0.866421,10,-6.55169e-05,-3.64015,-1.01666,-0.058033,0.286192,
2,0,0,1,0,33775.7,0.282408,0.282078,-0.232715,51,0.866225,10,-6.56438e-05,-3.63318,-1.09268,-0.0539957,0.282181,
2,0,0,1,0,33776.5,0.278414,0.278125,-0.233949,51,0.866028,10,-6.50669e-05,-3.63088,-0.440009,-0.134088,0.278228,
2,0,0,1,0,33777.3,0.274418,0.274064,-0.237856,51,0.865828,10,-6.51879e-05,-3.62369,-1.4632,-0.0403227,0.274169,
2,0,0,0,0,33778.1,0.270423,0.270094,-0.2413,51,0.865626,10,-6.51737e-05,-3.61744,-0.763477,-0.077278,0.2702,
2,0,0,1,0,33778.9,0.266427,0.266088,-0.241458,51,0.865423,10,-6.4249e-05,-3.61716,-1.41957,-0.041562,0.266194,
2,0,0,1,0,33779.7,0.262432,0.262138,-0.244963,51,0.865217,10,-6.42142e-05,-3.6109,-0.723055,-0.0815982,0.262246,
2,0,0,1,0,33780.5,0.258437,0.258114,-0.247932,51,0.865009,10,-6.39947e-05,-3.60567,-0.989642,-0.0596175,0.258223,
2,0,0,1,0,33781.3,0.254442,0.254136,-0.248686,51,0.864799,10,-6.32002e-05,-3.60435,-1.37958,-0.0427668,0.254246,
2,0,0,0,0,33782.1,0.250447,0.250116,-0.252351,51,0.864587,10,-6.3117e-05,-3.598,-1.14815,-0.0513868,0.250227,
2,0,0,1,0,33782.9,0.246452,0.246136,-0.254093,51,0.864374,10,-6.25415e-05,-3.59501,-0.642159,-0.0918776,0.246248,
2,0,0,1,0,33783.7,0.242456,0.242159,-0.258321,51,0.864158,10,-6.25546e-05,-3.58784,-1.22376,-0.0482122,0.242272,
2,0,0,1,0,33784.5,0.238461,0.238122,-0.259309,51,0.86394,10,-6.17472e-05,-3.58618,-0.832733,-0.0708511,0.238236,
2,0,0,1,0,33785.3,0.234467,0.234166,-0.261699,51,0.863721,10,-6.12809e-05,-3.5822,-1.0213,-0.0577697,0.234281,
2,0,0,0,0,33786.1,0.230471,0.230151,-0.264346,51,0.8635,10,-6.08394e-05,-3.57783,-0.927361,-0.0636214,0.230267,
2,0,0,1,0,33786.9,0.226476,0.226155,-0.266709,51,0.863276,10,-6.03176e-05,-3.57396,-2.05856,-0.0286608,0.226273,
2,0,0,0,0,33787.7,0.222481,0.222146,-0.268233,51,0.863051,10,-5.95868e-05,-3.57149,-0.797887,-0.0739453,0.222264,
2,0,0,1,0,33788.5,0.218485,0.218161,-0.27317,51,0.862824,10,-5.95949e-05,-3.56357,-1.30056,-0.0453651,0.218281,
2,0,0,1,0,33789.3,0.21449,0.214185,-0.27446,51,0.862594,10,-5.87853e-05,-3.56152,-0.559895,-0.105377,0.214306,
2,0,0,1,0,33790.1,0.210496,0.210188,-0.277477,51,0.862362,10,-5.83224e-05,-3.55677,-1.49042,-0.0395862,0.21031,
2,0,0,1,0,33790.9,0.2065,0.206177,-0.282529,51,0.862128,10,-5.82509e-05,-3.54894,-0.55578,-0.106157,0.206301,
2,0,0,0,0,33791.7,0.202505,0.202171,-0.283041,51,0.861891,10,-5.72227e-05,-3.54815,-1.18918,-0.0496142,0.202295,
2,0,0,1,0,33792.5,0.198509,0.198142,-0.286486,51,0.861651,10,-5.67649e-05,-3.5429,-1.12632,-0.0523832,0.198268,
2,0,0,1,0,33793.3,0.194514,0.19418,-0.290052,51,0.861409,10,-5.63222e-05,-3.53752,-0.518218,-0.113852,0.194307,
2,0,0,1,0,33794.1,0.190519,0.190144,-0.292774,51,0.861164,10,-5.56693e-05,-3.53347,-0.674418,-0.0874828,0.190273,
2,0,0,1,0,33794.9,0.186524,0.186193,-0.298538,51,0.860915,10,-5.55857e-05,-3.525,-0.799919,-0.0737575,0.186324,
2,0,0,0,0,33795.7,0.182529,0.182215,-0.303036,51,0.860663,10,-5.52178e-05,-3.51851,-0.514107,-0.114762,0.182348,
2,0,0,1,0,33796.5,0.178534,0.178207,-0.3083,51,0.860407,10,-5.49411e-05,-3.51103,-0.57938,-0.101833,0.178342,
2,0,0,1,0,33797.3,0.174538,0.174165,-0.314044,51,0.860146,10,-5.46955e-05,-3.50301,-0.355236,-0.166087,0.174303,
2,0,0,1,0,33798.1,0.170543,0.170197,-0.322055,51,0.85988,10,-5.48127e-05,-3.49207,-0.361328,-0.163287,0.170338,
2,0,0,1,0,33798.9,0.166549,0.16622,-0.330885,51,0.859607,10,-5.49999e-05,-3.48032,-0.35395,-0.16669,0.166366,
2,0,0,0,0,33799.7,0.162553,0.1622,-0.341208,51,0.859327,10,-5.5344e-05,-3.46698,-0.258596,-0.228156,0.16235,
2,0,0,1,0,33800.5,0.158558,0.158271,-0.353281,51,0.859038,10,-5.59142e-05,-3.45188,-0.216238,-0.272847,0.158427,
2,0,0,0,0,33801.3,0.154563,0.154205,-0.371426,51,0.858736,10,-5.72755e-05,-3.43013,-0.197344,-0.29897,0.154368,
2,0,0,1,0,33802.1,0.150567,0.150239,-0.392467,51,0.858419,10,-5.8964e-05,-3.4062,-0.131664,-0.44811,0.150412,
2,0,0,1,0,33802.9,0.146572,0.146203,-0.422088,51,0.858082,10,-6.17104e-05,-3.3746,-0.117699,-0.501277,0.146389,
2,0,0,1,0,33803.7,0.142578,0.14224,-0.463367,51,0.857717,10,-6.59095e-05,-3.33408,-0.0920662,-0.640843,0.142444,
2,0,0,1,0,33804.5,0.138582,0.138261,-0.509804,51,0.857317,10,-7.04862e-05,-3.2926,-0.0934672,-0.631238,0.138486,
2,0,0,0,0,33805.3,0.134587,0.134236,-0.562115,51,0.856876,10,-7.5456e-05,-3.25018,-0.10075,-0.585608,0.134483,
2,0,0,1,0,33806.1,0.130591,0.130273,-0.614222,51,0.856393,10,-8.00165e-05,-3.21167,-0.11566,-0.510117,0.130543,
2,0,0,1,0,33806.9,0.126596,0.12625,-0.65437,51,0.855873,10,-8.26142e-05,-3.18418,-0.166472,-0.354415,0.126538,
2,0,0,1,0,33807.7,0.122602,0.122222,-0.686425,51,0.855324,10,-8.38962e-05,-3.16341,-0.275412,-0.214225,0.122524,
2,0,0,1,0,33808.5,0.118607,0.118286,-0.702485,51,0.854756,10,-8.30941e-05,-3.15336,-0.477504,-0.123559,0.118595,
2,0,0,0,0,33809.3,0.114611,0.114209,-0.711807,51,0.854177,10,-8.12949e-05,-3.14764,-2.00813,-0.0293805,0.114522,
2,0,0,1,0,33810.1,0.110616,0.110243,-0.711866,51,0.853596,10,-7.84785e-05,-3.1476,5.5419,0.0106462,0.110556,
2,0,0,1,0,33810.9,0.10662,0.106275,-0.708449,51,0.853015,10,-7.52904e-05,-3.14969,1.51118,0.0390423,0.106587,
2,0,0,1,0,33811.7,0.102625,0.102331,-0.701939,51,0.852439,10,-7.18304e-05,-3.1537,0.823499,0.0716455,0.10264,
2,0,0,1,0,33812.5,0.0986305,0.0982833,-0.694336,51,0.851868,10,-6.82416e-05,-3.15843,0.784194,0.0752365,0.0985888,
2,0,0,0,0,33813.3,0.0946351,0.0943202,-0.685025,51,0.851302,10,-6.46117e-05,-3.16429,0.753888,0.078261,0.0946216,
2,0,0,1,0,33814.1,0.0906399,0.0903235,-0.677538,51,0.850745,10,-6.11976e-05,-3.16907,0.570738,0.103375,0.0906216,
2,0,0,0,0,33814.9,0.0866448,0.0863237,-0.667492,51,0.850195,10,-5.76204e-05,-3.17555,0.772311,0.0763941,0.0866174,
2,0,0,1,0,33815.7,0.0826492,0.0823194,-0.657409,51,0.849653,10,-5.41175e-05,-3.18216,0.614587,0.0959994,0.0826087,
2,0,0,1,0,33816.5,0.0786544,0.0783069,-0.649515,51,0.849119,10,-5.08616e-05,-3.18741,0.670911,0.0879401,0.0785927,
2,0,0,1,0,33817.3,0.0746596,0.0743244,-0.63865,51,0.848592,10,-4.74673e-05,-3.19474,0.7084,0.0832863,0.0746054,
2,0,0,1,0,33818.1,0.0706641,0.0703349,-0.630735,51,0.848073,10,-4.43627e-05,-3.20015,0.583155,0.101174,0.0706124,
2,0,0,0,0,33818.9,0.0666689,0.0663403,-0.622745,51,0.84756,10,-4.13131e-05,-3.20569,0.867445,0.0680158,0.0666143,
2,0,0,1,0,33819.7,0.0626737,0.0623776,-0.611861,51,0.847054,10,-3.81664e-05,-3.21335,0.586998,0.100511,0.0626468,
2,0,0,1,0,33820.5,0.0586783,0.058316,-0.604555,51,0.846555,10,-3.52553e-05,-3.21856,0.525521,0.11227,0.058582,
2,0,0,1,0,33821.3,0.0546835,0.0543473,-0.595195,51,0.846063,10,-3.23472e-05,-3.22534,0.766479,0.0769754,0.0546092,
2,0,0,1,0,33822.1,0.0506886,0.0503582,-0.58632,51,0.845579,10,-2.9526e-05,-3.23187,0.442161,0.133435,0.0506162,
2,0,0,0,0,33822.9,0.046693,0.0463676,-0.575552,51,0.845103,10,-2.6687e-05,-3.23992,0.56573,0.10429,0.0466208,
2,0,0,1,0,33823.7,0.0426979,0.0423751,-0.564166,51,0.844635,10,-2.39066e-05,-3.24859,0.522658,0.112885,0.0426234,
2,0,0,1,0,33824.5,0.0387022,0.0383886,-0.554719,51,0.844175,10,-2.12949e-05,-3.25593,0.401433,0.146973,0.0386327,
2,0,0,1,0,33825.3,0.0347074,0.0344114,-0.544314,51,0.843725,10,-1.87306e-05,-3.26415,0.539824,0.109295,0.0346509,
2,0,0,1,0,33826.1,0.0307126,0.0304171,-0.532319,51,0.843282,10,-1.61916e-05,-3.27383,0.561278,0.105117,0.0306514,
2,0,0,0,0,33826.9,0.0267172,0.0264012,-0.525078,51,0.842847,10,-1.38627e-05,-3.27978,0.46294,0.127446,0.0266322,
2,0,0,1,0,33827.7,0.022722,0.0223875,-0.516258,51,0.842419,10,-1.15577e-05,-3.28713,0.792797,0.07442,0.0226147,
2,0,0,0,0,33828.5,0.0187268,0.0183771,-0.509886,51,0.841998,10,-9.37022e-06,-3.29253,0.72128,0.081799,0.0186014,
2,0,0,1,0,33829.3,0.0147313,0.0143791,-0.505754,51,0.841581,10,-7.27227e-06,-3.29606,1.17127,0.0503728,0.0146016,
2,0,0,1,0,33830.1,0.0107365,0.0103383,-0.500355,51,0.841168,10,-5.17282e-06,-3.30072,1.98638,0.0297023,0.0105585,
2,0,0,1,0,33830.9,0.00674163,0.00640646,-0.498663,51,0.840757,10,-3.19466e-06,-3.30219,2.63727,0.0223716,0.00662587,
2,0,0,1,0,33831.7,0.00274612,0.00242431,-0.498628,51,0.840347,10,-1.20883e-06,-3.30222,-2.92384,-0.0201789,0.00264371,
2,0,0,0,0,33832.1,0.000274105,-0.000121328,-0.49973,51,0.84009,10,6.06311e-08,-3.30126, , ,9.85533e-05,