File: Figure_codes/Fig_3-5/workspace_calculate_alpha_eff/20221101_1-115_003_TrumpetPlot_ParaChange_from10_every3_16_CV_C01_6.csv
mode,ox/red,error,control changes,counter inc.,time/s,control/V,Ewe/V,<I>/mA,cycle number,(Q-Qo)/C,I Range,P/W,log(|I|),Tafel slope mV/dec,alpha_eff,E-IR/V,
2,0,0,1,0,5170.38,2.44065e-05,-0.000344411,-0.0364269,7,0.0000000E+000,10,1.25458e-08,-4.43858, , ,-0.000328383,
2,1,0,1,0,5171.13,0.00379485,0.00353456,0.214168,7,0.000152618,10,7.5699e-07,-3.66925,0.0644044,0.916086,0.00344032,
2,1,0,0,0,5171.93,0.00779002,0.00750154,0.235184,7,0.000347598,10,1.76424e-06,-3.62859,0.107294,0.549893,0.00739806,
2,1,0,1,0,5172.73,0.0117852,0.0114505,0.249388,7,0.000557068,10,2.85562e-06,-3.60312,0.18185,0.324443,0.0113408,
2,1,0,1,0,5173.53,0.0157806,0.0154579,0.263779,7,0.000777123,10,4.07747e-06,-3.57876,0.191075,0.308779,0.0153418,
2,1,0,1,0,5174.33,0.0197754,0.0194341,0.274284,7,0.00100696,10,5.33045e-06,-3.5618,0.20585,0.286617,0.0193134,
2,1,0,1,0,5175.13,0.0237704,0.0234814,0.288545,7,0.00124717,10,6.77547e-06,-3.53979,0.184775,0.319307,0.0233545,
2,1,0,0,0,5175.93,0.0277659,0.0274308,0.302435,7,0.00149734,10,8.29605e-06,-3.51937,0.199987,0.295019,0.0272977,
2,1,0,1,0,5176.73,0.0317611,0.0314254,0.314168,7,0.00175811,10,9.87284e-06,-3.50284,0.218834,0.269611,0.0312871,
2,1,0,1,0,5177.53,0.0357567,0.0354362,0.330042,7,0.00203028,10,1.16954e-05,-3.48143,0.263206,0.224159,0.035291,
2,1,0,1,0,5178.32,0.0397516,0.0393924,0.344353,7,0.0023139,10,1.35649e-05,-3.463,0.167953,0.351289,0.0392409,
2,1,0,1,0,5179.12,0.0437465,0.0434122,0.357701,7,0.00261008,10,1.55286e-05,-3.44648,0.242919,0.24288,0.0432548,
2,1,0,1,0,5179.92,0.0477413,0.0474306,0.373131,7,0.0029178,10,1.76978e-05,-3.42814,0.242535,0.243264,0.0472664,
2,1,0,1,0,5180.72,0.0517369,0.0514331,0.386442,7,0.00323701,10,1.98759e-05,-3.41292,0.22024,0.26789,0.0512631,
2,1,0,0,0,5181.52,0.0557321,0.0553715,0.40247,7,0.0035685,10,2.22854e-05,-3.39527,0.254216,0.232086,0.0551944,
2,1,0,1,0,5182.32,0.0597277,0.059394,0.417302,7,0.00391069,10,2.47852e-05,-3.37955,0.297828,0.198101,0.0592104,
2,1,0,1,0,5183.12,0.0637226,0.0634404,0.429262,7,0.00426408,10,2.72325e-05,-3.36728,0.277614,0.212525,0.0632515,
2,1,0,1,0,5183.92,0.0677174,0.0674027,0.4428,7,0.00462848,10,2.98459e-05,-3.35379,0.504196,0.117018,0.0672078,
2,1,0,1,0,5184.72,0.0717128,0.0713932,0.454744,7,0.00500199,10,3.24656e-05,-3.34223,0.297642,0.198225,0.0711931,
2,1,0,0,0,5185.52,0.075708,0.0753941,0.462896,7,0.0053847,10,3.48996e-05,-3.33452,0.43134,0.136783,0.0751904,
2,1,0,1,0,5186.31,0.0797031,0.0793833,0.476602,7,0.005776,10,3.78343e-05,-3.32184,0.364969,0.161658,0.0791736,
2,1,0,1,0,5187.11,0.0836986,0.0834228,0.487042,7,0.00617564,10,4.06304e-05,-3.31243,0.374973,0.157345,0.0832085,
2,1,0,1,0,5187.91,0.0876935,0.0873671,0.499059,7,0.00658549,10,4.36013e-05,-3.30185,0.378323,0.155952,0.0871475,
2,1,0,1,0,5188.71,0.0916883,0.0913737,0.514532,7,0.00700536,10,4.70147e-05,-3.28859,0.270073,0.218459,0.0911473,
2,1,0,0,0,5189.51,0.0956838,0.0953541,0.533135,7,0.00743897,10,5.08366e-05,-3.27316,0.245393,0.240431,0.0951195,
2,1,0,1,0,5190.31,0.099679,0.0993805,0.55619,7,0.00788865,10,5.52744e-05,-3.25478,0.228497,0.258209,0.0991357,
2,1,0,0,0,5191.11,0.103674,0.103353,0.582658,7,0.00835734,10,6.02193e-05,-3.23459,0.17972,0.328289,0.103096,
2,1,0,1,0,5191.91,0.10767,0.107372,0.606279,7,0.00884833,10,6.50972e-05,-3.21733,0.219926,0.268272,0.107105,
2,1,0,1,0,5192.71,0.111664,0.111373,0.633824,7,0.00936009,10,7.05906e-05,-3.19803,0.2241,0.263276,0.111094,
2,1,0,1,0,5193.51,0.115659,0.115331,0.656456,7,0.00989155,10,7.57095e-05,-3.18279,0.248402,0.237518,0.115042,
2,1,0,1,0,5194.31,0.119655,0.119352,0.679016,7,0.0104418,10,8.1042e-05,-3.16812,0.362562,0.162731,0.119053,
2,1,0,0,0,5195.1,0.12365,0.123331,0.698664,7,0.0110067,10,8.61668e-05,-3.15573,0.316784,0.186247,0.123023,
2,1,0,1,0,5195.9,0.127646,0.127344,0.716486,7,0.0115883,10,9.124e-05,-3.14479,0.353566,0.166871,0.127028,
2,1,0,1,0,5196.7,0.131641,0.131369,0.734134,7,0.0121854,10,9.64423e-05,-3.13422,0.891507,0.0661801,0.131046,
2,1,0,1,0,5197.5,0.135635,0.1353,0.738797,7,0.0127905,10,9.99594e-05,-3.13147,-7.2296,-0.00816089,0.134975,
2,1,0,1,0,5198.3,0.139631,0.139332,0.720319,7,0.0133918,10,0.000100364,-3.14248,-0.223494,-0.26399,0.139015,
2,1,0,0,0,5199.1,0.143626,0.143318,0.681622,7,0.0139693,10,9.7689e-05,-3.16646,-0.118555,-0.497657,0.143018,
2,1,0,1,0,5199.9,0.147621,0.147348,0.617088,7,0.0145035,10,9.09267e-05,-3.20965,-0.0811476,-0.72707,0.147076,
2,1,0,1,0,5200.7,0.151617,0.151319,0.545484,7,0.0149828,10,8.25423e-05,-3.26322,-0.0763147,-0.773114,0.151079,
2,1,0,1,0,5201.5,0.155612,0.155308,0.486313,7,0.0154086,10,7.55284e-05,-3.31308,-0.081463,-0.724256,0.155094,
2,1,0,1,0,5202.3,0.159606,0.159267,0.438885,7,0.0157917,10,6.98997e-05,-3.35765,-0.109438,-0.539118,0.159073,
2,1,0,0,0,5203.09,0.163602,0.163317,0.404258,7,0.016143,10,6.6022e-05,-3.39334,-0.113423,-0.520176,0.163139,
2,1,0,1,0,5203.89,0.167597,0.167285,0.378616,7,0.0164699,10,6.33367e-05,-3.4218,-0.170927,-0.345177,0.167118,
2,1,0,0,0,5204.69,0.171592,0.171299,0.357436,7,0.0167797,10,6.12285e-05,-3.4468,-0.194004,-0.304118,0.171142,
2,1,0,1,0,5205.49,0.175588,0.175281,0.345387,7,0.017076,10,6.05399e-05,-3.46169,-0.26875,-0.219535,0.175129,
2,1,0,1,0,5206.29,0.179582,0.179286,0.334536,7,0.0173621,10,5.99778e-05,-3.47556,-0.330763,-0.178375,0.179139,
2,1,0,1,0,5207.09,0.183577,0.183268,0.326083,7,0.0176407,10,5.97605e-05,-3.48667,-0.388283,-0.151951,0.183124,
2,1,0,1,0,5207.89,0.187573,0.187248,0.319639,7,0.0179133,10,5.98517e-05,-3.49534,-0.493842,-0.119471,0.187107,
2,1,0,0,0,5208.69,0.191568,0.191253,0.314926,7,0.0181809,10,6.02306e-05,-3.50179,-0.563545,-0.104694,0.191114,
2,1,0,1,0,5209.49,0.195563,0.195276,0.309541,7,0.0184449,10,6.04459e-05,-3.50928,-0.501164,-0.117726,0.19514,
2,1,0,1,0,5210.29,0.199559,0.199249,0.305983,7,0.0187049,10,6.09667e-05,-3.5143,-1.58196,-0.0372956,0.199114,
2,1,0,1,0,5211.08,0.203553,0.203239,0.299578,7,0.0189621,10,6.08859e-05,-3.52349,-0.662956,-0.0889953,0.203107,
2,1,0,1,0,5211.88,0.207548,0.207251,0.299051,7,0.0192167,10,6.19787e-05,-3.52425,-0.904036,-0.0652629,0.207119,
2,1,0,0,0,5212.68,0.211544,0.211278,0.295901,7,0.0194688,10,6.25173e-05,-3.52885,-1.35418,-0.0435686,0.211148,
2,1,0,1,0,5213.48,0.215539,0.215207,0.292911,7,0.019719,10,6.30364e-05,-3.53326,-0.942463,-0.0626019,0.215078,
2,1,0,1,0,5214.28,0.219535,0.219251,0.291181,7,0.0199672,10,6.38418e-05,-3.53584,-1.7072,-0.0345594,0.219123,
2,1,0,1,0,5215.08,0.223529,0.223241,0.289096,7,0.0202137,10,6.45381e-05,-3.53896,-1.47122,-0.0401027,0.223114,
2,1,0,1,0,5215.88,0.227524,0.227188,0.286708,7,0.0204586,10,6.51365e-05,-3.54256,-0.916111,-0.0644027,0.227062,
2,1,0,0,0,5216.68,0.23152,0.231236,0.285268,7,0.0207018,10,6.59642e-05,-3.54475,-6.50945,-0.00906375,0.23111,
2,1,0,1,0,5217.48,0.235515,0.235199,0.282734,7,0.020944,10,6.6499e-05,-3.54862,-0.801344,-0.0736263,0.235075,
2,1,0,0,0,5218.28,0.23951,0.239209,0.281926,7,0.0211847,10,6.74392e-05,-3.54986,-1.30083,-0.0453557,0.239085,
2,1,0,1,0,5219.08,0.243506,0.243207,0.280364,7,0.0214241,10,6.81866e-05,-3.55228,-2.23234,-0.0264296,0.243084,
2,1,0,1,0,5219.87,0.2475,0.247179,0.27978,7,0.0216626,10,6.91557e-05,-3.55318,25.5998,0.00230471,0.247056,
2,1,0,1,0,5220.67,0.251495,0.251201,0.277967,7,0.0218999,10,6.98255e-05,-3.55601,-0.961745,-0.0613468,0.251078,
2,1,0,1,0,5221.47,0.255491,0.255214,0.276688,7,0.0221362,10,7.06145e-05,-3.55801,4.01282,0.0147029,0.255092,
2,1,0,0,0,5222.27,0.259486,0.259207,0.275482,7,0.0223717,10,7.14069e-05,-3.55991,-1.00646,-0.0586212,0.259086,
2,1,0,1,0,5223.07,0.263481,0.263184,0.274095,7,0.0226061,10,7.21373e-05,-3.5621,-5.18479,-0.0113794,0.263063,
2,1,0,1,0,5223.87,0.267477,0.267173,0.273415,7,0.02284,10,7.30492e-05,-3.56318,21.0659,0.00280074,0.267053,
2,1,0,1,0,5224.67,0.271471,0.271146,0.273373,7,0.0230731,10,7.41242e-05,-3.56324,-1.10273,-0.0535035,0.271026,
2,1,0,1,0,5225.47,0.275466,0.275132,0.270858,7,0.0233051,10,7.45216e-05,-3.56726,-3.37248,-0.0174945,0.275013,
2,1,0,0,0,5226.27,0.279462,0.279153,0.270544,7,0.0235366,10,7.55232e-05,-3.56776,-1.89118,-0.0311974,0.279034,
2,1,0,1,0,5227.07,0.283457,0.28319,0.269761,7,0.023767,10,7.63936e-05,-3.56902,-1.12455,-0.0524655,0.283072,
2,1,0,0,0,5227.86,0.287452,0.28716,0.268677,7,0.0239967,10,7.71534e-05,-3.57077,6.11649,0.00964605,0.287042,
2,1,0,1,0,5228.66,0.291448,0.291151,0.268329,7,0.024226,10,7.81242e-05,-3.57133,-1.65131,-0.0357291,0.291033,
2,1,0,1,0,5229.46,0.295442,0.29516,0.267705,7,0.0244546,10,7.90157e-05,-3.57234,2.58719,0.0228046,0.295042,
2,1,0,1,0,5230.26,0.299437,0.299123,0.266301,7,0.0246826,10,7.96569e-05,-3.57463,-1.95223,-0.0302218,0.299006,
2,1,0,1,0,5231.06,0.303433,0.303164,0.265796,7,0.0249095,10,8.05797e-05,-3.57545,-1.35481,-0.0435484,0.303047,
2,1,0,0,0,5231.86,0.307428,0.307119,0.265364,7,0.0251357,10,8.14985e-05,-3.57616,-102.967,-0.000573,0.307003,
2,1,0,1,0,5232.66,0.311424,0.311128,0.265456,7,0.0253616,10,8.25909e-05,-3.57601,-3.51117,-0.0168035,0.311011,
2,1,0,1,0,5233.46,0.315418,0.315116,0.261649,7,0.0255864,10,8.24498e-05,-3.58228,-2.22997,-0.0264577,0.315001,
2,1,0,1,0,5234.26,0.319413,0.319132,0.26289,7,0.0258108,10,8.38964e-05,-3.58023,-4.154,-0.0142032,0.319016,
2,1,0,1,0,5235.06,0.323409,0.323107,0.261031,7,0.0260346,10,8.43411e-05,-3.58331,-1.69607,-0.0347863,0.322992,
2,1,0,0,0,5235.86,0.327404,0.327109,0.260428,7,0.0262575,10,8.51883e-05,-3.58431,-2.94023,-0.0200665,0.326995,
2,1,0,1,0,5236.65,0.331399,0.33109,0.259307,7,0.0264799,10,8.58539e-05,-3.58619,-3.02014,-0.0195355,0.330976,
2,1,0,1,0,5237.45,0.335395,0.335112,0.25861,7,0.0267017,10,8.66635e-05,-3.58735,-2.48348,-0.023757,0.334998,
2,1,0,1,0,5238.25,0.339389,0.339089,0.258035,7,0.0269225,10,8.74968e-05,-3.58832,43.1423,0.00136757,0.338975,
2,1,0,1,0,5239.05,0.343384,0.34305,0.258302,7,0.0271427,10,8.86106e-05,-3.58787,-1.27246,-0.046367,0.342936,
2,1,0,0,0,5239.85,0.34738,0.34709,0.25835,7,0.0273624,10,8.96709e-05,-3.58779,2.70719,0.0217938,0.346977,
2,1,0,1,0,5240.65,0.351375,0.351041,0.256797,7,0.0275816,10,9.01464e-05,-3.59041,-1.2339,-0.0478158,0.350928,
2,1,0,0,0,5241.45,0.35537,0.355063,0.25534,7,0.0278004,10,9.06617e-05,-3.59288,-3.02195,-0.0195238,0.35495,
2,1,0,1,0,5242.25,0.359366,0.359081,0.254398,7,0.0280183,10,9.13495e-05,-3.59449,-13.4035,-0.00440183,0.358969,
2,1,0,1,0,5243.05,0.36336,0.363031,0.253828,7,0.028236,10,9.21473e-05,-3.59546,-3.46476,-0.0170286,0.36292,
2,1,0,1,0,5243.85,0.367355,0.367078,0.253995,7,0.0284532,10,9.32358e-05,-3.59518,11.856,0.00497638,0.366966,
2,1,0,1,0,5244.64,0.371351,0.371085,0.253175,7,0.0286701,10,9.39496e-05,-3.59658,-7.99606,-0.00737864,0.370974,
2,1,0,0,0,5245.44,0.375346,0.375049,0.25348,7,0.0288867,10,9.50674e-05,-3.59606,-2.58376,-0.022835,0.374938,
2,1,0,1,0,5246.24,0.379342,0.379029,0.253617,7,0.0291025,10,9.61282e-05,-3.59582,-2.39238,-0.0246616,0.378918,
2,1,0,1,0,5247.04,0.383336,0.38303,0.252339,7,0.0293179,10,9.66534e-05,-3.59802,3.66915,0.01608,0.382919,
2,1,0,1,0,5247.84,0.387331,0.38705,0.251813,7,0.0295332,10,9.74642e-05,-3.59892,-2.3426,-0.0251857,0.386939,
2,1,0,1,0,5248.64,0.391327,0.391025,0.250709,7,0.0297478,10,9.80336e-05,-3.60083,-2.21102,-0.0266845,0.390915,
2,1,0,0,0,5249.44,0.395322,0.395024,0.248486,7,0.0299619,10,9.81579e-05,-3.6047,3.0299,0.0194726,0.394915,
2,1,0,1,0,5250.24,0.399317,0.399011,0.249936,7,0.0301756,10,9.97273e-05,-3.60217,-2.23467,-0.0264022,0.398901,
2,1,0,1,0,5251.04,0.403313,0.403029,0.250127,7,0.030389,10,0.000100808,-3.60184,2.80997,0.0209967,0.402919,
2,1,0,1,0,5251.84,0.407307,0.407057,0.249251,7,0.0306021,10,0.000101459,-3.60336,-0.933014,-0.0632359,0.406948,
2,1,0,1,0,5252.63,0.411302,0.410971,0.249929,7,0.0308147,10,0.000102714,-3.60218,2.07152,0.0284814,0.410861,
2,1,0,0,0,5253.43,0.415298,0.414985,0.249263,7,0.0310274,10,0.000103441,-3.60334,-2.17358,-0.0271442,0.414875,
2,1,0,1,0,5254.23,0.419293,0.418952,0.248926,7,0.0312398,10,0.000104288,-3.60393,-3.75701,-0.015704,0.418842,
2,1,0,0,0,5255.03,0.423288,0.423007,0.249895,7,0.031452,10,0.000105707,-3.60224,4.59537,0.012839,0.422897,
2,1,0,1,0,5255.83,0.427283,0.426986,0.24767,7,0.0316643,10,0.000105752,-3.60613,-5.28554,-0.0111625,0.426877,
2,1,0,1,0,5256.63,0.431278,0.430993,0.247977,7,0.0318763,10,0.000106876,-3.60559,15.9034,0.0037099,0.430884,
2,1,0,1,0,5257.43,0.435273,0.435017,0.246985,7,0.0320879,10,0.000107443,-3.60733,17.9502,0.00328688,0.434908,
2,1,0,1,0,5258.23,0.439269,0.438991,0.247087,7,0.0322997,10,0.000108469,-3.60715,-49.6277,-0.00118885,0.438882,
2,1,0,0,0,5259.03,0.443264,0.442992,0.248931,7,0.0325115,10,0.000110274,-3.60392,30.6724,0.00192356,0.442883,
2,1,0,1,0,5259.83,0.447259,0.446961,0.248896,7,0.0327234,10,0.000111247,-3.60398,9.12128,0.00646839,0.446851,
2,1,0,1,0,5260.63,0.451254,0.45099,0.248789,7,0.0329352,10,0.000112202,-3.60417,-5.72458,-0.0103064,0.450881,
2,1,0,1,0,5261.42,0.455249,0.454941,0.249098,7,0.0331469,10,0.000113325,-3.60363,2.96225,0.0199173,0.454831,
2,1,0,1,0,5262.22,0.459244,0.458938,0.24799,7,0.0333589,10,0.000113812,-3.60557,5.28529,0.0111631,0.458829,
2,1,0,0,0,5263.02,0.46324,0.462959,0.24832,7,0.0335712,10,0.000114962,-3.60499,92.7683,0.000635993,0.46285,
2,1,0,1,0,5263.82,0.467235,0.466926,0.248501,7,0.0337835,10,0.000116031,-3.60467,13.006,0.00453637,0.466816,
2,1,0,1,0,5264.62,0.471231,0.470945,0.248677,7,0.0339961,10,0.000117113,-3.60436,-2.63684,-0.0223753,0.470836,
2,1,0,1,0,5265.42,0.475225,0.47493,0.25038,7,0.0342087,10,0.000118913,-3.6014,1.16395,0.0506893,0.47482,
2,1,0,1,0,5266.22,0.47922,0.478949,0.249422,7,0.0344217,10,0.00011946,-3.60307,-4.63196,-0.0127376,0.478839,
2,1,0,0,0,5267.02,0.483216,0.482907,0.250521,7,0.0346352,10,0.000120978,-3.60116,2.77698,0.0212461,0.482797,
2,1,0,1,0,5267.82,0.487211,0.486881,0.251539,7,0.034849,10,0.00012247,-3.59939,1.91996,0.0307297,0.48677,
2,1,0,0,0,5268.62,0.491206,0.490912,0.251298,7,0.0350636,10,0.000123365,-3.59981,2.69534,0.0218896,0.490802,
2,1,0,1,0,5269.41,0.495201,0.494908,0.253533,7,0.0352788,10,0.000125476,-3.59596,2.54049,0.0232238,0.494797,
2,1,0,1,0,5270.21,0.499196,0.498921,0.254419,7,0.0354945,10,0.000126935,-3.59445,1.6215,0.0363861,0.49881,
2,1,0,1,0,5271.01,0.503191,0.502876,0.255934,7,0.0357111,10,0.000128703,-3.59187,-11.8112,-0.00499528,0.502763,
2,1,0,1,0,5271.81,0.507187,0.506913,0.256946,7,0.0359285,10,0.000130249,-3.59016,0.940984,0.0627003,0.5068,
2,1,0,0,0,5272.61,0.511182,0.510905,0.257158,7,0.0361467,10,0.000131383,-3.5898,3.12731,0.018866,0.510792,
2,1,0,1,0,5273.41,0.515177,0.514908,0.258605,7,0.036366,10,0.000133158,-3.58736,3.29434,0.0179095,0.514794,
2,1,0,1,0,5274.21,0.519173,0.518902,0.259244,7,0.0365863,10,0.000134522,-3.58629,1.36777,0.0431359,0.518788,
2,1,0,1,0,5275.01,0.523167,0.522856,0.261028,7,0.0368081,10,0.00013648,-3.58331,2.13263,0.0276654,0.522741,
2,1,0,1,0,5275.81,0.527162,0.526876,0.263767,7,0.0370312,10,0.000138972,-3.57878,1.13211,0.0521151,0.52676,
2,1,0,0,0,5276.61,0.531158,0.530872,0.265485,7,0.0372553,10,0.000140938,-3.57596,1.33821,0.0440888,0.530755,
2,1,0,1,0,5277.4,0.535153,0.534855,0.268154,7,0.0374812,10,0.000143424,-3.57162,0.90802,0.0649766,0.534737,
2,1,0,0,0,5278.2,0.539148,0.538882,0.270574,7,0.0377088,10,0.000145807,-3.56771,0.832475,0.070873,0.538763,
2,1,0,1,0,5279,0.543143,0.542849,0.273215,7,0.0379383,10,0.000148314,-3.5635,1.44719,0.0407687,0.542729,
2,1,0,1,0,5279.8,0.547138,0.546856,0.274408,7,0.0381697,10,0.000150062,-3.5616,1.2027,0.0490561,0.546735,
2,1,0,1,0,5280.6,0.551133,0.550869,0.277579,7,0.0384031,10,0.00015291,-3.55661,0.472446,0.124882,0.550747,
2,1,0,1,0,5281.4,0.555129,0.554807,0.279955,7,0.0386394,10,0.000155321,-3.55291,0.882662,0.0668433,0.554684,
2,1,0,0,0,5282.2,0.559124,0.55888,0.284694,7,0.0388784,10,0.00015911,-3.54562,0.653244,0.0903185,0.558755,
2,1,0,1,0,5283,0.56312,0.56281,0.289976,7,0.0391206,10,0.000163201,-3.53764,0.599504,0.0984148,0.562683,
2,1,0,1,0,5283.8,0.567114,0.566829,0.294266,7,0.0393665,10,0.000166798,-3.53126,0.541765,0.108903,0.566699,
2,1,0,1,0,5284.6,0.571109,0.570827,0.29991,7,0.0396165,10,0.000171197,-3.52301,0.540053,0.109249,0.570695,
2,1,0,1,0,5285.4,0.575105,0.574817,0.306081,7,0.0398711,10,0.00017594,-3.51416,0.374978,0.157342,0.574682,
2,1,0,0,0,5286.19,0.5791,0.578787,0.312387,7,0.0401308,10,0.000180805,-3.50531,0.464352,0.127059,0.57865,
2,1,0,1,0,5286.99,0.583095,0.582781,0.320259,7,0.0403961,10,0.000186641,-3.4945,0.348491,0.169302,0.58264,
2,1,0,1,0,5287.79,0.58709,0.586817,0.327356,7,0.0406679,10,0.000192098,-3.48498,0.317397,0.185887,0.586673,
2,1,0,1,0,5288.59,0.591085,0.590852,0.33895,7,0.0409471,10,0.00020027,-3.46986,0.283474,0.208132,0.590703,
2,1,0,1,0,5289.39,0.59508,0.594829,0.350639,7,0.0412349,10,0.00020857,-3.45514,0.251166,0.234905,0.594674,
2,1,0,0,0,5290.19,0.599076,0.598778,0.364014,7,0.041533,10,0.000217964,-3.43888,0.248104,0.237803,0.598618,
2,1,0,1,0,5290.99,0.603071,0.602813,0.379435,7,0.0418424,10,0.000228728,-3.42086,0.204332,0.288746,0.602646,
2,1,0,0,0,5291.79,0.607066,0.606832,0.396773,7,0.042165,10,0.000240774,-3.40146,0.196145,0.300798,0.606657,
2,1,0,1,0,5292.59,0.611061,0.610782,0.417385,7,0.0425033,10,0.000254931,-3.37946,0.174771,0.337585,0.610598,
2,1,0,1,0,5293.39,0.615056,0.614759,0.441407,7,0.0428591,10,0.000271359,-3.35516,0.153519,0.384318,0.614565,
2,1,0,1,0,5294.18,0.619051,0.61877,0.46839,7,0.043236,10,0.000289826,-3.32939,0.136416,0.432502,0.618564,
2,1,0,1,0,5294.98,0.623047,0.62277,0.502899,7,0.0436372,10,0.00031319,-3.29852,0.132461,0.445413,0.622548,
2,1,0,0,0,5295.78,0.627042,0.626774,0.542118,7,0.0440666,10,0.000339785,-3.26591,0.119622,0.493219,0.626535,
2,1,0,1,0,5296.58,0.631037,0.630766,0.586668,7,0.0445292,10,0.00037005,-3.23161,0.111641,0.52848,0.630508,
2,1,0,1,0,5297.38,0.635032,0.634802,0.641467,7,0.0450315,10,0.000407205,-3.19283,0.0966864,0.61022,0.63452,
2,1,0,1,0,5298.18,0.639027,0.63879,0.704975,7,0.0455816,10,0.000450331,-3.15183,0.0924554,0.638146,0.63848,
2,1,0,1,0,5298.98,0.643022,0.642763,0.781994,7,0.0461875,10,0.000502637,-3.1068,0.0864051,0.68283,0.642419,
2,1,0,0,0,5299.78,0.647018,0.646777,0.870855,7,0.0468596,10,0.000563249,-3.06005,0.0804437,0.733432,0.646394,
2,1,0,1,0,5300.58,0.651013,0.650747,0.976563,7,0.0476103,10,0.000635496,-3.0103,0.0773445,0.762821,0.650318,
2,1,0,1,0,5301.38,0.655008,0.654756,1.1025,7,0.0484528,10,0.00072187,-2.95762,0.0733701,0.804143,0.654271,
2,1,0,1,0,5302.17,0.659003,0.658727,1.24992,7,0.0494039,10,0.000823357,-2.90312,0.0722641,0.816449,0.658177,
2,1,0,1,0,5302.97,0.662998,0.662783,1.42233,7,0.0504828,10,0.000942694,-2.847,0.0683317,0.863435,0.662157,
2,1,0,0,0,5303.77,0.666994,0.666713,1.62198,7,0.0517098,10,0.0010814,-2.78995,0.0675839,0.872989,0.665999,
2,1,0,1,0,5304.57,0.670989,0.670725,1.85428,7,0.0531101,10,0.00124372,-2.73182,0.0672244,0.877657,0.66991,
2,1,0,0,0,5305.37,0.674984,0.674758,2.12173,7,0.0547095,10,0.00143165,-2.67331,0.0668245,0.88291,0.673825,
2,1,0,1,0,5306.17,0.67898,0.678715,2.42649,7,0.0565376,10,0.00164689,-2.61502,0.0654946,0.900838,0.677647,
2,1,0,1,0,5306.97,0.682974,0.682695,2.7728,7,0.0586257,10,0.00189298,-2.55708,0.0660244,0.893608,0.681475,
2,1,0,1,0,5307.77,0.686969,0.686698,3.16024,7,0.0610067,10,0.00217013,-2.50028,0.0683903,0.862695,0.685308,
2,1,0,1,0,5308.57,0.690965,0.690708,3.59391,7,0.0637167,10,0.00248234,-2.44443,0.0682427,0.864561,0.689126,
2,1,0,0,0,5309.37,0.69496,0.694784,4.07434,7,0.0667912,10,0.00283078,-2.38994,0.0699657,0.84327,0.692991,
2,1,0,1,0,5310.17,0.698955,0.698689,4.59772,7,0.070266,10,0.00321238,-2.33746,0.0732047,0.805959,0.696666,
2,1,0,1,0,5310.96,0.70295,0.702665,5.16819,7,0.0741795,10,0.00363151,-2.28666,0.0756645,0.779758,0.700391,
2,1,0,1,0,5311.76,0.706945,0.706674,5.78454,7,0.0785664,10,0.00408779,-2.23773,0.0774786,0.7615,0.704129,
2,1,0,1,0,5312.56,0.71094,0.710693,6.44003,7,0.0834614,10,0.00457688,-2.19111,0.0808861,0.729421,0.707859,
2,1,0,0,0,5313.36,0.714936,0.714712,7.13596,7,0.0888981,10,0.00510016,-2.14655,0.084405,0.69901,0.711572,
2,1,0,1,0,5314.16,0.718931,0.718716,7.87416,7,0.0949064,10,0.00565929,-2.1038,0.0878847,0.671334,0.715252,
2,1,0,1,0,5314.96,0.722927,0.722686,8.64278,7,0.101517,10,0.00624602,-2.06335,0.0927692,0.635987,0.718883,
2,1,0,1,0,5315.76,0.726921,0.72668,9.44512,7,0.108756,10,0.00686358,-2.02479,0.0965127,0.611319,0.722524,
2,1,0,1,0,5316.56,0.730916,0.730644,10.2794,7,0.116647,10,0.00751055,-1.98803,0.101807,0.579526,0.726121,
2,1,0,1,0,5317.36,0.734911,0.734616,11.1384,7,0.125217,10,0.00818244,-1.95318,0.104455,0.564835,0.729716,
2,1,0,1,0,5318.16,0.738907,0.738651,12.0326,7,0.134487,10,0.00888785,-1.91964,0.109175,0.540416,0.733356,
2,1,0,0,0,5318.95,0.742902,0.742612,12.9574,7,0.144482,10,0.0096223,-1.88748,0.111581,0.528763,0.736911,
2,1,0,1,0,5319.75,0.746897,0.746614,13.923,7,0.155235,10,0.0103951,-1.85627,0.116588,0.506055,0.740487,
2,1,0,1,0,5320.55,0.750892,0.750602,14.9473,7,0.166782,10,0.0112195,-1.82544,0.115236,0.511994,0.744025,
2,1,0,1,0,5321.35,0.754887,0.754606,16.0279,7,0.179168,10,0.0120948,-1.79512,0.117777,0.500946,0.747554,
2,1,0,1,0,5322.15,0.758883,0.758615,17.1652,7,0.192445,10,0.0130218,-1.76535,0.11891,0.496173,0.751062,
2,1,0,0,0,5322.95,0.762878,0.762598,18.3534,7,0.206645,10,0.0139963,-1.73628,0.117757,0.501033,0.754522,
2,1,0,1,0,5323.75,0.766873,0.766618,19.5995,7,0.221825,10,0.0150253,-1.70776,0.125943,0.468467,0.757994,
2,1,0,1,0,5324.55,0.770868,0.770621,20.8949,7,0.238009,10,0.016102,-1.67996,0.120508,0.489592,0.761427,
2,1,0,1,0,5325.35,0.774863,0.774592,22.256,7,0.255266,10,0.0172393,-1.65255,0.128682,0.458493,0.7648,
2,1,0,1,0,5326.15,0.778858,0.778584,23.5611,7,0.273604,10,0.0183443,-1.6278,0.138968,0.424559,0.768218,
2,1,0,0,0,5326.95,0.782854,0.782557,25.0001,7,0.293012,10,0.019564,-1.60206,0.1321,0.446631,0.771557,
2,1,0,1,0,5327.74,0.786849,0.78656,26.4428,7,0.313586,10,0.0207988,-1.57769,0.140522,0.419864,0.774925,
2,1,0,0,0,5328.54,0.790844,0.790592,27.9278,7,0.335321,10,0.0220795,-1.55396,0.142699,0.413458,0.778303,
2,1,0,1,0,5329.34,0.794839,0.794544,29.4426,7,0.358256,10,0.0233934,-1.53102,0.151148,0.390347,0.781589,
2,1,0,1,0,5330.14,0.798834,0.798575,30.9439,7,0.382392,10,0.024711,-1.50942,0.14978,0.393912,0.78496,
2,1,0,1,0,5330.94,0.802829,0.802546,32.5577,7,0.407773,10,0.026129,-1.48735,0.153895,0.383377,0.788221,
2,1,0,1,0,5331.74,0.806825,0.806567,34.1611,7,0.434449,10,0.0275532,-1.46647,0.158606,0.371991,0.791536,
2,1,0,0,0,5332.54,0.81082,0.810596,35.727,7,0.462397,10,0.0289601,-1.447,0.17477,0.337587,0.794876,
2,1,0,1,0,5333.34,0.814815,0.814554,37.3792,7,0.49162,10,0.0304474,-1.42737,0.178565,0.330412,0.798107,
2,1,0,1,0,5334.14,0.81881,0.818501,38.9272,7,0.522105,10,0.0318619,-1.40975,0.182627,0.323063,0.801373,
2,1,0,1,0,5334.94,0.822805,0.822559,40.5014,7,0.553862,10,0.0333148,-1.39253,0.209062,0.282213,0.804739,
2,1,0,1,0,5335.73,0.826801,0.826572,42.0107,7,0.586834,10,0.0347249,-1.37664,0.20804,0.2836,0.808088,
2,1,0,0,0,5336.53,0.830796,0.830519,43.471,7,0.621006,10,0.0361035,-1.3618,0.231806,0.254523,0.811392,
2,1,0,1,0,5337.33,0.834791,0.834574,45.0364,7,0.656368,10,0.0375862,-1.34644,0.224083,0.263295,0.814758,
2,1,0,1,0,5338.13,0.838786,0.838592,46.5272,7,0.692961,10,0.0390173,-1.33229,0.231719,0.254619,0.81812,
2,1,0,1,0,5338.93,0.842781,0.842534,48.1109,7,0.730774,10,0.0405351,-1.31776,0.239261,0.246592,0.821366,
2,1,0,1,0,5339.73,0.846776,0.846546,49.482,7,0.769794,10,0.0418888,-1.30555,0.270903,0.21779,0.824774,
2,1,0,1,0,5340.43,0.849723,0.849514,50.2757,7,0.804856,10,0.0427099,-1.29864,0.04681,1.26042,0.827393,
2,1,0,0,0,5341.23,0.845728,0.845501,48.2001,7,0.84405,10,0.0407532,-1.31695,0.2038,0.2895,0.824292,
2,1,0,1,0,5342.03,0.841732,0.841455,46.4205,7,0.881805,10,0.0390608,-1.33329,0.210729,0.27998,0.82103,
2,1,0,1,0,5342.83,0.837737,0.837464,44.7616,7,0.918227,10,0.0374862,-1.34909,0.211261,0.279276,0.817769,
2,1,0,1,0,5343.63,0.833742,0.833494,43.1529,7,0.953358,10,0.0359676,-1.36499,0.194524,0.303305,0.814506,
2,1,0,1,0,5344.42,0.829747,0.829543,41.5884,7,0.987167,10,0.0344993,-1.38103,0.197346,0.298968,0.811244,
2,1,0,0,0,5345.22,0.825752,0.82549,39.915,7,1.01971,10,0.0329494,-1.39886,0.185849,0.317462,0.807927,
2,1,0,1,0,5346.02,0.821757,0.821513,38.206,7,1.0509,10,0.0313867,-1.41787,0.158884,0.37134,0.804702,
2,1,0,1,0,5346.82,0.817761,0.817473,36.4139,7,1.0807,10,0.0297674,-1.43873,0.155184,0.380194,0.801451,
2,1,0,1,0,5347.62,0.813766,0.813484,34.7035,7,1.1091,10,0.0282307,-1.45963,0.146669,0.402267,0.798214,
2,1,0,1,0,5348.42,0.809771,0.809529,32.9653,7,1.13612,10,0.0266864,-1.48194,0.146568,0.402545,0.795024,
2,1,0,1,0,5349.22,0.805776,0.805546,31.3526,7,1.16178,10,0.0252559,-1.50373,0.145612,0.405186,0.791751,
2,1,0,1,0,5350.02,0.801781,0.801492,29.6675,7,1.18614,10,0.0237782,-1.52772,0.136609,0.431889,0.788438,
2,1,0,0,0,5350.82,0.797786,0.797576,28.0525,7,1.20918,10,0.022374,-1.55203,0.129253,0.456469,0.785233,
2,1,0,1,0,5351.62,0.79379,0.793531,26.4624,7,1.23095,10,0.0209987,-1.57737,0.129909,0.454163,0.781887,
2,1,0,1,0,5352.41,0.789795,0.789512,24.9424,7,1.25147,10,0.0196923,-1.60306,0.127856,0.461457,0.778537,
2,1,0,1,0,5353.21,0.7858,0.785505,23.4229,7,1.27077,10,0.0183988,-1.63036,0.117266,0.50313,0.775199,
2,1,0,1,0,5354.01,0.781805,0.781539,21.9015,7,1.28887,10,0.0171169,-1.65953,0.114717,0.514311,0.771902,
2,1,0,0,0,5354.81,0.77781,0.777491,20.4678,7,1.30577,10,0.0159135,-1.68893,0.11087,0.532156,0.768485,
2,1,0,1,0,5355.61,0.773815,0.773592,19.0672,7,1.32154,10,0.0147503,-1.71971,0.10825,0.545034,0.765203,
2,1,0,1,0,5356.41,0.769819,0.769531,17.699,7,1.33621,10,0.01362,-1.75205,0.102266,0.576926,0.761744,
2,1,0,1,0,5357.21,0.765824,0.765587,16.4002,7,1.34981,10,0.0125558,-1.78515,0.104608,0.564013,0.758371,
2,1,0,1,0,5358.01,0.761829,0.761597,15.177,7,1.36241,10,0.0115588,-1.81881,0.0998791,0.590714,0.754919,
2,1,0,0,0,5358.81,0.757834,0.757543,13.9657,7,1.37404,10,0.0105797,-1.85494,0.0960184,0.614466,0.751398,
2,1,0,1,0,5359.61,0.753839,0.753535,12.8496,7,1.38474,10,0.00968265,-1.89111,0.0950746,0.620565,0.747881,
2,1,0,0,0,5360.41,0.749844,0.749597,11.7782,7,1.39456,10,0.00882891,-1.92892,0.0921603,0.640189,0.744415,
2,1,0,1,0,5361.2,0.745848,0.745614,10.7603,7,1.40355,10,0.00802307,-1.96817,0.0900321,0.655322,0.74088,
2,1,0,1,0,5362,0.741853,0.741609,9.80935,7,1.41175,10,0.0072747,-2.00836,0.0863833,0.683003,0.737293,
2,1,0,1,0,5362.8,0.737858,0.737603,8.91298,7,1.41921,10,0.00657425,-2.04998,0.0853216,0.691502,0.733682,
2,1,0,1,0,5363.6,0.733863,0.733654,8.0351,7,1.42597,10,0.00589499,-2.09501,0.0791768,0.745168,0.730119,
2,1,0,0,0,5364.4,0.729868,0.7296,7.25013,7,1.43206,10,0.0052897,-2.13965,0.0800619,0.73693,0.72641,
2,1,0,1,0,5365.2,0.725872,0.725639,6.51749,7,1.43754,10,0.00472934,-2.18592,0.0795567,0.741609,0.722771,
2,1,0,1,0,5366,0.721877,0.721596,5.83359,7,1.44246,10,0.00420949,-2.23406,0.0754691,0.781777,0.719029,
2,1,0,1,0,5366.8,0.717882,0.717612,5.20035,7,1.44685,10,0.00373183,-2.28397,0.0743219,0.793844,0.715323,
2,1,0,1,0,5367.6,0.713887,0.713625,4.6224,7,1.45076,10,0.00329866,-2.33513,0.0715175,0.824972,0.711591,
2,1,0,0,0,5368.4,0.709892,0.709621,4.08959,7,1.45422,10,0.00290206,-2.38832,0.0687898,0.857685,0.707822,
2,1,0,1,0,5369.19,0.705897,0.705611,3.61298,7,1.45728,10,0.00254936,-2.44213,0.0692372,0.852144,0.704021,
2,1,0,1,0,5369.99,0.701901,0.70161,3.17313,7,1.45997,10,0.0022263,-2.49851,0.0667688,0.883647,0.700214,
2,1,0,1,0,5370.79,0.697906,0.697618,2.77167,7,1.46233,10,0.00193357,-2.55726,0.0632603,0.932654,0.696399,
2,1,0,1,0,5371.59,0.693911,0.693636,2.40463,7,1.46438,10,0.00166794,-2.61895,0.0614643,0.959906,0.692578,
2,1,0,0,0,5372.39,0.689916,0.689672,2.07295,7,1.46616,10,0.00142966,-2.68341,0.0592566,0.995669,0.68876,
2,1,0,1,0,5373.19,0.685921,0.685629,1.77942,7,1.46768,10,0.00122002,-2.74972,0.0563909,1.04627,0.684847,
2,1,0,0,0,5373.99,0.681926,0.681611,1.51839,7,1.46898,10,0.00103495,-2.81862,0.0556518,1.06016,0.680942,
2,1,0,1,0,5374.79,0.67793,0.67768,1.28885,7,1.47009,10,0.000873426,-2.8898,0.0537875,1.09691,0.677113,
2,1,0,1,0,5375.59,0.673935,0.673689,1.08577,7,1.47102,10,0.000731471,-2.96426,0.0519547,1.1356,0.673212,
2,1,0,1,0,5376.39,0.66994,0.669663,0.910685,7,1.4718,10,0.000609852,-3.04063,0.0498092,1.18452,0.669263,
2,1,0,1,0,5377.18,0.665945,0.665692,0.756914,7,1.47245,10,0.000503871,-3.12095,0.0491249,1.20102,0.665359,
2,1,0,0,0,5377.98,0.66195,0.661742,0.625277,7,1.47299,10,0.000413772,-3.20393,0.0457738,1.28895,0.661467,
2,1,0,1,0,5378.78,0.657955,0.657678,0.515069,7,1.47343,10,0.00033875,-3.28813,0.0459049,1.28527,0.657451,
2,1,0,1,0,5379.58,0.653959,0.653693,0.417973,7,1.47379,10,0.000273226,-3.37885,0.0430878,1.3693,0.653509,
2,1,0,1,0,5380.38,0.649964,0.649732,0.337873,7,1.47408,10,0.000219527,-3.47125,0.0410612,1.43688,0.649584,
2,1,0,1,0,5381.18,0.64597,0.645678,0.269198,7,1.47431,10,0.000173815,-3.56993,0.0394811,1.49438,0.64556,
2,1,0,0,0,5381.98,0.641974,0.641747,0.210795,7,1.47449,10,0.000135277,-3.67614,0.0366143,1.61139,0.641654,
2,1,0,1,0,5382.78,0.637979,0.637697,0.163898,7,1.47462,10,0.000104517,-3.78543,0.0331068,1.78211,0.637625,
2,1,0,1,0,5383.58,0.633983,0.633685,0.121796,7,1.47472,10,7.71801e-05,-3.91437,0.030649,1.92503,0.633631,
2,1,0,1,0,5384.38,0.629988,0.629719,0.0888956,7,1.47479,10,5.59793e-05,-4.05112,0.0260735,2.26283,0.62968,
2,1,0,1,0,5385.18,0.625993,0.625724,0.060167,7,1.47484,10,3.7648e-05,-4.22064,0.0203564,2.89835,0.625698,
2,1,0,0,0,5385.97,0.621998,0.621729,0.0368287,7,1.47486,10,2.28975e-05,-4.43381,0.0148732,3.96686,0.621713,
2,1,0,1,0,5386.77,0.618003,0.617681,0.0160605,7,1.47487,10,9.92024e-06,-4.79424,0.00647563,9.11108,0.617674,
2,1,0,0,0,5387.57,0.614008,0.613697,-0.00048519,7,1.47486,10,-2.97759e-07,-6.31409,-0.0351794,-1.67712,0.613697,
2,0,0,1,0,5388.37,0.610012,0.609753,-0.0138137,7,1.47485,10,-8.42296e-06,-4.85969,-0.0099075,-5.95509,0.609759,
2,0,0,1,0,5389.17,0.606017,0.605724,-0.0240022,7,1.47482,10,-1.45387e-05,-4.61975,-0.0220469,-2.67612,0.605734,
2,0,0,1,0,5389.97,0.602022,0.601663,-0.0347605,7,1.47478,10,-2.09141e-05,-4.45891,-0.0371319,-1.58893,0.601679,
2,0,0,1,0,5390.77,0.598027,0.59774,-0.0426753,7,1.47474,10,-2.55087e-05,-4.36982,-0.0450685,-1.30912,0.597759,
2,0,0,0,0,5391.57,0.594032,0.593708,-0.0496746,7,1.47469,10,-2.94922e-05,-4.30387,-0.0798295,-0.739075,0.59373,
2,0,0,1,0,5392.37,0.590037,0.589754,-0.0555535,7,1.47463,10,-3.27629e-05,-4.25529,-0.106895,-0.551942,0.589778,
2,0,0,1,0,5393.17,0.586041,0.585763,-0.061046,7,1.47457,10,-3.57585e-05,-4.21434,-0.131694,-0.44801,0.58579,
2,0,0,1,0,5393.96,0.582046,0.581787,-0.064936,7,1.47451,10,-3.77789e-05,-4.18751,-0.120693,-0.488845,0.581816,
2,0,0,1,0,5394.76,0.578052,0.577763,-0.0686776,7,1.47444,10,-3.96794e-05,-4.16318,-0.191521,-0.30806,0.577793,
2,0,0,0,0,5395.56,0.574056,0.573771,-0.0719725,7,1.47437,10,-4.12958e-05,-4.14283,-0.171876,-0.343271,0.573803,
2,0,0,1,0,5396.36,0.570061,0.569796,-0.0750555,7,1.4743,10,-4.27663e-05,-4.12462,-0.405317,-0.145565,0.569829,
2,0,0,1,0,5397.16,0.566065,0.565774,-0.0777508,7,1.47423,10,-4.39894e-05,-4.1093,-0.262101,-0.225104,0.565808,
2,0,0,1,0,5397.96,0.56207,0.561768,-0.0805964,7,1.47415,10,-4.52765e-05,-4.09368,-0.194575,-0.303225,0.561804,
2,0,0,1,0,5398.76,0.558075,0.557775,-0.0820629,7,1.47407,10,-4.57726e-05,-4.08585,-1.44136,-0.0409336,0.557811,
2,0,0,1,0,5399.56,0.55408,0.553813,-0.0825847,7,1.47399,10,-4.57365e-05,-4.0831,-0.483306,-0.122076,0.553849,
2,0,0,1,0,5400.36,0.550085,0.549782,-0.0848168,7,1.47391,10,-4.66308e-05,-4.07152,-0.512397,-0.115145,0.549819,
2,0,0,0,0,5401.16,0.54609,0.545813,-0.0866086,7,1.47383,10,-4.72721e-05,-4.06244,-0.819678,-0.0719795,0.545851,
2,0,0,1,0,5401.95,0.542094,0.541795,-0.0878067,7,1.47375,10,-4.75733e-05,-4.05647,-0.294464,-0.200364,0.541834,
2,0,0,1,0,5402.75,0.538099,0.537784,-0.0903252,7,1.47366,10,-4.85754e-05,-4.04419,-1.46376,-0.0403072,0.537824,
2,0,0,1,0,5403.55,0.534104,0.533847,-0.0914818,7,1.47358,10,-4.88373e-05,-4.03867,-0.816891,-0.072225,0.533887,
2,0,0,1,0,5404.35,0.530109,0.529806,-0.0925494,7,1.47349,10,-4.90332e-05,-4.03363,-0.242279,-0.243521,0.529847,
2,0,0,0,0,5405.15,0.526114,0.5259,-0.0932796,7,1.4734,10,-4.90558e-05,-4.03021,-1.44188,-0.0409188,0.525941,
2,0,0,1,0,5405.95,0.522119,0.521837,-0.0962492,7,1.47331,10,-5.02264e-05,-4.0166,-5.03321,-0.0117222,0.521879,
2,0,0,1,0,5406.75,0.518123,0.517797,-0.0960996,7,1.47322,10,-4.97601e-05,-4.01728,-2.37462,-0.0248461,0.51784,
2,0,0,1,0,5407.55,0.514128,0.51386,-0.0964723,7,1.47313,10,-4.95733e-05,-4.0156,-0.458596,-0.128653,0.513903,
2,0,0,1,0,5408.35,0.510133,0.509831,-0.0976299,7,1.47304,10,-4.97748e-05,-4.01042,-0.833402,-0.0707942,0.509874,
2,0,0,0,0,5409.15,0.506138,0.505839,-0.0998122,7,1.47295,10,-5.04888e-05,-4.00082,-1.30568,-0.0451873,0.505882,
2,0,0,1,0,5409.95,0.502143,0.501895,-0.0968985,7,1.47286,10,-4.86329e-05,-4.01368,-2.02213,-0.0291771,0.501938,
2,0,0,0,0,5410.74,0.498148,0.497835,-0.100176,7,1.47276,10,-4.98711e-05,-3.99924,-0.525801,-0.11221,0.497879,
2,0,0,1,0,5411.54,0.494152,0.493847,-0.101121,7,1.47267,10,-4.99382e-05,-3.99516,28.7499,0.00205218,0.493892,
2,0,0,1,0,5412.34,0.490157,0.489845,-0.103104,7,1.47257,10,-5.05052e-05,-3.98672,-0.641956,-0.0919066,0.489891,
2,0,0,1,0,5413.14,0.486162,0.485835,-0.103368,7,1.47248,10,-5.02197e-05,-3.98561,-0.543332,-0.108589,0.485881,
2,0,0,1,0,5413.94,0.482167,0.481917,-0.105486,7,1.47238,10,-5.08357e-05,-3.9768,-0.520563,-0.113339,0.481963,
2,0,0,0,0,5414.74,0.478172,0.477916,-0.105613,7,1.47228,10,-5.04741e-05,-3.97628,-0.673751,-0.0875695,0.477962,
2,0,0,1,0,5415.54,0.474177,0.473838,-0.107951,7,1.47218,10,-5.11512e-05,-3.96677,-1.03942,-0.0567624,0.473885,
2,0,0,1,0,5416.34,0.470181,0.469889,-0.108871,7,1.47208,10,-5.11571e-05,-3.96309,-1.06533,-0.055382,0.469937,
2,0,0,1,0,5417.14,0.466186,0.465879,-0.111724,7,1.47197,10,-5.205e-05,-3.95185,-0.802921,-0.0734817,0.465929,
2,0,0,1,0,5417.94,0.462191,0.461899,-0.111344,7,1.47187,10,-5.14298e-05,-3.95333,-0.4989,-0.11826,0.461948,
2,0,0,0,0,5418.73,0.458196,0.457926,-0.113217,7,1.47176,10,-5.18452e-05,-3.94609,-0.788978,-0.0747803,0.457976,
2,0,0,1,0,5419.53,0.454201,0.453905,-0.114797,7,1.47166,10,-5.2107e-05,-3.94007,-0.661439,-0.0891995,0.453956,
2,0,0,1,0,5420.33,0.450205,0.44992,-0.117391,7,1.47155,10,-5.28166e-05,-3.93036,-0.425079,-0.138798,0.449971,
2,0,0,1,0,5421.13,0.44621,0.445873,-0.118937,7,1.47144,10,-5.30308e-05,-3.92468,-0.892327,-0.0661192,0.445925,
2,0,0,1,0,5421.93,0.442215,0.441937,-0.121117,7,1.47133,10,-5.35259e-05,-3.9168,-20.5495,-0.00287111,0.44199,
2,0,0,0,0,5422.73,0.43822,0.437949,-0.120853,7,1.47122,10,-5.29274e-05,-3.91774,-0.325924,-0.181024,0.438002,
2,0,0,1,0,5423.53,0.434225,0.433956,-0.123147,7,1.47111,10,-5.34402e-05,-3.90958,-3.1302,-0.0188486,0.43401,
2,0,0,0,0,5424.33,0.43023,0.429945,-0.125533,7,1.47099,10,-5.39724e-05,-3.90124,-0.50284,-0.117334,0.43,
2,0,0,1,0,5425.13,0.426234,0.425967,-0.12678,7,1.47088,10,-5.40041e-05,-3.89695,-0.369406,-0.159716,0.426023,
2,0,0,1,0,5425.93,0.422239,0.421989,-0.128578,7,1.47076,10,-5.42584e-05,-3.89083,-2.18193,-0.0270403,0.422045,
2,0,0,1,0,5426.72,0.418244,0.417946,-0.131028,7,1.47064,10,-5.47626e-05,-3.88264,-0.534554,-0.110372,0.418004,
2,0,0,1,0,5427.52,0.414249,0.413969,-0.13354,7,1.47052,10,-5.52813e-05,-3.87439,-0.517751,-0.113955,0.414028,
2,0,0,0,0,5428.32,0.410254,0.409957,-0.135614,7,1.4704,10,-5.55959e-05,-3.8677,-0.647568,-0.0911101,0.410016,
2,0,0,1,0,5429.12,0.406259,0.405956,-0.139117,7,1.47027,10,-5.64752e-05,-3.85662,-0.385707,-0.152966,0.406017,
2,0,0,1,0,5429.92,0.402263,0.401972,-0.140022,7,1.47015,10,-5.62847e-05,-3.85381,-1.3593,-0.0434045,0.402033,
2,0,0,1,0,5430.72,0.398268,0.397999,-0.142775,7,1.47002,10,-5.68241e-05,-3.84535,-0.739206,-0.0798154,0.398061,
2,0,0,1,0,5431.52,0.394274,0.393908,-0.145199,7,1.46989,10,-5.7195e-05,-3.83804,-0.589734,-0.100045,0.393972,
2,0,0,0,0,5432.32,0.390278,0.389992,-0.146602,7,1.46976,10,-5.71736e-05,-3.83386,-0.49201,-0.119916,0.390057,
2,0,0,1,0,5433.12,0.386283,0.385988,-0.148171,7,1.46963,10,-5.71923e-05,-3.82924,-0.666754,-0.0884883,0.386053,
2,0,0,1,0,5433.92,0.382287,0.38197,-0.149958,7,1.46949,10,-5.72794e-05,-3.82403,-1.34668,-0.0438115,0.382036,
2,0,0,1,0,5434.72,0.378292,0.37798,-0.152432,7,1.46936,10,-5.76164e-05,-3.81692,-1.05207,-0.0560798,0.378047,
2,0,0,1,0,5435.51,0.374297,0.373991,-0.154072,7,1.46922,10,-5.76215e-05,-3.81228,-0.332958,-0.1772,0.374059,
2,0,0,1,0,5436.31,0.370303,0.369977,-0.158289,7,1.46908,10,-5.85634e-05,-3.80055,-0.676936,-0.0871574,0.370047,
2,0,0,1,0,5437.11,0.366307,0.366014,-0.159761,7,1.46894,10,-5.84749e-05,-3.79653,-0.711214,-0.0829567,0.366085,
2,0,0,0,0,5437.91,0.362312,0.362024,-0.162349,7,1.46879,10,-5.87744e-05,-3.78955,-0.465781,-0.126669,0.362096,
2,0,0,1,0,5438.71,0.358316,0.358024,-0.163693,7,1.46865,10,-5.86059e-05,-3.78597,-0.535889,-0.110097,0.358096,
2,0,0,1,0,5439.51,0.354321,0.354023,-0.167259,7,1.4685,10,-5.92136e-05,-3.77661,-0.751712,-0.0784875,0.354097,
2,0,0,1,0,5440.31,0.350327,0.350028,-0.168587,7,1.46835,10,-5.90102e-05,-3.77318,-0.61568,-0.095829,0.350102,
2,0,0,1,0,5441.11,0.346331,0.34599,-0.171071,7,1.4682,10,-5.91889e-05,-3.76682,-19.3174,-0.00305425,0.346065,
2,0,0,0,0,5441.91,0.342336,0.34204,-0.175054,7,1.46804,10,-5.98754e-05,-3.75683,-0.406264,-0.145226,0.342117,
2,0,0,1,0,5442.71,0.338341,0.338026,-0.17563,7,1.46789,10,-5.93675e-05,-3.7554,-0.718693,-0.0820934,0.338103,
2,0,0,1,0,5443.5,0.334345,0.334058,-0.177897,7,1.46773,10,-5.94277e-05,-3.74983,-0.565998,-0.104241,0.334136,
2,0,0,1,0,5444.3,0.33035,0.330014,-0.181863,7,1.46757,10,-6.00172e-05,-3.74026,-0.739548,-0.0797785,0.330094,
2,0,0,1,0,5445.1,0.326355,0.32604,-0.183089,7,1.46741,10,-5.96943e-05,-3.73734,-0.758977,-0.0777362,0.326121,
2,0,0,0,0,5445.9,0.32236,0.32207,-0.185618,7,1.46725,10,-5.97819e-05,-3.73138,-0.661743,-0.0891585,0.322152,
2,0,0,1,0,5446.7,0.318365,0.318078,-0.189052,7,1.46708,10,-6.01334e-05,-3.72342,-0.606643,-0.0972566,0.318161,
2,0,0,0,0,5447.5,0.31437,0.314103,-0.191138,7,1.46691,10,-6.00369e-05,-3.71865,-1.35931,-0.0434043,0.314187,
2,0,0,1,0,5448.3,0.310374,0.310101,-0.19354,7,1.46674,10,-6.00171e-05,-3.71323,-0.470615,-0.125368,0.310186,
2,0,0,1,0,5449.1,0.306379,0.306095,-0.195668,7,1.46657,10,-5.98931e-05,-3.70848,-0.697361,-0.0846047,0.306181,
2,0,0,1,0,5449.9,0.302385,0.302101,-0.199175,7,1.4664,10,-6.0171e-05,-3.70076,-0.699254,-0.0843756,0.302188,
2,0,0,1,0,5450.7,0.298389,0.298059,-0.20167,7,1.46622,10,-6.01096e-05,-3.69536,-0.756191,-0.0780226,0.298148,
2,0,0,0,0,5451.5,0.294394,0.294103,-0.202225,7,1.46605,10,-5.9475e-05,-3.69416,-0.691017,-0.0853814,0.294192,
2,0,0,1,0,5452.29,0.290398,0.2901,-0.207245,7,1.46586,10,-6.01218e-05,-3.68352,-0.86465,-0.0682357,0.290192,
2,0,0,1,0,5453.09,0.286403,0.286107,-0.208528,7,1.46568,10,-5.96613e-05,-3.68084,-0.485807,-0.121447,0.286199,
2,0,0,1,0,5453.89,0.282408,0.282097,-0.212885,7,1.4655,10,-6.00543e-05,-3.67185,-18.0377,-0.00327094,0.282191,
2,0,0,1,0,5454.69,0.278414,0.278108,-0.215209,7,1.46531,10,-5.98513e-05,-3.66714,-0.442979,-0.133189,0.278203,
2,0,0,0,0,5455.49,0.274418,0.274115,-0.216955,7,1.46512,10,-5.94708e-05,-3.66363,-0.558761,-0.105591,0.274211,
2,0,0,1,0,5456.29,0.270423,0.270141,-0.219723,7,1.46493,10,-5.93563e-05,-3.65812,-0.753599,-0.078291,0.270238,
2,0,0,1,0,5457.09,0.266427,0.266114,-0.223849,7,1.46474,10,-5.95693e-05,-3.65005,-0.731163,-0.0806934,0.266213,
2,0,0,1,0,5457.89,0.262432,0.262131,-0.226662,7,1.46454,10,-5.9415e-05,-3.64462,-2.153,-0.0274037,0.26223,
2,0,0,1,0,5458.69,0.258437,0.258122,-0.228513,7,1.46434,10,-5.89844e-05,-3.64109,-0.690708,-0.0854196,0.258223,
2,0,0,0,0,5459.49,0.254442,0.254096,-0.230178,7,1.46414,10,-5.84873e-05,-3.63794,-0.620858,-0.0950298,0.254197,
2,0,0,1,0,5460.28,0.250447,0.250149,-0.233292,7,1.46394,10,-5.83578e-05,-3.6321,-3.57563,-0.0165006,0.250252,
2,0,0,0,0,5461.08,0.246452,0.246158,-0.236906,7,1.46374,10,-5.83163e-05,-3.62542,-0.569369,-0.103623,0.246262,
2,0,0,1,0,5461.88,0.242456,0.24214,-0.238857,7,1.46353,10,-5.78368e-05,-3.62186,-0.74708,-0.0789741,0.242245,
2,0,0,1,0,5462.68,0.238461,0.238143,-0.241068,7,1.46332,10,-5.74086e-05,-3.61786,-0.789296,-0.0747502,0.238249,
2,0,0,1,0,5463.48,0.234467,0.234145,-0.244725,7,1.46311,10,-5.7301e-05,-3.61132,-0.764051,-0.07722,0.234252,
2,0,0,1,0,5464.28,0.230471,0.23017,-0.246815,7,1.4629,10,-5.68094e-05,-3.60763,-0.690485,-0.0854472,0.230279,
2,0,0,0,0,5465.08,0.226476,0.226191,-0.250499,7,1.46269,10,-5.66606e-05,-3.60119,-0.95292,-0.061915,0.226301,
2,0,0,1,0,5465.88,0.222481,0.222244,-0.253698,7,1.46247,10,-5.63829e-05,-3.59568,-0.687503,-0.0858178,0.222356,
2,0,0,1,0,5466.68,0.218485,0.218196,-0.257789,7,1.46225,10,-5.62483e-05,-3.58874,-1.96292,-0.0300572,0.218309,
2,0,0,1,0,5467.48,0.21449,0.214213,-0.259873,7,1.46203,10,-5.56683e-05,-3.58524,-0.484365,-0.121809,0.214327,
2,0,0,1,0,5468.27,0.210496,0.210199,-0.263936,7,1.4618,10,-5.54789e-05,-3.5785,-0.536501,-0.109972,0.210315,
2,0,0,0,0,5469.07,0.2065,0.20617,-0.268277,7,1.46157,10,-5.53106e-05,-3.57142,-0.65024,-0.0907358,0.206288,
2,0,0,1,0,5469.87,0.202505,0.202218,-0.270538,7,1.46134,10,-5.47076e-05,-3.56777,-0.607715,-0.0970851,0.202337,
2,0,0,1,0,5470.67,0.198509,0.198155,-0.27512,7,1.46111,10,-5.45163e-05,-3.56048,-0.692979,-0.0851397,0.198276,
2,0,0,1,0,5471.47,0.194514,0.194187,-0.28014,7,1.46087,10,-5.43997e-05,-3.55262,-0.467168,-0.126293,0.19431,
2,0,0,1,0,5472.27,0.190519,0.190174,-0.284552,7,1.46063,10,-5.41144e-05,-3.54584,-0.454353,-0.129855,0.190299,
2,0,0,0,0,5473.07,0.186524,0.186248,-0.291167,7,1.46038,10,-5.42292e-05,-3.53586,-0.538777,-0.109507,0.186376,
2,0,0,1,0,5473.87,0.182529,0.182177,-0.299142,7,1.46013,10,-5.44968e-05,-3.52412,-0.279324,-0.211224,0.182309,
2,0,0,0,0,5474.67,0.178534,0.178176,-0.307245,7,1.45987,10,-5.47438e-05,-3.51251,-0.293688,-0.200893,0.178311,
2,0,0,1,0,5475.47,0.174538,0.174245,-0.320461,7,1.4596,10,-5.58388e-05,-3.49422,-0.243021,-0.242777,0.174386,
2,0,0,1,0,5476.27,0.170543,0.1702,-0.33216,7,1.45932,10,-5.65337e-05,-3.47865,-0.188015,-0.313804,0.170346,
2,0,0,1,0,5477.06,0.166549,0.166199,-0.348013,7,1.45903,10,-5.78395e-05,-3.4584,-0.183092,-0.322242,0.166352,
2,0,0,1,0,5477.86,0.162553,0.162251,-0.370012,7,1.45873,10,-6.00349e-05,-3.43178,-0.141419,-0.417199,0.162414,
2,0,0,0,0,5478.66,0.158558,0.158278,-0.395763,7,1.45841,10,-6.26404e-05,-3.40256,-0.121554,-0.485381,0.158452,
2,0,0,1,0,5479.46,0.154563,0.154266,-0.432679,7,1.45806,10,-6.67477e-05,-3.36383,-0.108162,-0.54548,0.154456,
2,0,0,1,0,5480.26,0.150567,0.150263,-0.478742,7,1.45768,10,-7.19372e-05,-3.3199,-0.0788707,-0.74806,0.150474,
2,0,0,1,0,5481.06,0.146572,0.146274,-0.534816,7,1.45726,10,-7.82297e-05,-3.2718,-0.0770694,-0.765543,0.146509,
2,0,0,1,0,5481.86,0.142578,0.142301,-0.607355,7,1.45679,10,-8.64271e-05,-3.21656,-0.076311,-0.773152,0.142568,
2,0,0,0,0,5482.66,0.138582,0.138263,-0.673266,7,1.45626,10,-9.3088e-05,-3.17181,-0.0913502,-0.645866,0.13856,
2,0,0,1,0,5483.46,0.134587,0.134274,-0.736931,7,1.45568,10,-9.89508e-05,-3.13257,-0.131707,-0.447962,0.134598,
2,0,0,1,0,5484.26,0.130591,0.130256,-0.782138,7,1.45505,10,-0.000101878,-3.10672,-0.198974,-0.29652,0.1306,
2,0,0,1,0,5485.05,0.126596,0.126293,-0.801859,7,1.4544,10,-0.00010127,-3.0959,-0.475671,-0.124035,0.126646,
2,0,0,1,0,5485.85,0.122602,0.122269,-0.81305,7,1.45373,10,-9.94112e-05,-3.08988,3.52595,0.0167331,0.122627,
2,0,0,1,0,5486.65,0.118607,0.118269,-0.807399,7,1.45307,10,-9.54902e-05,-3.09291,1.42642,0.0413623,0.118624,
2,0,0,1,0,5487.45,0.114611,0.114277,-0.797011,7,1.45241,10,-9.108e-05,-3.09854,0.504452,0.116959,0.114628,
2,0,0,0,0,5488.25,0.110616,0.110277,-0.782665,7,1.45176,10,-8.63101e-05,-3.10642,0.524971,0.112387,0.110622,
2,0,0,1,0,5489.05,0.10662,0.106319,-0.765334,7,1.45113,10,-8.13698e-05,-3.11615,0.416875,0.141529,0.106656,
2,0,0,1,0,5489.85,0.102625,0.10231,-0.748298,7,1.4505,10,-7.65587e-05,-3.12593,0.3247,0.181706,0.10264,
2,0,0,1,0,5490.65,0.0986305,0.0982948,-0.728131,7,1.4499,10,-7.15715e-05,-3.13779,0.371938,0.158628,0.0986152,
2,0,0,1,0,5491.45,0.0946351,0.0943297,-0.705588,7,1.44931,10,-6.6558e-05,-3.15145,0.350592,0.168287,0.0946402,
2,0,0,0,0,5492.25,0.0906399,0.0903256,-0.690821,7,1.44873,10,-6.23989e-05,-3.16063,0.322289,0.183066,0.0906296,
2,0,0,1,0,5493.04,0.0866448,0.0863078,-0.676255,7,1.44817,10,-5.8366e-05,-3.16989,0.555458,0.106219,0.0866053,
2,0,0,1,0,5493.84,0.0826492,0.0823383,-0.664261,7,1.44762,10,-5.46941e-05,-3.17766,0.44215,0.133439,0.0826305,
2,0,0,1,0,5494.64,0.0786544,0.0783462,-0.652835,7,1.44708,10,-5.11471e-05,-3.1852,0.796923,0.0740347,0.0786335,
2,0,0,1,0,5495.44,0.0746596,0.0743253,-0.642022,7,1.44654,10,-4.77185e-05,-3.19245,0.593757,0.0993673,0.0746078,
2,0,0,0,0,5496.24,0.0706641,0.0703476,-0.632604,7,1.44602,10,-4.45022e-05,-3.19887,0.553233,0.106646,0.0706259,
2,0,0,1,0,5497.04,0.0666689,0.066334,-0.622226,7,1.4455,10,-4.12747e-05,-3.20605,0.692459,0.0852036,0.0666077,
2,0,0,0,0,5497.84,0.0626737,0.0623702,-0.610466,7,1.44499,10,-3.80748e-05,-3.21434,0.435201,0.135569,0.0626388,
2,0,0,1,0,5498.64,0.0586783,0.0583553,-0.602633,7,1.44449,10,-3.51668e-05,-3.21995,0.441811,0.133541,0.0586204,
2,0,0,1,0,5499.44,0.0546835,0.0543674,-0.589687,7,1.44399,10,-3.20597e-05,-3.22938,0.598075,0.0986499,0.0546268,
2,0,0,1,0,5500.24,0.0506886,0.0503602,-0.579801,7,1.44351,10,-2.91989e-05,-3.23672,0.45861,0.12865,0.0506154,
2,0,0,1,0,5501.04,0.046693,0.0464269,-0.565686,7,1.44303,10,-2.62631e-05,-3.24742,0.426884,0.138211,0.0466758,
2,0,0,0,0,5501.83,0.0426979,0.0423857,-0.55547,7,1.44257,10,-2.3544e-05,-3.25534,0.478892,0.123201,0.0426301,
2,0,0,1,0,5502.63,0.0387022,0.0383866,-0.541932,7,1.44211,10,-2.0803e-05,-3.26605,0.352974,0.167151,0.0386251,
2,0,0,1,0,5503.43,0.0347074,0.0344007,-0.529707,7,1.44167,10,-1.82223e-05,-3.27596,0.45109,0.130794,0.0346338,
2,0,0,1,0,5504.23,0.0307126,0.0304045,-0.518677,7,1.44123,10,-1.57701e-05,-3.2851,0.502392,0.117438,0.0306327,
2,0,0,1,0,5505.03,0.0267172,0.0264277,-0.509315,7,1.44081,10,-1.346e-05,-3.29301,0.397337,0.148489,0.0266518,
2,0,0,0,0,5505.83,0.022722,0.0224458,-0.501653,7,1.44039,10,-1.126e-05,-3.2996,1.12845,0.0522841,0.0226666,
2,0,0,1,0,5506.63,0.0187268,0.0183802,-0.496736,7,1.43997,10,-9.13013e-06,-3.30387,0.780098,0.0756315,0.0185988,
2,0,0,1,0,5507.43,0.0147313,0.014418,-0.491724,7,1.43956,10,-7.08967e-06,-3.30828,0.963965,0.0612056,0.0146343,
2,0,0,1,0,5508.23,0.0107365,0.0104112,-0.489075,7,1.43915,10,-5.09185e-06,-3.31062,2.75288,0.0214321,0.0106264,
2,0,0,1,0,5509.03,0.00674163,0.00645735,-0.486477,7,1.43875,10,-3.14135e-06,-3.31294,260.883,0.000226155,0.0066714,
2,0,0,0,0,5509.82,0.00274612,0.00241795,-0.487219,7,1.43834,10,-1.17807e-06,-3.31228,-1.45963,-0.0404213,0.00263232,
2,0,0,1,0,5510.32,0.000274105,-8.7925e-05,-0.488972,7,1.43809,10,4.29928e-08,-3.31072, , ,0.000127223,