File: Figure_codes/Fig_3-5/workspace_calculate_alpha_eff/20221101_1-115_003_TrumpetPlot_ParaChange_from10_every3_16_CV_C01_48.csv
mode,ox/red,error,control changes,counter inc.,time/s,control/V,Ewe/V,<I>/mA,cycle number,(Q-Qo)/C,I Range,P/W,log(|I|),Tafel slope mV/dec,alpha_eff,E-IR/V,
2,0,0,1,0,32752.2,2.44065e-05,-0.000248974,-0.0491475,49,0.0000000E+000,10,1.22365e-08,-4.3085, , ,-0.000227349,
2,1,0,1,0,32753,0.00379485,0.00347942,0.207232,49,0.000141441,10,7.21047e-07,-3.68354,0.0508787,1.15962,0.00338823,
2,1,0,0,0,32753.8,0.00779002,0.00745276,0.23014,49,0.000330304,10,1.71518e-06,-3.63801,0.104386,0.565212,0.0073515,
2,1,0,1,0,32754.6,0.0117852,0.0114462,0.24498,49,0.000534401,10,2.8041e-06,-3.61087,0.166085,0.35524,0.0113385,
2,1,0,1,0,32755.4,0.0157806,0.0154517,0.260472,49,0.000750718,10,4.02474e-06,-3.58424,0.161317,0.36574,0.0153371,
2,1,0,1,0,32756.2,0.0197754,0.0194522,0.273075,49,0.00097761,10,5.31192e-06,-3.56372,0.195744,0.301415,0.0193321,
2,1,0,1,0,32757,0.0237704,0.0234403,0.288061,49,0.00121583,10,6.75224e-06,-3.54052,0.189181,0.311871,0.0233136,
2,1,0,0,0,32757.8,0.0277659,0.0274467,0.301836,49,0.00146501,10,8.28441e-06,-3.52023,0.181341,0.325354,0.0273139,
2,1,0,1,0,32758.6,0.0317611,0.0314699,0.315324,49,0.00172531,10,9.92321e-06,-3.50124,0.207301,0.28461,0.0313312,
2,1,0,1,0,32759.4,0.0357567,0.0354395,0.329653,49,0.00199679,10,1.16827e-05,-3.48194,0.246297,0.239548,0.0352944,
2,1,0,1,0,32760.1,0.0397516,0.0394252,0.344891,49,0.00227937,10,1.35974e-05,-3.46232,0.201458,0.292865,0.0392734,
2,1,0,1,0,32760.9,0.0437465,0.0434397,0.356365,49,0.00257363,10,1.54804e-05,-3.4481,0.247311,0.238566,0.0432829,
2,1,0,1,0,32761.7,0.0477413,0.0473692,0.371082,49,0.00287802,10,1.75779e-05,-3.43053,0.279797,0.210867,0.047206,
2,1,0,1,0,32762.5,0.0517369,0.0513896,0.381799,49,0.00319256,10,1.96205e-05,-3.41816,0.253578,0.23267,0.0512217,
2,1,0,0,0,32763.3,0.0557321,0.0554171,0.394455,49,0.00351727,10,2.18596e-05,-3.404,0.390964,0.150909,0.0552435,
2,1,0,1,0,32764.1,0.0597277,0.0593886,0.405339,49,0.00385057,10,2.40725e-05,-3.39218,0.366046,0.161182,0.0592102,
2,1,0,1,0,32764.9,0.0637226,0.0634446,0.414356,49,0.00419222,10,2.62887e-05,-3.38263,0.400403,0.147352,0.0632623,
2,1,0,1,0,32765.7,0.0677174,0.0674406,0.423848,49,0.00454214,10,2.85846e-05,-3.37279,0.546975,0.107866,0.0672542,
2,1,0,1,0,32766.5,0.0717128,0.0713783,0.432589,49,0.00489833,10,3.08775e-05,-3.36392,0.399359,0.147737,0.071188,
2,1,0,0,0,32767.3,0.075708,0.0754036,0.439128,49,0.00526145,10,3.31118e-05,-3.35741,0.537286,0.109811,0.0752104,
2,1,0,1,0,32768.1,0.0797031,0.0793907,0.448493,49,0.00563023,10,3.56062e-05,-3.34824,0.634068,0.09305,0.0791934,
2,1,0,1,0,32768.9,0.0836986,0.0833421,0.455715,49,0.00600493,10,3.79803e-05,-3.34131,0.418869,0.140856,0.0831416,
2,1,0,1,0,32769.7,0.0876935,0.0873977,0.465699,49,0.00638747,10,4.0701e-05,-3.33189,0.40269,0.146515,0.0871928,
2,1,0,1,0,32770.5,0.0916883,0.091373,0.480438,49,0.00677895,10,4.38991e-05,-3.31836,0.264539,0.223029,0.0911616,
2,1,0,0,0,32771.3,0.0956838,0.0953414,0.495502,49,0.00718322,10,4.72418e-05,-3.30495,0.231621,0.254727,0.0951233,
2,1,0,1,0,32772.1,0.099679,0.0993508,0.518336,49,0.00760286,10,5.1497e-05,-3.28539,0.241405,0.244403,0.0991227,
2,1,0,0,0,32772.9,0.103674,0.103346,0.541229,49,0.00803961,10,5.5934e-05,-3.26662,0.20013,0.294809,0.103108,
2,1,0,1,0,32773.7,0.10767,0.107357,0.562045,49,0.00849519,10,6.03395e-05,-3.25023,0.265305,0.222385,0.10711,
2,1,0,1,0,32774.5,0.111664,0.111349,0.582083,49,0.00896643,10,6.48143e-05,-3.23502,0.278286,0.212012,0.111093,
2,1,0,1,0,32775.3,0.115659,0.11534,0.595558,49,0.00945165,10,6.86918e-05,-3.22508,0.361698,0.16312,0.115078,
2,1,0,1,0,32776.1,0.119655,0.119295,0.610566,49,0.00994897,10,7.28374e-05,-3.21427,0.588792,0.100205,0.119026,
2,1,0,0,0,32776.9,0.12365,0.123299,0.621022,49,0.0104552,10,7.65714e-05,-3.20689,0.515661,0.114416,0.123026,
2,1,0,1,0,32777.7,0.127646,0.12732,0.630503,49,0.0109705,10,8.0276e-05,-3.20031,0.71565,0.0824426,0.127043,
2,1,0,1,0,32778.5,0.131641,0.131343,0.633841,49,0.0114917,10,8.32509e-05,-3.19802,-0.903587,-0.0652953,0.131064,
2,1,0,1,0,32779.3,0.135635,0.135314,0.623887,49,0.01201,10,8.44208e-05,-3.20489,-0.318653,-0.185154,0.13504,
2,1,0,1,0,32780.1,0.139631,0.139331,0.591076,49,0.0125115,10,8.23553e-05,-3.22836,-0.124292,-0.474687,0.139071,
2,1,0,0,0,32780.9,0.143626,0.143297,0.540996,49,0.0129783,10,7.75232e-05,-3.26681,-0.089198,-0.66145,0.143059,
2,1,0,1,0,32781.7,0.147621,0.147333,0.477689,49,0.0133989,10,7.03793e-05,-3.32086,-0.0723998,-0.81492,0.147123,
2,1,0,1,0,32782.5,0.151617,0.15133,0.423797,49,0.0137718,10,6.41332e-05,-3.37284,-0.0818031,-0.721244,0.151144,
2,1,0,1,0,32783.3,0.155612,0.155308,0.385158,49,0.0141068,10,5.98182e-05,-3.41436,-0.110579,-0.533554,0.155139,
2,1,0,1,0,32784.1,0.159606,0.159235,0.357262,49,0.0144159,10,5.68887e-05,-3.44701,-0.161687,-0.364903,0.159078,
2,1,0,0,0,32784.9,0.163602,0.163237,0.340532,49,0.0147079,10,5.55875e-05,-3.46784,-0.197917,-0.298105,0.163087,
2,1,0,1,0,32785.7,0.167597,0.167303,0.328914,49,0.0149879,10,5.50283e-05,-3.48292,-0.363271,-0.162413,0.167158,
2,1,0,0,0,32786.5,0.171592,0.171282,0.318201,49,0.0152603,10,5.45022e-05,-3.4973,-0.398365,-0.148105,0.171142,
2,1,0,1,0,32787.3,0.175588,0.175241,0.313935,49,0.0155266,10,5.50143e-05,-3.50316,-0.62797,-0.0939535,0.175103,
2,1,0,1,0,32788.1,0.179582,0.17924,0.309625,49,0.0157887,10,5.54971e-05,-3.50916,-0.633271,-0.0931671,0.179103,
2,1,0,1,0,32788.9,0.183577,0.183216,0.305981,49,0.0160477,10,5.60605e-05,-3.51431,-0.928628,-0.0635346,0.183081,
2,1,0,1,0,32789.7,0.187573,0.18725,0.303014,49,0.0163038,10,5.67393e-05,-3.51854,-0.899674,-0.0655793,0.187117,
2,1,0,0,0,32790.5,0.191568,0.191272,0.299299,49,0.0165575,10,5.72476e-05,-3.52389,-0.688986,-0.0856331,0.19114,
2,1,0,1,0,32791.3,0.195563,0.195231,0.298421,49,0.0168095,10,5.8261e-05,-3.52517,-1.4915,-0.0395575,0.195099,
2,1,0,1,0,32792.1,0.199559,0.199263,0.295588,49,0.0170597,10,5.88997e-05,-3.52931,-1.68573,-0.0349997,0.199132,
2,1,0,1,0,32792.9,0.203553,0.20321,0.293406,49,0.0173086,10,5.96231e-05,-3.53253,-5.92504,-0.00995774,0.203081,
2,1,0,1,0,32793.7,0.207548,0.207237,0.2924,49,0.0175563,10,6.05962e-05,-3.53402,-1.41883,-0.0415834,0.207109,
2,1,0,0,0,32794.5,0.211544,0.211209,0.291399,49,0.0178024,10,6.1546e-05,-3.53551,-1.53753,-0.0383732,0.211081,
2,1,0,1,0,32795.3,0.215539,0.215235,0.289928,49,0.0180474,10,6.24027e-05,-3.53771,-1.83422,-0.0321662,0.215108,
2,1,0,1,0,32796.1,0.219535,0.219197,0.289226,49,0.0182911,10,6.33976e-05,-3.53876,-3.86511,-0.0152648,0.21907,
2,1,0,1,0,32796.9,0.223529,0.223227,0.288003,49,0.018534,10,6.42899e-05,-3.5406,-9.20993,-0.00640613,0.2231,
2,1,0,1,0,32797.7,0.227524,0.227215,0.286689,49,0.018776,10,6.51401e-05,-3.54259,-0.926003,-0.0637147,0.227089,
2,1,0,0,0,32798.5,0.23152,0.231224,0.285698,49,0.019017,10,6.60603e-05,-3.54409,-4.57034,-0.0129093,0.231098,
2,1,0,1,0,32799.3,0.235515,0.235194,0.283247,49,0.0192575,10,6.6618e-05,-3.54783,-2.86039,-0.0206266,0.235069,
2,1,0,0,0,32800.1,0.23951,0.239188,0.28389,49,0.0194969,10,6.7903e-05,-3.54685,-154.283,-0.000382414,0.239063,
2,1,0,1,0,32800.9,0.243506,0.243188,0.282317,49,0.0197356,10,6.86562e-05,-3.54926,-2.72846,-0.0216239,0.243064,
2,1,0,1,0,32801.7,0.2475,0.247164,0.281705,49,0.0199739,10,6.96273e-05,-3.55021,-1.68736,-0.034966,0.24704,
2,1,0,1,0,32802.5,0.251495,0.25116,0.280978,49,0.0202111,10,7.05704e-05,-3.55133,-20.8595,-0.00282844,0.251037,
2,1,0,1,0,32803.3,0.255491,0.255173,0.279242,49,0.0204479,10,7.12551e-05,-3.55402,-2.96483,-0.0199,0.25505,
2,1,0,0,0,32804.1,0.259486,0.259218,0.279568,49,0.020684,10,7.24688e-05,-3.55351,-0.960312,-0.0614384,0.259095,
2,1,0,1,0,32804.9,0.263481,0.263201,0.278042,49,0.0209189,10,7.31807e-05,-3.55589,23.0277,0.00256213,0.263078,
2,1,0,1,0,32805.7,0.267477,0.267186,0.2768,49,0.0211531,10,7.3957e-05,-3.55783,-1.97132,-0.0299293,0.267064,
2,1,0,1,0,32806.5,0.271471,0.271155,0.275662,49,0.0213865,10,7.47472e-05,-3.55962,-2.75329,-0.0214289,0.271034,
2,1,0,1,0,32807.3,0.275466,0.275142,0.274902,49,0.0216191,10,7.56371e-05,-3.56082,-3.44965,-0.0171032,0.275021,
2,1,0,0,0,32808.1,0.279462,0.279145,0.274597,49,0.021851,10,7.66523e-05,-3.5613,-2.50559,-0.0235474,0.279024,
2,1,0,1,0,32808.9,0.283457,0.283155,0.274116,49,0.022082,10,7.76173e-05,-3.56207,-339.042,-0.00017402,0.283035,
2,1,0,0,0,32809.7,0.287452,0.287131,0.273027,49,0.0223123,10,7.83946e-05,-3.56379,-1.4889,-0.0396265,0.287011,
2,1,0,1,0,32810.5,0.291448,0.291125,0.271336,49,0.0225421,10,7.89928e-05,-3.56649,-1.64767,-0.0358081,0.291006,
2,1,0,1,0,32811.3,0.295442,0.295098,0.269879,49,0.0227709,10,7.96408e-05,-3.56883,-1156.2,-5.10294e-05,0.29498,
2,1,0,1,0,32812.1,0.299437,0.299137,0.268529,49,0.0229992,10,8.0327e-05,-3.57101,-2.10011,-0.0280937,0.299019,
2,1,0,1,0,32812.9,0.303433,0.303135,0.269098,49,0.0232265,10,8.15731e-05,-3.57009,-4.18893,-0.0140847,0.303017,
2,1,0,0,0,32813.7,0.307428,0.307084,0.268031,49,0.0234533,10,8.2308e-05,-3.57182,-7.19923,-0.00819532,0.306966,
2,1,0,1,0,32814.5,0.311424,0.311157,0.268064,49,0.0236799,10,8.341e-05,-3.57176,-2.63748,-0.0223698,0.311039,
2,1,0,1,0,32815.3,0.315418,0.31512,0.267335,49,0.0239053,10,8.42426e-05,-3.57294,23.9852,0.00245985,0.315003,
2,1,0,1,0,32816.1,0.319413,0.319106,0.265554,49,0.02413,10,8.47398e-05,-3.57585,-1.89169,-0.031189,0.318989,
2,1,0,1,0,32816.9,0.323409,0.323098,0.2654,49,0.0243545,10,8.575e-05,-3.5761,-1.09177,-0.0540407,0.322981,
2,1,0,0,0,32817.7,0.327404,0.327093,0.265199,49,0.0245782,10,8.67449e-05,-3.57643,1.92283,0.030684,0.326976,
2,1,0,1,0,32818.5,0.331399,0.331074,0.2626,49,0.0248014,10,8.69399e-05,-3.58071,-1.60172,-0.0368354,0.330958,
2,1,0,1,0,32819.3,0.335395,0.335097,0.263369,49,0.0250241,10,8.82542e-05,-3.57944,-2.11562,-0.0278879,0.334982,
2,1,0,1,0,32820.1,0.339389,0.339077,0.262486,49,0.025246,10,8.90028e-05,-3.58089,234.653,0.000251435,0.338962,
2,1,0,1,0,32820.9,0.343384,0.343074,0.262913,49,0.0254675,10,9.01988e-05,-3.58019,-7.31721,-0.00806319,0.342958,
2,1,0,0,0,32821.7,0.34738,0.347065,0.263066,49,0.0256885,10,9.1301e-05,-3.57994,-37.7277,-0.00156384,0.346949,
2,1,0,1,0,32822.5,0.351375,0.351068,0.260834,49,0.0259091,10,9.15705e-05,-3.58364,-4.31675,-0.0136677,0.350953,
2,1,0,0,0,32823.3,0.35537,0.355079,0.260113,49,0.0261292,10,9.23609e-05,-3.58484,-1.05395,-0.0559797,0.354965,
2,1,0,1,0,32824.1,0.359366,0.359087,0.259468,49,0.0263488,10,9.31715e-05,-3.58592,1.73473,0.034011,0.358973,
2,1,0,1,0,32824.9,0.36336,0.363071,0.258477,49,0.0265681,10,9.38453e-05,-3.58758,-1.6832,-0.0350522,0.362957,
2,1,0,1,0,32825.7,0.367355,0.367089,0.258434,49,0.0267866,10,9.48684e-05,-3.58765,-28.6684,-0.00205801,0.366975,
2,1,0,1,0,32826.5,0.371351,0.371034,0.258358,49,0.0270046,10,9.58596e-05,-3.58778,-26.0715,-0.00226301,0.370921,
2,1,0,0,0,32827.3,0.375346,0.375034,0.258595,49,0.0272222,10,9.69818e-05,-3.58738,-1.8797,-0.0313879,0.37492,
2,1,0,1,0,32828.1,0.379342,0.379014,0.258279,49,0.0274393,10,9.78915e-05,-3.58791,-5.57113,-0.0105903,0.378901,
2,1,0,1,0,32828.9,0.383336,0.38301,0.256971,49,0.0276561,10,9.84223e-05,-3.59012,-8.25851,-0.00714415,0.382897,
2,1,0,1,0,32829.7,0.387331,0.387035,0.256772,49,0.0278728,10,9.93795e-05,-3.59045,-2.51809,-0.0234305,0.386922,
2,1,0,1,0,32830.5,0.391327,0.39104,0.25691,49,0.028089,10,0.000100462,-3.59022,2.91007,0.0202744,0.390927,
2,1,0,0,0,32831.3,0.395322,0.394996,0.255309,49,0.0283049,10,0.000100846,-3.59293,-2.85364,-0.0206753,0.394884,
2,1,0,1,0,32832.1,0.399317,0.399038,0.256589,49,0.0285202,10,0.000102389,-3.59076,5.16743,0.0114177,0.398925,
2,1,0,1,0,32832.9,0.403313,0.403002,0.255595,49,0.0287354,10,0.000103005,-3.59245,-3.18455,-0.0185269,0.402889,
2,1,0,1,0,32833.7,0.407307,0.407065,0.254785,49,0.0289502,10,0.000103714,-3.59383,-2.80515,-0.0210328,0.406953,
2,1,0,1,0,32834.5,0.411302,0.410972,0.256268,49,0.0291647,10,0.000105319,-3.59131,-2.75153,-0.0214426,0.410859,
2,1,0,0,0,32835.3,0.415298,0.415003,0.254896,49,0.0293787,10,0.000105783,-3.59364,2.11672,0.0278733,0.414891,
2,1,0,1,0,32836.1,0.419293,0.418995,0.254269,49,0.0295926,10,0.000106538,-3.59471,-1.49899,-0.03936,0.418884,
2,1,0,0,0,32836.9,0.423288,0.423009,0.254306,49,0.0298058,10,0.000107574,-3.59464,3.82335,0.0154315,0.422897,
2,1,0,1,0,32837.7,0.427283,0.426988,0.25351,49,0.0300191,10,0.000108246,-3.596,-2.29207,-0.025741,0.426877,
2,1,0,1,0,32838.5,0.431278,0.430971,0.25299,49,0.0302319,10,0.000109031,-3.5969,5.99051,0.00984892,0.430859,
2,1,0,1,0,32839.3,0.435273,0.434962,0.253179,49,0.0304446,10,0.000110123,-3.59657,-19.6208,-0.00300701,0.43485,
2,1,0,1,0,32840.1,0.439269,0.438967,0.252969,49,0.0306574,10,0.000111045,-3.59693,-3.33333,-0.0177,0.438856,
2,1,0,0,0,32840.9,0.443264,0.442949,0.253137,49,0.0308698,10,0.000112127,-3.59664,3.54752,0.0166314,0.442838,
2,1,0,1,0,32841.7,0.447259,0.446977,0.252408,49,0.0310822,10,0.000112821,-3.5979,-4.29383,-0.0137407,0.446866,
2,1,0,1,0,32842.5,0.451254,0.450985,0.252639,49,0.0312947,10,0.000113936,-3.5975,-7.86151,-0.00750492,0.450874,
2,1,0,1,0,32843.2,0.455249,0.454982,0.253645,49,0.031507,10,0.000115404,-3.59577,2.99483,0.0197006,0.454871,
2,1,0,1,0,32844,0.459244,0.458928,0.253423,49,0.0317199,10,0.000116303,-3.59615,4.89466,0.012054,0.458816,
2,1,0,0,0,32844.8,0.46324,0.462936,0.253782,49,0.0319326,10,0.000117485,-3.59554,2.81491,0.0209598,0.462824,
2,1,0,1,0,32845.6,0.467235,0.46696,0.254609,49,0.0321455,10,0.000118892,-3.59413,20.7477,0.00284368,0.466848,
2,1,0,1,0,32846.4,0.471231,0.470926,0.254394,49,0.0323587,10,0.000119801,-3.59449,7.74232,0.00762045,0.470814,
2,1,0,1,0,32847.2,0.475225,0.474929,0.255593,49,0.0325718,10,0.000121389,-3.59245,6.98648,0.00844488,0.474816,
2,1,0,1,0,32848,0.47922,0.478944,0.255793,49,0.0327853,10,0.000122511,-3.59211,-4.74618,-0.0124311,0.478832,
2,1,0,0,0,32848.8,0.483216,0.482913,0.256039,49,0.0329992,10,0.000123644,-3.59169,9.30075,0.00634358,0.4828,
2,1,0,1,0,32849.6,0.487211,0.486921,0.25613,49,0.0332132,10,0.000124715,-3.59154,3.10367,0.0190098,0.486808,
2,1,0,0,0,32850.4,0.491206,0.490899,0.255803,49,0.0334275,10,0.000125574,-3.59209,2.94904,0.0200065,0.490787,
2,1,0,1,0,32851.2,0.495201,0.494925,0.257645,49,0.0336422,10,0.000127515,-3.58898,3.24854,0.018162,0.494812,
2,1,0,1,0,32852,0.499196,0.498892,0.257958,49,0.0338574,10,0.000128693,-3.58845,2.31344,0.0255031,0.498778,
2,1,0,1,0,32852.8,0.503191,0.502886,0.258297,49,0.0340732,10,0.000129894,-3.58788,3.44963,0.0171033,0.502772,
2,1,0,1,0,32853.6,0.507187,0.506873,0.259957,49,0.0342895,10,0.000131765,-3.5851,4.95939,0.0118966,0.506759,
2,1,0,0,0,32854.4,0.511182,0.510911,0.260572,49,0.0345064,10,0.000133129,-3.58407,1.92962,0.0305759,0.510797,
2,1,0,1,0,32855.2,0.515177,0.514887,0.261251,49,0.0347244,10,0.000134515,-3.58294,2.45156,0.0240663,0.514772,
2,1,0,1,0,32856,0.519173,0.518845,0.26237,49,0.0349429,10,0.00013613,-3.58109,1.64524,0.035861,0.51873,
2,1,0,1,0,32856.8,0.523167,0.522857,0.263335,49,0.0351625,10,0.000137687,-3.57949,2.10993,0.027963,0.522741,
2,1,0,1,0,32857.6,0.527162,0.526857,0.26609,49,0.0353831,10,0.000140192,-3.57497,4.3067,0.0136996,0.52674,
2,1,0,0,0,32858.4,0.531158,0.530861,0.266479,49,0.0356047,10,0.000141463,-3.57434,1.09553,0.0538551,0.530744,
2,1,0,1,0,32859.2,0.535153,0.534843,0.268787,49,0.0358279,10,0.000143759,-3.57059,1.16124,0.0508078,0.534724,
2,1,0,0,0,32860,0.539148,0.538866,0.270321,49,0.0360521,10,0.000145667,-3.56812,1.44507,0.0408286,0.538747,
2,1,0,1,0,32860.8,0.543143,0.542828,0.272369,49,0.0362777,10,0.000147849,-3.56484,1.15349,0.0511489,0.542708,
2,1,0,1,0,32861.6,0.547138,0.546844,0.274149,49,0.0365049,10,0.000149917,-3.56201,2.12705,0.0277379,0.546724,
2,1,0,1,0,32862.4,0.551133,0.550842,0.276542,49,0.0367337,10,0.000152331,-3.55824,0.783328,0.0753197,0.55072,
2,1,0,1,0,32863.2,0.555129,0.554846,0.278792,49,0.0369647,10,0.000154687,-3.55472,0.807352,0.0730784,0.554724,
2,1,0,0,0,32864,0.559124,0.558801,0.282043,49,0.0371976,10,0.000157606,-3.54969,1.1358,0.0519458,0.558677,
2,1,0,1,0,32864.8,0.56312,0.56285,0.284268,49,0.0374323,10,0.00016,-3.54627,0.765182,0.0771058,0.562725,
2,1,0,1,0,32865.6,0.567114,0.566817,0.288369,49,0.0376697,10,0.000163453,-3.54005,0.910051,0.0648315,0.56669,
2,1,0,1,0,32866.4,0.571109,0.570867,0.29105,49,0.0379097,10,0.000166151,-3.53603,0.682692,0.0864226,0.570739,
2,1,0,1,0,32867.2,0.575105,0.574802,0.294826,49,0.0381527,10,0.000169467,-3.53043,0.654934,0.0900854,0.574672,
2,1,0,0,0,32868,0.5791,0.578817,0.300592,49,0.038399,10,0.000173988,-3.52202,0.71294,0.082756,0.578684,
2,1,0,1,0,32868.8,0.583095,0.582783,0.304669,49,0.038649,10,0.000177556,-3.51617,0.521704,0.113091,0.582649,
2,1,0,1,0,32869.6,0.58709,0.586774,0.309527,49,0.0389032,10,0.000181622,-3.5093,0.490092,0.120385,0.586638,
2,1,0,1,0,32870.4,0.591085,0.590817,0.315965,49,0.0391619,10,0.000186677,-3.50036,0.401513,0.146944,0.590678,
2,1,0,1,0,32871.2,0.59508,0.594801,0.322276,49,0.0394257,10,0.00019169,-3.49177,0.418381,0.14102,0.594659,
2,1,0,0,0,32872,0.599076,0.598785,0.330469,49,0.0396953,10,0.00019788,-3.48087,0.384343,0.153509,0.59864,
2,1,0,1,0,32872.8,0.603071,0.602816,0.339609,49,0.0399712,10,0.000204722,-3.46902,0.310813,0.189825,0.602666,
2,1,0,0,0,32873.6,0.607066,0.606773,0.349492,49,0.040255,10,0.000212062,-3.45656,0.300759,0.19617,0.606619,
2,1,0,1,0,32874.4,0.611061,0.610766,0.361635,49,0.0405478,10,0.000220874,-3.44173,0.278864,0.211572,0.610607,
2,1,0,1,0,32875.2,0.615056,0.61475,0.374517,49,0.0408503,10,0.000230234,-3.42653,0.23112,0.255279,0.614585,
2,1,0,1,0,32876,0.619051,0.618748,0.389808,49,0.0411648,10,0.000241193,-3.40915,0.211332,0.279181,0.618577,
2,1,0,1,0,32876.8,0.623047,0.622762,0.408404,49,0.0414926,10,0.000254338,-3.38891,0.197899,0.298132,0.622582,
2,1,0,0,0,32877.6,0.627042,0.626752,0.429441,49,0.041836,10,0.000269153,-3.3671,0.170599,0.345841,0.626563,
2,1,0,1,0,32878.4,0.631037,0.630746,0.453998,49,0.0421975,10,0.000286358,-3.34295,0.16265,0.362741,0.630547,
2,1,0,1,0,32879.2,0.635032,0.634757,0.482174,49,0.0425797,10,0.000306063,-3.3168,0.144647,0.407889,0.634544,
2,1,0,1,0,32880,0.639027,0.638749,0.515493,49,0.0429864,10,0.000329271,-3.28778,0.132128,0.446538,0.638523,
2,1,0,1,0,32880.8,0.643022,0.642743,0.553671,49,0.043422,10,0.000355868,-3.25675,0.123507,0.477707,0.642499,
2,1,0,0,0,32881.6,0.647018,0.646727,0.599546,49,0.0438906,10,0.000387743,-3.22218,0.10876,0.542478,0.646463,
2,1,0,1,0,32882.4,0.651013,0.650755,0.653996,49,0.0443994,10,0.000425591,-3.18442,0.100854,0.585005,0.650467,
2,1,0,1,0,32883.2,0.655008,0.654734,0.71646,49,0.0449549,10,0.000469091,-3.14481,0.0978993,0.60266,0.654418,
2,1,0,1,0,32884,0.659003,0.65871,0.78932,49,0.0455644,10,0.000519933,-3.10275,0.0918008,0.642696,0.658363,
2,1,0,1,0,32884.8,0.662998,0.662671,0.87404,49,0.0462369,10,0.000579201,-3.05847,0.086247,0.684082,0.662287,
2,1,0,0,0,32885.6,0.666994,0.666703,0.97252,49,0.0469827,10,0.000648382,-3.0121,0.0838186,0.703901,0.666275,
2,1,0,1,0,32886.4,0.670989,0.670727,1.08575,49,0.0478128,10,0.000728244,-2.96427,0.0811867,0.72672,0.67025,
2,1,0,0,0,32887.2,0.674984,0.674702,1.21526,49,0.0487397,10,0.000819935,-2.91533,0.0794371,0.742726,0.674167,
2,1,0,1,0,32888,0.67898,0.678655,1.36365,49,0.0497777,10,0.000925447,-2.8653,0.0786322,0.750329,0.678055,
2,1,0,1,0,32888.8,0.682974,0.682682,1.53162,49,0.0509423,10,0.00104561,-2.81485,0.0778856,0.757521,0.682008,
2,1,0,1,0,32889.6,0.686969,0.686689,1.72011,49,0.0522485,10,0.00118118,-2.76445,0.0776415,0.759903,0.685933,
2,1,0,1,0,32890.4,0.690965,0.690738,1.93198,49,0.053715,10,0.00133449,-2.714,0.0774748,0.761538,0.689888,
2,1,0,0,0,32891.2,0.69496,0.694691,2.16532,49,0.0553591,10,0.00150423,-2.66448,0.0787876,0.748848,0.693738,
2,1,0,1,0,32892,0.698955,0.69868,2.42281,49,0.0571994,10,0.00169277,-2.61568,0.0806017,0.731995,0.697614,
2,1,0,1,0,32892.8,0.70295,0.70265,2.70367,49,0.0592554,10,0.00189973,-2.56805,0.0810115,0.728291,0.70146,
2,1,0,1,0,32893.6,0.706945,0.706656,3.01006,49,0.0615463,10,0.00212707,-2.52143,0.0852058,0.692441,0.705332,
2,1,0,1,0,32894.4,0.71094,0.710669,3.34192,49,0.0640913,10,0.002375,-2.476,0.0856062,0.689203,0.709199,
2,1,0,0,0,32895.2,0.714936,0.714663,3.69824,49,0.0669115,10,0.002643,-2.432,0.087265,0.676102,0.713036,
2,1,0,1,0,32896,0.718931,0.718664,4.08077,49,0.0700261,10,0.0029327,-2.38926,0.0917329,0.643172,0.716869,
2,1,0,1,0,32896.8,0.722927,0.722614,4.48581,49,0.0734563,10,0.00324151,-2.34816,0.0942045,0.626297,0.72064,
2,1,0,1,0,32897.6,0.726921,0.726669,4.92103,49,0.0772215,10,0.00357596,-2.30794,0.0974476,0.605454,0.724504,
2,1,0,1,0,32898.4,0.730916,0.73064,5.37828,49,0.0813432,10,0.00392959,-2.26936,0.0995242,0.592821,0.728274,
2,1,0,1,0,32899.2,0.734911,0.734618,5.86154,49,0.085841,10,0.00430599,-2.23199,0.102247,0.577032,0.732039,
2,1,0,1,0,32900,0.738907,0.738657,6.37151,49,0.0907364,10,0.00470636,-2.19576,0.105063,0.561568,0.735854,
2,1,0,0,0,32900.8,0.742902,0.742592,6.90752,49,0.0960494,10,0.00512947,-2.16068,0.107764,0.54749,0.739553,
2,1,0,1,0,32901.6,0.746897,0.746582,7.47293,49,0.101803,10,0.00557915,-2.12651,0.111574,0.528795,0.743294,
2,1,0,1,0,32902.4,0.750892,0.750591,8.06493,49,0.108018,10,0.00605347,-2.0934,0.114816,0.513867,0.747042,
2,1,0,1,0,32903.2,0.754887,0.754607,8.68681,49,0.114717,10,0.00655512,-2.06114,0.115771,0.509625,0.750784,
2,1,0,1,0,32904,0.758883,0.758579,9.34101,49,0.121927,10,0.0070859,-2.02961,0.118685,0.497115,0.754469,
2,1,0,0,0,32904.8,0.762878,0.762599,10.0247,49,0.129671,10,0.00764484,-1.99893,0.122028,0.483496,0.758188,
2,1,0,1,0,32905.6,0.766873,0.766586,10.7498,49,0.137978,10,0.00824065,-1.9686,0.121596,0.485212,0.761856,
2,1,0,1,0,32906.4,0.770868,0.770614,11.5182,49,0.146882,10,0.00887605,-1.93862,0.122557,0.481407,0.765546,
2,1,0,1,0,32907.2,0.774863,0.774574,12.3314,49,0.156417,10,0.00955156,-1.90899,0.122519,0.481557,0.769148,
2,1,0,1,0,32908,0.778858,0.778597,13.1998,49,0.166622,10,0.0102773,-1.87943,0.119837,0.492337,0.772789,
2,1,0,0,0,32908.8,0.782854,0.782534,14.1476,49,0.177554,10,0.011071,-1.84932,0.118628,0.497353,0.77631,
2,1,0,1,0,32909.6,0.786849,0.786558,15.1532,49,0.189265,10,0.0119188,-1.8195,0.119575,0.493413,0.77989,
2,1,0,0,0,32910.4,0.790844,0.790572,16.2174,49,0.201803,10,0.012821,-1.79002,0.117793,0.50088,0.783437,
2,1,0,1,0,32911.2,0.794839,0.794592,17.3439,49,0.215226,10,0.0137813,-1.76085,0.125367,0.470617,0.78696,
2,1,0,1,0,32912,0.798834,0.798523,18.5301,49,0.229565,10,0.0147967,-1.73212,0.119214,0.494908,0.79037,
2,1,0,1,0,32912.8,0.802829,0.80256,19.7762,49,0.244877,10,0.0158716,-1.70386,0.124086,0.475475,0.793858,
2,1,0,1,0,32913.6,0.806825,0.806538,21.0739,49,0.261208,10,0.0169969,-1.67626,0.124558,0.473674,0.797265,
2,1,0,0,0,32914.4,0.81082,0.810533,22.4315,49,0.278594,10,0.0181814,-1.64914,0.124265,0.47479,0.800663,
2,1,0,1,0,32915.2,0.814815,0.814547,23.8466,49,0.297092,10,0.0194242,-1.62257,0.129212,0.456613,0.804055,
2,1,0,1,0,32916,0.81881,0.818553,25.2779,49,0.316726,10,0.0206913,-1.59726,0.13469,0.438043,0.80743,
2,1,0,1,0,32916.8,0.822805,0.82254,26.7529,49,0.337524,10,0.0220053,-1.57263,0.135311,0.436033,0.810769,
2,1,0,1,0,32917.6,0.826801,0.826573,28.264,49,0.359524,10,0.0233623,-1.54877,0.147787,0.399224,0.814137,
2,1,0,0,0,32918.4,0.830796,0.830504,29.7984,49,0.382728,10,0.0247477,-1.52581,0.145386,0.405815,0.817393,
2,1,0,1,0,32919.2,0.834791,0.834564,31.3708,49,0.407171,10,0.0261809,-1.50347,0.149117,0.395663,0.820761,
2,1,0,1,0,32920,0.838786,0.838554,32.9786,49,0.432898,10,0.0276543,-1.48177,0.152251,0.387519,0.824043,
2,1,0,1,0,32920.8,0.842781,0.842543,34.5893,49,0.459913,10,0.029143,-1.46106,0.169782,0.347504,0.827324,
2,1,0,1,0,32921.6,0.846776,0.846519,36.0837,49,0.488162,10,0.0305455,-1.44269,0.191232,0.308526,0.830643,
2,1,0,1,0,32922.3,0.849723,0.84947,37.0519,49,0.513863,10,0.0314744,-1.43119,0.0426828,1.38229,0.833167,
2,1,0,0,0,32923.1,0.845728,0.845498,34.6364,49,0.542411,10,0.029285,-1.46047,0.119594,0.493335,0.830258,
2,1,0,1,0,32923.9,0.841732,0.841474,32.7113,49,0.569287,10,0.0275257,-1.4853,0.128157,0.460374,0.827081,
2,1,0,1,0,32924.7,0.837737,0.837492,30.8673,49,0.594663,10,0.0258511,-1.5105,0.12074,0.488651,0.82391,
2,1,0,1,0,32925.5,0.833742,0.833525,29.0525,49,0.618569,10,0.024216,-1.53682,0.128618,0.458722,0.820742,
2,1,0,1,0,32926.2,0.829747,0.829466,27.4059,49,0.641106,10,0.0227323,-1.56216,0.130259,0.452943,0.817408,
2,1,0,0,0,32927,0.825752,0.825505,25.8052,49,0.662357,10,0.0213023,-1.58829,0.123329,0.478394,0.814151,
2,1,0,1,0,32927.8,0.821757,0.821453,24.2571,49,0.682342,10,0.019926,-1.61516,0.123028,0.479566,0.810779,
2,1,0,1,0,32928.6,0.817761,0.817491,22.7548,49,0.701104,10,0.0186019,-1.64293,0.119896,0.492093,0.807478,
2,1,0,1,0,32929.4,0.813766,0.813482,21.3442,49,0.718707,10,0.0173632,-1.67072,0.119965,0.49181,0.804091,
2,1,0,1,0,32930.2,0.809771,0.809493,19.9828,49,0.735202,10,0.0161759,-1.69934,0.109429,0.53916,0.8007,
2,1,0,1,0,32931,0.805776,0.805517,18.6064,49,0.750596,10,0.0149878,-1.73034,0.11926,0.494717,0.79733,
2,1,0,1,0,32931.8,0.801781,0.801524,17.3781,49,0.764963,10,0.013929,-1.76,0.113588,0.519419,0.793878,
2,1,0,0,0,32932.6,0.797786,0.797479,16.223,49,0.778364,10,0.0129375,-1.78987,0.116304,0.507289,0.790341,
2,1,0,1,0,32933.4,0.79379,0.79352,15.1129,49,0.790872,10,0.0119924,-1.82065,0.114895,0.513513,0.78687,
2,1,0,1,0,32934.2,0.789795,0.789482,14.065,49,0.802513,10,0.011104,-1.85186,0.11183,0.527586,0.783293,
2,1,0,1,0,32935,0.7858,0.785491,13.0971,49,0.813348,10,0.0102877,-1.88282,0.114229,0.516505,0.779728,
2,1,0,1,0,32935.8,0.781805,0.781504,12.1431,49,0.82342,10,0.00948986,-1.91567,0.109325,0.539676,0.776161,
2,1,0,0,0,32936.6,0.77781,0.777552,11.2557,49,0.832754,10,0.00875192,-1.94863,0.10822,0.545184,0.772599,
2,1,0,1,0,32937.4,0.773814,0.773584,10.4181,49,0.841399,10,0.00805931,-1.98221,0.106887,0.551987,0.769,
2,1,0,1,0,32938.2,0.769819,0.769528,9.63173,49,0.849398,10,0.00741189,-2.0163,0.106813,0.552366,0.76529,
2,1,0,1,0,32939,0.765824,0.765592,8.90038,49,0.856788,10,0.00681406,-2.05059,0.0973378,0.606137,0.761676,
2,1,0,1,0,32939.8,0.761829,0.761556,8.15404,49,0.863572,10,0.00620976,-2.08863,0.103408,0.570555,0.757968,
2,1,0,0,0,32940.6,0.757834,0.757523,7.51088,49,0.869818,10,0.00568966,-2.12431,0.104983,0.561997,0.754218,
2,1,0,1,0,32941.4,0.753839,0.753553,6.9058,49,0.875565,10,0.00520388,-2.16079,0.0994632,0.593184,0.750514,
2,1,0,0,0,32942.2,0.749844,0.749572,6.33341,49,0.880843,10,0.00474734,-2.19836,0.0985393,0.598746,0.746785,
2,1,0,1,0,32943,0.745848,0.745579,5.79783,49,0.885678,10,0.00432274,-2.23673,0.0979347,0.602442,0.743028,
2,1,0,1,0,32943.8,0.741853,0.741572,5.29582,49,0.890097,10,0.00392723,-2.27607,0.0939591,0.627933,0.739242,
2,1,0,1,0,32944.6,0.737858,0.73756,4.82376,49,0.894129,10,0.00355781,-2.31661,0.0925481,0.637506,0.735437,
2,1,0,1,0,32945.4,0.733863,0.73363,4.3809,49,0.897795,10,0.00321396,-2.35844,0.090472,0.652136,0.731702,
2,1,0,0,0,32946.2,0.729868,0.729617,3.96599,49,0.901119,10,0.00289365,-2.40165,0.0862617,0.683965,0.727872,
2,1,0,1,0,32947,0.725872,0.725631,3.5796,49,0.904123,10,0.00259747,-2.44617,0.0854375,0.690563,0.724056,
2,1,0,1,0,32947.8,0.721877,0.721595,3.22057,49,0.906829,10,0.00232395,-2.49207,0.0819778,0.719707,0.720178,
2,1,0,1,0,32948.6,0.717882,0.717606,2.88662,49,0.909258,10,0.00207145,-2.53961,0.0792655,0.744334,0.716336,
2,1,0,1,0,32949.4,0.713887,0.713603,2.57619,49,0.91143,10,0.00183837,-2.58902,0.0774736,0.76155,0.712469,
2,1,0,0,0,32950.2,0.709892,0.709664,2.28933,49,0.913363,10,0.00162466,-2.64029,0.0734535,0.803229,0.708657,
2,1,0,1,0,32951,0.705897,0.705606,2.02484,49,0.915076,10,0.00142874,-2.69361,0.0714089,0.826227,0.704715,
2,1,0,1,0,32951.8,0.701901,0.701591,1.78133,49,0.916586,10,0.00124976,-2.74926,0.0686677,0.85921,0.700808,
2,1,0,1,0,32952.6,0.697906,0.697625,1.55863,49,0.91791,10,0.00108734,-2.80726,0.0666296,0.885493,0.696939,
2,1,0,1,0,32953.4,0.693911,0.693667,1.35739,49,0.919065,10,0.000941576,-2.8673,0.0630589,0.935633,0.693069,
2,1,0,0,0,32954.2,0.689916,0.689629,1.17492,49,0.920066,10,0.000810262,-2.92999,0.0599812,0.983642,0.689112,
2,1,0,1,0,32955,0.685921,0.685672,1.01001,49,0.920929,10,0.000692534,-2.99568,0.0602204,0.979735,0.685227,
2,1,0,0,0,32955.8,0.681926,0.681671,0.862617,49,0.921667,10,0.000588021,-3.06418,0.0548241,1.07617,0.681291,
2,1,0,1,0,32956.6,0.67793,0.677637,0.730469,49,0.922293,10,0.000494993,-3.1364,0.0542002,1.08856,0.677315,
2,1,0,1,0,32957.4,0.673935,0.673681,0.613657,49,0.922821,10,0.000413409,-3.21207,0.0510852,1.15493,0.673411,
2,1,0,1,0,32958.2,0.66994,0.669702,0.512841,49,0.923261,10,0.000343451,-3.29002,0.0484715,1.21721,0.669477,
2,1,0,1,0,32959,0.665945,0.665663,0.422077,49,0.923625,10,0.000280961,-3.37461,0.0463845,1.27198,0.665477,
2,1,0,0,0,32959.8,0.66195,0.661679,0.34478,49,0.923922,10,0.000228134,-3.46246,0.0439306,1.34303,0.661527,
2,1,0,1,0,32960.6,0.657955,0.657695,0.277341,49,0.924161,10,0.000182406,-3.55699,0.0405546,1.45483,0.657573,
2,1,0,1,0,32961.4,0.653959,0.653656,0.219546,49,0.924351,10,0.000143508,-3.65847,0.0381797,1.54532,0.653559,
2,1,0,1,0,32962.2,0.649964,0.649718,0.170929,49,0.924498,10,0.000111056,-3.76718,0.0337202,1.74969,0.649643,
2,1,0,1,0,32963,0.64597,0.645671,0.129256,49,0.924608,10,8.34568e-05,-3.88855,0.0309654,1.90535,0.645614,
2,1,0,0,0,32963.8,0.641974,0.641683,0.0929585,49,0.924688,10,5.96499e-05,-4.03171,0.026318,2.24182,0.641642,
2,1,0,1,0,32964.6,0.637979,0.637717,0.0645137,49,0.924742,10,4.11415e-05,-4.19035,0.0208466,2.8302,0.637689,
2,1,0,1,0,32965.4,0.633983,0.633717,0.0392661,49,0.924774,10,2.48836e-05,-4.40598,0.0152346,3.87275,0.633699,
2,1,0,1,0,32966.2,0.629988,0.629681,0.0180591,49,0.924787,10,1.13715e-05,-4.7433,0.00773715,7.62555,0.629673,
2,0,0,1,0,32967,0.625993,0.625692,-0.000235774,49,0.924785,10,-1.47522e-07,-6.6275,0.0959296,0.615034,0.625692,
2,0,0,0,0,32967.8,0.621998,0.621668,-0.013571,49,0.924771,10,-8.43662e-06,-4.86739,-0.00974135,-6.05666,0.621674,
2,0,0,1,0,32968.6,0.618003,0.617759,-0.0265242,49,0.924746,10,-1.63856e-05,-4.57636,-0.0178961,-3.2968,0.617771,
2,0,0,0,0,32969.4,0.614008,0.613715,-0.0362458,49,0.924712,10,-2.22446e-05,-4.44074,-0.0444652,-1.32688,0.613731,
2,0,0,1,0,32970.2,0.610012,0.609698,-0.0447572,49,0.92467,10,-2.72883e-05,-4.34914,-0.0532455,-1.10807,0.609717,
2,0,0,1,0,32971,0.606017,0.605766,-0.0514375,49,0.924622,10,-3.11591e-05,-4.28872,-0.0636252,-0.927305,0.605789,
2,0,0,1,0,32971.8,0.602022,0.601743,-0.0583747,49,0.924569,10,-3.51266e-05,-4.23378,-0.113765,-0.518613,0.601769,
2,0,0,1,0,32972.6,0.598027,0.597738,-0.0639853,49,0.924511,10,-3.82464e-05,-4.19392,-0.0918641,-0.642253,0.597766,
2,0,0,0,0,32973.4,0.594032,0.593733,-0.0687291,49,0.924449,10,-4.08067e-05,-4.16286,-0.150545,-0.391908,0.593764,
2,0,0,1,0,32974.2,0.590037,0.589783,-0.0728191,49,0.924384,10,-4.29475e-05,-4.13775,-0.273898,-0.215408,0.589815,
2,0,0,1,0,32975,0.586041,0.585755,-0.0758274,49,0.924316,10,-4.44163e-05,-4.12017,-0.187889,-0.314015,0.585788,
2,0,0,1,0,32975.8,0.582046,0.581775,-0.0796362,49,0.924245,10,-4.63304e-05,-4.09889,-0.279324,-0.211224,0.58181,
2,0,0,1,0,32976.6,0.578052,0.577774,-0.0815346,49,0.924172,10,-4.71086e-05,-4.08866,-0.263282,-0.224094,0.57781,
2,0,0,0,0,32977.4,0.574056,0.57376,-0.0827218,49,0.924097,10,-4.74624e-05,-4.08238,-0.989186,-0.059645,0.573796,
2,0,0,1,0,32978.2,0.570061,0.569727,-0.085394,49,0.92402,10,-4.86513e-05,-4.06857,-0.422898,-0.139514,0.569765,
2,0,0,1,0,32979,0.566065,0.565748,-0.0870668,49,0.923942,10,-4.92579e-05,-4.06015,-0.274527,-0.214915,0.565786,
2,0,0,1,0,32979.8,0.56207,0.561745,-0.0892989,49,0.923862,10,-5.01632e-05,-4.04915,-0.491159,-0.120124,0.561784,
2,0,0,1,0,32980.6,0.558075,0.55779,-0.0901874,49,0.923781,10,-5.03057e-05,-4.04485,-0.758389,-0.0777965,0.55783,
2,0,0,1,0,32981.4,0.55408,0.553803,-0.0922019,49,0.923699,10,-5.10617e-05,-4.03526,-0.625637,-0.094304,0.553844,
2,0,0,1,0,32982.2,0.550085,0.549785,-0.0935564,49,0.923616,10,-5.14359e-05,-4.02893,-0.639036,-0.0923266,0.549826,
2,0,0,0,0,32983,0.54609,0.545747,-0.0939554,49,0.923532,10,-5.12759e-05,-4.02708,-1.85744,-0.0317642,0.545788,
2,0,0,1,0,32983.8,0.542094,0.541825,-0.0949729,49,0.923447,10,-5.14587e-05,-4.0224,-0.776362,-0.0759955,0.541867,
2,0,0,1,0,32984.6,0.538099,0.537801,-0.0963971,49,0.923361,10,-5.18425e-05,-4.01594,-0.882383,-0.0668644,0.537844,
2,0,0,1,0,32985.4,0.534104,0.533805,-0.0975068,49,0.923274,10,-5.20496e-05,-4.01097,-0.490953,-0.120174,0.533848,
2,0,0,1,0,32986.2,0.530109,0.529829,-0.0988198,49,0.923187,10,-5.23576e-05,-4.00516,-1.39138,-0.0424038,0.529873,
2,0,0,0,0,32987,0.526114,0.52582,-0.0993322,49,0.923098,10,-5.22308e-05,-4.00291,-0.623799,-0.0945818,0.525863,
2,0,0,1,0,32987.8,0.522119,0.521821,-0.100442,49,0.923009,10,-5.24129e-05,-3.99808,-1.28882,-0.0457785,0.521865,
2,0,0,1,0,32988.6,0.518123,0.517847,-0.101757,49,0.922919,10,-5.26946e-05,-3.99244,-0.926341,-0.0636915,0.517892,
2,0,0,1,0,32989.4,0.514128,0.513876,-0.102605,49,0.922828,10,-5.27262e-05,-3.98883,-1.14237,-0.0516469,0.513922,
2,0,0,1,0,32990.2,0.510133,0.509842,-0.10334,49,0.922735,10,-5.26872e-05,-3.98573,-0.703859,-0.0838237,0.509887,
2,0,0,0,0,32991,0.506138,0.505837,-0.104852,49,0.922642,10,-5.3038e-05,-3.97942,-0.748397,-0.0788352,0.505884,
2,0,0,1,0,32991.8,0.502143,0.501848,-0.106499,49,0.922548,10,-5.34465e-05,-3.97265,-0.661276,-0.0892214,0.501895,
2,0,0,0,0,32992.6,0.498148,0.497842,-0.107573,49,0.922453,10,-5.35543e-05,-3.9683,-1.0283,-0.0573761,0.497889,
2,0,0,1,0,32993.4,0.494152,0.493845,-0.108562,49,0.922358,10,-5.36129e-05,-3.96432,-0.571872,-0.10317,0.493893,
2,0,0,1,0,32994.2,0.490157,0.489812,-0.109914,49,0.922261,10,-5.38369e-05,-3.95895,-0.946431,-0.0623395,0.48986,
2,0,0,1,0,32995,0.486162,0.485847,-0.111526,49,0.922163,10,-5.41847e-05,-3.95262,-0.79532,-0.074184,0.485896,
2,0,0,1,0,32995.8,0.482167,0.48188,-0.112209,49,0.922063,10,-5.40712e-05,-3.94997,-0.651712,-0.0905308,0.481929,
2,0,0,0,0,32996.6,0.478172,0.47789,-0.112801,49,0.921963,10,-5.39064e-05,-3.94769,-2.49911,-0.0236084,0.47794,
2,0,0,1,0,32997.4,0.474177,0.473883,-0.115463,49,0.921862,10,-5.47159e-05,-3.93756,-1.18622,-0.0497379,0.473934,
2,0,0,1,0,32998.2,0.470181,0.469851,-0.116315,49,0.921759,10,-5.46508e-05,-3.93436,-0.42301,-0.139477,0.469902,
2,0,0,1,0,32999,0.466186,0.465914,-0.118828,49,0.921655,10,-5.53636e-05,-3.92508,-0.677258,-0.087116,0.465967,
2,0,0,1,0,32999.8,0.462191,0.461878,-0.120078,49,0.92155,10,-5.54613e-05,-3.92054,-0.573962,-0.102794,0.46193,
2,0,0,0,0,33000.6,0.458196,0.457893,-0.121106,49,0.921444,10,-5.54536e-05,-3.91683,-0.561865,-0.105007,0.457947,
2,0,0,1,0,33001.4,0.454201,0.453904,-0.122696,49,0.921337,10,-5.56922e-05,-3.91117,-5.62421,-0.0104904,0.453958,
2,0,0,1,0,33002.2,0.450205,0.449912,-0.124196,49,0.921228,10,-5.58775e-05,-3.90589,-0.660867,-0.0892766,0.449967,
2,0,0,1,0,33003,0.44621,0.445883,-0.125089,49,0.921118,10,-5.5775e-05,-3.90278,-0.897382,-0.0657468,0.445938,
2,0,0,1,0,33003.8,0.442215,0.441904,-0.126858,49,0.921007,10,-5.6059e-05,-3.89668,-0.762176,-0.0774099,0.441959,
2,0,0,0,0,33004.6,0.43822,0.437935,-0.129133,49,0.920894,10,-5.65519e-05,-3.88896,-0.623095,-0.0946886,0.437992,
2,0,0,1,0,33005.4,0.434225,0.433882,-0.130982,49,0.92078,10,-5.68309e-05,-3.88279,-0.488225,-0.120846,0.43394,
2,0,0,0,0,33006.2,0.43023,0.429912,-0.132512,49,0.920664,10,-5.69685e-05,-3.87775,-0.719243,-0.0820307,0.429971,
2,0,0,1,0,33007,0.426234,0.425944,-0.135162,49,0.920547,10,-5.75713e-05,-3.86915,-0.803456,-0.0734327,0.426003,
2,0,0,1,0,33007.8,0.422239,0.421955,-0.136027,49,0.920428,10,-5.73973e-05,-3.86637,-0.976311,-0.0604315,0.422015,
2,0,0,1,0,33008.6,0.418244,0.417925,-0.138525,49,0.920308,10,-5.78932e-05,-3.85847,-0.523425,-0.112719,0.417986,
2,0,0,1,0,33009.3,0.414249,0.413986,-0.139439,49,0.920187,10,-5.77258e-05,-3.85562,-0.905213,-0.065178,0.414047,
2,0,0,0,0,33010.1,0.410254,0.409926,-0.142417,49,0.920063,10,-5.83806e-05,-3.84644,-0.647694,-0.0910924,0.409988,
2,0,0,1,0,33010.9,0.406259,0.405969,-0.144097,49,0.919938,10,-5.8499e-05,-3.84134,-0.522897,-0.112833,0.406033,
2,0,0,1,0,33011.7,0.402263,0.401966,-0.145945,49,0.919811,10,-5.86649e-05,-3.83581,-0.569405,-0.103617,0.40203,
2,0,0,1,0,33012.5,0.398268,0.397969,-0.148372,49,0.919683,10,-5.90475e-05,-3.82865,-0.797811,-0.0739523,0.398034,
2,0,0,1,0,33013.3,0.394274,0.393973,-0.149051,49,0.919553,10,-5.87223e-05,-3.82666,-0.717258,-0.0822577,0.394039,
2,0,0,0,0,33014.1,0.390278,0.389938,-0.151681,49,0.919421,10,-5.91463e-05,-3.81907,-0.586538,-0.10059,0.390005,
2,0,0,1,0,33014.9,0.386283,0.385954,-0.154049,49,0.919288,10,-5.94557e-05,-3.81234,-0.53994,-0.109271,0.386022,
2,0,0,1,0,33015.7,0.382287,0.381972,-0.156211,49,0.919153,10,-5.96683e-05,-3.80629,-1.0637,-0.0554666,0.382041,
2,0,0,1,0,33016.5,0.378292,0.378019,-0.158873,49,0.919016,10,-6.00572e-05,-3.79895,-0.688705,-0.085668,0.378089,
2,0,0,1,0,33017.3,0.374297,0.373978,-0.160632,49,0.918877,10,-6.0073e-05,-3.79417,-0.577429,-0.102177,0.374049,
2,0,0,1,0,33018.1,0.370303,0.369983,-0.162465,49,0.918737,10,-6.01094e-05,-3.78924,-0.543253,-0.108605,0.370054,
2,0,0,1,0,33018.9,0.366307,0.365998,-0.165528,49,0.918594,10,-6.0583e-05,-3.78113,-0.906272,-0.0651019,0.366071,
2,0,0,0,0,33019.7,0.362312,0.361987,-0.168041,49,0.91845,10,-6.08288e-05,-3.77458,-0.560743,-0.105218,0.362061,
2,0,0,1,0,33020.5,0.358316,0.35799,-0.17056,49,0.918304,10,-6.10587e-05,-3.76812,-0.734239,-0.0803553,0.358065,
2,0,0,1,0,33021.3,0.354321,0.354083,-0.171724,49,0.918156,10,-6.08044e-05,-3.76517,-0.873483,-0.0675457,0.354158,
2,0,0,1,0,33022.1,0.350327,0.349989,-0.173432,49,0.918006,10,-6.06992e-05,-3.76087,-0.745686,-0.0791218,0.350065,
2,0,0,1,0,33022.9,0.346331,0.346048,-0.176235,49,0.917854,10,-6.09856e-05,-3.75391,-1.91557,-0.0308002,0.346126,
2,0,0,0,0,33023.7,0.342336,0.342048,-0.178964,49,0.917701,10,-6.12144e-05,-3.74723,-0.417206,-0.141417,0.342127,
2,0,0,1,0,33024.5,0.338341,0.33803,-0.181445,49,0.917545,10,-6.13339e-05,-3.74125,-1.63225,-0.0361463,0.33811,
2,0,0,1,0,33025.3,0.334345,0.334032,-0.183861,49,0.917388,10,-6.14155e-05,-3.73551,-0.43532,-0.135532,0.334113,
2,0,0,1,0,33026.1,0.33035,0.330026,-0.185529,49,0.917229,10,-6.12295e-05,-3.73159,-0.830797,-0.0710162,0.330108,
2,0,0,1,0,33026.9,0.326355,0.326071,-0.188874,49,0.917067,10,-6.15865e-05,-3.72383,-0.652729,-0.0903897,0.326155,
2,0,0,0,0,33027.7,0.32236,0.322069,-0.190431,49,0.916904,10,-6.13318e-05,-3.72026,-0.626908,-0.0941126,0.322153,
2,0,0,1,0,33028.5,0.318365,0.318085,-0.192078,49,0.916738,10,-6.10971e-05,-3.71652,-1.76501,-0.0334276,0.31817,
2,0,0,0,0,33029.3,0.31437,0.314067,-0.19462,49,0.916571,10,-6.11238e-05,-3.71081,-0.902878,-0.0653466,0.314153,
2,0,0,1,0,33030.1,0.310374,0.310088,-0.197089,49,0.916402,10,-6.1115e-05,-3.70534,-0.579536,-0.101806,0.310175,
2,0,0,1,0,33030.9,0.306379,0.306051,-0.200118,49,0.916231,10,-6.12463e-05,-3.69871,-0.639717,-0.0922283,0.306139,
2,0,0,1,0,33031.7,0.302385,0.302107,-0.203205,49,0.916058,10,-6.13896e-05,-3.69207,-0.5855,-0.100769,0.302197,
2,0,0,1,0,33032.5,0.298389,0.298097,-0.204428,49,0.915882,10,-6.09394e-05,-3.68946,-0.764303,-0.0771945,0.298187,
2,0,0,0,0,33033.3,0.294394,0.294087,-0.207438,49,0.915705,10,-6.1005e-05,-3.68311,-0.873604,-0.0675363,0.294178,
2,0,0,1,0,33034.1,0.290398,0.290079,-0.209875,49,0.915526,10,-6.08803e-05,-3.67804,-1.31516,-0.0448613,0.290171,
2,0,0,1,0,33034.9,0.286403,0.286068,-0.212056,49,0.915344,10,-6.06625e-05,-3.67355,-0.6097,-0.0967689,0.286161,
2,0,0,1,0,33035.7,0.282408,0.282098,-0.215802,49,0.91516,10,-6.08775e-05,-3.66594,-0.96253,-0.0612968,0.282193,
2,0,0,1,0,33036.5,0.278414,0.278128,-0.216967,49,0.914975,10,-6.03447e-05,-3.66361,-0.67314,-0.087649,0.278224,
2,0,0,0,0,33037.3,0.274418,0.274101,-0.219838,49,0.914786,10,-6.0258e-05,-3.6579,-0.575169,-0.102579,0.274198,
2,0,0,1,0,33038.1,0.270423,0.270112,-0.224576,49,0.914596,10,-6.06607e-05,-3.64864,-0.868723,-0.0679158,0.270211,
2,0,0,1,0,33038.9,0.266427,0.266069,-0.226024,49,0.914404,10,-6.01379e-05,-3.64585,-0.71458,-0.082566,0.266168,
2,0,0,1,0,33039.7,0.262432,0.262126,-0.229551,49,0.914209,10,-6.01714e-05,-3.63912,-0.861082,-0.0685184,0.262227,
2,0,0,1,0,33040.5,0.258437,0.258121,-0.231804,49,0.914013,10,-5.98337e-05,-3.63488,-0.638673,-0.0923791,0.258223,
2,0,0,0,0,33041.3,0.254442,0.254149,-0.232744,49,0.913814,10,-5.91517e-05,-3.63312,-1.81121,-0.0325748,0.254251,
2,0,0,1,0,33042.1,0.250447,0.250133,-0.237116,49,0.913613,10,-5.93105e-05,-3.62504,-1.43577,-0.0410929,0.250237,
2,0,0,0,0,33042.9,0.246452,0.24614,-0.238054,49,0.913411,10,-5.85946e-05,-3.62332,-0.547859,-0.107692,0.246244,
2,0,0,1,0,33043.7,0.242456,0.242161,-0.241783,49,0.913206,10,-5.85504e-05,-3.61657,-1.1929,-0.0494591,0.242267,
2,0,0,1,0,33044.5,0.238461,0.238141,-0.24377,49,0.913,10,-5.80516e-05,-3.61302,-0.701315,-0.0841277,0.238248,
2,0,0,1,0,33045.3,0.234467,0.234136,-0.245208,49,0.912791,10,-5.74119e-05,-3.61047,-0.858971,-0.0686868,0.234244,
2,0,0,1,0,33046.1,0.230471,0.230138,-0.249087,49,0.91258,10,-5.73244e-05,-3.60365,-0.709078,-0.0832066,0.230248,
2,0,0,0,0,33046.9,0.226476,0.226177,-0.251339,49,0.912368,10,-5.68473e-05,-3.59974,-1.32839,-0.0444148,0.226288,
2,0,0,1,0,33047.7,0.222481,0.222163,-0.253147,49,0.912153,10,-5.62398e-05,-3.59663,-1.04961,-0.0562114,0.222274,
2,0,0,1,0,33048.5,0.218485,0.218158,-0.256443,49,0.911936,10,-5.5945e-05,-3.59101,-1.01976,-0.0578567,0.21827,
2,0,0,1,0,33049.3,0.21449,0.214166,-0.259664,49,0.911717,10,-5.56113e-05,-3.58559,-0.615167,-0.0959089,0.214281,
2,0,0,1,0,33050.1,0.210496,0.210212,-0.262731,49,0.911495,10,-5.52291e-05,-3.58049,-0.824946,-0.0715198,0.210327,
2,0,0,0,0,33050.9,0.2065,0.206162,-0.267003,49,0.911271,10,-5.5046e-05,-3.57348,-0.850154,-0.0693992,0.20628,
2,0,0,1,0,33051.7,0.202505,0.202221,-0.270197,49,0.911044,10,-5.46394e-05,-3.56832,-0.781965,-0.075451,0.20234,
2,0,0,1,0,33052.5,0.198509,0.198162,-0.273068,49,0.910815,10,-5.41118e-05,-3.56373,-0.710261,-0.083068,0.198282,
2,0,0,1,0,33053.3,0.194514,0.194195,-0.275804,49,0.910583,10,-5.35598e-05,-3.5594,-0.520586,-0.113334,0.194317,
2,0,0,1,0,33054.1,0.190519,0.190182,-0.279579,49,0.910347,10,-5.31709e-05,-3.5535,-0.66257,-0.0890473,0.190305,
2,0,0,0,0,33054.9,0.186524,0.18623,-0.28441,49,0.910108,10,-5.29657e-05,-3.54605,-0.774066,-0.0762209,0.186355,
2,0,0,1,0,33055.7,0.182529,0.182177,-0.289657,49,0.909866,10,-5.27689e-05,-3.53812,-0.385874,-0.1529,0.182304,
2,0,0,0,0,33056.5,0.178534,0.178202,-0.294994,49,0.909618,10,-5.25685e-05,-3.53019,-0.513782,-0.114835,0.178331,
2,0,0,1,0,33057.3,0.174538,0.174189,-0.301374,49,0.909367,10,-5.24959e-05,-3.52089,-0.587062,-0.100501,0.174321,
2,0,0,1,0,33058.1,0.170543,0.170208,-0.308776,49,0.90911,10,-5.25562e-05,-3.51036,-0.294645,-0.200241,0.170344,
2,0,0,1,0,33058.9,0.166549,0.166226,-0.317156,49,0.908846,10,-5.27195e-05,-3.49873,-0.336702,-0.175229,0.166365,
2,0,0,1,0,33059.7,0.162553,0.162206,-0.328137,49,0.908574,10,-5.3226e-05,-3.48394,-0.214404,-0.275181,0.162351,
2,0,0,0,0,33060.5,0.158558,0.158275,-0.340636,49,0.908293,10,-5.39143e-05,-3.46771,-0.210221,-0.280657,0.158425,
2,0,0,1,0,33061.3,0.154563,0.154219,-0.359826,49,0.907999,10,-5.54922e-05,-3.44391,-0.170025,-0.347009,0.154378,
2,0,0,1,0,33062.1,0.150567,0.150248,-0.38371,49,0.907689,10,-5.76516e-05,-3.416,-0.126929,-0.464829,0.150417,
2,0,0,1,0,33062.9,0.146572,0.146246,-0.413154,49,0.907358,10,-6.04223e-05,-3.38389,-0.110137,-0.535697,0.146428,
2,0,0,1,0,33063.7,0.142578,0.142243,-0.454416,49,0.906998,10,-6.46377e-05,-3.34255,-0.0898634,-0.656552,0.142443,
2,0,0,0,0,33064.5,0.138582,0.138245,-0.502526,49,0.906602,10,-6.9472e-05,-3.29884,-0.0885773,-0.666085,0.138467,
2,0,0,1,0,33065.3,0.134587,0.134268,-0.556389,49,0.906164,10,-7.47051e-05,-3.25462,-0.100111,-0.589348,0.134513,
2,0,0,1,0,33066.1,0.130591,0.130275,-0.609494,49,0.905684,10,-7.9402e-05,-3.21503,-0.109207,-0.540257,0.130543,
2,0,0,1,0,33066.9,0.126596,0.126287,-0.649854,49,0.905165,10,-8.20682e-05,-3.18718,-0.1675,-0.352238,0.126573,
2,0,0,1,0,33067.7,0.122602,0.122245,-0.68208,49,0.904617,10,-8.3381e-05,-3.16616,-0.287074,-0.205522,0.122545,
2,0,0,1,0,33068.5,0.118607,0.118303,-0.698835,49,0.90405,10,-8.26742e-05,-3.15563,-0.471104,-0.125238,0.11861,
2,0,0,1,0,33069.3,0.114611,0.114243,-0.705615,49,0.903473,10,-8.06117e-05,-3.15143,-2.41938,-0.0243864,0.114554,
2,0,0,0,0,33070.1,0.110616,0.11025,-0.706344,49,0.902895,10,-7.78741e-05,-3.15098,2.48479,0.0237444,0.11056,
2,0,0,1,0,33070.9,0.10662,0.106262,-0.701134,49,0.902318,10,-7.45039e-05,-3.1542,1.30703,0.0451404,0.106571,
2,0,0,1,0,33071.7,0.102625,0.102289,-0.695476,49,0.901745,10,-7.11397e-05,-3.15772,0.717884,0.082186,0.102595,
2,0,0,1,0,33072.5,0.0986305,0.098265,-0.686086,49,0.901179,10,-6.74183e-05,-3.16362,0.739698,0.0797623,0.0985669,
2,0,0,1,0,33073.3,0.0946351,0.0942873,-0.675183,49,0.90062,10,-6.36612e-05,-3.17058,0.660536,0.0893214,0.0945844,
2,0,0,0,0,33074.1,0.0906399,0.0903108,-0.667437,49,0.900067,10,-6.02767e-05,-3.17559,0.564656,0.104488,0.0906045,
2,0,0,1,0,33074.9,0.0866448,0.0862919,-0.657912,49,0.899524,10,-5.67724e-05,-3.18183,0.672875,0.0876835,0.0865813,
2,0,0,1,0,33075.7,0.0826492,0.0822854,-0.648904,49,0.898988,10,-5.33953e-05,-3.18782,0.746588,0.0790262,0.082571,
2,0,0,1,0,33076.5,0.0786544,0.0783231,-0.640328,49,0.89846,10,-5.01525e-05,-3.1936,0.627596,0.0940096,0.0786049,
2,0,0,1,0,33077.3,0.0746596,0.0743402,-0.62955,49,0.89794,10,-4.68009e-05,-3.20097,0.716795,0.0823108,0.0746172,
2,0,0,0,0,33078.1,0.0706641,0.0703179,-0.620607,49,0.897425,10,-4.36398e-05,-3.20718,0.579981,0.101728,0.070591,
2,0,0,1,0,33078.9,0.0666689,0.0663626,-0.612376,49,0.896919,10,-4.06388e-05,-3.21298,0.709245,0.0831871,0.066632,
2,0,0,0,0,33079.7,0.0626737,0.0623405,-0.601782,49,0.896418,10,-3.75153e-05,-3.22056,0.60172,0.0980523,0.0626052,
2,0,0,1,0,33080.5,0.0586783,0.0583159,-0.596346,49,0.895924,10,-3.47765e-05,-3.2245,0.545602,0.108137,0.0585783,
2,0,0,1,0,33081.3,0.0546835,0.0543728,-0.586185,49,0.895437,10,-3.18725e-05,-3.23197,0.843997,0.0699055,0.0546307,
2,0,0,1,0,33082.1,0.0506886,0.0503412,-0.577543,49,0.894957,10,-2.90742e-05,-3.23842,0.521707,0.11309,0.0505953,
2,0,0,1,0,33082.9,0.046693,0.046375,-0.568273,49,0.894486,10,-2.63537e-05,-3.24544,0.503118,0.117269,0.046625,
2,0,0,0,0,33083.7,0.0426979,0.0423857,-0.556779,49,0.894023,10,-2.35995e-05,-3.25432,0.609417,0.0968139,0.0426307,
2,0,0,1,0,33084.5,0.0387022,0.0383313,-0.548078,49,0.893567,10,-2.10085e-05,-3.26116,0.440364,0.13398,0.0385724,
2,0,0,1,0,33085.3,0.0347074,0.0344071,-0.537416,49,0.89312,10,-1.84909e-05,-3.26969,0.505476,0.116722,0.0346436,
2,0,0,1,0,33086.1,0.0307126,0.030431,-0.526045,49,0.892681,10,-1.60081e-05,-3.27898,0.474394,0.124369,0.0306625,
2,0,0,1,0,33086.9,0.0267172,0.0264107,-0.518832,49,0.892249,10,-1.37027e-05,-3.28497,0.486734,0.121216,0.026639,
2,0,0,0,0,33087.7,0.022722,0.0223822,-0.509256,49,0.891825,10,-1.13983e-05,-3.29306,0.861754,0.068465,0.0226063,
2,0,0,1,0,33088.5,0.0187268,0.0184068,-0.503142,49,0.891406,10,-9.26121e-06,-3.29831,0.658994,0.0895304,0.0186281,
2,0,0,1,0,33089.3,0.0147313,0.0144035,-0.498674,49,0.890993,10,-7.18267e-06,-3.30218,0.867027,0.0680487,0.014623,
2,0,0,1,0,33090.1,0.0107365,0.0103953,-0.494515,49,0.890583,10,-5.14062e-06,-3.30582,4.81134,0.0122627,0.0106129,
2,0,0,1,0,33090.9,0.00674163,0.00642651,-0.492983,49,0.890175,10,-3.16816e-06,-3.30717,1.80525,0.0326825,0.00664342,
2,0,0,0,0,33091.6,0.00274612,0.00241265,-0.491923,49,0.889768,10,-1.18684e-06,-3.3081,-1.26949,-0.0464755,0.00262909,
2,0,0,1,0,33092.1,0.000274105,-5.45222e-05,-0.493812,49,0.889514,10,2.69237e-08,-3.30644, , ,0.000162755,