File: Figure_codes/Fig_3-5/workspace_calculate_alpha_eff/20221101_1-115_003_TrumpetPlot_ParaChange_from10_every3_16_CV_C01_13.csv
mode,ox/red,error,control changes,counter inc.,time/s,control/V,Ewe/V,<I>/mA,cycle number,(Q-Qo)/C,I Range,P/W,log(|I|),Tafel slope mV/dec,alpha_eff,E-IR/V,
2,0,0,0,0,9480.64,2.44065e-05,-0.000325324,-0.105118,14,0.0000000E+000,10,3.41975e-08,-3.97832, , ,-0.000279071,
2,1,0,0,0,9481.39,0.00379485,0.00345821,0.166168,14,0.000116991,10,5.74645e-07,-3.77945,0.0428034,1.3784,0.00338509,
2,1,0,1,0,9482.19,0.00779002,0.00747397,0.188185,14,0.000274673,10,1.40649e-06,-3.72541,0.0849628,0.694421,0.00739117,
2,1,0,0,0,9482.99,0.0117852,0.0114537,0.202413,14,0.000447635,10,2.31838e-06,-3.69376,0.129666,0.455015,0.0113646,
2,1,0,1,0,9483.79,0.0157806,0.0154548,0.218178,14,0.000632572,10,3.37191e-06,-3.66119,0.13631,0.432837,0.0153589,
2,1,0,1,0,9484.59,0.0197754,0.0194861,0.23081,14,0.000828375,10,4.49759e-06,-3.63675,0.149812,0.393827,0.0193846,
2,1,0,1,0,9485.39,0.0237704,0.0234455,0.245799,14,0.00103549,10,5.76287e-06,-3.60942,0.164859,0.357881,0.0233373,
2,1,0,1,0,9486.19,0.0277659,0.0274594,0.260579,14,0.00125373,10,7.15537e-06,-3.58406,0.175379,0.336414,0.0273448,
2,1,0,0,0,9486.99,0.0317611,0.0314625,0.273622,14,0.00148358,10,8.60884e-06,-3.56285,0.156217,0.377679,0.0313421,
2,1,0,1,0,9487.79,0.0357567,0.0354001,0.290164,14,0.00172535,10,1.02718e-05,-3.53736,0.227224,0.259656,0.0352725,
2,1,0,1,0,9488.59,0.0397516,0.0394273,0.304006,14,0.00197853,10,1.19861e-05,-3.51712,0.161111,0.366207,0.0392935,
2,1,0,1,0,9489.39,0.0437465,0.043445,0.31841,14,0.00224393,10,1.38333e-05,-3.49701,0.200576,0.294153,0.0433049,
2,1,0,1,0,9490.18,0.0477413,0.0474233,0.333573,14,0.00252047,10,1.58191e-05,-3.47681,0.210167,0.280729,0.0472765,
2,1,0,0,0,9490.98,0.0517369,0.0513928,0.347164,14,0.00280824,10,1.78417e-05,-3.45947,0.225887,0.261193,0.0512401,
2,1,0,1,0,9491.78,0.0557321,0.0554277,0.36117,14,0.00310782,10,2.00188e-05,-3.44229,0.296655,0.198884,0.0552688,
2,1,0,1,0,9492.58,0.0597277,0.0594183,0.373344,14,0.0034169,10,2.21835e-05,-3.42789,0.244306,0.2415,0.059254,
2,1,0,1,0,9493.38,0.0637226,0.0633947,0.385102,14,0.00373644,10,2.44134e-05,-3.41442,0.276086,0.213702,0.0632252,
2,1,0,1,0,9494.18,0.0677174,0.0673739,0.398921,14,0.00406657,10,2.68769e-05,-3.39911,0.492513,0.119794,0.0671984,
2,1,0,0,0,9494.98,0.0717128,0.07139,0.409624,14,0.00440507,10,2.92431e-05,-3.38761,0.279735,0.210914,0.0712097,
2,1,0,1,0,9495.78,0.075708,0.0754026,0.417476,14,0.00475224,10,3.14788e-05,-3.37937,0.393425,0.149965,0.0752189,
2,1,0,0,0,9496.58,0.0797031,0.0794321,0.42943,14,0.00510738,10,3.41105e-05,-3.36711,0.397791,0.148319,0.0792431,
2,1,0,1,0,9497.38,0.0836986,0.0833899,0.438591,14,0.00547033,10,3.65741e-05,-3.35794,0.35119,0.168,0.0831969,
2,1,0,1,0,9498.17,0.0876935,0.087379,0.452913,14,0.00584299,10,3.95751e-05,-3.34399,0.301558,0.195651,0.0871797,
2,1,0,1,0,9498.97,0.0916883,0.0913825,0.467527,14,0.00622633,10,4.27238e-05,-3.33019,0.240329,0.245497,0.0911768,
2,1,0,1,0,9499.77,0.0956838,0.0954103,0.485065,14,0.00662417,10,4.62802e-05,-3.3142,0.218587,0.269916,0.0951969,
2,1,0,0,0,9500.57,0.099679,0.0993529,0.509521,14,0.00703932,10,5.06224e-05,-3.29284,0.212085,0.27819,0.0991287,
2,1,0,1,0,9501.37,0.103674,0.103406,0.536786,14,0.00747343,10,5.55067e-05,-3.2702,0.16401,0.359735,0.10317,
2,1,0,1,0,9502.17,0.10767,0.107369,0.558997,14,0.00792904,10,6.00188e-05,-3.25259,0.219662,0.268594,0.107123,
2,1,0,1,0,9502.97,0.111664,0.111371,0.585681,14,0.00840351,10,6.52281e-05,-3.23234,0.231149,0.255247,0.111114,
2,1,0,1,0,9503.77,0.115659,0.115346,0.60284,14,0.00889524,10,6.95349e-05,-3.2198,0.268896,0.219415,0.11508,
2,1,0,0,0,9504.57,0.119655,0.119377,0.62206,14,0.00940333,10,7.42594e-05,-3.20617,0.378533,0.155865,0.119103,
2,1,0,1,0,9505.37,0.12365,0.123387,0.64138,14,0.00992507,10,7.91379e-05,-3.19288,0.301894,0.195433,0.123105,
2,1,0,1,0,9506.16,0.127646,0.127331,0.659048,14,0.0104628,10,8.39173e-05,-3.18108,0.345452,0.17079,0.127041,
2,1,0,1,0,9506.96,0.131641,0.131372,0.674265,14,0.0110139,10,8.85797e-05,-3.17117,3.35398,0.017591,0.131075,
2,1,0,1,0,9507.76,0.135635,0.135317,0.67078,14,0.0115688,10,9.07682e-05,-3.17342,-0.735446,-0.0802234,0.135022,
2,1,0,0,0,9508.56,0.139631,0.139366,0.643233,14,0.0121133,10,8.96451e-05,-3.19163,-0.152728,-0.386308,0.139083,
2,1,0,1,0,9509.36,0.143626,0.143314,0.59498,14,0.0126267,10,8.52691e-05,-3.2255,-0.0916639,-0.643656,0.143052,
2,1,0,0,0,9510.16,0.147621,0.147297,0.52833,14,0.013092,10,7.78214e-05,-3.2771,-0.0721723,-0.817489,0.147065,
2,1,0,1,0,9510.96,0.151617,0.151272,0.462586,14,0.0135041,10,6.99762e-05,-3.33481,-0.0703064,-0.839184,0.151068,
2,1,0,1,0,9511.76,0.155612,0.155294,0.411176,14,0.0138677,10,6.3853e-05,-3.38597,-0.0838871,-0.703326,0.155113,
2,1,0,1,0,9512.56,0.159606,0.159308,0.371245,14,0.014195,10,5.91423e-05,-3.43034,-0.108648,-0.543039,0.159145,
2,1,0,1,0,9513.36,0.163602,0.163287,0.343415,14,0.0144961,10,5.60752e-05,-3.46418,-0.122339,-0.482267,0.163136,
2,1,0,0,0,9514.16,0.167597,0.167254,0.324021,14,0.014778,10,5.41937e-05,-3.48943,-0.186103,-0.317029,0.167111,
2,1,0,1,0,9514.95,0.171592,0.17126,0.307271,14,0.0150466,10,5.26232e-05,-3.51248,-0.225452,-0.261696,0.171125,
2,1,0,1,0,9515.75,0.175588,0.175337,0.298521,14,0.0153046,10,5.23417e-05,-3.52502,-0.296317,-0.199111,0.175205,
2,1,0,1,0,9516.55,0.179582,0.179314,0.289091,14,0.0155547,10,5.1838e-05,-3.53897,-0.335214,-0.176007,0.179187,
2,1,0,1,0,9517.35,0.183577,0.183292,0.282133,14,0.0157988,10,5.17128e-05,-3.54955,-0.413486,-0.142689,0.183168,
2,1,0,0,0,9518.15,0.187573,0.187288,0.274977,14,0.0160375,10,5.14999e-05,-3.5607,-0.466282,-0.126533,0.187167,
2,1,0,1,0,9518.95,0.191568,0.191257,0.270641,14,0.0162719,10,5.17621e-05,-3.56761,-0.474702,-0.124288,0.191138,
2,1,0,0,0,9519.75,0.195563,0.195243,0.267093,14,0.0165031,10,5.21481e-05,-3.57334,-0.514256,-0.114729,0.195126,
2,1,0,1,0,9520.55,0.199559,0.199195,0.26409,14,0.016731,10,5.26053e-05,-3.57825,-0.860429,-0.0685704,0.199078,
2,1,0,1,0,9521.35,0.203553,0.203245,0.260117,14,0.0169563,10,5.28675e-05,-3.58483,-1.58421,-0.0372426,0.203131,
2,1,0,1,0,9522.15,0.207548,0.207235,0.258056,14,0.0171797,10,5.34782e-05,-3.58829,-0.932735,-0.0632548,0.207121,
2,1,0,1,0,9522.94,0.211544,0.211232,0.254817,14,0.0174007,10,5.38255e-05,-3.59377,-0.839423,-0.0702864,0.21112,
2,1,0,0,0,9523.74,0.215539,0.21525,0.252681,14,0.0176199,10,5.43895e-05,-3.59743,-2.79222,-0.0211301,0.215139,
2,1,0,1,0,9524.54,0.219535,0.219243,0.252306,14,0.0178372,10,5.53162e-05,-3.59807,-0.688378,-0.0857087,0.219132,
2,1,0,1,0,9525.34,0.223529,0.223246,0.250461,14,0.0180532,10,5.59142e-05,-3.60126,-1.60212,-0.0368263,0.223135,
2,1,0,1,0,9526.14,0.227524,0.227243,0.248424,14,0.0182679,10,5.64526e-05,-3.60481,-0.878282,-0.0671766,0.227134,
2,1,0,1,0,9526.94,0.23152,0.23121,0.246621,14,0.0184811,10,5.70212e-05,-3.60797,4.2245,0.0139662,0.231102,
2,1,0,0,0,9527.74,0.235515,0.235244,0.242632,14,0.0186933,10,5.70777e-05,-3.61505,-1.15077,-0.0512698,0.235137,
2,1,0,1,0,9528.54,0.23951,0.239187,0.244113,14,0.0189043,10,5.83886e-05,-3.61241,-1.97166,-0.029924,0.239079,
2,1,0,1,0,9529.34,0.243506,0.243199,0.242701,14,0.0191142,10,5.90247e-05,-3.61493,-3.18992,-0.0184958,0.243093,
2,1,0,1,0,9530.14,0.2475,0.247227,0.241799,14,0.0193234,10,5.97791e-05,-3.61655,-1.65131,-0.0357291,0.24712,
2,1,0,1,0,9530.93,0.251495,0.251215,0.240808,14,0.0195316,10,6.04947e-05,-3.61833,-1.18593,-0.0497501,0.251109,
2,1,0,0,0,9531.73,0.255491,0.255188,0.239287,14,0.0197391,10,6.10632e-05,-3.62108,4.94229,0.0119378,0.255083,
2,1,0,1,0,9532.53,0.259486,0.259202,0.238583,14,0.0199462,10,6.18412e-05,-3.62236,-0.756893,-0.0779502,0.259097,
2,1,0,0,0,9533.33,0.263481,0.263168,0.237923,14,0.0201521,10,6.26136e-05,-3.62356,2.7535,0.0214272,0.263063,
2,1,0,1,0,9534.13,0.267477,0.267167,0.235954,14,0.0203578,10,6.30389e-05,-3.62717,-2.76593,-0.021331,0.267063,
2,1,0,1,0,9534.93,0.271471,0.271159,0.236402,14,0.0205626,10,6.41025e-05,-3.62635,-4.28641,-0.0137644,0.271055,
2,1,0,1,0,9535.73,0.275466,0.275165,0.235356,14,0.0207666,10,6.47617e-05,-3.62827,127.068,0.000464317,0.275061,
2,1,0,1,0,9536.53,0.279462,0.27916,0.234274,14,0.0209702,10,6.53998e-05,-3.63028,-1.31873,-0.0447401,0.279057,
2,1,0,0,0,9537.33,0.283457,0.283168,0.234454,14,0.0211727,10,6.63897e-05,-3.62994,-1.5626,-0.0377576,0.283065,
2,1,0,1,0,9538.13,0.287452,0.287132,0.234314,14,0.0213748,10,6.72789e-05,-3.6302,-1.49475,-0.0394715,0.287029,
2,1,0,1,0,9538.93,0.291448,0.291151,0.232188,14,0.021576,10,6.76016e-05,-3.63416,-2.36391,-0.0249586,0.291049,
2,1,0,1,0,9539.72,0.295442,0.295186,0.232102,14,0.0217761,10,6.85133e-05,-3.63432,-2.35297,-0.0250747,0.295084,
2,1,0,1,0,9540.52,0.299437,0.299133,0.22868,14,0.0219759,10,6.84057e-05,-3.64077,-3.9942,-0.0147714,0.299032,
2,1,0,0,0,9541.32,0.303433,0.303119,0.229084,14,0.022175,10,6.94396e-05,-3.64001,-23.2273,-0.00254012,0.303018,
2,1,0,1,0,9542.12,0.307428,0.307148,0.228539,14,0.0223731,10,7.01954e-05,-3.64104,-0.907845,-0.0649891,0.307047,
2,1,0,1,0,9542.92,0.311424,0.311136,0.227595,14,0.0225706,10,7.08131e-05,-3.64284,4.37743,0.0134782,0.311036,
2,1,0,1,0,9543.72,0.315418,0.31511,0.227044,14,0.0227674,10,7.15439e-05,-3.64389,-1.32058,-0.0446772,0.31501,
2,1,0,1,0,9544.52,0.319413,0.319106,0.226517,14,0.0229636,10,7.22829e-05,-3.6449,-3.8369,-0.015377,0.319006,
2,1,0,0,0,9545.32,0.323409,0.323145,0.225813,14,0.0231595,10,7.29703e-05,-3.64625,-1.32947,-0.0443785,0.323046,
2,1,0,1,0,9546.12,0.327404,0.327094,0.225838,14,0.0233544,10,7.38702e-05,-3.6462,1.18781,0.0496711,0.326995,
2,1,0,0,0,9546.92,0.331399,0.331072,0.223435,14,0.0235492,10,7.39731e-05,-3.65085,-0.844507,-0.0698632,0.330974,
2,1,0,1,0,9547.71,0.335395,0.33511,0.224606,14,0.0237431,10,7.52677e-05,-3.64858,3.50349,0.0168403,0.335011,
2,1,0,1,0,9548.51,0.339389,0.339119,0.223715,14,0.0239366,10,7.58661e-05,-3.6503,-2.35039,-0.0251022,0.339021,
2,1,0,1,0,9549.31,0.343384,0.343132,0.223231,14,0.0241297,10,7.65976e-05,-3.65125,-3.91228,-0.0150807,0.343033,
2,1,0,1,0,9550.11,0.34738,0.347067,0.22351,14,0.0243224,10,7.75729e-05,-3.6507,-2.89543,-0.0203769,0.346969,
2,1,0,0,0,9550.91,0.351375,0.351075,0.221739,14,0.0245147,10,7.7847e-05,-3.65416,-8.71845,-0.00676726,0.350978,
2,1,0,1,0,9551.71,0.35537,0.3551,0.221526,14,0.0247065,10,7.86638e-05,-3.65458,-0.78175,-0.0754717,0.355002,
2,1,0,1,0,9552.51,0.359366,0.359065,0.220158,14,0.0248978,10,7.90509e-05,-3.65727,1.14252,0.0516401,0.358968,
2,1,0,1,0,9553.31,0.36336,0.363079,0.219227,14,0.0250888,10,7.95967e-05,-3.65911,-1.57344,-0.0374974,0.362983,
2,1,0,1,0,9554.11,0.367355,0.367079,0.219165,14,0.0252792,10,8.04509e-05,-3.65923,2.84917,0.0207078,0.366982,
2,1,0,0,0,9554.91,0.371351,0.371064,0.219636,14,0.0254688,10,8.14991e-05,-3.6583,-1.74599,-0.0337918,0.370967,
2,1,0,1,0,9555.71,0.375346,0.375049,0.219261,14,0.0256585,10,8.22336e-05,-3.65904,2.49346,0.0236619,0.374953,
2,1,0,1,0,9556.5,0.379342,0.379049,0.218812,14,0.0258475,10,8.29404e-05,-3.65993,-0.897324,-0.0657511,0.378953,
2,1,0,1,0,9557.3,0.383336,0.383055,0.218297,14,0.0260364,10,8.362e-05,-3.66095,9.97174,0.00591672,0.382959,
2,1,0,1,0,9558.1,0.387331,0.387045,0.217591,14,0.0262251,10,8.42176e-05,-3.66236,-1.37389,-0.0429437,0.386949,
2,1,0,0,0,9558.9,0.391327,0.391076,0.218216,14,0.0264133,10,8.53389e-05,-3.66111,3.99877,0.0147545,0.39098,
2,1,0,1,0,9559.7,0.395322,0.394998,0.216269,14,0.0266014,10,8.5426e-05,-3.66501,-32.6194,-0.00180874,0.394903,
2,1,0,0,0,9560.5,0.399317,0.399041,0.216908,14,0.0267893,10,8.65552e-05,-3.66372,-7.50869,-0.00785756,0.398945,
2,1,0,1,0,9561.3,0.403313,0.403014,0.216873,14,0.0269768,10,8.74031e-05,-3.66379,-14.1068,-0.00418237,0.402919,
2,1,0,1,0,9562.1,0.407307,0.407065,0.217522,14,0.0271643,10,8.85455e-05,-3.6625,3.04069,0.0194035,0.406969,
2,1,0,1,0,9562.9,0.411302,0.411009,0.218258,14,0.0273513,10,8.97062e-05,-3.66103,-1.32946,-0.0443789,0.410913,
2,1,0,1,0,9563.7,0.415298,0.415005,0.217363,14,0.0275385,10,9.02068e-05,-3.66281,2.26848,0.0260086,0.41491,
2,1,0,0,0,9564.49,0.419293,0.419043,0.216459,14,0.0277255,10,9.07057e-05,-3.66462,-2.00467,-0.0294313,0.418948,
2,1,0,1,0,9565.29,0.423288,0.422997,0.217183,14,0.0279123,10,9.18679e-05,-3.66317,1.54985,0.0380681,0.422902,
2,1,0,1,0,9566.09,0.427283,0.427005,0.215201,14,0.0280993,10,9.1892e-05,-3.66716,-1.68103,-0.0350975,0.42691,
2,1,0,1,0,9566.89,0.431278,0.431037,0.21602,14,0.0282862,10,9.31128e-05,-3.66551,1.45257,0.0406177,0.430942,
2,1,0,1,0,9567.69,0.435273,0.43497,0.216397,14,0.0284729,10,9.41262e-05,-3.66475,10.8851,0.00542025,0.434875,
2,1,0,0,0,9568.49,0.439269,0.438977,0.21636,14,0.0286599,10,9.49772e-05,-3.66482,-1.84834,-0.0319205,0.438882,
2,1,0,1,0,9569.29,0.443264,0.442902,0.21645,14,0.0288465,10,9.58663e-05,-3.66464,1.15075,0.0512709,0.442807,
2,1,0,0,0,9570.09,0.447259,0.446982,0.216515,14,0.0290331,10,9.67782e-05,-3.66451,-4.15883,-0.0141867,0.446886,
2,1,0,1,0,9570.89,0.451254,0.450954,0.217529,14,0.0292201,10,9.80957e-05,-3.66248,-8.4699,-0.00696584,0.450859,
2,1,0,1,0,9571.69,0.455249,0.455,0.217439,14,0.029407,10,9.89349e-05,-3.66266,3.26259,0.0180838,0.454905,
2,1,0,1,0,9572.48,0.459244,0.459006,0.216645,14,0.0295941,10,9.94416e-05,-3.66425,-3.94548,-0.0149538,0.458911,
2,1,0,1,0,9573.28,0.46324,0.462951,0.217722,14,0.0297815,10,0.000100795,-3.6621,5.64861,0.0104451,0.462856,
2,1,0,0,0,9574.08,0.467235,0.466909,0.217877,14,0.0299688,10,0.000101729,-3.66179,4.36658,0.0135117,0.466813,
2,1,0,1,0,9574.88,0.471231,0.470921,0.218499,14,0.0301567,10,0.000102896,-3.66055,-2066.76,-2.85471e-05,0.470825,
2,1,0,1,0,9575.68,0.475225,0.474941,0.21947,14,0.0303448,10,0.000104235,-3.65862,1.62639,0.0362766,0.474844,
2,1,0,1,0,9576.48,0.47922,0.478912,0.219493,14,0.0305334,10,0.000105118,-3.65858,1.89441,0.0311443,0.478816,
2,1,0,1,0,9577.28,0.483216,0.482896,0.219549,14,0.0307225,10,0.000106019,-3.65847,11.9068,0.00495516,0.482799,
2,1,0,0,0,9578.08,0.487211,0.486912,0.222038,14,0.0309122,10,0.000108113,-3.65357,3.96351,0.0148858,0.486815,
2,1,0,1,0,9578.88,0.491206,0.490929,0.221004,14,0.0311026,10,0.000108497,-3.6556,2.4579,0.0240043,0.490832,
2,1,0,1,0,9579.68,0.495201,0.494938,0.223376,14,0.0312935,10,0.000110557,-3.65096,2.10022,0.0280923,0.49484,
2,1,0,1,0,9580.48,0.499196,0.49888,0.223773,14,0.0314849,10,0.000111636,-3.65019,0.784827,0.0751758,0.498782,
2,1,0,1,0,9581.27,0.503191,0.502921,0.225688,14,0.0316773,10,0.000113503,-3.64649,11.6891,0.00504744,0.502822,
2,1,0,0,0,9582.07,0.507187,0.506883,0.227403,14,0.0318708,10,0.000115267,-3.6432,1.0704,0.0551195,0.506783,
2,1,0,1,0,9582.87,0.511182,0.510888,0.227174,14,0.032065,10,0.000116061,-3.64364,7.79507,0.00756889,0.510788,
2,1,0,0,0,9583.67,0.515177,0.514923,0.228052,14,0.0322604,10,0.000117429,-3.64197,1.46698,0.0402187,0.514823,
2,1,0,1,0,9584.47,0.519173,0.518893,0.230009,14,0.0324566,10,0.00011935,-3.63826,1.68811,0.0349504,0.518792,
2,1,0,1,0,9585.27,0.523167,0.522847,0.231173,14,0.0326541,10,0.000120868,-3.63606,1.10842,0.053229,0.522746,
2,1,0,1,0,9586.07,0.527162,0.526897,0.233387,14,0.032853,10,0.000122971,-3.63192,1.84764,0.0319326,0.526794,
2,1,0,1,0,9586.87,0.531158,0.5309,0.235861,14,0.033053,10,0.000125219,-3.62734,0.950941,0.0620438,0.530796,
2,1,0,0,0,9587.67,0.535153,0.534886,0.236036,14,0.0332548,10,0.000126252,-3.62702,1.24106,0.0475399,0.534782,
2,1,0,1,0,9588.47,0.539148,0.538925,0.240012,14,0.0334579,10,0.000129348,-3.61977,0.816342,0.0722736,0.53882,
2,1,0,1,0,9589.26,0.543143,0.542808,0.241349,14,0.0336628,10,0.000131006,-3.61735,1.02543,0.0575366,0.542702,
2,1,0,1,0,9590.06,0.547138,0.546873,0.243671,14,0.0338695,10,0.000133257,-3.6132,1.23319,0.0478434,0.546766,
2,1,0,1,0,9590.86,0.551133,0.550854,0.246481,14,0.0340782,10,0.000135775,-3.60822,0.513174,0.114971,0.550746,
2,1,0,0,0,9591.66,0.555129,0.55488,0.249437,14,0.0342898,10,0.000138408,-3.60304,1.27614,0.046233,0.55477,
2,1,0,1,0,9592.46,0.559124,0.558825,0.25285,14,0.0345039,10,0.000141299,-3.59714,0.560214,0.105317,0.558714,
2,1,0,1,0,9593.26,0.56312,0.562833,0.257325,14,0.0347208,10,0.000144831,-3.58952,0.518181,0.11386,0.562719,
2,1,0,1,0,9594.06,0.567114,0.566835,0.261388,14,0.0349412,10,0.000148164,-3.58271,0.427829,0.137905,0.56672,
2,1,0,1,0,9594.86,0.571109,0.570837,0.26629,14,0.0351651,10,0.000152008,-3.57464,0.651826,0.0905149,0.57072,
2,1,0,0,0,9595.66,0.575105,0.574847,0.272021,14,0.0353931,10,0.00015637,-3.5654,0.372846,0.158242,0.574727,
2,1,0,1,0,9596.46,0.5791,0.57881,0.277757,14,0.0356258,10,0.000160768,-3.55634,0.462093,0.12768,0.578688,
2,1,0,0,0,9597.25,0.583095,0.582789,0.28465,14,0.0358635,10,0.000165891,-3.54569,0.333839,0.176732,0.582664,
2,1,0,1,0,9598.05,0.58709,0.586829,0.291803,14,0.0361069,10,0.000171238,-3.53491,0.39982,0.147566,0.5867,
2,1,0,1,0,9598.85,0.591085,0.590755,0.301101,14,0.0363567,10,0.000177877,-3.52129,0.268343,0.219868,0.590622,
2,1,0,1,0,9599.65,0.59508,0.594801,0.311004,14,0.0366138,10,0.000184985,-3.50723,0.250751,0.235293,0.594664,
2,1,0,1,0,9600.45,0.599076,0.598749,0.322164,14,0.0368794,10,0.000192895,-3.49192,0.244844,0.24097,0.598607,
2,1,0,0,0,9601.25,0.603071,0.602805,0.33444,14,0.0371545,10,0.000201602,-3.47568,0.246255,0.239589,0.602658,
2,1,0,1,0,9602.05,0.607066,0.606779,0.349477,14,0.0374404,10,0.000212055,-3.45658,0.203133,0.29045,0.606625,
2,1,0,1,0,9602.85,0.611061,0.610787,0.366486,14,0.0377393,10,0.000223845,-3.43594,0.194693,0.303041,0.610626,
2,1,0,1,0,9603.65,0.615056,0.61479,0.386672,14,0.038053,10,0.000237722,-3.41266,0.146521,0.402673,0.61462,
2,1,0,1,0,9604.45,0.619051,0.618786,0.41027,14,0.0383848,10,0.000253869,-3.38693,0.147211,0.400785,0.618606,
2,1,0,0,0,9605.25,0.623047,0.622739,0.438166,14,0.0387367,10,0.000272863,-3.35836,0.135738,0.434662,0.622546,
2,1,0,1,0,9606.04,0.627042,0.626803,0.470704,14,0.0391122,10,0.000295039,-3.32725,0.123152,0.479082,0.626596,
2,1,0,1,0,9606.84,0.631037,0.630775,0.508362,14,0.0395161,10,0.000320662,-3.29383,0.114375,0.515848,0.630551,
2,1,0,1,0,9607.64,0.635032,0.634756,0.553312,14,0.0399524,10,0.000351218,-3.25703,0.104649,0.563788,0.634512,
2,1,0,1,0,9608.44,0.639027,0.638715,0.605165,14,0.0404273,10,0.000386527,-3.21813,0.0972471,0.606702,0.638448,
2,1,0,1,0,9609.24,0.643022,0.642752,0.669008,14,0.040949,10,0.000430007,-3.17457,0.0917044,0.643371,0.642458,
2,1,0,1,0,9610.04,0.647018,0.646803,0.742831,14,0.041525,10,0.000480465,-3.12911,0.0820992,0.718643,0.646476,
2,1,0,0,0,9610.84,0.651013,0.650764,0.829775,14,0.0421658,10,0.000539988,-3.08104,0.0795138,0.74201,0.650399,
2,1,0,1,0,9611.64,0.655008,0.654752,0.933584,14,0.0428829,10,0.000611266,-3.02985,0.0751637,0.784953,0.654341,
2,1,0,1,0,9612.44,0.659003,0.658685,1.05535,14,0.0436894,10,0.000695142,-2.9766,0.0738389,0.799037,0.658221,
2,1,0,1,0,9613.24,0.662998,0.662718,1.1959,14,0.0446003,10,0.000792546,-2.9223,0.0700976,0.841683,0.662192,
2,1,0,1,0,9614.03,0.666994,0.666744,1.36269,14,0.045634,10,0.000908566,-2.8656,0.069436,0.849704,0.666144,
2,1,0,0,0,9614.83,0.670989,0.670716,1.55379,14,0.0468107,10,0.00104215,-2.80861,0.067546,0.873478,0.670032,
2,1,0,1,0,9615.63,0.674984,0.674693,1.77562,14,0.0481518,10,0.001198,-2.75065,0.0665339,0.886767,0.673912,
2,1,0,1,0,9616.43,0.67898,0.67872,2.02983,14,0.0496831,10,0.00137768,-2.69254,0.0677525,0.870816,0.677827,
2,1,0,1,0,9617.23,0.682974,0.682716,2.31716,14,0.0514308,10,0.00158196,-2.63504,0.0669172,0.881687,0.681697,
2,1,0,1,0,9618.03,0.686969,0.686685,2.64138,14,0.0534231,10,0.0018138,-2.57817,0.0684028,0.862538,0.685523,
2,1,0,0,0,9618.83,0.690965,0.690687,3.00538,14,0.055691,10,0.00207577,-2.5221,0.0687788,0.857822,0.689364,
2,1,0,1,0,9619.63,0.69496,0.694659,3.41127,14,0.0582653,10,0.00236967,-2.46708,0.070394,0.838139,0.693158,
2,1,0,0,0,9620.43,0.698955,0.69869,3.85584,14,0.061179,10,0.00269404,-2.41388,0.071685,0.823045,0.696994,
2,1,0,1,0,9621.23,0.70295,0.70269,4.34224,14,0.0644657,10,0.00305125,-2.36229,0.0749992,0.786675,0.70078,
2,1,0,1,0,9622.02,0.706945,0.706674,4.87083,14,0.0681573,10,0.00344209,-2.3124,0.0769668,0.766565,0.704531,
2,1,0,1,0,9622.82,0.71094,0.710658,5.43866,14,0.0722875,10,0.00386502,-2.26451,0.0792187,0.744773,0.708265,
2,1,0,1,0,9623.62,0.714936,0.714671,6.04647,14,0.0768884,10,0.00432123,-2.2185,0.0820601,0.718985,0.71201,
2,1,0,0,0,9624.42,0.718931,0.718708,6.6942,14,0.0819901,10,0.00481117,-2.1743,0.0858534,0.687218,0.715762,
2,1,0,1,0,9625.22,0.722927,0.722677,7.3774,14,0.0876245,10,0.00533148,-2.1321,0.0897292,0.657534,0.719431,
2,1,0,1,0,9626.02,0.726921,0.726641,8.09949,14,0.0938192,10,0.00588542,-2.09154,0.0948488,0.622043,0.723077,
2,1,0,1,0,9626.82,0.730916,0.730643,8.85502,14,0.100603,10,0.00646986,-2.05281,0.0936303,0.630138,0.726747,
2,1,0,1,0,9627.62,0.734911,0.734622,9.64301,14,0.108005,10,0.00708397,-2.01579,0.100384,0.58774,0.730379,
2,1,0,0,0,9628.42,0.738907,0.738632,10.4663,14,0.116052,10,0.00773073,-1.98021,0.105245,0.560599,0.734027,
2,1,0,1,0,9629.22,0.742902,0.742612,11.3202,14,0.124768,10,0.00840656,-1.94614,0.105953,0.556848,0.737632,
2,1,0,1,0,9630.02,0.746897,0.746606,12.2168,14,0.134185,10,0.00912111,-1.91304,0.111034,0.531369,0.741231,
2,1,0,1,0,9630.81,0.750892,0.750609,13.1593,14,0.144333,10,0.00987746,-1.88077,0.113193,0.521235,0.744819,
2,1,0,1,0,9631.61,0.754887,0.754607,14.1487,14,0.155254,10,0.0106767,-1.84928,0.111635,0.528508,0.748382,
2,1,0,0,0,9632.41,0.758883,0.758645,15.2008,14,0.166991,10,0.011532,-1.81813,0.115236,0.511991,0.751956,
2,1,0,1,0,9633.21,0.762878,0.762636,16.2987,14,0.179591,10,0.01243,-1.78785,0.11579,0.509543,0.755465,
2,1,0,0,0,9634.01,0.766873,0.766653,17.4719,14,0.193095,10,0.0133949,-1.75766,0.115934,0.50891,0.758965,
2,1,0,1,0,9634.81,0.770868,0.770566,18.719,14,0.207566,10,0.0144243,-1.72772,0.133151,0.443107,0.76233,
2,1,0,1,0,9635.61,0.774863,0.774611,19.8852,14,0.222956,10,0.0154033,-1.70147,0.113824,0.518343,0.765862,
2,1,0,1,0,9636.41,0.778858,0.778565,21.282,14,0.239411,10,0.0165694,-1.67199,0.116701,0.505565,0.769201,
2,1,0,1,0,9637.21,0.782854,0.782616,22.7257,14,0.257003,10,0.0177855,-1.64348,0.117381,0.502638,0.772617,
2,1,0,0,0,9638.01,0.786849,0.786609,24.2378,14,0.275778,10,0.0190657,-1.61551,0.122539,0.48148,0.775944,
2,1,0,1,0,9638.8,0.790844,0.790586,25.8142,14,0.295789,10,0.0204083,-1.58814,0.120639,0.489064,0.779228,
2,1,0,1,0,9639.6,0.794839,0.794537,27.4121,14,0.317071,10,0.0217799,-1.56206,0.124734,0.473005,0.782476,
2,1,0,1,0,9640.4,0.798834,0.798575,29.1204,14,0.339667,10,0.0232549,-1.5358,0.127307,0.463447,0.785762,
2,1,0,1,0,9641.2,0.802829,0.802586,30.8119,14,0.363618,10,0.0247292,-1.51128,0.133077,0.443351,0.789028,
2,1,0,0,0,9642,0.806825,0.806573,32.5904,14,0.388964,10,0.0262865,-1.48691,0.137551,0.428933,0.792233,
2,1,0,1,0,9642.8,0.81082,0.810563,34.291,14,0.415708,10,0.027795,-1.46482,0.161451,0.365437,0.795475,
2,1,0,1,0,9643.6,0.814815,0.814568,35.898,14,0.443752,10,0.0292414,-1.44493,0.158414,0.372442,0.798773,
2,1,0,1,0,9644.4,0.81881,0.818501,37.6732,14,0.47315,10,0.0308355,-1.42397,0.156329,0.377409,0.801924,
2,1,0,1,0,9645.2,0.822805,0.822555,39.4109,14,0.503958,10,0.0324177,-1.40438,0.177399,0.332584,0.805214,
2,1,0,0,0,9646,0.826801,0.826536,41.1114,14,0.536129,10,0.0339801,-1.38604,0.166465,0.354428,0.808447,
2,1,0,1,0,9646.8,0.830796,0.830582,42.8408,14,0.569712,10,0.0355828,-1.36814,0.195196,0.30226,0.811732,
2,1,0,0,0,9647.59,0.834791,0.834541,44.5207,14,0.604634,10,0.0371544,-1.35144,0.201999,0.292081,0.814952,
2,1,0,1,0,9648.39,0.838786,0.838553,46.1883,14,0.640879,10,0.0387314,-1.33547,0.192529,0.306447,0.81823,
2,1,0,1,0,9649.19,0.842781,0.842556,47.8847,14,0.678514,10,0.0403455,-1.3198,0.242768,0.24303,0.821486,
2,1,0,1,0,9649.99,0.846776,0.846539,49.4142,14,0.717384,10,0.041831,-1.30615,0.341331,0.172853,0.824797,
2,1,0,0,0,9650.69,0.849723,0.849478,49.9304,14,0.752169,10,0.0424148,-1.30163,0.0473523,1.24598,0.827509,
2,1,0,1,0,9651.49,0.845728,0.845497,47.5667,14,0.791,10,0.0402175,-1.3227,0.169986,0.347087,0.824568,
2,1,0,0,0,9652.29,0.841732,0.841518,45.5649,14,0.828169,10,0.0383436,-1.34137,0.14467,0.407824,0.821469,
2,1,0,1,0,9653.09,0.837737,0.837498,43.3668,14,0.863617,10,0.0363196,-1.36284,0.160737,0.36706,0.818417,
2,1,0,1,0,9653.89,0.833742,0.833506,41.5053,14,0.897495,10,0.0345949,-1.3819,0.16742,0.352408,0.815244,
2,1,0,1,0,9654.69,0.829747,0.82949,39.6535,14,0.929904,10,0.0328922,-1.40172,0.162293,0.36354,0.812042,
2,1,0,1,0,9655.49,0.825752,0.825514,37.3851,14,0.960858,10,0.0308619,-1.4273,0.111663,0.528375,0.809065,
2,1,0,0,0,9656.28,0.821757,0.821483,35.6865,14,0.989986,10,0.0293159,-1.4475,0.153853,0.383483,0.805781,
2,1,0,1,0,9657.08,0.817761,0.817495,33.8816,14,1.01775,10,0.027698,-1.47004,0.146012,0.404077,0.802587,
2,1,0,1,0,9657.88,0.813766,0.813522,32.135,14,1.04411,10,0.0261425,-1.49302,0.135904,0.434129,0.799382,
2,1,0,1,0,9658.68,0.809771,0.809507,30.4139,14,1.06908,10,0.0246203,-1.51693,0.131148,0.449875,0.796125,
2,1,0,1,0,9659.48,0.805776,0.805519,28.7146,14,1.09268,10,0.0231302,-1.5419,0.13102,0.450313,0.792885,
2,1,0,0,0,9660.28,0.801781,0.801513,27.0368,14,1.11494,10,0.0216704,-1.56804,0.124911,0.472336,0.789617,
2,1,0,1,0,9661.08,0.797786,0.797549,25.4579,14,1.1359,10,0.0203039,-1.59418,0.123017,0.479609,0.786348,
2,1,0,1,0,9661.88,0.79379,0.79349,23.8873,14,1.15559,10,0.0189543,-1.62183,0.117618,0.501624,0.78298,
2,1,0,1,0,9662.68,0.789795,0.7895,22.3096,14,1.17403,10,0.0176134,-1.65151,0.108064,0.545971,0.779684,
2,1,0,1,0,9663.48,0.7858,0.785522,20.845,14,1.19125,10,0.0163742,-1.681,0.11518,0.512244,0.77635,
2,1,0,0,0,9664.27,0.781805,0.781568,19.4554,14,1.20733,10,0.0152057,-1.71096,0.0892571,0.661012,0.773007,
2,1,0,1,0,9665.07,0.77781,0.777535,17.1882,14,1.22197,10,0.0133644,-1.76477,0.0678235,0.869904,0.769972,
2,1,0,0,0,9665.87,0.773815,0.773555,16.0617,14,1.23525,10,0.0124246,-1.79421,0.112967,0.522276,0.766488,
2,1,0,1,0,9666.67,0.769819,0.769618,14.9267,14,1.24761,10,0.0114879,-1.82604,0.108081,0.545888,0.76305,
2,1,0,1,0,9667.47,0.765824,0.765542,13.83,14,1.25908,10,0.0105875,-1.85918,0.105167,0.561015,0.759457,
2,1,0,1,0,9668.27,0.761829,0.761562,12.7857,14,1.2697,10,0.00973714,-1.89327,0.102611,0.574988,0.755936,
2,1,0,1,0,9669.07,0.757834,0.757594,11.7953,14,1.2795,10,0.00893604,-1.92829,0.100415,0.587561,0.752404,
2,1,0,0,0,9669.87,0.753839,0.75355,10.8445,14,1.28853,10,0.00817185,-1.96479,0.0963761,0.612185,0.748778,
2,1,0,1,0,9670.67,0.749844,0.749589,9.9542,14,1.29683,10,0.00746156,-2.00199,0.0949244,0.621547,0.745209,
2,1,0,1,0,9671.47,0.745848,0.745562,9.10186,14,1.30443,10,0.006786,-2.04087,0.0917157,0.643292,0.741558,
2,1,0,1,0,9672.26,0.741853,0.741569,8.29891,14,1.31136,10,0.00615421,-2.08098,0.0911719,0.647129,0.737918,
2,1,0,1,0,9673.06,0.737858,0.7376,7.54592,14,1.31768,10,0.00556588,-2.12229,0.0868148,0.679608,0.73428,
2,1,0,0,0,9673.86,0.733863,0.733553,6.83686,14,1.32341,10,0.0050152,-2.16514,0.0853514,0.69126,0.730545,
2,1,0,1,0,9674.66,0.729868,0.729593,6.17551,14,1.32859,10,0.00450561,-2.20933,0.0822089,0.717684,0.726876,
2,1,0,1,0,9675.46,0.725872,0.725661,5.55539,14,1.33326,10,0.00403133,-2.25529,0.0799395,0.738058,0.723217,
2,1,0,1,0,9676.26,0.721877,0.72162,4.9803,14,1.33746,10,0.00359389,-2.30274,0.0778589,0.757781,0.719429,
2,1,0,1,0,9677.06,0.717882,0.717609,4.44617,14,1.34121,10,0.00319062,-2.35201,0.074279,0.794302,0.715653,
2,1,0,0,0,9677.86,0.713887,0.713646,3.95344,14,1.34455,10,0.00282136,-2.40302,0.0737383,0.800127,0.711907,
2,1,0,1,0,9678.66,0.709892,0.709615,3.49946,14,1.34751,10,0.00248327,-2.456,0.0705306,0.836516,0.708075,
2,1,0,0,0,9679.46,0.705897,0.705628,3.08455,14,1.35013,10,0.00217655,-2.51081,0.0684442,0.862016,0.70427,
2,1,0,1,0,9680.26,0.701901,0.7016,2.70558,14,1.35243,10,0.00189823,-2.56774,0.0651184,0.906041,0.700409,
2,1,0,1,0,9681.05,0.697906,0.69762,2.35906,14,1.35444,10,0.00164573,-2.62726,0.0636013,0.927654,0.696582,
2,1,0,1,0,9681.85,0.693911,0.693626,2.04571,14,1.35618,10,0.00141896,-2.68916,0.0617536,0.955409,0.692726,
2,1,0,1,0,9682.65,0.689916,0.689618,1.76395,14,1.35769,10,0.00121645,-2.75351,0.0579135,1.01876,0.688841,
2,1,0,0,0,9683.45,0.685921,0.68566,1.51129,14,1.35898,10,0.00103623,-2.82065,0.0575332,1.0255,0.684995,
2,1,0,1,0,9684.25,0.681926,0.681657,1.2869,14,1.36009,10,0.000877226,-2.89045,0.0546453,1.07969,0.681091,
2,1,0,1,0,9685.05,0.67793,0.677679,1.08831,14,1.36102,10,0.000737526,-2.96325,0.0517729,1.13959,0.677201,
2,1,0,1,0,9685.85,0.673935,0.673656,0.914486,14,1.36181,10,0.00061605,-3.03882,0.0518294,1.13835,0.673254,
2,1,0,1,0,9686.65,0.66994,0.669656,0.763174,14,1.36247,10,0.000511064,-3.11738,0.0481918,1.22428,0.66932,
2,1,0,0,0,9687.45,0.665945,0.665694,0.628107,14,1.36301,10,0.000418127,-3.20197,0.0469641,1.25628,0.665417,
2,1,0,1,0,9688.25,0.66195,0.661678,0.516344,14,1.36346,10,0.000341653,-3.28706,0.0437135,1.3497,0.661451,
2,1,0,0,0,9689.04,0.657955,0.657686,0.4182,14,1.36382,10,0.000275044,-3.37862,0.0418633,1.40935,0.657502,
2,1,0,1,0,9689.84,0.653959,0.653661,0.334014,14,1.3641,10,0.000218332,-3.47623,0.0403558,1.46199,0.653514,
2,1,0,1,0,9690.64,0.649964,0.649724,0.263713,14,1.36433,10,0.000171341,-3.57887,0.0365793,1.61294,0.649608,
2,1,0,1,0,9691.44,0.64597,0.645676,0.204601,14,1.36451,10,0.000132106,-3.68909,0.0347109,1.69976,0.645586,
2,1,0,1,0,9692.24,0.641974,0.641721,0.153367,14,1.36464,10,9.84187e-05,-3.81427,0.0299933,1.96711,0.641654,
2,1,0,0,0,9693.04,0.637979,0.637686,0.111542,14,1.36473,10,7.11287e-05,-3.95256,0.0262096,2.25109,0.637637,
2,1,0,1,0,9693.84,0.633983,0.633708,0.0747482,14,1.36479,10,4.73685e-05,-4.1264,0.0220586,2.6747,0.633675,
2,1,0,1,0,9694.64,0.629988,0.629715,0.0457929,14,1.36483,10,2.88365e-05,-4.3392,0.0145856,4.04509,0.629695,
2,1,0,1,0,9695.44,0.625993,0.625697,0.0200986,14,1.36484,10,1.25757e-05,-4.69683,0.00802439,7.35259,0.625689,
2,1,0,1,0,9696.24,0.621998,0.621729,0.000800124,14,1.36484,10,4.97461e-07,-6.09684,0.170702,0.345631,0.621729,
2,0,0,0,0,9697.03,0.618003,0.617694,-0.017371,14,1.36482,10,-1.07299e-05,-4.76018,-0.0093494,-6.31057,0.617702,
2,0,0,1,0,9697.83,0.614008,0.613734,-0.0314314,14,1.36479,10,-1.92905e-05,-4.50264,-0.0260541,-2.26451,0.613748,
2,0,0,1,0,9698.63,0.610012,0.609737,-0.0436026,14,1.36475,10,-2.65861e-05,-4.36049,-0.0340361,-1.73345,0.609756,
2,0,0,1,0,9699.43,0.606017,0.605737,-0.0529444,14,1.3647,10,-3.20704e-05,-4.27618,-0.0566263,-1.04192,0.605761,
2,0,0,1,0,9700.23,0.602022,0.601684,-0.061754,14,1.36464,10,-3.71564e-05,-4.20933,-0.0869156,-0.678819,0.601711,
2,0,0,0,0,9701.03,0.598027,0.597745,-0.0691075,14,1.36458,10,-4.13086e-05,-4.16048,-0.0740947,-0.796278,0.597775,
2,0,0,1,0,9701.83,0.594032,0.593767,-0.0749024,14,1.36451,10,-4.44746e-05,-4.1255,-0.162507,-0.363062,0.5938,
2,0,0,0,0,9702.63,0.590037,0.589737,-0.080662,14,1.36444,10,-4.75694e-05,-4.09333,-0.117271,-0.503109,0.589772,
2,0,0,1,0,9703.43,0.586041,0.585738,-0.0848079,14,1.36436,10,-4.96752e-05,-4.07156,-0.244218,-0.241588,0.585775,
2,0,0,1,0,9704.23,0.582046,0.581772,-0.087772,14,1.36428,10,-5.10633e-05,-4.05664,-0.172418,-0.342191,0.581811,
2,0,0,1,0,9705.03,0.578052,0.57774,-0.0909595,14,1.36419,10,-5.25509e-05,-4.04115,-0.382462,-0.154264,0.57778,
2,0,0,1,0,9705.82,0.574056,0.573753,-0.0935019,14,1.36411,10,-5.3647e-05,-4.02918,-0.344674,-0.171176,0.573794,
2,0,0,0,0,9706.62,0.570061,0.569777,-0.0970457,14,1.36402,10,-5.52944e-05,-4.01302,-0.715453,-0.0824652,0.56982,
2,0,0,1,0,9707.42,0.566065,0.565785,-0.0994066,14,1.36393,10,-5.62428e-05,-4.00258,-0.239156,-0.246701,0.565829,
2,0,0,1,0,9708.22,0.56207,0.561785,-0.101777,14,1.36384,10,-5.71766e-05,-3.99235,-0.800457,-0.0737079,0.56183,
2,0,0,1,0,9709.02,0.558075,0.55782,-0.103446,14,1.36374,10,-5.7704e-05,-3.98529,-0.448993,-0.131405,0.557865,
2,0,0,1,0,9709.82,0.55408,0.553802,-0.104645,14,1.36365,10,-5.79526e-05,-3.98028,-0.307416,-0.191922,0.553848,
2,0,0,0,0,9710.62,0.550085,0.549804,-0.106779,14,1.36355,10,-5.87076e-05,-3.97151,-2.34724,-0.0251359,0.549851,
2,0,0,1,0,9711.42,0.54609,0.545816,-0.107253,14,1.36346,10,-5.85405e-05,-3.96959,-0.640852,-0.0920649,0.545863,
2,0,0,1,0,9712.22,0.542094,0.541784,-0.108397,14,1.36336,10,-5.87276e-05,-3.96498,-0.604872,-0.0975412,0.541831,
2,0,0,1,0,9713.02,0.538099,0.537775,-0.111759,14,1.36326,10,-6.01013e-05,-3.95172,-2.51178,-0.0234893,0.537824,
2,0,0,1,0,9713.81,0.534104,0.533806,-0.111825,14,1.36316,10,-5.9693e-05,-3.95146,-1.46978,-0.0401419,0.533855,
2,0,0,0,0,9714.61,0.530109,0.529807,-0.112589,14,1.36306,10,-5.96503e-05,-3.9485,-0.983857,-0.0599681,0.529856,
2,0,0,1,0,9715.41,0.526114,0.525798,-0.114749,14,1.36295,10,-6.03347e-05,-3.94025,-0.731067,-0.080704,0.525849,
2,0,0,0,0,9716.21,0.522119,0.521829,-0.114445,14,1.36285,10,-5.97209e-05,-3.9414,-0.761649,-0.0774635,0.52188,
2,0,0,1,0,9717.01,0.518123,0.517821,-0.116056,14,1.36275,10,-6.00965e-05,-3.93533,7178.06,8.21949e-06,0.517872,
2,0,0,1,0,9717.81,0.514128,0.513837,-0.116782,14,1.36264,10,-6.00071e-05,-3.93262,-0.941556,-0.0626623,0.513889,
2,0,0,1,0,9718.61,0.510133,0.509833,-0.117882,14,1.36254,10,-6.01003e-05,-3.92855,-0.793281,-0.0743746,0.509885,
2,0,0,1,0,9719.41,0.506138,0.505797,-0.119566,14,1.36243,10,-6.04761e-05,-3.92239,-0.680986,-0.0866391,0.50585,
2,0,0,0,0,9720.21,0.502143,0.501874,-0.120495,14,1.36232,10,-6.04733e-05,-3.91903,-1.85235,-0.0318514,0.501927,
2,0,0,1,0,9721.01,0.498148,0.497852,-0.121892,14,1.36222,10,-6.0684e-05,-3.91403,-1.52197,-0.0387655,0.497905,
2,0,0,1,0,9721.8,0.494152,0.493871,-0.122084,14,1.36211,10,-6.02935e-05,-3.91334,-0.556454,-0.106028,0.493924,
2,0,0,1,0,9722.6,0.490157,0.489852,-0.12397,14,1.362,10,-6.07271e-05,-3.90668,-0.861453,-0.068489,0.489906,
2,0,0,1,0,9723.4,0.486162,0.485859,-0.124505,14,1.36189,10,-6.04919e-05,-3.90481,3.19057,0.018492,0.485913,
2,0,0,0,0,9724.2,0.482167,0.481833,-0.126674,14,1.36177,10,-6.10358e-05,-3.89731,-0.504908,-0.116853,0.481889,
2,0,0,1,0,9725,0.478172,0.477884,-0.126783,14,1.36166,10,-6.05877e-05,-3.89694,-0.865585,-0.068162,0.47794,
2,0,0,0,0,9725.8,0.474177,0.473853,-0.128658,14,1.36155,10,-6.0965e-05,-3.89056,-3.21351,-0.01836,0.47391,
2,0,0,1,0,9726.6,0.470181,0.46987,-0.129463,14,1.36143,10,-6.0831e-05,-3.88785,-0.757094,-0.0779296,0.469927,
2,0,0,1,0,9727.4,0.466186,0.465848,-0.131538,14,1.36132,10,-6.12767e-05,-3.88095,-0.840215,-0.0702201,0.465905,
2,0,0,1,0,9728.2,0.462191,0.461855,-0.131898,14,1.3612,10,-6.09177e-05,-3.87976,-0.502733,-0.117358,0.461914,
2,0,0,1,0,9729,0.458196,0.457891,-0.13431,14,1.36108,10,-6.14992e-05,-3.87189,-1.3764,-0.0428654,0.45795,
2,0,0,0,0,9729.8,0.454201,0.453916,-0.135417,14,1.36096,10,-6.14678e-05,-3.86833,-1.55348,-0.0379791,0.453975,
2,0,0,1,0,9730.59,0.450205,0.449927,-0.138452,14,1.36084,10,-6.22934e-05,-3.8587,-0.356463,-0.165515,0.449988,
2,0,0,1,0,9731.39,0.44621,0.445905,-0.138944,14,1.36072,10,-6.19558e-05,-3.85716,-2.29194,-0.0257423,0.445966,
2,0,0,1,0,9732.19,0.442215,0.441919,-0.140756,14,1.3606,10,-6.22027e-05,-3.85153,-1.58792,-0.0371555,0.44198,
2,0,0,1,0,9732.99,0.43822,0.437936,-0.142456,14,1.36047,10,-6.23866e-05,-3.84632,-0.545357,-0.108186,0.437999,
2,0,0,0,0,9733.79,0.434225,0.433907,-0.143592,14,1.36035,10,-6.23057e-05,-3.84287,-0.802784,-0.0734942,0.43397,
2,0,0,1,0,9734.59,0.43023,0.429936,-0.144672,14,1.36022,10,-6.21995e-05,-3.83962,-1.2797,-0.0461044,0.429999,
2,0,0,1,0,9735.39,0.426234,0.42598,-0.146445,14,1.36009,10,-6.23826e-05,-3.83433,-0.450148,-0.131068,0.426044,
2,0,0,1,0,9736.19,0.422239,0.421953,-0.1485,14,1.35996,10,-6.26599e-05,-3.82827,-1.00735,-0.0585698,0.422018,
2,0,0,1,0,9736.99,0.418244,0.417933,-0.150646,14,1.35983,10,-6.29599e-05,-3.82204,-0.828087,-0.0712486,0.418,
2,0,0,0,0,9737.79,0.414249,0.413963,-0.151456,14,1.3597,10,-6.26971e-05,-3.81971,-0.739601,-0.0797727,0.414029,
2,0,0,1,0,9738.58,0.410254,0.409909,-0.154337,14,1.35956,10,-6.32642e-05,-3.81153,-3.02482,-0.0195053,0.409977,
2,0,0,0,0,9739.38,0.406259,0.405976,-0.156741,14,1.35943,10,-6.36331e-05,-3.80482,-0.563714,-0.104663,0.406045,
2,0,0,1,0,9740.18,0.402263,0.401974,-0.157907,14,1.35929,10,-6.34744e-05,-3.8016,-0.59424,-0.0992866,0.402043,
2,0,0,1,0,9740.98,0.398268,0.397977,-0.159802,14,1.35915,10,-6.35975e-05,-3.79642,-0.500363,-0.117914,0.398048,
2,0,0,1,0,9741.78,0.394274,0.394006,-0.161802,14,1.35901,10,-6.3751e-05,-3.79102,-0.80611,-0.073191,0.394078,
2,0,0,1,0,9742.58,0.390278,0.38995,-0.163947,14,1.35886,10,-6.39311e-05,-3.7853,-2.06753,-0.0285365,0.390022,
2,0,0,0,0,9743.38,0.386283,0.385994,-0.166055,14,1.35872,10,-6.40962e-05,-3.77975,-0.41461,-0.142303,0.386067,
2,0,0,1,0,9744.18,0.382287,0.382015,-0.168389,14,1.35857,10,-6.4327e-05,-3.77369,-1.84537,-0.0319719,0.382089,
2,0,0,1,0,9744.98,0.378292,0.37802,-0.171642,14,1.35843,10,-6.48841e-05,-3.76538,-1.44779,-0.0407517,0.378096,
2,0,0,1,0,9745.78,0.374297,0.374033,-0.17223,14,1.35828,10,-6.44197e-05,-3.76389,-0.439921,-0.134115,0.374109,
2,0,0,1,0,9746.57,0.370303,0.369956,-0.175075,14,1.35812,10,-6.47701e-05,-3.75678,-0.722728,-0.0816351,0.370033,
2,0,0,0,0,9747.37,0.366307,0.366059,-0.17693,14,1.35797,10,-6.47667e-05,-3.7522,-0.885941,-0.0665959,0.366137,
2,0,0,1,0,9748.17,0.362312,0.362025,-0.178521,14,1.35782,10,-6.46291e-05,-3.74831,-0.465767,-0.126673,0.362104,
2,0,0,1,0,9748.97,0.358316,0.358029,-0.18197,14,1.35766,10,-6.51506e-05,-3.74,-2.24499,-0.0262807,0.358109,
2,0,0,1,0,9749.77,0.354321,0.354038,-0.184079,14,1.3575,10,-6.51712e-05,-3.73499,-0.686966,-0.0858849,0.354119,
2,0,0,1,0,9750.57,0.350327,0.350031,-0.185731,14,1.35734,10,-6.50115e-05,-3.73112,-0.585425,-0.100782,0.350113,
2,0,0,0,0,9751.37,0.346331,0.346008,-0.189372,14,1.35718,10,-6.55242e-05,-3.72268,-2.99603,-0.0196927,0.346091,
2,0,0,1,0,9752.17,0.342336,0.342005,-0.190671,14,1.35701,10,-6.52102e-05,-3.71972,-0.372354,-0.158451,0.342089,
2,0,0,0,0,9752.97,0.338341,0.338035,-0.192413,14,1.35685,10,-6.50423e-05,-3.71576,-4.35056,-0.0135615,0.338119,
2,0,0,1,0,9753.77,0.334345,0.334053,-0.194937,14,1.35668,10,-6.51194e-05,-3.71011,-0.518346,-0.113824,0.334139,
2,0,0,1,0,9754.57,0.33035,0.330057,-0.197114,14,1.35651,10,-6.50589e-05,-3.70528,-0.681411,-0.086585,0.330144,
2,0,0,1,0,9755.36,0.326355,0.326048,-0.202008,14,1.35633,10,-6.58644e-05,-3.69463,-0.777915,-0.0758438,0.326137,
2,0,0,1,0,9756.16,0.32236,0.322054,-0.202742,14,1.35616,10,-6.52939e-05,-3.69306,-0.860955,-0.0685285,0.322143,
2,0,0,0,0,9756.96,0.318365,0.318089,-0.204601,14,1.35598,10,-6.50815e-05,-3.68909,-0.895483,-0.0658862,0.318179,
2,0,0,1,0,9757.76,0.31437,0.314079,-0.207694,14,1.35581,10,-6.52322e-05,-3.68258,-0.824508,-0.0715578,0.31417,
2,0,0,1,0,9758.56,0.310374,0.310088,-0.209922,14,1.35563,10,-6.50944e-05,-3.67794,-0.662361,-0.0890753,0.310181,
2,0,0,1,0,9759.36,0.306379,0.306038,-0.214109,14,1.35544,10,-6.55253e-05,-3.66937,-0.775698,-0.0760605,0.306132,
2,0,0,1,0,9760.16,0.302385,0.302084,-0.215486,14,1.35526,10,-6.50947e-05,-3.66658,-0.712068,-0.0828573,0.302179,
2,0,0,0,0,9760.96,0.298389,0.298145,-0.215766,14,1.35507,10,-6.43295e-05,-3.66602,-0.769563,-0.0766669,0.29824,
2,0,0,1,0,9761.76,0.294394,0.294056,-0.220317,14,1.35488,10,-6.47855e-05,-3.65695,-0.629193,-0.0937709,0.294153,
2,0,0,1,0,9762.56,0.290398,0.290088,-0.223618,14,1.35469,10,-6.48689e-05,-3.65049,-0.980139,-0.0601956,0.290186,
2,0,0,1,0,9763.35,0.286403,0.286049,-0.226186,14,1.3545,10,-6.47002e-05,-3.64554,-0.628415,-0.0938871,0.286149,
2,0,0,1,0,9764.15,0.282408,0.282096,-0.229572,14,1.35431,10,-6.47614e-05,-3.63908,-34.1366,-0.00172835,0.282197,
2,0,0,1,0,9764.95,0.278414,0.278092,-0.229917,14,1.35411,10,-6.3938e-05,-3.63843,-0.491194,-0.120115,0.278193,
2,0,0,1,0,9765.75,0.274418,0.274082,-0.233991,14,1.35391,10,-6.41329e-05,-3.6308,-0.842013,-0.0700702,0.274185,
2,0,0,0,0,9766.55,0.270423,0.270135,-0.237649,14,1.35371,10,-6.41971e-05,-3.62406,-0.541566,-0.108943,0.270239,
2,0,0,1,0,9767.35,0.266427,0.266131,-0.239198,14,1.35351,10,-6.36579e-05,-3.62124,-1.56559,-0.0376854,0.266236,
2,0,0,1,0,9768.15,0.262432,0.262152,-0.241032,14,1.3533,10,-6.31869e-05,-3.61793,-0.7444,-0.0792585,0.262258,
2,0,0,1,0,9768.95,0.258437,0.25816,-0.243611,14,1.35309,10,-6.28904e-05,-3.6133,-1.62222,-0.03637,0.258267,
2,0,0,1,0,9769.75,0.254442,0.254116,-0.245412,14,1.35288,10,-6.23631e-05,-3.6101,-0.740842,-0.0796392,0.254224,
2,0,0,0,0,9770.55,0.250447,0.250135,-0.248493,14,1.35267,10,-6.2157e-05,-3.60468,-0.904595,-0.0652225,0.250245,
2,0,0,1,0,9771.35,0.246452,0.246115,-0.251801,14,1.35246,10,-6.19721e-05,-3.59894,-1.09492,-0.0538851,0.246226,
2,0,0,1,0,9772.14,0.242456,0.242166,-0.252685,14,1.35225,10,-6.11918e-05,-3.59742,-0.926382,-0.0636886,0.242277,
2,0,0,1,0,9772.94,0.238461,0.238157,-0.255692,14,1.35203,10,-6.08947e-05,-3.59228,-0.75811,-0.0778251,0.238269,
2,0,0,1,0,9773.74,0.234467,0.234149,-0.258612,14,1.35181,10,-6.05537e-05,-3.58735,-0.678448,-0.0869632,0.234263,
2,0,0,0,0,9774.54,0.230471,0.230154,-0.260926,14,1.35159,10,-6.00531e-05,-3.58348,-1.52156,-0.038776,0.230269,
2,0,0,1,0,9775.34,0.226476,0.226132,-0.264365,14,1.35136,10,-5.97813e-05,-3.5778,-0.935484,-0.063069,0.226248,
2,0,0,0,0,9776.14,0.222481,0.222195,-0.266356,14,1.35114,10,-5.91828e-05,-3.57454,-0.758235,-0.0778122,0.222312,
2,0,0,1,0,9776.94,0.218485,0.2182,-0.270881,14,1.35091,10,-5.91062e-05,-3.56722,-1.12789,-0.05231,0.218319,
2,0,0,1,0,9777.74,0.21449,0.214178,-0.273614,14,1.35068,10,-5.86022e-05,-3.56286,-0.569314,-0.103634,0.214299,
2,0,0,1,0,9778.54,0.210496,0.21016,-0.276764,14,1.35045,10,-5.81647e-05,-3.55789,-0.924062,-0.0638485,0.210282,
2,0,0,1,0,9779.34,0.2065,0.206184,-0.280475,14,1.35021,10,-5.78293e-05,-3.55211,-0.513154,-0.114975,0.206307,
2,0,0,0,0,9780.13,0.202505,0.20217,-0.282549,14,1.34997,10,-5.71229e-05,-3.54891,-1.75626,-0.0335942,0.202294,
2,0,0,1,0,9780.93,0.198509,0.198193,-0.287766,14,1.34973,10,-5.70331e-05,-3.54096,-0.468222,-0.126008,0.19832,
2,0,0,1,0,9781.73,0.194514,0.194202,-0.291182,14,1.34949,10,-5.65481e-05,-3.53584,-0.672517,-0.0877301,0.19433,
2,0,0,1,0,9782.53,0.190519,0.190201,-0.296539,14,1.34924,10,-5.6402e-05,-3.52792,-0.400263,-0.147403,0.190332,
2,0,0,1,0,9783.33,0.186524,0.186202,-0.302282,14,1.34898,10,-5.62857e-05,-3.51959,-1.00181,-0.0588935,0.186335,
2,0,0,0,0,9784.13,0.182529,0.182216,-0.308198,14,1.34873,10,-5.61587e-05,-3.51117,-0.375668,-0.157053,0.182352,
2,0,0,1,0,9784.93,0.178534,0.178231,-0.31561,14,1.34846,10,-5.62515e-05,-3.50085,-0.409929,-0.143927,0.17837,
2,0,0,1,0,9785.73,0.174538,0.174205,-0.325142,14,1.34819,10,-5.66412e-05,-3.48793,-0.278065,-0.212181,0.174348,
2,0,0,1,0,9786.53,0.170543,0.170244,-0.335652,14,1.34792,10,-5.71428e-05,-3.47411,-0.224909,-0.262329,0.170392,
2,0,0,1,0,9787.33,0.166549,0.166224,-0.347354,14,1.34763,10,-5.77388e-05,-3.45923,-0.227206,-0.259677,0.166377,
2,0,0,0,0,9788.12,0.162553,0.16223,-0.366123,14,1.34733,10,-5.9396e-05,-3.43637,-0.198724,-0.296894,0.162391,
2,0,0,1,0,9788.92,0.158558,0.158227,-0.384622,14,1.34702,10,-6.08575e-05,-3.41497,-0.133804,-0.440942,0.158396,
2,0,0,0,0,9789.72,0.154563,0.154227,-0.414363,14,1.34668,10,-6.39059e-05,-3.38262,-0.135191,-0.436419,0.154409,
2,0,0,1,0,9790.52,0.150567,0.150267,-0.449462,14,1.34633,10,-6.75392e-05,-3.34731,-0.0952429,-0.619469,0.150465,
2,0,0,1,0,9791.32,0.146572,0.146268,-0.49702,14,1.34593,10,-7.2698e-05,-3.30363,-0.0875033,-0.674261,0.146486,
2,0,0,1,0,9792.12,0.142578,0.14229,-0.557796,14,1.3455,10,-7.93689e-05,-3.25352,-0.0763646,-0.772609,0.142536,
2,0,0,1,0,9792.92,0.138582,0.138267,-0.622519,14,1.34501,10,-8.60735e-05,-3.20585,-0.0863458,-0.683299,0.138541,
2,0,0,0,0,9793.72,0.134587,0.134293,-0.687654,14,1.34448,10,-9.23474e-05,-3.16263,-0.108825,-0.542156,0.134596,
2,0,0,1,0,9794.52,0.130591,0.130252,-0.74034,14,1.34389,10,-9.64305e-05,-3.13057,-0.148503,-0.397298,0.130577,
2,0,0,1,0,9795.32,0.126596,0.126281,-0.772628,14,1.34327,10,-9.7568e-05,-3.11203,-0.279105,-0.21139,0.126621,
2,0,0,1,0,9796.12,0.122602,0.122288,-0.792242,14,1.34263,10,-9.68814e-05,-3.10114,-0.906254,-0.0651031,0.122636,
2,0,0,1,0,9796.91,0.118607,0.118292,-0.793222,14,1.34198,10,-9.3832e-05,-3.10061,-10.972,-0.00537734,0.118641,
2,0,0,0,0,9797.71,0.114611,0.114286,-0.789065,14,1.34133,10,-9.01787e-05,-3.10289,0.703671,0.083846,0.114633,
2,0,0,1,0,9798.51,0.110616,0.110256,-0.77829,14,1.34069,10,-8.58112e-05,-3.10886,0.598994,0.0984984,0.110598,
2,0,0,1,0,9799.31,0.10662,0.106314,-0.765192,14,1.34006,10,-8.13507e-05,-3.11623,0.60211,0.0979888,0.106651,
2,0,0,1,0,9800.11,0.102625,0.102334,-0.751017,14,1.33944,10,-7.68543e-05,-3.12435,0.392837,0.15019,0.102664,
2,0,0,1,0,9800.91,0.0986305,0.098264,-0.734931,14,1.33883,10,-7.22172e-05,-3.13375,0.436594,0.135137,0.0985874,
2,0,0,0,0,9801.71,0.0946351,0.0943223,-0.715079,14,1.33824,10,-6.74479e-05,-3.14565,0.414636,0.142293,0.094637,
2,0,0,1,0,9802.51,0.0906399,0.090332,-0.702558,14,1.33766,10,-6.34635e-05,-3.15332,0.342956,0.172034,0.0906411,
2,0,0,0,0,9803.31,0.0866448,0.0863279,-0.686642,14,1.33709,10,-5.92764e-05,-3.16327,0.530286,0.111261,0.08663,
2,0,0,1,0,9804.11,0.0826492,0.082331,-0.674142,14,1.33653,10,-5.55028e-05,-3.17125,0.461705,0.127787,0.0826276,
2,0,0,1,0,9804.9,0.0786544,0.0783302,-0.663521,14,1.33598,10,-5.19737e-05,-3.17815,0.638335,0.0924279,0.0786222,
2,0,0,1,0,9805.7,0.0746596,0.0743573,-0.652711,14,1.33544,10,-4.85338e-05,-3.18528,0.670989,0.0879299,0.0746445,
2,0,0,1,0,9806.5,0.0706641,0.0703296,-0.64383,14,1.33491,10,-4.52803e-05,-3.19123,0.561095,0.105151,0.0706129,
2,0,0,0,0,9807.3,0.0666689,0.0663912,-0.635261,14,1.33439,10,-4.21758e-05,-3.19705,0.819694,0.0719781,0.0666707,
2,0,0,1,0,9808.1,0.0626737,0.0623967,-0.623407,14,1.33387,10,-3.88985e-05,-3.20523,0.567204,0.104019,0.062671,
2,0,0,1,0,9808.9,0.0586783,0.0583637,-0.614941,14,1.33336,10,-3.58902e-05,-3.21117,0.461181,0.127932,0.0586342,
2,0,0,1,0,9809.7,0.0546835,0.0543323,-0.603989,14,1.33286,10,-3.28161e-05,-3.21897,0.613702,0.0961378,0.0545981,
2,0,0,1,0,9810.5,0.0506886,0.0503636,-0.593241,14,1.33237,10,-2.98777e-05,-3.22677,0.468951,0.125813,0.0506246,
2,0,0,0,0,9811.3,0.046693,0.0463644,-0.582768,14,1.33188,10,-2.70197e-05,-3.2345,0.506604,0.116462,0.0466208,
2,0,0,1,0,9812.1,0.0426979,0.0424091,-0.569974,14,1.33141,10,-2.41721e-05,-3.24415,0.554378,0.106426,0.0426598,
2,0,0,1,0,9812.89,0.0387022,0.0383302,-0.559408,14,1.33094,10,-2.14422e-05,-3.25227,0.36219,0.162898,0.0385764,
2,0,0,1,0,9813.69,0.0347074,0.0343869,-0.547543,14,1.33049,10,-1.88283e-05,-3.26158,0.450395,0.130996,0.0346279,
2,0,0,1,0,9814.49,0.0307126,0.0304054,-0.536063,14,1.33004,10,-1.62992e-05,-3.27078,0.488837,0.120695,0.0306413,
2,0,0,0,0,9815.29,0.0267172,0.0263609,-0.528106,14,1.3296,10,-1.39213e-05,-3.27728,0.461584,0.127821,0.0265932,
2,0,0,1,0,9816.09,0.022722,0.0224193,-0.518903,14,1.32917,10,-1.16335e-05,-3.28491,0.813283,0.0725455,0.0226477,
2,0,0,0,0,9816.89,0.0187268,0.0184269,-0.511424,14,1.32874,10,-9.42395e-06,-3.29122,0.598709,0.0985454,0.0186519,
2,0,0,1,0,9817.69,0.0147313,0.0144267,-0.507753,14,1.32832,10,-7.32522e-06,-3.29435,1.13666,0.0519065,0.0146501,
2,0,0,1,0,9818.49,0.0107365,0.0104272,-0.500609,14,1.32791,10,-5.21996e-06,-3.3005,2.5237,0.0233784,0.0106475,
2,0,0,1,0,9819.29,0.00674163,0.00641599,-0.499237,14,1.32749,10,-3.2031e-06,-3.30169,2.64695,0.0222898,0.00663565,
2,0,0,1,0,9820.09,0.00274612,0.00243491,-0.499488,14,1.32708,10,-1.21621e-06,-3.30148,-2.80035,-0.0210688,0.00265469,
2,0,0,0,0,9820.58,0.000274105,-7.36095e-05,-0.49996,14,1.32682,10,3.68018e-08,-3.30106, , ,0.000146373,