File: Figure_codes/Fig_3-5/workspace_calculate_alpha_eff/20221101_1-115_003_TrumpetPlot_ParaChange_from10_every3_16_CV_C01_1.csv
mode,ox/red,error,control changes,counter inc.,time/s,control/V,Ewe/V,<I>/mA,cycle number,(Q-Qo)/C,I Range,P/W,log(|I|),Tafel slope mV/dec,alpha_eff,E-IR/V,
2,0,0,0,0,1600.12,2.44065e-05,-0.000268062,-0.0943058,2,0.0000000E+000,10,2.52798e-08,-4.02546, , ,-0.000226567,
2,1,0,0,0,1600.87,0.00379485,0.00351759,0.171243,2,0.000123187,10,6.02364e-07,-3.76639,0.058288,1.01221,0.00344224,
2,1,0,1,0,1601.67,0.00779002,0.00748775,0.190651,2,0.000283506,10,1.42755e-06,-3.71976,0.105131,0.561205,0.00740386,
2,1,0,0,0,1602.47,0.0117852,0.0114759,0.201854,2,0.000456326,10,2.31647e-06,-3.69496,0.134628,0.438245,0.0113871,
2,1,0,1,0,1603.27,0.0157806,0.0154484,0.213193,2,0.000638353,10,3.2935e-06,-3.67123,0.235902,0.250104,0.0153546,
2,1,0,1,0,1604.07,0.0197754,0.0194596,0.223845,2,0.000828505,10,4.35595e-06,-3.65005,0.204218,0.288906,0.0193611,
2,1,0,1,0,1604.87,0.0237704,0.0234633,0.23436,2,0.00102713,10,5.49886e-06,-3.63012,0.204307,0.288781,0.0233602,
2,1,0,1,0,1605.67,0.0277659,0.0274425,0.244191,2,0.00123368,10,6.70121e-06,-3.61227,0.201202,0.293238,0.027335,
2,1,0,0,0,1606.47,0.0317611,0.0314922,0.255164,2,0.00144923,10,8.03568e-06,-3.59318,0.188245,0.313421,0.0313799,
2,1,0,1,0,1607.27,0.0357567,0.0354766,0.269258,2,0.00167493,10,9.55236e-06,-3.56983,0.212068,0.278212,0.0353582,
2,1,0,1,0,1608.06,0.0397516,0.0394562,0.285153,2,0.00191109,10,1.1251e-05,-3.54492,0.138428,0.426215,0.0393307,
2,1,0,1,0,1608.86,0.0437465,0.0434567,0.296982,2,0.00215956,10,1.29058e-05,-3.52727,0.205023,0.287773,0.043326,
2,1,0,1,0,1609.66,0.0477413,0.0474487,0.317032,2,0.0024201,10,1.50427e-05,-3.4989,0.164357,0.358976,0.0473092,
2,1,0,0,0,1610.46,0.0517369,0.0513886,0.331257,2,0.00269371,10,1.70228e-05,-3.47984,0.159082,0.370879,0.0512428,
2,1,0,1,0,1611.26,0.0557321,0.0554086,0.34919,2,0.00298179,10,1.93481e-05,-3.45694,0.230219,0.256277,0.0552549,
2,1,0,1,0,1612.06,0.0597277,0.0594226,0.365981,2,0.0032825,10,2.17475e-05,-3.43654,0.212147,0.278109,0.0592616,
2,1,0,1,0,1612.86,0.0637226,0.063367,0.380582,2,0.00359667,10,2.41163e-05,-3.41955,0.220745,0.267276,0.0631995,
2,1,0,1,0,1613.66,0.0677174,0.0674674,0.396874,2,0.00392412,10,2.67761e-05,-3.40135,0.25596,0.230505,0.0672928,
2,1,0,0,0,1614.46,0.0717128,0.0714048,0.412403,2,0.00426294,10,2.94475e-05,-3.38468,0.212046,0.278242,0.0712233,
2,1,0,1,0,1615.26,0.075708,0.0754036,0.423339,2,0.00461375,10,3.19213e-05,-3.37331,0.298434,0.197699,0.0752173,
2,1,0,0,0,1616.05,0.0797031,0.0794045,0.439269,2,0.00497515,10,3.48799e-05,-3.35727,0.368772,0.159991,0.0792112,
2,1,0,1,0,1616.85,0.0836986,0.083394,0.452469,2,0.00534661,10,3.77332e-05,-3.34441,0.305343,0.193225,0.0831949,
2,1,0,1,0,1617.65,0.0876935,0.0873523,0.463301,2,0.00572863,10,4.04704e-05,-3.33414,0.337402,0.174865,0.0871485,
2,1,0,1,0,1618.45,0.0916883,0.0913603,0.482337,2,0.00612127,10,4.40664e-05,-3.31665,0.251422,0.234665,0.091148,
2,1,0,1,0,1619.25,0.0956838,0.0953626,0.496535,2,0.00652779,10,4.73509e-05,-3.30405,0.232539,0.253721,0.0951441,
2,1,0,0,0,1620.05,0.099679,0.0993847,0.521734,2,0.00694999,10,5.18523e-05,-3.28255,0.209609,0.281477,0.0991551,
2,1,0,1,0,1620.85,0.103674,0.103379,0.547482,2,0.00739118,10,5.65982e-05,-3.26163,0.167683,0.351854,0.103138,
2,1,0,1,0,1621.65,0.10767,0.10739,0.576301,2,0.00785631,10,6.18889e-05,-3.23935,0.165908,0.355619,0.107136,
2,1,0,1,0,1622.45,0.111664,0.111361,0.610299,2,0.0083459,10,6.79634e-05,-3.21446,0.168567,0.350008,0.111092,
2,1,0,1,0,1623.25,0.115659,0.115316,0.640354,2,0.00886076,10,7.3843e-05,-3.19358,0.178667,0.330223,0.115034,
2,1,0,0,0,1624.05,0.119655,0.119361,0.670472,2,0.00940146,10,8.0028e-05,-3.17362,0.245955,0.239881,0.119066,
2,1,0,1,0,1624.84,0.12365,0.12335,0.699974,2,0.00996371,10,8.63417e-05,-3.15492,0.216753,0.272199,0.123042,
2,1,0,1,0,1625.64,0.127646,0.127314,0.723611,2,0.0105476,10,9.21259e-05,-3.14049,0.323679,0.18228,0.126996,
2,1,0,1,0,1626.44,0.13164,0.13132,0.747185,2,0.0111516,10,9.81203e-05,-3.12657,0.396369,0.148851,0.130991,
2,1,0,1,0,1627.24,0.135635,0.135314,0.759829,2,0.0117702,10,0.000102816,-3.11928,0.666961,0.088461,0.13498,
2,1,0,0,0,1628.04,0.139631,0.139286,0.753916,2,0.0123946,10,0.00010501,-3.12268,-0.46274,-0.127501,0.138954,
2,1,0,1,0,1628.84,0.143626,0.143322,0.731397,2,0.0130063,10,0.000104825,-3.13585,-0.160274,-0.36812,0.143,
2,1,0,0,0,1629.64,0.147621,0.147311,0.674203,2,0.013584,10,9.93174e-05,-3.17121,-0.0939733,-0.627838,0.147014,
2,1,0,1,0,1630.44,0.151617,0.15127,0.599584,2,0.0141096,10,9.06987e-05,-3.22215,-0.0712624,-0.827927,0.151006,
2,1,0,1,0,1631.24,0.155612,0.155331,0.526544,2,0.0145734,10,8.17885e-05,-3.27857,-0.0702828,-0.839465,0.155099,
2,1,0,1,0,1632.04,0.159606,0.159292,0.46139,2,0.0149824,10,7.34958e-05,-3.33593,-0.0752775,-0.783766,0.159089,
2,1,0,1,0,1632.83,0.163602,0.163314,0.41193,2,0.0153465,10,6.72741e-05,-3.38518,-0.087351,-0.675436,0.163133,
2,1,0,0,0,1633.63,0.167597,0.16734,0.375064,2,0.0156763,10,6.27631e-05,-3.4259,-0.117639,-0.501535,0.167175,
2,1,0,1,0,1634.43,0.171592,0.171315,0.347117,2,0.0159814,10,5.94665e-05,-3.45952,-0.139102,-0.424148,0.171163,
2,1,0,1,0,1635.23,0.175588,0.17523,0.329638,2,0.0162676,10,5.77626e-05,-3.48196,-0.184685,-0.319463,0.175085,
2,1,0,1,0,1636.03,0.179582,0.179305,0.315275,2,0.0165399,10,5.65304e-05,-3.50131,-0.228935,-0.257715,0.179167,
2,1,0,1,0,1636.83,0.183577,0.183281,0.302408,2,0.0168016,10,5.54256e-05,-3.51941,-0.226626,-0.260341,0.183148,
2,1,0,0,0,1637.63,0.187573,0.187267,0.292079,2,0.0170545,10,5.46968e-05,-3.5345,-0.346352,-0.170347,0.187138,
2,1,0,1,0,1638.43,0.191568,0.191274,0.285067,2,0.0173006,10,5.45259e-05,-3.54505,-0.377381,-0.156341,0.191149,
2,1,0,0,0,1639.23,0.195563,0.195271,0.279662,2,0.0175414,10,5.46099e-05,-3.55337,-0.313774,-0.188033,0.195148,
2,1,0,1,0,1640.03,0.199559,0.199222,0.275617,2,0.0177774,10,5.4909e-05,-3.55969,-0.923961,-0.0638555,0.199101,
2,1,0,1,0,1640.83,0.203553,0.203282,0.268869,2,0.0180097,10,5.46564e-05,-3.57046,-0.564439,-0.104529,0.203164,
2,1,0,1,0,1641.62,0.207548,0.207288,0.265633,2,0.018239,10,5.50625e-05,-3.57572,-0.978511,-0.0602957,0.207171,
2,1,0,1,0,1642.42,0.211544,0.211199,0.26237,2,0.0184654,10,5.54123e-05,-3.58109,-0.738773,-0.0798622,0.211084,
2,1,0,0,0,1643.22,0.215539,0.215277,0.258992,2,0.0186893,10,5.57549e-05,-3.58671,-0.749267,-0.0787437,0.215163,
2,1,0,1,0,1644.02,0.219535,0.219241,0.258035,2,0.0189108,10,5.65718e-05,-3.58832,-0.636618,-0.0926772,0.219127,
2,1,0,1,0,1644.82,0.223529,0.223256,0.254501,2,0.0191303,10,5.6819e-05,-3.59431,-4.69789,-0.0125588,0.223144,
2,1,0,1,0,1645.62,0.227524,0.22724,0.252968,2,0.0193483,10,5.74844e-05,-3.59693,-0.604563,-0.0975911,0.227129,
2,1,0,1,0,1646.42,0.23152,0.231209,0.250955,2,0.0195645,10,5.80231e-05,-3.6004,-14.9806,-0.00393843,0.231099,
2,1,0,0,0,1647.22,0.235515,0.23525,0.247756,2,0.0197796,10,5.82846e-05,-3.60598,-5.15596,-0.0114431,0.235141,
2,1,0,1,0,1648.02,0.23951,0.239197,0.247628,2,0.019993,10,5.92318e-05,-3.6062,-1.17493,-0.0502157,0.239088,
2,1,0,1,0,1648.82,0.243506,0.243196,0.246144,2,0.0202051,10,5.98614e-05,-3.60881,-1.19779,-0.0492574,0.243088,
2,1,0,1,0,1649.61,0.2475,0.247186,0.244867,2,0.0204166,10,6.05278e-05,-3.61107,-1.14104,-0.0517071,0.247079,
2,1,0,1,0,1650.41,0.251495,0.251236,0.24362,2,0.0206268,10,6.12061e-05,-3.61329,-11.7196,-0.0050343,0.251128,
2,1,0,0,0,1651.21,0.255491,0.255183,0.242582,2,0.0208358,10,6.19027e-05,-3.61514,-1.69894,-0.0347276,0.255076,
2,1,0,1,0,1652.01,0.259486,0.259224,0.241323,2,0.0210447,10,6.25568e-05,-3.6174,-1.12584,-0.0524052,0.259118,
2,1,0,0,0,1652.81,0.263481,0.263158,0.24098,2,0.0212523,10,6.34157e-05,-3.61802,-4.56629,-0.0129208,0.263052,
2,1,0,1,0,1653.61,0.267476,0.267158,0.237686,2,0.0214592,10,6.34996e-05,-3.624,5.25302,0.0112316,0.267053,
2,1,0,1,0,1654.41,0.271471,0.271121,0.239753,2,0.0216654,10,6.5002e-05,-3.62024,-1.1149,-0.0529194,0.271015,
2,1,0,1,0,1655.21,0.275466,0.275165,0.23728,2,0.0218706,10,6.5291e-05,-3.62474,41.0777,0.0014363,0.27506,
2,1,0,1,0,1656.01,0.279462,0.279195,0.236653,2,0.0220751,10,6.60723e-05,-3.62589,-2.77898,-0.0212308,0.27909,
2,1,0,0,0,1656.81,0.283457,0.283163,0.237112,2,0.0222789,10,6.71414e-05,-3.62505,-0.829424,-0.0711337,0.283058,
2,1,0,1,0,1657.6,0.287452,0.287159,0.235545,2,0.022482,10,6.7639e-05,-3.62793,-20.135,-0.00293022,0.287056,
2,1,0,1,0,1658.4,0.291448,0.291134,0.234473,2,0.0226847,10,6.82629e-05,-3.62991,-0.852265,-0.0692273,0.291031,
2,1,0,1,0,1659.2,0.295442,0.295099,0.233691,2,0.0228863,10,6.89619e-05,-3.63136,1.59292,0.0370388,0.294996,
2,1,0,1,0,1660,0.299437,0.299146,0.231715,2,0.023088,10,6.93166e-05,-3.63505,-6.31127,-0.00934835,0.299044,
2,1,0,0,0,1660.8,0.303433,0.303148,0.232135,2,0.0232887,10,7.03712e-05,-3.63426,-8.42521,-0.0070028,0.303046,
2,1,0,1,0,1661.6,0.307428,0.307118,0.231264,2,0.0234887,10,7.10256e-05,-3.63589,-2.86428,-0.0205985,0.307017,
2,1,0,1,0,1662.4,0.311424,0.311113,0.230276,2,0.0236881,10,7.16421e-05,-3.63775,-0.755252,-0.0781196,0.311012,
2,1,0,1,0,1663.2,0.315418,0.315145,0.229417,2,0.0238863,10,7.22996e-05,-3.63937,13.2072,0.00446725,0.315044,
2,1,0,1,0,1664,0.319413,0.319111,0.228786,2,0.0240841,10,7.30081e-05,-3.64057,-1.5804,-0.0373322,0.319011,
2,1,0,0,0,1664.8,0.323409,0.323095,0.227632,2,0.0242814,10,7.3547e-05,-3.64277,-1.18913,-0.0496162,0.322995,
2,1,0,1,0,1665.6,0.327404,0.327101,0.227492,2,0.0244779,10,7.44129e-05,-3.64303,7.30949,0.0080717,0.327001,
2,1,0,0,0,1666.39,0.331399,0.331104,0.224867,2,0.0246742,10,7.44544e-05,-3.64807,-5.51359,-0.0107008,0.331005,
2,1,0,1,0,1667.19,0.335395,0.335058,0.226776,2,0.0248698,10,7.59831e-05,-3.6444,-2.19486,-0.026881,0.334959,
2,1,0,1,0,1667.99,0.339389,0.339126,0.226426,2,0.0250647,10,7.67868e-05,-3.64507,-2.37869,-0.0248036,0.339026,
2,1,0,1,0,1668.79,0.343384,0.343099,0.225147,2,0.0252591,10,7.72477e-05,-3.64753,-1.40322,-0.0420463,0.343,
2,1,0,1,0,1669.59,0.34738,0.347105,0.223884,2,0.0254529,10,7.77113e-05,-3.64998,-2.14496,-0.0275064,0.347007,
2,1,0,0,0,1670.39,0.351375,0.351059,0.223102,2,0.0256462,10,7.83221e-05,-3.6515,2.55604,0.0230825,0.350961,
2,1,0,1,0,1671.19,0.35537,0.355078,0.22383,2,0.0258389,10,7.94771e-05,-3.65008,-2.1813,-0.027048,0.35498,
2,1,0,1,0,1671.99,0.359365,0.359078,0.222239,2,0.0260311,10,7.98012e-05,-3.65318,-4.00713,-0.0147237,0.358981,
2,1,0,1,0,1672.79,0.36336,0.363086,0.220791,2,0.0262231,10,8.01662e-05,-3.65602,-2.26605,-0.0260365,0.362989,
2,1,0,1,0,1673.59,0.367355,0.367049,0.22099,2,0.0264146,10,8.11141e-05,-3.65563,-4.60742,-0.0128054,0.366952,
2,1,0,0,0,1674.38,0.371351,0.371085,0.221503,2,0.0266056,10,8.21965e-05,-3.65462,6.62207,0.0089096,0.370988,
2,1,0,1,0,1675.18,0.375346,0.375078,0.220841,2,0.0267964,10,8.28324e-05,-3.65592,-2.54226,-0.0232077,0.37498,
2,1,0,1,0,1675.98,0.379342,0.379039,0.218615,2,0.0269866,10,8.28634e-05,-3.66032,-7.53978,-0.00782516,0.378942,
2,1,0,1,0,1676.78,0.383336,0.383036,0.220221,2,0.0271766,10,8.43527e-05,-3.65714,-4.29538,-0.0137357,0.382939,
2,1,0,1,0,1677.58,0.387331,0.387073,0.217916,2,0.0273662,10,8.43495e-05,-3.66171,-3.02364,-0.0195129,0.386977,
2,1,0,0,0,1678.38,0.391327,0.391041,0.218566,2,0.0275553,10,8.54682e-05,-3.66042,3.07992,0.0191563,0.390945,
2,1,0,1,0,1679.18,0.395322,0.395054,0.216527,2,0.0277442,10,8.55397e-05,-3.66449,-1.76668,-0.033396,0.394958,
2,1,0,0,0,1679.98,0.399317,0.399029,0.218869,2,0.0279328,10,8.73352e-05,-3.65982,7.94206,0.0074288,0.398933,
2,1,0,1,0,1680.78,0.403313,0.403041,0.217438,2,0.0281212,10,8.76365e-05,-3.66266,4.46955,0.0132004,0.402945,
2,1,0,1,0,1681.58,0.407307,0.407057,0.218488,2,0.0283095,10,8.89373e-05,-3.66057,-3.18372,-0.0185318,0.406961,
2,1,0,1,0,1682.37,0.411302,0.411031,0.220004,2,0.0284975,10,9.04287e-05,-3.65757,32.9887,0.00178849,0.410935,
2,1,0,1,0,1683.17,0.415298,0.415022,0.216134,2,0.0286854,10,8.97002e-05,-3.66528,-0.926473,-0.0636824,0.414927,
2,1,0,0,0,1683.97,0.419293,0.419028,0.216583,2,0.0288731,10,9.07543e-05,-3.66438,3.13479,0.018821,0.418933,
2,1,0,1,0,1684.77,0.423288,0.422955,0.216828,2,0.0290605,10,9.17084e-05,-3.66389,-9.71112,-0.00607551,0.42286,
2,1,0,1,0,1685.57,0.427283,0.427001,0.21548,2,0.029248,10,9.201e-05,-3.66659,-21.5065,-0.00274335,0.426906,
2,1,0,1,0,1686.37,0.431278,0.431014,0.216326,2,0.0294351,10,9.32397e-05,-3.66489,-9.54855,-0.00617895,0.430919,
2,1,0,1,0,1687.17,0.435273,0.434979,0.215887,2,0.0296224,10,9.39062e-05,-3.66577,1.82606,0.03231,0.434884,
2,1,0,0,0,1687.97,0.439269,0.439018,0.216817,2,0.02981,10,9.51865e-05,-3.66391,14.0402,0.00420223,0.438923,
2,1,0,1,0,1688.77,0.443264,0.442987,0.217909,2,0.0299975,10,9.6531e-05,-3.66172,-318.705,-0.000185124,0.442891,
2,1,0,0,0,1689.57,0.447259,0.446955,0.217734,2,0.0301851,10,9.73173e-05,-3.66207,1.44565,0.0408122,0.446859,
2,1,0,1,0,1690.37,0.451254,0.450994,0.217663,2,0.0303731,10,9.81646e-05,-3.66222,-2.4584,-0.0239993,0.450899,
2,1,0,1,0,1691.16,0.455249,0.45497,0.217223,2,0.0305609,10,9.88298e-05,-3.66309,-10.6465,-0.00554174,0.454874,
2,1,0,1,0,1691.96,0.459244,0.459014,0.217462,2,0.0307491,10,9.98181e-05,-3.66262,1.41656,0.0416501,0.458918,
2,1,0,1,0,1692.76,0.46324,0.462942,0.218473,2,0.0309375,10,0.00010114,-3.6606,-8.47965,-0.00695784,0.462846,
2,1,0,0,0,1693.56,0.467235,0.466935,0.219405,2,0.0311263,10,0.000102448,-3.65875,1.86817,0.0315818,0.466839,
2,1,0,1,0,1694.36,0.471231,0.470962,0.218803,2,0.0313156,10,0.000103048,-3.65995,-1.99059,-0.0296395,0.470866,
2,1,0,1,0,1695.16,0.475225,0.474961,0.221264,2,0.0315053,10,0.000105092,-3.65509,1.00561,0.0586706,0.474863,
2,1,0,1,0,1695.96,0.47922,0.478921,0.220575,2,0.0316956,10,0.000105638,-3.65644,25.3466,0.00232773,0.478824,
2,1,0,1,0,1696.76,0.483216,0.482973,0.222362,2,0.0318864,10,0.000107395,-3.65294,2.27331,0.0259533,0.482875,
2,1,0,0,0,1697.56,0.487211,0.486919,0.222772,2,0.0320777,10,0.000108472,-3.65214,1.66306,0.0354768,0.486821,
2,1,0,1,0,1698.36,0.491206,0.490915,0.222426,2,0.0322695,10,0.000109192,-3.65281,-2.57014,-0.0229559,0.490818,
2,1,0,1,0,1699.15,0.495201,0.494937,0.223628,2,0.032462,10,0.000110682,-3.65047,1.01987,0.0578504,0.494838,
2,1,0,1,0,1699.95,0.499196,0.498919,0.225663,2,0.0326555,10,0.000112588,-3.64654,1.30577,0.0451841,0.49882,
2,1,0,1,0,1700.75,0.503191,0.502885,0.226182,2,0.0328499,10,0.000113743,-3.64554,1.13149,0.0521436,0.502785,
2,1,0,0,0,1701.55,0.507187,0.506888,0.227554,2,0.033045,10,0.000115345,-3.64291,1.28969,0.0457474,0.506788,
2,1,0,1,0,1702.35,0.511182,0.510907,0.228432,2,0.0332414,10,0.000116707,-3.64124,1.96988,0.0299511,0.510807,
2,1,0,0,0,1703.15,0.515177,0.514889,0.230055,2,0.0334391,10,0.000118453,-3.63817,3.54446,0.0166457,0.514788,
2,1,0,1,0,1703.95,0.519172,0.518887,0.231923,2,0.0336377,10,0.000120342,-3.63466,1.2897,0.0457469,0.518785,
2,1,0,1,0,1704.75,0.523167,0.522907,0.233311,2,0.0338378,10,0.000122,-3.63206,1.14012,0.0517488,0.522804,
2,1,0,1,0,1705.55,0.527162,0.526872,0.235933,2,0.0340391,10,0.000124307,-3.62721,0.896526,0.0658095,0.526769,
2,1,0,1,0,1706.35,0.531158,0.530918,0.238053,2,0.0342422,10,0.000126387,-3.62333,0.629381,0.0937429,0.530813,
2,1,0,0,0,1707.14,0.535153,0.534847,0.240449,2,0.0344472,10,0.000128603,-3.61898,1.23011,0.0479631,0.534741,
2,1,0,1,0,1707.94,0.539148,0.538854,0.242991,2,0.0346538,10,0.000130937,-3.61441,1.43871,0.0410088,0.538747,
2,1,0,1,0,1708.74,0.543143,0.542814,0.245932,2,0.0348625,10,0.000133496,-3.60918,0.693866,0.0850308,0.542706,
2,1,0,1,0,1709.54,0.547138,0.546859,0.247869,2,0.0350736,10,0.00013555,-3.60578,0.809433,0.0728906,0.54675,
2,1,0,1,0,1710.34,0.551133,0.55087,0.251831,2,0.035287,10,0.000138726,-3.59889,0.491533,0.120033,0.55076,
2,1,0,0,0,1711.14,0.555129,0.554808,0.25463,2,0.0355038,10,0.000141271,-3.59409,0.731354,0.0806723,0.554696,
2,1,0,1,0,1711.94,0.559124,0.558887,0.259977,2,0.0357237,10,0.000145298,-3.58506,0.572434,0.103069,0.558773,
2,1,0,1,0,1712.74,0.56312,0.562867,0.263656,2,0.0359469,10,0.000148403,-3.57896,0.419038,0.140799,0.562751,
2,1,0,1,0,1713.54,0.567114,0.566848,0.270373,2,0.0361746,10,0.00015326,-3.56804,0.485939,0.121414,0.566729,
2,1,0,1,0,1714.34,0.571109,0.570855,0.277551,2,0.0364067,10,0.000158441,-3.55666,0.319504,0.184661,0.570733,
2,1,0,0,0,1715.14,0.575105,0.574787,0.284011,2,0.036644,10,0.000163246,-3.54666,0.470345,0.12544,0.574662,
2,1,0,1,0,1715.93,0.5791,0.578823,0.29147,2,0.0368873,10,0.000168709,-3.53541,0.298995,0.197328,0.578695,
2,1,0,0,0,1716.73,0.583095,0.582783,0.300252,2,0.0371372,10,0.000174982,-3.52251,0.273607,0.215638,0.582651,
2,1,0,1,0,1717.53,0.58709,0.586815,0.309607,2,0.0373951,10,0.000181682,-3.50919,0.245301,0.240521,0.586678,
2,1,0,1,0,1718.33,0.591085,0.590806,0.322992,2,0.0376617,10,0.000190826,-3.49081,0.242738,0.24306,0.590664,
2,1,0,1,0,1719.13,0.59508,0.594776,0.336106,2,0.0379383,10,0.000199907,-3.47352,0.205894,0.286556,0.594628,
2,1,0,1,0,1719.93,0.599076,0.598778,0.351025,2,0.0382263,10,0.000210186,-3.45466,0.214329,0.275278,0.598623,
2,1,0,0,0,1720.73,0.603071,0.602813,0.369012,2,0.0385276,10,0.000222445,-3.43296,0.166501,0.354352,0.60265,
2,1,0,1,0,1721.53,0.607066,0.606809,0.390513,2,0.0388447,10,0.000236967,-3.40836,0.152596,0.386642,0.606638,
2,1,0,1,0,1722.33,0.611061,0.610743,0.414409,2,0.0391805,10,0.000253097,-3.38257,0.146753,0.402037,0.61056,
2,1,0,1,0,1723.13,0.615056,0.614776,0.444318,2,0.0395374,10,0.000273156,-3.35231,0.126561,0.466179,0.614581,
2,1,0,1,0,1723.92,0.619051,0.618801,0.477387,2,0.0399197,10,0.000295407,-3.32113,0.124425,0.47418,0.618591,
2,1,0,0,0,1724.72,0.623047,0.622791,0.518427,2,0.0403308,10,0.000322871,-3.28531,0.109069,0.54094,0.622563,
2,1,0,1,0,1725.52,0.627042,0.626777,0.563663,2,0.0407764,10,0.000353291,-3.24898,0.100628,0.586319,0.626529,
2,1,0,1,0,1726.32,0.631037,0.630773,0.619835,2,0.0412629,10,0.000390975,-3.20772,0.0934756,0.631181,0.6305,
2,1,0,1,0,1727.12,0.635032,0.634749,0.686892,2,0.0417981,10,0.000436004,-3.16311,0.0869468,0.678576,0.634447,
2,1,0,1,0,1727.92,0.639027,0.638786,0.765837,2,0.0423909,10,0.000489205,-3.11586,0.0804747,0.733149,0.638449,
2,1,0,1,0,1728.72,0.643022,0.642798,0.859179,2,0.0430529,10,0.000552279,-3.06592,0.0780862,0.755575,0.64242,
2,1,0,1,0,1729.52,0.647018,0.646751,0.969487,2,0.0437964,10,0.000627016,-3.01346,0.0726019,0.812651,0.646324,
2,1,0,0,0,1730.32,0.651013,0.65076,1.1003,2,0.0446364,10,0.000716032,-2.95849,0.0695751,0.848005,0.650276,
2,1,0,1,0,1731.12,0.655008,0.654755,1.2572,2,0.0455912,10,0.000823157,-2.9006,0.0669871,0.880767,0.654202,
2,1,0,1,0,1731.92,0.659003,0.658701,1.44093,2,0.0466815,10,0.000949141,-2.84136,0.0652519,0.904189,0.658067,
2,1,0,1,0,1732.71,0.662998,0.662749,1.65713,2,0.0479311,10,0.00109826,-2.78064,0.0644266,0.915771,0.66202,
2,1,0,1,0,1733.51,0.666994,0.666713,1.90914,2,0.0493675,10,0.00127285,-2.71916,0.061698,0.95627,0.665873,
2,1,0,0,0,1734.31,0.670989,0.670767,2.20114,2,0.0510211,10,0.00147645,-2.65735,0.0623114,0.946857,0.669798,
2,1,0,1,0,1735.11,0.674984,0.674717,2.53679,2,0.0529257,10,0.00171162,-2.59571,0.0629076,0.937884,0.6736,
2,1,0,1,0,1735.91,0.678979,0.678705,2.92098,2,0.0551179,10,0.00198248,-2.53447,0.0631379,0.934463,0.67742,
2,1,0,1,0,1736.71,0.682974,0.682676,3.35529,2,0.0576371,10,0.00229057,-2.47427,0.0632265,0.933154,0.6812,
2,1,0,1,0,1737.51,0.686969,0.686685,3.84553,2,0.0605247,10,0.00264067,-2.41504,0.0653028,0.903484,0.684993,
2,1,0,0,0,1738.31,0.690965,0.6907,4.38712,2,0.0638246,10,0.00303018,-2.35782,0.0661622,0.891748,0.68877,
2,1,0,1,0,1739.11,0.69496,0.694696,4.98369,2,0.0675797,10,0.00346215,-2.30245,0.067773,0.870554,0.692503,
2,1,0,0,0,1739.91,0.698955,0.698711,5.63135,2,0.0718316,10,0.00393468,-2.24939,0.0714301,0.825982,0.696233,
2,1,0,1,0,1740.7,0.70295,0.702689,6.33322,2,0.0766245,10,0.00445028,-2.19838,0.0728204,0.810213,0.699903,
2,1,0,1,0,1741.5,0.706945,0.706698,7.08527,2,0.0819982,10,0.00500715,-2.14964,0.0778164,0.758195,0.703581,
2,1,0,1,0,1742.3,0.71094,0.710684,7.88309,2,0.0879913,10,0.00560238,-2.1033,0.0807648,0.730516,0.707216,
2,1,0,1,0,1743.1,0.714936,0.714708,8.72582,2,0.0946411,10,0.00623641,-2.05919,0.0832541,0.708674,0.710868,
2,1,0,0,0,1743.9,0.718931,0.718651,9.60705,2,0.101978,10,0.00690412,-2.01741,0.0892965,0.66072,0.714424,
2,1,0,1,0,1744.7,0.722927,0.722706,10.5218,2,0.110033,10,0.00760418,-1.97791,0.0926259,0.636971,0.718076,
2,1,0,1,0,1745.5,0.726921,0.726689,11.4701,2,0.118833,10,0.00833521,-1.94043,0.0987309,0.597584,0.721643,
2,1,0,1,0,1746.3,0.730916,0.730663,12.4563,2,0.128405,10,0.00910137,-1.90461,0.0995949,0.5924,0.725182,
2,1,0,1,0,1747.1,0.734911,0.734607,13.4812,2,0.138782,10,0.00990335,-1.87027,0.106781,0.552533,0.728675,
2,1,0,0,0,1747.9,0.738907,0.738684,14.5498,2,0.149994,10,0.0107477,-1.83714,0.107502,0.548826,0.732282,
2,1,0,1,0,1748.69,0.742902,0.74265,15.6623,2,0.162079,10,0.0116316,-1.80514,0.109607,0.538289,0.735758,
2,1,0,1,0,1749.49,0.746897,0.746668,16.8319,2,0.175073,10,0.0125678,-1.77387,0.113026,0.522003,0.739262,
2,1,0,1,0,1750.29,0.750892,0.750604,18.0591,2,0.189025,10,0.0135553,-1.7433,0.113517,0.519745,0.742658,
2,1,0,1,0,1751.09,0.754887,0.754642,19.3242,2,0.203971,10,0.0145829,-1.7139,0.115863,0.509221,0.746139,
2,1,0,0,0,1751.89,0.758883,0.758622,20.6758,2,0.219967,10,0.0156851,-1.68454,0.120045,0.491481,0.749525,
2,1,0,1,0,1752.69,0.762878,0.762612,22.0583,2,0.237051,10,0.0168219,-1.65643,0.121218,0.486727,0.752906,
2,1,0,0,0,1753.49,0.766873,0.766603,23.5126,2,0.255267,10,0.0180249,-1.6287,0.119682,0.492974,0.756257,
2,1,0,1,0,1754.29,0.770868,0.770607,25.0946,2,0.274692,10,0.0193381,-1.60042,0.11954,0.49356,0.759566,
2,1,0,1,0,1755.09,0.774863,0.774596,26.6563,2,0.295381,10,0.0206478,-1.5742,0.127759,0.461809,0.762868,
2,1,0,1,0,1755.89,0.778858,0.778645,28.2348,2,0.317328,10,0.0219849,-1.54922,0.136642,0.431784,0.766221,
2,1,0,1,0,1756.69,0.782854,0.782567,29.8113,2,0.340534,10,0.0233294,-1.52562,0.144414,0.408548,0.76945,
2,1,0,0,0,1757.48,0.786849,0.786608,31.3711,2,0.364996,10,0.0246767,-1.50347,0.152708,0.386357,0.772804,
2,1,0,1,0,1758.28,0.790844,0.790593,32.9934,2,0.390718,10,0.0260843,-1.48157,0.148918,0.396192,0.776076,
2,1,0,1,0,1759.08,0.794839,0.79461,34.7196,2,0.417779,10,0.0275885,-1.45943,0.150493,0.392044,0.779334,
2,1,0,1,0,1759.88,0.798834,0.798595,36.2608,2,0.446197,10,0.0289577,-1.44056,0.175329,0.336511,0.782641,
2,1,0,1,0,1760.68,0.802829,0.80255,37.9042,2,0.475855,10,0.03042,-1.42131,0.175449,0.336279,0.785872,
2,1,0,0,0,1761.48,0.806825,0.806582,39.559,2,0.506823,10,0.0319076,-1.40275,0.178843,0.329899,0.789176,
2,1,0,1,0,1762.28,0.81082,0.810584,41.2337,2,0.539128,10,0.0334234,-1.38475,0.200739,0.293915,0.792442,
2,1,0,1,0,1763.08,0.814815,0.814564,42.7526,2,0.572689,10,0.0348247,-1.36904,0.207378,0.284504,0.795752,
2,1,0,1,0,1763.88,0.81881,0.81856,44.4046,2,0.607509,10,0.0363478,-1.35257,0.199699,0.295445,0.799022,
2,1,0,1,0,1764.68,0.822805,0.822599,45.8531,2,0.643619,10,0.0377188,-1.33863,0.241626,0.244179,0.802424,
2,1,0,0,0,1765.47,0.826801,0.826598,47.5093,2,0.680947,10,0.0392711,-1.32322,0.207309,0.284599,0.805694,
2,1,0,1,0,1766.27,0.830796,0.830563,49.1885,2,0.719614,10,0.0408541,-1.30814,0.256303,0.230196,0.80892,
2,1,0,0,0,1767.07,0.834791,0.834596,50.5864,2,0.75949,10,0.0422192,-1.29597,0.277592,0.212542,0.812338,
2,1,0,1,0,1767.87,0.838786,0.838553,51.8776,2,0.800463,10,0.0435021,-1.28502,0.30772,0.191733,0.815727,
2,1,0,1,0,1768.67,0.842781,0.842538,53.0397,2,0.842464,10,0.0446879,-1.2754,0.369342,0.159744,0.8192,
2,1,0,1,0,1769.47,0.846776,0.846585,54.5279,2,0.885453,10,0.0461625,-1.26338,0.296905,0.198717,0.822593,
2,1,0,0,0,1770.17,0.849723,0.849494,55.3395,2,0.92402,10,0.0470106,-1.25696,0.0449797,1.3117,0.825144,
2,1,0,1,0,1770.97,0.845728,0.845503,52.8959,2,0.967119,10,0.0447236,-1.27658,0.201891,0.292237,0.822228,
2,1,0,0,0,1771.77,0.841732,0.841496,51.0662,2,1.00863,10,0.042972,-1.29187,0.216593,0.272401,0.819027,
2,1,0,1,0,1772.57,0.837737,0.8375,49.3082,2,1.04871,10,0.0412956,-1.30708,0.243389,0.242411,0.815805,
2,1,0,1,0,1773.37,0.833742,0.833509,47.7721,2,1.08754,10,0.0398185,-1.32083,0.19871,0.296916,0.812489,
2,1,0,1,0,1774.16,0.829747,0.82949,46.0558,2,1.12499,10,0.0382028,-1.33672,0.202778,0.290959,0.809225,
2,1,0,1,0,1774.96,0.825752,0.825513,44.2473,2,1.16107,10,0.0365267,-1.35411,0.18201,0.324158,0.806044,
2,1,0,0,0,1775.76,0.821757,0.821514,42.5772,2,1.19573,10,0.0349778,-1.37082,0.188828,0.312454,0.80278,
2,1,0,1,0,1776.56,0.817761,0.817488,40.8241,2,1.22904,10,0.0333732,-1.38908,0.167619,0.351989,0.799526,
2,1,0,1,0,1777.36,0.813766,0.813492,38.9884,2,1.2609,10,0.0317168,-1.40906,0.165355,0.356808,0.796337,
2,1,0,1,0,1778.16,0.809771,0.809531,37.278,2,1.29137,10,0.0301776,-1.42855,0.152762,0.386223,0.793128,
2,1,0,1,0,1778.96,0.805776,0.805516,35.4674,2,1.32039,10,0.0285695,-1.45017,0.152428,0.387068,0.789911,
2,1,0,0,0,1779.76,0.801781,0.801555,33.7884,2,1.34805,10,0.0270833,-1.47123,0.150566,0.391856,0.786688,
2,1,0,1,0,1780.56,0.797786,0.797499,32.0893,2,1.37436,10,0.0255912,-1.49364,0.139928,0.421646,0.78338,
2,1,0,1,0,1781.36,0.79379,0.793572,30.3748,2,1.39929,10,0.0241046,-1.51749,0.134398,0.438995,0.780207,
2,1,0,1,0,1782.15,0.789795,0.789534,28.7099,2,1.42288,10,0.0226674,-1.54197,0.127624,0.462294,0.776902,
2,1,0,1,0,1782.95,0.7858,0.78557,27.0091,2,1.44511,10,0.0212175,-1.56849,0.122032,0.48348,0.773687,
2,1,0,0,0,1783.75,0.781805,0.781557,25.3866,2,1.46603,10,0.0198411,-1.59539,0.123646,0.47717,0.770387,
2,1,0,1,0,1784.55,0.77781,0.777585,23.9386,2,1.48568,10,0.0186143,-1.6209,0.148066,0.39847,0.767052,
2,1,0,0,0,1785.35,0.773814,0.773564,22.5917,2,1.5043,10,0.0174761,-1.64605,0.112935,0.522426,0.763623,
2,1,0,1,0,1786.15,0.769819,0.769542,21.061,2,1.52172,10,0.0162073,-1.67652,0.107739,0.547621,0.760275,
2,1,0,1,0,1786.95,0.765824,0.765583,19.5441,2,1.53793,10,0.0149626,-1.70899,0.101049,0.583874,0.756984,
2,1,0,1,0,1787.75,0.761829,0.761589,18.1281,2,1.55296,10,0.0138061,-1.74165,0.102128,0.577708,0.753613,
2,1,0,1,0,1788.55,0.757834,0.757562,16.8518,2,1.56688,10,0.0127663,-1.77335,0.140139,0.421011,0.750147,
2,1,0,0,0,1789.35,0.753839,0.753571,15.8372,2,1.57997,10,0.0119344,-1.80032,0.102373,0.576325,0.746602,
2,1,0,1,0,1790.15,0.749843,0.749595,14.5735,2,1.5921,10,0.0109243,-1.83643,0.0916205,0.643961,0.743183,
2,1,0,1,0,1790.94,0.745848,0.745618,13.3644,2,1.60324,10,0.00996478,-1.87405,0.0913587,0.645806,0.739738,
2,1,0,1,0,1791.74,0.741853,0.741605,12.2001,2,1.61343,10,0.00904768,-1.91364,0.0861584,0.684785,0.736237,
2,1,0,1,0,1792.54,0.737858,0.737596,11.1013,2,1.62272,10,0.00818826,-1.95463,0.0846678,0.696841,0.732712,
2,1,0,0,0,1793.34,0.733863,0.73363,10.0637,2,1.63116,10,0.007383,-1.99724,0.0800443,0.737092,0.729202,
2,1,0,1,0,1794.14,0.729868,0.729661,9.08127,2,1.63879,10,0.00662625,-2.04185,0.0796251,0.740973,0.725665,
2,1,0,1,0,1794.94,0.725872,0.725634,8.17728,2,1.64566,10,0.00593371,-2.08739,0.0775027,0.761264,0.722036,
2,1,0,1,0,1795.74,0.721877,0.721598,7.32714,2,1.65184,10,0.00528725,-2.13507,0.0743112,0.793959,0.718374,
2,1,0,1,0,1796.54,0.717882,0.717617,6.54052,2,1.65736,10,0.00469359,-2.18439,0.073391,0.803913,0.714739,
2,1,0,0,0,1797.34,0.713887,0.713608,5.81239,2,1.66227,10,0.00414777,-2.23565,0.0704164,0.837872,0.711051,
2,1,0,1,0,1798.14,0.709892,0.709653,5.13758,2,1.66663,10,0.0036459,-2.28924,0.0685944,0.860129,0.707392,
2,1,0,0,0,1798.93,0.705897,0.705641,4.51689,2,1.67047,10,0.0031873,-2.34516,0.0657574,0.897237,0.703654,
2,1,0,1,0,1799.73,0.701901,0.701645,3.96156,2,1.67384,10,0.00277961,-2.40213,0.0639753,0.922231,0.699902,
2,1,0,1,0,1800.53,0.697906,0.697661,3.4517,2,1.67678,10,0.00240812,-2.46197,0.0624443,0.944842,0.696142,
2,1,0,1,0,1801.33,0.693911,0.693621,2.99254,2,1.67934,10,0.00207569,-2.52396,0.05921,0.996454,0.692304,
2,1,0,1,0,1802.13,0.689916,0.689656,2.57842,2,1.68155,10,0.00177822,-2.58865,0.0592889,0.995126,0.688521,
2,1,0,0,0,1802.93,0.685921,0.685666,2.21005,2,1.68344,10,0.00151536,-2.6556,0.0558665,1.05609,0.684694,
2,1,0,1,0,1803.73,0.681926,0.68164,1.88473,2,1.68506,10,0.00128471,-2.72475,0.0541408,1.08975,0.680811,
2,1,0,1,0,1804.53,0.67793,0.677708,1.59295,2,1.68643,10,0.00107955,-2.7978,0.0532223,1.10856,0.677007,
2,1,0,1,0,1805.33,0.673935,0.673657,1.34179,2,1.68759,10,0.00090391,-2.87231,0.0509251,1.15856,0.673067,
2,1,0,1,0,1806.13,0.66994,0.669686,1.12347,2,1.68856,10,0.000752372,-2.94944,0.0496415,1.18852,0.669192,
2,1,0,0,0,1806.92,0.665945,0.665656,0.934654,2,1.68936,10,0.000622158,-3.02935,0.0484035,1.21892,0.665244,
2,1,0,1,0,1807.72,0.66195,0.661685,0.772031,2,1.69003,10,0.000510842,-3.11237,0.0461796,1.27762,0.661346,
2,1,0,0,0,1808.52,0.657955,0.657701,0.63074,2,1.69057,10,0.000414838,-3.20015,0.0449777,1.31176,0.657424,
2,1,0,1,0,1809.32,0.653959,0.653732,0.515362,2,1.69101,10,0.000336909,-3.28789,0.0430264,1.37125,0.653505,
2,1,0,1,0,1810.12,0.649964,0.649687,0.414122,2,1.69137,10,0.00026905,-3.38287,0.0406594,1.45108,0.649505,
2,1,0,1,0,1810.92,0.645969,0.645691,0.331472,2,1.69165,10,0.000214029,-3.47955,0.0393735,1.49847,0.645545,
2,1,0,1,0,1811.72,0.641974,0.64173,0.259694,2,1.69187,10,0.000166654,-3.58554,0.0365071,1.61612,0.641615,
2,1,0,0,0,1812.52,0.637979,0.637722,0.201826,2,1.69204,10,0.000128709,-3.69502,0.0346337,1.70354,0.637634,
2,1,0,1,0,1813.32,0.633983,0.633679,0.151355,2,1.69217,10,9.59106e-05,-3.82,0.030669,1.92376,0.633613,
2,1,0,1,0,1814.12,0.629988,0.629736,0.110147,2,1.69226,10,6.93637e-05,-3.95803,0.0259435,2.27418,0.629688,
2,1,0,1,0,1814.92,0.625993,0.625707,0.0748082,2,1.69232,10,4.6808e-05,-4.12605,0.0208705,2.82695,0.625674,
2,1,0,1,0,1815.71,0.621998,0.621755,0.0455977,2,1.69235,10,2.83506e-05,-4.34106,0.0148604,3.97028,0.621735,
2,1,0,0,0,1816.51,0.618003,0.617704,0.0214623,2,1.69237,10,1.32574e-05,-4.66832,0.00744777,7.92184,0.617694,
2,1,0,1,0,1817.31,0.614008,0.613707,0.00199857,2,1.69236,10,1.22654e-06,-5.69928,0.0262093,2.25111,0.613706,
2,0,0,1,0,1818.11,0.610012,0.609726,-0.0148505,2,1.69234,10,-9.05473e-06,-4.82826,-0.00754622,-7.81849,0.609733,
2,0,0,1,0,1818.91,0.606017,0.605736,-0.027273,2,1.69231,10,-1.65202e-05,-4.56427,-0.0206896,-2.85168,0.605748,
2,0,0,1,0,1819.71,0.602022,0.601756,-0.0402926,2,1.69227,10,-2.42463e-05,-4.39477,-0.0340828,-1.73108,0.601773,
2,0,0,0,0,1820.51,0.598027,0.597707,-0.048937,2,1.69222,10,-2.925e-05,-4.31036,-0.0442664,-1.33284,0.597728,
2,0,0,1,0,1821.31,0.594032,0.593718,-0.0572555,2,1.69216,10,-3.39936e-05,-4.24218,-0.0878295,-0.671756,0.593743,
2,0,0,0,0,1822.11,0.590037,0.589771,-0.0641856,2,1.6921,10,-3.78548e-05,-4.19256,-0.0815689,-0.723315,0.589799,
2,0,0,1,0,1822.91,0.586041,0.585791,-0.0699755,2,1.69203,10,-4.0991e-05,-4.15505,-0.105701,-0.558176,0.585822,
2,0,0,1,0,1823.7,0.582046,0.581749,-0.0761106,2,1.69196,10,-4.42772e-05,-4.11855,-0.162485,-0.36311,0.581782,
2,0,0,1,0,1824.5,0.578052,0.577754,-0.0809317,2,1.69188,10,-4.67586e-05,-4.09188,-0.142692,-0.413478,0.57779,
2,0,0,1,0,1825.3,0.574056,0.573762,-0.0846946,2,1.6918,10,-4.85945e-05,-4.07214,-0.193201,-0.305381,0.573799,
2,0,0,0,0,1826.1,0.570061,0.569817,-0.0880147,2,1.69172,10,-5.01523e-05,-4.05544,19.3365,0.00305123,0.569856,
2,0,0,1,0,1826.9,0.566065,0.565809,-0.0911799,2,1.69163,10,-5.15904e-05,-4.0401,-0.155969,-0.378281,0.565849,
2,0,0,1,0,1827.7,0.56207,0.561807,-0.0942139,2,1.69154,10,-5.293e-05,-4.02588,-0.373121,-0.158126,0.561848,
2,0,0,1,0,1828.5,0.558075,0.557761,-0.0971817,2,1.69145,10,-5.42042e-05,-4.01242,-0.353315,-0.16699,0.557804,
2,0,0,1,0,1829.3,0.55408,0.55382,-0.0980292,2,1.69136,10,-5.42906e-05,-4.00864,-0.58762,-0.100405,0.553863,
2,0,0,0,0,1830.1,0.550085,0.549776,-0.100009,2,1.69127,10,-5.49828e-05,-3.99996,-0.624483,-0.0944781,0.54982,
2,0,0,1,0,1830.9,0.54609,0.545818,-0.101108,2,1.69117,10,-5.51864e-05,-3.99522,-0.764919,-0.0771323,0.545862,
2,0,0,1,0,1831.7,0.542094,0.541788,-0.10335,2,1.69108,10,-5.59937e-05,-3.98569,-0.555514,-0.106208,0.541833,
2,0,0,1,0,1832.49,0.538099,0.537748,-0.105509,2,1.69098,10,-5.67371e-05,-3.97671,-3.01418,-0.0195741,0.537794,
2,0,0,1,0,1833.29,0.534104,0.533817,-0.106611,2,1.69088,10,-5.69107e-05,-3.9722,-0.295806,-0.199455,0.533864,
2,0,0,0,0,1834.09,0.530109,0.529867,-0.107099,2,1.69078,10,-5.6748e-05,-3.97022,-2.14529,-0.0275021,0.529914,
2,0,0,1,0,1834.89,0.526114,0.525849,-0.108876,2,1.69068,10,-5.72522e-05,-3.96307,-0.516498,-0.114231,0.525897,
2,0,0,0,0,1835.69,0.522119,0.521867,-0.109551,2,1.69058,10,-5.71712e-05,-3.96038,-1.19755,-0.0492671,0.521915,
2,0,0,1,0,1836.49,0.518123,0.517777,-0.110836,2,1.69048,10,-5.73885e-05,-3.95532,-0.776088,-0.0760223,0.517826,
2,0,0,1,0,1837.29,0.514128,0.513865,-0.112102,2,1.69037,10,-5.76051e-05,-3.95039,-6.57884,-0.00896815,0.513914,
2,0,0,1,0,1838.09,0.510133,0.509826,-0.11222,2,1.69027,10,-5.72127e-05,-3.94993,-0.660765,-0.0892905,0.509875,
2,0,0,1,0,1838.89,0.506138,0.505801,-0.114176,2,1.69016,10,-5.77503e-05,-3.94243,-3.58333,-0.0164652,0.505852,
2,0,0,0,0,1839.69,0.502143,0.501849,-0.11489,2,1.69006,10,-5.76574e-05,-3.93972,-0.548441,-0.107578,0.5019,
2,0,0,1,0,1840.48,0.498148,0.497815,-0.116977,2,1.68995,10,-5.82329e-05,-3.9319,-0.455053,-0.129655,0.497867,
2,0,0,1,0,1841.28,0.494152,0.49387,-0.117449,2,1.68984,10,-5.80048e-05,-3.93015,2.7429,0.0215101,0.493922,
2,0,0,1,0,1842.08,0.490157,0.489879,-0.118174,2,1.68974,10,-5.78912e-05,-3.92748,-1.11249,-0.0530342,0.489931,
2,0,0,1,0,1842.88,0.486162,0.485859,-0.1201,2,1.68963,10,-5.83518e-05,-3.92046,-0.975496,-0.0604821,0.485911,
2,0,0,0,0,1843.68,0.482167,0.481856,-0.121764,2,1.68952,10,-5.86728e-05,-3.91448,-0.427289,-0.13808,0.48191,
2,0,0,1,0,1844.48,0.478172,0.477887,-0.121452,2,1.6894,10,-5.80403e-05,-3.9156,-1.40517,-0.0419879,0.477941,
2,0,0,0,0,1845.28,0.474177,0.473903,-0.122464,2,1.68929,10,-5.80363e-05,-3.91199,-2.18254,-0.0270327,0.473957,
2,0,0,1,0,1846.08,0.470181,0.469896,-0.123888,2,1.68918,10,-5.82143e-05,-3.90697,-0.96226,-0.061314,0.46995,
2,0,0,1,0,1846.88,0.466186,0.465901,-0.126674,2,1.68906,10,-5.90175e-05,-3.89731,-0.452478,-0.130393,0.465956,
2,0,0,1,0,1847.68,0.462191,0.461899,-0.128851,2,1.68895,10,-5.9516e-05,-3.88991,-0.844288,-0.0698814,0.461956,
2,0,0,1,0,1848.47,0.458196,0.457921,-0.128547,2,1.68883,10,-5.88643e-05,-3.89094,-1.22601,-0.0481235,0.457977,
2,0,0,0,0,1849.27,0.454201,0.453947,-0.131458,2,1.68871,10,-5.96749e-05,-3.88121,-0.527135,-0.111926,0.454005,
2,0,0,1,0,1850.07,0.450205,0.449929,-0.132673,2,1.68859,10,-5.96933e-05,-3.87722,-0.858522,-0.0687227,0.449988,
2,0,0,1,0,1850.87,0.44621,0.445948,-0.134148,2,1.68847,10,-5.98231e-05,-3.87242,-1.53924,-0.0383306,0.446007,
2,0,0,1,0,1851.67,0.442215,0.441956,-0.135292,2,1.68835,10,-5.97931e-05,-3.86873,-0.628085,-0.0939363,0.442015,
2,0,0,1,0,1852.47,0.43822,0.437878,-0.136431,2,1.68823,10,-5.97402e-05,-3.86509,-0.774848,-0.076144,0.437938,
2,0,0,0,0,1853.27,0.434225,0.433909,-0.139003,2,1.6881,10,-6.03148e-05,-3.85698,-0.97219,-0.0606877,0.43397,
2,0,0,1,0,1854.07,0.43023,0.429945,-0.139084,2,1.68797,10,-5.97986e-05,-3.85672,-0.559473,-0.105456,0.430006,
2,0,0,1,0,1854.87,0.426234,0.42595,-0.141958,2,1.68785,10,-6.0467e-05,-3.84784,-0.676838,-0.08717,0.426013,
2,0,0,1,0,1855.67,0.422239,0.421975,-0.142832,2,1.68772,10,-6.02717e-05,-3.84517,-1.66188,-0.035502,0.422038,
2,0,0,1,0,1856.47,0.418244,0.417991,-0.145795,2,1.68759,10,-6.0941e-05,-3.83626,-0.838696,-0.0703473,0.418055,
2,0,0,0,0,1857.26,0.414249,0.413932,-0.147643,2,1.68746,10,-6.1114e-05,-3.83079,-0.440419,-0.133963,0.413997,
2,0,0,1,0,1858.06,0.410254,0.40995,-0.149973,2,1.68732,10,-6.14816e-05,-3.82399,-3.77665,-0.0156223,0.410016,
2,0,0,0,0,1858.86,0.406259,0.405949,-0.152321,2,1.68719,10,-6.18344e-05,-3.81724,-0.338779,-0.174155,0.406016,
2,0,0,1,0,1859.66,0.402263,0.401978,-0.152953,2,1.68705,10,-6.14838e-05,-3.81544,-0.851692,-0.0692739,0.402045,
2,0,0,1,0,1860.46,0.398268,0.397981,-0.15667,2,1.68691,10,-6.23519e-05,-3.80501,-0.41873,-0.140902,0.39805,
2,0,0,1,0,1861.26,0.394273,0.393935,-0.157406,2,1.68677,10,-6.20077e-05,-3.80298,-3.1979,-0.0184496,0.394005,
2,0,0,1,0,1862.06,0.390278,0.389963,-0.160357,2,1.68663,10,-6.25334e-05,-3.79491,-1.31066,-0.0450155,0.390033,
2,0,0,0,0,1862.86,0.386283,0.385997,-0.161225,2,1.68649,10,-6.22322e-05,-3.79257,-0.544993,-0.108258,0.386068,
2,0,0,1,0,1863.66,0.382287,0.382042,-0.163784,2,1.68634,10,-6.25723e-05,-3.78573,-0.534589,-0.110365,0.382114,
2,0,0,1,0,1864.46,0.378292,0.377968,-0.166232,2,1.68619,10,-6.28305e-05,-3.77928,-1.50423,-0.0392226,0.378041,
2,0,0,1,0,1865.25,0.374297,0.37398,-0.168337,2,1.68605,10,-6.29547e-05,-3.77382,-0.447917,-0.131721,0.374054,
2,0,0,1,0,1866.05,0.370302,0.369995,-0.170461,2,1.68589,10,-6.30698e-05,-3.76837,-0.982927,-0.0600248,0.37007,
2,0,0,0,0,1866.85,0.366307,0.365992,-0.173158,2,1.68574,10,-6.33743e-05,-3.76156,-0.81894,-0.0720444,0.366068,
2,0,0,1,0,1867.65,0.362312,0.362036,-0.17493,2,1.68559,10,-6.3331e-05,-3.75714,-0.414481,-0.142347,0.362113,
2,0,0,1,0,1868.45,0.358316,0.358002,-0.177859,2,1.68543,10,-6.36739e-05,-3.74992,-0.759649,-0.0776675,0.35808,
2,0,0,1,0,1869.25,0.354321,0.354003,-0.179742,2,1.68527,10,-6.36291e-05,-3.74535,-1.30069,-0.0453605,0.354082,
2,0,0,1,0,1870.05,0.350327,0.349997,-0.18175,2,1.68511,10,-6.36121e-05,-3.74052,-0.558575,-0.105626,0.350077,
2,0,0,0,0,1870.85,0.346331,0.346013,-0.184711,2,1.68495,10,-6.39123e-05,-3.73351,-0.80737,-0.0730768,0.346094,
2,0,0,1,0,1871.65,0.342336,0.342051,-0.188671,2,1.68479,10,-6.45352e-05,-3.72429,-0.619878,-0.0951801,0.342134,
2,0,0,0,0,1872.45,0.338341,0.33805,-0.190881,2,1.68462,10,-6.45274e-05,-3.71924,-0.854529,-0.0690439,0.338134,
2,0,0,1,0,1873.24,0.334345,0.334107,-0.192714,2,1.68445,10,-6.4387e-05,-3.71509,-0.642578,-0.0918176,0.334191,
2,0,0,1,0,1874.04,0.33035,0.330082,-0.194686,2,1.68428,10,-6.42624e-05,-3.71066,-0.584011,-0.101025,0.330167,
2,0,0,1,0,1874.84,0.326355,0.326043,-0.197741,2,1.68411,10,-6.44719e-05,-3.7039,-0.744018,-0.0792992,0.32613,
2,0,0,1,0,1875.64,0.32236,0.322107,-0.20042,2,1.68393,10,-6.45567e-05,-3.69806,-0.930377,-0.0634151,0.322195,
2,0,0,0,0,1876.44,0.318365,0.318081,-0.20257,2,1.68376,10,-6.44335e-05,-3.69343,-0.642268,-0.0918619,0.31817,
2,0,0,1,0,1877.24,0.31437,0.314069,-0.204987,2,1.68358,10,-6.438e-05,-3.68827,-29.7203,-0.00198518,0.314159,
2,0,0,1,0,1878.04,0.310374,0.310095,-0.206859,2,1.6834,10,-6.4146e-05,-3.68432,-0.37286,-0.158236,0.310186,
2,0,0,1,0,1878.84,0.306379,0.306083,-0.210739,2,1.68321,10,-6.45037e-05,-3.67625,-0.963266,-0.06125,0.306176,
2,0,0,1,0,1879.64,0.302385,0.302107,-0.213414,2,1.68303,10,-6.44741e-05,-3.67078,-1.75381,-0.033641,0.302201,
2,0,0,0,0,1880.44,0.298389,0.298101,-0.215345,2,1.68284,10,-6.41944e-05,-3.66687,-0.386362,-0.152706,0.298195,
2,0,0,1,0,1881.24,0.294394,0.294071,-0.218316,2,1.68265,10,-6.42004e-05,-3.66091,-3.92019,-0.0150503,0.294167,
2,0,0,1,0,1882.03,0.290398,0.2901,-0.220522,2,1.68246,10,-6.39735e-05,-3.65655,-0.604005,-0.0976813,0.290197,
2,0,0,1,0,1882.83,0.286403,0.286105,-0.222369,2,1.68227,10,-6.36211e-05,-3.65292,-0.805877,-0.0732122,0.286203,
2,0,0,1,0,1883.63,0.282408,0.282099,-0.225703,2,1.68208,10,-6.36708e-05,-3.64646,-3.44419,-0.0171303,0.282199,
2,0,0,1,0,1884.43,0.278413,0.278129,-0.228428,2,1.68188,10,-6.35326e-05,-3.64125,-0.536819,-0.109907,0.27823,
2,0,0,1,0,1885.23,0.274418,0.274146,-0.230948,2,1.68168,10,-6.33135e-05,-3.63649,-0.536516,-0.109969,0.274248,
2,0,0,0,0,1886.03,0.270423,0.270127,-0.233841,2,1.68148,10,-6.31668e-05,-3.63108,-1.04994,-0.0561934,0.27023,
2,0,0,1,0,1886.83,0.266427,0.266142,-0.236155,2,1.68127,10,-6.28507e-05,-3.6268,-0.56648,-0.104152,0.266246,
2,0,0,1,0,1887.63,0.262432,0.262175,-0.239318,2,1.68107,10,-6.27433e-05,-3.62102,-1.5907,-0.0370905,0.26228,
2,0,0,1,0,1888.43,0.258437,0.258136,-0.24184,2,1.68086,10,-6.24277e-05,-3.61647,-0.695616,-0.084817,0.258242,
2,0,0,1,0,1889.23,0.254442,0.254146,-0.244506,2,1.68065,10,-6.21403e-05,-3.61171,-0.993087,-0.0594107,0.254253,
2,0,0,0,0,1890.02,0.250447,0.250177,-0.245229,2,1.68044,10,-6.13507e-05,-3.61043,-1.70693,-0.0345649,0.250285,
2,0,0,1,0,1890.82,0.246452,0.246201,-0.249165,2,1.68023,10,-6.13447e-05,-3.60351,-0.647659,-0.0910974,0.246311,
2,0,0,1,0,1891.62,0.242456,0.242134,-0.251331,2,1.68001,10,-6.08558e-05,-3.59975,-1.61868,-0.0364494,0.242245,
2,0,0,1,0,1892.42,0.238461,0.238142,-0.254344,2,1.67979,10,-6.057e-05,-3.59458,-0.663469,-0.0889265,0.238254,
2,0,0,1,0,1893.22,0.234466,0.234138,-0.255857,2,1.67957,10,-5.99059e-05,-3.592,-0.677336,-0.087106,0.234251,
2,0,0,0,0,1894.02,0.230471,0.230169,-0.258682,2,1.67935,10,-5.95405e-05,-3.58723,-1.22869,-0.0480186,0.230283,
2,0,0,1,0,1894.82,0.226476,0.226205,-0.262978,2,1.67913,10,-5.94869e-05,-3.58008,-0.635647,-0.0928188,0.226321,
2,0,0,0,0,1895.62,0.222481,0.222207,-0.264948,2,1.6789,10,-5.88733e-05,-3.57684,-0.807508,-0.0730643,0.222324,
2,0,0,1,0,1896.42,0.218485,0.218163,-0.269416,2,1.67867,10,-5.87765e-05,-3.56958,-1.60463,-0.0367686,0.218281,
2,0,0,1,0,1897.22,0.21449,0.214205,-0.272813,2,1.67844,10,-5.84378e-05,-3.56413,-0.444817,-0.132639,0.214325,
2,0,0,1,0,1898.01,0.210496,0.210221,-0.276238,2,1.67821,10,-5.8071e-05,-3.55872,-0.666645,-0.0885028,0.210342,
2,0,0,1,0,1898.81,0.2065,0.206191,-0.281532,2,1.67797,10,-5.80493e-05,-3.55047,-0.70352,-0.083864,0.206315,
2,0,0,0,0,1899.61,0.202505,0.2022,-0.284182,2,1.67773,10,-5.74615e-05,-3.5464,-0.564791,-0.104463,0.202325,
2,0,0,1,0,1900.41,0.198509,0.198211,-0.289157,2,1.67748,10,-5.73141e-05,-3.53887,-0.431483,-0.136738,0.198338,
2,0,0,1,0,1901.21,0.194514,0.194203,-0.294839,2,1.67723,10,-5.72586e-05,-3.53042,-0.574942,-0.102619,0.194333,
2,0,0,1,0,1902.01,0.190519,0.190205,-0.299877,2,1.67698,10,-5.70382e-05,-3.52306,-0.394805,-0.149441,0.190337,
2,0,0,1,0,1902.81,0.186524,0.186207,-0.308704,2,1.67672,10,-5.74828e-05,-3.51046,-0.51325,-0.114954,0.186342,
2,0,0,0,0,1903.61,0.182529,0.18221,-0.317563,2,1.67645,10,-5.78632e-05,-3.49817,-0.217092,-0.271774,0.18235,
2,0,0,1,0,1904.41,0.178534,0.178212,-0.328232,2,1.67618,10,-5.84948e-05,-3.48382,-0.298365,-0.197745,0.178357,
2,0,0,1,0,1905.21,0.174538,0.174235,-0.342087,2,1.67589,10,-5.96036e-05,-3.46586,-0.196903,-0.29964,0.174386,
2,0,0,1,0,1906.01,0.170543,0.17023,-0.359781,2,1.6756,10,-6.12454e-05,-3.44396,-0.172586,-0.341859,0.170388,
2,0,0,1,0,1906.8,0.166549,0.166244,-0.381103,2,1.67529,10,-6.3356e-05,-3.41896,-0.155774,-0.378755,0.166411,
2,0,0,0,0,1907.6,0.162553,0.162243,-0.406521,2,1.67496,10,-6.59554e-05,-3.39092,-0.121954,-0.483787,0.162422,
2,0,0,1,0,1908.4,0.158558,0.158289,-0.439798,2,1.67461,10,-6.96152e-05,-3.35675,-0.102189,-0.577359,0.158483,
2,0,0,0,0,1909.2,0.154563,0.154265,-0.485932,2,1.67422,10,-7.49622e-05,-3.31342,-0.0882725,-0.668385,0.154479,
2,0,0,1,0,1910,0.150567,0.150265,-0.545964,2,1.67379,10,-8.20392e-05,-3.26284,-0.0733513,-0.804348,0.150505,
2,0,0,1,0,1910.8,0.146572,0.146258,-0.617816,2,1.67331,10,-9.03605e-05,-3.20914,-0.0764835,-0.771408,0.14653,
2,0,0,1,0,1911.6,0.142578,0.142265,-0.693792,2,1.67277,10,-9.87021e-05,-3.15877,-0.0821929,-0.717824,0.14257,
2,0,0,1,0,1912.4,0.138582,0.13827,-0.763628,2,1.67217,10,-0.000105587,-3.11712,-0.114491,-0.515326,0.138606,
2,0,0,0,0,1913.2,0.134587,0.134263,-0.816071,2,1.67152,10,-0.000109568,-3.08827,-0.170405,-0.346233,0.134622,
2,0,0,1,0,1914,0.130591,0.130269,-0.850708,2,1.67084,10,-0.000110821,-3.07022,-0.341653,-0.17269,0.130643,
2,0,0,1,0,1914.79,0.126596,0.126254,-0.858866,2,1.67014,10,-0.000108435,-3.06607,-1.68098,-0.0350985,0.126632,
2,0,0,1,0,1915.59,0.122602,0.122271,-0.861037,2,1.66943,10,-0.000105279,-3.06498,0.717725,0.0822042,0.122649,
2,0,0,1,0,1916.39,0.118607,0.118285,-0.848891,2,1.66873,10,-0.000100411,-3.07115,0.690852,0.0854018,0.118658,
2,0,0,0,0,1917.19,0.114611,0.114294,-0.830486,2,1.66805,10,-9.49196e-05,-3.08067,0.379226,0.15558,0.114659,
2,0,0,1,0,1917.99,0.110616,0.110322,-0.808168,2,1.66738,10,-8.91585e-05,-3.0925,0.311796,0.189226,0.110677,
2,0,0,1,0,1918.79,0.10662,0.106353,-0.788022,2,1.66672,10,-8.38087e-05,-3.10346,0.339732,0.173666,0.1067,
2,0,0,1,0,1919.59,0.102625,0.102309,-0.762447,2,1.66609,10,-7.80054e-05,-3.11779,0.280648,0.210228,0.102645,
2,0,0,1,0,1920.39,0.0986305,0.0983275,-0.738308,2,1.66547,10,-7.25959e-05,-3.13176,0.300761,0.196169,0.0986523,
2,0,0,0,0,1921.19,0.0946351,0.0943456,-0.71316,2,1.66487,10,-6.72836e-05,-3.14681,0.332039,0.17769,0.0946594,
2,0,0,1,0,1921.99,0.0906399,0.090315,-0.699483,2,1.66429,10,-6.31738e-05,-3.15522,0.329091,0.179282,0.0906228,
2,0,0,0,0,1922.78,0.0866447,0.0863703,-0.684353,2,1.66372,10,-5.91078e-05,-3.16472,0.584618,0.100921,0.0866714,
2,0,0,1,0,1923.58,0.0826492,0.0823162,-0.672149,2,1.66317,10,-5.53287e-05,-3.17253,0.497966,0.118482,0.082612,
2,0,0,1,0,1924.38,0.0786544,0.0783134,-0.660602,2,1.66262,10,-5.1734e-05,-3.18006,0.598838,0.0985241,0.078604,
2,0,0,1,0,1925.18,0.0746596,0.0743606,-0.650086,2,1.66208,10,-4.83407e-05,-3.18703,0.556844,0.105954,0.0746466,
2,0,0,1,0,1925.98,0.0706641,0.0703656,-0.639172,2,1.66155,10,-4.49757e-05,-3.19438,0.608451,0.0969676,0.0706468,
2,0,0,0,0,1926.78,0.0666689,0.0663477,-0.628495,2,1.66103,10,-4.16992e-05,-3.2017,0.480775,0.122719,0.0666243,
2,0,0,1,0,1927.58,0.0626737,0.0623945,-0.614894,2,1.66051,10,-3.8366e-05,-3.2112,0.438322,0.134604,0.0626651,
2,0,0,1,0,1928.38,0.0586783,0.0583585,-0.605432,2,1.66001,10,-3.53321e-05,-3.21793,0.347415,0.169825,0.0586249,
2,0,0,1,0,1929.18,0.0546835,0.0543992,-0.589469,2,1.65952,10,-3.20667e-05,-3.22954,0.61254,0.0963203,0.0546586,
2,0,0,1,0,1929.98,0.0506886,0.0504093,-0.575614,2,1.65904,10,-2.90163e-05,-3.23987,0.327043,0.180405,0.0506626,
2,0,0,0,0,1930.78,0.046693,0.0463835,-0.559775,2,1.65857,10,-2.59643e-05,-3.25199,0.337517,0.174806,0.0466298,
2,0,0,1,0,1931.57,0.0426979,0.0423921,-0.546658,2,1.65811,10,-2.3174e-05,-3.26228,0.447354,0.131887,0.0426326,
2,0,0,1,0,1932.37,0.0387022,0.0383557,-0.533032,2,1.65766,10,-2.04448e-05,-3.27325,0.350489,0.168336,0.0385902,
2,0,0,1,0,1933.17,0.0347074,0.0344103,-0.523149,2,1.65722,10,-1.80017e-05,-3.28137,0.440223,0.134023,0.0346405,
2,0,0,1,0,1933.97,0.0307126,0.0303843,-0.512035,2,1.65679,10,-1.55578e-05,-3.2907,0.676868,0.0871661,0.0306096,
2,0,0,0,0,1934.77,0.0267172,0.026398,-0.503227,2,1.65637,10,-1.32842e-05,-3.29824,0.414593,0.142308,0.0266194,
2,0,0,1,0,1935.57,0.022722,0.0224363,-0.496824,2,1.65596,10,-1.11469e-05,-3.3038,1.36104,0.0433491,0.0226549,
2,0,0,0,0,1936.37,0.0187268,0.0183919,-0.493662,2,1.65555,10,-9.07938e-06,-3.30657,1.14068,0.0517237,0.0186091,
2,0,0,1,0,1937.17,0.0147313,0.0144405,-0.492332,2,1.65514,10,-7.10953e-06,-3.30774,3.88847,0.0151731,0.0146571,
2,0,0,1,0,1937.97,0.0107365,0.0104536,-0.48876,2,1.65473,10,-5.10929e-06,-3.3109,90.762,0.000650052,0.0106686,
2,0,0,1,0,1938.77,0.00674162,0.00644578,-0.4901,2,1.65432,10,-3.15908e-06,-3.30971,-3.34212,-0.0176535,0.00666143,
2,0,0,1,0,1939.56,0.00274612,0.00242431,-0.493151,2,1.65391,10,-1.19555e-06,-3.30702,-1.02658,-0.0574723,0.0026413,
2,0,0,0,0,1940.06,0.000274105,-7.36095e-05,-0.49545,2,1.65366,10,3.64698e-08,-3.305, , ,0.000144388,