File: Figure_codes/Fig_3-5/workspace_calculate_alpha_eff/20221101_1-115_003_TrumpetPlot_ParaChange_from10_every3_16_CV_C01_66.csv
mode,ox/red,error,control changes,counter inc.,time/s,control/V,Ewe/V,<I>/mA,cycle number,(Q-Qo)/C,I Range,P/W,log(|I|),Tafel slope mV/dec,alpha_eff,E-IR/V,
2,0,0,1,0,44573,2.44065e-05,-0.000344411,-0.0574159,67,0.0000000E+000,10,1.97747e-08,-4.24097, , ,-0.000319148,
2,1,0,1,0,44573.7,0.00379485,0.00346351,0.202619,67,0.000133505,10,7.01774e-07,-3.69332,0.0477178,1.23644,0.00337436,
2,1,0,0,0,44574.5,0.00779002,0.00744852,0.225991,67,0.00031664,10,1.6833e-06,-3.64591,0.100221,0.588697,0.00734908,
2,1,0,1,0,44575.3,0.0117852,0.0114834,0.241204,67,0.000515324,10,2.76983e-06,-3.61762,0.168871,0.34938,0.0113772,
2,1,0,1,0,44576.1,0.0157806,0.0154443,0.25612,67,0.000725848,10,3.95559e-06,-3.59156,0.150942,0.390878,0.0153316,
2,1,0,1,0,44576.9,0.0197754,0.019466,0.26899,67,0.000947184,10,5.23616e-06,-3.57026,0.182281,0.323676,0.0193476,
2,1,0,1,0,44577.7,0.0237704,0.0234509,0.28355,67,0.00117954,10,6.64949e-06,-3.54737,0.216196,0.272901,0.0233261,
2,1,0,0,0,44578.5,0.0277659,0.0274594,0.29638,67,0.00142238,10,8.13842e-06,-3.52815,0.18451,0.319766,0.027329,
2,1,0,1,0,44579.3,0.0317611,0.0314413,0.309647,67,0.00167628,10,9.73568e-06,-3.50913,0.20543,0.287203,0.031305,
2,1,0,1,0,44580.1,0.0357567,0.0354319,0.323648,67,0.00194104,10,1.14675e-05,-3.48993,0.255008,0.231365,0.0352895,
2,1,0,1,0,44580.9,0.0397516,0.0394411,0.336798,67,0.00221625,10,1.32837e-05,-3.47263,0.20435,0.288721,0.0392929,
2,1,0,1,0,44581.7,0.0437465,0.0434058,0.349398,67,0.00250292,10,1.51659e-05,-3.45668,0.262672,0.224615,0.043252,
2,1,0,1,0,44582.5,0.0477413,0.0474021,0.362819,67,0.00279948,10,1.71984e-05,-3.44031,0.264616,0.222965,0.0472424,
2,1,0,1,0,44583.3,0.0517369,0.0513854,0.374729,67,0.00310622,10,1.92556e-05,-3.42628,0.269882,0.218614,0.0512205,
2,1,0,0,0,44584.1,0.0557321,0.0554043,0.386232,67,0.00342321,10,2.1399e-05,-3.41315,0.376075,0.156883,0.0552344,
2,1,0,1,0,44584.9,0.0597277,0.0593771,0.397187,67,0.00374838,10,2.35838e-05,-3.401,0.347568,0.169751,0.0592023,
2,1,0,1,0,44585.7,0.0637226,0.063348,0.406172,67,0.00408193,10,2.57302e-05,-3.39129,0.372432,0.158418,0.0631693,
2,1,0,1,0,44586.5,0.0677174,0.0673908,0.41591,67,0.00442329,10,2.80286e-05,-3.381,0.612723,0.0962915,0.0672078,
2,1,0,1,0,44587.3,0.0717128,0.0713571,0.425041,67,0.00477131,10,3.03297e-05,-3.37157,0.340576,0.173236,0.0711701,
2,1,0,0,0,44588.1,0.075708,0.0753972,0.430893,67,0.00512607,10,3.24882e-05,-3.36563,0.611282,0.0965185,0.0752076,
2,1,0,1,0,44588.9,0.0797031,0.0793674,0.439209,67,0.0054863,10,3.48588e-05,-3.35733,0.572173,0.103116,0.0791741,
2,1,0,1,0,44589.7,0.0836986,0.0833783,0.446592,67,0.00585224,10,3.72361e-05,-3.35009,0.464533,0.127009,0.0831818,
2,1,0,1,0,44590.5,0.0876935,0.0873638,0.456536,67,0.00622532,10,3.98847e-05,-3.34052,0.409456,0.144094,0.0871629,
2,1,0,1,0,44591.3,0.0916883,0.0913729,0.471559,67,0.0066074,10,4.30877e-05,-3.32646,0.273129,0.216015,0.0911654,
2,1,0,0,0,44592.1,0.0956838,0.0953339,0.486511,67,0.00700174,10,4.6381e-05,-3.31291,0.241374,0.244434,0.0951199,
2,1,0,1,0,44592.9,0.099679,0.099337,0.505693,67,0.00741059,10,5.0234e-05,-3.29611,0.261795,0.225367,0.0991145,
2,1,0,0,0,44593.7,0.103674,0.103342,0.527658,67,0.00783558,10,5.45293e-05,-3.27765,0.198305,0.297521,0.10311,
2,1,0,1,0,44594.5,0.10767,0.107358,0.548187,67,0.00827852,10,5.88523e-05,-3.26107,0.254882,0.231479,0.107117,
2,1,0,1,0,44595.3,0.111664,0.111311,0.566963,67,0.00873668,10,6.31094e-05,-3.24645,0.295821,0.199445,0.111062,
2,1,0,1,0,44596.1,0.115659,0.115332,0.581346,67,0.00920803,10,6.70476e-05,-3.23556,0.38306,0.154023,0.115076,
2,1,0,1,0,44596.9,0.119655,0.119319,0.594084,67,0.0096904,10,7.08857e-05,-3.22615,0.620182,0.0951333,0.119058,
2,1,0,0,0,44597.7,0.12365,0.123328,0.603883,67,0.0101809,10,7.44755e-05,-3.21905,0.5404,0.109178,0.123062,
2,1,0,1,0,44598.5,0.127646,0.127306,0.609458,67,0.0106789,10,7.75874e-05,-3.21506,1.49958,0.0393443,0.127037,
2,1,0,1,0,44599.3,0.131641,0.131306,0.612188,67,0.0111809,10,8.03842e-05,-3.21312,-0.788889,-0.0747888,0.131037,
2,1,0,1,0,44600.1,0.135635,0.135318,0.598805,67,0.0116782,10,8.10293e-05,-3.22271,-0.284965,-0.207043,0.135055,
2,1,0,1,0,44600.9,0.139631,0.139347,0.566222,67,0.0121582,10,7.89014e-05,-3.24701,-0.12553,-0.470006,0.139098,
2,1,0,0,0,44601.7,0.143626,0.143313,0.518911,67,0.0126047,10,7.43668e-05,-3.28491,-0.087499,-0.674293,0.143085,
2,1,0,1,0,44602.5,0.147621,0.147329,0.459245,67,0.0130073,10,6.76601e-05,-3.33796,-0.0774485,-0.761796,0.147127,
2,1,0,1,0,44603.3,0.151617,0.151321,0.408885,67,0.0133657,10,6.18728e-05,-3.3884,-0.0828843,-0.711836,0.151141,
2,1,0,1,0,44604.1,0.155612,0.155289,0.374157,67,0.0136888,10,5.81027e-05,-3.42695,-0.122499,-0.481636,0.155125,
2,1,0,1,0,44604.9,0.159606,0.15928,0.350249,67,0.0139888,10,5.57878e-05,-3.45562,-0.181572,-0.324941,0.159126,
2,1,0,0,0,44605.7,0.163602,0.163287,0.335291,67,0.0142739,10,5.47486e-05,-3.47458,-0.219313,-0.269022,0.163139,
2,1,0,1,0,44606.5,0.167597,0.167241,0.325169,67,0.0145487,10,5.43816e-05,-3.48789,-0.446337,-0.132187,0.167098,
2,1,0,0,0,44607.3,0.171592,0.171273,0.317801,67,0.0148169,10,5.44307e-05,-3.49784,-0.404166,-0.14598,0.171133,
2,1,0,1,0,44608.1,0.175588,0.175257,0.312676,67,0.0150797,10,5.47987e-05,-3.5049,-0.648052,-0.091042,0.175119,
2,1,0,1,0,44608.9,0.179582,0.179293,0.308377,67,0.0153386,10,5.52897e-05,-3.51092,-1.148,-0.0513939,0.179157,
2,1,0,1,0,44609.7,0.183577,0.183242,0.304801,67,0.0155949,10,5.58524e-05,-3.51598,-0.718091,-0.0821622,0.183108,
2,1,0,1,0,44610.5,0.187573,0.187287,0.303186,67,0.0158487,10,5.67828e-05,-3.51829,-0.930675,-0.0633948,0.187154,
2,1,0,0,0,44611.3,0.191568,0.191245,0.300286,67,0.0161007,10,5.7428e-05,-3.52247,-1.48372,-0.039765,0.191112,
2,1,0,1,0,44612.1,0.195563,0.195219,0.298819,67,0.0163514,10,5.8335e-05,-3.52459,-0.881003,-0.0669691,0.195087,
2,1,0,1,0,44612.9,0.199559,0.199234,0.296774,67,0.0166003,10,5.91274e-05,-3.52757,-3.60049,-0.0163866,0.199103,
2,1,0,1,0,44613.7,0.203553,0.203228,0.294123,67,0.016848,10,5.9774e-05,-3.53147,-3.1237,-0.0188879,0.203099,
2,1,0,1,0,44614.5,0.207548,0.20723,0.294555,67,0.0170947,10,6.10404e-05,-3.53083,-3.10514,-0.0190008,0.2071,
2,1,0,0,0,44615.3,0.211544,0.211211,0.292349,67,0.01734,10,6.17472e-05,-3.5341,-2.89264,-0.0203966,0.211082,
2,1,0,1,0,44616.1,0.215539,0.21527,0.291283,67,0.0175842,10,6.27045e-05,-3.53569,-1.51688,-0.0388958,0.215142,
2,1,0,1,0,44616.9,0.219535,0.219159,0.291747,67,0.0178276,10,6.39391e-05,-3.53499,-3.23707,-0.0182263,0.219031,
2,1,0,1,0,44617.7,0.223529,0.223195,0.289531,67,0.0180704,10,6.46219e-05,-3.5383,-2.25874,-0.0261208,0.223067,
2,1,0,1,0,44618.5,0.227524,0.227211,0.289158,67,0.0183125,10,6.56998e-05,-3.53887,-1.05469,-0.0559406,0.227084,
2,1,0,0,0,44619.3,0.23152,0.231234,0.287821,67,0.0185535,10,6.65539e-05,-3.54088,-7.79575,-0.00756823,0.231107,
2,1,0,1,0,44620.1,0.235515,0.235199,0.284974,67,0.0187937,10,6.70257e-05,-3.5452,-3.7134,-0.0158884,0.235074,
2,1,0,0,0,44620.9,0.23951,0.239229,0.286826,67,0.019033,10,6.86171e-05,-3.54238,3.37968,0.0174573,0.239103,
2,1,0,1,0,44621.7,0.243506,0.243166,0.284022,67,0.0192719,10,6.90643e-05,-3.54665,-2.15857,-0.027333,0.243041,
2,1,0,1,0,44622.5,0.2475,0.247167,0.283923,67,0.0195101,10,7.01764e-05,-3.5468,-1.44201,-0.0409151,0.247042,
2,1,0,1,0,44623.3,0.251495,0.251206,0.282619,67,0.0197474,10,7.09956e-05,-3.5488,-5.25231,-0.0112332,0.251082,
2,1,0,1,0,44624.1,0.255491,0.255167,0.282065,67,0.0199839,10,7.19735e-05,-3.54965,-3.87312,-0.0152332,0.255043,
2,1,0,0,0,44624.9,0.259486,0.2592,0.281866,67,0.0202199,10,7.30595e-05,-3.54996,-1.15074,-0.0512714,0.259076,
2,1,0,1,0,44625.7,0.263481,0.263157,0.279817,67,0.0204549,10,7.36358e-05,-3.55313,10.2211,0.0057724,0.263034,
2,1,0,1,0,44626.5,0.267477,0.267204,0.278857,67,0.0206895,10,7.45116e-05,-3.55462,-6.21902,-0.00948702,0.267081,
2,1,0,1,0,44627.3,0.271471,0.271159,0.278761,67,0.0209233,10,7.55885e-05,-3.55477,-1.58201,-0.0372942,0.271036,
2,1,0,1,0,44628.1,0.275466,0.275148,0.277985,67,0.0211563,10,7.6487e-05,-3.55598,-2.45489,-0.0240337,0.275026,
2,1,0,0,0,44628.9,0.279462,0.279165,0.277715,67,0.0213888,10,7.75284e-05,-3.5564,-3.11031,-0.0189692,0.279043,
2,1,0,1,0,44629.7,0.283457,0.283178,0.276654,67,0.0216203,10,7.83422e-05,-3.55806,6.11277,0.00965193,0.283056,
2,1,0,0,0,44630.5,0.287452,0.287133,0.274671,67,0.0218513,10,7.8867e-05,-3.56119,-2.71023,-0.0217694,0.287012,
2,1,0,1,0,44631.3,0.291448,0.291113,0.275475,67,0.0220817,10,8.01943e-05,-3.55992,-0.90667,-0.0650733,0.290992,
2,1,0,1,0,44632.1,0.295442,0.295103,0.274192,67,0.0223112,10,8.09149e-05,-3.56194,2.83858,0.020785,0.294982,
2,1,0,1,0,44632.9,0.299437,0.299167,0.271923,67,0.0225405,10,8.13503e-05,-3.56555,7.28234,0.0081018,0.299047,
2,1,0,1,0,44633.7,0.303433,0.303115,0.272942,67,0.0227689,10,8.2733e-05,-3.56393,-1.5722,-0.0375271,0.302995,
2,1,0,0,0,44634.5,0.307428,0.307088,0.271112,67,0.0229964,10,8.32552e-05,-3.56685,90.5884,0.000651297,0.306968,
2,1,0,1,0,44635.3,0.311424,0.311086,0.270909,67,0.0232235,10,8.42758e-05,-3.56718,-0.999481,-0.0590307,0.310966,
2,1,0,1,0,44636.1,0.315418,0.315117,0.27065,67,0.0234497,10,8.52863e-05,-3.56759,-6.98726,-0.00844394,0.314998,
2,1,0,1,0,44636.9,0.319413,0.319098,0.269904,67,0.0236757,10,8.61255e-05,-3.56879,-15.4991,-0.00380666,0.318979,
2,1,0,1,0,44637.7,0.323409,0.323107,0.268761,67,0.0239011,10,8.68385e-05,-3.57063,-1.36452,-0.0432385,0.322989,
2,1,0,0,0,44638.5,0.327404,0.327108,0.268306,67,0.0241255,10,8.7765e-05,-3.57137,2.51359,0.0234724,0.32699,
2,1,0,1,0,44639.3,0.331399,0.331093,0.266046,67,0.0243495,10,8.8086e-05,-3.57504,-1.09527,-0.0538679,0.330976,
2,1,0,1,0,44640.1,0.335395,0.335081,0.266885,67,0.0245728,10,8.9428e-05,-3.57368,6.00117,0.00983141,0.334963,
2,1,0,1,0,44640.9,0.339389,0.339092,0.267177,67,0.0247955,10,9.05976e-05,-3.5732,-6.58203,-0.0089638,0.338974,
2,1,0,1,0,44641.7,0.343384,0.34312,0.265465,67,0.0250178,10,9.10862e-05,-3.57599,-1.50498,-0.0392033,0.343003,
2,1,0,0,0,44642.5,0.34738,0.347099,0.265637,67,0.0252394,10,9.22022e-05,-3.57571,-934.123,-6.31609e-05,0.346982,
2,1,0,1,0,44643.3,0.351375,0.351109,0.263767,67,0.0254606,10,9.2611e-05,-3.57878,-7.23576,-0.00815394,0.350993,
2,1,0,0,0,44644.1,0.35537,0.355075,0.263091,67,0.0256813,10,9.34172e-05,-3.57989,-1.00585,-0.0586566,0.354959,
2,1,0,1,0,44644.9,0.359366,0.359056,0.26317,67,0.025901,10,9.44929e-05,-3.57976,-82.1012,-0.000718625,0.35894,
2,1,0,1,0,44645.7,0.36336,0.363041,0.261901,67,0.0261207,10,9.50808e-05,-3.58186,5.17857,0.0113931,0.362926,
2,1,0,1,0,44646.5,0.367355,0.367022,0.261386,67,0.0263398,10,9.59345e-05,-3.58272,-3.82125,-0.01544,0.366907,
2,1,0,1,0,44647.3,0.371351,0.371006,0.261882,67,0.0265585,10,9.71598e-05,-3.58189,5.17078,0.0114103,0.37089,
2,1,0,0,0,44648.1,0.375346,0.375043,0.261944,67,0.0267772,10,9.82402e-05,-3.58179,-1.44507,-0.0408284,0.374927,
2,1,0,1,0,44648.9,0.379342,0.379071,0.261749,67,0.0269952,10,9.92214e-05,-3.58211,-12.0766,-0.00488546,0.378956,
2,1,0,1,0,44649.6,0.383336,0.38304,0.261354,67,0.0272126,10,0.000100109,-3.58277,-6.04914,-0.00975345,0.382925,
2,1,0,1,0,44650.4,0.387331,0.387029,0.260289,67,0.0274298,10,0.000100739,-3.58454,-2.07695,-0.028407,0.386915,
2,1,0,1,0,44651.2,0.391327,0.390995,0.259852,67,0.0276464,10,0.000101601,-3.58527,2.42416,0.0243383,0.390881,
2,1,0,0,0,44652,0.395322,0.395023,0.258336,67,0.0278628,10,0.000102048,-3.58782,-1.46885,-0.0401674,0.394909,
2,1,0,1,0,44652.8,0.399317,0.399021,0.258818,67,0.0280787,10,0.000103274,-3.587,4.07478,0.0144793,0.398907,
2,1,0,1,0,44653.6,0.403313,0.403001,0.258298,67,0.0282942,10,0.000104094,-3.58788,-2.00115,-0.0294831,0.402887,
2,1,0,1,0,44654.4,0.407307,0.407009,0.25894,67,0.0285094,10,0.000105391,-3.5868,8.05406,0.0073255,0.406895,
2,1,0,1,0,44655.2,0.411302,0.411018,0.258606,67,0.0287243,10,0.000106292,-3.58736,-5.62212,-0.0104943,0.410904,
2,1,0,0,0,44656,0.415298,0.415032,0.257256,67,0.0289389,10,0.00010677,-3.58963,-3.36692,-0.0175234,0.414918,
2,1,0,1,0,44656.8,0.419293,0.418983,0.257333,67,0.0291534,10,0.000107818,-3.5895,-13.0933,-0.00450614,0.418869,
2,1,0,0,0,44657.6,0.423288,0.422998,0.256456,67,0.0293675,10,0.000108481,-3.59099,7.47323,0.00789485,0.422886,
2,1,0,1,0,44658.4,0.427283,0.427039,0.256701,67,0.0295816,10,0.000109621,-3.59057,-3.80037,-0.0155248,0.426926,
2,1,0,1,0,44659.2,0.431278,0.430971,0.256759,67,0.0297953,10,0.000110656,-3.59047,-7.38112,-0.00799336,0.430858,
2,1,0,1,0,44660,0.435273,0.43498,0.256195,67,0.0300088,10,0.00011144,-3.59143,6.92835,0.00851574,0.434867,
2,1,0,1,0,44660.8,0.439269,0.43901,0.256379,67,0.0302222,10,0.000112553,-3.59112,-13.2489,-0.0044532,0.438897,
2,1,0,0,0,44661.6,0.443264,0.442951,0.256701,67,0.0304353,10,0.000113706,-3.59057,8.50914,0.00693372,0.442838,
2,1,0,1,0,44662.4,0.447259,0.446963,0.25606,67,0.0306484,10,0.000114449,-3.59166,-4.86151,-0.0121361,0.44685,
2,1,0,1,0,44663.2,0.451254,0.451005,0.256279,67,0.0308616,10,0.000115583,-3.59129,-9.1676,-0.00643571,0.450892,
2,1,0,1,0,44664,0.455249,0.454948,0.25576,67,0.0310746,10,0.000116357,-3.59217,4.40175,0.0134038,0.454835,
2,1,0,1,0,44664.8,0.459244,0.458952,0.25564,67,0.0312878,10,0.000117327,-3.59237,-8.07786,-0.00730392,0.458839,
2,1,0,0,0,44665.6,0.46324,0.462939,0.25628,67,0.031501,10,0.000118642,-3.59128,5.074,0.0116279,0.462826,
2,1,0,1,0,44666.4,0.467235,0.466968,0.257443,67,0.0317141,10,0.000120218,-3.58932,-71.7557,-0.000822234,0.466855,
2,1,0,1,0,44667.2,0.471231,0.470921,0.257455,67,0.0319276,10,0.000121241,-3.5893,7.41814,0.00795348,0.470808,
2,1,0,1,0,44668,0.475225,0.474953,0.25759,67,0.0321411,10,0.000122343,-3.58907,4.68559,0.0125918,0.47484,
2,1,0,1,0,44668.8,0.47922,0.478905,0.257237,67,0.0323548,10,0.000123192,-3.58967,23.0822,0.00255609,0.478792,
2,1,0,0,0,44669.6,0.483216,0.482891,0.256754,67,0.0325685,10,0.000123984,-3.59048,-48.7015,-0.00121146,0.482778,
2,1,0,1,0,44670.4,0.487211,0.486919,0.25791,67,0.0327824,10,0.000125581,-3.58853,2.69215,0.0219156,0.486805,
2,1,0,0,0,44671.2,0.491206,0.490892,0.258249,67,0.0329969,10,0.000126772,-3.58796,9.37008,0.00629664,0.490778,
2,1,0,1,0,44672,0.495201,0.494924,0.25905,67,0.0332117,10,0.00012821,-3.58662,1.4979,0.0393886,0.49481,
2,1,0,1,0,44672.8,0.499196,0.498885,0.260255,67,0.033427,10,0.000129837,-3.5846,3.30797,0.0178357,0.498771,
2,1,0,1,0,44673.6,0.503191,0.502857,0.260797,67,0.0336429,10,0.000131144,-3.5837,-68.7973,-0.000857591,0.502743,
2,1,0,1,0,44674.4,0.507187,0.506866,0.26194,67,0.0338592,10,0.000132768,-3.5818,2.6951,0.0218915,0.506751,
2,1,0,0,0,44675.2,0.511182,0.510891,0.262437,67,0.0340762,10,0.000134077,-3.58097,2.16805,0.0272134,0.510776,
2,1,0,1,0,44676,0.515177,0.514871,0.263918,67,0.0342942,10,0.000135884,-3.57853,2.6702,0.0220957,0.514755,
2,1,0,1,0,44676.8,0.519173,0.518876,0.263897,67,0.0345127,10,0.00013693,-3.57857,1.60998,0.0366463,0.518759,
2,1,0,1,0,44677.6,0.523167,0.522878,0.265904,67,0.034732,10,0.000139035,-3.57527,1.8187,0.0324407,0.522761,
2,1,0,1,0,44678.4,0.527162,0.526902,0.267923,67,0.0349524,10,0.000141169,-3.57199,1.76413,0.0334443,0.526784,
2,1,0,0,0,44679.2,0.531158,0.530825,0.268334,67,0.0351736,10,0.000142438,-3.57132,1.51281,0.0390002,0.530707,
2,1,0,1,0,44680,0.535153,0.534838,0.269887,67,0.0353962,10,0.000144346,-3.56882,1.8533,0.0318351,0.53472,
2,1,0,0,0,44680.8,0.539148,0.538838,0.271063,67,0.0356195,10,0.000146059,-3.56693,2.19817,0.0268406,0.538719,
2,1,0,1,0,44681.6,0.543143,0.542839,0.273624,67,0.0358446,10,0.000148534,-3.56285,0.830984,0.0710002,0.542719,
2,1,0,1,0,44682.4,0.547138,0.546861,0.274961,67,0.0360712,10,0.000150365,-3.56073,2.86241,0.020612,0.54674,
2,1,0,1,0,44683.2,0.551133,0.550849,0.277957,67,0.0362992,10,0.000153113,-3.55602,0.934169,0.0631578,0.550727,
2,1,0,1,0,44684,0.555129,0.554842,0.279197,67,0.0365291,10,0.00015491,-3.55409,1.1203,0.0526646,0.554719,
2,1,0,0,0,44684.8,0.559124,0.558846,0.281764,67,0.0367607,10,0.000157463,-3.55011,0.859325,0.0686585,0.558722,
2,1,0,1,0,44685.6,0.56312,0.562823,0.285426,67,0.0369945,10,0.000160644,-3.54451,1.21055,0.0487382,0.562698,
2,1,0,1,0,44686.4,0.567114,0.566795,0.288064,67,0.0372307,10,0.000163273,-3.54051,0.653562,0.0902746,0.566668,
2,1,0,1,0,44687.2,0.571109,0.570782,0.291516,67,0.0374692,10,0.000166392,-3.53534,0.883545,0.0667764,0.570654,
2,1,0,1,0,44688,0.575105,0.574796,0.294735,67,0.0377106,10,0.000169412,-3.53057,0.720447,0.0818936,0.574666,
2,1,0,0,0,44688.8,0.5791,0.578803,0.299258,67,0.0379551,10,0.000173211,-3.52395,0.727999,0.0810441,0.578671,
2,1,0,1,0,44689.6,0.583095,0.582843,0.303459,67,0.0382028,10,0.000176869,-3.5179,0.635506,0.0928395,0.58271,
2,1,0,1,0,44690.4,0.58709,0.586781,0.308339,67,0.0384544,10,0.000180927,-3.51097,0.492546,0.119786,0.586645,
2,1,0,1,0,44691.2,0.591085,0.590765,0.314221,67,0.0387101,10,0.000185631,-3.50277,0.464203,0.1271,0.590627,
2,1,0,1,0,44692,0.59508,0.594749,0.321176,67,0.0389708,10,0.000191019,-3.49326,0.402103,0.146728,0.594608,
2,1,0,0,0,44692.8,0.599076,0.598771,0.328225,67,0.0392371,10,0.000196532,-3.48383,0.38464,0.15339,0.598627,
2,1,0,1,0,44693.6,0.603071,0.602781,0.337025,67,0.0395094,10,0.000203152,-3.47234,0.389758,0.151376,0.602633,
2,1,0,0,0,44694.4,0.607066,0.606766,0.344974,67,0.0397884,10,0.000209319,-3.46221,0.323813,0.182204,0.606614,
2,1,0,1,0,44695.2,0.611061,0.610786,0.355947,67,0.0400754,10,0.000217407,-3.44861,0.278281,0.212016,0.610629,
2,1,0,1,0,44696,0.615056,0.614772,0.367831,67,0.0403714,10,0.000226132,-3.43435,0.252931,0.233266,0.61461,
2,1,0,1,0,44696.8,0.619051,0.618729,0.382737,67,0.0406785,10,0.00023681,-3.4171,0.222944,0.26464,0.61856,
2,1,0,1,0,44697.6,0.623047,0.622748,0.399373,67,0.0409979,10,0.000248709,-3.39862,0.215435,0.273864,0.622573,
2,1,0,0,0,44698.4,0.627042,0.62671,0.418253,67,0.0413312,10,0.000262124,-3.37856,0.181789,0.324552,0.626526,
2,1,0,1,0,44699.2,0.631037,0.630758,0.439921,67,0.0416809,10,0.000277484,-3.35662,0.180923,0.326105,0.630564,
2,1,0,1,0,44700,0.635032,0.634758,0.465187,67,0.0420492,10,0.000295281,-3.33237,0.155232,0.380075,0.634553,
2,1,0,1,0,44700.8,0.639027,0.638757,0.495259,67,0.0424397,10,0.00031635,-3.30517,0.136288,0.432905,0.638539,
2,1,0,1,0,44701.6,0.643022,0.642724,0.530792,67,0.0428563,10,0.000341153,-3.27508,0.133909,0.440598,0.64249,
2,1,0,0,0,44702.4,0.647018,0.646704,0.570119,67,0.0433023,10,0.000368698,-3.24403,0.118568,0.497604,0.646453,
2,1,0,1,0,44703.2,0.651013,0.650735,0.616644,67,0.043783,10,0.000401271,-3.20997,0.108494,0.543807,0.650463,
2,1,0,1,0,44704,0.655008,0.654718,0.674308,67,0.0443052,10,0.000441482,-3.17114,0.103661,0.56916,0.654421,
2,1,0,1,0,44704.8,0.659003,0.658746,0.737216,67,0.044875,10,0.000485638,-3.13241,0.0985445,0.598714,0.658422,
2,1,0,1,0,44705.6,0.662998,0.662714,0.812244,67,0.0455003,10,0.000538285,-3.09031,0.0921362,0.640356,0.662356,
2,1,0,0,0,44706.4,0.666994,0.666737,0.89811,67,0.0461894,10,0.000598803,-3.04667,0.0895685,0.658714,0.666342,
2,1,0,1,0,44707.2,0.670989,0.670724,0.995438,67,0.0469521,10,0.000667664,-3.00199,0.0849629,0.69442,0.670286,
2,1,0,0,0,44708,0.674984,0.674695,1.10851,67,0.0477989,10,0.000747906,-2.95526,0.0850375,0.693811,0.674208,
2,1,0,1,0,44708.8,0.67898,0.6787,1.23541,67,0.0487416,10,0.000838474,-2.90819,0.0812511,0.726144,0.678156,
2,1,0,1,0,44709.6,0.682974,0.682686,1.37996,67,0.0497932,10,0.000942077,-2.86013,0.082646,0.713889,0.682079,
2,1,0,1,0,44710.4,0.686969,0.686694,1.54161,67,0.0509667,10,0.00105861,-2.81203,0.0811395,0.727143,0.686016,
2,1,0,1,0,44711.2,0.690965,0.690649,1.72068,67,0.0522761,10,0.00118838,-2.7643,0.0826305,0.714022,0.689892,
2,1,0,0,0,44712,0.69496,0.694693,1.92144,67,0.0537373,10,0.00133481,-2.71637,0.0819089,0.720313,0.693847,
2,1,0,1,0,44712.8,0.698955,0.698676,2.13955,67,0.0553649,10,0.00149485,-2.66968,0.0832517,0.708694,0.697734,
2,1,0,1,0,44713.6,0.70295,0.702662,2.3775,67,0.0571754,10,0.00167058,-2.62388,0.0867165,0.680378,0.701616,
2,1,0,1,0,44714.4,0.706945,0.706691,2.6352,67,0.0591838,10,0.00186227,-2.57919,0.0890107,0.662842,0.705532,
2,1,0,1,0,44715.2,0.71094,0.710643,2.91472,67,0.061407,10,0.00207132,-2.5354,0.0888548,0.664005,0.709361,
2,1,0,0,0,44716,0.714936,0.714688,3.21231,67,0.0638606,10,0.0022958,-2.49318,0.0927244,0.636294,0.713274,
2,1,0,1,0,44716.8,0.718931,0.718658,3.53224,67,0.0665614,10,0.00253847,-2.45195,0.0938022,0.628983,0.717104,
2,1,0,1,0,44717.6,0.722927,0.722648,3.87341,67,0.0695265,10,0.00279911,-2.41191,0.099027,0.595797,0.720944,
2,1,0,1,0,44718.4,0.726921,0.726622,4.23526,67,0.0727716,10,0.00307743,-2.37312,0.0999882,0.590069,0.724758,
2,1,0,1,0,44719.2,0.730916,0.730593,4.61618,67,0.0763134,10,0.00337255,-2.33572,0.102996,0.572837,0.728562,
2,1,0,1,0,44720,0.734911,0.734662,5.01965,67,0.08017,10,0.00368774,-2.29933,0.105638,0.55851,0.732453,
2,1,0,1,0,44720.8,0.738907,0.738634,5.44703,67,0.0843587,10,0.00402336,-2.26384,0.110001,0.536357,0.736237,
2,1,0,0,0,44721.6,0.742902,0.742609,5.89601,67,0.088896,10,0.00437843,-2.22944,0.112715,0.523445,0.740015,
2,1,0,1,0,44722.4,0.746897,0.746626,6.36865,67,0.0938024,10,0.004755,-2.19595,0.112561,0.524159,0.743824,
2,1,0,1,0,44723.2,0.750892,0.750582,6.86535,67,0.0990951,10,0.00515301,-2.16334,0.117609,0.501664,0.747562,
2,1,0,1,0,44724,0.754887,0.754585,7.38744,67,0.104795,10,0.00557446,-2.13151,0.120323,0.490346,0.751335,
2,1,0,1,0,44724.8,0.758883,0.758623,7.93698,67,0.110923,10,0.00602118,-2.10034,0.121629,0.485081,0.755131,
2,1,0,0,0,44725.6,0.762878,0.762586,8.51308,67,0.117501,10,0.00649196,-2.06991,0.125025,0.471904,0.75884,
2,1,0,1,0,44726.4,0.766873,0.766579,9.12023,67,0.124552,10,0.00699138,-2.03999,0.123017,0.47961,0.762566,
2,1,0,1,0,44727.2,0.770868,0.770576,9.76465,67,0.132103,10,0.0075244,-2.01034,0.127254,0.463639,0.766279,
2,1,0,1,0,44728,0.774863,0.774547,10.4412,67,0.14018,10,0.0080872,-1.98125,0.125878,0.468707,0.769952,
2,1,0,1,0,44728.8,0.778858,0.778627,11.1613,67,0.148816,10,0.00869048,-1.95229,0.128005,0.460918,0.773716,
2,1,0,0,0,44729.6,0.782854,0.782579,11.9223,67,0.158041,10,0.00933018,-1.92364,0.127267,0.463593,0.777333,
2,1,0,1,0,44730.4,0.786849,0.786579,12.7377,67,0.167898,10,0.0100192,-1.89491,0.125351,0.470678,0.780974,
2,1,0,0,0,44731.2,0.790844,0.790583,13.6169,67,0.178429,10,0.0107653,-1.86592,0.128185,0.460274,0.784592,
2,1,0,1,0,44731.9,0.794839,0.794569,14.5279,67,0.189676,10,0.0115434,-1.8378,0.122455,0.481811,0.788177,
2,1,0,1,0,44732.7,0.798834,0.798568,15.5032,67,0.201682,10,0.0123804,-1.80958,0.128984,0.457423,0.791747,
2,1,0,1,0,44733.5,0.802829,0.802639,16.5289,67,0.214483,10,0.0132668,-1.78176,0.13222,0.446227,0.795367,
2,1,0,1,0,44734.3,0.806825,0.806552,17.5838,67,0.228113,10,0.0141823,-1.75489,0.127686,0.46207,0.798815,
2,1,0,0,0,44735.1,0.81082,0.810559,18.7218,67,0.242625,10,0.0151751,-1.72765,0.127868,0.461415,0.802321,
2,1,0,1,0,44735.9,0.814815,0.814556,19.9119,67,0.258065,10,0.0162194,-1.70089,0.132301,0.445954,0.805795,
2,1,0,1,0,44736.7,0.81881,0.818528,21.1984,67,0.274488,10,0.0173515,-1.6737,0.127856,0.461455,0.809201,
2,1,0,1,0,44737.5,0.822805,0.822559,22.474,67,0.291945,10,0.0184862,-1.64832,0.137605,0.428762,0.812671,
2,1,0,1,0,44738.3,0.826801,0.826531,23.7689,67,0.31043,10,0.0196457,-1.62399,0.142665,0.413555,0.816073,
2,1,0,0,0,44739.1,0.830796,0.830554,25.0872,67,0.329963,10,0.0208363,-1.60055,0.149676,0.394184,0.819516,
2,1,0,1,0,44739.9,0.834791,0.834493,26.4395,67,0.350555,10,0.0220636,-1.57775,0.143534,0.411053,0.82286,
2,1,0,1,0,44740.7,0.838786,0.838525,27.8907,67,0.372282,10,0.0233871,-1.55454,0.152753,0.386246,0.826253,
2,1,0,1,0,44741.5,0.842781,0.842542,29.3322,67,0.395149,10,0.0247136,-1.53266,0.14945,0.39478,0.829636,
2,1,0,1,0,44742.3,0.846776,0.846564,30.8804,67,0.419214,10,0.0261422,-1.51032,0.169677,0.34772,0.832976,
2,1,0,1,0,44743,0.849723,0.849432,31.7087,67,0.441216,10,0.0269344,-1.49882,0.0401887,1.46807,0.835481,
2,1,0,0,0,44743.8,0.845728,0.84544,29.4495,67,0.465582,10,0.0248978,-1.53092,0.108393,0.544316,0.832482,
2,1,0,1,0,44744.6,0.841732,0.841503,27.6499,67,0.488369,10,0.0232675,-1.55831,0.122179,0.482899,0.829337,
2,1,0,1,0,44745.4,0.837737,0.837533,25.9948,67,0.509788,10,0.0217715,-1.58511,0.121263,0.486547,0.826096,
2,1,0,1,0,44746.2,0.833742,0.833458,24.4212,67,0.529911,10,0.020354,-1.61223,0.123527,0.477628,0.822713,
2,1,0,1,0,44747,0.829747,0.8295,22.971,67,0.548825,10,0.0190545,-1.63882,0.125402,0.470488,0.819393,
2,1,0,0,0,44747.8,0.825752,0.825532,21.5699,67,0.566608,10,0.0178066,-1.66615,0.123023,0.479584,0.816041,
2,1,0,1,0,44748.6,0.821757,0.821512,20.2369,67,0.583292,10,0.0166248,-1.69386,0.124223,0.474951,0.812608,
2,1,0,1,0,44749.4,0.817761,0.817513,18.9787,67,0.598949,10,0.0155153,-1.72173,0.121855,0.484183,0.809162,
2,1,0,1,0,44750.2,0.813766,0.813474,17.7732,67,0.613618,10,0.0144581,-1.75023,0.121372,0.486108,0.805654,
2,1,0,1,0,44751,0.809771,0.809482,16.631,67,0.627348,10,0.0134625,-1.77908,0.122623,0.481149,0.802164,
2,1,0,1,0,44751.8,0.805776,0.805518,15.541,67,0.64019,10,0.0125186,-1.80852,0.11832,0.498647,0.79868,
2,1,0,1,0,44752.6,0.801781,0.801489,14.5068,67,0.652183,10,0.011627,-1.83843,0.116072,0.508306,0.795106,
2,1,0,0,0,44753.4,0.797786,0.797515,13.5222,67,0.663367,10,0.0107842,-1.86895,0.117575,0.501807,0.791565,
2,1,0,1,0,44754.2,0.79379,0.793507,12.5929,67,0.673788,10,0.00999256,-1.89987,0.116275,0.507417,0.787966,
2,1,0,1,0,44755,0.789795,0.7895,11.7287,67,0.683493,10,0.00925979,-1.93075,0.115774,0.509612,0.78434,
2,1,0,1,0,44755.8,0.7858,0.785536,10.9093,67,0.692526,10,0.00856968,-1.9622,0.117074,0.503953,0.780736,
2,1,0,1,0,44756.6,0.781805,0.7815,10.1375,67,0.700924,10,0.00792244,-1.99407,0.11466,0.514565,0.777039,
2,1,0,0,0,44757.4,0.77781,0.777516,9.41982,67,0.708729,10,0.00732406,-2.02596,0.112622,0.523876,0.773371,
2,1,0,1,0,44758.2,0.773814,0.77356,8.7321,67,0.71597,10,0.0067548,-2.05888,0.111191,0.530617,0.769718,
2,1,0,1,0,44759,0.769819,0.769542,8.08647,67,0.722679,10,0.00622288,-2.09224,0.11257,0.524118,0.765984,
2,1,0,1,0,44759.8,0.765824,0.765535,7.48594,67,0.72889,10,0.00573075,-2.12575,0.108762,0.542469,0.762241,
2,1,0,1,0,44760.6,0.761829,0.761595,6.91558,67,0.734634,10,0.00526687,-2.16017,0.109675,0.537955,0.758552,
2,1,0,0,0,44761.4,0.757834,0.757538,6.38311,67,0.739938,10,0.00483545,-2.19497,0.105267,0.560482,0.754729,
2,1,0,1,0,44762.2,0.753839,0.753576,5.8799,67,0.744827,10,0.00443095,-2.23063,0.106019,0.556502,0.750989,
2,1,0,0,0,44763,0.749844,0.749601,5.40679,67,0.749327,10,0.00405293,-2.26706,0.101087,0.583656,0.747222,
2,1,0,1,0,44763.8,0.745848,0.745578,4.95612,67,0.753457,10,0.00369518,-2.30486,0.101761,0.579788,0.743398,
2,1,0,1,0,44764.6,0.741853,0.74157,4.53693,67,0.757241,10,0.00336445,-2.34324,0.0977456,0.603608,0.739574,
2,1,0,1,0,44765.4,0.737858,0.737568,4.14517,67,0.760701,10,0.00305734,-2.38246,0.0970475,0.60795,0.735745,
2,1,0,1,0,44766.2,0.733863,0.733594,3.77695,67,0.763857,10,0.00277074,-2.42286,0.090964,0.648608,0.731932,
2,1,0,0,0,44767,0.729868,0.729613,3.42919,67,0.766727,10,0.00250198,-2.46481,0.091435,0.645267,0.728104,
2,1,0,1,0,44767.8,0.725872,0.725619,3.10522,67,0.769329,10,0.00225321,-2.50791,0.0918715,0.642202,0.724253,
2,1,0,1,0,44768.6,0.721877,0.721591,2.8179,67,0.77169,10,0.00203337,-2.55007,0.0858866,0.686952,0.720351,
2,1,0,1,0,44769.4,0.717882,0.71762,2.53489,67,0.77382,10,0.00181908,-2.59604,0.0829918,0.710914,0.716505,
2,1,0,1,0,44770.2,0.713887,0.713591,2.27046,67,0.775731,10,0.00162018,-2.64389,0.0796837,0.740427,0.712592,
2,1,0,0,0,44771,0.709892,0.709633,2.02342,67,0.777438,10,0.00143588,-2.69391,0.0772291,0.763961,0.708742,
2,1,0,1,0,44771.8,0.705897,0.705624,1.79382,67,0.778954,10,0.00126576,-2.74622,0.071917,0.82039,0.704835,
2,1,0,1,0,44772.6,0.701901,0.701591,1.58286,67,0.780295,10,0.00111052,-2.80056,0.0709618,0.831433,0.700895,
2,1,0,1,0,44773.4,0.697906,0.697633,1.38992,67,0.781475,10,0.000969653,-2.85701,0.0681605,0.865604,0.697022,
2,1,0,1,0,44774.2,0.693911,0.693647,1.2133,67,0.782506,10,0.0008416,-2.91603,0.0645182,0.914471,0.693113,
2,1,0,0,0,44775,0.689916,0.689661,1.05318,67,0.783403,10,0.000726336,-2.9775,0.0622905,0.947175,0.689198,
2,1,0,1,0,44775.8,0.685921,0.685687,0.90755,67,0.784178,10,0.000622295,-3.04213,0.0601125,0.981493,0.685287,
2,1,0,0,0,44776.6,0.681926,0.681601,0.775711,67,0.784842,10,0.000528725,-3.1103,0.0559218,1.05504,0.68126,
2,1,0,1,0,44777.4,0.67793,0.677624,0.657683,67,0.785406,10,0.000445662,-3.18198,0.0532462,1.10806,0.677335,
2,1,0,1,0,44778.2,0.673935,0.673622,0.553735,67,0.785882,10,0.000373008,-3.2567,0.0522819,1.1285,0.673378,
2,1,0,1,0,44779,0.66994,0.669691,0.462982,67,0.78628,10,0.000310055,-3.33444,0.0493634,1.19522,0.669487,
2,1,0,1,0,44779.8,0.665945,0.665672,0.381389,67,0.786609,10,0.00025388,-3.41863,0.0461044,1.27971,0.665505,
2,1,0,0,0,44780.6,0.66195,0.661639,0.311793,67,0.786878,10,0.000206294,-3.50613,0.0431551,1.36716,0.661501,
2,1,0,1,0,44781.4,0.657955,0.657669,0.250677,67,0.787095,10,0.000164863,-3.60089,0.0400983,1.47138,0.657558,
2,1,0,1,0,44782.2,0.653959,0.653718,0.197277,67,0.787266,10,0.000128964,-3.70492,0.0375649,1.57061,0.653632,
2,1,0,1,0,44783,0.649964,0.64968,0.152543,67,0.787399,10,9.91043e-05,-3.81661,0.032698,1.80439,0.649612,
2,1,0,1,0,44783.8,0.64597,0.645696,0.113619,67,0.787497,10,7.33635e-05,-3.94455,0.0291599,2.02333,0.645646,
2,1,0,0,0,44784.6,0.641974,0.641779,0.0813185,67,0.787567,10,5.21885e-05,-4.08981,0.0244351,2.41456,0.641744,
2,1,0,1,0,44785.4,0.637979,0.637674,0.0546641,67,0.787614,10,3.48578e-05,-4.2623,0.0188866,3.12391,0.63765,
2,1,0,1,0,44786.2,0.633983,0.633733,0.0307899,67,0.787639,10,1.95126e-05,-4.51159,0.0136391,4.32581,0.633719,
2,1,0,1,0,44787,0.629988,0.629707,0.0102121,67,0.787648,10,6.43063e-06,-4.99089,0.0039757,14.8402,0.629702,
2,0,0,1,0,44787.8,0.625993,0.625755,-0.00561297,67,0.787643,10,-3.51234e-06,-5.25081,-0.00512138,-11.5203,0.625757,
2,0,0,0,0,44788.6,0.621998,0.621735,-0.0194204,67,0.787625,10,-1.20743e-05,-4.71174,-0.0131276,-4.49433,0.621743,
2,0,0,1,0,44789.4,0.618003,0.617718,-0.0301034,67,0.787598,10,-1.85954e-05,-4.52138,-0.0254534,-2.31796,0.617731,
2,0,0,0,0,44790.2,0.614008,0.613668,-0.0404227,67,0.787563,10,-2.48061e-05,-4.39337,-0.0498176,-1.18432,0.613686,
2,0,0,1,0,44791,0.610012,0.609748,-0.0479547,67,0.78752,10,-2.92403e-05,-4.31917,-0.0515386,-1.14477,0.60977,
2,0,0,1,0,44791.8,0.606017,0.60571,-0.054144,67,0.787472,10,-3.27955e-05,-4.26645,-0.0883897,-0.667498,0.605733,
2,0,0,1,0,44792.6,0.602022,0.601712,-0.0601634,67,0.787418,10,-3.6201e-05,-4.22067,-0.113273,-0.520866,0.601739,
2,0,0,1,0,44793.4,0.598027,0.597715,-0.0655636,67,0.78736,10,-3.91884e-05,-4.18334,-0.126104,-0.467867,0.597744,
2,0,0,0,0,44794.2,0.594032,0.593728,-0.0707093,67,0.787298,10,-4.19821e-05,-4.15052,-0.151995,-0.388171,0.593759,
2,0,0,1,0,44795,0.590037,0.58972,-0.074125,67,0.787233,10,-4.3713e-05,-4.13004,-0.208459,-0.283029,0.589752,
2,0,0,1,0,44795.8,0.586041,0.585786,-0.077365,67,0.787166,10,-4.53193e-05,-4.11146,-0.203067,-0.290545,0.58582,
2,0,0,1,0,44796.6,0.582046,0.581758,-0.079434,67,0.787095,10,-4.62114e-05,-4.09999,-0.347325,-0.16987,0.581793,
2,0,0,1,0,44797.4,0.578052,0.577749,-0.0818989,67,0.787023,10,-4.7317e-05,-4.08672,-0.260501,-0.226486,0.577785,
2,0,0,0,0,44798.2,0.574056,0.573746,-0.0835183,67,0.786949,10,-4.79183e-05,-4.07822,-0.394218,-0.149664,0.573783,
2,0,0,1,0,44799,0.570061,0.569813,-0.0864835,67,0.786873,10,-4.92794e-05,-4.06307,-0.797297,-0.074,0.569851,
2,0,0,1,0,44799.8,0.566065,0.565731,-0.0877549,67,0.786796,10,-4.96457e-05,-4.05673,-0.388091,-0.152026,0.565769,
2,0,0,1,0,44800.6,0.56207,0.56179,-0.089115,67,0.786717,10,-5.00639e-05,-4.05005,-0.582141,-0.10135,0.561829,
2,0,0,1,0,44801.4,0.558075,0.557794,-0.0905611,67,0.786637,10,-5.05145e-05,-4.04306,-0.355177,-0.166114,0.557834,
2,0,0,1,0,44802.2,0.55408,0.553778,-0.0926097,67,0.786556,10,-5.12852e-05,-4.03334,-0.676798,-0.0871752,0.553819,
2,0,0,1,0,44803,0.550085,0.549795,-0.0931383,67,0.786474,10,-5.1207e-05,-4.03087,9.72064,0.00606956,0.549836,
2,0,0,0,0,44803.8,0.54609,0.545772,-0.0951273,67,0.786391,10,-5.19179e-05,-4.02169,-0.485584,-0.121503,0.545814,
2,0,0,1,0,44804.6,0.542094,0.541813,-0.0956159,67,0.786307,10,-5.1806e-05,-4.01947,-1.9151,-0.0308078,0.541856,
2,0,0,1,0,44805.4,0.538099,0.537803,-0.096924,67,0.786222,10,-5.2126e-05,-4.01357,-1.00097,-0.0589426,0.537846,
2,0,0,1,0,44806.2,0.534104,0.533822,-0.0983595,67,0.786137,10,-5.25064e-05,-4.00718,-0.482735,-0.12222,0.533865,
2,0,0,1,0,44807,0.530109,0.529828,-0.0984842,67,0.78605,10,-5.21797e-05,-4.00663,-1.23584,-0.0477408,0.529871,
2,0,0,0,0,44807.8,0.526114,0.52575,-0.100273,67,0.785963,10,-5.27185e-05,-3.99882,-0.799553,-0.0737912,0.525794,
2,0,0,1,0,44808.6,0.522119,0.521845,-0.10142,67,0.785874,10,-5.29255e-05,-3.99388,-0.765472,-0.0770767,0.52189,
2,0,0,1,0,44809.4,0.518123,0.517792,-0.102032,67,0.785785,10,-5.28314e-05,-3.99126,-1.15227,-0.0512033,0.517837,
2,0,0,1,0,44810.2,0.514128,0.513822,-0.103863,67,0.785694,10,-5.33673e-05,-3.98354,-0.516988,-0.114123,0.513868,
2,0,0,1,0,44811,0.510133,0.509831,-0.104631,67,0.785603,10,-5.33443e-05,-3.98034,-1.36175,-0.0433268,0.509877,
2,0,0,0,0,44811.8,0.506138,0.505806,-0.106121,67,0.785511,10,-5.36766e-05,-3.9742,-1.88367,-0.0313218,0.505852,
2,0,0,1,0,44812.6,0.502143,0.501826,-0.106847,67,0.785418,10,-5.36185e-05,-3.97124,-0.513498,-0.114898,0.501873,
2,0,0,0,0,44813.4,0.498148,0.497846,-0.108928,67,0.785324,10,-5.42293e-05,-3.96286,-1.17844,-0.050066,0.497894,
2,0,0,1,0,44814.2,0.494152,0.493861,-0.10945,67,0.785229,10,-5.40529e-05,-3.96079,-0.626327,-0.0941999,0.493909,
2,0,0,1,0,44815,0.490157,0.489817,-0.110484,67,0.785133,10,-5.41169e-05,-3.9567,-0.535786,-0.110119,0.489866,
2,0,0,1,0,44815.7,0.486162,0.48581,-0.11207,67,0.785036,10,-5.44445e-05,-3.95051,-2.3969,-0.0246151,0.485859,
2,0,0,1,0,44816.5,0.482167,0.481882,-0.113017,67,0.784938,10,-5.44609e-05,-3.94686,-2.20821,-0.0267185,0.481931,
2,0,0,0,0,44817.3,0.478172,0.47782,-0.114057,67,0.784838,10,-5.44986e-05,-3.94288,-1.03907,-0.0567816,0.477871,
2,0,0,1,0,44818.1,0.474177,0.473828,-0.115519,67,0.784738,10,-5.47363e-05,-3.93735,-0.666444,-0.0885296,0.473879,
2,0,0,1,0,44818.9,0.470181,0.469861,-0.117711,67,0.784637,10,-5.53076e-05,-3.92918,-0.708778,-0.0832418,0.469913,
2,0,0,1,0,44819.7,0.466186,0.465911,-0.118085,67,0.784534,10,-5.50173e-05,-3.9278,-0.643038,-0.0917519,0.465963,
2,0,0,1,0,44820.5,0.462191,0.461848,-0.120489,67,0.78443,10,-5.56475e-05,-3.91905,-0.611397,-0.0965003,0.461901,
2,0,0,0,0,44821.3,0.458196,0.457882,-0.121505,67,0.784326,10,-5.56349e-05,-3.91541,-0.601434,-0.098099,0.457935,
2,0,0,1,0,44822.1,0.454201,0.453926,-0.123837,67,0.784219,10,-5.62129e-05,-3.90715,-0.846147,-0.0697278,0.453981,
2,0,0,1,0,44822.9,0.450205,0.449894,-0.124189,67,0.784112,10,-5.58719e-05,-3.90592,-0.731827,-0.0806201,0.449949,
2,0,0,1,0,44823.7,0.44621,0.445931,-0.12666,67,0.784003,10,-5.64815e-05,-3.89736,-0.48818,-0.120857,0.445987,
2,0,0,1,0,44824.5,0.442215,0.441937,-0.12844,67,0.783893,10,-5.67624e-05,-3.8913,-3.39905,-0.0173578,0.441994,
2,0,0,0,0,44825.3,0.43822,0.437897,-0.129573,67,0.783781,10,-5.67397e-05,-3.88748,-0.54079,-0.1091,0.437954,
2,0,0,1,0,44826.1,0.434225,0.433907,-0.132144,67,0.783668,10,-5.73381e-05,-3.87895,-0.617208,-0.0955917,0.433965,
2,0,0,0,0,44826.9,0.43023,0.429937,-0.133457,67,0.783553,10,-5.73781e-05,-3.87466,-0.716312,-0.0823663,0.429995,
2,0,0,1,0,44827.7,0.426234,0.425957,-0.134386,67,0.783438,10,-5.72425e-05,-3.87165,-0.556482,-0.106023,0.426016,
2,0,0,1,0,44828.5,0.422239,0.421956,-0.136321,67,0.78332,10,-5.75214e-05,-3.86544,-0.750621,-0.0786016,0.422016,
2,0,0,1,0,44829.3,0.418244,0.417935,-0.139003,67,0.783201,10,-5.80945e-05,-3.85697,-0.573828,-0.102818,0.417997,
2,0,0,1,0,44830.1,0.414249,0.413909,-0.139398,67,0.78308,10,-5.7698e-05,-3.85574,-0.717261,-0.0822574,0.41397,
2,0,0,0,0,44830.9,0.410254,0.40993,-0.144061,67,0.782958,10,-5.90547e-05,-3.84145,-0.699833,-0.0843059,0.409993,
2,0,0,1,0,44831.7,0.406259,0.405964,-0.144664,67,0.782834,10,-5.87283e-05,-3.83964,-0.509682,-0.115759,0.406028,
2,0,0,1,0,44832.5,0.402263,0.401959,-0.146828,67,0.782708,10,-5.9019e-05,-3.83319,-0.740374,-0.0796894,0.402023,
2,0,0,1,0,44833.3,0.398268,0.397975,-0.149677,67,0.782581,10,-5.95678e-05,-3.82484,-0.950837,-0.0620506,0.398041,
2,0,0,1,0,44834.1,0.394274,0.393978,-0.150356,67,0.782452,10,-5.92368e-05,-3.82288,-0.69849,-0.0844679,0.394044,
2,0,0,0,0,44834.9,0.390278,0.389935,-0.153429,67,0.782322,10,-5.98273e-05,-3.81409,-0.528258,-0.111688,0.390003,
2,0,0,1,0,44835.7,0.386283,0.385985,-0.155596,67,0.782189,10,-6.00577e-05,-3.808,-0.701713,-0.08408,0.386053,
2,0,0,1,0,44836.5,0.382287,0.38201,-0.156216,67,0.782055,10,-5.96759e-05,-3.80628,-0.782527,-0.0753968,0.382079,
2,0,0,1,0,44837.3,0.378292,0.377987,-0.158858,67,0.781919,10,-6.00461e-05,-3.79899,-0.998605,-0.0590824,0.378057,
2,0,0,1,0,44838.1,0.374297,0.373965,-0.160489,67,0.781782,10,-6.00174e-05,-3.79455,-0.555904,-0.106133,0.374036,
2,0,0,1,0,44838.9,0.370303,0.369997,-0.163914,67,0.781643,10,-6.06475e-05,-3.78538,-0.640246,-0.0921522,0.370069,
2,0,0,1,0,44839.7,0.366307,0.366008,-0.165203,67,0.781502,10,-6.04655e-05,-3.78198,-0.695304,-0.0848549,0.366081,
2,0,0,0,0,44840.5,0.362312,0.362,-0.167196,67,0.781359,10,-6.0525e-05,-3.77677,-0.93843,-0.0628709,0.362073,
2,0,0,1,0,44841.3,0.358316,0.358048,-0.170129,67,0.781214,10,-6.09145e-05,-3.76922,-0.604422,-0.097614,0.358123,
2,0,0,1,0,44842.1,0.354321,0.35398,-0.172286,67,0.781068,10,-6.09857e-05,-3.76375,-1.02999,-0.0572819,0.354056,
2,0,0,1,0,44842.9,0.350327,0.350039,-0.173329,67,0.780919,10,-6.0672e-05,-3.76113,-0.461871,-0.127741,0.350115,
2,0,0,1,0,44843.7,0.346331,0.346042,-0.176218,67,0.780769,10,-6.09789e-05,-3.75395,-2.81043,-0.0209933,0.346119,
2,0,0,0,0,44844.5,0.342336,0.342035,-0.178698,67,0.780616,10,-6.1121e-05,-3.74788,-0.551365,-0.107007,0.342114,
2,0,0,1,0,44845.3,0.338341,0.338027,-0.182234,67,0.780462,10,-6.15999e-05,-3.73937,-0.624752,-0.0944375,0.338107,
2,0,0,1,0,44846.1,0.334345,0.334068,-0.183654,67,0.780306,10,-6.13529e-05,-3.736,-0.551949,-0.106894,0.334149,
2,0,0,1,0,44846.9,0.33035,0.330054,-0.187126,67,0.780147,10,-6.17617e-05,-3.72787,-0.575933,-0.102443,0.330136,
2,0,0,1,0,44847.7,0.326355,0.326049,-0.188723,67,0.779987,10,-6.15328e-05,-3.72418,-1.96187,-0.0300734,0.326132,
2,0,0,0,0,44848.5,0.32236,0.322035,-0.191361,67,0.779825,10,-6.16249e-05,-3.71815,-0.558494,-0.105641,0.322119,
2,0,0,1,0,44849.3,0.318365,0.318077,-0.193614,67,0.77966,10,-6.1584e-05,-3.71306,-0.650773,-0.0906614,0.318162,
2,0,0,0,0,44850.1,0.31437,0.314085,-0.196396,67,0.779494,10,-6.16852e-05,-3.70687,-2.35899,-0.0250108,0.314172,
2,0,0,1,0,44850.9,0.310374,0.310065,-0.198302,67,0.779325,10,-6.14864e-05,-3.70267,-0.479554,-0.123031,0.310152,
2,0,0,1,0,44851.7,0.306379,0.306055,-0.201492,67,0.779155,10,-6.16675e-05,-3.69574,-0.866358,-0.0681012,0.306144,
2,0,0,1,0,44852.5,0.302385,0.302072,-0.204896,67,0.778983,10,-6.18932e-05,-3.68847,-0.473186,-0.124687,0.302162,
2,0,0,1,0,44853.3,0.298389,0.298052,-0.206726,67,0.778808,10,-6.1615e-05,-3.68461,-0.507483,-0.11626,0.298143,
2,0,0,0,0,44854.1,0.294394,0.294086,-0.208843,67,0.778631,10,-6.14178e-05,-3.68018,93.8679,0.000628543,0.294178,
2,0,0,1,0,44854.9,0.290398,0.290076,-0.211679,67,0.778452,10,-6.1403e-05,-3.67432,-0.596597,-0.0988942,0.290169,
2,0,0,1,0,44855.7,0.286403,0.286085,-0.213385,67,0.778271,10,-6.10462e-05,-3.67084,-0.611549,-0.0964763,0.286179,
2,0,0,1,0,44856.5,0.282408,0.282071,-0.217109,67,0.778088,10,-6.124e-05,-3.66332,-1.12871,-0.0522721,0.282166,
2,0,0,1,0,44857.3,0.278414,0.278093,-0.219215,67,0.777902,10,-6.09621e-05,-3.65913,-0.730071,-0.0808141,0.27819,
2,0,0,0,0,44858.1,0.274418,0.274094,-0.221995,67,0.777714,10,-6.08475e-05,-3.65366,-0.717545,-0.0822248,0.274192,
2,0,0,1,0,44858.9,0.270423,0.270116,-0.225261,67,0.777524,10,-6.08466e-05,-3.64731,-0.608155,-0.0970147,0.270216,
2,0,0,1,0,44859.7,0.266427,0.266119,-0.226756,67,0.777332,10,-6.03442e-05,-3.64444,-0.821312,-0.0718363,0.266219,
2,0,0,1,0,44860.5,0.262432,0.262134,-0.231018,67,0.777138,10,-6.05577e-05,-3.63635,-0.924545,-0.0638152,0.262235,
2,0,0,1,0,44861.3,0.258437,0.258172,-0.23357,67,0.776941,10,-6.03014e-05,-3.63158,-0.731677,-0.0806367,0.258275,
2,0,0,0,0,44862.1,0.254442,0.254162,-0.234278,67,0.776743,10,-5.95446e-05,-3.63027,-0.907828,-0.0649903,0.254265,
2,0,0,1,0,44862.9,0.250447,0.250119,-0.238092,67,0.776542,10,-5.95513e-05,-3.62326,-1.26114,-0.0467832,0.250224,
2,0,0,0,0,44863.7,0.246452,0.246138,-0.240684,67,0.776339,10,-5.92415e-05,-3.61855,-0.621823,-0.0948824,0.246243,
2,0,0,1,0,44864.5,0.242456,0.242124,-0.24373,67,0.776134,10,-5.90128e-05,-3.61309,-0.876612,-0.0673045,0.242231,
2,0,0,1,0,44865.3,0.238461,0.238182,-0.246473,67,0.775927,10,-5.87056e-05,-3.60823,-0.967622,-0.0609742,0.238291,
2,0,0,1,0,44866.1,0.234467,0.234169,-0.247809,67,0.775719,10,-5.80291e-05,-3.60588,-0.680381,-0.0867161,0.234278,
2,0,0,1,0,44866.9,0.230471,0.230182,-0.250201,67,0.775508,10,-5.75917e-05,-3.60171,-1.74117,-0.0338853,0.230292,
2,0,0,0,0,44867.7,0.226476,0.226196,-0.253326,67,0.775296,10,-5.73011e-05,-3.59632,-1.09078,-0.0540899,0.226307,
2,0,0,1,0,44868.5,0.222481,0.222187,-0.255377,67,0.775081,10,-5.67414e-05,-3.59282,-0.836168,-0.0705599,0.2223,
2,0,0,1,0,44869.3,0.218485,0.218188,-0.259261,67,0.774864,10,-5.65677e-05,-3.58626,-1.13848,-0.0518235,0.218302,
2,0,0,1,0,44870.1,0.21449,0.214232,-0.261804,67,0.774645,10,-5.60867e-05,-3.58202,-0.738945,-0.0798436,0.214347,
2,0,0,1,0,44870.9,0.210496,0.210234,-0.263118,67,0.774424,10,-5.53162e-05,-3.57985,-0.738606,-0.0798802,0.210349,
2,0,0,0,0,44871.7,0.2065,0.206185,-0.268384,67,0.7742,10,-5.53367e-05,-3.57124,-1.03646,-0.0569245,0.206303,
2,0,0,1,0,44872.5,0.202505,0.202228,-0.269393,67,0.773974,10,-5.44788e-05,-3.56961,-0.68718,-0.0858582,0.202347,
2,0,0,1,0,44873.3,0.198509,0.198204,-0.273441,67,0.773746,10,-5.41973e-05,-3.56314,-0.792638,-0.074435,0.198325,
2,0,0,1,0,44874.1,0.194514,0.194155,-0.276446,67,0.773514,10,-5.36734e-05,-3.55839,-0.607387,-0.0971375,0.194277,
2,0,0,1,0,44874.9,0.190519,0.190209,-0.279745,67,0.77328,10,-5.321e-05,-3.55324,-0.562884,-0.104817,0.190332,
2,0,0,0,0,44875.7,0.186524,0.186196,-0.284874,67,0.773042,10,-5.30424e-05,-3.54535,-1.98218,-0.0297652,0.186321,
2,0,0,1,0,44876.5,0.182529,0.182229,-0.289154,67,0.772801,10,-5.26922e-05,-3.53887,-0.370945,-0.159053,0.182356,
2,0,0,0,0,44877.3,0.178534,0.178228,-0.293852,67,0.772555,10,-5.23727e-05,-3.53187,-0.575833,-0.10246,0.178357,
2,0,0,1,0,44878.1,0.174538,0.174217,-0.299763,67,0.772305,10,-5.22238e-05,-3.52322,-0.411956,-0.143219,0.174349,
2,0,0,1,0,44878.9,0.170543,0.170233,-0.307642,67,0.772051,10,-5.23708e-05,-3.51195,-0.355577,-0.165927,0.170368,
2,0,0,1,0,44879.7,0.166549,0.166201,-0.313957,67,0.77179,10,-5.21801e-05,-3.50313,-0.329514,-0.179052,0.16634,
2,0,0,1,0,44880.5,0.162553,0.162249,-0.324836,67,0.771522,10,-5.27043e-05,-3.48834,-0.282209,-0.209065,0.162392,
2,0,0,0,0,44881.3,0.158558,0.158219,-0.33586,67,0.771245,10,-5.31394e-05,-3.47384,-0.239706,-0.246134,0.158367,
2,0,0,1,0,44882.1,0.154563,0.15426,-0.353548,67,0.770958,10,-5.45381e-05,-3.45155,-0.182768,-0.322813,0.154415,
2,0,0,1,0,44882.9,0.150567,0.150238,-0.373126,67,0.770656,10,-5.60579e-05,-3.42814,-0.142717,-0.413406,0.150403,
2,0,0,1,0,44883.7,0.146572,0.146241,-0.399929,67,0.770335,10,-5.8486e-05,-3.39802,-0.118679,-0.497138,0.146417,
2,0,0,1,0,44884.5,0.142578,0.142231,-0.435359,67,0.76999,10,-6.19215e-05,-3.36115,-0.102308,-0.57669,0.142423,
2,0,0,0,0,44885.3,0.138582,0.138275,-0.478029,67,0.769613,10,-6.60995e-05,-3.32055,-0.0942253,-0.626159,0.138485,
2,0,0,1,0,44886.1,0.134587,0.134267,-0.526983,67,0.769198,10,-7.07563e-05,-3.2782,-0.096224,-0.613153,0.134499,
2,0,0,1,0,44886.9,0.130591,0.130231,-0.575674,67,0.768744,10,-7.49708e-05,-3.23982,-0.109786,-0.537409,0.130485,
2,0,0,1,0,44887.7,0.126596,0.126316,-0.617698,67,0.768252,10,-7.80249e-05,-3.20922,-0.150912,-0.390957,0.126587,
2,0,0,1,0,44888.5,0.122602,0.122283,-0.651871,67,0.767731,10,-7.9713e-05,-3.18584,-0.248664,-0.237268,0.12257,
2,0,0,1,0,44889.3,0.118607,0.118297,-0.671528,67,0.767189,10,-7.944e-05,-3.17294,-0.367469,-0.160558,0.118593,
2,0,0,1,0,44890.1,0.114611,0.114282,-0.680558,67,0.766634,10,-7.77758e-05,-3.16713,-1.24099,-0.0475426,0.114582,
2,0,0,0,0,44890.9,0.110616,0.11027,-0.685291,67,0.766076,10,-7.55669e-05,-3.16412,-8.40482,-0.00701978,0.110571,
2,0,0,1,0,44891.7,0.10662,0.106318,-0.68291,67,0.765516,10,-7.26059e-05,-3.16564,-47.7737,-0.00123499,0.106619,
2,0,0,1,0,44892.5,0.102625,0.102324,-0.679284,67,0.764958,10,-6.9507e-05,-3.16795,0.778998,0.0757383,0.102623,
2,0,0,1,0,44893.3,0.0986305,0.0983245,-0.675144,67,0.764405,10,-6.63832e-05,-3.1706,1.2497,0.0472112,0.0986216,
2,0,0,1,0,44894.1,0.0946351,0.0943467,-0.665408,67,0.763856,10,-6.27791e-05,-3.17691,0.816906,0.0722237,0.0946395,
2,0,0,0,0,44894.9,0.0906399,0.0902811,-0.659087,67,0.763313,10,-5.95031e-05,-3.18106,0.611875,0.0964249,0.0905711,
2,0,0,1,0,44895.7,0.0866448,0.0863396,-0.6505,67,0.762777,10,-5.61639e-05,-3.18675,0.830458,0.0710452,0.0866258,
2,0,0,1,0,44896.5,0.0826492,0.0823552,-0.642997,67,0.762248,10,-5.29541e-05,-3.19179,0.61189,0.0964225,0.0826382,
2,0,0,1,0,44897.3,0.0786544,0.0783601,-0.63407,67,0.761726,10,-4.96858e-05,-3.19786,0.814987,0.0723938,0.0786391,
2,0,0,1,0,44898,0.0746596,0.0743371,-0.624194,67,0.761211,10,-4.64008e-05,-3.20468,0.702781,0.0839522,0.0746118,
2,0,0,0,0,44898.8,0.0706641,0.0703359,-0.616791,67,0.760702,10,-4.33826e-05,-3.20986,0.674747,0.0874401,0.0706073,
2,0,0,1,0,44899.6,0.0666689,0.0663488,-0.609101,67,0.7602,10,-4.04131e-05,-3.21531,0.677841,0.0870411,0.0666168,
2,0,0,0,0,44900.4,0.0626737,0.0623564,-0.5977,67,0.759704,10,-3.72704e-05,-3.22352,0.608247,0.0970001,0.0626194,
2,0,0,1,0,44901.2,0.0586783,0.0584041,-0.591801,67,0.759215,10,-3.45636e-05,-3.22782,0.579928,0.101737,0.0586644,
2,0,0,1,0,44902,0.0546835,0.0543535,-0.582828,67,0.758733,10,-3.16788e-05,-3.23446,0.81061,0.0727847,0.05461,
2,0,0,1,0,44902.8,0.0506886,0.0503699,-0.574663,67,0.758258,10,-2.89458e-05,-3.24059,0.438667,0.134498,0.0506228,
2,0,0,1,0,44903.6,0.046693,0.046357,-0.563546,67,0.75779,10,-2.61243e-05,-3.24907,0.650169,0.0907457,0.0466049,
2,0,0,0,0,44904.4,0.0426979,0.0423571,-0.55451,67,0.757331,10,-2.34874e-05,-3.25609,0.550916,0.107094,0.0426011,
2,0,0,1,0,44905.2,0.0387022,0.0383728,-0.543626,67,0.756879,10,-2.08604e-05,-3.2647,0.420182,0.140415,0.038612,
2,0,0,1,0,44906,0.0347074,0.0343967,-0.5349,67,0.756436,10,-1.83988e-05,-3.27173,0.542277,0.1088,0.034632,
2,0,0,1,0,44906.8,0.0307126,0.0304192,-0.523811,67,0.756001,10,-1.59339e-05,-3.28083,0.531333,0.111042,0.0306497,
2,0,0,1,0,44907.6,0.0267172,0.0264033,-0.516818,67,0.755572,10,-1.36457e-05,-3.28666,0.562151,0.104954,0.0266307,
2,0,0,0,0,44908.4,0.022722,0.0223737,-0.509127,67,0.75515,10,-1.13911e-05,-3.29317,0.671478,0.0878659,0.0225978,
2,0,0,1,0,44909.2,0.0187268,0.0183675,-0.502398,67,0.754734,10,-9.22781e-06,-3.29895,0.865485,0.0681699,0.0185886,
2,0,0,1,0,44910,0.0147313,0.0144246,-0.499301,67,0.754322,10,-7.20222e-06,-3.30164,1.20064,0.0491405,0.0146443,
2,0,0,1,0,44910.8,0.0107365,0.0103912,-0.494371,67,0.753914,10,-5.13711e-06,-3.30595,1.87258,0.0315073,0.0106087,
2,0,0,1,0,44911.6,0.00674163,0.00641301,-0.491961,67,0.753507,10,-3.15495e-06,-3.30807,2.6785,0.0220273,0.00662947,
2,0,0,0,0,44912.4,0.00274612,0.00240734,-0.492842,67,0.753102,10,-1.18644e-06,-3.30729,-1.32194,-0.0446315,0.00262419,
2,0,0,1,0,44912.9,0.000274105,-0.000101048,-0.494845,67,0.752848,10,5.00029e-08,-3.30553, , ,0.000116684,