File: Figure_codes/Fig_3-5/workspace_calculate_alpha_eff/20221101_1-115_003_TrumpetPlot_ParaChange_from10_every3_16_CV_C01_102.csv
mode,ox/red,error,control changes,counter inc.,time/s,control/V,Ewe/V,<I>/mA,cycle number,(Q-Qo)/C,I Range,P/W,log(|I|),Tafel slope mV/dec,alpha_eff,E-IR/V,
2,0,0,1,0,68214.6,2.44065e-05,-0.000344411,-0.0466034,103,0.0000000E+000,10,1.60507e-08,-4.33158, , ,-0.000323905,
2,1,0,1,0,68215.3,0.00379485,0.00347942,0.199179,103,0.000127586,10,6.93025e-07,-3.70076,0.0446128,1.32249,0.00339178,
2,1,0,0,0,68216.1,0.00779002,0.0074676,0.221075,103,0.000306251,10,1.6509e-06,-3.65546,0.0982716,0.600377,0.00737033,
2,1,0,1,0,68216.9,0.0117852,0.0114717,0.236434,103,0.00049992,10,2.7123e-06,-3.62629,0.164357,0.358974,0.0113677,
2,1,0,1,0,68217.7,0.0157806,0.0154632,0.250397,103,0.00070496,10,3.87194e-06,-3.60137,0.166775,0.353771,0.015353,
2,1,0,1,0,68218.5,0.0197754,0.0194617,0.262027,103,0.000920341,10,5.0995e-06,-3.58165,0.189175,0.311881,0.0193465,
2,1,0,1,0,68219.3,0.0237704,0.023454,0.275511,103,0.00114606,10,6.46182e-06,-3.55986,0.217182,0.271661,0.0233327,
2,1,0,0,0,68220.1,0.0277659,0.027452,0.287515,103,0.0013819,10,7.89287e-06,-3.54134,0.18907,0.312053,0.0273255,
2,1,0,1,0,68220.9,0.0317611,0.0314275,0.299901,103,0.00162799,10,9.42515e-06,-3.52302,0.209536,0.281574,0.0312955,
2,1,0,1,0,68221.7,0.0357567,0.0354332,0.314842,103,0.0018848,10,1.11558e-05,-3.50191,0.244554,0.241256,0.0352946,
2,1,0,1,0,68222.5,0.0397516,0.0394062,0.327645,103,0.00215194,10,1.29112e-05,-3.4846,0.202604,0.291209,0.039262,
2,1,0,1,0,68223.3,0.0437465,0.0434164,0.338895,103,0.00242983,10,1.47136e-05,-3.46993,0.254135,0.23216,0.0432673,
2,1,0,1,0,68224.1,0.0477413,0.0474328,0.352032,103,0.00271737,10,1.66979e-05,-3.45342,0.283478,0.208129,0.0472779,
2,1,0,1,0,68224.9,0.0517369,0.0513886,0.362801,103,0.00301424,10,1.86438e-05,-3.44033,0.260394,0.22658,0.0512289,
2,1,0,0,0,68225.7,0.0557321,0.0554224,0.375398,103,0.00332063,10,2.08054e-05,-3.42551,0.419309,0.140708,0.0552572,
2,1,0,1,0,68226.5,0.0597277,0.0593741,0.385431,103,0.00363523,10,2.28846e-05,-3.41405,0.356873,0.165325,0.0592045,
2,1,0,1,0,68227.3,0.0637226,0.0634338,0.394696,103,0.00395777,10,2.50371e-05,-3.40374,0.398943,0.147891,0.0632602,
2,1,0,1,0,68228.1,0.0677174,0.0674026,0.405152,103,0.00428819,10,2.73083e-05,-3.39238,0.477679,0.123514,0.0672243,
2,1,0,1,0,68228.9,0.0717128,0.0713762,0.411403,103,0.00462454,10,2.93644e-05,-3.38573,0.44539,0.132468,0.0711952,
2,1,0,0,0,68229.7,0.075708,0.0753782,0.416291,103,0.00496692,10,3.13792e-05,-3.3806,0.505335,0.116754,0.075195,
2,1,0,1,0,68230.5,0.0797031,0.0794204,0.425503,103,0.00531426,10,3.37936e-05,-3.3711,0.635194,0.092885,0.0792332,
2,1,0,1,0,68231.3,0.0836987,0.0833719,0.431993,103,0.0056675,10,3.60161e-05,-3.36452,0.554925,0.106321,0.0831818,
2,1,0,1,0,68232.1,0.0876935,0.0873386,0.44231,103,0.00602786,10,3.86307e-05,-3.35427,0.327389,0.180214,0.087144,
2,1,0,1,0,68232.9,0.0916883,0.0913348,0.454358,103,0.00639617,10,4.14987e-05,-3.3426,0.302367,0.195127,0.0911349,
2,1,0,0,0,68233.7,0.0956838,0.0953371,0.468266,103,0.00677589,10,4.46431e-05,-3.32951,0.262065,0.225135,0.0951311,
2,1,0,1,0,68234.5,0.099679,0.0993794,0.48571,103,0.00716925,10,4.82695e-05,-3.31362,0.256435,0.230078,0.0991657,
2,1,0,0,0,68235.3,0.103674,0.103382,0.508228,103,0.00757793,10,5.25419e-05,-3.29394,0.20453,0.288467,0.103159,
2,1,0,1,0,68236.1,0.10767,0.107393,0.527173,103,0.00800362,10,5.66147e-05,-3.27805,0.256316,0.230184,0.107161,
2,1,0,1,0,68236.9,0.111664,0.111335,0.544993,103,0.00844386,10,6.0677e-05,-3.26361,0.319138,0.184873,0.111096,
2,1,0,1,0,68237.7,0.115659,0.115305,0.55911,103,0.00889662,10,6.44683e-05,-3.2525,0.367654,0.160477,0.115059,
2,1,0,1,0,68238.5,0.119655,0.119351,0.570281,103,0.0093597,10,6.80637e-05,-3.24391,0.779204,0.0757183,0.1191,
2,1,0,0,0,68239.3,0.12365,0.123319,0.577453,103,0.00982941,10,7.1211e-05,-3.23848,0.894785,0.0659376,0.123065,
2,1,0,1,0,68240.1,0.127646,0.127306,0.581296,103,0.0103042,10,7.40023e-05,-3.2356,1.69487,0.0348108,0.12705,
2,1,0,1,0,68240.9,0.13164,0.131303,0.58,103,0.0107805,10,7.61557e-05,-3.23657,-0.579635,-0.101788,0.131048,
2,1,0,1,0,68241.7,0.135635,0.135281,0.565301,103,0.0112501,10,7.64748e-05,-3.24772,-0.256166,-0.230319,0.135033,
2,1,0,1,0,68242.5,0.139631,0.139302,0.53383,103,0.0117018,10,7.43634e-05,-3.2726,-0.120919,-0.487931,0.139067,
2,1,0,0,0,68243.3,0.143626,0.143305,0.48831,103,0.0121221,10,6.9977e-05,-3.3113,-0.0864893,-0.682165,0.14309,
2,1,0,1,0,68244.1,0.147621,0.147317,0.433816,103,0.0125009,10,6.39085e-05,-3.36269,-0.0810848,-0.727633,0.147126,
2,1,0,1,0,68244.9,0.151617,0.151311,0.388176,103,0.0128398,10,5.87352e-05,-3.41097,-0.0886491,-0.665545,0.15114,
2,1,0,1,0,68245.7,0.155612,0.155294,0.357325,103,0.0131473,10,5.54904e-05,-3.44694,-0.132341,-0.445819,0.155137,
2,1,0,1,0,68246.5,0.159606,0.159275,0.336464,103,0.0134348,10,5.35904e-05,-3.47306,-0.212353,-0.277839,0.159127,
2,1,0,0,0,68247.3,0.163602,0.163319,0.324879,103,0.0137096,10,5.30588e-05,-3.48828,-0.25966,-0.227221,0.163176,
2,1,0,1,0,68248.1,0.167597,0.167289,0.316263,103,0.0139756,10,5.29073e-05,-3.49995,-0.435692,-0.135417,0.16715,
2,1,0,0,0,68248.9,0.171592,0.171268,0.309854,103,0.0142362,10,5.30679e-05,-3.50884,-0.659669,-0.0894388,0.171131,
2,1,0,1,0,68249.7,0.175588,0.175285,0.305662,103,0.0144922,10,5.35779e-05,-3.51476,-0.750925,-0.0785697,0.17515,
2,1,0,1,0,68250.5,0.179582,0.179298,0.302502,103,0.0147451,10,5.42381e-05,-3.51927,-1.37554,-0.0428924,0.179165,
2,1,0,1,0,68251.3,0.183577,0.183255,0.299292,103,0.014996,10,5.48469e-05,-3.5239,-0.813032,-0.0725679,0.183124,
2,1,0,1,0,68252.1,0.187573,0.18728,0.298264,103,0.0152448,10,5.58588e-05,-3.5254,-1.10954,-0.0531754,0.187148,
2,1,0,0,0,68252.9,0.191568,0.191252,0.295549,103,0.0154922,10,5.65244e-05,-3.52937,-1.46277,-0.0403345,0.191122,
2,1,0,1,0,68253.7,0.195563,0.195247,0.294761,103,0.0157385,10,5.7551e-05,-3.53053,-3.18986,-0.0184961,0.195117,
2,1,0,1,0,68254.5,0.199559,0.199256,0.294427,103,0.0159837,10,5.86664e-05,-3.53102,4.61131,0.0127946,0.199126,
2,1,0,1,0,68255.3,0.203553,0.203248,0.29241,103,0.0162281,10,5.94318e-05,-3.53401,-0.857047,-0.068841,0.20312,
2,1,0,1,0,68256.1,0.207548,0.207219,0.292017,103,0.0164717,10,6.05115e-05,-3.53459,6.56111,0.00899238,0.207091,
2,1,0,0,0,68256.9,0.211544,0.211216,0.290382,103,0.0167143,10,6.13333e-05,-3.53703,-2.7342,-0.0215785,0.211088,
2,1,0,1,0,68257.7,0.215539,0.215229,0.289629,103,0.0169562,10,6.23366e-05,-3.53816,-2.08092,-0.0283529,0.215101,
2,1,0,1,0,68258.5,0.219535,0.219267,0.289954,103,0.0171973,10,6.35773e-05,-3.53767,-2.49094,-0.0236858,0.21914,
2,1,0,1,0,68259.3,0.223529,0.223205,0.288754,103,0.0174376,10,6.44515e-05,-3.53947,-3.25225,-0.0181413,0.223078,
2,1,0,1,0,68260.1,0.227524,0.227152,0.287244,103,0.0176774,10,6.52479e-05,-3.54175,-1.71786,-0.034345,0.227025,
2,1,0,0,0,68260.9,0.23152,0.231203,0.286782,103,0.0179163,10,6.63047e-05,-3.54245,-20.8384,-0.00283131,0.231077,
2,1,0,1,0,68261.6,0.235515,0.235232,0.285108,103,0.0181549,10,6.70666e-05,-3.54499,-4.73754,-0.0124537,0.235107,
2,1,0,0,0,68262.4,0.23951,0.239197,0.28504,103,0.0183927,10,6.81808e-05,-3.54509,-2.6554,-0.0222189,0.239072,
2,1,0,1,0,68263.2,0.243506,0.243174,0.283855,103,0.0186297,10,6.90261e-05,-3.5469,14.3873,0.00410085,0.243049,
2,1,0,1,0,68264,0.2475,0.247189,0.28388,103,0.0188664,10,7.01722e-05,-3.54687,-2.22062,-0.0265692,0.247064,
2,1,0,1,0,68264.8,0.251495,0.251188,0.283142,103,0.0191023,10,7.11217e-05,-3.548,-10.6714,-0.00552881,0.251063,
2,1,0,1,0,68265.6,0.255491,0.255158,0.281589,103,0.0193376,10,7.18498e-05,-3.55038,-6.28179,-0.00939222,0.255034,
2,1,0,0,0,68266.4,0.259486,0.259175,0.281507,103,0.0195726,10,7.29595e-05,-3.55051,-0.910097,-0.0648283,0.259051,
2,1,0,1,0,68267.2,0.263481,0.263173,0.280877,103,0.0198067,10,7.39193e-05,-3.55148,-7.34226,-0.00803567,0.263049,
2,1,0,1,0,68268,0.267477,0.267171,0.279761,103,0.0200403,10,7.4744e-05,-3.55321,30.2981,0.00194732,0.267048,
2,1,0,1,0,68268.8,0.271471,0.271145,0.278976,103,0.0202734,10,7.56429e-05,-3.55443,3.48859,0.0169123,0.271022,
2,1,0,1,0,68269.6,0.275466,0.275164,0.278056,103,0.0205057,10,7.6511e-05,-3.55587,-1.58064,-0.0373267,0.275041,
2,1,0,0,0,68270.4,0.279462,0.279142,0.277322,103,0.0207374,10,7.74122e-05,-3.55702,-2.47094,-0.0238775,0.27902,
2,1,0,1,0,68271.2,0.283457,0.283172,0.278534,103,0.0209682,10,7.88731e-05,-3.55512,-2.21059,-0.0266898,0.28305,
2,1,0,0,0,68272,0.287452,0.287155,0.275751,103,0.0211984,10,7.91832e-05,-3.55948,-2.03159,-0.0290414,0.287034,
2,1,0,1,0,68272.8,0.291448,0.291128,0.275581,103,0.0214279,10,8.02291e-05,-3.55975,-1.51957,-0.0388268,0.291006,
2,1,0,1,0,68273.6,0.295442,0.295142,0.27424,103,0.0216567,10,8.09398e-05,-3.56187,1.56594,0.037677,0.295021,
2,1,0,1,0,68274.4,0.299437,0.299144,0.273506,103,0.0218852,10,8.18177e-05,-3.56303,-4.88813,-0.01207,0.299023,
2,1,0,1,0,68275.2,0.303433,0.303125,0.27355,103,0.0221128,10,8.29199e-05,-3.56296,-1.13327,-0.0520619,0.303004,
2,1,0,0,0,68276,0.307428,0.307088,0.272094,103,0.0223396,10,8.35567e-05,-3.56528,13.0172,0.00453246,0.306968,
2,1,0,1,0,68276.8,0.311424,0.311093,0.272359,103,0.0225661,10,8.47291e-05,-3.56486,-1.29537,-0.0455469,0.310974,
2,1,0,1,0,68277.6,0.315418,0.315148,0.272058,103,0.0227918,10,8.57384e-05,-3.56534,3.58442,0.0164601,0.315028,
2,1,0,1,0,68278.4,0.319413,0.319119,0.269648,103,0.0230171,10,8.60498e-05,-3.5692,-1.90394,-0.0309884,0.319,
2,1,0,1,0,68279.2,0.323409,0.323095,0.269911,103,0.0232419,10,8.72069e-05,-3.56878,-1.39149,-0.0424006,0.322977,
2,1,0,0,0,68280,0.327404,0.327065,0.269179,103,0.0234658,10,8.80389e-05,-3.56996,6.5413,0.00901961,0.326946,
2,1,0,1,0,68280.8,0.331399,0.331074,0.268579,103,0.0236893,10,8.89195e-05,-3.57093,-9.40939,-0.00627034,0.330956,
2,1,0,1,0,68281.6,0.335395,0.335055,0.26758,103,0.0239123,10,8.96542e-05,-3.57255,-4.22542,-0.0139631,0.334937,
2,1,0,1,0,68282.4,0.339389,0.339071,0.267895,103,0.0241349,10,9.08353e-05,-3.57204,-2.52692,-0.0233485,0.338953,
2,1,0,1,0,68283.2,0.343384,0.343035,0.267339,103,0.0243572,10,9.17065e-05,-3.57294,-12.5718,-0.00469304,0.342917,
2,1,0,0,0,68284,0.34738,0.347062,0.266728,103,0.0245788,10,9.2571e-05,-3.57393,6.29073,0.00937887,0.346944,
2,1,0,1,0,68284.8,0.351375,0.351027,0.266514,103,0.0248004,10,9.35536e-05,-3.57428,-2.75323,-0.0214294,0.350909,
2,1,0,0,0,68285.6,0.35537,0.355068,0.26596,103,0.0250213,10,9.44338e-05,-3.57518,-1.22392,-0.0482059,0.354951,
2,1,0,1,0,68286.4,0.359366,0.359055,0.264552,103,0.0252414,10,9.49889e-05,-3.57749,3.16277,0.0186546,0.358939,
2,1,0,1,0,68287.2,0.36336,0.363048,0.264,103,0.0254613,10,9.58447e-05,-3.5784,-3.6338,-0.0162364,0.362932,
2,1,0,1,0,68288,0.367355,0.367031,0.264341,103,0.0256806,10,9.70211e-05,-3.57784,-22.3478,-0.00264008,0.366915,
2,1,0,1,0,68288.8,0.371351,0.371066,0.263689,103,0.0258997,10,9.7846e-05,-3.57891,-10.5938,-0.00556927,0.37095,
2,1,0,0,0,68289.6,0.375346,0.375074,0.263428,103,0.0261183,10,9.88052e-05,-3.57934,-2.76203,-0.0213611,0.374959,
2,1,0,1,0,68290.4,0.379342,0.379029,0.262599,103,0.0263362,10,9.95328e-05,-3.58071,-3.2314,-0.0182583,0.378914,
2,1,0,1,0,68291.2,0.383336,0.383017,0.261937,103,0.0265536,10,0.000100326,-3.5818,1585.83,3.72045e-05,0.382902,
2,1,0,1,0,68292,0.387331,0.386983,0.261123,103,0.0267708,10,0.00010105,-3.58315,-1.85891,-0.031739,0.386868,
2,1,0,1,0,68292.8,0.391327,0.390989,0.261566,103,0.0269876,10,0.000102269,-3.58242,-33.8677,-0.00174207,0.390874,
2,1,0,0,0,68293.6,0.395322,0.395022,0.260384,103,0.0272041,10,0.000102857,-3.58439,8.29914,0.00710917,0.394907,
2,1,0,1,0,68294.4,0.399317,0.398978,0.261351,103,0.0274202,10,0.000104273,-3.58278,-7.10632,-0.00830247,0.398863,
2,1,0,1,0,68295.2,0.403313,0.402978,0.260488,103,0.0276359,10,0.000104971,-3.58421,-2.78044,-0.0212197,0.402864,
2,1,0,1,0,68296,0.407307,0.407009,0.260306,103,0.0278514,10,0.000105947,-3.58452,-4.74967,-0.0124219,0.406894,
2,1,0,1,0,68296.8,0.411302,0.410993,0.260541,103,0.0280665,10,0.00010708,-3.58412,11.4249,0.00516418,0.410879,
2,1,0,0,0,68297.6,0.415298,0.415,0.25929,103,0.0282817,10,0.000107605,-3.58621,-4.71777,-0.0125059,0.414886,
2,1,0,1,0,68298.4,0.419293,0.418976,0.259008,103,0.028496,10,0.000108518,-3.58669,-4.74616,-0.0124311,0.418862,
2,1,0,0,0,68299.2,0.423288,0.422986,0.258315,103,0.0287102,10,0.000109263,-3.58785,-5.99625,-0.00983948,0.422872,
2,1,0,1,0,68300,0.427283,0.426991,0.257837,103,0.0289245,10,0.000110094,-3.58865,3.76539,0.015669,0.426878,
2,1,0,1,0,68300.8,0.431278,0.430996,0.258499,103,0.0291383,10,0.000111412,-3.58754,-15.44,-0.00382126,0.430882,
2,1,0,1,0,68301.6,0.435273,0.434998,0.25802,103,0.029352,10,0.000112238,-3.58835,2.79919,0.0210775,0.434884,
2,1,0,1,0,68302.4,0.439269,0.438975,0.258116,103,0.0295657,10,0.000113306,-3.58818,-1.55903,-0.037844,0.438861,
2,1,0,0,0,68303.2,0.443264,0.442933,0.257585,103,0.0297789,10,0.000114093,-3.58908,-22.1531,-0.00266328,0.44282,
2,1,0,1,0,68304,0.447259,0.44695,0.257488,103,0.029992,10,0.000115084,-3.58924,-5.7407,-0.0102775,0.446837,
2,1,0,1,0,68304.8,0.451254,0.450967,0.258246,103,0.0302049,10,0.00011646,-3.58797,-6.51792,-0.00905196,0.450853,
2,1,0,1,0,68305.6,0.455249,0.454906,0.257853,103,0.0304178,10,0.000117299,-3.58863,5.53742,0.0106548,0.454793,
2,1,0,1,0,68306.4,0.459244,0.458941,0.257652,103,0.0306306,10,0.000118247,-3.58897,12.7229,0.00463729,0.458827,
2,1,0,0,0,68307.2,0.46324,0.462969,0.258757,103,0.0308435,10,0.000119796,-3.58711,7.13106,0.00827367,0.462856,
2,1,0,1,0,68308,0.467235,0.466934,0.258063,103,0.0310563,10,0.000120499,-3.58827,-28.7475,-0.00205235,0.466821,
2,1,0,1,0,68308.8,0.471231,0.470911,0.258392,103,0.0312695,10,0.00012168,-3.58772,3.7652,0.0156698,0.470798,
2,1,0,1,0,68309.6,0.475225,0.474949,0.258727,103,0.0314825,10,0.000122882,-3.58716,10.1578,0.00580837,0.474835,
2,1,0,1,0,68310.4,0.47922,0.478933,0.258632,103,0.0316956,10,0.000123867,-3.58732,-12.9203,-0.00456647,0.478819,
2,1,0,0,0,68311.2,0.483216,0.482926,0.258721,103,0.031909,10,0.000124943,-3.58717,16.8991,0.00349131,0.482812,
2,1,0,1,0,68312,0.487211,0.486905,0.259247,103,0.0321225,10,0.000126229,-3.58629,2.29198,0.025742,0.486791,
2,1,0,0,0,68312.8,0.491206,0.490969,0.259852,103,0.0323365,10,0.000127579,-3.58527,3.09241,0.019079,0.490855,
2,1,0,1,0,68313.6,0.495202,0.494945,0.260516,103,0.0325508,10,0.000128941,-3.58417,41.1123,0.0014351,0.494831,
2,1,0,1,0,68314.4,0.499196,0.498922,0.261329,103,0.0327654,10,0.000130383,-3.58281,1.91583,0.0307961,0.498807,
2,1,0,1,0,68315.2,0.503191,0.502901,0.261668,103,0.0329809,10,0.000131593,-3.58225,-5.42231,-0.010881,0.502786,
2,1,0,1,0,68316,0.507187,0.506843,0.261885,103,0.0331966,10,0.000132735,-3.58189,1.35717,0.0434728,0.506727,
2,1,0,0,0,68316.8,0.511182,0.51091,0.262501,103,0.0334129,10,0.000134114,-3.58087,2.39631,0.0246212,0.510795,
2,1,0,1,0,68317.6,0.515177,0.514862,0.265333,103,0.0336301,10,0.00013661,-3.57621,16.2144,0.00363874,0.514745,
2,1,0,1,0,68318.4,0.519173,0.518867,0.265007,103,0.0338478,10,0.000137503,-3.57674,1.47216,0.0400772,0.51875,
2,1,0,1,0,68319.2,0.523167,0.522876,0.266056,103,0.0340665,10,0.000139114,-3.57503,2.25411,0.0261744,0.522759,
2,1,0,1,0,68320,0.527162,0.526843,0.267352,103,0.0342858,10,0.000140852,-3.57292,2.83792,0.0207899,0.526725,
2,1,0,0,0,68320.8,0.531158,0.53083,0.267917,103,0.034506,10,0.000142219,-3.572,2.35672,0.0250348,0.530712,
2,1,0,1,0,68321.6,0.535153,0.534876,0.269724,103,0.0347272,10,0.000144269,-3.56908,1.96714,0.0299928,0.534757,
2,1,0,0,0,68322.4,0.539148,0.538889,0.270832,103,0.0349492,10,0.000145948,-3.5673,1.792,0.0329242,0.53877,
2,1,0,1,0,68323.2,0.543143,0.542853,0.272964,103,0.0351724,10,0.00014818,-3.56389,1.48646,0.0396917,0.542733,
2,1,0,1,0,68324,0.547138,0.546821,0.273963,103,0.0353969,10,0.000149809,-3.56231,2.00311,0.0294542,0.546701,
2,1,0,1,0,68324.8,0.551133,0.550821,0.275873,103,0.0356226,10,0.000151957,-3.55929,0.939372,0.0628079,0.550699,
2,1,0,1,0,68325.6,0.555129,0.554809,0.277814,103,0.0358502,10,0.000154134,-3.55625,1.2386,0.0476343,0.554687,
2,1,0,0,0,68326.4,0.559124,0.55882,0.281451,103,0.0360793,10,0.00015728,-3.5506,0.973743,0.060591,0.558696,
2,1,0,1,0,68327.2,0.56312,0.562843,0.28318,103,0.0363103,10,0.000159386,-3.54794,0.90928,0.0648865,0.562719,
2,1,0,1,0,68328,0.567114,0.566833,0.28654,103,0.0365435,10,0.00016242,-3.54281,1.68224,0.0350723,0.566707,
2,1,0,1,0,68328.8,0.571109,0.570779,0.288949,103,0.0367788,10,0.000164926,-3.53918,0.590719,0.0998783,0.570652,
2,1,0,1,0,68329.6,0.575105,0.574766,0.292952,103,0.0370167,10,0.000168379,-3.5332,1.11777,0.0527838,0.574637,
2,1,0,0,0,68330.4,0.5791,0.578797,0.29705,103,0.0372576,10,0.000171931,-3.52717,0.710913,0.0829918,0.578666,
2,1,0,1,0,68331.2,0.583095,0.582807,0.300527,103,0.0375014,10,0.000175149,-3.52212,0.50756,0.116242,0.582675,
2,1,0,1,0,68332,0.587091,0.58682,0.304403,103,0.0377486,10,0.00017863,-3.51655,0.657086,0.0897904,0.586686,
2,1,0,1,0,68332.8,0.591085,0.590805,0.309671,103,0.0379993,10,0.000182955,-3.5091,0.549976,0.107277,0.590668,
2,1,0,1,0,68333.6,0.59508,0.594779,0.314997,103,0.0382542,10,0.000187354,-3.50169,0.459043,0.128528,0.59464,
2,1,0,0,0,68334.4,0.599076,0.598819,0.320861,103,0.0385138,10,0.000192138,-3.49368,0.521987,0.11303,0.598678,
2,1,0,1,0,68335.2,0.603071,0.602753,0.328077,103,0.0387783,10,0.000197749,-3.48402,0.419893,0.140512,0.602609,
2,1,0,0,0,68336,0.607066,0.606809,0.335357,103,0.0390487,10,0.000203498,-3.47449,0.367856,0.160389,0.606662,
2,1,0,1,0,68336.8,0.611062,0.610782,0.344487,103,0.0393259,10,0.000210406,-3.46283,0.324884,0.181603,0.61063,
2,1,0,1,0,68337.6,0.615056,0.61476,0.354809,103,0.0396106,10,0.000218123,-3.45001,0.282567,0.2088,0.614604,
2,1,0,1,0,68338.4,0.619051,0.618745,0.366557,103,0.0399044,10,0.000226805,-3.43586,0.283033,0.208456,0.618583,
2,1,0,1,0,68339.2,0.623047,0.622772,0.380069,103,0.0402081,10,0.000236696,-3.42014,0.224265,0.263082,0.622604,
2,1,0,0,0,68340,0.627042,0.626756,0.395889,103,0.0405235,10,0.000248126,-3.40243,0.213287,0.276623,0.626581,
2,1,0,1,0,68340.8,0.631038,0.630761,0.41468,103,0.0408527,10,0.000261564,-3.38229,0.198693,0.29694,0.630579,
2,1,0,1,0,68341.6,0.635032,0.634773,0.435033,103,0.0411973,10,0.000276147,-3.36148,0.180254,0.327316,0.634581,
2,1,0,1,0,68342.4,0.639027,0.638786,0.45903,103,0.0415598,10,0.000293222,-3.33816,0.165847,0.35575,0.638584,
2,1,0,1,0,68343.2,0.643022,0.642734,0.487459,103,0.0419428,10,0.000313307,-3.31206,0.148867,0.396326,0.64252,
2,1,0,0,0,68343.9,0.647018,0.646705,0.520041,103,0.0423503,10,0.000336313,-3.28396,0.13348,0.442015,0.646476,
2,1,0,1,0,68344.7,0.651013,0.650745,0.556895,103,0.0427857,10,0.000362397,-3.25423,0.134235,0.439527,0.6505,
2,1,0,1,0,68345.5,0.655009,0.654779,0.601181,103,0.0432529,10,0.000393641,-3.22099,0.112789,0.523101,0.654515,
2,1,0,1,0,68346.3,0.659003,0.658694,0.651425,103,0.043758,10,0.00042909,-3.18614,0.107724,0.547696,0.658407,
2,1,0,1,0,68347.1,0.662998,0.662706,0.709865,103,0.0443068,10,0.000470432,-3.14882,0.105959,0.556818,0.662394,
2,1,0,0,0,68347.9,0.666994,0.666704,0.776597,103,0.0449054,10,0.000517761,-3.1098,0.0969651,0.608466,0.666363,
2,1,0,1,0,68348.7,0.670989,0.670729,0.852573,103,0.0455616,10,0.000571845,-3.06927,0.0954958,0.617828,0.670353,
2,1,0,0,0,68349.5,0.674984,0.67473,0.940542,103,0.0462833,10,0.000634612,-3.02662,0.094007,0.627613,0.674317,
2,1,0,1,0,68350.3,0.678979,0.67868,1.03966,103,0.047079,10,0.000705595,-2.98311,0.0906086,0.651152,0.678222,
2,1,0,1,0,68351.1,0.682974,0.682693,1.14946,103,0.047958,10,0.000784725,-2.93951,0.0889695,0.663149,0.682187,
2,1,0,1,0,68351.9,0.686969,0.686701,1.27452,103,0.0489308,10,0.000875213,-2.89465,0.0867548,0.680078,0.68614,
2,1,0,1,0,68352.7,0.690965,0.690676,1.41231,103,0.0500087,10,0.00097545,-2.85007,0.088194,0.66898,0.690054,
2,1,0,0,0,68353.5,0.69496,0.694712,1.56365,103,0.0512023,10,0.00108629,-2.80586,0.0888101,0.664339,0.694024,
2,1,0,1,0,68354.3,0.698955,0.698645,1.73164,103,0.0525231,10,0.0012098,-2.76154,0.0892985,0.660705,0.697883,
2,1,0,1,0,68355.1,0.70295,0.702667,1.91457,103,0.0539845,10,0.00134531,-2.71793,0.0910237,0.648183,0.701825,
2,1,0,1,0,68355.9,0.706945,0.706656,2.11264,103,0.0555976,10,0.00149291,-2.67517,0.0934465,0.631378,0.705726,
2,1,0,1,0,68356.7,0.71094,0.710698,2.32601,103,0.0573751,10,0.00165309,-2.63339,0.0925888,0.637226,0.709675,
2,1,0,0,0,68357.5,0.714936,0.714687,2.55466,103,0.0593298,10,0.00182578,-2.59267,0.0962632,0.612903,0.713563,
2,1,0,1,0,68358.3,0.718931,0.718673,2.79984,103,0.0614736,10,0.00201217,-2.55287,0.0995757,0.592514,0.717441,
2,1,0,1,0,68359.1,0.722926,0.722629,3.06047,103,0.0638202,10,0.00221159,-2.51421,0.101857,0.579242,0.721283,
2,1,0,1,0,68359.9,0.726921,0.726689,3.33935,103,0.0663815,10,0.00242667,-2.47634,0.10392,0.567747,0.72522,
2,1,0,1,0,68360.7,0.730916,0.730623,3.63428,103,0.0691719,10,0.00265529,-2.43958,0.106691,0.552996,0.729024,
2,1,0,1,0,68361.5,0.734911,0.734612,3.94824,103,0.0722054,10,0.00290043,-2.4036,0.108085,0.545868,0.732875,
2,1,0,1,0,68362.3,0.738907,0.738658,4.27646,103,0.0754953,10,0.00315884,-2.36892,0.111981,0.526877,0.736777,
2,1,0,0,0,68363.1,0.742902,0.742607,4.62473,103,0.0790557,10,0.00343436,-2.33491,0.113544,0.519623,0.740572,
2,1,0,1,0,68363.9,0.746897,0.74661,4.99284,103,0.0829035,10,0.0037277,-2.30165,0.115585,0.510445,0.744413,
2,1,0,1,0,68364.7,0.750892,0.750606,5.38447,103,0.0870541,10,0.00404161,-2.26886,0.119923,0.491983,0.748237,
2,1,0,1,0,68365.5,0.754887,0.754625,5.79421,103,0.0915237,10,0.00437246,-2.23701,0.11978,0.492569,0.752076,
2,1,0,1,0,68366.3,0.758883,0.758597,6.2293,103,0.0963316,10,0.00472553,-2.20556,0.122954,0.479854,0.755856,
2,1,0,0,0,68367.1,0.762878,0.762644,6.68616,103,0.101495,10,0.00509916,-2.17482,0.123756,0.476746,0.759702,
2,1,0,1,0,68367.9,0.766873,0.766601,7.16832,103,0.107035,10,0.00549524,-2.14458,0.125044,0.471833,0.763447,
2,1,0,1,0,68368.7,0.770868,0.770594,7.68126,103,0.112972,10,0.00591913,-2.11457,0.126285,0.467197,0.767214,
2,1,0,1,0,68369.5,0.774863,0.774571,8.21989,103,0.119328,10,0.00636689,-2.08513,0.128876,0.457804,0.770954,
2,1,0,1,0,68370.3,0.778858,0.778611,8.7904,103,0.126128,10,0.0068443,-2.05599,0.129015,0.45731,0.774743,
2,1,0,0,0,68371.1,0.782854,0.782652,9.39464,103,0.133397,10,0.00735274,-2.02712,0.126748,0.465492,0.778519,
2,1,0,1,0,68371.9,0.786849,0.786614,10.0359,103,0.141163,10,0.0078944,-1.99844,0.132388,0.445659,0.782198,
2,1,0,0,0,68372.7,0.790844,0.790567,10.717,103,0.149457,10,0.00847248,-1.96993,0.127197,0.463847,0.785852,
2,1,0,1,0,68373.5,0.794839,0.794591,11.4382,103,0.158312,10,0.0090887,-1.94164,0.130604,0.451746,0.789558,
2,1,0,1,0,68374.3,0.798834,0.798603,12.2069,103,0.167762,10,0.00974845,-1.9134,0.129112,0.456968,0.793232,
2,1,0,1,0,68375.1,0.802829,0.802558,13.0405,103,0.177851,10,0.0104658,-1.88471,0.126844,0.465137,0.79682,
2,1,0,1,0,68375.9,0.806825,0.806524,13.9186,103,0.188627,10,0.0112257,-1.8564,0.12768,0.462091,0.8004,
2,1,0,0,0,68376.7,0.81082,0.810529,14.8389,103,0.200121,10,0.0120273,-1.8286,0.131653,0.448149,0.804,
2,1,0,1,0,68377.5,0.814816,0.814548,15.8009,103,0.212367,10,0.0128706,-1.80132,0.129216,0.4566,0.807595,
2,1,0,1,0,68378.3,0.81881,0.818569,16.8207,103,0.225403,10,0.0137689,-1.77416,0.132809,0.444248,0.811168,
2,1,0,1,0,68379.1,0.822805,0.8226,17.8878,103,0.239274,10,0.0147145,-1.74744,0.133412,0.442238,0.814729,
2,1,0,1,0,68379.9,0.8268,0.826597,18.9957,103,0.254013,10,0.0157018,-1.72135,0.133994,0.440318,0.818238,
2,1,0,0,0,68380.7,0.830796,0.830525,20.1543,103,0.269663,10,0.0167387,-1.69563,0.137801,0.428153,0.821657,
2,1,0,1,0,68381.5,0.834791,0.834554,21.3352,103,0.286246,10,0.0178053,-1.6709,0.145723,0.404878,0.825166,
2,1,0,1,0,68382.3,0.838786,0.838565,22.5189,103,0.303777,10,0.0188835,-1.64745,0.149971,0.39341,0.828656,
2,1,0,1,0,68383.1,0.842781,0.84251,23.7305,103,0.322256,10,0.0199932,-1.62469,0.148834,0.396415,0.832069,
2,1,0,1,0,68383.9,0.846776,0.846532,25.0285,103,0.341743,10,0.0211874,-1.60157,0.153583,0.384158,0.835519,
2,1,0,1,0,68384.6,0.849723,0.84945,25.8848,103,0.359646,10,0.0219878,-1.58696,0.0480062,1.22901,0.838061,
2,1,0,0,0,68385.4,0.845728,0.845468,23.9435,103,0.379503,10,0.0202434,-1.62081,0.104146,0.566513,0.834932,
2,1,0,1,0,68386.2,0.841732,0.841496,22.3845,103,0.39799,10,0.0188365,-1.65005,0.119478,0.493815,0.831647,
2,1,0,1,0,68387,0.837737,0.83749,20.9355,103,0.415294,10,0.0175333,-1.67912,0.110888,0.532069,0.828278,
2,1,0,1,0,68387.8,0.833742,0.833462,19.5535,103,0.43144,10,0.0162971,-1.70877,0.117944,0.500237,0.824858,
2,1,0,1,0,68388.6,0.829747,0.829464,18.3002,103,0.446546,10,0.0151794,-1.73754,0.120857,0.48818,0.821412,
2,1,0,0,0,68389.4,0.825752,0.825505,17.1033,103,0.460678,10,0.0141189,-1.76692,0.120106,0.491232,0.81798,
2,1,0,1,0,68390.2,0.821756,0.821494,16.0101,103,0.473898,10,0.0131522,-1.79561,0.120974,0.487706,0.814449,
2,1,0,1,0,68391,0.817761,0.817499,14.963,103,0.486261,10,0.0122322,-1.82498,0.121692,0.48483,0.810915,
2,1,0,1,0,68391.8,0.813766,0.813469,13.9725,103,0.497811,10,0.0113662,-1.85473,0.119177,0.495062,0.807321,
2,1,0,1,0,68392.6,0.809771,0.809456,13.0376,103,0.50859,10,0.0105534,-1.8848,0.119565,0.493454,0.80372,
2,1,0,1,0,68393.4,0.805776,0.805522,12.1701,103,0.518647,10,0.00980324,-1.91471,0.122687,0.480898,0.800167,
2,1,0,1,0,68394.2,0.801781,0.801546,11.3691,103,0.528048,10,0.00911287,-1.94427,0.119209,0.494931,0.796543,
2,1,0,0,0,68395,0.797786,0.797555,10.5835,103,0.536808,10,0.00844094,-1.97537,0.117337,0.502824,0.792899,
2,1,0,1,0,68395.8,0.79379,0.793511,9.84654,103,0.54496,10,0.00781334,-2.00672,0.118237,0.498998,0.789179,
2,1,0,1,0,68396.6,0.789795,0.789543,9.16155,103,0.552544,10,0.00723344,-2.03803,0.116205,0.507722,0.785512,
2,1,0,1,0,68397.4,0.7858,0.785518,8.5126,103,0.559597,10,0.0066868,-2.06994,0.114533,0.515135,0.781773,
2,1,0,1,0,68398.2,0.781805,0.781504,7.89715,103,0.566139,10,0.00617165,-2.10253,0.116948,0.504499,0.778029,
2,1,0,0,0,68399,0.77781,0.777516,7.33207,103,0.572214,10,0.0057008,-2.13477,0.115032,0.512902,0.77429,
2,1,0,1,0,68399.8,0.773815,0.773529,6.80124,103,0.577852,10,0.00526095,-2.16741,0.114434,0.51558,0.770536,
2,1,0,1,0,68400.6,0.769819,0.769567,6.28903,103,0.583078,10,0.00483982,-2.20142,0.111938,0.527075,0.766799,
2,1,0,1,0,68401.4,0.765824,0.765535,5.82896,103,0.587912,10,0.00446228,-2.23441,0.113622,0.519264,0.76297,
2,1,0,1,0,68402.2,0.761829,0.761569,5.39243,103,0.592387,10,0.00410671,-2.26822,0.111607,0.528642,0.759196,
2,1,0,0,0,68403,0.757834,0.757536,4.98269,103,0.596525,10,0.00377457,-2.30254,0.110519,0.533846,0.755343,
2,1,0,1,0,68403.8,0.753839,0.753594,4.59629,103,0.600344,10,0.00346374,-2.33759,0.108257,0.544998,0.751572,
2,1,0,0,0,68404.6,0.749844,0.749602,4.23598,103,0.603866,10,0.00317529,-2.37305,0.10744,0.549146,0.747738,
2,1,0,1,0,68405.4,0.745848,0.745558,3.89736,103,0.607108,10,0.00290571,-2.40923,0.104625,0.563918,0.743843,
2,1,0,1,0,68406.2,0.741853,0.741592,3.57691,103,0.610088,10,0.00265261,-2.44649,0.103382,0.570698,0.740019,
2,1,0,1,0,68407,0.737858,0.737598,3.27503,103,0.612818,10,0.00241566,-2.48478,0.0981905,0.600873,0.736157,
2,1,0,1,0,68407.8,0.733863,0.733596,2.99225,103,0.615314,10,0.0021951,-2.524,0.098348,0.59991,0.732279,
2,1,0,0,0,68408.6,0.729868,0.72963,2.72447,103,0.617591,10,0.00198785,-2.56472,0.0928642,0.635336,0.728431,
2,1,0,1,0,68409.4,0.725872,0.725575,2.475,103,0.619662,10,0.0017958,-2.60643,0.0928156,0.635669,0.724486,
2,1,0,1,0,68410.2,0.721877,0.721597,2.23915,103,0.621539,10,0.00161576,-2.64992,0.0869963,0.67819,0.720612,
2,1,0,1,0,68411,0.717882,0.717611,2.01949,103,0.623233,10,0.00144921,-2.69476,0.0861422,0.684914,0.716723,
2,1,0,1,0,68411.8,0.713887,0.713637,1.81352,103,0.624759,10,0.00129419,-2.74148,0.0814314,0.724536,0.712839,
2,1,0,0,0,68412.6,0.709892,0.709642,1.62271,103,0.626124,10,0.00115155,-2.78976,0.0796057,0.741153,0.708928,
2,1,0,1,0,68413.4,0.705897,0.705589,1.44347,103,0.627343,10,0.0010185,-2.84059,0.0751827,0.784755,0.704954,
2,1,0,1,0,68414.2,0.701901,0.701638,1.27768,103,0.628423,10,0.000896472,-2.89358,0.072654,0.812068,0.701076,
2,1,0,1,0,68415,0.697906,0.697627,1.12342,103,0.629376,10,0.000783726,-2.94946,0.0696592,0.84698,0.697132,
2,1,0,1,0,68415.8,0.693911,0.693595,0.983252,103,0.630212,10,0.000681979,-3.00734,0.0662076,0.891136,0.693163,
2,1,0,0,0,68416.6,0.689916,0.689655,0.855085,103,0.63094,10,0.000589713,-3.06799,0.0630576,0.935653,0.689278,
2,1,0,1,0,68417.4,0.685921,0.685673,0.737293,103,0.63157,10,0.000505541,-3.13236,0.0590584,0.999011,0.685348,
2,1,0,0,0,68418.2,0.681926,0.681619,0.631812,103,0.632111,10,0.000430655,-3.19941,0.0571537,1.0323,0.681341,
2,1,0,1,0,68419,0.67793,0.677641,0.537859,103,0.632572,10,0.000364475,-3.26933,0.054644,1.07972,0.677404,
2,1,0,1,0,68419.8,0.673935,0.673636,0.452188,103,0.63296,10,0.00030461,-3.34468,0.0512375,1.1515,0.673437,
2,1,0,1,0,68420.6,0.66994,0.669664,0.37685,103,0.633285,10,0.000252363,-3.42383,0.0488012,1.20899,0.669498,
2,1,0,1,0,68421.4,0.665945,0.665646,0.310312,103,0.633553,10,0.000206558,-3.5082,0.0455841,1.29431,0.665509,
2,1,0,0,0,68422.2,0.66195,0.661629,0.250755,103,0.633771,10,0.000165907,-3.60075,0.0425343,1.38712,0.661519,
2,1,0,1,0,68423,0.657955,0.657658,0.200029,103,0.633945,10,0.000131551,-3.69891,0.0386727,1.52562,0.65757,
2,1,0,1,0,68423.8,0.653959,0.653676,0.155206,103,0.634081,10,0.000101454,-3.80909,0.0331536,1.77959,0.653608,
2,1,0,1,0,68424.6,0.649964,0.649691,0.117469,103,0.634184,10,7.63185e-05,-3.93008,0.0307159,1.92083,0.649639,
2,1,0,1,0,68425.4,0.645969,0.645656,0.0855042,103,0.63426,10,5.52063e-05,-4.06801,0.0264109,2.23392,0.645618,
2,1,0,0,0,68426.2,0.641974,0.641662,0.0576985,103,0.634311,10,3.70229e-05,-4.23884,0.0201329,2.93053,0.641636,
2,1,0,1,0,68426.9,0.637979,0.637692,0.0344347,103,0.634341,10,2.19587e-05,-4.463,0.0141321,4.17489,0.637676,
2,1,0,1,0,68427.7,0.633983,0.63364,0.0133074,103,0.634354,10,8.4321e-06,-4.87591,0.00604971,9.75254,0.633634,
2,1,0,1,0,68428.5,0.629988,0.629733,-0.00286471,103,0.634353,10,-1.804e-06,-5.54292,-0.0117933,-5.00285,0.629734,
2,0,0,1,0,68429.3,0.625993,0.625724,-0.0165628,103,0.634339,10,-1.03638e-05,-4.78087,-0.0129419,-4.55885,0.625731,
2,0,0,0,0,68430.1,0.621998,0.621687,-0.0286325,103,0.634315,10,-1.78005e-05,-4.54314,-0.0239837,-2.46,0.621699,
2,0,0,1,0,68430.9,0.618003,0.617739,-0.0380906,103,0.634283,10,-2.353e-05,-4.41918,-0.0376371,-1.5676,0.617756,
2,0,0,0,0,68431.7,0.614008,0.613791,-0.0457127,103,0.634243,10,-2.8058e-05,-4.33996,-0.0629338,-0.937492,0.613811,
2,0,0,1,0,68432.5,0.610012,0.609715,-0.0540145,103,0.634197,10,-3.29334e-05,-4.26749,-0.0641022,-0.920406,0.609738,
2,0,0,1,0,68433.3,0.606017,0.605696,-0.0593795,103,0.634146,10,-3.59659e-05,-4.22636,-0.0933931,-0.631738,0.605722,
2,0,0,1,0,68434.1,0.602022,0.601719,-0.0636528,103,0.634091,10,-3.8301e-05,-4.19618,-0.189873,-0.310734,0.601747,
2,0,0,1,0,68434.9,0.598027,0.597742,-0.0693754,103,0.634031,10,-4.14686e-05,-4.15879,-0.138335,-0.426502,0.597772,
2,0,0,0,0,68435.7,0.594032,0.593695,-0.0728324,103,0.633969,10,-4.32402e-05,-4.13768,-0.268531,-0.219714,0.593727,
2,0,0,1,0,68436.5,0.590037,0.589756,-0.0756282,103,0.633903,10,-4.46022e-05,-4.12132,-0.238605,-0.24727,0.589789,
2,0,0,1,0,68437.3,0.586041,0.585723,-0.0790312,103,0.633835,10,-4.62904e-05,-4.1022,-0.181271,-0.325479,0.585758,
2,0,0,1,0,68438.1,0.582046,0.581708,-0.0817486,103,0.633765,10,-4.75539e-05,-4.08752,-0.305535,-0.193104,0.581744,
2,0,0,1,0,68438.9,0.578051,0.577748,-0.0841019,103,0.633693,10,-4.85897e-05,-4.07519,-0.373698,-0.157881,0.577785,
2,0,0,0,0,68439.7,0.574056,0.573774,-0.085843,103,0.633619,10,-4.92545e-05,-4.06629,-0.338571,-0.174262,0.573812,
2,0,0,1,0,68440.5,0.570061,0.569788,-0.0876304,103,0.633543,10,-4.99308e-05,-4.05735,-0.682684,-0.0864236,0.569827,
2,0,0,1,0,68441.3,0.566065,0.565791,-0.0897814,103,0.633466,10,-5.07975e-05,-4.04681,-0.448543,-0.131537,0.565831,
2,0,0,1,0,68442.1,0.56207,0.561764,-0.0919478,103,0.633388,10,-5.1653e-05,-4.03646,-0.66419,-0.08883,0.561805,
2,0,0,1,0,68442.9,0.558075,0.557781,-0.0917535,103,0.633309,10,-5.11783e-05,-4.03738,-1.03338,-0.0570944,0.557821,
2,0,0,1,0,68443.7,0.55408,0.553804,-0.093801,103,0.633228,10,-5.19474e-05,-4.02779,-0.410019,-0.143896,0.553845,
2,0,0,1,0,68444.5,0.550085,0.549767,-0.09512,103,0.633147,10,-5.22938e-05,-4.02173,-1.20693,-0.0488844,0.549809,
2,0,0,0,0,68445.3,0.54609,0.545784,-0.0961373,103,0.633064,10,-5.24702e-05,-4.01711,-0.69459,-0.0849422,0.545826,
2,0,0,1,0,68446.1,0.542094,0.541855,-0.0975597,103,0.632981,10,-5.28632e-05,-4.01073,-0.571295,-0.103274,0.541898,
2,0,0,1,0,68446.9,0.538099,0.537815,-0.0987167,103,0.632896,10,-5.30913e-05,-4.00561,-1.07367,-0.0549515,0.537859,
2,0,0,1,0,68447.7,0.534104,0.5338,-0.0996153,103,0.632811,10,-5.31746e-05,-4.00167,-0.671199,-0.0879025,0.533843,
2,0,0,1,0,68448.5,0.530109,0.529855,-0.100656,103,0.632724,10,-5.33329e-05,-3.99716,-0.710036,-0.0830944,0.529899,
2,0,0,0,0,68449.3,0.526114,0.525782,-0.101926,103,0.632637,10,-5.3591e-05,-3.99171,-2.60584,-0.0226415,0.525826,
2,0,0,1,0,68450.1,0.522119,0.521803,-0.102813,103,0.632549,10,-5.3648e-05,-3.98795,-0.702829,-0.0839465,0.521848,
2,0,0,1,0,68450.9,0.518123,0.517798,-0.104347,103,0.63246,10,-5.40309e-05,-3.98152,-1.08201,-0.0545283,0.517844,
2,0,0,1,0,68451.7,0.514128,0.513856,-0.105498,103,0.63237,10,-5.42108e-05,-3.97676,-2.73987,-0.0215339,0.513903,
2,0,0,1,0,68452.5,0.510134,0.50987,-0.104634,103,0.63228,10,-5.33497e-05,-3.98033,-0.322533,-0.182927,0.509916,
2,0,0,0,0,68453.3,0.506138,0.505825,-0.108303,103,0.632188,10,-5.47823e-05,-3.96536,4.00073,0.0147473,0.505872,
2,0,0,1,0,68454.1,0.502143,0.501873,-0.108621,103,0.632095,10,-5.45139e-05,-3.96409,-0.38808,-0.15203,0.50192,
2,0,0,0,0,68454.9,0.498148,0.497815,-0.110371,103,0.632001,10,-5.49442e-05,-3.95715,-3.6447,-0.0161879,0.497864,
2,0,0,1,0,68455.7,0.494152,0.493892,-0.11122,103,0.631907,10,-5.49306e-05,-3.95382,-0.679172,-0.0868705,0.493941,
2,0,0,1,0,68456.5,0.490157,0.489833,-0.112255,103,0.631811,10,-5.49859e-05,-3.9498,-0.554845,-0.106336,0.489882,
2,0,0,1,0,68457.3,0.486162,0.485859,-0.113128,103,0.631714,10,-5.49641e-05,-3.94643,-1.68406,-0.0350345,0.485908,
2,0,0,1,0,68458.1,0.482167,0.481844,-0.114918,103,0.631616,10,-5.53725e-05,-3.93961,-0.606221,-0.0973243,0.481894,
2,0,0,0,0,68458.9,0.478172,0.47785,-0.115386,103,0.631517,10,-5.51373e-05,-3.93785,-1.61082,-0.0366274,0.477901,
2,0,0,1,0,68459.7,0.474177,0.473843,-0.116902,103,0.631417,10,-5.53932e-05,-3.93218,-1.7673,-0.0333842,0.473894,
2,0,0,1,0,68460.5,0.470181,0.469889,-0.118407,103,0.631316,10,-5.56383e-05,-3.92662,-0.890012,-0.0662913,0.469942,
2,0,0,1,0,68461.3,0.466186,0.465892,-0.120249,103,0.631214,10,-5.60233e-05,-3.91992,-0.508626,-0.115999,0.465945,
2,0,0,1,0,68462.1,0.462192,0.461847,-0.12197,103,0.631111,10,-5.63313e-05,-3.91375,-0.492491,-0.119799,0.4619,
2,0,0,0,0,68462.9,0.458196,0.457868,-0.122761,103,0.631006,10,-5.62082e-05,-3.91094,-0.624714,-0.0944432,0.457922,
2,0,0,1,0,68463.7,0.454201,0.453905,-0.124738,103,0.6309,10,-5.66193e-05,-3.904,-0.995653,-0.0592576,0.45396,
2,0,0,1,0,68464.5,0.450205,0.449882,-0.126243,103,0.630792,10,-5.67946e-05,-3.89879,-0.474426,-0.124361,0.449938,
2,0,0,1,0,68465.3,0.44621,0.445905,-0.127052,103,0.630684,10,-5.66531e-05,-3.89602,-4.52779,-0.0130306,0.445961,
2,0,0,1,0,68466.1,0.442215,0.441921,-0.129658,103,0.630573,10,-5.72986e-05,-3.8872,-0.553853,-0.106526,0.441979,
2,0,0,0,0,68466.9,0.43822,0.437881,-0.132094,103,0.630462,10,-5.78414e-05,-3.87912,-0.789743,-0.0747079,0.437939,
2,0,0,1,0,68467.7,0.434225,0.433933,-0.133347,103,0.630349,10,-5.78636e-05,-3.87502,-0.404712,-0.145783,0.433992,
2,0,0,0,0,68468.5,0.43023,0.42996,-0.135417,103,0.630234,10,-5.82238e-05,-3.86833,-1.64834,-0.0357935,0.43002,
2,0,0,1,0,68469.3,0.426234,0.425906,-0.136866,103,0.630119,10,-5.8292e-05,-3.8637,-0.537323,-0.109804,0.425966,
2,0,0,1,0,68470.1,0.422239,0.42188,-0.139507,103,0.630001,10,-5.88553e-05,-3.8554,-0.975477,-0.0604832,0.421941,
2,0,0,1,0,68470.9,0.418244,0.417923,-0.141117,103,0.629882,10,-5.89759e-05,-3.85042,-0.571784,-0.103186,0.417985,
2,0,0,1,0,68471.7,0.414249,0.41401,-0.141736,103,0.62976,10,-5.86801e-05,-3.84852,-0.609904,-0.0967365,0.414073,
2,0,0,0,0,68472.5,0.410254,0.409961,-0.144089,103,0.629638,10,-5.90706e-05,-3.84137,-1.54383,-0.0382166,0.410024,
2,0,0,1,0,68473.3,0.406259,0.405946,-0.147254,103,0.629514,10,-5.97771e-05,-3.83193,-0.569167,-0.10366,0.406011,
2,0,0,1,0,68474.1,0.402263,0.402002,-0.148714,103,0.629388,10,-5.97835e-05,-3.82765,-0.495139,-0.119158,0.402068,
2,0,0,1,0,68474.9,0.398268,0.397948,-0.150948,103,0.629261,10,-6.00692e-05,-3.82117,-0.748579,-0.078816,0.398014,
2,0,0,1,0,68475.7,0.394274,0.393991,-0.152513,103,0.629131,10,-6.00887e-05,-3.81669,-0.432918,-0.136284,0.394058,
2,0,0,0,0,68476.5,0.390278,0.389992,-0.154798,103,0.629,10,-6.037e-05,-3.81023,-1.56801,-0.0376272,0.39006,
2,0,0,1,0,68477.3,0.386283,0.385947,-0.157878,103,0.628868,10,-6.09325e-05,-3.80168,-0.614813,-0.0959641,0.386016,
2,0,0,1,0,68478.1,0.382287,0.381969,-0.157584,103,0.628734,10,-6.01921e-05,-3.80249,-0.664672,-0.0887656,0.382038,
2,0,0,1,0,68478.9,0.378292,0.377979,-0.161067,103,0.628598,10,-6.08798e-05,-3.79299,-2.98048,-0.0197955,0.37805,
2,0,0,1,0,68479.7,0.374297,0.374012,-0.162539,103,0.62846,10,-6.07917e-05,-3.78904,-0.446394,-0.13217,0.374084,
2,0,0,1,0,68480.5,0.370303,0.36999,-0.164951,103,0.628321,10,-6.10301e-05,-3.78265,-0.723916,-0.0815011,0.370063,
2,0,0,1,0,68481.3,0.366307,0.365998,-0.167081,103,0.62818,10,-6.11515e-05,-3.77707,-0.678737,-0.0869261,0.366072,
2,0,0,0,0,68482.1,0.362312,0.362018,-0.169204,103,0.628037,10,-6.1255e-05,-3.77159,-0.724744,-0.081408,0.362092,
2,0,0,1,0,68482.9,0.358316,0.358004,-0.17222,103,0.627892,10,-6.16554e-05,-3.76392,-0.601294,-0.0981217,0.35808,
2,0,0,1,0,68483.7,0.354321,0.354018,-0.174403,103,0.627746,10,-6.17418e-05,-3.75845,-0.692256,-0.0852286,0.354094,
2,0,0,1,0,68484.5,0.350327,0.350045,-0.176071,103,0.627597,10,-6.16327e-05,-3.75431,-1.2664,-0.0465888,0.350122,
2,0,0,1,0,68485.3,0.346331,0.346,-0.178493,103,0.627446,10,-6.17587e-05,-3.74838,-0.826892,-0.0713515,0.346079,
2,0,0,0,0,68486.1,0.342336,0.342041,-0.181161,103,0.627294,10,-6.19644e-05,-3.74194,-0.588026,-0.100336,0.34212,
2,0,0,1,0,68486.9,0.338341,0.338012,-0.183227,103,0.62714,10,-6.19331e-05,-3.73701,-0.732114,-0.0805885,0.338093,
2,0,0,1,0,68487.7,0.334345,0.334042,-0.186011,103,0.626984,10,-6.21356e-05,-3.73046,-0.553071,-0.106677,0.334124,
2,0,0,1,0,68488.5,0.33035,0.330008,-0.188297,103,0.626826,10,-6.21396e-05,-3.72516,-1.1276,-0.0523234,0.330091,
2,0,0,1,0,68489.3,0.326355,0.326042,-0.190647,103,0.626665,10,-6.2159e-05,-3.71977,-0.533571,-0.110576,0.326126,
2,0,0,0,0,68490.1,0.32236,0.322035,-0.19359,103,0.626503,10,-6.23428e-05,-3.71312,-0.762957,-0.0773307,0.32212,
2,0,0,1,0,68490.9,0.318365,0.318036,-0.194579,103,0.626339,10,-6.18833e-05,-3.7109,-0.737354,-0.0800158,0.318122,
2,0,0,0,0,68491.7,0.31437,0.314046,-0.198235,103,0.626172,10,-6.22548e-05,-3.70282,-2.92245,-0.0201885,0.314133,
2,0,0,1,0,68492.5,0.310374,0.310042,-0.20041,103,0.626004,10,-6.21355e-05,-3.69808,-0.454644,-0.129772,0.31013,
2,0,0,1,0,68493.3,0.306379,0.30608,-0.202697,103,0.625834,10,-6.20415e-05,-3.69315,-0.836328,-0.0705465,0.306169,
2,0,0,1,0,68494.1,0.302385,0.302039,-0.204873,103,0.625661,10,-6.18798e-05,-3.68851,-0.739755,-0.0797561,0.30213,
2,0,0,1,0,68494.9,0.298389,0.298087,-0.207895,103,0.625487,10,-6.19707e-05,-3.68216,-0.54945,-0.10738,0.298178,
2,0,0,0,0,68495.7,0.294394,0.294048,-0.210987,103,0.625311,10,-6.20402e-05,-3.67574,-1.61691,-0.0364894,0.294141,
2,0,0,1,0,68496.5,0.290398,0.290033,-0.21278,103,0.625132,10,-6.17131e-05,-3.67207,-0.630845,-0.0935254,0.290126,
2,0,0,1,0,68497.3,0.286403,0.28608,-0.215224,103,0.624951,10,-6.15711e-05,-3.66711,-0.578756,-0.101943,0.286174,
2,0,0,1,0,68498.1,0.282408,0.282086,-0.219267,103,0.624768,10,-6.18521e-05,-3.65903,-1.68469,-0.0350213,0.282182,
2,0,0,1,0,68498.9,0.278413,0.278065,-0.221405,103,0.624584,10,-6.15649e-05,-3.65481,-0.644571,-0.0915338,0.278162,
2,0,0,0,0,68499.7,0.274418,0.274117,-0.224027,103,0.624396,10,-6.14097e-05,-3.6497,-0.972923,-0.060642,0.274216,
2,0,0,1,0,68500.5,0.270423,0.270118,-0.227019,103,0.624207,10,-6.13217e-05,-3.64394,-0.619599,-0.0952229,0.270217,
2,0,0,1,0,68501.3,0.266427,0.266121,-0.229286,103,0.624016,10,-6.10177e-05,-3.63962,-0.714419,-0.0825845,0.266221,
2,0,0,1,0,68502.1,0.262432,0.262116,-0.231457,103,0.623822,10,-6.06686e-05,-3.63553,-0.721423,-0.0817828,0.262218,
2,0,0,1,0,68502.9,0.258437,0.258133,-0.233489,103,0.623627,10,-6.02712e-05,-3.63173,-1.58676,-0.0371828,0.258236,
2,0,0,0,0,68503.7,0.254442,0.254097,-0.235648,103,0.623429,10,-5.98773e-05,-3.62774,-0.668323,-0.0882807,0.254201,
2,0,0,1,0,68504.5,0.250447,0.250116,-0.238982,103,0.62323,10,-5.97734e-05,-3.62163,-2.02456,-0.0291421,0.250221,
2,0,0,0,0,68505.3,0.246452,0.246171,-0.241064,103,0.623028,10,-5.9343e-05,-3.61787,-0.774522,-0.076176,0.246278,
2,0,0,1,0,68506.1,0.242456,0.242161,-0.244233,103,0.622824,10,-5.91436e-05,-3.6122,-0.737631,-0.0799858,0.242268,
2,0,0,1,0,68506.9,0.238461,0.238147,-0.246119,103,0.622619,10,-5.86125e-05,-3.60886,-0.860642,-0.0685535,0.238256,
2,0,0,1,0,68507.7,0.234467,0.234167,-0.248513,103,0.622412,10,-5.81936e-05,-3.60465,-0.835765,-0.070594,0.234276,
2,0,0,1,0,68508.5,0.230471,0.230139,-0.250993,103,0.622202,10,-5.77634e-05,-3.60034,-0.850966,-0.0693329,0.23025,
2,0,0,0,0,68509.3,0.226476,0.22613,-0.253296,103,0.621991,10,-5.72778e-05,-3.59637,-1.83899,-0.0320828,0.226241,
2,0,0,1,0,68510,0.222481,0.222137,-0.256121,103,0.621777,10,-5.6894e-05,-3.59155,-0.799307,-0.073814,0.22225,
2,0,0,1,0,68510.8,0.218485,0.218155,-0.259091,103,0.621561,10,-5.65222e-05,-3.58655,-1.29471,-0.04557,0.218269,
2,0,0,1,0,68511.6,0.21449,0.214184,-0.261802,103,0.621344,10,-5.60739e-05,-3.58203,-0.723993,-0.0814925,0.2143,
2,0,0,1,0,68512.4,0.210496,0.210163,-0.265068,103,0.621124,10,-5.57074e-05,-3.57664,-0.691017,-0.0853814,0.210279,
2,0,0,0,0,68513.2,0.2065,0.206159,-0.268374,103,0.620901,10,-5.53277e-05,-3.57126,-0.910016,-0.064834,0.206277,
2,0,0,1,0,68514,0.202505,0.202137,-0.2705,103,0.620677,10,-5.4678e-05,-3.56783,-0.996562,-0.0592035,0.202256,
2,0,0,1,0,68514.8,0.198509,0.198219,-0.273683,103,0.620449,10,-5.42492e-05,-3.56275,-0.482884,-0.122183,0.19834,
2,0,0,1,0,68515.6,0.194514,0.194224,-0.276828,103,0.620219,10,-5.37668e-05,-3.55779,-1.06363,-0.0554703,0.194346,
2,0,0,1,0,68516.4,0.19052,0.190172,-0.27955,103,0.619987,10,-5.31626e-05,-3.55354,-0.68328,-0.0863482,0.190295,
2,0,0,0,0,68517.2,0.186524,0.186195,-0.284013,103,0.619751,10,-5.28817e-05,-3.54666,-1.39618,-0.0422582,0.18632,
2,0,0,1,0,68518,0.182529,0.18223,-0.28826,103,0.619512,10,-5.25297e-05,-3.54022,-0.42463,-0.138945,0.182357,
2,0,0,0,0,68518.8,0.178534,0.178183,-0.293549,103,0.61927,10,-5.23055e-05,-3.53232,-0.585122,-0.100834,0.178313,
2,0,0,1,0,68519.6,0.174538,0.174216,-0.298377,103,0.619024,10,-5.19822e-05,-3.52523,-0.529576,-0.11141,0.174348,
2,0,0,1,0,68520.4,0.170543,0.17024,-0.303191,103,0.618773,10,-5.16152e-05,-3.51828,-0.375587,-0.157087,0.170373,
2,0,0,1,0,68521.2,0.166549,0.16622,-0.310168,103,0.618517,10,-5.15561e-05,-3.5084,-0.445085,-0.132559,0.166357,
2,0,0,1,0,68522,0.162553,0.162236,-0.318573,103,0.618255,10,-5.16841e-05,-3.49679,-0.314526,-0.187584,0.162376,
2,0,0,0,0,68522.8,0.158558,0.158252,-0.32718,103,0.617986,10,-5.1777e-05,-3.48521,-0.266069,-0.221747,0.158396,
2,0,0,1,0,68523.6,0.154563,0.154235,-0.341429,103,0.617708,10,-5.26605e-05,-3.4667,-0.252882,-0.233311,0.154386,
2,0,0,1,0,68524.4,0.150567,0.150214,-0.35718,103,0.617419,10,-5.36535e-05,-3.44711,-0.162078,-0.364023,0.150371,
2,0,0,1,0,68525.2,0.146572,0.146236,-0.38002,103,0.617114,10,-5.55724e-05,-3.42019,-0.148527,-0.397235,0.146403,
2,0,0,1,0,68526,0.142578,0.142244,-0.408018,103,0.61679,10,-5.8038e-05,-3.38932,-0.113041,-0.521935,0.142423,
2,0,0,0,0,68526.8,0.138582,0.138274,-0.44107,103,0.61644,10,-6.09885e-05,-3.35549,-0.108567,-0.543441,0.138468,
2,0,0,1,0,68527.6,0.134587,0.134229,-0.483157,103,0.61606,10,-6.48535e-05,-3.31591,-0.102094,-0.5779,0.134441,
2,0,0,1,0,68528.4,0.130591,0.130273,-0.526704,103,0.615645,10,-6.86153e-05,-3.27843,-0.111305,-0.530073,0.130505,
2,0,0,1,0,68529.2,0.126596,0.126235,-0.566423,103,0.615196,10,-7.15024e-05,-3.24686,-0.136824,-0.431212,0.126484,
2,0,0,1,0,68530,0.122602,0.122299,-0.602378,103,0.614716,10,-7.36704e-05,-3.22013,-0.196701,-0.299947,0.122564,
2,0,0,1,0,68530.8,0.118607,0.118243,-0.626564,103,0.614213,10,-7.40865e-05,-3.20303,-0.275311,-0.214303,0.118518,
2,0,0,1,0,68531.6,0.114611,0.114276,-0.64076,103,0.613694,10,-7.32235e-05,-3.1933,-0.642658,-0.0918062,0.114558,
2,0,0,0,0,68532.4,0.110616,0.110332,-0.648097,103,0.613168,10,-7.1506e-05,-3.18836,-1.22159,-0.0482975,0.110618,
2,0,0,1,0,68533.2,0.10662,0.106324,-0.649462,103,0.612639,10,-6.90531e-05,-3.18745,-2.09774,-0.0281255,0.106609,
2,0,0,1,0,68534,0.102625,0.102289,-0.650707,103,0.612107,10,-6.65603e-05,-3.18661,2.21298,0.0266609,0.102575,
2,0,0,1,0,68534.8,0.0986305,0.0983118,-0.649439,103,0.611577,10,-6.38475e-05,-3.18746,21.7182,0.00271661,0.0985975,
2,0,0,1,0,68535.6,0.0946351,0.0943043,-0.644712,103,0.611048,10,-6.07991e-05,-3.19063,1.33054,0.0443429,0.094588,
2,0,0,0,0,68536.4,0.0906399,0.0902991,-0.642104,103,0.610521,10,-5.79815e-05,-3.19239,1.01549,0.0581,0.0905817,
2,0,0,1,0,68537.2,0.0866448,0.0863226,-0.636885,103,0.61,10,-5.49776e-05,-3.19594,1.26052,0.046806,0.0866028,
2,0,0,1,0,68538,0.0826493,0.0823765,-0.630604,103,0.609483,10,-5.19469e-05,-3.20024,0.746912,0.0789919,0.082654,
2,0,0,1,0,68538.8,0.0786544,0.0783368,-0.623337,103,0.608972,10,-4.88302e-05,-3.20528,0.940125,0.0627576,0.0786111,
2,0,0,1,0,68539.6,0.0746596,0.0743417,-0.615093,103,0.608466,10,-4.57271e-05,-3.21106,0.805127,0.0732803,0.0746123,
2,0,0,0,0,68540.4,0.0706641,0.0703221,-0.607915,103,0.607966,10,-4.27499e-05,-3.21616,0.636402,0.0927087,0.0705896,
2,0,0,1,0,68541.2,0.0666689,0.0663446,-0.600475,103,0.607472,10,-3.98383e-05,-3.2215,0.827909,0.0712638,0.0666088,
2,0,0,0,0,68542,0.0626737,0.0623426,-0.591856,103,0.606983,10,-3.68978e-05,-3.22778,0.635998,0.0927676,0.062603,
2,0,0,1,0,68542.8,0.0586783,0.0583511,-0.584968,103,0.606501,10,-3.41335e-05,-3.23287,0.561388,0.105097,0.0586085,
2,0,0,1,0,68543.6,0.0546835,0.0544045,-0.576349,103,0.606026,10,-3.1356e-05,-3.23931,0.822812,0.0717053,0.0546581,
2,0,0,1,0,68544.4,0.0506886,0.0503349,-0.567981,103,0.605557,10,-2.85893e-05,-3.24567,0.453445,0.130115,0.0505848,
2,0,0,1,0,68545.2,0.046693,0.04634,-0.559043,103,0.605095,10,-2.59061e-05,-3.25255,0.74648,0.0790376,0.046586,
2,0,0,0,0,68546,0.0426979,0.042391,-0.54849,103,0.604641,10,-2.32511e-05,-3.26083,0.582082,0.10136,0.0426324,
2,0,0,1,0,68546.8,0.0387022,0.0383535,-0.540564,103,0.604194,10,-2.07325e-05,-3.26715,0.441191,0.133729,0.0385913,
2,0,0,1,0,68547.6,0.0347074,0.0343976,-0.531837,103,0.603756,10,-1.82939e-05,-3.27422,0.631223,0.0934693,0.0346316,
2,0,0,1,0,68548.4,0.0307126,0.030398,-0.519671,103,0.603324,10,-1.5797e-05,-3.28427,0.544258,0.108405,0.0306267,
2,0,0,1,0,68549.2,0.0267172,0.0263937,-0.514534,103,0.602899,10,-1.35805e-05,-3.28859,0.55749,0.105831,0.0266201,
2,0,0,0,0,68550,0.022722,0.022414,-0.506873,103,0.602481,10,-1.13611e-05,-3.2951,0.813804,0.0724991,0.0226371,
2,0,0,1,0,68550.8,0.0187268,0.0184142,-0.501921,103,0.602067,10,-9.24247e-06,-3.29936,0.872958,0.0675863,0.018635,
2,0,0,1,0,68551.6,0.0147313,0.01438,-0.497743,103,0.601658,10,-7.15754e-06,-3.30299,1.16315,0.0507241,0.014599,
2,0,0,1,0,68552.4,0.0107365,0.0104133,-0.494752,103,0.601252,10,-5.152e-06,-3.30561,5.33687,0.0110552,0.010631,
2,0,0,1,0,68553.2,0.00674163,0.00642978,-0.493079,103,0.600847,10,-3.17039e-06,-3.30708,3.56629,0.0165438,0.00664673,
2,0,0,0,0,68554,0.00274612,0.00239568,-0.493563,103,0.600442,10,-1.18242e-06,-3.30666,-1.27861,-0.046144,0.00261285,
2,0,0,1,0,68554.5,0.000274105,-0.000101048,-0.495062,103,0.600189,10,5.00248e-08,-3.30534, , ,0.00011678,