File: Figure_codes/Fig_3-5/workspace_calculate_alpha_eff/20221101_1-115_003_TrumpetPlot_ParaChange_from10_every3_16_CV_C01_61.csv
mode,ox/red,error,control changes,counter inc.,time/s,control/V,Ewe/V,<I>/mA,cycle number,(Q-Qo)/C,I Range,P/W,log(|I|),Tafel slope mV/dec,alpha_eff,E-IR/V,
2,0,0,0,0,41002.7,2.44065e-05,-0.000401673,-0.099394,62,0.0000000E+000,10,3.99239e-08,-4.00264, , ,-0.000357939,
2,1,0,0,0,41003.5,0.00379485,0.00346669,0.153561,62,9.57784e-05,10,5.32349e-07,-3.81372,0.0337658,1.74733,0.00339912,
2,1,0,1,0,41004.3,0.00779002,0.00745806,0.17758,62,0.000240235,10,1.3244e-06,-3.75061,0.0774457,0.761824,0.00737992,
2,1,0,0,0,41005.1,0.0117852,0.0114516,0.192588,62,0.00040043,10,2.20543e-06,-3.71537,0.120442,0.489863,0.0113668,
2,1,0,1,0,41005.9,0.0157806,0.0154844,0.208976,62,0.000572857,10,3.23586e-06,-3.6799,0.136256,0.433009,0.0153924,
2,1,0,1,0,41006.7,0.0197754,0.0194416,0.22158,62,0.000756084,10,4.30787e-06,-3.65447,0.14179,0.416108,0.0193441,
2,1,0,1,0,41007.5,0.0237704,0.0234381,0.234849,62,0.000950305,10,5.5044e-06,-3.62921,0.168698,0.349737,0.0233347,
2,1,0,1,0,41008.3,0.0277659,0.0274722,0.249179,62,0.00115514,10,6.8455e-06,-3.60349,0.1581,0.37318,0.0273625,
2,1,0,0,0,41009.1,0.0317611,0.0314476,0.263197,62,0.00137122,10,8.27693e-06,-3.57972,0.170011,0.347037,0.0313318,
2,1,0,1,0,41009.9,0.0357567,0.035467,0.277273,62,0.00159863,10,9.83405e-06,-3.55709,0.222706,0.264923,0.035345,
2,1,0,1,0,41010.7,0.0397516,0.0394391,0.290333,62,0.00183681,10,1.14505e-05,-3.5371,0.160973,0.366521,0.0393114,
2,1,0,1,0,41011.5,0.0437465,0.0433974,0.304621,62,0.00208648,10,1.32197e-05,-3.51624,0.211973,0.278338,0.0432633,
2,1,0,1,0,41012.3,0.0477413,0.0474414,0.318848,62,0.0023465,10,1.51266e-05,-3.49642,0.224247,0.263102,0.0473011,
2,1,0,0,0,41013.1,0.0517369,0.051379,0.330341,62,0.00261682,10,1.69726e-05,-3.48104,0.240245,0.245582,0.0512337,
2,1,0,1,0,41013.9,0.0557321,0.0554065,0.342778,62,0.00289742,10,1.89921e-05,-3.46499,0.295766,0.199482,0.0552556,
2,1,0,1,0,41014.7,0.0597277,0.0593961,0.354867,62,0.00318709,10,2.10777e-05,-3.44993,0.292948,0.201401,0.0592399,
2,1,0,1,0,41015.5,0.0637226,0.0634319,0.364817,62,0.00348578,10,2.31411e-05,-3.43792,0.351458,0.167872,0.0632713,
2,1,0,1,0,41016.3,0.0677174,0.0673857,0.37559,62,0.00379303,10,2.53094e-05,-3.42529,0.406224,0.14524,0.0672205,
2,1,0,0,0,41017.1,0.0717128,0.0713635,0.383214,62,0.00410737,10,2.73475e-05,-3.41656,0.338537,0.174279,0.0711948,
2,1,0,1,0,41017.9,0.075708,0.0754163,0.390791,62,0.00442898,10,2.9472e-05,-3.40806,0.460892,0.128013,0.0752444,
2,1,0,0,0,41018.7,0.0797031,0.0794035,0.400434,62,0.00475695,10,3.17959e-05,-3.39747,0.383365,0.1539,0.0792273,
2,1,0,1,0,41019.5,0.0836986,0.0833866,0.407241,62,0.00509151,10,3.39584e-05,-3.39015,0.449242,0.131332,0.0832074,
2,1,0,1,0,41020.3,0.0876935,0.0873682,0.419233,62,0.00543352,10,3.66276e-05,-3.37754,0.337966,0.174574,0.0871838,
2,1,0,1,0,41021.1,0.0916883,0.0913125,0.432393,62,0.00578465,10,3.94829e-05,-3.36412,0.256837,0.229718,0.0911223,
2,1,0,1,0,41021.9,0.0956838,0.0953286,0.446963,62,0.00614797,10,4.26084e-05,-3.34973,0.233998,0.252139,0.095132,
2,1,0,0,0,41022.7,0.099679,0.099373,0.468585,62,0.00652575,10,4.65647e-05,-3.32921,0.234024,0.252111,0.0991668,
2,1,0,1,0,41023.5,0.103674,0.103391,0.489571,62,0.00691996,10,5.06172e-05,-3.31018,0.180667,0.326568,0.103175,
2,1,0,1,0,41024.3,0.10767,0.107372,0.511273,62,0.00733277,10,5.48964e-05,-3.29135,0.231528,0.254829,0.107147,
2,1,0,1,0,41025.1,0.111664,0.111317,0.531714,62,0.00776165,10,5.9189e-05,-3.27432,0.263835,0.223625,0.111083,
2,1,0,1,0,41025.9,0.115659,0.115353,0.5474,62,0.00820416,10,6.31443e-05,-3.2617,0.317294,0.185947,0.115112,
2,1,0,0,0,41026.7,0.119655,0.119314,0.560577,62,0.00865926,10,6.68847e-05,-3.25136,0.564895,0.104444,0.119067,
2,1,0,1,0,41027.5,0.12365,0.123327,0.571044,62,0.00912309,10,7.04249e-05,-3.24333,0.513516,0.114894,0.123075,
2,1,0,1,0,41028.3,0.127646,0.127295,0.579225,62,0.00959523,10,7.37325e-05,-3.23715,0.655429,0.0900174,0.12704,
2,1,0,1,0,41029.1,0.131641,0.131349,0.583428,62,0.010073,10,7.66325e-05,-3.23401,-1.08113,-0.0545724,0.131092,
2,1,0,1,0,41029.8,0.135635,0.135312,0.574275,62,0.0105482,10,7.77064e-05,-3.24088,-0.350736,-0.168218,0.135059,
2,1,0,0,0,41030.6,0.139631,0.139307,0.544195,62,0.0110092,10,7.58101e-05,-3.26425,-0.131296,-0.449367,0.139067,
2,1,0,1,0,41031.4,0.143626,0.143353,0.49988,62,0.0114395,10,7.16596e-05,-3.30113,-0.0832414,-0.708782,0.143133,
2,1,0,0,0,41032.2,0.147621,0.147306,0.442406,62,0.0118272,10,6.51689e-05,-3.35418,-0.0735957,-0.801677,0.147111,
2,1,0,1,0,41033,0.151617,0.151251,0.389708,62,0.0121704,10,5.89436e-05,-3.40926,-0.0767965,-0.768264,0.151079,
2,1,0,1,0,41033.8,0.155612,0.155249,0.351679,62,0.0124762,10,5.4598e-05,-3.45385,-0.103704,-0.568928,0.155095,
2,1,0,1,0,41034.6,0.159606,0.159285,0.32467,62,0.0127564,10,5.1715e-05,-3.48856,-0.147098,-0.401093,0.159142,
2,1,0,1,0,41035.4,0.163602,0.163264,0.307687,62,0.0130201,10,5.02341e-05,-3.51189,-0.190643,-0.309479,0.163128,
2,1,0,0,0,41036.2,0.167597,0.167286,0.295593,62,0.013272,10,4.94486e-05,-3.52931,-0.298856,-0.197419,0.167156,
2,1,0,1,0,41037,0.171592,0.17129,0.286942,62,0.0135162,10,4.91502e-05,-3.54221,-0.327615,-0.180089,0.171164,
2,1,0,1,0,41037.8,0.175588,0.175257,0.281052,62,0.0137542,10,4.92564e-05,-3.55121,-0.441722,-0.133568,0.175133,
2,1,0,1,0,41038.6,0.179582,0.179237,0.276621,62,0.0139876,10,4.95808e-05,-3.55812,-1.03361,-0.0570817,0.179116,
2,1,0,1,0,41039.4,0.183577,0.183244,0.27283,62,0.014218,10,4.99943e-05,-3.56411,-0.573506,-0.102876,0.183124,
2,1,0,0,0,41040.2,0.187573,0.187245,0.268967,62,0.0144452,10,5.03626e-05,-3.5703,-0.730434,-0.0807739,0.187126,
2,1,0,1,0,41041,0.191568,0.191221,0.266404,62,0.0146701,10,5.0942e-05,-3.57446,-0.997965,-0.0591203,0.191104,
2,1,0,0,0,41041.8,0.195563,0.195258,0.264075,62,0.0148933,10,5.15628e-05,-3.57827,-0.791873,-0.0745069,0.195142,
2,1,0,1,0,41042.6,0.199559,0.199182,0.262239,62,0.0151146,10,5.22333e-05,-3.5813,-4.20906,-0.0140174,0.199066,
2,1,0,1,0,41043.4,0.203553,0.203216,0.259706,62,0.0153344,10,5.27765e-05,-3.58552,-2.54068,-0.0232222,0.203102,
2,1,0,1,0,41044.2,0.207548,0.207236,0.259631,62,0.0155535,10,5.38048e-05,-3.58564,-1.5573,-0.037886,0.207122,
2,1,0,1,0,41045,0.211544,0.211194,0.256788,62,0.0157711,10,5.42321e-05,-3.59042,-1.40799,-0.0419036,0.211081,
2,1,0,0,0,41045.8,0.215539,0.215218,0.256479,62,0.0159875,10,5.5199e-05,-3.59095,-1.21387,-0.0486047,0.215105,
2,1,0,1,0,41046.6,0.219535,0.219207,0.255552,62,0.0162027,10,5.60187e-05,-3.59252,-3.63502,-0.016231,0.219094,
2,1,0,1,0,41047.4,0.223529,0.223267,0.254411,62,0.016417,10,5.68015e-05,-3.59446,-2.24391,-0.0262934,0.223155,
2,1,0,1,0,41048.2,0.227524,0.227219,0.253712,62,0.0166305,10,5.76481e-05,-3.59566,-1.02228,-0.0577143,0.227107,
2,1,0,1,0,41049,0.23152,0.231192,0.252602,62,0.016843,10,5.83997e-05,-3.59756,24.3068,0.0024273,0.231081,
2,1,0,0,0,41049.8,0.235515,0.235237,0.250822,62,0.0170546,10,5.90026e-05,-3.60063,-1.69019,-0.0349074,0.235126,
2,1,0,1,0,41050.6,0.23951,0.239202,0.250373,62,0.0172652,10,5.98899e-05,-3.60141,-2.77244,-0.0212809,0.239092,
2,1,0,1,0,41051.4,0.243506,0.243202,0.249636,62,0.0174751,10,6.07118e-05,-3.60269,19.8648,0.00297007,0.243092,
2,1,0,1,0,41052.2,0.2475,0.247137,0.249323,62,0.0176845,10,6.16167e-05,-3.60324,-2.12133,-0.0278127,0.247027,
2,1,0,1,0,41053,0.251495,0.251185,0.248318,62,0.0178929,10,6.23737e-05,-3.60499,-2.19333,-0.0268997,0.251075,
2,1,0,0,0,41053.8,0.255491,0.255142,0.24601,62,0.0181008,10,6.27675e-05,-3.60905,-4.72414,-0.012489,0.255034,
2,1,0,1,0,41054.6,0.259486,0.259228,0.245946,62,0.018308,10,6.37562e-05,-3.60916,-1.49057,-0.0395821,0.25912,
2,1,0,0,0,41055.4,0.263481,0.263164,0.245856,62,0.0185143,10,6.47005e-05,-3.60932,-2.27337,-0.0259527,0.263056,
2,1,0,1,0,41056.2,0.267477,0.267161,0.243908,62,0.0187202,10,6.51629e-05,-3.61277,-2.80398,-0.0210416,0.267054,
2,1,0,1,0,41057,0.271471,0.271157,0.243452,62,0.0189253,10,6.60137e-05,-3.61359,-5.75188,-0.0102575,0.27105,
2,1,0,1,0,41057.8,0.275466,0.275153,0.243162,62,0.0191295,10,6.69068e-05,-3.6141,-2.66417,-0.0221457,0.275046,
2,1,0,1,0,41058.6,0.279462,0.279129,0.241494,62,0.0193329,10,6.74079e-05,-3.61709,-1.55867,-0.0378528,0.279023,
2,1,0,0,0,41059.4,0.283457,0.283125,0.241099,62,0.0195355,10,6.82612e-05,-3.6178,-1.53939,-0.0383268,0.283018,
2,1,0,1,0,41060.2,0.287452,0.287184,0.240196,62,0.0197374,10,6.89804e-05,-3.61943,8.24679,0.0071543,0.287078,
2,1,0,1,0,41061,0.291448,0.291092,0.238824,62,0.0199387,10,6.95198e-05,-3.62192,-1.0116,-0.0583236,0.290987,
2,1,0,1,0,41061.8,0.295442,0.295149,0.238317,62,0.020139,10,7.0339e-05,-3.62285,2.23725,0.0263716,0.295045,
2,1,0,1,0,41062.6,0.299437,0.299133,0.237591,62,0.0203392,10,7.10713e-05,-3.62417,-1.19377,-0.0494234,0.299029,
2,1,0,0,0,41063.4,0.303433,0.303132,0.236753,62,0.0205384,10,7.17675e-05,-3.6257,-2.32703,-0.0253542,0.303028,
2,1,0,1,0,41064.2,0.307428,0.307106,0.235471,62,0.0207368,10,7.23144e-05,-3.62806,-6.84809,-0.00861555,0.307002,
2,1,0,1,0,41065,0.311424,0.311092,0.235161,62,0.0209347,10,7.31566e-05,-3.62864,-1.511,-0.0390471,0.310989,
2,1,0,1,0,41065.8,0.315418,0.315118,0.234144,62,0.0211318,10,7.3783e-05,-3.63052,-3.72206,-0.0158514,0.315015,
2,1,0,1,0,41066.6,0.319413,0.31908,0.232678,62,0.0213282,10,7.42429e-05,-3.63324,-5.7963,-0.0101789,0.318977,
2,1,0,0,0,41067.4,0.323409,0.323066,0.233638,62,0.0215245,10,7.54804e-05,-3.63146,-1.73412,-0.0340229,0.322963,
2,1,0,1,0,41068.2,0.327404,0.327097,0.232341,62,0.0217199,10,7.59981e-05,-3.63387,-23.1995,-0.00254316,0.326995,
2,1,0,0,0,41069,0.331399,0.331052,0.231092,62,0.021915,10,7.65036e-05,-3.63621,89.6772,0.000657915,0.33095,
2,1,0,1,0,41069.8,0.335395,0.335052,0.231337,62,0.0221095,10,7.75101e-05,-3.63575,-2.37602,-0.0248314,0.33495,
2,1,0,1,0,41070.6,0.339389,0.339095,0.230056,62,0.0223034,10,7.80109e-05,-3.63817,-32.5201,-0.00181426,0.338994,
2,1,0,1,0,41071.4,0.343384,0.34308,0.230008,62,0.0224969,10,7.89112e-05,-3.63826,-1.77945,-0.0331563,0.342978,
2,1,0,1,0,41072.2,0.34738,0.347044,0.230115,62,0.0226899,10,7.98598e-05,-3.63806,-9.80575,-0.00601688,0.346942,
2,1,0,0,0,41073,0.351375,0.351052,0.229323,62,0.0228824,10,8.05041e-05,-3.63955,-4.02006,-0.0146764,0.350951,
2,1,0,1,0,41073.8,0.35537,0.355047,0.228968,62,0.0230746,10,8.12944e-05,-3.64022,-1.35385,-0.0435794,0.354946,
2,1,0,1,0,41074.6,0.359366,0.359029,0.228104,62,0.0232662,10,8.1896e-05,-3.64187,1.97358,0.0298949,0.358928,
2,1,0,1,0,41075.4,0.36336,0.363035,0.226631,62,0.0234576,10,8.2275e-05,-3.64468,-1.3946,-0.0423061,0.362935,
2,1,0,1,0,41076.2,0.367355,0.367034,0.227035,62,0.0236483,10,8.33296e-05,-3.64391,6.20413,0.0095098,0.366934,
2,1,0,0,0,41077,0.371351,0.371021,0.227051,62,0.0238387,10,8.42405e-05,-3.64388,-24.1016,-0.00244797,0.370921,
2,1,0,1,0,41077.8,0.375346,0.375043,0.226191,62,0.024029,10,8.48312e-05,-3.64552,-2.22681,-0.0264953,0.374943,
2,1,0,1,0,41078.6,0.379342,0.379058,0.226273,62,0.0242187,10,8.57706e-05,-3.64537,-4.44136,-0.0132842,0.378958,
2,1,0,1,0,41079.4,0.383336,0.382997,0.225241,62,0.024408,10,8.62667e-05,-3.64735,-5.79816,-0.0101756,0.382898,
2,1,0,1,0,41080.2,0.387331,0.387039,0.22509,62,0.0245972,10,8.71188e-05,-3.64764,-5.20311,-0.0113394,0.38694,
2,1,0,0,0,41081,0.391327,0.391028,0.225265,62,0.0247859,10,8.80849e-05,-3.64731,-13.8724,-0.00425304,0.390929,
2,1,0,1,0,41081.8,0.395322,0.395007,0.223924,62,0.0249743,10,8.84514e-05,-3.6499,-2.72147,-0.0216795,0.394908,
2,1,0,0,0,41082.6,0.399317,0.399,0.22462,62,0.0251625,10,8.96235e-05,-3.64855,2.66562,0.0221337,0.398902,
2,1,0,1,0,41083.4,0.403313,0.403012,0.224395,62,0.0253504,10,9.04342e-05,-3.64899,67.2581,0.000877218,0.402914,
2,1,0,1,0,41084.2,0.407307,0.406982,0.22464,62,0.025538,10,9.14244e-05,-3.64851,-3.19059,-0.0184919,0.406883,
2,1,0,1,0,41085,0.411302,0.411019,0.224907,62,0.0257253,10,9.24409e-05,-3.648,-2.13782,-0.0275982,0.41092,
2,1,0,1,0,41085.8,0.415298,0.414999,0.223589,62,0.0259126,10,9.27893e-05,-3.65055,-18.729,-0.00315019,0.4149,
2,1,0,0,0,41086.6,0.419293,0.419014,0.222971,62,0.0260996,10,9.34281e-05,-3.65175,-2.38379,-0.0247505,0.418916,
2,1,0,1,0,41087.4,0.423288,0.423015,0.22237,62,0.0262863,10,9.40661e-05,-3.65292,3.90104,0.0151242,0.422918,
2,1,0,1,0,41088.2,0.427283,0.427007,0.222157,62,0.0264727,10,9.48626e-05,-3.65334,-6.12689,-0.00962968,0.426909,
2,1,0,1,0,41089,0.431278,0.430978,0.223189,62,0.0266589,10,9.61898e-05,-3.65133,6.51623,0.00905432,0.43088,
2,1,0,1,0,41089.8,0.435273,0.434971,0.222917,62,0.0268451,10,9.69624e-05,-3.65186,7.40615,0.00796635,0.434873,
2,1,0,0,0,41090.6,0.439269,0.438965,0.222869,62,0.0270313,10,9.78319e-05,-3.65195,-4.55643,-0.0129487,0.438867,
2,1,0,1,0,41091.4,0.443264,0.442952,0.222531,62,0.0272172,10,9.85705e-05,-3.65261,4.65333,0.0126791,0.442854,
2,1,0,0,0,41092.2,0.447259,0.446957,0.222783,62,0.0274033,10,9.95743e-05,-3.65212,-3.51693,-0.016776,0.446859,
2,1,0,1,0,41093,0.451254,0.450933,0.223216,62,0.0275895,10,0.000100656,-3.65127,9.61727,0.0061348,0.450835,
2,1,0,1,0,41093.8,0.455249,0.454961,0.223139,62,0.0277758,10,0.000101519,-3.65142,-695.016,-8.48902e-05,0.454863,
2,1,0,1,0,41094.6,0.459244,0.458948,0.222448,62,0.0279621,10,0.000102092,-3.65277,57.1828,0.00103178,0.45885,
2,1,0,1,0,41095.4,0.46324,0.462959,0.224052,62,0.0281485,10,0.000103727,-3.64965,1.8841,0.0313146,0.46286,
2,1,0,0,0,41096.2,0.467235,0.466928,0.223922,62,0.028335,10,0.000104555,-3.6499,223.027,0.000264542,0.466829,
2,1,0,1,0,41097,0.471231,0.470884,0.223879,62,0.0285218,10,0.000105421,-3.64999,2.65238,0.0222442,0.470785,
2,1,0,1,0,41097.8,0.475225,0.474921,0.225031,62,0.0287087,10,0.000106872,-3.64776,12.1768,0.00484528,0.474822,
2,1,0,1,0,41098.6,0.47922,0.478908,0.224947,62,0.028896,10,0.000107729,-3.64792,52.5573,0.00112258,0.478809,
2,1,0,1,0,41099.4,0.483216,0.482893,0.225278,62,0.0290835,10,0.000108785,-3.64728,-3.41348,-0.0172844,0.482794,
2,1,0,0,0,41100.2,0.487211,0.486926,0.226047,62,0.0292713,10,0.000110068,-3.6458,1.00379,0.0587772,0.486827,
2,1,0,1,0,41101,0.491206,0.490897,0.225533,62,0.0294595,10,0.000110713,-3.64679,13.4942,0.00437226,0.490798,
2,1,0,1,0,41101.8,0.495201,0.494921,0.227847,62,0.0296483,10,0.000112766,-3.64236,1.34575,0.0438416,0.494821,
2,1,0,1,0,41102.6,0.499196,0.498915,0.227965,62,0.0298378,10,0.000113735,-3.64213,1.55895,0.0378459,0.498815,
2,1,0,1,0,41103.4,0.503191,0.502906,0.228484,62,0.030028,10,0.000114906,-3.64114,-6.68001,-0.00883232,0.502806,
2,1,0,0,0,41104.2,0.507187,0.506838,0.230057,62,0.0302188,10,0.000116602,-3.63816,1.51605,0.038917,0.506737,
2,1,0,1,0,41105,0.511182,0.510854,0.230503,62,0.0304105,10,0.000117754,-3.63732,2.88007,0.0204856,0.510753,
2,1,0,0,0,41105.8,0.515177,0.514937,0.23208,62,0.0306031,10,0.000119506,-3.63436,4.26091,0.0138468,0.514835,
2,1,0,1,0,41106.6,0.519173,0.518838,0.232786,62,0.0307962,10,0.000120778,-3.63304,1.13742,0.0518717,0.518736,
2,1,0,1,0,41107.4,0.523167,0.522863,0.233324,62,0.0309905,10,0.000121996,-3.63204,1.26535,0.0466272,0.522761,
2,1,0,1,0,41108.2,0.527162,0.526814,0.235926,62,0.0311858,10,0.000124289,-3.62722,1.57003,0.0375789,0.52671,
2,1,0,1,0,41109,0.531158,0.530854,0.236943,62,0.031382,10,0.000125782,-3.62536,1.78079,0.0331313,0.530749,
2,1,0,0,0,41109.8,0.535153,0.534843,0.238092,62,0.0315794,10,0.000127342,-3.62326,1.61047,0.0366352,0.534738,
2,1,0,1,0,41110.6,0.539148,0.538826,0.239461,62,0.0317777,10,0.000129028,-3.62077,1.42963,0.0412693,0.53872,
2,1,0,1,0,41111.4,0.543143,0.542857,0.242013,62,0.0319775,10,0.000131379,-3.61616,1.27655,0.0462184,0.542751,
2,1,0,1,0,41112.1,0.547138,0.546826,0.244131,62,0.0321787,10,0.000133497,-3.61238,1.10501,0.0533933,0.546719,
2,1,0,1,0,41112.9,0.551133,0.550834,0.24644,62,0.0323816,10,0.000135748,-3.60829,0.871869,0.0676708,0.550726,
2,1,0,0,0,41113.7,0.555129,0.554855,0.248436,62,0.0325866,10,0.000137846,-3.60479,0.835334,0.0706305,0.554745,
2,1,0,1,0,41114.5,0.559124,0.55881,0.251105,62,0.0327933,10,0.00014032,-3.60014,1.07471,0.0548985,0.5587,
2,1,0,1,0,41115.3,0.56312,0.56281,0.25427,62,0.0330021,10,0.000143106,-3.5947,0.644521,0.0915409,0.562699,
2,1,0,1,0,41116.1,0.567114,0.566822,0.257367,62,0.0332135,10,0.000145881,-3.58945,0.799064,0.0738364,0.566708,
2,1,0,1,0,41116.9,0.571109,0.5708,0.260597,62,0.0334273,10,0.000148749,-3.58403,0.552381,0.10681,0.570685,
2,1,0,0,0,41117.7,0.575105,0.574779,0.264288,62,0.0336441,10,0.000151907,-3.57792,0.835635,0.070605,0.574662,
2,1,0,1,0,41118.5,0.5791,0.578761,0.268946,62,0.0338641,10,0.000155656,-3.57033,0.530186,0.111282,0.578642,
2,1,0,0,0,41119.3,0.583095,0.582837,0.272989,62,0.0340876,10,0.000159108,-3.56385,0.42891,0.137558,0.582717,
2,1,0,1,0,41120.1,0.58709,0.586778,0.278215,62,0.0343151,10,0.00016325,-3.55562,0.539967,0.109266,0.586655,
2,1,0,1,0,41120.9,0.591085,0.5908,0.284351,62,0.0345466,10,0.000167995,-3.54615,0.436222,0.135252,0.590675,
2,1,0,1,0,41121.7,0.59508,0.594802,0.290905,62,0.0347831,10,0.000173031,-3.53625,0.373083,0.158142,0.594674,
2,1,0,1,0,41122.5,0.599076,0.598783,0.29855,62,0.0350251,10,0.000178767,-3.52498,0.344914,0.171057,0.598652,
2,1,0,0,0,41123.3,0.603071,0.602732,0.306331,62,0.0352732,10,0.000184635,-3.51381,0.356398,0.165545,0.602597,
2,1,0,1,0,41124.1,0.607066,0.60675,0.314752,62,0.0355281,10,0.000190976,-3.50203,0.299923,0.196717,0.606612,
2,1,0,1,0,41124.9,0.611061,0.610736,0.325509,62,0.0357908,10,0.0001988,-3.48744,0.288749,0.20433,0.610593,
2,1,0,1,0,41125.7,0.615056,0.614724,0.336845,62,0.0360621,10,0.000207067,-3.47257,0.213637,0.276169,0.614576,
2,1,0,1,0,41126.5,0.619051,0.618772,0.350866,62,0.0363441,10,0.000217106,-3.45486,0.223453,0.264038,0.618618,
2,1,0,0,0,41127.3,0.623047,0.622748,0.367533,62,0.0366378,10,0.00022888,-3.4347,0.207069,0.284929,0.622587,
2,1,0,1,0,41128.1,0.627042,0.626737,0.38606,62,0.0369453,10,0.000241958,-3.41334,0.170413,0.346219,0.626567,
2,1,0,1,0,41128.9,0.631037,0.630775,0.407841,62,0.0372693,10,0.000257256,-3.38951,0.157639,0.374273,0.630596,
2,1,0,1,0,41129.7,0.635032,0.63476,0.43233,62,0.0376117,10,0.000274426,-3.36418,0.151925,0.388349,0.63457,
2,1,0,1,0,41130.5,0.639027,0.638748,0.461468,62,0.0379755,10,0.000294762,-3.33586,0.134934,0.43725,0.638545,
2,1,0,1,0,41131.3,0.643022,0.642721,0.495026,62,0.0383645,10,0.000318163,-3.30537,0.123619,0.477272,0.642503,
2,1,0,1,0,41132.1,0.647018,0.646697,0.53519,62,0.038783,10,0.000346106,-3.27149,0.113104,0.521642,0.646461,
2,1,0,0,0,41132.9,0.651013,0.650743,0.580338,62,0.0392353,10,0.000377651,-3.23632,0.108261,0.544977,0.650488,
2,1,0,1,0,41133.7,0.655008,0.6547,0.635634,62,0.0397275,10,0.00041615,-3.19679,0.0967801,0.609629,0.65442,
2,1,0,1,0,41134.5,0.659003,0.65873,0.699024,62,0.040267,10,0.000460468,-3.15551,0.0957877,0.615945,0.658423,
2,1,0,1,0,41135.3,0.662998,0.662687,0.772129,62,0.0408606,10,0.00051168,-3.11231,0.0877036,0.672721,0.662348,
2,1,0,1,0,41136.1,0.666994,0.666706,0.855353,62,0.041517,10,0.000570269,-3.06785,0.0878118,0.671892,0.66633,
2,1,0,0,0,41136.9,0.670989,0.670692,0.952059,62,0.0422455,10,0.000638539,-3.02134,0.0839334,0.702939,0.670274,
2,1,0,1,0,41137.7,0.674984,0.674671,1.06331,62,0.043057,10,0.000717384,-2.97334,0.0822592,0.717245,0.674203,
2,1,0,1,0,41138.5,0.67898,0.6787,1.18896,62,0.0439628,10,0.000806945,-2.92483,0.0807726,0.730446,0.678177,
2,1,0,1,0,41139.3,0.682974,0.68268,1.33091,62,0.0449759,10,0.000908586,-2.87585,0.079414,0.742942,0.682095,
2,1,0,1,0,41140.1,0.686969,0.686668,1.49116,62,0.0461093,10,0.00102393,-2.82648,0.0802569,0.735139,0.686012,
2,1,0,0,0,41140.9,0.690965,0.690716,1.66838,62,0.0473773,10,0.00115238,-2.7777,0.0792209,0.744753,0.689982,
2,1,0,1,0,41141.7,0.69496,0.694709,1.86655,62,0.0487953,10,0.0012967,-2.72896,0.082029,0.719257,0.693887,
2,1,0,0,0,41142.5,0.698955,0.698653,2.08161,62,0.0503787,10,0.00145432,-2.6816,0.0812408,0.726236,0.697737,
2,1,0,1,0,41143.3,0.70295,0.702695,2.31903,62,0.0521433,10,0.00162957,-2.63469,0.0847206,0.696407,0.701674,
2,1,0,1,0,41144.1,0.706945,0.7067,2.57559,62,0.0541049,10,0.00182017,-2.58912,0.0863769,0.683053,0.705566,
2,1,0,1,0,41144.9,0.71094,0.710656,2.85374,62,0.0562797,10,0.00202803,-2.54459,0.0888757,0.663849,0.7094,
2,1,0,1,0,41145.7,0.714936,0.714686,3.14864,62,0.0586837,10,0.00225029,-2.50188,0.090818,0.649651,0.7133,
2,1,0,0,0,41146.5,0.718931,0.718643,3.46846,62,0.0613333,10,0.00249258,-2.45986,0.0935072,0.630967,0.717117,
2,1,0,1,0,41147.3,0.722927,0.722614,3.8069,62,0.064246,10,0.00275091,-2.41943,0.0965384,0.611156,0.720938,
2,1,0,1,0,41148.1,0.726921,0.726629,4.16637,62,0.0674375,10,0.00302741,-2.38024,0.0995118,0.592894,0.724796,
2,1,0,1,0,41148.9,0.730916,0.730647,4.54699,62,0.0709245,10,0.00332225,-2.34228,0.102024,0.578295,0.728647,
2,1,0,1,0,41149.7,0.734911,0.734654,4.94986,62,0.0747251,10,0.00363643,-2.30541,0.104603,0.564037,0.732476,
2,1,0,0,0,41150.5,0.738907,0.73861,5.37485,62,0.0788565,10,0.00396992,-2.26963,0.107222,0.550261,0.736246,
2,1,0,1,0,41151.3,0.742902,0.742623,5.82251,62,0.0833355,10,0.00432393,-2.23489,0.112372,0.525043,0.740061,
2,1,0,1,0,41152.1,0.746897,0.746624,6.29292,62,0.0881821,10,0.00469845,-2.20115,0.113326,0.520621,0.743855,
2,1,0,1,0,41152.9,0.750892,0.750669,6.7882,62,0.0934133,10,0.0050957,-2.16825,0.116791,0.505176,0.747683,
2,1,0,1,0,41153.7,0.754887,0.754596,7.30789,62,0.0990504,10,0.0055145,-2.13621,0.117664,0.501428,0.75138,
2,1,0,0,0,41154.5,0.758883,0.758574,7.85789,62,0.105116,10,0.00596079,-2.10469,0.120796,0.488426,0.755116,
2,1,0,1,0,41155.3,0.762878,0.76257,8.43173,62,0.111629,10,0.00642979,-2.07408,0.122498,0.48164,0.75886,
2,1,0,0,0,41156.1,0.766873,0.766578,9.03695,62,0.118614,10,0.00692752,-2.04398,0.125127,0.471522,0.762601,
2,1,0,1,0,41156.9,0.770868,0.770586,9.67612,62,0.126096,10,0.00745629,-2.0143,0.124333,0.474534,0.766329,
2,1,0,1,0,41157.7,0.774863,0.774562,10.354,62,0.134102,10,0.00801981,-1.98489,0.127189,0.463878,0.770007,
2,1,0,1,0,41158.5,0.778858,0.778588,11.0697,62,0.142667,10,0.00861871,-1.95587,0.127229,0.463732,0.773717,
2,1,0,1,0,41159.3,0.782854,0.782587,11.8351,62,0.151823,10,0.00926198,-1.92683,0.124841,0.472599,0.777379,
2,1,0,0,0,41160.1,0.786849,0.786554,12.6458,62,0.161608,10,0.00994656,-1.89806,0.127597,0.462395,0.780989,
2,1,0,1,0,41160.9,0.790844,0.790555,13.5143,62,0.172064,10,0.0106838,-1.86921,0.123258,0.478672,0.784609,
2,1,0,1,0,41161.7,0.794839,0.79456,14.4362,62,0.183237,10,0.0114705,-1.84055,0.126756,0.46546,0.788208,
2,1,0,1,0,41162.5,0.798834,0.798579,15.3932,62,0.195168,10,0.0122927,-1.81267,0.127638,0.462245,0.791806,
2,1,0,1,0,41163.3,0.802829,0.802579,16.3887,62,0.207874,10,0.0131532,-1.78546,0.128785,0.458127,0.795368,
2,1,0,0,0,41164.1,0.806825,0.806592,17.4864,62,0.221415,10,0.0141044,-1.7573,0.125108,0.471592,0.798898,
2,1,0,1,0,41164.9,0.81082,0.810556,18.6444,62,0.235854,10,0.0151123,-1.72945,0.128481,0.459213,0.802352,
2,1,0,1,0,41165.7,0.814815,0.814512,19.8783,62,0.251249,10,0.0161912,-1.70162,0.126332,0.467022,0.805766,
2,1,0,1,0,41166.5,0.81881,0.818511,21.1174,62,0.267631,10,0.0172849,-1.67536,0.130716,0.451361,0.809219,
2,1,0,1,0,41167.3,0.822805,0.82251,22.4155,62,0.285031,10,0.018437,-1.64945,0.133808,0.44093,0.812648,
2,1,0,0,0,41168.1,0.826801,0.826538,23.7381,62,0.303481,10,0.0196204,-1.62455,0.143282,0.411775,0.816094,
2,1,0,1,0,41168.9,0.830796,0.830468,24.9524,62,0.322947,10,0.0207222,-1.60289,0.159567,0.36975,0.819489,
2,1,0,0,0,41169.7,0.834791,0.834536,26.3416,62,0.343443,10,0.021983,-1.57936,0.142782,0.413218,0.822946,
2,1,0,1,0,41170.5,0.838786,0.838564,27.8133,62,0.365086,10,0.0233232,-1.55575,0.144918,0.407128,0.826326,
2,1,0,1,0,41171.3,0.842781,0.842547,29.2485,62,0.387896,10,0.0246432,-1.5339,0.160896,0.366696,0.829678,
2,1,0,1,0,41172.1,0.846776,0.846543,30.7021,62,0.411847,10,0.0259906,-1.51283,0.160543,0.367502,0.833034,
2,1,0,0,0,41172.8,0.849723,0.849479,31.6834,62,0.433774,10,0.0269144,-1.49917,0.0509597,1.15778,0.835538,
2,1,0,1,0,41173.6,0.845728,0.845427,29.5649,62,0.458165,10,0.024995,-1.52922,0.120049,0.491466,0.832419,
2,1,0,0,0,41174.4,0.841732,0.841467,27.8443,62,0.481076,10,0.02343,-1.55526,0.130049,0.453674,0.829215,
2,1,0,1,0,41175.2,0.837737,0.837486,26.2537,62,0.502688,10,0.0219871,-1.58081,0.129165,0.45678,0.825934,
2,1,0,1,0,41176,0.833742,0.833497,24.7013,62,0.523041,10,0.0205884,-1.60728,0.121683,0.484867,0.822628,
2,1,0,1,0,41176.8,0.829747,0.829497,23.2204,62,0.542173,10,0.0192612,-1.63413,0.124202,0.475031,0.81928,
2,1,0,1,0,41177.6,0.825752,0.825536,21.8216,62,0.560151,10,0.0180145,-1.66111,0.123856,0.47636,0.815935,
2,1,0,0,0,41178.4,0.821757,0.821486,20.4874,62,0.577037,10,0.0168301,-1.68851,0.126955,0.464733,0.812472,
2,1,0,1,0,41179.2,0.817761,0.817464,19.2148,62,0.59289,10,0.0157074,-1.71636,0.123425,0.478023,0.809009,
2,1,0,1,0,41180,0.813766,0.813496,17.999,62,0.607747,10,0.0146421,-1.74475,0.121571,0.485314,0.805576,
2,1,0,1,0,41180.8,0.809771,0.809504,16.8496,62,0.621657,10,0.0136399,-1.77341,0.119665,0.493044,0.80209,
2,1,0,1,0,41181.6,0.805776,0.805507,15.7583,62,0.63467,10,0.0126934,-1.80249,0.120469,0.489752,0.798573,
2,1,0,0,0,41182.4,0.801781,0.801476,14.7089,62,0.64683,10,0.0117888,-1.83242,0.116669,0.505702,0.795004,
2,1,0,1,0,41183.2,0.797786,0.797525,13.7247,62,0.658174,10,0.0109458,-1.8625,0.119312,0.4945,0.791486,
2,1,0,1,0,41184,0.79379,0.793483,12.7847,62,0.668755,10,0.0101445,-1.89331,0.113086,0.521729,0.787857,
2,1,0,1,0,41184.8,0.789795,0.789524,11.8839,62,0.678598,10,0.00938262,-1.92504,0.112456,0.524649,0.784295,
2,1,0,1,0,41185.6,0.7858,0.785509,11.0253,62,0.687738,10,0.00866048,-1.95761,0.111919,0.527168,0.780658,
2,1,0,0,0,41186.4,0.781805,0.781518,10.2318,62,0.696219,10,0.00799633,-1.99005,0.113426,0.520164,0.777016,
2,1,0,1,0,41187.2,0.77781,0.777551,9.48999,62,0.704088,10,0.00737895,-2.02273,0.110842,0.53229,0.773375,
2,1,0,0,0,41188,0.773814,0.77357,8.78744,62,0.711379,10,0.0067977,-2.05614,0.11183,0.527585,0.769703,
2,1,0,1,0,41188.8,0.769819,0.769539,8.14327,62,0.718135,10,0.00626657,-2.0892,0.108632,0.543119,0.765956,
2,1,0,1,0,41189.6,0.765824,0.765552,7.52433,62,0.724383,10,0.00576027,-2.12353,0.109191,0.540338,0.762242,
2,1,0,1,0,41190.4,0.761829,0.76156,6.90743,62,0.730151,10,0.00526042,-2.16068,0.097458,0.605389,0.758521,
2,1,0,1,0,41191.2,0.757834,0.757549,6.35686,62,0.735436,10,0.00481563,-2.19676,0.105762,0.557859,0.754752,
2,1,0,0,0,41192,0.753839,0.753578,5.84428,62,0.740302,10,0.00440412,-2.23327,0.103377,0.570724,0.751007,
2,1,0,1,0,41192.8,0.749844,0.749555,5.36795,62,0.744772,10,0.00402357,-2.27019,0.099193,0.5948,0.747193,
2,1,0,1,0,41193.6,0.745848,0.745569,4.9208,62,0.748873,10,0.00366879,-2.30796,0.10051,0.587009,0.743403,
2,1,0,1,0,41194.4,0.741853,0.741546,4.49898,62,0.752628,10,0.0033362,-2.34689,0.0961331,0.613733,0.739566,
2,1,0,1,0,41195.1,0.737858,0.737575,4.10514,62,0.756056,10,0.00302785,-2.38667,0.0953442,0.618811,0.735769,
2,1,0,0,0,41195.9,0.733863,0.733626,3.73605,62,0.75918,10,0.00274087,-2.42759,0.092415,0.638424,0.731983,
2,1,0,1,0,41196.7,0.729868,0.729647,3.38996,62,0.762017,10,0.00247348,-2.4698,0.0890901,0.662251,0.728155,
2,1,0,1,0,41197.5,0.725872,0.72558,3.06475,62,0.764588,10,0.00222372,-2.5136,0.0877408,0.672435,0.724231,
2,1,0,1,0,41198.3,0.721877,0.721652,2.76309,62,0.766908,10,0.00199399,-2.55861,0.0837859,0.704175,0.720437,
2,1,0,1,0,41199.1,0.717882,0.717623,2.48015,62,0.768994,10,0.00177981,-2.60552,0.0812548,0.726111,0.716532,
2,1,0,0,0,41199.9,0.713887,0.713616,2.21631,62,0.770863,10,0.0015816,-2.65437,0.0772744,0.763513,0.71264,
2,1,0,1,0,41200.7,0.709892,0.709635,1.9725,62,0.772528,10,0.00139975,-2.70498,0.0754561,0.781911,0.708767,
2,1,0,0,0,41201.5,0.705897,0.70567,1.74554,62,0.774005,10,0.00123177,-2.75807,0.072549,0.813244,0.704902,
2,1,0,1,0,41202.3,0.701901,0.701625,1.53814,62,0.775308,10,0.0010792,-2.813,0.0687852,0.857743,0.700949,
2,1,0,1,0,41203.1,0.697906,0.697649,1.34623,62,0.776452,10,0.000939197,-2.87088,0.0672948,0.87674,0.697057,
2,1,0,1,0,41203.9,0.693911,0.693652,1.1722,62,0.77745,10,0.000813098,-2.931,0.0625144,0.943783,0.693136,
2,1,0,1,0,41204.7,0.689916,0.689628,1.01281,62,0.778314,10,0.000698465,-2.99447,0.0611657,0.964593,0.689182,
2,1,0,0,0,41205.5,0.685921,0.685608,0.868579,62,0.779058,10,0.000595505,-3.06119,0.058223,1.01335,0.685226,
2,1,0,1,0,41206.3,0.681926,0.681654,0.739314,62,0.779693,10,0.000503956,-3.13117,0.0539593,1.09342,0.681329,
2,1,0,1,0,41207.1,0.67793,0.677637,0.623988,62,0.78023,10,0.000422837,-3.20482,0.0517701,1.13965,0.677362,
2,1,0,1,0,41207.9,0.673935,0.673611,0.522671,62,0.78068,10,0.000352077,-3.28177,0.049324,1.19617,0.673381,
2,1,0,1,0,41208.7,0.66994,0.669658,0.432615,62,0.781053,10,0.000289704,-3.3639,0.0470532,1.2539,0.669468,
2,1,0,0,0,41209.5,0.665945,0.665618,0.351251,62,0.781359,10,0.000233799,-3.45438,0.0440342,1.33987,0.665464,
2,1,0,1,0,41210.3,0.66195,0.661685,0.282811,62,0.781605,10,0.000187132,-3.5485,0.0393197,1.50052,0.661561,
2,1,0,0,0,41211.1,0.657955,0.657625,0.223291,62,0.7818,10,0.000146841,-3.65113,0.0371873,1.58656,0.657527,
2,1,0,1,0,41211.9,0.653959,0.653658,0.171057,62,0.78195,10,0.000111813,-3.76686,0.0324846,1.81625,0.653583,
2,1,0,1,0,41212.7,0.649964,0.649708,0.127453,62,0.782062,10,8.28075e-05,-3.89465,0.0279558,2.11048,0.649652,
2,1,0,1,0,41213.5,0.64597,0.645711,0.0899536,62,0.782141,10,5.8084e-05,-4.04598,0.0237482,2.48439,0.645671,
2,1,0,1,0,41214.3,0.641974,0.641704,0.0573436,62,0.782193,10,3.67977e-05,-4.24151,0.0180106,3.27584,0.641679,
2,1,0,0,0,41215.1,0.637979,0.637702,0.0312266,62,0.782221,10,1.99133e-05,-4.50548,0.0111585,5.28746,0.637688,
2,1,0,1,0,41215.9,0.633983,0.633696,0.00781071,62,0.782229,10,4.94961e-06,-5.10731,0.00326215,18.0863,0.633692,
2,0,0,1,0,41216.7,0.629988,0.629675,-0.0103134,62,0.782221,10,-6.49408e-06,-4.9866,-0.00324619,-18.1751,0.629679,
2,0,0,1,0,41217.5,0.625993,0.6257,-0.0260352,62,0.782199,10,-1.62902e-05,-4.58444,-0.0163414,-3.61046,0.625711,
2,0,0,1,0,41218.3,0.621998,0.621722,-0.0392434,62,0.782166,10,-2.43985e-05,-4.40623,-0.0327169,-1.80335,0.621739,
2,0,0,0,0,41219.1,0.618003,0.617729,-0.0506139,62,0.782123,10,-3.12657e-05,-4.29573,-0.03901,-1.51243,0.617752,
2,0,0,1,0,41219.9,0.614008,0.6137,-0.0604724,62,0.782071,10,-3.71119e-05,-4.21844,-0.0758571,-0.777778,0.613726,
2,0,0,1,0,41220.7,0.610012,0.609748,-0.0684703,62,0.782013,10,-4.17496e-05,-4.1645,-0.0874104,-0.674977,0.609778,
2,0,0,1,0,41221.5,0.606017,0.605756,-0.074134,62,0.781948,10,-4.49072e-05,-4.12998,-0.116954,-0.504473,0.605789,
2,0,0,1,0,41222.3,0.602022,0.601777,-0.0806852,62,0.781879,10,-4.85545e-05,-4.09321,-0.131509,-0.448639,0.601812,
2,0,0,0,0,41223.1,0.598027,0.597689,-0.0853174,62,0.781805,10,-5.09933e-05,-4.06896,-0.174479,-0.33815,0.597726,
2,0,0,1,0,41223.9,0.594032,0.593733,-0.0888274,62,0.781728,10,-5.27398e-05,-4.05145,-0.240622,-0.245198,0.593773,
2,0,0,0,0,41224.7,0.590037,0.589702,-0.093711,62,0.781648,10,-5.52615e-05,-4.02821,-0.184651,-0.319521,0.589743,
2,0,0,1,0,41225.5,0.586041,0.58574,-0.0968955,62,0.781565,10,-5.67555e-05,-4.0137,-0.464164,-0.12711,0.585783,
2,0,0,1,0,41226.3,0.582046,0.581736,-0.0988971,62,0.781479,10,-5.7532e-05,-4.00482,-0.374925,-0.157365,0.581779,
2,0,0,1,0,41227.1,0.578052,0.577794,-0.100726,62,0.781392,10,-5.81988e-05,-3.99686,-0.464826,-0.126929,0.577838,
2,0,0,1,0,41227.9,0.574056,0.5738,-0.102255,62,0.781303,10,-5.86737e-05,-3.99032,-0.425637,-0.138616,0.573845,
2,0,0,0,0,41228.7,0.570061,0.569787,-0.104666,62,0.781212,10,-5.96376e-05,-3.98019,-1.04388,-0.0565198,0.569833,
2,0,0,1,0,41229.5,0.566065,0.565733,-0.106705,62,0.78112,10,-6.03664e-05,-3.97182,-0.503284,-0.11723,0.56578,
2,0,0,1,0,41230.3,0.56207,0.56179,-0.108478,62,0.781027,10,-6.0942e-05,-3.96466,-1.10391,-0.0534466,0.561837,
2,0,0,1,0,41231.1,0.558075,0.557749,-0.109192,62,0.780933,10,-6.0902e-05,-3.96181,-0.521727,-0.113086,0.557797,
2,0,0,1,0,41231.9,0.55408,0.553811,-0.109765,62,0.780837,10,-6.0789e-05,-3.95954,-0.644849,-0.0914942,0.553859,
2,0,0,0,0,41232.7,0.550085,0.549741,-0.111061,62,0.780741,10,-6.10546e-05,-3.95444,-2.38229,-0.0247661,0.54979,
2,0,0,1,0,41233.5,0.54609,0.545798,-0.11296,62,0.780644,10,-6.16532e-05,-3.94708,-1.50091,-0.0393095,0.545847,
2,0,0,1,0,41234.3,0.542094,0.541806,-0.113514,62,0.780546,10,-6.15024e-05,-3.94495,-0.775054,-0.0761238,0.541856,
2,0,0,1,0,41235.1,0.538099,0.537796,-0.114925,62,0.780447,10,-6.18062e-05,-3.93959,-1.09619,-0.0538226,0.537846,
2,0,0,1,0,41235.9,0.534104,0.533802,-0.115675,62,0.780348,10,-6.17473e-05,-3.93676,-0.634086,-0.0930473,0.533852,
2,0,0,0,0,41236.7,0.530109,0.529809,-0.115632,62,0.780247,10,-6.12629e-05,-3.93692,-1.68258,-0.0350651,0.52986,
2,0,0,1,0,41237.5,0.526114,0.525837,-0.118005,62,0.780146,10,-6.20515e-05,-3.9281,-0.959813,-0.0614703,0.525889,
2,0,0,0,0,41238.3,0.522119,0.521825,-0.118612,62,0.780044,10,-6.18947e-05,-3.92587,-1.69819,-0.0347428,0.521877,
2,0,0,1,0,41239.1,0.518123,0.517771,-0.119485,62,0.77994,10,-6.18656e-05,-3.92269,-1.04719,-0.056341,0.517824,
2,0,0,1,0,41239.9,0.514128,0.513831,-0.120579,62,0.779836,10,-6.19573e-05,-3.91873,-0.734711,-0.0803037,0.513884,
2,0,0,1,0,41240.7,0.510133,0.509788,-0.120842,62,0.779732,10,-6.16037e-05,-3.91778,-1.01492,-0.0581325,0.509841,
2,0,0,1,0,41241.5,0.506138,0.505824,-0.122717,62,0.779626,10,-6.2073e-05,-3.9111,1.44107,0.0409418,0.505878,
2,0,0,0,0,41242.3,0.502143,0.501827,-0.124129,62,0.779519,10,-6.22911e-05,-3.90613,-0.451488,-0.130679,0.501882,
2,0,0,1,0,41243.1,0.498148,0.497839,-0.124508,62,0.779412,10,-6.19849e-05,-3.9048,-0.82443,-0.0715646,0.497894,
2,0,0,1,0,41243.9,0.494152,0.493809,-0.125799,62,0.779303,10,-6.21207e-05,-3.90032,-0.865977,-0.0681311,0.493864,
2,0,0,1,0,41244.7,0.490157,0.489817,-0.127317,62,0.779194,10,-6.2362e-05,-3.89511,-1.12801,-0.0523047,0.489873,
2,0,0,1,0,41245.5,0.486162,0.485843,-0.128027,62,0.779084,10,-6.2201e-05,-3.8927,-2.44377,-0.024143,0.485899,
2,0,0,0,0,41246.3,0.482167,0.481841,-0.129048,62,0.778973,10,-6.21805e-05,-3.88925,-0.931457,-0.0633416,0.481898,
2,0,0,1,0,41247.1,0.478172,0.477878,-0.129901,62,0.778862,10,-6.2077e-05,-3.88639,-0.654857,-0.090096,0.477935,
2,0,0,0,0,41247.9,0.474177,0.473884,-0.132146,62,0.778749,10,-6.2622e-05,-3.87894,-4.83213,-0.0122099,0.473942,
2,0,0,1,0,41248.7,0.470181,0.469869,-0.133413,62,0.778635,10,-6.26867e-05,-3.8748,-0.605036,-0.0975149,0.469928,
2,0,0,1,0,41249.5,0.466186,0.465862,-0.134481,62,0.77852,10,-6.26497e-05,-3.87134,-0.962491,-0.0612993,0.465922,
2,0,0,1,0,41250.3,0.462191,0.461847,-0.136021,62,0.778403,10,-6.28207e-05,-3.8664,-1.68189,-0.0350797,0.461907,
2,0,0,1,0,41251.1,0.458196,0.457875,-0.137376,62,0.778286,10,-6.29012e-05,-3.86209,-0.477523,-0.123554,0.457936,
2,0,0,0,0,41251.9,0.454201,0.453915,-0.138856,62,0.778167,10,-6.30288e-05,-3.85744,-2.48253,-0.023766,0.453976,
2,0,0,1,0,41252.7,0.450205,0.449909,-0.140484,62,0.778047,10,-6.32048e-05,-3.85237,-0.69874,-0.0844377,0.449971,
2,0,0,1,0,41253.5,0.44621,0.445893,-0.142202,62,0.777926,10,-6.3407e-05,-3.84709,-0.602481,-0.0979284,0.445955,
2,0,0,1,0,41254.3,0.442215,0.441911,-0.143561,62,0.777803,10,-6.3441e-05,-3.84296,-1.50117,-0.0393026,0.441974,
2,0,0,1,0,41255.1,0.43822,0.437929,-0.144881,62,0.77768,10,-6.34474e-05,-3.83899,-0.696481,-0.0847115,0.437993,
2,0,0,0,0,41255.9,0.434225,0.43396,-0.147375,62,0.777554,10,-6.39547e-05,-3.83158,-1.2222,-0.0482734,0.434025,
2,0,0,1,0,41256.7,0.43023,0.429936,-0.148555,62,0.777428,10,-6.38693e-05,-3.82811,-0.598776,-0.0985343,0.430001,
2,0,0,1,0,41257.5,0.426234,0.425912,-0.149959,62,0.7773,10,-6.38694e-05,-3.82403,-0.674889,-0.0874218,0.425978,
2,0,0,1,0,41258.3,0.422239,0.421903,-0.153267,62,0.77717,10,-6.46638e-05,-3.81455,-0.795434,-0.0741734,0.42197,
2,0,0,1,0,41259.1,0.418244,0.417921,-0.153813,62,0.777039,10,-6.42817e-05,-3.81301,-0.862512,-0.0684048,0.417988,
2,0,0,0,0,41259.9,0.414249,0.413937,-0.154465,62,0.776907,10,-6.39389e-05,-3.81117,-0.699878,-0.0843004,0.414005,
2,0,0,1,0,41260.7,0.410254,0.409955,-0.15775,62,0.776773,10,-6.46705e-05,-3.80203,-1.90204,-0.0310193,0.410025,
2,0,0,0,0,41261.5,0.406259,0.405931,-0.159661,62,0.776637,10,-6.48114e-05,-3.7968,-0.382306,-0.154327,0.406001,
2,0,0,1,0,41262.3,0.402263,0.401899,-0.161063,62,0.7765,10,-6.4731e-05,-3.79301,-1.77766,-0.0331897,0.40197,
2,0,0,1,0,41263.1,0.398268,0.398004,-0.164101,62,0.776361,10,-6.53129e-05,-3.78489,-0.544301,-0.108396,0.398076,
2,0,0,1,0,41263.9,0.394274,0.393935,-0.165362,62,0.776221,10,-6.51418e-05,-3.78157,-1.22405,-0.0482006,0.394008,
2,0,0,1,0,41264.7,0.390278,0.389941,-0.167351,62,0.776078,10,-6.5257e-05,-3.77637,-0.839455,-0.0702837,0.390015,
2,0,0,0,0,41265.5,0.386283,0.385949,-0.17005,62,0.775934,10,-6.56304e-05,-3.76942,-1.03737,-0.0568747,0.386024,
2,0,0,1,0,41266.3,0.382287,0.38196,-0.17179,62,0.775789,10,-6.5617e-05,-3.765,-0.801401,-0.0736211,0.382036,
2,0,0,1,0,41267.1,0.378292,0.377982,-0.17387,62,0.775641,10,-6.57198e-05,-3.75978,-0.644555,-0.091536,0.378059,
2,0,0,1,0,41267.9,0.374297,0.373974,-0.176707,62,0.775492,10,-6.60837e-05,-3.75275,-0.469705,-0.125611,0.374052,
2,0,0,1,0,41268.7,0.370303,0.370006,-0.178813,62,0.775341,10,-6.61619e-05,-3.7476,-1.27806,-0.0461639,0.370085,
2,0,0,0,0,41269.5,0.366307,0.365969,-0.180532,62,0.775189,10,-6.60692e-05,-3.74345,-0.767793,-0.0768436,0.366048,
2,0,0,1,0,41270.3,0.362312,0.361996,-0.183129,62,0.775034,10,-6.62922e-05,-3.73724,-0.570595,-0.103401,0.362077,
2,0,0,1,0,41271.1,0.358316,0.357967,-0.1843,62,0.774878,10,-6.59733e-05,-3.73447,-0.876248,-0.0673325,0.358048,
2,0,0,1,0,41271.9,0.354321,0.353997,-0.186997,62,0.774719,10,-6.61962e-05,-3.72817,-0.868067,-0.0679671,0.354079,
2,0,0,1,0,41272.7,0.350327,0.350013,-0.189517,62,0.774559,10,-6.63334e-05,-3.72235,-0.634385,-0.0930035,0.350097,
2,0,0,0,0,41273.5,0.346331,0.346034,-0.190746,62,0.774397,10,-6.60045e-05,-3.71955,-6.81259,-0.00866043,0.346118,
2,0,0,1,0,41274.3,0.342336,0.342016,-0.194472,62,0.774233,10,-6.65126e-05,-3.71114,-0.386941,-0.152478,0.342102,
2,0,0,0,0,41275.1,0.338341,0.338056,-0.196297,62,0.774067,10,-6.63593e-05,-3.70709,-0.746366,-0.0790497,0.338142,
2,0,0,1,0,41275.9,0.334345,0.334008,-0.199109,62,0.773899,10,-6.65041e-05,-3.70091,-0.752646,-0.0783901,0.334095,
2,0,0,1,0,41276.7,0.33035,0.329994,-0.200248,62,0.77373,10,-6.60808e-05,-3.69843,-0.923035,-0.0639196,0.330083,
2,0,0,1,0,41277.5,0.326355,0.326045,-0.203363,62,0.773558,10,-6.63054e-05,-3.69173,-0.991768,-0.0594897,0.326134,
2,0,0,1,0,41278.2,0.32236,0.322022,-0.205145,62,0.773385,10,-6.60612e-05,-3.68794,-0.610421,-0.0966545,0.322113,
2,0,0,0,0,41279,0.318365,0.318022,-0.207425,62,0.773209,10,-6.59659e-05,-3.68314,-1.06443,-0.0554288,0.318114,
2,0,0,1,0,41279.8,0.31437,0.314062,-0.210729,62,0.773032,10,-6.6182e-05,-3.67628,-1.21112,-0.0487151,0.314155,
2,0,0,1,0,41280.6,0.310374,0.309997,-0.21326,62,0.772852,10,-6.61099e-05,-3.67109,-0.491746,-0.119981,0.310091,
2,0,0,1,0,41281.4,0.306379,0.306059,-0.21522,62,0.772671,10,-6.58701e-05,-3.66712,-1.49089,-0.0395736,0.306154,
2,0,0,1,0,41282.2,0.302385,0.302069,-0.217638,62,0.772487,10,-6.57416e-05,-3.66227,-0.718438,-0.0821226,0.302165,
2,0,0,0,0,41283,0.298389,0.298095,-0.220644,62,0.772302,10,-6.57728e-05,-3.65631,-0.550283,-0.107218,0.298192,
2,0,0,1,0,41283.8,0.294394,0.294051,-0.22254,62,0.772115,10,-6.5438e-05,-3.65259,-1.66194,-0.0355008,0.294149,
2,0,0,1,0,41284.6,0.290398,0.290085,-0.225054,62,0.771925,10,-6.52848e-05,-3.64771,-1.17362,-0.0502718,0.290184,
2,0,0,1,0,41285.4,0.286403,0.286067,-0.226862,62,0.771734,10,-6.48977e-05,-3.64424,-0.568299,-0.103819,0.286167,
2,0,0,1,0,41286.2,0.282408,0.28207,-0.231253,62,0.77154,10,-6.52296e-05,-3.63591,-1.57757,-0.0373993,0.282172,
2,0,0,1,0,41287,0.278414,0.278077,-0.233119,62,0.771344,10,-6.48251e-05,-3.63242,-0.443769,-0.132952,0.27818,
2,0,0,1,0,41287.8,0.274418,0.274093,-0.236141,62,0.771145,10,-6.47246e-05,-3.62683,-1.00257,-0.0588485,0.274197,
2,0,0,0,0,41288.6,0.270423,0.270124,-0.238541,62,0.770945,10,-6.44356e-05,-3.62244,-0.933316,-0.0632155,0.270229,
2,0,0,1,0,41289.4,0.266427,0.266117,-0.242477,62,0.770743,10,-6.45274e-05,-3.61533,-0.817171,-0.0722003,0.266224,
2,0,0,1,0,41290.2,0.262432,0.262106,-0.243623,62,0.770538,10,-6.38552e-05,-3.61328,-0.746144,-0.0790732,0.262213,
2,0,0,1,0,41291,0.258437,0.258093,-0.245783,62,0.770331,10,-6.34347e-05,-3.60945,-0.856671,-0.0688712,0.258201,
2,0,0,1,0,41291.8,0.254442,0.254121,-0.247813,62,0.770123,10,-6.29746e-05,-3.60588,-1.12118,-0.0526231,0.25423,
2,0,0,0,0,41292.6,0.250447,0.250141,-0.251357,62,0.769913,10,-6.28746e-05,-3.59971,-2.24011,-0.026338,0.250251,
2,0,0,1,0,41293.4,0.246452,0.246132,-0.253308,62,0.7697,10,-6.23473e-05,-3.59635,-0.67457,-0.0874632,0.246244,
2,0,0,1,0,41294.2,0.242456,0.242118,-0.255861,62,0.769486,10,-6.19485e-05,-3.592,-1.02879,-0.0573488,0.242231,
2,0,0,1,0,41295,0.238461,0.238152,-0.258627,62,0.76927,10,-6.15923e-05,-3.58733,-0.877857,-0.0672091,0.238265,
2,0,0,1,0,41295.8,0.234467,0.234121,-0.260278,62,0.769052,10,-6.09366e-05,-3.58456,-0.982721,-0.0600374,0.234236,
2,0,0,0,0,41296.6,0.230471,0.230169,-0.262916,62,0.768832,10,-6.05151e-05,-3.58018,-1.07145,-0.0550658,0.230285,
2,0,0,1,0,41297.4,0.226476,0.226163,-0.266145,62,0.76861,10,-6.0192e-05,-3.57488,-0.724491,-0.0814365,0.22628,
2,0,0,0,0,41298.2,0.222481,0.222145,-0.267149,62,0.768385,10,-5.93459e-05,-3.57325,-1.32617,-0.0444891,0.222262,
2,0,0,1,0,41299,0.218485,0.218175,-0.271293,62,0.768159,10,-5.91895e-05,-3.56656,-2.43954,-0.0241849,0.218295,
2,0,0,1,0,41299.8,0.21449,0.214206,-0.273011,62,0.767931,10,-5.84806e-05,-3.56382,-0.558124,-0.105711,0.214326,
2,0,0,1,0,41300.6,0.210496,0.210144,-0.275781,62,0.7677,10,-5.79538e-05,-3.55944,-1.04894,-0.0562474,0.210266,
2,0,0,1,0,41301.4,0.2065,0.206189,-0.281003,62,0.767467,10,-5.79397e-05,-3.55129,-0.741241,-0.0795963,0.206312,
2,0,0,0,0,41302.2,0.202505,0.202175,-0.282414,62,0.767231,10,-5.7097e-05,-3.54911,-1.09644,-0.0538107,0.202299,
2,0,0,1,0,41303,0.198509,0.198154,-0.28522,62,0.766994,10,-5.65174e-05,-3.54482,-0.78249,-0.0754003,0.198279,
2,0,0,1,0,41303.8,0.194514,0.194205,-0.288241,62,0.766753,10,-5.59779e-05,-3.54024,-0.580797,-0.101584,0.194332,
2,0,0,1,0,41304.6,0.190519,0.190196,-0.293001,62,0.766509,10,-5.57276e-05,-3.53313,-0.976444,-0.0604234,0.190325,
2,0,0,1,0,41305.4,0.186524,0.186191,-0.297723,62,0.766263,10,-5.54332e-05,-3.52619,-0.793162,-0.0743858,0.186322,
2,0,0,0,0,41306.2,0.182529,0.182205,-0.300286,62,0.766012,10,-5.47135e-05,-3.52247,-0.426439,-0.138355,0.182337,
2,0,0,1,0,41307,0.178534,0.178182,-0.305567,62,0.765758,10,-5.44467e-05,-3.51489,-0.576617,-0.102321,0.178317,
2,0,0,1,0,41307.8,0.174538,0.174217,-0.312931,62,0.765499,10,-5.4518e-05,-3.50455,-0.424653,-0.138937,0.174355,
2,0,0,1,0,41308.6,0.170543,0.170193,-0.319639,62,0.765235,10,-5.44004e-05,-3.49534,-0.335883,-0.175656,0.170334,
2,0,0,1,0,41309.4,0.166549,0.166213,-0.327948,62,0.764965,10,-5.45092e-05,-3.48419,-0.375336,-0.157192,0.166357,
2,0,0,0,0,41310.2,0.162553,0.162269,-0.337885,62,0.764688,10,-5.48283e-05,-3.47123,-0.301457,-0.195716,0.162418,
2,0,0,1,0,41311,0.158558,0.158232,-0.349081,62,0.764401,10,-5.52357e-05,-3.45707,-0.215772,-0.273437,0.158386,
2,0,0,0,0,41311.8,0.154563,0.154203,-0.365475,62,0.764104,10,-5.63576e-05,-3.43714,-0.202498,-0.291361,0.154364,
2,0,0,1,0,41312.6,0.150567,0.150294,-0.386398,62,0.763792,10,-5.80732e-05,-3.41296,-0.135141,-0.43658,0.150464,
2,0,0,1,0,41313.4,0.146572,0.146247,-0.414961,62,0.763461,10,-6.06869e-05,-3.38199,-0.124794,-0.472778,0.14643,
2,0,0,1,0,41314.2,0.142578,0.142225,-0.452086,62,0.763104,10,-6.42977e-05,-3.34478,-0.0974726,-0.605298,0.142423,
2,0,0,1,0,41315,0.138582,0.13825,-0.496263,62,0.762714,10,-6.86082e-05,-3.30429,-0.0946918,-0.623074,0.138468,
2,0,0,0,0,41315.8,0.134587,0.134224,-0.546533,62,0.762286,10,-7.33581e-05,-3.26238,-0.103297,-0.57117,0.134465,
2,0,0,1,0,41316.6,0.130591,0.13027,-0.595548,62,0.761818,10,-7.75818e-05,-3.22508,-0.113369,-0.520424,0.130532,
2,0,0,1,0,41317.4,0.126596,0.12623,-0.637051,62,0.761311,10,-8.04148e-05,-3.19583,-0.154662,-0.381477,0.12651,
2,0,0,1,0,41318.2,0.122602,0.122296,-0.669362,62,0.760776,10,-8.18604e-05,-3.17434,-0.249739,-0.236246,0.122591,
2,0,0,1,0,41319,0.118607,0.118297,-0.688365,62,0.76022,10,-8.14318e-05,-3.16218,-0.421951,-0.139827,0.1186,
2,0,0,0,0,41319.8,0.114611,0.114238,-0.697762,62,0.759653,10,-7.97108e-05,-3.15629,-1.51666,-0.0389012,0.114545,
2,0,0,1,0,41320.6,0.110616,0.110285,-0.700496,62,0.759082,10,-7.72539e-05,-3.15459,-17.637,-0.00334523,0.110593,
2,0,0,1,0,41321.4,0.10662,0.106264,-0.698859,62,0.758511,10,-7.42637e-05,-3.15561,2.41697,0.0244107,0.106572,
2,0,0,1,0,41322.2,0.102625,0.102289,-0.694787,62,0.757941,10,-7.10692e-05,-3.15815,0.888342,0.0664158,0.102595,
2,0,0,1,0,41323,0.0986305,0.0983012,-0.686541,62,0.757377,10,-6.74878e-05,-3.16333,0.91582,0.0644231,0.0986033,
2,0,0,0,0,41323.8,0.0946351,0.0942926,-0.677116,62,0.756819,10,-6.3847e-05,-3.16934,0.767364,0.0768866,0.0945905,
2,0,0,1,0,41324.6,0.0906399,0.0902694,-0.672703,62,0.756266,10,-6.07245e-05,-3.17218,0.63879,0.0923622,0.0905654,
2,0,0,0,0,41325.4,0.0866448,0.0863025,-0.66206,62,0.755722,10,-5.71374e-05,-3.1791,0.803251,0.0734515,0.0865938,
2,0,0,1,0,41326.2,0.0826492,0.0823586,-0.653802,62,0.755184,10,-5.38462e-05,-3.18455,0.613172,0.096221,0.0826463,
2,0,0,1,0,41327,0.0786544,0.0783112,-0.645149,62,0.754654,10,-5.05225e-05,-3.19034,0.767129,0.0769101,0.0785951,
2,0,0,1,0,41327.8,0.0746596,0.0743233,-0.635764,62,0.75413,10,-4.72521e-05,-3.1967,0.72101,0.0818297,0.074603,
2,0,0,1,0,41328.6,0.0706641,0.07032,-0.627567,62,0.753614,10,-4.41305e-05,-3.20234,0.620372,0.0951042,0.0705961,
2,0,0,0,0,41329.4,0.0666689,0.0663403,-0.619284,62,0.753104,10,-4.10835e-05,-3.20811,0.444567,0.132713,0.0666128,
2,0,0,1,0,41330.2,0.0626737,0.0623468,-0.608406,62,0.752603,10,-3.79322e-05,-3.21581,1.41421,0.0417194,0.0626145,
2,0,0,1,0,41331,0.0586783,0.0583287,-0.602515,62,0.752107,10,-3.51439e-05,-3.22003,0.605752,0.0973996,0.0585938,
2,0,0,1,0,41331.8,0.0546835,0.0543378,-0.593089,62,0.751618,10,-3.22272e-05,-3.22688,0.74005,0.0797244,0.0545988,
2,0,0,1,0,41332.6,0.0506886,0.0503741,-0.584307,62,0.751136,10,-2.94339e-05,-3.23336,0.499584,0.118098,0.0506312,
2,0,0,0,0,41333.4,0.046693,0.0464025,-0.573453,62,0.750662,10,-2.66097e-05,-3.2415,0.511238,0.115406,0.0466549,
2,0,0,1,0,41334.2,0.0426979,0.0423825,-0.563721,62,0.750196,10,-2.38919e-05,-3.24894,0.569433,0.103612,0.0426306,
2,0,0,1,0,41335,0.0387022,0.0383664,-0.553312,62,0.749738,10,-2.12286e-05,-3.25703,0.438892,0.134429,0.0386098,
2,0,0,1,0,41335.8,0.0347074,0.0343817,-0.544375,62,0.749289,10,-1.87165e-05,-3.2641,0.561875,0.105006,0.0346212,
2,0,0,1,0,41336.6,0.0307126,0.0303664,-0.532045,62,0.748847,10,-1.61563e-05,-3.27405,0.49146,0.120051,0.0306005,
2,0,0,0,0,41337.4,0.0267172,0.0264001,-0.524627,62,0.748414,10,-1.38502e-05,-3.28015,0.505503,0.116715,0.0266309,
2,0,0,1,0,41338.2,0.022722,0.0223631,-0.516793,62,0.747987,10,-1.15571e-05,-3.28668,0.909718,0.0648553,0.0225905,
2,0,0,0,0,41339,0.0187268,0.0183675,-0.509583,62,0.747566,10,-9.35978e-06,-3.29278,0.665692,0.0886296,0.0185917,
2,0,0,1,0,41339.8,0.0147313,0.014381,-0.504838,62,0.747149,10,-7.26007e-06,-3.29685,1.12489,0.0524495,0.0146031,
2,0,0,1,0,41340.6,0.0107365,0.0104217,-0.500915,62,0.746736,10,-5.22038e-06,-3.30024,2.02186,0.029181,0.0106421,
2,0,0,1,0,41341.4,0.00674163,0.00641809,-0.499908,62,0.746325,10,-3.20845e-06,-3.30111,2.8724,0.0205403,0.00663805,
2,0,0,1,0,41342.2,0.00274612,0.0024031,-0.499404,62,0.745915,10,-1.20012e-06,-3.30155,-1.17108,-0.0503806,0.00262284,
2,0,0,0,0,41342.7,0.000274105,-0.000140415,-0.502242,62,0.745658,10,7.05224e-08,-3.29909, , ,8.05715e-05,