File: Figure_codes/Fig_3-5/workspace_calculate_alpha_eff/20221101_1-115_003_TrumpetPlot_ParaChange_from10_every3_16_CV_C01_45.csv
mode,ox/red,error,control changes,counter inc.,time/s,control/V,Ewe/V,<I>/mA,cycle number,(Q-Qo)/C,I Range,P/W,log(|I|),Tafel slope mV/dec,alpha_eff,E-IR/V,
2,0,0,1,0,30782.1,2.44065e-05,-0.0002108,-0.0440593,46,0.0000000E+000,10,9.28767e-09,-4.35596, , ,-0.000191414,
2,1,0,1,0,30782.8,0.00379485,0.00343806,0.2051,46,0.00013542,10,7.05147e-07,-3.68803,0.0457463,1.28972,0.00334782,
2,1,0,0,0,30783.6,0.00779002,0.0074623,0.229166,46,0.000320758,10,1.71011e-06,-3.63985,0.101566,0.580905,0.00736147,
2,1,0,1,0,30784.4,0.0117852,0.0114579,0.24432,46,0.000522056,10,2.7994e-06,-3.61204,0.157762,0.373982,0.0113504,
2,1,0,1,0,30785.2,0.0157806,0.0154644,0.261492,46,0.000735828,10,4.04382e-06,-3.58254,0.168162,0.350853,0.0153493,
2,1,0,1,0,30786,0.0197754,0.0194088,0.274181,46,0.000960583,10,5.32153e-06,-3.56196,0.17519,0.336778,0.0192882,
2,1,0,1,0,30786.8,0.0237704,0.0234678,0.288255,46,0.00119682,10,6.76472e-06,-3.54022,0.194105,0.303959,0.023341,
2,1,0,0,0,30787.6,0.0277659,0.0274266,0.30282,46,0.00144383,10,8.3053e-06,-3.51882,0.187529,0.314618,0.0272933,
2,1,0,1,0,30788.4,0.0317611,0.0314169,0.315898,46,0.00170242,10,9.92453e-06,-3.50045,0.205789,0.286701,0.0312779,
2,1,0,1,0,30789.2,0.0357567,0.0353769,0.330408,46,0.00197219,10,1.16888e-05,-3.48095,0.268527,0.219717,0.0352315,
2,1,0,1,0,30790,0.0397516,0.039419,0.343144,46,0.00225273,10,1.35264e-05,-3.46452,0.191386,0.308277,0.039268,
2,1,0,1,0,30790.8,0.0437465,0.0434343,0.355772,46,0.00254445,10,1.54527e-05,-3.44883,0.253954,0.232326,0.0432777,
2,1,0,1,0,30791.6,0.0477413,0.0474444,0.371218,46,0.00284651,10,1.76122e-05,-3.43037,0.252778,0.233406,0.047281,
2,1,0,1,0,30792.4,0.0517369,0.0513748,0.381548,46,0.00315925,10,1.96019e-05,-3.41845,0.280847,0.210079,0.0512069,
2,1,0,0,0,30793.2,0.0557321,0.0554139,0.394586,46,0.00348206,10,2.18656e-05,-3.40386,0.437907,0.134732,0.0552403,
2,1,0,1,0,30794,0.0597277,0.0593781,0.405701,46,0.0038133,10,2.40898e-05,-3.39179,0.296213,0.199181,0.0591996,
2,1,0,1,0,30794.8,0.0637226,0.0633829,0.414883,46,0.00415339,10,2.62965e-05,-3.38207,0.412563,0.143008,0.0632004,
2,1,0,1,0,30795.6,0.0677174,0.0674006,0.425623,46,0.00450175,10,2.86873e-05,-3.37097,0.616835,0.0956495,0.0672133,
2,1,0,1,0,30796.4,0.0717128,0.0713804,0.433764,46,0.00485666,10,3.09623e-05,-3.36275,0.322642,0.182865,0.0711896,
2,1,0,0,0,30797.2,0.075708,0.0753591,0.439444,46,0.0052182,10,3.31161e-05,-3.3571,0.703421,0.0838758,0.0751657,
2,1,0,1,0,30798,0.0797031,0.0793717,0.449301,46,0.00558539,10,3.56618e-05,-3.34746,0.634685,0.0929595,0.079174,
2,1,0,1,0,30798.8,0.0836986,0.0833814,0.455531,46,0.00595871,10,3.79828e-05,-3.34148,0.405936,0.145343,0.083181,
2,1,0,1,0,30799.6,0.0876935,0.0873502,0.466858,46,0.00633983,10,4.07801e-05,-3.33082,0.394042,0.14973,0.0871448,
2,1,0,1,0,30800.4,0.0916883,0.0913241,0.479631,46,0.00673011,10,4.38019e-05,-3.31909,0.25869,0.228072,0.0911131,
2,1,0,0,0,30801.2,0.0956838,0.0953424,0.496266,46,0.00713318,10,4.73152e-05,-3.30429,0.26496,0.222676,0.0951241,
2,1,0,1,0,30802,0.099679,0.0993476,0.519349,46,0.00755115,10,5.1596e-05,-3.28454,0.239402,0.246448,0.0991191,
2,1,0,0,0,30802.8,0.103674,0.103377,0.541279,46,0.00798619,10,5.59559e-05,-3.26658,0.189073,0.312049,0.103139,
2,1,0,1,0,30803.6,0.10767,0.107339,0.561962,46,0.00843982,10,6.03204e-05,-3.25029,0.279526,0.211072,0.107092,
2,1,0,1,0,30804.4,0.111664,0.111366,0.58146,46,0.00890889,10,6.4755e-05,-3.23548,0.280354,0.210448,0.11111,
2,1,0,1,0,30805.2,0.115659,0.115335,0.595879,46,0.00939141,10,6.87256e-05,-3.22484,0.367524,0.160534,0.115073,
2,1,0,1,0,30806,0.119655,0.119279,0.610487,46,0.00988585,10,7.28182e-05,-3.21432,0.585914,0.100697,0.11901,
2,1,0,0,0,30806.8,0.12365,0.123329,0.621903,46,0.0103897,10,7.66985e-05,-3.20628,0.434212,0.135878,0.123055,
2,1,0,1,0,30807.6,0.127646,0.127304,0.631335,46,0.0109033,10,8.03712e-05,-3.19974,0.773673,0.0762597,0.127026,
2,1,0,1,0,30808.4,0.131641,0.131309,0.638239,46,0.0114241,10,8.38067e-05,-3.19502,-1.62945,-0.0362086,0.131029,
2,1,0,1,0,30809.2,0.135635,0.135357,0.628021,46,0.0119431,10,8.50068e-05,-3.20203,-0.360357,-0.163727,0.13508,
2,1,0,1,0,30810,0.139631,0.139302,0.596491,46,0.0124466,10,8.30922e-05,-3.2244,-0.131971,-0.447068,0.139039,
2,1,0,0,0,30810.8,0.143626,0.143304,0.547708,46,0.0129164,10,7.84885e-05,-3.26145,-0.0896528,-0.658094,0.143063,
2,1,0,1,0,30811.6,0.147621,0.147303,0.486452,46,0.013341,10,7.1656e-05,-3.31296,-0.0734395,-0.803382,0.147089,
2,1,0,1,0,30812.4,0.151617,0.151328,0.430793,46,0.0137182,10,6.51911e-05,-3.36573,-0.081815,-0.721139,0.151138,
2,1,0,1,0,30813.2,0.155612,0.155293,0.390914,46,0.0140568,10,6.07061e-05,-3.40792,-0.109537,-0.538629,0.155121,
2,1,0,1,0,30814,0.159606,0.159302,0.363021,46,0.0143691,10,5.78299e-05,-3.44007,-0.161118,-0.366191,0.159142,
2,1,0,0,0,30814.8,0.163602,0.163288,0.346809,46,0.0146641,10,5.66297e-05,-3.45991,-0.200482,-0.294291,0.163135,
2,1,0,1,0,30815.6,0.167597,0.167298,0.334414,46,0.0149467,10,5.59469e-05,-3.47572,-0.34555,-0.170742,0.167151,
2,1,0,0,0,30816.4,0.171592,0.171291,0.323833,46,0.0152213,10,5.54697e-05,-3.48968,-0.379482,-0.155475,0.171148,
2,1,0,1,0,30817.2,0.175588,0.175247,0.318986,46,0.0154895,10,5.59014e-05,-3.49623,-0.509956,-0.115696,0.175107,
2,1,0,1,0,30818,0.179582,0.179308,0.314053,46,0.015753,10,5.63121e-05,-3.503,-0.719977,-0.0819471,0.179169,
2,1,0,1,0,30818.8,0.183577,0.183244,0.309971,46,0.0160132,10,5.68001e-05,-3.50868,-0.670037,-0.0880548,0.183107,
2,1,0,1,0,30819.6,0.187573,0.187244,0.306542,46,0.0162699,10,5.73979e-05,-3.51351,-1.17667,-0.0501414,0.187109,
2,1,0,0,0,30820.4,0.191568,0.191273,0.302397,46,0.0165244,10,5.78404e-05,-3.51942,-1.17991,-0.0500036,0.19114,
2,1,0,1,0,30821.2,0.195563,0.195233,0.300478,46,0.0167769,10,5.86632e-05,-3.52219,-0.564639,-0.104492,0.195101,
2,1,0,1,0,30822,0.199559,0.199246,0.29827,46,0.0170271,10,5.9429e-05,-3.52539,-9.87454,-0.00597496,0.199114,
2,1,0,1,0,30822.8,0.203553,0.203221,0.295771,46,0.017276,10,6.01068e-05,-3.52904,-1.32304,-0.0445943,0.203091,
2,1,0,1,0,30823.6,0.207548,0.207245,0.295515,46,0.0175235,10,6.1244e-05,-3.52942,-1.58561,-0.0372096,0.207115,
2,1,0,0,0,30824.4,0.211544,0.211191,0.293998,46,0.0177694,10,6.20896e-05,-3.53166,-2.35759,-0.0250255,0.211061,
2,1,0,1,0,30825.2,0.215539,0.21528,0.291492,46,0.0180141,10,6.27522e-05,-3.53537,-2.58062,-0.0228628,0.215151,
2,1,0,1,0,30826,0.219535,0.219246,0.291467,46,0.0182576,10,6.39031e-05,-3.53541,-0.974471,-0.0605457,0.219118,
2,1,0,1,0,30826.8,0.223529,0.223182,0.288271,46,0.0184999,10,6.43369e-05,-3.5402,7.15226,0.00824914,0.223055,
2,1,0,1,0,30827.6,0.227524,0.227204,0.28747,46,0.0187414,10,6.53143e-05,-3.54141,-0.689968,-0.0855112,0.227077,
2,1,0,0,0,30828.4,0.23152,0.231206,0.286431,46,0.0189816,10,6.62246e-05,-3.54298,5.11785,0.0115283,0.23108,
2,1,0,1,0,30829.2,0.235515,0.235225,0.285183,46,0.0192214,10,6.70821e-05,-3.54488,-2.82029,-0.0209198,0.235099,
2,1,0,0,0,30830,0.23951,0.239176,0.284977,46,0.0194601,10,6.81596e-05,-3.54519,-3.10041,-0.0190297,0.239051,
2,1,0,1,0,30830.8,0.243506,0.243201,0.283319,46,0.0196981,10,6.89033e-05,-3.54772,-4.4733,-0.0131894,0.243076,
2,1,0,1,0,30831.6,0.2475,0.247211,0.283317,46,0.0199357,10,7.0039e-05,-3.54773,-2.2103,-0.0266932,0.247086,
2,1,0,1,0,30832.4,0.251495,0.251197,0.281741,46,0.0201724,10,7.07726e-05,-3.55015,11.9568,0.00493442,0.251074,
2,1,0,1,0,30833.2,0.255491,0.255168,0.280704,46,0.0204082,10,7.16267e-05,-3.55175,-1.92344,-0.0306742,0.255044,
2,1,0,0,0,30834,0.259486,0.259195,0.281068,46,0.0206436,10,7.28515e-05,-3.55119,-1.33005,-0.0443592,0.259072,
2,1,0,1,0,30834.8,0.263481,0.263158,0.279327,46,0.0208782,10,7.35072e-05,-3.55389,-3.41094,-0.0172973,0.263035,
2,1,0,1,0,30835.6,0.267477,0.267152,0.278031,46,0.021112,10,7.42764e-05,-3.55591,-18.2716,-0.00322905,0.267029,
2,1,0,1,0,30836.4,0.271471,0.271174,0.278008,46,0.0213451,10,7.53885e-05,-3.55594,-3.52592,-0.0167332,0.271051,
2,1,0,1,0,30837.2,0.275466,0.275148,0.27686,46,0.0215774,10,7.61773e-05,-3.55774,-2.38024,-0.0247875,0.275026,
2,1,0,0,0,30838,0.279462,0.279156,0.275922,46,0.0218092,10,7.70255e-05,-3.55921,-1.51166,-0.0390299,0.279035,
2,1,0,1,0,30838.8,0.283457,0.283172,0.276401,46,0.0220399,10,7.8269e-05,-3.55846,-5.99356,-0.00984391,0.283051,
2,1,0,0,0,30839.6,0.287452,0.287184,0.274682,46,0.02227,10,7.88843e-05,-3.56117,-5.6743,-0.0103978,0.287063,
2,1,0,1,0,30840.4,0.291448,0.291136,0.273902,46,0.0224994,10,7.97428e-05,-3.5624,-0.78293,-0.0753579,0.291016,
2,1,0,1,0,30841.2,0.295442,0.295135,0.272243,46,0.0227278,10,8.03482e-05,-3.56504,1.47354,0.0400395,0.295015,
2,1,0,1,0,30842,0.299437,0.299142,0.27178,46,0.0229557,10,8.13006e-05,-3.56578,-1.4478,-0.0407515,0.299022,
2,1,0,1,0,30842.8,0.303433,0.303114,0.269865,46,0.0231827,10,8.18e-05,-3.56885,-5.69111,-0.010367,0.302996,
2,1,0,0,0,30843.6,0.307428,0.307152,0.269702,46,0.0234088,10,8.28395e-05,-3.56912,-13.5612,-0.00435065,0.307034,
2,1,0,1,0,30844.4,0.311424,0.311121,0.26904,46,0.0236347,10,8.37039e-05,-3.57018,-1.51301,-0.0389952,0.311003,
2,1,0,1,0,30845.2,0.315418,0.315113,0.268558,46,0.0238597,10,8.46262e-05,-3.57096,-3.20485,-0.0184096,0.314995,
2,1,0,1,0,30846,0.319413,0.319098,0.267534,46,0.0240839,10,8.53696e-05,-3.57262,-17.0099,-0.00346857,0.31898,
2,1,0,1,0,30846.8,0.323409,0.323134,0.266879,46,0.0243078,10,8.62377e-05,-3.57369,-1.20394,-0.0490057,0.323016,
2,1,0,0,0,30847.5,0.327404,0.327097,0.265428,46,0.024531,10,8.68207e-05,-3.57605,18.025,0.00327322,0.326981,
2,1,0,1,0,30848.3,0.331399,0.331109,0.26455,46,0.0247537,10,8.7595e-05,-3.57749,-5.01717,-0.0117596,0.330993,
2,1,0,1,0,30849.1,0.335395,0.335106,0.263782,46,0.0249758,10,8.8395e-05,-3.57875,-3.31776,-0.0177831,0.33499,
2,1,0,1,0,30849.9,0.339389,0.339081,0.264167,46,0.0251971,10,8.9574e-05,-3.57812,-2.43913,-0.024189,0.338965,
2,1,0,1,0,30850.7,0.343384,0.343117,0.263299,46,0.025418,10,9.03423e-05,-3.57955,-3.17932,-0.0185574,0.343001,
2,1,0,0,0,30851.5,0.34738,0.347044,0.263283,46,0.0256383,10,9.13705e-05,-3.57958,-7.5588,-0.00780547,0.346928,
2,1,0,1,0,30852.3,0.351375,0.351022,0.262203,46,0.0258582,10,9.20392e-05,-3.58136,-3.01597,-0.0195625,0.350907,
2,1,0,0,0,30853.1,0.35537,0.355064,0.262676,46,0.0260778,10,9.32667e-05,-3.58058,-2.37251,-0.0248682,0.354948,
2,1,0,1,0,30853.9,0.359366,0.359046,0.261247,46,0.0262967,10,9.37998e-05,-3.58295,3.66882,0.0160814,0.358931,
2,1,0,1,0,30854.7,0.36336,0.363024,0.260539,46,0.0265155,10,9.45818e-05,-3.58413,-2.59612,-0.0227262,0.362909,
2,1,0,1,0,30855.5,0.367355,0.367035,0.260253,46,0.0267336,10,9.55222e-05,-3.5846,-3.17316,-0.0185935,0.366921,
2,1,0,1,0,30856.3,0.371351,0.371032,0.259512,46,0.0269512,10,9.62873e-05,-3.58584,8.9433,0.00659712,0.370918,
2,1,0,0,0,30857.1,0.375346,0.375024,0.259362,46,0.0271685,10,9.72668e-05,-3.58609,-5.71737,-0.0103194,0.374909,
2,1,0,1,0,30857.9,0.379342,0.379029,0.26009,46,0.0273852,10,9.85816e-05,-3.58488,-2.64437,-0.0223115,0.378915,
2,1,0,1,0,30858.7,0.383336,0.383031,0.258187,46,0.0276016,10,9.88935e-05,-3.58807,-22.2682,-0.00264951,0.382917,
2,1,0,1,0,30859.5,0.387331,0.387012,0.258069,46,0.0278178,10,9.9876e-05,-3.58826,-1.7318,-0.0340685,0.386899,
2,1,0,1,0,30860.3,0.391327,0.391042,0.258125,46,0.0280336,10,0.000100938,-3.58817,21.9868,0.00268343,0.390929,
2,1,0,0,0,30861.1,0.395322,0.395026,0.256516,46,0.0282489,10,0.00010133,-3.59089,-4.03618,-0.0146178,0.394913,
2,1,0,1,0,30861.9,0.399317,0.398992,0.257298,46,0.0284636,10,0.00010266,-3.58956,9.23516,0.00638863,0.398879,
2,1,0,1,0,30862.7,0.403313,0.402996,0.256619,46,0.028678,10,0.000103417,-3.59071,-3.0452,-0.0193748,0.402884,
2,1,0,1,0,30863.5,0.407307,0.407036,0.256006,46,0.0288921,10,0.000104204,-3.59175,-9.60613,-0.00614191,0.406924,
2,1,0,1,0,30864.3,0.411302,0.410994,0.257053,46,0.029106,10,0.000105647,-3.58998,-5.07322,-0.0116297,0.410881,
2,1,0,0,0,30865.1,0.415298,0.415007,0.254765,46,0.0293195,10,0.000105729,-3.59386,-11.9408,-0.00494106,0.414895,
2,1,0,1,0,30865.9,0.419293,0.418998,0.255426,46,0.0295326,10,0.000107023,-3.59273,-2.15938,-0.0273226,0.418885,
2,1,0,0,0,30866.7,0.423288,0.422976,0.254985,46,0.0297452,10,0.000107852,-3.59349,4.02797,0.0146476,0.422864,
2,1,0,1,0,30867.5,0.427283,0.426985,0.254174,46,0.0299582,10,0.000108528,-3.59487,14.8252,0.00397972,0.426873,
2,1,0,1,0,30868.3,0.431278,0.430985,0.253949,46,0.0301707,10,0.000109448,-3.59525,-11.8195,-0.00499176,0.430874,
2,1,0,1,0,30869.1,0.435273,0.434983,0.254262,46,0.030383,10,0.0001106,-3.59472,-5.93038,-0.00994877,0.434871,
2,1,0,1,0,30869.9,0.439269,0.438951,0.254593,46,0.0305954,10,0.000111754,-3.59415,-6.63422,-0.00889329,0.438839,
2,1,0,0,0,30870.7,0.443264,0.442953,0.25401,46,0.0308074,10,0.000112515,-3.59515,-2.73282,-0.0215895,0.442841,
2,1,0,1,0,30871.5,0.447259,0.446951,0.25474,46,0.0310194,10,0.000113856,-3.5939,1.43657,0.04107,0.446839,
2,1,0,1,0,30872.3,0.451254,0.450934,0.253951,46,0.0312317,10,0.000114515,-3.59525,-1.64132,-0.0359467,0.450822,
2,1,0,1,0,30873.1,0.455249,0.454936,0.254205,46,0.0314434,10,0.000115647,-3.59482,1.38007,0.0427515,0.454824,
2,1,0,1,0,30873.9,0.459244,0.45897,0.253455,46,0.0316555,10,0.000116328,-3.5961,8.0342,0.00734361,0.458859,
2,1,0,0,0,30874.7,0.46324,0.462968,0.255197,46,0.0318681,10,0.000118148,-3.59313,-6.29314,-0.00937529,0.462856,
2,1,0,1,0,30875.5,0.467235,0.466901,0.255699,46,0.0320806,10,0.000119386,-3.59227,1.89982,0.0310555,0.466789,
2,1,0,1,0,30876.3,0.471231,0.470918,0.255124,46,0.0322934,10,0.000120142,-3.59325,-3.05459,-0.0193152,0.470805,
2,1,0,1,0,30877.1,0.475225,0.474943,0.256502,46,0.0325062,10,0.000121824,-3.59091,5.17453,0.011402,0.47483,
2,1,0,1,0,30877.9,0.47922,0.478887,0.256555,46,0.0327193,10,0.000122861,-3.59082,45.4005,0.00129954,0.478774,
2,1,0,0,0,30878.7,0.483216,0.482922,0.256115,46,0.0329328,10,0.000123684,-3.59156,40.1692,0.00146879,0.482809,
2,1,0,1,0,30879.5,0.487211,0.486875,0.257265,46,0.0331464,10,0.000125256,-3.58962,1.4101,0.041841,0.486762,
2,1,0,0,0,30880.3,0.491206,0.490888,0.256551,46,0.0333603,10,0.000125938,-3.59083,5.65384,0.0104354,0.490775,
2,1,0,1,0,30881.1,0.495201,0.494872,0.258326,46,0.0335747,10,0.000127838,-3.58783,-17.0222,-0.00346607,0.494759,
2,1,0,1,0,30881.9,0.499196,0.498929,0.258366,46,0.0337893,10,0.000128906,-3.58776,1.97496,0.0298741,0.498815,
2,1,0,1,0,30882.7,0.503191,0.502899,0.260012,46,0.0340048,10,0.00013076,-3.58501,2.87733,0.0205051,0.502784,
2,1,0,1,0,30883.5,0.507187,0.506879,0.259481,46,0.0342206,10,0.000131525,-3.58589,15.3579,0.00384166,0.506765,
2,1,0,0,0,30884.3,0.511182,0.510858,0.260738,46,0.0344371,10,0.0001332,-3.5838,1.62302,0.0363521,0.510744,
2,1,0,1,0,30885.1,0.515177,0.514893,0.262285,46,0.0346546,10,0.000135049,-3.58123,-51.7807,-0.00113942,0.514778,
2,1,0,1,0,30885.9,0.519173,0.518899,0.263417,46,0.0348727,10,0.000136687,-3.57936,1.11993,0.0526819,0.518783,
2,1,0,1,0,30886.7,0.523167,0.522867,0.263478,46,0.0350917,10,0.000137764,-3.57926,2.08122,0.0283488,0.522751,
2,1,0,1,0,30887.5,0.527162,0.526842,0.26594,46,0.0353118,10,0.000140108,-3.57522,1.37678,0.0428535,0.526725,
2,1,0,0,0,30888.3,0.531158,0.530851,0.266847,46,0.035533,10,0.000141656,-3.57374,2.74596,0.0214861,0.530734,
2,1,0,1,0,30889.1,0.535153,0.534854,0.269655,46,0.0357555,10,0.000144226,-3.56919,0.997351,0.0591567,0.534736,
2,1,0,0,0,30889.9,0.539148,0.538866,0.270672,46,0.0359793,10,0.000145856,-3.56756,1.07255,0.055009,0.538747,
2,1,0,1,0,30890.7,0.543143,0.542859,0.272402,46,0.0362046,10,0.000147876,-3.56479,0.928202,0.0635638,0.542739,
2,1,0,1,0,30891.5,0.547138,0.546841,0.274981,46,0.0364316,10,0.000150371,-3.5607,-4.82869,-0.0122186,0.54672,
2,1,0,1,0,30892.3,0.551133,0.550832,0.277493,46,0.03666,10,0.000152852,-3.55675,0.798698,0.0738702,0.55071,
2,1,0,1,0,30893.1,0.555129,0.55482,0.279852,46,0.0368905,10,0.000155267,-3.55307,0.681985,0.0865122,0.554697,
2,1,0,0,0,30893.9,0.559124,0.558779,0.282624,46,0.0371231,10,0.000157924,-3.54879,1.1996,0.049183,0.558655,
2,1,0,1,0,30894.7,0.56312,0.562853,0.284844,46,0.0373577,10,0.000160325,-3.54539,0.807622,0.0730539,0.562727,
2,1,0,1,0,30895.5,0.567114,0.566858,0.287883,46,0.0375948,10,0.000163189,-3.54078,0.856842,0.0688575,0.566732,
2,1,0,1,0,30896.3,0.571109,0.570807,0.292853,46,0.0378342,10,0.000167163,-3.53335,0.577166,0.102224,0.570679,
2,1,0,1,0,30897.1,0.575105,0.574746,0.295376,46,0.0380769,10,0.000169766,-3.52963,0.815415,0.0723558,0.574616,
2,1,0,0,0,30897.9,0.5791,0.578812,0.299859,46,0.0383228,10,0.000173562,-3.52308,0.655952,0.0899456,0.578681,
2,1,0,1,0,30898.7,0.583095,0.582824,0.305057,46,0.0385723,10,0.000177795,-3.51562,0.444468,0.132743,0.58269,
2,1,0,1,0,30899.5,0.58709,0.586788,0.310484,46,0.038826,10,0.000182188,-3.50796,0.603911,0.0976965,0.586651,
2,1,0,1,0,30900.3,0.591085,0.590805,0.316873,46,0.0390842,10,0.00018721,-3.49912,0.41587,0.141871,0.590665,
2,1,0,1,0,30901.1,0.59508,0.59479,0.323551,46,0.0393475,10,0.000192445,-3.49006,0.394915,0.149399,0.594648,
2,1,0,0,0,30901.9,0.599076,0.598767,0.331292,46,0.0396166,10,0.000198367,-3.47979,0.399831,0.147563,0.598622,
2,1,0,1,0,30902.7,0.603071,0.602764,0.33963,46,0.0398922,10,0.000204717,-3.46899,0.33531,0.175956,0.602615,
2,1,0,0,0,30903.5,0.607066,0.606764,0.350143,46,0.0401754,10,0.000212454,-3.45575,0.293699,0.200886,0.60661,
2,1,0,1,0,30904.3,0.611061,0.610812,0.3626,46,0.0404674,10,0.00022148,-3.44057,0.268493,0.219745,0.610652,
2,1,0,1,0,30905.1,0.615056,0.614719,0.375425,46,0.0407695,10,0.000230781,-3.42548,0.22524,0.261943,0.614554,
2,1,0,1,0,30905.9,0.619051,0.618774,0.391422,46,0.0410839,10,0.000242202,-3.40736,0.21075,0.279952,0.618602,
2,1,0,1,0,30906.7,0.623047,0.622768,0.409498,46,0.0414115,10,0.000255022,-3.38775,0.195632,0.301587,0.622587,
2,1,0,0,0,30907.5,0.627042,0.626767,0.430621,46,0.0417546,10,0.000269899,-3.36591,0.171379,0.344267,0.626578,
2,1,0,1,0,30908.3,0.631037,0.630699,0.455306,46,0.0421159,10,0.000287161,-3.3417,0.164337,0.359019,0.630498,
2,1,0,1,0,30909.1,0.635032,0.634763,0.482775,46,0.042498,10,0.000306448,-3.31626,0.138673,0.425461,0.634551,
2,1,0,1,0,30909.9,0.639027,0.63875,0.517185,46,0.0429051,10,0.000330352,-3.28635,0.1349,0.437362,0.638522,
2,1,0,1,0,30910.7,0.643022,0.642714,0.555956,46,0.043341,10,0.00035732,-3.25496,0.122552,0.481427,0.64247,
2,1,0,0,0,30911.5,0.647018,0.646759,0.600799,46,0.0438097,10,0.000388572,-3.22127,0.110754,0.532712,0.646495,
2,1,0,1,0,30912.3,0.651013,0.650801,0.655268,46,0.0443185,10,0.000426449,-3.18358,0.101944,0.578747,0.650513,
2,1,0,1,0,30913.1,0.655008,0.654783,0.716763,46,0.044874,10,0.000469324,-3.14462,0.0978716,0.602831,0.654467,
2,1,0,1,0,30913.9,0.659003,0.658717,0.790482,46,0.0454832,10,0.000520704,-3.10211,0.0908566,0.649375,0.65837,
2,1,0,1,0,30914.7,0.662998,0.662712,0.875145,46,0.0461553,10,0.000579969,-3.05792,0.0889642,0.663188,0.662327,
2,1,0,0,0,30915.5,0.666994,0.66672,0.97244,46,0.0469005,10,0.000648346,-3.01214,0.0835395,0.706253,0.666292,
2,1,0,1,0,30916.3,0.670989,0.670681,1.08388,46,0.0477296,10,0.000726938,-2.96502,0.0827609,0.712897,0.670204,
2,1,0,0,0,30917.1,0.674984,0.674662,1.21339,46,0.0486546,10,0.00081863,-2.916,0.0798902,0.738514,0.674128,
2,1,0,1,0,30917.9,0.67898,0.678717,1.35999,46,0.04969,10,0.000923047,-2.86646,0.0784199,0.75236,0.678119,
2,1,0,1,0,30918.7,0.682974,0.682689,1.52678,46,0.0508503,10,0.00104231,-2.81622,0.0788645,0.748119,0.682017,
2,1,0,1,0,30919.5,0.686969,0.686707,1.71294,46,0.0521506,10,0.00117629,-2.76626,0.0774609,0.761675,0.685954,
2,1,0,1,0,30920.3,0.690965,0.690718,1.92103,46,0.0536092,10,0.00132689,-2.71647,0.0786805,0.749868,0.689873,
2,1,0,0,0,30921.1,0.69496,0.694684,2.15105,46,0.0552424,10,0.0014943,-2.66735,0.0800147,0.737364,0.693738,
2,1,0,1,0,30921.9,0.698955,0.698672,2.40397,46,0.0570683,10,0.00167959,-2.61907,0.0812667,0.726004,0.697615,
2,1,0,1,0,30922.7,0.70295,0.702675,2.67874,46,0.0591059,10,0.00188228,-2.57207,0.0833064,0.708229,0.701496,
2,1,0,1,0,30923.5,0.706945,0.706701,2.97914,46,0.0613735,10,0.00210536,-2.52591,0.0857263,0.688237,0.70539,
2,1,0,1,0,30924.3,0.71094,0.710661,3.30201,46,0.0638892,10,0.00234661,-2.48122,0.0867824,0.679862,0.709208,
2,1,0,0,0,30925.1,0.714936,0.71466,3.64831,46,0.0666734,10,0.0026073,-2.43791,0.0894511,0.659578,0.713055,
2,1,0,1,0,30925.9,0.718931,0.718652,4.0201,46,0.0697438,10,0.00288905,-2.39576,0.0928522,0.635419,0.716883,
2,1,0,1,0,30926.7,0.722927,0.722628,4.41496,46,0.0731204,10,0.00319038,-2.35507,0.0951541,0.620047,0.720686,
2,1,0,1,0,30927.5,0.726921,0.726642,4.8322,46,0.0768214,10,0.00351128,-2.31586,0.100098,0.589421,0.724516,
2,1,0,1,0,30928.3,0.730916,0.730643,5.27329,46,0.0808647,10,0.00385289,-2.27792,0.100295,0.588267,0.728322,
2,1,0,1,0,30929.1,0.734911,0.734634,5.73681,46,0.0852703,10,0.00421446,-2.24133,0.104489,0.564655,0.732109,
2,1,0,1,0,30929.9,0.738907,0.738642,6.22617,46,0.0900572,10,0.00459891,-2.20578,0.11003,0.536215,0.735903,
2,1,0,0,0,30930.6,0.742902,0.742636,6.73836,46,0.0952434,10,0.00500415,-2.17145,0.109793,0.537376,0.739671,
2,1,0,1,0,30931.4,0.746897,0.746634,7.2769,46,0.10085,10,0.00543318,-2.13805,0.115953,0.508827,0.743432,
2,1,0,1,0,30932.2,0.750892,0.75064,7.84003,46,0.106896,10,0.00588504,-2.10568,0.116539,0.506269,0.74719,
2,1,0,1,0,30933,0.754887,0.754588,8.42731,46,0.113402,10,0.00635915,-2.07431,0.117922,0.500329,0.75088,
2,1,0,1,0,30933.8,0.758883,0.758574,9.04977,46,0.120392,10,0.00686492,-2.04336,0.122496,0.481648,0.754592,
2,1,0,0,0,30934.6,0.762878,0.762588,9.69677,46,0.127888,10,0.00739465,-2.01337,0.124218,0.474973,0.758322,
2,1,0,1,0,30935.4,0.766873,0.766594,10.3765,46,0.135913,10,0.0079546,-1.98395,0.126458,0.466559,0.762028,
2,1,0,1,0,30936.2,0.770868,0.770614,11.0958,46,0.144498,10,0.00855057,-1.95484,0.128618,0.458723,0.765732,
2,1,0,1,0,30937,0.774863,0.774577,11.8503,46,0.153672,10,0.00917899,-1.92627,0.128275,0.45995,0.769363,
2,1,0,1,0,30937.8,0.778858,0.778575,12.6586,46,0.163469,10,0.00985566,-1.89761,0.124737,0.472995,0.773005,
2,1,0,0,0,30938.6,0.782854,0.782582,13.5306,46,0.173938,10,0.0105888,-1.86868,0.12592,0.468551,0.776629,
2,1,0,1,0,30939.4,0.786849,0.786568,14.4419,46,0.185119,10,0.0113595,-1.84038,0.126348,0.466963,0.780214,
2,1,0,0,0,30940.2,0.790844,0.790567,15.4235,46,0.197055,10,0.0121933,-1.81182,0.13589,0.434176,0.783781,
2,1,0,1,0,30941,0.794839,0.794543,16.4148,46,0.209749,10,0.0130422,-1.78477,0.133995,0.440316,0.787321,
2,1,0,1,0,30941.8,0.798834,0.798538,17.3817,46,0.223237,10,0.01388,-1.75991,0.13021,0.453115,0.79089,
2,1,0,1,0,30942.6,0.802829,0.802624,18.5025,46,0.237582,10,0.0148505,-1.73277,0.130991,0.450412,0.794482,
2,1,0,1,0,30943.4,0.806825,0.806527,19.6765,46,0.252843,10,0.0158697,-1.70605,0.1305,0.452108,0.79787,
2,1,0,0,0,30944.2,0.81082,0.810519,20.9223,46,0.269067,10,0.016958,-1.67939,0.131491,0.448699,0.801313,
2,1,0,1,0,30945,0.814815,0.814576,22.1668,46,0.286291,10,0.0180565,-1.6543,0.137482,0.429148,0.804823,
2,1,0,1,0,30945.8,0.81881,0.818484,23.4475,46,0.304523,10,0.0191914,-1.6299,0.146359,0.403117,0.808167,
2,1,0,1,0,30946.6,0.822805,0.822588,24.7763,46,0.323799,10,0.0203807,-1.60596,0.101513,0.581206,0.811686,
2,1,0,1,0,30947.4,0.826801,0.826532,26.6843,46,0.344423,10,0.0220554,-1.57374,0.139173,0.423932,0.814791,
2,1,0,0,0,30948.2,0.830796,0.8305,28.0852,46,0.366312,10,0.0233248,-1.55152,0.150885,0.391026,0.818143,
2,1,0,1,0,30949,0.834791,0.834501,29.5408,46,0.38935,10,0.0246518,-1.52958,0.160187,0.368319,0.821503,
2,1,0,1,0,30949.8,0.838786,0.838505,30.9723,46,0.413535,10,0.0259705,-1.50903,0.0708913,0.83226,0.824877,
2,1,0,1,0,30950.6,0.842781,0.84258,34.6228,46,0.439715,10,0.0291725,-1.46064,0.100758,0.585559,0.827346,
2,1,0,1,0,30951.4,0.846776,0.846536,36.0938,46,0.46799,10,0.0305547,-1.44257,0.20529,0.287399,0.830655,
2,1,0,1,0,30952.1,0.849723,0.849503,36.8957,46,0.493645,10,0.031343,-1.43302,0.0330789,1.78361,0.833268,
2,1,0,0,0,30952.9,0.845728,0.845447,34.4817,46,0.522057,10,0.0291525,-1.46241,0.123897,0.476201,0.830275,
2,1,0,1,0,30953.7,0.841732,0.84151,32.5829,46,0.54883,10,0.0274189,-1.48701,0.126631,0.46592,0.827174,
2,1,0,1,0,30954.5,0.837737,0.837479,30.7721,46,0.574119,10,0.025771,-1.51184,0.127768,0.461775,0.82394,
2,1,0,1,0,30955.3,0.833742,0.833475,29.0236,46,0.597986,10,0.0241905,-1.53725,0.130482,0.452171,0.820705,
2,1,0,1,0,30956.1,0.829747,0.82949,27.3969,46,0.620506,10,0.0227254,-1.5623,0.127576,0.46247,0.817435,
2,1,0,0,0,30956.9,0.825752,0.825511,25.7822,46,0.641729,10,0.0212834,-1.58868,0.129399,0.455953,0.814167,
2,1,0,1,0,30957.7,0.821757,0.821492,24.3005,46,0.661726,10,0.0199626,-1.61439,0.123312,0.478461,0.8108,
2,1,0,1,0,30958.5,0.817761,0.817531,22.8104,46,0.68053,10,0.0186482,-1.64187,0.126936,0.464801,0.807494,
2,1,0,1,0,30959.3,0.813766,0.813504,21.4402,46,0.698197,10,0.0174417,-1.66877,0.122981,0.47975,0.80407,
2,1,0,1,0,30960.1,0.809771,0.809493,20.108,46,0.714781,10,0.0162773,-1.69663,0.121746,0.484614,0.800646,
2,1,0,1,0,30960.9,0.805776,0.805538,18.8165,46,0.730318,10,0.0151574,-1.72546,0.116226,0.50763,0.797259,
2,1,0,1,0,30961.7,0.801781,0.801516,17.5943,46,0.744852,10,0.0141021,-1.75463,0.119195,0.494988,0.793774,
2,1,0,0,0,30962.5,0.797786,0.797535,16.4577,46,0.758431,10,0.0131256,-1.78363,0.119739,0.49274,0.790294,
2,1,0,1,0,30963.3,0.79379,0.793495,15.3551,46,0.771128,10,0.0121842,-1.81375,0.116599,0.506007,0.786738,
2,1,0,1,0,30964.1,0.789795,0.789525,14.3033,46,0.782963,10,0.0112928,-1.84456,0.11161,0.528626,0.783231,
2,1,0,1,0,30964.9,0.7858,0.785488,13.3005,46,0.793975,10,0.0104474,-1.87613,0.111876,0.527371,0.779636,
2,1,0,1,0,30965.7,0.781805,0.78151,12.3365,46,0.804205,10,0.00964108,-1.90881,0.112057,0.526519,0.776082,
2,1,0,0,0,30966.5,0.77781,0.777551,11.4362,46,0.81369,10,0.00889225,-1.94172,0.105196,0.560858,0.772519,
2,1,0,1,0,30967.3,0.773815,0.773523,10.5963,46,0.822479,10,0.00819646,-1.97485,0.111865,0.527421,0.768861,
2,1,0,1,0,30968.1,0.769819,0.769569,9.80298,46,0.830617,10,0.00754407,-2.00864,0.106876,0.55204,0.765255,
2,1,0,1,0,30968.9,0.765824,0.765566,9.0558,46,0.838138,10,0.00693281,-2.04307,0.103817,0.568306,0.761581,
2,1,0,1,0,30969.7,0.761829,0.76151,8.34588,46,0.845078,10,0.00635548,-2.07853,0.104575,0.56419,0.757838,
2,1,0,0,0,30970.5,0.757834,0.757549,7.6833,46,0.85147,10,0.00582048,-2.11445,0.101656,0.580388,0.754169,
2,1,0,1,0,30971.3,0.753839,0.753536,7.05612,46,0.857346,10,0.00531704,-2.15143,0.0965864,0.610852,0.750431,
2,1,0,0,0,30972.1,0.749844,0.749539,6.43984,46,0.862723,10,0.00482691,-2.19112,0.0949214,0.621567,0.746705,
2,1,0,1,0,30972.9,0.745848,0.745609,5.8958,46,0.86764,10,0.00439596,-2.22946,0.0969145,0.608784,0.743015,
2,1,0,1,0,30973.7,0.741853,0.741591,5.37937,46,0.872134,10,0.0039893,-2.26927,0.093606,0.630302,0.739225,
2,1,0,1,0,30974.5,0.737858,0.737593,4.89802,46,0.876229,10,0.00361275,-2.30998,0.0931957,0.633077,0.735438,
2,1,0,1,0,30975.3,0.733863,0.733583,4.44955,46,0.879952,10,0.00326411,-2.35168,0.0895035,0.659192,0.731625,
2,1,0,0,0,30976.1,0.729868,0.729593,4.02939,46,0.883329,10,0.00293982,-2.39476,0.0864429,0.682531,0.72782,
2,1,0,1,0,30976.9,0.725872,0.725621,3.63718,46,0.886382,10,0.00263921,-2.43924,0.0853262,0.691464,0.724021,
2,1,0,1,0,30977.7,0.721877,0.721604,3.27022,46,0.889131,10,0.0023598,-2.48542,0.0809421,0.728916,0.720166,
2,1,0,1,0,30978.5,0.717882,0.717572,2.93097,46,0.891599,10,0.00210319,-2.53299,0.080721,0.730913,0.716283,
2,1,0,1,0,30979.3,0.713887,0.713632,2.6163,46,0.893805,10,0.00186707,-2.58231,0.0772971,0.763289,0.71248,
2,1,0,0,0,30980.1,0.709892,0.709603,2.32517,46,0.895769,10,0.00164995,-2.63355,0.073281,0.80512,0.70858,
2,1,0,1,0,30980.9,0.705897,0.705608,2.05578,46,0.897509,10,0.00145057,-2.68702,0.0707199,0.834277,0.704704,
2,1,0,1,0,30981.7,0.701901,0.70162,1.8086,46,0.899043,10,0.00126895,-2.74266,0.0689268,0.855981,0.700824,
2,1,0,1,0,30982.5,0.697906,0.697619,1.58276,46,0.900388,10,0.00110417,-2.80058,0.0654562,0.901367,0.696923,
2,1,0,1,0,30983.3,0.693911,0.693659,1.37785,46,0.901561,10,0.000955759,-2.8608,0.0637599,0.925347,0.693053,
2,1,0,0,0,30984.1,0.689916,0.689639,1.19202,46,0.902578,10,0.000822064,-2.92372,0.0709929,0.831069,0.689114,
2,1,0,1,0,30984.9,0.685921,0.685688,1.04612,46,0.903471,10,0.000717309,-2.98042,0.0583726,1.01075,0.685227,
2,1,0,0,0,30985.7,0.681926,0.681638,0.895358,46,0.904236,10,0.00061031,-3.048,0.0569281,1.0364,0.681244,
2,1,0,1,0,30986.5,0.67793,0.677637,0.760034,46,0.904888,10,0.000515027,-3.11917,0.0551429,1.06995,0.677302,
2,1,0,1,0,30987.3,0.673935,0.67361,0.640814,46,0.905437,10,0.000431659,-3.19327,0.0513886,1.14811,0.673328,
2,1,0,1,0,30988.1,0.66994,0.669628,0.541651,46,0.905898,10,0.000362705,-3.26628,0.0520421,1.1337,0.66939,
2,1,0,1,0,30988.9,0.665945,0.665643,0.448023,46,0.906284,10,0.000298224,-3.3487,0.0475691,1.2403,0.665446,
2,1,0,0,0,30989.7,0.66195,0.661646,0.365779,46,0.906599,10,0.000242017,-3.43678,0.0443788,1.32946,0.661485,
2,1,0,1,0,30990.5,0.657955,0.657672,0.297543,46,0.906855,10,0.000195685,-3.52645,0.0418377,1.41021,0.657541,
2,1,0,1,0,30991.3,0.653959,0.653682,0.235928,46,0.907059,10,0.000154222,-3.62722,0.0391014,1.5089,0.653578,
2,1,0,1,0,30992.1,0.649964,0.649701,0.186085,46,0.907218,10,0.000120899,-3.73029,0.0355408,1.66007,0.649619,
2,1,0,1,0,30992.9,0.64597,0.645713,0.142031,46,0.907339,10,9.17111e-05,-3.84762,0.0326519,1.80694,0.645651,
2,1,0,0,0,30993.7,0.641974,0.641684,0.103999,46,0.907428,10,6.67346e-05,-3.98297,0.0271506,2.17307,0.641638,
2,1,0,1,0,30994.5,0.637979,0.637678,0.0734741,46,0.90749,10,4.68528e-05,-4.13387,0.0233436,2.52746,0.637645,
2,1,0,1,0,30995.3,0.633983,0.633678,0.0465544,46,0.907529,10,2.95005e-05,-4.33204,0.0187718,3.14301,0.633657,
2,1,0,1,0,30996.1,0.629988,0.629708,0.0239975,46,0.907548,10,1.51114e-05,-4.61983,0.00966252,6.10607,0.629697,
2,1,0,1,0,30996.9,0.625993,0.625706,0.00541237,46,0.907551,10,3.38656e-06,-5.26661,0.00528092,11.1723,0.625704,
2,1,0,0,0,30997.7,0.621998,0.621719,-0.00977243,46,0.90754,10,-6.0757e-06,-5.01,-0.00467073,-12.6319,0.621723,
2,0,0,1,0,30998.5,0.618003,0.617741,-0.0220661,46,0.907518,10,-1.36311e-05,-4.65627,-0.0175049,-3.37048,0.617751,
2,0,0,0,0,30999.3,0.614008,0.613709,-0.034242,46,0.907487,10,-2.10146e-05,-4.46544,-0.0354175,-1.66584,0.613725,
2,0,0,1,0,31000.1,0.610012,0.609728,-0.0417441,46,0.907448,10,-2.54526e-05,-4.3794,-0.0451973,-1.30539,0.609747,
2,0,0,1,0,31000.9,0.606017,0.605734,-0.0495483,46,0.907402,10,-3.00131e-05,-4.30497,-0.0664729,-0.887579,0.605756,
2,0,0,1,0,31001.7,0.602022,0.601718,-0.0554918,46,0.90735,10,-3.33904e-05,-4.25577,-0.104182,-0.566317,0.601742,
2,0,0,1,0,31002.5,0.598027,0.597716,-0.0613941,46,0.907294,10,-3.66963e-05,-4.21187,-0.0860524,-0.685628,0.597743,
2,0,0,0,0,31003.3,0.594032,0.593743,-0.0668372,46,0.907234,10,-3.96841e-05,-4.17498,-0.150048,-0.393207,0.593772,
2,0,0,1,0,31004.1,0.590037,0.589735,-0.071123,46,0.907169,10,-4.19437e-05,-4.14799,-0.170318,-0.346411,0.589766,
2,0,0,1,0,31004.9,0.586041,0.58572,-0.0741375,46,0.907102,10,-4.34238e-05,-4.12996,-0.192816,-0.305991,0.585752,
2,0,0,1,0,31005.7,0.582046,0.581748,-0.0771148,46,0.907032,10,-4.48614e-05,-4.11286,-0.361059,-0.163408,0.581782,
2,0,0,1,0,31006.5,0.578052,0.57774,-0.0794669,46,0.906961,10,-4.59112e-05,-4.09981,-0.271967,-0.216938,0.577775,
2,0,0,0,0,31007.3,0.574056,0.573728,-0.0818075,46,0.906886,10,-4.69352e-05,-4.08721,-0.265596,-0.222142,0.573764,
2,0,0,1,0,31008.1,0.570061,0.569716,-0.0849067,46,0.90681,10,-4.83727e-05,-4.07106,-0.837098,-0.0704816,0.569754,
2,0,0,1,0,31008.9,0.566065,0.565757,-0.0870319,46,0.906733,10,-4.9239e-05,-4.06032,-0.304718,-0.193621,0.565796,
2,0,0,1,0,31009.7,0.56207,0.561808,-0.0878634,46,0.906653,10,-4.93623e-05,-4.05619,-0.59994,-0.0983432,0.561846,
2,0,0,1,0,31010.5,0.558075,0.55777,-0.0896422,46,0.906573,10,-4.99997e-05,-4.04749,-0.550858,-0.107106,0.55781,
2,0,0,1,0,31011.3,0.55408,0.553777,-0.0914361,46,0.906492,10,-5.06352e-05,-4.03888,-0.324943,-0.18157,0.553817,
2,0,0,1,0,31012.1,0.550085,0.549765,-0.0924271,46,0.906408,10,-5.08132e-05,-4.0342,-0.832699,-0.0708539,0.549805,
2,0,0,0,0,31012.9,0.54609,0.545774,-0.0939068,46,0.906324,10,-5.12519e-05,-4.0273,-1.00631,-0.0586303,0.545816,
2,0,0,1,0,31013.6,0.542094,0.541808,-0.0952687,46,0.906239,10,-5.16174e-05,-4.02105,-0.75959,-0.0776735,0.54185,
2,0,0,1,0,31014.4,0.538099,0.537788,-0.0956183,46,0.906153,10,-5.14224e-05,-4.01946,1.49895,0.0393609,0.537831,
2,0,0,1,0,31015.2,0.534104,0.533802,-0.0971282,46,0.906067,10,-5.18472e-05,-4.01265,-0.302015,-0.195354,0.533844,
2,0,0,1,0,31016,0.530109,0.529822,-0.0983841,46,0.905979,10,-5.2126e-05,-4.00708,-1.23814,-0.047652,0.529865,
2,0,0,0,0,31016.8,0.526114,0.525776,-0.0996237,46,0.905891,10,-5.23798e-05,-4.00164,-1.0582,-0.0557551,0.52582,
2,0,0,1,0,31017.6,0.522119,0.521797,-0.0999992,46,0.905802,10,-5.21792e-05,-4,-0.834451,-0.0707052,0.521841,
2,0,0,1,0,31018.4,0.518123,0.517837,-0.101502,46,0.905711,10,-5.25615e-05,-3.99353,-0.732622,-0.0805327,0.517881,
2,0,0,1,0,31019.2,0.514128,0.513837,-0.103022,46,0.90562,10,-5.29367e-05,-3.98707,-0.704663,-0.083728,0.513883,
2,0,0,1,0,31020,0.510133,0.509821,-0.1041,46,0.905528,10,-5.30726e-05,-3.98255,-0.854482,-0.0690477,0.509866,
2,0,0,0,0,31020.8,0.506138,0.50577,-0.105435,46,0.905435,10,-5.33258e-05,-3.97702,-1.10927,-0.0531883,0.505816,
2,0,0,1,0,31021.6,0.502143,0.501806,-0.106008,46,0.905341,10,-5.31952e-05,-3.97466,-0.899893,-0.0655633,0.501852,
2,0,0,0,0,31022.4,0.498148,0.497854,-0.10716,46,0.905246,10,-5.335e-05,-3.96997,-0.723823,-0.0815117,0.497901,
2,0,0,1,0,31023.2,0.494152,0.49387,-0.108504,46,0.90515,10,-5.35869e-05,-3.96455,-1.29316,-0.0456247,0.493917,
2,0,0,1,0,31024,0.490157,0.489846,-0.109737,46,0.905054,10,-5.37545e-05,-3.95965,-0.443866,-0.132923,0.489895,
2,0,0,1,0,31024.8,0.486162,0.485855,-0.110741,46,0.904956,10,-5.38041e-05,-3.95569,-5.1656,-0.0114217,0.485904,
2,0,0,1,0,31025.6,0.482167,0.481814,-0.113019,46,0.904857,10,-5.4454e-05,-3.94685,-0.415104,-0.142133,0.481864,
2,0,0,0,0,31026.4,0.478172,0.477863,-0.112333,46,0.904756,10,-5.36796e-05,-3.94949,-1.79958,-0.0327855,0.477912,
2,0,0,1,0,31027.2,0.474177,0.473877,-0.115134,46,0.904655,10,-5.45592e-05,-3.9388,-1.29103,-0.0456999,0.473927,
2,0,0,1,0,31028,0.470181,0.469859,-0.116362,46,0.904553,10,-5.46735e-05,-3.93419,-0.452024,-0.130524,0.46991,
2,0,0,1,0,31028.8,0.466186,0.465877,-0.117517,46,0.904449,10,-5.47485e-05,-3.9299,-0.587374,-0.100447,0.465929,
2,0,0,1,0,31029.6,0.462191,0.46188,-0.119924,46,0.904344,10,-5.53904e-05,-3.92109,-2.71973,-0.0216933,0.461933,
2,0,0,0,0,31030.4,0.458196,0.457906,-0.120725,46,0.904238,10,-5.52806e-05,-3.9182,-0.609971,-0.0967259,0.457959,
2,0,0,1,0,31031.2,0.454201,0.453934,-0.121736,46,0.904131,10,-5.52602e-05,-3.91458,-0.87417,-0.0674926,0.453987,
2,0,0,1,0,31032,0.450205,0.449953,-0.123822,46,0.904023,10,-5.57139e-05,-3.9072,-0.454131,-0.129918,0.450007,
2,0,0,1,0,31032.8,0.44621,0.445909,-0.125208,46,0.903914,10,-5.58315e-05,-3.90237,-0.609453,-0.0968082,0.445964,
2,0,0,1,0,31033.6,0.442215,0.441916,-0.127369,46,0.903802,10,-5.62866e-05,-3.89493,-18.8766,-0.00312557,0.441972,
2,0,0,0,0,31034.4,0.43822,0.437863,-0.129257,46,0.90369,10,-5.65967e-05,-3.88855,-0.548188,-0.107627,0.43792,
2,0,0,1,0,31035.2,0.434225,0.433926,-0.130186,46,0.903576,10,-5.64909e-05,-3.88544,-0.592892,-0.0995122,0.433983,
2,0,0,0,0,31036,0.43023,0.429934,-0.13244,46,0.903461,10,-5.69403e-05,-3.87798,-0.452858,-0.130284,0.429992,
2,0,0,1,0,31036.8,0.426234,0.425911,-0.134122,46,0.903344,10,-5.7124e-05,-3.8725,-1.01584,-0.0580798,0.42597,
2,0,0,1,0,31037.6,0.422239,0.421927,-0.136213,46,0.903225,10,-5.74722e-05,-3.86578,-0.710591,-0.0830295,0.421987,
2,0,0,1,0,31038.4,0.418244,0.417928,-0.137941,46,0.903106,10,-5.76493e-05,-3.86031,-0.563381,-0.104725,0.417989,
2,0,0,1,0,31039.2,0.414249,0.41394,-0.139302,46,0.902984,10,-5.76628e-05,-3.85604,-0.961234,-0.0613794,0.414002,
2,0,0,0,0,31040,0.410254,0.409925,-0.141765,46,0.902861,10,-5.81131e-05,-3.84843,-1.76488,-0.03343,0.409987,
2,0,0,1,0,31040.8,0.406259,0.405963,-0.143596,46,0.902736,10,-5.82948e-05,-3.84286,-0.379553,-0.155446,0.406026,
2,0,0,1,0,31041.6,0.402263,0.401972,-0.146242,46,0.90261,10,-5.87852e-05,-3.83493,-0.653855,-0.0902341,0.402037,
2,0,0,1,0,31042.4,0.398268,0.397931,-0.148204,46,0.902482,10,-5.89751e-05,-3.82914,-0.793712,-0.0743342,0.397996,
2,0,0,1,0,31043.2,0.394274,0.393963,-0.149716,46,0.902352,10,-5.89825e-05,-3.82473,-0.493126,-0.119645,0.394029,
2,0,0,0,0,31044,0.390278,0.389945,-0.152612,46,0.902221,10,-5.95101e-05,-3.81641,-0.482073,-0.122388,0.390012,
2,0,0,1,0,31044.8,0.386283,0.385969,-0.154281,46,0.902088,10,-5.95478e-05,-3.81169,-1.15921,-0.0508968,0.386037,
2,0,0,1,0,31045.6,0.382287,0.381955,-0.155114,46,0.901953,10,-5.92467e-05,-3.80935,-0.733229,-0.080466,0.382023,
2,0,0,1,0,31046.4,0.378292,0.378006,-0.159417,46,0.901816,10,-6.02606e-05,-3.79747,-2.33174,-0.0253029,0.378077,
2,0,0,1,0,31047.2,0.374297,0.374014,-0.159559,46,0.901677,10,-5.96774e-05,-3.79708,-0.364716,-0.16177,0.374084,
2,0,0,1,0,31048,0.370303,0.369951,-0.162888,46,0.901537,10,-6.02607e-05,-3.78811,-0.758367,-0.0777988,0.370023,
2,0,0,1,0,31048.8,0.366307,0.365973,-0.164508,46,0.901395,10,-6.02054e-05,-3.78381,-0.654042,-0.0902082,0.366045,
2,0,0,0,0,31049.6,0.362312,0.361986,-0.167262,46,0.901251,10,-6.05467e-05,-3.7766,-0.656402,-0.0898839,0.362059,
2,0,0,1,0,31050.4,0.358316,0.357998,-0.169361,46,0.901105,10,-6.06308e-05,-3.77119,-0.673585,-0.087591,0.358073,
2,0,0,1,0,31051.2,0.354321,0.354002,-0.172588,46,0.900957,10,-6.10965e-05,-3.76299,-0.804024,-0.0733809,0.354078,
2,0,0,1,0,31052,0.350327,0.350053,-0.173422,46,0.900808,10,-6.07071e-05,-3.7609,-0.967822,-0.0609616,0.35013,
2,0,0,1,0,31052.8,0.346331,0.346007,-0.17604,46,0.900656,10,-6.09111e-05,-3.75439,-0.904369,-0.0652389,0.346084,
2,0,0,0,0,31053.6,0.342336,0.341998,-0.178059,46,0.900503,10,-6.08958e-05,-3.74944,-0.70484,-0.083707,0.342077,
2,0,0,1,0,31054.4,0.338341,0.33799,-0.181166,46,0.900347,10,-6.12324e-05,-3.74192,-0.441442,-0.133653,0.33807,
2,0,0,1,0,31055.2,0.334345,0.334001,-0.183486,46,0.90019,10,-6.12847e-05,-3.7364,-0.804404,-0.0733462,0.334082,
2,0,0,1,0,31056,0.33035,0.330023,-0.18566,46,0.900031,10,-6.12721e-05,-3.73128,-0.657718,-0.0897042,0.330105,
2,0,0,1,0,31056.8,0.326355,0.326033,-0.18855,46,0.899869,10,-6.14735e-05,-3.72457,-0.719859,-0.0819605,0.326116,
2,0,0,0,0,31057.6,0.32236,0.322068,-0.191427,46,0.899706,10,-6.16526e-05,-3.718,-0.682394,-0.0864603,0.322152,
2,0,0,1,0,31058.4,0.318365,0.318063,-0.192551,46,0.899541,10,-6.12432e-05,-3.71546,-0.827758,-0.0712769,0.318148,
2,0,0,0,0,31059.2,0.31437,0.314068,-0.195126,46,0.899373,10,-6.12828e-05,-3.70969,-1.02343,-0.057649,0.314154,
2,0,0,1,0,31060,0.310374,0.310067,-0.198635,46,0.899204,10,-6.15903e-05,-3.70194,-0.780454,-0.0755971,0.310155,
2,0,0,1,0,31060.8,0.306379,0.306138,-0.19978,46,0.899033,10,-6.11601e-05,-3.69945,-0.566155,-0.104212,0.306225,
2,0,0,1,0,31061.6,0.302385,0.302074,-0.203429,46,0.898859,10,-6.14506e-05,-3.69159,-0.763042,-0.0773221,0.302164,
2,0,0,1,0,31062.4,0.298389,0.298069,-0.204941,46,0.898684,10,-6.10867e-05,-3.68837,-0.622304,-0.094809,0.298159,
2,0,0,0,0,31063.2,0.294394,0.29409,-0.20796,46,0.898506,10,-6.11589e-05,-3.68202,-0.907891,-0.0649858,0.294182,
2,0,0,1,0,31064,0.290398,0.290092,-0.211199,46,0.898327,10,-6.1267e-05,-3.67531,-0.617577,-0.0955346,0.290185,
2,0,0,1,0,31064.8,0.286403,0.286101,-0.212234,46,0.898145,10,-6.07203e-05,-3.67319,-0.823112,-0.0716792,0.286194,
2,0,0,1,0,31065.6,0.282408,0.282058,-0.216794,46,0.897961,10,-6.11484e-05,-3.66395,-1.33044,-0.0443463,0.282153,
2,0,0,1,0,31066.4,0.278414,0.27811,-0.218042,46,0.897775,10,-6.06396e-05,-3.66146,-0.49554,-0.119062,0.278206,
2,0,0,0,0,31067.2,0.274418,0.274069,-0.221333,46,0.897586,10,-6.06603e-05,-3.65495,-1.03856,-0.0568096,0.274166,
2,0,0,1,0,31068,0.270423,0.270127,-0.224851,46,0.897395,10,-6.07384e-05,-3.6481,-0.612242,-0.0963672,0.270226,
2,0,0,1,0,31068.8,0.266427,0.266136,-0.226431,46,0.897203,10,-6.02616e-05,-3.64506,-0.658719,-0.0895678,0.266236,
2,0,0,1,0,31069.6,0.262432,0.262124,-0.230112,46,0.897007,10,-6.0318e-05,-3.63806,-1.41471,-0.0417048,0.262225,
2,0,0,1,0,31070.4,0.258437,0.258137,-0.231453,46,0.896811,10,-5.97466e-05,-3.63554,-0.610411,-0.0966562,0.258239,
2,0,0,0,0,31071.2,0.254442,0.254139,-0.234256,46,0.896611,10,-5.95338e-05,-3.63031,-0.7579,-0.0778467,0.254242,
2,0,0,1,0,31072,0.250447,0.250101,-0.238647,46,0.896409,10,-5.96859e-05,-3.62224,-1.44308,-0.0408847,0.250206,
2,0,0,0,0,31072.8,0.246452,0.24613,-0.240842,46,0.896206,10,-5.92784e-05,-3.61827,-0.738106,-0.0799343,0.246236,
2,0,0,1,0,31073.6,0.242456,0.242142,-0.243587,46,0.896,10,-5.89827e-05,-3.61335,-1.09686,-0.05379,0.242249,
2,0,0,1,0,31074.4,0.238461,0.238124,-0.245774,46,0.895793,10,-5.85246e-05,-3.60946,-0.734612,-0.0803145,0.238232,
2,0,0,1,0,31075.2,0.234467,0.234187,-0.247371,46,0.895584,10,-5.7931e-05,-3.60665,-1.13795,-0.0518475,0.234296,
2,0,0,1,0,31076,0.230471,0.230188,-0.249157,46,0.895373,10,-5.73531e-05,-3.60353,-0.82558,-0.0714649,0.230298,
2,0,0,0,0,31076.8,0.226476,0.226173,-0.252533,46,0.895159,10,-5.71163e-05,-3.59768,-0.730206,-0.0807991,0.226284,
2,0,0,1,0,31077.6,0.222481,0.222186,-0.255279,46,0.894944,10,-5.67195e-05,-3.59298,-0.965229,-0.0611254,0.222298,
2,0,0,1,0,31078.4,0.218485,0.218172,-0.257759,46,0.894726,10,-5.62358e-05,-3.58879,-6.21743,-0.00948945,0.218285,
2,0,0,1,0,31079.2,0.21449,0.21417,-0.260274,46,0.894506,10,-5.57428e-05,-3.58457,-0.523609,-0.11268,0.214284,
2,0,0,1,0,31080,0.210496,0.210196,-0.264056,46,0.894284,10,-5.55034e-05,-3.5783,-0.646835,-0.0912133,0.210312,
2,0,0,0,0,31080.8,0.2065,0.206161,-0.268773,46,0.894059,10,-5.54106e-05,-3.57061,-0.885335,-0.0666415,0.20628,
2,0,0,1,0,31081.6,0.202505,0.202199,-0.270079,46,0.893832,10,-5.46095e-05,-3.56851,-0.897334,-0.0657504,0.202317,
2,0,0,1,0,31082.4,0.198509,0.198189,-0.273167,46,0.893602,10,-5.41386e-05,-3.56357,-0.579337,-0.101841,0.198309,
2,0,0,1,0,31083.2,0.194514,0.194222,-0.276266,46,0.893369,10,-5.36569e-05,-3.55867,-0.733363,-0.0804513,0.194344,
2,0,0,1,0,31084,0.190519,0.190213,-0.280002,46,0.893133,10,-5.326e-05,-3.55284,-0.578954,-0.101908,0.190336,
2,0,0,0,0,31084.8,0.186524,0.186211,-0.285173,46,0.892893,10,-5.31023e-05,-3.54489,-0.781449,-0.0755007,0.186336,
2,0,0,1,0,31085.6,0.182529,0.182242,-0.28997,46,0.89265,10,-5.28445e-05,-3.53765,-0.390634,-0.151036,0.182369,
2,0,0,0,0,31086.4,0.178534,0.178255,-0.296066,46,0.892403,10,-5.27752e-05,-3.52861,-0.411048,-0.143536,0.178385,
2,0,0,1,0,31087.2,0.174538,0.17423,-0.303258,46,0.89215,10,-5.28366e-05,-3.51819,-0.398625,-0.148009,0.174364,
2,0,0,1,0,31088,0.170543,0.170229,-0.31124,46,0.891892,10,-5.29821e-05,-3.50691,-0.334568,-0.176347,0.170366,
2,0,0,1,0,31088.8,0.166549,0.166234,-0.318682,46,0.891626,10,-5.29758e-05,-3.49664,-0.34968,-0.168726,0.166374,
2,0,0,1,0,31089.6,0.162553,0.162262,-0.330957,46,0.891353,10,-5.37015e-05,-3.48023,-0.208141,-0.283462,0.162407,
2,0,0,0,0,31090.4,0.158558,0.158243,-0.343414,46,0.89107,10,-5.43427e-05,-3.46418,-0.204311,-0.288776,0.158394,
2,0,0,1,0,31091.2,0.154563,0.154238,-0.363927,46,0.890773,10,-5.61316e-05,-3.43899,-0.168636,-0.349866,0.154399,
2,0,0,1,0,31092,0.150567,0.150255,-0.388905,46,0.890459,10,-5.84351e-05,-3.41016,-0.119353,-0.494331,0.150426,
2,0,0,1,0,31092.8,0.146572,0.146234,-0.421244,46,0.890123,10,-6.16001e-05,-3.37547,-0.107242,-0.550156,0.146419,
2,0,0,1,0,31093.6,0.142578,0.142296,-0.464208,46,0.889758,10,-6.60548e-05,-3.33329,-0.0891839,-0.661554,0.1425,
2,0,0,0,0,31094.4,0.138582,0.138233,-0.513954,46,0.889354,10,-7.10453e-05,-3.28908,-0.0878491,-0.671607,0.138459,
2,0,0,1,0,31095.2,0.134587,0.134215,-0.568198,46,0.888907,10,-7.62606e-05,-3.2455,-0.0964678,-0.611603,0.134465,
2,0,0,1,0,31096,0.130591,0.13025,-0.621978,46,0.888417,10,-8.10128e-05,-3.20623,-0.113119,-0.521576,0.130524,
2,0,0,1,0,31096.7,0.126596,0.12627,-0.661993,46,0.887888,10,-8.35899e-05,-3.17915,-0.175789,-0.335629,0.126561,
2,0,0,1,0,31097.5,0.122602,0.122274,-0.693441,46,0.88733,10,-8.47897e-05,-3.15899,-0.289438,-0.203843,0.122579,
2,0,0,1,0,31098.3,0.118607,0.118288,-0.708615,46,0.886754,10,-8.38206e-05,-3.14959,-0.515514,-0.114449,0.1186,
2,0,0,1,0,31099.1,0.114611,0.114284,-0.715825,46,0.88617,10,-8.18077e-05,-3.14519,210.522,0.000280255,0.114599,
2,0,0,0,0,31099.9,0.110616,0.110289,-0.714207,46,0.885585,10,-7.87691e-05,-3.14618,2.04336,0.0288741,0.110603,
2,0,0,1,0,31100.7,0.10662,0.106278,-0.708249,46,0.885003,10,-7.52713e-05,-3.14981,1.13574,0.0519485,0.10659,
2,0,0,1,0,31101.5,0.102625,0.102311,-0.700346,46,0.884425,10,-7.16533e-05,-3.15469,0.608275,0.0969956,0.10262,
2,0,0,1,0,31102.3,0.0986305,0.0982855,-0.690546,46,0.883855,10,-6.78706e-05,-3.16081,0.674945,0.0874146,0.0985893,
2,0,0,1,0,31103.1,0.0946351,0.0942788,-0.677921,46,0.883292,10,-6.39136e-05,-3.16882,0.653842,0.0902359,0.0945771,
2,0,0,0,0,31103.9,0.0906399,0.0902588,-0.67105,46,0.882738,10,-6.05682e-05,-3.17325,0.506044,0.116591,0.0905541,
2,0,0,1,0,31104.7,0.0866448,0.0862844,-0.660508,46,0.882192,10,-5.69916e-05,-3.18012,0.727999,0.0810441,0.0865751,
2,0,0,1,0,31105.5,0.0826492,0.0822652,-0.651287,46,0.881654,10,-5.35783e-05,-3.18623,0.563288,0.104742,0.0825518,
2,0,0,1,0,31106.3,0.0786544,0.078325,-0.643847,46,0.881124,10,-5.04294e-05,-3.19122,0.939429,0.0628041,0.0786083,
2,0,0,1,0,31107.1,0.0746596,0.0743148,-0.631102,46,0.880601,10,-4.69002e-05,-3.1999,0.583713,0.101077,0.0745925,
2,0,0,0,0,31107.9,0.0706641,0.0703179,-0.623221,46,0.880086,10,-4.38236e-05,-3.20536,0.593219,0.0994574,0.0705921,
2,0,0,1,0,31108.7,0.0666689,0.0663244,-0.614662,46,0.879577,10,-4.07671e-05,-3.21136,0.784217,0.0752343,0.0665949,
2,0,0,0,0,31109.5,0.0626737,0.0623362,-0.603891,46,0.879075,10,-3.76443e-05,-3.21904,0.530964,0.111119,0.0626019,
2,0,0,1,0,31110.3,0.0586783,0.058352,-0.59788,46,0.878579,10,-3.48875e-05,-3.22339,0.535288,0.110221,0.0586151,
2,0,0,1,0,31111.1,0.0546835,0.0543366,-0.587707,46,0.878092,10,-3.1934e-05,-3.23084,0.759461,0.0776867,0.0545952,
2,0,0,1,0,31111.9,0.0506886,0.0503668,-0.578121,46,0.877611,10,-2.91181e-05,-3.23798,0.505251,0.116774,0.0506212,
2,0,0,1,0,31112.7,0.046693,0.0463835,-0.568469,46,0.87714,10,-2.63676e-05,-3.24529,0.503619,0.117152,0.0466336,
2,0,0,0,0,31113.5,0.0426979,0.0423613,-0.557147,46,0.876676,10,-2.36015e-05,-3.25403,0.56727,0.104007,0.0426065,
2,0,0,1,0,31114.3,0.0387022,0.0383865,-0.547064,46,0.87622,10,-2.09998e-05,-3.26196,0.440588,0.133912,0.0386272,
2,0,0,1,0,31115.1,0.0347074,0.0343932,-0.538118,46,0.875773,10,-1.85076e-05,-3.26912,0.479932,0.122934,0.03463,
2,0,0,1,0,31115.9,0.0307126,0.0303886,-0.525082,46,0.875334,10,-1.59565e-05,-3.27977,0.547967,0.107671,0.0306196,
2,0,0,1,0,31116.7,0.0267172,0.0263895,-0.518682,46,0.874902,10,-1.36878e-05,-3.2851,0.49231,0.119843,0.0266177,
2,0,0,0,0,31117.5,0.022722,0.0224066,-0.509561,46,0.874478,10,-1.14175e-05,-3.2928,0.719218,0.0820336,0.0226308,
2,0,0,1,0,31118.3,0.0187268,0.0183834,-0.504217,46,0.87406,10,-9.26923e-06,-3.29738,0.781999,0.0754476,0.0186053,
2,0,0,1,0,31119.1,0.0147313,0.0144012,-0.49933,46,0.873647,10,-7.19096e-06,-3.30161,0.881334,0.066944,0.0146209,
2,0,0,1,0,31119.9,0.0107365,0.0103902,-0.494426,46,0.873237,10,-5.13718e-06,-3.3059,3.57549,0.0165012,0.0106078,
2,0,0,1,0,31120.7,0.00674163,0.00640223,-0.492827,46,0.87283,10,-3.1552e-06,-3.30731,2.91714,0.0202253,0.00661908,
2,0,0,0,0,31121.5,0.00274612,0.0023925,-0.491988,46,0.872423,10,-1.17708e-06,-3.30805,-1.64503,-0.0358656,0.00260897,
2,0,0,1,0,31122,0.000274105,-0.000103433,-0.493924,46,0.872168,10,5.10883e-08,-3.30634, , ,0.000113893,