File: Figure_codes/Fig_3-5/workspace_calculate_alpha_eff/20221101_1-115_003_TrumpetPlot_ParaChange_from10_every3_16_CV_C01_23.csv
mode,ox/red,error,control changes,counter inc.,time/s,control/V,Ewe/V,<I>/mA,cycle number,(Q-Qo)/C,I Range,P/W,log(|I|),Tafel slope mV/dec,alpha_eff,E-IR/V,
2,0,0,0,0,15761,2.44065e-05,-0.000325324,-0.105118,24,0.0000000E+000,10,3.41975e-08,-3.97832, , ,-0.000279071,
2,1,0,0,0,15761.8,0.00379485,0.00344866,0.15554,24,0.000103916,10,5.36405e-07,-3.80816,0.0393396,1.49976,0.00338023,
2,1,0,1,0,15762.6,0.00779002,0.00751214,0.179126,24,0.000251721,10,1.34562e-06,-3.74684,0.0807485,0.730664,0.00743333,
2,1,0,0,0,15763.4,0.0117852,0.0114516,0.195093,24,0.000415241,10,2.23411e-06,-3.70976,0.110674,0.533095,0.0113657,
2,1,0,1,0,15764.2,0.0157806,0.0155165,0.212018,24,0.000591143,10,3.28978e-06,-3.67363,0.136051,0.43366,0.0154232,
2,1,0,1,0,15765,0.0197754,0.0194384,0.224452,24,0.000778013,10,4.36298e-06,-3.64888,0.142182,0.41496,0.0193396,
2,1,0,1,0,15765.8,0.0237704,0.0234678,0.239489,24,0.000976628,10,5.62028e-06,-3.62071,0.150597,0.391774,0.0233624,
2,1,0,1,0,15766.6,0.0277659,0.0274308,0.253471,24,0.00118647,10,6.95292e-06,-3.59607,0.167998,0.351194,0.0273193,
2,1,0,0,0,15767.4,0.0317611,0.0314508,0.267978,24,0.00140827,10,8.42812e-06,-3.5719,0.155486,0.379456,0.0313329,
2,1,0,1,0,15768.2,0.0357567,0.0354395,0.283006,24,0.0016422,10,1.00296e-05,-3.5482,0.218175,0.270425,0.035315,
2,1,0,1,0,15769,0.0397516,0.0394487,0.298383,24,0.00188736,10,1.17708e-05,-3.52523,0.15442,0.382075,0.0393174,
2,1,0,1,0,15769.8,0.0437465,0.0433803,0.31025,24,0.00214472,10,1.34587e-05,-3.50829,0.227778,0.259024,0.0432437,
2,1,0,1,0,15770.6,0.0477413,0.0474498,0.326433,24,0.00241275,10,1.54892e-05,-3.48621,0.193091,0.305555,0.0473062,
2,1,0,0,0,15771.4,0.0517369,0.0513684,0.338904,24,0.00269152,10,1.7409e-05,-3.46992,0.243226,0.242572,0.0512193,
2,1,0,1,0,15772.2,0.0557321,0.0553959,0.352673,24,0.00298136,10,1.95366e-05,-3.45263,0.256736,0.229808,0.0552407,
2,1,0,1,0,15773,0.0597277,0.0594002,0.364644,24,0.00328072,10,2.16599e-05,-3.43813,0.337484,0.174823,0.0592398,
2,1,0,1,0,15773.8,0.0637226,0.0634157,0.374635,24,0.00358976,10,2.37578e-05,-3.42639,0.26389,0.223578,0.0632509,
2,1,0,1,0,15774.6,0.0677174,0.0674206,0.38696,24,0.00390848,10,2.60891e-05,-3.41233,0.471161,0.125223,0.0672504,
2,1,0,0,0,15775.4,0.0717128,0.0714122,0.396814,24,0.00423511,10,2.83374e-05,-3.40141,0.309215,0.190805,0.0712376,
2,1,0,1,0,15776.2,0.075708,0.0753845,0.404521,24,0.00456976,10,3.04946e-05,-3.39306,0.43173,0.13666,0.0752065,
2,1,0,0,0,15777,0.0797031,0.079377,0.416998,24,0.00491177,10,3.31e-05,-3.37987,0.35974,0.164007,0.0791935,
2,1,0,1,0,15777.8,0.0836986,0.0833611,0.424825,24,0.00526108,10,3.54139e-05,-3.37179,0.412554,0.143011,0.0831742,
2,1,0,1,0,15778.6,0.0876935,0.087398,0.437688,24,0.00561919,10,3.8253e-05,-3.35884,0.276278,0.213553,0.0872054,
2,1,0,1,0,15779.4,0.0916883,0.0913678,0.452494,24,0.00598767,10,4.13434e-05,-3.34439,0.239007,0.246855,0.0911687,
2,1,0,1,0,15780.2,0.0956838,0.0953329,0.470535,24,0.00637006,10,4.48574e-05,-3.32741,0.210446,0.280357,0.0951259,
2,1,0,0,0,15781,0.099679,0.0993582,0.494037,24,0.00676929,10,4.90866e-05,-3.30624,0.220775,0.26724,0.0991408,
2,1,0,1,0,15781.8,0.103674,0.103399,0.520457,24,0.0071874,10,5.38149e-05,-3.28362,0.161745,0.364772,0.10317,
2,1,0,1,0,15782.6,0.10767,0.107344,0.542417,24,0.00762619,10,5.82253e-05,-3.26567,0.218885,0.269547,0.107106,
2,1,0,1,0,15783.4,0.111664,0.111364,0.56596,24,0.00808266,10,6.30277e-05,-3.24721,0.277402,0.212688,0.111115,
2,1,0,1,0,15784.2,0.115659,0.115369,0.581609,24,0.00855471,10,6.70996e-05,-3.23537,0.264426,0.223125,0.115113,
2,1,0,0,0,15785,0.119655,0.119352,0.59858,24,0.00904125,10,7.14418e-05,-3.22288,0.508415,0.116047,0.119089,
2,1,0,1,0,15785.8,0.12365,0.123298,0.614521,24,0.0095394,10,7.57691e-05,-3.21146,0.335844,0.175677,0.123028,
2,1,0,1,0,15786.6,0.127646,0.127312,0.628489,24,0.0100509,10,8.00142e-05,-3.2017,0.383617,0.153799,0.127036,
2,1,0,1,0,15787.4,0.131641,0.13135,0.639262,24,0.0105735,10,8.39669e-05,-3.19432,6.68854,0.00882106,0.131068,
2,1,0,1,0,15788.2,0.135635,0.135333,0.636275,24,0.0110983,10,8.61092e-05,-3.19635,-0.660109,-0.0893792,0.135053,
2,1,0,0,0,15789,0.139631,0.139297,0.605509,24,0.0116119,10,8.43458e-05,-3.21788,-0.122259,-0.482583,0.139031,
2,1,0,1,0,15789.8,0.143626,0.143317,0.554227,24,0.0120904,10,7.94304e-05,-3.25631,-0.084086,-0.701662,0.143073,
2,1,0,0,0,15790.6,0.147621,0.147316,0.487147,24,0.01252,10,7.17646e-05,-3.31234,-0.067811,-0.870065,0.147102,
2,1,0,1,0,15791.4,0.151617,0.151315,0.425429,24,0.0128975,10,6.43739e-05,-3.37117,-0.0687954,-0.857616,0.151128,
2,1,0,1,0,15792.2,0.155612,0.155331,0.378805,24,0.0132305,10,5.884e-05,-3.42158,-0.0904888,-0.652015,0.155164,
2,1,0,1,0,15792.9,0.159606,0.159273,0.343823,24,0.0135312,10,5.47618e-05,-3.46366,-0.12646,-0.466549,0.159122,
2,1,0,1,0,15793.7,0.163602,0.16327,0.322831,24,0.0138109,10,5.27086e-05,-3.49102,-0.132343,-0.44581,0.163128,
2,1,0,0,0,15794.5,0.167597,0.16726,0.30508,24,0.014074,10,5.10277e-05,-3.51559,-0.23318,-0.253023,0.167126,
2,1,0,1,0,15795.3,0.171592,0.171281,0.291424,24,0.0143261,10,4.99155e-05,-3.53547,-0.262232,-0.224991,0.171153,
2,1,0,1,0,15796.1,0.175588,0.175271,0.283578,24,0.0145696,10,4.9703e-05,-3.54733,-0.258361,-0.228363,0.175146,
2,1,0,1,0,15796.9,0.179582,0.179246,0.277495,24,0.0148062,10,4.97399e-05,-3.55674,-0.458499,-0.128681,0.179124,
2,1,0,1,0,15797.7,0.183577,0.183285,0.271149,24,0.0150381,10,4.96975e-05,-3.56679,-0.45603,-0.129377,0.183165,
2,1,0,0,0,15798.5,0.187573,0.187275,0.266324,24,0.0152666,10,4.9876e-05,-3.57459,-0.452058,-0.130514,0.187158,
2,1,0,1,0,15799.3,0.191568,0.19125,0.261971,24,0.0154911,10,5.01019e-05,-3.58175,-0.765529,-0.0770709,0.191135,
2,1,0,0,0,15800.1,0.195563,0.195231,0.25752,24,0.0157126,10,5.02757e-05,-3.58919,-0.575529,-0.102514,0.195117,
2,1,0,1,0,15800.9,0.199559,0.19929,0.254962,24,0.0159312,10,5.08113e-05,-3.59353,-1.67984,-0.0351224,0.199178,
2,1,0,1,0,15801.7,0.203553,0.203212,0.251407,24,0.0161478,10,5.10889e-05,-3.59962,-0.79032,-0.0746533,0.203102,
2,1,0,1,0,15802.5,0.207548,0.207201,0.251038,24,0.0163626,10,5.20154e-05,-3.60026,-0.793035,-0.0743978,0.207091,
2,1,0,1,0,15803.3,0.211544,0.211211,0.248206,24,0.0165754,10,5.24239e-05,-3.60519,24.7961,0.00237941,0.211102,
2,1,0,0,0,15804.1,0.215539,0.215235,0.245599,24,0.0167866,10,5.28615e-05,-3.60977,-0.810318,-0.0728109,0.215127,
2,1,0,1,0,15804.9,0.219535,0.219233,0.244925,24,0.016996,10,5.36958e-05,-3.61097,-1.04796,-0.0562997,0.219125,
2,1,0,1,0,15805.7,0.223529,0.223229,0.243517,24,0.0172043,10,5.43599e-05,-3.61347,-1.55494,-0.0379436,0.223121,
2,1,0,1,0,15806.5,0.227524,0.227252,0.241072,24,0.0174115,10,5.47842e-05,-3.61785,-1.35679,-0.0434851,0.227146,
2,1,0,1,0,15807.3,0.23152,0.231235,0.240659,24,0.0176176,10,5.56487e-05,-3.6186,-6.95892,-0.00847833,0.231129,
2,1,0,0,0,15808.1,0.235515,0.235214,0.238237,24,0.0178229,10,5.60368e-05,-3.62299,-2.19942,-0.0268252,0.235109,
2,1,0,1,0,15808.9,0.23951,0.23925,0.236895,24,0.0180271,10,5.66771e-05,-3.62544,-1.16931,-0.050457,0.239146,
2,1,0,1,0,15809.7,0.243506,0.243203,0.237017,24,0.0182303,10,5.76432e-05,-3.62522,3.42514,0.0172256,0.243099,
2,1,0,1,0,15810.5,0.2475,0.247202,0.236549,24,0.0184331,10,5.84754e-05,-3.62608,-1.20394,-0.0490058,0.247098,
2,1,0,1,0,15811.3,0.251495,0.251185,0.235285,24,0.0186349,10,5.91001e-05,-3.6284,-4.62515,-0.0127564,0.251081,
2,1,0,0,0,15812.1,0.255491,0.255191,0.233823,24,0.0188359,10,5.96697e-05,-3.63111,-1.73469,-0.0340119,0.255088,
2,1,0,1,0,15812.9,0.259486,0.259213,0.233043,24,0.0190364,10,6.04079e-05,-3.63256,-1.40788,-0.041907,0.259111,
2,1,0,0,0,15813.7,0.263481,0.263199,0.232552,24,0.0192362,10,6.12076e-05,-3.63348,4.35541,0.0135464,0.263097,
2,1,0,1,0,15814.5,0.267477,0.267159,0.231354,24,0.0194355,10,6.18085e-05,-3.63572,-1.55061,-0.0380496,0.267058,
2,1,0,1,0,15815.3,0.271471,0.27117,0.230944,24,0.019634,10,6.26251e-05,-3.63649,205.459,0.000287161,0.271069,
2,1,0,1,0,15816.1,0.275466,0.275138,0.229831,24,0.0198316,10,6.32351e-05,-3.63859,-1.3173,-0.0447885,0.275037,
2,1,0,1,0,15816.9,0.279462,0.279135,0.229512,24,0.0200287,10,6.4065e-05,-3.63919,-2.17778,-0.0270918,0.279034,
2,1,0,0,0,15817.7,0.283457,0.283108,0.229994,24,0.0202251,10,6.5113e-05,-3.63828,-7.30022,-0.00808194,0.283006,
2,1,0,1,0,15818.5,0.287452,0.287128,0.228461,24,0.0204207,10,6.55975e-05,-3.64119,-1.33591,-0.0441646,0.287027,
2,1,0,1,0,15819.3,0.291448,0.291133,0.227497,24,0.0206157,10,6.62318e-05,-3.64302,-0.977296,-0.0603707,0.291033,
2,1,0,1,0,15820.1,0.295442,0.295135,0.225796,24,0.0208096,10,6.66403e-05,-3.64628,2.19694,0.0268556,0.295035,
2,1,0,1,0,15820.9,0.299437,0.299115,0.223838,24,0.0210031,10,6.69534e-05,-3.65007,-2.06122,-0.0286238,0.299017,
2,1,0,0,0,15821.7,0.303433,0.303143,0.224192,24,0.0211957,10,6.79621e-05,-3.64938,-3.21681,-0.0183411,0.303044,
2,1,0,1,0,15822.5,0.307428,0.307119,0.224392,24,0.0213877,10,6.89151e-05,-3.64899,-15.9176,-0.00370659,0.307021,
2,1,0,1,0,15823.3,0.311424,0.311127,0.223688,24,0.0215795,10,6.95955e-05,-3.65036,-1.06866,-0.0552095,0.311029,
2,1,0,1,0,15824.1,0.315418,0.315128,0.222662,24,0.0217704,10,7.01671e-05,-3.65235,-1.71324,-0.0344377,0.31503,
2,1,0,1,0,15824.9,0.319413,0.319157,0.221839,24,0.0219606,10,7.08014e-05,-3.65396,15.5066,0.00380483,0.319059,
2,1,0,0,0,15825.7,0.323409,0.323115,0.220372,24,0.0221506,10,7.12056e-05,-3.65684,-1.15832,-0.0509358,0.323018,
2,1,0,1,0,15826.5,0.327404,0.327083,0.219975,24,0.0223395,10,7.195e-05,-3.65763,2.69047,0.0219293,0.326986,
2,1,0,0,0,15827.3,0.331399,0.331108,0.218771,24,0.0225281,10,7.24368e-05,-3.66001,-3.82026,-0.015444,0.331012,
2,1,0,1,0,15828.1,0.335395,0.335082,0.218997,24,0.0227162,10,7.33817e-05,-3.65956,-2.33504,-0.0252672,0.334985,
2,1,0,1,0,15828.9,0.339389,0.339106,0.217491,24,0.0229038,10,7.37526e-05,-3.66256,17.0476,0.0034609,0.339011,
2,1,0,1,0,15829.7,0.343384,0.343123,0.218479,24,0.0230912,10,7.49652e-05,-3.66059,-0.867834,-0.0679854,0.343027,
2,1,0,1,0,15830.5,0.34738,0.347071,0.218037,24,0.0232779,10,7.56745e-05,-3.66147,8.04682,0.00733209,0.346975,
2,1,0,0,0,15831.3,0.351375,0.351083,0.217058,24,0.0234641,10,7.62054e-05,-3.66342,-3.85197,-0.0153168,0.350987,
2,1,0,1,0,15832.1,0.35537,0.355085,0.216598,24,0.0236499,10,7.69107e-05,-3.66435,-8.60905,-0.00685325,0.354989,
2,1,0,1,0,15832.9,0.359366,0.359073,0.216315,24,0.0238354,10,7.76728e-05,-3.66491,-12.3326,-0.00478408,0.358978,
2,1,0,1,0,15833.7,0.36336,0.363089,0.214679,24,0.0240206,10,7.79476e-05,-3.66821,-1.48472,-0.0397381,0.362994,
2,1,0,1,0,15834.5,0.367355,0.36705,0.215029,24,0.0242053,10,7.89265e-05,-3.6675,3.88349,0.0151925,0.366955,
2,1,0,0,0,15835.3,0.371351,0.371061,0.214127,24,0.0243894,10,7.94541e-05,-3.66933,-2.2543,-0.0261722,0.370967,
2,1,0,1,0,15836.1,0.375346,0.375086,0.214233,24,0.0245734,10,8.03558e-05,-3.66911,17.0854,0.00345325,0.374992,
2,1,0,1,0,15836.9,0.379342,0.379052,0.214322,24,0.0247571,10,8.12391e-05,-3.66893,-3.22079,-0.0183185,0.378958,
2,1,0,1,0,15837.7,0.383336,0.383027,0.213527,24,0.0249403,10,8.17867e-05,-3.67055,-9.26577,-0.00636752,0.382933,
2,1,0,1,0,15838.5,0.387331,0.387052,0.213709,24,0.0251234,10,8.27163e-05,-3.67018,-1.39537,-0.0422828,0.386958,
2,1,0,0,0,15839.3,0.391327,0.391063,0.213338,24,0.0253061,10,8.34286e-05,-3.67093,9.76581,0.00604148,0.390969,
2,1,0,1,0,15840.1,0.395322,0.395019,0.2124,24,0.0254886,10,8.39019e-05,-3.67285,2.66078,0.0221739,0.394925,
2,1,0,0,0,15840.9,0.399317,0.398995,0.212977,24,0.0256711,10,8.49768e-05,-3.67167,23.7148,0.00248789,0.398901,
2,1,0,1,0,15841.7,0.403313,0.403012,0.212601,24,0.0258532,10,8.56806e-05,-3.67244,-10.1955,-0.00578685,0.402919,
2,1,0,1,0,15842.5,0.407307,0.407025,0.213433,24,0.0260353,10,8.68726e-05,-3.67074,-1.44789,-0.0407489,0.406931,
2,1,0,1,0,15843.3,0.411302,0.410959,0.213349,24,0.0262172,10,8.76777e-05,-3.67091,2.68126,0.0220046,0.410865,
2,1,0,1,0,15844.1,0.415298,0.415039,0.212073,24,0.0263993,10,8.80186e-05,-3.67351,1.41545,0.0416829,0.414946,
2,1,0,0,0,15844.9,0.419293,0.418986,0.212535,24,0.0265813,10,8.90494e-05,-3.67257,-1.97931,-0.0298084,0.418892,
2,1,0,1,0,15845.7,0.423288,0.422978,0.212761,24,0.0267632,10,8.99934e-05,-3.67211,-1.77037,-0.0333263,0.422885,
2,1,0,1,0,15846.5,0.427283,0.427029,0.211632,24,0.026945,10,9.03731e-05,-3.67442,-60.2285,-0.000979602,0.426936,
2,1,0,1,0,15847.3,0.431278,0.431044,0.212565,24,0.0271268,10,9.16248e-05,-3.67251,2.08593,0.0282848,0.43095,
2,1,0,1,0,15848.1,0.435273,0.434963,0.212911,24,0.0273087,10,9.26083e-05,-3.6718,-4.93596,-0.0119531,0.434869,
2,1,0,0,0,15848.9,0.439269,0.438984,0.212898,24,0.0274905,10,9.34587e-05,-3.67183,1.93796,0.0304443,0.43889,
2,1,0,1,0,15849.7,0.443264,0.442963,0.212958,24,0.0276722,10,9.43325e-05,-3.67171,-2.4244,-0.0243359,0.442869,
2,1,0,0,0,15850.5,0.447259,0.446987,0.213171,24,0.0278539,10,9.52847e-05,-3.67127,6.84074,0.00862479,0.446893,
2,1,0,1,0,15851.3,0.451254,0.450978,0.213397,24,0.0280358,10,9.62372e-05,-3.67081,221.488,0.00026638,0.450884,
2,1,0,1,0,15852.1,0.455249,0.454947,0.213656,24,0.0282177,10,9.72023e-05,-3.67028,11.146,0.00529338,0.454853,
2,1,0,1,0,15852.9,0.459244,0.458927,0.212653,24,0.0283997,10,9.75923e-05,-3.67233,2.25714,0.0261393,0.458833,
2,1,0,1,0,15853.7,0.46324,0.462939,0.214028,24,0.0285819,10,9.9082e-05,-3.66953,-6.72358,-0.00877509,0.462845,
2,1,0,0,0,15854.5,0.467235,0.466942,0.214779,24,0.028764,10,0.000100289,-3.66801,1.35894,0.0434163,0.466847,
2,1,0,1,0,15855.3,0.471231,0.470968,0.214952,24,0.0289469,10,0.000101235,-3.66766,-1.35381,-0.0435806,0.470873,
2,1,0,1,0,15856.1,0.475225,0.474922,0.21504,24,0.0291298,10,0.000102127,-3.66748,1.26582,0.0466102,0.474827,
2,1,0,1,0,15856.9,0.47922,0.478934,0.215575,24,0.0293133,10,0.000103246,-3.6664,1.85127,0.0318699,0.478839,
2,1,0,1,0,15857.7,0.483216,0.482917,0.21667,24,0.0294973,10,0.000104633,-3.6642,-13.4374,-0.00439072,0.482821,
2,1,0,0,0,15858.5,0.487211,0.486943,0.217019,24,0.0296816,10,0.000105676,-3.6635,1.21225,0.0486698,0.486848,
2,1,0,1,0,15859.3,0.491206,0.490942,0.217158,24,0.0298669,10,0.000106612,-3.66322,1.52924,0.0385812,0.490846,
2,1,0,1,0,15860.1,0.495201,0.494914,0.218657,24,0.0300527,10,0.000108216,-3.66024,27.5558,0.00214111,0.494818,
2,1,0,1,0,15860.9,0.499196,0.498931,0.21998,24,0.030239,10,0.000109755,-3.65762,1.63568,0.0360706,0.498834,
2,1,0,1,0,15861.7,0.503191,0.502869,0.220369,24,0.030426,10,0.000110817,-3.65685,3.05096,0.0193382,0.502772,
2,1,0,0,0,15862.5,0.507187,0.506872,0.222275,24,0.0306136,10,0.000112665,-3.65311,1.30332,0.0452689,0.506775,
2,1,0,1,0,15863.3,0.511182,0.5109,0.223311,24,0.0308025,10,0.00011409,-3.65109,2.73042,0.0216084,0.510802,
2,1,0,0,0,15864.1,0.515177,0.51492,0.223613,24,0.0309922,10,0.000115143,-3.6505,3.31469,0.0177995,0.514821,
2,1,0,1,0,15864.9,0.519173,0.518906,0.22506,24,0.0311828,10,0.000116785,-3.6477,1.71698,0.0343626,0.518807,
2,1,0,1,0,15865.7,0.523167,0.522871,0.226372,24,0.0313743,10,0.000118363,-3.64518,0.904192,0.0652516,0.522771,
2,1,0,1,0,15866.5,0.527162,0.526853,0.228483,24,0.0315672,10,0.000120377,-3.64115,1.25984,0.0468315,0.526753,
2,1,0,1,0,15867.3,0.531158,0.530893,0.230241,24,0.0317614,10,0.000122233,-3.63782,1.33864,0.0440745,0.530791,
2,1,0,0,0,15868.1,0.535153,0.534872,0.232457,24,0.0319572,10,0.000124335,-3.63366,0.621139,0.0949868,0.53477,
2,1,0,1,0,15868.9,0.539148,0.538871,0.234103,24,0.0321544,10,0.000126152,-3.63059,1.46184,0.0403602,0.538768,
2,1,0,1,0,15869.7,0.543143,0.542829,0.23626,24,0.0323532,10,0.000128249,-3.62661,1.42238,0.0414798,0.542725,
2,1,0,1,0,15870.5,0.547138,0.546832,0.238518,24,0.0325538,10,0.000130429,-3.62248,1.16178,0.0507842,0.546727,
2,1,0,1,0,15871.3,0.551133,0.550822,0.240984,24,0.0327562,10,0.000132739,-3.61801,0.669611,0.0881109,0.550716,
2,1,0,0,0,15872.1,0.555129,0.554854,0.24352,24,0.0329613,10,0.000135118,-3.61347,0.688249,0.0857247,0.554747,
2,1,0,1,0,15872.9,0.559124,0.558796,0.24741,24,0.0331685,10,0.000138252,-3.60658,0.55373,0.10655,0.558687,
2,1,0,1,0,15873.7,0.56312,0.562798,0.250356,24,0.0333785,10,0.0001409,-3.60144,0.607179,0.0971707,0.562687,
2,1,0,1,0,15874.5,0.567114,0.566822,0.255452,24,0.0335917,10,0.000144796,-3.59269,0.585417,0.100783,0.566709,
2,1,0,1,0,15875.2,0.571109,0.570811,0.259733,24,0.033808,10,0.000148258,-3.58547,0.633343,0.0931565,0.570696,
2,1,0,0,0,15876,0.575105,0.574851,0.263836,24,0.0340279,10,0.000151666,-3.57867,0.445431,0.132456,0.574735,
2,1,0,1,0,15876.8,0.5791,0.578812,0.269253,24,0.034252,10,0.000155847,-3.56984,0.548945,0.107479,0.578694,
2,1,0,0,0,15877.6,0.583095,0.582799,0.275245,24,0.0344804,10,0.000160412,-3.56028,0.327952,0.179904,0.582677,
2,1,0,1,0,15878.4,0.58709,0.586825,0.281552,24,0.034714,10,0.000165222,-3.55044,0.384241,0.153549,0.586701,
2,1,0,1,0,15879.2,0.591085,0.590836,0.289807,24,0.034953,10,0.000171228,-3.53789,0.324354,0.1819,0.590709,
2,1,0,1,0,15880,0.59508,0.594753,0.298513,24,0.0351984,10,0.000177542,-3.52504,0.305952,0.192841,0.594622,
2,1,0,1,0,15880.8,0.599076,0.598776,0.307434,24,0.0354513,10,0.000184084,-3.51225,0.260152,0.226791,0.59864,
2,1,0,0,0,15881.6,0.603071,0.602784,0.319084,24,0.0357124,10,0.000192339,-3.49609,0.240786,0.245031,0.602644,
2,1,0,1,0,15882.4,0.607066,0.606806,0.33256,24,0.0359833,10,0.0002018,-3.47813,0.228474,0.258235,0.60666,
2,1,0,1,0,15883.2,0.611061,0.610786,0.347015,24,0.0362651,10,0.000211952,-3.45965,0.207215,0.284729,0.610633,
2,1,0,1,0,15884,0.615056,0.61479,0.364288,24,0.0365597,10,0.000223961,-3.43855,0.17783,0.331777,0.61463,
2,1,0,1,0,15884.8,0.619051,0.618725,0.383822,24,0.0368699,10,0.00023748,-3.41587,0.162382,0.363342,0.618556,
2,1,0,0,0,15885.6,0.623047,0.622815,0.40805,24,0.0371971,10,0.00025414,-3.38929,0.146075,0.403903,0.622636,
2,1,0,1,0,15886.4,0.627042,0.626778,0.435674,24,0.0375444,10,0.000273071,-3.36084,0.134372,0.439078,0.626586,
2,1,0,1,0,15887.2,0.631037,0.630762,0.467557,24,0.0379157,10,0.000294917,-3.33017,0.12187,0.484121,0.630557,
2,1,0,1,0,15888,0.635032,0.63476,0.504969,24,0.0383143,10,0.000320534,-3.29674,0.111952,0.527009,0.634538,
2,1,0,1,0,15888.8,0.639027,0.638742,0.548545,24,0.038746,10,0.000350379,-3.26079,0.106091,0.556128,0.638501,
2,1,0,1,0,15889.6,0.643022,0.642746,0.600879,24,0.0392157,10,0.000386212,-3.22121,0.0991373,0.595134,0.642482,
2,1,0,1,0,15890.4,0.647018,0.646732,0.663376,24,0.0397314,10,0.000429026,-3.17824,0.0887035,0.665137,0.64644,
2,1,0,0,0,15891.2,0.651013,0.650753,0.73527,24,0.0403006,10,0.000478479,-3.13355,0.0858212,0.687476,0.650429,
2,1,0,1,0,15892,0.655008,0.654737,0.823021,24,0.0409336,10,0.000538862,-3.08459,0.0798657,0.73874,0.654375,
2,1,0,1,0,15892.8,0.659003,0.658745,0.923788,24,0.0416406,10,0.000608541,-3.03443,0.0766922,0.769309,0.658338,
2,1,0,1,0,15893.6,0.662998,0.662766,1.04132,24,0.0424348,10,0.00069015,-2.98242,0.0757416,0.778965,0.662308,
2,1,0,1,0,15894.4,0.666994,0.666679,1.1769,24,0.0433296,10,0.000784614,-2.92926,0.0723025,0.816015,0.666161,
2,1,0,0,0,15895.2,0.670989,0.670728,1.33334,24,0.044342,10,0.000894308,-2.87506,0.070857,0.832663,0.670141,
2,1,0,1,0,15896,0.674984,0.674728,1.51611,24,0.04549,10,0.00102296,-2.81927,0.071009,0.83088,0.674061,
2,1,0,1,0,15896.8,0.67898,0.678725,1.72304,24,0.0467929,10,0.00116947,-2.7637,0.069241,0.852097,0.677966,
2,1,0,1,0,15897.6,0.682974,0.682742,1.95863,24,0.0482735,10,0.00133724,-2.70805,0.0700071,0.842772,0.68188,
2,1,0,1,0,15898.4,0.686969,0.686732,2.22498,24,0.049954,10,0.00152796,-2.65267,0.0712169,0.828455,0.685753,
2,1,0,0,0,15899.2,0.690965,0.690717,2.52167,24,0.0518598,10,0.00174176,-2.59831,0.0711748,0.828945,0.689608,
2,1,0,1,0,15900,0.69496,0.694705,2.8521,24,0.0540158,10,0.00198137,-2.54483,0.0731947,0.806069,0.69345,
2,1,0,0,0,15900.8,0.698955,0.698661,3.21419,24,0.0564482,10,0.00224563,-2.49293,0.0744892,0.792061,0.697246,
2,1,0,1,0,15901.6,0.70295,0.702688,3.61097,24,0.0591848,10,0.00253739,-2.44238,0.076164,0.774644,0.7011,
2,1,0,1,0,15902.4,0.706945,0.706689,4.04316,24,0.0622522,10,0.00285726,-2.39328,0.079721,0.740081,0.70491,
2,1,0,1,0,15903.2,0.71094,0.710671,4.50704,24,0.0656779,10,0.00320303,-2.34611,0.0798237,0.739129,0.708688,
2,1,0,1,0,15904,0.714936,0.714727,5.00657,24,0.0694896,10,0.00357833,-2.30046,0.0848322,0.69549,0.712524,
2,1,0,0,0,15904.8,0.718931,0.718635,5.53859,24,0.0737125,10,0.00398022,-2.2566,0.0874471,0.674694,0.716198,
2,1,0,1,0,15905.6,0.722927,0.722634,6.10356,24,0.078374,10,0.00441064,-2.21442,0.0912651,0.646468,0.719948,
2,1,0,1,0,15906.4,0.726921,0.726704,6.70042,24,0.0834989,10,0.00486923,-2.1739,0.0931941,0.633087,0.723756,
2,1,0,1,0,15907.2,0.730916,0.730647,7.32836,24,0.0891125,10,0.00535444,-2.13499,0.0976941,0.603926,0.727422,
2,1,0,1,0,15908,0.734911,0.734644,7.98649,24,0.0952411,10,0.00586723,-2.09764,0.0997879,0.591254,0.73113,
2,1,0,0,0,15908.8,0.738907,0.738626,8.67655,24,0.101909,10,0.00640873,-2.06165,0.105152,0.561092,0.734809,
2,1,0,1,0,15909.6,0.742902,0.742618,9.39658,24,0.109139,10,0.00697807,-2.02703,0.108564,0.543458,0.738483,
2,1,0,1,0,15910.4,0.746897,0.746647,10.1494,24,0.116959,10,0.00757803,-1.99356,0.110548,0.533704,0.742181,
2,1,0,1,0,15911.2,0.750892,0.75063,10.9375,24,0.125394,10,0.00821005,-1.96108,0.11347,0.519962,0.745818,
2,1,0,1,0,15912,0.754887,0.754629,11.7631,24,0.134473,10,0.00887676,-1.92948,0.11708,0.503927,0.749453,
2,1,0,0,0,15912.8,0.758883,0.758619,12.6364,24,0.144231,10,0.0095862,-1.89838,0.116971,0.504399,0.753059,
2,1,0,1,0,15913.6,0.762878,0.762601,13.5521,24,0.154701,10,0.0103348,-1.86799,0.115977,0.50872,0.756638,
2,1,0,0,0,15914.4,0.766873,0.766612,14.5305,24,0.16593,10,0.0111392,-1.83772,0.118093,0.499607,0.760218,
2,1,0,1,0,15915.2,0.770868,0.770587,15.5663,24,0.177964,10,0.0119952,-1.80781,0.119179,0.495054,0.763738,
2,1,0,1,0,15916,0.774863,0.774564,16.6632,24,0.190849,10,0.0129067,-1.77824,0.11955,0.493516,0.767232,
2,1,0,1,0,15916.8,0.778858,0.778627,17.8409,24,0.20464,10,0.0138914,-1.74858,0.118647,0.497275,0.770777,
2,1,0,1,0,15917.6,0.782854,0.782562,19.0818,24,0.21939,10,0.0149327,-1.71938,0.122059,0.483371,0.774166,
2,1,0,0,0,15918.4,0.786849,0.786625,20.3517,24,0.23514,10,0.0160091,-1.6914,0.11659,0.506048,0.77767,
2,1,0,1,0,15919.2,0.790844,0.790596,21.7346,24,0.251966,10,0.0171833,-1.66285,0.121162,0.486949,0.781033,
2,1,0,1,0,15920,0.794839,0.794545,23.1499,24,0.269908,10,0.0183937,-1.63545,0.11976,0.492653,0.784359,
2,1,0,1,0,15920.8,0.798834,0.798596,24.6466,24,0.289022,10,0.0196827,-1.60824,0.126072,0.467987,0.787752,
2,1,0,1,0,15921.6,0.802829,0.802557,26.1977,24,0.309346,10,0.0210251,-1.58174,0.127756,0.461819,0.79103,
2,1,0,0,0,15922.4,0.806825,0.806541,27.7883,24,0.330924,10,0.0224124,-1.55614,0.129979,0.453919,0.794314,
2,1,0,1,0,15923.2,0.81082,0.810538,29.459,24,0.353806,10,0.0238776,-1.53078,0.130467,0.452223,0.797576,
2,1,0,1,0,15924,0.814815,0.814557,31.0996,24,0.378018,10,0.0253324,-1.50724,0.14278,0.413223,0.800873,
2,1,0,1,0,15924.8,0.81881,0.818551,32.7636,24,0.403542,10,0.0268187,-1.48461,0.143999,0.409725,0.804135,
2,1,0,1,0,15925.6,0.822805,0.822593,34.4021,24,0.430408,10,0.0282989,-1.46342,0.166389,0.35459,0.807456,
2,1,0,0,0,15926.4,0.826801,0.826552,36.1042,24,0.458579,10,0.029842,-1.44244,0.156169,0.377795,0.810666,
2,1,0,1,0,15927.2,0.830796,0.830589,37.7704,24,0.488103,10,0.0313717,-1.42285,0.165431,0.356643,0.81397,
2,1,0,0,0,15928,0.834791,0.834557,39.4536,24,0.518969,10,0.0329262,-1.40391,0.184058,0.320551,0.817198,
2,1,0,1,0,15928.8,0.838786,0.838548,41.0592,24,0.55115,10,0.0344301,-1.38659,0.181517,0.325039,0.820482,
2,1,0,1,0,15929.6,0.842781,0.84256,42.8065,24,0.584689,10,0.036067,-1.36849,0.208028,0.283616,0.823725,
2,1,0,1,0,15930.4,0.846776,0.846553,44.3628,24,0.619474,10,0.0375554,-1.35298,0.20607,0.28631,0.827033,
2,1,0,0,0,15931.1,0.849723,0.849512,45.3542,24,0.650986,10,0.0385289,-1.34338,0.0351733,1.67741,0.829556,
2,1,0,1,0,15931.9,0.845728,0.845496,42.7687,24,0.686061,10,0.0361608,-1.36887,0.143985,0.409765,0.826678,
2,1,0,0,0,15932.7,0.841732,0.841503,40.7198,24,0.719391,10,0.0342658,-1.39019,0.142966,0.412684,0.823586,
2,1,0,1,0,15933.5,0.837737,0.837516,38.7319,24,0.751092,10,0.0324386,-1.41193,0.145368,0.405867,0.820474,
2,1,0,1,0,15934.3,0.833742,0.833503,36.9575,24,0.781257,10,0.0308042,-1.4323,0.165034,0.357503,0.817242,
2,1,0,1,0,15935.1,0.829747,0.829505,35.1818,24,0.810066,10,0.0291834,-1.45368,0.146236,0.403456,0.814025,
2,1,0,1,0,15935.9,0.825752,0.825505,33.4026,24,0.837451,10,0.027574,-1.47622,0.139892,0.421753,0.810808,
2,1,0,0,0,15936.7,0.821757,0.821477,31.5485,24,0.863392,10,0.0259164,-1.50102,0.126855,0.465097,0.807596,
2,1,0,1,0,15937.5,0.817761,0.817517,29.8725,24,0.887912,10,0.0244213,-1.52473,0.136884,0.431021,0.804373,
2,1,0,1,0,15938.3,0.813766,0.813462,28.189,24,0.911095,10,0.0229307,-1.54992,0.126409,0.46674,0.801059,
2,1,0,1,0,15939.1,0.809771,0.809501,27.0027,24,0.933062,10,0.0218587,-1.56859,0.176469,0.334336,0.79762,
2,1,0,1,0,15939.9,0.805776,0.805536,25.3825,24,0.953959,10,0.0204465,-1.59547,0.124414,0.474224,0.794368,
2,1,0,0,0,15940.7,0.801781,0.801494,23.8419,24,0.973608,10,0.0191092,-1.62266,0.122766,0.480587,0.791003,
2,1,0,1,0,15941.5,0.797786,0.797515,22.3316,24,0.992049,10,0.0178098,-1.65108,0.112346,0.525165,0.787689,
2,1,0,1,0,15942.3,0.79379,0.793506,20.8747,24,1.00929,10,0.0165642,-1.68038,0.115704,0.509921,0.784321,
2,1,0,1,0,15943.1,0.789795,0.789494,19.5034,24,1.0254,10,0.0153979,-1.70989,0.114086,0.517156,0.780913,
2,1,0,1,0,15943.9,0.7858,0.785501,18.1901,24,1.04045,10,0.0142884,-1.74016,0.109538,0.538625,0.777497,
2,1,0,0,0,15944.7,0.781805,0.781524,16.9193,24,1.05446,10,0.0132228,-1.77162,0.110365,0.534591,0.77408,
2,1,0,1,0,15945.5,0.77781,0.777527,15.7145,24,1.06748,10,0.0122184,-1.8037,0.108658,0.542986,0.770613,
2,1,0,0,0,15946.3,0.773815,0.773557,14.554,24,1.07956,10,0.0112584,-1.83702,0.100701,0.585895,0.767154,
2,1,0,1,0,15947.1,0.769819,0.76959,13.4439,24,1.09073,10,0.0103463,-1.87147,0.0993707,0.593737,0.763675,
2,1,0,1,0,15947.9,0.765824,0.765583,12.4021,24,1.10103,10,0.00949482,-1.90651,0.101916,0.578908,0.760126,
2,1,0,1,0,15948.7,0.761829,0.761596,11.4198,24,1.11053,10,0.00869728,-1.94234,0.100515,0.586978,0.756571,
2,1,0,1,0,15949.5,0.757834,0.757564,10.4905,24,1.11927,10,0.00794723,-1.9792,0.0945383,0.624086,0.752948,
2,1,0,0,0,15950.3,0.753839,0.753604,9.62146,24,1.12729,10,0.00725076,-2.01676,0.0953178,0.618982,0.74937,
2,1,0,1,0,15951.1,0.749844,0.749598,8.80544,24,1.13464,10,0.00660054,-2.05525,0.091949,0.64166,0.745724,
2,1,0,1,0,15951.9,0.745848,0.745562,8.04049,24,1.14135,10,0.00599469,-2.09472,0.0928885,0.63517,0.742024,
2,1,0,1,0,15952.7,0.741853,0.741606,7.31683,24,1.14747,10,0.0054262,-2.13568,0.0880373,0.67017,0.738387,
2,1,0,1,0,15953.5,0.737858,0.737607,6.64598,24,1.15303,10,0.00490212,-2.17744,0.0890878,0.662268,0.734682,
2,1,0,0,0,15954.3,0.733863,0.733604,6.01636,24,1.15808,10,0.00441362,-2.22067,0.0847017,0.696562,0.730957,
2,1,0,1,0,15955.1,0.729868,0.729612,5.42875,24,1.16264,10,0.00396088,-2.2653,0.0821188,0.718471,0.727223,
2,1,0,1,0,15955.9,0.725872,0.725609,4.8834,24,1.16674,10,0.00354344,-2.31128,0.0804139,0.733704,0.723461,
2,1,0,1,0,15956.7,0.721877,0.721579,4.37113,24,1.17042,10,0.00315411,-2.35941,0.0778195,0.758164,0.719656,
2,1,0,1,0,15957.5,0.717882,0.717623,3.89827,24,1.17371,10,0.00279749,-2.40913,0.0741333,0.795863,0.715908,
2,1,0,0,0,15958.2,0.713887,0.713636,3.46462,24,1.17664,10,0.00247248,-2.46034,0.0725939,0.812741,0.712111,
2,1,0,1,0,15959,0.709892,0.709604,3.06153,24,1.17923,10,0.00217248,-2.51406,0.0709557,0.831504,0.708257,
2,1,0,0,0,15959.8,0.705897,0.705617,2.69606,24,1.18152,10,0.00190239,-2.56927,0.0684123,0.862418,0.704431,
2,1,0,1,0,15960.6,0.701901,0.701638,2.3624,24,1.18353,10,0.00165755,-2.62665,0.0652378,0.904384,0.700598,
2,1,0,1,0,15961.4,0.697906,0.69762,2.05689,24,1.18528,10,0.00143493,-2.68679,0.0638901,0.923461,0.696715,
2,1,0,1,0,15962.2,0.693911,0.693632,1.78336,24,1.1868,10,0.00123699,-2.74876,0.0609814,0.967508,0.692848,
2,1,0,1,0,15963,0.689916,0.689662,1.53561,24,1.18811,10,0.00105905,-2.81372,0.0592059,0.996522,0.688986,
2,1,0,0,0,15963.8,0.685921,0.685638,1.3166,24,1.18924,10,0.000902709,-2.88055,0.0566615,1.04127,0.685059,
2,1,0,1,0,15964.6,0.681926,0.681618,1.11852,24,1.1902,10,0.000762401,-2.95136,0.0538665,1.0953,0.681126,
2,1,0,1,0,15965.4,0.67793,0.677655,0.94481,24,1.19101,10,0.000640255,-3.02466,0.0519943,1.13474,0.677239,
2,1,0,1,0,15966.2,0.673935,0.673677,0.791801,24,1.19169,10,0.000533418,-3.10138,0.0498339,1.18393,0.673328,
2,1,0,1,0,15967,0.66994,0.669661,0.657755,24,1.19225,10,0.000440473,-3.18194,0.0483512,1.22024,0.669372,
2,1,0,0,0,15967.8,0.665945,0.665647,0.540508,24,1.19272,10,0.000359788,-3.2672,0.0460913,1.28007,0.665409,
2,1,0,1,0,15968.6,0.66195,0.661723,0.440575,24,1.1931,10,0.000291538,-3.35598,0.042498,1.3883,0.661529,
2,1,0,0,0,15969.4,0.657955,0.657679,0.352586,24,1.19341,10,0.000231888,-3.45274,0.0404055,1.4602,0.657524,
2,1,0,1,0,15970.2,0.653959,0.653676,0.280182,24,1.19365,10,0.000183148,-3.55256,0.0371111,1.58982,0.653553,
2,1,0,1,0,15971,0.649964,0.649702,0.217943,24,1.19383,10,0.000141598,-3.66166,0.0355076,1.66162,0.649606,
2,1,0,1,0,15971.8,0.64597,0.645665,0.164465,24,1.19397,10,0.000106189,-3.78393,0.0303204,1.94589,0.645593,
2,1,0,1,0,15972.6,0.641974,0.641684,0.118812,24,1.19408,10,7.62398e-05,-3.92514,0.0257206,2.29388,0.641632,
2,1,0,0,0,15973.4,0.637979,0.637657,0.0815364,24,1.19414,10,5.19922e-05,-4.08865,0.0218221,2.70368,0.637621,
2,1,0,1,0,15974.2,0.633983,0.633685,0.0492086,24,1.19419,10,3.11827e-05,-4.30796,0.0161874,3.6448,0.633663,
2,1,0,1,0,15975,0.629988,0.629715,0.0227607,24,1.1942,10,1.43328e-05,-4.64281,0.00776613,7.59709,0.629705,
2,0,0,1,0,15975.8,0.625993,0.625656,0.00145957,24,1.1942,10,9.13187e-07,-5.83578,0.0326076,1.80939,0.625655,
2,0,0,1,0,15976.6,0.621998,0.621715,-0.0166068,24,1.19418,10,-1.03247e-05,-4.77971,-0.0087323,-6.75653,0.621723,
2,0,0,0,0,15977.4,0.618003,0.617749,-0.0323575,24,1.19415,10,-1.99888e-05,-4.49003,-0.0184903,-3.19087,0.617763,
2,0,0,1,0,15978.2,0.614008,0.613739,-0.0445437,24,1.19411,10,-2.73382e-05,-4.35121,-0.0399577,-1.47656,0.613759,
2,0,0,1,0,15979,0.610012,0.609707,-0.0552378,24,1.19406,10,-3.36789e-05,-4.25776,-0.0513308,-1.14941,0.609731,
2,0,0,1,0,15979.8,0.606017,0.60572,-0.0632414,24,1.194,10,-3.83066e-05,-4.199,-0.0738888,-0.798497,0.605748,
2,0,0,1,0,15980.6,0.602022,0.601745,-0.0720818,24,1.19393,10,-4.33749e-05,-4.14217,-0.101865,-0.579199,0.601777,
2,0,0,0,0,15981.4,0.598027,0.59774,-0.0784948,24,1.19386,10,-4.69195e-05,-4.10516,-0.116818,-0.505059,0.597774,
2,0,0,1,0,15982.2,0.594032,0.593742,-0.0832444,24,1.19379,10,-4.94257e-05,-4.07964,-0.132119,-0.446566,0.593779,
2,0,0,0,0,15983,0.590037,0.589724,-0.0888612,24,1.19371,10,-5.24036e-05,-4.05129,-0.204403,-0.288645,0.589763,
2,0,0,1,0,15983.8,0.586041,0.585736,-0.0923868,24,1.19362,10,-5.41143e-05,-4.03439,-0.199417,-0.295862,0.585777,
2,0,0,1,0,15984.6,0.582046,0.581704,-0.0964375,24,1.19354,10,-5.60981e-05,-4.01575,-0.331386,-0.17804,0.581746,
2,0,0,1,0,15985.4,0.578052,0.577743,-0.0992407,24,1.19345,10,-5.73356e-05,-4.00331,-0.336197,-0.175492,0.577787,
2,0,0,1,0,15986.2,0.574056,0.573813,-0.100782,24,1.19335,10,-5.78302e-05,-3.99662,-0.390643,-0.151033,0.573857,
2,0,0,0,0,15987,0.570061,0.569754,-0.104144,24,1.19326,10,-5.93363e-05,-3.98237,-0.637369,-0.092568,0.5698,
2,0,0,1,0,15987.8,0.566065,0.565762,-0.106374,24,1.19317,10,-6.01825e-05,-3.97316,-0.373493,-0.157968,0.565809,
2,0,0,1,0,15988.6,0.56207,0.561786,-0.107234,24,1.19307,10,-6.02427e-05,-3.96967,-0.425496,-0.138662,0.561834,
2,0,0,1,0,15989.4,0.558075,0.557762,-0.109059,24,1.19297,10,-6.08288e-05,-3.96234,-0.700831,-0.0841858,0.55781,
2,0,0,1,0,15990.2,0.55408,0.553795,-0.110573,24,1.19287,10,-6.12347e-05,-3.95635,-0.859954,-0.0686083,0.553843,
2,0,0,0,0,15991,0.550085,0.549779,-0.112312,24,1.19277,10,-6.17467e-05,-3.94957,-1.99638,-0.0295535,0.549828,
2,0,0,1,0,15991.8,0.54609,0.545794,-0.113153,24,1.19267,10,-6.1758e-05,-3.94634,-0.635082,-0.0929014,0.545843,
2,0,0,1,0,15992.6,0.542094,0.541786,-0.113861,24,1.19257,10,-6.16885e-05,-3.94362,-0.969621,-0.0608485,0.541836,
2,0,0,1,0,15993.4,0.538099,0.537803,-0.115363,24,1.19247,10,-6.20426e-05,-3.93793,0.223069,0.264492,0.537854,
2,0,0,1,0,15994.2,0.534104,0.533861,-0.115676,24,1.19236,10,-6.17547e-05,-3.93676,-0.153948,-0.383245,0.533912,
2,0,0,0,0,15995,0.530109,0.529784,-0.117162,24,1.19226,10,-6.20704e-05,-3.93121,-1.25215,-0.0471189,0.529835,
2,0,0,1,0,15995.8,0.526114,0.525821,-0.119089,24,1.19215,10,-6.26195e-05,-3.92413,-1.33496,-0.0441961,0.525873,
2,0,0,0,0,15996.6,0.522119,0.52187,-0.118845,24,1.19205,10,-6.20214e-05,-3.92502,-0.596175,-0.0989643,0.521922,
2,0,0,1,0,15997.4,0.518123,0.517828,-0.119557,24,1.19194,10,-6.19101e-05,-3.92242,-2.75021,-0.0214529,0.517881,
2,0,0,1,0,15998.2,0.514128,0.513874,-0.121042,24,1.19183,10,-6.22005e-05,-3.91706,-1.97066,-0.0299392,0.513927,
2,0,0,1,0,15999,0.510133,0.509857,-0.121478,24,1.19172,10,-6.19364e-05,-3.9155,-0.609163,-0.0968542,0.50991,
2,0,0,1,0,15999.8,0.506138,0.505837,-0.122943,24,1.19161,10,-6.21894e-05,-3.91029,9.41718,0.00626514,0.505892,
2,0,0,0,0,16000.6,0.502143,0.501813,-0.123933,24,1.1915,10,-6.21911e-05,-3.90681,-0.596907,-0.0988429,0.501868,
2,0,0,1,0,16001.4,0.498148,0.497791,-0.125115,24,1.19139,10,-6.2281e-05,-3.90269,-1.15644,-0.0510186,0.497846,
2,0,0,1,0,16002.2,0.494152,0.493871,-0.126116,24,1.19128,10,-6.2285e-05,-3.89923,-1.90046,-0.0310451,0.493926,
2,0,0,1,0,16003,0.490157,0.489846,-0.127423,24,1.19117,10,-6.24177e-05,-3.89475,-0.514892,-0.114587,0.489902,
2,0,0,1,0,16003.8,0.486162,0.485863,-0.130043,24,1.19105,10,-6.31829e-05,-3.88591,-0.780833,-0.0755604,0.48592,
2,0,0,0,0,16004.6,0.482167,0.481857,-0.129993,24,1.19094,10,-6.2638e-05,-3.88608,-268.472,-0.000219762,0.481915,
2,0,0,1,0,16005.4,0.478172,0.477845,-0.130558,24,1.19082,10,-6.23865e-05,-3.8842,-0.91473,-0.0644999,0.477902,
2,0,0,0,0,16006.2,0.474177,0.47387,-0.131853,24,1.1907,10,-6.24814e-05,-3.87991,1.62322,0.0363475,0.473928,
2,0,0,1,0,16007,0.470181,0.469823,-0.132543,24,1.19058,10,-6.22717e-05,-3.87764,-0.392551,-0.150299,0.469881,
2,0,0,1,0,16007.8,0.466186,0.465847,-0.134598,24,1.19046,10,-6.27023e-05,-3.87096,-1.45374,-0.0405851,0.465907,
2,0,0,1,0,16008.6,0.462191,0.461851,-0.136938,24,1.19034,10,-6.32449e-05,-3.86348,-0.686361,-0.0859606,0.461911,
2,0,0,1,0,16009.4,0.458196,0.457899,-0.137423,24,1.19022,10,-6.2926e-05,-3.86194,-0.638403,-0.0924181,0.457959,
2,0,0,0,0,16010.2,0.454201,0.4539,-0.139043,24,1.1901,10,-6.31116e-05,-3.85685,-0.935524,-0.0630663,0.453961,
2,0,0,1,0,16011,0.450205,0.449959,-0.141227,24,1.18997,10,-6.35462e-05,-3.85008,-1.11858,-0.0527453,0.450021,
2,0,0,1,0,16011.8,0.44621,0.445953,-0.141981,24,1.18985,10,-6.33167e-05,-3.84777,-0.685101,-0.0861187,0.446016,
2,0,0,1,0,16012.6,0.442215,0.441899,-0.143956,24,1.18972,10,-6.36141e-05,-3.84177,-2.11356,-0.0279149,0.441963,
2,0,0,1,0,16013.4,0.43822,0.437949,-0.144701,24,1.18959,10,-6.33717e-05,-3.83953,-0.575165,-0.102579,0.438013,
2,0,0,0,0,16014.2,0.434225,0.433958,-0.147332,24,1.18946,10,-6.39359e-05,-3.8317,-0.607075,-0.0971873,0.434023,
2,0,0,1,0,16015,0.43023,0.429914,-0.148904,24,1.18933,10,-6.40162e-05,-3.82709,-0.77666,-0.0759663,0.42998,
2,0,0,1,0,16015.8,0.426234,0.425969,-0.150094,24,1.1892,10,-6.39354e-05,-3.82364,-0.838461,-0.070367,0.426036,
2,0,0,1,0,16016.6,0.422239,0.421916,-0.153277,24,1.18907,10,-6.46699e-05,-3.81452,-0.97563,-0.0604738,0.421983,
2,0,0,1,0,16017.4,0.418244,0.417948,-0.155244,24,1.18893,10,-6.48841e-05,-3.80898,-0.897733,-0.0657211,0.418016,
2,0,0,0,0,16018.2,0.414249,0.413968,-0.155319,24,1.1888,10,-6.42972e-05,-3.80877,-0.697106,-0.0846356,0.414036,
2,0,0,1,0,16019,0.410254,0.40994,-0.157092,24,1.18866,10,-6.43982e-05,-3.80385,-3.93284,-0.0150019,0.410009,
2,0,0,0,0,16019.8,0.406259,0.405986,-0.159314,24,1.18852,10,-6.46793e-05,-3.79775,-0.358556,-0.164549,0.406056,
2,0,0,1,0,16020.6,0.402263,0.401957,-0.161178,24,1.18838,10,-6.47864e-05,-3.7927,-0.835551,-0.0706121,0.402027,
2,0,0,1,0,16021.4,0.398268,0.397952,-0.163074,24,1.18823,10,-6.48955e-05,-3.78762,-0.871085,-0.0677316,0.398024,
2,0,0,1,0,16022.2,0.394274,0.394006,-0.166224,24,1.18809,10,-6.54934e-05,-3.77931,-0.53883,-0.109496,0.39408,
2,0,0,1,0,16023,0.390278,0.389958,-0.167504,24,1.18794,10,-6.53196e-05,-3.77597,-1.71773,-0.0343476,0.390032,
2,0,0,0,0,16023.8,0.386283,0.385979,-0.169667,24,1.18779,10,-6.54877e-05,-3.7704,-0.605591,-0.0974254,0.386053,
2,0,0,1,0,16024.6,0.382287,0.382021,-0.170964,24,1.18764,10,-6.53118e-05,-3.7671,-0.96422,-0.0611893,0.382096,
2,0,0,1,0,16025.4,0.378292,0.377977,-0.173953,24,1.18749,10,-6.57502e-05,-3.75957,-1.09396,-0.0539323,0.378053,
2,0,0,1,0,16026.2,0.374297,0.373972,-0.175007,24,1.18734,10,-6.54475e-05,-3.75695,-0.555488,-0.106213,0.374049,
2,0,0,1,0,16027,0.370303,0.369989,-0.177653,24,1.18718,10,-6.57297e-05,-3.75043,-2.32172,-0.0254122,0.370067,
2,0,0,0,0,16027.8,0.366307,0.365988,-0.17943,24,1.18703,10,-6.5669e-05,-3.74611,-0.466582,-0.126452,0.366067,
2,0,0,1,0,16028.6,0.362312,0.362015,-0.18152,24,1.18687,10,-6.57129e-05,-3.74108,-1.00228,-0.0588657,0.362094,
2,0,0,1,0,16029.4,0.358316,0.358027,-0.183531,24,1.18671,10,-6.57092e-05,-3.73629,-1.13217,-0.0521121,0.358108,
2,0,0,1,0,16030.2,0.354321,0.354011,-0.185983,24,1.18655,10,-6.58401e-05,-3.73053,-0.730861,-0.0807267,0.354093,
2,0,0,1,0,16031,0.350327,0.350052,-0.188152,24,1.18638,10,-6.58629e-05,-3.72549,-0.44316,-0.133135,0.350135,
2,0,0,0,0,16031.8,0.346331,0.345996,-0.191745,24,1.18622,10,-6.63431e-05,-3.71728,3.77762,0.0156183,0.34608,
2,0,0,1,0,16032.6,0.342336,0.342019,-0.193325,24,1.18605,10,-6.61209e-05,-3.71371,-0.388063,-0.152037,0.342105,
2,0,0,0,0,16033.4,0.338341,0.338028,-0.195662,24,1.18588,10,-6.61393e-05,-3.70849,-0.622796,-0.094734,0.338114,
2,0,0,1,0,16034.2,0.334345,0.334049,-0.197826,24,1.18571,10,-6.60834e-05,-3.70372,-1.11742,-0.0528004,0.334136,
2,0,0,1,0,16035,0.33035,0.330041,-0.199753,24,1.18554,10,-6.59267e-05,-3.69951,-1.07398,-0.054936,0.330129,
2,0,0,1,0,16035.8,0.326355,0.326013,-0.202888,24,1.18536,10,-6.61441e-05,-3.69274,-0.968683,-0.0609074,0.326102,
2,0,0,1,0,16036.6,0.32236,0.322056,-0.203681,24,1.18518,10,-6.55968e-05,-3.69105,-0.527019,-0.11195,0.322146,
2,0,0,0,0,16037.4,0.318365,0.318037,-0.206408,24,1.185,10,-6.56454e-05,-3.68527,-0.78756,-0.0749149,0.318128,
2,0,0,1,0,16038.2,0.31437,0.314014,-0.210042,24,1.18482,10,-6.59563e-05,-3.67769,-1.40624,-0.0419557,0.314107,
2,0,0,1,0,16039,0.310374,0.310062,-0.2126,24,1.18464,10,-6.59191e-05,-3.67244,-0.579097,-0.101883,0.310156,
2,0,0,1,0,16039.8,0.306379,0.306079,-0.214763,24,1.18446,10,-6.57343e-05,-3.66804,-0.85184,-0.0692618,0.306174,
2,0,0,1,0,16040.6,0.302385,0.302083,-0.217109,24,1.18427,10,-6.5585e-05,-3.66332,-0.541575,-0.108941,0.302179,
2,0,0,0,0,16041.3,0.298389,0.298095,-0.219725,24,1.18408,10,-6.54989e-05,-3.65812,-0.738077,-0.0799374,0.298192,
2,0,0,1,0,16042.1,0.294394,0.294045,-0.22229,24,1.18389,10,-6.5363e-05,-3.65308,-1.35316,-0.0436018,0.294142,
2,0,0,1,0,16042.9,0.290398,0.29008,-0.225201,24,1.18369,10,-6.53265e-05,-3.64743,-0.689078,-0.0856217,0.29018,
2,0,0,1,0,16043.7,0.286403,0.286063,-0.227164,24,1.1835,10,-6.49833e-05,-3.64366,-0.737539,-0.0799958,0.286163,
2,0,0,1,0,16044.5,0.282408,0.282095,-0.229473,24,1.1833,10,-6.47332e-05,-3.63927,-17.2543,-0.00341944,0.282196,
2,0,0,1,0,16045.3,0.278414,0.278098,-0.231625,24,1.1831,10,-6.44143e-05,-3.63522,-0.477801,-0.123482,0.2782,
2,0,0,1,0,16046.1,0.274418,0.274098,-0.235527,24,1.1829,10,-6.45575e-05,-3.62796,-0.892507,-0.0661059,0.274202,
2,0,0,0,0,16046.9,0.270423,0.270104,-0.238586,24,1.1827,10,-6.44431e-05,-3.62235,-0.68365,-0.0863015,0.270209,
2,0,0,1,0,16047.7,0.266427,0.266124,-0.240858,24,1.18249,10,-6.40981e-05,-3.61824,-1.85731,-0.0317664,0.26623,
2,0,0,1,0,16048.5,0.262432,0.262148,-0.242576,24,1.18228,10,-6.3591e-05,-3.61515,-0.686812,-0.0859041,0.262255,
2,0,0,1,0,16049.3,0.258437,0.258144,-0.245532,24,1.18207,10,-6.33825e-05,-3.60989,-0.722806,-0.0816263,0.258252,
2,0,0,1,0,16050.1,0.254442,0.254147,-0.247183,24,1.18186,10,-6.28208e-05,-3.60698,-1.16726,-0.0505455,0.254256,
2,0,0,0,0,16050.9,0.250447,0.250119,-0.250175,24,1.18165,10,-6.25736e-05,-3.60176,-2.28432,-0.0258283,0.250229,
2,0,0,1,0,16051.7,0.246452,0.246133,-0.253517,24,1.18143,10,-6.23989e-05,-3.59599,-1.11862,-0.0527434,0.246245,
2,0,0,1,0,16052.5,0.242456,0.24213,-0.254904,24,1.18121,10,-6.172e-05,-3.59362,-0.593136,-0.0994714,0.242242,
2,0,0,1,0,16053.3,0.238461,0.238192,-0.257539,24,1.18099,10,-6.13437e-05,-3.58916,-0.783231,-0.075329,0.238305,
2,0,0,1,0,16054.1,0.234467,0.234192,-0.259716,24,1.18077,10,-6.08235e-05,-3.5855,-1.19359,-0.0494305,0.234307,
2,0,0,0,0,16054.9,0.230471,0.230185,-0.263443,24,1.18055,10,-6.06406e-05,-3.57931,-0.792934,-0.0744072,0.230301,
2,0,0,1,0,16055.7,0.226476,0.226176,-0.264908,24,1.18032,10,-5.9916e-05,-3.5769,-0.755628,-0.0780807,0.226293,
2,0,0,0,0,16056.5,0.222481,0.222182,-0.267412,24,1.1801,10,-5.9414e-05,-3.57282,-1.78823,-0.0329936,0.2223,
2,0,0,1,0,16057.3,0.218485,0.218149,-0.271136,24,1.17987,10,-5.9148e-05,-3.56681,-2.07628,-0.0284163,0.218268,
2,0,0,1,0,16058.1,0.21449,0.214188,-0.273339,24,1.17963,10,-5.85458e-05,-3.5633,-0.579011,-0.101898,0.214308,
2,0,0,1,0,16058.9,0.210496,0.210185,-0.276808,24,1.1794,10,-5.81809e-05,-3.55782,-0.738152,-0.0799294,0.210307,
2,0,0,1,0,16059.7,0.2065,0.206155,-0.281031,24,1.17916,10,-5.7936e-05,-3.55125,-0.558743,-0.105594,0.206279,
2,0,0,0,0,16060.5,0.202505,0.202181,-0.282792,24,1.17892,10,-5.71751e-05,-3.54853,-1.15413,-0.0511209,0.202305,
2,0,0,1,0,16061.3,0.198509,0.198183,-0.287033,24,1.17868,10,-5.68851e-05,-3.54207,-0.687421,-0.0858281,0.19831,
2,0,0,1,0,16062.1,0.194514,0.194209,-0.291535,24,1.17843,10,-5.66188e-05,-3.53531,-0.708129,-0.0833182,0.194337,
2,0,0,1,0,16062.9,0.190519,0.190211,-0.293752,24,1.17818,10,-5.58748e-05,-3.53202,-0.770808,-0.0765431,0.19034,
2,0,0,1,0,16063.7,0.186524,0.186217,-0.300034,24,1.17793,10,-5.58715e-05,-3.52283,-0.614612,-0.0959955,0.186349,
2,0,0,0,0,16064.5,0.182529,0.182204,-0.30546,24,1.17767,10,-5.56558e-05,-3.51505,-0.315095,-0.187245,0.182338,
2,0,0,1,0,16065.3,0.178534,0.178191,-0.311447,24,1.17741,10,-5.54971e-05,-3.50662,-0.427672,-0.137956,0.178328,
2,0,0,1,0,16066.1,0.174538,0.174194,-0.31918,24,1.17714,10,-5.55993e-05,-3.49596,-0.418218,-0.141075,0.174334,
2,0,0,1,0,16066.9,0.170543,0.170214,-0.328812,24,1.17687,10,-5.59684e-05,-3.48305,-0.255198,-0.231193,0.170358,
2,0,0,1,0,16067.7,0.166549,0.166242,-0.340771,24,1.17659,10,-5.66505e-05,-3.46754,-0.25502,-0.231354,0.166392,
2,0,0,0,0,16068.5,0.162553,0.162211,-0.355038,24,1.17629,10,-5.75909e-05,-3.44973,-0.196588,-0.30012,0.162367,
2,0,0,1,0,16069.3,0.158558,0.158198,-0.371848,24,1.17599,10,-5.88257e-05,-3.42963,-0.1746,-0.337916,0.158362,
2,0,0,0,0,16070.1,0.154563,0.154265,-0.396339,24,1.17566,10,-6.11413e-05,-3.40193,-0.138919,-0.424707,0.154439,
2,0,0,1,0,16070.9,0.150567,0.150244,-0.426459,24,1.17532,10,-6.40728e-05,-3.37012,-0.104788,-0.56304,0.150431,
2,0,0,1,0,16071.7,0.146572,0.146288,-0.469014,24,1.17495,10,-6.86109e-05,-3.32881,-0.0919971,-0.641325,0.146494,
2,0,0,1,0,16072.5,0.142578,0.142244,-0.523928,24,1.17454,10,-7.45255e-05,-3.28073,-0.0828935,-0.711756,0.142474,
2,0,0,1,0,16073.3,0.138582,0.138313,-0.583905,24,1.17408,10,-8.07618e-05,-3.23366,-0.0819436,-0.720008,0.13857,
2,0,0,0,0,16074.1,0.134587,0.13424,-0.645857,24,1.17357,10,-8.67001e-05,-3.18986,-0.102697,-0.574503,0.134524,
2,0,0,1,0,16074.9,0.130591,0.130254,-0.700359,24,1.17301,10,-9.12245e-05,-3.15468,-0.13408,-0.440035,0.130562,
2,0,0,1,0,16075.7,0.126596,0.126268,-0.737816,24,1.17242,10,-9.31626e-05,-3.13205,-0.226987,-0.259927,0.126593,
2,0,0,1,0,16076.5,0.122602,0.12229,-0.763034,24,1.1718,10,-9.33111e-05,-3.11746,-0.500499,-0.117882,0.122625,
2,0,0,1,0,16077.3,0.118607,0.118278,-0.768861,24,1.17118,10,-9.09396e-05,-3.11415,-1.30462,-0.0452238,0.118617,
2,0,0,0,0,16078.1,0.114611,0.114282,-0.768796,24,1.17054,10,-8.78598e-05,-3.11419,0.913125,0.0646133,0.114621,
2,0,0,1,0,16078.9,0.110616,0.11029,-0.760327,24,1.16992,10,-8.38564e-05,-3.119,0.826834,0.0713566,0.110624,
2,0,0,1,0,16079.7,0.10662,0.106302,-0.749873,24,1.1693,10,-7.97132e-05,-3.12501,0.608495,0.0969605,0.106632,
2,0,0,1,0,16080.5,0.102625,0.102321,-0.737679,24,1.16869,10,-7.548e-05,-3.13213,0.44744,0.131861,0.102646,
2,0,0,1,0,16081.3,0.0986305,0.0983159,-0.722327,24,1.16809,10,-7.10162e-05,-3.14127,0.528196,0.111701,0.0986337,
2,0,0,0,0,16082.1,0.0946351,0.094299,-0.705886,24,1.1675,10,-6.65643e-05,-3.15127,0.452546,0.130374,0.0946096,
2,0,0,1,0,16082.9,0.0906399,0.0903172,-0.694047,24,1.16692,10,-6.26844e-05,-3.15861,0.403407,0.146254,0.0906225,
2,0,0,0,0,16083.7,0.0866448,0.0863067,-0.681065,24,1.16636,10,-5.87805e-05,-3.16681,0.508701,0.115982,0.0866064,
2,0,0,1,0,16084.5,0.0826492,0.0823827,-0.669563,24,1.1658,10,-5.51604e-05,-3.17421,0.618404,0.0954069,0.0826774,
2,0,0,1,0,16085.3,0.0786544,0.0783493,-0.659294,24,1.16526,10,-5.16552e-05,-3.18092,0.585707,0.100733,0.0786394,
2,0,0,1,0,16086.1,0.0746596,0.0743296,-0.648243,24,1.16472,10,-4.81836e-05,-3.18826,0.627731,0.0939894,0.0746148,
2,0,0,1,0,16086.9,0.0706641,0.0703486,-0.638471,24,1.16419,10,-4.49156e-05,-3.19486,0.565591,0.104316,0.0706296,
2,0,0,0,0,16087.7,0.0666689,0.0663488,-0.630018,24,1.16367,10,-4.1801e-05,-3.20065,0.672588,0.0877208,0.066626,
2,0,0,1,0,16088.5,0.0626737,0.0623659,-0.618321,24,1.16315,10,-3.85622e-05,-3.20879,0.658931,0.089539,0.062638,
2,0,0,1,0,16089.3,0.0586783,0.0583903,-0.612442,24,1.16265,10,-3.57607e-05,-3.21294,0.447272,0.131911,0.0586598,
2,0,0,1,0,16090.1,0.0546835,0.0543853,-0.600899,24,1.16215,10,-3.268e-05,-3.2212,0.83772,0.0704292,0.0546497,
2,0,0,1,0,16090.9,0.0506886,0.0503593,-0.590493,24,1.16165,10,-2.97368e-05,-3.22879,0.459092,0.128514,0.0506191,
2,0,0,0,0,16091.7,0.046693,0.046357,-0.57928,24,1.16117,10,-2.68537e-05,-3.23711,0.481934,0.122423,0.0466118,
2,0,0,1,0,16092.5,0.0426979,0.0424133,-0.568858,24,1.1607,10,-2.41271e-05,-3.245,0.486861,0.121185,0.0426636,
2,0,0,1,0,16093.3,0.0387022,0.0383461,-0.556589,24,1.16023,10,-2.1343e-05,-3.25447,0.419285,0.140716,0.038591,
2,0,0,1,0,16094.1,0.0347074,0.0344093,-0.545571,24,1.15977,10,-1.87727e-05,-3.26315,0.528176,0.111705,0.0346493,
2,0,0,1,0,16094.9,0.0307126,0.0304255,-0.534953,24,1.15933,10,-1.62762e-05,-3.27168,0.510647,0.11554,0.0306609,
2,0,0,0,0,16095.7,0.0267172,0.0263821,-0.526068,24,1.15889,10,-1.38788e-05,-3.27896,0.413454,0.1427,0.0266135,
2,0,0,1,0,16096.5,0.022722,0.0223706,-0.518246,24,1.15846,10,-1.15935e-05,-3.28546,0.80312,0.0734635,0.0225986,
2,0,0,0,0,16097.3,0.0187268,0.0183866,-0.51001,24,1.15803,10,-9.37736e-06,-3.29242,0.560404,0.105281,0.018611,
2,0,0,1,0,16098.1,0.0147313,0.014364,-0.505214,24,1.15761,10,-7.25691e-06,-3.29652,1.18442,0.0498133,0.0145863,
2,0,0,1,0,16098.9,0.0107365,0.0104229,-0.499774,24,1.15719,10,-5.20911e-06,-3.30123,2.47525,0.023836,0.0106428,
2,0,0,1,0,16099.7,0.00674163,0.00642538,-0.499315,24,1.15678,10,-3.20829e-06,-3.30163,2.44732,0.024108,0.00664508,
2,0,0,1,0,16100.5,0.00274612,0.00242007,-0.498261,24,1.15637,10,-1.20583e-06,-3.30254,-2.07639,-0.0284147,0.0026393,
2,0,0,0,0,16101,0.000274105,-0.000101048,-0.500291,24,1.15611,10,5.05532e-08,-3.30078, , ,0.000119081,