File: Figure_codes/Fig_3-5/workspace_calculate_alpha_eff/20221101_1-115_003_TrumpetPlot_ParaChange_from10_every3_16_CV_C01_36.csv
mode,ox/red,error,control changes,counter inc.,time/s,control/V,Ewe/V,<I>/mA,cycle number,(Q-Qo)/C,I Range,P/W,log(|I|),Tafel slope mV/dec,alpha_eff,E-IR/V,
2,0,0,1,0,24871.7,2.44065e-05,-0.000268062,-0.0415151,37,0.0000000E+000,10,1.11286e-08,-4.38179, , ,-0.000249795,
2,1,0,1,0,24872.4,0.00379485,0.00351335,0.20842,37,0.000142052,10,7.32253e-07,-3.68106,0.0536096,1.10055,0.00342164,
2,1,0,0,0,24873.2,0.00779002,0.00747821,0.230974,37,0.00033104,10,1.72728e-06,-3.63644,0.0956559,0.616794,0.00737658,
2,1,0,1,0,24874,0.0117852,0.0114675,0.247938,37,0.000535772,10,2.84321e-06,-3.60566,0.1648,0.35801,0.0113584,
2,1,0,1,0,24874.8,0.0157806,0.0154506,0.264356,37,0.00075326,10,4.08444e-06,-3.57781,0.163512,0.36083,0.0153342,
2,1,0,1,0,24875.6,0.0197754,0.0194289,0.276699,37,0.000982096,10,5.37598e-06,-3.55799,0.163735,0.360337,0.0193072,
2,1,0,1,0,24876.4,0.0237704,0.0234677,0.291196,37,0.00122249,10,6.83369e-06,-3.53581,0.190127,0.31032,0.0233395,
2,1,0,0,0,24877.2,0.0277659,0.0274594,0.305021,37,0.00147366,10,8.3757e-06,-3.51567,0.216369,0.272683,0.0273252,
2,1,0,1,0,24878,0.0317611,0.0314487,0.319088,37,0.00173611,10,1.00349e-05,-3.49609,0.195769,0.301376,0.0313083,
2,1,0,1,0,24878.8,0.0357567,0.0354425,0.334781,37,0.00201049,10,1.18655e-05,-3.47524,0.27411,0.215242,0.0352952,
2,1,0,1,0,24879.6,0.0397516,0.039386,0.347585,37,0.00229598,10,1.369e-05,-3.45894,0.197452,0.298807,0.0392331,
2,1,0,1,0,24880.4,0.0437465,0.0434343,0.360023,37,0.00259307,10,1.56373e-05,-3.44367,0.251902,0.234218,0.0432759,
2,1,0,1,0,24881.2,0.0477413,0.0474434,0.374458,37,0.00290055,10,1.77656e-05,-3.4266,0.260203,0.226746,0.0472786,
2,1,0,1,0,24882,0.0517369,0.0513886,0.385947,37,0.00321799,10,1.98333e-05,-3.41347,0.265107,0.222551,0.0512188,
2,1,0,0,0,24882.8,0.0557321,0.0554478,0.399703,37,0.00354593,10,2.21626e-05,-3.39826,0.356941,0.165293,0.055272,
2,1,0,1,0,24883.6,0.0597277,0.0593951,0.410184,37,0.00388231,10,2.4363e-05,-3.38702,0.346729,0.170162,0.0592147,
2,1,0,1,0,24884.4,0.0637226,0.0634308,0.419821,37,0.00422781,10,2.66296e-05,-3.37694,0.37204,0.158585,0.0632461,
2,1,0,1,0,24885.2,0.0677174,0.0673941,0.430582,37,0.00458147,10,2.90187e-05,-3.36594,0.583178,0.10117,0.0672046,
2,1,0,1,0,24886,0.0717128,0.0714027,0.438758,37,0.0049417,10,3.13285e-05,-3.35777,0.422307,0.139709,0.0712096,
2,1,0,0,0,24886.8,0.075708,0.075393,0.444195,37,0.00530879,10,3.34892e-05,-3.35243,0.573746,0.102833,0.0751976,
2,1,0,1,0,24887.6,0.0797031,0.0793727,0.453402,37,0.00568155,10,3.59877e-05,-3.34352,0.513855,0.114818,0.0791732,
2,1,0,1,0,24888.4,0.0836986,0.0834366,0.462202,37,0.00606065,10,3.85645e-05,-3.33517,0.486804,0.121199,0.0832332,
2,1,0,1,0,24889.2,0.0876935,0.0873449,0.472607,37,0.00644784,10,4.12798e-05,-3.3255,0.342085,0.172472,0.087137,
2,1,0,1,0,24890,0.0916883,0.091409,0.487606,37,0.00684432,10,4.45715e-05,-3.31193,0.257058,0.22952,0.0911945,
2,1,0,0,0,24890.8,0.0956838,0.0953318,0.505003,37,0.00725418,10,4.81428e-05,-3.29671,0.232918,0.253308,0.0951096,
2,1,0,1,0,24891.6,0.099679,0.0993592,0.525997,37,0.00767947,10,5.22627e-05,-3.27902,0.249297,0.236666,0.0991278,
2,1,0,0,0,24892.4,0.103674,0.103378,0.548593,37,0.00812228,10,5.67125e-05,-3.26075,0.195413,0.301925,0.103137,
2,1,0,1,0,24893.2,0.10767,0.107338,0.568867,37,0.00858397,10,6.1061e-05,-3.24499,0.268901,0.219412,0.107088,
2,1,0,1,0,24894,0.111664,0.111346,0.589559,37,0.00906162,10,6.5645e-05,-3.22947,0.331278,0.178098,0.111086,
2,1,0,1,0,24894.8,0.115659,0.115326,0.604142,37,0.0095529,10,6.96734e-05,-3.21886,0.334478,0.176394,0.11506,
2,1,0,1,0,24895.6,0.119655,0.119338,0.619097,37,0.0100569,10,7.3882e-05,-3.20824,0.536355,0.110002,0.119066,
2,1,0,0,0,24896.4,0.12365,0.123332,0.631809,37,0.0105704,10,7.79221e-05,-3.19941,0.434451,0.135804,0.123054,
2,1,0,1,0,24897.2,0.127646,0.127335,0.641925,37,0.0110941,10,8.17398e-05,-3.19252,0.585071,0.100842,0.127053,
2,1,0,1,0,24898,0.131641,0.131281,0.648922,37,0.0116257,10,8.51909e-05,-3.18781,-1.41351,-0.0417401,0.130995,
2,1,0,1,0,24898.8,0.135635,0.135309,0.639378,37,0.0121556,10,8.65135e-05,-3.19424,-0.331274,-0.1781,0.135028,
2,1,0,1,0,24899.6,0.139631,0.139303,0.606373,37,0.0126696,10,8.44694e-05,-3.21726,-0.128853,-0.457886,0.139036,
2,1,0,0,0,24900.4,0.143626,0.14334,0.55595,37,0.0131486,10,7.96896e-05,-3.25496,-0.0898619,-0.656563,0.143095,
2,1,0,1,0,24901.2,0.147621,0.1473,0.493355,37,0.0135808,10,7.26713e-05,-3.30684,-0.0738638,-0.798768,0.147083,
2,1,0,1,0,24902,0.151617,0.151297,0.437357,37,0.013965,10,6.61709e-05,-3.35916,-0.0805164,-0.73277,0.151105,
2,1,0,1,0,24902.8,0.155612,0.155304,0.395605,37,0.0143095,10,6.14391e-05,-3.40274,-0.110216,-0.53531,0.15513,
2,1,0,1,0,24903.6,0.159606,0.159304,0.366735,37,0.0146269,10,5.84223e-05,-3.43565,-0.153365,-0.384702,0.159143,
2,1,0,0,0,24904.4,0.163602,0.163293,0.349413,37,0.014926,10,5.70568e-05,-3.45666,-0.184113,-0.320455,0.16314,
2,1,0,1,0,24905.2,0.167597,0.167261,0.336532,37,0.0152126,10,5.62888e-05,-3.47297,-0.342064,-0.172482,0.167113,
2,1,0,0,0,24906,0.171592,0.17125,0.326652,37,0.0154907,10,5.5939e-05,-3.48591,-0.410021,-0.143895,0.171106,
2,1,0,1,0,24906.8,0.175588,0.175246,0.320586,37,0.015762,10,5.61816e-05,-3.49406,-0.452357,-0.130428,0.175105,
2,1,0,1,0,24907.6,0.179582,0.179252,0.314894,37,0.0160279,10,5.64456e-05,-3.50184,-0.780645,-0.0755785,0.179114,
2,1,0,1,0,24908.4,0.183577,0.18325,0.310672,37,0.0162902,10,5.69306e-05,-3.5077,-0.530592,-0.111197,0.183113,
2,1,0,1,0,24909.2,0.187573,0.187246,0.306542,37,0.0165491,10,5.73986e-05,-3.51351,-0.76746,-0.0768769,0.187111,
2,1,0,0,0,24910,0.191568,0.191221,0.303108,37,0.0168053,10,5.79607e-05,-3.5184,-0.77695,-0.0759379,0.191088,
2,1,0,1,0,24910.8,0.195563,0.195285,0.301852,37,0.0170596,10,5.89471e-05,-3.52021,-0.92284,-0.0639331,0.195152,
2,1,0,1,0,24911.6,0.199559,0.199259,0.298021,37,0.0173116,10,5.93834e-05,-3.52575,-1.4141,-0.0417226,0.199128,
2,1,0,1,0,24912.4,0.203553,0.203224,0.294768,37,0.0175618,10,5.99038e-05,-3.53052,-7.02288,-0.00840111,0.203094,
2,1,0,1,0,24913.2,0.207548,0.207239,0.294757,37,0.0178107,10,6.10852e-05,-3.53054,-1.50713,-0.0391473,0.20711,
2,1,0,0,0,24914,0.211544,0.211278,0.292431,37,0.0180577,10,6.17842e-05,-3.53398,-1.26733,-0.0465544,0.211149,
2,1,0,1,0,24914.8,0.215539,0.215274,0.290477,37,0.0183035,10,6.25323e-05,-3.53689,-1.94776,-0.0302912,0.215147,
2,1,0,1,0,24915.6,0.219535,0.219255,0.290704,37,0.0185477,10,6.37382e-05,-3.53655,-1.48839,-0.0396402,0.219127,
2,1,0,1,0,24916.4,0.223529,0.223243,0.287522,37,0.018791,10,6.41873e-05,-3.54133,-1.61079,-0.0366279,0.223117,
2,1,0,1,0,24917.2,0.227524,0.227243,0.287609,37,0.0190334,10,6.53572e-05,-3.5412,-1.8703,-0.0315458,0.227116,
2,1,0,0,0,24918,0.23152,0.231191,0.285164,37,0.0192746,10,6.59273e-05,-3.54491,-60.2187,-0.000979762,0.231066,
2,1,0,1,0,24918.8,0.235515,0.235207,0.283393,37,0.0195151,10,6.66559e-05,-3.54761,-1.11255,-0.0530314,0.235082,
2,1,0,0,0,24919.6,0.23951,0.239232,0.283216,37,0.0197546,10,6.77544e-05,-3.54788,-56.6083,-0.00104225,0.239108,
2,1,0,1,0,24920.4,0.243506,0.243171,0.282731,37,0.0199933,10,6.8752e-05,-3.54863,6.06668,0.00972525,0.243047,
2,1,0,1,0,24921.2,0.2475,0.247179,0.283202,37,0.0202315,10,7.00016e-05,-3.5479,-1.09015,-0.0541208,0.247054,
2,1,0,1,0,24922,0.251495,0.251181,0.281383,37,0.0204686,10,7.06783e-05,-3.5507,-5.31491,-0.0111008,0.251058,
2,1,0,1,0,24922.8,0.255491,0.255171,0.27976,37,0.0207049,10,7.13868e-05,-3.55321,-2.43739,-0.0242062,0.255048,
2,1,0,0,0,24923.6,0.259486,0.259193,0.279525,37,0.0209409,10,7.2451e-05,-3.55358,-1.4264,-0.0413628,0.25907,
2,1,0,1,0,24924.4,0.263481,0.263166,0.279133,37,0.0211758,10,7.34583e-05,-3.55419,-98.7611,-0.000597401,0.263043,
2,1,0,1,0,24925.2,0.267477,0.267201,0.276639,37,0.0214102,10,7.3918e-05,-3.55809,-2.07268,-0.0284656,0.267079,
2,1,0,1,0,24926,0.271471,0.271137,0.275751,37,0.0216439,10,7.47661e-05,-3.55948,-2.03439,-0.0290014,0.271015,
2,1,0,1,0,24926.8,0.275466,0.275156,0.274887,37,0.0218765,10,7.5637e-05,-3.56085,-6.37041,-0.00926158,0.275035,
2,1,0,0,0,24927.6,0.279462,0.279156,0.274631,37,0.0221088,10,7.6665e-05,-3.56125,-4.49225,-0.0131337,0.279036,
2,1,0,1,0,24928.4,0.283457,0.283187,0.273798,37,0.0223401,10,7.7536e-05,-3.56257,-2.32168,-0.0254126,0.283067,
2,1,0,0,0,24929.2,0.287452,0.287153,0.27246,37,0.0225706,10,7.82378e-05,-3.5647,-1.98601,-0.0297078,0.287033,
2,1,0,1,0,24930,0.291448,0.29114,0.272347,37,0.0228006,10,7.92913e-05,-3.56488,-2.48879,-0.0237063,0.291021,
2,1,0,1,0,24930.8,0.295442,0.295134,0.271692,37,0.0230296,10,8.01853e-05,-3.56592,-2.16911,-0.0272001,0.295014,
2,1,0,1,0,24931.6,0.299437,0.299153,0.269918,37,0.0232582,10,8.07468e-05,-3.56877,-7.06922,-0.00834604,0.299034,
2,1,0,1,0,24932.4,0.303433,0.303178,0.269644,37,0.0234861,10,8.17502e-05,-3.56921,-8.03544,-0.00734248,0.303059,
2,1,0,0,0,24933.2,0.307428,0.307119,0.268976,37,0.0237132,10,8.26077e-05,-3.57029,-3.84262,-0.0153541,0.307001,
2,1,0,1,0,24934,0.311424,0.311143,0.26802,37,0.0239397,10,8.33925e-05,-3.57183,-1.37225,-0.0429952,0.311025,
2,1,0,1,0,24934.8,0.315418,0.315074,0.267714,37,0.0241653,10,8.43497e-05,-3.57233,8.62223,0.00684278,0.314956,
2,1,0,1,0,24935.6,0.319413,0.319114,0.266567,37,0.0243903,10,8.50653e-05,-3.57419,-2.50571,-0.0235462,0.318996,
2,1,0,1,0,24936.4,0.323409,0.323122,0.265406,37,0.024615,10,8.57584e-05,-3.57609,-1.69079,-0.034895,0.323005,
2,1,0,0,0,24937.2,0.327404,0.327078,0.265174,37,0.0248388,10,8.67328e-05,-3.57647,5.34866,0.0110308,0.326962,
2,1,0,1,0,24938,0.331399,0.331087,0.263862,37,0.0250622,10,8.73613e-05,-3.57862,-2.11865,-0.0278479,0.330971,
2,1,0,1,0,24938.8,0.335395,0.335089,0.26398,37,0.025285,10,8.84567e-05,-3.57843,-2.66356,-0.0221508,0.334973,
2,1,0,1,0,24939.6,0.339389,0.339108,0.26254,37,0.0255071,10,8.90293e-05,-3.5808,13.8466,0.00426098,0.338992,
2,1,0,1,0,24940.4,0.343384,0.343093,0.262051,37,0.0257289,10,8.9908e-05,-3.58161,-2.26459,-0.0260533,0.342978,
2,1,0,0,0,24941.2,0.34738,0.347057,0.262527,37,0.0259501,10,9.1112e-05,-3.58083,-2.79564,-0.0211043,0.346942,
2,1,0,1,0,24942,0.351375,0.351059,0.261447,37,0.0261708,10,9.17833e-05,-3.58262,-39.7192,-0.00148543,0.350944,
2,1,0,0,0,24942.8,0.35537,0.35507,0.260808,37,0.0263911,10,9.26052e-05,-3.58368,-1.18082,-0.0499653,0.354955,
2,1,0,1,0,24943.6,0.359366,0.359063,0.261393,37,0.0266106,10,9.38565e-05,-3.58271,4.98379,0.0118384,0.358948,
2,1,0,1,0,24944.4,0.36336,0.363079,0.259099,37,0.02683,10,9.40733e-05,-3.58653,-2.89014,-0.0204142,0.362965,
2,1,0,1,0,24945.1,0.367355,0.366995,0.258997,37,0.0270486,10,9.50504e-05,-3.58671,18.7376,0.00314875,0.366881,
2,1,0,1,0,24945.9,0.371351,0.371063,0.258322,37,0.0272668,10,9.58539e-05,-3.58784,7.1389,0.00826458,0.370949,
2,1,0,0,0,24946.7,0.375346,0.375046,0.259094,37,0.0274849,10,9.71721e-05,-3.58654,-1.76487,-0.0334302,0.374932,
2,1,0,1,0,24947.5,0.379342,0.37907,0.258332,37,0.0277025,10,9.79259e-05,-3.58782,17.9712,0.00328304,0.378956,
2,1,0,1,0,24948.3,0.383336,0.383032,0.257568,37,0.0279197,10,9.86568e-05,-3.58911,-2.87404,-0.0205286,0.382919,
2,1,0,1,0,24949.1,0.387331,0.387009,0.257222,37,0.0281366,10,9.95474e-05,-3.58969,-8.36704,-0.00705148,0.386896,
2,1,0,1,0,24949.9,0.391327,0.391013,0.256327,37,0.0283528,10,0.000100227,-3.59121,-2.47375,-0.0238504,0.390901,
2,1,0,0,0,24950.7,0.395322,0.394983,0.255366,37,0.028569,10,0.000100865,-3.59284,9.46323,0.00623465,0.39487,
2,1,0,1,0,24951.5,0.399317,0.398988,0.255549,37,0.0287847,10,0.000101961,-3.59253,-5.22157,-0.0112993,0.398875,
2,1,0,1,0,24952.3,0.403313,0.402977,0.256023,37,0.029,10,0.000103172,-3.59172,-2.73067,-0.0216064,0.402865,
2,1,0,1,0,24953.1,0.407307,0.407033,0.254633,37,0.029215,10,0.000103644,-3.59409,93.4966,0.000631039,0.406921,
2,1,0,1,0,24953.9,0.411302,0.41097,0.255406,37,0.0294296,10,0.000104964,-3.59277,-5.55761,-0.0106161,0.410857,
2,1,0,0,0,24954.7,0.415298,0.414984,0.253256,37,0.0296442,10,0.000105097,-3.59644,-8.6247,-0.00684082,0.414872,
2,1,0,1,0,24955.5,0.419293,0.41897,0.255334,37,0.0298585,10,0.000106977,-3.59289,-2.89323,-0.0203924,0.418858,
2,1,0,0,0,24956.3,0.423288,0.423001,0.254096,37,0.0300725,10,0.000107483,-3.595,2.71408,0.0217385,0.422889,
2,1,0,1,0,24957.1,0.427283,0.426934,0.253423,37,0.0302862,10,0.000108195,-3.59615,-3.31308,-0.0178082,0.426822,
2,1,0,1,0,24957.9,0.431278,0.430991,0.254155,37,0.0304997,10,0.000109539,-3.5949,-12.5985,-0.0046831,0.430879,
2,1,0,1,0,24958.7,0.435273,0.435002,0.25381,37,0.030713,10,0.000110408,-3.59549,1.88588,0.0312852,0.43489,
2,1,0,1,0,24959.5,0.439269,0.439031,0.253372,37,0.0309263,10,0.000111238,-3.59624,-1.55673,-0.0378999,0.438919,
2,1,0,0,0,24960.3,0.443264,0.442971,0.252985,37,0.0311394,10,0.000112065,-3.5969,94.4231,0.000624847,0.44286,
2,1,0,1,0,24961.1,0.447259,0.446955,0.253297,37,0.0313522,10,0.000113213,-3.59637,11.549,0.00510865,0.446844,
2,1,0,1,0,24961.9,0.451254,0.450923,0.253587,37,0.0315657,10,0.000114348,-3.59587,15.9694,0.00369458,0.450812,
2,1,0,1,0,24962.7,0.455249,0.454996,0.253514,37,0.0317787,10,0.000115348,-3.596,10.3247,0.00571446,0.454884,
2,1,0,1,0,24963.5,0.459244,0.458911,0.252892,37,0.0319918,10,0.000116055,-3.59707,-19.4243,-0.00303743,0.458799,
2,1,0,0,0,24964.3,0.46324,0.462874,0.25482,37,0.032205,10,0.000117949,-3.59377,-9.51508,-0.00620069,0.462762,
2,1,0,1,0,24965.1,0.467235,0.46695,0.254525,37,0.0324181,10,0.000118851,-3.59427,5.42333,0.0108789,0.466838,
2,1,0,1,0,24965.9,0.471231,0.470943,0.254332,37,0.0326315,10,0.000119776,-3.5946,6.68615,0.00882421,0.470831,
2,1,0,1,0,24966.7,0.475225,0.47493,0.256093,37,0.0328451,10,0.000121626,-3.5916,4.01839,0.0146825,0.474817,
2,1,0,1,0,24967.5,0.47922,0.478928,0.254803,37,0.0330589,10,0.000122033,-3.59379,9.77291,0.0060371,0.478816,
2,1,0,0,0,24968.3,0.483216,0.482946,0.255226,37,0.0332729,10,0.000123261,-3.59307,-5.26284,-0.0112107,0.482834,
2,1,0,1,0,24969.1,0.487211,0.486917,0.256311,37,0.0334871,10,0.000124802,-3.59123,1.42884,0.0412922,0.486804,
2,1,0,0,0,24969.9,0.491206,0.490903,0.255903,37,0.0337019,10,0.000125624,-3.59192,11.9852,0.00492273,0.49079,
2,1,0,1,0,24970.7,0.495201,0.49491,0.257278,37,0.0339171,10,0.000127329,-3.5896,1.95642,0.0301572,0.494797,
2,1,0,1,0,24971.5,0.499196,0.49887,0.258424,37,0.0341327,10,0.00012892,-3.58767,2.96884,0.0198731,0.498756,
2,1,0,1,0,24972.3,0.503191,0.502884,0.258785,37,0.0343491,10,0.000130139,-3.58706,2.46305,0.0239541,0.50277,
2,1,0,1,0,24973.1,0.507187,0.506859,0.260108,37,0.0345659,10,0.000131838,-3.58485,3.07556,0.0191835,0.506744,
2,1,0,0,0,24973.9,0.511182,0.510875,0.26074,37,0.0347836,10,0.000133206,-3.58379,1.71827,0.0343368,0.510761,
2,1,0,1,0,24974.7,0.515177,0.514879,0.262366,37,0.0350023,10,0.000135087,-3.58109,18.3578,0.00321389,0.514763,
2,1,0,1,0,24975.5,0.519173,0.518829,0.263642,37,0.0352216,10,0.000136785,-3.57898,1.93772,0.0304481,0.518713,
2,1,0,1,0,24976.3,0.523167,0.522851,0.263759,37,0.0354418,10,0.000137907,-3.57879,1.0584,0.0557445,0.522734,
2,1,0,1,0,24977.1,0.527162,0.526866,0.265854,37,0.0356632,10,0.000140069,-3.57536,2.09538,0.0281572,0.526749,
2,1,0,0,0,24977.9,0.531158,0.530882,0.266635,37,0.0358855,10,0.000141552,-3.57408,1.69481,0.0348121,0.530765,
2,1,0,1,0,24978.7,0.535153,0.534867,0.269026,37,0.0361092,10,0.000143893,-3.57021,1.26981,0.0464636,0.534749,
2,1,0,0,0,24979.5,0.539148,0.53887,0.271369,37,0.0363341,10,0.000146232,-3.56644,2.03957,0.0289277,0.538751,
2,1,0,1,0,24980.3,0.543143,0.542854,0.272561,37,0.0365606,10,0.000147961,-3.56454,0.911538,0.0647258,0.542734,
2,1,0,1,0,24981.1,0.547138,0.54687,0.27522,37,0.0367888,10,0.00015051,-3.56032,3.40577,0.0173235,0.546749,
2,1,0,1,0,24981.9,0.551133,0.550861,0.277165,37,0.0370186,10,0.000152679,-3.55726,0.594978,0.0991633,0.550739,
2,1,0,1,0,24982.7,0.555129,0.554823,0.27916,37,0.0372505,10,0.000154884,-3.55415,1.8225,0.0323732,0.5547,
2,1,0,0,0,24983.5,0.559124,0.558837,0.282967,37,0.0374844,10,0.000158132,-3.54826,0.682328,0.0864687,0.558712,
2,1,0,1,0,24984.3,0.56312,0.562823,0.286015,37,0.0377205,10,0.000160976,-3.54361,0.658271,0.0896287,0.562697,
2,1,0,1,0,24985.1,0.567114,0.566824,0.288451,37,0.0379592,10,0.000163501,-3.53993,1.11194,0.0530606,0.566697,
2,1,0,1,0,24985.9,0.571109,0.570783,0.292303,37,0.0382007,10,0.000166842,-3.53417,0.589316,0.100116,0.570654,
2,1,0,1,0,24986.7,0.575105,0.574811,0.296568,37,0.0384454,10,0.000170471,-3.52788,0.699598,0.0843341,0.57468,
2,1,0,0,0,24987.5,0.5791,0.578819,0.301991,37,0.0386937,10,0.000174798,-3.52001,0.604463,0.0976073,0.578686,
2,1,0,1,0,24988.3,0.583095,0.582796,0.306001,37,0.0389456,10,0.000178336,-3.51428,0.508325,0.116067,0.582662,
2,1,0,1,0,24989.1,0.58709,0.586764,0.312429,37,0.0392018,10,0.000183322,-3.50525,0.432578,0.136392,0.586626,
2,1,0,1,0,24989.9,0.591085,0.590776,0.319766,37,0.0394631,10,0.00018891,-3.49517,0.408691,0.144364,0.590635,
2,1,0,1,0,24990.7,0.59508,0.594783,0.326932,37,0.03973,10,0.000194454,-3.48554,0.420925,0.140167,0.594639,
2,1,0,0,0,24991.5,0.599076,0.598777,0.335566,37,0.0400033,10,0.000200929,-3.47422,0.319348,0.184751,0.598629,
2,1,0,1,0,24992.3,0.603071,0.602781,0.344761,37,0.0402837,10,0.000207815,-3.46248,0.310795,0.189836,0.602629,
2,1,0,0,0,24993.1,0.607066,0.606769,0.355539,37,0.0405724,10,0.00021573,-3.44911,0.258164,0.228537,0.606613,
2,1,0,1,0,24993.9,0.611061,0.610802,0.368636,37,0.0408706,10,0.000225163,-3.4334,0.26438,0.223164,0.61064,
2,1,0,1,0,24994.7,0.615056,0.614763,0.383017,37,0.0411797,10,0.000235465,-3.41678,0.203407,0.290059,0.614595,
2,1,0,1,0,24995.5,0.619051,0.618803,0.401011,37,0.0415024,10,0.000248147,-3.39684,0.196381,0.300436,0.618627,
2,1,0,1,0,24996.3,0.623047,0.622796,0.421886,37,0.0418399,10,0.000262749,-3.37481,0.183447,0.321619,0.62261,
2,1,0,0,0,24997.1,0.627042,0.626796,0.444441,37,0.0421943,10,0.000278574,-3.35219,0.165524,0.356443,0.6266,
2,1,0,1,0,24997.9,0.631037,0.630748,0.471008,37,0.0425688,10,0.000297088,-3.32697,0.150186,0.392847,0.630541,
2,1,0,1,0,24998.7,0.635032,0.634771,0.503041,37,0.0429664,10,0.000319316,-3.2984,0.132878,0.444017,0.634549,
2,1,0,1,0,24999.5,0.639027,0.638728,0.539239,37,0.0433915,10,0.000344427,-3.26822,0.12445,0.474085,0.638491,
2,1,0,1,0,25000.3,0.643022,0.642743,0.58258,37,0.0438482,10,0.000374449,-3.23464,0.117845,0.500658,0.642486,
2,1,0,0,0,25001.1,0.647018,0.646749,0.634662,37,0.0443425,10,0.000410467,-3.19746,0.101117,0.58348,0.646469,
2,1,0,1,0,25001.9,0.651013,0.650759,0.69354,37,0.0448819,10,0.000451328,-3.15893,0.0981407,0.601177,0.650454,
2,1,0,1,0,25002.7,0.655008,0.65476,0.764682,37,0.0454731,10,0.000500684,-3.11652,0.0901563,0.654419,0.654424,
2,1,0,1,0,25003.5,0.659003,0.658686,0.847093,37,0.0461256,10,0.000557968,-3.07207,0.0867037,0.680478,0.658313,
2,1,0,1,0,25004.3,0.662998,0.662713,0.943145,37,0.0468491,10,0.000625034,-3.02542,0.0852692,0.691926,0.662298,
2,1,0,0,0,25005.1,0.666994,0.666738,1.05316,37,0.0476547,10,0.000702185,-2.9775,0.0801791,0.735853,0.666275,
2,1,0,1,0,25005.9,0.670989,0.670694,1.1802,37,0.048555,10,0.00079155,-2.92805,0.0791433,0.745483,0.670174,
2,1,0,0,0,25006.7,0.674984,0.674721,1.32833,37,0.0495652,10,0.00089625,-2.8767,0.0758474,0.777878,0.674137,
2,1,0,1,0,25007.5,0.67898,0.678709,1.49474,37,0.0507008,10,0.0010145,-2.82543,0.0765348,0.770891,0.678052,
2,1,0,1,0,25008.3,0.682974,0.682698,1.68262,37,0.0519784,10,0.00114872,-2.77401,0.075047,0.786174,0.681958,
2,1,0,1,0,25009.1,0.686969,0.686687,1.89798,37,0.0534168,10,0.00130332,-2.72171,0.0751347,0.785256,0.685852,
2,1,0,1,0,25009.9,0.690965,0.690699,2.13518,37,0.0550359,10,0.00147477,-2.67057,0.0753383,0.783134,0.68976,
2,1,0,0,0,25010.7,0.69496,0.694691,2.40053,37,0.0568557,10,0.00166763,-2.61969,0.07876,0.749112,0.693634,
2,1,0,1,0,25011.5,0.698955,0.698679,2.69023,37,0.0588968,10,0.0018796,-2.57021,0.0779868,0.756538,0.697495,
2,1,0,1,0,25012.3,0.70295,0.702636,3.00656,37,0.0611813,10,0.00211252,-2.52193,0.0803698,0.734106,0.701313,
2,1,0,1,0,25013.1,0.706945,0.706713,3.35348,37,0.0637299,10,0.00236995,-2.4745,0.0829043,0.711664,0.705238,
2,1,0,1,0,25013.9,0.71094,0.710664,3.72633,37,0.0665659,10,0.00264817,-2.42872,0.0839201,0.70305,0.709025,
2,1,0,0,0,25014.7,0.714936,0.714664,4.12677,37,0.0697117,10,0.00294926,-2.38439,0.0885661,0.666169,0.712849,
2,1,0,1,0,25015.5,0.718931,0.71862,4.55383,37,0.0731874,10,0.00327247,-2.34162,0.0892631,0.660968,0.716616,
2,1,0,1,0,25016.3,0.722927,0.722638,5.00898,37,0.0770168,10,0.00361968,-2.30025,0.0936637,0.629913,0.720434,
2,1,0,1,0,25017.1,0.726921,0.726642,5.49204,37,0.0812203,10,0.00399074,-2.26027,0.0960842,0.614044,0.724225,
2,1,0,1,0,25017.9,0.730916,0.73063,6.00021,37,0.0858193,10,0.00438393,-2.22183,0.0983098,0.600143,0.72799,
2,1,0,1,0,25018.7,0.734911,0.734638,6.53867,37,0.0908369,10,0.00480355,-2.18451,0.103451,0.57032,0.731761,
2,1,0,1,0,25019.5,0.738907,0.738642,7.10291,37,0.0962957,10,0.00524651,-2.14856,0.105294,0.560336,0.735517,
2,1,0,0,0,25020.3,0.742902,0.742628,7.69249,37,0.102214,10,0.00571266,-2.11393,0.110602,0.533445,0.739244,
2,1,0,1,0,25021.1,0.746897,0.746622,8.30975,37,0.108617,10,0.00620424,-2.08041,0.11267,0.523651,0.742966,
2,1,0,1,0,25021.9,0.750892,0.750607,8.95633,37,0.115523,10,0.00672268,-2.04787,0.115354,0.511469,0.746666,
2,1,0,1,0,25022.7,0.754887,0.754622,9.62784,37,0.122956,10,0.00726538,-2.01647,0.119689,0.492945,0.750386,
2,1,0,1,0,25023.5,0.758883,0.758625,10.3365,37,0.130941,10,0.00784156,-1.98562,0.121265,0.486537,0.754076,
2,1,0,0,0,25024.3,0.762878,0.762622,11.0762,37,0.139503,10,0.00844698,-1.95561,0.122567,0.481369,0.757749,
2,1,0,1,0,25025.1,0.766873,0.766638,11.8582,37,0.148674,10,0.00909092,-1.92598,0.123099,0.479289,0.761421,
2,1,0,1,0,25025.9,0.770868,0.770621,12.6911,37,0.158491,10,0.00978003,-1.8965,0.126419,0.466701,0.765037,
2,1,0,1,0,25026.7,0.774863,0.774591,13.571,37,0.168988,10,0.010512,-1.86739,0.119438,0.493979,0.76862,
2,1,0,1,0,25027.4,0.778858,0.778604,14.5273,37,0.180218,10,0.0113111,-1.83781,0.121026,0.487498,0.772212,
2,1,0,0,0,25028.2,0.782854,0.782588,15.5291,37,0.192236,10,0.0121528,-1.80885,0.123881,0.476265,0.775755,
2,1,0,1,0,25029,0.786849,0.786582,16.5754,37,0.20507,10,0.0130379,-1.78054,0.125123,0.471535,0.779289,
2,1,0,0,0,25029.8,0.790844,0.790617,17.6998,37,0.218769,10,0.0139938,-1.75203,0.120823,0.488316,0.782829,
2,1,0,1,0,25030.6,0.794839,0.794596,18.908,37,0.233406,10,0.0150242,-1.72335,0.121626,0.485094,0.786276,
2,1,0,1,0,25031.4,0.798834,0.798591,20.1907,37,0.24903,10,0.0161241,-1.69485,0.123653,0.477141,0.789707,
2,1,0,1,0,25032.2,0.802829,0.802563,21.4879,37,0.265689,10,0.0172454,-1.66781,0.126787,0.465346,0.793109,
2,1,0,1,0,25033,0.806825,0.806531,22.8397,37,0.283406,10,0.0184209,-1.64131,0.12672,0.465595,0.796481,
2,1,0,0,0,25033.8,0.81082,0.810566,24.2607,37,0.302234,10,0.0196649,-1.6151,0.132733,0.444502,0.799892,
2,1,0,1,0,25034.6,0.814815,0.814561,25.6837,37,0.322208,10,0.0209209,-1.59034,0.139682,0.422388,0.803261,
2,1,0,1,0,25035.4,0.81881,0.818537,27.0912,37,0.343306,10,0.0221752,-1.56717,0.14345,0.411293,0.806617,
2,1,0,1,0,25036.2,0.822805,0.822597,28.6347,37,0.365574,10,0.0235548,-1.54311,0.140011,0.421396,0.809998,
2,1,0,1,0,25037,0.826801,0.826527,30.2086,37,0.389097,10,0.0249682,-1.51987,0.157963,0.373504,0.813235,
2,1,0,0,0,25037.8,0.830796,0.830547,31.684,37,0.41381,10,0.026315,-1.49916,0.155351,0.379786,0.816606,
2,1,0,1,0,25038.6,0.834791,0.83453,33.2691,37,0.43976,10,0.0277641,-1.47796,0.158949,0.371187,0.819891,
2,1,0,1,0,25039.4,0.838786,0.838537,34.787,37,0.466971,10,0.0291702,-1.45858,0.172728,0.341577,0.823231,
2,1,0,1,0,25040.2,0.842781,0.842531,36.3774,37,0.495406,10,0.0306491,-1.43917,0.1815,0.325068,0.826525,
2,1,0,1,0,25041,0.846776,0.846529,37.8818,37,0.525067,10,0.0320681,-1.42157,0.185216,0.318548,0.829861,
2,1,0,1,0,25041.7,0.849723,0.849505,38.8748,37,0.552041,10,0.0330243,-1.41033,0.0415221,1.42093,0.8324,
2,1,0,0,0,25042.5,0.845728,0.845476,36.5073,37,0.582061,10,0.0308661,-1.43762,0.128944,0.457563,0.829413,
2,1,0,1,0,25043.3,0.841732,0.841495,34.57,37,0.610436,10,0.0290905,-1.4613,0.132138,0.446503,0.826285,
2,1,0,1,0,25044.1,0.837737,0.837458,32.707,37,0.637286,10,0.0273907,-1.48536,0.138018,0.427479,0.823067,
2,1,0,1,0,25044.9,0.833742,0.833477,31.0218,37,0.662726,10,0.0258559,-1.50833,0.137901,0.427844,0.819827,
2,1,0,1,0,25045.7,0.829747,0.829478,29.3806,37,0.68683,10,0.0243705,-1.53194,0.139791,0.42206,0.816551,
2,1,0,0,0,25046.5,0.825752,0.825516,27.7731,37,0.709648,10,0.0229272,-1.55638,0.134229,0.439548,0.813296,
2,1,0,1,0,25047.3,0.821757,0.821488,26.2921,37,0.731226,10,0.0215986,-1.58018,0.141786,0.416119,0.809919,
2,1,0,1,0,25048.1,0.817761,0.817542,24.829,37,0.751637,10,0.0202988,-1.60504,0.12715,0.464019,0.806618,
2,1,0,1,0,25048.9,0.813766,0.813479,23.3311,37,0.77086,10,0.0189794,-1.63206,0.126115,0.467827,0.803213,
2,1,0,1,0,25049.7,0.809771,0.809491,21.9351,37,0.788928,10,0.0177562,-1.65886,0.120907,0.48798,0.79984,
2,1,0,1,0,25050.5,0.805776,0.80552,20.5387,37,0.805885,10,0.0165444,-1.68743,0.11789,0.500469,0.796483,
2,1,0,1,0,25051.3,0.801781,0.801522,19.2039,37,0.821749,10,0.0153923,-1.71661,0.119049,0.495595,0.793073,
2,1,0,0,0,25052.1,0.797786,0.797545,17.8687,37,0.836558,10,0.0142511,-1.74791,0.105934,0.556951,0.789682,
2,1,0,1,0,25052.9,0.79379,0.793492,16.7018,37,0.850344,10,0.0132527,-1.77724,0.13953,0.422849,0.786144,
2,1,0,1,0,25053.7,0.789795,0.789512,15.7003,37,0.863331,10,0.0123956,-1.80409,0.112152,0.526073,0.782604,
2,1,0,1,0,25054.5,0.7858,0.785567,14.5936,37,0.875417,10,0.0114643,-1.83584,0.112272,0.525508,0.779145,
2,1,0,1,0,25055.3,0.781805,0.781535,13.5591,37,0.886657,10,0.0105969,-1.86777,0.105895,0.557153,0.775569,
2,1,0,0,0,25056.1,0.77781,0.777543,12.5615,37,0.89707,10,0.00976709,-1.90096,0.110521,0.533835,0.772016,
2,1,0,1,0,25056.9,0.773815,0.77355,11.6325,37,0.906722,10,0.00899831,-1.93433,0.104217,0.566124,0.768432,
2,1,0,1,0,25057.7,0.769819,0.769557,10.7465,37,0.915651,10,0.00827002,-1.96873,0.104972,0.562056,0.764828,
2,1,0,1,0,25058.5,0.765824,0.765533,9.92259,37,0.923893,10,0.00759607,-2.00337,0.102977,0.572946,0.761167,
2,1,0,1,0,25059.3,0.761829,0.761533,9.13797,37,0.931494,10,0.00695886,-2.03915,0.103232,0.571529,0.757512,
2,1,0,0,0,25060.1,0.757834,0.757562,8.40988,37,0.938492,10,0.006371,-2.07521,0.100753,0.58559,0.753862,
2,1,0,1,0,25060.9,0.753839,0.753547,7.72291,37,0.944924,10,0.00581958,-2.11222,0.0973018,0.606361,0.750149,
2,1,0,0,0,25061.7,0.749844,0.749571,7.07397,37,0.950822,10,0.00530244,-2.15034,0.0969662,0.608459,0.746458,
2,1,0,1,0,25062.5,0.745848,0.745613,6.47216,37,0.956222,10,0.00482573,-2.18895,0.0964005,0.61203,0.742765,
2,1,0,1,0,25063.3,0.741853,0.741579,5.90274,37,0.961153,10,0.00437735,-2.22895,0.0911033,0.647616,0.738982,
2,1,0,1,0,25064.1,0.737858,0.737602,5.3686,37,0.965643,10,0.00395989,-2.27014,0.091231,0.64671,0.73524,
2,1,0,1,0,25064.9,0.733863,0.733592,4.87207,37,0.969722,10,0.00357411,-2.31229,0.0881758,0.669118,0.731448,
2,1,0,0,0,25065.7,0.729868,0.729586,4.40371,37,0.973415,10,0.00321289,-2.35618,0.0858192,0.687492,0.727649,
2,1,0,1,0,25066.5,0.725872,0.725623,3.96573,37,0.976748,10,0.00287762,-2.40168,0.0820197,0.719339,0.723878,
2,1,0,1,0,25067.3,0.721877,0.721562,3.55774,37,0.979742,10,0.00256713,-2.44883,0.0798817,0.738592,0.719997,
2,1,0,1,0,25068.1,0.717882,0.717621,3.18097,37,0.982423,10,0.00228273,-2.49744,0.0771406,0.764837,0.716221,
2,1,0,1,0,25068.9,0.713887,0.713619,2.83606,37,0.984816,10,0.00202386,-2.54729,0.0754458,0.782018,0.712371,
2,1,0,0,0,25069.7,0.709892,0.709613,2.51597,37,0.986942,10,0.00178536,-2.59929,0.0728467,0.80992,0.708506,
2,1,0,1,0,25070.5,0.705897,0.705641,2.2214,37,0.988824,10,0.00156751,-2.65337,0.0699589,0.843352,0.704664,
2,1,0,1,0,25071.3,0.701901,0.70159,1.9531,37,0.99048,10,0.00137028,-2.70927,0.0683918,0.862677,0.700731,
2,1,0,1,0,25072.1,0.697906,0.697589,1.70464,37,0.99193,10,0.00118914,-2.76837,0.0648852,0.909299,0.696839,
2,1,0,1,0,25072.9,0.693911,0.693633,1.48276,37,0.993192,10,0.00102849,-2.82893,0.0633467,0.931382,0.69298,
2,1,0,0,0,25073.7,0.689916,0.689668,1.28064,37,0.994285,10,0.00088322,-2.89257,0.0598282,0.986156,0.689105,
2,1,0,1,0,25074.5,0.685921,0.685704,1.09993,37,0.995225,10,0.000754229,-2.95863,0.058784,1.00367,0.68522,
2,1,0,0,0,25075.3,0.681926,0.681656,0.939479,37,0.996029,10,0.000640401,-3.02711,0.0544985,1.0826,0.681243,
2,1,0,1,0,25076.1,0.67793,0.67766,0.794988,37,0.996711,10,0.000538732,-3.09964,0.0537555,1.09756,0.67731,
2,1,0,1,0,25076.9,0.673935,0.673599,0.667779,37,0.997285,10,0.000449815,-3.17537,0.0505098,1.16809,0.673305,
2,1,0,1,0,25077.7,0.66994,0.66968,0.557806,37,0.997764,10,0.000373552,-3.25352,0.0498551,1.18343,0.669435,
2,1,0,1,0,25078.5,0.665945,0.665643,0.461389,37,0.998161,10,0.00030712,-3.33593,0.0470661,1.25356,0.66544,
2,1,0,0,0,25079.3,0.66195,0.661672,0.377067,37,0.998486,10,0.000249495,-3.42358,0.0437371,1.34897,0.661506,
2,1,0,1,0,25080.1,0.657955,0.657671,0.30562,37,0.998748,10,0.000200997,-3.51482,0.0412583,1.43001,0.657536,
2,1,0,1,0,25080.9,0.653959,0.653692,0.24323,37,0.998957,10,0.000158998,-3.61398,0.0392772,1.50214,0.653585,
2,1,0,1,0,25081.7,0.649964,0.649733,0.191605,37,0.99912,10,0.000124492,-3.71759,0.0363324,1.6239,0.649648,
2,1,0,1,0,25082.5,0.64597,0.645653,0.145595,37,0.999245,10,9.40037e-05,-3.83685,0.0380691,1.54981,0.645589,
2,1,0,0,0,25083.3,0.641974,0.641667,0.109012,37,0.999338,10,6.99497e-05,-3.96252,0.0251953,2.3417,0.641619,
2,1,0,1,0,25084.1,0.637979,0.637701,0.0769649,37,0.999402,10,4.90806e-05,-4.11371,0.0236506,2.49465,0.637667,
2,1,0,1,0,25084.9,0.633983,0.633649,0.0499126,37,0.999442,10,3.1627e-05,-4.30179,0.0198659,2.96991,0.633627,
2,1,0,1,0,25085.7,0.629988,0.629667,0.026639,37,0.999463,10,1.67737e-05,-4.57448,0.0105828,5.57508,0.629656,
2,1,0,1,0,25086.5,0.625993,0.62569,0.00741713,37,0.999467,10,4.64082e-06,-5.12976,0.00212944,27.7068,0.625687,
2,0,0,0,0,25087.3,0.621998,0.621701,-0.00747271,37,0.999457,10,-4.64579e-06,-5.12652,-0.00215859,-27.3327,0.621704,
2,0,0,1,0,25088.1,0.618003,0.61773,-0.0204775,37,0.999436,10,-1.26496e-05,-4.68872,-0.0156985,-3.75832,0.61774,
2,0,0,0,0,25088.9,0.614008,0.613716,-0.031879,37,0.999406,10,-1.95646e-05,-4.4965,-0.0320922,-1.83846,0.61373,
2,0,0,1,0,25089.7,0.610012,0.609708,-0.0403459,37,0.999367,10,-2.45992e-05,-4.3942,-0.0437169,-1.34959,0.609726,
2,0,0,1,0,25090.5,0.606017,0.60571,-0.0482614,37,0.999322,10,-2.92324e-05,-4.3164,-0.0646994,-0.911909,0.605731,
2,0,0,1,0,25091.3,0.602022,0.601773,-0.0547811,37,0.999271,10,-3.29658e-05,-4.26137,-0.100886,-0.58482,0.601797,
2,0,0,1,0,25092.1,0.598027,0.597763,-0.0604327,37,0.999216,10,-3.61244e-05,-4.21873,-0.0880429,-0.670128,0.59779,
2,0,0,0,0,25092.9,0.594032,0.593731,-0.0643416,37,0.999156,10,-3.82016e-05,-4.19151,-0.140741,-0.419211,0.59376,
2,0,0,1,0,25093.7,0.590037,0.589708,-0.0660274,37,0.999094,10,-3.89369e-05,-4.18028,-0.30208,-0.195312,0.589737,
2,0,0,1,0,25094.5,0.586041,0.585744,-0.0714201,37,0.999028,10,-4.18339e-05,-4.14618,-0.217284,-0.271534,0.585776,
2,0,0,1,0,25095.3,0.582046,0.58172,-0.0748439,37,0.99896,10,-4.35382e-05,-4.12584,-0.193159,-0.305448,0.581753,
2,0,0,1,0,25096.1,0.578052,0.577757,-0.077341,37,0.998889,10,-4.46843e-05,-4.11159,-0.282981,-0.208495,0.577791,
2,0,0,0,0,25096.9,0.574056,0.57374,-0.0791441,37,0.998815,10,-4.54081e-05,-4.10158,-0.26792,-0.220215,0.573774,
2,0,0,1,0,25097.7,0.570061,0.569769,-0.0816985,37,0.99874,10,-4.65493e-05,-4.08779,-0.653985,-0.0902161,0.569805,
2,0,0,1,0,25098.5,0.566065,0.565781,-0.0843242,37,0.998664,10,-4.7709e-05,-4.07405,-0.290054,-0.20341,0.565818,
2,0,0,1,0,25099.3,0.56207,0.561755,-0.0860427,37,0.998586,10,-4.8335e-05,-4.06529,-0.473088,-0.124713,0.561793,
2,0,0,1,0,25100.1,0.558075,0.557791,-0.087439,37,0.998506,10,-4.87727e-05,-4.0583,-1.66389,-0.0354591,0.55783,
2,0,0,1,0,25100.9,0.55408,0.553835,-0.0891701,37,0.998426,10,-4.93855e-05,-4.04978,-0.447085,-0.131966,0.553874,
2,0,0,1,0,25101.7,0.550085,0.549806,-0.089833,37,0.998344,10,-4.93907e-05,-4.04656,-0.719233,-0.0820318,0.549846,
2,0,0,0,0,25102.5,0.54609,0.545767,-0.0904145,37,0.998261,10,-4.93453e-05,-4.04376,-0.562176,-0.104949,0.545807,
2,0,0,1,0,25103.3,0.542094,0.541777,-0.0929747,37,0.998177,10,-5.03716e-05,-4.03163,-1.35534,-0.0435317,0.541818,
2,0,0,1,0,25104.1,0.538099,0.53781,-0.0935344,37,0.998092,10,-5.03037e-05,-4.02903,-0.597646,-0.0987206,0.537851,
2,0,0,1,0,25104.9,0.534104,0.533806,-0.0957681,37,0.998006,10,-5.11216e-05,-4.01878,-0.649896,-0.0907837,0.533848,
2,0,0,1,0,25105.7,0.530109,0.529806,-0.0961815,37,0.997919,10,-5.09575e-05,-4.01691,-0.494623,-0.119283,0.529848,
2,0,0,0,0,25106.5,0.526114,0.525851,-0.0970075,37,0.997832,10,-5.10114e-05,-4.01319,-0.916055,-0.0644066,0.525893,
2,0,0,1,0,25107.3,0.522119,0.521859,-0.0977392,37,0.997743,10,-5.10061e-05,-4.00993,-0.908739,-0.0649251,0.521902,
2,0,0,1,0,25108.1,0.518123,0.517837,-0.099126,37,0.997654,10,-5.13311e-05,-4.00381,-0.722887,-0.0816172,0.51788,
2,0,0,1,0,25108.9,0.514128,0.51385,-0.100898,37,0.997563,10,-5.18463e-05,-3.99612,-1.93004,-0.0305693,0.513894,
2,0,0,1,0,25109.7,0.510133,0.509825,-0.101347,37,0.997471,10,-5.16693e-05,-3.99419,-0.42555,-0.138644,0.50987,
2,0,0,0,0,25110.5,0.506138,0.505825,-0.103241,37,0.997378,10,-5.22219e-05,-3.98615,2.46322,0.0239524,0.50587,
2,0,0,1,0,25111.2,0.502143,0.501885,-0.104397,37,0.997285,10,-5.23953e-05,-3.98131,-0.301476,-0.195704,0.501931,
2,0,0,0,0,25112,0.498148,0.497839,-0.105076,37,0.997191,10,-5.23109e-05,-3.9785,-4.61484,-0.0127848,0.497885,
2,0,0,1,0,25112.8,0.494152,0.493885,-0.106334,37,0.997095,10,-5.2517e-05,-3.97333,-1.17889,-0.0500471,0.493932,
2,0,0,1,0,25113.6,0.490157,0.489833,-0.10744,37,0.996999,10,-5.26278e-05,-3.96883,-0.67681,-0.0871737,0.48988,
2,0,0,1,0,25114.4,0.486162,0.485864,-0.109722,37,0.996901,10,-5.33102e-05,-3.9597,-0.915229,-0.0644647,0.485912,
2,0,0,1,0,25115.2,0.482167,0.481888,-0.11027,37,0.996803,10,-5.31378e-05,-3.95754,-0.715617,-0.0824464,0.481937,
2,0,0,0,0,25116,0.478172,0.47783,-0.111791,37,0.996703,10,-5.3417e-05,-3.95159,-0.561927,-0.104996,0.477879,
2,0,0,1,0,25116.8,0.474177,0.473861,-0.112699,37,0.996602,10,-5.34038e-05,-3.94808,20.3267,0.00290259,0.473911,
2,0,0,1,0,25117.6,0.470181,0.46988,-0.114075,37,0.996501,10,-5.36016e-05,-3.94281,-0.377136,-0.156442,0.46993,
2,0,0,1,0,25118.4,0.466186,0.465893,-0.115408,37,0.996398,10,-5.3768e-05,-3.93776,-1.23074,-0.0479388,0.465944,
2,0,0,1,0,25119.2,0.462191,0.461895,-0.117389,37,0.996294,10,-5.42215e-05,-3.93037,-0.849106,-0.0694849,0.461946,
2,0,0,0,0,25120,0.458196,0.457904,-0.118771,37,0.996188,10,-5.43857e-05,-3.92529,-0.395448,-0.149198,0.457956,
2,0,0,1,0,25120.8,0.454201,0.45392,-0.120552,37,0.996082,10,-5.47211e-05,-3.91882,-1.11234,-0.0530415,0.453973,
2,0,0,1,0,25121.6,0.450205,0.449873,-0.122497,37,0.995974,10,-5.51081e-05,-3.91187,-0.62044,-0.0950939,0.449927,
2,0,0,1,0,25122.4,0.44621,0.445919,-0.122979,37,0.995865,10,-5.48388e-05,-3.91017,-1.19171,-0.0495085,0.445973,
2,0,0,1,0,25123.2,0.442215,0.441898,-0.124978,37,0.995754,10,-5.52276e-05,-3.90317,-1.23257,-0.0478675,0.441953,
2,0,0,0,0,25124,0.43822,0.437899,-0.125479,37,0.995642,10,-5.4947e-05,-3.90143,-0.387739,-0.152164,0.437955,
2,0,0,1,0,25124.8,0.434225,0.433906,-0.128927,37,0.995529,10,-5.59421e-05,-3.88966,-0.494834,-0.119232,0.433963,
2,0,0,0,0,25125.6,0.43023,0.429941,-0.130607,37,0.995414,10,-5.61532e-05,-3.88403,-1.22132,-0.0483082,0.429998,
2,0,0,1,0,25126.4,0.426234,0.4259,-0.132176,37,0.995298,10,-5.62937e-05,-3.87885,-0.464599,-0.126991,0.425959,
2,0,0,1,0,25127.2,0.422239,0.421936,-0.134676,37,0.99518,10,-5.68248e-05,-3.87071,-1.64993,-0.0357592,0.421995,
2,0,0,1,0,25128,0.418244,0.417936,-0.134443,37,0.995061,10,-5.61888e-05,-3.87146,-0.633876,-0.0930781,0.417996,
2,0,0,1,0,25128.8,0.414249,0.414004,-0.136758,37,0.99494,10,-5.66184e-05,-3.86405,-0.687572,-0.0858091,0.414064,
2,0,0,0,0,25129.6,0.410254,0.409936,-0.140546,37,0.994817,10,-5.7615e-05,-3.85218,-0.496565,-0.118816,0.409998,
2,0,0,1,0,25130.4,0.406259,0.405964,-0.142023,37,0.994692,10,-5.7656e-05,-3.84764,-0.749877,-0.0786796,0.406027,
2,0,0,1,0,25131.2,0.402263,0.401969,-0.14447,37,0.994566,10,-5.80725e-05,-3.84022,-0.773074,-0.0763187,0.402033,
2,0,0,1,0,25132,0.398268,0.397964,-0.146662,37,0.994438,10,-5.83664e-05,-3.83368,-0.550073,-0.107259,0.398029,
2,0,0,1,0,25132.8,0.394274,0.394018,-0.147455,37,0.994309,10,-5.80999e-05,-3.83134,-0.594025,-0.0993224,0.394083,
2,0,0,0,0,25133.6,0.390278,0.389935,-0.149298,37,0.994178,10,-5.82163e-05,-3.82595,-1.06087,-0.0556145,0.390001,
2,0,0,1,0,25134.4,0.386283,0.385994,-0.151802,37,0.994045,10,-5.85945e-05,-3.81872,-0.500771,-0.117818,0.38606,
2,0,0,1,0,25135.2,0.382287,0.381975,-0.153934,37,0.993911,10,-5.87988e-05,-3.81267,-0.656915,-0.0898137,0.382043,
2,0,0,1,0,25136,0.378292,0.377995,-0.157524,37,0.993775,10,-5.95433e-05,-3.80265,-1.13298,-0.0520751,0.378064,
2,0,0,1,0,25136.8,0.374297,0.374001,-0.158666,37,0.993637,10,-5.93413e-05,-3.79952,-0.506722,-0.116435,0.37407,
2,0,0,1,0,25137.6,0.370303,0.369938,-0.16058,37,0.993497,10,-5.94045e-05,-3.79431,-0.780222,-0.0756195,0.370009,
2,0,0,1,0,25138.4,0.366307,0.366047,-0.164126,37,0.993356,10,-6.00781e-05,-3.78482,-0.901812,-0.0654239,0.366119,
2,0,0,0,0,25139.2,0.362312,0.362008,-0.164998,37,0.993213,10,-5.97307e-05,-3.78252,-0.373932,-0.157783,0.362081,
2,0,0,1,0,25140,0.358316,0.357992,-0.167177,37,0.993067,10,-5.98482e-05,-3.77682,-1.5725,-0.0375198,0.358066,
2,0,0,1,0,25140.8,0.354321,0.353999,-0.170355,37,0.99292,10,-6.03056e-05,-3.76864,-0.486649,-0.121237,0.354074,
2,0,0,1,0,25141.6,0.350327,0.350039,-0.172302,37,0.99277,10,-6.03122e-05,-3.76371,-0.741391,-0.0795801,0.350114,
2,0,0,1,0,25142.4,0.346331,0.346009,-0.174824,37,0.992619,10,-6.04907e-05,-3.7574,-1.42258,-0.0414739,0.346086,
2,0,0,0,0,25143.2,0.342336,0.342033,-0.176503,37,0.992466,10,-6.03698e-05,-3.75325,-0.41296,-0.142871,0.342111,
2,0,0,1,0,25144,0.338341,0.33803,-0.179802,37,0.992311,10,-6.07784e-05,-3.74521,-0.70941,-0.0831677,0.338109,
2,0,0,1,0,25144.8,0.334345,0.334005,-0.182058,37,0.992153,10,-6.08081e-05,-3.73979,-0.735285,-0.080241,0.334085,
2,0,0,1,0,25145.6,0.33035,0.330014,-0.184174,37,0.991994,10,-6.078e-05,-3.73477,-0.690511,-0.085444,0.330095,
2,0,0,1,0,25146.4,0.326355,0.326063,-0.186069,37,0.991833,10,-6.067e-05,-3.73033,-0.956548,-0.0616801,0.326145,
2,0,0,0,0,25147.2,0.32236,0.322073,-0.188522,37,0.99167,10,-6.0718e-05,-3.72464,-0.738467,-0.0798952,0.322156,
2,0,0,1,0,25148,0.318365,0.318061,-0.190431,37,0.991505,10,-6.05685e-05,-3.72026,-0.754047,-0.0782445,0.318144,
2,0,0,0,0,25148.8,0.31437,0.314071,-0.194147,37,0.991338,10,-6.09762e-05,-3.71187,-1.38989,-0.0424493,0.314157,
2,0,0,1,0,25149.6,0.310374,0.31006,-0.196248,37,0.99117,10,-6.08486e-05,-3.70719,-0.435121,-0.135594,0.310146,
2,0,0,1,0,25150.4,0.306379,0.306061,-0.198125,37,0.990998,10,-6.06383e-05,-3.70306,-0.93857,-0.0628616,0.306148,
2,0,0,1,0,25151.2,0.302385,0.302068,-0.200786,37,0.990826,10,-6.06511e-05,-3.69727,-0.721282,-0.0817988,0.302156,
2,0,0,1,0,25152,0.298389,0.298089,-0.202739,37,0.990651,10,-6.04342e-05,-3.69306,-0.567849,-0.103901,0.298178,
2,0,0,0,0,25152.8,0.294394,0.29407,-0.206574,37,0.990473,10,-6.07473e-05,-3.68492,-0.660836,-0.0892808,0.294161,
2,0,0,1,0,25153.6,0.290398,0.29011,-0.209317,37,0.990294,10,-6.0725e-05,-3.6792,-1.14565,-0.0514992,0.290202,
2,0,0,1,0,25154.4,0.286403,0.286081,-0.211642,37,0.990112,10,-6.05468e-05,-3.6744,-0.892618,-0.0660977,0.286174,
2,0,0,1,0,25155.2,0.282408,0.282091,-0.213934,37,0.989929,10,-6.03488e-05,-3.66972,-0.648156,-0.0910274,0.282185,
2,0,0,1,0,25156,0.278414,0.278149,-0.217334,37,0.989743,10,-6.04512e-05,-3.66287,-0.614806,-0.0959653,0.278244,
2,0,0,0,0,25156.8,0.274418,0.274083,-0.219831,37,0.989555,10,-6.0252e-05,-3.65791,-0.996289,-0.0592197,0.27418,
2,0,0,1,0,25157.6,0.270423,0.270083,-0.22345,37,0.989364,10,-6.03499e-05,-3.65082,-0.580651,-0.10161,0.270181,
2,0,0,1,0,25158.4,0.266427,0.266119,-0.224967,37,0.989172,10,-5.9868e-05,-3.64788,-0.73363,-0.080422,0.266218,
2,0,0,1,0,25159.2,0.262432,0.262096,-0.227957,37,0.988977,10,-5.97466e-05,-3.64215,-0.752783,-0.0783758,0.262196,
2,0,0,1,0,25160,0.258437,0.258104,-0.230345,37,0.98878,10,-5.9453e-05,-3.63762,-0.884123,-0.0667328,0.258206,
2,0,0,0,0,25160.8,0.254442,0.254111,-0.233011,37,0.988581,10,-5.92106e-05,-3.63262,-0.766444,-0.0769788,0.254213,
2,0,0,1,0,25161.6,0.250447,0.250119,-0.235604,37,0.98838,10,-5.8929e-05,-3.62782,-4.312,-0.0136827,0.250223,
2,0,0,0,0,25162.4,0.246452,0.246146,-0.238605,37,0.988178,10,-5.87316e-05,-3.62232,-0.545415,-0.108175,0.246251,
2,0,0,1,0,25163.2,0.242456,0.242094,-0.241239,37,0.987972,10,-5.84026e-05,-3.61755,-1.14563,-0.0514999,0.2422,
2,0,0,1,0,25164,0.238461,0.238135,-0.242492,37,0.987766,10,-5.77458e-05,-3.6153,-1.04728,-0.0563364,0.238241,
2,0,0,1,0,25164.8,0.234467,0.234148,-0.245457,37,0.987557,10,-5.74733e-05,-3.61002,-0.633428,-0.093144,0.234256,
2,0,0,1,0,25165.6,0.230471,0.230149,-0.247191,37,0.987346,10,-5.68906e-05,-3.60697,-0.860895,-0.0685334,0.230258,
2,0,0,0,0,25166.4,0.226476,0.22617,-0.250197,37,0.987133,10,-5.65871e-05,-3.60172,-2.61152,-0.0225922,0.22628,
2,0,0,1,0,25167.2,0.222481,0.222165,-0.253316,37,0.986918,10,-5.62779e-05,-3.59634,-0.53103,-0.111105,0.222276,
2,0,0,1,0,25168,0.218485,0.21816,-0.256739,37,0.986701,10,-5.601e-05,-3.59051,-1.09071,-0.0540931,0.218272,
2,0,0,1,0,25168.8,0.21449,0.214146,-0.258495,37,0.986481,10,-5.53557e-05,-3.58755,-0.670002,-0.0880595,0.21426,
2,0,0,1,0,25169.6,0.210496,0.210207,-0.262007,37,0.986259,10,-5.50758e-05,-3.58169,-0.704572,-0.0837388,0.210322,
2,0,0,0,0,25170.4,0.2065,0.206201,-0.265385,37,0.986034,10,-5.47226e-05,-3.57612,-0.734446,-0.0803327,0.206317,
2,0,0,1,0,25171.2,0.202505,0.202173,-0.268901,37,0.985807,10,-5.43645e-05,-3.57041,-0.880269,-0.067025,0.202291,
2,0,0,1,0,25172,0.198509,0.198186,-0.271476,37,0.985577,10,-5.38025e-05,-3.56627,-0.652749,-0.090387,0.198305,
2,0,0,1,0,25172.8,0.194514,0.194149,-0.275272,37,0.985344,10,-5.34436e-05,-3.56024,-0.725392,-0.0813353,0.19427,
2,0,0,1,0,25173.6,0.190519,0.190204,-0.278867,37,0.985108,10,-5.30417e-05,-3.5546,-0.506798,-0.116417,0.190327,
2,0,0,0,0,25174.4,0.186524,0.186217,-0.285054,37,0.984868,10,-5.30819e-05,-3.54507,-0.897487,-0.0657391,0.186343,
2,0,0,1,0,25175.2,0.182529,0.182238,-0.288955,37,0.984625,10,-5.26587e-05,-3.53917,-0.36815,-0.160261,0.182366,
2,0,0,0,0,25176,0.178534,0.178212,-0.295414,37,0.984376,10,-5.26464e-05,-3.52957,-0.491581,-0.120021,0.178342,
2,0,0,1,0,25176.8,0.174538,0.174213,-0.301833,37,0.984124,10,-5.25832e-05,-3.52023,-0.383479,-0.153854,0.174346,
2,0,0,1,0,25177.6,0.170543,0.170238,-0.310313,37,0.983864,10,-5.2827e-05,-3.5082,-0.269968,-0.218544,0.170374,
2,0,0,1,0,25178.4,0.166549,0.166237,-0.319506,37,0.983598,10,-5.31139e-05,-3.49552,-0.325455,-0.181285,0.166378,
2,0,0,1,0,25179.2,0.162553,0.162252,-0.332083,37,0.983323,10,-5.38811e-05,-3.47875,-0.206956,-0.285084,0.162398,
2,0,0,0,0,25180,0.158558,0.158234,-0.346425,37,0.983037,10,-5.48162e-05,-3.46039,-0.186866,-0.315734,0.158387,
2,0,0,1,0,25180.8,0.154563,0.154253,-0.366616,37,0.982737,10,-5.65517e-05,-3.43579,-0.16861,-0.34992,0.154415,
2,0,0,1,0,25181.6,0.150567,0.150297,-0.393233,37,0.982419,10,-5.91016e-05,-3.40535,-0.111696,-0.528221,0.15047,
2,0,0,1,0,25182.4,0.146572,0.14623,-0.426047,37,0.982078,10,-6.23009e-05,-3.37054,-0.102673,-0.574642,0.146418,
2,0,0,1,0,25183.2,0.142578,0.142269,-0.47337,37,0.981704,10,-6.73459e-05,-3.3248,-0.0846274,-0.697174,0.142477,
2,0,0,0,0,25184,0.138582,0.138283,-0.525543,37,0.981291,10,-7.26734e-05,-3.27939,-0.0884536,-0.667016,0.138514,
2,0,0,1,0,25184.8,0.134587,0.13427,-0.583141,37,0.980833,10,-7.82983e-05,-3.23423,-0.094604,-0.623652,0.134527,
2,0,0,1,0,25185.6,0.130591,0.130293,-0.63517,37,0.98033,10,-8.27583e-05,-3.19711,-0.11586,-0.509235,0.130573,
2,0,0,1,0,25186.4,0.126596,0.126282,-0.675095,37,0.979789,10,-8.52522e-05,-3.17063,-0.184597,-0.319615,0.126579,
2,0,0,1,0,25187.2,0.122602,0.12228,-0.705839,37,0.979221,10,-8.63101e-05,-3.15129,-0.337482,-0.174824,0.122591,
2,0,0,1,0,25188,0.118607,0.118304,-0.718004,37,0.978636,10,-8.49428e-05,-3.14387,-0.542145,-0.108827,0.11862,
2,0,0,1,0,25188.8,0.114611,0.114301,-0.72378,37,0.978043,10,-8.27291e-05,-3.14039,2.93214,0.0201219,0.11462,
2,0,0,0,0,25189.6,0.110616,0.110274,-0.721632,37,0.97745,10,-7.95773e-05,-3.14168,1.9182,0.030758,0.110592,
2,0,0,1,0,25190.4,0.10662,0.106319,-0.713146,37,0.976862,10,-7.58212e-05,-3.14682,0.798468,0.0738915,0.106633,
2,0,0,1,0,25191.2,0.102625,0.102285,-0.705833,37,0.976279,10,-7.21961e-05,-3.1513,0.622593,0.094765,0.102596,
2,0,0,1,0,25192,0.0986305,0.0983616,-0.69433,37,0.975705,10,-6.82954e-05,-3.15843,0.727554,0.0810937,0.0986671,
2,0,0,1,0,25192.8,0.0946351,0.0943234,-0.681247,37,0.975138,10,-6.42575e-05,-3.1667,0.537992,0.109667,0.0946231,
2,0,0,0,0,25193.5,0.0906399,0.0903151,-0.673905,37,0.97458,10,-6.08637e-05,-3.1714,0.471972,0.125007,0.0906116,
2,0,0,1,0,25194.3,0.0866448,0.0863141,-0.661919,37,0.974032,10,-5.71329e-05,-3.1792,0.622262,0.0948154,0.0866054,
2,0,0,1,0,25195.1,0.0826492,0.082316,-0.652774,37,0.973492,10,-5.37337e-05,-3.18524,0.571962,0.103154,0.0826032,
2,0,0,1,0,25195.9,0.0786544,0.0783272,-0.642462,37,0.972961,10,-5.03223e-05,-3.19215,0.784391,0.0752176,0.0786099,
2,0,0,1,0,25196.7,0.0746596,0.07437,-0.632705,37,0.972437,10,-4.70543e-05,-3.1988,0.686072,0.0859968,0.0746484,
2,0,0,0,0,25197.5,0.0706641,0.0703486,-0.625232,37,0.97192,10,-4.39842e-05,-3.20396,0.628058,0.0939403,0.0706237,
2,0,0,1,0,25198.3,0.0666689,0.0663318,-0.61577,37,0.97141,10,-4.08451e-05,-3.21058,0.723559,0.0815414,0.0666028,
2,0,0,0,0,25199.1,0.0626737,0.0623394,-0.604916,37,0.970906,10,-3.77101e-05,-3.2183,0.560127,0.105333,0.0626056,
2,0,0,1,0,25199.9,0.0586783,0.058384,-0.600034,37,0.970409,10,-3.50324e-05,-3.22182,0.507473,0.116262,0.058648,
2,0,0,1,0,25200.7,0.0546835,0.0543387,-0.588378,37,0.96992,10,-3.19717e-05,-3.23034,0.92386,0.0638625,0.0545976,
2,0,0,1,0,25201.5,0.0506886,0.0503551,-0.57937,37,0.969437,10,-2.91743e-05,-3.23704,0.45064,0.130925,0.05061,
2,0,0,1,0,25202.3,0.046693,0.0463453,-0.56946,37,0.968964,10,-2.63918e-05,-3.24454,0.536741,0.109923,0.0465958,
2,0,0,0,0,25203.1,0.0426979,0.0424016,-0.559905,37,0.968498,10,-2.37409e-05,-3.25189,0.543668,0.108522,0.042648,
2,0,0,1,0,25203.9,0.0387022,0.0383279,-0.549481,37,0.96804,10,-2.10604e-05,-3.26005,0.439308,0.134302,0.0385696,
2,0,0,1,0,25204.7,0.0347074,0.0344199,-0.538226,37,0.967591,10,-1.85257e-05,-3.26903,0.506005,0.1166,0.0346567,
2,0,0,1,0,25205.5,0.0307126,0.0304204,-0.526661,37,0.967149,10,-1.60212e-05,-3.27847,0.441562,0.133616,0.0306521,
2,0,0,1,0,25206.3,0.0267172,0.0264043,-0.519982,37,0.966716,10,-1.37298e-05,-3.28401,0.497216,0.118661,0.0266331,
2,0,0,0,0,25207.1,0.022722,0.0223907,-0.510674,37,0.96629,10,-1.14344e-05,-3.29186,1.06132,0.0555911,0.0226154,
2,0,0,1,0,25207.9,0.0187268,0.0183824,-0.504455,37,0.96587,10,-9.27308e-06,-3.29718,0.64338,0.0917033,0.0186043,
2,0,0,1,0,25208.7,0.0147313,0.0143886,-0.500231,37,0.965455,10,-7.19764e-06,-3.30083,0.944831,0.062445,0.0146087,
2,0,0,1,0,25209.5,0.0107365,0.0104569,-0.494454,37,0.965044,10,-5.17044e-06,-3.30587,1.3198,0.0447036,0.0106744,
2,0,0,1,0,25210.3,0.00674163,0.00640532,-0.492022,37,0.964635,10,-3.15156e-06,-3.30802,94.6605,0.00062328,0.00662181,
2,0,0,0,0,25211.1,0.00274612,0.00241689,-0.491234,37,0.964228,10,-1.18726e-06,-3.30871,-4.77053,-0.0123676,0.00263303,
2,0,0,1,0,25211.6,0.000274105,-8.6732e-05,-0.493643,37,0.963973,10,4.28146e-08,-3.30659, , ,0.000130471,