File: Figure_codes/Fig_3-5/workspace_calculate_alpha_eff/20221101_1-115_003_TrumpetPlot_ParaChange_from10_every3_16_CV_C01_88.csv
mode,ox/red,error,control changes,counter inc.,time/s,control/V,Ewe/V,<I>/mA,cycle number,(Q-Qo)/C,I Range,P/W,log(|I|),Tafel slope mV/dec,alpha_eff,E-IR/V,
2,0,0,0,0,58733.9,2.44065e-05,-0.000458935,-0.0974859,89,0.0000000E+000,10,4.47397e-08,-4.01106, , ,-0.000416041,
2,1,0,0,0,58734.7,0.00379485,0.00343064,0.149489,89,8.9806e-05,10,5.12841e-07,-3.82539,0.0307251,1.92025,0.00336486,
2,1,0,1,0,58735.5,0.00779002,0.00744746,0.1747,89,0.000230264,10,1.30107e-06,-3.75771,0.0729989,0.808231,0.00737059,
2,1,0,0,0,58736.3,0.0117852,0.0114049,0.19072,89,0.000386603,10,2.17514e-06,-3.7196,0.115042,0.512854,0.011321,
2,1,0,1,0,58737.1,0.0157806,0.01544,0.205695,89,0.000554882,10,3.17594e-06,-3.68678,0.135668,0.434885,0.0153495,
2,1,0,1,0,58737.9,0.0197754,0.0194151,0.217968,89,0.00073382,10,4.23188e-06,-3.66161,0.151635,0.389092,0.0193192,
2,1,0,1,0,58738.6,0.0237704,0.023418,0.23,89,0.000923037,10,5.38614e-06,-3.63827,0.180776,0.32637,0.0233168,
2,1,0,1,0,58739.4,0.0277659,0.0273948,0.243894,89,0.00112234,10,6.68141e-06,-3.6128,0.174772,0.337582,0.0272874,
2,1,0,0,0,58740.2,0.0317611,0.0313798,0.256107,89,0.00133228,10,8.03656e-06,-3.59158,0.176545,0.334191,0.0312671,
2,1,0,1,0,58741,0.0357567,0.0354119,0.270877,89,0.00155325,10,9.59227e-06,-3.56723,0.193328,0.305181,0.0352927,
2,1,0,1,0,58741.8,0.0397516,0.0394317,0.284548,89,0.00178491,10,1.12202e-05,-3.54584,0.170704,0.345627,0.0393065,
2,1,0,1,0,58742.6,0.0437465,0.0434609,0.296095,89,0.00202775,10,1.28685e-05,-3.52857,0.206619,0.285549,0.0433306,
2,1,0,1,0,58743.4,0.0477413,0.0474034,0.309815,89,0.00228066,10,1.46863e-05,-3.5089,0.230645,0.255804,0.0472671,
2,1,0,0,0,58744.2,0.0517369,0.0513631,0.322666,89,0.00254335,10,1.65731e-05,-3.49125,0.238304,0.247583,0.0512212,
2,1,0,1,0,58745,0.0557321,0.0554001,0.334917,89,0.00281605,10,1.85544e-05,-3.47506,0.306926,0.192229,0.0552527,
2,1,0,1,0,58745.8,0.0597277,0.0593738,0.34528,89,0.00309713,10,2.05006e-05,-3.46183,0.314535,0.187578,0.0592218,
2,1,0,1,0,58746.6,0.0637226,0.063384,0.354203,89,0.0033865,10,2.24508e-05,-3.45075,0.32491,0.181589,0.0632282,
2,1,0,1,0,58747.4,0.0677174,0.0673739,0.364429,89,0.00368426,10,2.4553e-05,-3.43839,0.438538,0.134538,0.0672135,
2,1,0,0,0,58748.2,0.0717128,0.0713688,0.371336,89,0.00398855,10,2.65018e-05,-3.43023,0.372733,0.15829,0.0712054,
2,1,0,1,0,58749,0.075708,0.0753294,0.380084,89,0.00430014,10,2.86315e-05,-3.42012,0.451372,0.130712,0.0751621,
2,1,0,0,0,58749.8,0.0797031,0.0793345,0.38948,89,0.0046178,10,3.08992e-05,-3.40951,0.402454,0.146601,0.0791632,
2,1,0,1,0,58750.6,0.0836986,0.083356,0.397461,89,0.00494194,10,3.31307e-05,-3.40071,0.472723,0.124809,0.0831811,
2,1,0,1,0,58751.4,0.0876935,0.08735,0.406834,89,0.00527343,10,3.5537e-05,-3.39058,0.295544,0.199632,0.087171,
2,1,0,1,0,58752.2,0.0916883,0.0913156,0.419728,89,0.00561341,10,3.83277e-05,-3.37703,0.250245,0.235769,0.0911309,
2,1,0,1,0,58753,0.0956838,0.0953223,0.433552,89,0.00596502,10,4.13272e-05,-3.36296,0.261002,0.226052,0.0951315,
2,1,0,0,0,58753.8,0.099679,0.0992967,0.453117,89,0.00633007,10,4.49931e-05,-3.34379,0.257739,0.228914,0.0990973,
2,1,0,1,0,58754.6,0.103674,0.103309,0.472522,89,0.0067102,10,4.88159e-05,-3.32558,0.179606,0.328497,0.103101,
2,1,0,1,0,58755.4,0.10767,0.107329,0.493171,89,0.00710766,10,5.29318e-05,-3.307,0.237746,0.248164,0.107112,
2,1,0,1,0,58756.2,0.111664,0.111288,0.513814,89,0.00752065,10,5.71812e-05,-3.28919,0.250133,0.235875,0.111062,
2,1,0,1,0,58757,0.115659,0.115267,0.528005,89,0.00794743,10,6.08615e-05,-3.27736,0.319825,0.184476,0.115035,
2,1,0,0,0,58757.8,0.119655,0.119298,0.541206,89,0.0083861,10,6.45649e-05,-3.26664,0.583165,0.101172,0.11906,
2,1,0,1,0,58758.6,0.12365,0.123342,0.550246,89,0.00883221,10,6.78687e-05,-3.25944,0.552285,0.106829,0.1231,
2,1,0,1,0,58759.4,0.127646,0.127296,0.555188,89,0.00928467,10,7.06733e-05,-3.25556,2.07974,0.0283689,0.127052,
2,1,0,1,0,58760.2,0.131641,0.131306,0.557301,89,0.00974026,10,7.3177e-05,-3.25391,-0.662622,-0.0890402,0.131061,
2,1,0,1,0,58761,0.135635,0.135299,0.545504,89,0.0101913,10,7.38063e-05,-3.2632,-0.313842,-0.187993,0.135059,
2,1,0,0,0,58761.8,0.139631,0.139292,0.516274,89,0.0106273,10,7.19129e-05,-3.28712,-0.123412,-0.478075,0.139065,
2,1,0,1,0,58762.6,0.143626,0.143267,0.471739,89,0.0110334,10,6.75849e-05,-3.3263,-0.0868208,-0.679561,0.14306,
2,1,0,0,0,58763.4,0.147621,0.147281,0.418193,89,0.0113991,10,6.15919e-05,-3.37862,-0.0741936,-0.795217,0.147097,
2,1,0,1,0,58764.2,0.151617,0.151267,0.371327,89,0.0117241,10,5.61693e-05,-3.43024,-0.0819734,-0.719745,0.151103,
2,1,0,1,0,58765,0.155612,0.155268,0.337198,89,0.0120153,10,5.23562e-05,-3.47211,-0.113476,-0.519932,0.15512,
2,1,0,1,0,58765.8,0.159606,0.159269,0.313005,89,0.012284,10,4.9852e-05,-3.50445,-0.151387,-0.38973,0.159131,
2,1,0,1,0,58766.6,0.163602,0.163267,0.298887,89,0.0125381,10,4.87983e-05,-3.52449,-0.206517,-0.285691,0.163135,
2,1,0,0,0,58767.4,0.167597,0.167277,0.288847,89,0.012782,10,4.83176e-05,-3.53933,-0.415404,-0.14203,0.16715,
2,1,0,1,0,58768.2,0.171592,0.171233,0.280746,89,0.0130197,10,4.80728e-05,-3.55169,-0.396338,-0.148863,0.171109,
2,1,0,1,0,58769,0.175588,0.175228,0.275945,89,0.0132522,10,4.83534e-05,-3.55918,-0.521893,-0.11305,0.175107,
2,1,0,1,0,58769.8,0.179582,0.179242,0.271948,89,0.0134808,10,4.87445e-05,-3.56551,-0.829617,-0.0711172,0.179122,
2,1,0,1,0,58770.6,0.183577,0.183218,0.268927,89,0.0137071,10,4.92722e-05,-3.57037,-1.21826,-0.0484296,0.1831,
2,1,0,0,0,58771.4,0.187573,0.187218,0.266706,89,0.0139309,10,4.99321e-05,-3.57397,-0.971359,-0.0607396,0.187101,
2,1,0,1,0,58772.2,0.191568,0.191217,0.265082,89,0.014153,10,5.06881e-05,-3.57662,-0.880624,-0.0669979,0.1911,
2,1,0,0,0,58773,0.195563,0.195207,0.263769,89,0.0143739,10,5.14897e-05,-3.57878,-1.53644,-0.0384004,0.195091,
2,1,0,1,0,58773.8,0.199559,0.199219,0.261885,89,0.0145932,10,5.21725e-05,-3.58189,-3.06549,-0.0192465,0.199104,
2,1,0,1,0,58774.6,0.203553,0.203225,0.259357,89,0.0148115,10,5.27079e-05,-3.5861,-1.48684,-0.0396816,0.203111,
2,1,0,1,0,58775.4,0.207548,0.207192,0.259553,89,0.0150289,10,5.37772e-05,-3.58577,-6.43711,-0.0091656,0.207077,
2,1,0,1,0,58776.2,0.211544,0.211176,0.257633,89,0.0152452,10,5.44059e-05,-3.589,-1.87585,-0.0314524,0.211063,
2,1,0,0,0,58777,0.215539,0.2152,0.256653,89,0.0154606,10,5.52317e-05,-3.59065,-2.2844,-0.0258274,0.215087,
2,1,0,1,0,58777.8,0.219535,0.219198,0.25673,89,0.0156749,10,5.62748e-05,-3.59052,-3.09457,-0.0190656,0.219085,
2,1,0,1,0,58778.6,0.223529,0.223197,0.255613,89,0.0158887,10,5.7052e-05,-3.59242,-2.46271,-0.0239574,0.223084,
2,1,0,1,0,58779.4,0.227524,0.227147,0.255292,89,0.0161018,10,5.79887e-05,-3.59296,-0.921638,-0.0640165,0.227034,
2,1,0,1,0,58780.2,0.23152,0.231178,0.253518,89,0.0163139,10,5.86079e-05,-3.59599,3.07211,0.019205,0.231067,
2,1,0,0,0,58781,0.235515,0.23518,0.251682,89,0.0165254,10,5.91907e-05,-3.59915,-1.78601,-0.0330345,0.23507,
2,1,0,1,0,58781.8,0.23951,0.239197,0.251804,89,0.0167361,10,6.02309e-05,-3.59894,-2.13586,-0.0276235,0.239086,
2,1,0,1,0,58782.6,0.243506,0.243189,0.250772,89,0.0169462,10,6.09851e-05,-3.60072,5.14166,0.0114749,0.243079,
2,1,0,1,0,58783.4,0.2475,0.247139,0.249689,89,0.017156,10,6.17077e-05,-3.6026,-0.937603,-0.0629264,0.247029,
2,1,0,1,0,58784.2,0.251495,0.251199,0.248739,89,0.0173645,10,6.2483e-05,-3.60426,-9.53701,-0.00618642,0.251089,
2,1,0,0,0,58785,0.255491,0.255155,0.248274,89,0.0175722,10,6.33484e-05,-3.60507,-9.36167,-0.00630229,0.255046,
2,1,0,1,0,58785.8,0.259486,0.259204,0.248037,89,0.0177795,10,6.42921e-05,-3.60548,-1.11664,-0.0528371,0.259095,
2,1,0,0,0,58786.6,0.263481,0.263144,0.24685,89,0.0179858,10,6.49572e-05,-3.60757,-8.96566,-0.00658066,0.263036,
2,1,0,1,0,58787.4,0.267477,0.267126,0.244418,89,0.0181915,10,6.52904e-05,-3.61187,-2.26137,-0.0260904,0.267019,
2,1,0,1,0,58788.2,0.271471,0.271115,0.245013,89,0.0183964,10,6.64268e-05,-3.61081,-10.5924,-0.00557003,0.271008,
2,1,0,1,0,58789,0.275466,0.275104,0.243731,89,0.0186005,10,6.70514e-05,-3.61309,-1.61241,-0.0365912,0.274997,
2,1,0,1,0,58789.8,0.279462,0.279103,0.242735,89,0.0188042,10,6.77482e-05,-3.61487,-2.0985,-0.0281153,0.278997,
2,1,0,0,0,58790.6,0.283457,0.283132,0.241981,89,0.0190069,10,6.85126e-05,-3.61622,-2.27621,-0.0259202,0.283025,
2,1,0,1,0,58791.4,0.287452,0.287134,0.241243,89,0.0192089,10,6.92689e-05,-3.61755,-2.42788,-0.024301,0.287028,
2,1,0,1,0,58792.2,0.291448,0.291106,0.240827,89,0.0194101,10,7.01062e-05,-3.6183,-2.59088,-0.0227721,0.291,
2,1,0,1,0,58793,0.295442,0.295124,0.240021,89,0.0196105,10,7.08359e-05,-3.61975,-2.72976,-0.0216136,0.295018,
2,1,0,1,0,58793.8,0.299437,0.299095,0.238407,89,0.0198106,10,7.13062e-05,-3.62268,33.2826,0.0017727,0.29899,
2,1,0,0,0,58794.6,0.303433,0.303151,0.237481,89,0.0200097,10,7.19925e-05,-3.62437,-91.7954,-0.000642734,0.303047,
2,1,0,1,0,58795.4,0.307428,0.307061,0.236637,89,0.0202081,10,7.2662e-05,-3.62592,-0.987204,-0.0597647,0.306957,
2,1,0,1,0,58796.2,0.311424,0.311119,0.237101,89,0.020406,10,7.37664e-05,-3.62507,-2.6737,-0.0220668,0.311014,
2,1,0,1,0,58797,0.315418,0.315083,0.235491,89,0.0206029,10,7.41992e-05,-3.62803,-1.51288,-0.0389985,0.31498,
2,1,0,1,0,58797.8,0.319413,0.319087,0.234854,89,0.0207994,10,7.49387e-05,-3.6292,5.44399,0.0108376,0.318983,
2,1,0,0,0,58798.6,0.323409,0.323045,0.234936,89,0.0209956,10,7.58949e-05,-3.62905,-1.7234,-0.0342347,0.322941,
2,1,0,1,0,58799.4,0.327404,0.32707,0.233299,89,0.0211905,10,7.63051e-05,-3.63209,28.5468,0.00206678,0.326967,
2,1,0,0,0,58800.2,0.331399,0.331073,0.232099,89,0.0213852,10,7.68415e-05,-3.63433,-2.0537,-0.0287286,0.330971,
2,1,0,1,0,58801,0.335395,0.335055,0.23232,89,0.0215795,10,7.78401e-05,-3.63391,-1.29655,-0.0455053,0.334953,
2,1,0,1,0,58801.8,0.339389,0.339032,0.231828,89,0.021773,10,7.85973e-05,-3.63483,2.8342,0.0208171,0.33893,
2,1,0,1,0,58802.6,0.343384,0.343061,0.231222,89,0.0219663,10,7.93231e-05,-3.63597,-3.77631,-0.0156237,0.342959,
2,1,0,1,0,58803.4,0.34738,0.347059,0.231189,89,0.0221588,10,8.02363e-05,-3.63603,-2.60243,-0.0226711,0.346957,
2,1,0,0,0,58804.2,0.351375,0.351039,0.229196,89,0.0223509,10,8.04568e-05,-3.63979,5.87041,0.0100504,0.350938,
2,1,0,1,0,58805,0.35537,0.355039,0.22982,89,0.0225427,10,8.15951e-05,-3.63861,-0.863655,-0.0683143,0.354938,
2,1,0,1,0,58805.8,0.359366,0.359038,0.229184,89,0.0227339,10,8.22859e-05,-3.63982,2.0496,0.0287861,0.358937,
2,1,0,1,0,58806.6,0.36336,0.363049,0.227786,89,0.0229249,10,8.26977e-05,-3.64247,-3.89652,-0.0151417,0.362949,
2,1,0,1,0,58807.4,0.367355,0.367044,0.228013,89,0.0231153,10,8.36908e-05,-3.64204,-1.95997,-0.0301025,0.366943,
2,1,0,0,0,58808.2,0.371351,0.371015,0.22809,89,0.0233052,10,8.46249e-05,-3.64189,1.19716,0.0492831,0.370915,
2,1,0,1,0,58809,0.375346,0.375037,0.228187,89,0.0234951,10,8.55788e-05,-3.64171,-1.20499,-0.0489633,0.374937,
2,1,0,1,0,58809.8,0.379342,0.37899,0.227625,89,0.0236846,10,8.62674e-05,-3.64278,-4.45276,-0.0132502,0.37889,
2,1,0,1,0,58810.6,0.383336,0.383007,0.227286,89,0.0238737,10,8.7052e-05,-3.64343,-3.18736,-0.0185106,0.382907,
2,1,0,1,0,58811.4,0.387331,0.387014,0.226673,89,0.0240626,10,8.77257e-05,-3.6446,-2.66321,-0.0221538,0.386915,
2,1,0,0,0,58812.2,0.391327,0.391038,0.225857,89,0.0242511,10,8.83185e-05,-3.64617,2.48891,0.0237052,0.390938,
2,1,0,1,0,58813,0.395322,0.394967,0.225023,89,0.0244395,10,8.88767e-05,-3.64777,-7.38336,-0.00799094,0.394868,
2,1,0,0,0,58813.8,0.399317,0.398976,0.226164,89,0.0246273,10,9.02342e-05,-3.64558,-1.82471,-0.0323339,0.398876,
2,1,0,1,0,58814.6,0.403313,0.402994,0.225199,89,0.0248147,10,9.0754e-05,-3.64743,11.4708,0.00514348,0.402895,
2,1,0,1,0,58815.4,0.407307,0.406983,0.224801,89,0.0250019,10,9.14901e-05,-3.6482,-3.42696,-0.0172164,0.406884,
2,1,0,1,0,58816.2,0.411302,0.410929,0.225634,89,0.0251888,10,9.27193e-05,-3.6466,-5.04366,-0.0116979,0.410829,
2,1,0,1,0,58817,0.415298,0.414967,0.224077,89,0.0253756,10,9.29844e-05,-3.6496,39.6869,0.00148664,0.414868,
2,1,0,0,0,58817.8,0.419293,0.418975,0.223438,89,0.0255622,10,9.36149e-05,-3.65084,-1.88989,-0.0312187,0.418877,
2,1,0,1,0,58818.6,0.423288,0.422976,0.223597,89,0.0257483,10,9.45763e-05,-3.65053,14.3559,0.00410981,0.422878,
2,1,0,1,0,58819.4,0.427283,0.426971,0.223758,89,0.0259344,10,9.55382e-05,-3.65022,-8.25336,-0.0071486,0.426873,
2,1,0,1,0,58820.2,0.431278,0.430906,0.224204,89,0.0261201,10,9.66109e-05,-3.64936,6.74795,0.00874339,0.430807,
2,1,0,1,0,58821,0.435273,0.434916,0.223786,89,0.0263055,10,9.73283e-05,-3.65017,-9.72593,-0.00606626,0.434818,
2,1,0,0,0,58821.7,0.439269,0.438909,0.223288,89,0.0264911,10,9.80029e-05,-3.65114,-7.6697,-0.00769261,0.438811,
2,1,0,1,0,58822.5,0.443264,0.442952,0.223778,89,0.0266764,10,9.91229e-05,-3.65018,6.65307,0.00886809,0.442854,
2,1,0,0,0,58823.3,0.447259,0.44694,0.224103,89,0.0268619,10,0.000100161,-3.64955,-6.76648,-0.00871945,0.446842,
2,1,0,1,0,58824.1,0.451254,0.450895,0.223517,89,0.0270476,10,0.000100783,-3.65069,-4.7802,-0.0123426,0.450796,
2,1,0,1,0,58824.9,0.455249,0.454914,0.223587,89,0.0272331,10,0.000101713,-3.65055,2.16731,0.0272227,0.454816,
2,1,0,1,0,58825.7,0.459244,0.45893,0.22421,89,0.0274187,10,0.000102897,-3.64935,6.87578,0.00858084,0.458831,
2,1,0,1,0,58826.5,0.46324,0.462909,0.224421,89,0.0276043,10,0.000103887,-3.64894,3.1346,0.0188222,0.46281,
2,1,0,0,0,58827.3,0.467235,0.466896,0.224624,89,0.0277901,10,0.000104876,-3.64854,-22.7278,-0.00259594,0.466797,
2,1,0,1,0,58828.1,0.471231,0.470908,0.22482,89,0.0279762,10,0.000105869,-3.64817,3.58764,0.0164453,0.470809,
2,1,0,1,0,58828.9,0.475225,0.474896,0.225512,89,0.0281624,10,0.000107095,-3.64683,-16.7271,-0.00352721,0.474797,
2,1,0,1,0,58829.7,0.47922,0.478889,0.225217,89,0.0283489,10,0.000107854,-3.6474,2.93748,0.0200852,0.47879,
2,1,0,1,0,58830.5,0.483216,0.482904,0.225699,89,0.0285358,10,0.000108991,-3.64647,-4.32295,-0.0136481,0.482805,
2,1,0,0,0,58831.3,0.487211,0.486876,0.226136,89,0.0287229,10,0.0001101,-3.64563,1.9502,0.0302532,0.486777,
2,1,0,1,0,58832.1,0.491206,0.490896,0.226407,89,0.0289105,10,0.000111143,-3.64511,3.24367,0.0181893,0.490797,
2,1,0,1,0,58832.9,0.495201,0.494923,0.228205,89,0.0290986,10,0.000112944,-3.64168,1.143,0.0516184,0.494823,
2,1,0,1,0,58833.7,0.499196,0.49888,0.227982,89,0.0292871,10,0.000113736,-3.6421,5.07568,0.0116241,0.49878,
2,1,0,1,0,58834.5,0.503191,0.502891,0.229441,89,0.0294765,10,0.000115384,-3.63933,2.18363,0.0270192,0.50279,
2,1,0,0,0,58835.3,0.507187,0.506881,0.230282,89,0.0296663,10,0.000116726,-3.63774,3.01747,0.0195528,0.506779,
2,1,0,1,0,58836.1,0.511182,0.510846,0.230449,89,0.0298566,10,0.000117724,-3.63743,3.93521,0.0149928,0.510744,
2,1,0,0,0,58836.9,0.515177,0.514848,0.231784,89,0.0300477,10,0.000119333,-3.63492,20.0942,0.00293617,0.514746,
2,1,0,1,0,58837.7,0.519173,0.518866,0.233566,89,0.0302396,10,0.000121189,-3.63159,0.67354,0.0875969,0.518763,
2,1,0,1,0,58838.5,0.523167,0.52285,0.23426,89,0.0304326,10,0.000122483,-3.6303,3.77906,0.0156123,0.522746,
2,1,0,1,0,58839.3,0.527162,0.526834,0.235859,89,0.0306264,10,0.000124258,-3.62735,1.37029,0.0430567,0.52673,
2,1,0,1,0,58840.1,0.531158,0.530844,0.236518,89,0.0308211,10,0.000125554,-3.62614,1.44797,0.0407467,0.53074,
2,1,0,0,0,58840.9,0.535153,0.534856,0.238641,89,0.0310169,10,0.000127639,-3.62226,3.07097,0.0192122,0.534751,
2,1,0,1,0,58841.7,0.539148,0.538808,0.240354,89,0.0312139,10,0.000129505,-3.61915,1.06244,0.0555325,0.538702,
2,1,0,1,0,58842.5,0.543143,0.54281,0.241616,89,0.0314123,10,0.000131152,-3.61687,1.81633,0.032483,0.542703,
2,1,0,1,0,58843.3,0.547138,0.546846,0.243644,89,0.0316118,10,0.000133236,-3.61324,1.39631,0.0422541,0.546739,
2,1,0,1,0,58844.1,0.551133,0.550787,0.24506,89,0.0318128,10,0.000134976,-3.61073,0.885284,0.0666453,0.550679,
2,1,0,0,0,58844.9,0.555129,0.554834,0.24712,89,0.0320155,10,0.00013711,-3.60709,1.75335,0.0336499,0.554725,
2,1,0,1,0,58845.7,0.559124,0.558816,0.24921,89,0.0322196,10,0.000139263,-3.60343,0.831058,0.0709938,0.558707,
2,1,0,1,0,58846.5,0.56312,0.562807,0.252024,89,0.0324257,10,0.000141841,-3.59856,0.723301,0.0815704,0.562696,
2,1,0,1,0,58847.3,0.567114,0.566821,0.255172,89,0.0326342,10,0.000144637,-3.59317,0.850567,0.0693655,0.566709,
2,1,0,1,0,58848.1,0.571109,0.570791,0.257983,89,0.0328447,10,0.000147254,-3.58841,0.818337,0.0720975,0.570678,
2,1,0,0,0,58848.9,0.575105,0.57475,0.261271,89,0.0330576,10,0.000150166,-3.58291,0.626164,0.0942246,0.574635,
2,1,0,1,0,58849.7,0.5791,0.578774,0.265251,89,0.0332737,10,0.00015352,-3.57634,0.856823,0.068859,0.578658,
2,1,0,0,0,58850.5,0.583095,0.582747,0.268496,89,0.0334925,10,0.000156465,-3.57106,0.535053,0.11027,0.582628,
2,1,0,1,0,58851.3,0.58709,0.586789,0.273375,89,0.0337147,10,0.000160414,-3.56324,0.478454,0.123314,0.586669,
2,1,0,1,0,58852.1,0.591085,0.590791,0.27799,89,0.0339406,10,0.000164234,-3.55597,0.493612,0.119527,0.590669,
2,1,0,1,0,58852.9,0.59508,0.594789,0.28315,89,0.0341706,10,0.000168415,-3.54798,0.447637,0.131803,0.594665,
2,1,0,1,0,58853.7,0.599076,0.598783,0.289712,89,0.0344054,10,0.000173474,-3.53803,0.462649,0.127527,0.598656,
2,1,0,0,0,58854.5,0.603071,0.60269,0.297181,89,0.0346451,10,0.000179108,-3.52698,0.350876,0.16815,0.602559,
2,1,0,1,0,58855.3,0.607066,0.606767,0.304185,89,0.0348905,10,0.000184569,-3.51686,0.333685,0.176813,0.606633,
2,1,0,1,0,58856.1,0.611061,0.610753,0.31274,89,0.0351425,10,0.000191007,-3.50482,0.354548,0.166409,0.610616,
2,1,0,1,0,58856.9,0.615056,0.614699,0.322594,89,0.0354015,10,0.000198298,-3.49134,0.265109,0.22255,0.614557,
2,1,0,1,0,58857.7,0.619051,0.618739,0.333051,89,0.0356692,10,0.000206072,-3.47749,0.272522,0.216496,0.618593,
2,1,0,0,0,58858.5,0.623047,0.622714,0.346205,89,0.0359458,10,0.000215587,-3.46067,0.233918,0.252225,0.622562,
2,1,0,1,0,58859.3,0.627042,0.626806,0.359655,89,0.0362331,10,0.000225434,-3.44411,0.203428,0.290029,0.626648,
2,1,0,1,0,58860.1,0.631037,0.630701,0.377432,89,0.0365333,10,0.000238047,-3.42316,0.195166,0.302306,0.630534,
2,1,0,1,0,58860.9,0.635032,0.634746,0.397381,89,0.0368482,10,0.000252236,-3.40079,0.170219,0.346612,0.634571,
2,1,0,1,0,58861.7,0.639027,0.638731,0.420496,89,0.0371805,10,0.000268584,-3.37624,0.155304,0.379899,0.638546,
2,1,0,1,0,58862.5,0.643022,0.642726,0.44658,89,0.0375324,10,0.000287029,-3.3501,0.148659,0.396882,0.64253,
2,1,0,1,0,58863.3,0.647018,0.646758,0.477895,89,0.0379069,10,0.000309082,-3.32067,0.128207,0.460195,0.646548,
2,1,0,0,0,58864.1,0.651013,0.650751,0.513417,89,0.0383083,10,0.000334107,-3.28953,0.120585,0.489279,0.650526,
2,1,0,1,0,58864.9,0.655008,0.654742,0.554299,89,0.0387403,10,0.000362923,-3.25626,0.117084,0.503913,0.654499,
2,1,0,1,0,58865.7,0.659003,0.658693,0.601764,89,0.0392072,10,0.000396378,-3.22057,0.107054,0.551124,0.658428,
2,1,0,1,0,58866.5,0.662998,0.662711,0.658424,89,0.0397158,10,0.000436345,-3.18149,0.100244,0.588564,0.662421,
2,1,0,1,0,58867.3,0.666994,0.666687,0.722468,89,0.0402723,10,0.00048166,-3.14118,0.0957179,0.616395,0.666369,
2,1,0,0,0,58868.1,0.670989,0.670699,0.796719,89,0.040884,10,0.000534358,-3.09869,0.0917125,0.643315,0.670348,
2,1,0,1,0,58868.9,0.674984,0.674714,0.880322,89,0.0415587,10,0.000593965,-3.05536,0.0904793,0.652083,0.674326,
2,1,0,1,0,58869.7,0.67898,0.678669,0.975055,89,0.0423047,10,0.00066174,-3.01097,0.0887966,0.66444,0.67824,
2,1,0,1,0,58870.5,0.682974,0.682731,1.08177,89,0.0431315,10,0.000738558,-2.96587,0.0863464,0.683295,0.682255,
2,1,0,1,0,58871.3,0.686969,0.686662,1.20244,89,0.044049,10,0.000825667,-2.91994,0.0843886,0.699147,0.686133,
2,1,0,0,0,58872.1,0.690965,0.69064,1.33685,89,0.0450687,10,0.000923283,-2.87392,0.0861842,0.68458,0.690052,
2,1,0,1,0,58872.9,0.69496,0.694698,1.4859,89,0.0462015,10,0.00103225,-2.82801,0.0863656,0.683142,0.694044,
2,1,0,0,0,58873.7,0.698955,0.698663,1.64942,89,0.0474585,10,0.00115239,-2.78267,0.087035,0.677888,0.697937,
2,1,0,1,0,58874.5,0.70295,0.702653,1.82827,89,0.0488528,10,0.00128464,-2.73796,0.0871325,0.67713,0.701849,
2,1,0,1,0,58875.3,0.706945,0.706649,2.0241,89,0.0503967,10,0.00143033,-2.69377,0.0911806,0.647067,0.705758,
2,1,0,1,0,58876.1,0.71094,0.71064,2.23375,89,0.0521018,10,0.00158739,-2.65097,0.091331,0.646002,0.709657,
2,1,0,1,0,58876.9,0.714936,0.714622,2.45986,89,0.0539818,10,0.00175787,-2.60909,0.0949611,0.621307,0.71354,
2,1,0,0,0,58877.7,0.718931,0.718661,2.70124,89,0.0560481,10,0.00194128,-2.56844,0.0951407,0.620134,0.717472,
2,1,0,1,0,58878.5,0.722927,0.722574,2.95897,89,0.0583151,10,0.00213807,-2.52886,0.0997167,0.591676,0.721272,
2,1,0,1,0,58879.3,0.726921,0.726649,3.23428,89,0.0607938,10,0.00235018,-2.49022,0.102232,0.57712,0.725226,
2,1,0,1,0,58880.1,0.730916,0.730586,3.52488,89,0.063499,10,0.00257523,-2.45286,0.104333,0.565499,0.729035,
2,1,0,1,0,58880.9,0.734911,0.734579,3.83524,89,0.0664445,10,0.00281729,-2.41621,0.107163,0.550565,0.732892,
2,1,0,0,0,58881.7,0.738907,0.738593,4.16154,89,0.0696443,10,0.00307368,-2.38075,0.110209,0.535345,0.736762,
2,1,0,1,0,58882.5,0.742902,0.742577,4.50611,89,0.073112,10,0.00334614,-2.3462,0.111654,0.528419,0.740595,
2,1,0,1,0,58883.3,0.746897,0.746631,4.87121,89,0.076864,10,0.00363699,-2.31236,0.11336,0.520466,0.744487,
2,1,0,1,0,58884.1,0.750892,0.750577,5.25591,89,0.0809148,10,0.00394497,-2.27935,0.119475,0.493828,0.748265,
2,1,0,1,0,58884.9,0.754887,0.754554,5.66203,89,0.0852811,10,0.00427231,-2.24703,0.118273,0.498845,0.752063,
2,1,0,0,0,58885.7,0.758883,0.75858,6.09002,89,0.0899815,10,0.00461977,-2.21538,0.119654,0.493088,0.7559,
2,1,0,1,0,58886.5,0.762878,0.762563,6.54262,89,0.0950329,10,0.00498916,-2.18425,0.124366,0.474407,0.759684,
2,1,0,0,0,58887.3,0.766873,0.766617,7.01896,89,0.100455,10,0.00538085,-2.15373,0.125965,0.468383,0.763528,
2,1,0,1,0,58888.1,0.770868,0.770577,7.52202,89,0.106269,10,0.0057963,-2.12367,0.125913,0.468577,0.767267,
2,1,0,1,0,58888.9,0.774863,0.774561,8.05273,89,0.112496,10,0.00623733,-2.09406,0.127221,0.46376,0.771018,
2,1,0,1,0,58889.7,0.778858,0.778534,8.61319,89,0.119158,10,0.00670566,-2.06484,0.247701,0.238191,0.774745,
2,1,0,1,0,58890.5,0.782854,0.782571,8.92568,89,0.1261,10,0.00698497,-2.04936,0.13083,0.450967,0.778643,
2,1,0,0,0,58891.3,0.786849,0.786566,9.52571,89,0.133476,10,0.0074926,-2.0211,0.132833,0.444167,0.782375,
2,1,0,1,0,58892.1,0.790844,0.790564,10.1616,89,0.141345,10,0.00803339,-1.99304,0.132495,0.445301,0.786093,
2,1,0,1,0,58892.9,0.794839,0.794544,10.8373,89,0.149739,10,0.00861075,-1.96508,0.132126,0.446543,0.789775,
2,1,0,1,0,58893.7,0.798834,0.798559,11.5519,89,0.158687,10,0.00922487,-1.93735,0.132211,0.446256,0.793477,
2,1,0,1,0,58894.5,0.802829,0.802587,12.326,89,0.168226,10,0.00989268,-1.90918,0.129972,0.453946,0.797164,
2,1,0,0,0,58895.3,0.806825,0.80654,13.1375,89,0.178404,10,0.0105959,-1.88149,0.132644,0.4448,0.80076,
2,1,0,1,0,58896.1,0.81082,0.810535,13.9853,89,0.189244,10,0.0113356,-1.85433,0.132295,0.445972,0.804381,
2,1,0,1,0,58896.9,0.814815,0.814535,14.8815,89,0.200783,10,0.0121215,-1.82735,0.132999,0.443613,0.807987,
2,1,0,1,0,58897.7,0.81881,0.818533,15.8271,89,0.213057,10,0.012955,-1.8006,0.135199,0.436393,0.811569,
2,1,0,1,0,58898.5,0.822805,0.822524,16.8194,89,0.226106,10,0.0138344,-1.77419,0.136402,0.432546,0.815124,
2,1,0,0,0,58899.3,0.826801,0.826551,17.8374,89,0.239959,10,0.0147436,-1.74867,0.14178,0.416136,0.818702,
2,1,0,1,0,58900.1,0.830796,0.830556,18.8788,89,0.254633,10,0.0156799,-1.72402,0.141589,0.416698,0.822249,
2,1,0,0,0,58900.9,0.834791,0.834535,19.9724,89,0.270159,10,0.0166677,-1.69957,0.146611,0.402425,0.825747,
2,1,0,1,0,58901.7,0.838786,0.838511,21.0982,89,0.286577,10,0.0176911,-1.67575,0.152424,0.387079,0.829227,
2,1,0,1,0,58902.5,0.842781,0.842526,22.2121,89,0.303891,10,0.0187143,-1.65341,0.161745,0.364772,0.832753,
2,1,0,1,0,58903.3,0.846776,0.846558,23.3398,89,0.322093,10,0.0197585,-1.6319,0.161386,0.365583,0.836289,
2,1,0,0,0,58904,0.849723,0.849492,24.1176,89,0.338774,10,0.0204877,-1.61767,0.0490707,1.20235,0.83888,
2,1,0,1,0,58904.7,0.845728,0.845443,22.3626,89,0.357297,10,0.0189063,-1.65048,0.110704,0.53295,0.835604,
2,1,0,0,0,58905.5,0.841732,0.841472,20.9336,89,0.374572,10,0.0176151,-1.67916,0.121119,0.487125,0.832261,
2,1,0,1,0,58906.3,0.837737,0.837475,19.6262,89,0.390765,10,0.0164364,-1.70716,0.12227,0.482538,0.828839,
2,1,0,1,0,58907.1,0.833742,0.83345,18.3872,89,0.405939,10,0.0153248,-1.73548,0.121683,0.484867,0.82536,
2,1,0,1,0,58907.9,0.829747,0.829448,17.2171,89,0.420148,10,0.0142807,-1.76404,0.122825,0.48036,0.821873,
2,1,0,1,0,58908.7,0.825752,0.825468,16.1245,89,0.433459,10,0.0133103,-1.79251,0.110934,0.531847,0.818374,
2,1,0,0,0,58909.5,0.821757,0.821488,15.0121,89,0.445864,10,0.0123323,-1.82356,0.125194,0.471267,0.814882,
2,1,0,1,0,58910.3,0.817761,0.817482,14.036,89,0.457457,10,0.0114742,-1.85276,0.123025,0.479577,0.811306,
2,1,0,1,0,58911.1,0.813766,0.813428,13.1548,89,0.468304,10,0.0107005,-1.88091,0.128476,0.459231,0.80764,
2,1,0,1,0,58911.9,0.809771,0.80946,12.3008,89,0.478465,10,0.00995702,-1.91007,0.122519,0.481557,0.804047,
2,1,0,1,0,58912.7,0.805776,0.805502,11.4887,89,0.487959,10,0.00925421,-1.93973,0.123539,0.477582,0.800447,
2,1,0,0,0,58913.5,0.801781,0.801481,10.7225,89,0.496822,10,0.00859387,-1.9697,0.121789,0.484443,0.796763,
2,1,0,1,0,58914.3,0.797786,0.797463,10.0008,89,0.505092,10,0.00797528,-1.99996,0.121331,0.486275,0.793063,
2,1,0,1,0,58915.1,0.79379,0.793526,9.31887,89,0.512801,10,0.00739477,-2.03064,0.120896,0.488023,0.789426,
2,1,0,1,0,58915.9,0.789795,0.789543,8.68567,89,0.519984,10,0.00685771,-2.0612,0.12138,0.486079,0.785721,
2,1,0,1,0,58916.7,0.7858,0.785457,8.09494,89,0.526678,10,0.00635823,-2.09179,0.121797,0.484412,0.781895,
2,1,0,0,0,58917.5,0.781805,0.78149,7.53094,89,0.532913,10,0.00588536,-2.12315,0.117918,0.50035,0.778176,
2,1,0,1,0,58918.3,0.77781,0.777534,7.00022,89,0.53871,10,0.00544291,-2.15489,0.118896,0.496231,0.774454,
2,1,0,0,0,58919.1,0.773814,0.773487,6.50901,89,0.544096,10,0.00503464,-2.18648,0.117776,0.500949,0.770623,
2,1,0,1,0,58919.9,0.769819,0.769517,6.03761,89,0.549102,10,0.00464604,-2.21914,0.115503,0.51081,0.76686,
2,1,0,1,0,58920.7,0.765824,0.765527,5.58993,89,0.55374,10,0.00427924,-2.25259,0.112699,0.523519,0.763067,
2,1,0,1,0,58921.5,0.761829,0.761546,5.17166,89,0.558031,10,0.00393846,-2.28637,0.113571,0.5195,0.759271,
2,1,0,1,0,58922.3,0.757834,0.757559,4.80459,89,0.562005,10,0.00363976,-2.31834,0.118192,0.499188,0.755445,
2,1,0,0,0,58923.1,0.753839,0.753502,4.42966,89,0.565686,10,0.00333776,-2.35363,0.106686,0.553026,0.751553,
2,1,0,1,0,58923.9,0.749844,0.749542,4.0779,89,0.569078,10,0.00305656,-2.38956,0.105379,0.559882,0.747748,
2,1,0,1,0,58924.7,0.745848,0.745586,3.74646,89,0.572197,10,0.00279331,-2.42638,0.102781,0.574033,0.743937,
2,1,0,1,0,58925.5,0.741853,0.741516,3.43352,89,0.575058,10,0.00254601,-2.46426,0.103262,0.57136,0.740005,
2,1,0,1,0,58926.3,0.737858,0.73755,3.14382,89,0.577679,10,0.00231872,-2.50254,0.0975365,0.604902,0.736166,
2,1,0,0,0,58927.1,0.733863,0.733607,2.86894,89,0.580075,10,0.00210467,-2.54228,0.0957626,0.616107,0.732345,
2,1,0,1,0,58927.9,0.729868,0.729587,2.60638,89,0.582255,10,0.00190158,-2.58396,0.092492,0.637893,0.728441,
2,1,0,1,0,58928.7,0.725872,0.725624,2.36168,89,0.584234,10,0.00171369,-2.62678,0.0882313,0.668697,0.724585,
2,1,0,1,0,58929.5,0.721877,0.721565,2.12996,89,0.586021,10,0.00153691,-2.67163,0.0865313,0.681834,0.720628,
2,1,0,1,0,58930.3,0.717882,0.717578,1.91432,89,0.587631,10,0.00137367,-2.71799,0.0821342,0.718336,0.716735,
2,1,0,0,0,58931.1,0.713887,0.71358,1.71279,89,0.589074,10,0.00122221,-2.7663,0.0796031,0.741178,0.712826,
2,1,0,1,0,58931.9,0.709892,0.709598,1.52687,89,0.590361,10,0.00108346,-2.8162,0.0764335,0.771913,0.708926,
2,1,0,0,0,58932.7,0.705897,0.705581,1.35249,89,0.591505,10,0.000954294,-2.86886,0.0729096,0.809221,0.704986,
2,1,0,1,0,58933.5,0.701901,0.701611,1.19321,89,0.592515,10,0.000837167,-2.92328,0.0701631,0.840898,0.701086,
2,1,0,1,0,58934.3,0.697906,0.697639,1.04476,89,0.593403,10,0.000728868,-2.98098,0.0664962,0.887268,0.69718,
2,1,0,1,0,58935.1,0.693911,0.693593,0.909464,89,0.594177,10,0.000630798,-3.04121,0.0633002,0.932067,0.693193,
2,1,0,1,0,58935.9,0.689916,0.689627,0.784986,89,0.594847,10,0.000541348,-3.10514,0.0604076,0.976699,0.689282,
2,1,0,0,0,58936.7,0.685921,0.685582,0.672656,89,0.595423,10,0.00046116,-3.17221,0.0572558,1.03046,0.685286,
2,1,0,1,0,58937.5,0.681926,0.681606,0.570416,89,0.595913,10,0.000388799,-3.24381,0.0542531,1.08749,0.681355,
2,1,0,1,0,58938.3,0.67793,0.677628,0.480522,89,0.596327,10,0.000325615,-3.31829,0.0509219,1.15864,0.677417,
2,1,0,1,0,58939.1,0.673935,0.673631,0.400128,89,0.596673,10,0.000269539,-3.3978,0.0473934,1.2449,0.673455,
2,1,0,1,0,58939.9,0.66994,0.669632,0.328636,89,0.596957,10,0.000220065,-3.48329,0.0450175,1.3106,0.669488,
2,1,0,0,0,58940.7,0.665945,0.6657,0.264379,89,0.597187,10,0.000175997,-3.57777,0.041164,1.43329,0.665584,
2,1,0,1,0,58941.5,0.66195,0.661642,0.209224,89,0.597371,10,0.000138432,-3.67939,0.0363967,1.62103,0.66155,
2,1,0,0,0,58942.3,0.657955,0.65765,0.161107,89,0.597512,10,0.000105952,-3.79289,0.0326321,1.80804,0.657579,
2,1,0,1,0,58943.1,0.653959,0.653648,0.118638,89,0.597619,10,7.75474e-05,-3.92578,0.0283945,2.07787,0.653596,
2,1,0,1,0,58943.9,0.649964,0.649678,0.0837079,89,0.597693,10,5.43832e-05,-4.07723,0.0228328,2.584,0.649642,
2,1,0,1,0,58944.7,0.64597,0.645667,0.0526,89,0.597742,10,3.39621e-05,-4.27901,0.0174379,3.38343,0.645644,
2,1,0,1,0,58945.5,0.641974,0.641667,0.02682,89,0.597768,10,1.72095e-05,-4.57154,0.00928196,6.35642,0.641655,
2,1,0,0,0,58946.3,0.637979,0.637676,0.00521701,89,0.597775,10,3.32676e-06,-5.28258,0.00715234,8.24905,0.637673,
2,0,0,1,0,58947.1,0.633983,0.633696,-0.0133328,89,0.597766,10,-8.44893e-06,-4.87508,-0.00574578,-10.2684,0.633702,
2,0,0,1,0,58947.9,0.629988,0.629679,-0.0286252,89,0.597743,10,-1.80247e-05,-4.54325,-0.0175435,-3.36306,0.629692,
2,0,0,1,0,58948.7,0.625993,0.625691,-0.041835,89,0.597709,10,-2.61758e-05,-4.37846,-0.0342538,-1.72244,0.625709,
2,0,0,1,0,58949.5,0.621998,0.621675,-0.0522143,89,0.597667,10,-3.24603e-05,-4.28221,-0.0435624,-1.35438,0.621698,
2,0,0,0,0,58950.3,0.618003,0.617662,-0.0609951,89,0.597616,10,-3.76743e-05,-4.21471,-0.0607359,-0.971418,0.617688,
2,0,0,1,0,58951.1,0.614008,0.613665,-0.0689087,89,0.597558,10,-4.22868e-05,-4.16173,-0.0960335,-0.614369,0.613695,
2,0,0,1,0,58951.9,0.610012,0.609707,-0.0756839,89,0.597494,10,-4.6145e-05,-4.121,-0.137434,-0.429297,0.60974,
2,0,0,1,0,58952.7,0.606017,0.6057,-0.0802543,89,0.597426,10,-4.86101e-05,-4.09553,-0.129115,-0.456958,0.605736,
2,0,0,1,0,58953.5,0.602022,0.601695,-0.0863089,89,0.597353,10,-5.19317e-05,-4.06394,-0.197536,-0.29868,0.601733,
2,0,0,0,0,58954.3,0.598027,0.597653,-0.0900258,89,0.597277,10,-5.38042e-05,-4.04563,-0.180655,-0.326589,0.597692,
2,0,0,1,0,58955.1,0.594032,0.593661,-0.0935858,89,0.597198,10,-5.55583e-05,-4.02879,-0.326848,-0.180512,0.593703,
2,0,0,0,0,58955.9,0.590037,0.589732,-0.0964612,89,0.597116,10,-5.68862e-05,-4.01565,-0.233534,-0.252639,0.589774,
2,0,0,1,0,58956.7,0.586041,0.58578,-0.0991186,89,0.597032,10,-5.80617e-05,-4.00385,-0.44644,-0.132157,0.585824,
2,0,0,1,0,58957.5,0.582046,0.58171,-0.100934,89,0.596946,10,-5.87141e-05,-3.99596,-0.464858,-0.12692,0.581754,
2,0,0,1,0,58958.3,0.578052,0.57776,-0.103572,89,0.596858,10,-5.98397e-05,-3.98476,-0.504338,-0.116985,0.577806,
2,0,0,1,0,58959.1,0.574056,0.573768,-0.104247,89,0.596769,10,-5.98135e-05,-3.98194,-0.70132,-0.0841271,0.573814,
2,0,0,0,0,58959.9,0.570061,0.569754,-0.106782,89,0.596679,10,-6.08395e-05,-3.9715,-0.862289,-0.0684225,0.569801,
2,0,0,1,0,58960.7,0.566065,0.565753,-0.1082,89,0.596587,10,-6.12143e-05,-3.96577,-0.420222,-0.140402,0.565801,
2,0,0,1,0,58961.5,0.56207,0.561743,-0.109904,89,0.596494,10,-6.17379e-05,-3.95899,-1.52096,-0.0387913,0.561791,
2,0,0,1,0,58962.3,0.558075,0.55775,-0.110272,89,0.596401,10,-6.15043e-05,-3.95753,-0.586293,-0.100632,0.557798,
2,0,0,1,0,58963.1,0.55408,0.553762,-0.111809,89,0.596306,10,-6.19157e-05,-3.95152,-1.0001,-0.0589938,0.553811,
2,0,0,0,0,58963.9,0.550085,0.549761,-0.11233,89,0.59621,10,-6.17544e-05,-3.94951,-3.41021,-0.017301,0.54981,
2,0,0,1,0,58964.7,0.54609,0.545767,-0.113989,89,0.596114,10,-6.22114e-05,-3.94314,-0.958781,-0.0615365,0.545817,
2,0,0,1,0,58965.5,0.542094,0.541791,-0.11416,89,0.596017,10,-6.18509e-05,-3.94249,-0.738094,-0.0799356,0.541841,
2,0,0,1,0,58966.3,0.538099,0.537765,-0.115895,89,0.595919,10,-6.23243e-05,-3.93594,-2.31903,-0.0254416,0.537816,
2,0,0,1,0,58967.1,0.534104,0.533796,-0.116388,89,0.59582,10,-6.21274e-05,-3.93409,-0.855887,-0.0689343,0.533847,
2,0,0,0,0,58967.9,0.530109,0.529811,-0.117696,89,0.59572,10,-6.23567e-05,-3.92924,-1.22667,-0.0480978,0.529863,
2,0,0,1,0,58968.7,0.526114,0.525808,-0.11879,89,0.59562,10,-6.24608e-05,-3.92522,-1.63266,-0.0361374,0.52586,
2,0,0,0,0,58969.5,0.522119,0.521778,-0.118896,89,0.595519,10,-6.20374e-05,-3.92483,-0.956131,-0.061707,0.521831,
2,0,0,1,0,58970.3,0.518123,0.517775,-0.120443,89,0.595417,10,-6.23622e-05,-3.91922,3.86312,0.0152726,0.517828,
2,0,0,1,0,58971.1,0.514128,0.513806,-0.121943,89,0.595314,10,-6.26552e-05,-3.91384,-0.46578,-0.126669,0.51386,
2,0,0,1,0,58971.9,0.510133,0.509787,-0.122831,89,0.59521,10,-6.26175e-05,-3.91069,-2.16495,-0.0272524,0.509841,
2,0,0,1,0,58972.7,0.506138,0.505815,-0.12345,89,0.595106,10,-6.24428e-05,-3.90851,-9.79372,-0.00602427,0.505869,
2,0,0,0,0,58973.5,0.502143,0.501796,-0.124366,89,0.595001,10,-6.24062e-05,-3.9053,-0.420903,-0.140175,0.501851,
2,0,0,1,0,58974.3,0.498148,0.497837,-0.125873,89,0.594894,10,-6.26641e-05,-3.90007,6.46745,0.0091226,0.497892,
2,0,0,1,0,58975.1,0.494152,0.493827,-0.126425,89,0.594787,10,-6.24323e-05,-3.89817,-0.631962,-0.09336,0.493882,
2,0,0,1,0,58975.9,0.490157,0.489838,-0.127579,89,0.594679,10,-6.24931e-05,-3.89422,-0.64451,-0.0915423,0.489894,
2,0,0,1,0,58976.7,0.486162,0.485862,-0.128793,89,0.59457,10,-6.25757e-05,-3.89011,-4.50492,-0.0130968,0.485918,
2,0,0,0,0,58977.5,0.482167,0.481809,-0.1301,89,0.59446,10,-6.26834e-05,-3.88572,-0.485835,-0.12144,0.481866,
2,0,0,1,0,58978.3,0.478172,0.477848,-0.131829,89,0.594349,10,-6.29941e-05,-3.87999,25.5459,0.00230957,0.477906,
2,0,0,0,0,58979.1,0.474177,0.473873,-0.133048,89,0.594237,10,-6.30479e-05,-3.87599,-1.29637,-0.0455117,0.473931,
2,0,0,1,0,58979.9,0.470181,0.469862,-0.134296,89,0.594124,10,-6.31006e-05,-3.87194,-0.519464,-0.113579,0.469921,
2,0,0,1,0,58980.7,0.466186,0.465818,-0.135478,89,0.59401,10,-6.31079e-05,-3.86813,-1.76482,-0.0334311,0.465877,
2,0,0,1,0,58981.5,0.462191,0.461808,-0.137371,89,0.593894,10,-6.34389e-05,-3.86211,-0.551014,-0.107075,0.461868,
2,0,0,1,0,58982.3,0.458196,0.457881,-0.138376,89,0.593778,10,-6.33597e-05,-3.85894,-0.852681,-0.0691935,0.457941,
2,0,0,0,0,58983.1,0.454201,0.453903,-0.139379,89,0.59366,10,-6.32644e-05,-3.8558,-1.27474,-0.0462839,0.453964,
2,0,0,1,0,58983.9,0.450205,0.449883,-0.141706,89,0.593541,10,-6.37513e-05,-3.84861,-0.720913,-0.0818406,0.449945,
2,0,0,1,0,58984.7,0.44621,0.445887,-0.141969,89,0.593421,10,-6.3302e-05,-3.84781,-0.77314,-0.0763122,0.44595,
2,0,0,1,0,58985.5,0.442215,0.441901,-0.144584,89,0.593299,10,-6.3892e-05,-3.83988,-1.32186,-0.0446341,0.441964,
2,0,0,1,0,58986.3,0.43822,0.437919,-0.146163,89,0.593177,10,-6.40076e-05,-3.83516,-0.78417,-0.0752387,0.437984,
2,0,0,0,0,58987.1,0.434225,0.43392,-0.147925,89,0.593053,10,-6.41877e-05,-3.82996,-0.702446,-0.0839922,0.433985,
2,0,0,1,0,58987.8,0.43023,0.429901,-0.148943,89,0.592927,10,-6.40306e-05,-3.82698,-0.897581,-0.0657322,0.429966,
2,0,0,1,0,58988.6,0.426234,0.425929,-0.15124,89,0.5928,10,-6.44176e-05,-3.82033,-0.617231,-0.0955882,0.425996,
2,0,0,1,0,58989.4,0.422239,0.421904,-0.153315,89,0.592672,10,-6.46841e-05,-3.81442,-1.07166,-0.0550549,0.421972,
2,0,0,1,0,58990.2,0.418244,0.417928,-0.155228,89,0.592542,10,-6.4874e-05,-3.80903,-0.667336,-0.0884112,0.417996,
2,0,0,0,0,58991,0.414249,0.413943,-0.155415,89,0.59241,10,-6.43328e-05,-3.80851,-0.923618,-0.0638792,0.414011,
2,0,0,1,0,58991.8,0.410254,0.409889,-0.158527,89,0.592277,10,-6.49786e-05,-3.7999,-1.23842,-0.0476415,0.409958,
2,0,0,0,0,58992.6,0.406259,0.405941,-0.160242,89,0.592143,10,-6.50486e-05,-3.79522,-0.569866,-0.103533,0.406011,
2,0,0,1,0,58993.4,0.402263,0.401933,-0.161286,89,0.592007,10,-6.48263e-05,-3.7924,-0.800976,-0.0736601,0.402004,
2,0,0,1,0,58994.2,0.398268,0.397969,-0.164221,89,0.59187,10,-6.53547e-05,-3.78457,-0.697412,-0.0845985,0.398041,
2,0,0,1,0,58995,0.394274,0.393973,-0.165297,89,0.591731,10,-6.51225e-05,-3.78174,-0.93699,-0.0629676,0.394046,
2,0,0,1,0,58995.8,0.390278,0.389934,-0.168063,89,0.59159,10,-6.55336e-05,-3.77453,-1.19023,-0.0495704,0.390008,
2,0,0,0,0,58996.6,0.386283,0.385885,-0.169774,89,0.591448,10,-6.55134e-05,-3.77013,-0.542044,-0.108847,0.38596,
2,0,0,1,0,58997.4,0.382287,0.381963,-0.171175,89,0.591304,10,-6.53825e-05,-3.76656,-0.796841,-0.0740424,0.382038,
2,0,0,1,0,58998.2,0.378292,0.377977,-0.173822,89,0.591158,10,-6.57007e-05,-3.75989,-0.972035,-0.0606974,0.378053,
2,0,0,1,0,58999,0.374297,0.37394,-0.175586,89,0.591011,10,-6.56587e-05,-3.75551,-0.602319,-0.0979548,0.374017,
2,0,0,1,0,58999.8,0.370303,0.369989,-0.177626,89,0.590862,10,-6.57196e-05,-3.75049,-0.821672,-0.0718048,0.370067,
2,0,0,0,0,59000.6,0.366307,0.365992,-0.179544,89,0.590711,10,-6.57118e-05,-3.74583,-0.941597,-0.0626595,0.366071,
2,0,0,1,0,59001.4,0.362312,0.361979,-0.18253,89,0.590558,10,-6.60722e-05,-3.73867,-0.717401,-0.0822413,0.36206,
2,0,0,1,0,59002.2,0.358316,0.357976,-0.184055,89,0.590403,10,-6.58871e-05,-3.73505,-0.729781,-0.0808462,0.358057,
2,0,0,1,0,59003,0.354321,0.354049,-0.187305,89,0.590247,10,-6.63152e-05,-3.72745,-1.18985,-0.0495862,0.354131,
2,0,0,1,0,59003.8,0.350327,0.349957,-0.188132,89,0.590089,10,-6.5838e-05,-3.72554,-0.799991,-0.0737508,0.350039,
2,0,0,0,0,59004.6,0.346331,0.346038,-0.190925,89,0.589929,10,-6.60675e-05,-3.71914,-0.884367,-0.0667144,0.346122,
2,0,0,1,0,59005.4,0.342336,0.342033,-0.193567,89,0.589767,10,-6.62062e-05,-3.71317,-0.487259,-0.121086,0.342118,
2,0,0,0,0,59006.2,0.338341,0.33799,-0.194977,89,0.589603,10,-6.59001e-05,-3.71002,-0.91268,-0.0646448,0.338076,
2,0,0,1,0,59007,0.334345,0.333983,-0.198219,89,0.589438,10,-6.62017e-05,-3.70285,-0.678204,-0.0869944,0.33407,
2,0,0,1,0,59007.8,0.33035,0.33002,-0.200176,89,0.589271,10,-6.60619e-05,-3.69859,-0.924961,-0.0637865,0.330108,
2,0,0,1,0,59008.6,0.326355,0.326037,-0.201842,89,0.589102,10,-6.58081e-05,-3.69499,-0.965721,-0.0610943,0.326126,
2,0,0,1,0,59009.4,0.32236,0.322064,-0.204481,89,0.58893,10,-6.58558e-05,-3.68935,-0.779242,-0.0757146,0.322154,
2,0,0,0,0,59010.2,0.318365,0.318056,-0.20613,89,0.588757,10,-6.55609e-05,-3.68586,-1.13326,-0.0520622,0.318147,
2,0,0,1,0,59011,0.31437,0.314062,-0.209314,89,0.588582,10,-6.57374e-05,-3.6792,-1.16166,-0.0507894,0.314154,
2,0,0,1,0,59011.8,0.310374,0.310058,-0.211383,89,0.588405,10,-6.55412e-05,-3.67493,-0.432811,-0.136318,0.310151,
2,0,0,1,0,59012.6,0.306379,0.305963,-0.214886,89,0.588226,10,-6.57471e-05,-3.66779,-0.930167,-0.0634295,0.306057,
2,0,0,1,0,59013.4,0.302385,0.302013,-0.216415,89,0.588045,10,-6.536e-05,-3.66471,-0.844473,-0.069866,0.302108,
2,0,0,0,0,59014.2,0.298389,0.29811,-0.219513,89,0.587862,10,-6.5439e-05,-3.65854,-0.701305,-0.0841288,0.298207,
2,0,0,1,0,59015,0.294394,0.294071,-0.222108,89,0.587677,10,-6.53157e-05,-3.65343,-0.888582,-0.0663979,0.294169,
2,0,0,1,0,59015.8,0.290398,0.290055,-0.225238,89,0.58749,10,-6.53315e-05,-3.64736,-0.756316,-0.0780097,0.290154,
2,0,0,1,0,59016.6,0.286403,0.286045,-0.226171,89,0.5873,10,-6.46951e-05,-3.64556,-0.871263,-0.0677178,0.286144,
2,0,0,1,0,59017.4,0.282408,0.282064,-0.229508,89,0.587109,10,-6.47361e-05,-3.6392,-1.10757,-0.0532699,0.282165,
2,0,0,1,0,59018.2,0.278414,0.278059,-0.232225,89,0.586915,10,-6.45722e-05,-3.63409,-0.702385,-0.0839995,0.278161,
2,0,0,1,0,59019,0.274418,0.274082,-0.234854,89,0.586719,10,-6.43694e-05,-3.6292,-0.628235,-0.0939138,0.274186,
2,0,0,0,0,59019.8,0.270423,0.270075,-0.239448,89,0.586522,10,-6.46689e-05,-3.62079,-1.02949,-0.0573098,0.27018,
2,0,0,1,0,59020.6,0.266427,0.26605,-0.241276,89,0.586322,10,-6.41914e-05,-3.61749,-1.15955,-0.0508817,0.266156,
2,0,0,1,0,59021.4,0.262432,0.262101,-0.242101,89,0.58612,10,-6.34549e-05,-3.616,-0.73493,-0.0802798,0.262207,
2,0,0,1,0,59022.2,0.258437,0.258143,-0.245369,89,0.585916,10,-6.33403e-05,-3.61018,-0.830687,-0.0710255,0.258251,
2,0,0,1,0,59023,0.254442,0.254097,-0.246834,89,0.585711,10,-6.27198e-05,-3.60759,-1.72939,-0.034116,0.254206,
2,0,0,0,0,59023.8,0.250447,0.25011,-0.249143,89,0.585503,10,-6.23131e-05,-3.60355,-1.34219,-0.0439581,0.250219,
2,0,0,1,0,59024.6,0.246452,0.246134,-0.25201,89,0.585294,10,-6.20282e-05,-3.59858,-0.547358,-0.10779,0.246245,
2,0,0,1,0,59025.4,0.242456,0.242161,-0.253802,89,0.585082,10,-6.14609e-05,-3.5955,-1.60567,-0.0367448,0.242272,
2,0,0,1,0,59026.2,0.238461,0.23816,-0.256966,89,0.584868,10,-6.11991e-05,-3.59012,-0.876376,-0.0673227,0.238273,
2,0,0,1,0,59027,0.234467,0.234113,-0.257985,89,0.584653,10,-6.03976e-05,-3.58841,-0.980455,-0.0601762,0.234226,
2,0,0,0,0,59027.8,0.230471,0.230134,-0.261342,89,0.584436,10,-6.01437e-05,-3.58279,-0.883969,-0.0667444,0.230249,
2,0,0,1,0,59028.6,0.226476,0.226176,-0.263958,89,0.584217,10,-5.97012e-05,-3.57846,-0.974725,-0.0605299,0.226293,
2,0,0,0,0,59029.4,0.222481,0.222174,-0.266707,89,0.583996,10,-5.92556e-05,-3.57397,-1.02628,-0.0574889,0.222292,
2,0,0,1,0,59030.2,0.218485,0.218179,-0.270372,89,0.583772,10,-5.89893e-05,-3.56804,-1.45674,-0.0405015,0.218298,
2,0,0,1,0,59031,0.21449,0.214164,-0.271716,89,0.583547,10,-5.81918e-05,-3.56589,-0.603152,-0.0978194,0.214284,
2,0,0,1,0,59031.8,0.210496,0.210148,-0.274298,89,0.583319,10,-5.76431e-05,-3.56178,-1.30281,-0.0452866,0.210268,
2,0,0,1,0,59032.6,0.2065,0.206193,-0.278328,89,0.58309,10,-5.73893e-05,-3.55544,-0.979925,-0.0602087,0.206316,
2,0,0,0,0,59033.4,0.202505,0.202167,-0.280725,89,0.582858,10,-5.67532e-05,-3.55172,-0.902353,-0.0653846,0.20229,
2,0,0,1,0,59034.2,0.198509,0.198173,-0.283445,89,0.582623,10,-5.61711e-05,-3.54753,-0.746549,-0.0790303,0.198298,
2,0,0,1,0,59035,0.194514,0.194161,-0.286221,89,0.582386,10,-5.55728e-05,-3.5433,-0.740037,-0.0797257,0.194287,
2,0,0,1,0,59035.8,0.190519,0.190194,-0.289168,89,0.582146,10,-5.49979e-05,-3.53885,-0.741831,-0.0795329,0.190321,
2,0,0,1,0,59036.6,0.186524,0.186158,-0.293596,89,0.581902,10,-5.46551e-05,-3.53225,-0.812259,-0.072637,0.186287,
2,0,0,0,0,59037.4,0.182529,0.182195,-0.297946,89,0.581656,10,-5.42844e-05,-3.52586,-0.600906,-0.0981851,0.182326,
2,0,0,1,0,59038.2,0.178534,0.178178,-0.303329,89,0.581406,10,-5.40466e-05,-3.51809,-0.56703,-0.104051,0.178312,
2,0,0,1,0,59039,0.174538,0.174183,-0.308145,89,0.581153,10,-5.36737e-05,-3.51125,-0.485641,-0.121489,0.174319,
2,0,0,1,0,59039.8,0.170543,0.17021,-0.31348,89,0.580895,10,-5.33574e-05,-3.50379,-0.388523,-0.151857,0.170348,
2,0,0,1,0,59040.6,0.166549,0.166236,-0.320218,89,0.580631,10,-5.32318e-05,-3.49455,-0.5138,-0.114831,0.166377,
2,0,0,0,0,59041.4,0.162553,0.16221,-0.328535,89,0.580361,10,-5.32915e-05,-3.48342,-0.29954,-0.196969,0.162354,
2,0,0,1,0,59042.2,0.158558,0.158196,-0.339025,89,0.580084,10,-5.36324e-05,-3.46977,-0.2793,-0.211242,0.158345,
2,0,0,0,0,59043,0.154563,0.154212,-0.352971,89,0.579798,10,-5.44323e-05,-3.45226,-0.225986,-0.261078,0.154367,
2,0,0,1,0,59043.8,0.150567,0.150263,-0.369837,89,0.5795,10,-5.55729e-05,-3.43199,-0.161289,-0.365804,0.150426,
2,0,0,1,0,59044.6,0.146572,0.146269,-0.39163,89,0.579186,10,-5.72832e-05,-3.40712,-0.148862,-0.396341,0.146441,
2,0,0,1,0,59045.4,0.142578,0.142264,-0.421517,89,0.578852,10,-5.99666e-05,-3.37518,-0.11479,-0.513983,0.142449,
2,0,0,1,0,59046.2,0.138582,0.138217,-0.456873,89,0.578491,10,-6.31476e-05,-3.3402,-0.103474,-0.570192,0.138418,
2,0,0,0,0,59047,0.134587,0.134269,-0.502038,89,0.578098,10,-6.7408e-05,-3.29926,-0.10325,-0.571427,0.13449,
2,0,0,1,0,59047.8,0.130591,0.130215,-0.545501,89,0.57767,10,-7.10323e-05,-3.2632,-0.114619,-0.514747,0.130455,
2,0,0,1,0,59048.6,0.126596,0.126226,-0.58604,89,0.577205,10,-7.39733e-05,-3.23207,-0.129386,-0.456,0.126484,
2,0,0,1,0,59049.4,0.122602,0.122297,-0.623147,89,0.57671,10,-7.62091e-05,-3.20541,-0.221132,-0.266809,0.122571,
2,0,0,1,0,59050.2,0.118607,0.118302,-0.646437,89,0.576192,10,-7.64745e-05,-3.18947,-0.268367,-0.219849,0.118586,
2,0,0,0,0,59051,0.114611,0.114282,-0.660295,89,0.575659,10,-7.546e-05,-3.18026,-0.865866,-0.0681399,0.114573,
2,0,0,1,0,59051.8,0.110616,0.110245,-0.666804,89,0.575118,10,-7.3512e-05,-3.176,-1.20495,-0.0489647,0.110539,
2,0,0,1,0,59052.6,0.10662,0.106267,-0.666661,89,0.574575,10,-7.08444e-05,-3.17609,-53.4172,-0.00110451,0.106561,
2,0,0,1,0,59053.4,0.102625,0.102304,-0.667522,89,0.57403,10,-6.82902e-05,-3.17553,1.64079,0.0359582,0.102598,
2,0,0,1,0,59054.2,0.0986305,0.098281,-0.663794,89,0.573487,10,-6.52383e-05,-3.17797,2.52692,0.0233486,0.098573,
2,0,0,0,0,59055,0.0946351,0.0942979,-0.65885,89,0.572948,10,-6.21282e-05,-3.18121,1.13345,0.0520533,0.0945878,
2,0,0,1,0,59055.8,0.0906399,0.090279,-0.654495,89,0.572411,10,-5.90872e-05,-3.18409,0.955708,0.0617343,0.090567,
2,0,0,0,0,59056.6,0.0866448,0.0863152,-0.647432,89,0.57188,10,-5.58832e-05,-3.18881,1.03012,0.0572747,0.0866001,
2,0,0,1,0,59057.4,0.0826492,0.0823129,-0.640702,89,0.571355,10,-5.27381e-05,-3.19334,0.730792,0.0807344,0.0825948,
2,0,0,1,0,59058.2,0.0786544,0.0783028,-0.633836,89,0.570835,10,-4.96312e-05,-3.19802,0.879498,0.0670838,0.0785817,
2,0,0,1,0,59059,0.0746596,0.0743604,-0.625914,89,0.570322,10,-4.65432e-05,-3.20349,0.730024,0.0808193,0.0746358,
2,0,0,1,0,59059.8,0.0706641,0.0702999,-0.618306,89,0.569815,10,-4.34669e-05,-3.2088,0.64857,0.0909693,0.0705719,
2,0,0,0,0,59060.6,0.0666689,0.066317,-0.609972,89,0.569314,10,-4.04515e-05,-3.21469,0.746348,0.0790515,0.0665854,
2,0,0,1,0,59061.4,0.0626737,0.0623617,-0.600273,89,0.568819,10,-3.7434e-05,-3.22165,0.713329,0.0827108,0.0626258,
2,0,0,1,0,59062.2,0.0586783,0.0583202,-0.594041,89,0.568331,10,-3.46446e-05,-3.22618,0.536375,0.109998,0.0585816,
2,0,0,1,0,59063,0.0546835,0.0543389,-0.585292,89,0.56785,10,-3.18041e-05,-3.23263,0.745276,0.0791653,0.0545964,
2,0,0,1,0,59063.8,0.0506886,0.0503191,-0.576424,89,0.567375,10,-2.90051e-05,-3.23926,0.533831,0.110522,0.0505727,
2,0,0,0,0,59064.6,0.046693,0.0463262,-0.565822,89,0.566908,10,-2.62124e-05,-3.24732,0.586845,0.100538,0.0465752,
2,0,0,1,0,59065.4,0.0426979,0.0423327,-0.556346,89,0.566449,10,-2.35516e-05,-3.25465,0.559337,0.105482,0.0425775,
2,0,0,1,0,59066.2,0.0387022,0.0383453,-0.547839,89,0.565997,10,-2.1007e-05,-3.26135,0.503545,0.117169,0.0385863,
2,0,0,1,0,59067,0.0347074,0.0343084,-0.538273,89,0.565553,10,-1.84673e-05,-3.269,0.507557,0.116243,0.0345452,
2,0,0,1,0,59067.8,0.0307126,0.030378,-0.527233,89,0.565117,10,-1.60163e-05,-3.278,0.534956,0.110289,0.03061,
2,0,0,0,0,59068.6,0.0267172,0.0263693,-0.521285,89,0.564688,10,-1.37459e-05,-3.28292,0.588746,0.100213,0.0265987,
2,0,0,1,0,59069.4,0.022722,0.0223907,-0.512782,89,0.564265,10,-1.14816e-05,-3.29007,0.81919,0.0720224,0.0226163,
2,0,0,0,0,59070.1,0.0187268,0.0183749,-0.507227,89,0.563848,10,-9.32028e-06,-3.2948,0.817845,0.0721408,0.0185981,
2,0,0,1,0,59070.9,0.0147313,0.0144193,-0.503497,89,0.563435,10,-7.26006e-06,-3.298,1.0431,0.056562,0.0146408,
2,0,0,1,0,59071.7,0.0107365,0.0103922,-0.498567,89,0.563026,10,-5.18123e-06,-3.30228,1.9578,0.0301359,0.0106116,
2,0,0,1,0,59072.5,0.00674163,0.00638425,-0.496546,89,0.562618,10,-3.17007e-06,-3.30404,2.8137,0.0209688,0.00660273,
2,0,0,1,0,59073.3,0.00274612,0.00240522,-0.49692,89,0.562211,10,-1.1952e-06,-3.30371,-1.66522,-0.0354309,0.00262387,
2,0,0,0,0,59073.8,0.000274105,-8.6732e-05,-0.498307,89,0.561957,10,4.32192e-08,-3.3025, , ,0.000132523,