File: Figure_codes/Fig_3-5/workspace_calculate_alpha_eff/20221101_1-115_003_TrumpetPlot_ParaChange_from10_every3_16_CV_C01_93.csv
mode,ox/red,error,control changes,counter inc.,time/s,control/V,Ewe/V,<I>/mA,cycle number,(Q-Qo)/C,I Range,P/W,log(|I|),Tafel slope mV/dec,alpha_eff,E-IR/V,
2,0,0,1,0,62304.2,2.44065e-05,-0.000382585,-0.058052,94,0.0000000E+000,10,2.22098e-08,-4.23618, , ,-0.000357043,
2,1,0,1,0,62304.9,0.00379485,0.003437,0.195438,94,0.000122277,10,6.71719e-07,-3.70899,0.0386243,1.52753,0.00335101,
2,1,0,0,0,62305.7,0.00779002,0.00745382,0.219969,94,0.000297969,10,1.63961e-06,-3.65764,0.104332,0.565501,0.00735703,
2,1,0,1,0,62306.5,0.0117852,0.0114176,0.234766,94,0.000489341,10,2.68047e-06,-3.62936,0.147284,0.400588,0.0113143,
2,1,0,1,0,62307.3,0.0157806,0.0154377,0.248412,94,0.000692457,10,3.8349e-06,-3.60483,0.152994,0.385637,0.0153284,
2,1,0,1,0,62308.1,0.0197754,0.0194332,0.262312,94,0.000906507,10,5.09756e-06,-3.58118,0.197202,0.299186,0.0193177,
2,1,0,1,0,62308.9,0.0237704,0.0234285,0.274599,94,0.00113126,10,6.43344e-06,-3.5613,0.196871,0.299688,0.0233076,
2,1,0,0,0,62309.7,0.0277659,0.0274308,0.288921,94,0.00136605,10,7.92534e-06,-3.53922,0.194601,0.303184,0.0273037,
2,1,0,1,0,62310.5,0.0317611,0.031402,0.301967,94,0.00161164,10,9.48238e-06,-3.52004,0.206754,0.285364,0.0312692,
2,1,0,1,0,62311.3,0.0357567,0.0354268,0.314977,94,0.00186771,10,1.11586e-05,-3.50172,0.26691,0.221048,0.0352882,
2,1,0,1,0,62312.1,0.0397516,0.039386,0.328026,94,0.00213372,10,1.29196e-05,-3.48409,0.193111,0.305524,0.0392417,
2,1,0,1,0,62312.9,0.0437465,0.043376,0.339348,94,0.00241075,10,1.47196e-05,-3.46935,0.301782,0.195505,0.0432267,
2,1,0,1,0,62313.7,0.0477413,0.0474573,0.352152,94,0.00269679,10,1.67122e-05,-3.45327,0.263178,0.224183,0.0473023,
2,1,0,1,0,62314.5,0.0517369,0.0513716,0.362439,94,0.00299226,10,1.86191e-05,-3.44077,0.293751,0.200851,0.0512121,
2,1,0,0,0,62315.3,0.0557321,0.055364,0.374822,94,0.00329714,10,2.07517e-05,-3.42617,0.34703,0.170014,0.0551991,
2,1,0,1,0,62316.1,0.0597277,0.0593783,0.384182,94,0.00361002,10,2.28121e-05,-3.41546,0.351045,0.16807,0.0592092,
2,1,0,1,0,62316.9,0.0637226,0.0633914,0.39249,94,0.00393078,10,2.48805e-05,-3.40617,0.367559,0.160518,0.0632187,
2,1,0,1,0,62317.7,0.0677174,0.0674068,0.402619,94,0.00425938,10,2.71392e-05,-3.39511,0.52888,0.111556,0.0672296,
2,1,0,1,0,62318.5,0.0717128,0.0713603,0.40995,94,0.00459404,10,2.92541e-05,-3.38727,0.472742,0.124804,0.0711799,
2,1,0,0,0,62319.3,0.075708,0.075358,0.416677,94,0.00493499,10,3.13999e-05,-3.3802,0.581043,0.101542,0.0751747,
2,1,0,1,0,62320.1,0.0797031,0.079361,0.424982,94,0.00528133,10,3.3727e-05,-3.37163,0.445614,0.132401,0.0791741,
2,1,0,1,0,62320.9,0.0836986,0.0833434,0.432004,94,0.00563352,10,3.60047e-05,-3.36451,0.486359,0.121309,0.0831533,
2,1,0,1,0,62321.7,0.0876935,0.0873501,0.442365,94,0.00599268,10,3.86407e-05,-3.35422,0.410261,0.143811,0.0871555,
2,1,0,1,0,62322.5,0.0916883,0.0913539,0.454621,94,0.00636026,10,4.15314e-05,-3.34235,0.307305,0.191992,0.0911538,
2,1,0,0,0,62323.3,0.0956838,0.0953573,0.468322,94,0.00673944,10,4.46579e-05,-3.32946,0.249868,0.236125,0.0951512,
2,1,0,1,0,62324.1,0.099679,0.0993561,0.488183,94,0.00713211,10,4.85039e-05,-3.31142,0.248501,0.237424,0.0991413,
2,1,0,0,0,62324.9,0.103674,0.103329,0.508324,94,0.0075403,10,5.25249e-05,-3.29386,0.199368,0.295936,0.103106,
2,1,0,1,0,62325.7,0.10767,0.107318,0.527887,94,0.00796568,10,5.66517e-05,-3.27746,0.269323,0.219068,0.107086,
2,1,0,1,0,62326.5,0.111664,0.111279,0.546629,94,0.00840529,10,6.08285e-05,-3.26231,0.327547,0.180127,0.111039,
2,1,0,1,0,62327.3,0.115659,0.115359,0.559609,94,0.00885727,10,6.45561e-05,-3.25212,0.364022,0.162078,0.115113,
2,1,0,1,0,62328.1,0.119655,0.119327,0.570085,94,0.00931958,10,6.80264e-05,-3.24406,0.891254,0.0661988,0.119076,
2,1,0,0,0,62328.9,0.12365,0.123297,0.578766,94,0.00978837,10,7.136e-05,-3.2375,0.691795,0.0852854,0.123042,
2,1,0,1,0,62329.7,0.127646,0.127319,0.582092,94,0.0102627,10,7.41116e-05,-3.23501,1.95017,0.0302537,0.127063,
2,1,0,1,0,62330.5,0.131641,0.131304,0.583062,94,0.0107387,10,7.65584e-05,-3.23429,-0.636975,-0.0926253,0.131048,
2,1,0,1,0,62331.3,0.135635,0.135324,0.568406,94,0.0112087,10,7.69189e-05,-3.24534,-0.270209,-0.218349,0.135074,
2,1,0,1,0,62332.1,0.139631,0.139305,0.536168,94,0.0116617,10,7.46907e-05,-3.2707,-0.12817,-0.460327,0.139069,
2,1,0,0,0,62332.9,0.143626,0.143273,0.490749,94,0.0120831,10,7.0311e-05,-3.30914,-0.0860736,-0.68546,0.143057,
2,1,0,1,0,62333.7,0.147621,0.1473,0.437755,94,0.0124637,10,6.44815e-05,-3.35877,-0.0783179,-0.75334,0.147108,
2,1,0,1,0,62334.5,0.151617,0.151295,0.392203,94,0.0128044,10,5.93385e-05,-3.40649,-0.0946965,-0.623043,0.151123,
2,1,0,1,0,62335.3,0.155612,0.155278,0.361763,94,0.0131138,10,5.61738e-05,-3.44158,-0.133204,-0.44293,0.155119,
2,1,0,1,0,62336.1,0.159606,0.159238,0.340591,94,0.0134029,10,5.4235e-05,-3.46777,-0.205298,-0.287387,0.159088,
2,1,0,0,0,62336.9,0.163602,0.163259,0.327423,94,0.0136791,10,5.34549e-05,-3.48489,-0.247443,-0.238439,0.163115,
2,1,0,1,0,62337.7,0.167597,0.167267,0.319103,94,0.0139463,10,5.33753e-05,-3.49607,-0.469927,-0.125551,0.167126,
2,1,0,0,0,62338.5,0.171592,0.17129,0.311468,94,0.0142075,10,5.33513e-05,-3.50659,-0.402082,-0.146736,0.171153,
2,1,0,1,0,62339.3,0.175588,0.175261,0.308249,94,0.0144639,10,5.40241e-05,-3.5111,-0.919888,-0.0641382,0.175126,
2,1,0,1,0,62340.1,0.179582,0.179282,0.303737,94,0.014717,10,5.44546e-05,-3.5175,-1.17499,-0.0502132,0.179148,
2,1,0,1,0,62340.9,0.183577,0.183301,0.300863,94,0.0149679,10,5.51485e-05,-3.52163,-0.803995,-0.0733835,0.183168,
2,1,0,1,0,62341.7,0.187573,0.187252,0.298142,94,0.0152164,10,5.58277e-05,-3.52558,-1.08838,-0.054209,0.187121,
2,1,0,0,0,62342.5,0.191568,0.191231,0.295698,94,0.0154632,10,5.65465e-05,-3.52915,-2.71505,-0.0217307,0.191101,
2,1,0,1,0,62343.3,0.195563,0.195246,0.295537,94,0.0157088,10,5.77026e-05,-3.52939,-0.850947,-0.0693345,0.195116,
2,1,0,1,0,62344.1,0.199559,0.199219,0.294152,94,0.0159529,10,5.86006e-05,-3.53143,2.81592,0.0209523,0.19909,
2,1,0,1,0,62344.9,0.203553,0.203202,0.292022,94,0.0161962,10,5.93392e-05,-3.53459,-1.63582,-0.0360674,0.203073,
2,1,0,1,0,62345.7,0.207548,0.207187,0.292031,94,0.0164384,10,6.05051e-05,-3.53457,-1.63079,-0.0361789,0.207059,
2,1,0,0,0,62346.5,0.211544,0.211192,0.290357,94,0.0166796,10,6.13209e-05,-3.53707,-5.6731,-0.0104,0.211064,
2,1,0,1,0,62347.3,0.215539,0.215218,0.288719,94,0.0169199,10,6.21377e-05,-3.53952,-1.35597,-0.0435112,0.215091,
2,1,0,1,0,62348.1,0.219535,0.219201,0.288357,94,0.0171594,10,6.3208e-05,-3.54007,-4.8262,-0.0122249,0.219074,
2,1,0,1,0,62348.9,0.223529,0.22317,0.286756,94,0.0173982,10,6.39955e-05,-3.54249,-2.19393,-0.0268923,0.223044,
2,1,0,1,0,62349.7,0.227524,0.227224,0.286832,94,0.0176363,10,6.51751e-05,-3.54237,-1.7808,-0.0331312,0.227098,
2,1,0,0,0,62350.5,0.23152,0.231174,0.285645,94,0.0178736,10,6.60338e-05,-3.54417,3.47565,0.0169752,0.231048,
2,1,0,1,0,62351.3,0.235515,0.23517,0.283737,94,0.0181103,10,6.67264e-05,-3.54708,-2.32108,-0.0254192,0.235045,
2,1,0,0,0,62352.1,0.23951,0.239176,0.284565,94,0.0183464,10,6.8061e-05,-3.54582,-3.93436,-0.0149961,0.239051,
2,1,0,1,0,62352.9,0.243506,0.243204,0.284132,94,0.0185819,10,6.91019e-05,-3.54648,6.96026,0.0084767,0.243079,
2,1,0,1,0,62353.7,0.2475,0.247135,0.28278,94,0.018817,10,6.98849e-05,-3.54855,-1.19354,-0.049433,0.247011,
2,1,0,1,0,62354.5,0.251495,0.251194,0.281724,94,0.0190511,10,7.07676e-05,-3.55018,-2.70494,-0.021812,0.25107,
2,1,0,1,0,62355.3,0.255491,0.255153,0.281027,94,0.0192845,10,7.17048e-05,-3.55125,-7.05506,-0.00836279,0.255029,
2,1,0,0,0,62356.1,0.259486,0.259212,0.280299,94,0.0195177,10,7.2657e-05,-3.55238,-1.41773,-0.0416158,0.259089,
2,1,0,1,0,62356.9,0.263481,0.263116,0.280141,94,0.0197498,10,7.37094e-05,-3.55262,2.85028,0.0206997,0.262992,
2,1,0,1,0,62357.7,0.267477,0.267119,0.278677,94,0.0199815,10,7.444e-05,-3.5549,-1.48643,-0.0396924,0.266996,
2,1,0,1,0,62358.4,0.271471,0.27113,0.278006,94,0.0202124,10,7.53759e-05,-3.55595,-5.923,-0.00996116,0.271008,
2,1,0,1,0,62359.2,0.275466,0.275139,0.276334,94,0.0204423,10,7.60305e-05,-3.55857,-5.5816,-0.0105705,0.275018,
2,1,0,0,0,62360,0.279462,0.27915,0.276156,94,0.0206719,10,7.7089e-05,-3.55885,-1.12174,-0.052597,0.279029,
2,1,0,1,0,62360.8,0.283457,0.283141,0.275092,94,0.0209005,10,7.78899e-05,-3.56052,-2140.74,-2.75606e-05,0.28302,
2,1,0,0,0,62361.6,0.287452,0.287094,0.273956,94,0.0211284,10,7.8651e-05,-3.56232,-2.59739,-0.0227151,0.286973,
2,1,0,1,0,62362.4,0.291448,0.291119,0.274613,94,0.0213559,10,7.99449e-05,-3.56128,-1.81346,-0.0325345,0.290998,
2,1,0,1,0,62363.2,0.295442,0.295108,0.273206,94,0.0215826,10,8.06251e-05,-3.56351,20.6642,0.00285517,0.294988,
2,1,0,1,0,62364,0.299437,0.299122,0.271938,94,0.0218087,10,8.13426e-05,-3.56553,-44.022,-0.00134024,0.299003,
2,1,0,1,0,62364.8,0.303433,0.303098,0.271738,94,0.0220341,10,8.23633e-05,-3.56585,-2.24114,-0.0263259,0.302979,
2,1,0,0,0,62365.6,0.307428,0.307114,0.270641,94,0.0222588,10,8.31177e-05,-3.56761,-2.38862,-0.0247004,0.306995,
2,1,0,1,0,62366.4,0.311424,0.311131,0.270387,94,0.022483,10,8.41258e-05,-3.56801,-2.41775,-0.0244029,0.311012,
2,1,0,1,0,62367.2,0.315418,0.315082,0.269753,94,0.0227066,10,8.49942e-05,-3.56903,-17.9439,-0.00328803,0.314963,
2,1,0,1,0,62368,0.319413,0.319066,0.269403,94,0.0229295,10,8.59571e-05,-3.5696,-1.70369,-0.0346308,0.318947,
2,1,0,1,0,62368.8,0.323409,0.323045,0.268129,94,0.023152,10,8.66177e-05,-3.57166,-3.22045,-0.0183204,0.322927,
2,1,0,0,0,62369.6,0.327404,0.327104,0.267532,94,0.0233735,10,8.75106e-05,-3.57262,2.50978,0.023508,0.326986,
2,1,0,1,0,62370.4,0.331399,0.331106,0.266285,94,0.0235949,10,8.81683e-05,-3.57465,-1.48837,-0.0396408,0.330989,
2,1,0,1,0,62371.2,0.335395,0.335065,0.266223,94,0.0238158,10,8.9202e-05,-3.57475,-3.27736,-0.0180023,0.334948,
2,1,0,1,0,62372,0.339389,0.339061,0.265573,94,0.0240357,10,9.00455e-05,-3.57582,-3.61749,-0.0163096,0.338944,
2,1,0,1,0,62372.8,0.343384,0.343092,0.264187,94,0.0242549,10,9.06404e-05,-3.57809,-3.12418,-0.0188849,0.342976,
2,1,0,0,0,62373.6,0.34738,0.347017,0.264496,94,0.0244735,10,9.17845e-05,-3.57758,-14.278,-0.00413224,0.346901,
2,1,0,1,0,62374.4,0.351375,0.35105,0.263799,94,0.024692,10,9.26067e-05,-3.57873,-9.56213,-0.00617017,0.350934,
2,1,0,0,0,62375.2,0.35537,0.355026,0.262665,94,0.02491,10,9.32531e-05,-3.5806,-1.06988,-0.0551464,0.354911,
2,1,0,1,0,62376,0.359366,0.359006,0.26262,94,0.0251273,10,9.42822e-05,-3.58067,3.81447,0.0154674,0.358891,
2,1,0,1,0,62376.8,0.36336,0.363018,0.26164,94,0.0253447,10,9.49801e-05,-3.5823,-9.22126,-0.00639826,0.362903,
2,1,0,1,0,62377.6,0.367355,0.367054,0.26235,94,0.0255612,10,9.62966e-05,-3.58112,-5.61249,-0.0105123,0.366939,
2,1,0,1,0,62378.4,0.371351,0.37101,0.261109,94,0.0257776,10,9.68742e-05,-3.58318,-9.08831,-0.00649186,0.370895,
2,1,0,0,0,62379.2,0.375346,0.375018,0.260328,94,0.0259935,10,9.76276e-05,-3.58448,-5.87026,-0.0100507,0.374904,
2,1,0,1,0,62380,0.379342,0.379023,0.260272,94,0.0262088,10,9.86489e-05,-3.58457,-2.4969,-0.0236293,0.378908,
2,1,0,1,0,62380.8,0.383336,0.383014,0.259609,94,0.0264237,10,9.94339e-05,-3.58568,-4.91317,-0.0120085,0.3829,
2,1,0,1,0,62381.6,0.387331,0.386999,0.259284,94,0.0266384,10,0.000100342,-3.58622,-4.77969,-0.0123439,0.386885,
2,1,0,1,0,62382.4,0.391327,0.391035,0.258481,94,0.0268528,10,0.000101075,-3.58757,-7.76227,-0.00760087,0.390921,
2,1,0,0,0,62383.2,0.395322,0.394964,0.258258,94,0.0270668,10,0.000102003,-3.58795,-14.1291,-0.00417577,0.394851,
2,1,0,1,0,62384,0.399317,0.399013,0.258735,94,0.0272804,10,0.000103238,-3.58715,-7.10504,-0.00830396,0.398899,
2,1,0,1,0,62384.8,0.403313,0.402959,0.257912,94,0.0274936,10,0.000103928,-3.58853,5.86511,0.0100595,0.402846,
2,1,0,1,0,62385.6,0.407307,0.407003,0.257971,94,0.0277068,10,0.000104995,-3.58843,-4.30085,-0.0137182,0.40689,
2,1,0,1,0,62386.4,0.411302,0.410956,0.258495,94,0.0279197,10,0.00010623,-3.58755,5.00097,0.0117977,0.410842,
2,1,0,0,0,62387.2,0.415298,0.414985,0.257072,94,0.0281323,10,0.000106681,-3.58994,-1.37257,-0.0429851,0.414872,
2,1,0,1,0,62388,0.419293,0.418973,0.25685,94,0.0283444,10,0.000107613,-3.59032,-2.71651,-0.021719,0.41886,
2,1,0,0,0,62388.8,0.423288,0.422976,0.256742,94,0.0285559,10,0.000108596,-3.5905,4.50132,0.0131073,0.422863,
2,1,0,1,0,62389.6,0.427283,0.426954,0.255401,94,0.0287676,10,0.000109044,-3.59278,-8.93428,-0.00660378,0.426842,
2,1,0,1,0,62390.4,0.431278,0.431006,0.256216,94,0.0289786,10,0.000110431,-3.59139,-2.92801,-0.0201502,0.430893,
2,1,0,1,0,62391.2,0.435273,0.434938,0.254806,94,0.0291892,10,0.000110825,-3.59379,405.788,0.000145396,0.434826,
2,1,0,1,0,62392,0.439269,0.438923,0.254762,94,0.0293998,10,0.000111821,-3.59386,-2.12375,-0.0277811,0.438811,
2,1,0,0,0,62392.8,0.443264,0.442947,0.255191,94,0.02961,10,0.000113036,-3.59314,3.15509,0.0186999,0.442835,
2,1,0,1,0,62393.6,0.447259,0.446914,0.255004,94,0.0298202,10,0.000113965,-3.59345,-7.71687,-0.00764558,0.446802,
2,1,0,1,0,62394.4,0.451254,0.450973,0.255246,94,0.0300303,10,0.000115109,-3.59304,-13.9176,-0.00423924,0.450861,
2,1,0,1,0,62395.2,0.455249,0.454945,0.254702,94,0.0302402,10,0.000115876,-3.59397,5.26519,0.0112057,0.454833,
2,1,0,1,0,62396,0.459244,0.458964,0.254191,94,0.0304501,10,0.000116665,-3.59484,23.006,0.00256454,0.458852,
2,1,0,0,0,62396.8,0.46324,0.462951,0.254667,94,0.0306602,10,0.000117898,-3.59403,5.42661,0.0108724,0.462839,
2,1,0,1,0,62397.6,0.467235,0.466882,0.2553,94,0.0308701,10,0.000119195,-3.59295,11.4169,0.00516778,0.46677,
2,1,0,1,0,62398.4,0.471231,0.470909,0.255766,94,0.0310805,10,0.000120443,-3.59216,-4.10488,-0.0143731,0.470797,
2,1,0,1,0,62399.2,0.475225,0.474898,0.255852,94,0.0312907,10,0.000121503,-3.59201,1.953,0.0302099,0.474785,
2,1,0,1,0,62400,0.47922,0.478879,0.256314,94,0.0315011,10,0.000122743,-3.59123,-9.54476,-0.0061814,0.478766,
2,1,0,0,0,62400.8,0.483216,0.482869,0.2558,94,0.0317118,10,0.000123518,-3.5921,-30.08,-0.00196143,0.482756,
2,1,0,1,0,62401.6,0.487211,0.486854,0.256653,94,0.0319226,10,0.000124952,-3.59065,3.68295,0.0160197,0.486741,
2,1,0,0,0,62402.4,0.491206,0.49088,0.256526,94,0.0321338,10,0.000125924,-3.59087,3.196,0.0184606,0.490768,
2,1,0,1,0,62403.2,0.495201,0.494891,0.257822,94,0.0323453,10,0.000127594,-3.58868,5.76916,0.0102268,0.494778,
2,1,0,1,0,62404,0.499196,0.498852,0.258174,94,0.0325573,10,0.000128791,-3.58809,1.6181,0.0364625,0.498738,
2,1,0,1,0,62404.8,0.503191,0.502843,0.258868,94,0.0327698,10,0.00013017,-3.58692,-39.2091,-0.00150475,0.502729,
2,1,0,1,0,62405.6,0.507187,0.506887,0.259566,94,0.0329827,10,0.000131571,-3.58575,3.29776,0.0178909,0.506773,
2,1,0,0,0,62406.4,0.511182,0.51084,0.260581,94,0.0331962,10,0.000133115,-3.58406,2.29074,0.0257559,0.510726,
2,1,0,1,0,62407.2,0.515177,0.514908,0.260434,94,0.0334104,10,0.000134099,-3.5843,-3.39414,-0.0173829,0.514794,
2,1,0,1,0,62408,0.519173,0.51883,0.261917,94,0.0336248,10,0.00013589,-3.58184,0.818104,0.0721179,0.518715,
2,1,0,1,0,62408.8,0.523167,0.522814,0.262344,94,0.0338401,10,0.000137157,-3.58113,3.76629,0.0156653,0.522699,
2,1,0,1,0,62409.6,0.527162,0.526847,0.263778,94,0.0340564,10,0.000138971,-3.57876,2.27367,0.0259493,0.526731,
2,1,0,0,0,62410.4,0.531158,0.530833,0.26551,94,0.0342733,10,0.000140942,-3.57592,1.98332,0.029748,0.530716,
2,1,0,1,0,62411.2,0.535153,0.534865,0.266473,94,0.0344915,10,0.000142527,-3.57435,2.72425,0.0216573,0.534748,
2,1,0,0,0,62412,0.539148,0.538845,0.26806,94,0.0347108,10,0.000144443,-3.57177,1.09417,0.0539221,0.538727,
2,1,0,1,0,62412.8,0.543143,0.54283,0.269549,94,0.0349312,10,0.000146319,-3.56936,1.54312,0.0382343,0.542711,
2,1,0,1,0,62413.6,0.547138,0.546781,0.271248,94,0.0351527,10,0.000148313,-3.56663,2.45594,0.0240234,0.546661,
2,1,0,1,0,62414.4,0.551133,0.550839,0.273077,94,0.0353756,10,0.000150421,-3.56372,1.14604,0.0514817,0.550719,
2,1,0,1,0,62415.2,0.555129,0.554795,0.274984,94,0.0356002,10,0.00015256,-3.56069,1.06795,0.0552462,0.554674,
2,1,0,0,0,62416,0.559124,0.558794,0.277303,94,0.0358262,10,0.000154955,-3.55705,1.56805,0.0376264,0.558672,
2,1,0,1,0,62416.8,0.56312,0.562815,0.27945,94,0.036054,10,0.000157278,-3.5537,0.842966,0.069991,0.562692,
2,1,0,1,0,62417.6,0.567114,0.566815,0.280842,94,0.0362837,10,0.000159185,-3.55154,1.15144,0.0512403,0.566692,
2,1,0,1,0,62418.4,0.571109,0.570795,0.284531,94,0.0365152,10,0.000162409,-3.54587,1.01517,0.0581184,0.570669,
2,1,0,1,0,62419.2,0.575105,0.574749,0.287188,94,0.0367491,10,0.000165061,-3.54183,0.798327,0.0739046,0.574623,
2,1,0,0,0,62420,0.5791,0.578736,0.291069,94,0.0369857,10,0.000168452,-3.536,0.913591,0.0645803,0.578608,
2,1,0,1,0,62420.8,0.583095,0.582789,0.295158,94,0.037225,10,0.000172015,-3.52995,0.483287,0.122081,0.582659,
2,1,0,1,0,62421.6,0.58709,0.586768,0.299196,94,0.0374678,10,0.000175559,-3.52404,0.649626,0.0908214,0.586636,
2,1,0,1,0,62422.4,0.591085,0.590766,0.30428,94,0.037714,10,0.000179758,-3.51673,0.620983,0.0950106,0.590632,
2,1,0,1,0,62423.2,0.59508,0.594754,0.309749,94,0.037964,10,0.000184225,-3.50899,0.464546,0.127006,0.594618,
2,1,0,0,0,62424,0.599076,0.598783,0.314381,94,0.0382183,10,0.000188246,-3.50254,0.518612,0.113765,0.598645,
2,1,0,1,0,62424.8,0.603071,0.602725,0.321388,94,0.0384773,10,0.000193709,-3.49297,0.463187,0.127378,0.602583,
2,1,0,0,0,62425.6,0.607066,0.606718,0.328388,94,0.038742,10,0.000199239,-3.48361,0.367835,0.160398,0.606574,
2,1,0,1,0,62426.4,0.611061,0.610778,0.336771,94,0.0390129,10,0.000205692,-3.47266,0.414949,0.142186,0.610629,
2,1,0,1,0,62427.2,0.615056,0.614734,0.346232,94,0.0392906,10,0.000212841,-3.46063,0.293752,0.200849,0.614581,
2,1,0,1,0,62428,0.619051,0.618767,0.356857,94,0.0395764,10,0.000220811,-3.44751,0.268257,0.219938,0.61861,
2,1,0,1,0,62428.8,0.623047,0.622745,0.368434,94,0.0398714,10,0.00022944,-3.43364,0.252252,0.233893,0.622583,
2,1,0,0,0,62429.6,0.627042,0.626733,0.383844,94,0.040177,10,0.000240568,-3.41584,0.228707,0.257972,0.626564,
2,1,0,1,0,62430.4,0.631037,0.630734,0.400134,94,0.0404953,10,0.000252378,-3.39779,0.21014,0.280765,0.630558,
2,1,0,1,0,62431.2,0.635032,0.634763,0.419674,94,0.0408275,10,0.000266393,-3.37709,0.185164,0.318637,0.634578,
2,1,0,1,0,62432,0.639027,0.638726,0.441019,94,0.0411761,10,0.00028169,-3.35554,0.17968,0.328361,0.638532,
2,1,0,1,0,62432.8,0.643022,0.642697,0.466063,94,0.0415434,10,0.000299537,-3.33156,0.153333,0.384783,0.642492,
2,1,0,0,0,62433.6,0.647018,0.646703,0.495796,94,0.0419328,10,0.000320633,-3.3047,0.140754,0.419172,0.646485,
2,1,0,1,0,62434.4,0.651013,0.650726,0.529982,94,0.0423479,10,0.000344873,-3.27574,0.134237,0.43952,0.650493,
2,1,0,1,0,62435.2,0.655008,0.654749,0.570056,94,0.0427922,10,0.000373243,-3.24408,0.123694,0.476984,0.654498,
2,1,0,1,0,62436,0.659003,0.658724,0.615979,94,0.0432703,10,0.00040576,-3.21043,0.111183,0.530658,0.658453,
2,1,0,1,0,62436.8,0.662998,0.662682,0.670116,94,0.0437888,10,0.000444074,-3.17385,0.109229,0.540149,0.662387,
2,1,0,0,0,62437.6,0.666994,0.666683,0.730782,94,0.0443529,10,0.0004872,-3.13621,0.099254,0.594434,0.666362,
2,1,0,1,0,62438.4,0.670989,0.67067,0.801439,94,0.0449699,10,0.000537501,-3.09613,0.0989134,0.596481,0.670318,
2,1,0,0,0,62439.2,0.674984,0.674694,0.881918,94,0.0456469,10,0.000595025,-3.05457,0.0924285,0.638331,0.674306,
2,1,0,1,0,62440,0.67898,0.678682,0.973077,94,0.0463925,10,0.00066041,-3.01185,0.091896,0.64203,0.678254,
2,1,0,1,0,62440.8,0.682974,0.682692,1.07524,94,0.0472154,10,0.000734061,-2.96849,0.0909675,0.648584,0.682219,
2,1,0,1,0,62441.5,0.686969,0.68664,1.1898,94,0.0481249,10,0.000816967,-2.92452,0.0883659,0.667678,0.686116,
2,1,0,1,0,62442.3,0.690965,0.690683,1.31844,94,0.0491316,10,0.000910625,-2.87994,0.0886924,0.665221,0.690103,
2,1,0,0,0,62443.1,0.69496,0.694705,1.46057,94,0.0502464,10,0.00101467,-2.83548,0.0891611,0.661724,0.694063,
2,1,0,1,0,62443.9,0.698955,0.698651,1.61535,94,0.0514795,10,0.00112857,-2.79173,0.0891964,0.661462,0.69794,
2,1,0,1,0,62444.7,0.70295,0.702644,1.78735,94,0.0528435,10,0.00125587,-2.74779,0.0896513,0.658106,0.701857,
2,1,0,1,0,62445.5,0.706945,0.706661,1.97269,94,0.0543497,10,0.00139402,-2.70494,0.0936493,0.63001,0.705793,
2,1,0,1,0,62446.3,0.71094,0.710653,2.17207,94,0.0560095,10,0.00154359,-2.66313,0.0928705,0.635293,0.709698,
2,1,0,0,0,62447.1,0.714936,0.714654,2.38716,94,0.0578355,10,0.00170599,-2.62212,0.096468,0.611602,0.713603,
2,1,0,1,0,62447.9,0.718931,0.718681,2.61755,94,0.0598386,10,0.00188118,-2.5821,0.0997345,0.591571,0.717529,
2,1,0,1,0,62448.7,0.722927,0.722645,2.86315,94,0.0620321,10,0.00206904,-2.54316,0.100989,0.584224,0.721386,
2,1,0,1,0,62449.5,0.726921,0.726657,3.12331,94,0.0644274,10,0.00226957,-2.50539,0.103423,0.570475,0.725282,
2,1,0,1,0,62450.3,0.730916,0.730635,3.40014,94,0.0670373,10,0.00248426,-2.4685,0.106344,0.554804,0.729139,
2,1,0,1,0,62451.1,0.734911,0.734609,3.69274,94,0.0698752,10,0.00271272,-2.43265,0.108951,0.541529,0.732985,
2,1,0,1,0,62451.9,0.738907,0.738643,4.00291,94,0.0729544,10,0.00295672,-2.39762,0.112342,0.525182,0.736882,
2,1,0,0,0,62452.7,0.742902,0.742624,4.32938,94,0.0762873,10,0.0032151,-2.36357,0.114533,0.515135,0.740719,
2,1,0,1,0,62453.5,0.746897,0.746596,4.67415,94,0.0798886,10,0.0034897,-2.3303,0.11638,0.506962,0.744539,
2,1,0,1,0,62454.3,0.750892,0.750565,5.03721,94,0.0837727,10,0.00378075,-2.29781,0.118351,0.498517,0.748348,
2,1,0,1,0,62455.1,0.754887,0.754554,5.42172,94,0.0879556,10,0.00409098,-2.26586,0.12072,0.488732,0.752168,
2,1,0,1,0,62455.9,0.758883,0.75862,5.8257,94,0.0924533,10,0.0044195,-2.23465,0.125683,0.469437,0.756057,
2,1,0,0,0,62456.7,0.762878,0.762579,6.25093,94,0.0972816,10,0.00476682,-2.20406,0.124031,0.475687,0.759828,
2,1,0,1,0,62457.5,0.766873,0.76658,6.69763,94,0.102459,10,0.00513427,-2.17408,0.126676,0.465754,0.763633,
2,1,0,1,0,62458.3,0.770868,0.770543,7.16982,94,0.108004,10,0.00552465,-2.14449,0.129886,0.454243,0.767388,
2,1,0,1,0,62459.1,0.774863,0.774577,7.66526,94,0.113934,10,0.00593734,-2.11547,0.130949,0.450556,0.771205,
2,1,0,1,0,62459.9,0.778858,0.778574,8.18624,94,0.120271,10,0.00637359,-2.08692,0.131631,0.448224,0.774972,
2,1,0,0,0,62460.7,0.782854,0.782569,8.73748,94,0.127036,10,0.00683768,-2.05861,0.134482,0.438719,0.778724,
2,1,0,1,0,62461.5,0.786849,0.786506,9.31789,94,0.134253,10,0.00732858,-2.03068,0.133613,0.441575,0.782406,
2,1,0,0,0,62462.3,0.790844,0.790495,9.93234,94,0.141948,10,0.00785146,-2.00295,0.134637,0.438217,0.786125,
2,1,0,1,0,62463.1,0.794839,0.79455,10.5807,94,0.150147,10,0.0084069,-1.97549,0.132989,0.443646,0.789895,
2,1,0,1,0,62463.9,0.798834,0.798527,11.2724,94,0.158881,10,0.00900128,-1.94799,0.134795,0.437703,0.793568,
2,1,0,1,0,62464.7,0.802829,0.802545,12.0092,94,0.168186,10,0.00963794,-1.92049,0.134525,0.438581,0.797261,
2,1,0,1,0,62465.5,0.806825,0.806551,12.7895,94,0.178098,10,0.0103154,-1.89315,0.131395,0.449028,0.800923,
2,1,0,0,0,62466.3,0.81082,0.810538,13.6217,94,0.188655,10,0.0110409,-1.86577,0.135009,0.437008,0.804544,
2,1,0,1,0,62467.1,0.814815,0.81448,14.4893,94,0.19989,10,0.0118012,-1.83895,0.134044,0.440153,0.808104,
2,1,0,1,0,62467.9,0.81881,0.818478,15.3993,94,0.211837,10,0.012604,-1.8125,0.136048,0.433669,0.811703,
2,1,0,1,0,62468.7,0.822805,0.822576,16.3671,94,0.224534,10,0.0134632,-1.78603,0.139286,0.423589,0.815375,
2,1,0,1,0,62469.5,0.826801,0.826493,17.3572,94,0.238013,10,0.0143456,-1.76052,0.139045,0.424322,0.818856,
2,1,0,0,0,62470.3,0.830796,0.830561,18.3946,94,0.252301,10,0.0152779,-1.73531,0.141567,0.416764,0.822468,
2,1,0,1,0,62471.1,0.834791,0.834524,19.467,94,0.267435,10,0.0162457,-1.7107,0.144318,0.408821,0.825959,
2,1,0,1,0,62471.9,0.838786,0.838564,20.5786,94,0.283441,10,0.0172565,-1.68658,0.151457,0.389551,0.829509,
2,1,0,1,0,62472.7,0.842781,0.842566,21.7004,94,0.300338,10,0.018284,-1.66353,0.152134,0.387816,0.833018,
2,1,0,1,0,62473.5,0.846776,0.846511,22.8265,94,0.318137,10,0.0193229,-1.64156,0.161985,0.364232,0.836467,
2,1,0,1,0,62474.2,0.849723,0.849418,23.6046,94,0.334457,10,0.0200501,-1.627,0.0499444,1.18131,0.839032,
2,1,0,0,0,62475,0.845728,0.845428,21.861,94,0.352566,10,0.0184819,-1.66033,0.110939,0.531823,0.83581,
2,1,0,1,0,62475.8,0.841732,0.841485,20.4455,94,0.369446,10,0.0172046,-1.6894,0.118464,0.498042,0.832489,
2,1,0,1,0,62476.6,0.837737,0.837455,19.1399,94,0.385242,10,0.0160288,-1.71806,0.122436,0.481886,0.829033,
2,1,0,1,0,62477.4,0.833742,0.833525,17.9357,94,0.400043,10,0.0149499,-1.74628,0.116593,0.506033,0.825634,
2,1,0,1,0,62478.2,0.829747,0.829479,16.7522,94,0.413885,10,0.0138956,-1.77593,0.123244,0.478726,0.822108,
2,1,0,0,0,62479,0.825752,0.825492,15.674,94,0.42683,10,0.0129388,-1.80482,0.121732,0.484671,0.818595,
2,1,0,1,0,62479.8,0.821757,0.821484,14.6611,94,0.438938,10,0.0120439,-1.83383,0.122906,0.480041,0.815033,
2,1,0,1,0,62480.6,0.817761,0.817473,13.7063,94,0.45026,10,0.0112045,-1.86308,0.120582,0.489292,0.811443,
2,1,0,1,0,62481.4,0.813766,0.813474,12.8085,94,0.460839,10,0.0104194,-1.8925,0.124336,0.474519,0.807838,
2,1,0,1,0,62482.2,0.809771,0.809469,11.9681,94,0.470727,10,0.00968785,-1.92197,0.123153,0.479077,0.804203,
2,1,0,1,0,62483,0.805776,0.805501,11.1738,94,0.479962,10,0.00900049,-1.9518,0.148658,0.396884,0.800585,
2,1,0,1,0,62483.8,0.801781,0.801452,10.5839,94,0.488654,10,0.00848245,-1.97536,0.131183,0.449752,0.796795,
2,1,0,0,0,62484.6,0.797786,0.797541,9.88524,94,0.496824,10,0.00788389,-2.00501,0.122147,0.483027,0.793192,
2,1,0,1,0,62485.4,0.79379,0.793508,9.21265,94,0.504446,10,0.00731032,-2.03562,0.119998,0.491673,0.789455,
2,1,0,1,0,62486.2,0.789795,0.789512,8.57614,94,0.511545,10,0.00677096,-2.06671,0.117743,0.50109,0.785739,
2,1,0,1,0,62487,0.7858,0.785431,7.97894,94,0.518151,10,0.00626691,-2.09805,0.120322,0.49035,0.78192,
2,1,0,1,0,62487.8,0.781805,0.781523,7.41755,94,0.524295,10,0.00579698,-2.12974,0.117644,0.501513,0.778259,
2,1,0,0,0,62488.6,0.77781,0.777539,6.89108,94,0.530004,10,0.00535808,-2.16171,0.116527,0.506319,0.774507,
2,1,0,1,0,62489.4,0.773814,0.773514,6.39448,94,0.535303,10,0.00494621,-2.1942,0.116166,0.507893,0.7707,
2,1,0,1,0,62490.2,0.769819,0.769508,5.92784,94,0.540219,10,0.00456152,-2.2271,0.113314,0.520678,0.7669,
2,1,0,1,0,62491,0.765824,0.765538,5.48652,94,0.544771,10,0.00420014,-2.2607,0.113608,0.519328,0.763124,
2,1,0,1,0,62491.8,0.761829,0.761532,5.07423,94,0.548983,10,0.00386419,-2.29463,0.111852,0.527484,0.759299,
2,1,0,0,0,62492.6,0.757834,0.757512,4.68473,94,0.552874,10,0.00354874,-2.32932,0.108721,0.542671,0.755451,
2,1,0,1,0,62493.4,0.753839,0.753529,4.31929,94,0.556463,10,0.00325471,-2.36459,0.108284,0.544862,0.751629,
2,1,0,0,0,62494.2,0.749844,0.749539,3.97629,94,0.559771,10,0.00298039,-2.40052,0.106477,0.554111,0.747789,
2,1,0,1,0,62495,0.745848,0.74554,3.65281,94,0.562812,10,0.00272332,-2.43737,0.102686,0.574568,0.743933,
2,1,0,1,0,62495.8,0.741853,0.741577,3.35024,94,0.565603,10,0.00248446,-2.47492,0.101306,0.582392,0.740103,
2,1,0,1,0,62496.6,0.737858,0.737551,3.06225,94,0.568159,10,0.00225857,-2.51396,0.0983366,0.59998,0.736204,
2,1,0,1,0,62497.4,0.733863,0.733603,2.7944,94,0.570492,10,0.00204998,-2.55371,0.0952975,0.619114,0.732374,
2,1,0,0,0,62498.2,0.729868,0.729547,2.53985,94,0.572617,10,0.00185294,-2.59519,0.0926771,0.636619,0.72843,
2,1,0,1,0,62499,0.725872,0.725579,2.30284,94,0.574545,10,0.00167089,-2.63774,0.0895841,0.658599,0.724565,
2,1,0,1,0,62499.8,0.721877,0.721539,2.07755,94,0.576289,10,0.00149903,-2.68245,0.0863899,0.68295,0.720625,
2,1,0,1,0,62500.6,0.717882,0.717561,1.8703,94,0.577861,10,0.00134205,-2.72809,0.0828615,0.712031,0.716738,
2,1,0,1,0,62501.4,0.713887,0.713585,1.67449,94,0.57927,10,0.00119489,-2.77612,0.0798729,0.738673,0.712848,
2,1,0,0,0,62502.2,0.709892,0.709563,1.4938,94,0.580529,10,0.00105994,-2.82571,0.0777596,0.758749,0.708905,
2,1,0,1,0,62503,0.705897,0.705558,1.32492,94,0.581649,10,0.000934808,-2.87781,0.0731886,0.806137,0.704975,
2,1,0,1,0,62503.8,0.701901,0.701563,1.16933,94,0.582639,10,0.000820356,-2.93206,0.0704199,0.837832,0.701048,
2,1,0,1,0,62504.6,0.697906,0.697596,1.02609,94,0.583509,10,0.000715793,-2.98882,0.0684266,0.862238,0.697145,
2,1,0,1,0,62505.4,0.693911,0.693628,0.894647,94,0.58427,10,0.000620552,-3.04835,0.064377,0.916476,0.693235,
2,1,0,0,0,62506.2,0.689916,0.689626,0.773919,94,0.58493,10,0.000533715,-3.1113,0.0617664,0.955212,0.689286,
2,1,0,1,0,62507,0.685921,0.68564,0.665481,94,0.585499,10,0.000456281,-3.17686,0.0570141,1.03483,0.685347,
2,1,0,0,0,62507.8,0.681926,0.681636,0.566248,94,0.585985,10,0.000385975,-3.24699,0.0568706,1.03744,0.681387,
2,1,0,1,0,62508.6,0.67793,0.677605,0.478058,94,0.586396,10,0.000323934,-3.32052,0.0528238,1.11692,0.677395,
2,1,0,1,0,62509.4,0.673935,0.673632,0.400299,94,0.586742,10,0.000269654,-3.39762,0.0481357,1.2257,0.673456,
2,1,0,1,0,62510.2,0.66994,0.669665,0.331025,94,0.587028,10,0.000221676,-3.48014,0.0471526,1.25126,0.66952,
2,1,0,1,0,62511,0.665945,0.665668,0.269697,94,0.587262,10,0.000179529,-3.56912,0.0427146,1.38126,0.66555,
2,1,0,0,0,62511.8,0.66195,0.661609,0.216921,94,0.58745,10,0.000143517,-3.6637,0.0399779,1.47581,0.661514,
2,1,0,1,0,62512.6,0.657955,0.657672,0.170511,94,0.587599,10,0.00011214,-3.76825,0.0356886,1.65319,0.657597,
2,1,0,1,0,62513.4,0.653959,0.653619,0.129479,94,0.587713,10,8.46297e-05,-3.8878,0.031825,1.85389,0.653562,
2,1,0,1,0,62514.2,0.649964,0.649655,0.0959802,94,0.587797,10,6.2354e-05,-4.01782,0.0278423,2.11908,0.649613,
2,1,0,1,0,62515,0.64597,0.645657,0.0659325,94,0.587856,10,4.25697e-05,-4.1809,0.0221205,2.66721,0.645628,
2,1,0,0,0,62515.8,0.641974,0.64166,0.0408731,94,0.587893,10,2.62266e-05,-4.38856,0.0157614,3.74333,0.641642,
2,1,0,1,0,62516.6,0.637979,0.637653,0.0201078,94,0.587911,10,1.28218e-05,-4.69664,0.00816379,7.22704,0.637645,
2,1,0,1,0,62517.4,0.633983,0.633657,0.0017286,94,0.587914,10,1.09534e-06,-5.76231,0.0175475,3.3623,0.633657,
2,0,0,1,0,62518.2,0.629988,0.629665,-0.0130867,94,0.587904,10,-8.24025e-06,-4.88317,-0.00729426,-8.08855,0.629671,
2,0,0,1,0,62519,0.625993,0.625686,-0.024827,94,0.587883,10,-1.55339e-05,-4.60508,-0.0219274,-2.6907,0.625697,
2,0,0,0,0,62519.8,0.621998,0.621685,-0.0362208,94,0.587853,10,-2.25179e-05,-4.44104,-0.0325788,-1.81099,0.621701,
2,0,0,1,0,62520.6,0.618003,0.617673,-0.0440225,94,0.587816,10,-2.71915e-05,-4.35633,-0.130379,-0.452526,0.617693,
2,0,0,0,0,62521.4,0.614008,0.613696,-0.0503607,94,0.587773,10,-3.09061e-05,-4.29791,-0.04369,-1.35042,0.613718,
2,0,0,1,0,62522.2,0.610012,0.609709,-0.057665,94,0.587724,10,-3.51589e-05,-4.23909,-0.0772663,-0.763593,0.609735,
2,0,0,1,0,62523,0.606017,0.605704,-0.0624743,94,0.58767,10,-3.78409e-05,-4.2043,-0.100827,-0.585161,0.605732,
2,0,0,1,0,62523.8,0.602022,0.601688,-0.0680662,94,0.587612,10,-4.09546e-05,-4.16707,-0.218774,-0.269685,0.601718,
2,0,0,1,0,62524.5,0.598027,0.59768,-0.0717119,94,0.587551,10,-4.28608e-05,-4.14441,-0.153445,-0.384503,0.597712,
2,0,0,0,0,62525.3,0.594032,0.593676,-0.0748995,94,0.587487,10,-4.4466e-05,-4.12552,-0.20906,-0.282216,0.593709,
2,0,0,1,0,62526.1,0.590037,0.589709,-0.0780266,94,0.58742,10,-4.6013e-05,-4.10776,-0.281824,-0.20935,0.589744,
2,0,0,1,0,62526.9,0.586041,0.585724,-0.0799894,94,0.587351,10,-4.68517e-05,-4.09697,-0.20803,-0.283613,0.585759,
2,0,0,1,0,62527.7,0.582046,0.581715,-0.0818671,94,0.58728,10,-4.76233e-05,-4.08689,-0.621486,-0.0949338,0.581751,
2,0,0,1,0,62528.5,0.578052,0.577777,-0.0848615,94,0.587207,10,-4.9031e-05,-4.07129,-0.48746,-0.121035,0.577814,
2,0,0,0,0,62529.3,0.574056,0.573746,-0.0861743,94,0.587133,10,-4.94421e-05,-4.06462,-0.501493,-0.117649,0.573784,
2,0,0,1,0,62530.1,0.570061,0.569722,-0.0883916,94,0.587057,10,-5.03586e-05,-4.05359,-0.54367,-0.108522,0.56976,
2,0,0,1,0,62530.9,0.566065,0.565696,-0.089053,94,0.586981,10,-5.03769e-05,-4.05035,-0.394236,-0.149657,0.565735,
2,0,0,1,0,62531.7,0.56207,0.561721,-0.0911429,94,0.586902,10,-5.11968e-05,-4.04028,-0.606209,-0.0973262,0.561761,
2,0,0,1,0,62532.5,0.558075,0.557713,-0.0921931,94,0.586823,10,-5.14173e-05,-4.0353,-0.674498,-0.0874725,0.557753,
2,0,0,1,0,62533.3,0.55408,0.553742,-0.0928487,94,0.586743,10,-5.14142e-05,-4.03222,-0.666493,-0.088523,0.553783,
2,0,0,1,0,62534.1,0.550085,0.549787,-0.0943028,94,0.586662,10,-5.18465e-05,-4.02548,-1.04186,-0.0566295,0.549829,
2,0,0,0,0,62534.9,0.54609,0.545733,-0.0956426,94,0.58658,10,-5.21953e-05,-4.01935,-0.815416,-0.0723557,0.545775,
2,0,0,1,0,62535.7,0.542094,0.541761,-0.0959855,94,0.586497,10,-5.20013e-05,-4.01779,-0.847668,-0.0696027,0.541804,
2,0,0,1,0,62536.5,0.538099,0.537767,-0.0977667,94,0.586413,10,-5.25757e-05,-4.00981,-5.24533,-0.0112481,0.53781,
2,0,0,1,0,62537.3,0.534104,0.533751,-0.0984021,94,0.586329,10,-5.25222e-05,-4.007,-0.447262,-0.131914,0.533794,
2,0,0,1,0,62538.1,0.530109,0.529813,-0.0998136,94,0.586244,10,-5.28826e-05,-4.00081,-1.05836,-0.0557465,0.529857,
2,0,0,0,0,62538.9,0.526114,0.525767,-0.100874,94,0.586157,10,-5.3036e-05,-3.99622,-0.812658,-0.0726013,0.525811,
2,0,0,1,0,62539.7,0.522119,0.521781,-0.101851,94,0.58607,10,-5.3144e-05,-3.99203,-0.939768,-0.0627814,0.521825,
2,0,0,1,0,62540.5,0.518123,0.517818,-0.102287,94,0.585982,10,-5.2966e-05,-3.99018,-1.52109,-0.0387881,0.517863,
2,0,0,1,0,62541.3,0.514128,0.513811,-0.103428,94,0.585894,10,-5.31425e-05,-3.98536,-0.664223,-0.0888256,0.513856,
2,0,0,1,0,62542.1,0.510133,0.509772,-0.104516,94,0.585804,10,-5.32792e-05,-3.98082,-0.967964,-0.0609527,0.509818,
2,0,0,0,0,62542.9,0.506138,0.505792,-0.10666,94,0.585713,10,-5.39477e-05,-3.972,-1.29137,-0.0456879,0.505839,
2,0,0,1,0,62543.7,0.502143,0.501836,-0.106987,94,0.585621,10,-5.36898e-05,-3.97067,-0.686411,-0.0859544,0.501884,
2,0,0,0,0,62544.5,0.498148,0.497796,-0.108785,94,0.585529,10,-5.41528e-05,-3.96343,-0.807055,-0.0731053,0.497844,
2,0,0,1,0,62545.3,0.494152,0.493764,-0.110021,94,0.585435,10,-5.43246e-05,-3.95852,-0.640139,-0.0921675,0.493813,
2,0,0,1,0,62546.1,0.490157,0.489817,-0.110787,94,0.585341,10,-5.42651e-05,-3.95551,-0.728146,-0.0810277,0.489865,
2,0,0,1,0,62546.9,0.486162,0.485842,-0.111561,94,0.585245,10,-5.42011e-05,-3.95249,-0.965692,-0.0610961,0.485891,
2,0,0,1,0,62547.7,0.482167,0.481829,-0.113192,94,0.585149,10,-5.45394e-05,-3.94618,-0.880425,-0.0670131,0.481879,
2,0,0,0,0,62548.5,0.478172,0.477795,-0.114725,94,0.585051,10,-5.48151e-05,-3.94034,-1.26968,-0.0464683,0.477845,
2,0,0,1,0,62549.3,0.474177,0.473834,-0.116084,94,0.584952,10,-5.50047e-05,-3.93523,-1.41072,-0.0418225,0.473885,
2,0,0,1,0,62550.1,0.470181,0.469822,-0.11673,94,0.584852,10,-5.48423e-05,-3.93282,-0.643466,-0.0916909,0.469873,
2,0,0,1,0,62550.9,0.466186,0.465833,-0.118934,94,0.584751,10,-5.54032e-05,-3.92469,-0.590927,-0.0998432,0.465885,
2,0,0,1,0,62551.7,0.462191,0.461843,-0.120259,94,0.584649,10,-5.55408e-05,-3.91988,-0.457044,-0.129091,0.461895,
2,0,0,0,0,62552.5,0.458196,0.457919,-0.121861,94,0.584546,10,-5.58026e-05,-3.91413,-1.3062,-0.0451692,0.457972,
2,0,0,1,0,62553.3,0.454201,0.453924,-0.123104,94,0.584441,10,-5.58798e-05,-3.90973,-0.78466,-0.0751918,0.453978,
2,0,0,1,0,62554.1,0.450205,0.449908,-0.125415,94,0.584335,10,-5.6425e-05,-3.90165,-0.414699,-0.142272,0.449963,
2,0,0,1,0,62554.9,0.44621,0.445906,-0.126504,94,0.584228,10,-5.64089e-05,-3.8979,-0.932374,-0.0632793,0.445962,
2,0,0,1,0,62555.7,0.442215,0.441922,-0.128502,94,0.584119,10,-5.6788e-05,-3.89109,-3.60305,-0.016375,0.441978,
2,0,0,0,0,62556.5,0.43822,0.437837,-0.129812,94,0.584009,10,-5.68363e-05,-3.88669,-0.383519,-0.153838,0.437894,
2,0,0,1,0,62557.3,0.434225,0.433909,-0.131191,94,0.583897,10,-5.69251e-05,-3.8821,-1.20849,-0.0488212,0.433967,
2,0,0,0,0,62558.1,0.43023,0.429903,-0.134202,94,0.583784,10,-5.76938e-05,-3.87224,-0.543793,-0.108497,0.429962,
2,0,0,1,0,62558.9,0.426234,0.42591,-0.135752,94,0.58367,10,-5.78182e-05,-3.86725,-0.478833,-0.123216,0.42597,
2,0,0,1,0,62559.7,0.422239,0.421868,-0.137979,94,0.583553,10,-5.82088e-05,-3.86019,-1.14843,-0.0513747,0.421929,
2,0,0,1,0,62560.5,0.418244,0.417958,-0.13922,94,0.583435,10,-5.81879e-05,-3.8563,-0.620401,-0.0950997,0.418019,
2,0,0,1,0,62561.3,0.414249,0.413936,-0.14013,94,0.583316,10,-5.80047e-05,-3.85347,-0.82176,-0.0717971,0.413998,
2,0,0,0,0,62562.1,0.410254,0.409909,-0.143713,94,0.583195,10,-5.89093e-05,-3.8425,-0.716572,-0.0823365,0.409972,
2,0,0,1,0,62562.9,0.406259,0.405912,-0.144776,94,0.583073,10,-5.87665e-05,-3.8393,-0.693931,-0.0850229,0.405976,
2,0,0,1,0,62563.7,0.402263,0.401928,-0.147508,94,0.582949,10,-5.92877e-05,-3.83118,-0.517282,-0.114058,0.401993,
2,0,0,1,0,62564.5,0.398268,0.39794,-0.14964,94,0.582823,10,-5.95476e-05,-3.82495,-0.661744,-0.0891584,0.398006,
2,0,0,1,0,62565.3,0.394274,0.393953,-0.15058,94,0.582696,10,-5.93217e-05,-3.82223,-0.65422,-0.0901837,0.39402,
2,0,0,0,0,62566.1,0.390278,0.389947,-0.153667,94,0.582567,10,-5.9922e-05,-3.81342,-0.97849,-0.060297,0.390014,
2,0,0,1,0,62566.9,0.386283,0.385971,-0.15536,94,0.582436,10,-5.99647e-05,-3.80866,-0.62395,-0.0945589,0.38604,
2,0,0,1,0,62567.7,0.382287,0.38193,-0.157016,94,0.582304,10,-5.99692e-05,-3.80406,-0.787431,-0.0749272,0.381999,
2,0,0,1,0,62568.5,0.378292,0.377974,-0.159653,94,0.58217,10,-6.03447e-05,-3.79682,-0.770084,-0.076615,0.378044,
2,0,0,1,0,62569.3,0.374297,0.373968,-0.161119,94,0.582034,10,-6.02536e-05,-3.79285,-0.493324,-0.119597,0.374039,
2,0,0,1,0,62570.1,0.370303,0.369944,-0.163829,94,0.581896,10,-6.06075e-05,-3.78561,-1.4849,-0.0397332,0.370016,
2,0,0,1,0,62570.9,0.366307,0.365973,-0.165876,94,0.581757,10,-6.0706e-05,-3.78022,-0.595122,-0.0991394,0.366046,
2,0,0,0,0,62571.7,0.362312,0.361982,-0.168144,94,0.581616,10,-6.08652e-05,-3.77432,-0.513058,-0.114997,0.362056,
2,0,0,1,0,62572.5,0.358316,0.357972,-0.17023,94,0.581473,10,-6.09377e-05,-3.76896,-0.814458,-0.0724408,0.358047,
2,0,0,1,0,62573.3,0.354321,0.354013,-0.172203,94,0.581328,10,-6.0962e-05,-3.76396,-0.598531,-0.0985746,0.354088,
2,0,0,1,0,62574.1,0.350327,0.350017,-0.174553,94,0.581181,10,-6.10965e-05,-3.75807,-1.07961,-0.0546492,0.350094,
2,0,0,1,0,62574.9,0.346331,0.345976,-0.177676,94,0.581032,10,-6.14716e-05,-3.75037,-0.873977,-0.0675075,0.346054,
2,0,0,0,0,62575.7,0.342336,0.341974,-0.17886,94,0.580881,10,-6.11654e-05,-3.74749,-0.553877,-0.106522,0.342053,
2,0,0,1,0,62576.5,0.338341,0.337988,-0.181967,94,0.580729,10,-6.15027e-05,-3.74001,-0.732076,-0.0805927,0.338068,
2,0,0,1,0,62577.3,0.334345,0.333994,-0.183873,94,0.580574,10,-6.14125e-05,-3.73548,-0.842096,-0.0700633,0.334075,
2,0,0,1,0,62578.1,0.33035,0.330017,-0.18631,94,0.580418,10,-6.14853e-05,-3.72976,-0.78811,-0.0748627,0.330099,
2,0,0,1,0,62578.9,0.326355,0.325965,-0.188415,94,0.58026,10,-6.14166e-05,-3.72489,-0.687674,-0.0857965,0.326048,
2,0,0,0,0,62579.7,0.32236,0.322088,-0.189853,94,0.5801,10,-6.11495e-05,-3.72158,-0.710921,-0.082991,0.322172,
2,0,0,1,0,62580.5,0.318365,0.318018,-0.192374,94,0.579938,10,-6.11784e-05,-3.71585,-0.713281,-0.0827163,0.318103,
2,0,0,0,0,62581.3,0.31437,0.314004,-0.195483,94,0.579774,10,-6.13822e-05,-3.70889,-1.09045,-0.054106,0.31409,
2,0,0,1,0,62582.1,0.310374,0.310033,-0.198496,94,0.579608,10,-6.15403e-05,-3.70225,-0.652784,-0.0903821,0.31012,
2,0,0,1,0,62582.9,0.306379,0.30607,-0.200968,94,0.57944,10,-6.15102e-05,-3.69687,-0.729011,-0.0809316,0.306158,
2,0,0,1,0,62583.7,0.302385,0.302044,-0.203149,94,0.57927,10,-6.13599e-05,-3.69218,-0.876346,-0.067325,0.302133,
2,0,0,1,0,62584.5,0.298389,0.298034,-0.20523,94,0.579098,10,-6.11655e-05,-3.68776,-0.518594,-0.113769,0.298124,
2,0,0,0,0,62585.3,0.294394,0.294057,-0.207693,94,0.578924,10,-6.10737e-05,-3.68258,-1.5908,-0.0370883,0.294149,
2,0,0,1,0,62586.1,0.290398,0.290071,-0.211625,94,0.578748,10,-6.13862e-05,-3.67443,-0.673389,-0.0876166,0.290164,
2,0,0,1,0,62586.9,0.286403,0.286049,-0.212262,94,0.578569,10,-6.07173e-05,-3.67313,-0.512627,-0.115093,0.286143,
2,0,0,1,0,62587.7,0.282408,0.281977,-0.216421,94,0.578389,10,-6.10259e-05,-3.6647,-1.74503,-0.0338102,0.282073,
2,0,0,1,0,62588.5,0.278414,0.278063,-0.219218,94,0.578206,10,-6.09565e-05,-3.65912,-0.535833,-0.110109,0.278159,
2,0,0,0,0,62589.3,0.274418,0.274097,-0.222902,94,0.578021,10,-6.10968e-05,-3.65189,-0.989025,-0.0596547,0.274195,
2,0,0,1,0,62590.1,0.270423,0.270109,-0.223855,94,0.577834,10,-6.04652e-05,-3.65003,-0.728971,-0.080936,0.270208,
2,0,0,1,0,62590.9,0.266427,0.266056,-0.227112,94,0.577645,10,-6.04245e-05,-3.64376,-0.740589,-0.0796663,0.266156,
2,0,0,1,0,62591.7,0.262432,0.262094,-0.229335,94,0.577453,10,-6.01074e-05,-3.63953,-1.05045,-0.0561665,0.262195,
2,0,0,1,0,62592.5,0.258437,0.258078,-0.231415,94,0.57726,10,-5.97231e-05,-3.63561,-0.987138,-0.0597688,0.25818,
2,0,0,0,0,62593.3,0.254442,0.254091,-0.232998,94,0.577065,10,-5.92025e-05,-3.63265,-0.639938,-0.0921965,0.254193,
2,0,0,1,0,62594.1,0.250447,0.250106,-0.237055,94,0.576868,10,-5.92888e-05,-3.62515,-1.04304,-0.0565657,0.25021,
2,0,0,0,0,62594.9,0.246452,0.246082,-0.238622,94,0.576669,10,-5.87206e-05,-3.62229,-0.789297,-0.0747501,0.246187,
2,0,0,1,0,62595.7,0.242456,0.242095,-0.241775,94,0.576467,10,-5.85325e-05,-3.61659,-0.982296,-0.0600634,0.242201,
2,0,0,1,0,62596.5,0.238461,0.238119,-0.243702,94,0.576264,10,-5.803e-05,-3.61314,-1.09492,-0.053885,0.238226,
2,0,0,1,0,62597.3,0.234467,0.234108,-0.246322,94,0.576059,10,-5.76658e-05,-3.6085,-0.697064,-0.0846407,0.234216,
2,0,0,1,0,62598.1,0.230471,0.230096,-0.248932,94,0.575852,10,-5.72782e-05,-3.60392,-1.09178,-0.0540401,0.230205,
2,0,0,0,0,62598.9,0.226476,0.226151,-0.250948,94,0.575643,10,-5.67521e-05,-3.60042,-0.786015,-0.0750622,0.226261,
2,0,0,1,0,62599.7,0.222481,0.222146,-0.252602,94,0.575432,10,-5.61145e-05,-3.59756,-1.30361,-0.0452589,0.222257,
2,0,0,1,0,62600.5,0.218485,0.218129,-0.256604,94,0.575219,10,-5.59727e-05,-3.59074,-1.47963,-0.0398747,0.218242,
2,0,0,1,0,62601.3,0.21449,0.214143,-0.258711,94,0.575004,10,-5.54011e-05,-3.58719,-0.679213,-0.0868653,0.214257,
2,0,0,1,0,62602.1,0.210496,0.210153,-0.261207,94,0.574787,10,-5.48935e-05,-3.58301,-1.17579,-0.0501791,0.210268,
2,0,0,0,0,62602.9,0.2065,0.206138,-0.267092,94,0.574567,10,-5.50577e-05,-3.57334,-0.571637,-0.103212,0.206255,
2,0,0,1,0,62603.7,0.202505,0.202187,-0.266436,94,0.574344,10,-5.38699e-05,-3.57441,-0.894317,-0.0659721,0.202304,
2,0,0,1,0,62604.5,0.198509,0.198135,-0.270372,94,0.57412,10,-5.35701e-05,-3.56804,-1.0223,-0.0577128,0.198254,
2,0,0,1,0,62605.3,0.194514,0.194147,-0.27358,94,0.573893,10,-5.31147e-05,-3.56292,-0.515487,-0.114455,0.194267,
2,0,0,1,0,62606.1,0.190519,0.190171,-0.276447,94,0.573663,10,-5.25724e-05,-3.55839,-0.766018,-0.0770217,0.190293,
2,0,0,0,0,62606.9,0.186524,0.186161,-0.281654,94,0.57343,10,-5.2433e-05,-3.55028,-0.884414,-0.0667109,0.186285,
2,0,0,1,0,62607.6,0.182529,0.18219,-0.284914,94,0.573194,10,-5.19083e-05,-3.54529,-0.497114,-0.118685,0.182315,
2,0,0,0,0,62608.4,0.178534,0.178163,-0.28931,94,0.572955,10,-5.15444e-05,-3.53864,-0.665042,-0.0887161,0.178291,
2,0,0,1,0,62609.2,0.174538,0.174178,-0.294517,94,0.572712,10,-5.12984e-05,-3.53089,-0.448245,-0.131624,0.174308,
2,0,0,1,0,62610,0.170543,0.170157,-0.300796,94,0.572464,10,-5.11826e-05,-3.52173,-0.439791,-0.134155,0.17029,
2,0,0,1,0,62610.8,0.166549,0.16618,-0.306887,94,0.572211,10,-5.09985e-05,-3.51302,-0.392822,-0.150195,0.166315,
2,0,0,1,0,62611.6,0.162553,0.162228,-0.315798,94,0.571952,10,-5.12311e-05,-3.50059,-0.323545,-0.182355,0.162367,
2,0,0,0,0,62612.4,0.158558,0.15822,-0.324602,94,0.571686,10,-5.13587e-05,-3.48865,-0.258436,-0.228296,0.158363,
2,0,0,1,0,62613.2,0.154563,0.154245,-0.339126,94,0.571411,10,-5.23085e-05,-3.46964,-0.242407,-0.243392,0.154394,
2,0,0,1,0,62614,0.150567,0.150228,-0.354832,94,0.571124,10,-5.33056e-05,-3.44998,-0.166975,-0.353347,0.150384,
2,0,0,1,0,62614.8,0.146572,0.146247,-0.375976,94,0.570822,10,-5.49853e-05,-3.42484,-0.140507,-0.419909,0.146412,
2,0,0,1,0,62615.6,0.142578,0.142204,-0.404786,94,0.570501,10,-5.75623e-05,-3.39277,-0.117043,-0.504089,0.142382,
2,0,0,0,0,62616.4,0.138582,0.138235,-0.438798,94,0.570154,10,-6.06572e-05,-3.35774,-0.0991782,-0.594889,0.138428,
2,0,0,1,0,62617.2,0.134587,0.134228,-0.481389,94,0.569776,10,-6.46156e-05,-3.3175,-0.107403,-0.549331,0.134439,
2,0,0,1,0,62618,0.130591,0.130216,-0.523974,94,0.569363,10,-6.823e-05,-3.28069,-0.107395,-0.549373,0.130447,
2,0,0,1,0,62618.8,0.126596,0.126247,-0.564883,94,0.568916,10,-7.13147e-05,-3.24804,-0.137047,-0.43051,0.126495,
2,0,0,1,0,62619.6,0.122602,0.122262,-0.600801,94,0.568438,10,-7.34553e-05,-3.22127,-0.185111,-0.318728,0.122526,
2,0,0,1,0,62620.4,0.118607,0.118222,-0.626598,94,0.567936,10,-7.40778e-05,-3.20301,-0.248259,-0.237655,0.118498,
2,0,0,1,0,62621.2,0.114611,0.114255,-0.641658,94,0.567418,10,-7.33125e-05,-3.1927,-0.623343,-0.094651,0.114537,
2,0,0,0,0,62622,0.110616,0.110253,-0.649869,94,0.566891,10,-7.16499e-05,-3.18717,-1.23072,-0.0479395,0.110539,
2,0,0,1,0,62622.8,0.10662,0.106283,-0.65215,94,0.56636,10,-6.93128e-05,-3.18565,-2.36119,-0.0249874,0.10657,
2,0,0,1,0,62623.6,0.102625,0.102286,-0.65209,94,0.565828,10,-6.66996e-05,-3.18569,1.81853,0.0324437,0.102573,
2,0,0,1,0,62624.4,0.0986305,0.0982695,-0.649905,94,0.565297,10,-6.38658e-05,-3.18715,6.32481,0.00932835,0.0985554,
2,0,0,1,0,62625.2,0.0946351,0.0942629,-0.645391,94,0.564769,10,-6.08364e-05,-3.19018,1.58859,0.0371398,0.0945469,
2,0,0,0,0,62626,0.0906399,0.0902567,-0.643004,94,0.564243,10,-5.80354e-05,-3.19179,0.921781,0.0640065,0.0905396,
2,0,0,1,0,62626.8,0.0866448,0.0863237,-0.63604,94,0.563722,10,-5.49053e-05,-3.19652,1.10295,0.0534928,0.0866035,
2,0,0,1,0,62627.6,0.0826492,0.0822768,-0.629802,94,0.563205,10,-5.18181e-05,-3.2008,0.752592,0.0783957,0.0825539,
2,0,0,1,0,62628.4,0.0786544,0.0783102,-0.622697,94,0.562695,10,-4.87635e-05,-3.20572,0.793559,0.0743486,0.0785842,
2,0,0,1,0,62629.2,0.0746596,0.0742926,-0.615809,94,0.56219,10,-4.575e-05,-3.21055,0.882375,0.066865,0.0745636,
2,0,0,0,0,62630,0.0706641,0.0703073,-0.607349,94,0.56169,10,-4.27011e-05,-3.21656,0.639661,0.0922363,0.0705745,
2,0,0,1,0,62630.8,0.0666689,0.0663403,-0.601429,94,0.561197,10,-3.9899e-05,-3.22082,0.850723,0.0693528,0.0666049,
2,0,0,0,0,62631.6,0.0626737,0.0623394,-0.591723,94,0.560709,10,-3.68877e-05,-3.22788,0.721881,0.0817309,0.0625998,
2,0,0,1,0,62632.4,0.0586783,0.0582661,-0.585036,94,0.560228,10,-3.40877e-05,-3.23282,0.5396,0.10934,0.0585235,
2,0,0,1,0,62633.2,0.0546835,0.0543092,-0.575912,94,0.559753,10,-3.12773e-05,-3.23964,0.763994,0.0772257,0.0545626,
2,0,0,1,0,62634,0.0506886,0.0503521,-0.567532,94,0.559285,10,-2.85764e-05,-3.24601,0.542876,0.10868,0.0506018,
2,0,0,1,0,62634.8,0.046693,0.046341,-0.558789,94,0.558824,10,-2.58948e-05,-3.25275,0.526166,0.112132,0.0465869,
2,0,0,0,0,62635.6,0.0426979,0.0423709,-0.548808,94,0.558372,10,-2.32535e-05,-3.26058,0.662722,0.0890268,0.0426124,
2,0,0,1,0,62636.4,0.0387022,0.0382848,-0.540746,94,0.557926,10,-2.07024e-05,-3.26701,0.470167,0.125487,0.0385227,
2,0,0,1,0,62637.2,0.0347074,0.034352,-0.530753,94,0.557488,10,-1.82324e-05,-3.27511,0.562022,0.104978,0.0345855,
2,0,0,1,0,62638,0.0307126,0.0303758,-0.52131,94,0.557057,10,-1.58352e-05,-3.2829,0.577306,0.102199,0.0306052,
2,0,0,1,0,62638.8,0.0267172,0.0263704,-0.514495,94,0.556632,10,-1.35674e-05,-3.28862,0.489165,0.120614,0.0265968,
2,0,0,0,0,62639.6,0.022722,0.0223812,-0.506616,94,0.556215,10,-1.13387e-05,-3.29532,0.959026,0.0615207,0.0226041,
2,0,0,1,0,62640.4,0.0187268,0.0183898,-0.499894,94,0.555803,10,-9.19294e-06,-3.30112,0.775956,0.0760353,0.0186097,
2,0,0,1,0,62641.2,0.0147313,0.0143854,-0.495966,94,0.555395,10,-7.13467e-06,-3.30455,1.00022,0.0589868,0.0146036,
2,0,0,1,0,62642,0.0107365,0.0103869,-0.492194,94,0.554991,10,-5.11237e-06,-3.30786,1.71856,0.0343312,0.0106035,
2,0,0,1,0,62642.8,0.00674163,0.00637694,-0.490419,94,0.554588,10,-3.12737e-06,-3.30943,9.48775,0.00621855,0.00659272,
2,0,0,0,0,62643.6,0.00274612,0.0024031,-0.490373,94,0.554187,10,-1.17842e-06,-3.30947,-1.66341,-0.0354692,0.00261887,
2,0,0,1,0,62644.1,0.000274105,-9.50827e-05,-0.491446,94,0.553936,10,4.67281e-08,-3.30852, , ,0.000121154,