File: Figure_codes/Fig_3-5/workspace_calculate_alpha_eff/20221101_1-115_003_TrumpetPlot_ParaChange_from10_every3_16_CV_C01_87.csv
mode,ox/red,error,control changes,counter inc.,time/s,control/V,Ewe/V,<I>/mA,cycle number,(Q-Qo)/C,I Range,P/W,log(|I|),Tafel slope mV/dec,alpha_eff,E-IR/V,
2,0,0,1,0,58363.9,2.44065e-05,-0.000306236,-0.0408791,88,0.0000000E+000,10,1.25187e-08,-4.3885, , ,-0.000288249,
2,1,0,1,0,58364.7,0.00379485,0.00345927,0.198792,88,0.000126321,10,6.87673e-07,-3.7016,0.0424676,1.38929,0.0033718,
2,1,0,0,0,58365.5,0.00779002,0.00744321,0.221144,88,0.000305316,10,1.64602e-06,-3.65533,0.0980426,0.601779,0.00734591,
2,1,0,1,0,58366.3,0.0117852,0.0114155,0.237846,88,0.000499495,10,2.71513e-06,-3.6237,0.162006,0.364183,0.0113108,
2,1,0,1,0,58367.1,0.0157806,0.0154346,0.252952,88,0.000705271,10,3.90423e-06,-3.59696,0.157954,0.373527,0.0153233,
2,1,0,1,0,58367.8,0.0197754,0.0194118,0.26494,88,0.00092189,10,5.14297e-06,-3.57685,0.186962,0.315572,0.0192953,
2,1,0,1,0,58368.6,0.0237704,0.0234127,0.278807,88,0.00114911,10,6.52762e-06,-3.5547,0.196122,0.300834,0.02329,
2,1,0,0,0,58369.4,0.0277659,0.0274138,0.291296,88,0.00138652,10,7.98554e-06,-3.53567,0.205941,0.28649,0.0272857,
2,1,0,1,0,58370.2,0.0317611,0.0314063,0.303666,88,0.00163467,10,9.53702e-06,-3.5176,0.208319,0.28322,0.0312727,
2,1,0,1,0,58371,0.0357567,0.0353895,0.317518,88,0.00189376,10,1.12368e-05,-3.49823,0.241527,0.244279,0.0352498,
2,1,0,1,0,58371.8,0.0397516,0.0393891,0.331675,88,0.00216332,10,1.30644e-05,-3.47929,0.213762,0.276008,0.0392432,
2,1,0,1,0,58372.6,0.0437465,0.0433728,0.34251,88,0.00244365,10,1.48556e-05,-3.46533,0.24845,0.237472,0.0432221,
2,1,0,1,0,58373.4,0.0477413,0.0473999,0.35607,88,0.00273351,10,1.68777e-05,-3.44847,0.270416,0.218182,0.0472432,
2,1,0,1,0,58374.2,0.0517369,0.051343,0.367472,88,0.00303294,10,1.88671e-05,-3.43478,0.284305,0.207524,0.0511813,
2,1,0,0,0,58375,0.0557321,0.0553842,0.379467,88,0.00334196,10,2.10165e-05,-3.42083,0.369892,0.159506,0.0552172,
2,1,0,1,0,58375.8,0.0597277,0.0593738,0.390259,88,0.00365931,10,2.31712e-05,-3.40865,0.35929,0.164213,0.0592021,
2,1,0,1,0,58376.6,0.0637226,0.0633776,0.398238,88,0.00398447,10,2.52393e-05,-3.39986,0.389721,0.15139,0.0632023,
2,1,0,1,0,58377.4,0.0677174,0.0673804,0.407531,88,0.00431701,10,2.74596e-05,-3.38984,0.64855,0.0909721,0.067201,
2,1,0,1,0,58378.2,0.0717128,0.0713316,0.41568,88,0.0046557,10,2.96511e-05,-3.38124,0.373971,0.157766,0.0711487,
2,1,0,0,0,58379,0.075708,0.0753432,0.42166,88,0.00500092,10,3.17692e-05,-3.37504,0.600598,0.0982354,0.0751576,
2,1,0,1,0,58379.8,0.0797031,0.079361,0.430563,88,0.0053513,10,3.41699e-05,-3.36596,0.59617,0.098965,0.0791716,
2,1,0,1,0,58380.6,0.0836986,0.0833389,0.436687,88,0.0057075,10,3.6393e-05,-3.35983,0.441982,0.13349,0.0831467,
2,1,0,1,0,58381.4,0.0876935,0.0872719,0.446598,88,0.00607062,10,3.89755e-05,-3.35008,0.439149,0.134351,0.0870754,
2,1,0,1,0,58382.2,0.0916883,0.0913242,0.458737,88,0.00644215,10,4.18938e-05,-3.33844,0.274537,0.214907,0.0911223,
2,1,0,0,0,58383,0.0956838,0.0953361,0.472926,88,0.00682581,10,4.50869e-05,-3.32521,0.251043,0.23502,0.095128,
2,1,0,1,0,58383.8,0.099679,0.0993211,0.494302,88,0.00722343,10,4.90946e-05,-3.30601,0.24892,0.237024,0.0991036,
2,1,0,0,0,58384.6,0.103674,0.103284,0.515386,88,0.007637,10,5.3231e-05,-3.28787,0.189342,0.311605,0.103057,
2,1,0,1,0,58385.4,0.10767,0.107334,0.534951,88,0.00806801,10,5.74182e-05,-3.27169,0.277263,0.212795,0.107098,
2,1,0,1,0,58386.2,0.111664,0.111289,0.553783,88,0.00851361,10,6.16299e-05,-3.25666,0.291009,0.202743,0.111045,
2,1,0,1,0,58387,0.115659,0.115285,0.567047,88,0.00897184,10,6.53719e-05,-3.24638,0.383204,0.153965,0.115035,
2,1,0,1,0,58387.8,0.119655,0.119275,0.577013,88,0.00944025,10,6.8823e-05,-3.23881,0.830144,0.071072,0.119021,
2,1,0,0,0,58388.6,0.12365,0.123304,0.586097,88,0.00991534,10,7.22682e-05,-3.23203,0.786219,0.0750428,0.123046,
2,1,0,1,0,58389.4,0.127646,0.127279,0.589771,88,0.0103961,10,7.50654e-05,-3.22932,1.95056,0.0302478,0.127019,
2,1,0,1,0,58390.2,0.131641,0.131303,0.589286,88,0.0108792,10,7.7375e-05,-3.22967,-0.59712,-0.0988076,0.131044,
2,1,0,1,0,58391,0.135635,0.135243,0.575557,88,0.0113559,10,7.78402e-05,-3.23991,-0.265159,-0.222508,0.13499,
2,1,0,1,0,58391.8,0.139631,0.139253,0.543434,88,0.0118147,10,7.56747e-05,-3.26485,-0.122543,-0.481462,0.139014,
2,1,0,0,0,58392.6,0.143626,0.14326,0.497821,88,0.0122415,10,7.13178e-05,-3.30293,-0.0885194,-0.66652,0.143041,
2,1,0,1,0,58393.4,0.147621,0.147237,0.442172,88,0.0126264,10,6.51039e-05,-3.35441,-0.0768662,-0.767568,0.147042,
2,1,0,1,0,58394.2,0.151617,0.15126,0.39558,88,0.0129702,10,5.98356e-05,-3.40277,-0.0952488,-0.619431,0.151086,
2,1,0,1,0,58395,0.155612,0.155234,0.362695,88,0.0132815,10,5.63027e-05,-3.44046,-0.12296,-0.479833,0.155075,
2,1,0,1,0,58395.8,0.159606,0.159267,0.340915,88,0.0135716,10,5.42964e-05,-3.46735,-0.193226,-0.305342,0.159117,
2,1,0,0,0,58396.6,0.163602,0.16323,0.327975,88,0.0138482,10,5.35353e-05,-3.48416,-0.23461,-0.251481,0.163085,
2,1,0,1,0,58397.4,0.167597,0.167228,0.317669,88,0.0141153,10,5.31233e-05,-3.49803,-0.4509,-0.130849,0.167089,
2,1,0,0,0,58398.2,0.171592,0.17122,0.310095,88,0.0143765,10,5.30945e-05,-3.5085,-0.417214,-0.141414,0.171083,
2,1,0,1,0,58399,0.175588,0.175224,0.308439,88,0.014633,10,5.4046e-05,-3.51083,-0.946487,-0.0623358,0.175088,
2,1,0,1,0,58399.8,0.179582,0.179191,0.303811,88,0.0148863,10,5.44403e-05,-3.5174,-1.21253,-0.0486585,0.179057,
2,1,0,1,0,58400.6,0.183577,0.183227,0.300867,88,0.0151375,10,5.51269e-05,-3.52162,-0.88126,-0.0669496,0.183094,
2,1,0,1,0,58401.4,0.187573,0.187247,0.298114,88,0.0153866,10,5.58209e-05,-3.52562,-1.65507,-0.0356481,0.187116,
2,1,0,0,0,58402.2,0.191568,0.191212,0.296701,88,0.0156338,10,5.67326e-05,-3.52768,-1.27191,-0.0463869,0.191081,
2,1,0,1,0,58403,0.195563,0.195151,0.295158,88,0.0158801,10,5.76004e-05,-3.52995,-1.45267,-0.040615,0.195021,
2,1,0,1,0,58403.8,0.199559,0.19917,0.294918,88,0.016125,10,5.87389e-05,-3.5303,-8.29194,-0.00711534,0.19904,
2,1,0,1,0,58404.6,0.203553,0.203191,0.291855,88,0.016369,10,5.93022e-05,-3.53483,-1.59171,-0.0370671,0.203062,
2,1,0,1,0,58405.4,0.207548,0.207188,0.29132,88,0.016612,10,6.03581e-05,-3.53563,-3.52725,-0.0167269,0.20706,
2,1,0,0,0,58406.2,0.211544,0.211148,0.290056,88,0.016854,10,6.12449e-05,-3.53752,-3.46597,-0.0170226,0.211021,
2,1,0,1,0,58407,0.215539,0.215181,0.290046,88,0.0170951,10,6.24124e-05,-3.53753,-1.47355,-0.0400394,0.215053,
2,1,0,1,0,58407.8,0.219535,0.219154,0.289016,88,0.0173353,10,6.3339e-05,-3.53908,-10.418,-0.00566326,0.219027,
2,1,0,1,0,58408.6,0.223529,0.223164,0.287337,88,0.0175746,10,6.41234e-05,-3.54161,-2.24778,-0.0262481,0.223038,
2,1,0,1,0,58409.4,0.227524,0.227171,0.286244,88,0.0178134,10,6.50263e-05,-3.54326,-1.53914,-0.038333,0.227045,
2,1,0,0,0,58410.2,0.23152,0.231135,0.286031,88,0.0180515,10,6.61117e-05,-3.54359,8.60801,0.00685408,0.231009,
2,1,0,1,0,58411,0.235515,0.235157,0.283903,88,0.0182891,10,6.67619e-05,-3.54683,-8.2694,-0.00713474,0.235032,
2,1,0,0,0,58411.8,0.23951,0.2392,0.283588,88,0.0185257,10,6.78344e-05,-3.54731,-1.41456,-0.0417092,0.239076,
2,1,0,1,0,58412.6,0.243506,0.243118,0.283509,88,0.0187615,10,6.89261e-05,-3.54743,-61.4437,-0.000960228,0.242993,
2,1,0,1,0,58413.4,0.2475,0.247137,0.283655,88,0.018997,10,7.01018e-05,-3.54721,-4.93692,-0.0119508,0.247013,
2,1,0,1,0,58414.2,0.251495,0.251101,0.282933,88,0.0192316,10,7.10447e-05,-3.54832,-2.35977,-0.0250025,0.250977,
2,1,0,1,0,58415,0.255491,0.255182,0.281673,88,0.0194659,10,7.18778e-05,-3.55025,-6.31685,-0.00934009,0.255058,
2,1,0,0,0,58415.8,0.259486,0.259114,0.279944,88,0.0196994,10,7.25375e-05,-3.55293,-0.992533,-0.0594439,0.258991,
2,1,0,1,0,58416.6,0.263481,0.263106,0.280305,88,0.0199321,10,7.375e-05,-3.55237,-63.5374,-0.000928587,0.262983,
2,1,0,1,0,58417.4,0.267477,0.267101,0.27863,88,0.0201644,10,7.44222e-05,-3.55497,-3.73712,-0.0157876,0.266978,
2,1,0,1,0,58418.2,0.271471,0.271095,0.278986,88,0.0203962,10,7.56317e-05,-3.55442,-10.7358,-0.00549564,0.270972,
2,1,0,1,0,58419,0.275466,0.275133,0.276383,88,0.0206271,10,7.60421e-05,-3.55849,-2.19881,-0.0268327,0.275011,
2,1,0,0,0,58419.8,0.279462,0.279121,0.276863,88,0.0208574,10,7.72784e-05,-3.55774,-3.79932,-0.0155291,0.279,
2,1,0,1,0,58420.6,0.283457,0.283049,0.275907,88,0.0210867,10,7.80954e-05,-3.55924,-1.81264,-0.0325492,0.282928,
2,1,0,0,0,58421.4,0.287452,0.287058,0.274601,88,0.0213153,10,7.88264e-05,-3.5613,-4.63867,-0.0127192,0.286937,
2,1,0,1,0,58422.2,0.291448,0.291077,0.273854,88,0.0215433,10,7.97126e-05,-3.56248,-1.39086,-0.0424198,0.290956,
2,1,0,1,0,58423,0.295442,0.295061,0.272029,88,0.0217702,10,8.02653e-05,-3.56538,5.92906,0.00995099,0.294942,
2,1,0,1,0,58423.8,0.299437,0.299096,0.271096,88,0.0219968,10,8.10838e-05,-3.56688,-4.8035,-0.0122827,0.298977,
2,1,0,1,0,58424.6,0.303433,0.303126,0.271496,88,0.0222225,10,8.22976e-05,-3.56624,-3.10629,-0.0189937,0.303006,
2,1,0,0,0,58425.4,0.307428,0.307013,0.270679,88,0.0224476,10,8.31022e-05,-3.56754,-2.73478,-0.021574,0.306894,
2,1,0,1,0,58426.2,0.311424,0.311072,0.270248,88,0.0226724,10,8.40666e-05,-3.56824,-22.6311,-0.00260703,0.310953,
2,1,0,1,0,58427,0.315418,0.315079,0.269218,88,0.0228964,10,8.48249e-05,-3.5699,-1.36624,-0.0431843,0.31496,
2,1,0,1,0,58427.8,0.319413,0.319075,0.268367,88,0.0231198,10,8.56294e-05,-3.57127,-4.83971,-0.0121908,0.318957,
2,1,0,1,0,58428.6,0.323409,0.323049,0.267869,88,0.0233429,10,8.65347e-05,-3.57208,-1.33852,-0.0440786,0.322931,
2,1,0,0,0,58429.4,0.327404,0.327038,0.267082,88,0.0235652,10,8.73461e-05,-3.57335,5.17915,0.0113918,0.326921,
2,1,0,1,0,58430.2,0.331399,0.331038,0.265328,88,0.0237869,10,8.78337e-05,-3.57622,-3.79195,-0.0155593,0.330921,
2,1,0,1,0,58431,0.335395,0.335038,0.266136,88,0.0240081,10,8.91657e-05,-3.5749,-21.9146,-0.00269226,0.334921,
2,1,0,1,0,58431.8,0.339389,0.339042,0.265079,88,0.0242287,10,8.98728e-05,-3.57663,-8.81448,-0.00669353,0.338925,
2,1,0,1,0,58432.6,0.343384,0.343047,0.265475,88,0.0244489,10,9.10704e-05,-3.57598,-2.70733,-0.0217927,0.34293,
2,1,0,0,0,58433.4,0.34738,0.347026,0.264259,88,0.0246686,10,9.17045e-05,-3.57797,-2.68703,-0.0219573,0.346909,
2,1,0,1,0,58434.2,0.351375,0.351014,0.2631,88,0.0248876,10,9.23517e-05,-3.57988,-2.84874,-0.0207109,0.350898,
2,1,0,0,0,58435,0.35537,0.354999,0.263163,88,0.0251062,10,9.34225e-05,-3.57978,-1.5207,-0.0387979,0.354883,
2,1,0,1,0,58435.8,0.359366,0.359027,0.263146,88,0.0253242,10,9.44764e-05,-3.5798,4.27376,0.0138052,0.358911,
2,1,0,1,0,58436.6,0.36336,0.363016,0.261897,88,0.0255421,10,9.5073e-05,-3.58187,-3.85556,-0.0153026,0.362901,
2,1,0,1,0,58437.4,0.367355,0.367018,0.261386,88,0.0257591,10,9.59334e-05,-3.58272,-39.5422,-0.00149208,0.366903,
2,1,0,1,0,58438.2,0.371351,0.370981,0.260395,88,0.0259757,10,9.66018e-05,-3.58437,10.1644,0.00580458,0.370867,
2,1,0,0,0,58439,0.375346,0.375017,0.260534,88,0.0261921,10,9.77046e-05,-3.58414,-2.33149,-0.0253057,0.374903,
2,1,0,1,0,58439.8,0.379342,0.378997,0.259883,88,0.0264078,10,9.84949e-05,-3.58522,-3.03286,-0.0194536,0.378883,
2,1,0,1,0,58440.6,0.383336,0.382989,0.259268,88,0.026623,10,9.92966e-05,-3.58625,-3.30927,-0.0178287,0.382875,
2,1,0,1,0,58441.4,0.387331,0.387004,0.259275,88,0.0268379,10,0.00010034,-3.58624,-2.1926,-0.0269087,0.38689,
2,1,0,1,0,58442.2,0.391327,0.390965,0.258421,88,0.0270523,10,0.000101033,-3.58767,3.46705,0.0170173,0.390851,
2,1,0,0,0,58443,0.395322,0.394952,0.257835,88,0.0272666,10,0.000101832,-3.58866,47.1244,0.00125201,0.394838,
2,1,0,1,0,58443.8,0.399317,0.398955,0.257947,88,0.0274804,10,0.000102909,-3.58847,-4.11333,-0.0143436,0.398841,
2,1,0,1,0,58444.6,0.403313,0.40295,0.257601,88,0.0276938,10,0.0001038,-3.58905,-3.70144,-0.0159397,0.402837,
2,1,0,1,0,58445.4,0.407307,0.406958,0.25716,88,0.0279068,10,0.000104653,-3.5898,-35.1755,-0.0016773,0.406844,
2,1,0,1,0,58446.2,0.411302,0.410992,0.257413,88,0.0281194,10,0.000105795,-3.58937,-3.17514,-0.0185819,0.410879,
2,1,0,0,0,58447,0.415298,0.414967,0.256218,88,0.028332,10,0.000106322,-3.59139,-5.38601,-0.0109543,0.414854,
2,1,0,1,0,58447.8,0.419293,0.418908,0.255768,88,0.0285441,10,0.000107143,-3.59215,-3.76475,-0.0156717,0.418796,
2,1,0,0,0,58448.6,0.423288,0.422919,0.256056,88,0.0287557,10,0.000108291,-3.59167,-3.94039,-0.0149731,0.422806,
2,1,0,1,0,58449.4,0.427283,0.426916,0.255191,88,0.0289672,10,0.000108945,-3.59313,11.8845,0.00496445,0.426804,
2,1,0,1,0,58450.2,0.431278,0.430886,0.255386,88,0.0291782,10,0.000110042,-3.5928,22.0087,0.00268076,0.430773,
2,1,0,1,0,58450.9,0.435273,0.434922,0.254738,88,0.029389,10,0.000110791,-3.59391,3.63259,0.0162418,0.43481,
2,1,0,1,0,58451.7,0.439269,0.438929,0.254896,88,0.0295998,10,0.000111881,-3.59364,-1.82103,-0.0323992,0.438817,
2,1,0,0,0,58452.5,0.443264,0.442895,0.255073,88,0.0298104,10,0.000112971,-3.59334,-4.84614,-0.0121746,0.442783,
2,1,0,1,0,58453.3,0.447259,0.446935,0.254621,88,0.0300206,10,0.000113799,-3.59411,3.99126,0.0147823,0.446823,
2,1,0,1,0,58454.1,0.451254,0.450937,0.254286,88,0.030231,10,0.000114667,-3.59468,-1.33854,-0.0440779,0.450825,
2,1,0,1,0,58454.9,0.455249,0.454907,0.254119,88,0.030441,10,0.000115601,-3.59496,1.81358,0.0325323,0.454795,
2,1,0,1,0,58455.7,0.459244,0.45895,0.253075,88,0.030651,10,0.000116149,-3.59675,3.71353,0.0158879,0.458839,
2,1,0,0,0,58456.5,0.46324,0.462933,0.25459,88,0.0308611,10,0.000117858,-3.59416,-32.6703,-0.00180592,0.462821,
2,1,0,1,0,58457.3,0.467235,0.466846,0.254232,88,0.0310714,10,0.000118687,-3.59477,-18.7838,-0.003141,0.466734,
2,1,0,1,0,58458.1,0.471231,0.470871,0.254766,88,0.0312819,10,0.000119962,-3.59386,8.13178,0.00725548,0.470759,
2,1,0,1,0,58458.9,0.475225,0.474898,0.255694,88,0.0314923,10,0.000121429,-3.59228,3.91856,0.0150566,0.474785,
2,1,0,1,0,58459.7,0.47922,0.478891,0.255533,88,0.0317031,10,0.000122373,-3.59255,-8.2682,-0.00713577,0.478779,
2,1,0,0,0,58460.5,0.483216,0.482883,0.256273,88,0.031914,10,0.00012375,-3.5913,-386.529,-0.000152641,0.48277,
2,1,0,1,0,58461.3,0.487211,0.486816,0.256785,88,0.0321251,10,0.000125007,-3.59043,2.48241,0.0237672,0.486703,
2,1,0,0,0,58462.1,0.491206,0.490874,0.256053,88,0.0323366,10,0.00012569,-3.59167,3.21138,0.0183722,0.490761,
2,1,0,1,0,58462.9,0.495201,0.494865,0.256861,88,0.0325482,10,0.000127111,-3.5903,2.30435,0.0256038,0.494752,
2,1,0,1,0,58463.7,0.499196,0.498843,0.257738,88,0.0327603,10,0.000128571,-3.58882,3.36099,0.0175543,0.49873,
2,1,0,1,0,58464.5,0.503191,0.502787,0.258279,88,0.032973,10,0.000129859,-3.58791,6.12654,0.00963023,0.502674,
2,1,0,1,0,58465.3,0.507187,0.506815,0.259204,88,0.0331861,10,0.000131369,-3.58636,-31.4147,-0.0018781,0.506701,
2,1,0,0,0,58466.1,0.511182,0.510886,0.25954,88,0.0333997,10,0.000132595,-3.5858,1.9906,0.0296392,0.510772,
2,1,0,1,0,58466.9,0.515177,0.514818,0.260646,88,0.0336141,10,0.000134185,-3.58395,-51.5977,-0.00114346,0.514703,
2,1,0,1,0,58467.7,0.519173,0.51884,0.26154,88,0.0338291,10,0.000135697,-3.58246,1.23007,0.0479646,0.518725,
2,1,0,1,0,58468.5,0.523167,0.522786,0.262305,88,0.0340449,10,0.000137129,-3.58119,1.82287,0.0323666,0.52267,
2,1,0,1,0,58469.3,0.527162,0.526801,0.264443,88,0.0342616,10,0.000139309,-3.57767,1.6859,0.0349961,0.526685,
2,1,0,0,0,58470.1,0.531158,0.530826,0.265177,88,0.0344793,10,0.000140763,-3.57646,1.67535,0.0352164,0.530709,
2,1,0,1,0,58470.9,0.535153,0.534807,0.267016,88,0.0346981,10,0.000142802,-3.57346,2.66078,0.0221739,0.534689,
2,1,0,0,0,58471.7,0.539148,0.538814,0.26874,88,0.0349179,10,0.000144801,-3.57067,1.3557,0.04352,0.538696,
2,1,0,1,0,58472.5,0.543143,0.542787,0.270249,88,0.0351392,10,0.000146687,-3.56824,1.18747,0.0496854,0.542668,
2,1,0,1,0,58473.3,0.547138,0.546782,0.272217,88,0.0353617,10,0.000148843,-3.56508,1.89826,0.0310811,0.546662,
2,1,0,1,0,58474.1,0.551133,0.550787,0.273812,88,0.0355855,10,0.000150812,-3.56255,0.815647,0.0723352,0.550666,
2,1,0,1,0,58474.9,0.555129,0.55477,0.275354,88,0.0358108,10,0.000152758,-3.56011,1.21474,0.0485699,0.554649,
2,1,0,0,0,58475.7,0.559124,0.558753,0.278499,88,0.0360378,10,0.000155612,-3.55518,2.62442,0.0224811,0.55863,
2,1,0,1,0,58476.5,0.56312,0.562727,0.279868,88,0.0362662,10,0.000157489,-3.55305,0.776357,0.075996,0.562603,
2,1,0,1,0,58477.3,0.567114,0.566757,0.28198,88,0.0364969,10,0.000159814,-3.54978,1.37938,0.0427729,0.566633,
2,1,0,1,0,58478.1,0.571109,0.570743,0.285158,88,0.0367295,10,0.000162752,-3.54492,0.889148,0.0663557,0.570617,
2,1,0,1,0,58478.9,0.575105,0.574757,0.288472,88,0.0369648,10,0.000165801,-3.5399,0.749388,0.0787309,0.574631,
2,1,0,0,0,58479.7,0.5791,0.578744,0.291992,88,0.0372027,10,0.000168989,-3.53463,0.920185,0.0641176,0.578615,
2,1,0,1,0,58480.5,0.583095,0.582759,0.29606,88,0.0374433,10,0.000172532,-3.52862,0.551411,0.106998,0.582629,
2,1,0,1,0,58481.3,0.58709,0.586764,0.30015,88,0.0376872,10,0.000176117,-3.52266,0.547769,0.10771,0.586632,
2,1,0,1,0,58482.1,0.591085,0.59076,0.305269,88,0.0379346,10,0.000180341,-3.51532,0.637321,0.092575,0.590626,
2,1,0,1,0,58482.9,0.59508,0.594693,0.31034,88,0.0381858,10,0.000184557,-3.50816,0.523351,0.112735,0.594556,
2,1,0,0,0,58483.7,0.599076,0.598764,0.31577,88,0.0384414,10,0.000189072,-3.50063,0.477001,0.123689,0.598625,
2,1,0,1,0,58484.5,0.603071,0.602707,0.322872,88,0.0387019,10,0.000194597,-3.49097,0.421474,0.139985,0.602565,
2,1,0,0,0,58485.3,0.607066,0.60673,0.329847,88,0.0389682,10,0.000200128,-3.48169,0.372987,0.158182,0.606585,
2,1,0,1,0,58486.1,0.611061,0.610707,0.338943,88,0.0392408,10,0.000206995,-3.46987,0.379761,0.155361,0.610558,
2,1,0,1,0,58486.9,0.615056,0.614697,0.347244,88,0.0395203,10,0.00021345,-3.45937,0.292915,0.201423,0.614544,
2,1,0,1,0,58487.7,0.619051,0.618721,0.358179,88,0.0398084,10,0.000221613,-3.4459,0.280709,0.210182,0.618564,
2,1,0,1,0,58488.5,0.623047,0.622702,0.371814,88,0.0401058,10,0.000231529,-3.42967,0.24438,0.241427,0.622538,
2,1,0,0,0,58489.3,0.627042,0.62671,0.386076,88,0.0404143,10,0.000241958,-3.41333,0.228157,0.258594,0.62654,
2,1,0,1,0,58490.1,0.631037,0.630739,0.403676,88,0.0407358,10,0.000254614,-3.39397,0.203429,0.290028,0.630561,
2,1,0,1,0,58490.9,0.635032,0.634714,0.422884,88,0.0410717,10,0.00026841,-3.37378,0.179062,0.329494,0.634528,
2,1,0,1,0,58491.7,0.639027,0.638654,0.445902,88,0.0414243,10,0.000284777,-3.35076,0.170283,0.346481,0.638458,
2,1,0,1,0,58492.5,0.643022,0.642694,0.472257,88,0.0417963,10,0.000303517,-3.32582,0.153877,0.383422,0.642486,
2,1,0,0,0,58493.3,0.647018,0.646729,0.503202,88,0.0421912,10,0.000325435,-3.29826,0.140804,0.419022,0.646508,
2,1,0,1,0,58494.1,0.651013,0.650686,0.538086,88,0.0426126,10,0.000350125,-3.26915,0.127678,0.462098,0.650449,
2,1,0,1,0,58494.9,0.655008,0.654689,0.578849,88,0.043064,10,0.000378967,-3.23743,0.122177,0.482908,0.654435,
2,1,0,1,0,58495.7,0.659003,0.658686,0.625727,88,0.0435503,10,0.000412157,-3.20362,0.11051,0.533888,0.65841,
2,1,0,1,0,58496.5,0.662998,0.662686,0.682327,88,0.0440785,10,0.000452169,-3.16601,0.106854,0.552156,0.662386,
2,1,0,0,0,58497.3,0.666994,0.666696,0.745299,88,0.0446538,10,0.000496888,-3.12767,0.0977536,0.603558,0.666368,
2,1,0,1,0,58498.1,0.670989,0.670698,0.818341,88,0.0452839,10,0.000548859,-3.08707,0.0975575,0.604771,0.670338,
2,1,0,0,0,58498.9,0.674984,0.674675,0.902054,88,0.0459761,10,0.000608594,-3.04477,0.0936464,0.630029,0.674279,
2,1,0,1,0,58499.7,0.67898,0.67867,0.99698,88,0.0467396,10,0.000676621,-3.00131,0.0883771,0.667594,0.678232,
2,1,0,1,0,58500.5,0.682974,0.682646,1.10228,88,0.0475834,10,0.00075247,-2.95771,0.0894826,0.659346,0.682161,
2,1,0,1,0,58501.3,0.686969,0.68663,1.22224,88,0.0485171,10,0.000839229,-2.91284,0.0877141,0.67264,0.686093,
2,1,0,1,0,58502.1,0.690965,0.690657,1.35539,88,0.0495522,10,0.000936106,-2.86794,0.0881086,0.669629,0.69006,
2,1,0,0,0,58502.9,0.69496,0.694612,1.50359,88,0.0506996,10,0.00104441,-2.82287,0.08735,0.675444,0.69395,
2,1,0,1,0,58503.7,0.698955,0.698594,1.66585,88,0.0519704,10,0.00116376,-2.77836,0.0872886,0.675919,0.697861,
2,1,0,1,0,58504.5,0.70295,0.702621,1.84385,88,0.0533776,10,0.00129552,-2.73428,0.0903422,0.653072,0.701809,
2,1,0,1,0,58505.3,0.706945,0.706605,2.03785,88,0.0549334,10,0.00143995,-2.69083,0.091672,0.643599,0.705708,
2,1,0,1,0,58506.1,0.71094,0.710638,2.24768,88,0.0566494,10,0.00159729,-2.64827,0.0922347,0.639673,0.709649,
2,1,0,0,0,58506.9,0.714936,0.714605,2.47156,88,0.0585394,10,0.00176619,-2.60703,0.095253,0.619403,0.713517,
2,1,0,1,0,58507.7,0.718931,0.718631,2.71159,88,0.0606147,10,0.00194863,-2.56678,0.0980357,0.601821,0.717438,
2,1,0,1,0,58508.5,0.722927,0.722651,2.96903,88,0.0628897,10,0.00214557,-2.52739,0.100035,0.589791,0.721344,
2,1,0,1,0,58509.3,0.726921,0.726559,3.24337,88,0.0653757,10,0.0023565,-2.489,0.102633,0.574864,0.725132,
2,1,0,1,0,58510.1,0.730916,0.730623,3.53259,88,0.0680872,10,0.00258099,-2.45191,0.105184,0.560919,0.729069,
2,1,0,1,0,58510.9,0.734911,0.734578,3.84138,88,0.0710383,10,0.0028218,-2.41551,0.107444,0.549123,0.732888,
2,1,0,1,0,58511.7,0.738907,0.738549,4.16745,88,0.0742426,10,0.00307787,-2.38013,0.110338,0.534719,0.736715,
2,1,0,0,0,58512.5,0.742902,0.742566,4.50992,88,0.0777139,10,0.00334892,-2.34583,0.11152,0.529051,0.740581,
2,1,0,1,0,58513.3,0.746897,0.746588,4.8745,88,0.0814686,10,0.00363925,-2.31207,0.115824,0.509393,0.744444,
2,1,0,1,0,58514.1,0.750892,0.75058,5.2585,88,0.0855213,10,0.00394693,-2.27914,0.118657,0.497232,0.748267,
2,1,0,1,0,58514.9,0.754887,0.754531,5.663,88,0.0898889,10,0.00427291,-2.24695,0.118046,0.499805,0.752039,
2,1,0,1,0,58515.7,0.758883,0.758524,6.0902,88,0.0945895,10,0.00461956,-2.21537,0.121116,0.487138,0.755844,
2,1,0,0,0,58516.5,0.762878,0.762533,6.54055,88,0.09964,10,0.00498739,-2.18439,0.124824,0.472667,0.759655,
2,1,0,1,0,58517.3,0.766873,0.76656,7.01324,88,0.10506,10,0.00537606,-2.15408,0.125184,0.471307,0.763474,
2,1,0,1,0,58518.1,0.770868,0.770581,7.515,88,0.110869,10,0.00579091,-2.12407,0.126718,0.465602,0.767274,
2,1,0,1,0,58518.9,0.774863,0.774579,8.04078,88,0.117088,10,0.00622821,-2.0947,0.129275,0.456391,0.771041,
2,1,0,1,0,58519.7,0.778858,0.778551,8.59581,88,0.123739,10,0.00669228,-2.06571,0.12983,0.454441,0.774769,
2,1,0,0,0,58520.5,0.782854,0.782556,9.18353,88,0.130846,10,0.00718662,-2.03699,0.129812,0.454503,0.778515,
2,1,0,1,0,58521.3,0.786849,0.786529,9.80218,88,0.138434,10,0.0077097,-2.00868,0.132298,0.445963,0.782216,
2,1,0,0,0,58522.1,0.790844,0.790555,10.4571,88,0.146531,10,0.00826692,-1.98059,0.133831,0.440855,0.785954,
2,1,0,1,0,58522.9,0.794839,0.794477,11.1496,88,0.155167,10,0.00885813,-1.95274,0.129971,0.453947,0.789571,
2,1,0,1,0,58523.7,0.798834,0.798516,11.897,88,0.164378,10,0.00949995,-1.92456,0.129384,0.456007,0.793281,
2,1,0,1,0,58524.5,0.802829,0.802531,12.6898,88,0.174204,10,0.010184,-1.89654,0.130678,0.45149,0.796948,
2,1,0,1,0,58525.3,0.806825,0.806502,13.5455,88,0.184688,10,0.0109244,-1.86821,0.12709,0.464238,0.800542,
2,1,0,0,0,58526.1,0.81082,0.810538,14.4431,88,0.195876,10,0.0117067,-1.84034,0.130242,0.453002,0.804183,
2,1,0,1,0,58526.9,0.814815,0.814499,15.3825,88,0.207798,10,0.012529,-1.81297,0.131978,0.447044,0.807731,
2,1,0,1,0,58527.7,0.81881,0.818455,16.3944,88,0.220493,10,0.0134181,-1.78531,0.124675,0.47323,0.811241,
2,1,0,1,0,58528.5,0.822805,0.822468,17.4747,88,0.234033,10,0.0143724,-1.75759,0.134512,0.438622,0.814779,
2,1,0,1,0,58529.3,0.826801,0.826493,18.4556,88,0.248412,10,0.0152535,-1.73387,0.149986,0.39337,0.818372,
2,1,0,0,0,58530.1,0.830796,0.830486,19.5604,88,0.263607,10,0.0162446,-1.70862,0.139191,0.423879,0.82188,
2,1,0,1,0,58530.9,0.834791,0.834503,20.7086,88,0.279699,10,0.0172814,-1.68385,0.144848,0.407325,0.825391,
2,1,0,1,0,58531.7,0.838786,0.838486,21.8874,88,0.296727,10,0.0183523,-1.65981,0.145533,0.405406,0.828856,
2,1,0,1,0,58532.5,0.842781,0.842476,23.0765,88,0.314701,10,0.0194414,-1.63683,0.152701,0.386375,0.832322,
2,1,0,1,0,58533.3,0.846776,0.846499,24.3244,88,0.333651,10,0.0205906,-1.61396,0.154021,0.383064,0.835797,
2,1,0,1,0,58533.9,0.849723,0.849409,25.1521,88,0.351046,10,0.0213644,-1.59943,0.0495055,1.19179,0.838342,
2,1,0,0,0,58534.7,0.845728,0.845459,23.3248,88,0.370355,10,0.0197202,-1.63218,0.110536,0.533764,0.835196,
2,1,0,1,0,58535.5,0.841732,0.841482,21.8274,88,0.38838,10,0.0183673,-1.661,0.118753,0.496831,0.831877,
2,1,0,1,0,58536.3,0.837737,0.83744,20.4318,88,0.405249,10,0.0171104,-1.68969,0.119889,0.49212,0.82845,
2,1,0,1,0,58537.1,0.833742,0.833432,19.1507,88,0.421051,10,0.0159608,-1.71782,0.119403,0.494124,0.825006,
2,1,0,1,0,58537.9,0.829747,0.829438,17.9133,88,0.435846,10,0.014858,-1.74682,0.119719,0.492822,0.821556,
2,1,0,0,0,58538.7,0.825752,0.8255,16.7465,88,0.449679,10,0.0138243,-1.77607,0.11987,0.492199,0.818132,
2,1,0,1,0,58539.5,0.821757,0.821492,15.6439,88,0.462608,10,0.0128513,-1.80566,0.117859,0.500596,0.814608,
2,1,0,1,0,58540.3,0.817761,0.817443,14.6132,88,0.474683,10,0.0119455,-1.83525,0.120153,0.491039,0.811013,
2,1,0,1,0,58541.1,0.813766,0.813437,13.6398,88,0.485958,10,0.0110951,-1.86519,0.12087,0.488129,0.807435,
2,1,0,1,0,58541.9,0.809771,0.809475,12.7286,88,0.496484,10,0.0103035,-1.89522,0.118356,0.498495,0.803875,
2,1,0,1,0,58542.7,0.805776,0.805431,11.8698,88,0.506301,10,0.00956028,-1.92556,0.118343,0.49855,0.800209,
2,1,0,1,0,58543.5,0.801781,0.801403,11.0549,88,0.515449,10,0.0088594,-1.95645,0.11807,0.499706,0.796539,
2,1,0,0,0,58544.3,0.797786,0.797492,10.2997,88,0.523969,10,0.00821389,-1.98718,0.118107,0.499546,0.79296,
2,1,0,1,0,58545.1,0.79379,0.793437,9.57632,88,0.531901,10,0.00759821,-2.0188,0.117034,0.504129,0.789224,
2,1,0,1,0,58545.9,0.789795,0.789431,8.90064,88,0.539274,10,0.00702644,-2.05058,0.115327,0.51159,0.785514,
2,1,0,1,0,58546.7,0.7858,0.785456,8.26999,88,0.546124,10,0.00649572,-2.08249,0.117004,0.504258,0.781817,
2,1,0,1,0,58547.5,0.781805,0.781473,7.68072,88,0.552489,10,0.00600228,-2.1146,0.115603,0.510366,0.778094,
2,1,0,0,0,58548.3,0.77781,0.777527,7.12486,88,0.558395,10,0.00553977,-2.14722,0.114288,0.516241,0.774392,
2,1,0,1,0,58549.1,0.773814,0.773466,6.60306,88,0.563871,10,0.00510724,-2.18025,0.113187,0.52126,0.770561,
2,1,0,1,0,58549.9,0.769819,0.769471,6.1146,88,0.568945,10,0.00470501,-2.21363,0.112544,0.52424,0.766781,
2,1,0,1,0,58550.7,0.765824,0.765504,5.65786,88,0.573639,10,0.00433111,-2.24735,0.111638,0.528495,0.763015,
2,1,0,1,0,58551.5,0.761829,0.761473,5.22908,88,0.577981,10,0.00398181,-2.28157,0.111705,0.528179,0.759172,
2,1,0,0,0,58552.3,0.757834,0.757528,4.82502,88,0.58199,10,0.00365509,-2.3165,0.107374,0.549484,0.755405,
2,1,0,1,0,58553.1,0.753839,0.75352,4.44324,88,0.585685,10,0.00334807,-2.3523,0.107302,0.549849,0.751565,
2,1,0,0,0,58553.9,0.749844,0.749536,4.08727,88,0.589086,10,0.00306356,-2.38857,0.104475,0.564729,0.747737,
2,1,0,1,0,58554.7,0.745848,0.745551,3.75131,88,0.59221,10,0.00279679,-2.42582,0.101497,0.581297,0.7439,
2,1,0,1,0,58555.5,0.741853,0.741512,3.43657,88,0.595074,10,0.00254825,-2.46388,0.0995702,0.592547,0.74,
2,1,0,1,0,58556.3,0.737858,0.737517,3.13987,88,0.597694,10,0.00231571,-2.50309,0.099909,0.590537,0.736135,
2,1,0,1,0,58557.1,0.733863,0.733561,2.8633,88,0.600085,10,0.0021004,-2.54313,0.0935484,0.630689,0.732301,
2,1,0,0,0,58557.9,0.729868,0.729551,2.59985,88,0.602261,10,0.00189673,-2.58505,0.0900883,0.654913,0.728407,
2,1,0,1,0,58558.7,0.725872,0.725564,2.35501,88,0.604233,10,0.00170871,-2.62801,0.0902749,0.653559,0.724527,
2,1,0,1,0,58559.5,0.721877,0.721556,2.12364,88,0.606016,10,0.00153232,-2.67292,0.0856338,0.68898,0.720621,
2,1,0,1,0,58560.3,0.717882,0.717537,1.90993,88,0.607621,10,0.00137045,-2.71898,0.0824524,0.715564,0.716697,
2,1,0,1,0,58561.1,0.713887,0.713589,1.70879,88,0.60906,10,0.00121937,-2.76731,0.0794358,0.742739,0.712837,
2,1,0,0,0,58561.9,0.709892,0.709547,1.52354,88,0.610344,10,0.00108102,-2.81715,0.0760002,0.776314,0.708876,
2,1,0,1,0,58562.7,0.705897,0.705608,1.34973,88,0.611485,10,0.000952384,-2.86975,0.0738715,0.798685,0.705015,
2,1,0,1,0,58563.5,0.701901,0.701586,1.19056,88,0.612493,10,0.000835283,-2.92425,0.0701758,0.840746,0.701062,
2,1,0,1,0,58564.3,0.697906,0.697568,1.04348,88,0.613379,10,0.000727901,-2.98151,0.0684116,0.862427,0.697109,
2,1,0,1,0,58565.1,0.693911,0.693601,0.910471,88,0.614153,10,0.000631503,-3.04073,0.063707,0.926114,0.6932,
2,1,0,0,0,58565.9,0.689916,0.689594,0.787895,88,0.614825,10,0.000543328,-3.10353,0.0612821,0.962761,0.689248,
2,1,0,1,0,58566.7,0.685921,0.685604,0.677006,88,0.615403,10,0.000464158,-3.16941,0.0588563,1.00244,0.685306,
2,1,0,0,0,58567.5,0.681926,0.681609,0.576466,88,0.615898,10,0.000392925,-3.23923,0.0550391,1.07196,0.681356,
2,1,0,1,0,58568.3,0.67793,0.677606,0.487231,88,0.616316,10,0.00033015,-3.31227,0.052826,1.11687,0.677392,
2,1,0,1,0,58569.1,0.673935,0.673627,0.407773,88,0.616668,10,0.000274687,-3.38958,0.0489869,1.2044,0.673447,
2,1,0,1,0,58569.9,0.66994,0.669599,0.337192,88,0.616958,10,0.000225783,-3.47212,0.0466347,1.26515,0.669451,
2,1,0,1,0,58570.7,0.665945,0.6656,0.275106,88,0.617196,10,0.000183111,-3.5605,0.0434665,1.35737,0.665479,
2,1,0,0,0,58571.5,0.66195,0.661637,0.220939,88,0.617388,10,0.000146182,-3.65573,0.0401928,1.46792,0.661539,
2,1,0,1,0,58572.3,0.657955,0.657652,0.17444,88,0.61754,10,0.000114721,-3.75835,0.0363457,1.6233,0.657575,
2,1,0,1,0,58573.1,0.653959,0.653601,0.13275,88,0.617656,10,8.67656e-05,-3.87696,0.0308328,1.91354,0.653542,
2,1,0,1,0,58573.9,0.649964,0.649697,0.0980944,88,0.617742,10,6.37316e-05,-4.00836,0.028853,2.04485,0.649653,
2,1,0,1,0,58574.7,0.64597,0.645605,0.0680868,88,0.617803,10,4.39571e-05,-4.16694,0.0224692,2.62582,0.645575,
2,1,0,0,0,58575.5,0.641974,0.641659,0.0438545,88,0.617841,10,2.81396e-05,-4.35799,0.0173607,3.39848,0.641639,
2,1,0,1,0,58576.3,0.637979,0.637684,0.0213548,88,0.617861,10,1.36176e-05,-4.6705,0.00909733,6.48542,0.637675,
2,1,0,1,0,58577.1,0.633983,0.633653,0.00325464,88,0.617865,10,2.06231e-06,-5.4875,0.0084494,6.98275,0.633652,
2,0,0,1,0,58577.9,0.629988,0.62966,-0.0120543,88,0.617856,10,-7.59008e-06,-4.91886,-0.00603435,-9.77736,0.629665,
2,0,0,1,0,58578.7,0.625993,0.625688,-0.0245101,88,0.617835,10,-1.53357e-05,-4.61066,-0.0194963,-3.02621,0.625699,
2,0,0,0,0,58579.5,0.621998,0.621668,-0.0347323,88,0.617806,10,-2.15919e-05,-4.45927,-0.0342067,-1.72481,0.621683,
2,0,0,1,0,58580.3,0.618003,0.617674,-0.0435322,88,0.617769,10,-2.68887e-05,-4.36119,-0.0404801,-1.45751,0.617693,
2,0,0,0,0,58581.1,0.614008,0.613655,-0.0512382,88,0.617725,10,-3.14426e-05,-4.29041,-0.0781142,-0.755304,0.613678,
2,0,0,1,0,58581.9,0.610012,0.609714,-0.0577033,88,0.617675,10,-3.51825e-05,-4.2388,-0.086452,-0.68246,0.609739,
2,0,0,1,0,58582.7,0.606017,0.605649,-0.0624239,88,0.617621,10,-3.78069e-05,-4.20465,-0.135355,-0.435891,0.605677,
2,0,0,1,0,58583.5,0.602022,0.601657,-0.0682937,88,0.617563,10,-4.10894e-05,-4.16562,-0.133755,-0.441106,0.601687,
2,0,0,1,0,58584.3,0.598027,0.597666,-0.0710523,88,0.617501,10,-4.24656e-05,-4.14842,-0.192602,-0.306331,0.597698,
2,0,0,0,0,58585.1,0.594032,0.5937,-0.0748965,88,0.617437,10,-4.4466e-05,-4.12554,-0.200666,-0.294021,0.593733,
2,0,0,1,0,58585.9,0.590037,0.589703,-0.0771727,88,0.61737,10,-4.5509e-05,-4.11254,-0.316525,-0.186399,0.589737,
2,0,0,1,0,58586.7,0.586041,0.585706,-0.0798936,88,0.617301,10,-4.67942e-05,-4.09749,-0.238118,-0.247777,0.585741,
2,0,0,1,0,58587.5,0.582046,0.581723,-0.0826024,88,0.61723,10,-4.80517e-05,-4.08301,-0.52247,-0.112925,0.581759,
2,0,0,1,0,58588.3,0.578052,0.577703,-0.0842334,88,0.617157,10,-4.86619e-05,-4.07452,-0.267513,-0.22055,0.57774,
2,0,0,0,0,58589.1,0.574056,0.573736,-0.0859741,88,0.617082,10,-4.93264e-05,-4.06563,-0.504266,-0.117002,0.573774,
2,0,0,1,0,58589.9,0.570061,0.569719,-0.0887965,88,0.617006,10,-5.05891e-05,-4.0516,-1.90481,-0.0309743,0.569759,
2,0,0,1,0,58590.7,0.566065,0.565723,-0.0890853,88,0.616929,10,-5.03977e-05,-4.05019,-0.309638,-0.190545,0.565763,
2,0,0,1,0,58591.5,0.56207,0.561734,-0.091114,88,0.61685,10,-5.11819e-05,-4.04041,-1.05474,-0.0559378,0.561775,
2,0,0,1,0,58592.3,0.558075,0.557728,-0.0920769,88,0.616771,10,-5.13538e-05,-4.03585,-0.59369,-0.0993785,0.557768,
2,0,0,1,0,58593.1,0.55408,0.553735,-0.0927941,88,0.616691,10,-5.13834e-05,-4.03248,-0.594173,-0.0992977,0.553776,
2,0,0,1,0,58593.9,0.550085,0.549706,-0.0943323,88,0.616609,10,-5.18551e-05,-4.02534,-2.10998,-0.0279624,0.549748,
2,0,0,0,0,58594.7,0.54609,0.545725,-0.0953791,88,0.616527,10,-5.20507e-05,-4.02055,-0.4695,-0.125666,0.545767,
2,0,0,1,0,58595.5,0.542094,0.541725,-0.0961192,88,0.616444,10,-5.20702e-05,-4.01719,-0.875504,-0.0673897,0.541768,
2,0,0,1,0,58596.3,0.538099,0.537758,-0.0980405,88,0.61636,10,-5.2722e-05,-4.00859,-1.30103,-0.0453486,0.537801,
2,0,0,1,0,58597.1,0.534104,0.533788,-0.098613,88,0.616275,10,-5.26384e-05,-4.00607,-0.987796,-0.0597289,0.533831,
2,0,0,1,0,58597.9,0.530109,0.529735,-0.0997018,88,0.616189,10,-5.28155e-05,-4.0013,-0.751683,-0.0784905,0.529779,
2,0,0,0,0,58598.7,0.526114,0.525794,-0.101773,88,0.616103,10,-5.35118e-05,-3.99237,-0.597685,-0.0987142,0.525839,
2,0,0,1,0,58599.5,0.522119,0.521748,-0.102069,88,0.616015,10,-5.32544e-05,-3.99111,94.0065,0.000627616,0.521793,
2,0,0,1,0,58600.3,0.518123,0.517761,-0.103311,88,0.615927,10,-5.34902e-05,-3.98586,-0.712006,-0.0828645,0.517807,
2,0,0,1,0,58601.1,0.514128,0.513796,-0.104334,88,0.615838,10,-5.36063e-05,-3.98158,-0.87555,-0.0673862,0.513842,
2,0,0,1,0,58601.9,0.510133,0.509789,-0.10458,88,0.615748,10,-5.3314e-05,-3.98055,-0.574794,-0.102646,0.509835,
2,0,0,0,0,58602.7,0.506138,0.505759,-0.10639,88,0.615657,10,-5.38079e-05,-3.9731,-4.8715,-0.0121113,0.505806,
2,0,0,1,0,58603.5,0.502143,0.501807,-0.108218,88,0.615565,10,-5.43043e-05,-3.9657,-0.510753,-0.115516,0.501854,
2,0,0,0,0,58604.3,0.498148,0.497784,-0.109946,88,0.615472,10,-5.47294e-05,-3.95882,-1.08463,-0.0543963,0.497832,
2,0,0,1,0,58605.1,0.494152,0.493818,-0.110097,88,0.615378,10,-5.43677e-05,-3.95823,-0.76759,-0.0768639,0.493866,
2,0,0,1,0,58605.9,0.490157,0.489804,-0.111179,88,0.615283,10,-5.44561e-05,-3.95398,-0.762891,-0.0773374,0.489853,
2,0,0,1,0,58606.7,0.486162,0.485816,-0.112163,88,0.615187,10,-5.44908e-05,-3.95015,-1.46694,-0.0402198,0.485866,
2,0,0,1,0,58607.5,0.482167,0.481838,-0.113755,88,0.61509,10,-5.48114e-05,-3.94403,-0.726805,-0.0811772,0.481888,
2,0,0,0,0,58608.3,0.478172,0.47783,-0.114822,88,0.614992,10,-5.48655e-05,-3.93997,-0.837012,-0.0704889,0.47788,
2,0,0,1,0,58609.1,0.474177,0.473856,-0.116483,88,0.614893,10,-5.51963e-05,-3.93374,-1.1929,-0.0494595,0.473907,
2,0,0,1,0,58609.9,0.470181,0.469832,-0.117658,88,0.614793,10,-5.52797e-05,-3.92938,-0.566321,-0.104181,0.469884,
2,0,0,1,0,58610.7,0.466186,0.465821,-0.119442,88,0.614692,10,-5.56386e-05,-3.92284,-0.688923,-0.0856409,0.465873,
2,0,0,1,0,58611.5,0.462191,0.461852,-0.120594,88,0.614589,10,-5.56964e-05,-3.91868,-0.566076,-0.104226,0.461905,
2,0,0,0,0,58612.3,0.458196,0.457872,-0.121997,88,0.614485,10,-5.58589e-05,-3.91365,-1.11422,-0.0529517,0.457926,
2,0,0,1,0,58613.1,0.454201,0.453892,-0.123211,88,0.61438,10,-5.59247e-05,-3.90935,-0.641557,-0.0919637,0.453947,
2,0,0,1,0,58613.9,0.450205,0.449886,-0.12492,88,0.614274,10,-5.61997e-05,-3.90337,-0.892416,-0.0661126,0.449941,
2,0,0,1,0,58614.7,0.44621,0.445899,-0.125877,88,0.614166,10,-5.61284e-05,-3.90005,-0.799641,-0.0737831,0.445954,
2,0,0,1,0,58615.5,0.442215,0.441875,-0.128554,88,0.614057,10,-5.68047e-05,-3.89092,-0.621036,-0.0950026,0.441932,
2,0,0,0,0,58616.3,0.43822,0.437823,-0.129999,88,0.613947,10,-5.69164e-05,-3.88606,-0.549872,-0.107298,0.43788,
2,0,0,1,0,58617,0.434225,0.433859,-0.132613,88,0.613835,10,-5.75356e-05,-3.87741,-1.01122,-0.0583455,0.433918,
2,0,0,0,0,58617.8,0.43023,0.429914,-0.133579,88,0.613722,10,-5.74277e-05,-3.87426,-0.532966,-0.110701,0.429973,
2,0,0,1,0,58618.6,0.426234,0.425854,-0.135099,88,0.613607,10,-5.75325e-05,-3.86935,-0.46756,-0.126187,0.425913,
2,0,0,1,0,58619.4,0.422239,0.42188,-0.137271,88,0.613491,10,-5.7912e-05,-3.86242,-2.62294,-0.0224939,0.42194,
2,0,0,1,0,58620.2,0.418244,0.417907,-0.139246,88,0.613373,10,-5.81919e-05,-3.85622,-0.563682,-0.104669,0.417968,
2,0,0,1,0,58621,0.414249,0.413899,-0.140623,88,0.613253,10,-5.82036e-05,-3.85194,-0.522302,-0.112961,0.413961,
2,0,0,0,0,58621.8,0.410254,0.409902,-0.143017,88,0.613132,10,-5.86229e-05,-3.84461,-1.3818,-0.042698,0.409965,
2,0,0,1,0,58622.6,0.406259,0.405882,-0.144795,88,0.613009,10,-5.87698e-05,-3.83925,-0.412903,-0.142891,0.405946,
2,0,0,1,0,58623.4,0.402263,0.40193,-0.147214,88,0.612885,10,-5.91697e-05,-3.83205,-1.09504,-0.0538795,0.401995,
2,0,0,1,0,58624.2,0.398268,0.397909,-0.150062,88,0.612759,10,-5.97109e-05,-3.82373,-0.536734,-0.109924,0.397975,
2,0,0,1,0,58625,0.394274,0.393876,-0.15147,88,0.612632,10,-5.96606e-05,-3.81967,-0.51657,-0.114215,0.393943,
2,0,0,0,0,58625.8,0.390278,0.389943,-0.153086,88,0.612502,10,-5.96948e-05,-3.81507,-1.08132,-0.0545631,0.390011,
2,0,0,1,0,58626.6,0.386283,0.385905,-0.155583,88,0.612371,10,-6.00402e-05,-3.80804,-0.568441,-0.103793,0.385974,
2,0,0,1,0,58627.4,0.382287,0.381922,-0.157187,88,0.612238,10,-6.00332e-05,-3.80358,-0.758727,-0.0777618,0.381991,
2,0,0,1,0,58628.2,0.378292,0.377934,-0.159608,88,0.612104,10,-6.03214e-05,-3.79694,-0.984434,-0.0599329,0.378005,
2,0,0,1,0,58629,0.374297,0.373928,-0.161352,88,0.611968,10,-6.03339e-05,-3.79223,-0.472919,-0.124757,0.373999,
2,0,0,1,0,58629.8,0.370303,0.369926,-0.164477,88,0.611829,10,-6.08442e-05,-3.7839,-1.77988,-0.0331484,0.369998,
2,0,0,1,0,58630.6,0.366307,0.365943,-0.166409,88,0.61169,10,-6.08961e-05,-3.77882,-0.618836,-0.0953403,0.366017,
2,0,0,0,0,58631.4,0.362312,0.361956,-0.168152,88,0.611548,10,-6.08636e-05,-3.7743,-0.521672,-0.113098,0.36203,
2,0,0,1,0,58632.2,0.358316,0.357965,-0.170502,88,0.611404,10,-6.10337e-05,-3.76827,-0.740295,-0.079698,0.358041,
2,0,0,1,0,58633,0.354321,0.353972,-0.172966,88,0.611259,10,-6.12253e-05,-3.76204,-0.780328,-0.0756093,0.354048,
2,0,0,1,0,58633.8,0.350327,0.349989,-0.174117,88,0.611112,10,-6.09391e-05,-3.75916,-1.20432,-0.0489903,0.350065,
2,0,0,1,0,58634.6,0.346331,0.346007,-0.177251,88,0.610963,10,-6.13299e-05,-3.75141,-0.947847,-0.0622463,0.346085,
2,0,0,0,0,58635.4,0.342336,0.341979,-0.179705,88,0.610812,10,-6.14553e-05,-3.74544,-0.381738,-0.154556,0.342058,
2,0,0,1,0,58636.2,0.338341,0.337994,-0.182117,88,0.610659,10,-6.15546e-05,-3.73965,-0.940677,-0.0627208,0.338074,
2,0,0,1,0,58637,0.334345,0.334035,-0.184911,88,0.610504,10,-6.17667e-05,-3.73304,-0.614396,-0.0960293,0.334117,
2,0,0,1,0,58637.8,0.33035,0.329997,-0.186992,88,0.610347,10,-6.17066e-05,-3.72818,-0.838927,-0.0703279,0.330079,
2,0,0,1,0,58638.6,0.326355,0.326011,-0.188951,88,0.610188,10,-6.16002e-05,-3.72365,-0.770284,-0.0765951,0.326094,
2,0,0,0,0,58639.4,0.32236,0.322032,-0.191498,88,0.610028,10,-6.16684e-05,-3.71784,-0.574763,-0.102651,0.322116,
2,0,0,1,0,58640.2,0.318365,0.318051,-0.193056,88,0.609865,10,-6.14016e-05,-3.71432,-1.11293,-0.0530134,0.318136,
2,0,0,0,0,58641,0.31437,0.313987,-0.196631,88,0.6097,10,-6.17395e-05,-3.70635,-1.03143,-0.0572022,0.314073,
2,0,0,1,0,58641.8,0.310374,0.31,-0.19864,88,0.609534,10,-6.15786e-05,-3.70193,-0.665099,-0.0887087,0.310088,
2,0,0,1,0,58642.6,0.306379,0.306022,-0.201119,88,0.609365,10,-6.15467e-05,-3.69655,-0.688369,-0.0857098,0.306111,
2,0,0,1,0,58643.4,0.302385,0.302045,-0.203625,88,0.609195,10,-6.15038e-05,-3.69117,-1.10934,-0.053185,0.302134,
2,0,0,1,0,58644.2,0.298389,0.298096,-0.204806,88,0.609022,10,-6.10519e-05,-3.68866,-0.377331,-0.156362,0.298187,
2,0,0,0,0,58645,0.294394,0.294042,-0.20861,88,0.608847,10,-6.13403e-05,-3.68066,-2.14273,-0.027535,0.294134,
2,0,0,1,0,58645.8,0.290398,0.290085,-0.211553,88,0.60867,10,-6.13684e-05,-3.67458,-0.92411,-0.0638452,0.290178,
2,0,0,1,0,58646.6,0.286403,0.286009,-0.213283,88,0.608491,10,-6.10007e-05,-3.67104,-0.565115,-0.104403,0.286103,
2,0,0,1,0,58647.4,0.282408,0.282033,-0.216338,88,0.60831,10,-6.10145e-05,-3.66487,-0.889091,-0.0663599,0.282129,
2,0,0,1,0,58648.2,0.278414,0.278072,-0.219055,88,0.608126,10,-6.09132e-05,-3.65945,-0.544919,-0.108273,0.278168,
2,0,0,0,0,58649,0.274418,0.274074,-0.221916,88,0.607941,10,-6.08213e-05,-3.65381,-0.676714,-0.0871861,0.274172,
2,0,0,1,0,58649.8,0.270423,0.270115,-0.225375,88,0.607753,10,-6.08774e-05,-3.64709,-0.768707,-0.0767523,0.270215,
2,0,0,1,0,58650.6,0.266427,0.266045,-0.227306,88,0.607563,10,-6.04736e-05,-3.64339,-0.759553,-0.0776773,0.266145,
2,0,0,1,0,58651.4,0.262432,0.26207,-0.229907,88,0.60737,10,-6.02517e-05,-3.63845,-1.17836,-0.0500696,0.262171,
2,0,0,1,0,58652.2,0.258437,0.258094,-0.232879,88,0.607176,10,-6.01047e-05,-3.63287,-0.784764,-0.0751819,0.258196,
2,0,0,0,0,58653,0.254442,0.254121,-0.234112,88,0.60698,10,-5.94929e-05,-3.63058,-0.794728,-0.0742393,0.254224,
2,0,0,1,0,58653.8,0.250447,0.250125,-0.237297,88,0.606782,10,-5.93537e-05,-3.62471,-2.07984,-0.0283676,0.250229,
2,0,0,0,0,58654.6,0.246452,0.246121,-0.240137,88,0.606582,10,-5.91027e-05,-3.61954,-0.606385,-0.097298,0.246226,
2,0,0,1,0,58655.4,0.242456,0.242063,-0.242449,88,0.606379,10,-5.8688e-05,-3.61538,-1.81497,-0.0325075,0.24217,
2,0,0,1,0,58656.2,0.238461,0.238099,-0.244936,88,0.606175,10,-5.83189e-05,-3.61095,-0.660807,-0.0892847,0.238206,
2,0,0,1,0,58657,0.234467,0.234114,-0.246485,88,0.605969,10,-5.77055e-05,-3.60821,-0.781616,-0.0754846,0.234222,
2,0,0,1,0,58657.8,0.230471,0.230098,-0.249676,88,0.605761,10,-5.74498e-05,-3.60262,-1.92192,-0.0306984,0.230208,
2,0,0,0,0,58658.6,0.226476,0.22618,-0.251671,88,0.605551,10,-5.69228e-05,-3.59917,-0.694265,-0.084982,0.22629,
2,0,0,1,0,58659.4,0.222481,0.222157,-0.252587,88,0.605339,10,-5.61142e-05,-3.59759,-0.742788,-0.0794305,0.222269,
2,0,0,1,0,58660.2,0.218485,0.218113,-0.256797,88,0.605125,10,-5.60108e-05,-3.59041,11.7471,0.00502253,0.218226,
2,0,0,1,0,58661,0.21449,0.214125,-0.259567,88,0.60491,10,-5.55799e-05,-3.58575,-0.544513,-0.108354,0.214239,
2,0,0,1,0,58661.8,0.210496,0.210063,-0.262491,88,0.604692,10,-5.51397e-05,-3.58088,-0.725434,-0.0813306,0.210178,
2,0,0,0,0,58662.6,0.2065,0.206168,-0.267153,88,0.604471,10,-5.50784e-05,-3.57324,-0.751819,-0.0784763,0.206285,
2,0,0,1,0,58663.4,0.202505,0.202158,-0.268243,88,0.604248,10,-5.42275e-05,-3.57147,-1.08943,-0.0541565,0.202276,
2,0,0,1,0,58664.2,0.198509,0.198204,-0.271791,88,0.604023,10,-5.38701e-05,-3.56576,-0.657717,-0.0897043,0.198323,
2,0,0,1,0,58665,0.194514,0.194171,-0.274907,88,0.603795,10,-5.33791e-05,-3.56081,-0.919804,-0.0641441,0.194292,
2,0,0,1,0,58665.8,0.190519,0.190167,-0.276661,88,0.603564,10,-5.26119e-05,-3.55805,-0.632953,-0.0932138,0.190289,
2,0,0,0,0,58666.6,0.186524,0.18615,-0.2819,88,0.60333,10,-5.24758e-05,-3.54991,-0.826903,-0.0713506,0.186274,
2,0,0,1,0,58667.4,0.182529,0.182201,-0.285785,88,0.603093,10,-5.20705e-05,-3.54396,-0.695476,-0.084834,0.182327,
2,0,0,0,0,58668.2,0.178534,0.178169,-0.290837,88,0.602853,10,-5.1818e-05,-3.53635,-0.447993,-0.131698,0.178297,
2,0,0,1,0,58669,0.174538,0.174142,-0.296289,88,0.602608,10,-5.15962e-05,-3.52829,-0.422692,-0.139582,0.174272,
2,0,0,1,0,58669.8,0.170543,0.170205,-0.302236,88,0.602359,10,-5.14422e-05,-3.51965,-0.47737,-0.123594,0.170338,
2,0,0,1,0,58670.6,0.166549,0.166202,-0.309591,88,0.602105,10,-5.14548e-05,-3.50921,-0.368981,-0.1599,0.166339,
2,0,0,1,0,58671.4,0.162553,0.162178,-0.318243,88,0.601844,10,-5.1612e-05,-3.49724,-0.282654,-0.208735,0.162318,
2,0,0,0,0,58672.2,0.158558,0.158238,-0.327609,88,0.601576,10,-5.18403e-05,-3.48464,-0.280636,-0.210237,0.158382,
2,0,0,1,0,58673,0.154563,0.154203,-0.341142,88,0.601298,10,-5.26053e-05,-3.46706,-0.219668,-0.268587,0.154354,
2,0,0,1,0,58673.8,0.150567,0.150184,-0.358393,88,0.601008,10,-5.38251e-05,-3.44564,-0.161366,-0.365629,0.150342,
2,0,0,1,0,58674.6,0.146572,0.146191,-0.380803,88,0.600702,10,-5.567e-05,-3.4193,-0.133485,-0.441998,0.146359,
2,0,0,1,0,58675.4,0.142578,0.142237,-0.410581,88,0.600376,10,-5.84e-05,-3.3866,-0.117827,-0.500736,0.142418,
2,0,0,0,0,58676.2,0.138582,0.138202,-0.44743,88,0.600023,10,-6.18357e-05,-3.34927,-0.0975769,-0.604651,0.138399,
2,0,0,1,0,58677,0.134587,0.134257,-0.491232,88,0.599638,10,-6.59515e-05,-3.30871,-0.101884,-0.579091,0.134473,
2,0,0,1,0,58677.8,0.130591,0.13025,-0.536069,88,0.599217,10,-6.98228e-05,-3.27078,-0.111905,-0.527232,0.130486,
2,0,0,1,0,58678.6,0.126596,0.126252,-0.576394,88,0.598761,10,-7.2771e-05,-3.23928,-0.134171,-0.439737,0.126506,
2,0,0,1,0,58679.4,0.122602,0.122255,-0.612736,88,0.598273,10,-7.49099e-05,-3.21273,-0.192691,-0.30619,0.122524,
2,0,0,1,0,58680.2,0.118607,0.118235,-0.636323,88,0.597763,10,-7.52355e-05,-3.19632,-0.318871,-0.185028,0.118515,
2,0,0,1,0,58681,0.114611,0.114234,-0.650576,88,0.597236,10,-7.43176e-05,-3.1867,-0.608395,-0.0969765,0.11452,
2,0,0,0,0,58681.8,0.110616,0.110244,-0.656804,88,0.596703,10,-7.24089e-05,-3.18256,-1.15711,-0.0509891,0.110533,
2,0,0,1,0,58682.6,0.10662,0.106256,-0.658385,88,0.596166,10,-6.99572e-05,-3.18152,-13.7755,-0.00428295,0.106545,
2,0,0,1,0,58683.4,0.102625,0.102296,-0.658451,88,0.595629,10,-6.73572e-05,-3.18148,1.7022,0.0346611,0.102586,
2,0,0,1,0,58684.2,0.0986305,0.0982767,-0.655882,88,0.595094,10,-6.44579e-05,-3.18317,2.77494,0.0212617,0.0985653,
2,0,0,1,0,58685,0.0946351,0.0942661,-0.649392,88,0.594561,10,-6.12157e-05,-3.18749,1.01187,0.0583081,0.0945518,
2,0,0,0,0,58685.8,0.0906399,0.0902472,-0.646002,88,0.594032,10,-5.82998e-05,-3.18977,0.871357,0.0677105,0.0905314,
2,0,0,1,0,58686.6,0.0866448,0.0863035,-0.638978,88,0.593508,10,-5.51461e-05,-3.19451,0.902704,0.0653592,0.0865847,
2,0,0,1,0,58687.4,0.0826492,0.0822832,-0.631776,88,0.59299,10,-5.19845e-05,-3.19944,0.871444,0.0677037,0.0825612,
2,0,0,1,0,58688.2,0.0786544,0.0782943,-0.62538,88,0.592477,10,-4.89637e-05,-3.20386,0.865092,0.0682009,0.0785695,
2,0,0,1,0,58689,0.0746596,0.0743478,-0.616193,88,0.591971,10,-4.58126e-05,-3.21028,0.738932,0.079845,0.0746189,
2,0,0,0,0,58689.8,0.0706641,0.0703158,-0.610134,88,0.59147,10,-4.2902e-05,-3.21458,0.585748,0.100726,0.0705842,
2,0,0,1,0,58690.6,0.0666689,0.0663721,-0.601219,88,0.590976,10,-3.99042e-05,-3.22097,0.945478,0.0624023,0.0666367,
2,0,0,0,0,58691.4,0.0626737,0.0623161,-0.592703,88,0.590487,10,-3.69349e-05,-3.22716,0.635353,0.0928617,0.0625769,
2,0,0,1,0,58692.2,0.0586783,0.0582737,-0.585972,88,0.590005,10,-3.41468e-05,-3.23212,0.547981,0.107668,0.0585315,
2,0,0,1,0,58693,0.0546835,0.0543294,-0.576484,88,0.58953,10,-3.132e-05,-3.23921,0.743457,0.079359,0.054583,
2,0,0,1,0,58693.8,0.0506886,0.0503032,-0.567846,88,0.589061,10,-2.85645e-05,-3.24577,0.551262,0.107027,0.050553,
2,0,0,1,0,58694.6,0.046693,0.0463092,-0.559654,88,0.5886,10,-2.59172e-05,-3.25208,0.629046,0.0937928,0.0465555,
2,0,0,0,0,58695.4,0.0426979,0.0423285,-0.549204,88,0.588147,10,-2.3247e-05,-3.26027,0.569917,0.103524,0.0425701,
2,0,0,1,0,58696.2,0.0387022,0.0383514,-0.540871,88,0.5877,10,-2.07432e-05,-3.26691,0.457628,0.128926,0.0385894,
2,0,0,1,0,58697,0.0347074,0.03435,-0.530593,88,0.587262,10,-1.82258e-05,-3.27524,0.613755,0.0961296,0.0345834,
2,0,0,1,0,58697.8,0.0307126,0.0302676,-0.520422,88,0.586831,10,-1.5752e-05,-3.28364,0.545452,0.108167,0.0304966,
2,0,0,1,0,58698.6,0.0267172,0.0263704,-0.514583,88,0.586406,10,-1.35698e-05,-3.28854,0.554928,0.10632,0.0265968,
2,0,0,0,0,58699.3,0.022722,0.0223568,-0.505824,88,0.585988,10,-1.13086e-05,-3.296,0.744969,0.0791979,0.0225793,
2,0,0,1,0,58700.1,0.0187268,0.0183834,-0.500118,88,0.585576,10,-9.19388e-06,-3.30093,0.773863,0.0762409,0.0186035,
2,0,0,1,0,58700.9,0.0147313,0.0144277,-0.496007,88,0.585168,10,-7.15624e-06,-3.30451,1.07862,0.0546994,0.0146459,
2,0,0,1,0,58701.7,0.0107365,0.0103633,-0.490806,88,0.584764,10,-5.08639e-06,-3.30909,2.08446,0.0283047,0.0105793,
2,0,0,1,0,58702.5,0.00674163,0.00635458,-0.490242,88,0.584361,10,-3.11528e-06,-3.30959,2.17542,0.0271212,0.00657029,
2,0,0,0,0,58703.3,0.00274612,0.00240098,-0.490041,88,0.583959,10,-1.17658e-06,-3.30977,-1.06309,-0.0554987,0.0026166,
2,0,0,1,0,58703.8,0.000274105,-0.000135643,-0.490774,88,0.583707,10,6.65702e-08,-3.30912, , ,8.02972e-05,