File: Figure_codes/Fig_3-5/workspace_calculate_alpha_eff/20221101_1-115_003_TrumpetPlot_ParaChange_from10_every3_16_CV_C01_8.csv
mode,ox/red,error,control changes,counter inc.,time/s,control/V,Ewe/V,<I>/mA,cycle number,(Q-Qo)/C,I Range,P/W,log(|I|),Tafel slope mV/dec,alpha_eff,E-IR/V,
2,0,0,0,0,5910.38,2.44065e-05,-0.000229887,-0.109571,9,0.0000000E+000,10,2.51888e-08,-3.96031, , ,-0.000181676,
2,1,0,0,0,5911.13,0.00379485,0.00349426,0.157209,9,0.000111045,10,5.49331e-07,-3.80352,0.0458568,1.28661,0.00342509,
2,1,0,1,0,5911.93,0.00779002,0.00750684,0.178093,9,0.000261145,10,1.33691e-06,-3.74935,0.0867672,0.679981,0.00742848,
2,1,0,0,0,5912.73,0.0117852,0.0114611,0.192113,9,0.000425558,10,2.20183e-06,-3.71644,0.131789,0.447684,0.0113766,
2,1,0,1,0,5913.53,0.0157806,0.0154886,0.208807,9,0.000601302,10,3.23413e-06,-3.68025,0.148421,0.397519,0.0153967,
2,1,0,1,0,5914.33,0.0197754,0.0194987,0.218702,9,0.000787029,10,4.26441e-06,-3.66015,0.151094,0.390486,0.0194025,
2,1,0,1,0,5915.13,0.0237704,0.023438,0.233466,9,0.000983357,10,5.47198e-06,-3.63178,0.154722,0.38133,0.0233353,
2,1,0,1,0,5915.93,0.0277659,0.0274149,0.245599,9,0.00118981,10,6.73307e-06,-3.60977,0.177763,0.331902,0.0273068,
2,1,0,0,0,5916.73,0.0317611,0.0314445,0.26002,9,0.00140756,10,8.17618e-06,-3.58499,0.162685,0.362663,0.03133,
2,1,0,1,0,5917.53,0.0357567,0.0354511,0.275274,9,0.00163708,10,9.75877e-06,-3.56023,0.201538,0.292749,0.0353299,
2,1,0,1,0,5918.33,0.0397516,0.0394646,0.289819,9,0.00187801,10,1.14376e-05,-3.53787,0.13958,0.422697,0.0393371,
2,1,0,1,0,5919.13,0.0437465,0.0434226,0.304709,9,0.00213177,10,1.32313e-05,-3.51611,0.184306,0.320119,0.0432885,
2,1,0,1,0,5919.92,0.0477413,0.0474201,0.321161,9,0.00239727,10,1.52295e-05,-3.49328,0.190769,0.309274,0.0472788,
2,1,0,0,0,5920.72,0.0517369,0.0513886,0.335862,9,0.00267464,10,1.72595e-05,-3.47384,0.203249,0.290284,0.0512408,
2,1,0,1,0,5921.52,0.0557321,0.0554255,0.351078,9,0.00296423,10,1.94587e-05,-3.4546,0.257247,0.229352,0.0552711,
2,1,0,1,0,5922.32,0.0597277,0.0594131,0.363564,9,0.00326479,10,2.16005e-05,-3.43942,0.242776,0.243022,0.0592531,
2,1,0,1,0,5923.12,0.0637226,0.0634232,0.377184,9,0.0035764,10,2.39222e-05,-3.42345,0.256923,0.229641,0.0632573,
2,1,0,1,0,5923.92,0.0677174,0.0673762,0.390064,9,0.00389951,10,2.62811e-05,-3.40886,0.39793,0.148267,0.0672046,
2,1,0,0,0,5924.72,0.0717128,0.0713772,0.403419,9,0.00423189,10,2.87949e-05,-3.39424,0.229349,0.257249,0.0711997,
2,1,0,1,0,5925.52,0.075708,0.0753835,0.413181,9,0.00457418,10,3.1147e-05,-3.38386,0.372265,0.158489,0.0752017,
2,1,0,0,0,5926.32,0.0797031,0.0793706,0.425599,9,0.00492514,10,3.378e-05,-3.371,0.34083,0.173107,0.0791833,
2,1,0,1,0,5927.12,0.0836986,0.0833877,0.435827,9,0.00528489,10,3.63426e-05,-3.36069,0.35027,0.168441,0.083196,
2,1,0,1,0,5927.91,0.0876935,0.0874085,0.450198,9,0.00565504,10,3.93511e-05,-3.3466,0.283315,0.208249,0.0872104,
2,1,0,1,0,5928.71,0.0916883,0.091354,0.467133,9,0.00603604,10,4.26744e-05,-3.33056,0.231602,0.254747,0.0911485,
2,1,0,1,0,5929.51,0.0956838,0.0953711,0.48365,9,0.00643152,10,4.61262e-05,-3.31547,0.215223,0.274135,0.0951583,
2,1,0,0,0,5930.31,0.099679,0.0994059,0.508582,9,0.00684423,10,5.0556e-05,-3.29364,0.210832,0.279844,0.0991821,
2,1,0,1,0,5931.11,0.103674,0.103369,0.536011,9,0.00727641,10,5.54067e-05,-3.27083,0.158133,0.373103,0.103133,
2,1,0,1,0,5931.91,0.10767,0.107391,0.560587,9,0.00773113,10,6.02021e-05,-3.25136,0.200053,0.294922,0.107144,
2,1,0,1,0,5932.71,0.111664,0.11137,0.589543,9,0.00820621,10,6.56575e-05,-3.22948,0.219471,0.268828,0.111111,
2,1,0,1,0,5933.51,0.115659,0.115317,0.610825,9,0.00870087,10,7.04385e-05,-3.21408,0.232723,0.25352,0.115048,
2,1,0,0,0,5934.31,0.119655,0.119352,0.631195,9,0.00921447,10,7.53344e-05,-3.19984,0.310176,0.190215,0.119074,
2,1,0,1,0,5935.11,0.12365,0.123348,0.652463,9,0.0097437,10,8.04799e-05,-3.18544,0.2822,0.209072,0.123061,
2,1,0,1,0,5935.9,0.127646,0.127359,0.672081,9,0.01029,10,8.55952e-05,-3.17258,0.312813,0.188611,0.127063,
2,1,0,1,0,5936.7,0.131641,0.131372,0.690263,9,0.0108517,10,9.06813e-05,-3.16099,1.18036,0.0499847,0.131068,
2,1,0,1,0,5937.5,0.135635,0.13532,0.69266,9,0.0114205,10,9.37305e-05,-3.15948,-1.58781,-0.037158,0.135015,
2,1,0,0,0,5938.3,0.139631,0.139315,0.671097,9,0.0119836,10,9.34941e-05,-3.17321,-0.194542,-0.303277,0.13902,
2,1,0,1,0,5939.1,0.143626,0.143352,0.627552,9,0.0125201,10,8.9961e-05,-3.20235,-0.0998347,-0.590977,0.143076,
2,1,0,0,0,5939.9,0.147621,0.147339,0.560115,9,0.01301,10,8.25271e-05,-3.25172,-0.0726795,-0.811784,0.147093,
2,1,0,1,0,5940.7,0.151617,0.151295,0.489085,9,0.0134441,10,7.39962e-05,-3.31062,-0.0659862,-0.894126,0.15108,
2,1,0,1,0,5941.5,0.155612,0.155292,0.430226,9,0.013825,10,6.68108e-05,-3.3663,-0.0784484,-0.752087,0.155103,
2,1,0,1,0,5942.3,0.159606,0.159278,0.38225,9,0.0141643,10,6.08841e-05,-3.41765,-0.0893486,-0.660335,0.15911,
2,1,0,1,0,5943.1,0.163602,0.163268,0.350092,9,0.0144726,10,5.71588e-05,-3.45582,-0.108895,-0.541805,0.163114,
2,1,0,0,0,5943.9,0.167597,0.167294,0.327968,9,0.0147579,10,5.48671e-05,-3.48417,-0.167781,-0.351648,0.16715,
2,1,0,1,0,5944.69,0.171592,0.17127,0.308286,9,0.0150271,10,5.28e-05,-3.51105,-0.190679,-0.30942,0.171134,
2,1,0,1,0,5945.49,0.175588,0.175287,0.296474,9,0.0152837,10,5.19679e-05,-3.52801,-0.212161,-0.278091,0.175156,
2,1,0,1,0,5946.29,0.179582,0.179295,0.286183,9,0.0155309,10,5.13111e-05,-3.54336,-0.338953,-0.174065,0.179169,
2,1,0,1,0,5947.09,0.183577,0.183277,0.278441,9,0.015771,10,5.10319e-05,-3.55527,-0.325309,-0.181366,0.183155,
2,1,0,0,0,5947.89,0.187573,0.187279,0.271551,9,0.0160053,10,5.08557e-05,-3.56615,-0.440868,-0.133827,0.187159,
2,1,0,1,0,5948.69,0.191568,0.191232,0.265654,9,0.0162348,10,5.08016e-05,-3.57568,-0.498001,-0.118474,0.191115,
2,1,0,0,0,5949.49,0.195563,0.195236,0.260453,9,0.016461,10,5.08497e-05,-3.58427,-0.484461,-0.121785,0.195121,
2,1,0,1,0,5950.29,0.199559,0.199246,0.257752,9,0.0166834,10,5.1356e-05,-3.5888,-0.678319,-0.0869798,0.199132,
2,1,0,1,0,5951.09,0.203553,0.203234,0.252227,9,0.0169033,10,5.12611e-05,-3.59821,-0.812508,-0.0726147,0.203123,
2,1,0,1,0,5951.89,0.207548,0.207242,0.251314,9,0.0171206,10,5.2083e-05,-3.59978,-0.664704,-0.0887613,0.207132,
2,1,0,1,0,5952.68,0.211544,0.211231,0.24828,9,0.0173355,10,5.24444e-05,-3.60506,-2.40456,-0.0245367,0.211122,
2,1,0,0,0,5953.48,0.215539,0.215257,0.246675,9,0.0175484,10,5.30986e-05,-3.60787,-0.997304,-0.0591595,0.215149,
2,1,0,1,0,5954.28,0.219535,0.219195,0.245577,9,0.0177595,10,5.38293e-05,-3.60981,-1.10531,-0.0533786,0.219087,
2,1,0,1,0,5955.08,0.223529,0.223242,0.242876,9,0.0179691,10,5.42203e-05,-3.61461,-0.958665,-0.0615439,0.223135,
2,1,0,1,0,5955.88,0.227524,0.227237,0.241262,9,0.018177,10,5.48236e-05,-3.61751,-0.885276,-0.0666459,0.227131,
2,1,0,1,0,5956.68,0.23152,0.231229,0.238935,9,0.0183835,10,5.52488e-05,-3.62172,-2.93183,-0.020124,0.231124,
2,1,0,0,0,5957.48,0.235515,0.235197,0.235536,9,0.0185891,10,5.53973e-05,-3.62794,-1.12441,-0.052472,0.235094,
2,1,0,1,0,5958.28,0.23951,0.239242,0.236674,9,0.0187934,10,5.66222e-05,-3.62585,-3.16729,-0.0186279,0.239138,
2,1,0,1,0,5959.08,0.243506,0.243197,0.23491,9,0.0189969,10,5.71294e-05,-3.6291,-5.00306,-0.0117928,0.243094,
2,1,0,1,0,5959.88,0.2475,0.247159,0.235067,9,0.0191999,10,5.80988e-05,-3.62881,-3.0193,-0.019541,0.247055,
2,1,0,1,0,5960.67,0.251495,0.251218,0.234359,9,0.0194017,10,5.88751e-05,-3.63012,-0.928103,-0.0635706,0.251115,
2,1,0,0,0,5961.47,0.255491,0.255194,0.232229,9,0.0196025,10,5.92635e-05,-3.63408,5.43095,0.0108637,0.255092,
2,1,0,1,0,5962.27,0.259486,0.259184,0.230182,9,0.0198028,10,5.96595e-05,-3.63793,-0.898677,-0.0656521,0.259082,
2,1,0,0,0,5963.07,0.263481,0.263194,0.231494,9,0.0200019,10,6.09278e-05,-3.63546,-2.30113,-0.0256396,0.263092,
2,1,0,1,0,5963.87,0.267477,0.267197,0.229111,9,0.0202003,10,6.12178e-05,-3.63995,-1.6059,-0.0367396,0.267097,
2,1,0,1,0,5964.67,0.271471,0.271166,0.228252,9,0.0203982,10,6.18942e-05,-3.64159,3.44375,0.0171325,0.271066,
2,1,0,1,0,5965.47,0.275466,0.275172,0.226913,9,0.0205951,10,6.24401e-05,-3.64414,-3.2224,-0.0183093,0.275072,
2,1,0,1,0,5966.27,0.279462,0.279161,0.226764,9,0.0207917,10,6.33035e-05,-3.64443,-1.72754,-0.0341526,0.279061,
2,1,0,0,0,5967.07,0.283457,0.283176,0.227529,9,0.0209875,10,6.44309e-05,-3.64296,-17.8697,-0.00330168,0.283076,
2,1,0,1,0,5967.87,0.287452,0.287138,0.22501,9,0.0211825,10,6.46089e-05,-3.6478,-1.15103,-0.0512586,0.287039,
2,1,0,1,0,5968.67,0.291448,0.291164,0.224803,9,0.0213771,10,6.54545e-05,-3.6482,-1.9726,-0.0299097,0.291065,
2,1,0,1,0,5969.46,0.295442,0.295145,0.224031,9,0.0215708,10,6.61216e-05,-3.64969,-121.033,-0.00048747,0.295047,
2,1,0,1,0,5970.26,0.299437,0.299115,0.221761,9,0.0217643,10,6.6332e-05,-3.65411,-4.64516,-0.0127014,0.299017,
2,1,0,0,0,5971.06,0.303433,0.303113,0.222644,9,0.0219571,10,6.74864e-05,-3.65239,-1.23901,-0.0476185,0.303015,
2,1,0,1,0,5971.86,0.307428,0.307123,0.222412,9,0.0221491,10,6.83076e-05,-3.65284,-20.9984,-0.00280974,0.307025,
2,1,0,1,0,5972.66,0.311424,0.311154,0.222056,9,0.0223406,10,6.90934e-05,-3.65354,-1.59642,-0.0369577,0.311056,
2,1,0,1,0,5973.46,0.315418,0.315114,0.221519,9,0.0225311,10,6.98038e-05,-3.65459,-3.34641,-0.0176308,0.315016,
2,1,0,1,0,5974.26,0.319413,0.319126,0.218926,9,0.0227212,10,6.98651e-05,-3.6597,-3.72428,-0.015842,0.31903,
2,1,0,0,0,5975.06,0.323409,0.323135,0.219748,9,0.022911,10,7.10083e-05,-3.65807,-1.66323,-0.0354731,0.323038,
2,1,0,1,0,5975.86,0.327404,0.327114,0.217862,9,0.0230998,10,7.12659e-05,-3.66182,6.91878,0.00852751,0.327019,
2,1,0,0,0,5976.66,0.331399,0.331109,0.217208,9,0.0232879,10,7.19197e-05,-3.66312,-1.44065,-0.0409536,0.331013,
2,1,0,1,0,5977.45,0.335395,0.335096,0.217112,9,0.0234754,10,7.27536e-05,-3.66332,-1.6556,-0.0356366,0.335001,
2,1,0,1,0,5978.25,0.339389,0.339145,0.216035,9,0.0236624,10,7.32672e-05,-3.66548,4.29306,0.0137431,0.33905,
2,1,0,1,0,5979.05,0.343384,0.343081,0.216193,9,0.0238492,10,7.41716e-05,-3.66516,-1.40504,-0.0419918,0.342986,
2,1,0,1,0,5979.85,0.34738,0.3471,0.215405,9,0.0240353,10,7.4767e-05,-3.66674,4.82777,0.012221,0.347005,
2,1,0,0,0,5980.65,0.351375,0.351084,0.213581,9,0.024221,10,7.49848e-05,-3.67044,-2.67556,-0.0220514,0.35099,
2,1,0,1,0,5981.45,0.35537,0.355088,0.213703,9,0.0244062,10,7.58835e-05,-3.67019,-0.940671,-0.0627212,0.354994,
2,1,0,1,0,5982.25,0.359366,0.359063,0.213674,9,0.0245909,10,7.67225e-05,-3.67025,1.21796,0.0484417,0.358969,
2,1,0,1,0,5983.05,0.36336,0.363102,0.21139,9,0.0247753,10,7.67563e-05,-3.67491,-1.19618,-0.0493237,0.363009,
2,1,0,1,0,5983.85,0.367355,0.367107,0.212551,9,0.0249592,10,7.80289e-05,-3.67254,5.1478,0.0114612,0.367014,
2,1,0,0,0,5984.65,0.371351,0.371065,0.211664,9,0.0251427,10,7.85411e-05,-3.67435,-5.96219,-0.0098957,0.370972,
2,1,0,1,0,5985.45,0.375346,0.375052,0.212169,9,0.0253263,10,7.95744e-05,-3.67332,-1.71098,-0.0344831,0.374959,
2,1,0,1,0,5986.24,0.379342,0.379031,0.211934,9,0.0255091,10,8.03298e-05,-3.6738,-2.71575,-0.0217251,0.378938,
2,1,0,1,0,5987.04,0.383336,0.383048,0.211374,9,0.0256916,10,8.09663e-05,-3.67495,3.39834,0.0173614,0.382955,
2,1,0,1,0,5987.84,0.387331,0.38706,0.210476,9,0.0258741,10,8.1467e-05,-3.6768,-2.93617,-0.0200942,0.386967,
2,1,0,0,0,5988.64,0.391327,0.391041,0.210418,9,0.0260562,10,8.22822e-05,-3.67692,-14.3223,-0.00411944,0.390948,
2,1,0,1,0,5989.44,0.395322,0.395018,0.209279,9,0.0262381,10,8.26688e-05,-3.67927,-7.50014,-0.00786652,0.394925,
2,1,0,0,0,5990.24,0.399317,0.399004,0.209706,9,0.0264198,10,8.36733e-05,-3.67839,-2.44809,-0.0241004,0.398911,
2,1,0,1,0,5991.04,0.403313,0.403031,0.209205,9,0.0266012,10,8.43161e-05,-3.67943,804.962,7.32954e-05,0.402939,
2,1,0,1,0,5991.84,0.407307,0.406998,0.209278,9,0.0267824,10,8.51759e-05,-3.67928,-25.1549,-0.00234547,0.406906,
2,1,0,1,0,5992.64,0.411302,0.410997,0.209604,9,0.0269635,10,8.61468e-05,-3.6786,644.659,9.15212e-05,0.410905,
2,1,0,1,0,5993.44,0.415298,0.415039,0.209115,9,0.0271446,10,8.6791e-05,-3.67961,12.564,0.00469597,0.414947,
2,1,0,0,0,5994.23,0.419293,0.419,0.209131,9,0.0273256,10,8.7626e-05,-3.67958,-5.77588,-0.0102149,0.418908,
2,1,0,1,0,5995.03,0.423288,0.423011,0.209645,9,0.0275065,10,8.86822e-05,-3.67852,-7.43162,-0.00793905,0.422919,
2,1,0,1,0,5995.83,0.427283,0.427006,0.208492,9,0.0276874,10,8.90272e-05,-3.68091,-5.91167,-0.00998027,0.426914,
2,1,0,1,0,5996.63,0.431278,0.43101,0.20946,9,0.0278681,10,9.02793e-05,-3.6789,2.73862,0.0215437,0.430918,
2,1,0,1,0,5997.43,0.435273,0.435037,0.209915,9,0.0280486,10,9.13206e-05,-3.67796,1.05924,0.0557003,0.434945,
2,1,0,0,0,5998.23,0.439269,0.438968,0.209028,9,0.0282295,10,9.17568e-05,-3.67979,-3.80274,-0.0155151,0.438876,
2,1,0,1,0,5999.03,0.443264,0.443018,0.209679,9,0.0284104,10,9.28916e-05,-3.67844,-2.78233,-0.0212052,0.442926,
2,1,0,0,0,5999.83,0.447259,0.446915,0.209859,9,0.0285915,10,9.37893e-05,-3.67807,3.13256,0.0188344,0.446823,
2,1,0,1,0,6000.63,0.451254,0.45095,0.21089,9,0.0287732,10,9.51008e-05,-3.67594,-11.335,-0.00520509,0.450857,
2,1,0,1,0,6001.43,0.455249,0.454952,0.210916,9,0.0289548,10,9.59565e-05,-3.67589,1.56058,0.0378064,0.454859,
2,1,0,1,0,6002.22,0.459244,0.458954,0.210752,9,0.0291368,10,9.67257e-05,-3.67623,4.91902,0.0119943,0.458862,
2,1,0,1,0,6003.02,0.46324,0.462933,0.211402,9,0.0293189,10,9.78649e-05,-3.67489,-17.5447,-0.00336284,0.46284,
2,1,0,0,0,6003.82,0.467235,0.466926,0.212044,9,0.0295011,10,9.90087e-05,-3.67357,64.0177,0.00092162,0.466833,
2,1,0,1,0,6004.62,0.471231,0.470948,0.213233,9,0.029684,10,0.000100422,-3.67115,1.34341,0.0439179,0.470855,
2,1,0,1,0,6005.42,0.475225,0.474978,0.214361,9,0.0298671,10,0.000101817,-3.66885,3.08735,0.0191102,0.474883,
2,1,0,1,0,6006.22,0.47922,0.47894,0.21341,9,0.0300506,10,0.000102211,-3.67078,3.34853,0.0176197,0.478846,
2,1,0,1,0,6007.02,0.483216,0.482928,0.214703,9,0.0302347,10,0.000103686,-3.66816,-2.87532,-0.0205195,0.482834,
2,1,0,0,0,6007.82,0.487211,0.486921,0.215115,9,0.0304193,10,0.000104744,-3.66733,1.33374,0.0442367,0.486826,
2,1,0,1,0,6008.62,0.491206,0.490901,0.215945,9,0.0306046,10,0.000106008,-3.66566,4.85496,0.0121525,0.490806,
2,1,0,1,0,6009.42,0.495201,0.494964,0.217371,9,0.0307906,10,0.000107591,-3.6628,1.60371,0.0367897,0.494869,
2,1,0,1,0,6010.22,0.499196,0.498891,0.218347,9,0.0309773,10,0.000108931,-3.66085,1.01105,0.058355,0.498795,
2,1,0,1,0,6011.01,0.503191,0.502898,0.218563,9,0.0311651,10,0.000109915,-3.66042,3.60173,0.016381,0.502802,
2,1,0,0,0,6011.81,0.507187,0.506914,0.220624,9,0.0313535,10,0.000111837,-3.65635,3.28989,0.0179337,0.506817,
2,1,0,1,0,6012.61,0.511182,0.510935,0.221541,9,0.0315427,10,0.000113193,-3.65454,1.01107,0.058354,0.510837,
2,1,0,0,0,6013.41,0.515177,0.514855,0.222751,9,0.0317333,10,0.000114685,-3.65218,3.72302,0.0158473,0.514757,
2,1,0,1,0,6014.21,0.519173,0.518902,0.224158,9,0.031925,10,0.000116316,-3.64945,0.77916,0.0757226,0.518803,
2,1,0,1,0,6015.01,0.523167,0.522898,0.226406,9,0.0321179,10,0.000118388,-3.64511,1.22006,0.0483581,0.522799,
2,1,0,1,0,6015.81,0.527162,0.526868,0.228165,9,0.0323125,10,0.000120213,-3.64175,1.04942,0.0562215,0.526768,
2,1,0,1,0,6016.61,0.531158,0.530914,0.229688,9,0.0325084,10,0.000121944,-3.63886,1.01177,0.0583135,0.530813,
2,1,0,0,0,6017.41,0.535153,0.534891,0.23212,9,0.0327061,10,0.000124159,-3.63429,0.81394,0.0724869,0.534789,
2,1,0,1,0,6018.21,0.539148,0.538867,0.23479,9,0.0329051,10,0.000126521,-3.62932,0.986979,0.0597784,0.538764,
2,1,0,1,0,6019,0.543143,0.542872,0.237789,9,0.0331061,10,0.000129089,-3.62381,0.898743,0.0656473,0.542768,
2,1,0,1,0,6019.8,0.547138,0.5469,0.240033,9,0.0333094,10,0.000131274,-3.61973,1.03847,0.0568143,0.546794,
2,1,0,1,0,6020.6,0.551133,0.550802,0.242604,9,0.0335147,10,0.000133627,-3.6151,0.597942,0.0986717,0.550696,
2,1,0,0,0,6021.4,0.555129,0.554846,0.245543,9,0.0337228,10,0.000136239,-3.60987,0.580842,0.101577,0.554738,
2,1,0,1,0,6022.2,0.559124,0.558838,0.249378,9,0.0339335,10,0.000139362,-3.60314,0.671368,0.0878803,0.558728,
2,1,0,1,0,6023,0.56312,0.562825,0.253227,9,0.0341472,10,0.000142522,-3.59649,0.485313,0.121571,0.562714,
2,1,0,1,0,6023.8,0.567114,0.566825,0.257144,9,0.0343646,10,0.000145756,-3.58982,0.491163,0.120123,0.566712,
2,1,0,1,0,6024.6,0.571109,0.570825,0.263641,9,0.0345858,10,0.000150493,-3.57899,0.506118,0.116574,0.570709,
2,1,0,0,0,6025.4,0.575105,0.574803,0.268486,9,0.0348116,10,0.000154326,-3.57108,0.395488,0.149183,0.574685,
2,1,0,1,0,6026.2,0.5791,0.578832,0.275296,9,0.0350425,10,0.00015935,-3.5602,0.390245,0.151187,0.578711,
2,1,0,0,0,6026.99,0.583095,0.582835,0.282316,9,0.0352786,10,0.000164544,-3.54926,0.31034,0.190114,0.58271,
2,1,0,1,0,6027.79,0.58709,0.586851,0.291518,9,0.035521,10,0.000171078,-3.53533,0.282216,0.209059,0.586722,
2,1,0,1,0,6028.59,0.591085,0.590765,0.301471,9,0.0357706,10,0.000178098,-3.52075,0.271837,0.217042,0.590633,
2,1,0,1,0,6029.39,0.59508,0.594826,0.312123,9,0.036028,10,0.000185659,-3.50567,0.232563,0.253694,0.594689,
2,1,0,1,0,6030.19,0.599076,0.598743,0.324736,9,0.0362949,10,0.000194433,-3.48847,0.238761,0.247109,0.5986,
2,1,0,0,0,6030.99,0.603071,0.602781,0.339758,9,0.0365724,10,0.0002048,-3.46883,0.202797,0.290932,0.602631,
2,1,0,1,0,6031.79,0.607066,0.606827,0.35567,9,0.0368624,10,0.00021583,-3.44895,0.194321,0.303622,0.606671,
2,1,0,1,0,6032.59,0.611061,0.6108,0.373899,9,0.0371667,10,0.000228377,-3.42725,0.164433,0.358808,0.610635,
2,1,0,1,0,6033.39,0.615056,0.614748,0.396638,9,0.0374878,10,0.000243832,-3.40161,0.145086,0.406655,0.614573,
2,1,0,1,0,6034.19,0.619051,0.618782,0.424027,9,0.0378287,10,0.00026238,-3.37261,0.132502,0.445275,0.618596,
2,1,0,0,0,6034.99,0.623047,0.622779,0.454142,9,0.0381925,10,0.00028283,-3.34281,0.126207,0.467487,0.622579,
2,1,0,1,0,6035.78,0.627042,0.62677,0.491296,9,0.0385828,10,0.000307929,-3.30866,0.109602,0.538311,0.626554,
2,1,0,1,0,6036.58,0.631037,0.630784,0.535401,9,0.0390054,10,0.000337723,-3.27132,0.107889,0.546859,0.630549,
2,1,0,1,0,6037.38,0.635032,0.634786,0.584192,9,0.0394646,10,0.000370837,-3.23344,0.0964125,0.611954,0.634529,
2,1,0,1,0,6038.18,0.639027,0.638743,0.645241,9,0.0399684,10,0.000412144,-3.19028,0.0879459,0.670867,0.638459,
2,1,0,1,0,6038.98,0.643022,0.642768,0.71719,9,0.0405254,10,0.000460987,-3.14437,0.0861057,0.685204,0.642453,
2,1,0,1,0,6039.78,0.647018,0.646741,0.804267,9,0.0411451,10,0.000520153,-3.0946,0.0781922,0.754551,0.646387,
2,1,0,0,0,6040.58,0.651013,0.650743,0.903351,9,0.0418394,10,0.00058785,-3.04414,0.0751091,0.785524,0.650346,
2,1,0,1,0,6041.38,0.655008,0.654784,1.02422,9,0.0426216,10,0.00067064,-2.98961,0.0713159,0.827305,0.654333,
2,1,0,1,0,6042.18,0.659003,0.658737,1.16402,9,0.0435071,10,0.000766787,-2.93404,0.0690962,0.853882,0.658225,
2,1,0,1,0,6042.98,0.662998,0.662712,1.32909,9,0.0445145,10,0.000880806,-2.87644,0.0668831,0.882136,0.662127,
2,1,0,1,0,6043.77,0.666994,0.666775,1.52112,9,0.0456642,10,0.00101425,-2.81784,0.0655897,0.899532,0.666106,
2,1,0,0,0,6044.57,0.670989,0.670702,1.74331,9,0.0469793,10,0.00116924,-2.75863,0.0661987,0.891256,0.669935,
2,1,0,1,0,6045.37,0.674984,0.674754,2.00203,9,0.0484868,10,0.00135088,-2.69853,0.0645039,0.914673,0.673873,
2,1,0,1,0,6046.17,0.67898,0.678742,2.29667,9,0.0502146,10,0.00155885,-2.6389,0.0655258,0.900409,0.677732,
2,1,0,1,0,6046.97,0.682974,0.682751,2.62942,9,0.0521936,10,0.00179524,-2.58014,0.0654376,0.901622,0.681594,
2,1,0,1,0,6047.77,0.686969,0.68671,3.00552,9,0.0544558,10,0.00206392,-2.52208,0.0668558,0.882496,0.685387,
2,1,0,0,0,6048.57,0.690965,0.690709,3.42587,9,0.0570362,10,0.00236628,-2.46523,0.066856,0.882493,0.689201,
2,1,0,1,0,6049.37,0.69496,0.694687,3.89201,9,0.0599705,10,0.00270373,-2.40983,0.0697049,0.846426,0.692975,
2,1,0,0,0,6050.17,0.698955,0.698706,4.40113,9,0.0632946,10,0.0030751,-2.35644,0.0715335,0.824789,0.69677,
2,1,0,1,0,6050.97,0.70295,0.702647,4.95671,9,0.0670451,10,0.00348282,-2.30481,0.0730938,0.807182,0.700466,
2,1,0,1,0,6051.76,0.706945,0.70674,5.55726,9,0.0712573,10,0.00392753,-2.25514,0.0777601,0.758744,0.704295,
2,1,0,1,0,6052.56,0.71094,0.710683,6.20165,9,0.0759662,10,0.0044074,-2.20749,0.0799835,0.737652,0.707954,
2,1,0,1,0,6053.36,0.714936,0.714633,6.88187,9,0.0812056,10,0.00491801,-2.16229,0.0823338,0.716596,0.711605,
2,1,0,0,0,6054.16,0.718931,0.718646,7.6067,9,0.087005,10,0.00546653,-2.1188,0.0867038,0.680478,0.715299,
2,1,0,1,0,6054.96,0.722927,0.722652,8.36455,9,0.0933984,10,0.00604466,-2.07756,0.0911214,0.647488,0.718971,
2,1,0,1,0,6055.76,0.726921,0.726646,9.16066,9,0.100413,10,0.00665655,-2.03807,0.0940732,0.627171,0.722615,
2,1,0,1,0,6056.56,0.730916,0.730609,9.98986,9,0.108075,10,0.00729868,-2.00044,0.0985274,0.598818,0.726213,
2,1,0,1,0,6057.36,0.734911,0.73469,10.851,9,0.116416,10,0.0079721,-1.96453,0.103636,0.569299,0.729915,
2,1,0,0,0,6058.16,0.738907,0.738657,11.7512,9,0.125459,10,0.00868011,-1.92992,0.104354,0.565382,0.733487,
2,1,0,1,0,6058.96,0.742902,0.742628,12.707,9,0.135236,10,0.00943661,-1.89596,0.109058,0.540998,0.737037,
2,1,0,1,0,6059.76,0.746897,0.746645,13.6722,9,0.145786,10,0.0102083,-1.86416,0.110966,0.531696,0.74063,
2,1,0,1,0,6060.55,0.750892,0.750632,14.7085,9,0.157134,10,0.0110407,-1.83243,0.112033,0.526631,0.744161,
2,1,0,1,0,6061.35,0.754887,0.754661,15.7983,9,0.169332,10,0.0119224,-1.80139,0.112961,0.522303,0.747709,
2,1,0,0,0,6062.15,0.758883,0.758645,16.916,9,0.182421,10,0.0128332,-1.7717,0.117792,0.500884,0.751202,
2,1,0,1,0,6062.95,0.762878,0.762609,18.1301,9,0.196433,10,0.0138262,-1.7416,0.116928,0.504585,0.754631,
2,1,0,0,0,6063.75,0.766873,0.766629,19.4167,9,0.211445,10,0.0148854,-1.71182,0.113844,0.518253,0.758085,
2,1,0,1,0,6064.55,0.770868,0.770629,20.7967,9,0.227519,10,0.0160265,-1.68201,0.114808,0.513903,0.761478,
2,1,0,1,0,6065.35,0.774863,0.774582,22.2322,9,0.244721,10,0.0172206,-1.65302,0.117002,0.504267,0.764799,
2,1,0,1,0,6066.15,0.778858,0.778613,23.7401,9,0.263098,10,0.0184844,-1.62452,0.119617,0.493239,0.768167,
2,1,0,1,0,6066.95,0.782854,0.78262,25.2098,9,0.282673,10,0.0197296,-1.59843,0.128576,0.458873,0.771527,
2,1,0,0,0,6067.75,0.786849,0.786576,26.7922,9,0.303463,10,0.0210741,-1.57199,0.125346,0.470696,0.774787,
2,1,0,1,0,6068.54,0.790844,0.790619,28.4302,9,0.32554,10,0.0224774,-1.54622,0.128637,0.458656,0.77811,
2,1,0,1,0,6069.34,0.794839,0.794567,30.1048,9,0.348938,10,0.0239203,-1.52136,0.136777,0.431359,0.781321,
2,1,0,1,0,6070.14,0.798834,0.798561,31.7794,9,0.373674,10,0.0253778,-1.49785,0.134584,0.438389,0.784578,
2,1,0,1,0,6070.94,0.802829,0.802606,33.5245,9,0.399782,10,0.0269069,-1.47464,0.148746,0.39665,0.787855,
2,1,0,0,0,6071.74,0.806825,0.806593,35.2103,9,0.427263,10,0.0284004,-1.45333,0.155301,0.379908,0.791101,
2,1,0,1,0,6072.54,0.81082,0.810561,36.8994,9,0.456095,10,0.0299092,-1.43298,0.162847,0.362304,0.794325,
2,1,0,1,0,6073.34,0.814815,0.814586,38.5981,9,0.486273,10,0.0314415,-1.41343,0.176786,0.333737,0.797603,
2,1,0,1,0,6074.14,0.81881,0.818571,40.2218,9,0.517771,10,0.0329244,-1.39554,0.179063,0.329493,0.800873,
2,1,0,1,0,6074.94,0.822805,0.822584,42.1084,9,0.550636,10,0.0346377,-1.37563,0.176437,0.334398,0.804056,
2,1,0,0,0,6075.74,0.826801,0.826554,43.6381,9,0.584909,10,0.0360692,-1.36013,0.238328,0.247558,0.807353,
2,1,0,1,0,6076.54,0.830796,0.830574,45.0918,9,0.620347,10,0.0374521,-1.3459,0.212999,0.276997,0.810734,
2,1,0,0,0,6077.33,0.834791,0.834549,46.7189,9,0.657042,10,0.0389892,-1.33051,0.235777,0.250236,0.813992,
2,1,0,1,0,6078.13,0.838786,0.838534,48.1022,9,0.694953,10,0.0403353,-1.31784,0.236846,0.249107,0.817369,
2,1,0,1,0,6078.93,0.842781,0.842557,49.578,9,0.734043,10,0.0417722,-1.30471,0.273715,0.215552,0.820743,
2,1,0,1,0,6079.73,0.846776,0.846535,51.1165,9,0.774295,10,0.0432719,-1.29144,0.270212,0.218347,0.824044,
2,1,0,0,0,6080.43,0.849723,0.849472,51.9381,9,0.810486,10,0.0441199,-1.28451,0.0349609,1.6876,0.826619,
2,1,0,1,0,6081.23,0.845728,0.84551,49.2806,9,0.850802,10,0.0416672,-1.30732,0.179732,0.328266,0.823827,
2,1,0,0,0,6082.03,0.841732,0.84151,47.2949,9,0.889441,10,0.0397991,-1.32519,0.179762,0.328211,0.8207,
2,1,0,1,0,6082.83,0.837737,0.83749,45.5777,9,0.926579,10,0.0381708,-1.34125,0.17842,0.330681,0.817436,
2,1,0,1,0,6083.63,0.833742,0.833515,43.8281,9,0.962277,10,0.0365313,-1.35825,0.178375,0.330763,0.81423,
2,1,0,1,0,6084.43,0.829747,0.829497,41.9765,9,0.99651,10,0.0348194,-1.37699,0.177297,0.332775,0.811028,
2,1,0,1,0,6085.23,0.825752,0.825505,40.1702,9,1.02934,10,0.0331607,-1.3961,0.162781,0.362451,0.807831,
2,1,0,0,0,6086.02,0.821757,0.821533,38.3568,9,1.0607,10,0.0315114,-1.41616,0.148722,0.396712,0.804656,
2,1,0,1,0,6086.82,0.817761,0.817497,36.508,9,1.09058,10,0.0298452,-1.43761,0.157226,0.375257,0.801433,
2,1,0,1,0,6087.62,0.813766,0.813475,34.8282,9,1.11906,10,0.0283319,-1.45807,0.151101,0.390467,0.79815,
2,1,0,1,0,6088.42,0.809771,0.809527,33.0897,9,1.14617,10,0.026787,-1.48031,0.140914,0.418696,0.794967,
2,1,0,1,0,6089.22,0.805776,0.805529,31.3438,9,1.17188,10,0.0252484,-1.50385,0.136739,0.431478,0.791738,
2,1,0,0,0,6090.02,0.801781,0.801507,29.6412,9,1.19623,10,0.0237576,-1.5281,0.129692,0.454923,0.788465,
2,1,0,1,0,6090.82,0.797786,0.797537,27.9239,9,1.21921,10,0.0222703,-1.55402,0.125712,0.469328,0.785251,
2,1,0,1,0,6091.62,0.79379,0.793545,26.3228,9,1.24087,10,0.0208883,-1.57967,0.124473,0.473998,0.781963,
2,1,0,1,0,6092.42,0.789795,0.789531,24.7425,9,1.26125,10,0.019535,-1.60656,0.158974,0.371129,0.778645,
2,1,0,1,0,6093.22,0.7858,0.785543,23.5511,9,1.28059,10,0.0185004,-1.62799,0.120497,0.489639,0.775181,
2,1,0,0,0,6094.01,0.781805,0.781534,21.9855,9,1.29877,10,0.0171824,-1.65786,0.109086,0.540856,0.77186,
2,1,0,1,0,6094.81,0.77781,0.777536,20.5097,9,1.31573,10,0.015947,-1.68804,0.110765,0.532658,0.768512,
2,1,0,0,0,6095.61,0.773815,0.77358,19.0896,9,1.33152,10,0.0147674,-1.7192,0.106243,0.55533,0.76518,
2,1,0,1,0,6096.41,0.769819,0.769527,17.733,9,1.34622,10,0.013646,-1.75122,0.103,0.572816,0.761725,
2,1,0,1,0,6097.21,0.765824,0.765567,16.4393,9,1.35985,10,0.0125854,-1.78412,0.106059,0.556294,0.758334,
2,1,0,1,0,6098.01,0.761829,0.761615,15.1896,9,1.37246,10,0.0115686,-1.81845,0.0971041,0.607595,0.754932,
2,1,0,1,0,6098.81,0.757834,0.757542,14.0094,9,1.38411,10,0.0106127,-1.85358,0.0971885,0.607067,0.751378,
2,1,0,0,0,6099.61,0.753839,0.753582,12.8703,9,1.39483,10,0.0096988,-1.89041,0.0945337,0.624116,0.747919,
2,1,0,1,0,6100.41,0.749844,0.749564,11.7905,9,1.40466,10,0.00883778,-1.92847,0.0907925,0.649833,0.744377,
2,1,0,1,0,6101.21,0.745848,0.745591,10.7498,9,1.41365,10,0.00801496,-1.9686,0.0877163,0.672623,0.740861,
2,1,0,1,0,6102,0.741853,0.7416,9.79051,9,1.42184,10,0.00726064,-2.00919,0.0856706,0.688684,0.737292,
2,1,0,1,0,6102.8,0.737858,0.737607,8.88568,9,1.42928,10,0.00655414,-2.05131,0.0847992,0.695762,0.733697,
2,1,0,0,0,6103.6,0.733863,0.733646,8.04336,9,1.43602,10,0.00590098,-2.09456,0.0829906,0.710924,0.730107,
2,1,0,1,0,6104.4,0.729868,0.729607,7.24713,9,1.44211,10,0.00528755,-2.13983,0.080244,0.735258,0.726418,
2,1,0,1,0,6105.2,0.725872,0.725627,6.52214,9,1.4476,10,0.00473264,-2.18561,0.0786822,0.749852,0.722757,
2,1,0,1,0,6106,0.721877,0.721587,5.83929,9,1.45252,10,0.00421355,-2.23364,0.0758319,0.778037,0.719017,
2,1,0,1,0,6106.8,0.717882,0.717644,5.20689,9,1.45692,10,0.0037367,-2.28342,0.073602,0.801608,0.715353,
2,1,0,0,0,6107.6,0.713887,0.713616,4.62734,9,1.46083,10,0.00330214,-2.33467,0.0715136,0.825018,0.71158,
2,1,0,1,0,6108.4,0.709892,0.709631,4.09194,9,1.46429,10,0.00290377,-2.38807,0.0699856,0.84303,0.70783,
2,1,0,0,0,6109.2,0.705897,0.705635,3.59955,9,1.46735,10,0.00253997,-2.44375,0.0671009,0.879273,0.704051,
2,1,0,1,0,6110,0.701901,0.701638,3.15034,9,1.47003,10,0.0022104,-2.50164,0.0626025,0.942454,0.700252,
2,1,0,1,0,6110.79,0.697906,0.697645,2.74433,9,1.47236,10,0.00191457,-2.56156,0.062969,0.936969,0.696437,
2,1,0,1,0,6111.59,0.693911,0.693628,2.37646,9,1.47439,10,0.00164838,-2.62407,0.0610549,0.966343,0.692583,
2,1,0,1,0,6112.39,0.689916,0.689674,2.04614,9,1.47614,10,0.00141117,-2.68906,0.0585598,1.00752,0.688774,
2,1,0,0,0,6113.19,0.685921,0.6856,1.7523,9,1.47764,10,0.00120138,-2.75639,0.0561552,1.05066,0.684829,
2,1,0,1,0,6113.99,0.681926,0.681625,1.49204,9,1.47892,10,0.00101701,-2.82622,0.0544027,1.0845,0.680969,
2,1,0,1,0,6114.79,0.67793,0.677646,1.2622,9,1.48001,10,0.000855325,-2.89887,0.052391,1.12615,0.677091,
2,1,0,1,0,6115.59,0.673935,0.673663,1.05902,9,1.48092,10,0.000713419,-2.9751,0.0513097,1.14988,0.673197,
2,1,0,1,0,6116.39,0.66994,0.66968,0.884969,9,1.48168,10,0.000592647,-3.05307,0.0486924,1.21169,0.669291,
2,1,0,0,0,6117.19,0.665945,0.665659,0.73111,9,1.48231,10,0.00048667,-3.13602,0.0462409,1.27593,0.665337,
2,1,0,1,0,6117.99,0.66195,0.661717,0.599952,9,1.48283,10,0.000396999,-3.22188,0.0452364,1.30426,0.661453,
2,1,0,0,0,6118.78,0.657955,0.657715,0.488056,9,1.48325,10,0.000321002,-3.31153,0.0433146,1.36213,0.657501,
2,1,0,1,0,6119.58,0.653959,0.653701,0.392217,9,1.48359,10,0.000256393,-3.40647,0.0395008,1.49364,0.653529,
2,1,0,1,0,6120.38,0.649964,0.649675,0.311814,9,1.48385,10,0.000202578,-3.50611,0.0385737,1.52954,0.649538,
2,1,0,1,0,6121.18,0.64597,0.645689,0.244032,9,1.48406,10,0.000157569,-3.61255,0.0356877,1.65323,0.645581,
2,1,0,1,0,6121.98,0.641974,0.64174,0.185635,9,1.48422,10,0.00011913,-3.73134,0.032563,1.81187,0.641659,
2,1,0,0,0,6122.78,0.637979,0.637712,0.137335,9,1.48433,10,8.75801e-05,-3.86222,0.0275366,2.14261,0.637651,
2,1,0,1,0,6123.58,0.633983,0.633724,0.096558,9,1.48441,10,6.11911e-05,-4.01521,0.0249207,2.36751,0.633682,
2,1,0,1,0,6124.38,0.629988,0.629763,0.062849,9,1.48446,10,3.95799e-05,-4.2017,0.0179926,3.27913,0.629735,
2,1,0,1,0,6125.18,0.625993,0.625737,0.0343238,9,1.48449,10,2.14777e-05,-4.4644,0.0116702,5.05562,0.625722,
2,1,0,1,0,6125.98,0.621998,0.621702,0.0109914,9,1.48449,10,6.83334e-06,-4.95895,0.00182631,32.3056,0.621697,
2,1,0,0,0,6126.77,0.618003,0.617677,-0.0078452,9,1.48448,10,-4.8458e-06,-5.1054,-0.00188121,-31.3627,0.617681,
2,0,0,1,0,6127.57,0.614008,0.613699,-0.0246323,9,1.48445,10,-1.51168e-05,-4.60849,-0.0187572,-3.14546,0.61371,
2,0,0,1,0,6128.37,0.610012,0.609702,-0.0387254,9,1.48441,10,-2.3611e-05,-4.412,-0.0284164,-2.07626,0.609719,
2,0,0,1,0,6129.17,0.606017,0.605735,-0.0490366,9,1.48436,10,-2.97032e-05,-4.30948,-0.0440752,-1.33862,0.605757,
2,0,0,1,0,6129.97,0.602022,0.601738,-0.0580719,9,1.48431,10,-3.49441e-05,-4.23603,-0.067091,-0.879403,0.601763,
2,0,0,0,0,6130.77,0.598027,0.597714,-0.0653325,9,1.48424,10,-3.90502e-05,-4.18487,-0.0692177,-0.852383,0.597743,
2,0,0,1,0,6131.57,0.594032,0.593751,-0.0727617,9,1.48417,10,-4.32024e-05,-4.1381,-0.110085,-0.535947,0.593784,
2,0,0,0,0,6132.37,0.590037,0.58975,-0.079178,9,1.4841,10,-4.66952e-05,-4.1014,-0.133415,-0.442229,0.589784,
2,0,0,1,0,6133.17,0.586041,0.585739,-0.0840866,9,1.48402,10,-4.92528e-05,-4.07527,-0.161679,-0.364922,0.585776,
2,0,0,1,0,6133.97,0.582046,0.581734,-0.0876872,9,1.48394,10,-5.10106e-05,-4.05706,-0.17211,-0.342804,0.581773,
2,0,0,1,0,6134.77,0.578052,0.577745,-0.0915729,9,1.48385,10,-5.29058e-05,-4.03823,-0.402878,-0.146446,0.577786,
2,0,0,1,0,6135.56,0.574056,0.573814,-0.0956898,9,1.48376,10,-5.49081e-05,-4.01913,-0.182671,-0.322985,0.573856,
2,0,0,0,0,6136.36,0.570061,0.5698,-0.0982942,9,1.48367,10,-5.60081e-05,-4.00747,-6.78741,-0.00869256,0.569843,
2,0,0,1,0,6137.16,0.566065,0.5658,-0.101395,9,1.48358,10,-5.73692e-05,-3.99398,-0.264177,-0.223336,0.565844,
2,0,0,1,0,6137.96,0.56207,0.561736,-0.102821,9,1.48348,10,-5.77582e-05,-3.98792,-0.22237,-0.265323,0.561781,
2,0,0,1,0,6138.76,0.558075,0.557812,-0.104854,9,1.48339,10,-5.84891e-05,-3.97941,-0.729322,-0.0808971,0.557859,
2,0,0,1,0,6139.56,0.55408,0.553832,-0.105902,9,1.48329,10,-5.86517e-05,-3.9751,-0.974967,-0.0605149,0.553879,
2,0,0,0,0,6140.36,0.550085,0.549817,-0.107249,9,1.48319,10,-5.89672e-05,-3.96961,-1.07473,-0.0548973,0.549864,
2,0,0,1,0,6141.16,0.54609,0.545818,-0.109336,9,1.48309,10,-5.96778e-05,-3.96123,-0.786841,-0.0749833,0.545866,
2,0,0,1,0,6141.96,0.542094,0.541817,-0.11105,9,1.48299,10,-6.01689e-05,-3.95448,-0.773823,-0.0762449,0.541866,
2,0,0,1,0,6142.76,0.538099,0.537799,-0.111546,9,1.48288,10,-5.99894e-05,-3.95255,70.1171,0.000841449,0.537848,
2,0,0,1,0,6143.55,0.534104,0.533841,-0.112263,9,1.48278,10,-5.99306e-05,-3.94976,-0.464766,-0.126946,0.53389,
2,0,0,0,0,6144.35,0.530109,0.529811,-0.113484,9,1.48268,10,-6.0125e-05,-3.94507,-1.23832,-0.0476453,0.529861,
2,0,0,1,0,6145.15,0.526114,0.525852,-0.11614,9,1.48257,10,-6.10724e-05,-3.93502,-1.00563,-0.0586695,0.525903,
2,0,0,0,0,6145.95,0.522119,0.521831,-0.11715,9,1.48246,10,-6.11324e-05,-3.93126,-0.699315,-0.0843682,0.521882,
2,0,0,1,0,6146.75,0.518123,0.517818,-0.118176,9,1.48236,10,-6.11934e-05,-3.92747,-1.06536,-0.0553805,0.517869,
2,0,0,1,0,6147.55,0.514128,0.513838,-0.118029,9,1.48225,10,-6.06478e-05,-3.92801,-1.03638,-0.0569289,0.51389,
2,0,0,1,0,6148.35,0.510133,0.509859,-0.119745,9,1.48214,10,-6.10532e-05,-3.92174,-1.89148,-0.0311926,0.509911,
2,0,0,1,0,6149.15,0.506138,0.505897,-0.119659,9,1.48203,10,-6.0535e-05,-3.92206,-1.76406,-0.0334455,0.50595,
2,0,0,0,0,6149.95,0.502143,0.501877,-0.120317,9,1.48192,10,-6.03842e-05,-3.91967,-0.479952,-0.122929,0.50193,
2,0,0,1,0,6150.75,0.498148,0.497812,-0.122805,9,1.48181,10,-6.11339e-05,-3.91078,-23.067,-0.00255777,0.497866,
2,0,0,1,0,6151.54,0.494152,0.493835,-0.123231,9,1.48169,10,-6.08558e-05,-3.90928,-1.23777,-0.0476665,0.493889,
2,0,0,1,0,6152.34,0.490157,0.48987,-0.125015,9,1.48158,10,-6.12409e-05,-3.90304,-0.364619,-0.161813,0.489925,
2,0,0,1,0,6153.14,0.486162,0.485851,-0.125913,9,1.48147,10,-6.11749e-05,-3.89993,-1.36892,-0.0430996,0.485907,
2,0,0,0,0,6153.94,0.482167,0.481878,-0.127686,9,1.48135,10,-6.15289e-05,-3.89386,1.14643,0.051464,0.481934,
2,0,0,1,0,6154.74,0.478172,0.477879,-0.127063,9,1.48124,10,-6.07207e-05,-3.89598,-0.681721,-0.0865456,0.477935,
2,0,0,0,0,6155.54,0.474177,0.473892,-0.129852,9,1.48112,10,-6.1536e-05,-3.88655,-4.00135,-0.014745,0.473949,
2,0,0,1,0,6156.34,0.470181,0.469865,-0.130924,9,1.481,10,-6.15165e-05,-3.88298,-0.353852,-0.166736,0.469923,
2,0,0,1,0,6157.14,0.466186,0.465864,-0.131317,9,1.48088,10,-6.11756e-05,-3.88168,-0.836712,-0.0705141,0.465921,
2,0,0,1,0,6157.94,0.462191,0.461868,-0.132823,9,1.48076,10,-6.13467e-05,-3.87673,-1.55696,-0.0378943,0.461927,
2,0,0,1,0,6158.74,0.458196,0.457896,-0.135579,9,1.48064,10,-6.2081e-05,-3.86781,-0.590855,-0.0998553,0.457956,
2,0,0,0,0,6159.54,0.454201,0.453926,-0.137113,9,1.48052,10,-6.22391e-05,-3.86292,-1.08417,-0.0544193,0.453987,
2,0,0,1,0,6160.33,0.450205,0.449898,-0.139132,9,1.48039,10,-6.25951e-05,-3.85657,-0.744775,-0.0792185,0.44996,
2,0,0,1,0,6161.13,0.44621,0.445984,-0.14008,9,1.48027,10,-6.24734e-05,-3.85362,-1.15766,-0.0509648,0.446045,
2,0,0,1,0,6161.93,0.442215,0.441956,-0.142327,9,1.48014,10,-6.29023e-05,-3.84671,-1.1106,-0.0531242,0.442018,
2,0,0,1,0,6162.73,0.43822,0.437895,-0.143607,9,1.48002,10,-6.28848e-05,-3.84282,-0.669693,-0.0881,0.437958,
2,0,0,0,0,6163.53,0.434225,0.433963,-0.145442,9,1.47989,10,-6.31163e-05,-3.83731,-0.6953,-0.0848555,0.434027,
2,0,0,1,0,6164.33,0.43023,0.42996,-0.145804,9,1.47976,10,-6.26898e-05,-3.83623,-0.650155,-0.0907475,0.430024,
2,0,0,1,0,6165.13,0.426234,0.425955,-0.14873,9,1.47962,10,-6.33523e-05,-3.8276,-0.734433,-0.0803341,0.42602,
2,0,0,1,0,6165.93,0.422239,0.421924,-0.150068,9,1.47949,10,-6.33172e-05,-3.82371,-2.27717,-0.0259094,0.42199,
2,0,0,1,0,6166.73,0.418244,0.417971,-0.152203,9,1.47936,10,-6.36165e-05,-3.81758,-0.93902,-0.0628315,0.418038,
2,0,0,0,0,6167.53,0.414249,0.413996,-0.15317,9,1.47922,10,-6.34116e-05,-3.81483,-0.381326,-0.154723,0.414063,
2,0,0,1,0,6168.32,0.410254,0.409955,-0.155729,9,1.47908,10,-6.38418e-05,-3.80763,-2.33258,-0.0252939,0.410024,
2,0,0,0,0,6169.12,0.406259,0.405947,-0.156854,9,1.47894,10,-6.36744e-05,-3.8045,-0.505852,-0.116635,0.406016,
2,0,0,1,0,6169.92,0.402263,0.401965,-0.160072,9,1.4788,10,-6.43435e-05,-3.79568,-1.25157,-0.0471409,0.402036,
2,0,0,1,0,6170.72,0.398268,0.39798,-0.160914,9,1.47866,10,-6.40403e-05,-3.79341,-0.570834,-0.103358,0.39805,
2,0,0,1,0,6171.52,0.394274,0.393989,-0.16339,9,1.47852,10,-6.43739e-05,-3.78677,-0.867587,-0.0680047,0.394061,
2,0,0,1,0,6172.32,0.390278,0.38998,-0.165976,9,1.47837,10,-6.47271e-05,-3.77996,-0.820978,-0.0718655,0.390053,
2,0,0,0,0,6173.12,0.386283,0.385996,-0.168015,9,1.47822,10,-6.4853e-05,-3.77465,-0.763179,-0.0773082,0.38607,
2,0,0,1,0,6173.92,0.382287,0.382028,-0.169818,9,1.47807,10,-6.48754e-05,-3.77002,-0.72035,-0.0819046,0.382103,
2,0,0,1,0,6174.72,0.378292,0.377981,-0.172117,9,1.47792,10,-6.5057e-05,-3.76418,-1.67419,-0.0352409,0.378057,
2,0,0,1,0,6175.52,0.374297,0.374044,-0.174905,9,1.47777,10,-6.54223e-05,-3.7572,-0.338067,-0.174521,0.374121,
2,0,0,1,0,6176.31,0.370303,0.369986,-0.17638,9,1.47762,10,-6.52583e-05,-3.75355,-20.2069,-0.0029198,0.370064,
2,0,0,0,0,6177.11,0.366307,0.365985,-0.177532,9,1.47746,10,-6.49739e-05,-3.75072,-0.55166,-0.10695,0.366063,
2,0,0,1,0,6177.91,0.362312,0.362033,-0.18078,9,1.4773,10,-6.54481e-05,-3.74285,-0.45143,-0.130696,0.362112,
2,0,0,1,0,6178.71,0.358316,0.358031,-0.182373,9,1.47714,10,-6.52953e-05,-3.73904,3.20955,0.0183826,0.358111,
2,0,0,1,0,6179.51,0.354321,0.35406,-0.185694,9,1.47698,10,-6.57469e-05,-3.7312,-0.436385,-0.135202,0.354142,
2,0,0,1,0,6180.31,0.350327,0.350056,-0.186545,9,1.47682,10,-6.5301e-05,-3.72922,-0.710756,-0.0830103,0.350138,
2,0,0,0,0,6181.11,0.346331,0.34603,-0.190002,9,1.47665,10,-6.57464e-05,-3.72124,-1.98318,-0.0297502,0.346114,
2,0,0,1,0,6181.91,0.342336,0.342049,-0.191862,9,1.47649,10,-6.56261e-05,-3.71701,-0.506106,-0.116576,0.342134,
2,0,0,0,0,6182.71,0.338341,0.338035,-0.194155,9,1.47632,10,-6.56311e-05,-3.71185,-1.18055,-0.0499767,0.33812,
2,0,0,1,0,6183.51,0.334345,0.334046,-0.197079,9,1.47614,10,-6.58335e-05,-3.70536,-0.559064,-0.105534,0.334133,
2,0,0,1,0,6184.31,0.33035,0.330042,-0.199163,9,1.47597,10,-6.57321e-05,-3.70079,-0.66942,-0.0881361,0.33013,
2,0,0,1,0,6185.1,0.326355,0.326058,-0.20053,9,1.4758,10,-6.53846e-05,-3.69782,-0.674134,-0.0875198,0.326147,
2,0,0,1,0,6185.9,0.32236,0.322084,-0.203293,9,1.47562,10,-6.54772e-05,-3.69188,-3.18309,-0.0185355,0.322173,
2,0,0,0,0,6186.7,0.318365,0.318053,-0.204949,9,1.47544,10,-6.51846e-05,-3.68835,-0.474672,-0.124296,0.318143,
2,0,0,1,0,6187.5,0.31437,0.314072,-0.208814,9,1.47526,10,-6.55828e-05,-3.68024,-1.92558,-0.0306402,0.314164,
2,0,0,1,0,6188.3,0.310374,0.310061,-0.212674,9,1.47508,10,-6.59419e-05,-3.67228,-0.390027,-0.151272,0.310154,
2,0,0,1,0,6189.1,0.306379,0.306093,-0.213798,9,1.47489,10,-6.54419e-05,-3.67,-1.16063,-0.0508344,0.306187,
2,0,0,1,0,6189.9,0.302385,0.30208,-0.216131,9,1.4747,10,-6.52888e-05,-3.66528,-0.621607,-0.0949152,0.302175,
2,0,0,0,0,6190.7,0.298389,0.298085,-0.219698,9,1.47451,10,-6.54887e-05,-3.65817,-0.70686,-0.0834677,0.298181,
2,0,0,1,0,6191.5,0.294394,0.294102,-0.222266,9,1.47432,10,-6.53688e-05,-3.65313,-1.0501,-0.0561849,0.2942,
2,0,0,1,0,6192.3,0.290398,0.290142,-0.22453,9,1.47413,10,-6.51456e-05,-3.64873,-1.05102,-0.056136,0.290241,
2,0,0,1,0,6193.09,0.286403,0.286122,-0.226545,9,1.47393,10,-6.48196e-05,-3.64484,-0.649815,-0.090795,0.286222,
2,0,0,1,0,6193.89,0.282408,0.282078,-0.229097,9,1.47374,10,-6.46232e-05,-3.63998,-39.6411,-0.00148835,0.282179,
2,0,0,1,0,6194.69,0.278414,0.278135,-0.231931,9,1.47354,10,-6.45081e-05,-3.63464,-0.41082,-0.143615,0.278237,
2,0,0,1,0,6195.49,0.274418,0.27412,-0.234448,9,1.47333,10,-6.42667e-05,-3.62995,-0.794186,-0.0742899,0.274223,
2,0,0,0,0,6196.29,0.270423,0.270148,-0.238829,9,1.47313,10,-6.45193e-05,-3.62191,-0.986828,-0.0597875,0.270253,
2,0,0,1,0,6197.09,0.266427,0.266134,-0.241063,9,1.47292,10,-6.41552e-05,-3.61787,-0.704042,-0.0838018,0.26624,
2,0,0,1,0,6197.89,0.262432,0.262128,-0.244326,9,1.47271,10,-6.40448e-05,-3.61203,-0.845759,-0.0697598,0.262236,
2,0,0,1,0,6198.69,0.258437,0.258159,-0.246489,9,1.4725,10,-6.36332e-05,-3.6082,-0.992364,-0.059454,0.258267,
2,0,0,1,0,6199.49,0.254442,0.254173,-0.247693,9,1.47229,10,-6.29568e-05,-3.60609,-1.11527,-0.0529021,0.254282,
2,0,0,0,0,6200.29,0.250447,0.250126,-0.250611,9,1.47208,10,-6.26842e-05,-3.601,-1.20519,-0.048955,0.250236,
2,0,0,1,0,6201.09,0.246452,0.246138,-0.251999,9,1.47186,10,-6.20265e-05,-3.5986,-0.780694,-0.0755737,0.246248,
2,0,0,1,0,6201.88,0.242456,0.242176,-0.254922,9,1.47164,10,-6.17358e-05,-3.59359,-1.3401,-0.0440266,0.242288,
2,0,0,1,0,6202.68,0.238461,0.238161,-0.257968,9,1.47142,10,-6.1438e-05,-3.58843,-0.586252,-0.100639,0.238275,
2,0,0,1,0,6203.48,0.234467,0.234179,-0.260108,9,1.4712,10,-6.09118e-05,-3.58485,-1.1479,-0.0513981,0.234293,
2,0,0,0,0,6204.28,0.230471,0.23017,-0.262978,9,1.47098,10,-6.05296e-05,-3.58008,-0.857727,-0.0687864,0.230286,
2,0,0,1,0,6205.08,0.226476,0.226163,-0.265475,9,1.47075,10,-6.00405e-05,-3.57598,-1.0742,-0.0549244,0.226279,
2,0,0,0,0,6205.88,0.222481,0.222187,-0.267267,9,1.47052,10,-5.93832e-05,-3.57306,-0.747555,-0.0789239,0.222305,
2,0,0,1,0,6206.68,0.218485,0.218203,-0.272207,9,1.47029,10,-5.93963e-05,-3.5651,-1.38384,-0.0426351,0.218323,
2,0,0,1,0,6207.48,0.21449,0.2142,-0.275069,9,1.47006,10,-5.89198e-05,-3.56056,-0.57114,-0.103302,0.214321,
2,0,0,1,0,6208.28,0.210496,0.210187,-0.277225,9,1.46982,10,-5.82691e-05,-3.55717,-0.780457,-0.0755968,0.210309,
2,0,0,1,0,6209.08,0.2065,0.206234,-0.28142,9,1.46958,10,-5.80385e-05,-3.55065,-0.751903,-0.0784675,0.206358,
2,0,0,0,0,6209.87,0.202505,0.202174,-0.284943,9,1.46934,10,-5.76081e-05,-3.54524,-0.644077,-0.0916039,0.2023,
2,0,0,1,0,6210.67,0.198509,0.198171,-0.289382,9,1.4691,10,-5.7347e-05,-3.53853,-0.672452,-0.0877386,0.198298,
2,0,0,1,0,6211.47,0.194514,0.194204,-0.294088,9,1.46885,10,-5.71129e-05,-3.53152,-0.453699,-0.130042,0.194333,
2,0,0,1,0,6212.27,0.190519,0.190208,-0.298576,9,1.46859,10,-5.67915e-05,-3.52494,-0.534094,-0.110467,0.190339,
2,0,0,1,0,6213.07,0.186524,0.186219,-0.30571,9,1.46834,10,-5.69291e-05,-3.51469,-0.596788,-0.0988626,0.186354,
2,0,0,0,0,6213.87,0.182529,0.182222,-0.313002,9,1.46807,10,-5.70357e-05,-3.50445,-0.291817,-0.202181,0.182359,
2,0,0,1,0,6214.67,0.178534,0.178221,-0.322123,9,1.46781,10,-5.7409e-05,-3.49198,-0.346607,-0.170222,0.178362,
2,0,0,1,0,6215.47,0.174538,0.174224,-0.330386,9,1.46753,10,-5.7561e-05,-3.48098,-0.305436,-0.193166,0.174369,
2,0,0,1,0,6216.27,0.170543,0.17021,-0.341512,9,1.46725,10,-5.81289e-05,-3.46659,-0.202651,-0.291142,0.170361,
2,0,0,1,0,6217.07,0.166549,0.166247,-0.358652,9,1.46695,10,-5.96249e-05,-3.44533,-0.205845,-0.286623,0.166405,
2,0,0,0,0,6217.86,0.162553,0.162227,-0.376884,9,1.46664,10,-6.11405e-05,-3.42379,-0.161798,-0.364651,0.162392,
2,0,0,1,0,6218.66,0.158558,0.158194,-0.400184,9,1.46631,10,-6.33067e-05,-3.39774,-0.130107,-0.453472,0.15837,
2,0,0,0,0,6219.46,0.154563,0.154226,-0.434606,9,1.46596,10,-6.70275e-05,-3.3619,-0.117134,-0.503695,0.154417,
2,0,0,1,0,6220.26,0.150567,0.150235,-0.476739,9,1.46559,10,-7.1623e-05,-3.32172,-0.0826084,-0.714213,0.150445,
2,0,0,1,0,6221.06,0.146572,0.146214,-0.531559,9,1.46517,10,-7.77216e-05,-3.27445,-0.0828797,-0.711875,0.146448,
2,0,0,1,0,6221.86,0.142578,0.14227,-0.601312,9,1.4647,10,-8.55486e-05,-3.2209,-0.0748655,-0.78808,0.142535,
2,0,0,1,0,6222.66,0.138582,0.138273,-0.668273,9,1.46418,10,-9.24041e-05,-3.17505,-0.0913186,-0.64609,0.138567,
2,0,0,0,0,6223.46,0.134587,0.134273,-0.732667,9,1.4636,10,-9.83775e-05,-3.13509,-0.123948,-0.476006,0.134596,
2,0,0,1,0,6224.26,0.130591,0.130273,-0.78026,9,1.46298,10,-0.000101647,-3.10776,-0.183669,-0.321229,0.130616,
2,0,0,1,0,6225.06,0.126596,0.126263,-0.804945,9,1.46233,10,-0.000101635,-3.09423,-0.358362,-0.164638,0.126617,
2,0,0,1,0,6225.86,0.122602,0.122343,-0.818727,9,1.46166,10,-0.000100165,-3.08686,7.13745,0.00826626,0.122703,
2,0,0,1,0,6226.65,0.118607,0.11828,-0.815256,9,1.46099,10,-9.64281e-05,-3.08871,2.33888,0.0252257,0.118638,
2,0,0,0,0,6227.45,0.114611,0.114309,-0.805055,9,1.46032,10,-9.2025e-05,-3.09417,0.532076,0.110887,0.114663,
2,0,0,1,0,6228.25,0.110616,0.110313,-0.791747,9,1.45967,10,-8.73402e-05,-3.10141,0.542582,0.108739,0.110662,
2,0,0,1,0,6229.05,0.10662,0.106322,-0.774885,9,1.45903,10,-8.2387e-05,-3.11076,0.446148,0.132243,0.106662,
2,0,0,1,0,6229.85,0.102625,0.10234,-0.758013,9,1.4584,10,-7.75751e-05,-3.12032,0.335471,0.175872,0.102674,
2,0,0,1,0,6230.65,0.0986305,0.0982696,-0.739042,9,1.45779,10,-7.26253e-05,-3.13133,0.402092,0.146733,0.0985948,
2,0,0,0,0,6231.45,0.0946351,0.0943584,-0.715602,9,1.45719,10,-6.7523e-05,-3.14533,0.347162,0.169949,0.0946732,
2,0,0,1,0,6232.25,0.0906399,0.0903182,-0.702226,9,1.4566,10,-6.34238e-05,-3.15352,0.340103,0.173477,0.0906272,
2,0,0,0,0,6233.05,0.0866448,0.086347,-0.687667,9,1.45603,10,-5.9378e-05,-3.16262,0.506026,0.116595,0.0866496,
2,0,0,1,0,6233.85,0.0826492,0.0823647,-0.673775,9,1.45547,10,-5.54953e-05,-3.17149,0.509118,0.115887,0.0826612,
2,0,0,1,0,6234.64,0.0786544,0.0783738,-0.663195,9,1.45492,10,-5.19771e-05,-3.17836,0.647847,0.0910708,0.0786656,
2,0,0,1,0,6235.44,0.0746596,0.0743352,-0.651726,9,1.45438,10,-4.84461e-05,-3.18594,0.531867,0.11093,0.0746219,
2,0,0,1,0,6236.24,0.0706641,0.0703476,-0.643381,9,1.45385,10,-4.52603e-05,-3.19153,0.537005,0.109869,0.0706307,
2,0,0,0,0,6237.04,0.0666689,0.0663329,-0.633341,9,1.45332,10,-4.20114e-05,-3.19836,0.728899,0.080944,0.0666116,
2,0,0,1,0,6237.84,0.0626737,0.0623511,-0.620157,9,1.45281,10,-3.86675e-05,-3.2075,0.577939,0.102087,0.0626239,
2,0,0,1,0,6238.64,0.0586783,0.0583415,-0.612396,9,1.4523,10,-3.57281e-05,-3.21297,0.371376,0.158868,0.0586109,
2,0,0,1,0,6239.44,0.0546835,0.0543557,-0.601348,9,1.4518,10,-3.26867e-05,-3.22087,0.775973,0.0760335,0.0546202,
2,0,0,1,0,6240.24,0.0506886,0.0503892,-0.589499,9,1.45131,10,-2.97044e-05,-3.22952,0.438597,0.13452,0.0506485,
2,0,0,0,0,6241.04,0.046693,0.0463835,-0.576041,9,1.45083,10,-2.67188e-05,-3.23955,0.451284,0.130738,0.0466369,
2,0,0,1,0,6241.84,0.0426979,0.0424006,-0.564769,9,1.45035,10,-2.39465e-05,-3.24813,0.413641,0.142636,0.0426491,
2,0,0,1,0,6242.63,0.0387022,0.0384035,-0.551345,9,1.44989,10,-2.11736e-05,-3.25858,0.385276,0.153137,0.0386461,
2,0,0,1,0,6243.43,0.0347074,0.0344103,-0.540425,9,1.44944,10,-1.85962e-05,-3.26726,0.434774,0.135703,0.034648,
2,0,0,1,0,6244.23,0.0307126,0.0304065,-0.52677,9,1.449,10,-1.60172e-05,-3.27838,0.534065,0.110474,0.0306382,
2,0,0,0,0,6245.03,0.0267172,0.0264372,-0.519035,9,1.44856,10,-1.37218e-05,-3.2848,0.417907,0.14118,0.0266656,
2,0,0,1,0,6245.83,0.022722,0.0223875,-0.509844,9,1.44813,10,-1.14141e-05,-3.29256,0.928066,0.0635731,0.0226119,
2,0,0,0,0,6246.63,0.0187268,0.0183962,-0.504028,9,1.44771,10,-9.27218e-06,-3.29755,0.603311,0.0977937,0.0186179,
2,0,0,1,0,6247.43,0.0147313,0.0144384,-0.501094,9,1.4473,10,-7.23497e-06,-3.30008,1.15975,0.0508731,0.0146588,
2,0,0,1,0,6248.23,0.0107365,0.0104304,-0.496076,9,1.44688,10,-5.17426e-06,-3.30445,2.95591,0.01996,0.0106487,
2,0,0,1,0,6249.03,0.00674163,0.00648504,-0.495236,9,1.44647,10,-3.21163e-06,-3.30519,-10.674,-0.00552745,0.00670295,
2,0,0,1,0,6249.83,0.00274612,0.00242219,-0.495721,9,1.44606,10,-1.20073e-06,-3.30476,-2.19193,-0.0269169,0.00264031,
2,0,0,0,0,6250.32,0.000274105,-0.000117749,-0.497426,9,1.4458,10,5.85714e-08,-3.30327, , ,0.000101118,