File: Figure_codes/Fig_3-5/workspace_calculate_alpha_eff/20221101_1-115_003_TrumpetPlot_ParaChange_from10_every3_16_CV_C01_31.csv
mode,ox/red,error,control changes,counter inc.,time/s,control/V,Ewe/V,<I>/mA,cycle number,(Q-Qo)/C,I Range,P/W,log(|I|),Tafel slope mV/dec,alpha_eff,E-IR/V,
2,0,0,0,0,21301.4,2.44065e-05,-0.000439847,-0.0943058,32,0.0000000E+000,10,4.14802e-08,-4.02546, , ,-0.000398353,
2,1,0,0,0,21302.2,0.00379485,0.00350911,0.160385,32,0.000104692,10,5.62809e-07,-3.79484,0.0386068,1.52823,0.00343854,
2,1,0,1,0,21303,0.00779002,0.00745064,0.183762,32,0.000255249,10,1.36915e-06,-3.73574,0.0778935,0.757444,0.00736978,
2,1,0,0,0,21303.8,0.0117852,0.011477,0.200678,32,0.000422037,10,2.30318e-06,-3.6975,0.122629,0.481127,0.0113887,
2,1,0,1,0,21304.6,0.0157806,0.015422,0.216896,32,0.000601321,10,3.34497e-06,-3.66375,0.134812,0.437647,0.0153265,
2,1,0,1,0,21305.4,0.0197754,0.0194471,0.230285,32,0.000791964,10,4.47837e-06,-3.63773,0.149913,0.393562,0.0193457,
2,1,0,1,0,21306.2,0.0237704,0.0234806,0.245202,32,0.000994127,10,5.75748e-06,-3.61048,0.165276,0.356978,0.0233727,
2,1,0,1,0,21307,0.0277659,0.0274457,0.259164,32,0.00120755,10,7.11294e-06,-3.58642,0.164288,0.359126,0.0273316,
2,1,0,0,0,21307.8,0.0317611,0.0314211,0.273603,32,0.00143265,10,8.59692e-06,-3.56288,0.158512,0.372211,0.0313007,
2,1,0,1,0,21308.6,0.0357567,0.0354213,0.288276,32,0.00166951,10,1.02111e-05,-3.54019,0.224694,0.26258,0.0352944,
2,1,0,1,0,21309.4,0.0397516,0.0394676,0.301755,32,0.00191749,10,1.19095e-05,-3.52035,0.158812,0.371509,0.0393348,
2,1,0,1,0,21310.2,0.0437465,0.0434758,0.315826,32,0.00217736,10,1.37308e-05,-3.50055,0.238329,0.247557,0.0433368,
2,1,0,1,0,21311,0.0477413,0.0474317,0.330375,32,0.00244777,10,1.56703e-05,-3.48099,0.216402,0.272641,0.0472864,
2,1,0,0,0,21311.8,0.0517369,0.0513981,0.341662,32,0.00272854,10,1.75608e-05,-3.4664,0.231918,0.254401,0.0512478,
2,1,0,1,0,21312.6,0.0557321,0.0554256,0.354795,32,0.00301994,10,1.96647e-05,-3.45002,0.308296,0.191374,0.0552694,
2,1,0,1,0,21313.4,0.0597277,0.0594027,0.367208,32,0.0033205,10,2.18131e-05,-3.43509,0.302452,0.195072,0.0592411,
2,1,0,1,0,21314.2,0.0637226,0.0634041,0.378129,32,0.00363041,10,2.39749e-05,-3.42236,0.303485,0.194409,0.0632378,
2,1,0,1,0,21315,0.0677174,0.0674122,0.388182,32,0.00394935,10,2.61682e-05,-3.41097,0.440666,0.133888,0.0672414,
2,1,0,0,0,21315.8,0.0717128,0.0713688,0.397254,32,0.00427605,10,2.83515e-05,-3.40093,0.316976,0.186134,0.071194,
2,1,0,1,0,21316.6,0.075708,0.0753845,0.404692,32,0.00461051,10,3.05075e-05,-3.39288,0.449191,0.131347,0.0752065,
2,1,0,0,0,21317.4,0.0797031,0.0793685,0.416014,32,0.00495187,10,3.30184e-05,-3.38089,0.433234,0.136185,0.0791854,
2,1,0,1,0,21318.2,0.0836986,0.0834154,0.424129,32,0.00530017,10,3.53789e-05,-3.3725,0.371343,0.158883,0.0832288,
2,1,0,1,0,21319,0.0876935,0.0873629,0.436516,32,0.00565693,10,3.81353e-05,-3.36,0.341406,0.172815,0.0871708,
2,1,0,1,0,21319.8,0.0916883,0.0913717,0.451037,32,0.00602318,10,4.1212e-05,-3.34579,0.256103,0.230376,0.0911732,
2,1,0,1,0,21320.6,0.0956838,0.0953817,0.467246,32,0.00640276,10,4.45667e-05,-3.33045,0.213422,0.276448,0.0951761,
2,1,0,0,0,21321.4,0.099679,0.099355,0.489548,32,0.00679818,10,4.8639e-05,-3.3102,0.22529,0.261885,0.0991396,
2,1,0,1,0,21322.2,0.103674,0.103368,0.514142,32,0.00721151,10,5.31456e-05,-3.28892,0.177882,0.33168,0.103141,
2,1,0,1,0,21323,0.10767,0.107336,0.53557,32,0.00764419,10,5.74859e-05,-3.27118,0.229386,0.257208,0.1071,
2,1,0,1,0,21323.8,0.111664,0.111331,0.55687,32,0.0080934,10,6.19969e-05,-3.25425,0.264279,0.223249,0.111086,
2,1,0,1,0,21324.5,0.115659,0.115322,0.571988,32,0.00855687,10,6.59629e-05,-3.24261,0.328768,0.179458,0.11507,
2,1,0,0,0,21325.3,0.119655,0.119346,0.587403,32,0.00903379,10,7.0104e-05,-3.23106,0.443403,0.133062,0.119087,
2,1,0,1,0,21326.1,0.12365,0.123318,0.601466,32,0.00952113,10,7.41716e-05,-3.22079,0.366898,0.160808,0.123053,
2,1,0,1,0,21326.9,0.127646,0.127303,0.614636,32,0.0100205,10,7.82452e-05,-3.21138,0.517218,0.114072,0.127033,
2,1,0,1,0,21327.7,0.131641,0.131346,0.622705,32,0.010529,10,8.17901e-05,-3.20572,-6.75276,-0.00873717,0.131072,
2,1,0,1,0,21328.5,0.135635,0.135298,0.616111,32,0.0110379,10,8.33587e-05,-3.21034,-0.398848,-0.147926,0.135027,
2,1,0,0,0,21329.3,0.139631,0.139292,0.58495,32,0.0115332,10,8.14788e-05,-3.23288,-0.132913,-0.443898,0.139035,
2,1,0,1,0,21330.1,0.143626,0.143317,0.538235,32,0.0119961,10,7.71384e-05,-3.26903,-0.0876772,-0.672923,0.143081,
2,1,0,0,0,21330.9,0.147621,0.147289,0.476104,32,0.0124134,10,7.01247e-05,-3.3223,-0.0694987,-0.848936,0.147079,
2,1,0,1,0,21331.7,0.151617,0.151304,0.417627,32,0.0127822,10,6.31885e-05,-3.37921,-0.0768106,-0.768123,0.15112,
2,1,0,1,0,21332.5,0.155612,0.155312,0.375823,32,0.0131101,10,5.83698e-05,-3.42502,-0.0961218,-0.613804,0.155146,
2,1,0,1,0,21333.3,0.159606,0.159288,0.345238,32,0.0134089,10,5.49923e-05,-3.46188,-0.128455,-0.459305,0.159136,
2,1,0,1,0,21334.1,0.163602,0.163292,0.325053,32,0.0136882,10,5.30786e-05,-3.48805,-0.17203,-0.342963,0.163149,
2,1,0,0,0,21334.9,0.167597,0.16725,0.310851,32,0.0139538,10,5.19897e-05,-3.50745,-0.277971,-0.212252,0.167113,
2,1,0,1,0,21335.7,0.171592,0.171237,0.299106,32,0.0142101,10,5.12179e-05,-3.52418,-0.311383,-0.189477,0.171105,
2,1,0,1,0,21336.5,0.175588,0.175262,0.292614,32,0.0144589,10,5.12843e-05,-3.5337,-0.350816,-0.168179,0.175134,
2,1,0,1,0,21337.3,0.179582,0.17924,0.286314,32,0.0147017,10,5.13188e-05,-3.54316,-0.494697,-0.119265,0.179114,
2,1,0,1,0,21338.1,0.183577,0.183253,0.280771,32,0.0149405,10,5.14522e-05,-3.55165,-0.516327,-0.114269,0.18313,
2,1,0,0,0,21338.9,0.187573,0.187273,0.276502,32,0.0151753,10,5.17815e-05,-3.5583,-0.662756,-0.0890222,0.187152,
2,1,0,1,0,21339.7,0.191568,0.191213,0.272875,32,0.0154071,10,5.21771e-05,-3.56404,-0.699423,-0.0843553,0.191093,
2,1,0,0,0,21340.5,0.195563,0.195209,0.270643,32,0.0156366,10,5.2832e-05,-3.5676,-0.934595,-0.0631289,0.19509,
2,1,0,1,0,21341.3,0.199559,0.199206,0.268547,32,0.0158635,10,5.34963e-05,-3.57098,-1.15139,-0.0512423,0.199088,
2,1,0,1,0,21342.1,0.203553,0.203207,0.264953,32,0.0160887,10,5.38403e-05,-3.57683,-1.54461,-0.0381974,0.20309,
2,1,0,1,0,21342.9,0.207548,0.207249,0.264223,32,0.0163123,10,5.47599e-05,-3.57803,-1.04178,-0.0566336,0.207132,
2,1,0,1,0,21343.7,0.211544,0.211226,0.260554,32,0.0165337,10,5.50358e-05,-3.5841,-0.916081,-0.0644048,0.211111,
2,1,0,0,0,21344.5,0.215539,0.215243,0.260391,32,0.0167535,10,5.60472e-05,-3.58437,-1.46762,-0.0402012,0.215128,
2,1,0,1,0,21345.3,0.219535,0.219229,0.257811,32,0.0169716,10,5.65197e-05,-3.5887,-2.03083,-0.0290522,0.219116,
2,1,0,1,0,21346.1,0.223529,0.223227,0.255587,32,0.0171884,10,5.70539e-05,-3.59246,-1.22861,-0.0480217,0.223114,
2,1,0,1,0,21346.9,0.227524,0.227223,0.254793,32,0.0174041,10,5.78947e-05,-3.59381,-0.837464,-0.0704508,0.227111,
2,1,0,1,0,21347.7,0.23152,0.231208,0.253632,32,0.0176186,10,5.86417e-05,-3.5958,12.5915,0.00468572,0.231097,
2,1,0,0,0,21348.5,0.235515,0.235229,0.251279,32,0.017832,10,5.91081e-05,-3.59984,-1.45906,-0.0404369,0.235119,
2,1,0,1,0,21349.3,0.23951,0.239184,0.250354,32,0.0180442,10,5.98809e-05,-3.60144,-1.2241,-0.0481987,0.239074,
2,1,0,1,0,21350.1,0.243506,0.243189,0.249953,32,0.0182555,10,6.07858e-05,-3.60214,2.96874,0.0198737,0.243079,
2,1,0,1,0,21350.9,0.2475,0.247182,0.249437,32,0.0184663,10,6.16564e-05,-3.60304,-0.783045,-0.0753468,0.247072,
2,1,0,1,0,21351.7,0.251495,0.251178,0.248476,32,0.018676,10,6.24117e-05,-3.60472,8.12478,0.00726173,0.251069,
2,1,0,0,0,21352.5,0.255491,0.255168,0.246594,32,0.0188851,10,6.29229e-05,-3.60802,-1.59749,-0.0369328,0.255059,
2,1,0,1,0,21353.3,0.259486,0.259184,0.245717,32,0.0190934,10,6.36857e-05,-3.60957,-0.936267,-0.0630162,0.259076,
2,1,0,0,0,21354.1,0.263481,0.263172,0.244652,32,0.0193005,10,6.43855e-05,-3.61145,2.50183,0.0235827,0.263064,
2,1,0,1,0,21354.9,0.267477,0.267203,0.242712,32,0.019507,10,6.48533e-05,-3.61491,-1.17413,-0.0502498,0.267096,
2,1,0,1,0,21355.7,0.271471,0.271139,0.242118,32,0.0197127,10,6.56476e-05,-3.61597,13.7888,0.00427885,0.271032,
2,1,0,1,0,21356.5,0.275466,0.275172,0.241346,32,0.0199176,10,6.64117e-05,-3.61736,-1.2955,-0.0455421,0.275066,
2,1,0,1,0,21357.3,0.279462,0.279168,0.240053,32,0.0201219,10,6.7015e-05,-3.61969,-2.39773,-0.0246066,0.279063,
2,1,0,0,0,21358.1,0.283457,0.283139,0.239695,32,0.0203251,10,6.78671e-05,-3.62034,-2.72778,-0.0216293,0.283034,
2,1,0,1,0,21358.9,0.287452,0.287102,0.238293,32,0.0205275,10,6.84145e-05,-3.62289,-1.92928,-0.0305813,0.286997,
2,1,0,1,0,21359.7,0.291448,0.291121,0.238088,32,0.0207292,10,6.93125e-05,-3.62326,-0.72227,-0.0816869,0.291016,
2,1,0,1,0,21360.5,0.295442,0.295125,0.237107,32,0.02093,10,6.99763e-05,-3.62505,1.28347,0.0459692,0.295021,
2,1,0,1,0,21361.3,0.299437,0.299101,0.235056,32,0.0211304,10,7.03055e-05,-3.62883,-1.94329,-0.0303609,0.298998,
2,1,0,0,0,21362.1,0.303433,0.303135,0.235427,32,0.02133,10,7.13662e-05,-3.62814,-7.90452,-0.00746409,0.303032,
2,1,0,1,0,21362.9,0.307428,0.307113,0.234769,32,0.0215289,10,7.21005e-05,-3.62936,-1.04114,-0.0566687,0.30701,
2,1,0,1,0,21363.7,0.311424,0.311148,0.234593,32,0.0217272,10,7.29933e-05,-3.62968,-5.47347,-0.0107793,0.311045,
2,1,0,1,0,21364.5,0.315418,0.315102,0.23284,32,0.0219247,10,7.33683e-05,-3.63294,-60.6737,-0.000972415,0.315,
2,1,0,1,0,21365.3,0.319413,0.319113,0.232143,32,0.0221215,10,7.40797e-05,-3.63424,-6.81783,-0.00865378,0.31901,
2,1,0,0,0,21366.1,0.323409,0.323115,0.231425,32,0.022318,10,7.47768e-05,-3.63559,-1.29639,-0.0455109,0.323013,
2,1,0,1,0,21366.9,0.327404,0.327129,0.231403,32,0.0225136,10,7.56987e-05,-3.63563,48.4154,0.00121862,0.327027,
2,1,0,0,0,21367.7,0.331399,0.331108,0.228736,32,0.0227086,10,7.57364e-05,-3.64066,-15.2572,-0.00386703,0.331007,
2,1,0,1,0,21368.5,0.335395,0.335106,0.229269,32,0.0229031,10,7.68294e-05,-3.63965,-1.05149,-0.0561107,0.335005,
2,1,0,1,0,21369.3,0.339389,0.339077,0.228939,32,0.0230969,10,7.7628e-05,-3.64028,13.4952,0.00437194,0.338976,
2,1,0,1,0,21370.1,0.343384,0.343066,0.228057,32,0.0232904,10,7.82385e-05,-3.64196,-1.77614,-0.0332181,0.342966,
2,1,0,1,0,21370.9,0.34738,0.347059,0.227997,32,0.0234832,10,7.91285e-05,-3.64207,-13.0756,-0.00451221,0.346958,
2,1,0,0,0,21371.7,0.351375,0.351104,0.226826,32,0.0236759,10,7.96394e-05,-3.64431,-2.10742,-0.0279963,0.351004,
2,1,0,1,0,21372.5,0.35537,0.355063,0.226858,32,0.0238682,10,8.05487e-05,-3.64425,-2.46774,-0.0239085,0.354963,
2,1,0,1,0,21373.3,0.359366,0.359053,0.226101,32,0.0240601,10,8.11823e-05,-3.6457,6.86613,0.00859291,0.358953,
2,1,0,1,0,21374.1,0.36336,0.363058,0.22542,32,0.0242516,10,8.18405e-05,-3.64701,-1.64767,-0.035808,0.362959,
2,1,0,1,0,21374.9,0.367355,0.367018,0.225631,32,0.0244424,10,8.28107e-05,-3.6466,7.96369,0.00740862,0.366919,
2,1,0,0,0,21375.7,0.371351,0.371041,0.224739,32,0.0246328,10,8.33874e-05,-3.64832,5.99795,0.00983669,0.370942,
2,1,0,1,0,21376.5,0.375346,0.375016,0.224786,32,0.024823,10,8.42985e-05,-3.64823,-6.11068,-0.00965522,0.374917,
2,1,0,1,0,21377.3,0.379342,0.379025,0.224906,32,0.0250128,10,8.5245e-05,-3.648,-2.89465,-0.0203824,0.378926,
2,1,0,1,0,21378.1,0.383336,0.383078,0.224506,32,0.0252024,10,8.60031e-05,-3.64877,-2.82171,-0.0209093,0.382979,
2,1,0,1,0,21378.9,0.387331,0.386991,0.22372,32,0.0253918,10,8.65777e-05,-3.65029,-2.5961,-0.0227264,0.386893,
2,1,0,0,0,21379.7,0.391327,0.390988,0.222612,32,0.0255805,10,8.70386e-05,-3.65245,-9.5509,-0.00617743,0.39089,
2,1,0,1,0,21380.5,0.395322,0.395022,0.221241,32,0.0257691,10,8.73951e-05,-3.65513,3.24542,0.0181795,0.394924,
2,1,0,0,0,21381.3,0.399317,0.399008,0.222596,32,0.0259574,10,8.88174e-05,-3.65248,-1.54818,-0.0381094,0.39891,
2,1,0,1,0,21382.1,0.403313,0.403046,0.221234,32,0.0261454,10,8.91677e-05,-3.65515,7.21429,0.00817821,0.402949,
2,1,0,1,0,21382.9,0.407307,0.407027,0.22163,32,0.0263333,10,9.02094e-05,-3.65437,-2.46654,-0.0239202,0.406929,
2,1,0,1,0,21383.7,0.411302,0.410973,0.222307,32,0.0265207,10,9.13621e-05,-3.65305,470.893,0.000125294,0.410875,
2,1,0,1,0,21384.5,0.415298,0.415021,0.221784,32,0.0267082,10,9.20452e-05,-3.65407,-4.78485,-0.0123306,0.414923,
2,1,0,0,0,21385.3,0.419293,0.41899,0.221924,32,0.0268953,10,9.29841e-05,-3.6538,-73.5445,-0.000802235,0.418893,
2,1,0,1,0,21386.1,0.423288,0.423011,0.221153,32,0.0270823,10,9.35503e-05,-3.65531,-14.5598,-0.00405226,0.422914,
2,1,0,1,0,21386.9,0.427283,0.426971,0.220693,32,0.0272692,10,9.42296e-05,-3.65621,27.3824,0.00215467,0.426874,
2,1,0,1,0,21387.7,0.431278,0.430948,0.220982,32,0.0274559,10,9.52319e-05,-3.65564,2.30283,0.0256206,0.430851,
2,1,0,1,0,21388.5,0.435273,0.434954,0.220911,32,0.0276426,10,9.6086e-05,-3.65578,-8.55932,-0.00689307,0.434857,
2,1,0,0,0,21389.3,0.439269,0.438963,0.221503,32,0.0278296,10,9.72317e-05,-3.65462,-38.8788,-0.00151754,0.438866,
2,1,0,1,0,21390.1,0.443264,0.442969,0.221375,32,0.0280163,10,9.80623e-05,-3.65487,-9.87857,-0.00597252,0.442872,
2,1,0,0,0,21390.9,0.447259,0.446951,0.221835,32,0.0282029,10,9.91492e-05,-3.65397,4.80466,0.0122798,0.446853,
2,1,0,1,0,21391.7,0.451254,0.450946,0.221743,32,0.0283899,10,9.99941e-05,-3.65415,-2.20559,-0.0267503,0.450848,
2,1,0,1,0,21392.5,0.455249,0.454945,0.22171,32,0.0285768,10,0.000100866,-3.65421,1.83474,0.0321571,0.454848,
2,1,0,1,0,21393.3,0.459244,0.458914,0.22137,32,0.0287638,10,0.00010159,-3.65488,7.66119,0.00770115,0.458817,
2,1,0,1,0,21394.1,0.46324,0.462926,0.221911,32,0.0289512,10,0.000102728,-3.65382,5.93613,0.00993913,0.462828,
2,1,0,0,0,21394.9,0.467235,0.466928,0.222655,32,0.0291385,10,0.000103964,-3.65237,4.19652,0.0140593,0.46683,
2,1,0,1,0,21395.7,0.471231,0.470907,0.222495,32,0.0293261,10,0.000104774,-3.65268,-8.60194,-0.00685892,0.470809,
2,1,0,1,0,21396.5,0.475225,0.474879,0.223843,32,0.0295142,10,0.000106299,-3.65006,5.21679,0.0113096,0.474781,
2,1,0,1,0,21397.3,0.47922,0.478908,0.224378,32,0.0297025,10,0.000107457,-3.64902,1.43773,0.0410371,0.478809,
2,1,0,1,0,21398.1,0.483216,0.482914,0.224482,32,0.0298913,10,0.000108405,-3.64882,-37.5712,-0.00157035,0.482815,
2,1,0,0,0,21398.9,0.487211,0.486924,0.225319,32,0.0300803,10,0.000109713,-3.6472,6.14216,0.00960575,0.486825,
2,1,0,1,0,21399.7,0.491206,0.490938,0.225262,32,0.0302699,10,0.00011059,-3.64731,6.15687,0.00958279,0.490839,
2,1,0,1,0,21400.5,0.495201,0.494888,0.226691,32,0.0304598,10,0.000112187,-3.64457,4.1713,0.0141443,0.494788,
2,1,0,1,0,21401.3,0.499196,0.498893,0.227355,32,0.0306504,10,0.000113426,-3.6433,0.902944,0.0653418,0.498793,
2,1,0,1,0,21402.1,0.503191,0.502892,0.227823,32,0.0308419,10,0.00011457,-3.6424,14.8137,0.00398279,0.502792,
2,1,0,0,0,21402.9,0.507187,0.506866,0.229539,32,0.0310339,10,0.000116346,-3.63914,1.29444,0.0455795,0.506765,
2,1,0,1,0,21403.7,0.511182,0.510874,0.230397,32,0.0312267,10,0.000117704,-3.63752,1.31943,0.0447164,0.510773,
2,1,0,0,0,21404.5,0.515177,0.51488,0.231136,32,0.0314205,10,0.000119007,-3.63613,7.72511,0.00763743,0.514778,
2,1,0,1,0,21405.3,0.519173,0.51887,0.233298,32,0.0316154,10,0.000121051,-3.63209,0.821287,0.0718385,0.518768,
2,1,0,1,0,21406.1,0.523167,0.522882,0.233805,32,0.0318112,10,0.000122252,-3.63115,2.99683,0.0196875,0.522779,
2,1,0,1,0,21406.9,0.527162,0.526854,0.23627,32,0.0320082,10,0.00012448,-3.62659,1.54049,0.0382995,0.52675,
2,1,0,1,0,21407.6,0.531158,0.530812,0.237743,32,0.0322064,10,0.000126197,-3.62389,1.60458,0.0367698,0.530708,
2,1,0,0,0,21408.4,0.535153,0.534877,0.238728,32,0.0324059,10,0.00012769,-3.6221,0.989504,0.0596258,0.534772,
2,1,0,1,0,21409.2,0.539148,0.538836,0.24144,32,0.0326066,10,0.000130097,-3.61719,1.30865,0.0450845,0.53873,
2,1,0,1,0,21410,0.543143,0.542821,0.242457,32,0.032809,10,0.000131611,-3.61536,1.28322,0.0459782,0.542715,
2,1,0,1,0,21410.8,0.547138,0.546856,0.244965,32,0.033013,10,0.000133961,-3.6109,1.17207,0.0503384,0.546748,
2,1,0,1,0,21411.6,0.551133,0.550837,0.247814,32,0.0332188,10,0.000136505,-3.60587,0.545268,0.108204,0.550728,
2,1,0,0,0,21412.4,0.555129,0.554831,0.249106,32,0.0334269,10,0.000138212,-3.60362,1.19612,0.0493261,0.554722,
2,1,0,1,0,21413.2,0.559124,0.558816,0.25315,32,0.0336371,10,0.000141464,-3.59662,0.745274,0.0791655,0.558705,
2,1,0,1,0,21414,0.56312,0.562806,0.25661,32,0.0338497,10,0.000144422,-3.59073,0.730254,0.0807938,0.562693,
2,1,0,1,0,21414.8,0.567114,0.566824,0.259412,32,0.0340651,10,0.000147041,-3.58601,0.727137,0.0811402,0.566709,
2,1,0,1,0,21415.6,0.571109,0.570799,0.263556,32,0.0342833,10,0.000150437,-3.57913,0.539534,0.109354,0.570683,
2,1,0,0,0,21416.4,0.575105,0.574804,0.268091,32,0.0345049,10,0.0001541,-3.57172,0.5509,0.107098,0.574686,
2,1,0,1,0,21417.2,0.5791,0.578777,0.273363,32,0.0347304,10,0.000158217,-3.56326,0.512617,0.115096,0.578657,
2,1,0,0,0,21418,0.583095,0.582806,0.278147,32,0.0349596,10,0.000162106,-3.55573,0.384652,0.153385,0.582684,
2,1,0,1,0,21418.8,0.58709,0.586742,0.284299,32,0.0351935,10,0.00016681,-3.54622,0.436232,0.135249,0.586617,
2,1,0,1,0,21419.6,0.591085,0.590789,0.29199,32,0.0354327,10,0.000172504,-3.53463,0.339631,0.173718,0.59066,
2,1,0,1,0,21420.4,0.59508,0.594744,0.299676,32,0.0356778,10,0.000178231,-3.52335,0.351844,0.167688,0.594612,
2,1,0,1,0,21421.2,0.599076,0.598754,0.308177,32,0.0359295,10,0.000184522,-3.5112,0.29667,0.198874,0.598619,
2,1,0,0,0,21422,0.603071,0.602779,0.318919,32,0.0361883,10,0.000192238,-3.49632,0.282345,0.208964,0.602638,
2,1,0,1,0,21422.8,0.607066,0.606732,0.329309,32,0.0364559,10,0.000199802,-3.4824,0.241469,0.244338,0.606587,
2,1,0,1,0,21423.6,0.611061,0.610798,0.342489,32,0.036733,10,0.000209192,-3.46535,0.239356,0.246495,0.610647,
2,1,0,1,0,21424.4,0.615056,0.614748,0.356319,32,0.037021,10,0.000219046,-3.44816,0.189604,0.311175,0.614591,
2,1,0,1,0,21425.2,0.619051,0.618793,0.375028,32,0.0373227,10,0.000232064,-3.42594,0.187349,0.31492,0.618628,
2,1,0,0,0,21426,0.623047,0.6228,0.395555,32,0.0376395,10,0.000246352,-3.40279,0.161414,0.365519,0.622626,
2,1,0,1,0,21426.8,0.627042,0.626791,0.419907,32,0.0379741,10,0.000263194,-3.37685,0.147892,0.398938,0.626606,
2,1,0,1,0,21427.6,0.631037,0.630782,0.447645,32,0.0383293,10,0.000282366,-3.34907,0.140863,0.418847,0.630585,
2,1,0,1,0,21428.4,0.635032,0.634759,0.480114,32,0.0387081,10,0.000304756,-3.31866,0.124677,0.473221,0.634548,
2,1,0,1,0,21429.2,0.639027,0.638704,0.517604,32,0.0391151,10,0.000330595,-3.286,0.112962,0.522299,0.638476,
2,1,0,1,0,21430,0.643022,0.642715,0.561904,32,0.0395551,10,0.000361145,-3.25034,0.111022,0.531426,0.642468,
2,1,0,1,0,21430.8,0.647018,0.646733,0.61398,32,0.0400333,10,0.000397081,-3.21185,0.0953292,0.618908,0.646462,
2,1,0,0,0,21431.6,0.651013,0.650777,0.677033,32,0.0405578,10,0.000440598,-3.16939,0.0937597,0.629268,0.650479,
2,1,0,1,0,21432.4,0.655008,0.654749,0.750049,32,0.0411359,10,0.000491094,-3.12491,0.0856512,0.68884,0.654419,
2,1,0,1,0,21433.2,0.659003,0.658731,0.834122,32,0.0417772,10,0.000549462,-3.07877,0.0850831,0.693439,0.658364,
2,1,0,1,0,21434,0.662998,0.662742,0.933342,32,0.0424918,10,0.000618565,-3.02996,0.0770968,0.765272,0.662332,
2,1,0,1,0,21434.8,0.666994,0.666706,1.04846,32,0.0432916,10,0.000699016,-2.97945,0.0785094,0.751502,0.666245,
2,1,0,0,0,21435.6,0.670989,0.670669,1.18045,32,0.04419,10,0.000791691,-2.92795,0.0745486,0.79143,0.67015,
2,1,0,1,0,21436.4,0.674984,0.674714,1.33371,32,0.0452023,10,0.000899874,-2.87494,0.073972,0.797599,0.674127,
2,1,0,1,0,21437.2,0.67898,0.678708,1.50821,32,0.0463451,10,0.00102363,-2.82154,0.0748953,0.787767,0.678045,
2,1,0,1,0,21438,0.682974,0.682701,1.70354,32,0.047636,10,0.00116301,-2.76865,0.0723605,0.815362,0.681951,
2,1,0,1,0,21438.8,0.686969,0.686683,1.92691,32,0.0490944,10,0.00132318,-2.71514,0.0739907,0.797398,0.685835,
2,1,0,0,0,21439.6,0.690965,0.690666,2.1739,32,0.0507404,10,0.00150144,-2.66276,0.0739162,0.798201,0.68971,
2,1,0,1,0,21440.4,0.69496,0.6947,2.44944,32,0.0525956,10,0.00170163,-2.61093,0.0748162,0.7886,0.693622,
2,1,0,0,0,21441.2,0.698955,0.69869,2.75226,32,0.0546812,10,0.00192298,-2.56031,0.07761,0.760212,0.697479,
2,1,0,1,0,21442,0.70295,0.702667,3.08096,32,0.0570199,10,0.00216489,-2.51131,0.0792319,0.74465,0.701311,
2,1,0,1,0,21442.8,0.706945,0.706656,3.44186,32,0.0596335,10,0.00243221,-2.46321,0.0827209,0.713242,0.705142,
2,1,0,1,0,21443.6,0.71094,0.71068,3.82867,32,0.0625455,10,0.00272096,-2.41695,0.0825358,0.714842,0.708995,
2,1,0,1,0,21444.4,0.714936,0.714664,4.24405,32,0.065779,10,0.00303307,-2.37222,0.0876163,0.673391,0.712797,
2,1,0,0,0,21445.2,0.718931,0.71867,4.68851,32,0.0693548,10,0.00336949,-2.32897,0.088782,0.664549,0.716607,
2,1,0,1,0,21446,0.722927,0.722663,5.15926,32,0.0732972,10,0.0037284,-2.28741,0.0932147,0.632947,0.720392,
2,1,0,1,0,21446.8,0.726921,0.726648,5.65853,32,0.0776267,10,0.00411176,-2.2473,0.0969531,0.608542,0.724158,
2,1,0,1,0,21447.6,0.730916,0.73067,6.18322,32,0.0823649,10,0.00451789,-2.20879,0.097728,0.603716,0.727949,
2,1,0,1,0,21448.4,0.734911,0.734633,6.7356,32,0.0875345,10,0.00494819,-2.17162,0.102692,0.574534,0.73167,
2,1,0,0,0,21449.2,0.738907,0.738609,7.31497,32,0.0931564,10,0.00540291,-2.13579,0.105888,0.557194,0.735391,
2,1,0,1,0,21450,0.742902,0.742605,7.92068,32,0.0992512,10,0.00588194,-2.10124,0.109271,0.539941,0.73912,
2,1,0,1,0,21450.8,0.746897,0.746643,8.55507,32,0.105842,10,0.00638759,-2.06778,0.113851,0.518222,0.742879,
2,1,0,1,0,21451.6,0.750892,0.750621,9.21658,32,0.112949,10,0.00691815,-2.03543,0.116026,0.508506,0.746565,
2,1,0,1,0,21452.4,0.754887,0.754548,9.90544,32,0.120597,10,0.00747413,-2.00413,0.118025,0.499894,0.75019,
2,1,0,0,0,21453.2,0.758883,0.758629,10.6297,32,0.12881,10,0.00806399,-1.97348,0.120406,0.490008,0.753952,
2,1,0,1,0,21454,0.762878,0.762608,11.3891,32,0.137615,10,0.00868544,-1.94351,0.12383,0.476459,0.757596,
2,1,0,0,0,21454.8,0.766873,0.766659,12.193,32,0.147044,10,0.00934791,-1.91389,0.124104,0.475407,0.761294,
2,1,0,1,0,21455.6,0.770868,0.770567,13.0448,32,0.157134,10,0.0100519,-1.88456,0.122714,0.480793,0.764828,
2,1,0,1,0,21456.4,0.774863,0.774586,13.9533,32,0.167925,10,0.010808,-1.85532,0.124085,0.475481,0.768446,
2,1,0,1,0,21457.2,0.778858,0.778584,14.9047,32,0.179461,10,0.0116046,-1.82668,0.122654,0.481027,0.772026,
2,1,0,1,0,21458,0.782854,0.782593,15.9285,32,0.191787,10,0.0124655,-1.79783,0.123117,0.479219,0.775584,
2,1,0,0,0,21458.8,0.786849,0.786573,17.0037,32,0.204952,10,0.0133746,-1.76946,0.122771,0.480571,0.779091,
2,1,0,1,0,21459.6,0.790844,0.790552,18.139,32,0.219004,10,0.0143398,-1.74139,0.12702,0.464493,0.782571,
2,1,0,1,0,21460.4,0.794839,0.794561,19.3536,32,0.233987,10,0.0153776,-1.71324,0.181256,0.325507,0.786046,
2,1,0,1,0,21461.2,0.798834,0.79858,20.1521,32,0.249747,10,0.016093,-1.69568,0.138759,0.425199,0.789713,
2,1,0,1,0,21462,0.802829,0.802527,21.4455,32,0.266371,10,0.0172106,-1.66866,0.127995,0.460956,0.793091,
2,1,0,0,0,21462.8,0.806825,0.806558,22.7498,32,0.284043,10,0.018349,-1.64302,0.136266,0.432977,0.796548,
2,1,0,1,0,21463.6,0.81082,0.810543,24.0847,32,0.302762,10,0.0195217,-1.61826,0.137794,0.428174,0.799946,
2,1,0,1,0,21464.4,0.814815,0.814542,25.4934,32,0.322579,10,0.0207654,-1.59357,0.138757,0.425204,0.803325,
2,1,0,1,0,21465.2,0.81881,0.81855,26.9254,32,0.343527,10,0.0220398,-1.56984,0.14099,0.41847,0.806703,
2,1,0,1,0,21466,0.822805,0.822559,28.4334,32,0.365652,10,0.0233882,-1.54617,0.141652,0.416512,0.810049,
2,1,0,0,0,21466.8,0.826801,0.826569,29.9908,32,0.389009,10,0.0247894,-1.52301,0.146656,0.402301,0.813373,
2,1,0,1,0,21467.6,0.830796,0.830553,31.5363,32,0.41361,10,0.0261926,-1.50119,0.153659,0.383966,0.816677,
2,1,0,0,0,21468.4,0.834791,0.834573,33.0661,32,0.439437,10,0.0275961,-1.48062,0.174718,0.337686,0.820024,
2,1,0,1,0,21469.2,0.838786,0.838561,34.5755,32,0.466471,10,0.0289937,-1.46123,0.169112,0.34888,0.823347,
2,1,0,1,0,21470,0.842781,0.842522,36.1597,32,0.494736,10,0.0304653,-1.44178,0.174045,0.338993,0.826611,
2,1,0,1,0,21470.8,0.846776,0.846538,37.7255,32,0.524263,10,0.0319361,-1.42336,0.178585,0.330374,0.829939,
2,1,0,0,0,21471.5,0.849723,0.849495,38.7622,32,0.551141,10,0.0329283,-1.41159,0.0493363,1.19587,0.83244,
2,1,0,1,0,21472.3,0.845728,0.845478,36.5446,32,0.581126,10,0.0308977,-1.43718,0.147093,0.401108,0.829399,
2,1,0,0,0,21473.1,0.841732,0.841496,34.7979,32,0.609602,10,0.0292823,-1.45845,0.152606,0.386616,0.826185,
2,1,0,1,0,21473.9,0.837737,0.837474,33.0902,32,0.636716,10,0.0277122,-1.4803,0.145475,0.405569,0.822914,
2,1,0,1,0,21474.7,0.833742,0.833509,31.4539,32,0.662483,10,0.0262172,-1.50232,0.147789,0.399218,0.81967,
2,1,0,1,0,21475.5,0.829747,0.829504,29.8322,32,0.68695,10,0.0247459,-1.52532,0.142764,0.413271,0.816377,
2,1,0,1,0,21476.3,0.825752,0.825499,28.2656,32,0.710155,10,0.0233332,-1.54874,0.134979,0.437105,0.813062,
2,1,0,0,0,21477.1,0.821757,0.821528,26.6942,32,0.732093,10,0.02193,-1.57358,0.133246,0.44279,0.809783,
2,1,0,1,0,21477.9,0.817761,0.817497,25.1782,32,0.752801,10,0.0205831,-1.59898,0.132433,0.445507,0.806418,
2,1,0,1,0,21478.7,0.813766,0.813473,23.7534,32,0.772336,10,0.0193227,-1.62427,0.129755,0.454704,0.803021,
2,1,0,1,0,21479.5,0.809771,0.80953,22.3459,32,0.790744,10,0.0180897,-1.6508,0.126039,0.468111,0.799697,
2,1,0,1,0,21480.3,0.805776,0.805503,20.9105,32,0.808009,10,0.0168435,-1.67964,0.117307,0.502955,0.796303,
2,1,0,0,0,21481.1,0.801781,0.80154,19.5984,32,0.824189,10,0.0157089,-1.70778,0.117816,0.500783,0.792917,
2,1,0,1,0,21481.9,0.797786,0.797531,18.3438,32,0.839332,10,0.0146297,-1.73651,0.119463,0.493875,0.78946,
2,1,0,1,0,21482.7,0.79379,0.793502,17.1444,32,0.853496,10,0.0136041,-1.76588,0.118093,0.499606,0.785958,
2,1,0,1,0,21483.5,0.789795,0.789524,16.0096,32,0.866729,10,0.01264,-1.79562,0.114308,0.51615,0.782479,
2,1,0,1,0,21484.3,0.7858,0.78551,14.9131,32,0.87907,10,0.0117144,-1.82643,0.114202,0.51663,0.778948,
2,1,0,0,0,21485.1,0.781805,0.781545,13.8764,32,0.890557,10,0.0108451,-1.85772,0.113738,0.518735,0.77544,
2,1,0,1,0,21485.9,0.77781,0.777535,12.8793,32,0.901232,10,0.0100141,-1.89011,0.108158,0.545496,0.771868,
2,1,0,0,0,21486.7,0.773815,0.773534,11.9453,32,0.911137,10,0.00924013,-1.9228,0.108014,0.546227,0.768278,
2,1,0,1,0,21487.5,0.769819,0.769559,11.0605,32,0.920315,10,0.00851168,-1.95623,0.108495,0.543805,0.764693,
2,1,0,1,0,21488.3,0.765824,0.765526,10.2356,32,0.92881,10,0.00783563,-1.98989,0.107641,0.548121,0.761022,
2,1,0,1,0,21489.1,0.761829,0.761536,9.43937,32,0.936657,10,0.00718842,-2.02506,0.101694,0.580174,0.757382,
2,1,0,1,0,21489.9,0.757834,0.757585,8.69241,32,0.943889,10,0.00658524,-2.06086,0.101519,0.58117,0.753761,
2,1,0,0,0,21490.6,0.753839,0.753525,7.98741,32,0.950539,10,0.00601871,-2.09759,0.099042,0.595707,0.750011,
2,1,0,1,0,21491.4,0.749844,0.749521,7.32226,32,0.956643,10,0.00548819,-2.13535,0.0961703,0.613495,0.746299,
2,1,0,1,0,21492.2,0.745848,0.745619,6.69773,32,0.962233,10,0.00499395,-2.17407,0.094962,0.621301,0.742672,
2,1,0,1,0,21493,0.741853,0.741565,6.11022,32,0.967338,10,0.00453112,-2.21394,0.0934643,0.631257,0.738876,
2,1,0,1,0,21493.8,0.737858,0.737588,5.55843,32,0.971987,10,0.00409983,-2.25505,0.0893663,0.660204,0.735142,
2,1,0,0,0,21494.6,0.733863,0.733559,5.04184,32,0.976211,10,0.00369849,-2.29741,0.0875428,0.673956,0.73134,
2,1,0,1,0,21495.4,0.729868,0.729587,4.55539,32,0.980033,10,0.00332355,-2.34147,0.0848127,0.69565,0.727583,
2,1,0,1,0,21496.2,0.725872,0.725624,4.10548,32,0.983482,10,0.00297904,-2.38664,0.08361,0.705657,0.723818,
2,1,0,1,0,21497,0.721877,0.721577,3.68806,32,0.986583,10,0.00266122,-2.4332,0.079624,0.740982,0.719954,
2,1,0,1,0,21497.8,0.717882,0.717592,3.30053,32,0.989365,10,0.00236843,-2.48142,0.0782793,0.753711,0.71614,
2,1,0,0,0,21498.6,0.713887,0.713579,2.94145,32,0.991847,10,0.00209895,-2.53144,0.076541,0.770828,0.712284,
2,1,0,1,0,21499.4,0.709892,0.709644,2.60902,32,0.994054,10,0.00185148,-2.58352,0.071672,0.823195,0.708496,
2,1,0,0,0,21500.2,0.705897,0.7056,2.30451,32,0.996006,10,0.00162606,-2.63742,0.0752929,0.783606,0.704586,
2,1,0,1,0,21501,0.701901,0.701644,2.03858,32,0.997731,10,0.00143036,-2.69067,0.0667543,0.883838,0.700747,
2,1,0,1,0,21501.8,0.697906,0.697603,1.78267,32,0.999247,10,0.0012436,-2.74893,0.0658523,0.895944,0.696819,
2,1,0,1,0,21502.6,0.693911,0.693621,1.54926,32,1.00057,10,0.0010746,-2.80987,0.0630169,0.936256,0.692939,
2,1,0,1,0,21503.4,0.689916,0.689658,1.34968,32,1.00171,10,0.000930818,-2.86977,0.071426,0.826029,0.689064,
2,1,0,0,0,21504.2,0.685921,0.685629,1.17539,32,1.00272,10,0.000805883,-2.92982,0.0570008,1.03507,0.685112,
2,1,0,1,0,21505,0.681926,0.681609,1.00453,32,1.00358,10,0.000684696,-2.99804,0.0567155,1.04028,0.681167,
2,1,0,1,0,21505.8,0.67793,0.677668,0.850355,32,1.00431,10,0.000576258,-3.0704,0.0538793,1.09504,0.677293,
2,1,0,1,0,21506.6,0.673935,0.673668,0.714904,32,1.00492,10,0.000481608,-3.14575,0.0502756,1.17353,0.673354,
2,1,0,1,0,21507.4,0.66994,0.669677,0.594393,32,1.00544,10,0.000398051,-3.22593,0.0479901,1.22942,0.669415,
2,1,0,0,0,21508.2,0.665945,0.665679,0.490016,32,1.00586,10,0.000326193,-3.30979,0.0466897,1.26366,0.665463,
2,1,0,1,0,21509,0.66195,0.661647,0.399919,32,1.0062,10,0.000264605,-3.39803,0.0425744,1.38581,0.661471,
2,1,0,0,0,21509.8,0.657955,0.65767,0.321411,32,1.00648,10,0.000211382,-3.49294,0.0397913,1.48273,0.657528,
2,1,0,1,0,21510.6,0.653959,0.653666,0.253932,32,1.0067,10,0.000165987,-3.59528,0.037378,1.57847,0.653554,
2,1,0,1,0,21511.4,0.649964,0.649725,0.197444,32,1.00687,10,0.000128284,-3.70456,0.0349591,1.68769,0.649638,
2,1,0,1,0,21512.2,0.64597,0.645659,0.149111,32,1.007,10,9.62749e-05,-3.82649,0.0296293,1.99127,0.645593,
2,1,0,1,0,21513,0.641974,0.641689,0.107184,32,1.00709,10,6.87787e-05,-3.96987,0.0260488,2.26498,0.641642,
2,1,0,0,0,21513.8,0.637979,0.637671,0.0732562,32,1.00715,10,4.67134e-05,-4.13516,0.020471,2.88213,0.637639,
2,1,0,1,0,21514.6,0.633983,0.633699,0.0427313,32,1.00719,10,2.70788e-05,-4.36925,0.0150774,3.91315,0.63368,
2,1,0,1,0,21515.4,0.629988,0.629707,0.0184832,32,1.00721,10,1.1639e-05,-4.73322,0.00691028,8.538,0.629698,
2,1,0,1,0,21516.2,0.625993,0.625689,-0.00217107,32,1.0072,10,-1.35841e-06,-5.66333,-0.0290102,-2.03377,0.62569,
2,0,0,1,0,21517,0.621998,0.621687,-0.018459,32,1.00718,10,-1.14757e-05,-4.73379,-0.0108498,-5.43788,0.621695,
2,0,0,0,0,21517.8,0.618003,0.617744,-0.0326166,32,1.00715,10,-2.01487e-05,-4.48656,-0.0215455,-2.73838,0.617759,
2,0,0,1,0,21518.6,0.614008,0.613722,-0.0447012,32,1.00711,10,-2.74341e-05,-4.34968,-0.0443694,-1.32974,0.613742,
2,0,0,1,0,21519.4,0.610012,0.60969,-0.0536901,32,1.00707,10,-3.27343e-05,-4.27011,-0.0540402,-1.09178,0.609714,
2,0,0,1,0,21520.2,0.606017,0.605725,-0.0620711,32,1.00701,10,-3.7598e-05,-4.20711,-0.07252,-0.813569,0.605752,
2,0,0,1,0,21521,0.602022,0.601758,-0.0695931,32,1.00695,10,-4.18782e-05,-4.15743,-0.107798,-0.547318,0.601789,
2,0,0,0,0,21521.8,0.598027,0.597751,-0.0757549,32,1.00688,10,-4.52826e-05,-4.12059,-0.112761,-0.52323,0.597785,
2,0,0,1,0,21522.6,0.594032,0.593772,-0.081064,32,1.0068,10,-4.81335e-05,-4.09117,-0.122535,-0.481497,0.593807,
2,0,0,0,0,21523.4,0.590037,0.589748,-0.0864997,32,1.00673,10,-5.10131e-05,-4.06299,-0.32288,-0.18273,0.589786,
2,0,0,1,0,21524.2,0.586041,0.585738,-0.0898445,32,1.00665,10,-5.26253e-05,-4.04651,-0.201668,-0.29256,0.585777,
2,0,0,1,0,21525,0.582046,0.581724,-0.0931262,32,1.00657,10,-5.41738e-05,-4.03093,-0.333973,-0.176661,0.581765,
2,0,0,1,0,21525.8,0.578052,0.577766,-0.0957885,32,1.00648,10,-5.53434e-05,-4.01869,-0.237833,-0.248073,0.577809,
2,0,0,1,0,21526.6,0.574056,0.573755,-0.0984076,32,1.00639,10,-5.64619e-05,-4.00697,-0.514646,-0.114642,0.573799,
2,0,0,0,0,21527.4,0.570061,0.569782,-0.100872,32,1.0063,10,-5.74752e-05,-3.99623,-1.05517,-0.0559152,0.569826,
2,0,0,1,0,21528.2,0.566065,0.565795,-0.103026,32,1.00621,10,-5.82914e-05,-3.98705,-0.447814,-0.131751,0.56584,
2,0,0,1,0,21529,0.56207,0.56175,-0.104584,32,1.00612,10,-5.87502e-05,-3.98053,-0.49585,-0.118988,0.561796,
2,0,0,1,0,21529.8,0.558075,0.557767,-0.105932,32,1.00603,10,-5.90854e-05,-3.97497,-0.683013,-0.086382,0.557813,
2,0,0,1,0,21530.6,0.55408,0.553819,-0.106535,32,1.00593,10,-5.90014e-05,-3.97251,-0.367663,-0.160473,0.553866,
2,0,0,0,0,21531.4,0.550085,0.549816,-0.10835,32,1.00584,10,-5.95725e-05,-3.96517,4.13484,0.014269,0.549863,
2,0,0,1,0,21532.2,0.54609,0.545822,-0.109214,32,1.00574,10,-5.96116e-05,-3.96172,-0.567612,-0.103944,0.54587,
2,0,0,1,0,21533,0.542094,0.5418,-0.109885,32,1.00564,10,-5.95355e-05,-3.95906,-0.916417,-0.0643811,0.541848,
2,0,0,1,0,21533.8,0.538099,0.537792,-0.112102,32,1.00554,10,-6.02875e-05,-3.95039,-3.82696,-0.0154169,0.537841,
2,0,0,1,0,21534.6,0.534104,0.533805,-0.113046,32,1.00545,10,-6.03444e-05,-3.94675,-0.588348,-0.100281,0.533855,
2,0,0,0,0,21535.4,0.530109,0.529821,-0.115164,32,1.00534,10,-6.10162e-05,-3.93868,-0.576046,-0.102422,0.529871,
2,0,0,1,0,21536.2,0.526114,0.525794,-0.115622,32,1.00524,10,-6.07932e-05,-3.93696,-1.80571,-0.0326742,0.525845,
2,0,0,0,0,21537,0.522119,0.521851,-0.116359,32,1.00514,10,-6.07222e-05,-3.9342,-0.983525,-0.0599883,0.521902,
2,0,0,1,0,21537.8,0.518123,0.517813,-0.117041,32,1.00504,10,-6.06053e-05,-3.93166,-0.803475,-0.073431,0.517865,
2,0,0,1,0,21538.6,0.514128,0.513864,-0.118781,32,1.00493,10,-6.1037e-05,-3.92525,-1.12142,-0.0526116,0.513916,
2,0,0,1,0,21539.4,0.510133,0.5098,-0.118766,32,1.00483,10,-6.05472e-05,-3.92531,-0.6164,-0.0957171,0.509853,
2,0,0,1,0,21540.2,0.506138,0.50584,-0.120196,32,1.00472,10,-6.08e-05,-3.92011,1.51582,0.0389229,0.505892,
2,0,0,0,0,21541,0.502143,0.501804,-0.122216,32,1.00462,10,-6.13285e-05,-3.91287,-0.501403,-0.11767,0.501857,
2,0,0,1,0,21541.8,0.498148,0.497848,-0.122939,32,1.00451,10,-6.1205e-05,-3.91031,-1.99374,-0.0295927,0.497902,
2,0,0,1,0,21542.6,0.494152,0.493863,-0.124504,32,1.0044,10,-6.1488e-05,-3.90482,-0.616782,-0.0956578,0.493918,
2,0,0,1,0,21543.4,0.490157,0.489825,-0.125256,32,1.00429,10,-6.13537e-05,-3.9022,-0.714578,-0.0825663,0.48988,
2,0,0,1,0,21544.2,0.486162,0.485865,-0.126041,32,1.00418,10,-6.12391e-05,-3.89949,-2.66088,-0.0221731,0.48592,
2,0,0,0,0,21545,0.482167,0.481861,-0.127321,32,1.00407,10,-6.13508e-05,-3.8951,-0.934526,-0.0631336,0.481917,
2,0,0,1,0,21545.8,0.478172,0.477864,-0.128688,32,1.00395,10,-6.14955e-05,-3.89046,-1.70234,-0.0346582,0.477921,
2,0,0,0,0,21546.6,0.474177,0.473877,-0.130053,32,1.00384,10,-6.16293e-05,-3.88588,-2.50371,-0.023565,0.473934,
2,0,0,1,0,21547.4,0.470181,0.469853,-0.131323,32,1.00373,10,-6.17025e-05,-3.88166,-0.397554,-0.148407,0.469911,
2,0,0,1,0,21548.2,0.466186,0.46588,-0.132196,32,1.00361,10,-6.15875e-05,-3.87878,-3.09621,-0.0190556,0.465938,
2,0,0,1,0,21549,0.462191,0.461929,-0.134637,32,1.00349,10,-6.21927e-05,-3.87084,-0.489255,-0.120591,0.461988,
2,0,0,1,0,21549.8,0.458196,0.4579,-0.136228,32,1.00338,10,-6.23787e-05,-3.86573,-2.41616,-0.024419,0.45796,
2,0,0,0,0,21550.6,0.454201,0.453963,-0.137026,32,1.00326,10,-6.22048e-05,-3.8632,-0.766567,-0.0769665,0.454024,
2,0,0,1,0,21551.4,0.450205,0.449917,-0.138835,32,1.00314,10,-6.2464e-05,-3.8575,-0.780285,-0.0756134,0.449978,
2,0,0,1,0,21552.2,0.44621,0.445916,-0.139415,32,1.00302,10,-6.21673e-05,-3.85569,-0.758282,-0.0778075,0.445977,
2,0,0,1,0,21553,0.442215,0.441881,-0.141297,32,1.00289,10,-6.24367e-05,-3.84987,-2.03778,-0.0289531,0.441944,
2,0,0,1,0,21553.8,0.43822,0.437901,-0.143148,32,1.00277,10,-6.26846e-05,-3.84422,-0.522347,-0.112952,0.437964,
2,0,0,0,0,21554.6,0.434225,0.433949,-0.14528,32,1.00264,10,-6.3044e-05,-3.8378,-0.945135,-0.062425,0.434013,
2,0,0,1,0,21555.4,0.43023,0.429925,-0.146924,32,1.00252,10,-6.31664e-05,-3.83291,-0.603455,-0.0977704,0.42999,
2,0,0,1,0,21556.2,0.426234,0.425939,-0.147871,32,1.00239,10,-6.29839e-05,-3.83012,-0.927496,-0.0636121,0.426004,
2,0,0,1,0,21557,0.422239,0.421923,-0.149794,32,1.00226,10,-6.32016e-05,-3.82451,-1.2058,-0.0489301,0.421989,
2,0,0,1,0,21557.8,0.418244,0.417926,-0.152078,32,1.00213,10,-6.35573e-05,-3.81793,-0.481109,-0.122633,0.417993,
2,0,0,0,0,21558.6,0.414249,0.414001,-0.153223,32,1.002,10,-6.34343e-05,-3.81468,-0.908183,-0.0649649,0.414068,
2,0,0,1,0,21559.4,0.410254,0.409925,-0.155935,32,1.00186,10,-6.39215e-05,-3.80706,-4.52933,-0.0130262,0.409993,
2,0,0,0,0,21560.2,0.406259,0.405967,-0.15747,32,1.00173,10,-6.39278e-05,-3.8028,-0.37311,-0.15813,0.406037,
2,0,0,1,0,21561,0.402263,0.401961,-0.160544,32,1.00159,10,-6.45323e-05,-3.79441,-0.990121,-0.0595887,0.402031,
2,0,0,1,0,21561.8,0.398268,0.397944,-0.161766,32,1.00145,10,-6.4374e-05,-3.79111,-0.88085,-0.0669807,0.398016,
2,0,0,1,0,21562.6,0.394274,0.393986,-0.163462,32,1.00131,10,-6.44017e-05,-3.78658,-0.476262,-0.123881,0.394058,
2,0,0,1,0,21563.4,0.390278,0.389959,-0.166283,32,1.00117,10,-6.48438e-05,-3.77915,-0.913725,-0.0645709,0.390033,
2,0,0,0,0,21564.2,0.386283,0.385988,-0.16742,32,1.00102,10,-6.46222e-05,-3.77619,-1.75151,-0.0336853,0.386062,
2,0,0,1,0,21565,0.382287,0.381976,-0.169004,32,1.00088,10,-6.45554e-05,-3.7721,-0.523268,-0.112753,0.382051,
2,0,0,1,0,21565.8,0.378292,0.377971,-0.171941,32,1.00073,10,-6.49887e-05,-3.76462,-1.45773,-0.040474,0.378047,
2,0,0,1,0,21566.6,0.374297,0.374021,-0.173493,32,1.00058,10,-6.48898e-05,-3.76072,-0.393096,-0.150091,0.374097,
2,0,0,1,0,21567.4,0.370303,0.369998,-0.175846,32,1.00043,10,-6.50624e-05,-3.75487,-1.39715,-0.0422288,0.370075,
2,0,0,0,0,21568.2,0.366307,0.365997,-0.178097,32,1.00028,10,-6.51831e-05,-3.74934,-0.682836,-0.0864044,0.366076,
2,0,0,1,0,21569,0.362312,0.36204,-0.180622,32,1.00012,10,-6.53924e-05,-3.74323,-0.714445,-0.0825815,0.362119,
2,0,0,1,0,21569.8,0.358316,0.358028,-0.183248,32,0.999964,10,-6.56078e-05,-3.73696,-0.958237,-0.0615714,0.358109,
2,0,0,1,0,21570.6,0.354321,0.35404,-0.184451,32,0.999806,10,-6.5303e-05,-3.73412,-1.48356,-0.0397692,0.354121,
2,0,0,1,0,21571.4,0.350327,0.350037,-0.18665,32,0.999645,10,-6.53343e-05,-3.72897,-0.450476,-0.130973,0.350119,
2,0,0,0,0,21572.2,0.346331,0.346,-0.189136,32,0.999483,10,-6.54412e-05,-3.72322,-1.78749,-0.0330072,0.346083,
2,0,0,1,0,21573,0.342336,0.342008,-0.191388,32,0.999319,10,-6.5456e-05,-3.71809,-0.536734,-0.109924,0.342092,
2,0,0,0,0,21573.7,0.338341,0.337996,-0.194033,32,0.999153,10,-6.55825e-05,-3.71212,-0.595669,-0.0990484,0.338082,
2,0,0,1,0,21574.5,0.334345,0.334078,-0.196881,32,0.998985,10,-6.57736e-05,-3.7058,-1.22279,-0.0482505,0.334165,
2,0,0,1,0,21575.3,0.33035,0.330028,-0.199842,32,0.998814,10,-6.59535e-05,-3.69931,-0.668105,-0.0883095,0.330116,
2,0,0,1,0,21576.1,0.326355,0.326077,-0.202422,32,0.998642,10,-6.60049e-05,-3.69374,-0.649254,-0.0908735,0.326166,
2,0,0,1,0,21576.9,0.32236,0.322036,-0.203693,32,0.998468,10,-6.55965e-05,-3.69102,-0.707817,-0.0833549,0.322126,
2,0,0,0,0,21577.7,0.318365,0.318065,-0.20629,32,0.998292,10,-6.56136e-05,-3.68552,-0.851244,-0.0693103,0.318156,
2,0,0,1,0,21578.5,0.31437,0.314051,-0.209463,32,0.998114,10,-6.57823e-05,-3.67889,-1.0958,-0.053842,0.314143,
2,0,0,1,0,21579.3,0.310374,0.310077,-0.210903,32,0.997934,10,-6.5396e-05,-3.67592,-0.635062,-0.0929044,0.310169,
2,0,0,1,0,21580.1,0.306379,0.306076,-0.214911,32,0.997752,10,-6.57792e-05,-3.66774,-0.753208,-0.0783316,0.306171,
2,0,0,1,0,21580.9,0.302385,0.302038,-0.215357,32,0.997568,10,-6.5046e-05,-3.66684,-0.938222,-0.0628849,0.302132,
2,0,0,0,0,21581.7,0.298389,0.298083,-0.217979,32,0.997382,10,-6.49757e-05,-3.66159,-0.649189,-0.0908827,0.298179,
2,0,0,1,0,21582.5,0.294394,0.294095,-0.221696,32,0.997194,10,-6.51999e-05,-3.65424,-1.10228,-0.0535256,0.294193,
2,0,0,1,0,21583.3,0.290398,0.2901,-0.223956,32,0.997003,10,-6.49698e-05,-3.64984,-0.70308,-0.0839164,0.290199,
2,0,0,1,0,21584.1,0.286403,0.286092,-0.226344,32,0.996811,10,-6.47551e-05,-3.64523,-0.670147,-0.0880404,0.286191,
2,0,0,1,0,21584.9,0.282408,0.282078,-0.229685,32,0.996617,10,-6.4789e-05,-3.63887,-1.38679,-0.0425443,0.282179,
2,0,0,1,0,21585.7,0.278414,0.278087,-0.231975,32,0.99642,10,-6.45092e-05,-3.63456,-0.580872,-0.101571,0.278189,
2,0,0,1,0,21586.5,0.274418,0.274108,-0.234672,32,0.996221,10,-6.43253e-05,-3.62954,-1.09026,-0.0541155,0.274211,
2,0,0,0,0,21587.3,0.270423,0.270106,-0.239019,32,0.99602,10,-6.45605e-05,-3.62157,-0.580756,-0.101592,0.270211,
2,0,0,1,0,21588.1,0.266427,0.266121,-0.240432,32,0.995818,10,-6.39838e-05,-3.61901,-1.38517,-0.042594,0.266226,
2,0,0,1,0,21588.9,0.262432,0.26212,-0.243284,32,0.995613,10,-6.37696e-05,-3.61389,-0.667518,-0.0883871,0.262227,
2,0,0,1,0,21589.7,0.258437,0.258128,-0.245119,32,0.995406,10,-6.3272e-05,-3.61062,-0.711256,-0.0829518,0.258236,
2,0,0,1,0,21590.5,0.254442,0.254167,-0.247632,32,0.995196,10,-6.29399e-05,-3.60619,-1.86927,-0.0315631,0.254276,
2,0,0,0,0,21591.3,0.250447,0.250103,-0.250247,32,0.994985,10,-6.25876e-05,-3.60163,-1.01254,-0.0582693,0.250214,
2,0,0,1,0,21592.1,0.246452,0.246121,-0.253024,32,0.994772,10,-6.22745e-05,-3.59684,-0.834881,-0.0706687,0.246232,
2,0,0,1,0,21592.9,0.242456,0.242128,-0.25622,32,0.994557,10,-6.20382e-05,-3.59139,-1.29634,-0.0455128,0.242241,
2,0,0,1,0,21593.7,0.238461,0.238139,-0.256894,32,0.994341,10,-6.11764e-05,-3.59025,-1.25295,-0.0470889,0.238252,
2,0,0,1,0,21594.5,0.234467,0.234169,-0.259248,32,0.994122,10,-6.07078e-05,-3.58628,-0.536775,-0.109916,0.234283,
2,0,0,0,0,21595.3,0.230471,0.230154,-0.262006,32,0.993901,10,-6.03018e-05,-3.58169,-2.69968,-0.0218545,0.230269,
2,0,0,1,0,21596.1,0.226476,0.226218,-0.265323,32,0.993678,10,-6.00209e-05,-3.57622,-0.674855,-0.0874261,0.226335,
2,0,0,0,0,21596.9,0.222481,0.222129,-0.267235,32,0.993453,10,-5.93607e-05,-3.57311,-1.09039,-0.0541092,0.222246,
2,0,0,1,0,21597.7,0.218485,0.218182,-0.270359,32,0.993226,10,-5.89875e-05,-3.56806,-1.91522,-0.0308059,0.218301,
2,0,0,1,0,21598.5,0.21449,0.214155,-0.273458,32,0.992997,10,-5.85623e-05,-3.56311,-0.48899,-0.120657,0.214275,
2,0,0,1,0,21599.3,0.210496,0.210146,-0.275813,32,0.992765,10,-5.79608e-05,-3.55939,-0.919017,-0.064199,0.210267,
2,0,0,1,0,21600.1,0.2065,0.20616,-0.280224,32,0.992531,10,-5.77711e-05,-3.55249,-0.962066,-0.0613264,0.206284,
2,0,0,0,0,21600.9,0.202505,0.202174,-0.282411,32,0.992294,10,-5.70962e-05,-3.54912,-0.782899,-0.0753609,0.202298,
2,0,0,1,0,21601.7,0.198509,0.198168,-0.285937,32,0.992055,10,-5.66635e-05,-3.54373,-0.875817,-0.0673656,0.198293,
2,0,0,1,0,21602.5,0.194514,0.194182,-0.289689,32,0.991812,10,-5.62523e-05,-3.53807,-0.594987,-0.0991618,0.194309,
2,0,0,1,0,21603.3,0.190519,0.190209,-0.293053,32,0.991567,10,-5.57412e-05,-3.53305,-0.500117,-0.117972,0.190338,
2,0,0,1,0,21604.1,0.186524,0.186189,-0.298475,32,0.991317,10,-5.55726e-05,-3.52509,-0.769992,-0.0766241,0.18632,
2,0,0,0,0,21604.9,0.182529,0.182198,-0.303709,32,0.991064,10,-5.53352e-05,-3.51754,-0.393337,-0.149999,0.182332,
2,0,0,1,0,21605.7,0.178534,0.178231,-0.310059,32,0.990806,10,-5.52622e-05,-3.50856,-0.551079,-0.107063,0.178368,
2,0,0,1,0,21606.5,0.174538,0.174222,-0.314707,32,0.990543,10,-5.48288e-05,-3.50209,-0.355023,-0.166186,0.17436,
2,0,0,1,0,21607.3,0.170543,0.170237,-0.325127,32,0.990274,10,-5.53486e-05,-3.48795,-0.311649,-0.189315,0.17038,
2,0,0,1,0,21608.1,0.166549,0.166186,-0.334523,32,0.989997,10,-5.55931e-05,-3.47557,-0.280864,-0.210066,0.166333,
2,0,0,0,0,21608.9,0.162553,0.16221,-0.347994,32,0.989711,10,-5.6448e-05,-3.45843,-0.221173,-0.266759,0.162363,
2,0,0,1,0,21609.7,0.158558,0.158203,-0.362962,32,0.989414,10,-5.74217e-05,-3.44014,-0.18967,-0.311067,0.158363,
2,0,0,0,0,21610.5,0.154563,0.154254,-0.385158,32,0.989102,10,-5.94123e-05,-3.41436,-0.166363,-0.354646,0.154424,
2,0,0,1,0,21611.3,0.150567,0.150227,-0.411935,32,0.988772,10,-6.18837e-05,-3.38517,-0.1134,-0.520283,0.150408,
2,0,0,1,0,21612.1,0.146572,0.146276,-0.447791,32,0.988416,10,-6.55011e-05,-3.34892,-0.0982944,-0.600238,0.146473,
2,0,0,1,0,21612.9,0.142578,0.142254,-0.495377,32,0.988028,10,-7.04695e-05,-3.30506,-0.0869747,-0.678358,0.142472,
2,0,0,1,0,21613.7,0.138582,0.138262,-0.550592,32,0.987597,10,-7.61262e-05,-3.25917,-0.0860161,-0.685918,0.138505,
2,0,0,0,0,21614.5,0.134587,0.134242,-0.611593,32,0.987119,10,-8.21017e-05,-3.21354,-0.0991224,-0.595223,0.134511,
2,0,0,1,0,21615.3,0.130591,0.130268,-0.664685,32,0.986596,10,-8.65869e-05,-3.17738,-0.123543,-0.477568,0.13056,
2,0,0,1,0,21616.1,0.126596,0.126266,-0.702511,32,0.986034,10,-8.87032e-05,-3.15335,-0.185535,-0.317999,0.126575,
2,0,0,1,0,21616.9,0.122602,0.122274,-0.732598,32,0.985445,10,-8.95774e-05,-3.13513,-0.390869,-0.150946,0.122596,
2,0,0,1,0,21617.7,0.118607,0.118283,-0.744698,32,0.984841,10,-8.80849e-05,-3.12802,-0.614042,-0.0960847,0.11861,
2,0,0,0,0,21618.5,0.114611,0.114282,-0.747905,32,0.98423,10,-8.54724e-05,-3.12615,1.95702,0.0301478,0.114611,
2,0,0,1,0,21619.3,0.110616,0.11029,-0.743506,32,0.983621,10,-8.20012e-05,-3.12872,1.41484,0.041701,0.110617,
2,0,0,1,0,21620.1,0.10662,0.106261,-0.736708,32,0.983016,10,-7.82834e-05,-3.1327,0.78284,0.0753666,0.106585,
2,0,0,1,0,21620.9,0.102625,0.102314,-0.726225,32,0.982418,10,-7.43027e-05,-3.13893,0.533336,0.110624,0.102633,
2,0,0,1,0,21621.7,0.0986305,0.0983329,-0.713864,32,0.98183,10,-7.01963e-05,-3.14638,0.582572,0.101275,0.098647,
2,0,0,0,0,21622.5,0.0946351,0.0942948,-0.699221,32,0.98125,10,-6.59329e-05,-3.15539,0.51439,0.114699,0.0946024,
2,0,0,1,0,21623.3,0.0906399,0.0903151,-0.690327,32,0.98068,10,-6.23469e-05,-3.16095,0.433677,0.136046,0.0906188,
2,0,0,0,0,21624.1,0.0866448,0.0863046,-0.678705,32,0.98012,10,-5.85754e-05,-3.16832,0.730608,0.0807546,0.0866032,
2,0,0,1,0,21624.9,0.0826492,0.0823469,-0.666895,32,0.97957,10,-5.49167e-05,-3.17594,0.512125,0.115206,0.0826403,
2,0,0,1,0,21625.7,0.0786544,0.0783134,-0.6564,32,0.979028,10,-5.14049e-05,-3.18283,0.628315,0.093902,0.0786022,
2,0,0,1,0,21626.5,0.0746596,0.0743052,-0.645354,32,0.978495,10,-4.79532e-05,-3.1902,0.671176,0.0879053,0.0745892,
2,0,0,1,0,21627.3,0.0706641,0.0703296,-0.637163,32,0.977969,10,-4.48114e-05,-3.19575,0.577176,0.102222,0.0706099,
2,0,0,0,0,21628.1,0.0666689,0.0663286,-0.629097,32,0.97745,10,-4.17271e-05,-3.20128,0.836233,0.0705545,0.0666054,
2,0,0,1,0,21628.9,0.0626737,0.0623574,-0.617812,32,0.976938,10,-3.85251e-05,-3.20914,0.614012,0.0960893,0.0626293,
2,0,0,1,0,21629.7,0.0586783,0.0583159,-0.610953,32,0.976433,10,-3.56283e-05,-3.21399,0.510589,0.115553,0.0585847,
2,0,0,1,0,21630.5,0.0546835,0.0543429,-0.601146,32,0.975936,10,-3.2668e-05,-3.22102,0.654728,0.0901138,0.0546074,
2,0,0,1,0,21631.3,0.0506886,0.0503921,-0.590096,32,0.975446,10,-2.97362e-05,-3.22908,0.497878,0.118503,0.0506518,
2,0,0,0,0,21632.1,0.046693,0.0463538,-0.581492,32,0.974965,10,-2.69543e-05,-3.23546,0.513068,0.114995,0.0466096,
2,0,0,1,0,21632.9,0.0426979,0.0423995,-0.56923,32,0.974492,10,-2.41351e-05,-3.24471,0.550445,0.107186,0.04265,
2,0,0,1,0,21633.7,0.0387022,0.0383514,-0.559668,32,0.974027,10,-2.1464e-05,-3.25207,0.468266,0.125997,0.0385976,
2,0,0,1,0,21634.5,0.0347074,0.034405,-0.549472,32,0.973571,10,-1.89046e-05,-3.26005,0.488092,0.120879,0.0346467,
2,0,0,1,0,21635.3,0.0307126,0.0304024,-0.537878,32,0.973123,10,-1.63528e-05,-3.26932,0.471521,0.125127,0.0306391,
2,0,0,0,0,21636.1,0.0267172,0.0263959,-0.530013,32,0.972684,10,-1.39901e-05,-3.27571,0.496931,0.118729,0.0266291,
2,0,0,1,0,21636.9,0.022722,0.0224077,-0.519827,32,0.972251,10,-1.16481e-05,-3.28414,0.706379,0.0835246,0.0226364,
2,0,0,0,0,21637.7,0.0187268,0.0183686,-0.513355,32,0.971826,10,-9.42961e-06,-3.28958,0.652094,0.0904777,0.0185945,
2,0,0,1,0,21638.5,0.0147313,0.0143895,-0.508577,32,0.971405,10,-7.31818e-06,-3.29364,1.20193,0.0490877,0.0146133,
2,0,0,1,0,21639.3,0.0107365,0.0104198,-0.504071,32,0.970989,10,-5.25234e-06,-3.29751,1.46037,0.0404008,0.0106416,
2,0,0,1,0,21640.1,0.00674163,0.00645641,-0.501448,32,0.970574,10,-3.23755e-06,-3.29977,2.72112,0.0216822,0.00667705,
2,0,0,1,0,21640.9,0.00274612,0.0024084,-0.501805,32,0.970161,10,-1.20855e-06,-3.29947,-2.43096,-0.0242702,0.0026292,
2,0,0,0,0,21641.4,0.000274105,-0.00010224,-0.503099,32,0.969903,10,5.14371e-08,-3.29835, , ,0.000119123,