File: Figure_codes/Fig_3-5/workspace_calculate_alpha_eff/20221101_1-115_003_TrumpetPlot_ParaChange_from10_every3_16_CV_C01_71.csv
mode,ox/red,error,control changes,counter inc.,time/s,control/V,Ewe/V,<I>/mA,cycle number,(Q-Qo)/C,I Range,P/W,log(|I|),Tafel slope mV/dec,alpha_eff,E-IR/V,
2,0,0,0,0,47283.1,2.44065e-05,-0.000458935,-0.117839,72,0.0000000E+000,10,5.40804e-08,-3.92871, , ,-0.000407086,
2,1,0,0,0,47283.9,0.00379485,0.00347729,0.142435,72,8.7692e-05,10,4.95288e-07,-3.84638,0.033173,1.77856,0.00341462,
2,1,0,1,0,47284.7,0.00779002,0.00743791,0.165443,72,0.000222729,10,1.23055e-06,-3.78135,0.0732238,0.805749,0.00736512,
2,1,0,0,0,47285.5,0.0117852,0.0114855,0.18054,72,0.000373271,10,2.07358e-06,-3.74343,0.111571,0.528812,0.011406,
2,1,0,1,0,47286.3,0.0157806,0.0154421,0.195905,72,0.000535321,10,3.02518e-06,-3.70796,0.132106,0.446611,0.0153559,
2,1,0,1,0,47287.1,0.0197754,0.0194586,0.208372,72,0.000707955,10,4.05463e-06,-3.68116,0.144875,0.407248,0.0193669,
2,1,0,1,0,47287.9,0.0237704,0.0234891,0.222032,72,0.000891373,10,5.21533e-06,-3.65358,0.164903,0.357786,0.0233914,
2,1,0,1,0,47288.7,0.0277659,0.0274096,0.236135,72,0.00108487,10,6.47236e-06,-3.62684,0.138514,0.42595,0.0273057,
2,1,0,0,0,47289.5,0.0317611,0.0314741,0.248941,72,0.00128978,10,7.8352e-06,-3.6039,0.175286,0.336593,0.0313646,
2,1,0,1,0,47290.3,0.0357567,0.0354139,0.262618,72,0.001506,10,9.30035e-06,-3.58067,0.225797,0.261297,0.0352984,
2,1,0,1,0,47291.1,0.0397516,0.0394327,0.277924,72,0.00173321,10,1.09593e-05,-3.55607,0.150555,0.391885,0.0393104,
2,1,0,1,0,47291.9,0.0437465,0.0434311,0.290116,72,0.00197215,10,1.26001e-05,-3.53743,0.186283,0.316722,0.0433035,
2,1,0,1,0,47292.7,0.0477413,0.0474147,0.304566,72,0.00222171,10,1.44409e-05,-3.51632,0.191229,0.308531,0.0472807,
2,1,0,0,0,47293.5,0.0517369,0.0513992,0.31783,72,0.00248183,10,1.63362e-05,-3.49781,0.241087,0.244725,0.0512593,
2,1,0,1,0,47294.3,0.0557321,0.0553874,0.331152,72,0.00275211,10,1.83417e-05,-3.47997,0.305757,0.192964,0.0552417,
2,1,0,1,0,47295.1,0.0597277,0.0593824,0.341397,72,0.0030312,10,2.02729e-05,-3.46674,0.289934,0.203495,0.0592322,
2,1,0,1,0,47295.9,0.0637226,0.0633999,0.349012,72,0.00331886,10,2.21273e-05,-3.45716,0.303686,0.19428,0.0632463,
2,1,0,1,0,47296.7,0.0677174,0.0673996,0.361146,72,0.00361554,10,2.4341e-05,-3.44232,0.48463,0.121742,0.0672406,
2,1,0,0,0,47297.5,0.0717128,0.0714069,0.369475,72,0.00391918,10,2.63831e-05,-3.43242,0.29576,0.199486,0.0712444,
2,1,0,1,0,47298.3,0.075708,0.075357,0.378248,72,0.00423032,10,2.85036e-05,-3.42222,0.432408,0.136445,0.0751905,
2,1,0,0,0,47299.1,0.0797031,0.0793632,0.388167,72,0.00454793,10,3.08062e-05,-3.41098,0.413994,0.142514,0.0791924,
2,1,0,1,0,47299.9,0.0836986,0.0833697,0.394824,72,0.00487242,10,3.29164e-05,-3.4036,0.351474,0.167865,0.083196,
2,1,0,1,0,47300.7,0.0876935,0.0874106,0.407143,72,0.00520471,10,3.55886e-05,-3.39025,0.385899,0.15289,0.0872314,
2,1,0,1,0,47301.5,0.0916883,0.0913646,0.419722,72,0.00554605,10,3.83477e-05,-3.37704,0.241814,0.24399,0.0911799,
2,1,0,1,0,47302.3,0.0956838,0.0953806,0.43516,72,0.00589931,10,4.15058e-05,-3.36135,0.225061,0.262152,0.0951891,
2,1,0,0,0,47303,0.099679,0.0993804,0.454434,72,0.00626675,10,4.51618e-05,-3.34253,0.227547,0.259287,0.0991805,
2,1,0,1,0,47303.8,0.103674,0.103313,0.475435,72,0.00664997,10,4.91189e-05,-3.32291,0.180868,0.326204,0.103104,
2,1,0,1,0,47304.6,0.10767,0.107363,0.498294,72,0.00705158,10,5.34986e-05,-3.30251,0.229246,0.257365,0.107144,
2,1,0,1,0,47305.4,0.111664,0.111319,0.517192,72,0.00746886,10,5.7573e-05,-3.28635,0.247585,0.238302,0.111091,
2,1,0,1,0,47306.2,0.115659,0.115333,0.533182,72,0.00790033,10,6.14933e-05,-3.27312,0.361873,0.16304,0.115098,
2,1,0,0,0,47307,0.119655,0.119345,0.545741,72,0.00834377,10,6.51313e-05,-3.26301,0.464445,0.127033,0.119105,
2,1,0,1,0,47307.8,0.12365,0.123332,0.555623,72,0.00879541,10,6.8526e-05,-3.25522,0.503435,0.117195,0.123087,
2,1,0,1,0,47308.6,0.127646,0.127345,0.564571,72,0.00925506,10,7.18951e-05,-3.24828,1.19709,0.0492862,0.127096,
2,1,0,1,0,47309.4,0.131641,0.131289,0.56589,72,0.00971901,10,7.42953e-05,-3.24727,-1.00307,-0.0588196,0.13104,
2,1,0,1,0,47310.2,0.135635,0.135271,0.555414,72,0.0101794,10,7.51312e-05,-3.25538,-0.305039,-0.193418,0.135026,
2,1,0,0,0,47311,0.139631,0.139291,0.52501,72,0.0106247,10,7.31291e-05,-3.27983,-0.118956,-0.495984,0.13906,
2,1,0,1,0,47311.8,0.143626,0.143308,0.476755,72,0.0110386,10,6.83227e-05,-3.3217,-0.0823972,-0.716043,0.143098,
2,1,0,0,0,47312.6,0.147621,0.147304,0.421095,72,0.0114094,10,6.20292e-05,-3.37562,-0.0713343,-0.827092,0.147119,
2,1,0,1,0,47313.4,0.151617,0.151274,0.370611,72,0.0117362,10,5.60637e-05,-3.43108,-0.0764661,-0.771584,0.151111,
2,1,0,1,0,47314.2,0.155612,0.155285,0.333914,72,0.0120275,10,5.18519e-05,-3.47637,-0.106027,-0.556464,0.155138,
2,1,0,1,0,47315,0.159606,0.159296,0.3097,72,0.0122951,10,4.93341e-05,-3.50906,-0.146361,-0.403113,0.15916,
2,1,0,1,0,47315.8,0.163602,0.163231,0.294233,72,0.0125475,10,4.80279e-05,-3.53131,-0.206447,-0.285788,0.163101,
2,1,0,0,0,47316.6,0.167597,0.167273,0.283388,72,0.0127892,10,4.74032e-05,-3.54762,-0.313119,-0.188427,0.167148,
2,1,0,1,0,47317.4,0.171592,0.171277,0.27496,72,0.013024,10,4.70943e-05,-3.56073,-0.291866,-0.202148,0.171156,
2,1,0,1,0,47318.2,0.175588,0.175272,0.270388,72,0.013253,10,4.73914e-05,-3.56801,-0.658116,-0.0896499,0.175153,
2,1,0,1,0,47319,0.179582,0.179242,0.267264,72,0.0134779,10,4.79049e-05,-3.57306,-0.974122,-0.0605673,0.179124,
2,1,0,1,0,47319.8,0.183577,0.183255,0.263347,72,0.0137002,10,4.82597e-05,-3.57947,-0.668124,-0.0883069,0.183139,
2,1,0,0,0,47320.6,0.187573,0.187229,0.259717,72,0.0139196,10,4.86264e-05,-3.5855,-0.896989,-0.0657756,0.187114,
2,1,0,1,0,47321.4,0.191568,0.191214,0.256567,72,0.0141368,10,4.90592e-05,-3.5908,-0.684102,-0.0862444,0.191101,
2,1,0,0,0,47322.2,0.195563,0.19522,0.255423,72,0.0143524,10,4.98637e-05,-3.59274,-0.861788,-0.0684623,0.195108,
2,1,0,1,0,47323,0.199559,0.199236,0.252593,72,0.0145663,10,5.03256e-05,-3.59758,-18.7598,-0.00314503,0.199125,
2,1,0,1,0,47323.8,0.203553,0.203288,0.250492,72,0.014779,10,5.09219e-05,-3.60121,-1.69749,-0.0347571,0.203177,
2,1,0,1,0,47324.6,0.207548,0.20726,0.2509,72,0.0149907,10,5.20013e-05,-3.6005,-1.60435,-0.036775,0.207149,
2,1,0,1,0,47325.4,0.211544,0.211241,0.248615,72,0.0152009,10,5.25177e-05,-3.60447,-1.84674,-0.0319482,0.211131,
2,1,0,0,0,47326.2,0.215539,0.215265,0.247694,72,0.01541,10,5.33198e-05,-3.60608,-2.04942,-0.0287886,0.215156,
2,1,0,1,0,47327,0.219535,0.219299,0.247221,72,0.015618,10,5.42154e-05,-3.60691,-2.063,-0.0285992,0.21919,
2,1,0,1,0,47327.8,0.223529,0.223256,0.245613,72,0.0158254,10,5.48346e-05,-3.60975,-2.98358,-0.0197749,0.223148,
2,1,0,1,0,47328.6,0.227524,0.227184,0.245204,72,0.0160319,10,5.57063e-05,-3.61047,-1.29555,-0.0455405,0.227076,
2,1,0,1,0,47329.4,0.23152,0.23119,0.243741,72,0.0162376,10,5.63504e-05,-3.61307,40.0971,0.00147143,0.231083,
2,1,0,0,0,47330.2,0.235515,0.235213,0.240831,72,0.0164426,10,5.66467e-05,-3.61829,-1.66451,-0.035446,0.235107,
2,1,0,1,0,47331,0.23951,0.239224,0.241781,72,0.0166466,10,5.78398e-05,-3.61658,-1.95304,-0.0302092,0.239117,
2,1,0,1,0,47331.8,0.243506,0.243182,0.240223,72,0.0168499,10,5.8418e-05,-3.61939,3.82299,0.0154329,0.243077,
2,1,0,1,0,47332.6,0.2475,0.247182,0.240345,72,0.017053,10,5.94089e-05,-3.61917,-1.37426,-0.0429321,0.247076,
2,1,0,1,0,47333.4,0.251495,0.251204,0.240388,72,0.0172551,10,6.03864e-05,-3.61909,-1.54299,-0.0382373,0.251098,
2,1,0,0,0,47334.2,0.255491,0.255185,0.238252,72,0.0174566,10,6.07983e-05,-3.62296,2.97058,0.0198614,0.25508,
2,1,0,1,0,47335,0.259486,0.259212,0.239283,72,0.0176578,10,6.2025e-05,-3.62109,-0.943457,-0.062536,0.259107,
2,1,0,0,0,47335.8,0.263481,0.263157,0.237423,72,0.017858,10,6.24796e-05,-3.62448,1.70872,0.0345288,0.263053,
2,1,0,1,0,47336.6,0.267477,0.26721,0.23606,72,0.0180578,10,6.30776e-05,-3.62698,-1.13366,-0.052044,0.267106,
2,1,0,1,0,47337.4,0.271471,0.271156,0.236693,72,0.0182568,10,6.41806e-05,-3.62581,-1.45555,-0.0405345,0.271052,
2,1,0,1,0,47338.2,0.275466,0.275176,0.234991,72,0.0184549,10,6.46641e-05,-3.62895,-3.78151,-0.0156022,0.275073,
2,1,0,1,0,47339,0.279462,0.279186,0.234585,72,0.0186524,10,6.54928e-05,-3.6297,-2.66005,-0.0221801,0.279083,
2,1,0,0,0,47339.8,0.283457,0.283136,0.233365,72,0.0188489,10,6.60742e-05,-3.63196,-3.57613,-0.0164983,0.283033,
2,1,0,1,0,47340.6,0.287452,0.287143,0.232315,72,0.0190448,10,6.67078e-05,-3.63392,-2.11888,-0.0278449,0.287041,
2,1,0,1,0,47341.4,0.291448,0.291116,0.231291,72,0.0192399,10,6.73324e-05,-3.63584,-0.753415,-0.0783101,0.291014,
2,1,0,1,0,47342.2,0.295442,0.295156,0.230477,72,0.0194339,10,6.80266e-05,-3.63737,2.26089,0.026096,0.295054,
2,1,0,1,0,47343,0.299437,0.299153,0.227867,72,0.0196276,10,6.81673e-05,-3.64232,-2.9749,-0.0198326,0.299053,
2,1,0,0,0,47343.8,0.303433,0.303134,0.228214,72,0.0198204,10,6.91795e-05,-3.64166,-2.2023,-0.0267902,0.303034,
2,1,0,1,0,47344.6,0.307428,0.307111,0.227812,72,0.0200126,10,6.99635e-05,-3.64242,-30.7806,-0.00191679,0.307011,
2,1,0,1,0,47345.4,0.311424,0.311172,0.227769,72,0.0202045,10,7.08752e-05,-3.64251,-2.20421,-0.026767,0.311071,
2,1,0,1,0,47346.2,0.315418,0.315098,0.226827,72,0.0203956,10,7.14727e-05,-3.64431,-2.42363,-0.0243436,0.314998,
2,1,0,1,0,47347,0.319413,0.319111,0.226273,72,0.0205862,10,7.22062e-05,-3.64537,-3.57496,-0.0165037,0.319012,
2,1,0,0,0,47347.8,0.323409,0.323114,0.225764,72,0.0207765,10,7.29474e-05,-3.64635,-1.45519,-0.0405446,0.323014,
2,1,0,1,0,47348.6,0.327404,0.327071,0.224557,72,0.0209657,10,7.3446e-05,-3.64867,5.20732,0.0113302,0.326972,
2,1,0,0,0,47349.4,0.331399,0.331061,0.224638,72,0.0211547,10,7.43689e-05,-3.64852,-2.75314,-0.0214301,0.330962,
2,1,0,1,0,47350.2,0.335395,0.335077,0.224934,72,0.0213434,10,7.53704e-05,-3.64794,9.8376,0.0059974,0.334978,
2,1,0,1,0,47351,0.339389,0.339035,0.223505,72,0.0215317,10,7.57758e-05,-3.65071,-4.15704,-0.0141928,0.338936,
2,1,0,1,0,47351.8,0.343384,0.343117,0.223389,72,0.0217194,10,7.66484e-05,-3.65094,-2.00565,-0.0294169,0.343018,
2,1,0,1,0,47352.6,0.34738,0.347118,0.222884,72,0.0219065,10,7.73671e-05,-3.65192,-2.15356,-0.0273965,0.34702,
2,1,0,0,0,47353.4,0.351375,0.351047,0.221968,72,0.0220934,10,7.79213e-05,-3.65371,-4.22971,-0.0139489,0.350949,
2,1,0,1,0,47354.2,0.35537,0.35506,0.221829,72,0.0222799,10,7.87626e-05,-3.65398,-4.67624,-0.012617,0.354963,
2,1,0,1,0,47355,0.359366,0.358996,0.221281,72,0.022466,10,7.94391e-05,-3.65506,3.25174,0.0181441,0.358898,
2,1,0,1,0,47355.8,0.36336,0.36306,0.22061,72,0.0226518,10,8.00945e-05,-3.65638,-8.60709,-0.00685481,0.362963,
2,1,0,1,0,47356.6,0.367355,0.367077,0.220975,72,0.0228369,10,8.11151e-05,-3.65566,-1.4776,-0.0399296,0.36698,
2,1,0,0,0,47357.4,0.371351,0.371017,0.22034,72,0.0230217,10,8.175e-05,-3.65691,-43.7699,-0.00134796,0.37092,
2,1,0,1,0,47358.2,0.375346,0.375069,0.219884,72,0.0232062,10,8.24716e-05,-3.65781,-2.65669,-0.022208,0.374972,
2,1,0,1,0,47359,0.379342,0.379013,0.219245,72,0.0233903,10,8.30967e-05,-3.65907,-2.31149,-0.0255246,0.378917,
2,1,0,1,0,47359.8,0.383336,0.383043,0.219027,72,0.0235742,10,8.3897e-05,-3.6595,4.45601,0.0132405,0.382947,
2,1,0,1,0,47360.6,0.387331,0.387041,0.218694,72,0.023758,10,8.46434e-05,-3.66016,-1.6166,-0.0364963,0.386945,
2,1,0,0,0,47361.4,0.391327,0.39099,0.218865,72,0.0239412,10,8.5574e-05,-3.65982,1.82513,0.0323265,0.390894,
2,1,0,1,0,47362.2,0.395322,0.395012,0.217211,72,0.0241244,10,8.58012e-05,-3.66312,-2.49242,-0.0236718,0.394917,
2,1,0,0,0,47363,0.399317,0.399001,0.218538,72,0.0243074,10,8.7197e-05,-3.66047,35.3645,0.00166834,0.398905,
2,1,0,1,0,47363.8,0.403313,0.403021,0.217447,72,0.02449,10,8.76355e-05,-3.66265,-2.89021,-0.0204138,0.402925,
2,1,0,1,0,47364.6,0.407307,0.407006,0.217641,72,0.0246724,10,8.85812e-05,-3.66226,2.77379,0.0212705,0.40691,
2,1,0,1,0,47365.4,0.411302,0.410989,0.218435,72,0.0248547,10,8.97745e-05,-3.66068,-7.6096,-0.00775337,0.410893,
2,1,0,1,0,47366.2,0.415298,0.415035,0.217479,72,0.0250373,10,9.02615e-05,-3.66258,-10.8599,-0.00543283,0.414939,
2,1,0,0,0,47367,0.419293,0.418988,0.217796,72,0.0252193,10,9.12539e-05,-3.66195,-2.04853,-0.0288012,0.418892,
2,1,0,1,0,47367.8,0.423288,0.423005,0.217524,72,0.0254011,10,9.20138e-05,-3.66249,1.87649,0.0314416,0.422909,
2,1,0,1,0,47368.6,0.427283,0.426974,0.217292,72,0.0255831,10,9.2778e-05,-3.66296,-6.82006,-0.00865095,0.426879,
2,1,0,1,0,47369.4,0.431278,0.430982,0.218092,72,0.0257649,10,9.39935e-05,-3.66136,-4.68464,-0.0125943,0.430886,
2,1,0,1,0,47370.2,0.435273,0.434959,0.21711,72,0.0259467,10,9.44339e-05,-3.66332,3.55611,0.0165912,0.434863,
2,1,0,0,0,47371,0.439269,0.438977,0.217793,72,0.0261284,10,9.5606e-05,-3.66196,-4.3311,-0.0136224,0.438881,
2,1,0,1,0,47371.8,0.443264,0.442963,0.217239,72,0.0263098,10,9.6229e-05,-3.66306,12.8495,0.00459163,0.442867,
2,1,0,0,0,47372.6,0.447259,0.446952,0.217792,72,0.0264914,10,9.73426e-05,-3.66196,4.91909,0.0119941,0.446856,
2,1,0,1,0,47373.4,0.451254,0.450986,0.217829,72,0.0266731,10,9.8238e-05,-3.66188,-2.62232,-0.0224991,0.45089,
2,1,0,1,0,47374.2,0.455249,0.45495,0.217067,72,0.0268548,10,9.87543e-05,-3.66341,1.41375,0.0417329,0.454854,
2,1,0,1,0,47375,0.459244,0.458941,0.217747,72,0.0270368,10,9.99331e-05,-3.66205,10.1982,0.00578535,0.458845,
2,1,0,1,0,47375.8,0.46324,0.462927,0.219146,72,0.0272189,10,0.000101449,-3.65927,7.05702,0.00836047,0.462831,
2,1,0,0,0,47376.6,0.467235,0.46691,0.218947,72,0.0274013,10,0.000102229,-3.65966,2.3272,0.0253524,0.466814,
2,1,0,1,0,47377.4,0.471231,0.470938,0.219016,72,0.0275839,10,0.000103143,-3.65952,10.7878,0.00546914,0.470842,
2,1,0,1,0,47378.2,0.475225,0.474954,0.219622,72,0.0277667,10,0.00010431,-3.65832,3.77645,0.0156232,0.474857,
2,1,0,1,0,47379,0.47922,0.478924,0.220449,72,0.02795,10,0.000105578,-3.65669,-47.044,-0.00125415,0.478827,
2,1,0,1,0,47379.8,0.483216,0.48292,0.220511,72,0.0281338,10,0.000106489,-3.65657,-14.251,-0.00414006,0.482823,
2,1,0,0,0,47380.6,0.487211,0.486901,0.222255,72,0.0283178,10,0.000108216,-3.65315,0.744627,0.0792343,0.486803,
2,1,0,1,0,47381.4,0.491206,0.49095,0.221845,72,0.0285027,10,0.000108915,-3.65395,-2.81625,-0.0209498,0.490853,
2,1,0,1,0,47382.2,0.495201,0.494916,0.222586,72,0.0286877,10,0.000110161,-3.6525,1.58304,0.03727,0.494818,
2,1,0,1,0,47383,0.499196,0.498853,0.223885,72,0.0288733,10,0.000111686,-3.64997,1.47787,0.0399224,0.498754,
2,1,0,1,0,47383.8,0.503191,0.502879,0.225415,72,0.0290597,10,0.000113356,-3.64702,7.32687,0.00805255,0.502779,
2,1,0,0,0,47384.6,0.507187,0.506845,0.225651,72,0.0292469,10,0.00011437,-3.64656,1.52398,0.0387143,0.506746,
2,1,0,1,0,47385.4,0.511182,0.510874,0.226466,72,0.0294347,10,0.000115696,-3.645,2.47743,0.023815,0.510775,
2,1,0,0,0,47386.1,0.515177,0.514879,0.228363,72,0.0296234,10,0.000117579,-3.64137,33.6227,0.00175477,0.514779,
2,1,0,1,0,47386.9,0.519173,0.518891,0.229032,72,0.0298126,10,0.000118842,-3.6401,0.846472,0.069701,0.518791,
2,1,0,1,0,47387.7,0.523167,0.522853,0.22987,72,0.0300029,10,0.000120188,-3.63852,1.39275,0.0423622,0.522751,
2,1,0,1,0,47388.5,0.527162,0.526852,0.231665,72,0.0301943,10,0.000122053,-3.63514,1.87934,0.0313941,0.52675,
2,1,0,1,0,47389.3,0.531158,0.530869,0.233193,72,0.0303868,10,0.000123795,-3.63228,1.89184,0.0311866,0.530767,
2,1,0,0,0,47390.1,0.535153,0.534866,0.234664,72,0.0305805,10,0.000125514,-3.62955,0.866258,0.0681091,0.534763,
2,1,0,1,0,47390.9,0.539148,0.538861,0.237045,72,0.0307753,10,0.000127734,-3.62517,2.47902,0.0237997,0.538756,
2,1,0,1,0,47391.7,0.543143,0.542872,0.238661,72,0.0309718,10,0.000129563,-3.62222,1.06413,0.0554446,0.542767,
2,1,0,1,0,47392.5,0.547138,0.546873,0.240583,72,0.0311697,10,0.000131568,-3.61874,2.01083,0.0293412,0.546767,
2,1,0,1,0,47393.3,0.551133,0.55086,0.242491,72,0.0313692,10,0.000133579,-3.6153,0.567666,0.103934,0.550753,
2,1,0,0,0,47394.1,0.555129,0.554845,0.244749,72,0.0315708,10,0.000135798,-3.61128,0.915975,0.0644122,0.554737,
2,1,0,1,0,47394.9,0.559124,0.55885,0.247302,72,0.031774,10,0.000138205,-3.60677,0.872816,0.0675973,0.558742,
2,1,0,1,0,47395.7,0.56312,0.56282,0.250184,72,0.0319795,10,0.000140808,-3.60174,0.680721,0.0866728,0.56271,
2,1,0,1,0,47396.5,0.567114,0.56683,0.25394,72,0.0321876,10,0.000143941,-3.59527,1.34134,0.0439859,0.566718,
2,1,0,1,0,47397.3,0.571109,0.570802,0.256696,72,0.0323979,10,0.000146522,-3.59058,0.593917,0.0993405,0.570689,
2,1,0,0,0,47398.1,0.575105,0.574837,0.260226,72,0.032611,10,0.000149588,-3.58465,0.686713,0.0859165,0.574723,
2,1,0,1,0,47398.9,0.5791,0.578802,0.264538,72,0.0328272,10,0.000153115,-3.57751,0.459267,0.128466,0.578686,
2,1,0,0,0,47399.7,0.583095,0.582831,0.268882,72,0.0330468,10,0.000156713,-3.57044,0.612034,0.0963999,0.582713,
2,1,0,1,0,47400.5,0.58709,0.586779,0.273934,72,0.0332705,10,0.000160739,-3.56235,0.461572,0.127824,0.586658,
2,1,0,1,0,47401.3,0.591085,0.590784,0.279834,72,0.0334981,10,0.000165321,-3.5531,0.392576,0.150289,0.59066,
2,1,0,1,0,47402.1,0.59508,0.594748,0.286061,72,0.0337307,10,0.000170134,-3.54354,0.398336,0.148116,0.594622,
2,1,0,1,0,47402.9,0.599076,0.598755,0.292948,72,0.0339687,10,0.000175404,-3.53321,0.387049,0.152436,0.598626,
2,1,0,0,0,47403.7,0.603071,0.602804,0.301639,72,0.0342126,10,0.000181829,-3.52051,0.290208,0.203302,0.602672,
2,1,0,1,0,47404.5,0.607066,0.606806,0.311313,72,0.0344636,10,0.000188907,-3.5068,0.308465,0.19127,0.606669,
2,1,0,1,0,47405.3,0.611061,0.610832,0.321595,72,0.0347222,10,0.00019644,-3.49269,0.286302,0.206076,0.61069,
2,1,0,1,0,47406.1,0.615056,0.614788,0.332604,72,0.0349896,10,0.000204481,-3.47807,0.233711,0.252449,0.614642,
2,1,0,1,0,47406.9,0.619051,0.61879,0.345594,72,0.0352674,10,0.000213851,-3.46143,0.216514,0.272499,0.618638,
2,1,0,0,0,47407.7,0.623047,0.622776,0.362531,72,0.0355567,10,0.000225776,-3.44065,0.191594,0.307943,0.622616,
2,1,0,1,0,47408.5,0.627042,0.626781,0.380566,72,0.0358597,10,0.000238531,-3.41957,0.169599,0.347878,0.626614,
2,1,0,1,0,47409.3,0.631037,0.630733,0.402689,72,0.036179,10,0.000253989,-3.39503,0.16815,0.350877,0.630555,
2,1,0,1,0,47410.1,0.635032,0.634757,0.426949,72,0.0365164,10,0.000271009,-3.36962,0.142974,0.412662,0.634569,
2,1,0,1,0,47410.9,0.639027,0.638784,0.455402,72,0.0368754,10,0.000290904,-3.3416,0.132806,0.444257,0.638584,
2,1,0,1,0,47411.7,0.643022,0.642717,0.489291,72,0.0372594,10,0.000314475,-3.31043,0.123796,0.476592,0.642502,
2,1,0,1,0,47412.5,0.647018,0.646737,0.529656,72,0.0376726,10,0.000342548,-3.27601,0.115739,0.509768,0.646504,
2,1,0,0,0,47413.3,0.651013,0.650749,0.573068,72,0.0381191,10,0.000372924,-3.24179,0.109907,0.536819,0.650497,
2,1,0,1,0,47414.1,0.655008,0.65475,0.627976,72,0.0386047,10,0.000411167,-3.20206,0.095959,0.614846,0.654473,
2,1,0,1,0,47414.9,0.659003,0.658748,0.689505,72,0.0391368,10,0.00045421,-3.16146,0.0963214,0.612532,0.658445,
2,1,0,1,0,47415.7,0.662998,0.662724,0.761369,72,0.039722,10,0.000504578,-3.1184,0.0895881,0.658569,0.662389,
2,1,0,1,0,47416.5,0.666994,0.666718,0.843793,72,0.0403688,10,0.000562572,-3.07376,0.0871149,0.677267,0.666347,
2,1,0,0,0,47417.3,0.670989,0.670737,0.937557,72,0.0410864,10,0.000628854,-3.028,0.0836848,0.705026,0.670324,
2,1,0,1,0,47418.1,0.674984,0.674742,1.04607,72,0.0418849,10,0.00070583,-2.98044,0.0854761,0.690252,0.674282,
2,1,0,1,0,47418.9,0.67898,0.678724,1.16819,72,0.0427749,10,0.00079288,-2.93249,0.0804067,0.733769,0.67821,
2,1,0,1,0,47419.7,0.682974,0.682725,1.3068,72,0.0437693,10,0.000892186,-2.88379,0.0812344,0.726294,0.68215,
2,1,0,1,0,47420.5,0.686969,0.686707,1.46031,72,0.0448801,10,0.0010028,-2.83556,0.0811448,0.727095,0.686064,
2,1,0,0,0,47421.3,0.690965,0.690692,1.63146,72,0.0461208,10,0.00112684,-2.78742,0.0812311,0.726323,0.689974,
2,1,0,1,0,47422.1,0.69496,0.694717,1.82084,72,0.0475056,10,0.00126497,-2.73973,0.0826339,0.713993,0.693916,
2,1,0,0,0,47422.9,0.698955,0.698699,2.02869,72,0.0490492,10,0.00141744,-2.69278,0.0834734,0.706812,0.697806,
2,1,0,1,0,47423.7,0.70295,0.702688,2.25515,72,0.0507659,10,0.00158467,-2.64682,0.0870426,0.677829,0.701696,
2,1,0,1,0,47424.5,0.706945,0.706729,2.49986,72,0.0526706,10,0.00176672,-2.60208,0.0873689,0.675297,0.705629,
2,1,0,1,0,47425.3,0.71094,0.710668,2.76234,72,0.0547779,10,0.0019631,-2.55872,0.0903959,0.652684,0.709453,
2,1,0,1,0,47426.1,0.714936,0.714669,3.0428,72,0.0571035,10,0.00217459,-2.51673,0.0930394,0.63414,0.71333,
2,1,0,0,0,47426.9,0.718931,0.718693,3.34611,72,0.0596612,10,0.00240482,-2.47546,0.0958106,0.615798,0.71722,
2,1,0,1,0,47427.7,0.722927,0.722637,3.66526,72,0.0624679,10,0.00264865,-2.4359,0.0969649,0.608468,0.721024,
2,1,0,1,0,47428.5,0.726921,0.726648,4.00559,72,0.0655381,10,0.00291065,-2.39733,0.102372,0.576329,0.724886,
2,1,0,1,0,47429.3,0.730916,0.730641,4.36453,72,0.0688872,10,0.0031889,-2.36006,0.104377,0.565259,0.728721,
2,1,0,1,0,47430.1,0.734911,0.734639,4.74334,72,0.0725316,10,0.00348464,-2.32392,0.107368,0.549511,0.732551,
2,1,0,0,0,47430.9,0.738907,0.738686,5.14432,72,0.0764881,10,0.00380003,-2.28867,0.109771,0.537483,0.736422,
2,1,0,1,0,47431.7,0.742902,0.742653,5.56478,72,0.0807723,10,0.0041327,-2.25455,0.112746,0.523299,0.740204,
2,1,0,1,0,47432.5,0.746897,0.746613,6.00939,72,0.085403,10,0.00448668,-2.22117,0.11532,0.51162,0.743968,
2,1,0,1,0,47433.3,0.750892,0.750606,6.47695,72,0.0903968,10,0.00486164,-2.18863,0.117776,0.500952,0.747756,
2,1,0,1,0,47434.1,0.754887,0.754605,6.96725,72,0.0957737,10,0.00525752,-2.15694,0.119426,0.494031,0.75154,
2,1,0,0,0,47434.9,0.758883,0.758585,7.48828,72,0.101555,10,0.0056805,-2.12562,0.123494,0.477756,0.75529,
2,1,0,1,0,47435.7,0.762878,0.762618,8.03467,72,0.107761,10,0.00612739,-2.09503,0.122112,0.483161,0.759083,
2,1,0,0,0,47436.5,0.766873,0.766594,8.61176,72,0.114417,10,0.00660172,-2.06491,0.126637,0.465898,0.762804,
2,1,0,1,0,47437.3,0.770868,0.770619,9.22708,72,0.121549,10,0.00711057,-2.03494,0.124253,0.474839,0.766559,
2,1,0,1,0,47438.1,0.774863,0.774604,9.87317,72,0.129184,10,0.00764779,-2.00554,0.125467,0.470241,0.77026,
2,1,0,1,0,47438.9,0.778858,0.77861,10.5613,72,0.137353,10,0.00822311,-1.97628,0.125424,0.470405,0.773963,
2,1,0,1,0,47439.7,0.782854,0.782625,11.3014,72,0.146092,10,0.00884475,-1.94687,0.12741,0.463072,0.777652,
2,1,0,0,0,47440.5,0.786849,0.786593,12.075,72,0.155435,10,0.00949811,-1.91811,0.123059,0.479446,0.78128,
2,1,0,1,0,47441.3,0.790844,0.790559,12.9246,72,0.165426,10,0.0102177,-1.88858,0.124116,0.47536,0.784872,
2,1,0,1,0,47442.1,0.794839,0.794586,13.8108,72,0.176111,10,0.0109739,-1.85978,0.125392,0.470523,0.78851,
2,1,0,1,0,47442.9,0.798834,0.798587,14.7504,72,0.187527,10,0.0117795,-1.8312,0.124786,0.472808,0.792097,
2,1,0,1,0,47443.7,0.802829,0.802553,15.7616,72,0.199718,10,0.0126495,-1.8024,0.122118,0.483138,0.795617,
2,1,0,0,0,47444.5,0.806825,0.806561,16.8176,72,0.212744,10,0.0135644,-1.77424,0.126297,0.467153,0.799162,
2,1,0,1,0,47445.3,0.81082,0.810559,17.924,72,0.22663,10,0.0145284,-1.74657,0.129026,0.45727,0.802672,
2,1,0,1,0,47446.1,0.814815,0.814557,19.0746,72,0.241417,10,0.0155374,-1.71954,0.130167,0.453263,0.806164,
2,1,0,1,0,47446.9,0.81881,0.818565,20.2698,72,0.25714,10,0.0165921,-1.69315,0.132331,0.445852,0.809646,
2,1,0,1,0,47447.7,0.822805,0.822582,21.527,72,0.273842,10,0.0177077,-1.66702,0.136647,0.431771,0.81311,
2,1,0,0,0,47448.5,0.826801,0.826561,22.7611,72,0.291543,10,0.0188134,-1.64281,0.143046,0.412453,0.816546,
2,1,0,1,0,47449.3,0.830796,0.830556,24.05,72,0.310251,10,0.0199749,-1.61889,0.14213,0.415112,0.819974,
2,1,0,0,0,47450.1,0.834791,0.83452,25.4164,72,0.330021,10,0.0212105,-1.59489,0.144679,0.4078,0.823337,
2,1,0,1,0,47450.9,0.838786,0.83853,26.7651,72,0.350882,10,0.0224433,-1.57243,0.158296,0.37272,0.826753,
2,1,0,1,0,47451.7,0.842781,0.842501,28.122,72,0.372814,10,0.0236928,-1.55095,0.157758,0.373989,0.830128,
2,1,0,1,0,47452.5,0.846776,0.846551,29.5419,72,0.395865,10,0.0250088,-1.52956,0.171859,0.343305,0.833553,
2,1,0,0,0,47453.2,0.849723,0.849512,30.3878,72,0.416926,10,0.0258148,-1.5173,0.0450548,1.30952,0.836141,
2,1,0,1,0,47454,0.845728,0.845443,28.2342,72,0.440282,10,0.0238704,-1.54922,0.110171,0.53553,0.83302,
2,1,0,0,0,47454.8,0.841732,0.841507,26.4939,72,0.462121,10,0.0222948,-1.57685,0.117352,0.502761,0.82985,
2,1,0,1,0,47455.6,0.837737,0.837504,24.8757,72,0.48262,10,0.0208335,-1.60423,0.124258,0.47482,0.826558,
2,1,0,1,0,47456.4,0.833742,0.833504,23.347,72,0.501877,10,0.0194598,-1.63177,0.117207,0.503382,0.823232,
2,1,0,1,0,47457.2,0.829747,0.829494,21.8783,72,0.519927,10,0.0181479,-1.65999,0.121524,0.4855,0.819867,
2,1,0,1,0,47458,0.825752,0.825511,20.5171,72,0.536851,10,0.016937,-1.68789,0.122453,0.481819,0.816483,
2,1,0,0,0,47458.8,0.821757,0.821481,19.2445,72,0.55272,10,0.015809,-1.71569,0.12369,0.477,0.813014,
2,1,0,1,0,47459.6,0.817761,0.817478,18.0054,72,0.56759,10,0.014719,-1.7446,0.118802,0.496626,0.809555,
2,1,0,1,0,47460.4,0.813766,0.813512,16.8577,72,0.581501,10,0.013714,-1.7732,0.121369,0.486119,0.806095,
2,1,0,1,0,47461.2,0.809771,0.809498,15.7651,72,0.594524,10,0.0127618,-1.8023,0.119186,0.495024,0.802561,
2,1,0,1,0,47462,0.805776,0.805483,14.7186,72,0.606688,10,0.0118556,-1.83213,0.11885,0.496424,0.799007,
2,1,0,0,0,47462.8,0.801781,0.8015,13.7244,72,0.618039,10,0.0110001,-1.86251,0.116682,0.505648,0.795461,
2,1,0,1,0,47463.6,0.797786,0.797512,12.7866,72,0.62862,10,0.0101974,-1.89325,0.116226,0.507632,0.791886,
2,1,0,1,0,47464.4,0.79379,0.793509,11.9053,72,0.638473,10,0.00944695,-1.92426,0.115564,0.510539,0.788271,
2,1,0,1,0,47465.2,0.789795,0.78953,11.0772,72,0.647644,10,0.00874581,-1.95557,0.116049,0.508406,0.784656,
2,1,0,1,0,47466,0.7858,0.785522,10.2898,72,0.656169,10,0.00808288,-1.98759,0.11185,0.527492,0.780995,
2,1,0,0,0,47466.8,0.781805,0.781522,9.54578,72,0.664083,10,0.00746024,-2.02019,0.114811,0.51389,0.777322,
2,1,0,1,0,47467.6,0.77781,0.777546,8.8597,72,0.671426,10,0.00688883,-2.05258,0.0971734,0.607162,0.773648,
2,1,0,0,0,47468.4,0.773814,0.773583,8.12712,72,0.678193,10,0.006287,-2.09006,0.112951,0.522351,0.770007,
2,1,0,1,0,47469.1,0.769819,0.769579,7.52804,72,0.68444,10,0.00579342,-2.12332,0.112284,0.525452,0.766267,
2,1,0,1,0,47469.9,0.765824,0.765514,6.96983,72,0.69022,10,0.0053355,-2.15678,0.111784,0.527804,0.762447,
2,1,0,1,0,47470.7,0.761829,0.761548,6.44334,72,0.695571,10,0.00490691,-2.19089,0.109888,0.536911,0.758713,
2,1,0,1,0,47471.5,0.757834,0.757529,5.94736,72,0.700513,10,0.0045053,-2.22568,0.106579,0.553581,0.754912,
2,1,0,0,0,47472.3,0.753839,0.75357,5.47818,72,0.705068,10,0.00412819,-2.26136,0.105691,0.558234,0.751159,
2,1,0,1,0,47473.1,0.749844,0.749608,5.03775,72,0.709262,10,0.00377633,-2.29776,0.102483,0.575708,0.747391,
2,1,0,1,0,47473.9,0.745848,0.745574,4.62412,72,0.713114,10,0.00344763,-2.33497,0.102471,0.575773,0.743539,
2,1,0,1,0,47474.7,0.741853,0.741585,4.23443,72,0.716644,10,0.00314019,-2.3732,0.097706,0.603852,0.739722,
2,1,0,1,0,47475.5,0.737858,0.737587,3.86599,72,0.719873,10,0.00285151,-2.41274,0.0968544,0.609162,0.735886,
2,1,0,0,0,47476.3,0.733863,0.733588,3.52189,72,0.722816,10,0.00258362,-2.45322,0.0938893,0.628399,0.732039,
2,1,0,1,0,47477.1,0.729868,0.729582,3.19936,72,0.725494,10,0.0023342,-2.49494,0.0902424,0.653795,0.728174,
2,1,0,1,0,47477.9,0.725872,0.725623,2.89943,72,0.727922,10,0.00210389,-2.53769,0.0896845,0.657862,0.724347,
2,1,0,1,0,47478.7,0.721877,0.721595,2.61594,72,0.730118,10,0.00188765,-2.58237,0.0853632,0.691164,0.720444,
2,1,0,1,0,47479.5,0.717882,0.717584,2.348,72,0.732094,10,0.00168489,-2.6293,0.0811072,0.727432,0.716551,
2,1,0,0,0,47480.3,0.713887,0.713601,2.10083,72,0.733864,10,0.00149915,-2.67761,0.0789784,0.74704,0.712676,
2,1,0,1,0,47481.1,0.709892,0.709631,1.87289,72,0.735444,10,0.00132906,-2.72749,0.0756591,0.779813,0.708806,
2,1,0,0,0,47481.9,0.705897,0.705581,1.65964,72,0.736848,10,0.00117101,-2.77998,0.0723784,0.81516,0.704851,
2,1,0,1,0,47482.7,0.701901,0.701633,1.46351,72,0.738088,10,0.00102684,-2.83461,0.0703303,0.838899,0.700989,
2,1,0,1,0,47483.5,0.697906,0.697614,1.28215,72,0.739177,10,0.000894449,-2.89206,0.0667485,0.883915,0.69705,
2,1,0,1,0,47484.3,0.693911,0.693651,1.11596,72,0.740128,10,0.000774088,-2.95235,0.0642524,0.918253,0.69316,
2,1,0,1,0,47485.1,0.689916,0.689619,0.966158,72,0.740952,10,0.000666281,-3.01495,0.0608029,0.970348,0.689193,
2,1,0,0,0,47485.9,0.685921,0.685652,0.829773,72,0.741663,10,0.000568936,-3.08104,0.0580558,1.01626,0.685287,
2,1,0,1,0,47486.7,0.681926,0.681628,0.705694,72,0.742269,10,0.000481021,-3.15138,0.0541853,1.08886,0.681318,
2,1,0,1,0,47487.5,0.67793,0.677623,0.594684,72,0.742781,10,0.000402971,-3.22571,0.0530466,1.11223,0.677361,
2,1,0,1,0,47488.3,0.673935,0.673649,0.496931,72,0.74321,10,0.000334757,-3.3037,0.048392,1.21921,0.67343,
2,1,0,1,0,47489.1,0.66994,0.669675,0.409356,72,0.743565,10,0.000274135,-3.3879,0.0452893,1.30274,0.669495,
2,1,0,0,0,47489.9,0.665945,0.665663,0.332821,72,0.743855,10,0.000221546,-3.47779,0.0435016,1.35627,0.665516,
2,1,0,1,0,47490.7,0.66195,0.661681,0.267236,72,0.744088,10,0.000176825,-3.57311,0.0381136,1.548,0.661564,
2,1,0,0,0,47491.5,0.657955,0.657665,0.208014,72,0.744271,10,0.000136804,-3.68191,0.0356224,1.65626,0.657574,
2,1,0,1,0,47492.3,0.653959,0.653686,0.158497,72,0.744411,10,0.000103607,-3.79998,0.0316399,1.86474,0.653617,
2,1,0,1,0,47493.1,0.649964,0.649691,0.115095,72,0.744513,10,7.47764e-05,-3.93894,0.0263214,2.24153,0.649641,
2,1,0,1,0,47493.9,0.64597,0.645673,0.0816359,72,0.744585,10,5.27101e-05,-4.08812,0.021929,2.6905,0.645637,
2,1,0,1,0,47494.7,0.641974,0.641734,0.0490252,72,0.74463,10,3.14611e-05,-4.30958,0.0147905,3.98905,0.641712,
2,1,0,0,0,47495.5,0.637979,0.637671,0.0224061,72,0.74465,10,1.42877e-05,-4.64963,0.00785247,7.51356,0.637661,
2,1,0,1,0,47496.3,0.633983,0.633697,-0.000664199,72,0.744652,10,-4.20901e-07,-6.1777,0.0915398,0.644528,0.633697,
2,0,0,1,0,47497.1,0.629988,0.62971,-0.0187288,72,0.744638,10,-1.17937e-05,-4.72749,-0.00886152,-6.658,0.629718,
2,0,0,1,0,47497.9,0.625993,0.625711,-0.0337032,72,0.74461,10,-2.10885e-05,-4.47233,-0.0214516,-2.75038,0.625726,
2,0,0,1,0,47498.7,0.621998,0.621723,-0.0463664,72,0.744572,10,-2.8827e-05,-4.3338,-0.0392807,-1.50201,0.621743,
2,0,0,0,0,47499.5,0.618003,0.617752,-0.0576942,72,0.744523,10,-3.56407e-05,-4.23887,-0.044874,-1.31479,0.617777,
2,0,0,1,0,47500.3,0.614008,0.613715,-0.067139,72,0.744467,10,-4.12042e-05,-4.17303,-0.0882367,-0.668656,0.613744,
2,0,0,1,0,47501.1,0.610012,0.609721,-0.0750433,72,0.744403,10,-4.57555e-05,-4.12469,-0.0922895,-0.639293,0.609754,
2,0,0,1,0,47501.9,0.606017,0.605715,-0.0803968,72,0.744334,10,-4.86975e-05,-4.09476,-0.111573,-0.528803,0.60575,
2,0,0,1,0,47502.7,0.602022,0.601712,-0.086789,72,0.74426,10,-5.2222e-05,-4.06154,-0.156791,-0.376297,0.601751,
2,0,0,0,0,47503.5,0.598027,0.597775,-0.0920016,72,0.744182,10,-5.49963e-05,-4.0362,-0.175115,-0.336921,0.597815,
2,0,0,1,0,47504.3,0.594032,0.593737,-0.0956971,72,0.7441,10,-5.68189e-05,-4.0191,-0.328061,-0.179845,0.593779,
2,0,0,0,0,47505.1,0.590037,0.589728,-0.100055,72,0.744015,10,-5.90053e-05,-3.99976,-0.233704,-0.252456,0.589772,
2,0,0,1,0,47505.9,0.586041,0.585735,-0.102483,72,0.743928,10,-6.00276e-05,-3.98935,-0.427815,-0.13791,0.58578,
2,0,0,1,0,47506.7,0.582046,0.581776,-0.105816,72,0.743838,10,-6.1561e-05,-3.97545,-0.431954,-0.136589,0.581823,
2,0,0,1,0,47507.5,0.578052,0.577732,-0.107226,72,0.743747,10,-6.19479e-05,-3.9697,-0.34289,-0.172067,0.57778,
2,0,0,1,0,47508.3,0.574056,0.573746,-0.108854,72,0.743653,10,-6.24543e-05,-3.96316,-0.575241,-0.102566,0.573794,
2,0,0,0,0,47509.1,0.570061,0.569773,-0.111901,72,0.743559,10,-6.37582e-05,-3.95117,-0.675488,-0.0873443,0.569822,
2,0,0,1,0,47509.9,0.566065,0.56581,-0.112495,72,0.743463,10,-6.36507e-05,-3.94887,-0.714311,-0.082597,0.56586,
2,0,0,1,0,47510.7,0.56207,0.56181,-0.113657,72,0.743365,10,-6.38534e-05,-3.94441,-1.95091,-0.0302423,0.56186,
2,0,0,1,0,47511.5,0.558075,0.557807,-0.115619,72,0.743267,10,-6.44934e-05,-3.93697,-0.460759,-0.12805,0.557858,
2,0,0,1,0,47512.3,0.55408,0.553772,-0.115922,72,0.743168,10,-6.41945e-05,-3.93583,-1.31893,-0.0447331,0.553823,
2,0,0,0,0,47513.1,0.550085,0.549801,-0.116764,72,0.743068,10,-6.4197e-05,-3.93269,-1.10467,-0.0534097,0.549852,
2,0,0,1,0,47513.9,0.54609,0.545814,-0.118956,72,0.742967,10,-6.49281e-05,-3.92461,-0.681136,-0.08662,0.545866,
2,0,0,1,0,47514.7,0.542094,0.541801,-0.119405,72,0.742865,10,-6.46936e-05,-3.92298,-1.61253,-0.0365885,0.541853,
2,0,0,1,0,47515.5,0.538099,0.537788,-0.121302,72,0.742762,10,-6.52345e-05,-3.91613,-1.59779,-0.036926,0.537841,
2,0,0,1,0,47516.3,0.534104,0.533818,-0.122097,72,0.742659,10,-6.51773e-05,-3.9133,-0.633182,-0.0931802,0.533871,
2,0,0,0,0,47517.1,0.530109,0.529843,-0.122806,72,0.742554,10,-6.50681e-05,-3.91078,-2.23453,-0.0264038,0.529897,
2,0,0,1,0,47517.9,0.526114,0.525795,-0.124149,72,0.742449,10,-6.52771e-05,-3.90606,-0.934582,-0.0631298,0.52585,
2,0,0,0,0,47518.7,0.522119,0.521846,-0.124812,72,0.742343,10,-6.51326e-05,-3.90374,-1.45464,-0.0405597,0.521901,
2,0,0,1,0,47519.5,0.518123,0.517829,-0.12561,72,0.742236,10,-6.50444e-05,-3.90098,-1.12156,-0.0526052,0.517885,
2,0,0,1,0,47520.3,0.514128,0.513844,-0.126876,72,0.742128,10,-6.51945e-05,-3.89662,-0.852251,-0.0692284,0.513899,
2,0,0,1,0,47521.1,0.510133,0.509864,-0.126704,72,0.742019,10,-6.46019e-05,-3.89721,-0.997782,-0.0591312,0.50992,
2,0,0,1,0,47521.9,0.506138,0.505824,-0.128822,72,0.74191,10,-6.51614e-05,-3.89001,-9.74451,-0.00605469,0.50588,
2,0,0,0,0,47522.7,0.502143,0.501791,-0.129575,72,0.7418,10,-6.50194e-05,-3.88748,-0.610161,-0.0966957,0.501848,
2,0,0,1,0,47523.5,0.498148,0.497855,-0.131414,72,0.741689,10,-6.54253e-05,-3.88136,6.17961,0.00954753,0.497913,
2,0,0,1,0,47524.3,0.494152,0.493872,-0.130755,72,0.741578,10,-6.45764e-05,-3.88354,-0.823648,-0.0716325,0.493929,
2,0,0,1,0,47525.1,0.490157,0.489852,-0.132493,72,0.741465,10,-6.49021e-05,-3.87781,-0.992641,-0.0594374,0.48991,
2,0,0,1,0,47525.9,0.486162,0.485859,-0.132923,72,0.741352,10,-6.45819e-05,-3.8764,-1.36318,-0.0432811,0.485917,
2,0,0,0,0,47526.7,0.482167,0.481839,-0.135719,72,0.741237,10,-6.53945e-05,-3.86736,-0.892723,-0.0660899,0.481899,
2,0,0,1,0,47527.5,0.478172,0.47787,-0.135424,72,0.741122,10,-6.47151e-05,-3.8683,-1.24921,-0.0472297,0.47793,
2,0,0,0,0,47528.3,0.474177,0.473897,-0.137806,72,0.741005,10,-6.53057e-05,-3.86073,-1.13953,-0.0517759,0.473958,
2,0,0,1,0,47529.1,0.470181,0.46989,-0.139059,72,0.740888,10,-6.53426e-05,-3.8568,-0.644344,-0.091566,0.469952,
2,0,0,1,0,47529.9,0.466186,0.465863,-0.140037,72,0.740769,10,-6.5238e-05,-3.85376,-0.869043,-0.0678908,0.465925,
2,0,0,1,0,47530.7,0.462191,0.461922,-0.1421,72,0.740649,10,-6.56389e-05,-3.84741,-0.979464,-0.060237,0.461985,
2,0,0,1,0,47531.5,0.458196,0.457918,-0.143614,72,0.740528,10,-6.57636e-05,-3.8428,-1.27546,-0.0462579,0.457981,
2,0,0,0,0,47532.3,0.454201,0.453928,-0.144393,72,0.740406,10,-6.55442e-05,-3.84045,-0.853079,-0.0691612,0.453992,
2,0,0,1,0,47533.1,0.450205,0.44991,-0.145955,72,0.740283,10,-6.56667e-05,-3.83578,-0.812397,-0.0726246,0.449974,
2,0,0,1,0,47533.9,0.44621,0.445932,-0.146929,72,0.740158,10,-6.55203e-05,-3.83289,-0.762991,-0.0773272,0.445996,
2,0,0,1,0,47534.7,0.442215,0.441897,-0.149863,72,0.740032,10,-6.62239e-05,-3.82431,-2.05975,-0.0286442,0.441963,
2,0,0,1,0,47535.5,0.43822,0.437939,-0.150469,72,0.739905,10,-6.58964e-05,-3.82255,-0.570143,-0.103483,0.438005,
2,0,0,0,0,47536.3,0.434225,0.43392,-0.15209,72,0.739777,10,-6.5995e-05,-3.8179,-0.863263,-0.0683453,0.433986,
2,0,0,1,0,47537.1,0.43023,0.429988,-0.153766,72,0.739647,10,-6.61174e-05,-3.81314,-0.896494,-0.0658119,0.430055,
2,0,0,1,0,47537.9,0.426234,0.425953,-0.155607,72,0.739516,10,-6.62813e-05,-3.80797,-0.737402,-0.0800106,0.426021,
2,0,0,1,0,47538.7,0.422239,0.421944,-0.15787,72,0.739383,10,-6.66124e-05,-3.8017,-1.01926,-0.0578852,0.422013,
2,0,0,1,0,47539.5,0.418244,0.417955,-0.159489,72,0.739249,10,-6.66591e-05,-3.79727,-0.766647,-0.0769585,0.418025,
2,0,0,0,0,47540.3,0.414249,0.413989,-0.159533,72,0.739113,10,-6.60449e-05,-3.79715,-0.694091,-0.0850033,0.414059,
2,0,0,1,0,47541.1,0.410254,0.409932,-0.163015,72,0.738976,10,-6.6825e-05,-3.78777,-1.27275,-0.0463564,0.410004,
2,0,0,0,0,47541.9,0.406259,0.405969,-0.165325,72,0.738837,10,-6.71167e-05,-3.78166,-0.541994,-0.108857,0.406042,
2,0,0,1,0,47542.7,0.402263,0.401907,-0.167347,72,0.738696,10,-6.72578e-05,-3.77638,-0.79961,-0.073786,0.40198,
2,0,0,1,0,47543.5,0.398268,0.397954,-0.169302,72,0.738554,10,-6.73744e-05,-3.77134,-0.311347,-0.189499,0.398028,
2,0,0,1,0,47544.3,0.394274,0.394029,-0.172284,72,0.738409,10,-6.78849e-05,-3.76375,2.98937,0.0197366,0.394104,
2,0,0,1,0,47545.1,0.390278,0.389946,-0.173527,72,0.738263,10,-6.76661e-05,-3.76063,-0.756682,-0.077972,0.390022,
2,0,0,0,0,47545.9,0.386283,0.385965,-0.175139,72,0.738116,10,-6.75976e-05,-3.75662,-0.809942,-0.0728447,0.386042,
2,0,0,1,0,47546.7,0.382287,0.381975,-0.17661,72,0.737967,10,-6.74605e-05,-3.75299,-1.512,-0.0390213,0.382053,
2,0,0,1,0,47547.5,0.378292,0.377985,-0.179654,72,0.737816,10,-6.79064e-05,-3.74556,-1.36919,-0.0430912,0.378064,
2,0,0,1,0,47548.3,0.374297,0.374011,-0.181476,72,0.737664,10,-6.78739e-05,-3.74118,-0.421351,-0.140026,0.374091,
2,0,0,1,0,47549.1,0.370303,0.370036,-0.183206,72,0.73751,10,-6.77929e-05,-3.73706,-1.01807,-0.0579531,0.370116,
2,0,0,0,0,47549.9,0.366307,0.366026,-0.18575,72,0.737354,10,-6.79894e-05,-3.73107,-0.838084,-0.0703987,0.366108,
2,0,0,1,0,47550.7,0.362312,0.361941,-0.187892,72,0.737196,10,-6.8006e-05,-3.72609,-0.647993,-0.0910503,0.362024,
2,0,0,1,0,47551.5,0.358316,0.35803,-0.189578,72,0.737037,10,-6.78746e-05,-3.72221,-1.78335,-0.0330837,0.358114,
2,0,0,1,0,47552.2,0.354321,0.354001,-0.191877,72,0.736876,10,-6.79245e-05,-3.71698,-0.640235,-0.0921537,0.354085,
2,0,0,1,0,47553,0.350327,0.35004,-0.194245,72,0.736713,10,-6.79933e-05,-3.71165,-0.691302,-0.0853462,0.350125,
2,0,0,0,0,47553.8,0.346331,0.346015,-0.196184,72,0.736547,10,-6.78827e-05,-3.70734,-1.21213,-0.0486746,0.346101,
2,0,0,1,0,47554.6,0.342336,0.342035,-0.198513,72,0.736381,10,-6.78986e-05,-3.70221,-0.733474,-0.0804392,0.342123,
2,0,0,0,0,47555.4,0.338341,0.338068,-0.200607,72,0.736212,10,-6.78188e-05,-3.69765,-0.837875,-0.0704163,0.338157,
2,0,0,1,0,47556.2,0.334345,0.33406,-0.203475,72,0.736042,10,-6.79729e-05,-3.69149,-0.676239,-0.0872472,0.334149,
2,0,0,1,0,47557,0.33035,0.330059,-0.205988,72,0.735869,10,-6.79882e-05,-3.68616,-0.824185,-0.0715858,0.33015,
2,0,0,1,0,47557.8,0.326355,0.326079,-0.208889,72,0.735695,10,-6.81143e-05,-3.68008,-0.815732,-0.0723277,0.326171,
2,0,0,1,0,47558.6,0.32236,0.322073,-0.211152,72,0.735518,10,-6.80063e-05,-3.67541,-0.777456,-0.0758885,0.322166,
2,0,0,0,0,47559.4,0.318365,0.318059,-0.212042,72,0.73534,10,-6.74419e-05,-3.67358,-0.753225,-0.0783298,0.318152,
2,0,0,1,0,47560.2,0.31437,0.314049,-0.215372,72,0.73516,10,-6.76373e-05,-3.66681,-1.41423,-0.0417188,0.314144,
2,0,0,1,0,47561,0.310374,0.310061,-0.218093,72,0.734978,10,-6.76219e-05,-3.66136,-0.565151,-0.104397,0.310157,
2,0,0,1,0,47561.8,0.306379,0.306079,-0.220745,72,0.734793,10,-6.75654e-05,-3.65611,-0.79674,-0.0740517,0.306176,
2,0,0,1,0,47562.6,0.302385,0.30209,-0.222177,72,0.734607,10,-6.71177e-05,-3.6533,-0.846105,-0.0697313,0.302188,
2,0,0,0,0,47563.4,0.298389,0.298074,-0.225415,72,0.734419,10,-6.71904e-05,-3.64702,-0.683001,-0.0863834,0.298173,
2,0,0,1,0,47564.2,0.294394,0.294062,-0.227173,72,0.734229,10,-6.68029e-05,-3.64364,-1.00064,-0.0589623,0.294161,
2,0,0,1,0,47565,0.290398,0.290106,-0.230266,72,0.734037,10,-6.68016e-05,-3.63777,-0.787488,-0.0749218,0.290207,
2,0,0,1,0,47565.8,0.286403,0.286058,-0.232348,72,0.733842,10,-6.6465e-05,-3.63386,-0.799198,-0.073824,0.28616,
2,0,0,1,0,47566.6,0.282408,0.282135,-0.235484,72,0.733645,10,-6.64384e-05,-3.62804,-1.0789,-0.0546855,0.282239,
2,0,0,1,0,47567.4,0.278414,0.278139,-0.236812,72,0.733447,10,-6.58667e-05,-3.6256,-0.756213,-0.0780204,0.278243,
2,0,0,1,0,47568.2,0.274418,0.274111,-0.241269,72,0.733246,10,-6.61345e-05,-3.6175,-1.0765,-0.0548073,0.274217,
2,0,0,0,0,47569,0.270423,0.270086,-0.243274,72,0.733044,10,-6.57049e-05,-3.6139,-0.683312,-0.0863441,0.270193,
2,0,0,1,0,47569.8,0.266427,0.266126,-0.245816,72,0.732839,10,-6.54179e-05,-3.60939,-0.972104,-0.0606931,0.266234,
2,0,0,1,0,47570.6,0.262432,0.262125,-0.249054,72,0.732632,10,-6.52833e-05,-3.60371,-1.32384,-0.0445674,0.262235,
2,0,0,1,0,47571.4,0.258437,0.258155,-0.251239,72,0.732423,10,-6.48586e-05,-3.59991,-0.766024,-0.0770211,0.258266,
2,0,0,1,0,47572.2,0.254442,0.25409,-0.253033,72,0.732212,10,-6.42929e-05,-3.59682,-0.767392,-0.0768838,0.254201,
2,0,0,0,0,47573,0.250447,0.250162,-0.256015,72,0.732,10,-6.40453e-05,-3.59173,-2.34111,-0.0252017,0.250274,
2,0,0,1,0,47573.8,0.246452,0.246145,-0.258186,72,0.731785,10,-6.35511e-05,-3.58807,-0.566162,-0.10421,0.246259,
2,0,0,1,0,47574.6,0.242456,0.242108,-0.259711,72,0.731568,10,-6.28781e-05,-3.58551,-3.40028,-0.0173515,0.242222,
2,0,0,1,0,47575.4,0.238461,0.238175,-0.262115,72,0.73135,10,-6.24292e-05,-3.58151,-0.911298,-0.0647429,0.23829,
2,0,0,1,0,47576.2,0.234467,0.234147,-0.26491,72,0.73113,10,-6.20277e-05,-3.5769,-0.99242,-0.0594506,0.234263,
2,0,0,0,0,47577,0.230471,0.230121,-0.267186,72,0.730907,10,-6.14851e-05,-3.57319,-1.17771,-0.0500971,0.230239,
2,0,0,1,0,47577.8,0.226476,0.226175,-0.270674,72,0.730683,10,-6.12197e-05,-3.56755,-1.12296,-0.0525399,0.226294,
2,0,0,0,0,47578.6,0.222481,0.222155,-0.271647,72,0.730457,10,-6.03478e-05,-3.566,-0.717301,-0.0822528,0.222275,
2,0,0,1,0,47579.4,0.218485,0.218179,-0.275086,72,0.730228,10,-6.00179e-05,-3.56053,-2.18246,-0.0270337,0.2183,
2,0,0,1,0,47580.2,0.21449,0.214179,-0.278131,72,0.729998,10,-5.957e-05,-3.55575,-0.649788,-0.0907988,0.214302,
2,0,0,1,0,47581,0.210496,0.210208,-0.280158,72,0.729765,10,-5.88915e-05,-3.5526,-0.928345,-0.063554,0.210332,
2,0,0,1,0,47581.8,0.2065,0.206178,-0.284422,72,0.72953,10,-5.86416e-05,-3.54604,-0.826549,-0.0713812,0.206303,
2,0,0,0,0,47582.6,0.202505,0.202167,-0.286006,72,0.729293,10,-5.78209e-05,-3.54362,-0.969243,-0.0608722,0.202293,
2,0,0,1,0,47583.4,0.198509,0.198177,-0.28974,72,0.729052,10,-5.74198e-05,-3.53799,-0.860621,-0.0685552,0.198305,
2,0,0,1,0,47584.2,0.194514,0.194169,-0.292643,72,0.72881,10,-5.68221e-05,-3.53366,-0.72281,-0.0816259,0.194298,
2,0,0,1,0,47585,0.190519,0.190192,-0.295567,72,0.728564,10,-5.62144e-05,-3.52934,-0.790108,-0.0746733,0.190322,
2,0,0,1,0,47585.8,0.186524,0.186221,-0.299803,72,0.728315,10,-5.58297e-05,-3.52316,-0.937483,-0.0629345,0.186353,
2,0,0,0,0,47586.6,0.182529,0.182208,-0.304274,72,0.728064,10,-5.54411e-05,-3.51673,-0.456477,-0.129251,0.182342,
2,0,0,1,0,47587.4,0.178534,0.178227,-0.310956,72,0.727808,10,-5.54207e-05,-3.5073,-0.44715,-0.131947,0.178364,
2,0,0,1,0,47588.2,0.174538,0.174147,-0.316429,72,0.727547,10,-5.51052e-05,-3.49972,-0.557553,-0.105819,0.174287,
2,0,0,1,0,47589,0.170543,0.170175,-0.32238,72,0.727282,10,-5.48611e-05,-3.49163,-0.351303,-0.167946,0.170317,
2,0,0,1,0,47589.8,0.166549,0.166219,-0.329577,72,0.72701,10,-5.4782e-05,-3.48204,-0.375392,-0.157169,0.166364,
2,0,0,0,0,47590.6,0.162553,0.162206,-0.33933,72,0.726732,10,-5.50414e-05,-3.46938,-0.288718,-0.204351,0.162356,
2,0,0,1,0,47591.4,0.158558,0.158222,-0.350768,72,0.726445,10,-5.54994e-05,-3.45498,-0.262886,-0.224432,0.158377,
2,0,0,0,0,47592.2,0.154563,0.154209,-0.366451,72,0.726148,10,-5.651e-05,-3.43598,-0.202417,-0.291477,0.15437,
2,0,0,1,0,47593,0.150567,0.150248,-0.386824,72,0.725837,10,-5.81195e-05,-3.41249,-0.154474,-0.381942,0.150418,
2,0,0,1,0,47593.8,0.146572,0.146243,-0.412604,72,0.725508,10,-6.03405e-05,-3.38447,-0.121591,-0.485233,0.146425,
2,0,0,1,0,47594.6,0.142578,0.142269,-0.447638,72,0.725155,10,-6.3685e-05,-3.34907,-0.105624,-0.558584,0.142466,
2,0,0,1,0,47595.4,0.138582,0.138242,-0.49006,72,0.72477,10,-6.7747e-05,-3.30975,-0.0993228,-0.594022,0.138458,
2,0,0,0,0,47596.2,0.134587,0.134263,-0.537508,72,0.724348,10,-7.21672e-05,-3.26961,-0.102109,-0.577817,0.134499,
2,0,0,1,0,47597,0.130591,0.130299,-0.586641,72,0.723888,10,-7.64385e-05,-3.23163,-0.114259,-0.516371,0.130557,
2,0,0,1,0,47597.8,0.126596,0.12625,-0.627029,72,0.723391,10,-7.91625e-05,-3.20271,-0.156848,-0.376161,0.126526,
2,0,0,1,0,47598.6,0.122602,0.122244,-0.660724,72,0.722865,10,-8.07697e-05,-3.17998,-0.24106,-0.244752,0.122535,
2,0,0,1,0,47599.4,0.118607,0.118283,-0.679398,72,0.722318,10,-8.03611e-05,-3.16788,-0.363204,-0.162443,0.118582,
2,0,0,0,0,47600.2,0.114611,0.114279,-0.690221,72,0.721758,10,-7.88778e-05,-3.16101,-1.23729,-0.047685,0.114583,
2,0,0,1,0,47601,0.110616,0.110292,-0.694308,72,0.721195,10,-7.65766e-05,-3.15845,-4.53511,-0.0130096,0.110598,
2,0,0,1,0,47601.8,0.10662,0.106297,-0.692214,72,0.72063,10,-7.35804e-05,-3.15976,5.58227,0.0105692,0.106602,
2,0,0,1,0,47602.6,0.102625,0.102335,-0.689806,72,0.720066,10,-7.05912e-05,-3.16127,0.967176,0.0610023,0.102638,
2,0,0,1,0,47603.4,0.0986305,0.0982684,-0.684805,72,0.719506,10,-6.72946e-05,-3.16443,1.97873,0.0298172,0.0985697,
2,0,0,0,0,47604.2,0.0946351,0.0943297,-0.676886,72,0.71895,10,-6.38505e-05,-3.16948,0.81393,0.0724878,0.0946276,
2,0,0,1,0,47605,0.0906399,0.0903034,-0.671767,72,0.718399,10,-6.06628e-05,-3.17278,0.605568,0.0974292,0.0905989,
2,0,0,0,0,47605.8,0.0866448,0.0863279,-0.66196,72,0.717856,10,-5.71457e-05,-3.17917,0.813261,0.0725475,0.0866192,
2,0,0,1,0,47606.6,0.0826492,0.0823277,-0.654569,72,0.71732,10,-5.38891e-05,-3.18404,0.635981,0.09277,0.0826157,
2,0,0,1,0,47607.4,0.0786544,0.0783547,-0.644923,72,0.716791,10,-5.05328e-05,-3.19049,0.696883,0.0846627,0.0786385,
2,0,0,1,0,47608.2,0.0746596,0.0743604,-0.635316,72,0.716269,10,-4.72424e-05,-3.19701,0.757614,0.077876,0.07464,
2,0,0,1,0,47609,0.0706641,0.0703306,-0.626715,72,0.715754,10,-4.40772e-05,-3.20293,0.612041,0.0963988,0.0706064,
2,0,0,0,0,47609.8,0.0666689,0.0663923,-0.619319,72,0.715245,10,-4.1118e-05,-3.20809,0.76817,0.0768059,0.0666648,
2,0,0,1,0,47610.6,0.0626737,0.062367,-0.608651,72,0.714744,10,-3.79597e-05,-3.21563,0.646352,0.0912815,0.0626348,
2,0,0,1,0,47611.4,0.0586783,0.058338,-0.601153,72,0.714249,10,-3.50701e-05,-3.22101,0.514192,0.114743,0.0586025,
2,0,0,1,0,47612.2,0.0546835,0.0543442,-0.591368,72,0.713762,10,-3.21374e-05,-3.22814,0.695317,0.0848533,0.0546044,
2,0,0,1,0,47613,0.0506886,0.0503616,-0.580788,72,0.713282,10,-2.92494e-05,-3.23598,0.495128,0.119161,0.0506171,
2,0,0,0,0,47613.8,0.046693,0.0463697,-0.571222,72,0.71281,10,-2.64874e-05,-3.24319,0.487555,0.121012,0.046621,
2,0,0,1,0,47614.6,0.0426979,0.0423974,-0.561215,72,0.712347,10,-2.37941e-05,-3.25087,0.578517,0.101985,0.0426443,
2,0,0,1,0,47615.4,0.0387022,0.0383748,-0.550907,72,0.711892,10,-2.11409e-05,-3.25892,0.409964,0.143915,0.0386172,
2,0,0,1,0,47616.2,0.0347074,0.0343754,-0.539602,72,0.711446,10,-1.8549e-05,-3.26793,0.571252,0.103282,0.0346128,
2,0,0,1,0,47617,0.0307126,0.0304118,-0.528598,72,0.711007,10,-1.60756e-05,-3.27687,0.526194,0.112126,0.0306443,
2,0,0,0,0,47617.8,0.0267172,0.0263746,-0.522762,72,0.710576,10,-1.37877e-05,-3.2817,0.51776,0.113952,0.0266047,
2,0,0,1,0,47618.6,0.022722,0.0224013,-0.514445,72,0.710151,10,-1.15242e-05,-3.28866,0.824138,0.0715899,0.0226277,
2,0,0,0,0,47619.4,0.0187268,0.0184343,-0.50788,72,0.709733,10,-9.36242e-06,-3.29424,0.700947,0.0841718,0.0186578,
2,0,0,1,0,47620.2,0.0147313,0.0144533,-0.504591,72,0.709319,10,-7.29298e-06,-3.29706,1.166,0.0506003,0.0146753,
2,0,0,1,0,47621,0.0107365,0.0103944,-0.499493,72,0.708908,10,-5.19192e-06,-3.30147,3.84734,0.0153353,0.0106142,
2,0,0,1,0,47621.8,0.00674163,0.00639375,-0.499132,72,0.708498,10,-3.19132e-06,-3.30178,18.1256,0.00325506,0.00661337,
2,0,0,1,0,47622.6,0.00274612,0.00243279,-0.499361,72,0.708089,10,-1.21484e-06,-3.30159,-1.46827,-0.0401834,0.00265251,
2,0,0,0,0,47623.1,0.000274105,-7.00306e-05,-0.501321,72,0.707833,10,3.51079e-08,-3.29988, , ,0.000150551,