File: Figure_codes/Fig_3-5/workspace_calculate_alpha_eff/20221101_1-115_003_TrumpetPlot_ParaChange_from10_every3_16_CV_C01_104.csv
mode,ox/red,error,control changes,counter inc.,time/s,control/V,Ewe/V,<I>/mA,cycle number,(Q-Qo)/C,I Range,P/W,log(|I|),Tafel slope mV/dec,alpha_eff,E-IR/V,
2,0,0,0,0,68954.6,2.44065e-05,-0.000306236,-0.10003,105,0.0000000E+000,10,3.06328e-08,-3.99987, , ,-0.000262223,
2,1,0,0,0,68955.3,0.00379485,0.00343488,0.137439,105,8.14838e-05,10,4.72088e-07,-3.86189,0.0285993,2.06299,0.0033744,
2,1,0,1,0,68956.1,0.00779002,0.00746866,0.161406,105,0.00021188,10,1.20548e-06,-3.79208,0.0746326,0.79054,0.00739765,
2,1,0,0,0,68956.9,0.0117852,0.0114675,0.177615,105,0.000357801,10,2.0368e-06,-3.75052,0.123885,0.476249,0.0113893,
2,1,0,1,0,68957.7,0.0157806,0.0154654,0.192209,105,0.000515088,10,2.97259e-06,-3.71623,0.1249,0.472379,0.0153808,
2,1,0,1,0,68958.5,0.0197754,0.0194341,0.203156,105,0.000682717,10,3.94815e-06,-3.69217,0.15757,0.374437,0.0193447,
2,1,0,1,0,68959.3,0.0237704,0.0234551,0.215931,105,0.000860529,10,5.06467e-06,-3.66569,0.150913,0.390953,0.0233601,
2,1,0,1,0,68960.1,0.0277659,0.0274393,0.229131,105,0.00104822,10,6.2872e-06,-3.63992,0.169029,0.349053,0.0273385,
2,1,0,0,0,68960.9,0.0317611,0.0314519,0.241235,105,0.00124634,10,7.58729e-06,-3.61756,0.174762,0.337602,0.0313457,
2,1,0,1,0,68961.7,0.0357567,0.0354427,0.251553,105,0.00145477,10,8.91572e-06,-3.59937,0.187287,0.315024,0.035332,
2,1,0,1,0,68962.5,0.0397516,0.0393849,0.269927,105,0.00167317,10,1.06311e-05,-3.56875,0.152804,0.386115,0.0392662,
2,1,0,1,0,68963.3,0.0437465,0.0434482,0.281754,105,0.00190369,10,1.22417e-05,-3.55013,0.197245,0.299121,0.0433242,
2,1,0,1,0,68964.1,0.0477413,0.0474384,0.296126,105,0.00214422,10,1.40477e-05,-3.52852,0.212138,0.278121,0.0473081,
2,1,0,0,0,68964.9,0.0517369,0.0514289,0.306761,105,0.0023945,10,1.57764e-05,-3.5132,0.216951,0.27195,0.0512939,
2,1,0,1,0,68965.7,0.0557321,0.0554298,0.319428,105,0.00265504,10,1.77059e-05,-3.49563,0.312615,0.18873,0.0552892,
2,1,0,1,0,68966.5,0.0597277,0.059409,0.330944,105,0.00292393,10,1.96611e-05,-3.48025,0.265423,0.222287,0.0592634,
2,1,0,1,0,68967.3,0.0637226,0.0633957,0.340822,105,0.00320164,10,2.16067e-05,-3.46747,0.346519,0.170265,0.0632457,
2,1,0,1,0,68968.1,0.0677174,0.0674015,0.349744,105,0.00348725,10,2.35733e-05,-3.45625,0.403351,0.146275,0.0672476,
2,1,0,0,0,68968.9,0.0717128,0.0714069,0.356885,105,0.00377958,10,2.54841e-05,-3.44747,0.369444,0.1597,0.0712499,
2,1,0,1,0,68969.7,0.075708,0.0753835,0.364712,105,0.00407881,10,2.74932e-05,-3.43805,0.393215,0.150045,0.075223,
2,1,0,0,0,68970.5,0.0797031,0.079395,0.37469,105,0.00438427,10,2.97485e-05,-3.42633,0.412869,0.142902,0.0792301,
2,1,0,1,0,68971.3,0.0836986,0.0833401,0.381909,105,0.00469616,10,3.18284e-05,-3.41804,0.421256,0.140057,0.0831721,
2,1,0,1,0,68972.1,0.0876935,0.0873425,0.392934,105,0.00501581,10,3.43198e-05,-3.40568,0.333873,0.176714,0.0871696,
2,1,0,1,0,68972.9,0.0916883,0.091373,0.404865,105,0.00534379,10,3.69937e-05,-3.39269,0.261468,0.225649,0.0911948,
2,1,0,1,0,68973.7,0.0956838,0.0953636,0.419302,105,0.00568313,10,3.99861e-05,-3.37747,0.241623,0.244182,0.0951791,
2,1,0,0,0,68974.5,0.099679,0.0993677,0.438302,105,0.00603562,10,4.3553e-05,-3.35823,0.251094,0.234972,0.0991749,
2,1,0,1,0,68975.3,0.103674,0.10336,0.456629,105,0.00640255,10,4.71973e-05,-3.34044,0.185951,0.317288,0.103159,
2,1,0,1,0,68976.1,0.10767,0.107332,0.476053,105,0.0067863,10,5.10955e-05,-3.32234,0.225798,0.261295,0.107122,
2,1,0,1,0,68976.9,0.111664,0.11135,0.496156,105,0.00718529,10,5.52471e-05,-3.30438,0.245113,0.240706,0.111132,
2,1,0,1,0,68977.7,0.115659,0.115299,0.510632,105,0.00759799,10,5.88753e-05,-3.29189,0.322386,0.18301,0.115074,
2,1,0,0,0,68978.5,0.119655,0.11936,0.523783,105,0.00802185,10,6.25185e-05,-3.28085,0.620419,0.0950971,0.119129,
2,1,0,1,0,68979.3,0.12365,0.12331,0.531583,105,0.00845312,10,6.55493e-05,-3.27443,0.64512,0.0914558,0.123076,
2,1,0,1,0,68980.1,0.127646,0.127301,0.536092,105,0.00889018,10,6.82452e-05,-3.27076,1.67105,0.0353072,0.127065,
2,1,0,1,0,68980.9,0.13164,0.131292,0.536791,105,0.00932974,10,7.04766e-05,-3.27019,-0.709304,-0.0831802,0.131056,
2,1,0,1,0,68981.7,0.135635,0.135322,0.52561,105,0.00976413,10,7.11263e-05,-3.27934,-0.266507,-0.221382,0.13509,
2,1,0,0,0,68982.5,0.139631,0.139337,0.494365,105,0.010183,10,6.88832e-05,-3.30595,-0.116981,-0.504357,0.139119,
2,1,0,1,0,68983.3,0.143626,0.143324,0.452003,105,0.0105717,10,6.47827e-05,-3.34486,-0.0868687,-0.679186,0.143125,
2,1,0,0,0,68984.1,0.147621,0.147276,0.398972,105,0.010921,10,5.8759e-05,-3.39906,-0.0730621,-0.807532,0.1471,
2,1,0,1,0,68984.9,0.151617,0.15132,0.354088,105,0.0112308,10,5.35807e-05,-3.45089,-0.0846194,-0.697239,0.151165,
2,1,0,1,0,68985.7,0.155612,0.155308,0.322357,105,0.0115087,10,5.00645e-05,-3.49166,-0.115494,-0.510851,0.155166,
2,1,0,1,0,68986.5,0.159606,0.159283,0.300054,105,0.0117658,10,4.77934e-05,-3.5228,-0.162865,-0.362262,0.159151,
2,1,0,1,0,68987.3,0.163602,0.16332,0.2862,105,0.0120092,10,4.67422e-05,-3.54333,-0.199111,-0.296317,0.163194,
2,1,0,0,0,68988.1,0.167597,0.167276,0.276926,105,0.0122434,10,4.63232e-05,-3.55764,-0.362791,-0.162628,0.167154,
2,1,0,1,0,68988.9,0.171592,0.171271,0.270295,105,0.0124714,10,4.62937e-05,-3.56816,-0.468418,-0.125956,0.171152,
2,1,0,1,0,68989.7,0.175588,0.175268,0.265507,105,0.0126947,10,4.65348e-05,-3.57592,-0.562184,-0.104948,0.175151,
2,1,0,1,0,68990.5,0.179582,0.179246,0.262425,105,0.0129147,10,4.70387e-05,-3.58099,-0.89471,-0.0659431,0.17913,
2,1,0,1,0,68991.3,0.183577,0.183287,0.258291,105,0.0131322,10,4.73414e-05,-3.58789,-0.996461,-0.0592095,0.183173,
2,1,0,0,0,68992.1,0.187573,0.187231,0.257237,105,0.0133474,10,4.81628e-05,-3.58967,-1.79932,-0.0327901,0.187118,
2,1,0,1,0,68992.9,0.191568,0.19121,0.255135,105,0.013561,10,4.87842e-05,-3.59323,-1.039,-0.0567852,0.191097,
2,1,0,0,0,68993.7,0.195563,0.195223,0.254054,105,0.0137734,10,4.95972e-05,-3.59507,-0.816025,-0.0723017,0.195111,
2,1,0,1,0,68994.5,0.199559,0.199234,0.252384,105,0.0139846,10,5.02834e-05,-3.59794,-2.4438,-0.0241427,0.199123,
2,1,0,1,0,68995.3,0.203553,0.203247,0.251058,105,0.0141947,10,5.10269e-05,-3.60023,-5.81393,-0.010148,0.203137,
2,1,0,1,0,68996.1,0.207548,0.2073,0.250229,105,0.014404,10,5.18725e-05,-3.60166,-6.60762,-0.00892909,0.20719,
2,1,0,1,0,68996.9,0.211544,0.211201,0.2491,105,0.0146124,10,5.26102e-05,-3.60363,-1.53213,-0.0385084,0.211092,
2,1,0,0,0,68997.7,0.215539,0.215245,0.248545,105,0.0148201,10,5.34979e-05,-3.6046,-1.92016,-0.0307265,0.215135,
2,1,0,1,0,68998.5,0.219535,0.219233,0.247939,105,0.0150268,10,5.43565e-05,-3.60566,-1.64264,-0.0359178,0.219124,
2,1,0,1,0,68999.3,0.223529,0.2232,0.24559,105,0.0152327,10,5.48156e-05,-3.60979,-19.7997,-0.00297985,0.223092,
2,1,0,1,0,69000.1,0.227524,0.227231,0.245732,105,0.015438,10,5.5838e-05,-3.60954,-1.51391,-0.0389718,0.227123,
2,1,0,1,0,69000.9,0.23152,0.2312,0.245399,105,0.0156427,10,5.6736e-05,-3.61013,-14.0162,-0.00420943,0.231092,
2,1,0,0,0,69001.7,0.235515,0.235252,0.242929,105,0.0158469,10,5.71498e-05,-3.61452,-4.28077,-0.0137826,0.235146,
2,1,0,1,0,69002.4,0.23951,0.239202,0.244045,105,0.0160501,10,5.83763e-05,-3.61253,31.1549,0.00189376,0.239095,
2,1,0,1,0,69003.2,0.243506,0.243162,0.242432,105,0.0162526,10,5.89503e-05,-3.61541,-1.93999,-0.0304126,0.243056,
2,1,0,1,0,69004,0.2475,0.247164,0.242009,105,0.0164549,10,5.98159e-05,-3.61617,-1.14972,-0.0513169,0.247058,
2,1,0,1,0,69004.8,0.251495,0.251214,0.241407,105,0.0166565,10,6.0645e-05,-3.61725,-9.99465,-0.00590316,0.251108,
2,1,0,0,0,69005.6,0.255491,0.255206,0.240013,105,0.0168575,10,6.12528e-05,-3.61977,97.734,0.000603679,0.255101,
2,1,0,1,0,69006.4,0.259486,0.259166,0.239888,105,0.017058,10,6.21707e-05,-3.61999,-0.98613,-0.0598298,0.25906,
2,1,0,0,0,69007.2,0.263481,0.263171,0.238662,105,0.0172576,10,6.28088e-05,-3.62222,5.34485,0.0110387,0.263066,
2,1,0,1,0,69008,0.267476,0.267183,0.237991,105,0.0174569,10,6.35872e-05,-3.62344,-1.37975,-0.0427613,0.267078,
2,1,0,1,0,69008.8,0.271471,0.271189,0.237638,105,0.0176553,10,6.44449e-05,-3.62408,-4.88787,-0.0120707,0.271085,
2,1,0,1,0,69009.6,0.275466,0.275136,0.236944,105,0.0178528,10,6.51918e-05,-3.62536,-3.26533,-0.0180686,0.275032,
2,1,0,1,0,69010.4,0.279462,0.279183,0.235544,105,0.0180499,10,6.576e-05,-3.62793,-3.92615,-0.0150274,0.279079,
2,1,0,0,0,69011.2,0.283457,0.283159,0.235774,105,0.0182461,10,6.67617e-05,-3.6275,-2.34933,-0.0251136,0.283056,
2,1,0,1,0,69012,0.287452,0.287096,0.235203,105,0.0184418,10,6.75258e-05,-3.62856,-14.5252,-0.00406191,0.286992,
2,1,0,1,0,69012.8,0.291448,0.29114,0.233237,105,0.0186369,10,6.79049e-05,-3.6322,-0.903751,-0.0652835,0.291038,
2,1,0,1,0,69013.6,0.295442,0.295118,0.232978,105,0.018831,10,6.8756e-05,-3.63268,6.61163,0.00892368,0.295015,
2,1,0,1,0,69014.4,0.299437,0.299129,0.23083,105,0.0190246,10,6.90477e-05,-3.63671,-1.21463,-0.0485745,0.299027,
2,1,0,0,0,69015.2,0.303433,0.303186,0.230964,105,0.0192175,10,7.00252e-05,-3.63646,-17.2671,-0.00341691,0.303085,
2,1,0,1,0,69016,0.307428,0.307067,0.23031,105,0.0194096,10,7.07208e-05,-3.63769,-2.78333,-0.0211977,0.306966,
2,1,0,1,0,69016.8,0.311424,0.311146,0.229822,105,0.0196016,10,7.15083e-05,-3.63861,6.70818,0.00879523,0.311045,
2,1,0,1,0,69017.6,0.315418,0.315164,0.229218,105,0.0197926,10,7.22412e-05,-3.63975,-1.08615,-0.0543202,0.315063,
2,1,0,1,0,69018.4,0.319413,0.319133,0.228544,105,0.0199827,10,7.29359e-05,-3.64103,-2.64809,-0.0222802,0.319033,
2,1,0,0,0,69019.2,0.323409,0.3231,0.228317,105,0.0201727,10,7.37691e-05,-3.64146,-3.77648,-0.015623,0.322999,
2,1,0,1,0,69020,0.327404,0.327096,0.227207,105,0.0203619,10,7.43185e-05,-3.64358,-8.2151,-0.00718189,0.326996,
2,1,0,0,0,69020.8,0.331399,0.331054,0.226213,105,0.0205509,10,7.48886e-05,-3.64548,-3.24474,-0.0181833,0.330954,
2,1,0,1,0,69021.6,0.335395,0.335089,0.225688,105,0.0207392,10,7.56257e-05,-3.64649,13.3159,0.00443079,0.33499,
2,1,0,1,0,69022.4,0.339389,0.33909,0.225286,105,0.0209271,10,7.6392e-05,-3.64727,-3.03172,-0.0194609,0.338991,
2,1,0,1,0,69023.2,0.343384,0.343078,0.225235,105,0.0211146,10,7.7273e-05,-3.64736,-2.37532,-0.0248387,0.342978,
2,1,0,1,0,69024,0.34738,0.347065,0.22443,105,0.0213014,10,7.78918e-05,-3.64892,11.188,0.00527348,0.346966,
2,1,0,0,0,69024.8,0.351375,0.351065,0.224739,105,0.0214878,10,7.8898e-05,-3.64832,-1.71082,-0.0344864,0.350966,
2,1,0,1,0,69025.6,0.35537,0.355015,0.223465,105,0.021674,10,7.93334e-05,-3.65079,-2.02343,-0.0291585,0.354916,
2,1,0,1,0,69026.4,0.359366,0.359081,0.222566,105,0.0218595,10,7.99192e-05,-3.65254,2.10647,0.0280089,0.358983,
2,1,0,1,0,69027.2,0.36336,0.363082,0.222143,105,0.0220451,10,8.06563e-05,-3.65337,-5.53971,-0.0106504,0.362985,
2,1,0,1,0,69028,0.367355,0.367043,0.222688,105,0.0222302,10,8.17361e-05,-3.6523,-4.31903,-0.0136605,0.366945,
2,1,0,0,0,69028.8,0.371351,0.37104,0.222104,105,0.0224149,10,8.24093e-05,-3.65344,11.0173,0.00535523,0.370942,
2,1,0,1,0,69029.6,0.375346,0.375065,0.222351,105,0.0225994,10,8.33961e-05,-3.65296,-2.0259,-0.0291228,0.374967,
2,1,0,1,0,69030.4,0.379342,0.379076,0.221978,105,0.0227834,10,8.41465e-05,-3.65369,-4.75077,-0.012419,0.378978,
2,1,0,1,0,69031.2,0.383336,0.383044,0.221349,105,0.0229673,10,8.47864e-05,-3.65492,12.591,0.0046859,0.382946,
2,1,0,1,0,69032,0.387331,0.387031,0.220731,105,0.023151,10,8.54298e-05,-3.65614,-1.75956,-0.0335311,0.386934,
2,1,0,0,0,69032.8,0.391327,0.391069,0.220863,105,0.0233343,10,8.63725e-05,-3.65588,1.7319,0.0340666,0.390971,
2,1,0,1,0,69033.6,0.395322,0.39502,0.219892,105,0.0235174,10,8.68618e-05,-3.65779,-1.62175,-0.0363805,0.394923,
2,1,0,0,0,69034.4,0.399317,0.399031,0.221026,105,0.0237002,10,8.81963e-05,-3.65556,31.4631,0.00187521,0.398934,
2,1,0,1,0,69035.2,0.403313,0.403008,0.21918,105,0.0238824,10,8.83312e-05,-3.6592,-3.18663,-0.0185149,0.402912,
2,1,0,1,0,69036,0.407307,0.40703,0.219981,105,0.0240645,10,8.95389e-05,-3.65761,10.1737,0.00579927,0.406933,
2,1,0,1,0,69036.8,0.411302,0.410993,0.220846,105,0.0242465,10,9.07662e-05,-3.65591,-22.688,-0.00260049,0.410896,
2,1,0,1,0,69037.6,0.415298,0.414984,0.219438,105,0.0244288,10,9.10631e-05,-3.65869,-3.73195,-0.0158094,0.414887,
2,1,0,0,0,69038.4,0.419293,0.418989,0.219124,105,0.024611,10,9.18105e-05,-3.65931,26.5042,0.00222607,0.418893,
2,1,0,1,0,69039.2,0.423288,0.423007,0.219198,105,0.0247928,10,9.27222e-05,-3.65916,5.46793,0.0107902,0.42291,
2,1,0,1,0,69040,0.427283,0.427023,0.219735,105,0.0249747,10,9.38319e-05,-3.6581,14.6536,0.00402631,0.426926,
2,1,0,1,0,69040.8,0.431278,0.430999,0.219486,105,0.0251562,10,9.45982e-05,-3.65859,10.9934,0.00536685,0.430903,
2,1,0,1,0,69041.6,0.435273,0.434965,0.21899,105,0.0253378,10,9.5253e-05,-3.65958,-16.7977,-0.00351239,0.434868,
2,1,0,0,0,69042.4,0.439269,0.438957,0.219187,105,0.0255194,10,9.62137e-05,-3.65918,-1.71636,-0.0343752,0.43886,
2,1,0,1,0,69043.2,0.443264,0.442961,0.218697,105,0.025701,10,9.68741e-05,-3.66016,2.43722,0.0242079,0.442864,
2,1,0,0,0,69044,0.447259,0.446941,0.219059,105,0.0258824,10,9.79064e-05,-3.65944,-10.2616,-0.00574957,0.446845,
2,1,0,1,0,69044.8,0.451254,0.450938,0.219712,105,0.0260638,10,9.90765e-05,-3.65815,-2.27931,-0.025885,0.450842,
2,1,0,1,0,69045.6,0.455249,0.454957,0.219699,105,0.026245,10,9.99535e-05,-3.65817,1.73538,0.0339984,0.45486,
2,1,0,1,0,69046.4,0.459244,0.458969,0.219112,105,0.0264266,10,0.000100566,-3.65933,13.4431,0.00438885,0.458873,
2,1,0,1,0,69047.2,0.46324,0.462959,0.219666,105,0.0266082,10,0.000101696,-3.65824,-75.8973,-0.000777366,0.462862,
2,1,0,0,0,69048,0.467235,0.466923,0.219411,105,0.0267897,10,0.000102448,-3.65874,2.51169,0.0234901,0.466826,
2,1,0,1,0,69048.8,0.471231,0.470921,0.220659,105,0.0269715,10,0.000103913,-3.65628,-4.36725,-0.0135096,0.470824,
2,1,0,1,0,69049.6,0.475225,0.474926,0.221364,105,0.0271533,10,0.000105132,-3.65489,2.31554,0.02548,0.474828,
2,1,0,1,0,69050.4,0.47922,0.478982,0.220467,105,0.0273357,10,0.0001056,-3.65666,1.7336,0.0340332,0.478885,
2,1,0,1,0,69051.2,0.483216,0.48292,0.221858,105,0.0275184,10,0.00010714,-3.65392,-2.90795,-0.0202892,0.482822,
2,1,0,0,0,69052,0.487211,0.486931,0.222331,105,0.0277015,10,0.00010826,-3.653,2.10801,0.0279885,0.486834,
2,1,0,1,0,69052.8,0.491206,0.490885,0.22268,105,0.0278851,10,0.00010931,-3.65232,3.59567,0.0164086,0.490787,
2,1,0,1,0,69053.6,0.495202,0.494892,0.223754,105,0.0280689,10,0.000110734,-3.65023,2.70006,0.0218514,0.494794,
2,1,0,1,0,69054.4,0.499196,0.498866,0.224293,105,0.0282533,10,0.000111892,-3.64918,1.16908,0.050467,0.498768,
2,1,0,1,0,69055.2,0.503191,0.5029,0.224986,105,0.0284385,10,0.000113145,-3.64784,-6.60571,-0.00893167,0.502801,
2,1,0,0,0,69056,0.507187,0.506876,0.225701,105,0.0286241,10,0.000114402,-3.64647,2.07263,0.0284663,0.506776,
2,1,0,1,0,69056.8,0.511182,0.510874,0.22682,105,0.0288103,10,0.000115876,-3.64432,1.72457,0.0342113,0.510775,
2,1,0,0,0,69057.6,0.515177,0.514853,0.227887,105,0.0289976,10,0.000117329,-3.64228,1.98575,0.0297117,0.514753,
2,1,0,1,0,69058.4,0.519173,0.518862,0.228372,105,0.0291857,10,0.000118493,-3.64136,1.77477,0.0332438,0.518761,
2,1,0,1,0,69059.2,0.523167,0.522874,0.229908,105,0.0293746,10,0.000120213,-3.63845,1.53705,0.0383853,0.522773,
2,1,0,1,0,69060,0.527162,0.526871,0.232187,105,0.0295644,10,0.000122332,-3.63416,6.98844,0.00844252,0.526769,
2,1,0,1,0,69060.8,0.531158,0.530905,0.232956,105,0.029755,10,0.000123678,-3.63273,0.822971,0.0716915,0.530803,
2,1,0,0,0,69061.6,0.535153,0.534828,0.234764,105,0.029947,10,0.000125558,-3.62937,1.9137,0.0308304,0.534725,
2,1,0,1,0,69062.4,0.539148,0.538822,0.235225,105,0.0301399,10,0.000126744,-3.62852,1.50072,0.0393144,0.538719,
2,1,0,1,0,69063.2,0.543143,0.542835,0.23712,105,0.0303339,10,0.000128717,-3.62503,1.5722,0.0375271,0.542731,
2,1,0,1,0,69064,0.547138,0.546846,0.238817,105,0.0305294,10,0.000130596,-3.62193,1.75599,0.0335992,0.546741,
2,1,0,1,0,69064.8,0.551133,0.550817,0.240828,105,0.0307262,10,0.000132652,-3.61829,0.810866,0.0727617,0.550711,
2,1,0,0,0,69065.6,0.555129,0.554813,0.242436,105,0.0309248,10,0.000134507,-3.6154,0.866905,0.0680582,0.554707,
2,1,0,1,0,69066.4,0.559124,0.558778,0.245295,105,0.031125,10,0.000137066,-3.61031,0.859867,0.0686152,0.55867,
2,1,0,1,0,69067.2,0.56312,0.562811,0.247671,105,0.0313273,10,0.000139392,-3.60613,0.810203,0.0728213,0.562702,
2,1,0,1,0,69068,0.567114,0.566832,0.2507,105,0.0315318,10,0.000142105,-3.60085,0.965963,0.0610789,0.566722,
2,1,0,1,0,69068.8,0.571109,0.570824,0.254502,105,0.0317386,10,0.000145276,-3.59431,0.665989,0.0885901,0.570712,
2,1,0,0,0,69069.6,0.575105,0.574777,0.257308,105,0.031948,10,0.000147895,-3.58955,0.622925,0.0947144,0.574663,
2,1,0,1,0,69070.4,0.5791,0.578825,0.261255,105,0.0321604,10,0.000151221,-3.58294,0.760754,0.0775546,0.57871,
2,1,0,0,0,69071.2,0.583095,0.582825,0.264733,105,0.0323758,10,0.000154293,-3.57719,0.535247,0.110229,0.582709,
2,1,0,1,0,69072,0.587091,0.586804,0.269337,105,0.0325945,10,0.000158048,-3.5697,0.47277,0.124796,0.586686,
2,1,0,1,0,69072.8,0.591085,0.590792,0.274898,105,0.032817,10,0.000162408,-3.56083,0.49224,0.11986,0.590671,
2,1,0,1,0,69073.6,0.59508,0.594789,0.280301,105,0.0330438,10,0.00016672,-3.55238,0.422856,0.139528,0.594666,
2,1,0,1,0,69074.4,0.599076,0.598821,0.287168,105,0.0332754,10,0.000171962,-3.54186,0.43626,0.135241,0.598695,
2,1,0,0,0,69075.2,0.603071,0.60274,0.293488,105,0.033512,10,0.000176897,-3.53241,0.378584,0.155844,0.60261,
2,1,0,1,0,69076,0.607066,0.606768,0.300585,105,0.0337544,10,0.000182385,-3.52203,0.332305,0.177548,0.606636,
2,1,0,1,0,69076.8,0.611061,0.610825,0.310569,105,0.0340035,10,0.000189703,-3.50784,0.321593,0.183462,0.610689,
2,1,0,1,0,69077.6,0.615056,0.614774,0.320073,105,0.03426,10,0.000196772,-3.49475,0.244931,0.240884,0.614633,
2,1,0,1,0,69078.4,0.619051,0.61879,0.331293,105,0.0345252,10,0.000205001,-3.47979,0.25956,0.227308,0.618645,
2,1,0,0,0,69079.2,0.623047,0.622762,0.344488,105,0.0347998,10,0.000214534,-3.46283,0.227583,0.259246,0.622611,
2,1,0,1,0,69080,0.627042,0.62676,0.359451,105,0.0350855,10,0.00022529,-3.44436,0.215855,0.273331,0.626602,
2,1,0,1,0,69080.8,0.631038,0.630712,0.376648,105,0.0353843,10,0.000237557,-3.42406,0.174146,0.338797,0.630547,
2,1,0,1,0,69081.6,0.635032,0.634758,0.397335,105,0.0356984,10,0.000252211,-3.40084,0.163856,0.360071,0.634583,
2,1,0,1,0,69082.4,0.639027,0.638756,0.421146,105,0.0360303,10,0.00026901,-3.37557,0.153597,0.384121,0.638571,
2,1,0,1,0,69083.2,0.643022,0.642705,0.448612,105,0.0363824,10,0.000288325,-3.34813,0.143734,0.410481,0.642507,
2,1,0,1,0,69084,0.647018,0.646756,0.48015,105,0.0367578,10,0.00031054,-3.31862,0.128185,0.460272,0.646545,
2,1,0,0,0,69084.8,0.651013,0.650742,0.516333,105,0.0371606,10,0.000336,-3.28707,0.119589,0.493355,0.650515,
2,1,0,1,0,69085.5,0.655009,0.654709,0.558725,105,0.0375948,10,0.000365802,-3.2528,0.113747,0.518696,0.654463,
2,1,0,1,0,69086.3,0.659003,0.658711,0.607543,105,0.0380649,10,0.000400195,-3.21642,0.105637,0.558515,0.658444,
2,1,0,1,0,69087.1,0.662998,0.662759,0.665479,105,0.0385776,10,0.000441052,-3.17687,0.0988011,0.597159,0.662467,
2,1,0,1,0,69087.9,0.666994,0.666702,0.729802,105,0.0391391,10,0.00048656,-3.1368,0.0946322,0.623467,0.666381,
2,1,0,0,0,69088.7,0.670989,0.670703,0.805093,105,0.0397569,10,0.000539979,-3.09415,0.092397,0.638549,0.670349,
2,1,0,1,0,69089.5,0.674984,0.674694,0.889923,105,0.0404381,10,0.000600426,-3.05065,0.0916129,0.644014,0.674303,
2,1,0,1,0,69090.3,0.678979,0.678665,0.985908,105,0.0411915,10,0.000669101,-3.00616,0.0877715,0.6722,0.678231,
2,1,0,1,0,69091.1,0.682974,0.682678,1.0928,105,0.0420262,10,0.000746032,-2.96146,0.0864243,0.682679,0.682197,
2,1,0,1,0,69091.9,0.686969,0.686688,1.21312,105,0.0429516,10,0.000833038,-2.91609,0.0878434,0.67165,0.686155,
2,1,0,0,0,69092.7,0.690965,0.690674,1.34642,105,0.0439787,10,0.000929938,-2.87082,0.085961,0.686358,0.690081,
2,1,0,1,0,69093.5,0.69496,0.694675,1.49498,105,0.045118,10,0.00103852,-2.82537,0.0885893,0.665995,0.694017,
2,1,0,0,0,69094.3,0.698955,0.69868,1.65472,105,0.04638,10,0.00115612,-2.78128,0.0877954,0.672017,0.697952,
2,1,0,1,0,69095.1,0.70295,0.702676,1.83009,105,0.0477767,10,0.00128596,-2.73753,0.090043,0.655242,0.701871,
2,1,0,1,0,69095.9,0.706945,0.706638,2.02137,105,0.0493199,10,0.00142837,-2.69436,0.0929569,0.634703,0.705749,
2,1,0,1,0,69096.7,0.71094,0.710656,2.22522,105,0.05102,10,0.00158137,-2.65263,0.0934123,0.631609,0.709677,
2,1,0,1,0,69097.5,0.714936,0.714644,2.44424,105,0.0528901,10,0.00174676,-2.61186,0.0979012,0.602648,0.713569,
2,1,0,0,0,69098.3,0.718931,0.718663,2.67738,105,0.05494,10,0.00192413,-2.57229,0.0990387,0.595727,0.717485,
2,1,0,1,0,69099.1,0.722926,0.722641,2.92664,105,0.0571834,10,0.00211491,-2.53363,0.103503,0.570031,0.721354,
2,1,0,1,0,69099.9,0.726921,0.726621,3.18871,105,0.0596303,10,0.00231699,-2.49638,0.103851,0.568121,0.725218,
2,1,0,1,0,69100.7,0.730916,0.730635,3.46924,105,0.0622941,10,0.00253474,-2.45977,0.107689,0.547876,0.729108,
2,1,0,1,0,69101.5,0.734911,0.734633,3.76316,105,0.0651875,10,0.00276454,-2.42445,0.110353,0.53465,0.732978,
2,1,0,0,0,69102.3,0.738907,0.738651,4.07498,105,0.0683235,10,0.00300999,-2.38987,0.114895,0.51351,0.736858,
2,1,0,1,0,69103.1,0.742902,0.742589,4.40305,105,0.0717144,10,0.00326966,-2.35625,0.112996,0.522143,0.740652,
2,1,0,1,0,69103.9,0.746897,0.746624,4.74813,105,0.0753749,10,0.00354507,-2.32348,0.119433,0.494002,0.744535,
2,1,0,1,0,69104.7,0.750892,0.750585,5.113,105,0.0793188,10,0.00383774,-2.29132,0.12083,0.48829,0.748335,
2,1,0,1,0,69105.5,0.754887,0.754601,5.4959,105,0.0835616,10,0.00414721,-2.25996,0.121118,0.48713,0.752183,
2,1,0,0,0,69106.3,0.758883,0.758608,5.90223,105,0.0881198,10,0.00447748,-2.22898,0.126266,0.467267,0.756011,
2,1,0,1,0,69107.1,0.762878,0.76258,6.32783,105,0.0930095,10,0.00482547,-2.19875,0.127789,0.4617,0.759796,
2,1,0,0,0,69107.9,0.766873,0.766607,6.77766,105,0.098249,10,0.00519581,-2.16892,0.128223,0.460137,0.763625,
2,1,0,1,0,69108.7,0.770868,0.770589,7.25231,105,0.103858,10,0.00558854,-2.13952,0.128503,0.459132,0.767398,
2,1,0,1,0,69109.5,0.774863,0.774506,7.75257,105,0.109855,10,0.00600441,-2.11055,0.13143,0.448908,0.771095,
2,1,0,1,0,69110.3,0.778858,0.778604,8.27943,105,0.116263,10,0.0064464,-2.082,0.131142,0.449896,0.774962,
2,1,0,1,0,69111.1,0.782854,0.782562,8.8412,105,0.123106,10,0.00691878,-2.05349,0.132801,0.444275,0.778672,
2,1,0,0,0,69111.9,0.786849,0.786563,9.43337,105,0.130411,10,0.00741994,-2.02533,0.131073,0.45013,0.782412,
2,1,0,1,0,69112.7,0.790844,0.790579,10.0645,105,0.138204,10,0.00795681,-1.99721,0.133805,0.440939,0.78615,
2,1,0,1,0,69113.5,0.794839,0.794562,10.7286,105,0.146515,10,0.00852457,-1.96946,0.132693,0.444635,0.789841,
2,1,0,1,0,69114.3,0.798834,0.798554,11.4354,105,0.155374,10,0.00913177,-1.94175,0.132023,0.44689,0.793522,
2,1,0,1,0,69115.1,0.802829,0.802544,12.1964,105,0.164817,10,0.00978815,-1.91377,0.13342,0.442212,0.797178,
2,1,0,0,0,69115.9,0.806825,0.806544,12.9912,105,0.174884,10,0.010478,-1.88635,0.130942,0.450582,0.800828,
2,1,0,1,0,69116.7,0.81082,0.810535,13.8141,105,0.185602,10,0.0111968,-1.85968,0.135695,0.434798,0.804456,
2,1,0,1,0,69117.5,0.814816,0.814511,14.717,105,0.197007,10,0.0119872,-1.83218,0.130206,0.453126,0.808036,
2,1,0,1,0,69118.3,0.81881,0.818498,15.6732,105,0.209153,10,0.0128285,-1.80484,0.13337,0.442377,0.811602,
2,1,0,1,0,69119.1,0.822805,0.822557,16.6408,105,0.222069,10,0.013688,-1.77883,0.139163,0.423963,0.815235,
2,1,0,0,0,69119.9,0.826801,0.826562,17.678,105,0.235785,10,0.0146119,-1.75257,0.135154,0.436538,0.818783,
2,1,0,1,0,69120.7,0.830796,0.830548,18.7572,105,0.250349,10,0.0155787,-1.72683,0.136161,0.43331,0.822295,
2,1,0,0,0,69121.5,0.834791,0.834541,19.8586,105,0.26578,10,0.0165728,-1.70205,0.150493,0.392044,0.825803,
2,1,0,1,0,69122.3,0.838786,0.838527,20.9555,105,0.282092,10,0.0175718,-1.6787,0.148703,0.396763,0.829306,
2,1,0,1,0,69123.1,0.842781,0.842496,22.0948,105,0.2993,10,0.0186147,-1.65571,0.151489,0.389468,0.832775,
2,1,0,1,0,69123.9,0.846776,0.846512,23.2907,105,0.317436,10,0.0197158,-1.63282,0.149514,0.394612,0.836264,
2,1,0,0,0,69124.6,0.849723,0.849497,24.1414,105,0.334114,10,0.0205081,-1.61724,0.0513787,1.14834,0.838875,
2,1,0,1,0,69125.4,0.845728,0.845484,22.4015,105,0.352659,10,0.0189401,-1.64972,0.113023,0.522016,0.835627,
2,1,0,0,0,69126.2,0.841732,0.841494,20.9999,105,0.369972,10,0.0176713,-1.67778,0.12288,0.480142,0.832254,
2,1,0,1,0,69127,0.837737,0.837502,19.6879,105,0.38622,10,0.0164886,-1.7058,0.122931,0.479942,0.82884,
2,1,0,1,0,69127.8,0.833742,0.833522,18.4497,105,0.401445,10,0.0153782,-1.73401,0.124441,0.474119,0.825404,
2,1,0,1,0,69128.6,0.829747,0.829482,17.3048,105,0.415714,10,0.014354,-1.76183,0.12378,0.47665,0.821868,
2,1,0,1,0,69129.4,0.825752,0.825518,16.2148,105,0.429095,10,0.0133856,-1.79009,0.123356,0.478289,0.818384,
2,1,0,0,0,69130.2,0.821757,0.82148,15.186,105,0.441628,10,0.012475,-1.81856,0.126096,0.467897,0.814798,
2,1,0,1,0,69131,0.817761,0.817502,14.2134,105,0.453364,10,0.0116195,-1.8473,0.123544,0.477562,0.811248,
2,1,0,1,0,69131.8,0.813766,0.813475,13.2932,105,0.464343,10,0.0108137,-1.87637,0.124086,0.475476,0.807626,
2,1,0,1,0,69132.6,0.809771,0.809475,12.4265,105,0.474608,10,0.010059,-1.90565,0.124387,0.474325,0.804008,
2,1,0,1,0,69133.4,0.805776,0.805527,11.6148,105,0.484204,10,0.00935606,-1.93499,0.121445,0.485816,0.800416,
2,1,0,0,0,69134.2,0.801781,0.801504,10.8358,105,0.493166,10,0.00868497,-1.96514,0.121834,0.484266,0.796736,
2,1,0,1,0,69135,0.797786,0.797532,10.1106,105,0.501524,10,0.00806355,-1.99522,0.121532,0.485469,0.793083,
2,1,0,1,0,69135.8,0.79379,0.79353,9.42532,105,0.509321,10,0.00747927,-2.0257,0.123615,0.477288,0.789383,
2,1,0,1,0,69136.6,0.789795,0.789535,8.78726,105,0.516588,10,0.00693785,-2.05615,0.120029,0.49155,0.785669,
2,1,0,1,0,69137.4,0.7858,0.785507,8.18139,105,0.523359,10,0.00642654,-2.08717,0.120731,0.488688,0.781907,
2,1,0,0,0,69138.2,0.781805,0.781561,7.6148,105,0.529664,10,0.00595143,-2.11834,0.119292,0.494583,0.778211,
2,1,0,1,0,69139,0.77781,0.777519,7.07983,105,0.535527,10,0.0055047,-2.14998,0.117643,0.501517,0.774404,
2,1,0,0,0,69139.8,0.773815,0.773587,6.57453,105,0.540974,10,0.00508597,-2.18214,0.118146,0.499382,0.770694,
2,1,0,1,0,69140.6,0.769819,0.769556,6.09997,105,0.546031,10,0.00469427,-2.21467,0.114447,0.515524,0.766872,
2,1,0,1,0,69141.4,0.765824,0.765556,5.65486,105,0.55072,10,0.00432911,-2.24758,0.115473,0.510944,0.763068,
2,1,0,1,0,69142.2,0.761829,0.761589,5.23609,105,0.555064,10,0.00398775,-2.28099,0.113351,0.520507,0.759285,
2,1,0,1,0,69143,0.757834,0.757552,4.84565,105,0.559084,10,0.00367083,-2.31465,0.111518,0.52906,0.75542,
2,1,0,0,0,69143.8,0.753839,0.753554,4.47213,105,0.5628,10,0.00336999,-2.34949,0.107279,0.549969,0.751586,
2,1,0,1,0,69144.6,0.749844,0.749564,4.11628,105,0.566222,10,0.00308542,-2.3855,0.107235,0.550192,0.747753,
2,1,0,1,0,69145.4,0.745848,0.745612,3.78803,105,0.569373,10,0.0028244,-2.42159,0.101607,0.580668,0.743945,
2,1,0,1,0,69146.2,0.741853,0.741562,3.46836,105,0.572264,10,0.00257201,-2.45988,0.102973,0.572963,0.740036,
2,1,0,1,0,69147,0.737858,0.737553,3.17631,105,0.574912,10,0.0023427,-2.49808,0.100026,0.589849,0.736155,
2,1,0,0,0,69147.8,0.733863,0.733625,2.90344,105,0.577335,10,0.00213004,-2.53709,0.0985965,0.598399,0.732348,
2,1,0,1,0,69148.6,0.729868,0.729607,2.64493,105,0.579545,10,0.00192976,-2.57759,0.0946641,0.623257,0.728443,
2,1,0,1,0,69149.4,0.725872,0.725621,2.40273,105,0.581556,10,0.00174347,-2.61929,0.0920587,0.640895,0.724564,
2,1,0,1,0,69150.2,0.721877,0.721605,2.17441,105,0.583379,10,0.00156906,-2.66266,0.0866501,0.6809,0.720649,
2,1,0,1,0,69151,0.717882,0.717623,1.95962,105,0.585025,10,0.00140627,-2.70783,0.0865739,0.681499,0.716761,
2,1,0,0,0,69151.8,0.713887,0.713608,1.75926,105,0.586505,10,0.00125542,-2.75467,0.0803708,0.734097,0.712834,
2,1,0,1,0,69152.6,0.709892,0.709601,1.5714,105,0.58783,10,0.00111506,-2.80371,0.0792534,0.744447,0.708909,
2,1,0,0,0,69153.4,0.705897,0.705601,1.39772,105,0.589011,10,0.000986234,-2.85458,0.0744965,0.791983,0.704986,
2,1,0,1,0,69154.2,0.701901,0.701567,1.23565,105,0.590057,10,0.000866894,-2.9081,0.0712405,0.828181,0.701023,
2,1,0,1,0,69155,0.697906,0.697655,1.08512,105,0.590978,10,0.000757042,-2.96452,0.0686297,0.859686,0.697178,
2,1,0,1,0,69155.8,0.693911,0.693675,0.947649,105,0.591784,10,0.00065736,-3.02335,0.0651424,0.905708,0.693258,
2,1,0,1,0,69156.6,0.689916,0.689642,0.820362,105,0.592484,10,0.000565756,-3.08599,0.0620435,0.950945,0.689281,
2,1,0,0,0,69157.4,0.685921,0.685623,0.70474,105,0.593088,10,0.000483186,-3.15197,0.0574792,1.02646,0.685313,
2,1,0,1,0,69158.2,0.681926,0.681649,0.599059,105,0.593604,10,0.000408348,-3.22253,0.0548485,1.07569,0.681385,
2,1,0,1,0,69159,0.67793,0.677618,0.507045,105,0.59404,10,0.000343582,-3.29495,0.0516427,1.14246,0.677395,
2,1,0,1,0,69159.8,0.673935,0.673663,0.422319,105,0.594406,10,0.000284501,-3.37436,0.0485002,1.21649,0.673477,
2,1,0,1,0,69160.6,0.66994,0.669667,0.347712,105,0.594707,10,0.000232851,-3.45878,0.0458625,1.28645,0.669514,
2,1,0,0,0,69161.4,0.665945,0.665681,0.281508,105,0.594953,10,0.000187395,-3.55051,0.0412298,1.431,0.665557,
2,1,0,1,0,69162.2,0.66195,0.661672,0.223198,105,0.595149,10,0.000147684,-3.65131,0.0374685,1.57466,0.661573,
2,1,0,0,0,69163,0.657955,0.657674,0.172888,105,0.595302,10,0.000113704,-3.76224,0.0329904,1.7884,0.657598,
2,1,0,1,0,69163.8,0.653959,0.653687,0.128485,105,0.595416,10,8.39892e-05,-3.89115,0.0286693,2.05795,0.65363,
2,1,0,1,0,69164.6,0.649964,0.6497,0.0915855,105,0.595499,10,5.95031e-05,-4.03817,0.0252698,2.3348,0.64966,
2,1,0,1,0,69165.4,0.645969,0.645663,0.0588476,105,0.595553,10,3.79957e-05,-4.23027,0.0175208,3.36742,0.645637,
2,1,0,1,0,69166.2,0.641974,0.641709,0.0317964,105,0.595584,10,2.0404e-05,-4.49762,0.0109825,5.37219,0.641695,
2,1,0,0,0,69167,0.637979,0.637668,0.00829411,105,0.595594,10,5.28889e-06,-5.08123,0.0047715,12.3651,0.637665,
2,0,0,1,0,69167.8,0.633983,0.633701,-0.0114208,105,0.595587,10,-7.23738e-06,-4.9423,-0.00482407,-12.2303,0.633706,
2,0,0,1,0,69168.5,0.629988,0.629693,-0.0274579,105,0.595567,10,-1.729e-05,-4.56133,-0.0162311,-3.63499,0.629705,
2,0,0,1,0,69169.3,0.625993,0.625735,-0.0413109,105,0.595534,10,-2.58497e-05,-4.38394,-0.0296217,-1.99178,0.625753,
2,0,0,1,0,69170.1,0.621998,0.621674,-0.0523027,105,0.595492,10,-3.25152e-05,-4.28148,-0.0452934,-1.30262,0.621697,
2,0,0,0,0,69170.9,0.618003,0.617717,-0.0619904,105,0.595441,10,-3.82925e-05,-4.20768,-0.0568045,-1.03865,0.617744,
2,0,0,1,0,69171.7,0.614008,0.613738,-0.0712099,105,0.595382,10,-4.37042e-05,-4.14746,-0.0994727,-0.593128,0.613769,
2,0,0,1,0,69172.5,0.610012,0.609702,-0.0777714,105,0.595317,10,-4.74174e-05,-4.10918,-0.0983239,-0.600058,0.609736,
2,0,0,1,0,69173.3,0.606017,0.60574,-0.0837114,105,0.595247,10,-5.07074e-05,-4.07722,-0.152651,-0.386504,0.605777,
2,0,0,1,0,69174.1,0.602022,0.601714,-0.0893188,105,0.595173,10,-5.37444e-05,-4.04906,-0.157059,-0.375655,0.601754,
2,0,0,0,0,69174.9,0.598027,0.597723,-0.0931162,105,0.595094,10,-5.56577e-05,-4.03097,-0.250361,-0.235659,0.597764,
2,0,0,1,0,69175.7,0.594032,0.593708,-0.0977834,105,0.595013,10,-5.80548e-05,-4.00974,-0.233823,-0.252327,0.593751,
2,0,0,0,0,69176.5,0.590037,0.589773,-0.10085,105,0.594929,10,-5.94787e-05,-3.99632,-0.333745,-0.176782,0.589817,
2,0,0,1,0,69177.3,0.586041,0.585721,-0.102808,105,0.594842,10,-6.0217e-05,-3.98797,-0.400037,-0.147486,0.585766,
2,0,0,1,0,69178.1,0.582046,0.581722,-0.105821,105,0.594754,10,-6.15582e-05,-3.97543,-0.41317,-0.142798,0.581769,
2,0,0,1,0,69178.9,0.578052,0.577752,-0.107407,105,0.594663,10,-6.20547e-05,-3.96897,-0.351508,-0.167848,0.577799,
2,0,0,1,0,69179.7,0.574056,0.573782,-0.109289,105,0.594571,10,-6.27082e-05,-3.96142,-0.532552,-0.110787,0.57383,
2,0,0,0,0,69180.5,0.570061,0.56974,-0.111982,105,0.594477,10,-6.38007e-05,-3.95085,-0.609347,-0.096825,0.569789,
2,0,0,1,0,69181.3,0.566065,0.565739,-0.113178,105,0.594382,10,-6.40295e-05,-3.94624,-2.11631,-0.0278787,0.565789,
2,0,0,1,0,69182.1,0.56207,0.561759,-0.115084,105,0.594285,10,-6.46496e-05,-3.93898,-0.806581,-0.0731482,0.561809,
2,0,0,1,0,69182.9,0.558075,0.557771,-0.115499,105,0.594188,10,-6.44219e-05,-3.93742,-0.533105,-0.110672,0.557822,
2,0,0,1,0,69183.7,0.55408,0.553804,-0.116674,105,0.594089,10,-6.46145e-05,-3.93303,-1.09305,-0.0539772,0.553855,
2,0,0,0,0,69184.5,0.550085,0.549775,-0.117943,105,0.59399,10,-6.48424e-05,-3.92833,-0.795233,-0.0741921,0.549827,
2,0,0,1,0,69185.3,0.54609,0.545796,-0.119366,105,0.59389,10,-6.51493e-05,-3.92312,-2.03045,-0.0290575,0.545848,
2,0,0,1,0,69186.1,0.542094,0.541808,-0.119444,105,0.593789,10,-6.47155e-05,-3.92284,-3.46219,-0.0170413,0.541861,
2,0,0,1,0,69186.9,0.538099,0.537862,-0.120791,105,0.593687,10,-6.49688e-05,-3.91797,-1.19312,-0.0494502,0.537915,
2,0,0,1,0,69187.7,0.534104,0.533825,-0.12128,105,0.593585,10,-6.47424e-05,-3.91621,-0.778812,-0.0757564,0.533878,
2,0,0,0,0,69188.5,0.530109,0.529818,-0.123102,105,0.593481,10,-6.52219e-05,-3.90973,-1.4847,-0.0397386,0.529873,
2,0,0,1,0,69189.3,0.526114,0.525765,-0.124648,105,0.593377,10,-6.55357e-05,-3.90431,-0.621811,-0.0948841,0.525819,
2,0,0,0,0,69190.1,0.522119,0.521798,-0.124472,105,0.593272,10,-6.4949e-05,-3.90493,-1.96522,-0.030022,0.521852,
2,0,0,1,0,69190.9,0.518123,0.517825,-0.125758,105,0.593166,10,-6.51208e-05,-3.90046,-1.53438,-0.038452,0.51788,
2,0,0,1,0,69191.7,0.514128,0.513851,-0.127239,105,0.59306,10,-6.53818e-05,-3.89538,-1.08199,-0.0545294,0.513907,
2,0,0,1,0,69192.5,0.510133,0.509831,-0.127069,105,0.592953,10,-6.47837e-05,-3.89596,-0.823755,-0.0716233,0.509887,
2,0,0,1,0,69193.3,0.506138,0.505852,-0.12904,105,0.592845,10,-6.52753e-05,-3.88927,4.77795,0.0123484,0.505909,
2,0,0,0,0,69194.1,0.502143,0.501867,-0.129893,105,0.592736,10,-6.51889e-05,-3.88642,-0.513912,-0.114806,0.501924,
2,0,0,1,0,69194.9,0.498148,0.497794,-0.130397,105,0.592626,10,-6.49109e-05,-3.88473,-1.85724,-0.0317675,0.497852,
2,0,0,1,0,69195.7,0.494152,0.493847,-0.131439,105,0.592515,10,-6.49109e-05,-3.88127,-1.44108,-0.0409416,0.493905,
2,0,0,1,0,69196.5,0.490157,0.489833,-0.133012,105,0.592404,10,-6.51537e-05,-3.87611,-1.01855,-0.0579254,0.489891,
2,0,0,1,0,69197.3,0.486162,0.485867,-0.133688,105,0.592291,10,-6.49544e-05,-3.87391,-1.08114,-0.0545719,0.485926,
2,0,0,0,0,69198.1,0.482167,0.481863,-0.135216,105,0.592178,10,-6.51558e-05,-3.86897,-0.979082,-0.0602605,0.481922,
2,0,0,1,0,69198.9,0.478172,0.477878,-0.135936,105,0.592064,10,-6.4961e-05,-3.86666,-0.985025,-0.0598969,0.477937,
2,0,0,0,0,69199.7,0.474177,0.473882,-0.13767,105,0.591948,10,-6.52393e-05,-3.86116,-2.08914,-0.0282413,0.473943,
2,0,0,1,0,69200.5,0.470181,0.46984,-0.138889,105,0.591832,10,-6.52554e-05,-3.85733,-0.763643,-0.0772612,0.469901,
2,0,0,1,0,69201.3,0.466186,0.46592,-0.139924,105,0.591714,10,-6.51932e-05,-3.85411,-0.780693,-0.0755739,0.465981,
2,0,0,1,0,69202.1,0.462191,0.461869,-0.142102,105,0.591596,10,-6.56325e-05,-3.8474,-1.03703,-0.0568932,0.461932,
2,0,0,1,0,69202.9,0.458196,0.457931,-0.143344,105,0.591476,10,-6.56415e-05,-3.84362,-0.947953,-0.0622394,0.457995,
2,0,0,0,0,69203.7,0.454201,0.453942,-0.144435,105,0.591355,10,-6.55649e-05,-3.84033,-0.774816,-0.0761471,0.454006,
2,0,0,1,0,69204.5,0.450205,0.449904,-0.146372,105,0.591233,10,-6.58534e-05,-3.83454,-0.912257,-0.0646748,0.449968,
2,0,0,1,0,69205.3,0.44621,0.44594,-0.14684,105,0.59111,10,-6.54818e-05,-3.83316,-0.835642,-0.0706044,0.446005,
2,0,0,1,0,69206.1,0.442215,0.441925,-0.149052,105,0.590985,10,-6.58697e-05,-3.82666,-4.65004,-0.0126881,0.44199,
2,0,0,1,0,69206.9,0.43822,0.437929,-0.151005,105,0.590859,10,-6.61296e-05,-3.82101,-0.389098,-0.151633,0.437995,
2,0,0,0,0,69207.7,0.434225,0.433939,-0.15246,105,0.590731,10,-6.61583e-05,-3.81684,-0.957587,-0.0616132,0.434006,
2,0,0,1,0,69208.5,0.43023,0.429941,-0.154308,105,0.590603,10,-6.63432e-05,-3.81161,-0.985532,-0.0598662,0.430009,
2,0,0,1,0,69209.3,0.426234,0.425956,-0.156204,105,0.590472,10,-6.65358e-05,-3.80631,-0.683735,-0.0862908,0.426024,
2,0,0,1,0,69210.1,0.422239,0.421961,-0.15729,105,0.590341,10,-6.63703e-05,-3.8033,-1.17009,-0.0504233,0.422031,
2,0,0,1,0,69210.9,0.418244,0.417923,-0.159156,105,0.590207,10,-6.6515e-05,-3.79818,-0.498357,-0.118389,0.417993,
2,0,0,0,0,69211.7,0.414249,0.413949,-0.16106,105,0.590072,10,-6.66705e-05,-3.79301,-1.36449,-0.0432396,0.41402,
2,0,0,1,0,69212.5,0.410254,0.409932,-0.163405,105,0.589936,10,-6.6985e-05,-3.78673,-1.03765,-0.0568595,0.410004,
2,0,0,0,0,69213.3,0.406259,0.405959,-0.165248,105,0.589797,10,-6.70837e-05,-3.78187,-0.67294,-0.087675,0.406031,
2,0,0,1,0,69214.1,0.402263,0.401928,-0.167445,105,0.589658,10,-6.73009e-05,-3.77613,-1.16281,-0.0507391,0.402002,
2,0,0,1,0,69214.9,0.398268,0.397959,-0.169388,105,0.589517,10,-6.74094e-05,-3.77112,-0.669666,-0.0881036,0.398034,
2,0,0,1,0,69215.7,0.394274,0.394006,-0.171083,105,0.589374,10,-6.7408e-05,-3.76679,-0.779652,-0.0756748,0.394082,
2,0,0,1,0,69216.5,0.390278,0.389949,-0.173448,105,0.589229,10,-6.76357e-05,-3.76083,-1.09207,-0.054026,0.390025,
2,0,0,0,0,69217.3,0.386283,0.385993,-0.175579,105,0.589083,10,-6.77725e-05,-3.75553,-0.541952,-0.108866,0.386071,
2,0,0,1,0,69218.1,0.382287,0.381993,-0.177081,105,0.588935,10,-6.76437e-05,-3.75183,-0.777817,-0.0758533,0.382071,
2,0,0,1,0,69218.9,0.378292,0.377977,-0.179071,105,0.588785,10,-6.76846e-05,-3.74697,-1.87349,-0.0314921,0.378055,
2,0,0,1,0,69219.7,0.374297,0.374057,-0.181252,105,0.588634,10,-6.77985e-05,-3.74172,-0.477385,-0.12359,0.374136,
2,0,0,1,0,69220.5,0.370302,0.369985,-0.183773,105,0.588481,10,-6.79932e-05,-3.73572,-1.7663,-0.0334032,0.370066,
2,0,0,0,0,69221.3,0.366307,0.365974,-0.185479,105,0.588327,10,-6.78806e-05,-3.7317,-0.74894,-0.078778,0.366056,
2,0,0,1,0,69222.1,0.362312,0.362005,-0.187729,105,0.58817,10,-6.79588e-05,-3.72647,-0.491172,-0.120121,0.362088,
2,0,0,1,0,69222.9,0.358316,0.35801,-0.18994,105,0.588012,10,-6.80003e-05,-3.72138,-1.29273,-0.0456397,0.358094,
2,0,0,1,0,69223.7,0.354321,0.353973,-0.192273,105,0.587852,10,-6.80596e-05,-3.71608,-0.719401,-0.0820126,0.354058,
2,0,0,1,0,69224.5,0.350327,0.350025,-0.193326,105,0.58769,10,-6.76691e-05,-3.71371,-0.743083,-0.0793989,0.35011,
2,0,0,0,0,69225.3,0.346331,0.346031,-0.196704,105,0.587526,10,-6.80657e-05,-3.70619,-1.18309,-0.0498695,0.346118,
2,0,0,1,0,69226.1,0.342336,0.341968,-0.198799,105,0.58736,10,-6.79828e-05,-3.70159,-0.501837,-0.117568,0.342055,
2,0,0,0,0,69226.9,0.338341,0.33802,-0.201122,105,0.587192,10,-6.79833e-05,-3.69654,-2.20623,-0.0267425,0.338108,
2,0,0,1,0,69227.7,0.334345,0.334013,-0.203866,105,0.587023,10,-6.80939e-05,-3.69066,-0.90664,-0.0650754,0.334103,
2,0,0,1,0,69228.5,0.33035,0.330031,-0.206096,105,0.586852,10,-6.8018e-05,-3.68593,-0.467606,-0.126175,0.330121,
2,0,0,1,0,69229.3,0.326355,0.326012,-0.208722,105,0.586678,10,-6.80459e-05,-3.68043,-1.25065,-0.0471753,0.326104,
2,0,0,1,0,69230.1,0.32236,0.322046,-0.21087,105,0.586503,10,-6.79099e-05,-3.67598,-0.628862,-0.0938203,0.322138,
2,0,0,0,0,69230.9,0.318365,0.318067,-0.212653,105,0.586325,10,-6.7638e-05,-3.67233,-1.25978,-0.0468334,0.318161,
2,0,0,1,0,69231.7,0.31437,0.314034,-0.216581,105,0.586146,10,-6.8014e-05,-3.66438,-1.48286,-0.0397879,0.31413,
2,0,0,1,0,69232.5,0.310374,0.310086,-0.218228,105,0.585965,10,-6.76694e-05,-3.66109,-0.592144,-0.0996379,0.310182,
2,0,0,1,0,69233.3,0.306379,0.306044,-0.220102,105,0.585782,10,-6.73611e-05,-3.65738,-0.661361,-0.08921,0.306141,
2,0,0,1,0,69234.1,0.302385,0.302044,-0.222928,105,0.585597,10,-6.73339e-05,-3.65184,-0.98545,-0.0598711,0.302142,
2,0,0,0,0,69234.9,0.298389,0.298114,-0.224444,105,0.58541,10,-6.69098e-05,-3.64889,-0.588427,-0.100267,0.298213,
2,0,0,1,0,69235.7,0.294394,0.294118,-0.227631,105,0.585221,10,-6.69503e-05,-3.64277,-3.37432,-0.017485,0.294218,
2,0,0,1,0,69236.5,0.290398,0.290063,-0.230168,105,0.585029,10,-6.67633e-05,-3.63796,-0.858293,-0.0687411,0.290165,
2,0,0,1,0,69237.3,0.286403,0.2861,-0.231014,105,0.584836,10,-6.60931e-05,-3.63636,-0.670836,-0.08795,0.286202,
2,0,0,1,0,69238.1,0.282408,0.282081,-0.234914,105,0.584641,10,-6.62648e-05,-3.62909,-1.17891,-0.0500463,0.282185,
2,0,0,1,0,69238.9,0.278414,0.278119,-0.237675,105,0.584444,10,-6.61019e-05,-3.62402,-0.659998,-0.0893942,0.278223,
2,0,0,1,0,69239.7,0.274418,0.274096,-0.240025,105,0.584245,10,-6.57899e-05,-3.61974,-0.89771,-0.0657228,0.274202,
2,0,0,0,0,69240.5,0.270423,0.27011,-0.244174,105,0.584044,10,-6.59538e-05,-3.6123,-0.80165,-0.0735982,0.270218,
2,0,0,1,0,69241.3,0.266427,0.266087,-0.245677,105,0.58384,10,-6.53714e-05,-3.60964,-0.885252,-0.0666477,0.266195,
2,0,0,1,0,69242.1,0.262432,0.262097,-0.247951,105,0.583635,10,-6.49871e-05,-3.60563,-1.08889,-0.0541837,0.262206,
2,0,0,1,0,69242.9,0.258437,0.258171,-0.249869,105,0.583428,10,-6.4509e-05,-3.60229,-1.21816,-0.0484336,0.258281,
2,0,0,1,0,69243.7,0.254442,0.254189,-0.251111,105,0.583218,10,-6.38298e-05,-3.60013,-0.843778,-0.0699236,0.2543,
2,0,0,0,0,69244.5,0.250447,0.25012,-0.255778,105,0.583007,10,-6.39754e-05,-3.59214,-1.49278,-0.0395235,0.250233,
2,0,0,1,0,69245.3,0.246452,0.246147,-0.257302,105,0.582794,10,-6.33342e-05,-3.58956,-0.636964,-0.0926269,0.24626,
2,0,0,1,0,69246.1,0.242456,0.242097,-0.259695,105,0.582579,10,-6.28714e-05,-3.58554,-1.52951,-0.0385744,0.242212,
2,0,0,1,0,69246.9,0.238461,0.238128,-0.261228,105,0.582363,10,-6.22058e-05,-3.58298,-1.03997,-0.0567323,0.238243,
2,0,0,1,0,69247.7,0.234467,0.234152,-0.264308,105,0.582144,10,-6.18882e-05,-3.57789,-0.688554,-0.0856869,0.234268,
2,0,0,0,0,69248.5,0.230471,0.230142,-0.266223,105,0.581923,10,-6.12692e-05,-3.57475,-1.64931,-0.0357724,0.23026,
2,0,0,1,0,69249.3,0.226476,0.226156,-0.268349,105,0.581701,10,-6.06888e-05,-3.5713,-0.812728,-0.072595,0.226274,
2,0,0,0,0,69250.1,0.222481,0.222173,-0.270837,105,0.581476,10,-6.01727e-05,-3.56729,-1.412,-0.0417848,0.222293,
2,0,0,1,0,69250.9,0.218485,0.218181,-0.273842,105,0.58125,10,-5.97471e-05,-3.5625,-1.58796,-0.0371546,0.218301,
2,0,0,1,0,69251.6,0.21449,0.214184,-0.276297,105,0.581021,10,-5.91784e-05,-3.55862,-0.649031,-0.0909048,0.214306,
2,0,0,1,0,69252.4,0.210496,0.210168,-0.279171,105,0.58079,10,-5.86729e-05,-3.55413,-1.00696,-0.0585922,0.210291,
2,0,0,1,0,69253.2,0.2065,0.206178,-0.283809,105,0.580557,10,-5.85153e-05,-3.54697,-0.740997,-0.0796225,0.206303,
2,0,0,0,0,69254,0.202505,0.202167,-0.284596,105,0.580322,10,-5.75358e-05,-3.54577,-2.41806,-0.0243997,0.202292,
2,0,0,1,0,69254.8,0.198509,0.198181,-0.287736,105,0.580085,10,-5.70238e-05,-3.54101,-0.627404,-0.0940383,0.198308,
2,0,0,1,0,69255.6,0.194514,0.19421,-0.291563,105,0.579845,10,-5.66246e-05,-3.53527,-0.792511,-0.0744469,0.194339,
2,0,0,1,0,69256.4,0.190519,0.190227,-0.293339,105,0.579602,10,-5.5801e-05,-3.53263,-1.02923,-0.0573244,0.190356,
2,0,0,1,0,69257.2,0.186524,0.186198,-0.297603,105,0.579356,10,-5.54132e-05,-3.52636,-0.829821,-0.0710997,0.186329,
2,0,0,0,0,69258,0.182529,0.182196,-0.302169,105,0.579107,10,-5.5054e-05,-3.51975,-0.485848,-0.121437,0.182329,
2,0,0,1,0,69258.8,0.178534,0.17818,-0.306677,105,0.578855,10,-5.46438e-05,-3.51332,-0.600054,-0.0983245,0.178315,
2,0,0,1,0,69259.6,0.174538,0.174193,-0.311943,105,0.578599,10,-5.43383e-05,-3.50592,-0.56267,-0.104857,0.17433,
2,0,0,1,0,69260.4,0.170543,0.170249,-0.316567,105,0.578339,10,-5.38951e-05,-3.49953,-0.43252,-0.13641,0.170388,
2,0,0,1,0,69261.2,0.166549,0.166232,-0.323497,105,0.578073,10,-5.37755e-05,-3.49013,-0.417999,-0.141149,0.166374,
2,0,0,0,0,69262,0.162553,0.162187,-0.332161,105,0.577801,10,-5.38723e-05,-3.47865,-0.344213,-0.171406,0.162333,
2,0,0,1,0,69262.8,0.158558,0.158227,-0.341258,105,0.577522,10,-5.39962e-05,-3.46692,-0.297891,-0.198059,0.158377,
2,0,0,0,0,69263.6,0.154563,0.154202,-0.354512,105,0.577234,10,-5.46666e-05,-3.45037,-0.241591,-0.244214,0.154358,
2,0,0,1,0,69264.4,0.150567,0.150201,-0.37078,105,0.576935,10,-5.56916e-05,-3.43088,-0.174429,-0.338246,0.150364,
2,0,0,1,0,69265.2,0.146572,0.146242,-0.391789,105,0.576621,10,-5.7296e-05,-3.40695,-0.145825,-0.404595,0.146414,
2,0,0,1,0,69266,0.142578,0.142237,-0.420051,105,0.576288,10,-5.97469e-05,-3.3767,-0.121615,-0.485138,0.142422,
2,0,0,1,0,69266.8,0.138582,0.13828,-0.453782,105,0.57593,10,-6.27491e-05,-3.34315,-0.110801,-0.532486,0.13848,
2,0,0,0,0,69267.6,0.134587,0.13426,-0.495872,105,0.575541,10,-6.65759e-05,-3.30463,-0.109717,-0.537745,0.134479,
2,0,0,1,0,69268.4,0.130591,0.13026,-0.538267,105,0.575118,10,-7.01147e-05,-3.269,-0.113051,-0.521886,0.130497,
2,0,0,1,0,69269.2,0.126596,0.126276,-0.576688,105,0.574661,10,-7.28216e-05,-3.23906,-0.143391,-0.411463,0.126529,
2,0,0,1,0,69270,0.122602,0.122292,-0.61191,105,0.574175,10,-7.48316e-05,-3.21331,-0.198253,-0.2976,0.122561,
2,0,0,1,0,69270.8,0.118607,0.118278,-0.634543,105,0.573666,10,-7.50527e-05,-3.19754,-0.279827,-0.210844,0.118557,
2,0,0,0,0,69271.6,0.114611,0.114238,-0.649958,105,0.573141,10,-7.42497e-05,-3.18711,-0.713443,-0.0826976,0.114524,
2,0,0,1,0,69272.4,0.110616,0.110256,-0.657662,105,0.572609,10,-7.25112e-05,-3.182,-1.1196,-0.0526976,0.110545,
2,0,0,1,0,69273.2,0.10662,0.106266,-0.660059,105,0.572072,10,-7.01421e-05,-3.18042,-2.80941,-0.0210008,0.106557,
2,0,0,1,0,69274,0.102625,0.102292,-0.661024,105,0.571534,10,-6.76177e-05,-3.17978,2.75857,0.0213879,0.102583,
2,0,0,1,0,69274.8,0.0986305,0.0983022,-0.660796,105,0.570997,10,-6.49576e-05,-3.17993,13.0928,0.0045063,0.0985929,
2,0,0,0,0,69275.6,0.0946351,0.0943011,-0.654934,105,0.570461,10,-6.1761e-05,-3.1838,1.47447,0.0400145,0.0945893,
2,0,0,1,0,69276.4,0.0906399,0.0903394,-0.65303,105,0.569927,10,-5.89944e-05,-3.18507,1.01811,0.0579503,0.0906268,
2,0,0,0,0,69277.2,0.0866448,0.0863152,-0.646408,105,0.569399,10,-5.57949e-05,-3.18949,1.18349,0.0498527,0.0865996,
2,0,0,1,0,69278,0.0826493,0.0823064,-0.639448,105,0.568875,10,-5.26307e-05,-3.19419,0.682035,0.0865058,0.0825878,
2,0,0,1,0,69278.8,0.0786544,0.078308,-0.632842,105,0.568357,10,-4.95566e-05,-3.1987,0.889564,0.0663247,0.0785864,
2,0,0,1,0,69279.6,0.0746596,0.0743362,-0.624831,105,0.567845,10,-4.64476e-05,-3.20424,0.776626,0.0759697,0.0746111,
2,0,0,1,0,69280.4,0.0706641,0.0703593,-0.616919,105,0.567339,10,-4.3406e-05,-3.20977,0.66666,0.0885009,0.0706307,
2,0,0,0,0,69281.2,0.0666689,0.0663318,-0.609565,105,0.566839,10,-4.04336e-05,-3.21498,0.757347,0.0779035,0.0666,
2,0,0,1,0,69282,0.0626737,0.0623532,-0.600648,105,0.566346,10,-3.74523e-05,-3.22138,0.67679,0.0871762,0.0626175,
2,0,0,1,0,69282.8,0.0586783,0.0583925,-0.593414,105,0.565858,10,-3.46509e-05,-3.22664,0.587576,0.100412,0.0586536,
2,0,0,1,0,69283.6,0.0546835,0.0543049,-0.584861,105,0.565378,10,-3.17608e-05,-3.23295,0.812993,0.0725714,0.0545622,
2,0,0,1,0,69284.4,0.0506886,0.050336,-0.574959,105,0.564905,10,-2.89411e-05,-3.24036,0.485557,0.12151,0.050589,
2,0,0,0,0,69285.2,0.046693,0.046375,-0.565259,105,0.56444,10,-2.62139e-05,-3.24775,0.494792,0.119242,0.0466237,
2,0,0,1,0,69286,0.0426979,0.0423762,-0.556293,105,0.563982,10,-2.35736e-05,-3.2547,0.596811,0.0988588,0.042621,
2,0,0,1,0,69286.8,0.0387022,0.0383738,-0.545524,105,0.563532,10,-2.09338e-05,-3.26319,0.499679,0.118076,0.0386138,
2,0,0,1,0,69287.6,0.0347074,0.034389,-0.536616,105,0.56309,10,-1.84537e-05,-3.27034,0.603241,0.0978051,0.0346251,
2,0,0,1,0,69288.4,0.0307126,0.0304065,-0.527342,105,0.562655,10,-1.60346e-05,-3.27791,0.529914,0.111339,0.0306386,
2,0,0,0,0,69289.2,0.0267172,0.0263884,-0.519799,105,0.562227,10,-1.37167e-05,-3.28416,0.533275,0.110637,0.0266171,
2,0,0,1,0,69290,0.022722,0.0223843,-0.513008,105,0.561805,10,-1.14833e-05,-3.28988,0.940662,0.0627218,0.0226101,
2,0,0,0,0,69290.8,0.0187268,0.0183993,-0.506285,105,0.561389,10,-9.31531e-06,-3.2956,0.83202,0.0709117,0.0186221,
2,0,0,1,0,69291.6,0.0147313,0.0143983,-0.503485,105,0.560976,10,-7.24933e-06,-3.29801,1.38309,0.042658,0.0146198,
2,0,0,1,0,69292.4,0.0107365,0.0103944,-0.49939,105,0.560566,10,-5.19088e-06,-3.30156,5.43753,0.0108505,0.0106142,
2,0,0,1,0,69293.2,0.00674163,0.00646251,-0.498251,105,0.560158,10,-3.21995e-06,-3.30255,2.72433,0.0216567,0.00668174,
2,0,0,1,0,69294,0.00274612,0.00239568,-0.498155,105,0.559751,10,-1.19342e-06,-3.30264,-1.32764,-0.0444399,0.00261487,
2,0,0,0,0,69294.5,0.000274105,-0.000128486,-0.500639,105,0.559496,10,6.43249e-08,-3.30048, , ,9.17957e-05,