File: Figure_codes/Fig_3-5/workspace_calculate_alpha_eff/20221101_1-115_003_TrumpetPlot_ParaChange_from10_every3_16_CV_C01_29.csv
mode,ox/red,error,control changes,counter inc.,time/s,control/V,Ewe/V,<I>/mA,cycle number,(Q-Qo)/C,I Range,P/W,log(|I|),Tafel slope mV/dec,alpha_eff,E-IR/V,
2,0,0,0,0,19701.3,2.44065e-05,-0.000382585,-0.098758,30,0.0000000E+000,10,3.77834e-08,-4.00543, , ,-0.000339132,
2,1,0,0,0,19702,0.00379485,0.0034932,0.152812,30,9.98197e-05,10,5.33802e-07,-3.81584,0.037167,1.58743,0.00342596,
2,1,0,1,0,19702.8,0.00779002,0.00748139,0.177557,30,0.000244855,10,1.32837e-06,-3.75066,0.0727957,0.810488,0.00740326,
2,1,0,0,0,19703.6,0.0117852,0.011459,0.193402,30,0.000406101,10,2.21619e-06,-3.71354,0.11501,0.513,0.0113739,
2,1,0,1,0,19704.4,0.0157806,0.0154294,0.209493,30,0.000579995,10,3.23235e-06,-3.67883,0.134363,0.439108,0.0153372,
2,1,0,1,0,19705.2,0.0197754,0.0194904,0.223094,30,0.000765058,10,4.34818e-06,-3.65151,0.14053,0.419839,0.0193922,
2,1,0,1,0,19706,0.0237704,0.0234932,0.23702,30,0.00096169,10,5.56835e-06,-3.62522,0.156008,0.378185,0.0233889,
2,1,0,1,0,19706.8,0.0277659,0.0274372,0.251432,30,0.00116937,10,6.89859e-06,-3.59958,0.164936,0.357715,0.0273265,
2,1,0,0,0,19707.6,0.0317611,0.0314529,0.26504,30,0.00138876,10,8.3363e-06,-3.57669,0.161522,0.365276,0.0313363,
2,1,0,1,0,19708.4,0.0357567,0.0354501,0.281712,30,0.00162016,10,9.98674e-06,-3.55019,0.208984,0.282318,0.0353262,
2,1,0,1,0,19709.2,0.0397516,0.0394413,0.295855,30,0.0018628,10,1.16689e-05,-3.52892,0.157855,0.373762,0.0393111,
2,1,0,1,0,19710,0.0437465,0.0434129,0.308231,30,0.00211733,10,1.33812e-05,-3.51112,0.213187,0.276753,0.0432773,
2,1,0,1,0,19710.8,0.0477413,0.0474593,0.323459,30,0.00238242,10,1.53512e-05,-3.49018,0.206784,0.285321,0.047317,
2,1,0,0,0,19711.6,0.0517369,0.0514162,0.336071,30,0.00265844,10,1.72795e-05,-3.47357,0.242671,0.243127,0.0512683,
2,1,0,1,0,19712.4,0.0557321,0.0554245,0.347695,30,0.00294515,10,1.92708e-05,-3.4588,0.293142,0.201268,0.0552715,
2,1,0,1,0,19713.2,0.0597277,0.0594205,0.360565,30,0.00324098,10,2.1425e-05,-3.44302,0.296175,0.199206,0.0592619,
2,1,0,1,0,19714,0.0637226,0.0634105,0.371527,30,0.00354653,10,2.35587e-05,-3.43001,0.308549,0.191217,0.063247,
2,1,0,1,0,19714.8,0.0677174,0.067427,0.38246,30,0.00386127,10,2.57881e-05,-3.41741,0.372642,0.158329,0.0672587,
2,1,0,0,0,19715.6,0.0717128,0.0713624,0.393235,30,0.00418394,10,2.80622e-05,-3.40535,0.328667,0.179513,0.0711894,
2,1,0,1,0,19716.4,0.075708,0.0753919,0.399624,30,0.00451439,10,3.01285e-05,-3.39835,0.486825,0.121193,0.0752161,
2,1,0,0,0,19717.2,0.0797031,0.0794141,0.410896,30,0.00485178,10,3.2631e-05,-3.38627,0.359272,0.164221,0.0792333,
2,1,0,1,0,19718,0.0836986,0.0834068,0.419974,30,0.00519669,10,3.50287e-05,-3.37678,0.3599,0.163934,0.083222,
2,1,0,1,0,19718.8,0.0876935,0.0873553,0.4332,30,0.00555022,10,3.78423e-05,-3.36331,0.311334,0.189507,0.0871647,
2,1,0,1,0,19719.6,0.0916883,0.0913826,0.447124,30,0.0059136,10,4.08593e-05,-3.34957,0.245918,0.239918,0.0911859,
2,1,0,1,0,19720.4,0.0956838,0.0953806,0.464993,30,0.0062905,10,4.43513e-05,-3.33255,0.213474,0.27638,0.095176,
2,1,0,0,0,19721.2,0.099679,0.0993677,0.48713,30,0.00668357,10,4.8405e-05,-3.31235,0.217507,0.271256,0.0991534,
2,1,0,1,0,19722,0.103674,0.103391,0.51127,30,0.00709523,10,5.28607e-05,-3.29135,0.166721,0.353885,0.103166,
2,1,0,1,0,19722.8,0.10767,0.107369,0.534335,30,0.00752695,10,5.73708e-05,-3.27219,0.240654,0.245165,0.107134,
2,1,0,1,0,19723.6,0.111664,0.111369,0.555351,30,0.00797526,10,6.18489e-05,-3.25543,0.253447,0.232791,0.111125,
2,1,0,1,0,19724.4,0.115659,0.115313,0.571673,30,0.00843857,10,6.59211e-05,-3.24285,0.30709,0.192126,0.115061,
2,1,0,0,0,19725.2,0.119655,0.119342,0.587591,30,0.00891546,10,7.0124e-05,-3.23092,0.412669,0.142972,0.119083,
2,1,0,1,0,19726,0.12365,0.123377,0.602764,30,0.00940364,10,7.43676e-05,-3.21985,0.359379,0.164172,0.123112,
2,1,0,1,0,19726.8,0.127646,0.127313,0.615405,30,0.00990412,10,7.8349e-05,-3.21084,0.506646,0.116452,0.127042,
2,1,0,1,0,19727.6,0.131641,0.131338,0.624754,30,0.0104146,10,8.20541e-05,-3.20429,70.9715,0.00083132,0.131063,
2,1,0,1,0,19728.4,0.135635,0.135332,0.618921,30,0.0109257,10,8.37599e-05,-3.20836,-0.425531,-0.13865,0.13506,
2,1,0,0,0,19729.2,0.139631,0.139259,0.588158,30,0.0114232,10,8.19064e-05,-3.23051,-0.127866,-0.461419,0.139,
2,1,0,1,0,19730,0.143626,0.143294,0.538662,30,0.0118874,10,7.71871e-05,-3.26868,-0.0839302,-0.702965,0.143057,
2,1,0,0,0,19730.8,0.147621,0.147324,0.47335,30,0.0123044,10,6.97356e-05,-3.32482,-0.0692373,-0.852142,0.147115,
2,1,0,1,0,19731.6,0.151617,0.151298,0.414465,30,0.0126712,10,6.2708e-05,-3.38251,-0.0713901,-0.826445,0.151116,
2,1,0,1,0,19732.4,0.155612,0.155241,0.369339,30,0.0129956,10,5.73364e-05,-3.43258,-0.0948799,-0.621839,0.155078,
2,1,0,1,0,19733.2,0.159606,0.159274,0.338736,30,0.0132901,10,5.3952e-05,-3.47014,-0.120586,-0.489276,0.159125,
2,1,0,1,0,19734,0.163602,0.163231,0.31794,30,0.0135645,10,5.18976e-05,-3.49765,-0.157394,-0.374855,0.163091,
2,1,0,0,0,19734.8,0.167597,0.167281,0.303444,30,0.0138247,10,5.07605e-05,-3.51792,-0.260738,-0.22628,0.167148,
2,1,0,1,0,19735.6,0.171592,0.171258,0.292089,30,0.0140751,10,5.00226e-05,-3.53448,-0.241202,-0.244609,0.17113,
2,1,0,1,0,19736.4,0.175588,0.175258,0.284346,30,0.0143172,10,4.98339e-05,-3.54615,-0.35621,-0.165632,0.175133,
2,1,0,1,0,19737.2,0.179582,0.179273,0.276921,30,0.0145532,10,4.96443e-05,-3.55764,-0.583483,-0.101117,0.179151,
2,1,0,1,0,19738,0.183577,0.183284,0.272457,30,0.014785,10,4.99369e-05,-3.5647,-0.429276,-0.137441,0.183164,
2,1,0,0,0,19738.8,0.187573,0.187244,0.267337,30,0.0150124,10,5.00572e-05,-3.57294,-0.584495,-0.100942,0.187126,
2,1,0,1,0,19739.6,0.191568,0.19123,0.263742,30,0.0152365,10,5.04353e-05,-3.57882,-0.697544,-0.0845825,0.191114,
2,1,0,0,0,19740.4,0.195563,0.195249,0.260346,30,0.0154579,10,5.08322e-05,-3.58445,-0.597785,-0.0986976,0.195134,
2,1,0,1,0,19741.2,0.199559,0.199216,0.257299,30,0.0156766,10,5.1258e-05,-3.58956,-1.18058,-0.0499752,0.199103,
2,1,0,1,0,19742,0.203553,0.203255,0.252995,30,0.0158931,10,5.14224e-05,-3.59689,-1.28017,-0.0460876,0.203143,
2,1,0,1,0,19742.8,0.207548,0.207233,0.253181,30,0.0161081,10,5.24675e-05,-3.59657,-0.892799,-0.0660843,0.207121,
2,1,0,1,0,19743.6,0.211544,0.211249,0.249737,30,0.0163209,10,5.27568e-05,-3.60252,-1.02548,-0.057534,0.211139,
2,1,0,0,0,19744.4,0.215539,0.215187,0.249045,30,0.0165322,10,5.35914e-05,-3.60372,-1.39878,-0.0421795,0.215078,
2,1,0,1,0,19745.2,0.219535,0.219233,0.24669,30,0.016742,10,5.40827e-05,-3.60785,-1.31286,-0.0449402,0.219125,
2,1,0,1,0,19746,0.223529,0.223206,0.244818,30,0.0169504,10,5.46448e-05,-3.61116,-1.72882,-0.0341274,0.223098,
2,1,0,1,0,19746.8,0.227524,0.227219,0.243372,30,0.0171578,10,5.52986e-05,-3.61373,-1.33392,-0.0442306,0.227111,
2,1,0,1,0,19747.6,0.23152,0.231245,0.241712,30,0.017364,10,5.58947e-05,-3.6167,-1.68511,-0.0350126,0.231139,
2,1,0,0,0,19748.4,0.235515,0.235216,0.240412,30,0.0175695,10,5.65488e-05,-3.61904,-4.38196,-0.0134643,0.235111,
2,1,0,1,0,19749.2,0.23951,0.239197,0.240752,30,0.0177739,10,5.75872e-05,-3.61843,-4.79989,-0.0122919,0.239091,
2,1,0,1,0,19750,0.243506,0.243202,0.239371,30,0.0179777,10,5.82155e-05,-3.62093,-3.51845,-0.0167688,0.243096,
2,1,0,1,0,19750.8,0.2475,0.247163,0.239018,30,0.0181807,10,5.90763e-05,-3.62157,-1.26895,-0.046495,0.247058,
2,1,0,1,0,19751.6,0.251495,0.251203,0.236669,30,0.0183826,10,5.9452e-05,-3.62586,-1.85001,-0.0318917,0.251099,
2,1,0,0,0,19752.4,0.255491,0.255149,0.235764,30,0.0185839,10,6.01549e-05,-3.62752,-11.3432,-0.00520136,0.255045,
2,1,0,1,0,19753.2,0.259486,0.259194,0.236278,30,0.0187847,10,6.12418e-05,-3.62658,-1.35568,-0.0435206,0.25909,
2,1,0,0,0,19754,0.263481,0.263199,0.234654,30,0.0189846,10,6.17607e-05,-3.62957,-6.37578,-0.00925377,0.263096,
2,1,0,1,0,19754.8,0.267477,0.267175,0.233354,30,0.0191838,10,6.23464e-05,-3.63198,-0.972301,-0.0606808,0.267072,
2,1,0,1,0,19755.6,0.271471,0.271156,0.231892,30,0.0193821,10,6.28788e-05,-3.63471,-18.5599,-0.0031789,0.271054,
2,1,0,1,0,19756.4,0.275466,0.275142,0.232273,30,0.0195795,10,6.39081e-05,-3.634,-3.51983,-0.0167622,0.27504,
2,1,0,1,0,19757.2,0.279462,0.279093,0.2316,30,0.0197764,10,6.46379e-05,-3.63526,-1.98748,-0.0296859,0.278991,
2,1,0,0,0,19758,0.283457,0.283119,0.231475,30,0.0199722,10,6.5535e-05,-3.6355,-8.57555,-0.00688002,0.283017,
2,1,0,1,0,19758.8,0.287452,0.287099,0.229465,30,0.0201675,10,6.58791e-05,-3.63928,-2.61961,-0.0225224,0.286998,
2,1,0,1,0,19759.6,0.291448,0.291098,0.228547,30,0.0203623,10,6.65297e-05,-3.64102,-0.96862,-0.0609114,0.290997,
2,1,0,1,0,19760.4,0.295442,0.29512,0.228426,30,0.0205563,10,6.74129e-05,-3.64126,211.554,0.000278888,0.295019,
2,1,0,1,0,19761.2,0.299437,0.299127,0.226597,30,0.0207495,10,6.77812e-05,-3.64475,-6.68034,-0.00883189,0.299027,
2,1,0,0,0,19762,0.303433,0.303126,0.225724,30,0.0209419,10,6.84229e-05,-3.64642,-1.19069,-0.0495511,0.303027,
2,1,0,1,0,19762.8,0.307428,0.307145,0.225933,30,0.0211334,10,6.93943e-05,-3.64602,-21.4402,-0.00275184,0.307045,
2,1,0,1,0,19763.6,0.311424,0.311165,0.224835,30,0.0213248,10,6.99608e-05,-3.64814,-1.91603,-0.0307928,0.311066,
2,1,0,1,0,19764.4,0.315418,0.315146,0.225068,30,0.0215154,10,7.09292e-05,-3.64769,-466.645,-0.000126434,0.315047,
2,1,0,1,0,19765.2,0.319413,0.319105,0.223754,30,0.0217056,10,7.1401e-05,-3.65023,-1.37315,-0.0429667,0.319006,
2,1,0,0,0,19766,0.323409,0.323109,0.222624,30,0.0218955,10,7.19318e-05,-3.65243,-1.44421,-0.0408527,0.323011,
2,1,0,1,0,19766.8,0.327404,0.327104,0.22274,30,0.0220842,10,7.28591e-05,-3.6522,15.949,0.00369929,0.327006,
2,1,0,0,0,19767.6,0.331399,0.331081,0.220301,30,0.0222728,10,7.29374e-05,-3.65698,-3.26424,-0.0180747,0.330984,
2,1,0,1,0,19768.4,0.335395,0.335066,0.22076,30,0.0224608,10,7.39692e-05,-3.65608,10.1375,0.00581996,0.334969,
2,1,0,1,0,19769.2,0.339389,0.339096,0.220873,30,0.0226485,10,7.48973e-05,-3.65586,-3.0214,-0.0195273,0.338999,
2,1,0,1,0,19770,0.343384,0.343124,0.220442,30,0.0228359,10,7.56389e-05,-3.65671,-2.00853,-0.0293747,0.343027,
2,1,0,1,0,19770.8,0.34738,0.347074,0.220322,30,0.0230226,10,7.64683e-05,-3.65694,2.42806,0.0242992,0.346978,
2,1,0,0,0,19771.6,0.351375,0.35104,0.219604,30,0.023209,10,7.70898e-05,-3.65836,-1.82831,-0.0322702,0.350944,
2,1,0,1,0,19772.4,0.35537,0.355096,0.218984,30,0.023395,10,7.77605e-05,-3.65959,-0.886786,-0.0665324,0.355,
2,1,0,1,0,19773.2,0.359366,0.359097,0.218571,30,0.0235805,10,7.84882e-05,-3.66041,3.84427,0.0153475,0.359,
2,1,0,1,0,19774,0.36336,0.363071,0.217055,30,0.0237657,10,7.88065e-05,-3.66343,-5.04456,-0.0116958,0.362976,
2,1,0,1,0,19774.8,0.367355,0.367062,0.217738,30,0.0239505,10,7.99232e-05,-3.66207,7.35566,0.00802104,0.366966,
2,1,0,0,0,19775.6,0.371351,0.371032,0.21572,30,0.0241348,10,8.00391e-05,-3.66611,-23.6741,-0.00249217,0.370937,
2,1,0,1,0,19776.4,0.375346,0.375079,0.216023,30,0.0243189,10,8.10257e-05,-3.6655,-57.234,-0.00103086,0.374984,
2,1,0,1,0,19777.2,0.379342,0.379049,0.216476,30,0.0245025,10,8.2055e-05,-3.66459,-0.958019,-0.0615854,0.378954,
2,1,0,1,0,19778,0.383336,0.383034,0.215938,30,0.0246856,10,8.27117e-05,-3.66567,3.08896,0.0191003,0.382939,
2,1,0,1,0,19778.8,0.387331,0.38704,0.21516,30,0.0248685,10,8.32755e-05,-3.66724,10.3745,0.00568701,0.386945,
2,1,0,0,0,19779.6,0.391327,0.391039,0.215265,30,0.0250511,10,8.4177e-05,-3.66703,-2.83675,-0.0207985,0.390944,
2,1,0,1,0,19780.4,0.395322,0.395052,0.213961,30,0.0252337,10,8.45255e-05,-3.66967,-1.83188,-0.0322073,0.394957,
2,1,0,0,0,19781.2,0.399317,0.399066,0.215473,30,0.0254159,10,8.59878e-05,-3.66661,21.5876,0.00273305,0.398971,
2,1,0,1,0,19782,0.403313,0.403004,0.214485,30,0.0255976,10,8.64383e-05,-3.6686,3.6077,0.0163539,0.402909,
2,1,0,1,0,19782.8,0.407307,0.407026,0.214129,30,0.0257793,10,8.71562e-05,-3.66932,-1.31515,-0.0448617,0.406932,
2,1,0,1,0,19783.5,0.411302,0.410935,0.214651,30,0.0259607,10,8.82076e-05,-3.66827,1.87961,0.0313895,0.41084,
2,1,0,1,0,19784.3,0.415298,0.415051,0.213435,30,0.0261422,10,8.85864e-05,-3.67073,9.50318,0.00620845,0.414957,
2,1,0,0,0,19785.1,0.419293,0.418983,0.21336,30,0.0263235,10,8.93941e-05,-3.67089,-1.62697,-0.0362637,0.418889,
2,1,0,1,0,19785.9,0.423288,0.422977,0.214208,30,0.0265045,10,9.0605e-05,-3.66916,8.27235,0.0071322,0.422883,
2,1,0,1,0,19786.7,0.427283,0.426987,0.213189,30,0.0266856,10,9.10287e-05,-3.67124,110.515,0.000533866,0.426893,
2,1,0,1,0,19787.5,0.431278,0.431008,0.212769,30,0.0268664,10,9.17052e-05,-3.67209,5.57566,0.0105817,0.430914,
2,1,0,1,0,19788.3,0.435273,0.434963,0.21289,30,0.0270471,10,9.2599e-05,-3.67185,-2.85929,-0.0206345,0.434869,
2,1,0,0,0,19789.1,0.439269,0.438981,0.214376,30,0.027228,10,9.41069e-05,-3.66882,14.9763,0.00393956,0.438887,
2,1,0,1,0,19789.9,0.443264,0.442987,0.214239,30,0.0274088,10,9.49051e-05,-3.6691,1.83647,0.0321268,0.442893,
2,1,0,0,0,19790.7,0.447259,0.446915,0.213337,30,0.0275899,10,9.53436e-05,-3.67093,7.52127,0.00784442,0.446821,
2,1,0,1,0,19791.5,0.451254,0.450984,0.21381,30,0.0277712,10,9.64249e-05,-3.66997,12.1861,0.00484156,0.45089,
2,1,0,1,0,19792.3,0.455249,0.454899,0.21406,30,0.0279524,10,9.73759e-05,-3.66946,11.0721,0.0053287,0.454805,
2,1,0,1,0,19793.1,0.459244,0.458967,0.213972,30,0.0281338,10,9.82062e-05,-3.66964,5.69826,0.010354,0.458873,
2,1,0,1,0,19793.9,0.46324,0.462933,0.215243,30,0.0283156,10,9.96432e-05,-3.66707,-16.2321,-0.00363477,0.462839,
2,1,0,0,0,19794.7,0.467235,0.466896,0.215527,30,0.0284976,10,0.000100629,-3.6665,1.7925,0.0329149,0.466801,
2,1,0,1,0,19795.5,0.471231,0.47095,0.21632,30,0.0286802,10,0.000101876,-3.6649,-7.51541,-0.00785053,0.470855,
2,1,0,1,0,19796.3,0.475225,0.474909,0.216461,30,0.0288627,10,0.000102799,-3.66462,1.68736,0.0349658,0.474813,
2,1,0,1,0,19797.1,0.47922,0.478946,0.217826,30,0.0290457,10,0.000104327,-3.66189,5.88679,0.0100224,0.47885,
2,1,0,1,0,19797.9,0.483216,0.482908,0.218698,30,0.0292294,10,0.000105611,-3.66015,5.34349,0.0110415,0.482812,
2,1,0,0,0,19798.7,0.487211,0.486892,0.219034,30,0.0294135,10,0.000106646,-3.65949,1.15335,0.0511552,0.486796,
2,1,0,1,0,19799.5,0.491206,0.490902,0.218663,30,0.0295983,10,0.000107342,-3.66022,2.32441,0.0253828,0.490805,
2,1,0,1,0,19800.3,0.495201,0.494882,0.220122,30,0.0297837,10,0.000108934,-3.65734,7.65632,0.00770605,0.494785,
2,1,0,1,0,19801.1,0.499196,0.49891,0.221639,30,0.0299697,10,0.000110578,-3.65435,2.55415,0.0230997,0.498812,
2,1,0,1,0,19801.9,0.503191,0.502897,0.222065,30,0.0301564,10,0.000111676,-3.65352,1.61008,0.0366442,0.502799,
2,1,0,0,0,19802.7,0.507187,0.506861,0.223452,30,0.0303438,10,0.000113259,-3.65081,1.84086,0.0320503,0.506762,
2,1,0,1,0,19803.5,0.511182,0.51087,0.224233,30,0.030532,10,0.000114554,-3.6493,2.74197,0.0215174,0.510771,
2,1,0,0,0,19804.3,0.515177,0.514888,0.225771,30,0.0307213,10,0.000116247,-3.64633,11.4209,0.00516595,0.514789,
2,1,0,1,0,19805.1,0.519173,0.51888,0.226916,30,0.0309113,10,0.000117742,-3.64413,1.05844,0.0557423,0.51878,
2,1,0,1,0,19805.9,0.523167,0.522863,0.227133,30,0.0311025,10,0.00011876,-3.64372,1.82012,0.0324155,0.522763,
2,1,0,1,0,19806.7,0.527162,0.526895,0.230277,30,0.0312947,10,0.000121332,-3.63775,0.916871,0.0643493,0.526793,
2,1,0,1,0,19807.5,0.531158,0.530841,0.230614,30,0.0314881,10,0.000122419,-3.63711,0.957812,0.0615987,0.530739,
2,1,0,0,0,19808.3,0.535153,0.534853,0.232884,30,0.031683,10,0.000124559,-3.63286,1.98107,0.0297819,0.534751,
2,1,0,1,0,19809.1,0.539148,0.538861,0.234628,30,0.0318793,10,0.000126432,-3.62962,0.825337,0.071486,0.538757,
2,1,0,1,0,19809.9,0.543143,0.542838,0.237418,30,0.0320775,10,0.000128879,-3.62449,0.976347,0.0604293,0.542734,
2,1,0,1,0,19810.7,0.547138,0.54683,0.239948,30,0.0322775,10,0.000131211,-3.61988,1.11651,0.0528434,0.546725,
2,1,0,1,0,19811.5,0.551133,0.550826,0.242403,30,0.0324794,10,0.000133522,-3.61546,0.595192,0.0991277,0.550719,
2,1,0,0,0,19812.3,0.555129,0.554861,0.244545,30,0.0326837,10,0.000135688,-3.61164,1.11574,0.0528797,0.554754,
2,1,0,1,0,19813.1,0.559124,0.558854,0.248215,30,0.03289,10,0.000138716,-3.60517,0.885932,0.0665965,0.558744,
2,1,0,1,0,19813.9,0.56312,0.562825,0.2519,30,0.0330989,10,0.000141776,-3.59877,0.441936,0.133503,0.562715,
2,1,0,1,0,19814.7,0.567114,0.566838,0.255799,30,0.0333108,10,0.000144997,-3.5921,0.740687,0.0796558,0.566725,
2,1,0,1,0,19815.5,0.571109,0.570823,0.259787,30,0.0335257,10,0.000148293,-3.58538,0.674848,0.0874272,0.570709,
2,1,0,0,0,19816.3,0.575105,0.574753,0.263017,30,0.033744,10,0.00015117,-3.58002,0.482044,0.122395,0.574638,
2,1,0,1,0,19817.1,0.5791,0.578816,0.268565,30,0.033966,10,0.00015545,-3.57095,0.499521,0.118113,0.578698,
2,1,0,0,0,19817.9,0.583095,0.58275,0.274883,30,0.0341922,10,0.000160188,-3.56085,0.349081,0.169015,0.582629,
2,1,0,1,0,19818.7,0.58709,0.586804,0.279744,30,0.0344232,10,0.000164155,-3.55324,0.402881,0.146445,0.586681,
2,1,0,1,0,19819.5,0.591085,0.590768,0.288856,30,0.0346595,10,0.000170647,-3.53932,0.365484,0.16143,0.590641,
2,1,0,1,0,19820.3,0.59508,0.594763,0.294605,30,0.0349016,10,0.00017522,-3.53076,0.307204,0.192055,0.594633,
2,1,0,1,0,19821.1,0.599076,0.598778,0.304429,30,0.0351504,10,0.000182285,-3.51651,0.303059,0.194681,0.598644,
2,1,0,0,0,19821.9,0.603071,0.602787,0.314808,30,0.0354067,10,0.000189763,-3.50195,0.266961,0.221006,0.602649,
2,1,0,1,0,19822.7,0.607066,0.606763,0.326476,30,0.0356718,10,0.000198093,-3.48615,0.245658,0.240171,0.606619,
2,1,0,1,0,19823.5,0.611061,0.610783,0.339661,30,0.0359469,10,0.000207459,-3.46895,0.233866,0.252281,0.610633,
2,1,0,1,0,19824.3,0.615056,0.614723,0.355605,30,0.0362334,10,0.000218599,-3.44903,0.173038,0.340966,0.614567,
2,1,0,1,0,19825.1,0.619051,0.618719,0.373298,30,0.0365341,10,0.000230967,-3.42794,0.184906,0.319081,0.618555,
2,1,0,0,0,19825.9,0.623047,0.622755,0.394926,30,0.0368504,10,0.000245942,-3.40348,0.155051,0.380519,0.622581,
2,1,0,1,0,19826.7,0.627042,0.626762,0.419365,30,0.0371848,10,0.000262842,-3.37741,0.143277,0.41179,0.626577,
2,1,0,1,0,19827.5,0.631037,0.630775,0.448848,30,0.0375408,10,0.000283122,-3.3479,0.136516,0.432184,0.630578,
2,1,0,1,0,19828.3,0.635032,0.634732,0.483386,30,0.0379215,10,0.000306821,-3.31571,0.117953,0.500197,0.63452,
2,1,0,1,0,19829.1,0.639027,0.638694,0.523155,30,0.0383319,10,0.000334136,-3.28137,0.110386,0.53449,0.638463,
2,1,0,1,0,19829.9,0.643022,0.642779,0.568929,30,0.0387764,10,0.000365696,-3.24494,0.106302,0.555022,0.642529,
2,1,0,1,0,19830.7,0.647018,0.646701,0.622861,30,0.039261,10,0.000402805,-3.20561,0.0926152,0.637044,0.646427,
2,1,0,0,0,19831.5,0.651013,0.650743,0.688237,30,0.0397941,10,0.000447866,-3.16226,0.0905911,0.651278,0.65044,
2,1,0,1,0,19832.3,0.655008,0.654773,0.764583,30,0.0403831,10,0.000500628,-3.11658,0.0827304,0.713159,0.654437,
2,1,0,1,0,19833.1,0.659003,0.658711,0.854117,30,0.0410382,10,0.000562617,-3.06848,0.08263,0.714026,0.658335,
2,1,0,1,0,19833.9,0.662998,0.662745,0.95767,30,0.0417702,10,0.000634691,-3.01878,0.0786569,0.750093,0.662324,
2,1,0,1,0,19834.7,0.666994,0.666699,1.07641,30,0.0425911,10,0.000717644,-2.96802,0.0743797,0.793227,0.666225,
2,1,0,0,0,19835.5,0.670989,0.670708,1.21478,30,0.0435147,10,0.000814766,-2.9155,0.0747627,0.789163,0.670174,
2,1,0,1,0,19836.3,0.674984,0.674739,1.37473,30,0.0445571,10,0.000927584,-2.86178,0.0737237,0.800285,0.674134,
2,1,0,1,0,19837.1,0.67898,0.678719,1.55505,30,0.0457352,10,0.00105544,-2.80825,0.0726442,0.812177,0.678035,
2,1,0,1,0,19837.9,0.682974,0.682675,1.7607,30,0.0470671,10,0.00120199,-2.75431,0.071969,0.819797,0.681901,
2,1,0,1,0,19838.7,0.686969,0.686666,1.99181,30,0.0485735,10,0.00136771,-2.70075,0.0739606,0.797722,0.68579,
2,1,0,0,0,19839.5,0.690965,0.69066,2.24825,30,0.050275,10,0.00155277,-2.64816,0.0725382,0.813365,0.689671,
2,1,0,1,0,19840.3,0.69496,0.694705,2.53353,30,0.0521936,10,0.00176006,-2.59627,0.0769609,0.766623,0.693591,
2,1,0,0,0,19841.1,0.698955,0.698655,2.84727,30,0.0543506,10,0.00198926,-2.54557,0.0772777,0.76348,0.697403,
2,1,0,1,0,19841.9,0.70295,0.702706,3.18746,30,0.0567695,10,0.00223985,-2.49655,0.0770015,0.766219,0.701304,
2,1,0,1,0,19842.7,0.706945,0.706689,3.55903,30,0.0594732,10,0.00251513,-2.44867,0.0817332,0.721861,0.705123,
2,1,0,1,0,19843.5,0.71094,0.710642,3.95929,30,0.0624848,10,0.00281363,-2.40238,0.0845815,0.697552,0.708899,
2,1,0,1,0,19844.3,0.714936,0.714682,4.38644,30,0.0658275,10,0.00313491,-2.35789,0.087526,0.674085,0.712752,
2,1,0,0,0,19845.1,0.718931,0.718653,4.84386,30,0.0695224,10,0.00348105,-2.31481,0.0883317,0.667937,0.716521,
2,1,0,1,0,19845.9,0.722927,0.722676,5.32817,30,0.0735949,10,0.00385054,-2.27342,0.0950894,0.620469,0.720332,
2,1,0,1,0,19846.7,0.726921,0.726648,5.84076,30,0.0780649,10,0.00424418,-2.23353,0.0945672,0.623895,0.724078,
2,1,0,1,0,19847.5,0.730916,0.730621,6.38091,30,0.0829559,10,0.00466203,-2.19512,0.100133,0.589219,0.727814,
2,1,0,1,0,19848.3,0.734911,0.734608,6.94492,30,0.0882886,10,0.0051018,-2.15833,0.103536,0.569849,0.731552,
2,1,0,0,0,19849.1,0.738907,0.738622,7.53979,30,0.0940848,10,0.00556906,-2.12264,0.106206,0.555524,0.735305,
2,1,0,1,0,19849.9,0.742902,0.742622,8.15816,30,0.100364,10,0.00605843,-2.08841,0.110546,0.533716,0.739032,
2,1,0,1,0,19850.7,0.746897,0.74663,8.80654,30,0.107151,10,0.00657522,-2.05519,0.113284,0.520815,0.742755,
2,1,0,1,0,19851.5,0.750892,0.750612,9.48173,30,0.114465,10,0.0071171,-2.02311,0.116355,0.507069,0.74644,
2,1,0,1,0,19852.3,0.754887,0.75463,10.1994,30,0.122338,10,0.00769676,-1.99143,0.117235,0.503264,0.750142,
2,1,0,0,0,19853.1,0.758883,0.758608,10.9407,30,0.130793,10,0.00829972,-1.96095,0.12004,0.491502,0.753794,
2,1,0,1,0,19853.9,0.762878,0.762595,11.7019,30,0.139847,10,0.00892378,-1.93175,0.129328,0.456204,0.757446,
2,1,0,0,0,19854.7,0.766873,0.76659,12.5239,30,0.149533,10,0.00960068,-1.90226,0.124384,0.474336,0.76108,
2,1,0,1,0,19855.5,0.770868,0.770613,13.3774,30,0.159886,10,0.0103088,-1.87363,0.123895,0.47621,0.764727,
2,1,0,1,0,19856.3,0.774863,0.774583,14.2841,30,0.170949,10,0.0110642,-1.84515,0.130395,0.452473,0.768298,
2,1,0,1,0,19857.1,0.778858,0.778603,15.229,30,0.182738,10,0.0118573,-1.81733,0.124573,0.473617,0.771903,
2,1,0,1,0,19857.9,0.782854,0.78259,16.2682,30,0.195329,10,0.0127313,-1.78866,0.12273,0.480731,0.775432,
2,1,0,0,0,19858.7,0.786849,0.786568,17.3658,30,0.208772,10,0.0136594,-1.76031,0.125084,0.471684,0.778927,
2,1,0,1,0,19859.5,0.790844,0.790545,18.5277,30,0.22312,10,0.014647,-1.73218,0.125975,0.468349,0.782393,
2,1,0,1,0,19860.3,0.794839,0.794548,19.7416,30,0.238415,10,0.0156856,-1.70462,0.1243,0.474658,0.785862,
2,1,0,1,0,19861.1,0.798834,0.798592,21.0447,30,0.254716,10,0.0168061,-1.67686,0.125485,0.470175,0.789332,
2,1,0,1,0,19861.9,0.802829,0.802532,22.3828,30,0.272069,10,0.017963,-1.65008,0.127272,0.463575,0.792684,
2,1,0,0,0,19862.7,0.806825,0.806515,23.7588,30,0.290516,10,0.0191618,-1.62418,0.134368,0.439091,0.796061,
2,1,0,1,0,19863.5,0.81082,0.81055,25.1728,30,0.310075,10,0.0204038,-1.59907,0.13547,0.435521,0.799473,
2,1,0,1,0,19864.3,0.814815,0.814536,26.4718,30,0.330766,10,0.0215623,-1.57722,0.150885,0.391026,0.802888,
2,1,0,1,0,19865.1,0.81881,0.818534,28.0376,30,0.352559,10,0.0229498,-1.55226,0.133645,0.441469,0.806197,
2,1,0,1,0,19865.8,0.822805,0.822532,29.618,30,0.375602,10,0.0243617,-1.52844,0.147785,0.399227,0.8095,
2,1,0,0,0,19866.6,0.826801,0.826509,31.1192,30,0.399894,10,0.0257203,-1.50697,0.161956,0.364297,0.812816,
2,1,0,1,0,19867.4,0.830796,0.830615,32.6446,30,0.425364,10,0.027115,-1.48619,0.158619,0.371961,0.816251,
2,1,0,0,0,19868.2,0.834791,0.83452,34.2385,30,0.4521,10,0.0285727,-1.46549,0.162509,0.363056,0.819455,
2,1,0,1,0,19869,0.838786,0.838529,35.8291,30,0.480112,10,0.0300438,-1.44576,0.17123,0.344566,0.822765,
2,1,0,1,0,19869.8,0.842781,0.842521,37.4249,30,0.509381,10,0.0315313,-1.42684,0.177073,0.333196,0.826054,
2,1,0,1,0,19870.6,0.846776,0.846567,38.8946,30,0.539918,10,0.0329269,-1.41011,0.217768,0.27093,0.829453,
2,1,0,0,0,19871.3,0.849723,0.849439,39.8511,30,0.567576,10,0.0338511,-1.39956,0.0513837,1.14822,0.831904,
2,1,0,1,0,19872.1,0.845728,0.845472,37.6321,30,0.598428,10,0.0318169,-1.42444,0.142977,0.412654,0.828914,
2,1,0,0,0,19872.9,0.841732,0.841494,35.7267,30,0.627717,10,0.0300638,-1.44701,0.142049,0.415348,0.825775,
2,1,0,1,0,19873.7,0.837737,0.837482,33.8805,30,0.655521,10,0.0283743,-1.47005,0.137914,0.427801,0.822575,
2,1,0,1,0,19874.5,0.833742,0.833498,32.1816,30,0.681884,10,0.0268233,-1.49239,0.145298,0.406062,0.819338,
2,1,0,1,0,19875.3,0.829747,0.829466,30.4615,30,0.706894,10,0.0252668,-1.51625,0.134949,0.437201,0.816063,
2,1,0,1,0,19876.1,0.825752,0.825523,28.8412,30,0.73057,10,0.0238091,-1.53999,0.133808,0.440931,0.812833,
2,1,0,0,0,19876.9,0.821757,0.821505,27.189,30,0.752937,10,0.0223359,-1.56561,0.12629,0.467179,0.809541,
2,1,0,1,0,19877.7,0.817761,0.817485,25.6054,30,0.77401,10,0.020932,-1.59167,0.128824,0.457989,0.806219,
2,1,0,1,0,19878.5,0.813766,0.813471,24.0989,30,0.793856,10,0.0196037,-1.618,0.123737,0.476818,0.802867,
2,1,0,1,0,19879.3,0.809771,0.809483,22.6589,30,0.812519,10,0.018342,-1.64476,0.125497,0.470131,0.799513,
2,1,0,1,0,19880.1,0.805776,0.805513,21.2812,30,0.830059,10,0.0171423,-1.672,0.121854,0.484188,0.796149,
2,1,0,0,0,19880.9,0.801781,0.80148,19.9361,30,0.846513,10,0.0159783,-1.70036,0.120459,0.489794,0.792708,
2,1,0,1,0,19881.7,0.797786,0.797535,18.7339,30,0.861922,10,0.0149409,-1.72737,0.132035,0.446853,0.789292,
2,1,0,1,0,19882.5,0.79379,0.793525,17.5768,30,0.876419,10,0.0139476,-1.75506,0.118588,0.49752,0.785791,
2,1,0,1,0,19883.3,0.789795,0.789535,16.3695,30,0.889966,10,0.0129243,-1.78596,0.112351,0.52514,0.782333,
2,1,0,1,0,19884.1,0.7858,0.785508,15.2461,30,0.902582,10,0.011976,-1.81684,0.112886,0.522651,0.7788,
2,1,0,0,0,19884.9,0.781805,0.781533,14.1691,30,0.914323,10,0.0110736,-1.84866,0.109486,0.538882,0.775298,
2,1,0,1,0,19885.7,0.77781,0.777536,13.1509,30,0.925222,10,0.0102253,-1.88104,0.108302,0.544775,0.77175,
2,1,0,0,0,19886.5,0.773815,0.77359,12.1845,30,0.935329,10,0.00942581,-1.91419,0.107673,0.547958,0.768229,
2,1,0,1,0,19887.3,0.769819,0.769542,11.2721,30,0.944687,10,0.00867436,-1.948,0.104612,0.563991,0.764582,
2,1,0,1,0,19888.1,0.765824,0.765547,10.4093,30,0.953335,10,0.00796883,-1.98258,0.105335,0.560118,0.760967,
2,1,0,1,0,19888.9,0.761829,0.761556,9.59284,30,0.961312,10,0.00730548,-2.01805,0.100835,0.585116,0.757335,
2,1,0,1,0,19889.7,0.757834,0.757549,8.83802,30,0.968662,10,0.00669523,-2.05365,0.101586,0.580788,0.753661,
2,1,0,0,0,19890.5,0.753839,0.753562,8.12343,30,0.975423,10,0.00612151,-2.09026,0.100307,0.588193,0.749988,
2,1,0,1,0,19891.3,0.749844,0.749559,7.51177,30,0.981644,10,0.00563051,-2.12426,0.106063,0.556271,0.746254,
2,1,0,1,0,19892.1,0.745848,0.745591,6.85819,30,0.987371,10,0.0051134,-2.16379,0.093033,0.634184,0.742573,
2,1,0,1,0,19892.9,0.741853,0.741594,6.24965,30,0.992595,10,0.0046347,-2.20414,0.0911813,0.647063,0.738844,
2,1,0,1,0,19893.7,0.737858,0.737571,5.67866,30,0.997348,10,0.00418842,-2.24575,0.0884059,0.667376,0.735072,
2,1,0,0,0,19894.5,0.733863,0.733585,5.14425,30,1.00166,10,0.00377375,-2.28868,0.0862464,0.684086,0.731322,
2,1,0,1,0,19895.3,0.729868,0.729594,4.63898,30,1.00555,10,0.00338457,-2.33358,0.0840502,0.701961,0.727553,
2,1,0,1,0,19896.1,0.725872,0.725606,4.17498,30,1.00906,10,0.00302939,-2.37935,0.0820237,0.719305,0.723769,
2,1,0,1,0,19896.9,0.721877,0.721632,3.74304,30,1.01222,10,0.0027011,-2.42678,0.0787787,0.748934,0.719985,
2,1,0,1,0,19897.7,0.717882,0.717568,3.34312,30,1.01503,10,0.00239891,-2.47585,0.0759785,0.776536,0.716097,
2,1,0,0,0,19898.5,0.713887,0.713647,2.97532,30,1.01755,10,0.00212333,-2.52647,0.0693858,0.850319,0.712338,
2,1,0,1,0,19899.3,0.709892,0.709626,2.61369,30,1.01976,10,0.00185474,-2.58275,0.0719416,0.820109,0.708476,
2,1,0,0,0,19900.1,0.705897,0.705621,2.3066,30,1.02172,10,0.00162759,-2.63703,0.0702354,0.840032,0.704606,
2,1,0,1,0,19900.9,0.701901,0.701627,2.02617,30,1.02344,10,0.00142162,-2.69332,0.0672026,0.877942,0.700736,
2,1,0,1,0,19901.7,0.697906,0.697638,1.76843,30,1.02494,10,0.00123372,-2.75241,0.0644858,0.91493,0.69686,
2,1,0,1,0,19902.5,0.693911,0.693621,1.534,30,1.02625,10,0.00106402,-2.81417,0.0614077,0.960791,0.692946,
2,1,0,1,0,19903.3,0.689916,0.689619,1.3223,30,1.02738,10,0.000911881,-2.87867,0.0581904,1.01391,0.689037,
2,1,0,0,0,19904.1,0.685921,0.68561,1.13288,30,1.02835,10,0.000776717,-2.94581,0.0575788,1.02468,0.685112,
2,1,0,1,0,19904.9,0.681926,0.681635,0.962778,30,1.02918,10,0.000656263,-3.01647,0.0549262,1.07417,0.681211,
2,1,0,1,0,19905.7,0.67793,0.677622,0.813324,30,1.02988,10,0.000551126,-3.08974,0.052286,1.12841,0.677264,
2,1,0,1,0,19906.5,0.673935,0.673647,0.679845,30,1.03047,10,0.000457976,-3.16759,0.049806,1.1846,0.673348,
2,1,0,1,0,19907.3,0.66994,0.669646,0.564522,30,1.03095,10,0.00037803,-3.24832,0.0472142,1.24963,0.669398,
2,1,0,0,0,19908.1,0.665945,0.66564,0.462107,30,1.03135,10,0.000307597,-3.33526,0.0443976,1.3289,0.665436,
2,1,0,1,0,19908.9,0.66195,0.661679,0.375165,30,1.03168,10,0.000248239,-3.42578,0.0419141,1.40764,0.661514,
2,1,0,0,0,19909.7,0.657955,0.657669,0.303874,30,1.03194,10,0.000199848,-3.51731,0.0421121,1.40102,0.657535,
2,1,0,1,0,19910.5,0.653959,0.653682,0.238496,30,1.03215,10,0.000155901,-3.62252,0.0362022,1.62974,0.653577,
2,1,0,1,0,19911.3,0.649964,0.649725,0.1833,30,1.03231,10,0.000119095,-3.73684,0.0329056,1.79301,0.649645,
2,1,0,1,0,19912.1,0.64597,0.645661,0.135739,30,1.03242,10,8.76415e-05,-3.86729,0.0281665,2.09469,0.645601,
2,1,0,1,0,19912.9,0.641974,0.641701,0.095058,30,1.03251,10,6.09988e-05,-4.02201,0.0235259,2.50787,0.641659,
2,1,0,0,0,19913.7,0.637979,0.637693,0.0622037,30,1.03256,10,3.96668e-05,-4.20618,0.0172288,3.4245,0.637665,
2,1,0,1,0,19914.5,0.633983,0.633695,0.0334427,30,1.03259,10,2.11925e-05,-4.4757,0.0119705,4.9288,0.633681,
2,1,0,1,0,19915.3,0.629988,0.629718,0.00886971,30,1.03259,10,5.58542e-06,-5.05209,0.00357877,16.4861,0.629714,
2,0,0,1,0,19916.1,0.625993,0.625682,-0.0105232,30,1.03258,10,-6.58418e-06,-4.97785,-0.00368468,-16.0122,0.625686,
2,0,0,1,0,19916.9,0.621998,0.621763,-0.0279082,30,1.03256,10,-1.73523e-05,-4.55427,-0.0164283,-3.59135,0.621776,
2,0,0,0,0,19917.7,0.618003,0.61768,-0.0411368,30,1.03252,10,-2.54093e-05,-4.38577,-0.0284157,-2.07631,0.617698,
2,0,0,1,0,19918.5,0.614008,0.61372,-0.0527488,30,1.03248,10,-3.2373e-05,-4.27779,-0.0514631,-1.14645,0.613743,
2,0,0,1,0,19919.3,0.610012,0.609715,-0.0619828,30,1.03242,10,-3.77918e-05,-4.20773,-0.0646523,-0.912574,0.609742,
2,0,0,1,0,19920.1,0.606017,0.605687,-0.0697504,30,1.03236,10,-4.22469e-05,-4.15645,-0.0791188,-0.745714,0.605718,
2,0,0,1,0,19920.9,0.602022,0.601734,-0.0780462,30,1.03229,10,-4.69631e-05,-4.10765,-0.133624,-0.441538,0.601769,
2,0,0,0,0,19921.7,0.598027,0.597755,-0.0835094,30,1.03222,10,-4.99182e-05,-4.07826,-0.10649,-0.554044,0.597791,
2,0,0,1,0,19922.5,0.594032,0.59377,-0.0882738,30,1.03214,10,-5.24143e-05,-4.05417,-0.247834,-0.238062,0.593808,
2,0,0,0,0,19923.3,0.590037,0.589746,-0.0926421,30,1.03206,10,-5.46353e-05,-4.03319,-0.189818,-0.310825,0.589787,
2,0,0,1,0,19924.1,0.586041,0.585747,-0.0962648,30,1.03197,10,-5.63869e-05,-4.01653,-0.283218,-0.20832,0.58579,
2,0,0,1,0,19924.9,0.582046,0.581752,-0.0987848,30,1.03189,10,-5.74682e-05,-4.00531,-0.434809,-0.135692,0.581795,
2,0,0,1,0,19925.7,0.578052,0.577802,-0.101451,30,1.0318,10,-5.86184e-05,-3.99375,-0.331506,-0.177976,0.577847,
2,0,0,1,0,19926.5,0.574056,0.573813,-0.102908,30,1.03171,10,-5.90502e-05,-3.98755,-0.460151,-0.128219,0.573858,
2,0,0,0,0,19927.3,0.570061,0.569785,-0.107021,30,1.03161,10,-6.09787e-05,-3.97053,-0.968258,-0.0609342,0.569832,
2,0,0,1,0,19928.1,0.566065,0.565781,-0.108481,30,1.03152,10,-6.13766e-05,-3.96465,-0.296482,-0.199,0.565829,
2,0,0,1,0,19928.9,0.56207,0.561726,-0.109724,30,1.03142,10,-6.16351e-05,-3.9597,-1.32193,-0.0446318,0.561774,
2,0,0,1,0,19929.7,0.558075,0.557809,-0.110277,30,1.03132,10,-6.15135e-05,-3.95752,-0.479618,-0.123015,0.557858,
2,0,0,1,0,19930.5,0.55408,0.553731,-0.112641,30,1.03122,10,-6.23729e-05,-3.9483,-0.498424,-0.118373,0.553781,
2,0,0,0,0,19931.3,0.550085,0.54979,-0.113619,30,1.03112,10,-6.24668e-05,-3.94455,3.29477,0.0179072,0.54984,
2,0,0,1,0,19932.1,0.54609,0.545769,-0.115255,30,1.03102,10,-6.29027e-05,-3.93834,-0.672666,-0.0877106,0.54582,
2,0,0,1,0,19932.9,0.542094,0.541829,-0.115266,30,1.03092,10,-6.24543e-05,-3.9383,-0.532272,-0.110846,0.54188,
2,0,0,1,0,19933.7,0.538099,0.537824,-0.117392,30,1.03082,10,-6.31365e-05,-3.93036,3.09432,0.0190672,0.537876,
2,0,0,1,0,19934.5,0.534104,0.533806,-0.119602,30,1.03072,10,-6.38444e-05,-3.92226,-0.719603,-0.0819897,0.533858,
2,0,0,0,0,19935.3,0.530109,0.529787,-0.119242,30,1.03061,10,-6.31729e-05,-3.92357,-0.821902,-0.0717847,0.529839,
2,0,0,1,0,19936.1,0.526114,0.525809,-0.119928,30,1.03051,10,-6.30593e-05,-3.92108,-1.50525,-0.039196,0.525862,
2,0,0,0,0,19936.9,0.522119,0.521838,-0.121459,30,1.0304,10,-6.33821e-05,-3.91557,-0.854237,-0.0690675,0.521891,
2,0,0,1,0,19937.7,0.518123,0.517812,-0.122599,30,1.03029,10,-6.34832e-05,-3.91151,-1.6108,-0.0366278,0.517866,
2,0,0,1,0,19938.5,0.514128,0.513842,-0.123159,30,1.03019,10,-6.32843e-05,-3.90953,-2.18285,-0.0270289,0.513896,
2,0,0,1,0,19939.3,0.510133,0.509817,-0.123656,30,1.03008,10,-6.30419e-05,-3.90779,-1.77622,-0.0332165,0.509872,
2,0,0,1,0,19940.1,0.506138,0.505796,-0.125925,30,1.02997,10,-6.36923e-05,-3.89989,-1.19385,-0.0494198,0.505852,
2,0,0,0,0,19940.9,0.502143,0.501828,-0.126487,30,1.02986,10,-6.34749e-05,-3.89795,-0.404901,-0.145715,0.501884,
2,0,0,1,0,19941.7,0.498148,0.497787,-0.127877,30,1.02975,10,-6.36555e-05,-3.89321,15.745,0.00374722,0.497843,
2,0,0,1,0,19942.5,0.494152,0.493861,-0.128572,30,1.02964,10,-6.34968e-05,-3.89085,-1.35236,-0.0436273,0.493918,
2,0,0,1,0,19943.3,0.490157,0.489827,-0.129189,30,1.02952,10,-6.32804e-05,-3.88877,-0.771879,-0.0764369,0.489884,
2,0,0,1,0,19944.1,0.486162,0.485854,-0.130384,30,1.02941,10,-6.33475e-05,-3.88478,-1.24418,-0.0474209,0.485912,
2,0,0,0,0,19944.9,0.482167,0.481847,-0.131976,30,1.0293,10,-6.35922e-05,-3.87951,-0.911012,-0.0647632,0.481905,
2,0,0,1,0,19945.7,0.478172,0.477863,-0.133169,30,1.02918,10,-6.36363e-05,-3.8756,-0.660036,-0.089389,0.477921,
2,0,0,0,0,19946.5,0.474177,0.473927,-0.134474,30,1.02906,10,-6.37309e-05,-3.87136,184.907,0.00031908,0.473986,
2,0,0,1,0,19947.3,0.470181,0.469896,-0.135802,30,1.02895,10,-6.38129e-05,-3.86709,-0.535511,-0.110175,0.469956,
2,0,0,1,0,19948.1,0.466186,0.465845,-0.136573,30,1.02883,10,-6.3622e-05,-3.86463,-1.61166,-0.0366082,0.465905,
2,0,0,1,0,19948.8,0.462191,0.461878,-0.137301,30,1.02871,10,-6.34161e-05,-3.86233,-0.711184,-0.0829602,0.461938,
2,0,0,1,0,19949.6,0.458196,0.457951,-0.140403,30,1.02859,10,-6.42978e-05,-3.85262,-0.773106,-0.0763156,0.458012,
2,0,0,0,0,19950.4,0.454201,0.453928,-0.141128,30,1.02846,10,-6.40619e-05,-3.85039,-1.02411,-0.0576111,0.453991,
2,0,0,1,0,19951.2,0.450205,0.449903,-0.142452,30,1.02834,10,-6.40896e-05,-3.84633,-0.904046,-0.0652622,0.449966,
2,0,0,1,0,19952,0.44621,0.445901,-0.144311,30,1.02822,10,-6.43482e-05,-3.8407,-1.29561,-0.0455383,0.445965,
2,0,0,1,0,19952.8,0.442215,0.441912,-0.145892,30,1.02809,10,-6.44713e-05,-3.83597,-0.957275,-0.0616333,0.441976,
2,0,0,1,0,19953.6,0.43822,0.437843,-0.146911,30,1.02796,10,-6.43239e-05,-3.83295,-0.450685,-0.130912,0.437908,
2,0,0,0,0,19954.4,0.434225,0.433908,-0.149866,30,1.02784,10,-6.5028e-05,-3.8243,-0.965047,-0.0611369,0.433974,
2,0,0,1,0,19955.2,0.43023,0.429925,-0.15091,30,1.02771,10,-6.48799e-05,-3.82128,-0.839757,-0.0702584,0.429992,
2,0,0,1,0,19956,0.426234,0.42594,-0.152959,30,1.02757,10,-6.51513e-05,-3.81543,-1.50659,-0.0391614,0.426007,
2,0,0,1,0,19956.8,0.422239,0.421909,-0.153969,30,1.02744,10,-6.49607e-05,-3.81257,-0.777642,-0.0758704,0.421976,
2,0,0,1,0,19957.6,0.418244,0.417919,-0.15527,30,1.02731,10,-6.48905e-05,-3.80891,-0.511648,-0.115314,0.417988,
2,0,0,0,0,19958.4,0.414249,0.413954,-0.156765,30,1.02717,10,-6.48935e-05,-3.80475,-18.1422,-0.00325208,0.414023,
2,0,0,1,0,19959.2,0.410254,0.409913,-0.159863,30,1.02704,10,-6.55298e-05,-3.79625,-0.754061,-0.078243,0.409983,
2,0,0,0,0,19960,0.406259,0.405991,-0.160618,30,1.0269,10,-6.52093e-05,-3.79421,-0.537592,-0.109749,0.406061,
2,0,0,1,0,19960.8,0.402263,0.401991,-0.16343,30,1.02676,10,-6.56972e-05,-3.78667,-0.878109,-0.0671898,0.402062,
2,0,0,1,0,19961.6,0.398268,0.397994,-0.165302,30,1.02661,10,-6.57892e-05,-3.78172,-0.612956,-0.0962549,0.398067,
2,0,0,1,0,19962.4,0.394274,0.393985,-0.167878,30,1.02647,10,-6.61416e-05,-3.77501,-0.837389,-0.0704571,0.394059,
2,0,0,1,0,19963.2,0.390278,0.389968,-0.169241,30,1.02633,10,-6.59987e-05,-3.77149,-0.727736,-0.0810734,0.390042,
2,0,0,0,0,19964,0.386283,0.386,-0.17127,30,1.02618,10,-6.61102e-05,-3.76632,-0.714445,-0.0825816,0.386075,
2,0,0,1,0,19964.8,0.382287,0.382013,-0.172075,30,1.02603,10,-6.57348e-05,-3.76428,-1.10598,-0.0533462,0.382089,
2,0,0,1,0,19965.6,0.378292,0.377996,-0.175039,30,1.02588,10,-6.61642e-05,-3.75686,-0.795062,-0.074208,0.378073,
2,0,0,1,0,19966.4,0.374297,0.374018,-0.177848,30,1.02573,10,-6.65185e-05,-3.74995,-0.740143,-0.0797143,0.374097,
2,0,0,1,0,19967.2,0.370303,0.369964,-0.179658,30,1.02558,10,-6.64671e-05,-3.74555,-0.749967,-0.0786701,0.370043,
2,0,0,0,0,19968,0.366307,0.366003,-0.181662,30,1.02542,10,-6.64886e-05,-3.74074,-0.738292,-0.0799141,0.366083,
2,0,0,1,0,19968.8,0.362312,0.362016,-0.184197,30,1.02526,10,-6.66821e-05,-3.73472,-0.690611,-0.0854317,0.362097,
2,0,0,1,0,19969.6,0.358316,0.358012,-0.186203,30,1.0251,10,-6.6663e-05,-3.73001,-1.11228,-0.0530444,0.358094,
2,0,0,1,0,19970.4,0.354321,0.354022,-0.188463,30,1.02494,10,-6.67201e-05,-3.72477,-0.559402,-0.10547,0.354105,
2,0,0,1,0,19971.2,0.350327,0.350041,-0.190742,30,1.02478,10,-6.67673e-05,-3.71955,-0.88908,-0.0663607,0.350125,
2,0,0,0,0,19972,0.346331,0.346056,-0.193372,30,1.02462,10,-6.69177e-05,-3.71361,-2.99462,-0.019702,0.346142,
2,0,0,1,0,19972.8,0.342336,0.342092,-0.194819,30,1.02445,10,-6.66461e-05,-3.71037,-0.44277,-0.133252,0.342177,
2,0,0,0,0,19973.6,0.338341,0.338012,-0.197182,30,1.02428,10,-6.66499e-05,-3.70513,-1.3082,-0.0451001,0.338099,
2,0,0,1,0,19974.4,0.334345,0.334031,-0.200465,30,1.02411,10,-6.69614e-05,-3.69796,-0.618253,-0.0954302,0.334119,
2,0,0,1,0,19975.2,0.33035,0.330002,-0.202558,30,1.02394,10,-6.68446e-05,-3.69345,-0.643768,-0.091648,0.330091,
2,0,0,1,0,19976,0.326355,0.326014,-0.204781,30,1.02377,10,-6.67616e-05,-3.68871,-0.755993,-0.0780431,0.326104,
2,0,0,1,0,19976.8,0.32236,0.322072,-0.207678,30,1.02359,10,-6.68875e-05,-3.68261,-0.804219,-0.0733631,0.322164,
2,0,0,0,0,19977.6,0.318365,0.318012,-0.209725,30,1.02341,10,-6.6695e-05,-3.67835,-0.90157,-0.0654414,0.318104,
2,0,0,1,0,19978.4,0.31437,0.314066,-0.211398,30,1.02323,10,-6.63929e-05,-3.6749,-1.78253,-0.033099,0.314159,
2,0,0,1,0,19979.2,0.310374,0.310088,-0.213952,30,1.02305,10,-6.6344e-05,-3.66968,-0.523659,-0.112669,0.310182,
2,0,0,1,0,19980,0.306379,0.306089,-0.21723,30,1.02287,10,-6.64918e-05,-3.66308,-0.770672,-0.0765565,0.306185,
2,0,0,1,0,19980.8,0.302385,0.302068,-0.220459,30,1.02268,10,-6.65938e-05,-3.65667,-0.633448,-0.093141,0.302165,
2,0,0,0,0,19981.6,0.298389,0.298079,-0.222163,30,1.02249,10,-6.62222e-05,-3.65333,-0.630646,-0.0935548,0.298177,
2,0,0,1,0,19982.4,0.294394,0.294052,-0.224486,30,1.0223,10,-6.60106e-05,-3.64881,-1.59542,-0.0369808,0.294151,
2,0,0,1,0,19983.2,0.290398,0.290088,-0.227807,30,1.02211,10,-6.60841e-05,-3.64243,-0.991714,-0.059493,0.290188,
2,0,0,1,0,19984,0.286403,0.286077,-0.230208,30,1.02192,10,-6.58571e-05,-3.63788,-0.680218,-0.0867369,0.286178,
2,0,0,1,0,19984.8,0.282408,0.282081,-0.232207,30,1.02172,10,-6.55013e-05,-3.63412,-1.3197,-0.044707,0.282183,
2,0,0,1,0,19985.6,0.278414,0.2781,-0.234177,30,1.02152,10,-6.51245e-05,-3.63046,-0.85403,-0.0690842,0.278203,
2,0,0,1,0,19986.4,0.274418,0.274041,-0.23751,30,1.02132,10,-6.50875e-05,-3.62432,-0.782807,-0.0753698,0.274146,
2,0,0,0,0,19987.2,0.270423,0.270086,-0.241103,30,1.02112,10,-6.51184e-05,-3.6178,-0.824699,-0.0715412,0.270192,
2,0,0,1,0,19988,0.266427,0.266115,-0.242938,30,1.02092,10,-6.46495e-05,-3.6145,-0.582747,-0.101245,0.266222,
2,0,0,1,0,19988.8,0.262432,0.262149,-0.245114,30,1.02071,10,-6.42563e-05,-3.61063,-1.3356,-0.044175,0.262256,
2,0,0,1,0,19989.6,0.258437,0.258085,-0.247639,30,1.0205,10,-6.3912e-05,-3.60618,-0.898582,-0.065659,0.258194,
2,0,0,1,0,19990.4,0.254442,0.254129,-0.248667,30,1.02029,10,-6.31935e-05,-3.60438,-0.832271,-0.0708904,0.254238,
2,0,0,0,0,19991.2,0.250447,0.250107,-0.253109,30,1.02008,10,-6.33043e-05,-3.59669,-3.1658,-0.0186367,0.250218,
2,0,0,1,0,19992,0.246452,0.246151,-0.255184,30,1.01986,10,-6.2814e-05,-3.59315,-0.520766,-0.113295,0.246264,
2,0,0,1,0,19992.8,0.242456,0.242159,-0.257771,30,1.01965,10,-6.24215e-05,-3.58877,-2.23693,-0.0263754,0.242272,
2,0,0,1,0,19993.6,0.238461,0.238167,-0.259077,30,1.01943,10,-6.17035e-05,-3.58657,-0.773706,-0.0762564,0.238281,
2,0,0,1,0,19994.4,0.234467,0.234118,-0.261427,30,1.01921,10,-6.12048e-05,-3.58265,-0.675977,-0.087281,0.234233,
2,0,0,0,0,19995.2,0.230471,0.23016,-0.263417,30,1.01899,10,-6.06281e-05,-3.57936,-1.39615,-0.0422592,0.230276,
2,0,0,1,0,19996,0.226476,0.226153,-0.26727,30,1.01876,10,-6.04439e-05,-3.57305,-1.17738,-0.0501111,0.226271,
2,0,0,0,0,19996.8,0.222481,0.222179,-0.268941,30,1.01854,10,-5.97529e-05,-3.57034,-1.50197,-0.0392817,0.222297,
2,0,0,1,0,19997.6,0.218485,0.218197,-0.27296,30,1.01831,10,-5.95589e-05,-3.5639,-0.902373,-0.0653831,0.218317,
2,0,0,1,0,19998.4,0.21449,0.214164,-0.274883,30,1.01808,10,-5.88701e-05,-3.56085,-0.507086,-0.116351,0.214285,
2,0,0,1,0,19999.2,0.210496,0.210212,-0.278311,30,1.01785,10,-5.85042e-05,-3.55547,-1.35345,-0.0435924,0.210334,
2,0,0,1,0,20000,0.2065,0.206204,-0.282112,30,1.01761,10,-5.81725e-05,-3.54958,-0.771888,-0.076436,0.206328,
2,0,0,0,0,20000.8,0.202505,0.202183,-0.28401,30,1.01737,10,-5.74218e-05,-3.54667,-0.791669,-0.0745261,0.202308,
2,0,0,1,0,20001.6,0.198509,0.198163,-0.288019,30,1.01713,10,-5.70748e-05,-3.54058,-0.96861,-0.060912,0.19829,
2,0,0,1,0,20002.4,0.194514,0.194178,-0.293318,30,1.01689,10,-5.69558e-05,-3.53266,-0.589063,-0.100159,0.194307,
2,0,0,1,0,20003.2,0.190519,0.190179,-0.294489,30,1.01664,10,-5.60056e-05,-3.53093,-0.522415,-0.112937,0.190309,
2,0,0,1,0,20004,0.186524,0.186183,-0.300485,30,1.01639,10,-5.59452e-05,-3.52218,-1.13672,-0.0519038,0.186315,
2,0,0,0,0,20004.8,0.182529,0.182207,-0.305991,30,1.01614,10,-5.57536e-05,-3.51429,-0.413223,-0.14278,0.182341,
2,0,0,1,0,20005.6,0.178534,0.178207,-0.312636,30,1.01588,10,-5.57138e-05,-3.50496,-0.410972,-0.143562,0.178344,
2,0,0,1,0,20006.4,0.174538,0.1742,-0.319021,30,1.01561,10,-5.55736e-05,-3.49618,-0.361646,-0.163143,0.174341,
2,0,0,1,0,20007.2,0.170543,0.170176,-0.327382,30,1.01534,10,-5.57126e-05,-3.48495,-0.284027,-0.207727,0.17032,
2,0,0,1,0,20008,0.166549,0.166199,-0.338678,30,1.01506,10,-5.6288e-05,-3.47021,-0.337587,-0.17477,0.166348,
2,0,0,0,0,20008.8,0.162553,0.16224,-0.351269,30,1.01478,10,-5.69899e-05,-3.45436,-0.200054,-0.29492,0.162395,
2,0,0,1,0,20009.6,0.158558,0.158258,-0.36566,30,1.01448,10,-5.78688e-05,-3.43692,-0.208614,-0.282819,0.158419,
2,0,0,0,0,20010.4,0.154563,0.154263,-0.386597,30,1.01416,10,-5.96376e-05,-3.41274,-0.151204,-0.390202,0.154433,
2,0,0,1,0,20011.2,0.150567,0.150245,-0.413989,30,1.01383,10,-6.21997e-05,-3.38301,-0.120124,-0.491161,0.150427,
2,0,0,1,0,20012,0.146572,0.146249,-0.451511,30,1.01348,10,-6.60333e-05,-3.34533,-0.0987039,-0.597747,0.146448,
2,0,0,1,0,20012.8,0.142578,0.142226,-0.499494,30,1.01308,10,-7.10409e-05,-3.30147,-0.0869499,-0.678552,0.142446,
2,0,0,1,0,20013.6,0.138582,0.138237,-0.554332,30,1.01265,10,-7.66292e-05,-3.25623,-0.0854019,-0.690851,0.138481,
2,0,0,0,0,20014.4,0.134587,0.134242,-0.613885,30,1.01217,10,-8.24094e-05,-3.21191,-0.0995411,-0.59272,0.134512,
2,0,0,1,0,20015.2,0.130591,0.130264,-0.66625,30,1.01165,10,-8.67886e-05,-3.17636,-0.123575,-0.477444,0.130558,
2,0,0,1,0,20016,0.126596,0.126319,-0.70563,30,1.01108,10,-8.91345e-05,-3.15142,-0.189816,-0.310827,0.126629,
2,0,0,1,0,20016.8,0.122602,0.12228,-0.734622,30,1.01049,10,-8.98297e-05,-3.13394,-0.41865,-0.140929,0.122603,
2,0,0,1,0,20017.6,0.118607,0.11829,-0.745008,30,1.00989,10,-8.81271e-05,-3.12784,-0.77462,-0.0761664,0.118618,
2,0,0,0,0,20018.4,0.114611,0.114289,-0.748892,30,1.00928,10,-8.55899e-05,-3.12558,2.22418,0.0265266,0.114618,
2,0,0,1,0,20019.2,0.110616,0.110304,-0.744706,30,1.00867,10,-8.21438e-05,-3.12802,1.06917,0.0551829,0.110631,
2,0,0,1,0,20020,0.10662,0.106291,-0.735633,30,1.00807,10,-7.8191e-05,-3.13334,1.11258,0.0530299,0.106614,
2,0,0,1,0,20020.8,0.102625,0.102334,-0.727177,30,1.00747,10,-7.44147e-05,-3.13836,0.51956,0.113558,0.102654,
2,0,0,1,0,20021.6,0.0986305,0.0982863,-0.714245,30,1.00688,10,-7.02005e-05,-3.14615,0.601399,0.0981046,0.0986006,
2,0,0,0,0,20022.4,0.0946351,0.0943075,-0.700443,30,1.0063,10,-6.6057e-05,-3.15463,0.52495,0.112392,0.0946157,
2,0,0,1,0,20023.2,0.0906399,0.0903203,-0.690709,30,1.00573,10,-6.23851e-05,-3.1607,0.441759,0.133557,0.0906243,
2,0,0,0,0,20024,0.0866448,0.0863226,-0.677591,30,1.00517,10,-5.84914e-05,-3.16903,0.594612,0.0992244,0.0866208,
2,0,0,1,0,20024.8,0.0826492,0.0823268,-0.667773,30,1.00462,10,-5.49756e-05,-3.17537,0.621271,0.0949666,0.0826206,
2,0,0,1,0,20025.6,0.0786544,0.0783124,-0.658413,30,1.00408,10,-5.15619e-05,-3.1815,0.61881,0.0953443,0.0786021,
2,0,0,1,0,20026.4,0.0746596,0.0743543,-0.647528,30,1.00355,10,-4.81465e-05,-3.18874,0.726694,0.0811896,0.0746392,
2,0,0,1,0,20027.2,0.0706641,0.0703508,-0.637552,30,1.00302,10,-4.48523e-05,-3.19548,0.533087,0.110676,0.0706313,
2,0,0,0,0,20028,0.0666689,0.0663679,-0.630291,30,1.0025,10,-4.18311e-05,-3.20046,0.939369,0.0628081,0.0666452,
2,0,0,1,0,20028.8,0.0626737,0.0623309,-0.619863,30,1.00199,10,-3.86366e-05,-3.2077,0.564679,0.104484,0.0626037,
2,0,0,1,0,20029.6,0.0586783,0.0583531,-0.612873,30,1.00148,10,-3.5763e-05,-3.21263,0.557301,0.105867,0.0586227,
2,0,0,1,0,20030.4,0.0546835,0.0543113,-0.602375,30,1.00099,10,-3.27157e-05,-3.22013,0.781123,0.0755323,0.0545763,
2,0,0,1,0,20031.2,0.0506886,0.0503583,-0.592855,30,1.0005,10,-2.98552e-05,-3.22705,0.45482,0.129722,0.0506191,
2,0,0,0,0,20031.9,0.046693,0.0463442,-0.583148,30,1.00001,10,-2.70255e-05,-3.23422,0.538224,0.10962,0.0466008,
2,0,0,1,0,20032.7,0.0426979,0.04239,-0.571733,30,0.999541,10,-2.42358e-05,-3.24281,0.515764,0.114393,0.0426415,
2,0,0,1,0,20033.5,0.0387022,0.0383674,-0.560869,30,0.999075,10,-2.15191e-05,-3.25114,0.389514,0.151471,0.0386142,
2,0,0,1,0,20034.3,0.0347074,0.034369,-0.549813,30,0.998619,10,-1.88965e-05,-3.25978,0.527113,0.11193,0.0346109,
2,0,0,1,0,20035.1,0.0307126,0.0303863,-0.537934,30,0.998171,10,-1.63458e-05,-3.26927,0.539979,0.109263,0.030623,
2,0,0,0,0,20035.9,0.0267172,0.0263831,-0.529885,30,0.997731,10,-1.398e-05,-3.27582,0.43087,0.136932,0.0266163,
2,0,0,1,0,20036.7,0.022722,0.0223918,-0.522258,30,0.997299,10,-1.16943e-05,-3.28211,0.820193,0.0719343,0.0226216,
2,0,0,0,0,20037.5,0.0187268,0.0183845,-0.514256,30,0.996873,10,-9.45434e-06,-3.28882,0.675485,0.0873446,0.0186108,
2,0,0,1,0,20038.3,0.0147313,0.0144342,-0.509463,30,0.996453,10,-7.35369e-06,-3.29289,0.82235,0.0717456,0.0146584,
2,0,0,1,0,20039.1,0.0107365,0.0104166,-0.503897,30,0.996037,10,-5.2489e-06,-3.29766,1.56472,0.0377065,0.0106383,
2,0,0,1,0,20039.9,0.00674163,0.00642661,-0.501501,30,0.995623,10,-3.22295e-06,-3.29973,1.93724,0.0304557,0.00664727,
2,0,0,1,0,20040.7,0.00274612,0.00240628,-0.501134,30,0.995211,10,-1.20587e-06,-3.30005,-2.51853,-0.0234264,0.00262678,
2,0,0,0,0,20041.2,0.000274105,-9.03109e-05,-0.501905,30,0.994954,10,4.53275e-08,-3.29938, , ,0.000130527,