File: Figure_codes/Fig_3-5/workspace_calculate_alpha_eff/20221101_1-115_003_TrumpetPlot_ParaChange_from10_every3_16_CV_C01_12.csv
mode,ox/red,error,control changes,counter inc.,time/s,control/V,Ewe/V,<I>/mA,cycle number,(Q-Qo)/C,I Range,P/W,log(|I|),Tafel slope mV/dec,alpha_eff,E-IR/V,
2,0,0,1,0,9110.64,2.44065e-05,-0.000191712,-0.0453313,13,0.0000000E+000,10,8.69057e-09,-4.3436, , ,-0.000171767,
2,1,0,1,0,9111.39,0.00379485,0.0034879,0.214968,13,0.000152163,10,7.49785e-07,-3.66763,0.0616819,0.95652,0.00339331,
2,1,0,0,0,9112.19,0.00779002,0.00750366,0.235631,13,0.000347931,10,1.7681e-06,-3.62777,0.103699,0.568953,0.00739998,
2,1,0,1,0,9112.99,0.0117852,0.0114484,0.252215,13,0.000559181,10,2.88745e-06,-3.59823,0.155136,0.380311,0.0113374,
2,1,0,1,0,9113.79,0.0157806,0.0154897,0.26922,13,0.000782905,10,4.17012e-06,-3.56989,0.17159,0.343842,0.0153712,
2,1,0,1,0,9114.59,0.0197754,0.0195041,0.28102,13,0.00101748,10,5.48103e-06,-3.55126,0.180039,0.327706,0.0193804,
2,1,0,1,0,9115.39,0.0237704,0.0234541,0.295836,13,0.00126313,10,6.93858e-06,-3.52895,0.209217,0.282004,0.023324,
2,1,0,0,0,9116.19,0.0277659,0.0274361,0.31,13,0.00151956,10,8.5052e-06,-3.50864,0.180932,0.32609,0.0272997,
2,1,0,1,0,9116.99,0.0317611,0.0314763,0.322659,13,0.00178749,10,1.01561e-05,-3.49126,0.214735,0.274757,0.0313343,
2,1,0,1,0,9117.79,0.0357567,0.0354617,0.338739,13,0.00206726,10,1.20123e-05,-3.47013,0.278906,0.211541,0.0353127,
2,1,0,1,0,9118.59,0.0397516,0.0394201,0.352053,13,0.00235818,10,1.38779e-05,-3.45339,0.189853,0.310767,0.0392652,
2,1,0,1,0,9119.38,0.0437465,0.043447,0.365496,13,0.00266145,10,1.58797e-05,-3.43712,0.246778,0.239082,0.0432862,
2,1,0,1,0,9120.18,0.0477413,0.0474402,0.379463,13,0.00297515,10,1.80018e-05,-3.42083,0.249754,0.236232,0.0472732,
2,1,0,1,0,9120.98,0.0517369,0.0514087,0.39299,13,0.00329981,10,2.02031e-05,-3.40562,0.244316,0.241491,0.0512358,
2,1,0,0,0,9121.78,0.0557321,0.0554351,0.407176,13,0.00363571,10,2.25718e-05,-3.39022,0.314913,0.187353,0.0552559,
2,1,0,1,0,9122.58,0.0597277,0.0594143,0.418881,13,0.00398114,10,2.48875e-05,-3.37791,0.332176,0.177617,0.05923,
2,1,0,1,0,9123.38,0.0637226,0.0634297,0.430813,13,0.00433639,10,2.73263e-05,-3.36571,0.328986,0.179339,0.0632401,
2,1,0,1,0,9124.18,0.0677174,0.0674239,0.443349,13,0.00470147,10,2.98923e-05,-3.35325,0.52685,0.111986,0.0672288,
2,1,0,1,0,9124.98,0.0717128,0.0714313,0.45315,13,0.00507458,10,3.23691e-05,-3.34376,0.331334,0.178068,0.0712319,
2,1,0,0,0,9125.78,0.075708,0.0754206,0.461835,13,0.00545593,10,3.48319e-05,-3.33551,0.448893,0.131434,0.0752174,
2,1,0,1,0,9126.58,0.0797031,0.0794321,0.473177,13,0.00584478,10,3.75855e-05,-3.32498,0.438229,0.134633,0.0792239,
2,1,0,1,0,9127.37,0.0836986,0.0834026,0.482476,13,0.00624103,10,4.02398e-05,-3.31652,0.417286,0.14139,0.0831903,
2,1,0,1,0,9128.17,0.0876935,0.0874075,0.494294,13,0.00664655,10,4.3205e-05,-3.30601,0.329147,0.179251,0.08719,
2,1,0,1,0,9128.97,0.0916883,0.0913921,0.509508,13,0.00706212,10,4.6565e-05,-3.29285,0.257457,0.229164,0.0911679,
2,1,0,0,0,9129.77,0.0956838,0.0954209,0.528521,13,0.007492,10,5.0432e-05,-3.27694,0.262958,0.22437,0.0951884,
2,1,0,1,0,9130.57,0.099679,0.0993699,0.551814,13,0.00793829,10,5.48337e-05,-3.25821,0.237274,0.248657,0.0991271,
2,1,0,0,0,9131.37,0.103674,0.103347,0.575586,13,0.00840338,10,5.94853e-05,-3.23989,0.190194,0.31021,0.103094,
2,1,0,1,0,9132.17,0.10767,0.10737,0.599938,13,0.0088895,10,6.44151e-05,-3.22189,0.23406,0.252072,0.107106,
2,1,0,1,0,9132.97,0.111664,0.111353,0.623532,13,0.00939422,10,6.94323e-05,-3.20514,0.256968,0.229601,0.111079,
2,1,0,1,0,9133.77,0.115659,0.115372,0.641011,13,0.00991543,10,7.39547e-05,-3.19313,0.284676,0.207253,0.11509,
2,1,0,1,0,9134.57,0.119655,0.119341,0.659218,13,0.0104519,10,7.86714e-05,-3.18097,0.451447,0.130691,0.11905,
2,1,0,0,0,9135.37,0.12365,0.123415,0.678832,13,0.0110014,10,8.37778e-05,-3.16824,0.317574,0.185784,0.123116,
2,1,0,1,0,9136.16,0.127646,0.127351,0.694788,13,0.0115656,10,8.84821e-05,-3.15815,0.429267,0.137444,0.127046,
2,1,0,1,0,9136.96,0.131641,0.13136,0.708847,13,0.0121427,10,9.31142e-05,-3.14945,1.84027,0.0320604,0.131048,
2,1,0,1,0,9137.76,0.135635,0.135308,0.704812,13,0.0127238,10,9.53666e-05,-3.15193,-0.672078,-0.0877874,0.134998,
2,1,0,1,0,9138.56,0.139631,0.13935,0.678473,13,0.0132948,10,9.45454e-05,-3.16847,-0.164138,-0.359453,0.139052,
2,1,0,0,0,9139.36,0.143626,0.14334,0.631611,13,0.0138349,10,9.05349e-05,-3.19955,-0.0971873,-0.607075,0.143062,
2,1,0,1,0,9140.16,0.147621,0.147317,0.564201,13,0.014327,10,8.31165e-05,-3.24857,-0.077591,-0.760398,0.147069,
2,1,0,1,0,9140.96,0.151617,0.151325,0.499129,13,0.0147664,10,7.55305e-05,-3.30179,-0.075714,-0.779248,0.151105,
2,1,0,1,0,9141.76,0.155612,0.15532,0.447167,13,0.015158,10,6.9454e-05,-3.34953,-0.0917331,-0.64317,0.155123,
2,1,0,1,0,9142.56,0.159606,0.159342,0.40823,13,0.0155135,10,6.50481e-05,-3.3891,-0.118536,-0.497738,0.159162,
2,1,0,0,0,9143.36,0.163602,0.163314,0.380053,13,0.0158429,10,6.20682e-05,-3.42016,-0.143306,-0.411707,0.163147,
2,1,0,1,0,9144.15,0.167597,0.167284,0.36022,13,0.0161532,10,6.02589e-05,-3.44343,-0.206848,-0.285234,0.167125,
2,1,0,0,0,9144.95,0.171592,0.171261,0.34346,13,0.0164498,10,5.88213e-05,-3.46412,-0.245149,-0.24067,0.17111,
2,1,0,1,0,9145.75,0.175588,0.175276,0.333337,13,0.0167355,10,5.84261e-05,-3.47712,-0.280947,-0.210004,0.175129,
2,1,0,1,0,9146.55,0.179582,0.179284,0.325195,13,0.0170131,10,5.83022e-05,-3.48786,-0.491888,-0.119946,0.179141,
2,1,0,1,0,9147.35,0.183577,0.183281,0.31869,13,0.0172852,10,5.84096e-05,-3.49663,-0.514253,-0.114729,0.18314,
2,1,0,1,0,9148.15,0.187573,0.187273,0.313847,13,0.0175524,10,5.87752e-05,-3.50328,-0.460416,-0.128145,0.187135,
2,1,0,0,0,9148.95,0.191568,0.191269,0.3088,13,0.0178154,10,5.90638e-05,-3.51032,-0.918197,-0.0642564,0.191133,
2,1,0,1,0,9149.75,0.195563,0.195275,0.305012,13,0.0180754,10,5.95612e-05,-3.51568,-0.419208,-0.140742,0.195141,
2,1,0,1,0,9150.55,0.199559,0.19928,0.301742,13,0.0183319,10,6.01312e-05,-3.52036,-4.56883,-0.0129136,0.199148,
2,1,0,1,0,9151.35,0.203553,0.203222,0.297298,13,0.0185862,10,6.04173e-05,-3.52681,-1.02238,-0.0577086,0.203091,
2,1,0,1,0,9152.14,0.207548,0.207287,0.296036,13,0.0188386,10,6.13644e-05,-3.52866,-1.02604,-0.0575026,0.207157,
2,1,0,0,0,9152.94,0.211544,0.211224,0.292334,13,0.0190884,10,6.17478e-05,-3.53412,-1.60316,-0.0368023,0.211095,
2,1,0,1,0,9153.74,0.215539,0.215222,0.291574,13,0.0193365,10,6.27533e-05,-3.53525,-0.873481,-0.0675458,0.215094,
2,1,0,1,0,9154.54,0.219535,0.219222,0.289894,13,0.0195829,10,6.35511e-05,-3.53776,-1.05241,-0.0560617,0.219094,
2,1,0,1,0,9155.34,0.223529,0.223244,0.286876,13,0.0198278,10,6.40432e-05,-3.54231,-2.05429,-0.0287204,0.223117,
2,1,0,1,0,9156.14,0.227524,0.227237,0.285865,13,0.0200713,10,6.4959e-05,-3.54384,-1.25739,-0.0469225,0.227111,
2,1,0,0,0,9156.94,0.23152,0.231202,0.285716,13,0.0203135,10,6.6058e-05,-3.54407,27.7987,0.0021224,0.231076,
2,1,0,1,0,9157.74,0.235515,0.235225,0.280915,13,0.0205549,10,6.60781e-05,-3.55143,-1.87321,-0.0314967,0.235101,
2,1,0,0,0,9158.54,0.23951,0.239195,0.282249,13,0.0207948,10,6.75125e-05,-3.54937,-1.27448,-0.0462934,0.239071,
2,1,0,1,0,9159.34,0.243506,0.243204,0.281106,13,0.0210342,10,6.83662e-05,-3.55113,8.27624,0.00712884,0.24308,
2,1,0,1,0,9160.14,0.2475,0.247231,0.280166,13,0.0212731,10,6.92657e-05,-3.55258,-1.81789,-0.0324553,0.247108,
2,1,0,1,0,9160.93,0.251495,0.251194,0.27789,13,0.0215108,10,6.98044e-05,-3.55613,22.3202,0.00264334,0.251072,
2,1,0,1,0,9161.73,0.255491,0.255212,0.277038,13,0.0217476,10,7.07036e-05,-3.55746,-0.999525,-0.0590281,0.255091,
2,1,0,0,0,9162.53,0.259486,0.259243,0.276535,13,0.0219838,10,7.16897e-05,-3.55825,-1.19471,-0.0493842,0.259121,
2,1,0,1,0,9163.33,0.263481,0.263157,0.275624,13,0.0222192,10,7.25324e-05,-3.55968,-2.86298,-0.0206079,0.263036,
2,1,0,1,0,9164.13,0.267477,0.267222,0.272802,13,0.0224537,10,7.28986e-05,-3.56415,-3.25431,-0.0181298,0.267102,
2,1,0,1,0,9164.93,0.271471,0.27116,0.273928,13,0.0226873,10,7.42784e-05,-3.56236,-4.25227,-0.0138749,0.271039,
2,1,0,1,0,9165.73,0.275466,0.275174,0.272221,13,0.02292,10,7.49083e-05,-3.56508,-5.22298,-0.0112962,0.275054,
2,1,0,0,0,9166.53,0.279462,0.279184,0.271672,13,0.0231521,10,7.58464e-05,-3.56596,-1.33129,-0.0443178,0.279065,
2,1,0,1,0,9167.33,0.283457,0.283188,0.270242,13,0.0233832,10,7.65293e-05,-3.56825,-1.0954,-0.0538617,0.283069,
2,1,0,0,0,9168.13,0.287452,0.287164,0.269588,13,0.0236134,10,7.7416e-05,-3.5693,7.48926,0.00787795,0.287045,
2,1,0,1,0,9168.92,0.291448,0.291146,0.268837,13,0.0238429,10,7.82707e-05,-3.57051,-2.81092,-0.0209896,0.291027,
2,1,0,1,0,9169.72,0.295442,0.295141,0.268854,13,0.0240717,10,7.93499e-05,-3.57048,-7.74985,-0.00761305,0.295023,
2,1,0,1,0,9170.52,0.299437,0.299154,0.26621,13,0.0242998,10,7.96379e-05,-3.57478,-4.43424,-0.0133056,0.299037,
2,1,0,1,0,9171.32,0.303433,0.303124,0.265339,13,0.0245271,10,8.04307e-05,-3.5762,-1.64495,-0.0358673,0.303007,
2,1,0,0,0,9172.12,0.307428,0.307165,0.265169,13,0.0247533,10,8.14505e-05,-3.57648,-1115.79,-5.28775e-05,0.307048,
2,1,0,1,0,9172.92,0.311424,0.311143,0.263669,13,0.0249792,10,8.20387e-05,-3.57894,-1.94078,-0.0304002,0.311027,
2,1,0,1,0,9173.72,0.315418,0.31511,0.263878,13,0.0252042,10,8.31504e-05,-3.5786,-1.62954,-0.0362065,0.314993,
2,1,0,1,0,9174.52,0.319413,0.319145,0.262537,13,0.0254289,10,8.37874e-05,-3.58081,2.15373,0.0273943,0.31903,
2,1,0,1,0,9175.32,0.323409,0.323088,0.261987,13,0.0256532,10,8.46448e-05,-3.58172,-0.932336,-0.0632819,0.322973,
2,1,0,0,0,9176.12,0.327404,0.327125,0.260364,13,0.0258763,10,8.51717e-05,-3.58442,-2.1948,-0.0268817,0.32701,
2,1,0,1,0,9176.91,0.331399,0.331095,0.25881,13,0.0260987,10,8.56906e-05,-3.58702,8.48332,0.00695482,0.330981,
2,1,0,1,0,9177.71,0.335395,0.335125,0.259917,13,0.0263206,10,8.71047e-05,-3.58517,-1.56358,-0.037734,0.335011,
2,1,0,1,0,9178.51,0.339389,0.339093,0.259082,13,0.0265419,10,8.78529e-05,-3.58656,-1.84686,-0.031946,0.338979,
2,1,0,1,0,9179.31,0.343384,0.343067,0.258302,13,0.0267628,10,8.86149e-05,-3.58787,-12.5014,-0.00471947,0.342953,
2,1,0,0,0,9180.11,0.34738,0.347064,0.258431,13,0.026983,10,8.96922e-05,-3.58765,4.22388,0.0139682,0.34695,
2,1,0,1,0,9180.91,0.351375,0.351034,0.25666,13,0.0272027,10,9.00965e-05,-3.59064,-3.59669,-0.016404,0.350921,
2,1,0,0,0,9181.71,0.35537,0.355106,0.256177,13,0.027422,10,9.09699e-05,-3.59146,-1.31088,-0.0450079,0.354993,
2,1,0,1,0,9182.51,0.359366,0.359102,0.255776,13,0.0276405,10,9.18497e-05,-3.59214,7.13749,0.00826621,0.358989,
2,1,0,1,0,9183.31,0.36336,0.36308,0.255571,13,0.0278586,10,9.27927e-05,-3.59249,-6.3728,-0.0092581,0.362968,
2,1,0,1,0,9184.11,0.367355,0.367095,0.254392,13,0.0280763,10,9.33859e-05,-3.5945,-10.3777,-0.00568525,0.366983,
2,1,0,1,0,9184.91,0.371351,0.371048,0.254702,13,0.0282934,10,9.45067e-05,-3.59397,-83.3211,-0.000708104,0.370936,
2,1,0,0,0,9185.7,0.375346,0.375069,0.253854,13,0.0285103,10,9.52128e-05,-3.59542,-1.1126,-0.0530289,0.374957,
2,1,0,1,0,9186.5,0.379342,0.379047,0.252515,13,0.0287264,10,9.57153e-05,-3.59771,6.96454,0.00847148,0.378936,
2,1,0,1,0,9187.3,0.383336,0.383052,0.251634,13,0.0289422,10,9.6389e-05,-3.59923,-1.86162,-0.0316928,0.382941,
2,1,0,1,0,9188.1,0.387331,0.387017,0.252823,13,0.0291577,10,9.78467e-05,-3.59718,-2.43059,-0.0242739,0.386905,
2,1,0,1,0,9188.9,0.391327,0.391055,0.251407,13,0.0293725,10,9.83139e-05,-3.59962,-4.55891,-0.0129417,0.390944,
2,1,0,0,0,9189.7,0.395322,0.395057,0.251408,13,0.0295873,10,9.93206e-05,-3.59962,4.53449,0.0130114,0.394946,
2,1,0,1,0,9190.5,0.399317,0.399038,0.251397,13,0.0298018,10,0.000100317,-3.59964,86.2916,0.000683729,0.398927,
2,1,0,1,0,9191.3,0.403313,0.403022,0.250605,13,0.0300157,10,0.000100999,-3.60101,-3.89469,-0.0151488,0.402912,
2,1,0,1,0,9192.1,0.407307,0.407033,0.250317,13,0.0302296,10,0.000101887,-3.60151,-3.63719,-0.0162213,0.406923,
2,1,0,1,0,9192.9,0.411302,0.411069,0.251224,13,0.0304432,10,0.00010327,-3.59994,-6.14485,-0.00960153,0.410958,
2,1,0,0,0,9193.69,0.415298,0.415036,0.25008,13,0.0306568,10,0.000103792,-3.60192,30.7671,0.00191763,0.414926,
2,1,0,1,0,9194.49,0.419293,0.419006,0.250214,13,0.03087,10,0.000104841,-3.60169,-12.0105,-0.00491238,0.418896,
2,1,0,0,0,9195.29,0.423288,0.422996,0.250387,13,0.0310829,10,0.000105913,-3.60139,-6.9085,-0.00854021,0.422886,
2,1,0,1,0,9196.09,0.427283,0.42699,0.248664,13,0.0312958,10,0.000106177,-3.60439,3.78443,0.0155902,0.426881,
2,1,0,1,0,9196.89,0.431278,0.43102,0.249099,13,0.0315085,10,0.000107367,-3.60363,2.80964,0.0209991,0.430911,
2,1,0,1,0,9197.69,0.435273,0.434948,0.248699,13,0.0317208,10,0.000108171,-3.60433,-1.5234,-0.0387292,0.434838,
2,1,0,1,0,9198.49,0.439269,0.439019,0.249045,13,0.0319332,10,0.000109336,-3.60372,5.42936,0.0108668,0.43891,
2,1,0,0,0,9199.29,0.443264,0.442966,0.249196,13,0.0321454,10,0.000110385,-3.60346,-12.3668,-0.00477083,0.442856,
2,1,0,1,0,9200.09,0.447259,0.44695,0.24984,13,0.0323577,10,0.000111666,-3.60234,-9.56275,-0.00616977,0.44684,
2,1,0,1,0,9200.89,0.451254,0.450929,0.248869,13,0.0325702,10,0.000112222,-3.60403,-3.48646,-0.0169226,0.450819,
2,1,0,1,0,9201.68,0.455249,0.454982,0.248951,13,0.0327825,10,0.000113268,-3.60389,1.18966,0.0495939,0.454873,
2,1,0,1,0,9202.48,0.459244,0.459003,0.248189,13,0.0329951,10,0.00011392,-3.60522,-3.15828,-0.018681,0.458894,
2,1,0,0,0,9203.28,0.46324,0.462931,0.249698,13,0.033208,10,0.000115593,-3.60259,3.29334,0.0179149,0.462821,
2,1,0,1,0,9204.08,0.467235,0.46696,0.250412,13,0.0334208,10,0.000116932,-3.60135,5.35777,0.011012,0.46685,
2,1,0,1,0,9204.88,0.471231,0.470935,0.251065,13,0.033634,10,0.000118235,-3.60021,4.62829,0.0127477,0.470825,
2,1,0,1,0,9205.68,0.475225,0.474961,0.253456,13,0.0338475,10,0.000120381,-3.5961,28.3198,0.00208335,0.474849,
2,1,0,1,0,9206.48,0.47922,0.478932,0.251516,13,0.0340612,10,0.000120459,-3.59943,2.35334,0.0250708,0.478821,
2,1,0,0,0,9207.28,0.483216,0.482936,0.251978,13,0.0342754,10,0.000121689,-3.59864,-2.97413,-0.0198377,0.482825,
2,1,0,1,0,9208.08,0.487211,0.486863,0.252988,13,0.0344899,10,0.000123171,-3.5969,1.41942,0.0415662,0.486751,
2,1,0,0,0,9208.88,0.491206,0.490929,0.252351,13,0.034705,10,0.000123886,-3.598,1.85534,0.0318,0.490818,
2,1,0,1,0,9209.68,0.495201,0.494882,0.254526,13,0.0349204,10,0.00012596,-3.59427,22.9177,0.00257443,0.49477,
2,1,0,1,0,9210.47,0.499196,0.498892,0.254878,13,0.0351364,10,0.000127157,-3.59367,4.17675,0.0141258,0.49878,
2,1,0,1,0,9211.27,0.503191,0.502923,0.254225,13,0.0353532,10,0.000127856,-3.59478,1.46524,0.0402665,0.502811,
2,1,0,1,0,9212.07,0.507187,0.50689,0.257121,13,0.0355706,10,0.000130332,-3.58986,3.4597,0.0170535,0.506777,
2,1,0,0,0,9212.87,0.511182,0.51094,0.258205,13,0.0357886,10,0.000131927,-3.58804,1.41979,0.0415554,0.510827,
2,1,0,1,0,9213.67,0.515177,0.514881,0.259275,13,0.0360081,10,0.000133496,-3.58624,2.58019,0.0228665,0.514767,
2,1,0,1,0,9214.47,0.519173,0.518892,0.261168,13,0.0362283,10,0.000135518,-3.58308,2.19572,0.0268705,0.518778,
2,1,0,1,0,9215.27,0.523167,0.522889,0.261634,13,0.0364499,10,0.000136806,-3.58231,1.21637,0.048505,0.522773,
2,1,0,1,0,9216.07,0.527162,0.52685,0.263605,13,0.0366727,10,0.00013888,-3.57905,1.78985,0.0329636,0.526734,
2,1,0,0,0,9216.87,0.531158,0.530882,0.265369,13,0.0368967,10,0.00014088,-3.57615,1.62787,0.0362437,0.530765,
2,1,0,1,0,9217.67,0.535153,0.534853,0.267907,13,0.0371221,10,0.000143291,-3.57202,1.05977,0.0556725,0.534736,
2,1,0,0,0,9218.46,0.539148,0.538884,0.269894,13,0.0373491,10,0.000145441,-3.56881,1.03902,0.0567842,0.538765,
2,1,0,1,0,9219.26,0.543143,0.542852,0.2722,13,0.0375778,10,0.000147764,-3.56511,0.802588,0.0735122,0.542732,
2,1,0,1,0,9220.06,0.547138,0.546855,0.275418,13,0.0378087,10,0.000150614,-3.56001,1.52355,0.0387254,0.546734,
2,1,0,1,0,9220.86,0.551133,0.550825,0.277622,13,0.0380415,10,0.000152921,-3.55655,0.733296,0.0804586,0.550702,
2,1,0,1,0,9221.66,0.555129,0.554812,0.279512,13,0.0382769,10,0.000155076,-3.5536,0.766428,0.0769805,0.554689,
2,1,0,0,0,9222.46,0.559124,0.558801,0.283855,13,0.0385148,10,0.000158618,-3.5469,0.723946,0.0814978,0.558676,
2,1,0,1,0,9223.26,0.56312,0.5628,0.287948,13,0.0387556,10,0.000162057,-3.54069,0.540301,0.109198,0.562673,
2,1,0,1,0,9224.06,0.567114,0.566854,0.292982,13,0.0389999,10,0.000166078,-3.53316,0.627274,0.0940577,0.566725,
2,1,0,1,0,9224.86,0.571109,0.570819,0.297532,13,0.0392473,10,0.000169837,-3.52647,0.624314,0.0945037,0.570688,
2,1,0,1,0,9225.66,0.575105,0.574796,0.302737,13,0.0394985,10,0.000174012,-3.51893,0.548547,0.107557,0.574663,
2,1,0,0,0,9226.46,0.5791,0.578861,0.308373,13,0.0397546,10,0.000178505,-3.51092,0.439741,0.13417,0.578726,
2,1,0,1,0,9227.25,0.583095,0.582799,0.31524,13,0.0400157,10,0.000183721,-3.50136,0.350702,0.168234,0.58266,
2,1,0,1,0,9228.05,0.58709,0.586774,0.322911,13,0.0402825,10,0.000189476,-3.49092,0.388752,0.151768,0.586632,
2,1,0,1,0,9228.85,0.591085,0.590791,0.332253,13,0.040556,10,0.000196292,-3.47853,0.32527,0.181388,0.590645,
2,1,0,1,0,9229.65,0.59508,0.594787,0.341824,13,0.0408368,10,0.000203312,-3.4662,0.27,0.218518,0.594637,
2,1,0,0,0,9230.45,0.599076,0.598823,0.35334,13,0.0411263,10,0.000211588,-3.45181,0.287986,0.204871,0.598668,
2,1,0,1,0,9231.25,0.603071,0.602813,0.367096,13,0.0414258,10,0.00022129,-3.43522,0.226424,0.260573,0.602651,
2,1,0,0,0,9232.05,0.607066,0.606779,0.381716,13,0.0417369,10,0.000231617,-3.41826,0.2178,0.270891,0.606611,
2,1,0,1,0,9232.85,0.611061,0.610786,0.399563,13,0.0420615,10,0.000244048,-3.39841,0.191873,0.307495,0.61061,
2,1,0,1,0,9233.65,0.615056,0.614748,0.421522,13,0.0424014,10,0.00025913,-3.37518,0.158564,0.372089,0.614562,
2,1,0,1,0,9234.45,0.619051,0.61875,0.44486,13,0.0427599,10,0.000275257,-3.35178,0.159577,0.369728,0.618554,
2,1,0,1,0,9235.24,0.623047,0.622795,0.473774,13,0.0431393,10,0.000295064,-3.32443,0.143205,0.411998,0.622587,
2,1,0,0,0,9236.04,0.627042,0.626786,0.50692,13,0.043543,10,0.00031773,-3.29506,0.126452,0.466582,0.626563,
2,1,0,1,0,9236.84,0.631037,0.630763,0.5461,13,0.0439757,10,0.00034446,-3.26273,0.124395,0.474296,0.630523,
2,1,0,1,0,9237.64,0.635032,0.634745,0.591597,13,0.0444414,10,0.000375513,-3.22797,0.105873,0.557271,0.634485,
2,1,0,1,0,9238.44,0.639027,0.638746,0.646065,13,0.0449475,10,0.000412672,-3.18972,0.099745,0.591509,0.638462,
2,1,0,1,0,9239.24,0.643022,0.642748,0.710866,13,0.0455014,10,0.000456908,-3.14821,0.092638,0.636888,0.642435,
2,1,0,0,0,9240.04,0.647018,0.646767,0.787289,13,0.0461111,10,0.000509192,-3.10387,0.0865846,0.681414,0.64642,
2,1,0,1,0,9240.84,0.651013,0.6508,0.874723,13,0.0467871,10,0.00056927,-3.05813,0.0820717,0.718884,0.650416,
2,1,0,1,0,9241.64,0.655008,0.654757,0.981519,13,0.0475411,10,0.000642657,-3.0081,0.0774915,0.761374,0.654325,
2,1,0,1,0,9242.44,0.659003,0.658758,1.10461,13,0.0483861,10,0.000727667,-2.95679,0.0760542,0.775763,0.658272,
2,1,0,1,0,9243.23,0.662998,0.662775,1.25103,13,0.0493384,10,0.000829151,-2.90273,0.071967,0.819821,0.662225,
2,1,0,0,0,9244.03,0.666994,0.666705,1.41951,13,0.0504158,10,0.000946396,-2.84786,0.0703075,0.839171,0.666081,
2,1,0,1,0,9244.83,0.670989,0.670778,1.61322,13,0.0516383,10,0.00108212,-2.79231,0.0688999,0.856315,0.670069,
2,1,0,0,0,9245.63,0.674984,0.674737,1.83918,13,0.0530287,10,0.00124096,-2.73538,0.0693601,0.850633,0.673928,
2,1,0,1,0,9246.43,0.67898,0.678682,2.09606,13,0.054612,10,0.00142256,-2.6786,0.0679341,0.868489,0.67776,
2,1,0,1,0,9247.23,0.682974,0.682747,2.38914,13,0.0564149,10,0.00163118,-2.62176,0.0677481,0.870873,0.681696,
2,1,0,1,0,9248.03,0.686969,0.686743,2.71732,13,0.0584651,10,0.0018661,-2.56586,0.0695545,0.848255,0.685548,
2,1,0,1,0,9248.83,0.690965,0.690661,3.08402,13,0.0607937,10,0.00213001,-2.51088,0.0697865,0.845435,0.689304,
2,1,0,0,0,9249.63,0.69496,0.694735,3.49268,13,0.0634319,10,0.00242649,-2.45684,0.0722192,0.816957,0.693198,
2,1,0,1,0,9250.43,0.698955,0.698697,3.9402,13,0.0664122,10,0.002753,-2.40448,0.0728208,0.810208,0.696963,
2,1,0,1,0,9251.23,0.70295,0.702695,4.43014,13,0.0697678,10,0.00311304,-2.35358,0.0753436,0.783079,0.700746,
2,1,0,1,0,9252.02,0.706945,0.706696,4.96172,13,0.0735302,10,0.00350643,-2.30437,0.0778878,0.7575,0.704513,
2,1,0,1,0,9252.82,0.71094,0.710648,5.52997,13,0.0777324,10,0.00392986,-2.25728,0.0811426,0.727115,0.708215,
2,1,0,0,0,9253.62,0.714936,0.714685,6.14021,13,0.0824068,10,0.00438831,-2.21182,0.0842719,0.700115,0.711983,
2,1,0,1,0,9254.42,0.718931,0.71863,6.78697,13,0.0875827,10,0.00487732,-2.16832,0.0859368,0.686551,0.715644,
2,1,0,1,0,9255.22,0.722927,0.722709,7.46922,13,0.0932907,10,0.00539807,-2.12672,0.090229,0.653892,0.719422,
2,1,0,1,0,9256.02,0.726921,0.726644,8.18628,13,0.0995572,10,0.00594851,-2.08691,0.095138,0.620152,0.723042,
2,1,0,1,0,9256.82,0.730916,0.730638,8.93579,13,0.106408,10,0.00652883,-2.04887,0.0985725,0.598544,0.726706,
2,1,0,1,0,9257.62,0.734911,0.734664,9.71586,13,0.113872,10,0.00713789,-2.01252,0.101496,0.581303,0.730389,
2,1,0,1,0,9258.42,0.738907,0.738647,10.5282,13,0.121973,10,0.00777658,-1.97765,0.107085,0.550965,0.734014,
2,1,0,0,0,9259.22,0.742902,0.742624,11.3654,13,0.130732,10,0.00844022,-1.94442,0.109489,0.538867,0.737623,
2,1,0,1,0,9260.01,0.746897,0.746624,12.2454,13,0.140179,10,0.00914268,-1.91203,0.114472,0.515411,0.741236,
2,1,0,1,0,9260.81,0.750892,0.750642,13.1613,13,0.15034,10,0.00987945,-1.8807,0.116099,0.508187,0.744851,
2,1,0,1,0,9261.61,0.754887,0.754607,14.1213,13,0.161251,10,0.010656,-1.85013,0.116144,0.507989,0.748394,
2,1,0,1,0,9262.41,0.758883,0.758633,15.1419,13,0.172953,10,0.0114872,-1.81982,0.116881,0.504786,0.751971,
2,1,0,0,0,9263.21,0.762878,0.762579,16.2141,13,0.185492,10,0.0123646,-1.79011,0.119329,0.494433,0.755445,
2,1,0,1,0,9264.01,0.766873,0.766603,17.3872,13,0.198926,10,0.0133291,-1.75977,0.116581,0.506086,0.758953,
2,1,0,1,0,9264.81,0.770868,0.770668,18.6013,13,0.213314,10,0.0143354,-1.73046,0.118903,0.496203,0.762483,
2,1,0,1,0,9265.61,0.774863,0.774593,19.8469,13,0.228681,10,0.0153733,-1.70231,0.11907,0.495506,0.765861,
2,1,0,1,0,9266.41,0.778858,0.778598,21.1857,13,0.245087,10,0.0164951,-1.67396,0.123257,0.478674,0.769276,
2,1,0,0,0,9267.21,0.782854,0.78257,22.4836,13,0.262568,10,0.017595,-1.64813,0.141495,0.416976,0.772677,
2,1,0,1,0,9268,0.786849,0.786557,23.8257,13,0.281069,10,0.0187403,-1.62295,0.130597,0.45177,0.776073,
2,1,0,0,0,9268.8,0.790844,0.790603,25.2995,13,0.300703,10,0.0200019,-1.59689,0.130546,0.451948,0.779471,
2,1,0,1,0,9269.6,0.794839,0.794613,26.7982,13,0.321531,10,0.0212942,-1.57189,0.132637,0.444824,0.782822,
2,1,0,1,0,9270.4,0.798834,0.798568,28.334,13,0.343575,10,0.0226266,-1.54769,0.140486,0.41997,0.786101,
2,1,0,1,0,9271.2,0.802829,0.802579,29.9278,13,0.36686,10,0.0240194,-1.52392,0.137208,0.430004,0.789411,
2,1,0,1,0,9272,0.806825,0.806522,31.5096,13,0.391439,10,0.0254132,-1.50156,0.152259,0.387498,0.792658,
2,1,0,0,0,9272.8,0.81082,0.810588,33.1293,13,0.417274,10,0.0268542,-1.47979,0.157383,0.374882,0.796011,
2,1,0,1,0,9273.6,0.814815,0.814565,34.7253,13,0.444399,10,0.028286,-1.45935,0.163991,0.359776,0.799286,
2,1,0,1,0,9274.4,0.81881,0.818549,36.3385,13,0.472807,10,0.0297448,-1.43963,0.175783,0.335641,0.80256,
2,1,0,1,0,9275.2,0.822805,0.822567,37.9288,13,0.502482,10,0.031199,-1.42103,0.180763,0.326394,0.805878,
2,1,0,1,0,9276,0.826801,0.8266,39.9878,13,0.533468,10,0.0330539,-1.39807,0.127849,0.461481,0.809005,
2,1,0,0,0,9276.79,0.830796,0.830562,41.6785,13,0.566167,10,0.0346165,-1.38009,0.198614,0.297058,0.812223,
2,1,0,1,0,9277.59,0.834791,0.834568,43.1972,13,0.60013,10,0.036051,-1.36454,0.223634,0.263824,0.815561,
2,1,0,1,0,9278.39,0.838786,0.838583,44.7089,13,0.635284,10,0.0374921,-1.34961,0.22691,0.260015,0.818911,
2,1,0,1,0,9279.19,0.842781,0.842554,46.2816,13,0.67164,10,0.0389948,-1.33459,0.211317,0.279202,0.822191,
2,1,0,1,0,9279.99,0.846776,0.846503,47.915,13,0.709293,10,0.0405602,-1.31953,0.237176,0.24876,0.825421,
2,1,0,1,0,9280.69,0.849723,0.849483,48.7943,13,0.743275,10,0.04145,-1.31163,0.0438106,1.34671,0.828014,
2,1,0,0,0,9281.49,0.845728,0.845527,46.4595,13,0.781188,10,0.0392828,-1.33293,0.17615,0.334943,0.825085,
2,1,0,1,0,9282.29,0.841732,0.841459,44.5112,13,0.817521,10,0.0374543,-1.35153,0.172088,0.342848,0.821874,
2,1,0,1,0,9283.09,0.837737,0.837447,42.694,13,0.852347,10,0.035754,-1.36963,0.158402,0.37247,0.818662,
2,1,0,1,0,9283.89,0.833742,0.833516,40.7442,13,0.885642,10,0.0339609,-1.38993,0.164816,0.357976,0.815588,
2,1,0,1,0,9284.69,0.829747,0.829477,39.0069,13,0.917471,10,0.0323553,-1.40886,0.166917,0.353469,0.812314,
2,1,0,0,0,9285.48,0.825752,0.825482,37.2559,13,0.94792,10,0.0307541,-1.42881,0.165847,0.35575,0.80909,
2,1,0,1,0,9286.28,0.821757,0.821504,35.5509,13,0.976996,10,0.0292052,-1.44915,0.143037,0.41248,0.805862,
2,1,0,1,0,9287.08,0.817761,0.817489,33.7641,13,1.00464,10,0.0276018,-1.47155,0.153991,0.38314,0.802633,
2,1,0,1,0,9287.88,0.813766,0.813537,32.0743,13,1.03093,10,0.0260937,-1.49384,0.188077,0.313701,0.799425,
2,1,0,1,0,9288.68,0.809771,0.809488,30.7214,13,1.05611,10,0.0248687,-1.51256,0.128222,0.460139,0.795971,
2,1,0,1,0,9289.48,0.805776,0.805525,28.9769,13,1.07994,10,0.0233416,-1.53795,0.125439,0.470347,0.792775,
2,1,0,1,0,9290.28,0.801781,0.8015,27.267,13,1.10238,10,0.0218545,-1.56436,0.124122,0.475337,0.789503,
2,1,0,0,0,9291.08,0.797786,0.797517,25.6244,13,1.1235,10,0.0204359,-1.59135,0.224095,0.263281,0.786242,
2,1,0,1,0,9291.88,0.79379,0.793523,25.03,13,1.14374,10,0.0198619,-1.60154,0.155486,0.379455,0.78251,
2,1,0,1,0,9292.68,0.789795,0.789529,23.4351,13,1.16309,10,0.0185027,-1.63013,0.112672,0.523643,0.779217,
2,1,0,1,0,9293.47,0.7858,0.785574,21.8958,13,1.18118,10,0.0172008,-1.65964,0.110859,0.532207,0.77594,
2,1,0,1,0,9294.27,0.781805,0.781523,20.4147,13,1.19807,10,0.0159546,-1.69006,0.109731,0.537677,0.772541,
2,1,0,0,0,9295.07,0.77781,0.777568,19.0191,13,1.2138,10,0.0147886,-1.72081,0.107032,0.551237,0.769199,
2,1,0,1,0,9295.87,0.773815,0.773563,17.6555,13,1.22843,10,0.0136576,-1.75312,0.105616,0.55863,0.765794,
2,1,0,1,0,9296.67,0.769819,0.769529,16.3461,13,1.24199,10,0.0125788,-1.78659,0.0993974,0.593577,0.762336,
2,1,0,1,0,9297.47,0.765824,0.765526,15.1078,13,1.25454,10,0.0115654,-1.8208,0.100133,0.589218,0.758878,
2,1,0,1,0,9298.27,0.761829,0.761564,13.9178,13,1.26612,10,0.0105993,-1.85643,0.107198,0.550384,0.75544,
2,1,0,0,0,9299.07,0.757834,0.75764,12.9111,13,1.27684,10,0.00978197,-1.88904,0.0977116,0.603818,0.751959,
2,1,0,1,0,9299.87,0.753839,0.753578,11.8425,13,1.28671,10,0.00892429,-1.92655,0.0945234,0.624184,0.748367,
2,1,0,0,0,9300.67,0.749844,0.749583,10.8446,13,1.29575,10,0.0081289,-1.96479,0.0896486,0.658125,0.744811,
2,1,0,1,0,9301.46,0.745848,0.745605,9.88658,13,1.30402,10,0.00737148,-2.00495,0.0883175,0.668044,0.741255,
2,1,0,1,0,9302.26,0.741853,0.741607,8.98328,13,1.31154,10,0.00666206,-2.04657,0.085982,0.68619,0.737654,
2,1,0,1,0,9303.06,0.737858,0.737597,8.14985,13,1.31837,10,0.00601131,-2.08885,0.0807765,0.730411,0.734011,
2,1,0,1,0,9303.86,0.733863,0.733572,7.34828,13,1.32454,10,0.0053905,-2.13381,0.0848073,0.695695,0.730339,
2,1,0,0,0,9304.66,0.729868,0.72964,6.62988,13,1.3301,10,0.00483743,-2.17849,0.0810872,0.727612,0.726723,
2,1,0,1,0,9305.46,0.725872,0.725633,5.9631,13,1.33512,10,0.00432702,-2.22453,0.0789331,0.747468,0.723009,
2,1,0,1,0,9306.26,0.721877,0.721591,5.33871,13,1.33962,10,0.00385237,-2.27256,0.0755365,0.78108,0.719242,
2,1,0,1,0,9307.06,0.717882,0.717652,4.76237,13,1.34363,10,0.00341773,-2.32218,0.0749532,0.787158,0.715556,
2,1,0,1,0,9307.86,0.713887,0.713659,4.23091,13,1.34721,10,0.00301943,-2.37357,0.0729041,0.809282,0.711798,
2,1,0,0,0,9308.66,0.709892,0.709639,3.74258,13,1.35038,10,0.00265588,-2.42683,0.0688887,0.856454,0.707992,
2,1,0,1,0,9309.46,0.705897,0.705617,3.29418,13,1.35317,10,0.00232443,-2.48225,0.0674793,0.874342,0.704168,
2,1,0,1,0,9310.25,0.701901,0.701603,2.88754,13,1.35563,10,0.00202591,-2.53947,0.0650376,0.907167,0.700333,
2,1,0,1,0,9311.05,0.697906,0.697607,2.51577,13,1.35777,10,0.00175502,-2.59933,0.0635524,0.928367,0.6965,
2,1,0,1,0,9311.85,0.693911,0.69366,2.18449,13,1.35963,10,0.00151529,-2.66065,0.0621997,0.948557,0.692699,
2,1,0,0,0,9312.65,0.689916,0.689687,1.88359,13,1.36124,10,0.00129908,-2.72501,0.0584469,1.00946,0.688858,
2,1,0,1,0,9313.45,0.685921,0.685628,1.6167,13,1.36262,10,0.00110845,-2.79137,0.057266,1.03028,0.684917,
2,1,0,0,0,9314.25,0.681926,0.681725,1.37989,13,1.3638,10,0.000940703,-2.86016,0.0550857,1.07106,0.681118,
2,1,0,1,0,9315.05,0.67793,0.677668,1.16944,13,1.36481,10,0.000792492,-2.93202,0.0543554,1.08545,0.677153,
2,1,0,1,0,9315.85,0.673935,0.673652,0.98627,13,1.36565,10,0.000664403,-3.006,0.0515026,1.14557,0.673218,
2,1,0,1,0,9316.65,0.66994,0.669677,0.827539,13,1.36636,10,0.000554184,-3.08221,0.0501359,1.1768,0.669313,
2,1,0,1,0,9317.45,0.665945,0.665652,0.686793,13,1.36695,10,0.000457165,-3.16317,0.0485531,1.21516,0.66535,
2,1,0,0,0,9318.24,0.66195,0.661633,0.566007,13,1.36744,10,0.000374489,-3.24718,0.0465955,1.26622,0.661384,
2,1,0,1,0,9319.04,0.657955,0.657665,0.463782,13,1.36784,10,0.000305014,-3.33369,0.0440417,1.33964,0.657461,
2,1,0,1,0,9319.84,0.653959,0.653673,0.376761,13,1.36816,10,0.000246278,-3.42393,0.0431319,1.3679,0.653507,
2,1,0,1,0,9320.64,0.649964,0.649734,0.30396,13,1.36842,10,0.000197493,-3.51718,0.0403643,1.46169,0.6496,
2,1,0,1,0,9321.44,0.64597,0.645693,0.240023,13,1.36862,10,0.000154981,-3.61975,0.038611,1.52806,0.645587,
2,1,0,0,0,9322.24,0.641974,0.641737,0.18839,13,1.36878,10,0.000120897,-3.72494,0.0349955,1.68593,0.641654,
2,1,0,1,0,9323.04,0.637979,0.637697,0.143508,13,1.3689,10,9.15148e-05,-3.84312,0.0317644,1.85742,0.637634,
2,1,0,1,0,9323.84,0.633983,0.633712,0.105255,13,1.36898,10,6.67015e-05,-3.97776,0.0291445,2.0244,0.633666,
2,1,0,1,0,9324.64,0.629988,0.629717,0.0752995,13,1.36904,10,4.74174e-05,-4.12321,0.0230067,2.56447,0.629684,
2,1,0,1,0,9325.44,0.625993,0.625768,0.0482736,13,1.36907,10,3.02081e-05,-4.31629,0.0183414,3.21677,0.625746,
2,1,0,0,0,9326.24,0.621998,0.621724,0.0255951,13,1.36909,10,1.59131e-05,-4.59184,0.0143208,4.11989,0.621713,
2,1,0,1,0,9327.03,0.618003,0.617753,0.00946311,13,1.36909,10,5.84586e-06,-5.02397,0.00313129,18.8421,0.617749,
2,1,0,0,0,9327.83,0.614008,0.613741,-0.00702071,13,1.36908,10,-4.3089e-06,-5.15362,-0.00348802,-16.915,0.613744,
2,0,0,1,0,9328.63,0.610012,0.609721,-0.0191276,13,1.36905,10,-1.16625e-05,-4.71834,-0.0156483,-3.77037,0.609729,
2,0,0,1,0,9329.43,0.606017,0.605749,-0.0288704,13,1.36902,10,-1.74882e-05,-4.53955,-0.0276793,-2.13156,0.605762,
2,0,0,1,0,9330.23,0.602022,0.601712,-0.0382493,13,1.36898,10,-2.30151e-05,-4.41738,-0.0480382,-1.22819,0.601729,
2,0,0,1,0,9331.03,0.598027,0.597712,-0.0453107,13,1.36893,10,-2.70828e-05,-4.3438,-0.0513619,-1.14871,0.597732,
2,0,0,0,0,9331.83,0.594032,0.593706,-0.0517962,13,1.36888,10,-3.07517e-05,-4.2857,-0.106495,-0.554015,0.593729,
2,0,0,1,0,9332.63,0.590037,0.589761,-0.05813,13,1.36882,10,-3.42828e-05,-4.2356,-0.105002,-0.561896,0.589787,
2,0,0,1,0,9333.43,0.586041,0.585777,-0.0630647,13,1.36876,10,-3.69419e-05,-4.20021,-0.100382,-0.587755,0.585805,
2,0,0,1,0,9334.23,0.582046,0.581739,-0.0676239,13,1.3687,10,-3.93395e-05,-4.1699,-0.147624,-0.399663,0.581769,
2,0,0,1,0,9335.02,0.578052,0.577763,-0.0705212,13,1.36863,10,-4.07446e-05,-4.15168,-0.217377,-0.271418,0.577794,
2,0,0,0,0,9335.82,0.574056,0.573777,-0.0733285,13,1.36856,10,-4.20742e-05,-4.13473,-0.221435,-0.266443,0.573809,
2,0,0,1,0,9336.62,0.570061,0.56974,-0.0761686,13,1.36848,10,-4.33963e-05,-4.11822,-0.554703,-0.106363,0.569773,
2,0,0,1,0,9337.42,0.566065,0.565723,-0.0782285,13,1.36841,10,-4.42557e-05,-4.10663,-0.156036,-0.378118,0.565758,
2,0,0,1,0,9338.22,0.56207,0.561733,-0.0812755,13,1.36833,10,-4.56552e-05,-4.09004,-0.777554,-0.0758789,0.561769,
2,0,0,1,0,9339.02,0.558075,0.557834,-0.0821613,13,1.36825,10,-4.58323e-05,-4.08533,-0.451294,-0.130735,0.55787,
2,0,0,1,0,9339.82,0.55408,0.553803,-0.0849062,13,1.36817,10,-4.70213e-05,-4.07106,-0.223687,-0.263761,0.553841,
2,0,0,1,0,9340.62,0.550085,0.549794,-0.0856619,13,1.36809,10,-4.70965e-05,-4.06721,-12.7466,-0.00462869,0.549832,
2,0,0,0,0,9341.42,0.54609,0.545783,-0.0875377,13,1.36801,10,-4.77766e-05,-4.05781,-0.380047,-0.155244,0.545821,
2,0,0,1,0,9342.22,0.542094,0.541773,-0.0886958,13,1.36792,10,-4.8053e-05,-4.0521,-3.2079,-0.0183921,0.541812,
2,0,0,1,0,9343.01,0.538099,0.537799,-0.091135,13,1.36784,10,-4.90123e-05,-4.04031,-1.32037,-0.0446846,0.537839,
2,0,0,1,0,9343.81,0.534104,0.53381,-0.0912561,13,1.36775,10,-4.87134e-05,-4.03974,-0.685426,-0.0860778,0.53385,
2,0,0,1,0,9344.61,0.530109,0.52982,-0.0934047,13,1.36766,10,-4.94877e-05,-4.02963,-0.951918,-0.0619801,0.529861,
2,0,0,0,0,9345.41,0.526114,0.525785,-0.0934754,13,1.36757,10,-4.91479e-05,-4.0293,-0.302963,-0.194744,0.525826,
2,0,0,1,0,9346.21,0.522119,0.521803,-0.0954601,13,1.36748,10,-4.98113e-05,-4.02018,-3.8608,-0.0152818,0.521845,
2,0,0,1,0,9347.01,0.518123,0.517804,-0.0959969,13,1.36739,10,-4.97076e-05,-4.01774,-0.924514,-0.0638173,0.517846,
2,0,0,1,0,9347.81,0.514128,0.513911,-0.0979181,13,1.3673,10,-5.03212e-05,-4.00914,-0.608121,-0.0970202,0.513954,
2,0,0,1,0,9348.61,0.510133,0.509815,-0.0983575,13,1.36721,10,-5.01442e-05,-4.00719,-0.318153,-0.185445,0.509858,
2,0,0,0,0,9349.41,0.506138,0.505855,-0.0997518,13,1.36712,10,-5.046e-05,-4.00108,1.03707,0.0568909,0.505899,
2,0,0,1,0,9350.21,0.502143,0.501882,-0.100451,13,1.36702,10,-5.04146e-05,-3.99805,-0.529318,-0.111464,0.501926,
2,0,0,0,0,9351.01,0.498148,0.497892,-0.102314,13,1.36693,10,-5.09411e-05,-3.99007,-0.851388,-0.0692986,0.497937,
2,0,0,1,0,9351.8,0.494152,0.493867,-0.103591,13,1.36683,10,-5.11602e-05,-3.98468,-1.68328,-0.0350506,0.493913,
2,0,0,1,0,9352.6,0.490157,0.489852,-0.104015,13,1.36673,10,-5.09522e-05,-3.9829,-0.377072,-0.156469,0.489898,
2,0,0,1,0,9353.4,0.486162,0.485808,-0.106269,13,1.36664,10,-5.16261e-05,-3.9736,-0.751938,-0.0784639,0.485855,
2,0,0,1,0,9354.2,0.482167,0.481894,-0.107277,13,1.36654,10,-5.1696e-05,-3.96949,-2.17878,-0.0270794,0.481941,
2,0,0,0,0,9355,0.478172,0.477902,-0.108893,13,1.36644,10,-5.20403e-05,-3.963,-0.367176,-0.160686,0.47795,
2,0,0,1,0,9355.8,0.474177,0.473876,-0.110405,13,1.36634,10,-5.23182e-05,-3.95701,2.72238,0.0216722,0.473924,
2,0,0,1,0,9356.6,0.470181,0.469928,-0.111243,13,1.36623,10,-5.22761e-05,-3.95373,-0.535124,-0.110255,0.469977,
2,0,0,1,0,9357.4,0.466186,0.465863,-0.113387,13,1.36613,10,-5.28226e-05,-3.94544,-0.453711,-0.130039,0.465913,
2,0,0,1,0,9358.2,0.462191,0.461869,-0.114122,13,1.36603,10,-5.27092e-05,-3.94263,-0.995723,-0.0592534,0.46192,
2,0,0,0,0,9359,0.458196,0.457923,-0.115898,13,1.36592,10,-5.30726e-05,-3.93592,-0.958938,-0.0615264,0.457974,
2,0,0,1,0,9359.79,0.454201,0.453922,-0.116869,13,1.36581,10,-5.30493e-05,-3.9323,-0.540979,-0.109062,0.453974,
2,0,0,1,0,9360.59,0.450205,0.449916,-0.118636,13,1.3657,10,-5.33761e-05,-3.92578,-1.28572,-0.0458888,0.449969,
2,0,0,1,0,9361.39,0.44621,0.445955,-0.120966,13,1.36559,10,-5.39456e-05,-3.91734,-0.453545,-0.130086,0.446008,
2,0,0,1,0,9362.19,0.442215,0.441894,-0.122811,13,1.36548,10,-5.42693e-05,-3.91076,-6.35722,-0.00928079,0.441948,
2,0,0,0,0,9362.99,0.43822,0.437942,-0.124573,13,1.36537,10,-5.45558e-05,-3.90458,-0.352893,-0.167189,0.437997,
2,0,0,1,0,9363.79,0.434225,0.433921,-0.125692,13,1.36526,10,-5.45404e-05,-3.90069,-0.590751,-0.0998729,0.433976,
2,0,0,0,0,9364.59,0.43023,0.429974,-0.127599,13,1.36514,10,-5.48642e-05,-3.89415,-0.719144,-0.0820419,0.43003,
2,0,0,1,0,9365.39,0.426234,0.425982,-0.129347,13,1.36502,10,-5.50996e-05,-3.88824,-0.434918,-0.135658,0.426039,
2,0,0,1,0,9366.19,0.422239,0.421956,-0.131125,13,1.36491,10,-5.53289e-05,-3.88232,-1.00872,-0.05849,0.422014,
2,0,0,1,0,9366.99,0.418244,0.417941,-0.133268,13,1.36479,10,-5.5698e-05,-3.87527,-0.631506,-0.0934275,0.417999,
2,0,0,1,0,9367.78,0.414249,0.413963,-0.134285,13,1.36466,10,-5.55888e-05,-3.87197,-0.721505,-0.0817735,0.414022,
2,0,0,0,0,9368.58,0.410254,0.409922,-0.13672,13,1.36454,10,-5.60444e-05,-3.86417,-8.18141,-0.00721147,0.409982,
2,0,0,1,0,9369.38,0.406259,0.405961,-0.139149,13,1.36442,10,-5.6489e-05,-3.85652,-0.307091,-0.192125,0.406022,
2,0,0,1,0,9370.18,0.402263,0.402,-0.141007,13,1.36429,10,-5.66849e-05,-3.85076,-0.869349,-0.0678669,0.402062,
2,0,0,1,0,9370.98,0.398268,0.397985,-0.143217,13,1.36416,10,-5.69984e-05,-3.844,-0.505275,-0.116768,0.398048,
2,0,0,1,0,9371.78,0.394274,0.393999,-0.145548,13,1.36403,10,-5.73457e-05,-3.83699,-0.574682,-0.102666,0.394063,
2,0,0,0,0,9372.58,0.390278,0.389975,-0.148015,13,1.3639,10,-5.77223e-05,-3.82969,-0.637136,-0.0926019,0.39004,
2,0,0,1,0,9373.38,0.386283,0.385987,-0.151111,13,1.36377,10,-5.83271e-05,-3.8207,-0.78685,-0.0749825,0.386054,
2,0,0,1,0,9374.18,0.382287,0.38199,-0.152359,13,1.36363,10,-5.81997e-05,-3.81713,-0.509389,-0.115825,0.382057,
2,0,0,1,0,9374.98,0.378292,0.378016,-0.154583,13,1.36349,10,-5.8435e-05,-3.81084,23.6786,0.00249171,0.378084,
2,0,0,1,0,9375.78,0.374297,0.374003,-0.156153,13,1.36335,10,-5.84018e-05,-3.80645,-0.372793,-0.158265,0.374071,
2,0,0,1,0,9376.57,0.370303,0.370036,-0.159075,13,1.36321,10,-5.88636e-05,-3.7984,-0.615852,-0.0958022,0.370106,
2,0,0,1,0,9377.37,0.366307,0.366026,-0.160611,13,1.36307,10,-5.87877e-05,-3.79423,-0.712147,-0.0828481,0.366097,
2,0,0,0,0,9378.17,0.362312,0.361981,-0.162221,13,1.36293,10,-5.8721e-05,-3.78989,-0.565548,-0.104324,0.362052,
2,0,0,1,0,9378.97,0.358316,0.358003,-0.166149,13,1.36278,10,-5.94817e-05,-3.7795,-0.825762,-0.0714491,0.358076,
2,0,0,1,0,9379.77,0.354321,0.354002,-0.167551,13,1.36263,10,-5.93133e-05,-3.77585,-0.755591,-0.0780846,0.354076,
2,0,0,1,0,9380.57,0.350327,0.350013,-0.168778,13,1.36248,10,-5.90744e-05,-3.77269,-0.632428,-0.0932913,0.350087,
2,0,0,1,0,9381.37,0.346331,0.346038,-0.171966,13,1.36233,10,-5.9507e-05,-3.76456,-1.45941,-0.0404274,0.346114,
2,0,0,0,0,9382.17,0.342336,0.342008,-0.174165,13,1.36218,10,-5.95657e-05,-3.75904,-0.463733,-0.127228,0.342084,
2,0,0,1,0,9382.97,0.338341,0.33804,-0.176291,13,1.36202,10,-5.95934e-05,-3.75377,-0.55196,-0.106892,0.338117,
2,0,0,1,0,9383.77,0.334345,0.334044,-0.179626,13,1.36186,10,-6.00029e-05,-3.74563,-0.83372,-0.0707672,0.334123,
2,0,0,1,0,9384.56,0.33035,0.330041,-0.182036,13,1.3617,10,-6.00795e-05,-3.73984,-0.59563,-0.0990548,0.330121,
2,0,0,1,0,9385.36,0.326355,0.32605,-0.184794,13,1.36154,10,-6.0252e-05,-3.73331,-0.645762,-0.091365,0.326131,
2,0,0,0,0,9386.16,0.32236,0.322047,-0.187514,13,1.36138,10,-6.03883e-05,-3.72697,-0.645138,-0.0914533,0.322129,
2,0,0,1,0,9386.96,0.318365,0.318038,-0.188575,13,1.36121,10,-5.99742e-05,-3.72451,-0.605682,-0.0974109,0.318121,
2,0,0,0,0,9387.76,0.31437,0.314085,-0.193176,13,1.36104,10,-6.06737e-05,-3.71405,-9.83241,-0.00600056,0.31417,
2,0,0,1,0,9388.56,0.310374,0.310068,-0.194879,13,1.36087,10,-6.04257e-05,-3.71024,-0.384245,-0.153548,0.310154,
2,0,0,1,0,9389.36,0.306379,0.306082,-0.196994,13,1.3607,10,-6.02964e-05,-3.70555,-1.83191,-0.0322069,0.306169,
2,0,0,1,0,9390.16,0.302385,0.302095,-0.199516,13,1.36053,10,-6.0273e-05,-3.70002,-0.523198,-0.112768,0.302183,
2,0,0,1,0,9390.96,0.298389,0.298116,-0.201686,13,1.36035,10,-6.01258e-05,-3.69532,-0.475966,-0.123959,0.298204,
2,0,0,0,0,9391.76,0.294394,0.294066,-0.204445,13,1.36017,10,-6.01204e-05,-3.68942,-3.39336,-0.0173869,0.294156,
2,0,0,1,0,9392.55,0.290398,0.290077,-0.207281,13,1.35999,10,-6.01274e-05,-3.68344,-0.461816,-0.127756,0.290168,
2,0,0,1,0,9393.35,0.286403,0.286083,-0.209477,13,1.35981,10,-5.99277e-05,-3.67886,-0.885459,-0.0666321,0.286175,
2,0,0,1,0,9394.15,0.282408,0.282096,-0.212853,13,1.35962,10,-6.0045e-05,-3.67192,-1.23606,-0.0477322,0.28219,
2,0,0,1,0,9394.95,0.278414,0.278123,-0.215594,13,1.35943,10,-5.99616e-05,-3.66636,-0.608336,-0.0969858,0.278218,
2,0,0,0,0,9395.75,0.274418,0.274105,-0.217194,13,1.35924,10,-5.95339e-05,-3.66315,-0.835955,-0.0705779,0.2742,
2,0,0,1,0,9396.55,0.270423,0.270126,-0.220937,13,1.35905,10,-5.96807e-05,-3.65573,-0.449573,-0.131236,0.270223,
2,0,0,1,0,9397.35,0.266427,0.266129,-0.224163,13,1.35886,10,-5.96563e-05,-3.64944,-0.909053,-0.0649027,0.266228,
2,0,0,1,0,9398.15,0.262432,0.26211,-0.226462,13,1.35866,10,-5.93579e-05,-3.64501,-0.951006,-0.0620395,0.26221,
2,0,0,1,0,9398.95,0.258437,0.258146,-0.229151,13,1.35847,10,-5.91542e-05,-3.63988,-0.73065,-0.08075,0.258247,
2,0,0,0,0,9399.75,0.254442,0.254115,-0.231285,13,1.35827,10,-5.8773e-05,-3.63585,-0.792141,-0.0744816,0.254217,
2,0,0,1,0,9400.55,0.250447,0.25018,-0.234647,13,1.35806,10,-5.87038e-05,-3.62959,-3.38506,-0.0174296,0.250283,
2,0,0,0,0,9401.34,0.246452,0.246182,-0.236403,13,1.35786,10,-5.81982e-05,-3.62635,-0.525251,-0.112327,0.246286,
2,0,0,1,0,9402.14,0.242456,0.242153,-0.239037,13,1.35765,10,-5.78835e-05,-3.62154,-1.07402,-0.0549337,0.242259,
2,0,0,1,0,9402.94,0.238461,0.238152,-0.242528,13,1.35744,10,-5.77584e-05,-3.61524,-0.55262,-0.106764,0.238258,
2,0,0,1,0,9403.74,0.234467,0.234133,-0.244538,13,1.35723,10,-5.72544e-05,-3.61165,-1.28643,-0.0458633,0.23424,
2,0,0,1,0,9404.54,0.230471,0.230153,-0.24716,13,1.35702,10,-5.68845e-05,-3.60702,-0.703679,-0.083845,0.230262,
2,0,0,0,0,9405.34,0.226476,0.226197,-0.248585,13,1.35681,10,-5.6229e-05,-3.60453,-1.02218,-0.05772,0.226306,
2,0,0,1,0,9406.14,0.222481,0.222174,-0.253374,13,1.35659,10,-5.62933e-05,-3.59624,-1.2495,-0.047219,0.222286,
2,0,0,1,0,9406.94,0.218485,0.218188,-0.255875,13,1.35637,10,-5.5829e-05,-3.59197,-1.19715,-0.0492835,0.218301,
2,0,0,1,0,9407.74,0.21449,0.214151,-0.259974,13,1.35615,10,-5.56738e-05,-3.58507,-0.372892,-0.158223,0.214266,
2,0,0,1,0,9408.54,0.210496,0.210168,-0.262842,13,1.35592,10,-5.5241e-05,-3.5803,-0.928988,-0.06351,0.210284,
2,0,0,0,0,9409.33,0.2065,0.206209,-0.267756,13,1.3557,10,-5.52136e-05,-3.57226,-0.664129,-0.0888381,0.206327,
2,0,0,1,0,9410.13,0.202505,0.202207,-0.269016,13,1.35547,10,-5.43969e-05,-3.57022,-0.694217,-0.0849878,0.202325,
2,0,0,1,0,9410.93,0.198509,0.198229,-0.273565,13,1.35523,10,-5.42286e-05,-3.56294,-0.663055,-0.0889821,0.198349,
2,0,0,1,0,9411.73,0.194514,0.194215,-0.278261,13,1.355,10,-5.40423e-05,-3.55555,-0.426831,-0.138228,0.194337,
2,0,0,1,0,9412.53,0.190519,0.190223,-0.282309,13,1.35476,10,-5.37015e-05,-3.54928,-0.465435,-0.126763,0.190347,
2,0,0,0,0,9413.33,0.186524,0.186186,-0.28877,13,1.35451,10,-5.3765e-05,-3.53945,-0.951473,-0.0620091,0.186313,
2,0,0,1,0,9414.13,0.182529,0.18225,-0.293914,13,1.35426,10,-5.35658e-05,-3.53178,-0.318359,-0.185326,0.182379,
2,0,0,0,0,9414.93,0.178534,0.1782,-0.30239,13,1.35401,10,-5.3886e-05,-3.51943,-0.287107,-0.205498,0.178334,
2,0,0,1,0,9415.73,0.174538,0.174239,-0.312852,13,1.35375,10,-5.45111e-05,-3.50466,-0.376097,-0.156875,0.174377,
2,0,0,1,0,9416.53,0.170543,0.170297,-0.323441,13,1.35348,10,-5.50811e-05,-3.49021,-0.195284,-0.302125,0.17044,
2,0,0,1,0,9417.32,0.166549,0.166198,-0.336393,13,1.3532,10,-5.59078e-05,-3.47315,-0.207368,-0.284519,0.166346,
2,0,0,1,0,9418.12,0.162553,0.16225,-0.353892,13,1.3529,10,-5.7419e-05,-3.45113,-0.167138,-0.353002,0.162406,
2,0,0,0,0,9418.92,0.158558,0.158262,-0.374783,13,1.3526,10,-5.93137e-05,-3.42622,-0.146885,-0.401674,0.158427,
2,0,0,1,0,9419.72,0.154563,0.154242,-0.405911,13,1.35227,10,-6.26084e-05,-3.39157,-0.11875,-0.496841,0.15442,
2,0,0,1,0,9420.52,0.150567,0.150261,-0.442571,13,1.35191,10,-6.6501e-05,-3.35402,-0.0899534,-0.655895,0.150455,
2,0,0,1,0,9421.32,0.146572,0.146252,-0.492981,13,1.35152,10,-7.20992e-05,-3.30717,-0.0827922,-0.712628,0.146469,
2,0,0,1,0,9422.12,0.142578,0.142257,-0.554962,13,1.35109,10,-7.89474e-05,-3.25574,-0.0734849,-0.802887,0.142501,
2,0,0,0,0,9422.92,0.138582,0.138256,-0.620799,13,1.3506,10,-8.58292e-05,-3.20705,-0.0855071,-0.690001,0.138529,
2,0,0,1,0,9423.72,0.134587,0.134255,-0.685031,13,1.35007,10,-9.19689e-05,-3.16429,-0.110361,-0.534609,0.134557,
2,0,0,1,0,9424.52,0.130591,0.13027,-0.736793,13,1.34948,10,-9.59817e-05,-3.13265,-0.152764,-0.386217,0.130594,
2,0,0,1,0,9425.32,0.126596,0.126278,-0.768416,13,1.34886,10,-9.70338e-05,-3.1144,-0.292117,-0.201974,0.126616,
2,0,0,1,0,9426.11,0.122602,0.122271,-0.785315,13,1.34822,10,-9.60211e-05,-3.10496,-1.27506,-0.0462723,0.122616,
2,0,0,1,0,9426.91,0.118607,0.118284,-0.785865,13,1.34757,10,-9.2955e-05,-3.10465,-22.6861,-0.00260072,0.118629,
2,0,0,1,0,9427.71,0.114611,0.114269,-0.780344,13,1.34693,10,-8.91688e-05,-3.10771,0.806132,0.073189,0.114612,
2,0,0,0,0,9428.51,0.110616,0.110306,-0.769446,13,1.34629,10,-8.48744e-05,-3.11382,0.484952,0.121662,0.110644,
2,0,0,1,0,9429.31,0.10662,0.106279,-0.753739,13,1.34567,10,-8.01066e-05,-3.12278,0.47807,0.123413,0.106611,
2,0,0,1,0,9430.11,0.102625,0.102287,-0.738331,13,1.34505,10,-7.55218e-05,-3.13175,0.38476,0.153342,0.102612,
2,0,0,1,0,9430.91,0.0986305,0.0983076,-0.722749,13,1.34445,10,-7.10517e-05,-3.14101,0.474268,0.124402,0.0986256,
2,0,0,1,0,9431.71,0.0946351,0.0943266,-0.701669,13,1.34387,10,-6.6186e-05,-3.15387,0.389856,0.151338,0.0946353,
2,0,0,0,0,9432.51,0.0906399,0.0903066,-0.691347,13,1.34329,10,-6.24332e-05,-3.1603,0.379347,0.15553,0.0906108,
2,0,0,1,0,9433.31,0.0866448,0.0862993,-0.675747,13,1.34273,10,-5.83165e-05,-3.17022,0.536265,0.11002,0.0865966,
2,0,0,1,0,9434.1,0.0826492,0.0823532,-0.662653,13,1.34218,10,-5.45716e-05,-3.17871,0.416343,0.14171,0.0826448,
2,0,0,1,0,9434.9,0.0786544,0.0783484,-0.650987,13,1.34164,10,-5.10038e-05,-3.18643,0.637972,0.0924806,0.0786349,
2,0,0,1,0,9435.7,0.0746596,0.074352,-0.642265,13,1.3411,10,-4.77537e-05,-3.19229,0.631303,0.0934575,0.0746346,
2,0,0,0,0,9436.5,0.0706641,0.0703349,-0.631547,13,1.34058,10,-4.44198e-05,-3.19959,0.547073,0.107847,0.0706127,
2,0,0,1,0,9437.3,0.0666689,0.0663456,-0.624327,13,1.34006,10,-4.14213e-05,-3.20459,0.599713,0.0983805,0.0666203,
2,0,0,0,0,9438.1,0.0626737,0.0623903,-0.613211,13,1.33955,10,-3.82584e-05,-3.21239,0.696232,0.0847419,0.0626601,
2,0,0,1,0,9438.9,0.0586783,0.0583404,-0.604138,13,1.33904,10,-3.52456e-05,-3.21886,0.453624,0.130064,0.0586062,
2,0,0,1,0,9439.7,0.0546835,0.054396,-0.592684,13,1.33855,10,-3.22396e-05,-3.22718,0.744693,0.0792273,0.0546568,
2,0,0,1,0,9440.5,0.0506886,0.0503582,-0.582133,13,1.33806,10,-2.93152e-05,-3.23498,0.422587,0.139616,0.0506144,
2,0,0,1,0,9441.3,0.046693,0.0463676,-0.57191,13,1.33758,10,-2.65181e-05,-3.24267,0.485406,0.121548,0.0466192,
2,0,0,0,0,9442.1,0.0426979,0.04239,-0.560274,13,1.33712,10,-2.375e-05,-3.2516,0.45705,0.129089,0.0426365,
2,0,0,1,0,9442.89,0.0387022,0.038391,-0.548549,13,1.33666,10,-2.10594e-05,-3.26078,0.474042,0.124462,0.0386324,
2,0,0,1,0,9443.69,0.0347074,0.0344221,-0.538519,13,1.3362,10,-1.85369e-05,-3.2688,0.479612,0.123016,0.034659,
2,0,0,1,0,9444.49,0.0307126,0.0303492,-0.526096,13,1.33576,10,-1.59666e-05,-3.27893,0.503256,0.117237,0.0305807,
2,0,0,1,0,9445.29,0.0267172,0.0264075,-0.517651,13,1.33533,10,-1.36699e-05,-3.28596,0.413324,0.142745,0.0266353,
2,0,0,0,0,9446.09,0.022722,0.0224034,-0.509027,13,1.3349,10,-1.14039e-05,-3.29326,0.850484,0.0693722,0.0226274,
2,0,0,1,0,9446.89,0.0187268,0.0184131,-0.501592,13,1.33448,10,-9.23587e-06,-3.29965,0.568295,0.103819,0.0186338,
2,0,0,1,0,9447.69,0.0147313,0.0144404,-0.497297,13,1.33407,10,-7.18119e-06,-3.30338,1.81394,0.0325259,0.0146592,
2,0,0,1,0,9448.49,0.0107365,0.0104547,-0.492149,13,1.33366,10,-5.14529e-06,-3.3079,0.873361,0.0675551,0.0106713,
2,0,0,1,0,9449.29,0.00674163,0.0064318,-0.489369,13,1.33325,10,-3.14753e-06,-3.31036,8.7746,0.00672396,0.00664712,
2,0,0,0,0,9450.09,0.00274612,0.00246673,-0.489608,13,1.33284,10,-1.20773e-06,-3.31015,-1.9214,-0.0307068,0.00268215,
2,0,0,1,0,9450.58,0.000274105,-0.000135643,-0.491557,13,1.33258,10,6.66765e-08,-3.30843, , ,8.0642e-05,