File: Figure_codes/Fig_3-5/workspace_calculate_alpha_eff/20221101_1-115_003_TrumpetPlot_ParaChange_from10_every3_16_CV_C01_83.csv
mode,ox/red,error,control changes,counter inc.,time/s,control/V,Ewe/V,<I>/mA,cycle number,(Q-Qo)/C,I Range,P/W,log(|I|),Tafel slope mV/dec,alpha_eff,E-IR/V,
2,0,0,0,0,55163.6,2.44065e-05,-0.000306236,-0.0885815,84,0.0000000E+000,10,2.71269e-08,-4.05266, , ,-0.00026726,
2,1,0,0,0,55164.4,0.00379485,0.00346245,0.138645,84,8.29502e-05,10,4.80052e-07,-3.85809,0.0291262,2.02567,0.00340144,
2,1,0,1,0,55165.2,0.00779002,0.00746018,0.162033,84,0.000214974,10,1.20879e-06,-3.7904,0.0716253,0.823732,0.00738889,
2,1,0,0,0,55166,0.0117852,0.0114409,0.179219,84,0.000362814,10,2.05043e-06,-3.74662,0.112665,0.523676,0.0113621,
2,1,0,1,0,55166.8,0.0157806,0.0154274,0.194469,84,0.00052252,10,3.00016e-06,-3.71115,0.128299,0.459865,0.0153419,
2,1,0,1,0,55167.6,0.0197754,0.019394,0.20699,84,0.000692752,10,4.01436e-06,-3.68405,0.137544,0.428955,0.0193029,
2,1,0,1,0,55168.4,0.0237704,0.0234412,0.220209,84,0.000873786,10,5.16195e-06,-3.65717,0.177353,0.332669,0.0233443,
2,1,0,1,0,55169.2,0.0277659,0.0274202,0.233072,84,0.00106468,10,6.3909e-06,-3.63251,0.162197,0.363755,0.0273177,
2,1,0,0,0,55170,0.0317611,0.0314116,0.245309,84,0.00126627,10,7.70553e-06,-3.61029,0.168345,0.35047,0.0313036,
2,1,0,1,0,55170.8,0.0357567,0.0354184,0.260763,84,0.00147909,10,9.23582e-06,-3.58375,0.192393,0.306663,0.0353037,
2,1,0,1,0,55171.6,0.0397516,0.0393883,0.273779,84,0.00170291,10,1.07837e-05,-3.5626,0.156937,0.375948,0.0392678,
2,1,0,1,0,55172.4,0.0437465,0.0434279,0.2862,84,0.00193815,10,1.24291e-05,-3.54333,0.198325,0.297491,0.043302,
2,1,0,1,0,55173.2,0.0477413,0.0474443,0.300373,84,0.00218321,10,1.4251e-05,-3.52234,0.232168,0.254127,0.0473122,
2,1,0,0,0,55174,0.0517369,0.0513939,0.312905,84,0.00243839,10,1.60814e-05,-3.50459,0.211914,0.278415,0.0512562,
2,1,0,1,0,55174.8,0.0557321,0.0553683,0.324595,84,0.00270356,10,1.79723e-05,-3.48866,0.324957,0.181563,0.0552255,
2,1,0,1,0,55175.6,0.0597277,0.0593845,0.335218,84,0.00297707,10,1.99068e-05,-3.47467,0.253225,0.232994,0.059237,
2,1,0,1,0,55176.4,0.0637226,0.0633892,0.344396,84,0.00325934,10,2.1831e-05,-3.46294,0.373632,0.157909,0.0632376,
2,1,0,1,0,55177.2,0.0677174,0.0673306,0.355681,84,0.00354996,10,2.39482e-05,-3.44894,0.325318,0.181361,0.0671741,
2,1,0,0,0,55178,0.0717128,0.0713963,0.36359,84,0.00384815,10,2.5959e-05,-3.43939,0.35871,0.164478,0.0712363,
2,1,0,1,0,55178.8,0.075708,0.0753538,0.371666,84,0.00415307,10,2.80064e-05,-3.42985,0.518506,0.113789,0.0751902,
2,1,0,0,0,55179.6,0.0797031,0.0793759,0.379974,84,0.00446421,10,3.01607e-05,-3.42025,0.366782,0.160858,0.0792087,
2,1,0,1,0,55180.4,0.0836986,0.0833336,0.387899,84,0.00478204,10,3.2325e-05,-3.41128,0.40251,0.14658,0.0831629,
2,1,0,1,0,55181.2,0.0876935,0.0873532,0.399044,84,0.00510729,10,3.48578e-05,-3.39898,0.333792,0.176757,0.0871777,
2,1,0,1,0,55182,0.0916883,0.0913529,0.412547,84,0.00544166,10,3.76874e-05,-3.38453,0.236706,0.249254,0.0911714,
2,1,0,1,0,55182.8,0.0956838,0.0953043,0.427919,84,0.00578797,10,4.07825e-05,-3.36864,0.250703,0.235338,0.095116,
2,1,0,0,0,55183.6,0.099679,0.0993253,0.447097,84,0.00614793,10,4.44081e-05,-3.3496,0.216872,0.27205,0.0991286,
2,1,0,1,0,55184.4,0.103674,0.103293,0.466882,84,0.00652351,10,4.82258e-05,-3.33079,0.1808,0.326328,0.103088,
2,1,0,1,0,55185.2,0.10767,0.107317,0.487925,84,0.00691662,10,5.23626e-05,-3.31165,0.239289,0.246564,0.107102,
2,1,0,1,0,55186,0.111664,0.111331,0.507033,84,0.0073255,10,5.64485e-05,-3.29496,0.250101,0.235905,0.111108,
2,1,0,1,0,55186.8,0.115659,0.115296,0.52283,84,0.00774829,10,6.02801e-05,-3.28164,0.3144,0.187659,0.115066,
2,1,0,0,0,55187.6,0.119655,0.119307,0.535436,84,0.0081827,10,6.38811e-05,-3.27129,0.619979,0.0951646,0.119071,
2,1,0,1,0,55188.4,0.12365,0.123318,0.544099,84,0.00862439,10,6.70973e-05,-3.26432,0.6162,0.0957481,0.123079,
2,1,0,1,0,55189.2,0.127646,0.127244,0.548997,84,0.00907267,10,6.98565e-05,-3.26043,1.23359,0.0478279,0.127002,
2,1,0,1,0,55190,0.131641,0.131301,0.550201,84,0.00952413,10,7.22419e-05,-3.25948,-0.774147,-0.076213,0.131059,
2,1,0,1,0,55190.8,0.135635,0.135277,0.539733,84,0.0099713,10,7.30134e-05,-3.26782,-0.29182,-0.20218,0.135039,
2,1,0,0,0,55191.6,0.139631,0.139299,0.509546,84,0.0104029,10,7.09795e-05,-3.29282,-0.119644,-0.493128,0.139075,
2,1,0,1,0,55192.4,0.143626,0.143308,0.464891,84,0.0108039,10,6.66226e-05,-3.33265,-0.0852013,-0.692478,0.143103,
2,1,0,0,0,55193.2,0.147621,0.147232,0.410383,84,0.0111639,10,6.04216e-05,-3.38681,-0.0697756,-0.845568,0.147052,
2,1,0,1,0,55194,0.151617,0.151293,0.362255,84,0.011482,10,5.48066e-05,-3.44099,-0.079556,-0.741616,0.151134,
2,1,0,1,0,55194.8,0.155612,0.155277,0.327712,84,0.0117662,10,5.0886e-05,-3.48451,-0.113958,-0.517733,0.155132,
2,1,0,1,0,55195.6,0.159606,0.15927,0.305059,84,0.0120284,10,4.85868e-05,-3.51562,-0.149752,-0.393985,0.159136,
2,1,0,1,0,55196.4,0.163602,0.16326,0.29009,84,0.0122761,10,4.73602e-05,-3.53747,-0.192465,-0.30655,0.163133,
2,1,0,0,0,55197.2,0.167597,0.167243,0.280183,84,0.012514,10,4.68587e-05,-3.55256,-0.413752,-0.142598,0.16712,
2,1,0,1,0,55198,0.171592,0.171261,0.272095,84,0.0127452,10,4.65993e-05,-3.56528,-0.353189,-0.167049,0.171141,
2,1,0,1,0,55198.8,0.175588,0.175233,0.267636,84,0.0129712,10,4.68985e-05,-3.57246,-0.526435,-0.112075,0.175115,
2,1,0,1,0,55199.6,0.179582,0.179221,0.263259,84,0.0131934,10,4.71814e-05,-3.57962,-1.42277,-0.0414685,0.179105,
2,1,0,1,0,55200.4,0.183577,0.18324,0.259815,84,0.0134129,10,4.76086e-05,-3.58534,-0.597836,-0.0986893,0.183126,
2,1,0,0,0,55201.2,0.187573,0.187264,0.258246,84,0.0136299,10,4.83601e-05,-3.58797,-0.908615,-0.064934,0.18715,
2,1,0,1,0,55201.9,0.191568,0.191223,0.255487,84,0.0138451,10,4.8855e-05,-3.59263,-1.48429,-0.0397496,0.191111,
2,1,0,0,0,55202.7,0.195563,0.195215,0.253539,84,0.0140586,10,4.94946e-05,-3.59595,-0.773272,-0.0762992,0.195103,
2,1,0,1,0,55203.5,0.199559,0.199239,0.252066,84,0.0142705,10,5.02214e-05,-3.59849,-2.04808,-0.0288074,0.199128,
2,1,0,1,0,55204.3,0.203553,0.203223,0.249068,84,0.0144812,10,5.06162e-05,-3.60368,-2.44783,-0.024103,0.203113,
2,1,0,1,0,55205.1,0.207548,0.207219,0.248957,84,0.0146908,10,5.15886e-05,-3.60388,-1.38204,-0.0426904,0.20711,
2,1,0,1,0,55205.9,0.211544,0.211212,0.24775,84,0.0148991,10,5.23277e-05,-3.60599,-2.32952,-0.0253271,0.211103,
2,1,0,0,0,55206.7,0.215539,0.21522,0.246984,84,0.0151065,10,5.3156e-05,-3.60733,-3.03735,-0.0194248,0.215112,
2,1,0,1,0,55207.5,0.219535,0.219219,0.246879,84,0.015313,10,5.41204e-05,-3.60752,-32.8107,-0.0017982,0.21911,
2,1,0,1,0,55208.3,0.223529,0.223178,0.24434,84,0.0155187,10,5.45312e-05,-3.61201,-1.16314,-0.0507249,0.22307,
2,1,0,1,0,55209.1,0.227524,0.227196,0.24419,84,0.0157238,10,5.54791e-05,-3.61227,-1.28197,-0.0460229,0.227089,
2,1,0,1,0,55209.9,0.23152,0.231167,0.243169,84,0.0159281,10,5.62127e-05,-3.61409,11.5457,0.00511011,0.23106,
2,1,0,0,0,55210.7,0.235515,0.235157,0.241281,84,0.0161319,10,5.67388e-05,-3.61748,-2.77314,-0.0212755,0.235051,
2,1,0,1,0,55211.5,0.23951,0.239182,0.24149,84,0.0163349,10,5.776e-05,-3.6171,8.75167,0.00674157,0.239076,
2,1,0,1,0,55212.3,0.243506,0.243152,0.241341,84,0.0165374,10,5.86824e-05,-3.61737,-2.89464,-0.0203825,0.243046,
2,1,0,1,0,55213.1,0.2475,0.247175,0.240262,84,0.0167393,10,5.93867e-05,-3.61931,-1.55983,-0.0378247,0.247069,
2,1,0,1,0,55213.9,0.251495,0.25117,0.240415,84,0.0169405,10,6.03849e-05,-3.61904,-6.89075,-0.0085622,0.251064,
2,1,0,0,0,55214.7,0.255491,0.255168,0.238192,84,0.017141,10,6.07789e-05,-3.62307,-2.00156,-0.029477,0.255063,
2,1,0,1,0,55215.5,0.259486,0.259178,0.237458,84,0.0173412,10,6.15441e-05,-3.62441,-1.3198,-0.0447037,0.259074,
2,1,0,0,0,55216.3,0.263481,0.263131,0.23742,84,0.0175405,10,6.24726e-05,-3.62448,-3.34179,-0.0176552,0.263026,
2,1,0,1,0,55217.1,0.267477,0.267152,0.23517,84,0.0177392,10,6.28261e-05,-3.62862,-3.18981,-0.0184964,0.267048,
2,1,0,1,0,55217.9,0.271471,0.271124,0.235429,84,0.0179371,10,6.38303e-05,-3.62814,-9.76222,-0.00604371,0.27102,
2,1,0,1,0,55218.7,0.275466,0.275112,0.234221,84,0.018134,10,6.44368e-05,-3.63037,-13.075,-0.00451244,0.275009,
2,1,0,1,0,55219.5,0.279462,0.279147,0.234253,84,0.0183305,10,6.53911e-05,-3.63031,-0.8678,-0.0679881,0.279044,
2,1,0,0,0,55220.3,0.283457,0.283114,0.233302,84,0.0185259,10,6.60511e-05,-3.63208,7.11871,0.00828802,0.283011,
2,1,0,1,0,55221.1,0.287452,0.287088,0.231373,84,0.0187207,10,6.64245e-05,-3.63569,-1.15892,-0.0509094,0.286986,
2,1,0,1,0,55221.9,0.291448,0.291093,0.23129,84,0.018915,10,6.7327e-05,-3.63584,-1.87039,-0.0315443,0.290991,
2,1,0,1,0,55222.7,0.295442,0.295129,0.230754,84,0.0191084,10,6.81024e-05,-3.63685,7.88147,0.00748591,0.295028,
2,1,0,1,0,55223.5,0.299437,0.299084,0.228849,84,0.0193012,10,6.84451e-05,-3.64045,-4.44961,-0.0132596,0.298984,
2,1,0,0,0,55224.3,0.303433,0.303091,0.229125,84,0.0194933,10,6.94458e-05,-3.63993,-3.20117,-0.0184308,0.30299,
2,1,0,1,0,55225.1,0.307428,0.307062,0.226998,84,0.0196846,10,6.97024e-05,-3.64398,-2.44504,-0.0241305,0.306962,
2,1,0,1,0,55225.9,0.311424,0.311091,0.227495,84,0.0198755,10,7.07718e-05,-3.64303,-1.60744,-0.0367044,0.310991,
2,1,0,1,0,55226.7,0.315418,0.31507,0.226627,84,0.0200656,10,7.14036e-05,-3.64469,-2.40411,-0.0245413,0.314971,
2,1,0,1,0,55227.5,0.319413,0.319082,0.225739,84,0.0202552,10,7.2029e-05,-3.64639,-218.558,-0.000269951,0.318982,
2,1,0,0,0,55228.3,0.323409,0.323109,0.224243,84,0.0204442,10,7.2455e-05,-3.64928,-0.909781,-0.0648508,0.323011,
2,1,0,1,0,55229.1,0.327404,0.327084,0.223972,84,0.0206324,10,7.32576e-05,-3.64981,5.05943,0.0116614,0.326985,
2,1,0,0,0,55229.9,0.331399,0.331042,0.223878,84,0.0208204,10,7.41131e-05,-3.64999,-3.08655,-0.0191152,0.330944,
2,1,0,1,0,55230.7,0.335395,0.335091,0.224127,84,0.0210078,10,7.5103e-05,-3.64951,22.4489,0.0026282,0.334993,
2,1,0,1,0,55231.5,0.339389,0.339064,0.223354,84,0.0211945,10,7.57312e-05,-3.65101,-2.15424,-0.0273879,0.338966,
2,1,0,1,0,55232.3,0.343384,0.343033,0.222645,84,0.0213807,10,7.63746e-05,-3.65239,-1.39801,-0.0422028,0.342935,
2,1,0,1,0,55233.1,0.34738,0.347051,0.222091,84,0.0215663,10,7.70768e-05,-3.65347,173.59,0.000339881,0.346953,
2,1,0,0,0,55233.9,0.351375,0.350998,0.221194,84,0.0217515,10,7.76386e-05,-3.65523,-2.78014,-0.021222,0.350901,
2,1,0,1,0,55234.7,0.35537,0.355049,0.221196,84,0.0219365,10,7.85354e-05,-3.65522,-1.96301,-0.0300558,0.354951,
2,1,0,1,0,55235.5,0.359366,0.359059,0.220461,84,0.0221209,10,7.91585e-05,-3.65667,2.23291,0.0264229,0.358962,
2,1,0,1,0,55236.3,0.36336,0.363014,0.219391,84,0.0223051,10,7.96421e-05,-3.65878,-2.75787,-0.0213933,0.362918,
2,1,0,1,0,55237.1,0.367355,0.367037,0.220759,84,0.0224891,10,8.10266e-05,-3.65608,-10.6258,-0.00555254,0.36694,
2,1,0,0,0,55237.9,0.371351,0.370973,0.219554,84,0.0226724,10,8.14485e-05,-3.65846,2.98474,0.0197672,0.370876,
2,1,0,1,0,55238.7,0.375346,0.375028,0.218831,84,0.0228558,10,8.20677e-05,-3.65989,-1.80792,-0.0326341,0.374932,
2,1,0,1,0,55239.5,0.379342,0.379021,0.219339,84,0.0230386,10,8.31339e-05,-3.65888,-2.19634,-0.0268629,0.378924,
2,1,0,1,0,55240.3,0.383336,0.383018,0.218631,84,0.0232212,10,8.37397e-05,-3.66029,-454.932,-0.00012969,0.382922,
2,1,0,1,0,55241.1,0.387331,0.386997,0.218348,84,0.0234037,10,8.45002e-05,-3.66085,-1.80248,-0.0327326,0.386901,
2,1,0,0,0,55241.9,0.391327,0.391016,0.218279,84,0.0235859,10,8.53504e-05,-3.66099,6.71396,0.00878767,0.39092,
2,1,0,1,0,55242.7,0.395322,0.394978,0.216779,84,0.0237676,10,8.56228e-05,-3.66398,-3.76353,-0.0156768,0.394883,
2,1,0,0,0,55243.5,0.399317,0.398957,0.217812,84,0.023949,10,8.68977e-05,-3.66192,2.99743,0.0196835,0.398861,
2,1,0,1,0,55244.3,0.403313,0.402979,0.217776,84,0.0241302,10,8.77592e-05,-3.66199,11.2046,0.00526571,0.402884,
2,1,0,1,0,55245.1,0.407307,0.406924,0.217663,84,0.0243115,10,8.85724e-05,-3.66221,-5.55383,-0.0106233,0.406828,
2,1,0,1,0,55245.9,0.411302,0.410989,0.217653,84,0.0244923,10,8.94528e-05,-3.66224,-9.46317,-0.0062347,0.410893,
2,1,0,1,0,55246.7,0.415298,0.41499,0.216784,84,0.0246731,10,8.99634e-05,-3.66397,-2.54406,-0.0231913,0.414895,
2,1,0,0,0,55247.5,0.419293,0.418951,0.215767,84,0.0248535,10,9.03958e-05,-3.66601,-1.2735,-0.0463289,0.418856,
2,1,0,1,0,55248.3,0.423288,0.422933,0.216087,84,0.0250335,10,9.13901e-05,-3.66537,1.43114,0.0412259,0.422838,
2,1,0,1,0,55249.1,0.427283,0.426921,0.215521,84,0.0252136,10,9.20104e-05,-3.66651,-3.18909,-0.0185006,0.426827,
2,1,0,1,0,55249.9,0.431278,0.430962,0.216169,84,0.0253932,10,9.31604e-05,-3.66521,7.89861,0.00746967,0.430867,
2,1,0,1,0,55250.7,0.435273,0.434955,0.2161,84,0.0255729,10,9.3994e-05,-3.66534,2.80711,0.021018,0.43486,
2,1,0,0,0,55251.5,0.439269,0.438926,0.216194,84,0.0257524,10,9.48931e-05,-3.66516,-4.56246,-0.0129316,0.438831,
2,1,0,1,0,55252.3,0.443264,0.442937,0.215409,84,0.0259319,10,9.54128e-05,-3.66674,-8.48467,-0.00695372,0.442843,
2,1,0,0,0,55253.1,0.447259,0.446935,0.215605,84,0.0261111,10,9.63616e-05,-3.66634,481.729,0.000122476,0.44684,
2,1,0,1,0,55253.9,0.451254,0.450926,0.21655,84,0.0262906,10,9.76479e-05,-3.66444,9.60838,0.00614047,0.45083,
2,1,0,1,0,55254.7,0.455249,0.454957,0.215646,84,0.0264703,10,9.81096e-05,-3.66626,4.36745,0.013509,0.454862,
2,1,0,1,0,55255.5,0.459244,0.458935,0.216373,84,0.0266501,10,9.93013e-05,-3.6648,-13.1125,-0.00449953,0.45884,
2,1,0,1,0,55256.3,0.46324,0.462904,0.217263,84,0.0268301,10,0.000100572,-3.66301,4.02966,0.0146414,0.462808,
2,1,0,0,0,55257.1,0.467235,0.466869,0.21708,84,0.0270101,10,0.000101348,-3.66338,-10.7886,-0.00546873,0.466773,
2,1,0,1,0,55257.9,0.471231,0.470906,0.217454,84,0.0271903,10,0.0001024,-3.66263,2.43676,0.0242125,0.47081,
2,1,0,1,0,55258.7,0.475225,0.474906,0.218489,84,0.0273707,10,0.000103762,-3.66057,5.17608,0.0113986,0.47481,
2,1,0,1,0,55259.5,0.47922,0.478875,0.218328,84,0.0275515,10,0.000104552,-3.66089,1.69812,0.0347443,0.478779,
2,1,0,1,0,55260.3,0.483216,0.482925,0.218435,84,0.0277328,10,0.000105488,-3.66068,-1.62854,-0.0362287,0.482829,
2,1,0,0,0,55261.1,0.487211,0.486877,0.218816,84,0.0279142,10,0.000106537,-3.65992,0.977319,0.0603692,0.486781,
2,1,0,1,0,55261.9,0.491206,0.490903,0.219703,84,0.0280961,10,0.000107853,-3.65816,-14.2253,-0.00414753,0.490806,
2,1,0,1,0,55262.7,0.495201,0.494885,0.220314,84,0.0282784,10,0.00010903,-3.65696,8.21254,0.00718414,0.494788,
2,1,0,1,0,55263.5,0.499196,0.498889,0.221066,84,0.028461,10,0.000110287,-3.65548,1.31135,0.0449918,0.498791,
2,1,0,1,0,55264.3,0.503191,0.502883,0.221818,84,0.0286443,10,0.000111548,-3.654,44.5842,0.00132334,0.502785,
2,1,0,0,0,55265.1,0.507187,0.506878,0.222684,84,0.028828,10,0.000112874,-3.65231,1.53217,0.0385075,0.50678,
2,1,0,1,0,55265.9,0.511182,0.510819,0.223249,84,0.0290125,10,0.00011404,-3.65121,2.34205,0.0251916,0.510721,
2,1,0,0,0,55266.7,0.515177,0.514864,0.224506,84,0.0291977,10,0.00011559,-3.64877,2.09881,0.0281112,0.514765,
2,1,0,1,0,55267.5,0.519173,0.518859,0.225851,84,0.0293839,10,0.000117185,-3.64618,1.35823,0.0434388,0.51876,
2,1,0,1,0,55268.3,0.523167,0.522835,0.226314,84,0.029571,10,0.000118325,-3.64529,1.65857,0.0355728,0.522735,
2,1,0,1,0,55269.1,0.527162,0.526852,0.228515,84,0.0297591,10,0.000120393,-3.64109,1.21518,0.0485524,0.526752,
2,1,0,1,0,55269.9,0.531158,0.530851,0.229754,84,0.0299483,10,0.000121965,-3.63874,1.28099,0.0460582,0.53075,
2,1,0,0,0,55270.7,0.535153,0.53485,0.231566,84,0.0301387,10,0.000123853,-3.63532,3.12492,0.0188805,0.534748,
2,1,0,1,0,55271.5,0.539148,0.538843,0.233213,84,0.0303303,10,0.000125665,-3.63225,0.928308,0.0635565,0.53874,
2,1,0,1,0,55272.3,0.543143,0.542805,0.235107,84,0.0305232,10,0.000127618,-3.62873,1.18065,0.0499723,0.542702,
2,1,0,1,0,55273.1,0.547138,0.546804,0.236654,84,0.0307176,10,0.000129403,-3.62589,1.49363,0.0395012,0.5467,
2,1,0,1,0,55273.9,0.551133,0.5508,0.238862,84,0.0309133,10,0.000131565,-3.62185,0.777079,0.0759253,0.550695,
2,1,0,0,0,55274.7,0.555129,0.554808,0.240633,84,0.031111,10,0.000133505,-3.61865,1.39328,0.0423462,0.554702,
2,1,0,1,0,55275.5,0.559124,0.558802,0.243075,84,0.0313101,10,0.000135831,-3.61426,0.921133,0.0640516,0.558695,
2,1,0,1,0,55276.3,0.56312,0.562801,0.245427,84,0.031511,10,0.000138127,-3.61008,0.700102,0.0842735,0.562693,
2,1,0,1,0,55277.1,0.567114,0.566789,0.248158,84,0.0317144,10,0.000140653,-3.60527,1.41841,0.0415958,0.56668,
2,1,0,1,0,55277.9,0.571109,0.570793,0.250929,84,0.0319197,10,0.000143228,-3.60045,0.55935,0.10548,0.570682,
2,1,0,0,0,55278.7,0.575105,0.574781,0.254427,84,0.0321276,10,0.00014624,-3.59444,0.665692,0.0886296,0.574669,
2,1,0,1,0,55279.5,0.5791,0.578805,0.258431,84,0.0323385,10,0.000149581,-3.58765,0.853258,0.0691467,0.578691,
2,1,0,0,0,55280.3,0.583095,0.582804,0.262505,84,0.0325521,10,0.000152989,-3.58086,0.501831,0.117569,0.582688,
2,1,0,1,0,55281.1,0.58709,0.586767,0.266096,84,0.0327692,10,0.000156136,-3.57496,0.620857,0.0950299,0.58665,
2,1,0,1,0,55281.9,0.591085,0.590805,0.271667,84,0.0329899,10,0.000160502,-3.56596,0.393714,0.149855,0.590685,
2,1,0,1,0,55282.7,0.59508,0.594797,0.277018,84,0.0332148,10,0.000164769,-3.55749,0.486188,0.121352,0.594675,
2,1,0,1,0,55283.5,0.599076,0.598764,0.283388,84,0.0334445,10,0.000169683,-3.54762,0.363203,0.162443,0.598639,
2,1,0,0,0,55284.2,0.603071,0.602732,0.290155,84,0.0336793,10,0.000174886,-3.53737,0.354468,0.166446,0.602604,
2,1,0,1,0,55285,0.607066,0.606698,0.297992,84,0.03392,10,0.000180791,-3.52579,0.313986,0.187907,0.606567,
2,1,0,1,0,55285.8,0.611061,0.610765,0.307482,84,0.0341677,10,0.000187799,-3.51218,0.361939,0.163011,0.610629,
2,1,0,1,0,55286.6,0.615056,0.614748,0.317135,84,0.0344226,10,0.000194958,-3.49876,0.263241,0.224129,0.614608,
2,1,0,1,0,55287.4,0.619051,0.618767,0.327849,84,0.0346863,10,0.000202862,-3.48433,0.238421,0.247461,0.618623,
2,1,0,0,0,55288.2,0.623047,0.622767,0.341068,84,0.0349594,10,0.000212406,-3.46716,0.213179,0.276762,0.622617,
2,1,0,1,0,55289,0.627042,0.626732,0.356579,84,0.0352438,10,0.00022348,-3.44784,0.198779,0.296813,0.626575,
2,1,0,1,0,55289.8,0.631037,0.630731,0.374358,84,0.0355417,10,0.000236119,-3.42671,0.18896,0.312235,0.630566,
2,1,0,1,0,55290.6,0.635032,0.634736,0.395283,84,0.0358546,10,0.0002509,-3.40309,0.159652,0.369553,0.634563,
2,1,0,1,0,55291.4,0.639027,0.638719,0.418151,84,0.0361854,10,0.000267081,-3.37867,0.148995,0.395988,0.638535,
2,1,0,1,0,55292.2,0.643022,0.642745,0.446261,84,0.0365366,10,0.000286832,-3.35041,0.145374,0.40585,0.642549,
2,1,0,1,0,55293,0.647018,0.646737,0.47807,84,0.0369112,10,0.000309185,-3.32051,0.123705,0.47694,0.646527,
2,1,0,0,0,55293.8,0.651013,0.650719,0.515809,84,0.0373138,10,0.000335647,-3.28751,0.115624,0.510275,0.650492,
2,1,0,1,0,55294.6,0.655008,0.65473,0.559282,84,0.0377485,10,0.000366179,-3.25237,0.114076,0.517198,0.654484,
2,1,0,1,0,55295.4,0.659003,0.658706,0.60854,84,0.03822,10,0.000400849,-3.21571,0.100087,0.589487,0.658438,
2,1,0,1,0,55296.2,0.662998,0.662733,0.668209,84,0.0387356,10,0.000442844,-3.17509,0.0987791,0.597292,0.662439,
2,1,0,1,0,55297,0.666994,0.666653,0.7346,84,0.0393009,10,0.000489723,-3.13395,0.09173,0.643192,0.66633,
2,1,0,0,0,55297.8,0.670989,0.670694,0.812068,84,0.0399242,10,0.000544648,-3.09041,0.0908141,0.649679,0.670336,
2,1,0,1,0,55298.6,0.674984,0.674682,0.900845,84,0.0406136,10,0.000607784,-3.04535,0.0874283,0.674839,0.674285,
2,1,0,1,0,55299.4,0.67898,0.678689,1.00098,84,0.0413782,10,0.000679357,-2.99957,0.0838308,0.703799,0.678249,
2,1,0,1,0,55300.2,0.682974,0.682615,1.11354,84,0.0422281,10,0.000760116,-2.9533,0.0854612,0.690371,0.682125,
2,1,0,1,0,55301,0.686969,0.686697,1.24066,84,0.0431736,10,0.000851959,-2.90635,0.083947,0.702824,0.686151,
2,1,0,0,0,55301.8,0.690965,0.690697,1.38182,84,0.0442265,10,0.000954416,-2.85955,0.0835811,0.705901,0.690089,
2,1,0,1,0,55302.6,0.69496,0.694642,1.53851,84,0.0453983,10,0.00106871,-2.8129,0.0851359,0.69301,0.693965,
2,1,0,0,0,55303.4,0.698955,0.698642,1.70979,84,0.0467005,10,0.00119453,-2.76706,0.0849207,0.694766,0.697889,
2,1,0,1,0,55304.2,0.70295,0.702628,1.89922,84,0.0481475,10,0.00133445,-2.72142,0.086926,0.678738,0.701792,
2,1,0,1,0,55305,0.706945,0.706654,2.10239,84,0.0497509,10,0.00148566,-2.67729,0.0898797,0.656433,0.705729,
2,1,0,1,0,55305.8,0.71094,0.71066,2.32266,84,0.0515239,10,0.00165062,-2.63401,0.0916668,0.643636,0.709638,
2,1,0,1,0,55306.6,0.714936,0.714626,2.55903,84,0.0534797,10,0.00182875,-2.59193,0.0932785,0.632515,0.7135,
2,1,0,0,0,55307.4,0.718931,0.718638,2.8136,84,0.0556307,10,0.00202196,-2.55074,0.0961539,0.6136,0.7174,
2,1,0,1,0,55308.2,0.722927,0.722584,3.08217,84,0.0579914,10,0.00222713,-2.51114,0.0990386,0.595727,0.721228,
2,1,0,1,0,55309,0.726921,0.726665,3.37024,84,0.0605742,10,0.00244903,-2.47234,0.101215,0.58292,0.725182,
2,1,0,1,0,55309.8,0.730916,0.730636,3.67476,84,0.0633933,10,0.00268491,-2.43477,0.104049,0.567042,0.729019,
2,1,0,1,0,55310.6,0.734911,0.734567,3.99783,84,0.0664638,10,0.00293668,-2.39818,0.10625,0.555295,0.732808,
2,1,0,0,0,55311.4,0.738907,0.738613,4.33886,84,0.0697994,10,0.00320474,-2.36262,0.109169,0.540448,0.736703,
2,1,0,1,0,55312.2,0.742902,0.742589,4.69851,84,0.0734144,10,0.00348906,-2.32804,0.112478,0.524549,0.740522,
2,1,0,1,0,55313,0.746897,0.746622,5.07864,84,0.0773258,10,0.00379183,-2.29425,0.115386,0.511325,0.744388,
2,1,0,1,0,55313.8,0.750892,0.750656,5.47894,84,0.0815486,10,0.0041128,-2.2613,0.117294,0.503011,0.748245,
2,1,0,1,0,55314.6,0.754887,0.75456,5.9022,84,0.0861002,10,0.00445357,-2.22899,0.118824,0.496532,0.751963,
2,1,0,0,0,55315.4,0.758883,0.758613,6.34879,84,0.0909997,10,0.00481628,-2.19731,0.120289,0.490486,0.755819,
2,1,0,1,0,55316.2,0.762878,0.762593,6.81869,84,0.0962643,10,0.00519988,-2.1663,0.122824,0.480363,0.759592,
2,1,0,0,0,55317,0.766873,0.766537,7.31279,84,0.101914,10,0.00560552,-2.13592,0.125333,0.470745,0.76332,
2,1,0,1,0,55317.8,0.770868,0.77058,7.83573,84,0.107971,10,0.00603806,-2.10592,0.126536,0.466271,0.767132,
2,1,0,1,0,55318.6,0.774863,0.774574,8.38582,84,0.114456,10,0.00649544,-2.07645,0.126816,0.465241,0.770884,
2,1,0,1,0,55319.4,0.778858,0.778574,8.96906,84,0.121394,10,0.00698308,-2.04725,0.128634,0.458667,0.774627,
2,1,0,1,0,55320.2,0.782854,0.78256,9.58789,84,0.128811,10,0.0075031,-2.01828,0.128379,0.459576,0.778341,
2,1,0,0,0,55321,0.786849,0.786582,10.2417,84,0.136737,10,0.00805591,-1.98963,0.130714,0.451369,0.782076,
2,1,0,1,0,55321.8,0.790844,0.790559,10.9364,84,0.145202,10,0.00864589,-1.96112,0.131806,0.447627,0.785747,
2,1,0,1,0,55322.6,0.794839,0.794533,11.6697,84,0.154237,10,0.00927199,-1.93294,0.128178,0.460298,0.789399,
2,1,0,1,0,55323.4,0.798834,0.798534,12.448,84,0.163879,10,0.00994018,-1.9049,0.129593,0.45527,0.793057,
2,1,0,1,0,55324.2,0.802829,0.802548,13.2716,84,0.174154,10,0.0106511,-1.87708,0.131487,0.448714,0.796709,
2,1,0,0,0,55325,0.806825,0.806551,14.1501,84,0.185114,10,0.0114127,-1.84924,0.128801,0.458071,0.800325,
2,1,0,1,0,55325.8,0.81082,0.810494,15.0704,84,0.196793,10,0.0122145,-1.82188,0.131928,0.447214,0.803863,
2,1,0,1,0,55326.6,0.814815,0.814538,16.0693,84,0.209235,10,0.0130891,-1.794,0.127778,0.461739,0.807467,
2,1,0,1,0,55327.4,0.81881,0.81854,17.0873,84,0.222489,10,0.0139867,-1.76733,0.133096,0.443288,0.811021,
2,1,0,1,0,55328.2,0.822805,0.82256,18.1829,84,0.236586,10,0.0149565,-1.74034,0.1308,0.451069,0.81456,
2,1,0,0,0,55329,0.826801,0.8265,19.3061,84,0.251571,10,0.0159565,-1.7143,0.138722,0.42531,0.818005,
2,1,0,1,0,55329.8,0.830796,0.830508,20.4878,84,0.267472,10,0.0170153,-1.6885,0.130736,0.451291,0.821494,
2,1,0,0,0,55330.6,0.834791,0.834518,21.7339,84,0.284351,10,0.0181373,-1.66286,0.14157,0.416755,0.824955,
2,1,0,1,0,55331.4,0.838786,0.838514,22.9425,84,0.302211,10,0.0192376,-1.63936,0.148712,0.39674,0.82842,
2,1,0,1,0,55332.2,0.842781,0.842483,24.18,84,0.321045,10,0.0203712,-1.61654,0.155817,0.378649,0.831843,
2,1,0,1,0,55333,0.846776,0.846505,25.4303,84,0.340868,10,0.0215268,-1.59465,0.156991,0.375819,0.835316,
2,1,0,0,0,55333.7,0.849723,0.84949,26.3212,84,0.359056,10,0.0223596,-1.57969,0.0555329,1.06243,0.837908,
2,1,0,1,0,55334.5,0.845728,0.845468,24.4408,84,0.379285,10,0.0206639,-1.61188,0.112005,0.526763,0.834714,
2,1,0,0,0,55335.3,0.841732,0.841435,22.8868,84,0.398175,10,0.0192578,-1.64041,0.114648,0.514619,0.831365,
2,1,0,1,0,55336.1,0.837737,0.837475,21.4357,84,0.415869,10,0.0179519,-1.66886,0.118898,0.496224,0.828043,
2,1,0,1,0,55336.9,0.833742,0.833448,19.853,84,0.432394,10,0.0165464,-1.70217,0.101517,0.581185,0.824713,
2,1,0,1,0,55337.7,0.829747,0.829495,18.6089,84,0.447745,10,0.015436,-1.73028,0.121058,0.487368,0.821307,
2,1,0,1,0,55338.5,0.825752,0.825516,17.4595,84,0.462141,10,0.0144131,-1.75797,0.127777,0.461741,0.817834,
2,1,0,0,0,55339.3,0.821757,0.821474,16.324,84,0.475632,10,0.0134097,-1.78717,0.118887,0.496271,0.814291,
2,1,0,1,0,55340.1,0.817761,0.817484,15.2717,84,0.488242,10,0.0124844,-1.81611,0.122669,0.480969,0.810765,
2,1,0,1,0,55340.9,0.813766,0.813486,14.2768,84,0.500036,10,0.011614,-1.84537,0.121387,0.486049,0.807204,
2,1,0,1,0,55341.7,0.809771,0.809507,13.3434,84,0.51106,10,0.0108016,-1.87473,0.122522,0.481545,0.803636,
2,1,0,1,0,55342.5,0.805776,0.805526,12.4587,84,0.521357,10,0.0100358,-1.90453,0.120772,0.488522,0.800044,
2,1,0,0,0,55343.3,0.801781,0.801517,11.62,84,0.530968,10,0.00931365,-1.93479,0.11918,0.495049,0.796404,
2,1,0,1,0,55344.1,0.797786,0.797534,10.8302,84,0.539927,10,0.00863748,-1.96536,0.120067,0.491392,0.792769,
2,1,0,1,0,55344.9,0.79379,0.793504,10.0861,84,0.548275,10,0.00800339,-1.99628,0.117895,0.500447,0.789066,
2,1,0,1,0,55345.7,0.789795,0.789544,9.38107,84,0.556043,10,0.00740677,-2.02775,0.11459,0.514877,0.785416,
2,1,0,1,0,55346.5,0.7858,0.785521,8.71869,84,0.563265,10,0.00684871,-2.05955,0.118327,0.498617,0.781685,
2,1,0,0,0,55347.3,0.781805,0.781558,8.10185,84,0.569977,10,0.00633206,-2.09142,0.115783,0.509572,0.777993,
2,1,0,1,0,55348.1,0.77781,0.777527,7.52686,84,0.576211,10,0.00585234,-2.12339,0.118912,0.496163,0.774215,
2,1,0,0,0,55348.9,0.773814,0.773544,6.98284,84,0.582,10,0.00540153,-2.15597,0.112451,0.524673,0.770472,
2,1,0,1,0,55349.7,0.769819,0.769551,6.46589,84,0.587365,10,0.00497583,-2.18937,0.111922,0.527152,0.766706,
2,1,0,1,0,55350.5,0.765824,0.765552,5.98368,84,0.59233,10,0.00458082,-2.22303,0.11239,0.524959,0.762919,
2,1,0,1,0,55351.3,0.761829,0.761539,5.52708,84,0.596921,10,0.00420909,-2.2575,0.10883,0.542131,0.759107,
2,1,0,1,0,55352.1,0.757834,0.757557,5.10055,84,0.60116,10,0.00386395,-2.29238,0.108247,0.545051,0.755312,
2,1,0,0,0,55352.9,0.753839,0.753551,4.69868,84,0.605067,10,0.00354069,-2.32802,0.106526,0.553853,0.751483,
2,1,0,1,0,55353.7,0.749844,0.749523,4.32049,84,0.608662,10,0.00323831,-2.36447,0.104097,0.566779,0.747622,
2,1,0,1,0,55354.5,0.745848,0.745542,3.96602,84,0.611966,10,0.00295683,-2.40165,0.102098,0.577877,0.743797,
2,1,0,1,0,55355.3,0.741853,0.741523,3.63449,84,0.614996,10,0.00269506,-2.43956,0.0997196,0.591659,0.739923,
2,1,0,1,0,55356.1,0.737858,0.737563,3.3209,84,0.617767,10,0.00244937,-2.47874,0.0976073,0.604463,0.736102,
2,1,0,0,0,55356.9,0.733863,0.73353,3.02506,84,0.620295,10,0.00221898,-2.51927,0.0932322,0.632829,0.732199,
2,1,0,1,0,55357.7,0.729868,0.729599,2.74817,84,0.622595,10,0.00200506,-2.56096,0.0918686,0.642221,0.72839,
2,1,0,1,0,55358.5,0.725872,0.725528,2.4877,84,0.624679,10,0.00180489,-2.6042,0.087546,0.673931,0.724433,
2,1,0,1,0,55359.3,0.721877,0.721561,2.24294,84,0.626563,10,0.00161842,-2.64918,0.0859589,0.686375,0.720574,
2,1,0,1,0,55360.1,0.717882,0.717595,2.01457,84,0.628257,10,0.00144565,-2.69582,0.081733,0.721863,0.716708,
2,1,0,0,0,55360.9,0.713887,0.713606,1.80187,84,0.629774,10,0.00128582,-2.74428,0.0778259,0.758102,0.712813,
2,1,0,1,0,55361.7,0.709892,0.709585,1.60242,84,0.631127,10,0.00113705,-2.79522,0.0775797,0.760508,0.70888,
2,1,0,0,0,55362.5,0.705897,0.705595,1.41957,84,0.632328,10,0.00100164,-2.84784,0.0713979,0.826354,0.70497,
2,1,0,1,0,55363.3,0.701901,0.701584,1.25014,84,0.633388,10,0.000877078,-2.90304,0.069415,0.849961,0.701034,
2,1,0,1,0,55364.1,0.697906,0.697634,1.09262,84,0.634317,10,0.000762248,-2.96153,0.0662292,0.890845,0.697153,
2,1,0,1,0,55364.9,0.693911,0.693626,0.950898,84,0.635127,10,0.000659568,-3.02187,0.0626798,0.941292,0.693208,
2,1,0,1,0,55365.7,0.689916,0.689605,0.81919,84,0.635827,10,0.000564918,-3.08662,0.0589497,1.00085,0.689244,
2,1,0,0,0,55366.5,0.685921,0.685646,0.700417,84,0.636428,10,0.000480239,-3.15464,0.0573483,1.0288,0.685338,
2,1,0,1,0,55367.2,0.681926,0.681638,0.59364,84,0.636939,10,0.000404647,-3.22648,0.053236,1.10827,0.681377,
2,1,0,1,0,55368,0.67793,0.677635,0.499083,84,0.637369,10,0.000338196,-3.30183,0.0507143,1.16338,0.677415,
2,1,0,1,0,55368.8,0.673935,0.673604,0.414629,84,0.637727,10,0.000279296,-3.38234,0.0464769,1.26945,0.673422,
2,1,0,1,0,55369.6,0.66994,0.669632,0.338649,84,0.638021,10,0.00022677,-3.47025,0.0437859,1.34747,0.669483,
2,1,0,0,0,55370.4,0.665945,0.665675,0.272395,84,0.638259,10,0.000181326,-3.5648,0.0410583,1.43698,0.665555,
2,1,0,1,0,55371.2,0.66195,0.661645,0.214552,84,0.638447,10,0.000141958,-3.66847,0.0364916,1.61681,0.661551,
2,1,0,0,0,55372,0.657955,0.657623,0.16429,84,0.638592,10,0.000108041,-3.78439,0.031684,1.86214,0.657551,
2,1,0,1,0,55372.8,0.653959,0.65363,0.120747,84,0.6387,10,7.89239e-05,-3.91812,0.0272975,2.16137,0.653577,
2,1,0,1,0,55373.6,0.649964,0.649685,0.0838915,84,0.638776,10,5.45031e-05,-4.07628,0.0227773,2.59029,0.649648,
2,1,0,1,0,55374.4,0.64597,0.645662,0.0526305,84,0.638824,10,3.39815e-05,-4.27876,0.0168771,3.49587,0.645639,
2,1,0,1,0,55375.2,0.641974,0.641647,0.0256024,84,0.638849,10,1.64277e-05,-4.59172,0.00875829,6.73647,0.641636,
2,1,0,0,0,55376,0.637979,0.637637,0.00304243,84,0.638855,10,1.93997e-06,-5.51678,0.0126981,4.64636,0.637636,
2,0,0,1,0,55376.8,0.633983,0.633707,-0.015345,84,0.638844,10,-9.72421e-06,-4.81403,-0.00735106,-8.02605,0.633714,
2,0,0,1,0,55377.6,0.629988,0.629692,-0.0312681,84,0.638819,10,-1.96893e-05,-4.5049,-0.0184306,-3.2012,0.629706,
2,0,0,1,0,55378.4,0.625993,0.625691,-0.044413,84,0.638783,10,-2.77888e-05,-4.35249,-0.0338754,-1.74168,0.625711,
2,0,0,1,0,55379.2,0.621998,0.621692,-0.0547894,84,0.638737,10,-3.40621e-05,-4.2613,-0.048959,-1.20509,0.621716,
2,0,0,0,0,55380,0.618003,0.617664,-0.0638499,84,0.638684,10,-3.94377e-05,-4.19484,-0.0654767,-0.901085,0.617692,
2,0,0,1,0,55380.8,0.614008,0.613663,-0.0727337,84,0.638622,10,-4.4634e-05,-4.13826,-0.0992373,-0.594534,0.613695,
2,0,0,1,0,55381.6,0.610012,0.609693,-0.079629,84,0.638556,10,-4.85493e-05,-4.09893,-0.109258,-0.540005,0.609728,
2,0,0,1,0,55382.4,0.606017,0.605717,-0.0845641,84,0.638484,10,-5.12219e-05,-4.07281,-0.158585,-0.372041,0.605754,
2,0,0,1,0,55383.2,0.602022,0.601725,-0.0901843,84,0.638407,10,-5.42661e-05,-4.04487,-0.197803,-0.298277,0.601765,
2,0,0,0,0,55384,0.598027,0.597739,-0.094241,84,0.638327,10,-5.63315e-05,-4.02576,-0.233587,-0.252583,0.59778,
2,0,0,1,0,55384.8,0.594032,0.593733,-0.0972268,84,0.638245,10,-5.77268e-05,-4.01221,-0.299059,-0.197286,0.593776,
2,0,0,0,0,55385.6,0.590037,0.589745,-0.100562,84,0.638159,10,-5.93057e-05,-3.99757,-0.235509,-0.250521,0.58979,
2,0,0,1,0,55386.4,0.586041,0.585716,-0.103409,84,0.638071,10,-6.05684e-05,-3.98544,-0.563733,-0.104659,0.585761,
2,0,0,1,0,55387.2,0.582046,0.581732,-0.10609,84,0.637982,10,-6.17161e-05,-3.97432,-0.456761,-0.12917,0.581779,
2,0,0,1,0,55388,0.578052,0.57776,-0.107449,84,0.637891,10,-6.208e-05,-3.9688,-0.373155,-0.158111,0.577807,
2,0,0,1,0,55388.8,0.574056,0.573762,-0.109079,84,0.637798,10,-6.25852e-05,-3.96226,-0.85373,-0.0691085,0.57381,
2,0,0,0,0,55389.6,0.570061,0.569762,-0.111062,84,0.637703,10,-6.32789e-05,-3.95443,-0.612851,-0.0962714,0.569811,
2,0,0,1,0,55390.4,0.566065,0.565786,-0.112238,84,0.637608,10,-6.35024e-05,-3.94986,-0.668049,-0.0883168,0.565835,
2,0,0,1,0,55391.2,0.56207,0.561799,-0.11434,84,0.637511,10,-6.42359e-05,-3.9418,-1.06727,-0.055281,0.561849,
2,0,0,1,0,55392,0.558075,0.557737,-0.115584,84,0.637413,10,-6.44654e-05,-3.9371,-0.472869,-0.12477,0.557788,
2,0,0,1,0,55392.8,0.55408,0.553791,-0.115969,84,0.637315,10,-6.42223e-05,-3.93566,-3.12825,-0.0188604,0.553842,
2,0,0,0,0,55393.6,0.550085,0.549794,-0.11716,84,0.637215,10,-6.4414e-05,-3.93122,-1.05268,-0.0560476,0.549846,
2,0,0,1,0,55394.4,0.54609,0.545747,-0.117093,84,0.637115,10,-6.39029e-05,-3.93147,-7.64854,-0.00771389,0.545798,
2,0,0,1,0,55395.2,0.542094,0.541799,-0.118682,84,0.637014,10,-6.43018e-05,-3.92561,-0.663556,-0.0889149,0.541851,
2,0,0,1,0,55396,0.538099,0.53782,-0.119956,84,0.636912,10,-6.45146e-05,-3.92098,-1.46367,-0.0403096,0.537873,
2,0,0,1,0,55396.8,0.534104,0.533795,-0.121385,84,0.636809,10,-6.47949e-05,-3.91583,-0.818102,-0.0721181,0.533849,
2,0,0,0,0,55397.6,0.530109,0.529809,-0.122728,84,0.636706,10,-6.50226e-05,-3.91105,-1.13532,-0.0519679,0.529863,
2,0,0,1,0,55398.4,0.526114,0.525791,-0.12317,84,0.636601,10,-6.47618e-05,-3.90949,-1.4696,-0.0401469,0.525845,
2,0,0,0,0,55399.2,0.522119,0.521786,-0.124168,84,0.636496,10,-6.47893e-05,-3.90599,-1.1396,-0.0517726,0.521841,
2,0,0,1,0,55400,0.518123,0.517787,-0.124697,84,0.63639,10,-6.45666e-05,-3.90414,-2.69236,-0.0219139,0.517842,
2,0,0,1,0,55400.8,0.514128,0.513805,-0.125682,84,0.636284,10,-6.45759e-05,-3.90073,-0.661199,-0.0892318,0.513861,
2,0,0,1,0,55401.6,0.510133,0.509809,-0.126712,84,0.636176,10,-6.45987e-05,-3.89718,-3.37994,-0.0174559,0.509865,
2,0,0,1,0,55402.4,0.506138,0.505816,-0.127821,84,0.636068,10,-6.4654e-05,-3.8934,-0.845212,-0.069805,0.505872,
2,0,0,0,0,55403.2,0.502143,0.501813,-0.128883,84,0.635959,10,-6.4675e-05,-3.88981,-1.28327,-0.0459762,0.50187,
2,0,0,1,0,55404,0.498148,0.497827,-0.12997,84,0.635849,10,-6.47024e-05,-3.88616,-3.04738,-0.0193609,0.497884,
2,0,0,1,0,55404.8,0.494152,0.493816,-0.131085,84,0.635738,10,-6.47317e-05,-3.88245,-0.560889,-0.10519,0.493874,
2,0,0,1,0,55405.6,0.490157,0.489856,-0.132147,84,0.635626,10,-6.47329e-05,-3.87894,-1.03972,-0.056746,0.489914,
2,0,0,1,0,55406.4,0.486162,0.485855,-0.133118,84,0.635514,10,-6.4676e-05,-3.87576,-1.26012,-0.046821,0.485913,
2,0,0,0,0,55407.2,0.482167,0.481824,-0.134834,84,0.6354,10,-6.49662e-05,-3.8702,-1.43591,-0.0410888,0.481884,
2,0,0,1,0,55408,0.478172,0.477848,-0.135505,84,0.635285,10,-6.47508e-05,-3.86804,-1.6086,-0.0366778,0.477908,
2,0,0,0,0,55408.8,0.474177,0.47385,-0.137124,84,0.63517,10,-6.49764e-05,-3.86289,-2.89628,-0.020371,0.473911,
2,0,0,1,0,55409.6,0.470181,0.469854,-0.137516,84,0.635054,10,-6.46124e-05,-3.86165,-0.496895,-0.118737,0.469915,
2,0,0,1,0,55410.4,0.466186,0.465865,-0.139344,84,0.634936,10,-6.49153e-05,-3.85591,-1.24745,-0.0472965,0.465926,
2,0,0,1,0,55411.2,0.462191,0.46183,-0.140094,84,0.634818,10,-6.46997e-05,-3.85358,-0.654469,-0.0901494,0.461891,
2,0,0,1,0,55412,0.458196,0.457852,-0.141625,84,0.634698,10,-6.48434e-05,-3.84886,-0.971727,-0.0607167,0.457914,
2,0,0,0,0,55412.8,0.454201,0.453864,-0.142861,84,0.634577,10,-6.48393e-05,-3.84509,-1.74784,-0.033756,0.453927,
2,0,0,1,0,55413.6,0.450205,0.449866,-0.144445,84,0.634455,10,-6.49807e-05,-3.8403,-0.804199,-0.0733649,0.449929,
2,0,0,1,0,55414.4,0.44621,0.445902,-0.145662,84,0.634331,10,-6.4951e-05,-3.83665,-0.579515,-0.101809,0.445966,
2,0,0,1,0,55415.2,0.442215,0.441895,-0.14819,84,0.634207,10,-6.54846e-05,-3.82918,-1.65528,-0.0356436,0.44196,
2,0,0,1,0,55416,0.43822,0.437891,-0.15004,84,0.634081,10,-6.57009e-05,-3.82379,-0.583334,-0.101143,0.437957,
2,0,0,0,0,55416.8,0.434225,0.433952,-0.150957,84,0.633953,10,-6.55081e-05,-3.82115,-0.69287,-0.0851531,0.434019,
2,0,0,1,0,55417.6,0.43023,0.429893,-0.153569,84,0.633824,10,-6.60181e-05,-3.8137,-1.10952,-0.053176,0.429961,
2,0,0,1,0,55418.4,0.426234,0.42591,-0.154245,84,0.633694,10,-6.56945e-05,-3.81179,-0.724505,-0.0814349,0.425978,
2,0,0,1,0,55419.2,0.422239,0.421926,-0.157198,84,0.633562,10,-6.6326e-05,-3.80355,-0.943866,-0.0625089,0.421996,
2,0,0,1,0,55420,0.418244,0.417927,-0.158788,84,0.633429,10,-6.63618e-05,-3.79918,-0.744472,-0.0792508,0.417997,
2,0,0,0,0,55420.8,0.414249,0.413952,-0.159573,84,0.633294,10,-6.60554e-05,-3.79704,-0.729695,-0.0808557,0.414022,
2,0,0,1,0,55421.6,0.410254,0.409955,-0.162008,84,0.633157,10,-6.6416e-05,-3.79046,-0.942554,-0.0625959,0.410027,
2,0,0,0,0,55422.4,0.406259,0.40592,-0.163916,84,0.633019,10,-6.65368e-05,-3.78538,-1.03638,-0.0569291,0.405992,
2,0,0,1,0,55423.2,0.402263,0.401946,-0.16616,84,0.63288,10,-6.67874e-05,-3.77947,-0.70801,-0.0833322,0.402019,
2,0,0,1,0,55424,0.398268,0.398001,-0.168452,84,0.632739,10,-6.7044e-05,-3.77352,-0.705812,-0.0835916,0.398075,
2,0,0,1,0,55424.8,0.394274,0.393983,-0.169444,84,0.632596,10,-6.6758e-05,-3.77097,-0.695935,-0.084778,0.394058,
2,0,0,1,0,55425.6,0.390278,0.389935,-0.172201,84,0.632452,10,-6.7147e-05,-3.76397,-1.21839,-0.0484246,0.390011,
2,0,0,0,0,55426.4,0.386283,0.385958,-0.173888,84,0.632306,10,-6.71135e-05,-3.75973,-0.92038,-0.064104,0.386035,
2,0,0,1,0,55427.2,0.382287,0.381968,-0.174889,84,0.632159,10,-6.6802e-05,-3.75724,-0.679657,-0.0868085,0.382045,
2,0,0,1,0,55428,0.378292,0.377957,-0.177787,84,0.63201,10,-6.71959e-05,-3.7501,-0.936597,-0.062994,0.378035,
2,0,0,1,0,55428.8,0.374297,0.37398,-0.180377,84,0.631859,10,-6.74576e-05,-3.74382,-0.527522,-0.111844,0.37406,
2,0,0,1,0,55429.6,0.370303,0.369992,-0.182094,84,0.631705,10,-6.73735e-05,-3.7397,-1.0733,-0.0549707,0.370072,
2,0,0,0,0,55430.4,0.366307,0.365965,-0.183886,84,0.631551,10,-6.72958e-05,-3.73545,-0.930596,-0.0634002,0.366045,
2,0,0,1,0,55431.2,0.362312,0.361977,-0.186732,84,0.631395,10,-6.75928e-05,-3.72878,-0.562232,-0.104939,0.36206,
2,0,0,1,0,55432,0.358316,0.357956,-0.188,84,0.631237,10,-6.72956e-05,-3.72584,-1.68108,-0.0350966,0.358039,
2,0,0,1,0,55432.8,0.354321,0.354013,-0.190346,84,0.631077,10,-6.73848e-05,-3.72046,-0.674125,-0.0875209,0.354097,
2,0,0,1,0,55433.6,0.350327,0.35005,-0.192099,84,0.630916,10,-6.72441e-05,-3.71648,-1.00984,-0.058425,0.350135,
2,0,0,0,0,55434.4,0.346331,0.345996,-0.194332,84,0.630752,10,-6.72381e-05,-3.71146,-0.994771,-0.0593102,0.346082,
2,0,0,1,0,55435.2,0.342336,0.341977,-0.196853,84,0.630587,10,-6.73191e-05,-3.70586,-0.568082,-0.103858,0.342064,
2,0,0,0,0,55436,0.338341,0.338045,-0.199529,84,0.63042,10,-6.74498e-05,-3.69999,-1.49115,-0.0395669,0.338133,
2,0,0,1,0,55436.8,0.334345,0.334041,-0.201834,84,0.630251,10,-6.74208e-05,-3.69501,-0.55222,-0.106841,0.334129,
2,0,0,1,0,55437.6,0.33035,0.330032,-0.203954,84,0.630081,10,-6.73112e-05,-3.69047,-0.979815,-0.0602154,0.330121,
2,0,0,1,0,55438.4,0.326355,0.326019,-0.205949,84,0.629908,10,-6.71433e-05,-3.68624,-0.678859,-0.0869106,0.32611,
2,0,0,1,0,55439.2,0.32236,0.322026,-0.207783,84,0.629734,10,-6.69114e-05,-3.68239,-0.72162,-0.0817605,0.322117,
2,0,0,0,0,55440,0.318365,0.317994,-0.210436,84,0.629557,10,-6.69174e-05,-3.67688,-0.829626,-0.0711164,0.318086,
2,0,0,1,0,55440.8,0.31437,0.314067,-0.213499,84,0.629379,10,-6.70532e-05,-3.6706,-1.7284,-0.0341356,0.314161,
2,0,0,1,0,55441.6,0.310374,0.310032,-0.214868,84,0.629198,10,-6.66159e-05,-3.66783,-0.461288,-0.127903,0.310127,
2,0,0,1,0,55442.4,0.306379,0.306059,-0.217707,84,0.629016,10,-6.66311e-05,-3.66213,-1.51743,-0.0388816,0.306155,
2,0,0,1,0,55443.2,0.302385,0.302044,-0.219995,84,0.628832,10,-6.64481e-05,-3.65759,-0.752214,-0.0784351,0.302141,
2,0,0,0,0,55444,0.298389,0.2981,-0.222609,84,0.628645,10,-6.63597e-05,-3.65246,-0.852232,-0.06923,0.298198,
2,0,0,1,0,55444.8,0.294394,0.294065,-0.225736,84,0.628456,10,-6.63811e-05,-3.6464,-0.648052,-0.0910421,0.294164,
2,0,0,1,0,55445.6,0.290398,0.290065,-0.227871,84,0.628266,10,-6.60974e-05,-3.64231,-1.01518,-0.0581179,0.290166,
2,0,0,1,0,55446.4,0.286403,0.286073,-0.230223,84,0.628073,10,-6.58608e-05,-3.63785,-0.81572,-0.0723287,0.286175,
2,0,0,1,0,55447.2,0.282408,0.282079,-0.233831,84,0.627879,10,-6.5959e-05,-3.6311,-1.464,-0.0403006,0.282182,
2,0,0,1,0,55448,0.278414,0.278106,-0.236703,84,0.627682,10,-6.58284e-05,-3.6258,-0.616166,-0.0957534,0.27821,
2,0,0,1,0,55448.8,0.274418,0.27409,-0.237869,84,0.627483,10,-6.51976e-05,-3.62366,-0.862695,-0.0683903,0.274194,
2,0,0,0,0,55449.6,0.270423,0.270108,-0.240592,84,0.627282,10,-6.49857e-05,-3.61872,-0.795388,-0.0741776,0.270214,
2,0,0,1,0,55450.3,0.266427,0.266119,-0.243175,84,0.627079,10,-6.47136e-05,-3.61408,-0.77465,-0.0761634,0.266226,
2,0,0,1,0,55451.1,0.262432,0.26211,-0.245475,84,0.626874,10,-6.43416e-05,-3.60999,-1.04898,-0.056245,0.262218,
2,0,0,1,0,55451.9,0.258437,0.258135,-0.249807,84,0.626667,10,-6.4484e-05,-3.6024,-0.94809,-0.0622304,0.258245,
2,0,0,1,0,55452.7,0.254442,0.254122,-0.250273,84,0.626458,10,-6.36001e-05,-3.60159,-1.21767,-0.0484531,0.254233,
2,0,0,0,0,55453.5,0.250447,0.250107,-0.25395,84,0.626247,10,-6.35145e-05,-3.59525,-1.70676,-0.0345684,0.250218,
2,0,0,1,0,55454.3,0.246452,0.246123,-0.255834,84,0.626035,10,-6.29665e-05,-3.59204,-0.71952,-0.0819991,0.246235,
2,0,0,1,0,55455.1,0.242456,0.242093,-0.257604,84,0.62582,10,-6.2364e-05,-3.58905,-0.98571,-0.0598553,0.242206,
2,0,0,1,0,55455.9,0.238461,0.238135,-0.259954,84,0.625604,10,-6.19042e-05,-3.5851,-1.27808,-0.0461631,0.238249,
2,0,0,1,0,55456.7,0.234467,0.234155,-0.26226,84,0.625386,10,-6.14095e-05,-3.58127,-0.66657,-0.0885129,0.234271,
2,0,0,0,0,55457.5,0.230471,0.230129,-0.265326,84,0.625165,10,-6.10591e-05,-3.57622,-0.781362,-0.0755092,0.230245,
2,0,0,1,0,55458.3,0.226476,0.226135,-0.267059,84,0.624943,10,-6.03914e-05,-3.57339,-1.91751,-0.030769,0.226253,
2,0,0,0,0,55459.1,0.222481,0.222125,-0.269615,84,0.624718,10,-5.98881e-05,-3.56926,-1.02244,-0.0577053,0.222243,
2,0,0,1,0,55459.9,0.218485,0.218176,-0.272596,84,0.624492,10,-5.94741e-05,-3.56448,-1.75319,-0.033653,0.218296,
2,0,0,1,0,55460.7,0.21449,0.214157,-0.274246,84,0.624263,10,-5.87316e-05,-3.56186,-0.736924,-0.0800626,0.214277,
2,0,0,1,0,55461.5,0.210496,0.210173,-0.27779,84,0.624033,10,-5.83841e-05,-3.55628,-0.945262,-0.0624166,0.210296,
2,0,0,1,0,55462.3,0.2065,0.206153,-0.282692,84,0.6238,10,-5.82777e-05,-3.54869,-0.794547,-0.0742561,0.206277,
2,0,0,0,0,55463.1,0.202505,0.202132,-0.283684,84,0.623565,10,-5.73416e-05,-3.54716,-0.726454,-0.0812164,0.202257,
2,0,0,1,0,55463.9,0.198509,0.198188,-0.286353,84,0.623327,10,-5.67517e-05,-3.5431,-1.20991,-0.048764,0.198314,
2,0,0,1,0,55464.7,0.194514,0.194172,-0.289902,84,0.623087,10,-5.6291e-05,-3.53775,-0.677825,-0.0870431,0.1943,
2,0,0,1,0,55465.5,0.190519,0.19018,-0.292273,84,0.622844,10,-5.55845e-05,-3.53421,-0.627718,-0.0939912,0.190309,
2,0,0,1,0,55466.3,0.186524,0.186147,-0.297443,84,0.622597,10,-5.53681e-05,-3.5266,-1.34098,-0.0439977,0.186278,
2,0,0,0,0,55467.1,0.182529,0.182227,-0.301565,84,0.622348,10,-5.49533e-05,-3.52062,-0.533459,-0.110599,0.18236,
2,0,0,1,0,55467.9,0.178534,0.178203,-0.305329,84,0.622095,10,-5.44103e-05,-3.51523,-0.639607,-0.0922441,0.178337,
2,0,0,1,0,55468.7,0.174538,0.174175,-0.311903,84,0.621838,10,-5.43256e-05,-3.50598,-0.446896,-0.132022,0.174312,
2,0,0,1,0,55469.5,0.170543,0.170187,-0.317907,84,0.621577,10,-5.41036e-05,-3.4977,-0.39792,-0.148271,0.170327,
2,0,0,1,0,55470.3,0.166549,0.166225,-0.325645,84,0.621309,10,-5.41302e-05,-3.48726,-0.386467,-0.152665,0.166368,
2,0,0,0,0,55471.1,0.162553,0.162201,-0.333136,84,0.621036,10,-5.4035e-05,-3.47738,-0.343596,-0.171713,0.162348,
2,0,0,1,0,55471.9,0.158558,0.158223,-0.343788,84,0.620755,10,-5.43953e-05,-3.46371,-0.266865,-0.221086,0.158375,
2,0,0,0,0,55472.7,0.154563,0.15425,-0.357712,84,0.620465,10,-5.51771e-05,-3.44647,-0.217235,-0.271595,0.154408,
2,0,0,1,0,55473.5,0.150567,0.150213,-0.375366,84,0.620162,10,-5.63848e-05,-3.42555,-0.162949,-0.362076,0.150378,
2,0,0,1,0,55474.3,0.146572,0.14623,-0.398489,84,0.619843,10,-5.82712e-05,-3.39958,-0.140569,-0.419722,0.146406,
2,0,0,1,0,55475.1,0.142578,0.142223,-0.429146,84,0.619503,10,-6.10346e-05,-3.36739,-0.117369,-0.502688,0.142412,
2,0,0,1,0,55475.9,0.138582,0.138279,-0.465956,84,0.619135,10,-6.44321e-05,-3.33166,-0.10091,-0.584678,0.138484,
2,0,0,0,0,55476.7,0.134587,0.134252,-0.510863,84,0.618734,10,-6.85843e-05,-3.2917,-0.1064,-0.554513,0.134477,
2,0,0,1,0,55477.5,0.130591,0.130235,-0.556322,84,0.618297,10,-7.24523e-05,-3.25467,-0.113461,-0.520003,0.130479,
2,0,0,1,0,55478.3,0.126596,0.126273,-0.595847,84,0.617825,10,-7.52394e-05,-3.22487,-0.138628,-0.425599,0.126535,
2,0,0,1,0,55479.1,0.122602,0.122283,-0.631421,84,0.617323,10,-7.72123e-05,-3.19968,-0.219119,-0.26926,0.122561,
2,0,0,1,0,55479.9,0.118607,0.118298,-0.653379,84,0.616798,10,-7.72932e-05,-3.18483,-0.311661,-0.189309,0.118585,
2,0,0,0,0,55480.7,0.114611,0.114267,-0.667404,84,0.616259,10,-7.62626e-05,-3.17561,-0.807261,-0.0730866,0.114561,
2,0,0,1,0,55481.5,0.110616,0.110323,-0.672456,84,0.615714,10,-7.41872e-05,-3.17234,-1.69424,-0.0348238,0.110619,
2,0,0,1,0,55482.3,0.10662,0.106306,-0.671346,84,0.615165,10,-7.13678e-05,-3.17305,11.5096,0.00512615,0.106601,
2,0,0,1,0,55483.1,0.102625,0.102287,-0.67146,84,0.614616,10,-6.86817e-05,-3.17298,1.88141,0.0313595,0.102583,
2,0,0,1,0,55483.9,0.0986305,0.0983541,-0.669058,84,0.61407,10,-6.58046e-05,-3.17454,2.60284,0.0226675,0.0986485,
2,0,0,0,0,55484.7,0.0946351,0.0943499,-0.661901,84,0.613526,10,-6.24503e-05,-3.17921,1.25231,0.0471131,0.0946411,
2,0,0,1,0,55485.5,0.0906399,0.0902938,-0.658663,84,0.612986,10,-5.94732e-05,-3.18134,0.71734,0.0822483,0.0905836,
2,0,0,0,0,55486.3,0.0866448,0.0862653,-0.651129,84,0.612452,10,-5.61699e-05,-3.18633,1.06584,0.0553554,0.0865518,
2,0,0,1,0,55487.1,0.0826492,0.0823108,-0.644267,84,0.611923,10,-5.30301e-05,-3.19093,0.701182,0.0841436,0.0825943,
2,0,0,1,0,55487.9,0.0786544,0.078363,-0.636679,84,0.611401,10,-4.98921e-05,-3.19608,0.763529,0.0772728,0.0786432,
2,0,0,1,0,55488.7,0.0746596,0.074352,-0.627707,84,0.610886,10,-4.66713e-05,-3.20224,0.71847,0.0821189,0.0746282,
2,0,0,1,0,55489.5,0.0706641,0.0703221,-0.620312,84,0.610376,10,-4.36216e-05,-3.20739,0.715074,0.082509,0.0705951,
2,0,0,0,0,55490.3,0.0666689,0.0663446,-0.612221,84,0.609874,10,-4.06175e-05,-3.21309,0.790374,0.0746482,0.0666139,
2,0,0,1,0,55491.1,0.0626737,0.0623203,-0.602734,84,0.609377,10,-3.75626e-05,-3.21987,0.608578,0.0969473,0.0625855,
2,0,0,1,0,55491.9,0.0586783,0.0583215,-0.59534,84,0.608887,10,-3.47211e-05,-3.22523,0.511873,0.115263,0.0585834,
2,0,0,1,0,55492.7,0.0546835,0.0543408,-0.585101,84,0.608404,10,-3.17948e-05,-3.23277,0.915104,0.0644736,0.0545982,
2,0,0,1,0,55493.5,0.0506886,0.0503433,-0.575899,84,0.607929,10,-2.89927e-05,-3.23965,0.482687,0.122232,0.0505967,
2,0,0,0,0,55494.3,0.046693,0.0463835,-0.565838,84,0.607461,10,-2.62455e-05,-3.24731,0.493713,0.119503,0.0466324,
2,0,0,1,0,55495.1,0.0426979,0.0423624,-0.557274,84,0.607001,10,-2.36075e-05,-3.25393,0.602738,0.0978866,0.0426076,
2,0,0,1,0,55495.9,0.0387022,0.0383589,-0.547241,84,0.606549,10,-2.09916e-05,-3.26182,0.443543,0.13302,0.0385997,
2,0,0,1,0,55496.7,0.0347074,0.0343668,-0.537622,84,0.606105,10,-1.84764e-05,-3.26952,0.59194,0.0996723,0.0346034,
2,0,0,1,0,55497.5,0.0307126,0.0303895,-0.526949,84,0.605669,10,-1.60137e-05,-3.27823,0.535821,0.110111,0.0306213,
2,0,0,0,0,55498.3,0.0267172,0.0264149,-0.519361,84,0.60524,10,-1.37189e-05,-3.28453,0.52147,0.113142,0.0266435,
2,0,0,1,0,55499.1,0.022722,0.0224013,-0.511989,84,0.604817,10,-1.14692e-05,-3.29074,0.874102,0.0674979,0.0226266,
2,0,0,0,0,55499.9,0.0187268,0.018411,-0.504953,84,0.604401,10,-9.29668e-06,-3.29675,0.671813,0.087822,0.0186332,
2,0,0,1,0,55500.7,0.0147313,0.0143609,-0.501675,84,0.603988,10,-7.20449e-06,-3.29958,1.27085,0.0464257,0.0145816,
2,0,0,1,0,55501.5,0.0107365,0.0104071,-0.497452,84,0.603579,10,-5.17702e-06,-3.30325,1.8314,0.0322157,0.0106259,
2,0,0,1,0,55502.3,0.00674163,0.00639367,-0.496039,84,0.603172,10,-3.17151e-06,-3.30448,3.20624,0.0184016,0.00661192,
2,0,0,1,0,55503.1,0.00274612,0.00241477,-0.496113,84,0.602766,10,-1.198e-06,-3.30442,-1.73404,-0.0340246,0.00263306,
2,0,0,0,0,55503.6,0.000274105,-0.000118942,-0.497346,84,0.602512,10,5.91553e-08,-3.30334, , ,9.98905e-05,