File: Figure_codes/Fig_3-5/workspace_calculate_alpha_eff/20221101_1-115_003_TrumpetPlot_ParaChange_from10_every3_16_CV_C01_52.csv
mode,ox/red,error,control changes,counter inc.,time/s,control/V,Ewe/V,<I>/mA,cycle number,(Q-Qo)/C,I Range,P/W,log(|I|),Tafel slope mV/dec,alpha_eff,E-IR/V,
2,0,0,0,0,35092.3,2.44065e-05,-0.000363498,-0.0714086,53,0.0000000E+000,10,2.59569e-08,-4.14625, , ,-0.000332078,
2,1,0,0,0,35093.1,0.00379485,0.00347199,0.156313,53,9.86013e-05,10,5.42717e-07,-3.80601,0.0360698,1.63572,0.00340321,
2,1,0,1,0,35093.9,0.00779002,0.00745276,0.179524,53,0.00024486,10,1.33795e-06,-3.74588,0.075551,0.780929,0.00737377,
2,1,0,0,0,35094.7,0.0117852,0.0114431,0.19545,53,0.00040689,10,2.23654e-06,-3.70897,0.118615,0.497409,0.0113571,
2,1,0,1,0,35095.5,0.0157806,0.0154505,0.212121,53,0.000581131,10,3.27738e-06,-3.67342,0.136634,0.43181,0.0153572,
2,1,0,1,0,35096.3,0.0197754,0.0194363,0.224637,53,0.000766686,10,4.36611e-06,-3.64852,0.149491,0.394673,0.0193375,
2,1,0,1,0,35097.1,0.0237704,0.0234679,0.238232,53,0.000963483,10,5.59081e-06,-3.623,0.154115,0.38283,0.0233631,
2,1,0,1,0,35097.9,0.0277659,0.0274308,0.252647,53,0.00117093,10,6.9303e-06,-3.59749,0.171936,0.343151,0.0273196,
2,1,0,0,0,35098.7,0.0317611,0.0314328,0.265747,53,0.00138999,10,8.35317e-06,-3.57553,0.158205,0.372935,0.0313159,
2,1,0,1,0,35099.5,0.0357567,0.0354214,0.280715,53,0.00162043,10,9.94331e-06,-3.55173,0.229731,0.256823,0.0352979,
2,1,0,1,0,35100.3,0.0397516,0.0394201,0.295168,53,0.00186194,10,1.16355e-05,-3.52993,0.161815,0.364613,0.0392903,
2,1,0,1,0,35101.1,0.0437465,0.0434429,0.307706,53,0.00211528,10,1.33676e-05,-3.51186,0.222895,0.264698,0.0433075,
2,1,0,1,0,35101.9,0.0477413,0.0474095,0.32209,53,0.00237886,10,1.52701e-05,-3.49202,0.215793,0.27341,0.0472678,
2,1,0,0,0,35102.7,0.0517369,0.0514533,0.335304,53,0.00265289,10,1.72525e-05,-3.47456,0.235556,0.250472,0.0513057,
2,1,0,1,0,35103.5,0.0557321,0.0554086,0.346612,53,0.00293735,10,1.92053e-05,-3.46016,0.321435,0.183552,0.0552561,
2,1,0,1,0,35104.3,0.0597277,0.059357,0.35888,53,0.00323058,10,2.1302e-05,-3.44505,0.301104,0.195946,0.0591991,
2,1,0,1,0,35105.1,0.0637226,0.0633903,0.368416,53,0.00353281,10,2.3354e-05,-3.43366,0.304513,0.193752,0.0632282,
2,1,0,1,0,35105.9,0.0677174,0.0674026,0.379336,53,0.00384396,10,2.55683e-05,-3.42098,0.455086,0.129646,0.0672357,
2,1,0,0,0,35106.7,0.0717128,0.0713815,0.387789,53,0.0041623,10,2.76809e-05,-3.4114,0.366186,0.16112,0.0712109,
2,1,0,1,0,35107.5,0.075708,0.0753866,0.395546,53,0.00448782,10,2.98189e-05,-3.4028,0.411089,0.143521,0.0752126,
2,1,0,0,0,35108.3,0.0797031,0.0793462,0.40605,53,0.00481966,10,3.22185e-05,-3.39142,0.44687,0.132029,0.0791675,
2,1,0,1,0,35109.1,0.0836986,0.0833654,0.412686,53,0.00515828,10,3.44037e-05,-3.38438,0.404351,0.145913,0.0831838,
2,1,0,1,0,35109.9,0.0876935,0.0873598,0.424017,53,0.00550487,10,3.7042e-05,-3.37262,0.329326,0.179154,0.0871732,
2,1,0,1,0,35110.7,0.0916883,0.0913412,0.437776,53,0.00586048,10,3.9987e-05,-3.35875,0.262717,0.224576,0.0911486,
2,1,0,1,0,35111.5,0.0956838,0.0953392,0.453755,53,0.0062288,10,4.32606e-05,-3.34318,0.217015,0.27187,0.0951396,
2,1,0,0,0,35112.3,0.099679,0.0993561,0.474747,53,0.00661206,10,4.7169e-05,-3.32354,0.237039,0.248904,0.0991472,
2,1,0,1,0,35113.1,0.103674,0.103353,0.496838,53,0.00701203,10,5.13495e-05,-3.30379,0.178224,0.331044,0.103134,
2,1,0,1,0,35113.9,0.10767,0.107362,0.517482,53,0.0074307,10,5.5558e-05,-3.2861,0.215343,0.273981,0.107135,
2,1,0,1,0,35114.7,0.111664,0.111323,0.539205,53,0.00786563,10,6.00257e-05,-3.26825,0.282414,0.208913,0.111085,
2,1,0,1,0,35115.5,0.115659,0.11534,0.555163,53,0.00831485,10,6.40325e-05,-3.25558,0.313075,0.188453,0.115096,
2,1,0,0,0,35116.3,0.119655,0.119342,0.568768,53,0.00877655,10,6.78776e-05,-3.24507,0.54663,0.107934,0.119091,
2,1,0,1,0,35117.1,0.12365,0.123372,0.581161,53,0.0092475,10,7.16991e-05,-3.2357,0.447049,0.131976,0.123116,
2,1,0,1,0,35117.9,0.127646,0.127322,0.589159,53,0.00972745,10,7.50126e-05,-3.22977,0.684199,0.0862323,0.127062,
2,1,0,1,0,35118.7,0.131641,0.131312,0.595024,53,0.0102139,10,7.81336e-05,-3.22547,-1.40532,-0.0419833,0.13105,
2,1,0,1,0,35119.5,0.135635,0.13531,0.585648,53,0.0106985,10,7.9244e-05,-3.23236,-0.34754,-0.169764,0.135052,
2,1,0,0,0,35120.3,0.139631,0.139287,0.555,53,0.0111688,10,7.73042e-05,-3.25571,-0.131942,-0.447165,0.139043,
2,1,0,1,0,35121.1,0.143626,0.143315,0.509948,53,0.0116077,10,7.30833e-05,-3.29247,-0.0830879,-0.710091,0.143091,
2,1,0,0,0,35121.9,0.147621,0.147302,0.447933,53,0.0120025,10,6.59816e-05,-3.34879,-0.0704855,-0.837051,0.147105,
2,1,0,1,0,35122.7,0.151617,0.151311,0.393957,53,0.0123507,10,5.961e-05,-3.40455,-0.0771094,-0.765147,0.151138,
2,1,0,1,0,35123.5,0.155612,0.1553,0.355796,53,0.0126602,10,5.52553e-05,-3.4488,-0.102196,-0.57732,0.155144,
2,1,0,1,0,35124.3,0.159606,0.159273,0.327812,53,0.0129436,10,5.22117e-05,-3.48437,-0.142387,-0.414365,0.159129,
2,1,0,1,0,35125.1,0.163602,0.163311,0.310636,53,0.0132099,10,5.07304e-05,-3.50775,-0.175525,-0.336134,0.163175,
2,1,0,0,0,35125.9,0.167597,0.167237,0.299248,53,0.0134643,10,5.00453e-05,-3.52397,-0.311541,-0.189381,0.167105,
2,1,0,1,0,35126.6,0.171592,0.171258,0.289083,53,0.0137107,10,4.95078e-05,-3.53898,-0.372389,-0.158437,0.171131,
2,1,0,1,0,35127.4,0.175588,0.175264,0.284247,53,0.0139512,10,4.98184e-05,-3.5463,-0.416999,-0.141487,0.175139,
2,1,0,1,0,35128.2,0.179582,0.179253,0.27895,53,0.0141867,10,5.00024e-05,-3.55447,-0.664772,-0.0887522,0.17913,
2,1,0,1,0,35129,0.183577,0.183279,0.274271,53,0.0144192,10,5.02682e-05,-3.56182,-0.69658,-0.0846995,0.183159,
2,1,0,0,0,35129.8,0.187573,0.187318,0.270893,53,0.0146484,10,5.07431e-05,-3.5672,-0.736253,-0.0801355,0.187199,
2,1,0,1,0,35130.6,0.191568,0.191194,0.26732,53,0.014875,10,5.11098e-05,-3.57297,-0.85906,-0.0686798,0.191076,
2,1,0,0,0,35131.4,0.195563,0.195246,0.265672,53,0.0150999,10,5.18715e-05,-3.57565,-0.64658,-0.0912493,0.19513,
2,1,0,1,0,35132.2,0.199559,0.199214,0.263024,53,0.0153223,10,5.23979e-05,-3.58001,-1.66438,-0.0354487,0.199098,
2,1,0,1,0,35133,0.203553,0.20325,0.261584,53,0.0155432,10,5.3167e-05,-3.58239,-2.53071,-0.0233136,0.203135,
2,1,0,1,0,35133.8,0.207548,0.207257,0.259925,53,0.0157628,10,5.38713e-05,-3.58515,-2.0955,-0.0281556,0.207143,
2,1,0,1,0,35134.6,0.211544,0.211225,0.257613,53,0.0159807,10,5.44142e-05,-3.58903,-1.56936,-0.0375949,0.211111,
2,1,0,0,0,35135.4,0.215539,0.215208,0.256235,53,0.0161973,10,5.51436e-05,-3.59136,-1.0866,-0.0542979,0.215095,
2,1,0,1,0,35136.2,0.219535,0.219263,0.256219,53,0.0164128,10,5.61793e-05,-3.59139,-2.639,-0.0223569,0.21915,
2,1,0,1,0,35137,0.223529,0.223215,0.253874,53,0.0166275,10,5.66684e-05,-3.59538,-1.14523,-0.0515182,0.223103,
2,1,0,1,0,35137.8,0.227524,0.227239,0.25293,53,0.0168411,10,5.74754e-05,-3.597,-1.34416,-0.0438934,0.227127,
2,1,0,1,0,35138.6,0.23152,0.231187,0.251635,53,0.0170536,10,5.81747e-05,-3.59923,-151.908,-0.000388392,0.231076,
2,1,0,0,0,35139.4,0.235515,0.235157,0.249014,53,0.0172655,10,5.85575e-05,-3.60378,-1.39188,-0.0423887,0.235047,
2,1,0,1,0,35140.2,0.23951,0.239214,0.249277,53,0.0174762,10,5.96305e-05,-3.60332,-19.7294,-0.00299045,0.239104,
2,1,0,1,0,35141,0.243506,0.243136,0.248794,53,0.0176864,10,6.04908e-05,-3.60416,-8.15612,-0.00723383,0.243026,
2,1,0,1,0,35141.8,0.2475,0.247145,0.248651,53,0.017896,10,6.14528e-05,-3.60441,-1.28475,-0.0459232,0.247035,
2,1,0,1,0,35142.6,0.251495,0.251207,0.247864,53,0.0181048,10,6.22652e-05,-3.60579,-11.4878,-0.00513588,0.251098,
2,1,0,0,0,35143.4,0.255491,0.255143,0.246328,53,0.0183127,10,6.28486e-05,-3.60849,-1.81285,-0.0325454,0.255034,
2,1,0,1,0,35144.2,0.259486,0.25922,0.245759,53,0.01852,10,6.37057e-05,-3.60949,-1.54034,-0.0383032,0.259112,
2,1,0,0,0,35145,0.263481,0.263158,0.244398,53,0.0187264,10,6.43154e-05,-3.6119,-31.9672,-0.00184564,0.263051,
2,1,0,1,0,35145.8,0.267477,0.267135,0.243551,53,0.0189323,10,6.5061e-05,-3.61341,-2.2683,-0.0260106,0.267028,
2,1,0,1,0,35146.6,0.271471,0.271163,0.242957,53,0.0191372,10,6.58809e-05,-3.61447,-1.99589,-0.0295608,0.271056,
2,1,0,1,0,35147.4,0.275466,0.275173,0.241827,53,0.0193413,10,6.65442e-05,-3.6165,-1.13614,-0.0519301,0.275067,
2,1,0,1,0,35148.2,0.279462,0.279162,0.240435,53,0.0195446,10,6.71204e-05,-3.619,7.35354,0.00802335,0.279056,
2,1,0,0,0,35149,0.283457,0.283081,0.240223,53,0.0197471,10,6.80027e-05,-3.61938,-1.92998,-0.0305703,0.282975,
2,1,0,1,0,35149.8,0.287452,0.287132,0.238865,53,0.0199489,10,6.85858e-05,-3.62185,-2.42995,-0.0242804,0.287027,
2,1,0,1,0,35150.6,0.291448,0.291079,0.23708,53,0.02015,10,6.90089e-05,-3.62511,-0.701183,-0.0841435,0.290974,
2,1,0,1,0,35151.4,0.295442,0.29515,0.236202,53,0.0203499,10,6.9715e-05,-3.62672,3.23193,0.0182554,0.295046,
2,1,0,1,0,35152.2,0.299437,0.299167,0.235632,53,0.0205494,10,7.04933e-05,-3.62777,11.7511,0.00502082,0.299064,
2,1,0,0,0,35153,0.303433,0.303137,0.235084,53,0.0207481,10,7.12624e-05,-3.62878,-0.979317,-0.0602461,0.303033,
2,1,0,1,0,35153.8,0.307428,0.307099,0.233807,53,0.0209459,10,7.1802e-05,-3.63114,-10.0601,-0.00586474,0.306996,
2,1,0,1,0,35154.6,0.311424,0.311086,0.23407,53,0.0211433,10,7.2816e-05,-3.63065,-1.58234,-0.0372866,0.310983,
2,1,0,1,0,35155.4,0.315418,0.315132,0.232756,53,0.0213396,10,7.33489e-05,-3.6331,-5.16876,-0.0114147,0.315029,
2,1,0,1,0,35156.2,0.319413,0.319101,0.232171,53,0.0215354,10,7.40859e-05,-3.63419,-39.7072,-0.00148588,0.318999,
2,1,0,0,0,35157,0.323409,0.323099,0.231565,53,0.0217312,10,7.48183e-05,-3.63533,-1.25997,-0.0468264,0.322997,
2,1,0,1,0,35157.8,0.327404,0.327053,0.230611,53,0.0219261,10,7.54219e-05,-3.63712,3.88682,0.0151795,0.326951,
2,1,0,0,0,35158.6,0.331399,0.331065,0.229388,53,0.0221206,10,7.59423e-05,-3.63943,-1.77496,-0.0332403,0.330965,
2,1,0,1,0,35159.4,0.335395,0.335101,0.230025,53,0.0223143,10,7.70815e-05,-3.63822,-3.25887,-0.0181044,0.334999,
2,1,0,1,0,35160.2,0.339389,0.339075,0.229323,53,0.0225075,10,7.77575e-05,-3.63955,-11.8441,-0.00498138,0.338974,
2,1,0,1,0,35161,0.343384,0.343081,0.227914,53,0.0227002,10,7.81928e-05,-3.64223,-1.68997,-0.0349118,0.34298,
2,1,0,1,0,35161.8,0.34738,0.347034,0.228167,53,0.0228923,10,7.91816e-05,-3.64175,2.74688,0.0214789,0.346934,
2,1,0,0,0,35162.6,0.351375,0.351101,0.227024,53,0.0230841,10,7.97084e-05,-3.64393,-1.77295,-0.0332779,0.351001,
2,1,0,1,0,35163.4,0.35537,0.355047,0.226658,53,0.0232753,10,8.04741e-05,-3.64463,-1.86443,-0.0316451,0.354947,
2,1,0,1,0,35164.2,0.359366,0.359041,0.226187,53,0.023466,10,8.12103e-05,-3.64553,66.6374,0.000885389,0.358942,
2,1,0,1,0,35165,0.36336,0.363071,0.225797,53,0.0236566,10,8.19804e-05,-3.64628,-13.9183,-0.00423902,0.362972,
2,1,0,1,0,35165.8,0.367355,0.367053,0.225739,53,0.0238466,10,8.28584e-05,-3.64639,-3.07257,-0.0192022,0.366954,
2,1,0,0,0,35166.6,0.371351,0.37103,0.225119,53,0.0240363,10,8.3526e-05,-3.64759,14.9806,0.00393842,0.370931,
2,1,0,1,0,35167.4,0.375346,0.375022,0.225113,53,0.024226,10,8.44225e-05,-3.6476,-1.66149,-0.0355103,0.374923,
2,1,0,1,0,35168.2,0.379342,0.37902,0.224564,53,0.024415,10,8.51141e-05,-3.64866,-5.32434,-0.0110812,0.378921,
2,1,0,1,0,35169,0.383336,0.383087,0.225023,53,0.0246036,10,8.62035e-05,-3.64777,-8.56031,-0.00689228,0.382988,
2,1,0,1,0,35169.8,0.387331,0.386998,0.22453,53,0.0247921,10,8.68928e-05,-3.64873,-5.10873,-0.0115489,0.3869,
2,1,0,0,0,35170.6,0.391327,0.391008,0.22399,53,0.0249804,10,8.75819e-05,-3.64977,2.61662,0.0225482,0.39091,
2,1,0,1,0,35171.4,0.395322,0.394995,0.222378,53,0.0251687,10,8.78381e-05,-3.65291,10.0328,0.00588069,0.394897,
2,1,0,0,0,35172.2,0.399317,0.399032,0.223386,53,0.0253566,10,8.91383e-05,-3.65094,-1.67121,-0.0353037,0.398934,
2,1,0,1,0,35173,0.403313,0.40297,0.223348,53,0.0255441,10,9.00023e-05,-3.65102,4.37841,0.0134752,0.402872,
2,1,0,1,0,35173.8,0.407307,0.407022,0.22291,53,0.0257314,10,9.07294e-05,-3.65187,-4.44707,-0.0132672,0.406924,
2,1,0,1,0,35174.6,0.411302,0.410963,0.223536,53,0.0259185,10,9.18651e-05,-3.65065,123.785,0.000476633,0.410864,
2,1,0,1,0,35175.4,0.415298,0.414983,0.223142,53,0.0261056,10,9.26e-05,-3.65142,-22.6013,-0.00261046,0.414885,
2,1,0,0,0,35176.2,0.419293,0.419015,0.222491,53,0.0262925,10,9.3227e-05,-3.65269,-1.77163,-0.0333027,0.418917,
2,1,0,1,0,35177,0.423288,0.423043,0.222683,53,0.0264787,10,9.42046e-05,-3.65231,2.3655,0.0249418,0.422945,
2,1,0,1,0,35177.8,0.427283,0.426983,0.220709,53,0.0266651,10,9.4239e-05,-3.65618,-2.04212,-0.0288915,0.426886,
2,1,0,1,0,35178.6,0.431278,0.430947,0.222001,53,0.026851,10,9.56706e-05,-3.65365,-31.0817,-0.00189823,0.43085,
2,1,0,1,0,35179.4,0.435273,0.434973,0.22166,53,0.027037,10,9.64161e-05,-3.65431,471.726,0.000125073,0.434876,
2,1,0,0,0,35180.2,0.439269,0.438961,0.222169,53,0.027223,10,9.75233e-05,-3.65332,7.29603,0.0080866,0.438863,
2,1,0,1,0,35181,0.443264,0.442968,0.221662,53,0.0274089,10,9.81893e-05,-3.65431,-4.08127,-0.0144563,0.442871,
2,1,0,0,0,35181.8,0.447259,0.44695,0.22214,53,0.0275947,10,9.92854e-05,-3.65337,4.32803,0.0136321,0.446852,
2,1,0,1,0,35182.6,0.451254,0.450955,0.22279,53,0.0277809,10,0.000100469,-3.6521,14.7231,0.00400731,0.450857,
2,1,0,1,0,35183.4,0.455249,0.454974,0.222411,53,0.0279669,10,0.000101191,-3.65284,19.4018,0.00304096,0.454876,
2,1,0,1,0,35184.2,0.459244,0.458947,0.222071,53,0.0281531,10,0.000101919,-3.65351,2.8612,0.0206207,0.458849,
2,1,0,1,0,35185,0.46324,0.462951,0.222417,53,0.0283395,10,0.000102968,-3.65283,2.42394,0.0243406,0.462854,
2,1,0,0,0,35185.8,0.467235,0.466867,0.222884,53,0.028526,10,0.000104057,-3.65192,-14.9732,-0.00394037,0.466769,
2,1,0,1,0,35186.6,0.471231,0.470884,0.224446,53,0.028713,10,0.000105688,-3.64889,7.72828,0.0076343,0.470785,
2,1,0,1,0,35187.4,0.475225,0.474918,0.225343,53,0.0289004,10,0.00010702,-3.64716,10.8373,0.00544415,0.474819,
2,1,0,1,0,35188.2,0.47922,0.478946,0.224287,53,0.0290879,10,0.000107421,-3.6492,1.98689,0.0296946,0.478848,
2,1,0,1,0,35189,0.483216,0.482915,0.225353,53,0.0292758,10,0.000108826,-3.64714,-2.50192,-0.0235819,0.482816,
2,1,0,0,0,35189.8,0.487211,0.486882,0.225836,53,0.0294641,10,0.000109955,-3.64621,0.960604,0.0614197,0.486782,
2,1,0,1,0,35190.6,0.491206,0.490957,0.226136,53,0.029653,10,0.000111023,-3.64563,11.7673,0.00501388,0.490857,
2,1,0,1,0,35191.4,0.495201,0.494924,0.227817,53,0.0298425,10,0.000112752,-3.64241,2.68224,0.0219966,0.494824,
2,1,0,1,0,35192.2,0.499196,0.498878,0.227742,53,0.0300322,10,0.000113616,-3.64256,2.38144,0.0247749,0.498778,
2,1,0,1,0,35193,0.503191,0.502902,0.228408,53,0.0302226,10,0.000114867,-3.64129,1.93433,0.0305015,0.502801,
2,1,0,0,0,35193.8,0.507187,0.506883,0.229331,53,0.0304136,10,0.000116244,-3.63954,6.51397,0.00905746,0.506782,
2,1,0,1,0,35194.6,0.511182,0.510904,0.230016,53,0.0306052,10,0.000117516,-3.63824,2.23007,0.0264565,0.510803,
2,1,0,0,0,35195.4,0.515177,0.514892,0.23122,53,0.0307977,10,0.000119053,-3.63597,1.6238,0.0363344,0.51479,
2,1,0,1,0,35196.2,0.519173,0.518922,0.232226,53,0.030991,10,0.000120507,-3.63409,1.20523,0.0489535,0.51882,
2,1,0,1,0,35197,0.523167,0.522869,0.233013,53,0.0311854,10,0.000121835,-3.63262,1.95029,0.0302519,0.522766,
2,1,0,1,0,35197.8,0.527162,0.526876,0.236101,53,0.0313809,10,0.000124396,-3.6269,1.28501,0.0459142,0.526772,
2,1,0,1,0,35198.6,0.531158,0.530882,0.236774,53,0.0315774,10,0.000125699,-3.62567,1.28687,0.0458476,0.530778,
2,1,0,0,0,35199.4,0.535153,0.534865,0.238576,53,0.0317752,10,0.000127606,-3.62237,1.23804,0.0476559,0.53476,
2,1,0,1,0,35200.2,0.539148,0.538836,0.24033,53,0.0319744,10,0.000129499,-3.61919,0.992989,0.0594166,0.53873,
2,1,0,1,0,35201,0.543143,0.542851,0.242792,53,0.0321751,10,0.0001318,-3.61477,1.26075,0.0467977,0.542744,
2,1,0,1,0,35201.8,0.547138,0.546843,0.244097,53,0.0323775,10,0.000133483,-3.61244,2.37983,0.0247917,0.546736,
2,1,0,1,0,35202.6,0.551133,0.550806,0.246661,53,0.0325812,10,0.000135862,-3.6079,0.882305,0.0668703,0.550697,
2,1,0,0,0,35203.4,0.555129,0.554802,0.24887,53,0.0327868,10,0.000138074,-3.60403,1.01507,0.0581238,0.554692,
2,1,0,1,0,35204.2,0.559124,0.558882,0.251754,53,0.0329944,10,0.000140701,-3.59902,0.740463,0.0796799,0.558771,
2,1,0,1,0,35205,0.56312,0.562796,0.254962,53,0.0332041,10,0.000143491,-3.59353,0.72172,0.0817491,0.562684,
2,1,0,1,0,35205.8,0.567114,0.566839,0.258313,53,0.0334167,10,0.000146422,-3.58785,0.62101,0.0950065,0.566726,
2,1,0,1,0,35206.6,0.571109,0.570841,0.26129,53,0.0336317,10,0.000149155,-3.58288,0.595738,0.0990368,0.570726,
2,1,0,0,0,35207.4,0.575105,0.57484,0.264993,53,0.0338496,10,0.000152329,-3.57677,0.642566,0.0918193,0.574724,
2,1,0,1,0,35208.2,0.5791,0.57882,0.26964,53,0.0340708,10,0.000156073,-3.56922,0.59034,0.0999424,0.578701,
2,1,0,0,0,35208.9,0.583095,0.582777,0.27468,53,0.0342954,10,0.000160077,-3.56117,0.539589,0.109342,0.582656,
2,1,0,1,0,35209.7,0.58709,0.586753,0.279173,53,0.0345242,10,0.000163805,-3.55413,0.444521,0.132727,0.58663,
2,1,0,1,0,35210.5,0.591085,0.590774,0.286193,53,0.0347573,10,0.000169075,-3.54334,0.393185,0.150057,0.590648,
2,1,0,1,0,35211.3,0.59508,0.594754,0.292379,53,0.0349955,10,0.000173894,-3.53405,0.375205,0.157247,0.594626,
2,1,0,1,0,35212.1,0.599076,0.598786,0.299651,53,0.0352394,10,0.000179427,-3.52338,0.340977,0.173032,0.598655,
2,1,0,0,0,35212.9,0.603071,0.602818,0.30848,53,0.0354894,10,0.000185958,-3.51077,0.320063,0.184339,0.602682,
2,1,0,1,0,35213.7,0.607066,0.606785,0.317927,53,0.0357468,10,0.000192913,-3.49767,0.303465,0.194421,0.606645,
2,1,0,1,0,35214.5,0.611061,0.61079,0.328763,53,0.0360121,10,0.000200805,-3.48312,0.276827,0.21313,0.610646,
2,1,0,1,0,35215.3,0.615056,0.61479,0.341327,53,0.0362867,10,0.000209844,-3.46683,0.208232,0.283338,0.61464,
2,1,0,1,0,35216.1,0.619051,0.618769,0.355413,53,0.0365725,10,0.000219919,-3.44927,0.216676,0.272296,0.618613,
2,1,0,0,0,35216.9,0.623047,0.622732,0.372414,53,0.0368707,10,0.000231914,-3.42897,0.178164,0.331156,0.622569,
2,1,0,1,0,35217.7,0.627042,0.626741,0.392456,53,0.0371839,10,0.000245968,-3.40621,0.164993,0.357591,0.626568,
2,1,0,1,0,35218.5,0.631037,0.630777,0.415449,53,0.0375144,10,0.000262056,-3.38148,0.164435,0.358804,0.630594,
2,1,0,1,0,35219.3,0.635032,0.634724,0.442598,53,0.0378642,10,0.000280927,-3.35399,0.141364,0.417363,0.634529,
2,1,0,1,0,35220.1,0.639027,0.638727,0.473008,53,0.0382368,10,0.000302123,-3.32513,0.129205,0.456638,0.638519,
2,1,0,1,0,35220.9,0.643022,0.642742,0.509845,53,0.0386366,10,0.000327699,-3.29256,0.117484,0.502195,0.642518,
2,1,0,1,0,35221.7,0.647018,0.646698,0.550959,53,0.0390676,10,0.000356304,-3.25888,0.111642,0.528473,0.646455,
2,1,0,0,0,35222.5,0.651013,0.650723,0.599935,53,0.0395345,10,0.000390391,-3.2219,0.103893,0.56789,0.650459,
2,1,0,1,0,35223.3,0.655008,0.654745,0.659347,53,0.0400448,10,0.000431704,-3.18089,0.0955991,0.617161,0.654455,
2,1,0,1,0,35224.1,0.659003,0.658751,0.725922,53,0.0406052,10,0.000478202,-3.13911,0.0908472,0.649442,0.658432,
2,1,0,1,0,35224.9,0.662998,0.662763,0.805884,53,0.0412241,10,0.000534111,-3.09373,0.0860259,0.68584,0.662409,
2,1,0,1,0,35225.7,0.666994,0.666742,0.896663,53,0.0419105,10,0.000597843,-3.04737,0.0843135,0.699769,0.666348,
2,1,0,0,0,35226.5,0.670989,0.67069,1.00002,53,0.0426749,10,0.000670703,-2.99999,0.0822229,0.717562,0.67025,
2,1,0,1,0,35227.3,0.674984,0.674719,1.11963,53,0.0435285,10,0.000755438,-2.95092,0.0798618,0.738777,0.674226,
2,1,0,1,0,35228.1,0.67898,0.678753,1.25585,53,0.044484,10,0.00085241,-2.90106,0.0779248,0.75714,0.678201,
2,1,0,1,0,35228.9,0.682974,0.682706,1.40987,53,0.0455555,10,0.000962527,-2.85082,0.0778048,0.758308,0.682085,
2,1,0,1,0,35229.7,0.686969,0.686662,1.58101,53,0.0467568,10,0.00108562,-2.80106,0.0790315,0.746538,0.685966,
2,1,0,0,0,35230.5,0.690965,0.690693,1.77533,53,0.0481043,10,0.00122621,-2.75072,0.0770877,0.765362,0.689912,
2,1,0,1,0,35231.3,0.69496,0.694694,1.98958,53,0.0496146,10,0.00138215,-2.70124,0.0806044,0.73197,0.693818,
2,1,0,0,0,35232.1,0.698955,0.698681,2.22388,53,0.0513037,10,0.00155378,-2.65289,0.0812477,0.726175,0.697702,
2,1,0,1,0,35232.9,0.70295,0.702643,2.48068,53,0.0531898,10,0.00174303,-2.60543,0.0826085,0.714212,0.701551,
2,1,0,1,0,35233.7,0.706945,0.706657,2.75971,53,0.055289,10,0.00195017,-2.55914,0.0848068,0.695699,0.705443,
2,1,0,1,0,35234.5,0.71094,0.710654,3.0581,53,0.0576198,10,0.00217325,-2.51455,0.0861188,0.6851,0.709308,
2,1,0,1,0,35235.3,0.714936,0.714661,3.38228,53,0.0601996,10,0.00241718,-2.47079,0.0905555,0.651534,0.713173,
2,1,0,0,0,35236.1,0.718931,0.718659,3.7281,53,0.0630462,10,0.00267924,-2.42851,0.0939063,0.628286,0.717018,
2,1,0,1,0,35236.9,0.722927,0.722661,4.09513,53,0.0661782,10,0.0029594,-2.38773,0.093158,0.633333,0.72086,
2,1,0,1,0,35237.7,0.726921,0.726618,4.48468,53,0.0696124,10,0.00325865,-2.34827,0.0994052,0.59353,0.724645,
2,1,0,1,0,35238.5,0.730916,0.730651,4.89777,53,0.0733668,10,0.00357856,-2.31,0.100186,0.588905,0.728496,
2,1,0,1,0,35239.3,0.734911,0.734606,5.33277,53,0.0774606,10,0.00391748,-2.27305,0.103722,0.568827,0.732259,
2,1,0,0,0,35240.1,0.738907,0.738627,5.79131,53,0.0819118,10,0.00427762,-2.23722,0.10962,0.538225,0.736079,
2,1,0,1,0,35240.9,0.742902,0.742618,6.27457,53,0.0867382,10,0.00465961,-2.20242,0.109559,0.538525,0.739857,
2,1,0,1,0,35241.7,0.746897,0.746636,6.7811,53,0.0919608,10,0.00506301,-2.1687,0.114504,0.515266,0.743652,
2,1,0,1,0,35242.5,0.750892,0.750623,7.31252,53,0.097597,10,0.00548895,-2.13593,0.115859,0.509241,0.747405,
2,1,0,1,0,35243.3,0.754887,0.754624,7.86966,53,0.103669,10,0.00593864,-2.10404,0.11812,0.499491,0.751162,
2,1,0,0,0,35244.1,0.758883,0.758604,8.45543,53,0.110198,10,0.00641433,-2.07286,0.120526,0.489522,0.754884,
2,1,0,1,0,35244.9,0.762878,0.762592,9.06659,53,0.117203,10,0.00691411,-2.04256,0.126302,0.467135,0.758602,
2,1,0,0,0,35245.7,0.766873,0.766631,9.71332,53,0.124712,10,0.00744653,-2.01263,0.123329,0.478397,0.762357,
2,1,0,1,0,35246.5,0.770868,0.770634,10.4008,53,0.132754,10,0.00801518,-1.98293,0.124451,0.474082,0.766058,
2,1,0,1,0,35247.3,0.774863,0.774569,11.1267,53,0.141359,10,0.0086184,-1.95363,0.125583,0.46981,0.769673,
2,1,0,1,0,35248.1,0.778858,0.77858,11.8969,53,0.150563,10,0.00926267,-1.92457,0.125381,0.470564,0.773345,
2,1,0,1,0,35248.9,0.782854,0.782588,12.7159,53,0.160402,10,0.00995132,-1.89565,0.125762,0.46914,0.776993,
2,1,0,0,0,35249.7,0.786849,0.786574,13.5925,53,0.170917,10,0.0106915,-1.8667,0.123884,0.476252,0.780593,
2,1,0,1,0,35250.5,0.790844,0.790544,14.5239,53,0.182155,10,0.0114818,-1.83792,0.125744,0.469208,0.784153,
2,1,0,1,0,35251.3,0.794839,0.794606,15.5122,53,0.194161,10,0.0123261,-1.80933,0.123588,0.477391,0.787781,
2,1,0,1,0,35252.1,0.798834,0.79862,16.5534,53,0.206978,10,0.0132199,-1.78111,0.12316,0.479051,0.791336,
2,1,0,1,0,35252.9,0.802829,0.80256,17.6872,53,0.220668,10,0.014195,-1.75234,0.12446,0.47405,0.794778,
2,1,0,0,0,35253.7,0.806825,0.806571,18.8561,53,0.235276,10,0.0152088,-1.72455,0.125103,0.471612,0.798274,
2,1,0,1,0,35254.5,0.81082,0.810582,20.0867,53,0.250844,10,0.0162819,-1.69709,0.125942,0.46847,0.801744,
2,1,0,1,0,35255.3,0.814815,0.814528,21.373,53,0.267415,10,0.0174089,-1.67014,0.128151,0.460394,0.805124,
2,1,0,1,0,35256.1,0.81881,0.818516,22.6609,53,0.285024,10,0.0185484,-1.64472,0.138386,0.426345,0.808546,
2,1,0,1,0,35256.9,0.822805,0.822558,23.987,53,0.303672,10,0.0197307,-1.62002,0.139297,0.423554,0.812004,
2,1,0,0,0,35257.7,0.826801,0.826551,25.3839,53,0.323408,10,0.0209811,-1.59544,0.141355,0.417388,0.815382,
2,1,0,1,0,35258.5,0.830796,0.830561,26.795,53,0.344259,10,0.0222549,-1.57195,0.142267,0.414713,0.818772,
2,1,0,0,0,35259.3,0.834791,0.834522,28.2954,53,0.366274,10,0.0236131,-1.54828,0.145363,0.40588,0.822072,
2,1,0,1,0,35260.1,0.838786,0.838548,29.793,53,0.389493,10,0.0249829,-1.52589,0.149797,0.393867,0.825439,
2,1,0,1,0,35260.9,0.842781,0.842541,31.2692,53,0.413908,10,0.0263456,-1.50488,0.167013,0.353265,0.828782,
2,1,0,1,0,35261.7,0.846776,0.846545,32.7654,53,0.439498,10,0.0277374,-1.48458,0.159577,0.369728,0.832128,
2,1,0,0,0,35262.4,0.849723,0.849421,33.7914,53,0.462909,10,0.0287032,-1.47119,0.0448132,1.31658,0.834553,
2,1,0,1,0,35263.2,0.845728,0.845417,31.5818,53,0.488939,10,0.0266998,-1.50056,0.124237,0.4749,0.831521,
2,1,0,0,0,35264,0.841732,0.841439,29.8096,53,0.513457,10,0.025083,-1.52564,0.124515,0.473837,0.828323,
2,1,0,1,0,35264.8,0.837737,0.837502,28.0676,53,0.53656,10,0.0235067,-1.55179,0.123847,0.476395,0.825152,
2,1,0,1,0,35265.6,0.833742,0.833508,26.4236,53,0.558311,10,0.0220243,-1.57801,0.126867,0.465053,0.821882,
2,1,0,1,0,35266.4,0.829747,0.829459,24.8903,53,0.578789,10,0.0206455,-1.60397,0.129096,0.457024,0.818507,
2,1,0,1,0,35267.2,0.825752,0.825504,23.4305,53,0.598082,10,0.019342,-1.63022,0.126967,0.464689,0.815195,
2,1,0,0,0,35268,0.821757,0.821494,22.0402,53,0.616234,10,0.0181059,-1.65679,0.124193,0.475068,0.811796,
2,1,0,1,0,35268.8,0.817761,0.817481,20.6351,53,0.633278,10,0.0168688,-1.68539,0.120544,0.489447,0.808401,
2,1,0,1,0,35269.6,0.813766,0.813469,19.3521,53,0.649241,10,0.0157424,-1.71327,0.122186,0.482869,0.804954,
2,1,0,1,0,35270.4,0.809771,0.809539,18.1327,53,0.664202,10,0.0146791,-1.74154,0.118534,0.497745,0.801561,
2,1,0,1,0,35271.2,0.805776,0.805492,16.9437,53,0.678198,10,0.013648,-1.77099,0.121467,0.48573,0.798036,
2,1,0,0,0,35272,0.801781,0.801513,15.8469,53,0.69129,10,0.0127015,-1.80006,0.119478,0.493814,0.79454,
2,1,0,1,0,35272.8,0.797786,0.797519,14.7817,53,0.703515,10,0.0117887,-1.83028,0.112767,0.523203,0.791015,
2,1,0,1,0,35273.6,0.79379,0.793482,13.7431,53,0.714903,10,0.0109049,-1.86192,0.11314,0.521478,0.787435,
2,1,0,1,0,35274.4,0.789795,0.78953,12.7776,53,0.725486,10,0.0100883,-1.89355,0.110874,0.532134,0.783908,
2,1,0,1,0,35275.2,0.7858,0.785533,11.8619,53,0.735315,10,0.00931792,-1.92585,0.116038,0.508454,0.780313,
2,1,0,0,0,35276,0.781805,0.781509,11.039,53,0.744457,10,0.00862707,-1.95707,0.11305,0.521891,0.776652,
2,1,0,1,0,35276.8,0.77781,0.777523,10.2385,53,0.752947,10,0.00796068,-1.98976,0.109918,0.536763,0.773018,
2,1,0,0,0,35277.6,0.773814,0.773538,9.47358,53,0.76081,10,0.00732817,-2.02349,0.107183,0.550459,0.76937,
2,1,0,1,0,35278.4,0.769819,0.769547,8.75851,53,0.768082,10,0.00674009,-2.05757,0.107144,0.550662,0.765694,
2,1,0,1,0,35279.2,0.765824,0.765576,8.0865,53,0.774799,10,0.00619082,-2.09224,0.106931,0.551757,0.762018,
2,1,0,1,0,35280,0.761829,0.76157,7.45436,53,0.780997,10,0.00567702,-2.12759,0.104903,0.562425,0.75829,
2,1,0,1,0,35280.8,0.757834,0.757584,6.86375,53,0.786707,10,0.00519987,-2.16344,0.102417,0.576074,0.754564,
2,1,0,0,0,35281.6,0.753839,0.753586,6.3098,53,0.791959,10,0.00475498,-2.19998,0.102599,0.575053,0.750809,
2,1,0,1,0,35282.4,0.749844,0.749528,5.78912,53,0.796783,10,0.00433911,-2.23739,0.0994636,0.593182,0.746981,
2,1,0,1,0,35283.2,0.745848,0.745621,5.30029,53,0.801203,10,0.00395201,-2.2757,0.097969,0.602232,0.743289,
2,1,0,1,0,35284,0.741853,0.741547,4.84324,53,0.805246,10,0.00359149,-2.31486,0.0939598,0.627928,0.739416,
2,1,0,1,0,35284.8,0.737858,0.737594,4.40928,53,0.808932,10,0.00325226,-2.35563,0.0932372,0.632795,0.735654,
2,1,0,0,0,35285.6,0.733863,0.733594,4.00787,53,0.812285,10,0.00294014,-2.39709,0.0904947,0.651972,0.73183,
2,1,0,1,0,35286.4,0.729868,0.729581,3.62951,53,0.815326,10,0.00264802,-2.44015,0.0890973,0.662197,0.727984,
2,1,0,1,0,35287.2,0.725872,0.725616,3.27763,53,0.818076,10,0.0023783,-2.48444,0.0853915,0.690936,0.724174,
2,1,0,1,0,35288,0.721877,0.72158,2.94784,53,0.820554,10,0.0021271,-2.5305,0.0824672,0.715436,0.720283,
2,1,0,1,0,35288.8,0.717882,0.717618,2.64217,53,0.822778,10,0.00189607,-2.57804,0.0791059,0.745836,0.716455,
2,1,0,0,0,35289.6,0.713887,0.713598,2.36024,53,0.824768,10,0.00168426,-2.62704,0.077278,0.763477,0.712559,
2,1,0,1,0,35290.4,0.709892,0.709581,2.09579,53,0.826539,10,0.00148714,-2.67865,0.0741018,0.796202,0.708659,
2,1,0,0,0,35291.2,0.705897,0.705605,1.85341,53,0.828108,10,0.00130777,-2.73203,0.070622,0.835434,0.70479,
2,1,0,1,0,35292,0.701901,0.70165,1.62926,53,0.82949,10,0.00114317,-2.78801,0.067934,0.868491,0.700933,
2,1,0,1,0,35292.7,0.697906,0.697657,1.42506,53,0.830701,10,0.000994202,-2.84617,0.0658815,0.895547,0.69703,
2,1,0,1,0,35293.5,0.693911,0.693654,1.23856,53,0.831756,10,0.00085913,-2.90708,0.0630639,0.935559,0.693109,
2,1,0,1,0,35294.3,0.689916,0.689626,1.06808,53,0.832668,10,0.000736577,-2.9714,0.0603674,0.977349,0.689156,
2,1,0,0,0,35295.1,0.685921,0.685679,0.916888,53,0.833453,10,0.000628691,-3.03768,0.0570357,1.03444,0.685276,
2,1,0,1,0,35295.9,0.681926,0.681581,0.780332,53,0.834122,10,0.000531859,-3.10772,0.0545947,1.08069,0.681237,
2,1,0,1,0,35296.7,0.67793,0.677656,0.656288,53,0.834687,10,0.000444737,-3.18291,0.0516402,1.14252,0.677367,
2,1,0,1,0,35297.5,0.673935,0.673687,0.549772,53,0.835161,10,0.000370375,-3.25982,0.0500261,1.17938,0.673445,
2,1,0,1,0,35298.3,0.66994,0.669688,0.455384,53,0.835553,10,0.000304965,-3.34162,0.0462997,1.27431,0.669487,
2,1,0,0,0,35299.1,0.665945,0.665644,0.370413,53,0.835874,10,0.000246563,-3.43131,0.0434456,1.35802,0.665481,
2,1,0,1,0,35299.9,0.66195,0.661693,0.299392,53,0.836133,10,0.000198106,-3.52376,0.0403758,1.46127,0.661561,
2,1,0,0,0,35300.7,0.657955,0.65768,0.23634,53,0.836339,10,0.000155436,-3.62646,0.0372351,1.58453,0.657576,
2,1,0,1,0,35301.5,0.653959,0.653672,0.182057,53,0.836498,10,0.000119005,-3.73979,0.0331239,1.78119,0.653591,
2,1,0,1,0,35302.3,0.649964,0.649675,0.136574,53,0.836617,10,8.87285e-05,-3.86463,0.0290301,2.03237,0.649615,
2,1,0,1,0,35303.1,0.64597,0.645686,0.0966872,53,0.836702,10,6.24296e-05,-4.01463,0.0252428,2.3373,0.645644,
2,1,0,1,0,35303.9,0.641974,0.641656,0.0638659,53,0.836758,10,4.098e-05,-4.19473,0.0186456,3.16429,0.641628,
2,1,0,0,0,35304.7,0.637979,0.637714,0.0360557,53,0.836789,10,2.29932e-05,-4.44303,0.011666,5.05744,0.637698,
2,1,0,1,0,35305.5,0.633983,0.633726,0.0110086,53,0.8368,10,6.97641e-06,-4.95827,0.00384143,15.3589,0.633721,
2,0,0,1,0,35306.3,0.629988,0.629647,-0.00807748,53,0.836793,10,-5.08596e-06,-5.09272,-0.00423004,-13.9479,0.629651,
2,0,0,1,0,35307.1,0.625993,0.625747,-0.0244266,53,0.836773,10,-1.52849e-05,-4.61214,-0.0153264,-3.84956,0.625758,
2,0,0,1,0,35307.9,0.621998,0.621715,-0.0373191,53,0.83674,10,-2.32019e-05,-4.42807,-0.0261418,-2.25692,0.621732,
2,0,0,0,0,35308.7,0.618003,0.617709,-0.0497305,53,0.836698,10,-3.0719e-05,-4.30338,-0.0389625,-1.51428,0.617731,
2,0,0,1,0,35309.5,0.614008,0.613698,-0.0589442,53,0.836647,10,-3.61739e-05,-4.22956,-0.0661409,-0.892036,0.613724,
2,0,0,1,0,35310.3,0.610012,0.609662,-0.0670862,53,0.836588,10,-4.08999e-05,-4.17337,-0.0781507,-0.754951,0.609692,
2,0,0,1,0,35311.1,0.606017,0.605722,-0.0734215,53,0.836524,10,-4.4473e-05,-4.13418,-0.106549,-0.553738,0.605755,
2,0,0,1,0,35311.9,0.602022,0.601715,-0.0799943,53,0.836455,10,-4.81338e-05,-4.09694,-0.181668,-0.324767,0.601751,
2,0,0,0,0,35312.7,0.598027,0.59778,-0.0834034,53,0.836381,10,-4.98569e-05,-4.07882,-0.156385,-0.377274,0.597817,
2,0,0,1,0,35313.5,0.594032,0.593754,-0.0884505,53,0.836304,10,-5.25178e-05,-4.0533,-0.192611,-0.306318,0.593792,
2,0,0,0,0,35314.3,0.590037,0.589754,-0.0929572,53,0.836224,10,-5.48218e-05,-4.03172,-0.233589,-0.25258,0.589795,
2,0,0,1,0,35315.1,0.586041,0.585768,-0.0954415,53,0.836141,10,-5.59066e-05,-4.02026,-0.299368,-0.197082,0.58581,
2,0,0,1,0,35315.9,0.582046,0.58176,-0.0988278,53,0.836055,10,-5.74941e-05,-4.00512,-0.435497,-0.135477,0.581804,
2,0,0,1,0,35316.7,0.578052,0.577792,-0.100396,53,0.835968,10,-5.80077e-05,-3.99829,-0.291203,-0.202608,0.577836,
2,0,0,1,0,35317.5,0.574056,0.573751,-0.101675,53,0.835878,10,-5.83359e-05,-3.99279,-0.429142,-0.137484,0.573796,
2,0,0,0,0,35318.3,0.570061,0.569789,-0.104613,53,0.835787,10,-5.96076e-05,-3.98041,-0.93163,-0.0633299,0.569835,
2,0,0,1,0,35319.1,0.566065,0.565752,-0.106032,53,0.835695,10,-5.9988e-05,-3.97456,-0.607937,-0.0970495,0.565799,
2,0,0,1,0,35319.9,0.56207,0.561758,-0.107345,53,0.835601,10,-6.03017e-05,-3.96922,-0.41722,-0.141412,0.561805,
2,0,0,1,0,35320.7,0.558075,0.557785,-0.109599,53,0.835507,10,-6.11327e-05,-3.96019,-0.68322,-0.0863558,0.557833,
2,0,0,1,0,35321.5,0.55408,0.553776,-0.110727,53,0.835411,10,-6.13177e-05,-3.95575,-0.771529,-0.0764715,0.553825,
2,0,0,0,0,35322.3,0.550085,0.549797,-0.11205,53,0.835313,10,-6.16046e-05,-3.95059,15.0696,0.00391517,0.549846,
2,0,0,1,0,35323.1,0.54609,0.545813,-0.112689,53,0.835216,10,-6.1507e-05,-3.94812,-0.756215,-0.0780202,0.545862,
2,0,0,1,0,35323.9,0.542094,0.541783,-0.113891,53,0.835117,10,-6.17044e-05,-3.94351,-0.674696,-0.0874468,0.541833,
2,0,0,1,0,35324.7,0.538099,0.537811,-0.115525,53,0.835017,10,-6.21306e-05,-3.93732,3.84037,0.0153631,0.537862,
2,0,0,1,0,35325.5,0.534104,0.533807,-0.115547,53,0.834917,10,-6.16799e-05,-3.93724,-0.460336,-0.128167,0.533858,
2,0,0,0,0,35326.3,0.530109,0.529817,-0.117082,53,0.834816,10,-6.20322e-05,-3.93151,-1.11802,-0.0527718,0.529869,
2,0,0,1,0,35327.1,0.526114,0.52582,-0.118644,53,0.834714,10,-6.23855e-05,-3.92575,-1.38152,-0.0427064,0.525872,
2,0,0,0,0,35327.9,0.522119,0.521821,-0.119126,53,0.834611,10,-6.21623e-05,-3.92399,-1.87969,-0.0313881,0.521873,
2,0,0,1,0,35328.7,0.518123,0.517852,-0.119442,53,0.834507,10,-6.18533e-05,-3.92284,-2.00942,-0.0293617,0.517905,
2,0,0,1,0,35329.5,0.514128,0.513866,-0.120149,53,0.834403,10,-6.17403e-05,-3.92028,-0.856887,-0.0688539,0.513919,
2,0,0,1,0,35330.3,0.510133,0.509842,-0.120568,53,0.834298,10,-6.14708e-05,-3.91877,-1.44644,-0.0407899,0.509895,
2,0,0,1,0,35331.1,0.506138,0.505855,-0.123132,53,0.834192,10,-6.22869e-05,-3.90963,-1.74292,-0.0338513,0.50591,
2,0,0,0,0,35331.9,0.502143,0.501849,-0.123394,53,0.834086,10,-6.19251e-05,-3.90871,-0.619195,-0.095285,0.501903,
2,0,0,1,0,35332.7,0.498148,0.497856,-0.12421,53,0.833978,10,-6.18385e-05,-3.90584,15.1555,0.00389299,0.49791,
2,0,0,1,0,35333.5,0.494152,0.493865,-0.126978,53,0.83387,10,-6.27098e-05,-3.89627,-0.493729,-0.119499,0.493921,
2,0,0,1,0,35334.3,0.490157,0.489845,-0.127008,53,0.83376,10,-6.22145e-05,-3.89617,-1.18016,-0.0499931,0.489901,
2,0,0,1,0,35335.1,0.486162,0.485816,-0.128173,53,0.83365,10,-6.22686e-05,-3.8922,-2.21007,-0.0266959,0.485873,
2,0,0,0,0,35335.9,0.482167,0.481826,-0.129211,53,0.833539,10,-6.22572e-05,-3.8887,-0.651631,-0.090542,0.481882,
2,0,0,1,0,35336.7,0.478172,0.477874,-0.129888,53,0.833427,10,-6.20703e-05,-3.88643,-1.62093,-0.0363989,0.477932,
2,0,0,0,0,35337.5,0.474177,0.47388,-0.131934,53,0.833314,10,-6.2521e-05,-3.87964,-1.61858,-0.0364516,0.473938,
2,0,0,1,0,35338.3,0.470181,0.469852,-0.132735,53,0.833199,10,-6.23659e-05,-3.87701,-0.777823,-0.0758528,0.469911,
2,0,0,1,0,35339.1,0.466186,0.465896,-0.134641,53,0.833084,10,-6.27286e-05,-3.87082,-0.827044,-0.0713384,0.465956,
2,0,0,1,0,35339.9,0.462191,0.461866,-0.135621,53,0.832968,10,-6.26386e-05,-3.86767,-0.595954,-0.0990009,0.461926,
2,0,0,1,0,35340.7,0.458196,0.457887,-0.13693,53,0.83285,10,-6.26985e-05,-3.8635,-1.66542,-0.0354265,0.457947,
2,0,0,0,0,35341.5,0.454201,0.453901,-0.13915,53,0.832731,10,-6.31605e-05,-3.85652,-0.677737,-0.0870544,0.453962,
2,0,0,1,0,35342.3,0.450205,0.449894,-0.140416,53,0.832611,10,-6.31724e-05,-3.85258,-0.652015,-0.0904887,0.449956,
2,0,0,1,0,35343.1,0.44621,0.445963,-0.140746,53,0.83249,10,-6.27676e-05,-3.85156,-1.7939,-0.0328892,0.446025,
2,0,0,1,0,35343.9,0.442215,0.441916,-0.142361,53,0.832368,10,-6.29115e-05,-3.84661,-1.57876,-0.0373711,0.441979,
2,0,0,1,0,35344.7,0.43822,0.437878,-0.144682,53,0.832244,10,-6.3353e-05,-3.83959,-0.397926,-0.148269,0.437942,
2,0,0,0,0,35345.5,0.434225,0.43387,-0.145729,53,0.832119,10,-6.32273e-05,-3.83645,-2.65852,-0.0221928,0.433934,
2,0,0,1,0,35346.3,0.43023,0.42992,-0.14856,53,0.831992,10,-6.38688e-05,-3.8281,-0.567984,-0.103876,0.429985,
2,0,0,1,0,35347.1,0.426234,0.425916,-0.150378,53,0.831865,10,-6.40482e-05,-3.82282,-0.581648,-0.101436,0.425982,
2,0,0,1,0,35347.9,0.422239,0.421939,-0.151608,53,0.831735,10,-6.39692e-05,-3.81928,-1.80078,-0.0327635,0.422006,
2,0,0,1,0,35348.7,0.418244,0.41798,-0.15283,53,0.831604,10,-6.38798e-05,-3.81579,-0.679909,-0.0867763,0.418047,
2,0,0,0,0,35349.5,0.414249,0.413969,-0.154052,53,0.831472,10,-6.37726e-05,-3.81233,-0.721294,-0.0817975,0.414037,
2,0,0,1,0,35350.3,0.410254,0.409937,-0.155977,53,0.831338,10,-6.39409e-05,-3.80694,-1.74795,-0.0337539,0.410006,
2,0,0,0,0,35351.1,0.406259,0.405909,-0.158747,53,0.831203,10,-6.4437e-05,-3.79929,-0.596844,-0.0988533,0.405979,
2,0,0,1,0,35351.9,0.402263,0.40195,-0.161382,53,0.831065,10,-6.48675e-05,-3.79215,-0.555589,-0.106194,0.402021,
2,0,0,1,0,35352.7,0.398268,0.397934,-0.163093,53,0.830927,10,-6.49003e-05,-3.78756,-0.875695,-0.067375,0.398005,
2,0,0,1,0,35353.5,0.394274,0.394,-0.164972,53,0.830787,10,-6.49991e-05,-3.78259,-0.626788,-0.0941307,0.394072,
2,0,0,1,0,35354.3,0.390278,0.389971,-0.166987,53,0.830644,10,-6.51202e-05,-3.77732,-1.01888,-0.0579065,0.390045,
2,0,0,0,0,35355.1,0.386283,0.386005,-0.168677,53,0.830501,10,-6.51103e-05,-3.77294,-0.708228,-0.0833065,0.386079,
2,0,0,1,0,35355.9,0.382287,0.382016,-0.170959,53,0.830355,10,-6.53093e-05,-3.76711,-0.802758,-0.0734966,0.382092,
2,0,0,1,0,35356.7,0.378292,0.378016,-0.173068,53,0.830208,10,-6.54226e-05,-3.76178,-1.32296,-0.0445969,0.378092,
2,0,0,1,0,35357.5,0.374297,0.373987,-0.17576,53,0.830059,10,-6.5732e-05,-3.75508,-0.589504,-0.100084,0.374064,
2,0,0,1,0,35358.3,0.370303,0.369957,-0.179593,53,0.829908,10,-6.64417e-05,-3.74571,-0.577905,-0.102093,0.370036,
2,0,0,0,0,35359.1,0.366307,0.365996,-0.179672,53,0.829755,10,-6.57595e-05,-3.74552,-0.891121,-0.0662087,0.366075,
2,0,0,1,0,35359.9,0.362312,0.362004,-0.181252,53,0.8296,10,-6.5614e-05,-3.74172,-0.671573,-0.0878534,0.362084,
2,0,0,1,0,35360.7,0.358316,0.357995,-0.183556,53,0.829444,10,-6.57121e-05,-3.73623,-0.687069,-0.085872,0.358076,
2,0,0,1,0,35361.5,0.354321,0.35403,-0.185704,53,0.829286,10,-6.57446e-05,-3.73118,-0.880421,-0.0670134,0.354112,
2,0,0,1,0,35362.3,0.350327,0.35005,-0.187558,53,0.829126,10,-6.56546e-05,-3.72687,-0.901981,-0.0654116,0.350133,
2,0,0,0,0,35363.1,0.346331,0.346036,-0.189821,53,0.828964,10,-6.5685e-05,-3.72166,-0.980163,-0.0601941,0.34612,
2,0,0,1,0,35363.9,0.342336,0.341985,-0.192355,53,0.828801,10,-6.57824e-05,-3.7159,-0.459972,-0.128269,0.342069,
2,0,0,0,0,35364.7,0.338341,0.338063,-0.194526,53,0.828636,10,-6.57621e-05,-3.71102,-1.63264,-0.0361379,0.338149,
2,0,0,1,0,35365.5,0.334345,0.334024,-0.198243,53,0.828469,10,-6.62179e-05,-3.7028,-0.616803,-0.0956545,0.334111,
2,0,0,1,0,35366.3,0.33035,0.330004,-0.199814,53,0.828299,10,-6.59395e-05,-3.69937,-0.808526,-0.0729723,0.330092,
2,0,0,1,0,35367.1,0.326355,0.326064,-0.202154,53,0.828128,10,-6.59152e-05,-3.69432,-1.13351,-0.0520508,0.326153,
2,0,0,1,0,35367.9,0.32236,0.32205,-0.204453,53,0.827955,10,-6.5844e-05,-3.68941,-0.787077,-0.0749609,0.32214,
2,0,0,0,0,35368.7,0.318365,0.318066,-0.206462,53,0.82778,10,-6.56686e-05,-3.68516,-0.557042,-0.105917,0.318157,
2,0,0,1,0,35369.5,0.31437,0.314041,-0.210167,53,0.827603,10,-6.60009e-05,-3.67744,-1.53946,-0.0383251,0.314133,
2,0,0,1,0,35370.3,0.310374,0.310036,-0.212532,53,0.827424,10,-6.58927e-05,-3.67258,-0.443258,-0.133105,0.31013,
2,0,0,1,0,35371.1,0.306379,0.306079,-0.214563,53,0.827243,10,-6.56732e-05,-3.66845,-1.22056,-0.0483386,0.306174,
2,0,0,1,0,35371.9,0.302385,0.302076,-0.216539,53,0.827059,10,-6.54112e-05,-3.66446,-0.793515,-0.0743527,0.302171,
2,0,0,0,0,35372.7,0.298389,0.298102,-0.21865,53,0.826874,10,-6.51799e-05,-3.66025,-0.713192,-0.0827267,0.298198,
2,0,0,1,0,35373.5,0.294394,0.29408,-0.222047,53,0.826687,10,-6.52994e-05,-3.65356,-1.12996,-0.0522142,0.294177,
2,0,0,1,0,35374.3,0.290398,0.290054,-0.224717,53,0.826497,10,-6.51801e-05,-3.64836,-0.852353,-0.0692201,0.290153,
2,0,0,1,0,35375,0.286403,0.286079,-0.226294,53,0.826305,10,-6.47378e-05,-3.64533,-0.710882,-0.0829955,0.286178,
2,0,0,1,0,35375.8,0.282408,0.282118,-0.229653,53,0.826112,10,-6.47893e-05,-3.63893,-0.926501,-0.0636805,0.28222,
2,0,0,1,0,35376.6,0.278414,0.278138,-0.232517,53,0.825916,10,-6.46719e-05,-3.63354,-0.561954,-0.104991,0.27824,
2,0,0,1,0,35377.4,0.274418,0.274123,-0.235446,53,0.825718,10,-6.45411e-05,-3.62811,-0.885812,-0.0666055,0.274226,
2,0,0,0,0,35378.2,0.270423,0.270085,-0.23957,53,0.825518,10,-6.47042e-05,-3.62057,-0.763998,-0.0772253,0.27019,
2,0,0,1,0,35379,0.266427,0.266082,-0.240666,53,0.825316,10,-6.40371e-05,-3.61858,-0.911158,-0.0647528,0.266188,
2,0,0,1,0,35379.8,0.262432,0.262137,-0.243063,53,0.825111,10,-6.37158e-05,-3.61428,-0.953884,-0.0618524,0.262244,
2,0,0,1,0,35380.6,0.258437,0.258101,-0.245624,53,0.824905,10,-6.33959e-05,-3.60973,-0.973576,-0.0606013,0.258209,
2,0,0,1,0,35381.4,0.254442,0.254116,-0.247216,53,0.824697,10,-6.28214e-05,-3.60692,-0.891065,-0.0662129,0.254225,
2,0,0,0,0,35382.2,0.250447,0.25012,-0.249574,53,0.824486,10,-6.24236e-05,-3.6028,-2.98653,-0.0197554,0.25023,
2,0,0,1,0,35383,0.246452,0.246158,-0.252977,53,0.824274,10,-6.22723e-05,-3.59692,-0.547464,-0.10777,0.246269,
2,0,0,1,0,35383.8,0.242456,0.24211,-0.255327,53,0.82406,10,-6.18171e-05,-3.5929,-1.26731,-0.0465553,0.242222,
2,0,0,1,0,35384.6,0.238461,0.238136,-0.257452,53,0.823844,10,-6.13085e-05,-3.5893,-0.877127,-0.067265,0.238249,
2,0,0,1,0,35385.4,0.234467,0.234127,-0.259765,53,0.823626,10,-6.08178e-05,-3.58542,-0.741625,-0.079555,0.234241,
2,0,0,0,0,35386.2,0.230471,0.230149,-0.26282,53,0.823405,10,-6.04878e-05,-3.58034,-1.98729,-0.0296887,0.230264,
2,0,0,1,0,35387,0.226476,0.226169,-0.266068,53,0.823183,10,-6.01764e-05,-3.57501,-0.735674,-0.0801986,0.226286,
2,0,0,0,0,35387.8,0.222481,0.222197,-0.267069,53,0.822959,10,-5.93419e-05,-3.57338,-0.941138,-0.0626901,0.222314,
2,0,0,1,0,35388.6,0.218485,0.218182,-0.270641,53,0.822733,10,-5.90488e-05,-3.56761,-3.68582,-0.0160073,0.218301,
2,0,0,1,0,35389.4,0.21449,0.214154,-0.273078,53,0.822505,10,-5.84807e-05,-3.56371,-0.585314,-0.100801,0.214274,
2,0,0,1,0,35390.2,0.210496,0.210198,-0.275974,53,0.822274,10,-5.8009e-05,-3.55913,-0.93422,-0.0631543,0.210319,
2,0,0,1,0,35391,0.2065,0.206164,-0.280192,53,0.822041,10,-5.77656e-05,-3.55254,-0.781173,-0.0755275,0.206288,
2,0,0,0,0,35391.8,0.202505,0.202197,-0.281816,53,0.821806,10,-5.69825e-05,-3.55003,-0.847985,-0.0695767,0.202321,
2,0,0,1,0,35392.6,0.198509,0.1982,-0.28459,53,0.821568,10,-5.64059e-05,-3.54578,-0.83146,-0.0709595,0.198325,
2,0,0,1,0,35393.4,0.194514,0.194163,-0.288578,53,0.821328,10,-5.60312e-05,-3.53974,-0.67241,-0.0877441,0.19429,
2,0,0,1,0,35394.2,0.190519,0.190195,-0.291559,53,0.821084,10,-5.5453e-05,-3.53527,-0.73638,-0.0801217,0.190323,
2,0,0,1,0,35395,0.186524,0.186205,-0.29692,53,0.820837,10,-5.52882e-05,-3.52736,-0.870366,-0.0677876,0.186336,
2,0,0,0,0,35395.8,0.182529,0.182212,-0.301034,53,0.820587,10,-5.4852e-05,-3.52138,-0.422763,-0.139558,0.182344,
2,0,0,1,0,35396.6,0.178534,0.178183,-0.30644,53,0.820332,10,-5.46026e-05,-3.51365,-0.493397,-0.119579,0.178318,
2,0,0,1,0,35397.4,0.174538,0.174191,-0.313047,53,0.820073,10,-5.45299e-05,-3.50439,-0.363707,-0.162219,0.174329,
2,0,0,1,0,35398.2,0.170543,0.170228,-0.320067,53,0.819808,10,-5.44845e-05,-3.49476,-0.428989,-0.137533,0.170369,
2,0,0,1,0,35399,0.166549,0.166198,-0.328959,53,0.819537,10,-5.46724e-05,-3.48286,-0.320327,-0.184187,0.166343,
2,0,0,0,0,35399.8,0.162553,0.162216,-0.339205,53,0.819258,10,-5.50244e-05,-3.46954,-0.271009,-0.217705,0.162365,
2,0,0,1,0,35400.6,0.158558,0.158266,-0.350447,53,0.81897,10,-5.54638e-05,-3.45538,-0.231561,-0.254793,0.15842,
2,0,0,0,0,35401.4,0.154563,0.154269,-0.369902,53,0.81867,10,-5.70644e-05,-3.43191,-0.182671,-0.322985,0.154432,
2,0,0,1,0,35402.2,0.150567,0.150245,-0.39155,53,0.818355,10,-5.88284e-05,-3.40721,-0.133187,-0.442987,0.150417,
2,0,0,1,0,35403,0.146572,0.14625,-0.421197,53,0.81802,10,-6.15999e-05,-3.37551,-0.119392,-0.494171,0.146435,
2,0,0,1,0,35403.8,0.142578,0.142249,-0.459275,53,0.817657,10,-6.53313e-05,-3.33793,-0.0956155,-0.617055,0.142451,
2,0,0,1,0,35404.6,0.138582,0.138262,-0.50601,53,0.81726,10,-6.99621e-05,-3.29584,-0.0938576,-0.628612,0.138485,
2,0,0,0,0,35405.4,0.134587,0.134238,-0.556458,53,0.816823,10,-7.46979e-05,-3.25457,-0.0982868,-0.600284,0.134483,
2,0,0,1,0,35406.2,0.130591,0.130283,-0.607968,53,0.816345,10,-7.92077e-05,-3.21612,-0.111504,-0.529131,0.13055,
2,0,0,1,0,35407,0.126596,0.126296,-0.649514,53,0.815828,10,-8.20308e-05,-3.18741,-0.174898,-0.337339,0.126581,
2,0,0,1,0,35407.8,0.122602,0.122281,-0.680543,53,0.815283,10,-8.32177e-05,-3.16714,-0.252673,-0.233503,0.122581,
2,0,0,1,0,35408.6,0.118607,0.11827,-0.698708,53,0.814718,10,-8.2636e-05,-3.1557,-0.437196,-0.134951,0.118577,
2,0,0,0,0,35409.4,0.114611,0.114281,-0.708175,53,0.814142,10,-8.09312e-05,-3.14986,-2.32908,-0.0253319,0.114593,
2,0,0,1,0,35410.2,0.110616,0.11029,-0.709153,53,0.813563,10,-7.82124e-05,-3.14926,10.0736,0.00585692,0.110602,
2,0,0,1,0,35411,0.10662,0.106286,-0.705323,53,0.812985,10,-7.49657e-05,-3.15161,2.64842,0.0222775,0.106596,
2,0,0,1,0,35411.8,0.102625,0.102316,-0.701133,53,0.81241,10,-7.17369e-05,-3.1542,0.68822,0.0857283,0.102624,
2,0,0,1,0,35412.6,0.0986305,0.0983064,-0.692954,53,0.811841,10,-6.81218e-05,-3.1593,1.08695,0.0542803,0.0986113,
2,0,0,0,0,35413.4,0.0946351,0.0943149,-0.681993,53,0.811278,10,-6.43221e-05,-3.16622,0.672118,0.0877822,0.094615,
2,0,0,1,0,35414.2,0.0906399,0.0902981,-0.675941,53,0.810722,10,-6.10362e-05,-3.17009,0.555839,0.106146,0.0905955,
2,0,0,0,0,35415,0.0866448,0.0862897,-0.6653,53,0.810174,10,-5.74085e-05,-3.17698,0.670844,0.0879489,0.0865825,
2,0,0,1,0,35415.8,0.0826492,0.0822863,-0.657444,53,0.809633,10,-5.40986e-05,-3.18214,0.678666,0.0869352,0.0825755,
2,0,0,1,0,35416.6,0.0786544,0.0783219,-0.647458,53,0.8091,10,-5.07101e-05,-3.18879,0.660762,0.0892908,0.0786067,
2,0,0,1,0,35417.4,0.0746596,0.0743627,-0.637344,53,0.808575,10,-4.73946e-05,-3.19563,0.787726,0.0748991,0.0746431,
2,0,0,1,0,35418.2,0.0706641,0.0703232,-0.629471,53,0.808056,10,-4.42664e-05,-3.20102,0.560848,0.105198,0.0706002,
2,0,0,0,0,35419,0.0666689,0.0663573,-0.621282,53,0.807545,10,-4.12266e-05,-3.20671,0.811157,0.0727356,0.0666306,
2,0,0,1,0,35419.8,0.0626737,0.0623383,-0.610926,53,0.807039,10,-3.80841e-05,-3.21401,0.583602,0.101096,0.0626071,
2,0,0,1,0,35420.6,0.0586783,0.0583657,-0.605072,53,0.806541,10,-3.53154e-05,-3.21819,0.532371,0.110825,0.0586319,
2,0,0,1,0,35421.4,0.0546835,0.0543549,-0.594919,53,0.806049,10,-3.23367e-05,-3.22554,0.802359,0.0735332,0.0546166,
2,0,0,1,0,35422.2,0.0506886,0.0503669,-0.586459,53,0.805565,10,-2.95381e-05,-3.23176,0.528497,0.111637,0.0506249,
2,0,0,0,0,35423,0.046693,0.0463548,-0.57537,53,0.805089,10,-2.66712e-05,-3.24005,0.459944,0.128276,0.046608,
2,0,0,1,0,35423.8,0.0426979,0.0423995,-0.563996,53,0.804622,10,-2.39132e-05,-3.24872,0.641844,0.0919227,0.0426477,
2,0,0,1,0,35424.6,0.0387022,0.0383811,-0.553953,53,0.804162,10,-2.12614e-05,-3.25653,0.416575,0.141631,0.0386249,
2,0,0,1,0,35425.4,0.0347074,0.034389,-0.5446,53,0.803711,10,-1.87283e-05,-3.26392,0.551035,0.107071,0.0346286,
2,0,0,1,0,35426.2,0.0307126,0.0303841,-0.532243,53,0.803268,10,-1.61717e-05,-3.27389,0.521905,0.113047,0.0306183,
2,0,0,0,0,35427,0.0267172,0.0263874,-0.526133,53,0.802833,10,-1.38833e-05,-3.2789,0.480323,0.122834,0.0266189,
2,0,0,1,0,35427.8,0.022722,0.0224321,-0.518168,53,0.802405,10,-1.16236e-05,-3.28553,0.824742,0.0715375,0.0226601,
2,0,0,0,0,35428.6,0.0187268,0.018376,-0.511076,53,0.801982,10,-9.39153e-06,-3.29151,0.737647,0.079984,0.0186009,
2,0,0,1,0,35429.4,0.0147313,0.014379,-0.506433,53,0.801565,10,-7.28202e-06,-3.29548,1.03741,0.0568723,0.0146019,
2,0,0,1,0,35430.2,0.0107365,0.0104473,-0.502018,53,0.801151,10,-5.24471e-06,-3.29928,1.49459,0.0394757,0.0106681,
2,0,0,1,0,35431,0.00674163,0.00638625,-0.499218,53,0.800739,10,-3.18813e-06,-3.30171,3.96033,0.0148977,0.0066059,
2,0,0,1,0,35431.8,0.00274612,0.00241053,-0.499801,53,0.800329,10,-1.20478e-06,-3.3012,-2.38419,-0.0247463,0.00263044,
2,0,0,0,0,35432.3,0.000274105,-0.000141608,-0.50107,53,0.800072,10,7.09555e-08,-3.3001, , ,7.88626e-05,