File: Figure_codes/Fig_3-5/workspace_calculate_alpha_eff/20221101_1-115_003_TrumpetPlot_ParaChange_from10_every3_16_CV_C01_57.csv
mode,ox/red,error,control changes,counter inc.,time/s,control/V,Ewe/V,<I>/mA,cycle number,(Q-Qo)/C,I Range,P/W,log(|I|),Tafel slope mV/dec,alpha_eff,E-IR/V,
2,0,0,1,0,38662.6,2.44065e-05,-0.000344411,-0.0440593,58,0.0000000E+000,10,1.51745e-08,-4.35596, , ,-0.000325025,
2,1,0,1,0,38663.3,0.00379485,0.00345503,0.204361,58,0.000135148,10,7.06073e-07,-3.6896,0.0488611,1.20751,0.00336511,
2,1,0,0,0,38664.1,0.00779002,0.00741989,0.227239,58,0.000319856,10,1.68609e-06,-3.64352,0.10089,0.584794,0.0073199,
2,1,0,1,0,38664.9,0.0117852,0.0114812,0.242762,58,0.000520062,10,2.78721e-06,-3.61482,0.160646,0.367267,0.0113744,
2,1,0,1,0,38665.7,0.0157806,0.0154707,0.258254,58,0.000732338,10,3.99537e-06,-3.58795,0.158981,0.371114,0.015357,
2,1,0,1,0,38666.5,0.0197754,0.0194595,0.272321,58,0.000955634,10,5.29924e-06,-3.56492,0.174343,0.338412,0.0193397,
2,1,0,1,0,38667.3,0.0237704,0.023473,0.285146,58,0.00119016,10,6.69321e-06,-3.54493,0.199785,0.295318,0.0233475,
2,1,0,0,0,38668.1,0.0277659,0.0274435,0.299611,58,0.00143512,10,8.2224e-06,-3.52344,0.202279,0.291677,0.0273117,
2,1,0,1,0,38668.9,0.0317611,0.0313893,0.311612,58,0.00169125,10,9.78129e-06,-3.50639,0.189296,0.31168,0.0312522,
2,1,0,1,0,38669.7,0.0357567,0.0354405,0.326833,58,0.00195874,10,1.15831e-05,-3.48567,0.281501,0.209591,0.0352967,
2,1,0,1,0,38670.5,0.0397516,0.0394082,0.340128,58,0.00223693,10,1.34039e-05,-3.46836,0.190066,0.310418,0.0392586,
2,1,0,1,0,38671.3,0.0437465,0.0434545,0.352465,58,0.0025264,10,1.53162e-05,-3.45288,0.254345,0.231968,0.0432995,
2,1,0,1,0,38672.1,0.0477413,0.0474466,0.366352,58,0.00282583,10,1.73822e-05,-3.4361,0.266932,0.22103,0.0472854,
2,1,0,1,0,38672.9,0.0517369,0.0513801,0.377328,58,0.00313536,10,1.93871e-05,-3.42328,0.265605,0.222134,0.0512141,
2,1,0,0,0,38673.7,0.0557321,0.055398,0.390315,58,0.00345544,10,2.16227e-05,-3.40858,0.37717,0.156428,0.0552262,
2,1,0,1,0,38674.5,0.0597277,0.0594162,0.401758,58,0.00378397,10,2.38709e-05,-3.39604,0.342897,0.172063,0.0592394,
2,1,0,1,0,38675.3,0.0637226,0.063421,0.410209,58,0.00412077,10,2.60158e-05,-3.38699,0.457141,0.129063,0.0632405,
2,1,0,1,0,38676.1,0.0677174,0.0673749,0.420384,58,0.00446527,10,2.83233e-05,-3.37635,0.516062,0.114327,0.06719,
2,1,0,1,0,38676.9,0.0717128,0.0713624,0.427963,58,0.00481636,10,3.05405e-05,-3.36859,0.389325,0.151544,0.0711741,
2,1,0,0,0,38677.7,0.075708,0.0754078,0.434976,58,0.00517394,10,3.28006e-05,-3.36153,0.649215,0.0908789,0.0752165,
2,1,0,1,0,38678.5,0.0797031,0.0793663,0.443228,58,0.00553716,10,3.51774e-05,-3.35337,0.44467,0.132683,0.0791713,
2,1,0,1,0,38679.3,0.0836986,0.0833411,0.450817,58,0.00590637,10,3.75716e-05,-3.346,0.514966,0.114571,0.0831427,
2,1,0,1,0,38680.1,0.0876935,0.0873915,0.461092,58,0.00628296,10,4.02955e-05,-3.33621,0.430271,0.137123,0.0871887,
2,1,0,1,0,38680.9,0.0916883,0.0913518,0.474706,58,0.00666823,10,4.33653e-05,-3.32358,0.278904,0.211543,0.0911429,
2,1,0,0,0,38681.7,0.0956838,0.0953573,0.489541,58,0.00706593,10,4.66812e-05,-3.31021,0.228692,0.257988,0.0951419,
2,1,0,1,0,38682.5,0.099679,0.0993539,0.511436,58,0.00747868,10,5.08132e-05,-3.29121,0.248648,0.237283,0.0991289,
2,1,0,0,0,38683.3,0.103674,0.103338,0.532932,58,0.00790792,10,5.50721e-05,-3.27333,0.199312,0.296018,0.103103,
2,1,0,1,0,38684.1,0.10767,0.107324,0.553826,58,0.0083554,10,5.94389e-05,-3.25663,0.255599,0.23083,0.107081,
2,1,0,1,0,38684.9,0.111664,0.111296,0.573179,58,0.00881851,10,6.37927e-05,-3.24171,0.303887,0.194151,0.111044,
2,1,0,1,0,38685.7,0.115659,0.115319,0.58887,58,0.00929488,10,6.79077e-05,-3.22998,0.357193,0.165177,0.11506,
2,1,0,1,0,38686.5,0.119655,0.119302,0.600777,58,0.00978295,10,7.16741e-05,-3.22129,0.699585,0.0843357,0.119038,
2,1,0,0,0,38687.3,0.12365,0.123317,0.612211,58,0.0102793,10,7.5496e-05,-3.2131,0.492626,0.119766,0.123048,
2,1,0,1,0,38688.1,0.127646,0.12727,0.619394,58,0.0107841,10,7.883e-05,-3.20803,0.721128,0.0818163,0.126997,
2,1,0,1,0,38688.9,0.131641,0.131286,0.623724,58,0.011294,10,8.18861e-05,-3.20501,-0.785246,-0.0751357,0.131012,
2,1,0,1,0,38689.7,0.135635,0.135283,0.610358,58,0.0118006,10,8.25713e-05,-3.21442,-0.299246,-0.197162,0.135015,
2,1,0,1,0,38690.5,0.139631,0.139304,0.57823,58,0.0122901,10,8.05496e-05,-3.2379,-0.127586,-0.462432,0.139049,
2,1,0,0,0,38691.3,0.143626,0.143344,0.531723,58,0.0127461,10,7.62192e-05,-3.27431,-0.0881147,-0.669582,0.14311,
2,1,0,1,0,38692.1,0.147621,0.147296,0.470429,58,0.0131577,10,6.92922e-05,-3.32751,-0.074609,-0.790789,0.147089,
2,1,0,1,0,38692.9,0.151617,0.151307,0.417423,58,0.0135233,10,6.31589e-05,-3.37942,-0.0850724,-0.693527,0.151123,
2,1,0,1,0,38693.7,0.155612,0.155322,0.380604,58,0.0138525,10,5.91162e-05,-3.41953,-0.113644,-0.519165,0.155155,
2,1,0,1,0,38694.5,0.159606,0.159275,0.355112,58,0.0141571,10,5.65606e-05,-3.44963,-0.178274,-0.330952,0.159119,
2,1,0,0,0,38695.3,0.163602,0.163303,0.339147,58,0.0144458,10,5.53837e-05,-3.46961,-0.194071,-0.304012,0.163154,
2,1,0,1,0,38696.1,0.167597,0.167276,0.328197,58,0.0147233,10,5.48996e-05,-3.48386,-0.444839,-0.132632,0.167132,
2,1,0,0,0,38696.9,0.171592,0.171273,0.318842,58,0.0149936,10,5.4609e-05,-3.49642,-0.395002,-0.149367,0.171133,
2,1,0,1,0,38697.7,0.175588,0.175235,0.314174,58,0.015258,10,5.50542e-05,-3.50283,-0.555981,-0.106119,0.175096,
2,1,0,1,0,38698.5,0.179582,0.179261,0.308754,58,0.0155183,10,5.53475e-05,-3.51039,-0.952651,-0.0619325,0.179125,
2,1,0,1,0,38699.3,0.183577,0.183276,0.306555,58,0.0157757,10,5.61843e-05,-3.51349,-0.830482,-0.0710431,0.183141,
2,1,0,1,0,38700.1,0.187573,0.187223,0.30366,58,0.0160305,10,5.68523e-05,-3.51761,-0.739303,-0.0798049,0.18709,
2,1,0,0,0,38700.9,0.191568,0.191264,0.301179,58,0.016283,10,5.76047e-05,-3.52117,-3.17321,-0.0185932,0.191131,
2,1,0,1,0,38701.7,0.195563,0.19528,0.297879,58,0.0165339,10,5.81698e-05,-3.52596,-0.756508,-0.07799,0.195149,
2,1,0,1,0,38702.5,0.199559,0.199279,0.297301,58,0.0167829,10,5.9246e-05,-3.5268,-3.24756,-0.0181675,0.199149,
2,1,0,1,0,38703.3,0.203553,0.20322,0.293845,58,0.0170307,10,5.97152e-05,-3.53188,-1.8512,-0.0318712,0.203091,
2,1,0,1,0,38704.1,0.207548,0.207247,0.295022,58,0.0172772,10,6.11423e-05,-3.53015,-1.29376,-0.0456034,0.207117,
2,1,0,0,0,38704.9,0.211544,0.211216,0.291545,58,0.0175222,10,6.1579e-05,-3.53529,-2.56598,-0.0229932,0.211088,
2,1,0,1,0,38705.7,0.215539,0.215243,0.289713,58,0.017766,10,6.23586e-05,-3.53803,-1.35449,-0.0435588,0.215115,
2,1,0,1,0,38706.5,0.219535,0.219238,0.289807,58,0.0180086,10,6.35366e-05,-3.53789,-1.95711,-0.0301464,0.21911,
2,1,0,1,0,38707.3,0.223529,0.223196,0.288042,58,0.0182503,10,6.42898e-05,-3.54054,-6.20865,-0.00950288,0.223069,
2,1,0,1,0,38708.1,0.227524,0.227205,0.287205,58,0.0184912,10,6.52542e-05,-3.54181,-1.23701,-0.0476955,0.227078,
2,1,0,0,0,38708.9,0.23152,0.231237,0.286317,58,0.0187311,10,6.62069e-05,-3.54315,-6.89624,-0.00855538,0.231111,
2,1,0,1,0,38709.7,0.235515,0.235182,0.283225,58,0.0189702,10,6.66095e-05,-3.54787,-11.9995,-0.00491686,0.235058,
2,1,0,0,0,38710.5,0.23951,0.239192,0.283273,58,0.0192084,10,6.77567e-05,-3.54779,-3.29097,-0.0179278,0.239067,
2,1,0,1,0,38711.3,0.243506,0.243215,0.282808,58,0.0194457,10,6.87832e-05,-3.54851,9.13795,0.00645659,0.243091,
2,1,0,1,0,38712.1,0.2475,0.247184,0.282258,58,0.0196828,10,6.97697e-05,-3.54935,-0.933553,-0.0631994,0.24706,
2,1,0,1,0,38712.9,0.251495,0.251206,0.282232,58,0.019919,10,7.08983e-05,-3.54939,-9.40802,-0.00627124,0.251082,
2,1,0,1,0,38713.7,0.255491,0.255171,0.280689,58,0.0201547,10,7.16238e-05,-3.55177,7.70819,0.0076542,0.255048,
2,1,0,0,0,38714.5,0.259486,0.259219,0.2808,58,0.0203901,10,7.27886e-05,-3.5516,-1.00975,-0.0584302,0.259095,
2,1,0,1,0,38715.3,0.263481,0.263193,0.279755,58,0.0206248,10,7.36297e-05,-3.55322,-5.53553,-0.0106584,0.26307,
2,1,0,1,0,38716.1,0.267477,0.267174,0.2778,58,0.0208589,10,7.42209e-05,-3.55627,-2.92063,-0.0202011,0.267052,
2,1,0,1,0,38716.9,0.271471,0.271166,0.277749,58,0.0210921,10,7.53161e-05,-3.55635,-5.07651,-0.0116221,0.271044,
2,1,0,1,0,38717.7,0.275466,0.275154,0.27595,58,0.0213244,10,7.59286e-05,-3.55917,-5.14446,-0.0114686,0.275033,
2,1,0,0,0,38718.5,0.279462,0.27915,0.27637,58,0.0215562,10,7.71486e-05,-3.55851,-1.98852,-0.0296702,0.279028,
2,1,0,1,0,38719.3,0.283457,0.283156,0.27543,58,0.0217872,10,7.79899e-05,-3.55999,-5.88771,-0.0100209,0.283035,
2,1,0,0,0,38720.1,0.287452,0.287153,0.27516,58,0.0220174,10,7.90131e-05,-3.56041,-2.36901,-0.0249049,0.287032,
2,1,0,1,0,38720.9,0.291448,0.291113,0.272671,58,0.0222468,10,7.93779e-05,-3.56436,-1.15471,-0.0510952,0.290993,
2,1,0,1,0,38721.7,0.295442,0.295135,0.273346,58,0.0224753,10,8.06738e-05,-3.56329,13.7755,0.00428298,0.295014,
2,1,0,1,0,38722.5,0.299437,0.299128,0.270404,58,0.0227034,10,8.08853e-05,-3.56799,-3.89249,-0.0151574,0.299009,
2,1,0,1,0,38723.3,0.303433,0.303136,0.270642,58,0.0229308,10,8.20416e-05,-3.5676,-150.168,-0.000392894,0.303017,
2,1,0,0,0,38724.1,0.307428,0.307103,0.270313,58,0.0231572,10,8.3014e-05,-3.56813,-2.16924,-0.0271985,0.306985,
2,1,0,1,0,38724.9,0.311424,0.311088,0.26963,58,0.0233834,10,8.38787e-05,-3.56923,-6.69275,-0.00881551,0.310969,
2,1,0,1,0,38725.7,0.315418,0.315136,0.269278,58,0.0236086,10,8.48592e-05,-3.5698,-1.50751,-0.0391373,0.315018,
2,1,0,1,0,38726.5,0.319413,0.319125,0.26835,58,0.0238331,10,8.56371e-05,-3.5713,-3.448,-0.0171114,0.319007,
2,1,0,1,0,38727.3,0.323409,0.323151,0.267431,58,0.0240574,10,8.64206e-05,-3.57279,-1.69314,-0.0348466,0.323033,
2,1,0,0,0,38728.1,0.327404,0.327118,0.266981,58,0.0242808,10,8.73341e-05,-3.57352,-11.6306,-0.00507283,0.327,
2,1,0,1,0,38728.9,0.331399,0.331058,0.264995,58,0.0245038,10,8.77288e-05,-3.57676,215.817,0.00027338,0.330941,
2,1,0,1,0,38729.7,0.335395,0.335032,0.265823,58,0.0247264,10,8.90592e-05,-3.57541,-3.12445,-0.0188833,0.334915,
2,1,0,1,0,38730.5,0.339389,0.339074,0.26473,58,0.0249484,10,8.97631e-05,-3.5772,16.8601,0.00349939,0.338957,
2,1,0,1,0,38731.3,0.343384,0.343039,0.264133,58,0.0251701,10,9.06078e-05,-3.57818,-1.58872,-0.0371367,0.342923,
2,1,0,0,0,38732.1,0.34738,0.347061,0.264616,58,0.025391,10,9.18379e-05,-3.57738,-2.28025,-0.0258744,0.346944,
2,1,0,1,0,38732.9,0.351375,0.35105,0.263583,58,0.0256115,10,9.25307e-05,-3.57908,2.16608,0.0272381,0.350934,
2,1,0,0,0,38733.7,0.35537,0.355075,0.262453,58,0.0258316,10,9.31904e-05,-3.58095,-1.2492,-0.0472304,0.35496,
2,1,0,1,0,38734.5,0.359366,0.359054,0.262786,58,0.026051,10,9.43544e-05,-3.5804,-3.35074,-0.017608,0.358938,
2,1,0,1,0,38735.3,0.36336,0.363055,0.260659,58,0.0262701,10,9.46334e-05,-3.58393,13.0131,0.0045339,0.36294,
2,1,0,1,0,38736.1,0.367355,0.367056,0.260234,58,0.0264884,10,9.55205e-05,-3.58464,-2.44702,-0.024111,0.366942,
2,1,0,1,0,38736.9,0.371351,0.371058,0.259674,58,0.0267063,10,9.6354e-05,-3.58557,-10.3949,-0.00567585,0.370943,
2,1,0,0,0,38737.7,0.375346,0.375058,0.260416,58,0.026924,10,9.76709e-05,-3.58433,-10.5406,-0.00559742,0.374943,
2,1,0,1,0,38738.5,0.379342,0.379042,0.260051,58,0.0271412,10,9.85702e-05,-3.58494,-2.61937,-0.0225245,0.378928,
2,1,0,1,0,38739.3,0.383336,0.383021,0.259262,58,0.027358,10,9.93028e-05,-3.58626,-9.33607,-0.00631958,0.382907,
2,1,0,1,0,38740.1,0.387331,0.387061,0.259243,58,0.0275746,10,0.000100343,-3.58629,-5.37228,-0.0109823,0.386947,
2,1,0,1,0,38740.9,0.391327,0.391036,0.258076,58,0.0277907,10,0.000100917,-3.58825,11.8094,0.00499603,0.390922,
2,1,0,0,0,38741.7,0.395322,0.395035,0.257414,58,0.0280064,10,0.000101687,-3.58937,-2.1547,-0.027382,0.394921,
2,1,0,1,0,38742.5,0.399317,0.399026,0.25722,58,0.0282217,10,0.000102637,-3.5897,-14.0453,-0.00420069,0.398913,
2,1,0,1,0,38743.3,0.403313,0.402995,0.256824,58,0.0284367,10,0.000103499,-3.59036,-6.12685,-0.00962974,0.402882,
2,1,0,1,0,38744.1,0.407307,0.407026,0.256982,58,0.0286516,10,0.000104598,-3.5901,3.53824,0.016675,0.406913,
2,1,0,1,0,38744.9,0.411302,0.410972,0.257389,58,0.028866,10,0.000105779,-3.58941,-2.54444,-0.0231878,0.410859,
2,1,0,0,0,38745.7,0.415298,0.415022,0.256336,58,0.0290805,10,0.000106385,-3.59119,-30.3878,-0.00194157,0.414909,
2,1,0,1,0,38746.4,0.419293,0.418993,0.255593,58,0.0292945,10,0.000107092,-3.59245,-1.32125,-0.0446548,0.418881,
2,1,0,0,0,38747.2,0.423288,0.422986,0.256039,58,0.029508,10,0.000108301,-3.59169,1.35269,0.0436169,0.422873,
2,1,0,1,0,38748,0.427283,0.426973,0.256026,58,0.0297217,10,0.000109316,-3.59172,-21.7015,-0.00271871,0.426861,
2,1,0,1,0,38748.8,0.431278,0.430985,0.2562,58,0.0299351,10,0.000110419,-3.59142,-2.16231,-0.0272856,0.430873,
2,1,0,1,0,38749.6,0.435273,0.434962,0.254685,58,0.0301479,10,0.000110778,-3.594,51.855,0.00113779,0.43485,
2,1,0,1,0,38750.4,0.439269,0.438953,0.254522,58,0.030361,10,0.000111723,-3.59427,-21.2006,-0.00278295,0.438841,
2,1,0,0,0,38751.2,0.443264,0.44294,0.254724,58,0.0305734,10,0.000112828,-3.59393,-80.7539,-0.000730615,0.442828,
2,1,0,1,0,38752,0.447259,0.446962,0.253836,58,0.0307859,10,0.000113455,-3.59545,-13.9414,-0.00423201,0.44685,
2,1,0,1,0,38752.8,0.451254,0.450973,0.255091,58,0.0309984,10,0.000115039,-3.59331,-2.78067,-0.0212179,0.450861,
2,1,0,1,0,38753.6,0.455249,0.454966,0.25427,58,0.0312107,10,0.000115684,-3.59471,2.88975,0.020417,0.454855,
2,1,0,1,0,38754.4,0.459244,0.458965,0.255215,58,0.0314231,10,0.000117135,-3.59309,2.48676,0.0237257,0.458853,
2,1,0,0,0,38755.2,0.46324,0.462944,0.255574,58,0.0316357,10,0.000118316,-3.59248,28.5935,0.00206341,0.462832,
2,1,0,1,0,38756,0.467235,0.466934,0.254927,58,0.0318481,10,0.000119034,-3.59358,-211.401,-0.000279091,0.466822,
2,1,0,1,0,38756.8,0.471231,0.470947,0.25583,58,0.0320608,10,0.000120483,-3.59205,2.2791,0.0258874,0.470835,
2,1,0,1,0,38757.6,0.475225,0.474943,0.256938,58,0.0322738,10,0.000122031,-3.59017,-6.11962,-0.00964112,0.47483,
2,1,0,1,0,38758.4,0.47922,0.478935,0.256291,58,0.032487,10,0.000122747,-3.59127,-42.9912,-0.00137237,0.478822,
2,1,0,0,0,38759.2,0.483216,0.482911,0.257214,58,0.0327006,10,0.000124211,-3.58971,2.8017,0.0210586,0.482798,
2,1,0,1,0,38760,0.487211,0.486924,0.258128,58,0.0329146,10,0.000125689,-3.58816,3.50816,0.0168179,0.48681,
2,1,0,0,0,38760.8,0.491206,0.490912,0.25823,58,0.033129,10,0.000126768,-3.58799,3.67996,0.0160328,0.490799,
2,1,0,1,0,38761.6,0.495201,0.494935,0.259292,58,0.0333439,10,0.000128332,-3.58621,3.35107,0.0176063,0.494821,
2,1,0,1,0,38762.4,0.499196,0.49883,0.259018,58,0.0335592,10,0.000129206,-3.58667,3.74145,0.0157693,0.498716,
2,1,0,1,0,38763.2,0.503191,0.502914,0.260449,58,0.0337752,10,0.000130983,-3.58428,2.25612,0.0261511,0.502799,
2,1,0,1,0,38764,0.507187,0.506873,0.261021,58,0.0339917,10,0.000132305,-3.58332,-25.7221,-0.00229375,0.506759,
2,1,0,0,0,38764.8,0.511182,0.510925,0.262184,58,0.0342085,10,0.000133957,-3.58139,1.73407,0.034024,0.51081,
2,1,0,1,0,38765.6,0.515177,0.514905,0.262718,58,0.0344263,10,0.000135275,-3.58051,3.46816,0.0170119,0.514789,
2,1,0,1,0,38766.4,0.519173,0.518836,0.263487,58,0.0346446,10,0.000136707,-3.57924,2.38341,0.0247544,0.51872,
2,1,0,1,0,38767.2,0.523167,0.522866,0.264123,58,0.0348638,10,0.000138101,-3.57819,1.87058,0.0315411,0.52275,
2,1,0,1,0,38768,0.527162,0.526895,0.266794,58,0.0350839,10,0.000140572,-3.57382,1.76069,0.0335095,0.526777,
2,1,0,0,0,38768.8,0.531158,0.530882,0.26801,58,0.035305,10,0.000142282,-3.57185,1.19379,0.0494226,0.530764,
2,1,0,1,0,38769.6,0.535153,0.534835,0.268849,58,0.0355272,10,0.00014379,-3.57049,1.95535,0.0301737,0.534717,
2,1,0,0,0,38770.4,0.539148,0.538846,0.271078,58,0.0357503,10,0.000146069,-3.56691,1.44082,0.0409488,0.538726,
2,1,0,1,0,38771.2,0.543143,0.54288,0.271922,58,0.0359751,10,0.000147621,-3.56556,1.36539,0.0432111,0.54276,
2,1,0,1,0,38772,0.547138,0.546869,0.274982,58,0.0362013,10,0.000150379,-3.5607,1.86928,0.0315629,0.546748,
2,1,0,1,0,38772.8,0.551133,0.550819,0.276485,58,0.0364291,10,0.000152293,-3.55833,0.7987,0.07387,0.550698,
2,1,0,1,0,38773.6,0.555129,0.554845,0.27897,58,0.0366588,10,0.000154785,-3.55444,1.14266,0.0516337,0.554722,
2,1,0,0,0,38774.4,0.559124,0.558821,0.281452,58,0.0368905,10,0.000157281,-3.5506,0.828598,0.0712046,0.558697,
2,1,0,1,0,38775.2,0.56312,0.562783,0.284532,58,0.0371244,10,0.00016013,-3.54587,0.955977,0.0617169,0.562657,
2,1,0,1,0,38776,0.567114,0.566844,0.287297,58,0.0373604,10,0.000162853,-3.54167,1.29141,0.0456866,0.566718,
2,1,0,1,0,38776.8,0.571109,0.570852,0.291265,58,0.0375989,10,0.000166269,-3.53571,0.666635,0.0885042,0.570724,
2,1,0,1,0,38777.6,0.575105,0.574806,0.294296,58,0.0378404,10,0.000169163,-3.53122,0.624065,0.0945414,0.574677,
2,1,0,0,0,38778.4,0.5791,0.578802,0.299379,58,0.038085,10,0.000173281,-3.52378,0.765559,0.0770679,0.57867,
2,1,0,1,0,38779.2,0.583095,0.582808,0.302681,58,0.0383329,10,0.000176405,-3.51901,0.515951,0.114352,0.582675,
2,1,0,1,0,38780,0.58709,0.586789,0.308419,58,0.0385848,10,0.000180977,-3.51086,0.548297,0.107606,0.586654,
2,1,0,1,0,38780.8,0.591085,0.5908,0.313884,58,0.0388409,10,0.000185443,-3.50323,0.424093,0.13912,0.590662,
2,1,0,1,0,38781.6,0.59508,0.59476,0.320485,58,0.0391017,10,0.000190611,-3.49419,0.497647,0.118558,0.594619,
2,1,0,0,0,38782.4,0.599076,0.598768,0.326762,58,0.0393679,10,0.000195655,-3.48577,0.396985,0.14862,0.598625,
2,1,0,1,0,38783.2,0.603071,0.602799,0.335765,58,0.0396401,10,0.000202399,-3.47396,0.309521,0.190617,0.602651,
2,1,0,0,0,38784,0.607066,0.606761,0.345281,58,0.0399194,10,0.000209503,-3.46183,0.353554,0.166877,0.606609,
2,1,0,1,0,38784.8,0.611061,0.610775,0.356073,58,0.0402068,10,0.00021748,-3.44846,0.277338,0.212737,0.610619,
2,1,0,1,0,38785.6,0.615056,0.614787,0.368295,58,0.0405034,10,0.000226423,-3.4338,0.242693,0.243105,0.614625,
2,1,0,1,0,38786.4,0.619051,0.618735,0.382184,58,0.0408111,10,0.000236471,-3.41773,0.232476,0.253789,0.618567,
2,1,0,1,0,38787.2,0.623047,0.622762,0.399803,58,0.0411312,10,0.000248982,-3.39815,0.200982,0.293558,0.622586,
2,1,0,0,0,38788,0.627042,0.626766,0.419175,58,0.0414656,10,0.000262725,-3.3776,0.175397,0.336381,0.626582,
2,1,0,1,0,38788.8,0.631037,0.630723,0.441772,58,0.041817,10,0.000278636,-3.3548,0.17894,0.32972,0.630529,
2,1,0,1,0,38789.6,0.635032,0.634732,0.468036,58,0.0421874,10,0.000297078,-3.32972,0.148514,0.397269,0.634526,
2,1,0,1,0,38790.4,0.639027,0.638753,0.498154,58,0.0425805,10,0.000318197,-3.30264,0.140111,0.421096,0.638534,
2,1,0,1,0,38791.2,0.643022,0.642792,0.533865,58,0.0430001,10,0.000343164,-3.27257,0.129321,0.45623,0.642557,
2,1,0,0,0,38792,0.647018,0.64671,0.574552,58,0.0434499,10,0.000371569,-3.24067,0.117817,0.500778,0.646457,
2,1,0,1,0,38792.8,0.651013,0.650772,0.622888,58,0.0439354,10,0.000405358,-3.20559,0.106995,0.551429,0.650498,
2,1,0,1,0,38793.6,0.655008,0.654744,0.681426,58,0.0444636,10,0.00044616,-3.16658,0.101572,0.580866,0.654445,
2,1,0,1,0,38794.4,0.659003,0.65871,0.746177,58,0.0450404,10,0.000491514,-3.12716,0.0967088,0.610079,0.658381,
2,1,0,1,0,38795.2,0.662998,0.662707,0.823727,58,0.0456746,10,0.00054589,-3.08422,0.0921446,0.640298,0.662345,
2,1,0,0,0,38796,0.666994,0.666694,0.912351,58,0.0463742,10,0.000608259,-3.03984,0.086723,0.680327,0.666292,
2,1,0,1,0,38796.8,0.670989,0.67076,1.013,58,0.0471497,10,0.000679482,-2.99439,0.0850726,0.693525,0.670315,
2,1,0,0,0,38797.6,0.674984,0.674689,1.12882,58,0.0480119,10,0.000761602,-2.94738,0.0830638,0.710298,0.674192,
2,1,0,1,0,38798.4,0.67898,0.678733,1.2615,58,0.048973,10,0.000856224,-2.89911,0.0810659,0.727803,0.678178,
2,1,0,1,0,38799.2,0.682974,0.682704,1.41068,58,0.0500468,10,0.00096308,-2.85057,0.0807192,0.730929,0.682083,
2,1,0,1,0,38800,0.686969,0.686742,1.57677,58,0.0512467,10,0.00108284,-2.80223,0.080494,0.732974,0.686049,
2,1,0,1,0,38800.8,0.690965,0.690709,1.76496,58,0.0525879,10,0.00121907,-2.75327,0.0799458,0.738,0.689932,
2,1,0,0,0,38801.6,0.69496,0.694706,1.97218,58,0.0540871,10,0.00137009,-2.70505,0.0818125,0.721161,0.693839,
2,1,0,1,0,38802.4,0.698955,0.698684,2.19822,58,0.0557592,10,0.00153586,-2.65793,0.0829108,0.711608,0.697717,
2,1,0,1,0,38803.2,0.70295,0.702704,2.44767,58,0.0576222,10,0.00171999,-2.61125,0.0841481,0.701145,0.701627,
2,1,0,1,0,38804,0.706945,0.706653,2.71795,58,0.0596918,10,0.00192065,-2.56576,0.0866776,0.680684,0.705457,
2,1,0,1,0,38804.8,0.71094,0.710693,3.00875,58,0.0619859,10,0.0021383,-2.52161,0.0895212,0.659061,0.709369,
2,1,0,0,0,38805.6,0.714936,0.714663,3.32105,58,0.0645214,10,0.00237344,-2.47872,0.0891017,0.662165,0.713202,
2,1,0,1,0,38806.4,0.718931,0.718626,3.65604,58,0.0673153,10,0.00262733,-2.43699,0.0940889,0.627067,0.717017,
2,1,0,1,0,38807.2,0.722927,0.722634,4.01263,58,0.070386,10,0.00289966,-2.39657,0.0968875,0.608954,0.720868,
2,1,0,1,0,38808,0.726921,0.72662,4.39031,58,0.0737499,10,0.00319009,-2.3575,0.0996359,0.592156,0.724689,
2,1,0,1,0,38808.8,0.730916,0.730638,4.79279,58,0.0774247,10,0.00350179,-2.31941,0.101992,0.578478,0.728529,
2,1,0,1,0,38809.6,0.734911,0.734664,5.21536,58,0.0814294,10,0.00383154,-2.28272,0.10476,0.56319,0.73237,
2,1,0,1,0,38810.4,0.738907,0.738651,5.66268,58,0.0857819,10,0.00418274,-2.24698,0.107758,0.547524,0.736159,
2,1,0,0,0,38811.2,0.742902,0.742608,6.13134,58,0.0904998,10,0.00455318,-2.21244,0.111127,0.530926,0.73991,
2,1,0,1,0,38812,0.746897,0.746625,6.62531,58,0.0956037,10,0.00494662,-2.17879,0.113509,0.519782,0.74371,
2,1,0,1,0,38812.8,0.750892,0.750605,7.14607,58,0.101111,10,0.00536387,-2.14593,0.116274,0.507423,0.747461,
2,1,0,1,0,38813.6,0.754887,0.754617,7.69105,58,0.107045,10,0.00580379,-2.11401,0.119284,0.494619,0.751233,
2,1,0,1,0,38814.4,0.758883,0.758637,8.26601,58,0.113426,10,0.0062709,-2.0827,0.121454,0.48578,0.755,
2,1,0,0,0,38815.2,0.762878,0.762645,8.86686,58,0.120276,10,0.00676226,-2.05223,0.121031,0.487477,0.758743,
2,1,0,1,0,38816,0.766873,0.766584,9.49732,58,0.12762,10,0.00728049,-2.0224,0.127182,0.463903,0.762405,
2,1,0,1,0,38816.8,0.770868,0.770597,10.1678,58,0.135483,10,0.00783531,-1.99277,0.125008,0.471971,0.766123,
2,1,0,1,0,38817.6,0.774863,0.77459,10.8781,58,0.143895,10,0.00842611,-1.96344,0.127448,0.462935,0.769804,
2,1,0,1,0,38818.4,0.778858,0.778581,11.6203,58,0.152889,10,0.00904732,-1.93478,0.124985,0.472058,0.773468,
2,1,0,0,0,38819.2,0.782854,0.782587,12.4186,58,0.162499,10,0.00971862,-1.90593,0.126453,0.466576,0.777122,
2,1,0,1,0,38820,0.786849,0.786573,13.2825,58,0.172772,10,0.0104476,-1.87672,0.12233,0.482301,0.780728,
2,1,0,0,0,38820.8,0.790844,0.790543,14.1955,58,0.183756,10,0.0112221,-1.84785,0.12636,0.46692,0.784297,
2,1,0,1,0,38821.6,0.794839,0.794561,15.1678,58,0.195493,10,0.0120517,-1.81908,0.121348,0.486204,0.787887,
2,1,0,1,0,38822.4,0.798834,0.79854,16.2122,58,0.208037,10,0.0129461,-1.79016,0.123221,0.478816,0.791407,
2,1,0,1,0,38823.2,0.802829,0.802573,17.2861,58,0.221425,10,0.0138734,-1.7623,0.127846,0.461494,0.794967,
2,1,0,1,0,38824,0.806825,0.806605,18.4125,58,0.235696,10,0.0148516,-1.73489,0.128277,0.459941,0.798503,
2,1,0,0,0,38824.8,0.81082,0.810525,19.5944,58,0.25089,10,0.0158817,-1.70787,0.132576,0.445029,0.801903,
2,1,0,1,0,38825.6,0.814815,0.814499,20.8154,58,0.267041,10,0.0169541,-1.68161,0.129303,0.456291,0.80534,
2,1,0,1,0,38826.4,0.81881,0.818526,22.1206,58,0.284203,10,0.0181063,-1.6552,0.131027,0.45029,0.808793,
2,1,0,1,0,38827.2,0.822805,0.822515,23.4377,58,0.302414,10,0.0192779,-1.63008,0.138123,0.427154,0.812202,
2,1,0,1,0,38828,0.826801,0.826538,24.8268,58,0.321707,10,0.0205203,-1.60508,0.140985,0.418483,0.815614,
2,1,0,0,0,38828.7,0.830796,0.830537,26.1917,58,0.342088,10,0.0217532,-1.58184,0.146376,0.403072,0.819013,
2,1,0,1,0,38829.5,0.834791,0.834525,27.5954,58,0.363588,10,0.0230291,-1.55916,0.149329,0.395101,0.822383,
2,1,0,1,0,38830.3,0.838786,0.838506,29.0807,58,0.386234,10,0.0243844,-1.53639,0.146365,0.403102,0.825711,
2,1,0,1,0,38831.1,0.842781,0.842497,30.5863,58,0.410086,10,0.0257689,-1.51447,0.157994,0.373432,0.829039,
2,1,0,1,0,38831.9,0.846776,0.84654,32.0657,58,0.435125,10,0.0271449,-1.49396,0.164263,0.359181,0.832432,
2,1,0,1,0,38832.6,0.849723,0.849476,33.0795,58,0.458023,10,0.0281003,-1.48044,0.0454198,1.29899,0.834921,
2,1,0,0,0,38833.4,0.845728,0.845461,30.8536,58,0.483488,10,0.0260856,-1.51069,0.118164,0.499305,0.831886,
2,1,0,1,0,38834.2,0.841732,0.841492,29.067,58,0.507404,10,0.0244596,-1.5366,0.12569,0.469407,0.828703,
2,1,0,1,0,38835,0.837737,0.837445,27.3801,58,0.529943,10,0.0229294,-1.56256,0.121812,0.484354,0.825398,
2,1,0,1,0,38835.8,0.833742,0.833507,25.7394,58,0.551138,10,0.021454,-1.5894,0.126515,0.466349,0.822182,
2,1,0,1,0,38836.6,0.829747,0.829502,24.2365,58,0.57109,10,0.0201043,-1.61553,0.1268,0.465298,0.818838,
2,1,0,0,0,38837.4,0.825752,0.825503,22.7634,58,0.58986,10,0.0187913,-1.64276,0.119006,0.495774,0.815487,
2,1,0,1,0,38838.2,0.821757,0.821553,21.3356,58,0.607462,10,0.0175283,-1.6709,0.121407,0.485968,0.812166,
2,1,0,1,0,38839,0.817761,0.817482,20.001,58,0.62396,10,0.0163504,-1.69895,0.104657,0.563744,0.808682,
2,1,0,1,0,38839.8,0.813766,0.81348,18.5657,58,0.639322,10,0.0151028,-1.73129,0.12387,0.476308,0.805311,
2,1,0,1,0,38840.6,0.809771,0.809488,17.3915,58,0.653675,10,0.0140782,-1.75966,0.119323,0.494458,0.801836,
2,1,0,1,0,38841.4,0.805776,0.805516,16.245,58,0.667104,10,0.0130856,-1.78928,0.115644,0.510185,0.798368,
2,1,0,1,0,38842.2,0.801781,0.801523,15.1739,58,0.67964,10,0.0121623,-1.8189,0.120189,0.490892,0.794847,
2,1,0,0,0,38843,0.797786,0.797512,14.1492,58,0.691344,10,0.0112842,-1.84927,0.114907,0.513457,0.791286,
2,1,0,1,0,38843.8,0.79379,0.793519,13.1832,58,0.70225,10,0.0104611,-1.87998,0.116006,0.508596,0.787718,
2,1,0,1,0,38844.6,0.789795,0.789481,12.2653,58,0.712404,10,0.00968319,-1.91132,0.115039,0.512867,0.784085,
2,1,0,1,0,38845.4,0.7858,0.785518,11.3958,58,0.721845,10,0.00895159,-1.94326,0.113415,0.520215,0.780504,
2,1,0,1,0,38846.2,0.781805,0.781526,10.5801,58,0.730616,10,0.00826864,-1.97551,0.110756,0.532703,0.776871,
2,1,0,0,0,38847,0.77781,0.777479,9.8175,58,0.738753,10,0.0076329,-2.008,0.111715,0.52813,0.773159,
2,1,0,1,0,38847.8,0.773814,0.773567,9.08865,58,0.746295,10,0.00703068,-2.0415,0.109341,0.539596,0.769568,
2,1,0,1,0,38848.6,0.769819,0.769596,8.40711,58,0.753274,10,0.00647008,-2.07535,0.10876,0.542477,0.765897,
2,1,0,1,0,38849.4,0.765824,0.765561,7.72057,58,0.759717,10,0.00591056,-2.11235,0.100503,0.587045,0.762164,
2,1,0,1,0,38850.2,0.761829,0.761532,7.13367,58,0.765641,10,0.00543252,-2.14669,0.10602,0.556496,0.758394,
2,1,0,0,0,38851,0.757834,0.757552,6.57165,58,0.771107,10,0.00497837,-2.18233,0.106671,0.553101,0.754661,
2,1,0,1,0,38851.8,0.753839,0.753535,6.04581,58,0.776138,10,0.00455573,-2.21855,0.10181,0.579512,0.750874,
2,1,0,0,0,38852.6,0.749844,0.749552,5.55145,58,0.780762,10,0.0041611,-2.25559,0.101535,0.581078,0.747109,
2,1,0,1,0,38853.4,0.745848,0.745554,5.08827,58,0.785003,10,0.00379358,-2.29343,0.097897,0.602674,0.743315,
2,1,0,1,0,38854.2,0.741853,0.741565,4.65049,58,0.788884,10,0.00344864,-2.3325,0.096748,0.609832,0.739519,
2,1,0,1,0,38855,0.737858,0.737578,4.24262,58,0.792428,10,0.00312926,-2.37237,0.0940885,0.627069,0.735711,
2,1,0,1,0,38855.8,0.733863,0.733631,3.86021,58,0.795655,10,0.00283197,-2.41339,0.0914966,0.644833,0.731932,
2,1,0,0,0,38856.6,0.729868,0.729526,3.49994,58,0.798586,10,0.0025533,-2.45594,0.0891737,0.66163,0.727986,
2,1,0,1,0,38857.4,0.725872,0.725629,3.16272,58,0.80124,10,0.00229496,-2.49994,0.0861437,0.684902,0.724238,
2,1,0,1,0,38858.2,0.721877,0.721591,2.85013,58,0.803633,10,0.00205663,-2.54514,0.0841203,0.701377,0.720337,
2,1,0,1,0,38859,0.717882,0.717583,2.55552,58,0.805784,10,0.0018338,-2.59252,0.08051,0.732829,0.716458,
2,1,0,1,0,38859.8,0.713887,0.713644,2.28551,58,0.80771,10,0.00163104,-2.64102,0.0783841,0.752703,0.712639,
2,1,0,0,0,38860.6,0.709892,0.709633,2.03273,58,0.809426,10,0.00144249,-2.69192,0.0753451,0.783063,0.708738,
2,1,0,1,0,38861.4,0.705897,0.705601,1.8,58,0.810949,10,0.00127009,-2.74473,0.0711954,0.828705,0.704809,
2,1,0,1,0,38862.2,0.701901,0.701583,1.58489,58,0.812292,10,0.00111193,-2.8,0.070617,0.835493,0.700886,
2,1,0,1,0,38863,0.697906,0.697615,1.38901,58,0.813472,10,0.000968994,-2.85729,0.0670452,0.880004,0.697004,
2,1,0,1,0,38863.8,0.693911,0.693617,1.21022,58,0.814502,10,0.000839426,-2.91714,0.0631366,0.934482,0.693084,
2,1,0,0,0,38864.6,0.689916,0.689636,1.0478,58,0.815396,10,0.000722602,-2.97972,0.0615343,0.958815,0.689175,
2,1,0,1,0,38865.4,0.685921,0.685661,0.901233,58,0.816166,10,0.00061794,-3.04516,0.0576066,1.02419,0.685265,
2,1,0,0,0,38866.2,0.681926,0.681603,0.769493,58,0.816825,10,0.000524489,-3.1138,0.0559242,1.055,0.681264,
2,1,0,1,0,38867,0.67793,0.677638,0.651194,58,0.817384,10,0.000441274,-3.18629,0.0542351,1.08786,0.677351,
2,1,0,1,0,38867.8,0.673935,0.673654,0.547366,58,0.817854,10,0.000368735,-3.26172,0.0507518,1.16252,0.673413,
2,1,0,1,0,38868.6,0.66994,0.669686,0.456137,58,0.818247,10,0.000305469,-3.3409,0.0485467,1.21532,0.669485,
2,1,0,1,0,38869.4,0.665945,0.665686,0.375626,58,0.818571,10,0.000250049,-3.42524,0.046241,1.27592,0.665521,
2,1,0,0,0,38870.2,0.66195,0.661666,0.305121,58,0.818835,10,0.000201888,-3.51553,0.0423854,1.39199,0.661532,
2,1,0,1,0,38871,0.657955,0.657678,0.244853,58,0.819046,10,0.000161035,-3.61109,0.0400179,1.47434,0.65757,
2,1,0,1,0,38871.8,0.653959,0.653682,0.192592,58,0.819214,10,0.000125894,-3.71536,0.0367571,1.60513,0.653598,
2,1,0,1,0,38872.6,0.649964,0.649655,0.148192,58,0.819342,10,9.62739e-05,-3.82917,0.0326408,1.80756,0.64959,
2,1,0,1,0,38873.4,0.64597,0.645653,0.110667,58,0.819437,10,7.14523e-05,-3.95598,0.0289586,2.03739,0.645604,
2,1,0,0,0,38874.2,0.641974,0.641666,0.0780073,58,0.819505,10,5.00546e-05,-4.10786,0.0239223,2.46632,0.641632,
2,1,0,1,0,38875,0.637979,0.637689,0.0512307,58,0.819548,10,3.26693e-05,-4.29047,0.0179809,3.28126,0.637667,
2,1,0,1,0,38875.8,0.633983,0.633705,0.0276357,58,0.819572,10,1.75129e-05,-4.55853,0.0122037,4.8346,0.633693,
2,1,0,1,0,38876.6,0.629988,0.629709,0.00827543,58,0.819579,10,5.21111e-06,-5.08221,0.00178121,33.1235,0.629705,
2,0,0,1,0,38877.4,0.625993,0.625694,-0.00687036,58,0.819571,10,-4.29875e-06,-5.16302,-0.00185858,-31.7447,0.625697,
2,0,0,0,0,38878.2,0.621998,0.621714,-0.0202095,58,0.819553,10,-1.25646e-05,-4.69444,-0.0142678,-4.13518,0.621723,
2,0,0,1,0,38879,0.618003,0.617725,-0.0309632,58,0.819525,10,-1.91267e-05,-4.50915,-0.0273322,-2.15863,0.617739,
2,0,0,0,0,38879.8,0.614008,0.613732,-0.0405964,58,0.819488,10,-2.49153e-05,-4.39151,-0.0522561,-1.12905,0.61375,
2,0,0,1,0,38880.6,0.610012,0.609685,-0.0485481,58,0.819445,10,-2.95991e-05,-4.31383,-0.0541829,-1.0889,0.609706,
2,0,0,1,0,38881.4,0.606017,0.60572,-0.0549147,58,0.819396,10,-3.32629e-05,-4.26031,-0.0809032,-0.729267,0.605744,
2,0,0,1,0,38882.2,0.602022,0.601712,-0.0612135,58,0.819341,10,-3.68329e-05,-4.21315,-0.121267,-0.486529,0.601739,
2,0,0,1,0,38883,0.598027,0.597711,-0.06621,58,0.819283,10,-3.95744e-05,-4.17908,-0.107293,-0.549896,0.59774,
2,0,0,0,0,38883.8,0.594032,0.5937,-0.0707122,58,0.81922,10,-4.19818e-05,-4.15051,-0.236297,-0.249686,0.593731,
2,0,0,1,0,38884.6,0.590037,0.589723,-0.0745638,58,0.819155,10,-4.3972e-05,-4.12747,-0.176181,-0.334883,0.589756,
2,0,0,1,0,38885.4,0.586041,0.585749,-0.0767022,58,0.819087,10,-4.49283e-05,-4.11519,-0.300595,-0.196277,0.585783,
2,0,0,1,0,38886.2,0.582046,0.581712,-0.0791008,58,0.819017,10,-4.60139e-05,-4.10182,-0.257881,-0.228788,0.581746,
2,0,0,1,0,38887,0.578052,0.57778,-0.0817,58,0.818944,10,-4.72046e-05,-4.08778,-0.324634,-0.181743,0.577816,
2,0,0,0,0,38887.8,0.574056,0.573807,-0.0833828,58,0.81887,10,-4.78457e-05,-4.07892,-0.463688,-0.127241,0.573844,
2,0,0,1,0,38888.6,0.570061,0.56978,-0.086348,58,0.818794,10,-4.91994e-05,-4.06375,-0.633649,-0.0931115,0.569818,
2,0,0,1,0,38889.4,0.566065,0.565786,-0.087686,58,0.818717,10,-4.96115e-05,-4.05707,-0.30074,-0.196183,0.565825,
2,0,0,1,0,38890.2,0.56207,0.561752,-0.0897526,58,0.818638,10,-5.04187e-05,-4.04695,-0.477359,-0.123597,0.561792,
2,0,0,1,0,38891,0.558075,0.557823,-0.0909643,58,0.818558,10,-5.0742e-05,-4.04113,-0.874424,-0.067473,0.557863,
2,0,0,1,0,38891.8,0.55408,0.553793,-0.0924353,58,0.818477,10,-5.119e-05,-4.03416,-0.430572,-0.137027,0.553833,
2,0,0,1,0,38892.6,0.550085,0.549778,-0.0937743,58,0.818395,10,-5.15551e-05,-4.02792,-1.50647,-0.0391644,0.54982,
2,0,0,0,0,38893.4,0.54609,0.54576,-0.0944206,58,0.818312,10,-5.1531e-05,-4.02493,-0.565484,-0.104335,0.545801,
2,0,0,1,0,38894.2,0.542094,0.541783,-0.0956438,58,0.818228,10,-5.18181e-05,-4.01934,-2.09273,-0.0281928,0.541825,
2,0,0,1,0,38895,0.538099,0.537797,-0.0969428,58,0.818144,10,-5.21356e-05,-4.01348,-1.69324,-0.0348444,0.537839,
2,0,0,1,0,38895.8,0.534104,0.533789,-0.0980075,58,0.818058,10,-5.23153e-05,-4.00874,-0.390792,-0.150976,0.533832,
2,0,0,1,0,38896.6,0.530109,0.529777,-0.0984282,58,0.817971,10,-5.2145e-05,-4.00688,-1.85394,-0.0318241,0.52982,
2,0,0,0,0,38897.4,0.526114,0.525811,-0.10022,58,0.817884,10,-5.26968e-05,-3.99905,-0.67647,-0.0872175,0.525855,
2,0,0,1,0,38898.2,0.522119,0.5218,-0.100612,58,0.817796,10,-5.24991e-05,-3.99735,-0.764845,-0.0771398,0.521844,
2,0,0,1,0,38899,0.518123,0.517843,-0.102578,58,0.817707,10,-5.31192e-05,-3.98895,-1.59956,-0.0368852,0.517888,
2,0,0,1,0,38899.8,0.514128,0.513798,-0.10421,58,0.817616,10,-5.3543e-05,-3.98209,-0.732619,-0.080533,0.513844,
2,0,0,1,0,38900.6,0.510133,0.509855,-0.104365,58,0.817525,10,-5.32108e-05,-3.98145,-0.493937,-0.119448,0.509901,
2,0,0,0,0,38901.4,0.506138,0.505812,-0.106224,58,0.817433,10,-5.37294e-05,-3.97378,-25.4906,-0.00231458,0.505859,
2,0,0,1,0,38902.2,0.502143,0.501833,-0.10694,58,0.81734,10,-5.36658e-05,-3.97086,-0.664129,-0.0888382,0.50188,
2,0,0,0,0,38903,0.498148,0.497843,-0.108805,58,0.817246,10,-5.41677e-05,-3.96335,-0.695272,-0.0848588,0.497891,
2,0,0,1,0,38903.8,0.494152,0.493857,-0.109019,58,0.817151,10,-5.38399e-05,-3.9625,-0.644553,-0.0915363,0.493905,
2,0,0,1,0,38904.6,0.490157,0.489833,-0.110477,58,0.817055,10,-5.41153e-05,-3.95673,-0.810512,-0.0727935,0.489881,
2,0,0,1,0,38905.4,0.486162,0.485854,-0.1111,58,0.816958,10,-5.39782e-05,-3.95429,-1.20895,-0.0488026,0.485903,
2,0,0,1,0,38906.2,0.482167,0.481829,-0.112851,58,0.81686,10,-5.43748e-05,-3.9475,-0.937687,-0.0629208,0.481878,
2,0,0,0,0,38907,0.478172,0.477887,-0.113998,58,0.816761,10,-5.44781e-05,-3.9431,-0.611891,-0.0964224,0.477937,
2,0,0,1,0,38907.8,0.474177,0.473843,-0.116116,58,0.816661,10,-5.50208e-05,-3.93511,-1.04227,-0.0566072,0.473894,
2,0,0,1,0,38908.6,0.470181,0.469885,-0.116736,58,0.81656,10,-5.48527e-05,-3.93279,-0.478692,-0.123253,0.469937,
2,0,0,1,0,38909.4,0.466186,0.465906,-0.118648,58,0.816457,10,-5.52787e-05,-3.92574,-1.25546,-0.0469948,0.465958,
2,0,0,1,0,38910.2,0.462191,0.461833,-0.120175,58,0.816354,10,-5.5501e-05,-3.92018,-0.863781,-0.0683044,0.461886,
2,0,0,0,0,38911,0.458196,0.457884,-0.121521,58,0.816249,10,-5.56426e-05,-3.91535,-0.526055,-0.112155,0.457937,
2,0,0,1,0,38911.8,0.454201,0.453887,-0.123233,58,0.816142,10,-5.59341e-05,-3.90927,-0.705497,-0.0836289,0.453941,
2,0,0,1,0,38912.5,0.450205,0.44987,-0.124577,58,0.816035,10,-5.60433e-05,-3.90456,-0.790078,-0.0746762,0.449925,
2,0,0,1,0,38913.3,0.44621,0.445935,-0.125245,58,0.815926,10,-5.58512e-05,-3.90224,-1.41167,-0.0417944,0.44599,
2,0,0,1,0,38914.1,0.442215,0.441909,-0.128162,58,0.815815,10,-5.6636e-05,-3.89224,-0.498862,-0.118269,0.441965,
2,0,0,0,0,38914.9,0.43822,0.437935,-0.129793,58,0.815704,10,-5.68407e-05,-3.88675,-0.584482,-0.100944,0.437992,
2,0,0,1,0,38915.7,0.434225,0.433941,-0.131696,58,0.81559,10,-5.71484e-05,-3.88043,-0.528514,-0.111634,0.433999,
2,0,0,0,0,38916.5,0.43023,0.429905,-0.134171,58,0.815476,10,-5.76808e-05,-3.87234,-1.16331,-0.0507172,0.429964,
2,0,0,1,0,38917.3,0.426234,0.425916,-0.135315,58,0.81536,10,-5.76327e-05,-3.86866,-0.69095,-0.0853897,0.425976,
2,0,0,1,0,38918.1,0.422239,0.421951,-0.137809,58,0.815242,10,-5.81487e-05,-3.86072,-0.647963,-0.0910546,0.422012,
2,0,0,1,0,38918.9,0.418244,0.41796,-0.138316,58,0.815123,10,-5.78104e-05,-3.85913,-0.592343,-0.0996044,0.41802,
2,0,0,1,0,38919.7,0.414249,0.413958,-0.140163,58,0.815002,10,-5.80218e-05,-3.85337,-0.656451,-0.0898772,0.41402,
2,0,0,0,0,38920.5,0.410254,0.409964,-0.143592,58,0.81488,10,-5.88677e-05,-3.84287,-1.84352,-0.032004,0.410027,
2,0,0,1,0,38921.3,0.406259,0.405886,-0.144967,58,0.814756,10,-5.88401e-05,-3.83873,-0.455882,-0.129419,0.405949,
2,0,0,1,0,38922.1,0.402263,0.40189,-0.147683,58,0.814631,10,-5.93521e-05,-3.83067,-0.861212,-0.0685081,0.401955,
2,0,0,1,0,38922.9,0.398268,0.397948,-0.149178,58,0.814504,10,-5.93651e-05,-3.8263,-0.415521,-0.14199,0.398014,
2,0,0,1,0,38923.7,0.394274,0.393984,-0.150629,58,0.814375,10,-5.93453e-05,-3.82209,-1.27736,-0.046189,0.39405,
2,0,0,0,0,38924.5,0.390278,0.390013,-0.152604,58,0.814244,10,-5.95177e-05,-3.81643,-0.651264,-0.0905931,0.390081,
2,0,0,1,0,38925.3,0.386283,0.385953,-0.154894,58,0.814112,10,-5.97817e-05,-3.80997,-0.541992,-0.108858,0.386021,
2,0,0,1,0,38926.1,0.382287,0.382007,-0.155922,58,0.813978,10,-5.95634e-05,-3.80709,-0.621203,-0.094977,0.382076,
2,0,0,1,0,38926.9,0.378292,0.377959,-0.159269,58,0.813843,10,-6.0197e-05,-3.79787,-1.99629,-0.0295548,0.378029,
2,0,0,1,0,38927.7,0.374297,0.373936,-0.161172,58,0.813705,10,-6.02681e-05,-3.79271,-0.469089,-0.125776,0.374007,
2,0,0,1,0,38928.5,0.370303,0.369999,-0.163549,58,0.813566,10,-6.05131e-05,-3.78635,-0.939894,-0.0627731,0.370071,
2,0,0,1,0,38929.3,0.366307,0.366013,-0.166219,58,0.813425,10,-6.08382e-05,-3.77932,-0.565849,-0.104268,0.366086,
2,0,0,0,0,38930.1,0.362312,0.361991,-0.168055,58,0.813282,10,-6.08343e-05,-3.77455,-0.747944,-0.078883,0.362065,
2,0,0,1,0,38930.9,0.358316,0.357991,-0.169331,58,0.813137,10,-6.06191e-05,-3.77126,-1.02337,-0.0576525,0.358066,
2,0,0,1,0,38931.7,0.354321,0.353996,-0.172272,58,0.81299,10,-6.09835e-05,-3.76379,-0.475706,-0.124026,0.354071,
2,0,0,1,0,38932.5,0.350327,0.349999,-0.173666,58,0.812842,10,-6.07832e-05,-3.76028,-0.792321,-0.0744647,0.350076,
2,0,0,1,0,38933.3,0.346331,0.346008,-0.176986,58,0.812691,10,-6.12383e-05,-3.75206,-1.14818,-0.0513858,0.346086,
2,0,0,0,0,38934.1,0.342336,0.342005,-0.17898,58,0.812539,10,-6.12121e-05,-3.74719,-0.513859,-0.114818,0.342083,
2,0,0,1,0,38934.9,0.338341,0.338006,-0.182003,58,0.812384,10,-6.15181e-05,-3.73992,-0.918324,-0.0642475,0.338086,
2,0,0,1,0,38935.7,0.334345,0.33402,-0.184947,58,0.812228,10,-6.17762e-05,-3.73295,-0.609862,-0.0967433,0.334102,
2,0,0,1,0,38936.5,0.33035,0.330045,-0.186624,58,0.81207,10,-6.15943e-05,-3.72903,-0.704499,-0.0837475,0.330128,
2,0,0,1,0,38937.3,0.326355,0.326038,-0.189531,58,0.81191,10,-6.17941e-05,-3.72232,-0.599739,-0.0983761,0.326121,
2,0,0,0,0,38938.1,0.32236,0.322058,-0.191336,58,0.811747,10,-6.16214e-05,-3.7182,-1.33222,-0.0442869,0.322143,
2,0,0,1,0,38938.9,0.318365,0.318032,-0.193967,58,0.811583,10,-6.16877e-05,-3.71227,-0.517185,-0.114079,0.318117,
2,0,0,0,0,38939.7,0.31437,0.314052,-0.197019,58,0.811416,10,-6.18743e-05,-3.70549,-1.19878,-0.0492167,0.314139,
2,0,0,1,0,38940.5,0.310374,0.310024,-0.19897,58,0.811248,10,-6.16854e-05,-3.70121,-0.563027,-0.104791,0.310111,
2,0,0,1,0,38941.3,0.306379,0.306023,-0.20111,58,0.811077,10,-6.15443e-05,-3.69657,-0.835854,-0.0705865,0.306111,
2,0,0,1,0,38942.1,0.302385,0.302106,-0.204114,58,0.810905,10,-6.16641e-05,-3.69013,-0.61668,-0.0956736,0.302196,
2,0,0,1,0,38942.9,0.298389,0.29808,-0.207253,58,0.81073,10,-6.17781e-05,-3.6835,-0.547579,-0.107747,0.298172,
2,0,0,0,0,38943.7,0.294394,0.294086,-0.210075,58,0.810553,10,-6.17802e-05,-3.67762,-0.973685,-0.0605946,0.294178,
2,0,0,1,0,38944.5,0.290398,0.290077,-0.212135,58,0.810374,10,-6.15354e-05,-3.67339,-0.691999,-0.0852603,0.29017,
2,0,0,1,0,38945.3,0.286403,0.286092,-0.213915,58,0.810193,10,-6.11996e-05,-3.66976,-0.939502,-0.0627993,0.286187,
2,0,0,1,0,38946.1,0.282408,0.2821,-0.21766,58,0.810009,10,-6.14019e-05,-3.66222,-1.19585,-0.0493374,0.282196,
2,0,0,1,0,38946.9,0.278414,0.278072,-0.219958,58,0.809824,10,-6.1164e-05,-3.65766,-0.478212,-0.123376,0.278169,
2,0,0,0,0,38947.7,0.274418,0.274087,-0.222073,58,0.809636,10,-6.08673e-05,-3.6535,-0.772354,-0.0763899,0.274184,
2,0,0,1,0,38948.5,0.270423,0.270075,-0.225409,58,0.809446,10,-6.08774e-05,-3.64703,-0.810462,-0.072798,0.270174,
2,0,0,1,0,38949.3,0.266427,0.266068,-0.228157,58,0.809254,10,-6.07053e-05,-3.64177,-1.13723,-0.0518806,0.266168,
2,0,0,1,0,38950.1,0.262432,0.26212,-0.230885,58,0.80906,10,-6.05196e-05,-3.6366,-0.694221,-0.0849874,0.262221,
2,0,0,1,0,38950.9,0.258437,0.258126,-0.232664,58,0.808864,10,-6.00566e-05,-3.63327,-0.836957,-0.0704935,0.258228,
2,0,0,0,0,38951.7,0.254442,0.254097,-0.23438,58,0.808666,10,-5.95552e-05,-3.63008,-0.681434,-0.0865821,0.2542,
2,0,0,1,0,38952.5,0.250447,0.250086,-0.237027,58,0.808466,10,-5.92773e-05,-3.6252,-8.03069,-0.00734682,0.250191,
2,0,0,0,0,38953.3,0.246452,0.246183,-0.239405,58,0.808265,10,-5.89374e-05,-3.62087,-0.517362,-0.11404,0.246288,
2,0,0,1,0,38954.1,0.242456,0.242127,-0.243562,58,0.808061,10,-5.89729e-05,-3.61339,-0.895123,-0.0659127,0.242234,
2,0,0,1,0,38954.9,0.238461,0.238116,-0.245107,58,0.807855,10,-5.83638e-05,-3.61064,-1.43832,-0.0410202,0.238224,
2,0,0,1,0,38955.7,0.234467,0.234084,-0.247553,58,0.807647,10,-5.79483e-05,-3.60633,-0.667046,-0.0884497,0.234193,
2,0,0,1,0,38956.5,0.230471,0.230147,-0.249835,58,0.807437,10,-5.74986e-05,-3.60235,-1.42302,-0.0414612,0.230256,
2,0,0,0,0,38957.3,0.226476,0.226193,-0.252797,58,0.807226,10,-5.7181e-05,-3.59723,-0.86788,-0.0679818,0.226305,
2,0,0,1,0,38958.1,0.222481,0.222144,-0.255376,58,0.807012,10,-5.67301e-05,-3.59282,-0.666554,-0.0885149,0.222256,
2,0,0,1,0,38958.9,0.218485,0.218142,-0.258921,58,0.806796,10,-5.64815e-05,-3.58683,-2.66213,-0.0221627,0.218256,
2,0,0,1,0,38959.7,0.21449,0.214163,-0.261484,58,0.806577,10,-5.60003e-05,-3.58255,-0.544098,-0.108436,0.214278,
2,0,0,1,0,38960.5,0.210496,0.210155,-0.264118,58,0.806357,10,-5.55058e-05,-3.5782,-0.815441,-0.0723535,0.210271,
2,0,0,0,0,38961.3,0.2065,0.206172,-0.268235,58,0.806134,10,-5.53026e-05,-3.57148,-0.866132,-0.0681189,0.20629,
2,0,0,1,0,38962.1,0.202505,0.2022,-0.269662,58,0.805908,10,-5.45256e-05,-3.56918,-0.777973,-0.0758381,0.202318,
2,0,0,1,0,38962.9,0.198509,0.198167,-0.272856,58,0.80568,10,-5.40713e-05,-3.56407,-0.716992,-0.0822883,0.198287,
2,0,0,1,0,38963.7,0.194514,0.194193,-0.27613,58,0.80545,10,-5.36225e-05,-3.55889,-0.813237,-0.0725495,0.194315,
2,0,0,1,0,38964.5,0.190519,0.190211,-0.279351,58,0.805216,10,-5.31355e-05,-3.55385,-0.547819,-0.1077,0.190334,
2,0,0,0,0,38965.3,0.186524,0.186223,-0.284999,58,0.804979,10,-5.30735e-05,-3.54516,-0.640279,-0.0921474,0.186349,
2,0,0,1,0,38966.1,0.182529,0.182228,-0.289972,58,0.804738,10,-5.28411e-05,-3.53764,-0.480023,-0.122911,0.182355,
2,0,0,0,0,38966.9,0.178534,0.178222,-0.295567,58,0.804493,10,-5.26765e-05,-3.52934,-0.483516,-0.122023,0.178352,
2,0,0,1,0,38967.7,0.174538,0.174142,-0.301425,58,0.804244,10,-5.24908e-05,-3.52082,-0.490292,-0.120336,0.174275,
2,0,0,1,0,38968.5,0.170543,0.170201,-0.307613,58,0.803989,10,-5.23558e-05,-3.512,-0.335708,-0.175748,0.170336,
2,0,0,1,0,38969.3,0.166549,0.166236,-0.31549,58,0.803729,10,-5.24459e-05,-3.50101,-0.374643,-0.157483,0.166375,
2,0,0,1,0,38970.1,0.162553,0.162264,-0.326019,58,0.803461,10,-5.2901e-05,-3.48676,-0.268886,-0.219424,0.162407,
2,0,0,0,0,38970.9,0.158558,0.158249,-0.337648,58,0.803185,10,-5.34325e-05,-3.47154,-0.208819,-0.282541,0.158397,
2,0,0,1,0,38971.7,0.154563,0.154225,-0.354004,58,0.802896,10,-5.45961e-05,-3.45099,-0.19517,-0.3023,0.15438,
2,0,0,1,0,38972.5,0.150567,0.150239,-0.375415,58,0.802593,10,-5.64018e-05,-3.42549,-0.132365,-0.445738,0.150404,
2,0,0,1,0,38973.3,0.146572,0.14626,-0.403662,58,0.802271,10,-5.90397e-05,-3.39398,-0.119727,-0.492788,0.146438,
2,0,0,1,0,38974.1,0.142578,0.142266,-0.440924,58,0.801923,10,-6.27284e-05,-3.35564,-0.0961729,-0.613478,0.14246,
2,0,0,0,0,38974.9,0.138582,0.138266,-0.485962,58,0.801541,10,-6.71917e-05,-3.3134,-0.0884833,-0.666793,0.138479,
2,0,0,1,0,38975.7,0.134587,0.134246,-0.536401,58,0.80112,10,-7.20095e-05,-3.27051,-0.100298,-0.588249,0.134482,
2,0,0,1,0,38976.5,0.130591,0.130247,-0.586406,58,0.800659,10,-7.6378e-05,-3.2318,-0.111278,-0.530204,0.130506,
2,0,0,1,0,38977.3,0.126596,0.126304,-0.627096,58,0.800161,10,-7.92047e-05,-3.20267,-0.152276,-0.387455,0.12658,
2,0,0,1,0,38978.1,0.122602,0.122266,-0.659771,58,0.799633,10,-8.06679e-05,-3.18061,-0.260386,-0.226587,0.122557,
2,0,0,1,0,38978.9,0.118607,0.118272,-0.678223,58,0.799085,10,-8.02149e-05,-3.16863,-0.377722,-0.156199,0.118571,
2,0,0,1,0,38979.7,0.114611,0.114279,-0.688993,58,0.798525,10,-7.87375e-05,-3.16179,-2.50941,-0.0235115,0.114582,
2,0,0,0,0,38980.5,0.110616,0.110301,-0.690696,58,0.797962,10,-7.61841e-05,-3.16071,-22.4081,-0.00263298,0.110604,
2,0,0,1,0,38981.3,0.10662,0.106293,-0.687915,58,0.797399,10,-7.31205e-05,-3.16246,2.94072,0.0200631,0.106596,
2,0,0,1,0,38982.1,0.102625,0.102302,-0.683726,58,0.796838,10,-6.99465e-05,-3.16512,1.00022,0.0589871,0.102603,
2,0,0,1,0,38982.9,0.0986305,0.0982907,-0.677558,58,0.796282,10,-6.65977e-05,-3.16905,1.00591,0.0586536,0.0985888,
2,0,0,1,0,38983.7,0.0946351,0.0943064,-0.668971,58,0.795731,10,-6.30882e-05,-3.17459,0.751823,0.0784759,0.0946008,
2,0,0,0,0,38984.5,0.0906399,0.0903352,-0.66229,58,0.795186,10,-5.98281e-05,-3.17895,0.605828,0.0973874,0.0906266,
2,0,0,1,0,38985.3,0.0866448,0.0862717,-0.653411,58,0.794649,10,-5.63709e-05,-3.18481,0.982968,0.0600223,0.0865592,
2,0,0,1,0,38986.1,0.0826492,0.0823371,-0.645101,58,0.794118,10,-5.31158e-05,-3.19037,0.566631,0.104124,0.082621,
2,0,0,1,0,38986.9,0.0786544,0.0783357,-0.636381,58,0.793595,10,-4.98513e-05,-3.19628,0.745411,0.0791509,0.0786157,
2,0,0,1,0,38987.7,0.0746596,0.0743426,-0.626385,58,0.793079,10,-4.65671e-05,-3.20316,0.624339,0.0944999,0.0746182,
2,0,0,0,0,38988.5,0.0706641,0.0703412,-0.619519,58,0.792569,10,-4.35778e-05,-3.20795,0.691439,0.0853293,0.0706138,
2,0,0,1,0,38989.3,0.0666689,0.0663456,-0.611647,58,0.792066,10,-4.05801e-05,-3.2135,0.839638,0.0702684,0.0666147,
2,0,0,0,0,38990.1,0.0626737,0.0623373,-0.601169,58,0.791569,10,-3.74752e-05,-3.221,0.609237,0.0968424,0.0626018,
2,0,0,1,0,38990.9,0.0586783,0.0583309,-0.594238,58,0.791078,10,-3.46624e-05,-3.22604,0.543569,0.108542,0.0585924,
2,0,0,1,0,38991.7,0.0546835,0.0543282,-0.584635,58,0.790596,10,-3.17621e-05,-3.23312,0.778418,0.0757947,0.0545854,
2,0,0,1,0,38992.5,0.0506886,0.0503849,-0.575821,58,0.790119,10,-2.90127e-05,-3.23971,0.502944,0.117309,0.0506383,
2,0,0,1,0,38993.3,0.046693,0.0463824,-0.565457,58,0.789651,10,-2.62272e-05,-3.2476,0.599715,0.09838,0.0466312,
2,0,0,0,0,38994.1,0.0426979,0.0423497,-0.555547,58,0.789191,10,-2.35272e-05,-3.25528,0.528041,0.111734,0.0425941,
2,0,0,1,0,38994.8,0.0387022,0.0383461,-0.547475,58,0.788738,10,-2.09935e-05,-3.26164,0.473003,0.124735,0.038587,
2,0,0,1,0,38995.6,0.0347074,0.0343858,-0.537497,58,0.788293,10,-1.84822e-05,-3.26962,0.473638,0.124568,0.0346223,
2,0,0,1,0,38996.4,0.0307126,0.0303714,-0.526148,58,0.787856,10,-1.59799e-05,-3.27889,0.682011,0.0865088,0.0306029,
2,0,0,1,0,38997.2,0.0267172,0.0264012,-0.51928,58,0.787426,10,-1.37096e-05,-3.2846,0.506366,0.116516,0.0266296,
2,0,0,0,0,38998,0.022722,0.0224236,-0.510602,58,0.787003,10,-1.14495e-05,-3.29192,0.667586,0.0883781,0.0226482,
2,0,0,1,0,38998.8,0.0187268,0.0183898,-0.50487,58,0.786586,10,-9.28446e-06,-3.29682,0.62948,0.0937281,0.0186119,
2,0,0,1,0,38999.6,0.0147313,0.0143568,-0.499844,58,0.786174,10,-7.17616e-06,-3.30117,1.5722,0.0375271,0.0145767,
2,0,0,1,0,39000.4,0.0107365,0.010404,-0.494962,58,0.785765,10,-5.14957e-06,-3.30543,1.80524,0.0326826,0.0106217,
2,0,0,1,0,39001.2,0.00674163,0.00642976,-0.493365,58,0.785359,10,-3.17222e-06,-3.30683,3.52299,0.0167472,0.00664684,
2,0,0,0,0,39002,0.00274612,0.00242961,-0.493504,58,0.784953,10,-1.19902e-06,-3.30671,-2.63666,-0.0223768,0.00264675,
2,0,0,1,0,39002.5,0.000274105,-0.00010224,-0.495541,58,0.7847,10,5.06643e-08,-3.30492, , ,0.000115798,