File: Figure_codes/Fig_3-5/workspace_calculate_alpha_eff/20221101_1-115_003_TrumpetPlot_ParaChange_from10_every3_16_CV_C01_43.csv
mode,ox/red,error,control changes,counter inc.,time/s,control/V,Ewe/V,<I>/mA,cycle number,(Q-Qo)/C,I Range,P/W,log(|I|),Tafel slope mV/dec,alpha_eff,E-IR/V,
2,0,0,0,0,29181.9,2.44065e-05,-0.000382585,-0.0866734,44,0.0000000E+000,10,3.316e-08,-4.06211, , ,-0.000344449,
2,1,0,0,0,29182.7,0.00379485,0.00347305,0.158211,44,0.000100653,10,5.49474e-07,-3.80076,0.0352233,1.67503,0.00340344,
2,1,0,1,0,29183.5,0.00779002,0.00748139,0.181888,44,0.000248979,10,1.36078e-06,-3.7402,0.0792552,0.744431,0.00740136,
2,1,0,0,0,29184.3,0.0117852,0.0114643,0.198136,44,0.000413067,10,2.27149e-06,-3.70304,0.128909,0.457687,0.0113771,
2,1,0,1,0,29185.1,0.0157806,0.0154633,0.214443,44,0.000589649,10,3.316e-06,-3.66869,0.130309,0.452771,0.015369,
2,1,0,1,0,29185.9,0.0197754,0.0195128,0.227915,44,0.000777464,10,4.44724e-06,-3.64223,0.147623,0.399668,0.0194125,
2,1,0,1,0,29186.7,0.0237704,0.0234954,0.241711,44,0.000976613,10,5.6791e-06,-3.6167,0.157652,0.374243,0.023389,
2,1,0,1,0,29187.5,0.0277659,0.0274457,0.256491,44,0.00118693,10,7.03956e-06,-3.59093,0.168468,0.350215,0.0273328,
2,1,0,0,0,29188.3,0.0317611,0.0314169,0.269139,44,0.00140873,10,8.45552e-06,-3.57002,0.178747,0.330076,0.0312985,
2,1,0,1,0,29189.1,0.0357567,0.0354341,0.284501,44,0.00164226,10,1.00811e-05,-3.54592,0.192041,0.307227,0.0353089,
2,1,0,1,0,29189.9,0.0397516,0.0394454,0.298546,44,0.00188685,10,1.17762e-05,-3.52499,0.162988,0.36199,0.039314,
2,1,0,1,0,29190.7,0.0437465,0.0433824,0.311441,44,0.00214328,10,1.3511e-05,-3.50662,0.226513,0.260471,0.0432454,
2,1,0,1,0,29191.5,0.0477413,0.0474392,0.326278,44,0.00240997,10,1.54784e-05,-3.48641,0.207855,0.283851,0.0472956,
2,1,0,0,0,29192.3,0.0517369,0.0514437,0.339019,44,0.00268733,10,1.74404e-05,-3.46978,0.254489,0.231838,0.0512946,
2,1,0,1,0,29193.1,0.0557321,0.0554245,0.351429,44,0.00297515,10,1.94778e-05,-3.45416,0.302227,0.195217,0.0552699,
2,1,0,1,0,29193.9,0.0597277,0.0594035,0.363389,44,0.00327192,10,2.15866e-05,-3.43963,0.305447,0.193159,0.0592436,
2,1,0,1,0,29194.7,0.0637226,0.0633904,0.373742,44,0.003578,10,2.36916e-05,-3.42743,0.33139,0.178038,0.063226,
2,1,0,1,0,29195.5,0.0677174,0.0673908,0.384246,44,0.0038927,10,2.58946e-05,-3.41539,0.423479,0.139322,0.0672218,
2,1,0,0,0,29196.3,0.0717128,0.071356,0.393201,44,0.00421472,10,2.80573e-05,-3.40539,0.342771,0.172127,0.071183,
2,1,0,1,0,29197.1,0.075708,0.0753898,0.399839,44,0.00454411,10,3.01438e-05,-3.39811,0.446862,0.132032,0.0752139,
2,1,0,0,0,29197.9,0.0797031,0.0793897,0.411454,44,0.00488006,10,3.26652e-05,-3.38568,0.391222,0.15081,0.0792086,
2,1,0,1,0,29198.7,0.0836986,0.0833739,0.418407,44,0.00522258,10,3.48842e-05,-3.3784,0.448587,0.131524,0.0831898,
2,1,0,1,0,29199.5,0.0876935,0.0873747,0.429761,44,0.00557311,10,3.75503e-05,-3.36677,0.32629,0.180821,0.0871856,
2,1,0,1,0,29200.3,0.0916883,0.0913645,0.443571,44,0.00593326,10,4.05267e-05,-3.35304,0.245341,0.240482,0.0911694,
2,1,0,1,0,29201.1,0.0956838,0.0953446,0.458946,44,0.00630595,10,4.3758e-05,-3.33824,0.226884,0.260044,0.0951426,
2,1,0,0,0,29201.9,0.099679,0.0993529,0.481191,44,0.00669407,10,4.78077e-05,-3.31768,0.225204,0.261985,0.0991412,
2,1,0,1,0,29202.7,0.103674,0.103367,0.503976,44,0.0070995,10,5.20942e-05,-3.29759,0.177029,0.333279,0.103145,
2,1,0,1,0,29203.5,0.10767,0.107361,0.526161,44,0.00752429,10,5.64894e-05,-3.27888,0.237074,0.248868,0.10713,
2,1,0,1,0,29204.3,0.111664,0.111348,0.54671,44,0.00796509,10,6.08751e-05,-3.26224,0.270913,0.217782,0.111108,
2,1,0,1,0,29205.1,0.115659,0.115345,0.562355,44,0.00842023,10,6.48646e-05,-3.24999,0.320783,0.183925,0.115097,
2,1,0,0,0,29205.9,0.119655,0.119346,0.577172,44,0.00888812,10,6.8883e-05,-3.2387,0.485405,0.121548,0.119092,
2,1,0,1,0,29206.7,0.12365,0.123369,0.589199,44,0.00936599,10,7.26889e-05,-3.22974,0.413385,0.142724,0.12311,
2,1,0,1,0,29207.5,0.127646,0.127313,0.599016,44,0.00985391,10,7.62626e-05,-3.22256,0.585466,0.100774,0.127049,
2,1,0,1,0,29208.3,0.131641,0.131331,0.605906,44,0.0103494,10,7.95742e-05,-3.21759,-2.02966,-0.0290689,0.131064,
2,1,0,1,0,29209.1,0.135635,0.135263,0.597958,44,0.010844,10,8.08817e-05,-3.22333,-0.373187,-0.158098,0.135,
2,1,0,0,0,29209.9,0.139631,0.139345,0.56831,44,0.0113242,10,7.91912e-05,-3.24541,-0.133053,-0.443434,0.139095,
2,1,0,1,0,29210.7,0.143626,0.143302,0.522616,44,0.0117727,10,7.48921e-05,-3.28182,-0.0834482,-0.707026,0.143073,
2,1,0,0,0,29211.5,0.147621,0.147292,0.459887,44,0.0121765,10,6.77376e-05,-3.33735,-0.0711025,-0.829788,0.147089,
2,1,0,1,0,29212.3,0.151617,0.151318,0.405679,44,0.0125332,10,6.13867e-05,-3.39182,-0.0772109,-0.764141,0.15114,
2,1,0,1,0,29213.1,0.155612,0.155297,0.364233,44,0.0128507,10,5.65643e-05,-3.43862,-0.102152,-0.57757,0.155137,
2,1,0,1,0,29213.9,0.159606,0.159304,0.3359,44,0.013141,10,5.35102e-05,-3.47379,-0.136469,-0.432332,0.159156,
2,1,0,1,0,29214.7,0.163602,0.163296,0.318692,44,0.0134134,10,5.20413e-05,-3.49663,-0.171785,-0.343453,0.163156,
2,1,0,0,0,29215.5,0.167597,0.167296,0.30528,44,0.013673,10,5.10722e-05,-3.5153,-0.298941,-0.197363,0.167162,
2,1,0,1,0,29216.3,0.171592,0.171279,0.295488,44,0.0139244,10,5.0611e-05,-3.52946,-0.319393,-0.184726,0.171149,
2,1,0,1,0,29217.1,0.175588,0.175265,0.288431,44,0.0141687,10,5.0552e-05,-3.53996,-0.428055,-0.137833,0.175139,
2,1,0,1,0,29217.9,0.179582,0.179266,0.283658,44,0.014408,10,5.08503e-05,-3.54721,-0.595818,-0.0990235,0.179141,
2,1,0,1,0,29218.7,0.183577,0.183252,0.278843,44,0.0146434,10,5.10985e-05,-3.55464,-0.579234,-0.101859,0.183129,
2,1,0,0,0,29219.5,0.187573,0.187228,0.274101,44,0.0148754,10,5.13193e-05,-3.56209,-0.655016,-0.0900742,0.187107,
2,1,0,1,0,29220.3,0.191568,0.191251,0.270963,44,0.0151045,10,5.1822e-05,-3.56709,-0.900032,-0.0655532,0.191132,
2,1,0,0,0,29221.1,0.195563,0.195233,0.269051,44,0.0153316,10,5.25276e-05,-3.57017,-0.611063,-0.096553,0.195114,
2,1,0,1,0,29221.9,0.199559,0.199205,0.266104,44,0.0155561,10,5.30093e-05,-3.57495,-1.62726,-0.0362574,0.199088,
2,1,0,1,0,29222.7,0.203553,0.203252,0.262372,44,0.0157788,10,5.33277e-05,-3.58108,-1.12072,-0.0526448,0.203137,
2,1,0,1,0,29223.4,0.207548,0.207248,0.261527,44,0.0160001,10,5.4201e-05,-3.58248,-2.97928,-0.0198035,0.207133,
2,1,0,1,0,29224.2,0.211544,0.211242,0.259596,44,0.0162196,10,5.48375e-05,-3.5857,-0.862012,-0.0684445,0.211127,
2,1,0,0,0,29225,0.215539,0.215234,0.257794,44,0.0164378,10,5.5486e-05,-3.58873,-2.02658,-0.0291132,0.215121,
2,1,0,1,0,29225.8,0.219535,0.21921,0.257403,44,0.0166543,10,5.64253e-05,-3.58939,-1.0163,-0.0580538,0.219097,
2,1,0,1,0,29226.6,0.223529,0.223237,0.255687,44,0.0168697,10,5.70788e-05,-3.59229,-3.34976,-0.0176132,0.223125,
2,1,0,1,0,29227.4,0.227524,0.227204,0.253568,44,0.017084,10,5.76115e-05,-3.59591,-0.762404,-0.0773868,0.227092,
2,1,0,1,0,29228.2,0.23152,0.231242,0.251844,44,0.017297,10,5.8237e-05,-3.59887,4.70277,0.0125458,0.231131,
2,1,0,0,0,29229,0.235515,0.235209,0.250345,44,0.017509,10,5.88835e-05,-3.60146,-1.53206,-0.0385101,0.235099,
2,1,0,1,0,29229.8,0.23951,0.239192,0.250203,44,0.0177202,10,5.98464e-05,-3.60171,-1.69916,-0.0347231,0.239082,
2,1,0,1,0,29230.6,0.243506,0.243135,0.248107,44,0.0179306,10,6.03234e-05,-3.60536,4.44225,0.0132816,0.243026,
2,1,0,1,0,29231.4,0.2475,0.247206,0.248197,44,0.0181405,10,6.13558e-05,-3.6052,-1.76181,-0.0334883,0.247097,
2,1,0,1,0,29232.2,0.251495,0.251192,0.247525,44,0.0183494,10,6.21764e-05,-3.60638,-3.24351,-0.0181902,0.251083,
2,1,0,0,0,29233,0.255491,0.255185,0.245861,44,0.0185576,10,6.274e-05,-3.60931,-2.89307,-0.0203936,0.255077,
2,1,0,1,0,29233.8,0.259486,0.259198,0.245119,44,0.0187652,10,6.35342e-05,-3.61062,-0.850689,-0.0693555,0.25909,
2,1,0,0,0,29234.6,0.263481,0.263161,0.244555,44,0.0189716,10,6.43573e-05,-3.61162,-26.0298,-0.00226663,0.263054,
2,1,0,1,0,29235.4,0.267477,0.267179,0.242916,44,0.0191777,10,6.4902e-05,-3.61454,-2.45448,-0.0240377,0.267073,
2,1,0,1,0,29236.2,0.271471,0.271151,0.242,44,0.0193829,10,6.56186e-05,-3.61619,-2.57468,-0.0229155,0.271045,
2,1,0,1,0,29237,0.275466,0.275165,0.241494,44,0.0195872,10,6.64507e-05,-3.61709,-3.81899,-0.0154491,0.275058,
2,1,0,1,0,29237.8,0.279462,0.279188,0.240677,44,0.0197909,10,6.71942e-05,-3.61857,-1.56523,-0.037694,0.279082,
2,1,0,0,0,29238.6,0.283457,0.283173,0.239823,44,0.0199939,10,6.79115e-05,-3.62011,-2.45088,-0.024073,0.283068,
2,1,0,1,0,29239.4,0.287452,0.287146,0.238919,44,0.0201959,10,6.86046e-05,-3.62175,-11.6082,-0.00508261,0.28704,
2,1,0,1,0,29240.2,0.291448,0.291156,0.238362,44,0.0203973,10,6.94005e-05,-3.62276,-1.41237,-0.0417737,0.291051,
2,1,0,1,0,29241,0.295442,0.295183,0.237092,44,0.0205977,10,6.99855e-05,-3.62508,-2.6329,-0.0224087,0.295079,
2,1,0,1,0,29241.8,0.299437,0.299155,0.236,44,0.0207975,10,7.06008e-05,-3.62709,-7.7592,-0.00760388,0.299051,
2,1,0,0,0,29242.6,0.303433,0.303126,0.235705,44,0.0209966,10,7.14483e-05,-3.62763,12.8445,0.0045934,0.303022,
2,1,0,1,0,29243.4,0.307428,0.30715,0.235699,44,0.0211947,10,7.2395e-05,-3.62764,-1.39595,-0.042265,0.307046,
2,1,0,1,0,29244.2,0.311424,0.311088,0.234011,44,0.0213926,10,7.27979e-05,-3.63076,-1.51684,-0.0388966,0.310985,
2,1,0,1,0,29245,0.315418,0.315152,0.234303,44,0.0215894,10,7.3841e-05,-3.63022,-9.9749,-0.00591485,0.315049,
2,1,0,1,0,29245.8,0.319413,0.31907,0.232303,44,0.0217858,10,7.4121e-05,-3.63395,-4.47375,-0.013188,0.318968,
2,1,0,0,0,29246.6,0.323409,0.323088,0.232133,44,0.021982,10,7.49995e-05,-3.63426,-0.927291,-0.0636262,0.322986,
2,1,0,1,0,29247.4,0.327404,0.327113,0.231613,44,0.0221772,10,7.57639e-05,-3.63524,3.21658,0.0183425,0.327011,
2,1,0,0,0,29248.2,0.331399,0.331134,0.230501,44,0.0223722,10,7.63268e-05,-3.63733,-1.37833,-0.0428056,0.331033,
2,1,0,1,0,29249,0.335395,0.335055,0.230372,44,0.0225666,10,7.71872e-05,-3.63757,6.47664,0.00910966,0.334954,
2,1,0,1,0,29249.8,0.339389,0.339074,0.229536,44,0.0227604,10,7.78295e-05,-3.63915,-13.2301,-0.00445952,0.338973,
2,1,0,1,0,29250.6,0.343384,0.343101,0.229005,44,0.0229538,10,7.85717e-05,-3.64016,-3.59761,-0.0163998,0.343,
2,1,0,1,0,29251.4,0.34738,0.34706,0.228878,44,0.0231468,10,7.94343e-05,-3.6404,-1.95666,-0.0301534,0.346959,
2,1,0,0,0,29252.2,0.351375,0.351057,0.228538,44,0.0233393,10,8.02299e-05,-3.64104,-3.10585,-0.0189964,0.350957,
2,1,0,1,0,29253,0.35537,0.355041,0.22878,44,0.0235313,10,8.12265e-05,-3.64058,-1.76175,-0.0334893,0.354941,
2,1,0,1,0,29253.8,0.359366,0.359014,0.22737,44,0.0237227,10,8.16291e-05,-3.64327,1.48881,0.039629,0.358914,
2,1,0,1,0,29254.6,0.36336,0.363051,0.227197,44,0.0239142,10,8.24841e-05,-3.6436,-1.53279,-0.0384918,0.362951,
2,1,0,1,0,29255.4,0.367355,0.36707,0.227149,44,0.0241051,10,8.33795e-05,-3.64369,-3.58617,-0.0164521,0.36697,
2,1,0,0,0,29256.2,0.371351,0.371006,0.22543,44,0.0242953,10,8.36357e-05,-3.64699,-15.7116,-0.00375519,0.370907,
2,1,0,1,0,29257,0.375346,0.375061,0.225515,44,0.0244853,10,8.45819e-05,-3.64682,-30.1737,-0.00195534,0.374962,
2,1,0,1,0,29257.8,0.379342,0.379016,0.225393,44,0.0246749,10,8.54275e-05,-3.64706,-3.1178,-0.0189236,0.378916,
2,1,0,1,0,29258.6,0.383336,0.383016,0.224793,44,0.024864,10,8.60992e-05,-3.64822,6.06289,0.00973133,0.382917,
2,1,0,1,0,29259.4,0.387331,0.387037,0.22504,44,0.0250532,10,8.70989e-05,-3.64774,-1.12915,-0.0522517,0.386938,
2,1,0,0,0,29260.2,0.391327,0.391015,0.22389,44,0.025242,10,8.75442e-05,-3.64997,1.47585,0.039977,0.390916,
2,1,0,1,0,29261,0.395322,0.39506,0.2228,44,0.0254305,10,8.80195e-05,-3.65208,-4.08537,-0.0144418,0.394962,
2,1,0,0,0,29261.8,0.399317,0.399018,0.223787,44,0.0256187,10,8.9295e-05,-3.65017,-2.19349,-0.0268978,0.39892,
2,1,0,1,0,29262.6,0.403313,0.403029,0.223733,44,0.0258066,10,9.0171e-05,-3.65027,-71.8791,-0.000820823,0.402931,
2,1,0,1,0,29263.4,0.407307,0.40701,0.223638,44,0.0259941,10,9.10229e-05,-3.65045,-2.51262,-0.0234814,0.406911,
2,1,0,1,0,29264.2,0.411302,0.411026,0.223892,44,0.0261814,10,9.20253e-05,-3.64996,-2.44287,-0.0241519,0.410928,
2,1,0,1,0,29265,0.415298,0.414996,0.222095,44,0.0263686,10,9.21685e-05,-3.65346,13.1817,0.00447589,0.414898,
2,1,0,0,0,29265.8,0.419293,0.41904,0.222688,44,0.0265557,10,9.33153e-05,-3.6523,-7.89483,-0.00747325,0.418942,
2,1,0,1,0,29266.6,0.423288,0.422997,0.222438,44,0.0267427,10,9.40908e-05,-3.65279,101.761,0.00057979,0.4229,
2,1,0,1,0,29267.4,0.427283,0.427011,0.221513,44,0.0269296,10,9.45885e-05,-3.6546,6.36436,0.00927038,0.426914,
2,1,0,1,0,29268.2,0.431278,0.431032,0.222689,44,0.0271162,10,9.59859e-05,-3.6523,-3.60358,-0.0163726,0.430934,
2,1,0,1,0,29269,0.435273,0.434999,0.221964,44,0.0273026,10,9.65541e-05,-3.65372,1.5783,0.037382,0.434901,
2,1,0,0,0,29269.8,0.439269,0.438998,0.222526,44,0.0274893,10,9.76886e-05,-3.65262,-4.34789,-0.0135698,0.4389,
2,1,0,1,0,29270.6,0.443264,0.442983,0.222057,44,0.0276756,10,9.83674e-05,-3.65354,6.1354,0.00961633,0.442885,
2,1,0,0,0,29271.4,0.447259,0.446943,0.223412,44,0.0278621,10,9.98522e-05,-3.65089,-4.03882,-0.0146082,0.446844,
2,1,0,1,0,29272.2,0.451254,0.450935,0.222658,44,0.0280487,10,0.000100404,-3.65236,26.0356,0.00226613,0.450837,
2,1,0,1,0,29273,0.455249,0.45495,0.223011,44,0.0282351,10,0.000101459,-3.65167,1.51441,0.0389591,0.454852,
2,1,0,1,0,29273.8,0.459244,0.458929,0.222182,44,0.028422,10,0.000101966,-3.65329,-3.73547,-0.0157945,0.458831,
2,1,0,1,0,29274.6,0.46324,0.462932,0.223313,44,0.0286088,10,0.000103379,-3.65109,-3.91262,-0.0150794,0.462834,
2,1,0,0,0,29275.4,0.467235,0.466905,0.223395,44,0.0287957,10,0.000104304,-3.65093,1.31563,0.0448456,0.466806,
2,1,0,1,0,29276.2,0.471231,0.470909,0.224453,44,0.028983,10,0.000105697,-3.64887,5.01754,0.0117588,0.47081,
2,1,0,1,0,29277,0.475225,0.474918,0.224392,44,0.0291706,10,0.000106568,-3.64899,176.78,0.000333748,0.47482,
2,1,0,1,0,29277.8,0.47922,0.478917,0.225233,44,0.0293586,10,0.000107868,-3.64737,3.91262,0.0150794,0.478817,
2,1,0,1,0,29278.6,0.483216,0.482918,0.22552,44,0.029547,10,0.000108907,-3.64682,-24.5491,-0.00240335,0.482819,
2,1,0,0,0,29279.4,0.487211,0.486912,0.225685,44,0.0297358,10,0.000109889,-3.6465,1.28781,0.0458141,0.486813,
2,1,0,1,0,29280.2,0.491206,0.490923,0.225325,44,0.029925,10,0.000110617,-3.64719,4.06112,0.014528,0.490824,
2,1,0,1,0,29281,0.495201,0.494937,0.227743,44,0.0301149,10,0.000112718,-3.64255,2.94451,0.0200373,0.494837,
2,1,0,1,0,29281.8,0.499196,0.498898,0.228642,44,0.0303055,10,0.000114069,-3.64084,1.90054,0.0310437,0.498797,
2,1,0,1,0,29282.6,0.503191,0.502893,0.228758,44,0.0304968,10,0.000115041,-3.64062,1.76686,0.0333925,0.502793,
2,1,0,0,0,29283.4,0.507187,0.506862,0.229242,44,0.0306885,10,0.000116194,-3.63971,3.15967,0.0186728,0.506761,
2,1,0,1,0,29284.2,0.511182,0.510881,0.231092,44,0.030881,10,0.000118061,-3.63621,2.58481,0.0228257,0.510779,
2,1,0,0,0,29285,0.515177,0.514839,0.233138,44,0.0310748,10,0.000120029,-3.63239,3.02004,0.0195362,0.514737,
2,1,0,1,0,29285.8,0.519173,0.518891,0.233849,44,0.0312692,10,0.000121342,-3.63106,1.38927,0.0424682,0.518788,
2,1,0,1,0,29286.6,0.523167,0.52285,0.234598,44,0.0314646,10,0.000122659,-3.62968,0.977794,0.0603399,0.522746,
2,1,0,1,0,29287.4,0.527162,0.52688,0.236009,44,0.0316612,10,0.000124348,-3.62707,2.37503,0.0248418,0.526776,
2,1,0,1,0,29288.2,0.531158,0.530873,0.236494,44,0.0318587,10,0.000125548,-3.62618,1.19991,0.0491705,0.530769,
2,1,0,0,0,29289,0.535153,0.534864,0.239785,44,0.0320576,10,0.000128252,-3.62018,1.18394,0.0498336,0.534759,
2,1,0,1,0,29289.8,0.539148,0.538886,0.241892,44,0.0322577,10,0.000130352,-3.61638,1.28394,0.0459522,0.53878,
2,1,0,1,0,29290.6,0.543143,0.542878,0.243639,44,0.0324594,10,0.000132266,-3.61325,1.13558,0.0519558,0.54277,
2,1,0,1,0,29291.4,0.547138,0.546845,0.24571,44,0.0326626,10,0.000134366,-3.60958,1.53492,0.0384386,0.546737,
2,1,0,1,0,29292.2,0.551133,0.550856,0.247974,44,0.0328676,10,0.000136598,-3.60559,0.719641,0.0819853,0.550747,
2,1,0,0,0,29293,0.555129,0.554846,0.249626,44,0.0330748,10,0.000138504,-3.60271,0.92513,0.0637748,0.554736,
2,1,0,1,0,29293.8,0.559124,0.558839,0.253506,44,0.0332839,10,0.000141669,-3.59601,0.782297,0.0754189,0.558727,
2,1,0,1,0,29294.6,0.56312,0.562853,0.255774,44,0.0334953,10,0.000143963,-3.59214,0.666501,0.088522,0.56274,
2,1,0,1,0,29295.4,0.567114,0.566791,0.259474,44,0.0337094,10,0.000147067,-3.58591,0.933,0.0632368,0.566677,
2,1,0,1,0,29296.2,0.571109,0.570814,0.263379,44,0.0339261,10,0.000150341,-3.57942,0.570445,0.103428,0.570698,
2,1,0,0,0,29297,0.575105,0.574843,0.266904,44,0.0341456,10,0.000153428,-3.57364,0.535513,0.110175,0.574726,
2,1,0,1,0,29297.8,0.5791,0.57881,0.271439,44,0.0343687,10,0.000157112,-3.56633,0.667451,0.088396,0.578691,
2,1,0,0,0,29298.6,0.583095,0.582841,0.276168,44,0.0345954,10,0.000160962,-3.55883,0.429604,0.137336,0.582719,
2,1,0,1,0,29299.4,0.58709,0.58682,0.281899,44,0.0348266,10,0.000165424,-3.54991,0.467019,0.126333,0.586696,
2,1,0,1,0,29300.2,0.591085,0.590801,0.288869,44,0.0350624,10,0.000170664,-3.5393,0.365436,0.161451,0.590673,
2,1,0,1,0,29301,0.59508,0.594766,0.29492,44,0.0353033,10,0.000175408,-3.5303,0.357183,0.165181,0.594636,
2,1,0,1,0,29301.8,0.599076,0.598767,0.303877,44,0.0355503,10,0.000181951,-3.5173,0.366764,0.160867,0.598634,
2,1,0,0,0,29302.6,0.603071,0.602784,0.312254,44,0.0358037,10,0.000188222,-3.50549,0.295669,0.199548,0.602647,
2,1,0,1,0,29303.4,0.607066,0.60681,0.32243,44,0.036065,10,0.000195654,-3.49157,0.259072,0.227736,0.606669,
2,1,0,1,0,29304.2,0.611061,0.610771,0.334225,44,0.0363348,10,0.000204135,-3.47596,0.264098,0.223402,0.610624,
2,1,0,1,0,29305,0.615056,0.614774,0.348028,44,0.0366144,10,0.000213958,-3.45839,0.216049,0.273087,0.614621,
2,1,0,1,0,29305.7,0.619051,0.618743,0.362168,44,0.036906,10,0.000224089,-3.44109,0.192725,0.306135,0.618583,
2,1,0,0,0,29306.5,0.623047,0.622808,0.381411,44,0.037211,10,0.000237546,-3.41861,0.173215,0.340616,0.62264,
2,1,0,1,0,29307.3,0.627042,0.626729,0.402282,44,0.0375317,10,0.000252122,-3.39547,0.159674,0.369503,0.626552,
2,1,0,1,0,29308.1,0.631037,0.630775,0.427594,44,0.0378711,10,0.000269715,-3.36897,0.147941,0.398807,0.630587,
2,1,0,1,0,29308.9,0.635032,0.634775,0.455753,44,0.0382314,10,0.0002893,-3.34127,0.14067,0.419423,0.634574,
2,1,0,1,0,29309.7,0.639027,0.638753,0.488805,44,0.0386165,10,0.000312226,-3.31086,0.119331,0.494424,0.638538,
2,1,0,1,0,29310.5,0.643022,0.642764,0.530599,44,0.0390314,10,0.00034105,-3.27523,0.116677,0.505669,0.642531,
2,1,0,1,0,29311.3,0.647018,0.64673,0.574583,44,0.0394799,10,0.0003716,-3.24065,0.10597,0.55676,0.646477,
2,1,0,0,0,29312.1,0.651013,0.650742,0.629203,44,0.0399681,10,0.000409449,-3.20121,0.0989422,0.596308,0.650465,
2,1,0,1,0,29312.9,0.655008,0.654768,0.693166,44,0.0405034,10,0.000453863,-3.15916,0.0910434,0.648043,0.654463,
2,1,0,1,0,29313.7,0.659003,0.658702,0.766402,44,0.0410932,10,0.000504831,-3.11554,0.0872092,0.676534,0.658365,
2,1,0,1,0,29314.5,0.662998,0.662748,0.852935,44,0.0417471,10,0.000565281,-3.06908,0.0849455,0.694563,0.662372,
2,1,0,1,0,29315.3,0.666994,0.66673,0.951323,44,0.042475,10,0.000634276,-3.02167,0.0812177,0.726442,0.666311,
2,1,0,0,0,29316.1,0.670989,0.670705,1.06542,44,0.0432877,10,0.000714585,-2.97248,0.0789391,0.747412,0.670236,
2,1,0,1,0,29316.9,0.674984,0.674746,1.19581,44,0.0441978,10,0.000806868,-2.92234,0.077829,0.758072,0.67422,
2,1,0,1,0,29317.7,0.67898,0.678676,1.34501,44,0.0452198,10,0.000912823,-2.87128,0.0764704,0.77154,0.678084,
2,1,0,1,0,29318.5,0.682974,0.682631,1.51413,44,0.046369,10,0.00103359,-2.81984,0.0767497,0.768732,0.681964,
2,1,0,1,0,29319.3,0.686969,0.686703,1.70241,44,0.0476603,10,0.00116905,-2.76894,0.0767892,0.768337,0.685954,
2,1,0,0,0,29320.1,0.690965,0.690695,1.9152,44,0.0491125,10,0.00132282,-2.71779,0.0768841,0.767388,0.689852,
2,1,0,1,0,29320.9,0.69496,0.694683,2.14846,44,0.0507422,10,0.0014925,-2.66787,0.0778789,0.757587,0.693738,
2,1,0,0,0,29321.7,0.698955,0.698671,2.40556,44,0.052568,10,0.0016807,-2.61878,0.0812227,0.726398,0.697613,
2,1,0,1,0,29322.5,0.70295,0.702633,2.68437,44,0.0546087,10,0.00188613,-2.57116,0.0802938,0.734802,0.701452,
2,1,0,1,0,29323.3,0.706945,0.706688,2.98955,44,0.0568828,10,0.00211268,-2.52439,0.085039,0.693799,0.705372,
2,1,0,1,0,29324.1,0.71094,0.71064,3.31763,44,0.0594089,10,0.00235764,-2.47917,0.0859298,0.686607,0.70918,
2,1,0,1,0,29324.9,0.714936,0.714694,3.66938,44,0.0622077,10,0.00262249,-2.43541,0.0882964,0.668204,0.713079,
2,1,0,0,0,29325.7,0.718931,0.718674,4.04647,44,0.065297,10,0.0029081,-2.39292,0.0926231,0.63699,0.716893,
2,1,0,1,0,29326.5,0.722927,0.722636,4.44487,44,0.0686966,10,0.00321202,-2.35214,0.0949255,0.62154,0.72068,
2,1,0,1,0,29327.3,0.726921,0.72665,4.8687,44,0.072424,10,0.00353785,-2.31259,0.0992814,0.59427,0.724508,
2,1,0,1,0,29328.1,0.730916,0.730662,5.31447,44,0.0764988,10,0.00388308,-2.27454,0.101046,0.583894,0.728323,
2,1,0,1,0,29328.9,0.734911,0.734626,5.78499,44,0.08094,10,0.0042498,-2.2377,0.103164,0.571902,0.732081,
2,1,0,0,0,29329.7,0.738907,0.73862,6.27869,44,0.0857666,10,0.00463756,-2.20213,0.109125,0.540664,0.735857,
2,1,0,1,0,29330.5,0.742902,0.742652,6.79512,44,0.0909964,10,0.0050464,-2.1678,0.109791,0.537384,0.739662,
2,1,0,1,0,29331.3,0.746897,0.746599,7.33788,44,0.0966507,10,0.00547845,-2.13443,0.116517,0.506364,0.74337,
2,1,0,1,0,29332.1,0.750892,0.750611,7.90719,44,0.102748,10,0.00593522,-2.10198,0.116313,0.507251,0.747132,
2,1,0,1,0,29332.9,0.754887,0.754598,8.50003,44,0.10931,10,0.00641411,-2.07058,0.119356,0.494318,0.750858,
2,1,0,0,0,29333.7,0.758883,0.758633,9.12359,44,0.116359,10,0.00692146,-2.03983,0.122966,0.479807,0.754619,
2,1,0,1,0,29334.5,0.762878,0.762601,9.77688,44,0.123916,10,0.00745586,-2.0098,0.124395,0.474297,0.758299,
2,1,0,0,0,29335.3,0.766873,0.766567,10.4635,44,0.132009,10,0.00802094,-1.98032,0.125803,0.468986,0.761963,
2,1,0,1,0,29336.1,0.770868,0.770582,11.1926,44,0.140668,10,0.0086248,-1.95107,0.125596,0.469759,0.765657,
2,1,0,1,0,29336.9,0.774863,0.774538,11.9628,44,0.149923,10,0.00926566,-1.92217,0.126735,0.465538,0.769274,
2,1,0,1,0,29337.7,0.778858,0.778587,12.7844,44,0.159816,10,0.00995378,-1.89332,0.125455,0.470287,0.772961,
2,1,0,1,0,29338.5,0.782854,0.782547,13.6537,44,0.170385,10,0.0106846,-1.86475,0.128146,0.460412,0.77654,
2,1,0,0,0,29339.3,0.786849,0.786573,14.5759,44,0.18167,10,0.011465,-1.83637,0.123401,0.478116,0.780159,
2,1,0,1,0,29340.1,0.790844,0.790595,15.5954,44,0.193726,10,0.0123296,-1.807,0.119052,0.495583,0.783733,
2,1,0,1,0,29340.9,0.794839,0.794555,16.6699,44,0.206627,10,0.0132452,-1.77807,0.124691,0.47317,0.787221,
2,1,0,1,0,29341.7,0.798834,0.798584,17.7745,44,0.220392,10,0.0141944,-1.7502,0.122927,0.479961,0.790763,
2,1,0,1,0,29342.5,0.802829,0.802563,18.9512,44,0.235072,10,0.0152095,-1.72236,0.126985,0.464623,0.794225,
2,1,0,0,0,29343.3,0.806825,0.806578,20.1816,44,0.250712,10,0.0162781,-1.69504,0.126376,0.46686,0.797698,
2,1,0,1,0,29344.1,0.81082,0.81057,21.4688,44,0.26736,10,0.0174019,-1.66819,0.131276,0.449436,0.801123,
2,1,0,1,0,29344.9,0.814815,0.814541,22.7813,44,0.285045,10,0.0185563,-1.64242,0.135314,0.436024,0.804518,
2,1,0,1,0,29345.7,0.81881,0.818542,24.1204,44,0.30379,10,0.0197435,-1.61762,0.137231,0.429933,0.807929,
2,1,0,1,0,29346.5,0.822805,0.82251,25.5422,44,0.323643,10,0.0210087,-1.59274,0.150973,0.3908,0.811272,
2,1,0,0,0,29347.3,0.826801,0.826532,26.8678,44,0.344581,10,0.0222071,-1.57077,0.14099,0.41847,0.81471,
2,1,0,1,0,29348.1,0.830796,0.830529,28.3371,44,0.366657,10,0.0235348,-1.54764,0.149413,0.394879,0.81806,
2,1,0,0,0,29348.9,0.834791,0.834519,29.8207,44,0.389904,10,0.0248859,-1.52548,0.158682,0.371813,0.821398,
2,1,0,1,0,29349.7,0.838786,0.838525,31.269,44,0.414322,10,0.0262198,-1.50489,0.161983,0.364237,0.824767,
2,1,0,1,0,29350.5,0.842781,0.842538,32.8399,44,0.439935,10,0.0276689,-1.4836,0.161468,0.365398,0.828088,
2,1,0,1,0,29351.3,0.846776,0.84658,33.9058,44,0.466736,10,0.028704,-1.46973,0.240998,0.244815,0.831661,
2,1,0,0,0,29352,0.849723,0.849474,34.9546,44,0.490946,10,0.029693,-1.4565,0.0549377,1.07394,0.834094,
2,1,0,1,0,29352.8,0.845728,0.845484,32.7571,44,0.517936,10,0.0276956,-1.48469,0.127393,0.463133,0.83107,
2,1,0,0,0,29353.6,0.841732,0.841492,31.03,44,0.543409,10,0.0261115,-1.50822,0.132546,0.44513,0.827839,
2,1,0,1,0,29354.4,0.837737,0.837536,29.3064,44,0.567496,10,0.0245452,-1.53304,0.130169,0.453255,0.824642,
2,1,0,1,0,29355.2,0.833742,0.833515,27.6598,44,0.590247,10,0.0230548,-1.55815,0.127173,0.463933,0.821344,
2,1,0,1,0,29356,0.829747,0.829485,26.1102,44,0.611703,10,0.021658,-1.58319,0.138349,0.426458,0.817996,
2,1,0,1,0,29356.8,0.825752,0.825485,24.6645,44,0.631985,10,0.0203602,-1.60793,0.133729,0.441191,0.814633,
2,1,0,0,0,29357.6,0.821757,0.821528,23.2728,44,0.65112,10,0.0191192,-1.63315,0.131907,0.447285,0.811288,
2,1,0,1,0,29358.4,0.817761,0.817469,21.8932,44,0.669148,10,0.017897,-1.65969,0.125267,0.470995,0.807836,
2,1,0,1,0,29359.2,0.813766,0.813515,20.5362,44,0.686082,10,0.0167065,-1.68748,0.12282,0.480377,0.804479,
2,1,0,1,0,29360,0.809771,0.809508,19.2725,44,0.701973,10,0.0156013,-1.71506,0.124202,0.475032,0.801028,
2,1,0,1,0,29360.8,0.805776,0.805485,18.0463,44,0.716868,10,0.014536,-1.74361,0.120909,0.487969,0.797545,
2,1,0,0,0,29361.6,0.801781,0.801536,16.8891,44,0.730817,10,0.0135372,-1.77239,0.0861123,0.685152,0.794105,
2,1,0,1,0,29362.4,0.797786,0.797508,15.4739,44,0.743661,10,0.0123405,-1.8104,0.124036,0.475669,0.790699,
2,1,0,1,0,29363.2,0.79379,0.793506,14.455,44,0.755607,10,0.0114701,-1.83998,0.120973,0.487711,0.787146,
2,1,0,1,0,29364,0.789795,0.78956,13.4922,44,0.76676,10,0.0106529,-1.86992,0.116717,0.505498,0.783623,
2,1,0,1,0,29364.8,0.7858,0.785498,12.5646,44,0.777157,10,0.00986945,-1.90085,0.115501,0.51082,0.77997,
2,1,0,0,0,29365.6,0.781805,0.78151,11.675,44,0.786832,10,0.00912413,-1.93274,0.11173,0.528058,0.776373,
2,1,0,1,0,29366.4,0.77781,0.777584,10.8507,44,0.795817,10,0.00843731,-1.96454,0.115232,0.512012,0.772809,
2,1,0,0,0,29367.2,0.773815,0.773576,10.071,44,0.804164,10,0.00779067,-1.99693,0.110806,0.53246,0.769145,
2,1,0,1,0,29368,0.769819,0.769565,9.3213,44,0.811902,10,0.00717335,-2.03052,0.107808,0.547269,0.765464,
2,1,0,1,0,29368.8,0.765824,0.765551,8.61936,44,0.819057,10,0.00659856,-2.06453,0.107827,0.54717,0.761759,
2,1,0,1,0,29369.6,0.761829,0.761536,7.95706,44,0.825667,10,0.00605958,-2.09925,0.106525,0.553862,0.758034,
2,1,0,1,0,29370.4,0.757834,0.757596,7.33669,44,0.831767,10,0.00555825,-2.1345,0.103055,0.572511,0.754368,
2,1,0,0,0,29371.2,0.753839,0.753589,6.74543,44,0.837382,10,0.00508328,-2.17099,0.102806,0.573896,0.750621,
2,1,0,1,0,29372,0.749844,0.749602,6.19007,44,0.842539,10,0.00464008,-2.2083,0.0986489,0.59808,0.746878,
2,1,0,1,0,29372.8,0.745848,0.745591,5.66961,44,0.847267,10,0.00422721,-2.24645,0.0995289,0.592793,0.743096,
2,1,0,1,0,29373.6,0.741853,0.74158,5.18573,44,0.851593,10,0.00384563,-2.28519,0.0944066,0.624956,0.739298,
2,1,0,1,0,29374.4,0.737858,0.737599,4.7254,44,0.855542,10,0.00348545,-2.32556,0.0924765,0.638,0.73552,
2,1,0,0,0,29375.2,0.733863,0.733595,4.29514,44,0.859136,10,0.00315089,-2.36702,0.0912284,0.646729,0.731705,
2,1,0,1,0,29376,0.729868,0.729603,3.88985,44,0.862396,10,0.00283805,-2.41007,0.0876639,0.673025,0.727892,
2,1,0,1,0,29376.8,0.725872,0.725611,3.51177,44,0.865344,10,0.00254818,-2.45447,0.0850909,0.693376,0.724065,
2,1,0,1,0,29377.6,0.721877,0.721557,3.15881,44,0.868,10,0.00227926,-2.50048,0.081915,0.720258,0.720167,
2,1,0,1,0,29378.4,0.717882,0.71761,2.83109,44,0.870384,10,0.00203162,-2.54805,0.0803139,0.734617,0.716365,
2,1,0,0,0,29379.2,0.713887,0.713612,2.52555,44,0.872515,10,0.00180226,-2.59764,0.0751102,0.785512,0.712501,
2,1,0,1,0,29380,0.709892,0.709607,2.24373,44,0.874411,10,0.00159216,-2.64903,0.0737996,0.799462,0.70862,
2,1,0,0,0,29380.8,0.705897,0.705625,1.98396,44,0.87609,10,0.00139993,-2.70247,0.0718297,0.821387,0.704753,
2,1,0,1,0,29381.6,0.701901,0.70161,1.74344,44,0.87757,10,0.00122322,-2.75859,0.0682512,0.864453,0.700843,
2,1,0,1,0,29382.4,0.697906,0.697622,1.52409,44,0.878866,10,0.00106324,-2.81699,0.0651846,0.905121,0.696951,
2,1,0,1,0,29383.2,0.693911,0.693655,1.3246,44,0.879995,10,0.000918816,-2.87791,0.0627035,0.940936,0.693072,
2,1,0,1,0,29384,0.689916,0.689658,1.14377,44,0.880972,10,0.000788807,-2.94166,0.0602246,0.979666,0.689155,
2,1,0,0,0,29384.8,0.685921,0.685696,0.981112,44,0.881812,10,0.000672745,-3.00828,0.0575733,1.02478,0.685265,
2,1,0,1,0,29385.6,0.681926,0.68163,0.835109,44,0.882528,10,0.000569235,-3.07826,0.0542347,1.08786,0.681262,
2,1,0,1,0,29386.4,0.67793,0.677661,0.704235,44,0.883135,10,0.000477233,-3.15228,0.0523422,1.1272,0.677351,
2,1,0,1,0,29387.2,0.673935,0.673671,0.588617,44,0.883642,10,0.000396534,-3.23017,0.049647,1.18839,0.673412,
2,1,0,1,0,29388,0.66994,0.669682,0.48867,44,0.884064,10,0.000327254,-3.31098,0.0467222,1.26278,0.669467,
2,1,0,0,0,29388.8,0.665945,0.665692,0.399087,44,0.88441,10,0.000265669,-3.39893,0.0436987,1.35015,0.665516,
2,1,0,1,0,29389.5,0.66195,0.661668,0.322787,44,0.88469,10,0.000213578,-3.49108,0.0414609,1.42303,0.661526,
2,1,0,0,0,29390.3,0.657955,0.65764,0.255165,44,0.884912,10,0.000167807,-3.59318,0.0370181,1.59381,0.657528,
2,1,0,1,0,29391.1,0.653959,0.65368,0.19849,44,0.885086,10,0.000129749,-3.70226,0.0347528,1.6977,0.653593,
2,1,0,1,0,29391.9,0.649964,0.649671,0.149979,44,0.885217,10,9.74367e-05,-3.82397,0.0300048,1.96635,0.649605,
2,1,0,1,0,29392.7,0.64597,0.64568,0.108547,44,0.885312,10,7.00867e-05,-3.96438,0.026639,2.2148,0.645632,
2,1,0,1,0,29393.5,0.641974,0.64176,0.072869,44,0.885376,10,4.67644e-05,-4.13746,0.0203398,2.90072,0.641728,
2,1,0,0,0,29394.3,0.637979,0.637716,0.0437941,44,0.885415,10,2.79282e-05,-4.35858,0.0141532,4.16866,0.637697,
2,1,0,1,0,29395.1,0.633983,0.633751,0.0184878,44,0.885431,10,1.17167e-05,-4.73311,0.00673418,8.76128,0.633742,
2,1,0,1,0,29395.9,0.629988,0.62971,-0.00254825,44,0.88543,10,-1.60466e-06,-5.59376,-0.0259332,-2.27507,0.629711,
2,0,0,1,0,29396.7,0.625993,0.625719,-0.0193806,44,0.885413,10,-1.21268e-05,-4.71263,-0.0104913,-5.62368,0.625727,
2,0,0,1,0,29397.5,0.621998,0.621704,-0.033073,44,0.885385,10,-2.05616e-05,-4.48053,-0.022561,-2.61514,0.621718,
2,0,0,0,0,29398.3,0.618003,0.617738,-0.0452268,44,0.885345,10,-2.79383e-05,-4.3446,-0.0355452,-1.65986,0.617758,
2,0,0,1,0,29399.1,0.614008,0.613715,-0.0549027,44,0.885297,10,-3.36946e-05,-4.26041,-0.0559225,-1.05503,0.613739,
2,0,0,1,0,29399.9,0.610012,0.609734,-0.0645326,44,0.885241,10,-3.93477e-05,-4.19022,-0.0768014,-0.768215,0.609762,
2,0,0,1,0,29400.7,0.606017,0.605707,-0.0715312,44,0.885179,10,-4.33269e-05,-4.1455,-0.105567,-0.558887,0.605738,
2,0,0,1,0,29401.5,0.602022,0.601743,-0.0781104,44,0.885111,10,-4.70024e-05,-4.10729,-0.122012,-0.483557,0.601777,
2,0,0,0,0,29402.3,0.598027,0.597756,-0.0840733,44,0.885038,10,-5.02553e-05,-4.07534,-0.126889,-0.464974,0.597793,
2,0,0,1,0,29403.1,0.594032,0.593748,-0.0875406,44,0.884962,10,-5.19771e-05,-4.05779,-0.229405,-0.257187,0.593787,
2,0,0,0,0,29403.9,0.590037,0.589755,-0.0919943,44,0.884882,10,-5.42541e-05,-4.03624,-0.3191,-0.184895,0.589795,
2,0,0,1,0,29404.7,0.586041,0.585738,-0.0951616,44,0.8848,10,-5.57397e-05,-4.02154,-0.32602,-0.180971,0.58578,
2,0,0,1,0,29405.5,0.582046,0.581715,-0.0974936,44,0.884715,10,-5.67134e-05,-4.01102,-0.282182,-0.209085,0.581758,
2,0,0,1,0,29406.3,0.578052,0.577787,-0.100008,44,0.884629,10,-5.77833e-05,-3.99997,-0.339334,-0.17387,0.577831,
2,0,0,1,0,29407.1,0.574056,0.573795,-0.101925,44,0.88454,10,-5.8484e-05,-3.99172,-0.421265,-0.140054,0.57384,
2,0,0,0,0,29407.9,0.570061,0.569795,-0.104331,44,0.884449,10,-5.94471e-05,-3.98159,-1.64223,-0.0359268,0.569841,
2,0,0,1,0,29408.7,0.566065,0.565774,-0.10537,44,0.884358,10,-5.96157e-05,-3.97728,-0.446245,-0.132214,0.565821,
2,0,0,1,0,29409.5,0.56207,0.561769,-0.107811,44,0.884265,10,-6.05647e-05,-3.96734,-0.570768,-0.10337,0.561816,
2,0,0,1,0,29410.3,0.558075,0.557755,-0.108943,44,0.884171,10,-6.07634e-05,-3.9628,-0.682004,-0.0865098,0.557803,
2,0,0,1,0,29411.1,0.55408,0.553803,-0.108953,44,0.884075,10,-6.03385e-05,-3.96276,-0.531219,-0.111065,0.553851,
2,0,0,0,0,29411.9,0.550085,0.549805,-0.111328,44,0.883979,10,-6.1209e-05,-3.95339,100.66,0.000586132,0.549854,
2,0,0,1,0,29412.7,0.54609,0.545791,-0.111864,44,0.883882,10,-6.10546e-05,-3.95131,-1.0736,-0.0549552,0.545841,
2,0,0,1,0,29413.5,0.542094,0.541785,-0.113407,44,0.883784,10,-6.1442e-05,-3.94536,-0.543911,-0.108474,0.541835,
2,0,0,1,0,29414.3,0.538099,0.537778,-0.11461,44,0.883685,10,-6.16347e-05,-3.94078,-2.18121,-0.0270493,0.537828,
2,0,0,1,0,29415.1,0.534104,0.533804,-0.115525,44,0.883585,10,-6.16679e-05,-3.93732,-0.913693,-0.0645731,0.533855,
2,0,0,0,0,29415.9,0.530109,0.529825,-0.116393,44,0.883484,10,-6.1668e-05,-3.93407,-0.750838,-0.0785789,0.529876,
2,0,0,1,0,29416.7,0.526114,0.52583,-0.117827,44,0.883382,10,-6.19571e-05,-3.92875,-1.74883,-0.0337368,0.525882,
2,0,0,0,0,29417.5,0.522119,0.5218,-0.118765,44,0.88328,10,-6.19716e-05,-3.92531,-1.00563,-0.0586695,0.521852,
2,0,0,1,0,29418.3,0.518123,0.517843,-0.118654,44,0.883177,10,-6.14442e-05,-3.92572,-7.20166,-0.00819255,0.517895,
2,0,0,1,0,29419.1,0.514128,0.513825,-0.119653,44,0.883073,10,-6.14806e-05,-3.92208,-0.953048,-0.0619067,0.513877,
2,0,0,1,0,29419.9,0.510133,0.50986,-0.120596,44,0.882969,10,-6.14869e-05,-3.91867,-0.604272,-0.0976381,0.509913,
2,0,0,1,0,29420.7,0.506138,0.50579,-0.122497,44,0.882863,10,-6.19579e-05,-3.91187,-1.40068,-0.0421223,0.505844,
2,0,0,0,0,29421.5,0.502143,0.501845,-0.123521,44,0.882757,10,-6.19882e-05,-3.90826,-1.63725,-0.0360361,0.501899,
2,0,0,1,0,29422.3,0.498148,0.497816,-0.123794,44,0.88265,10,-6.16267e-05,-3.9073,-1.57656,-0.0374232,0.49787,
2,0,0,1,0,29423.1,0.494152,0.493819,-0.125434,44,0.882542,10,-6.19416e-05,-3.90159,-0.716899,-0.0822989,0.493874,
2,0,0,1,0,29423.9,0.490157,0.489847,-0.125896,44,0.882433,10,-6.16696e-05,-3.89999,-0.725699,-0.0813009,0.489902,
2,0,0,1,0,29424.7,0.486162,0.485849,-0.127696,44,0.882323,10,-6.20409e-05,-3.89382,-1.61582,-0.036514,0.485906,
2,0,0,0,0,29425.5,0.482167,0.481836,-0.129237,44,0.882213,10,-6.22713e-05,-3.88861,-1.11081,-0.0531143,0.481893,
2,0,0,1,0,29426.3,0.478172,0.477882,-0.129279,44,0.882101,10,-6.178e-05,-3.88847,-0.785288,-0.0751317,0.477939,
2,0,0,0,0,29427.1,0.474177,0.473835,-0.131881,44,0.881988,10,-6.24897e-05,-3.87982,-2.10525,-0.0280252,0.473893,
2,0,0,1,0,29427.9,0.470181,0.469892,-0.132594,44,0.881874,10,-6.23048e-05,-3.87748,-0.777272,-0.0759065,0.46995,
2,0,0,1,0,29428.7,0.466186,0.465841,-0.134486,44,0.881759,10,-6.26491e-05,-3.87132,-1.01461,-0.0581504,0.4659,
2,0,0,1,0,29429.5,0.462191,0.461899,-0.135476,44,0.881643,10,-6.25761e-05,-3.86814,-0.628227,-0.0939151,0.461958,
2,0,0,1,0,29430.3,0.458196,0.457866,-0.137092,44,0.881526,10,-6.27698e-05,-3.86299,-0.770412,-0.0765824,0.457926,
2,0,0,0,0,29431.1,0.454201,0.453913,-0.138397,44,0.881407,10,-6.282e-05,-3.85887,-1.21091,-0.0487235,0.453973,
2,0,0,1,0,29431.9,0.450205,0.449957,-0.140925,44,0.881287,10,-6.34103e-05,-3.85101,-0.712143,-0.0828485,0.450019,
2,0,0,1,0,29432.7,0.44621,0.445922,-0.14128,44,0.881166,10,-6.29997e-05,-3.84992,-1.21595,-0.0485219,0.445984,
2,0,0,1,0,29433.5,0.442215,0.44191,-0.142684,44,0.881044,10,-6.30533e-05,-3.84563,-1.0318,-0.0571819,0.441973,
2,0,0,1,0,29434.3,0.43822,0.437927,-0.145029,44,0.88092,10,-6.35122e-05,-3.83854,-0.562673,-0.104857,0.437991,
2,0,0,0,0,29435.1,0.434225,0.43391,-0.146028,44,0.880795,10,-6.33628e-05,-3.83557,-0.630112,-0.0936342,0.433974,
2,0,0,1,0,29435.9,0.43023,0.429948,-0.147965,44,0.880669,10,-6.36174e-05,-3.82984,-1.62872,-0.0362249,0.430014,
2,0,0,1,0,29436.7,0.426234,0.425944,-0.150463,44,0.880541,10,-6.40887e-05,-3.82257,-0.442136,-0.133443,0.42601,
2,0,0,1,0,29437.5,0.422239,0.421925,-0.151955,44,0.880412,10,-6.41136e-05,-3.81829,-4.74967,-0.0124219,0.421992,
2,0,0,1,0,29438.3,0.418244,0.417966,-0.153555,44,0.880282,10,-6.41808e-05,-3.81374,-0.521638,-0.113105,0.418034,
2,0,0,0,0,29439.1,0.414249,0.413912,-0.154789,44,0.880149,10,-6.40691e-05,-3.81026,-0.929915,-0.0634467,0.41398,
2,0,0,1,0,29439.9,0.410254,0.409907,-0.157606,44,0.880015,10,-6.46036e-05,-3.80243,-1.2712,-0.0464128,0.409976,
2,0,0,0,0,29440.7,0.406259,0.405966,-0.15908,44,0.87988,10,-6.45812e-05,-3.79838,-0.47683,-0.123734,0.406036,
2,0,0,1,0,29441.5,0.402263,0.401975,-0.161572,44,0.879743,10,-6.49478e-05,-3.79163,-0.903674,-0.065289,0.402046,
2,0,0,1,0,29442.3,0.398268,0.397983,-0.163736,44,0.879604,10,-6.5164e-05,-3.78586,-0.84613,-0.0697293,0.398055,
2,0,0,1,0,29443.1,0.394274,0.393996,-0.165123,44,0.879464,10,-6.50579e-05,-3.78219,-0.458427,-0.128701,0.394068,
2,0,0,1,0,29443.9,0.390278,0.390009,-0.166665,44,0.879322,10,-6.50008e-05,-3.77816,-1.43985,-0.0409764,0.390083,
2,0,0,0,0,29444.7,0.386283,0.386003,-0.169131,44,0.879179,10,-6.5285e-05,-3.77178,-0.827179,-0.0713268,0.386077,
2,0,0,1,0,29445.5,0.382287,0.381991,-0.170915,44,0.879033,10,-6.52879e-05,-3.76722,-0.512276,-0.115172,0.382066,
2,0,0,1,0,29446.3,0.378292,0.377998,-0.173541,44,0.878886,10,-6.55983e-05,-3.7606,-7.16637,-0.0082329,0.378074,
2,0,0,1,0,29447.1,0.374297,0.374028,-0.175489,44,0.878738,10,-6.56377e-05,-3.75575,-0.563794,-0.104648,0.374105,
2,0,0,1,0,29447.9,0.370303,0.370011,-0.17764,44,0.878587,10,-6.5729e-05,-3.75046,-0.594216,-0.0992906,0.37009,
2,0,0,0,0,29448.7,0.366307,0.366023,-0.179419,44,0.878435,10,-6.56715e-05,-3.74613,-0.679082,-0.086882,0.366102,
2,0,0,1,0,29449.5,0.362312,0.36201,-0.182845,44,0.878281,10,-6.61919e-05,-3.73792,-0.700833,-0.0841855,0.362091,
2,0,0,1,0,29450.3,0.358316,0.35802,-0.184155,44,0.878125,10,-6.59312e-05,-3.73482,-1.13153,-0.0521418,0.358101,
2,0,0,1,0,29451.1,0.354321,0.353993,-0.186558,44,0.877967,10,-6.60402e-05,-3.72919,-0.757648,-0.0778726,0.354075,
2,0,0,1,0,29451.9,0.350327,0.350014,-0.18792,44,0.877808,10,-6.57746e-05,-3.72603,-0.956531,-0.0616812,0.350097,
2,0,0,0,0,29452.7,0.346331,0.345995,-0.191218,44,0.877646,10,-6.61605e-05,-3.71847,-1.41147,-0.0418004,0.346079,
2,0,0,1,0,29453.5,0.342336,0.342031,-0.192769,44,0.877483,10,-6.59329e-05,-3.71496,-0.452365,-0.130426,0.342116,
2,0,0,0,0,29454.3,0.338341,0.338022,-0.196259,44,0.877317,10,-6.63399e-05,-3.70717,-0.617811,-0.0954985,0.338108,
2,0,0,1,0,29455.1,0.334345,0.334022,-0.198981,44,0.87715,10,-6.64641e-05,-3.70119,-1.04413,-0.0565065,0.33411,
2,0,0,1,0,29455.9,0.33035,0.330075,-0.200924,44,0.876981,10,-6.63199e-05,-3.69697,-0.653199,-0.0903247,0.330163,
2,0,0,1,0,29456.7,0.326355,0.326038,-0.203149,44,0.876809,10,-6.62343e-05,-3.69218,-1.03883,-0.0567949,0.326127,
2,0,0,1,0,29457.5,0.32236,0.322029,-0.205435,44,0.876636,10,-6.61559e-05,-3.68733,-0.641118,-0.0920268,0.322119,
2,0,0,0,0,29458.3,0.318365,0.318034,-0.206752,44,0.876461,10,-6.57543e-05,-3.68455,-0.836096,-0.070566,0.318125,
2,0,0,1,0,29459.1,0.31437,0.314064,-0.2098,44,0.876284,10,-6.58905e-05,-3.6782,-2.34367,-0.0251742,0.314156,
2,0,0,1,0,29459.9,0.310374,0.310044,-0.211863,44,0.876105,10,-6.56867e-05,-3.67395,-0.581344,-0.101489,0.310137,
2,0,0,1,0,29460.7,0.306379,0.30609,-0.21516,44,0.875924,10,-6.58581e-05,-3.66724,-0.434528,-0.13578,0.306184,
2,0,0,1,0,29461.5,0.302385,0.302081,-0.217914,44,0.875741,10,-6.58277e-05,-3.66171,-2.0128,-0.0293123,0.302177,
2,0,0,0,0,29462.3,0.298389,0.29809,-0.220296,44,0.875556,10,-6.56681e-05,-3.65699,-0.566711,-0.10411,0.298187,
2,0,0,1,0,29463.1,0.294394,0.294075,-0.223534,44,0.875368,10,-6.57357e-05,-3.65066,-1.4862,-0.0396987,0.294174,
2,0,0,1,0,29463.9,0.290398,0.290047,-0.225327,44,0.875179,10,-6.53556e-05,-3.64719,-0.813788,-0.0725005,0.290146,
2,0,0,1,0,29464.7,0.286403,0.286098,-0.227462,44,0.874988,10,-6.50763e-05,-3.64309,-0.675916,-0.087289,0.286198,
2,0,0,1,0,29465.5,0.282408,0.282097,-0.230524,44,0.874794,10,-6.50302e-05,-3.63728,-0.944012,-0.0624992,0.282199,
2,0,0,1,0,29466.3,0.278414,0.278127,-0.233029,44,0.874599,10,-6.48118e-05,-3.63259,-0.695323,-0.0848526,0.27823,
2,0,0,1,0,29467.1,0.274418,0.274124,-0.236346,44,0.874401,10,-6.47879e-05,-3.62645,-1.05349,-0.0560045,0.274228,
2,0,0,0,0,29467.9,0.270423,0.270122,-0.239346,44,0.874201,10,-6.46526e-05,-3.62097,-0.690384,-0.0854597,0.270227,
2,0,0,1,0,29468.7,0.266427,0.266081,-0.2408,44,0.873999,10,-6.40725e-05,-3.61834,-0.714213,-0.0826084,0.266187,
2,0,0,1,0,29469.5,0.262432,0.262125,-0.243725,44,0.873795,10,-6.38866e-05,-3.6131,-1.40396,-0.0420241,0.262233,
2,0,0,1,0,29470.3,0.258437,0.258147,-0.246359,44,0.87359,10,-6.35968e-05,-3.60843,-0.800837,-0.073673,0.258255,
2,0,0,1,0,29471.1,0.254442,0.254132,-0.247784,44,0.873382,10,-6.29698e-05,-3.60593,-0.91753,-0.0643031,0.254241,
2,0,0,0,0,29471.8,0.250447,0.250161,-0.250474,44,0.873172,10,-6.26587e-05,-3.60124,-0.913703,-0.0645724,0.250271,
2,0,0,1,0,29472.6,0.246452,0.246131,-0.253775,44,0.87296,10,-6.24619e-05,-3.59555,-0.955648,-0.0617382,0.246243,
2,0,0,1,0,29473.4,0.242456,0.2421,-0.255829,44,0.872746,10,-6.19363e-05,-3.59205,-0.727752,-0.0810716,0.242213,
2,0,0,1,0,29474.2,0.238461,0.238186,-0.257813,44,0.87253,10,-6.14073e-05,-3.5887,-3.41499,-0.0172768,0.238299,
2,0,0,1,0,29475,0.234467,0.23414,-0.259697,44,0.872313,10,-6.08056e-05,-3.58553,-0.610768,-0.0965996,0.234255,
2,0,0,0,0,29475.8,0.230471,0.230176,-0.262822,44,0.872093,10,-6.04954e-05,-3.58034,-2.26033,-0.0261023,0.230292,
2,0,0,1,0,29476.6,0.226476,0.226196,-0.266136,44,0.871872,10,-6.01988e-05,-3.5749,-0.884614,-0.0666957,0.226313,
2,0,0,0,0,29477.4,0.222481,0.222183,-0.266995,44,0.871648,10,-5.93217e-05,-3.5735,-0.889727,-0.0663125,0.2223,
2,0,0,1,0,29478.2,0.218485,0.218137,-0.295183,44,0.871421,10,-6.43904e-05,-3.52991,-0.42867,-0.137635,0.218267,
2,0,0,1,0,29479,0.21449,0.214163,-0.276118,44,0.871187,10,-5.91343e-05,-3.55891,-1.87483,-0.0314695,0.214285,
2,0,0,1,0,29479.8,0.210496,0.210197,-0.277489,44,0.870955,10,-5.83271e-05,-3.55675,-0.806095,-0.0731923,0.210319,
2,0,0,1,0,29480.6,0.2065,0.206185,-0.281907,44,0.870721,10,-5.81249e-05,-3.54989,-0.767551,-0.0768678,0.206309,
2,0,0,0,0,29481.4,0.202505,0.202202,-0.282607,44,0.870485,10,-5.71435e-05,-3.54882,-1.01103,-0.0583565,0.202326,
2,0,0,1,0,29482.2,0.198509,0.19819,-0.286827,44,0.870246,10,-5.68461e-05,-3.54238,-0.927062,-0.0636419,0.198316,
2,0,0,1,0,29483,0.194514,0.194211,-0.290344,44,0.870004,10,-5.63881e-05,-3.53709,-0.758316,-0.077804,0.194339,
2,0,0,1,0,29483.8,0.190519,0.190177,-0.292191,44,0.86976,10,-5.5568e-05,-3.53433,-0.690052,-0.0855008,0.190305,
2,0,0,1,0,29484.6,0.186524,0.186231,-0.298535,44,0.869512,10,-5.55965e-05,-3.525,-0.747049,-0.0789774,0.186362,
2,0,0,0,0,29485.4,0.182529,0.182247,-0.303394,44,0.86926,10,-5.52926e-05,-3.51799,-0.405636,-0.145451,0.18238,
2,0,0,1,0,29486.2,0.178534,0.178181,-0.308646,44,0.869004,10,-5.49949e-05,-3.51054,-0.670179,-0.0880361,0.178317,
2,0,0,1,0,29487,0.174538,0.17419,-0.315162,44,0.868744,10,-5.48979e-05,-3.50147,-0.35505,-0.166174,0.174328,
2,0,0,1,0,29487.8,0.170543,0.170235,-0.322174,44,0.868477,10,-5.48451e-05,-3.49191,-0.326335,-0.180796,0.170376,
2,0,0,1,0,29488.6,0.166549,0.166179,-0.332706,44,0.868204,10,-5.52887e-05,-3.47794,-0.329177,-0.179235,0.166325,
2,0,0,0,0,29489.4,0.162553,0.1622,-0.343585,44,0.867922,10,-5.57294e-05,-3.46397,-0.238571,-0.247306,0.162351,
2,0,0,1,0,29490.2,0.158558,0.158236,-0.356501,44,0.86763,10,-5.64114e-05,-3.44794,-0.203473,-0.289964,0.158393,
2,0,0,0,0,29491,0.154563,0.15427,-0.377347,44,0.867325,10,-5.82135e-05,-3.42326,-0.18177,-0.324586,0.154436,
2,0,0,1,0,29491.8,0.150567,0.150258,-0.40076,44,0.867004,10,-6.02171e-05,-3.39712,-0.121459,-0.485761,0.150434,
2,0,0,1,0,29492.6,0.146572,0.146265,-0.431989,44,0.86666,10,-6.3185e-05,-3.36453,-0.111158,-0.530776,0.146455,
2,0,0,1,0,29493.4,0.142578,0.142265,-0.475964,44,0.866287,10,-6.77129e-05,-3.32243,-0.0915107,-0.644733,0.142474,
2,0,0,1,0,29494.2,0.138582,0.138253,-0.525926,44,0.865876,10,-7.27107e-05,-3.27908,-0.0905714,-0.65142,0.138484,
2,0,0,0,0,29495,0.134587,0.134225,-0.57966,44,0.865423,10,-7.78051e-05,-3.23683,-0.0998429,-0.590928,0.13448,
2,0,0,1,0,29495.8,0.130591,0.13027,-0.630749,44,0.864927,10,-8.21674e-05,-3.20014,-0.119467,-0.493861,0.130547,
2,0,0,1,0,29496.6,0.126596,0.126261,-0.669976,44,0.864393,10,-8.45916e-05,-3.17394,-0.171775,-0.343472,0.126555,
2,0,0,1,0,29497.4,0.122602,0.122251,-0.702971,44,0.86383,10,-8.59391e-05,-3.15306,-0.310276,-0.190153,0.122561,
2,0,0,1,0,29498.2,0.118607,0.118246,-0.71868,44,0.86325,10,-8.49808e-05,-3.14346,-0.435111,-0.135597,0.118562,
2,0,0,0,0,29499,0.114611,0.114274,-0.724746,44,0.862659,10,-8.28195e-05,-3.13981,9.95381,0.00592738,0.114593,
2,0,0,1,0,29499.8,0.110616,0.110259,-0.724553,44,0.862069,10,-7.98886e-05,-3.13993,2.6052,0.022647,0.110578,
2,0,0,1,0,29500.6,0.10662,0.106277,-0.718648,44,0.86148,10,-7.63759e-05,-3.14348,1.23161,0.0479049,0.106593,
2,0,0,1,0,29501.4,0.102625,0.102311,-0.710875,44,0.860896,10,-7.27306e-05,-3.14821,0.648313,0.0910054,0.102624,
2,0,0,1,0,29502.2,0.0986305,0.0983073,-0.702428,44,0.86032,10,-6.90538e-05,-3.1534,0.678742,0.0869255,0.0986163,
2,0,0,0,0,29503,0.0946351,0.094334,-0.689236,44,0.85975,10,-6.50184e-05,-3.16163,0.661533,0.0891868,0.0946372,
2,0,0,1,0,29503.8,0.0906399,0.0903182,-0.682095,44,0.859189,10,-6.16056e-05,-3.16616,0.507202,0.116325,0.0906183,
2,0,0,0,0,29504.6,0.0866448,0.0863406,-0.669773,44,0.858637,10,-5.78286e-05,-3.17407,0.673238,0.0876361,0.0866353,
2,0,0,1,0,29505.4,0.0826492,0.0822916,-0.661693,44,0.858093,10,-5.44518e-05,-3.17934,0.570317,0.103451,0.0825827,
2,0,0,1,0,29506.2,0.0786544,0.0783271,-0.651457,44,0.857558,10,-5.10267e-05,-3.18611,0.682478,0.0864496,0.0786137,
2,0,0,1,0,29507,0.0746596,0.0743128,-0.641982,44,0.85703,10,-4.77075e-05,-3.19248,0.709316,0.0831787,0.0745953,
2,0,0,1,0,29507.8,0.0706641,0.0703699,-0.63348,44,0.856509,10,-4.45779e-05,-3.19827,0.574126,0.102765,0.0706486,
2,0,0,0,0,29508.6,0.0666689,0.0663912,-0.623955,44,0.855995,10,-4.14252e-05,-3.20485,0.833231,0.0708087,0.0666658,
2,0,0,1,0,29509.4,0.0626737,0.0623405,-0.613317,44,0.855488,10,-3.82345e-05,-3.21231,0.561663,0.105045,0.0626103,
2,0,0,1,0,29510.2,0.0586783,0.0583468,-0.6062,44,0.854988,10,-3.53698e-05,-3.21738,0.490644,0.12025,0.0586135,
2,0,0,1,0,29511,0.0546835,0.0543832,-0.596676,44,0.854496,10,-3.24491e-05,-3.22426,0.784577,0.0751998,0.0546457,
2,0,0,1,0,29511.8,0.0506886,0.0503848,-0.587698,44,0.85401,10,-2.9611e-05,-3.23085,0.485127,0.121618,0.0506434,
2,0,0,0,0,29512.6,0.046693,0.0463718,-0.577887,44,0.853534,10,-2.67977e-05,-3.23816,0.578449,0.101997,0.0466261,
2,0,0,1,0,29513.4,0.0426979,0.042391,-0.567082,44,0.853065,10,-2.40392e-05,-3.24635,0.547862,0.107691,0.0426405,
2,0,0,1,0,29514.2,0.0387022,0.0383843,-0.555338,44,0.852604,10,-2.13162e-05,-3.25544,0.410984,0.143558,0.0386286,
2,0,0,1,0,29515,0.0347074,0.0343488,-0.545784,44,0.852152,10,-1.8747e-05,-3.26298,0.52944,0.111438,0.034589,
2,0,0,1,0,29515.8,0.0307126,0.0304025,-0.53358,44,0.851709,10,-1.62221e-05,-3.2728,0.480687,0.122741,0.0306372,
2,0,0,0,0,29516.6,0.0267172,0.0263969,-0.526236,44,0.851273,10,-1.3891e-05,-3.27882,0.52597,0.112174,0.0266285,
2,0,0,1,0,29517.4,0.022722,0.0223706,-0.518012,44,0.850845,10,-1.15882e-05,-3.28566,0.785439,0.0751172,0.0225985,
2,0,0,0,0,29518.2,0.0187268,0.0183749,-0.509791,44,0.850422,10,-9.36738e-06,-3.29261,0.63921,0.0923015,0.0185993,
2,0,0,1,0,29519,0.0147313,0.0144341,-0.506641,44,0.850005,10,-7.31291e-06,-3.2953,1.22416,0.0481965,0.014657,
2,0,0,1,0,29519.8,0.0107365,0.0104335,-0.500436,44,0.849591,10,-5.22128e-06,-3.30065,1.6911,0.0348885,0.0106537,
2,0,0,1,0,29520.6,0.00674163,0.00643195,-0.500369,44,0.84918,10,-3.21835e-06,-3.30071,3.09548,0.0190601,0.00665211,
2,0,0,1,0,29521.4,0.00274612,0.00242431,-0.498934,44,0.848769,10,-1.20957e-06,-3.30196,-3.4247,-0.0172278,0.00264384,
2,0,0,0,0,29521.9,0.000274105,-9.26968e-05,-0.500621,44,0.848513,10,4.6406e-08,-3.30049, , ,0.000127576,