File: Figure_codes/Fig_3-5/workspace_calculate_alpha_eff/20221101_1-115_003_TrumpetPlot_ParaChange_from10_every3_16_CV_C01_81.csv
mode,ox/red,error,control changes,counter inc.,time/s,control/V,Ewe/V,<I>/mA,cycle number,(Q-Qo)/C,I Range,P/W,log(|I|),Tafel slope mV/dec,alpha_eff,E-IR/V,
2,0,0,1,0,54423.6,2.44065e-05,-0.000344411,-0.0453313,82,0.0000000E+000,10,1.56126e-08,-4.3436, , ,-0.000324465,
2,1,0,1,0,54424.4,0.00379485,0.00346139,0.198814,82,0.000128951,10,6.88171e-07,-3.70155,0.0441334,1.33686,0.00337391,
2,1,0,0,0,54425.2,0.00779002,0.00742201,0.221664,82,0.000308627,10,1.64519e-06,-3.65431,0.102625,0.574906,0.00732447,
2,1,0,1,0,54426,0.0117852,0.0114229,0.237122,82,0.000503671,10,2.70863e-06,-3.62503,0.142854,0.413009,0.0113186,
2,1,0,1,0,54426.8,0.0157806,0.0154273,0.251761,82,0.00071039,10,3.88399e-06,-3.59901,0.16895,0.349215,0.0153165,
2,1,0,1,0,54427.6,0.0197754,0.0194438,0.264631,82,0.00092779,10,5.14543e-06,-3.57736,0.191747,0.307697,0.0193273,
2,1,0,1,0,54428.4,0.0237704,0.023404,0.277997,82,0.0011561,10,6.50623e-06,-3.55596,0.181343,0.325349,0.0232817,
2,1,0,0,0,54429.2,0.0277659,0.0273672,0.292332,82,0.00139479,10,8.00031e-06,-3.53412,0.199217,0.296159,0.0272386,
2,1,0,1,0,54430,0.0317611,0.0314073,0.303017,82,0.00164442,10,9.51695e-06,-3.51853,0.203276,0.290245,0.031274,
2,1,0,1,0,54430.8,0.0357567,0.0353939,0.319408,82,0.00190472,10,1.13051e-05,-3.49565,0.261189,0.22589,0.0352533,
2,1,0,1,0,54431.6,0.0397516,0.0393711,0.332622,82,0.0021754,10,1.30957e-05,-3.47805,0.197712,0.298414,0.0392248,
2,1,0,1,0,54432.4,0.0437465,0.0434175,0.343416,82,0.00245697,10,1.49103e-05,-3.46418,0.278815,0.21161,0.0432664,
2,1,0,1,0,54433.2,0.0477413,0.0473542,0.35528,82,0.00274795,10,1.6824e-05,-3.44943,0.250108,0.235898,0.0471978,
2,1,0,1,0,54434,0.0517369,0.0513812,0.366842,82,0.00304848,10,1.88488e-05,-3.43552,0.296495,0.198992,0.0512197,
2,1,0,0,0,54434.8,0.0557321,0.0553471,0.379453,82,0.00335864,10,2.10016e-05,-3.42084,0.433249,0.13618,0.0551801,
2,1,0,1,0,54435.6,0.0597277,0.0593983,0.388837,82,0.00367676,10,2.30963e-05,-3.41023,0.315717,0.186876,0.0592272,
2,1,0,1,0,54436.4,0.0637226,0.0633819,0.397701,82,0.00400311,10,2.5207e-05,-3.40044,0.359303,0.164207,0.0632069,
2,1,0,1,0,54437.2,0.0677174,0.0674038,0.408099,82,0.0043374,10,2.75074e-05,-3.38923,0.635486,0.0928424,0.0672242,
2,1,0,1,0,54438,0.0717128,0.0714006,0.415357,82,0.00467787,10,2.96568e-05,-3.38158,0.421539,0.139963,0.0712178,
2,1,0,0,0,54438.8,0.075708,0.0753421,0.421837,82,0.00502436,10,3.17821e-05,-3.37486,0.498295,0.118404,0.0751565,
2,1,0,1,0,54439.6,0.0797031,0.0793367,0.429484,82,0.00537653,10,3.40738e-05,-3.36705,0.658189,0.0896399,0.0791477,
2,1,0,1,0,54440.4,0.0836986,0.0833452,0.436482,82,0.00573441,10,3.63787e-05,-3.36003,0.453731,0.130033,0.0831532,
2,1,0,1,0,54441.2,0.0876935,0.0873257,0.445979,82,0.00609939,10,3.89454e-05,-3.35069,0.393612,0.149894,0.0871295,
2,1,0,1,0,54442,0.0916883,0.0913551,0.460447,82,0.00647284,10,4.20642e-05,-3.33682,0.301823,0.195479,0.0911525,
2,1,0,0,0,54442.8,0.0956838,0.0953445,0.475194,82,0.00685808,10,4.53072e-05,-3.32313,0.234297,0.251817,0.0951355,
2,1,0,1,0,54443.6,0.099679,0.0993561,0.494621,82,0.00725784,10,4.91436e-05,-3.30573,0.25806,0.228629,0.0991384,
2,1,0,0,0,54444.4,0.103674,0.103356,0.516927,82,0.00767352,10,5.34274e-05,-3.28657,0.186239,0.316796,0.103128,
2,1,0,1,0,54445.2,0.10767,0.107352,0.535518,82,0.00810659,10,5.74887e-05,-3.27123,0.271822,0.217054,0.107116,
2,1,0,1,0,54446,0.111664,0.111295,0.553935,82,0.0085544,10,6.16502e-05,-3.25654,0.306693,0.192375,0.111051,
2,1,0,1,0,54446.8,0.115659,0.115324,0.567601,82,0.00901501,10,6.54582e-05,-3.24596,0.393583,0.149905,0.115075,
2,1,0,1,0,54447.6,0.119655,0.119282,0.580668,82,0.00948618,10,6.92634e-05,-3.23607,0.644572,0.0915337,0.119027,
2,1,0,0,0,54448.4,0.12365,0.123309,0.58752,82,0.00996433,10,7.24463e-05,-3.23098,0.798556,0.0738833,0.12305,
2,1,0,1,0,54449.2,0.127646,0.127295,0.592478,82,0.0104484,10,7.54196e-05,-3.22733,1.60601,0.036737,0.127035,
2,1,0,1,0,54450,0.131641,0.131314,0.59305,82,0.010935,10,7.78756e-05,-3.22691,-0.685018,-0.0861291,0.131053,
2,1,0,1,0,54450.8,0.135635,0.135262,0.578856,82,0.0114158,10,7.82974e-05,-3.23743,-0.272087,-0.216843,0.135008,
2,1,0,1,0,54451.6,0.139631,0.13933,0.545308,82,0.0118791,10,7.59779e-05,-3.26336,-0.121735,-0.484661,0.13909,
2,1,0,0,0,54452.4,0.143626,0.143282,0.499738,82,0.0123098,10,7.16036e-05,-3.30126,-0.086105,-0.68521,0.143062,
2,1,0,1,0,54453.2,0.147621,0.147257,0.444315,82,0.0126983,10,6.54283e-05,-3.35231,-0.0773152,-0.76311,0.147061,
2,1,0,1,0,54454,0.151617,0.151268,0.396384,82,0.0130449,10,5.996e-05,-3.40188,-0.091392,-0.64557,0.151093,
2,1,0,1,0,54454.8,0.155612,0.155236,0.363545,82,0.0133585,10,5.64352e-05,-3.43944,-0.123389,-0.478161,0.155076,
2,1,0,1,0,54455.6,0.159606,0.159294,0.340794,82,0.0136503,10,5.42866e-05,-3.46751,-0.191059,-0.308805,0.159144,
2,1,0,0,0,54456.4,0.163602,0.163266,0.327114,82,0.0139283,10,5.34065e-05,-3.4853,-0.213902,-0.275827,0.163122,
2,1,0,1,0,54457.2,0.167597,0.167215,0.317345,82,0.0141969,10,5.30648e-05,-3.49847,-0.512668,-0.115084,0.167075,
2,1,0,0,0,54458,0.171592,0.171221,0.31003,82,0.0144593,10,5.30836e-05,-3.5086,-0.538833,-0.109496,0.171084,
2,1,0,1,0,54458.8,0.175588,0.175228,0.306664,82,0.014717,10,5.37362e-05,-3.51334,-0.567706,-0.103927,0.175094,
2,1,0,1,0,54459.6,0.179582,0.179241,0.30381,82,0.014971,10,5.44552e-05,-3.5174,-1.14745,-0.0514185,0.179107,
2,1,0,1,0,54460.3,0.183577,0.183241,0.300164,82,0.0152227,10,5.50024e-05,-3.52264,-0.847253,-0.0696368,0.183109,
2,1,0,1,0,54461.1,0.187573,0.187245,0.297627,82,0.015472,10,5.5729e-05,-3.52633,-1.3584,-0.0434333,0.187114,
2,1,0,0,0,54461.9,0.191568,0.191222,0.295337,82,0.0157195,10,5.64751e-05,-3.52968,-1.08079,-0.0545899,0.191092,
2,1,0,1,0,54462.7,0.195563,0.195222,0.294509,82,0.0159658,10,5.74946e-05,-3.5309,-1.07075,-0.0551018,0.195093,
2,1,0,1,0,54463.5,0.199559,0.199192,0.292243,82,0.0162107,10,5.82126e-05,-3.53426,5.60064,0.0105345,0.199064,
2,1,0,1,0,54464.3,0.203553,0.203192,0.290831,82,0.0164546,10,5.90945e-05,-3.53636,-1.36125,-0.0433426,0.203064,
2,1,0,1,0,54465.1,0.207548,0.207206,0.290429,82,0.0166974,10,6.01787e-05,-3.53696,-3.22637,-0.0182868,0.207079,
2,1,0,0,0,54465.9,0.211544,0.211188,0.289285,82,0.0169393,10,6.10933e-05,-3.53867,-3.51534,-0.0167836,0.21106,
2,1,0,1,0,54466.7,0.215539,0.215223,0.28758,82,0.0171803,10,6.18939e-05,-3.54124,-2.73795,-0.021549,0.215097,
2,1,0,1,0,54467.5,0.219535,0.219236,0.28694,82,0.0174205,10,6.29075e-05,-3.54221,-3.9732,-0.0148495,0.219109,
2,1,0,1,0,54468.3,0.223529,0.223217,0.285568,82,0.0176601,10,6.37436e-05,-3.54429,-2.34229,-0.025189,0.223091,
2,1,0,1,0,54469.1,0.227524,0.227189,0.284131,82,0.0178991,10,6.45514e-05,-3.54648,-1.49975,-0.03934,0.227064,
2,1,0,0,0,54469.9,0.23152,0.23117,0.284679,82,0.018137,10,6.58093e-05,-3.54564,3.08317,0.0191361,0.231045,
2,1,0,1,0,54470.7,0.235515,0.23521,0.283204,82,0.0183746,10,6.66125e-05,-3.5479,-1.4671,-0.0402153,0.235085,
2,1,0,0,0,54471.5,0.23951,0.239199,0.283777,82,0.0186114,10,6.78792e-05,-3.54702,-3.28088,-0.017983,0.239074,
2,1,0,1,0,54472.3,0.243506,0.243162,0.282079,82,0.0188477,10,6.8591e-05,-3.54963,9.00368,0.00655288,0.243038,
2,1,0,1,0,54473.1,0.2475,0.247203,0.281195,82,0.0190835,10,6.95122e-05,-3.55099,-1.63908,-0.0359958,0.247079,
2,1,0,1,0,54473.9,0.251495,0.251123,0.280251,82,0.0193183,10,7.03774e-05,-3.55245,-5.1885,-0.0113713,0.251,
2,1,0,1,0,54474.7,0.255491,0.255153,0.279609,82,0.0195527,10,7.1343e-05,-3.55345,-3.02767,-0.0194869,0.25503,
2,1,0,0,0,54475.5,0.259486,0.259128,0.280037,82,0.0197868,10,7.25653e-05,-3.55278,-4.73198,-0.0124684,0.259004,
2,1,0,1,0,54476.3,0.263481,0.263117,0.278407,82,0.0200199,10,7.32535e-05,-3.55532,-2.78353,-0.0211961,0.262994,
2,1,0,1,0,54477.1,0.267477,0.26717,0.277702,82,0.0202526,10,7.41936e-05,-3.55642,-3.35715,-0.0175744,0.267048,
2,1,0,1,0,54477.9,0.271471,0.271157,0.277266,82,0.0204846,10,7.51825e-05,-3.5571,-5.54893,-0.0106327,0.271035,
2,1,0,1,0,54478.7,0.275466,0.275113,0.27522,82,0.0207159,10,7.57164e-05,-3.56032,-1.21307,-0.0486369,0.274992,
2,1,0,0,0,54479.5,0.279462,0.279126,0.27586,82,0.0209464,10,7.69997e-05,-3.55931,-27.7488,-0.00212622,0.279004,
2,1,0,1,0,54480.3,0.283457,0.283136,0.27497,82,0.0211759,10,7.78538e-05,-3.56072,-3.43859,-0.0171582,0.283015,
2,1,0,0,0,54481.1,0.287452,0.287113,0.273782,82,0.0214049,10,7.86064e-05,-3.56259,-4.40742,-0.0133865,0.286992,
2,1,0,1,0,54481.9,0.291448,0.291128,0.273206,82,0.0216333,10,7.95377e-05,-3.56351,-1.04176,-0.0566348,0.291007,
2,1,0,1,0,54482.7,0.295442,0.295107,0.272374,82,0.0218608,10,8.03795e-05,-3.56483,4.9273,0.0119741,0.294987,
2,1,0,1,0,54483.5,0.299437,0.299109,0.270164,82,0.0220879,10,8.08082e-05,-3.56837,-2.35964,-0.0250038,0.29899,
2,1,0,1,0,54484.3,0.303433,0.303092,0.269711,82,0.0223141,10,8.17471e-05,-3.5691,-10.8874,-0.00541912,0.302973,
2,1,0,0,0,54485.1,0.307428,0.307057,0.269647,82,0.0225395,10,8.2797e-05,-3.5692,-15.9203,-0.00370595,0.306938,
2,1,0,1,0,54485.9,0.311424,0.311092,0.268795,82,0.0227646,10,8.36199e-05,-3.57058,-3.60322,-0.0163742,0.310974,
2,1,0,1,0,54486.7,0.315418,0.315117,0.268438,82,0.0229888,10,8.45892e-05,-3.57116,-1.24836,-0.0472619,0.314999,
2,1,0,1,0,54487.5,0.319413,0.319082,0.267674,82,0.0232124,10,8.54099e-05,-3.57239,-91.2532,-0.000646553,0.318964,
2,1,0,1,0,54488.3,0.323409,0.323077,0.267031,82,0.0234357,10,8.62717e-05,-3.57344,-1.50431,-0.0392206,0.32296,
2,1,0,0,0,54489.1,0.327404,0.327065,0.266804,82,0.0236583,10,8.72622e-05,-3.57381,9.94773,0.005931,0.326947,
2,1,0,1,0,54489.9,0.331399,0.331075,0.265686,82,0.0238805,10,8.7962e-05,-3.57563,-1.73107,-0.0340829,0.330958,
2,1,0,1,0,54490.7,0.335395,0.335071,0.264712,82,0.0241022,10,8.86974e-05,-3.57723,6.00676,0.00982227,0.334954,
2,1,0,1,0,54491.5,0.339389,0.339008,0.264296,82,0.0243231,10,8.95986e-05,-3.57791,-3.57939,-0.0164833,0.338892,
2,1,0,1,0,54492.3,0.343384,0.343021,0.264825,82,0.0245438,10,9.08406e-05,-3.57704,6.80484,0.0086703,0.342905,
2,1,0,0,0,54493.1,0.34738,0.34701,0.264212,82,0.0247641,10,9.1684e-05,-3.57805,-1.26047,-0.0468079,0.346893,
2,1,0,1,0,54493.9,0.351375,0.351046,0.262094,82,0.0249835,10,9.20071e-05,-3.58154,-20.2643,-0.00291152,0.35093,
2,1,0,0,0,54494.7,0.35537,0.35509,0.26353,82,0.0252026,10,9.35768e-05,-3.57917,-1.63087,-0.036177,0.354974,
2,1,0,1,0,54495.5,0.359366,0.359023,0.262403,82,0.0254213,10,9.42087e-05,-3.58103,325.91,0.000181031,0.358908,
2,1,0,1,0,54496.3,0.36336,0.363028,0.260521,82,0.0256393,10,9.45763e-05,-3.58416,-7.05269,-0.0083656,0.362913,
2,1,0,1,0,54497.1,0.367355,0.367035,0.260262,82,0.0258568,10,9.55252e-05,-3.58459,-3.75416,-0.0157159,0.36692,
2,1,0,1,0,54497.9,0.371351,0.37102,0.259868,82,0.0260735,10,9.64164e-05,-3.58525,-65.8991,-0.000895308,0.370906,
2,1,0,0,0,54498.7,0.375346,0.375054,0.260093,82,0.0262904,10,9.75492e-05,-3.58487,-5.06781,-0.0116421,0.37494,
2,1,0,1,0,54499.5,0.379342,0.379043,0.26018,82,0.0265067,10,9.86193e-05,-3.58473,-5.12762,-0.0115063,0.378929,
2,1,0,1,0,54500.3,0.383336,0.382984,0.259269,82,0.0267224,10,9.9296e-05,-3.58625,-5.15374,-0.011448,0.38287,
2,1,0,1,0,54501.1,0.387331,0.387026,0.259611,82,0.026938,10,0.000100476,-3.58568,-3.24567,-0.0181781,0.386912,
2,1,0,1,0,54501.9,0.391327,0.39103,0.258453,82,0.0271531,10,0.000101063,-3.58762,-548.627,-0.000107541,0.390917,
2,1,0,0,0,54502.7,0.395322,0.395,0.25732,82,0.0273681,10,0.000101641,-3.58953,5.06224,0.0116549,0.394886,
2,1,0,1,0,54503.5,0.399317,0.398984,0.258369,82,0.0275828,10,0.000103085,-3.58776,-2.93458,-0.0201051,0.398871,
2,1,0,1,0,54504.3,0.403313,0.402973,0.25726,82,0.0277973,10,0.000103669,-3.58963,-5.37707,-0.0109725,0.40286,
2,1,0,1,0,54505.1,0.407307,0.406972,0.257125,82,0.0280114,10,0.000104643,-3.58985,-17.5639,-0.00335917,0.406858,
2,1,0,1,0,54505.9,0.411302,0.411009,0.257796,82,0.028225,10,0.000105957,-3.58872,-1.76227,-0.0334795,0.410896,
2,1,0,0,0,54506.7,0.415298,0.415023,0.256249,82,0.0284385,10,0.000106349,-3.59134,4.48759,0.0131474,0.41491,
2,1,0,1,0,54507.5,0.419293,0.418969,0.256236,82,0.0286517,10,0.000107355,-3.59136,-1.87441,-0.0314765,0.418856,
2,1,0,0,0,54508.3,0.423288,0.422975,0.255658,82,0.0288643,10,0.000108137,-3.59234,-6.3341,-0.00931466,0.422863,
2,1,0,1,0,54509.1,0.427283,0.426975,0.254685,82,0.0290766,10,0.000108744,-3.594,4.93144,0.0119641,0.426863,
2,1,0,1,0,54509.9,0.431278,0.430952,0.254657,82,0.0292884,10,0.000109745,-3.59404,5.48642,0.0107538,0.43084,
2,1,0,1,0,54510.7,0.435273,0.434929,0.254762,82,0.0295001,10,0.000110803,-3.59387,-2.15223,-0.0274134,0.434817,
2,1,0,1,0,54511.5,0.439269,0.438916,0.255164,82,0.0297116,10,0.000111996,-3.59318,8.4227,0.00700488,0.438804,
2,1,0,0,0,54512.3,0.443264,0.442949,0.254515,82,0.0299228,10,0.000112737,-3.59429,-1.88488,-0.0313018,0.442837,
2,1,0,1,0,54513.1,0.447259,0.446942,0.254641,82,0.0301338,10,0.00011381,-3.59407,2.02492,0.029137,0.44683,
2,1,0,1,0,54513.9,0.451254,0.450898,0.255135,82,0.030345,10,0.00011504,-3.59323,-7.44216,-0.00792781,0.450786,
2,1,0,1,0,54514.7,0.455249,0.454911,0.254861,82,0.0305562,10,0.000115939,-3.5937,-60.854,-0.000969534,0.454799,
2,1,0,1,0,54515.5,0.459244,0.458948,0.253653,82,0.0307672,10,0.000116413,-3.59576,-15.0141,-0.00392964,0.458836,
2,1,0,0,0,54516.3,0.46324,0.462912,0.254771,82,0.0309783,10,0.000117937,-3.59385,6.3251,0.00932792,0.4628,
2,1,0,1,0,54517.1,0.467235,0.466872,0.254371,82,0.0311894,10,0.000118758,-3.59453,-52.3238,-0.00112759,0.46676,
2,1,0,1,0,54517.9,0.471231,0.470933,0.255319,82,0.0314007,10,0.000120238,-3.59292,4.02475,0.0146593,0.47082,
2,1,0,1,0,54518.7,0.475225,0.474886,0.256434,82,0.0316121,10,0.000121777,-3.59102,5.35171,0.0110245,0.474774,
2,1,0,1,0,54519.5,0.47922,0.478929,0.255921,82,0.0318238,10,0.000122568,-3.59189,12.0598,0.00489227,0.478817,
2,1,0,0,0,54520.3,0.483216,0.482923,0.256005,82,0.0320356,10,0.000123631,-3.59175,-12.8838,-0.00457939,0.48281,
2,1,0,1,0,54521.1,0.487211,0.486862,0.256064,82,0.0322476,10,0.000124668,-3.59165,2.19579,0.0268695,0.48675,
2,1,0,0,0,54521.9,0.491206,0.490913,0.25672,82,0.0324599,10,0.000126027,-3.59054,67.8869,0.000869092,0.4908,
2,1,0,1,0,54522.7,0.495201,0.494892,0.257462,82,0.0326725,10,0.000127416,-3.58929,2.32624,0.0253628,0.494779,
2,1,0,1,0,54523.5,0.499196,0.498896,0.258388,82,0.0328855,10,0.000128908,-3.58773,2.33783,0.025237,0.498782,
2,1,0,1,0,54524.3,0.503191,0.502865,0.258527,82,0.0330992,10,0.000130004,-3.58749,-57.7613,-0.00102145,0.502751,
2,1,0,1,0,54525.1,0.507187,0.50685,0.259522,82,0.0333132,10,0.000131539,-3.58583,2.74226,0.0215151,0.506736,
2,1,0,0,0,54525.9,0.511182,0.510849,0.259887,82,0.0335278,10,0.000132763,-3.58521,3.33294,0.0177021,0.510735,
2,1,0,1,0,54526.7,0.515177,0.514877,0.26141,82,0.0337432,10,0.000134594,-3.58268,1.66095,0.0355218,0.514762,
2,1,0,1,0,54527.5,0.519173,0.518845,0.262777,82,0.0339592,10,0.00013634,-3.58041,1.57541,0.0374505,0.518729,
2,1,0,1,0,54528.3,0.523167,0.52283,0.263263,82,0.034176,10,0.000137642,-3.57961,4.53336,0.0130146,0.522714,
2,1,0,1,0,54529.1,0.527162,0.52683,0.264771,82,0.0343939,10,0.000139489,-3.57713,1.40804,0.0419023,0.526713,
2,1,0,0,0,54529.9,0.531158,0.530846,0.265719,82,0.0346127,10,0.000141056,-3.57558,2.79653,0.0210976,0.530729,
2,1,0,1,0,54530.7,0.535153,0.534859,0.267648,82,0.0348326,10,0.000143154,-3.57244,1.9054,0.0309646,0.534741,
2,1,0,0,0,54531.5,0.539148,0.538764,0.268598,82,0.0350535,10,0.000144711,-3.5709,1.55828,0.0378622,0.538646,
2,1,0,1,0,54532.3,0.543143,0.542841,0.270183,82,0.0352756,10,0.000146666,-3.56834,1.1848,0.0497972,0.542722,
2,1,0,1,0,54533.1,0.547138,0.546819,0.272574,82,0.035499,10,0.000149049,-3.56452,1.41937,0.0415677,0.546699,
2,1,0,1,0,54533.9,0.551133,0.550818,0.273911,82,0.035724,10,0.000150875,-3.56239,1.09223,0.0540177,0.550698,
2,1,0,1,0,54534.7,0.555129,0.554811,0.276452,82,0.0359508,10,0.000153379,-3.55838,1.32295,0.0445972,0.55469,
2,1,0,0,0,54535.5,0.559124,0.558814,0.278845,82,0.036179,10,0.000155822,-3.55464,0.84631,0.0697144,0.558692,
2,1,0,1,0,54536.3,0.56312,0.562811,0.282417,82,0.0364092,10,0.000158947,-3.54911,0.88162,0.0669223,0.562687,
2,1,0,1,0,54537.1,0.567114,0.566795,0.284269,82,0.0366418,10,0.000161122,-3.54627,1.15198,0.0512163,0.56667,
2,1,0,1,0,54537.9,0.571109,0.570771,0.286409,82,0.0368763,10,0.000163474,-3.54301,0.93079,0.063387,0.570645,
2,1,0,1,0,54538.7,0.575105,0.574803,0.28969,82,0.0371132,10,0.000166514,-3.53807,0.725753,0.0812949,0.574676,
2,1,0,0,0,54539.5,0.5791,0.578806,0.293462,82,0.0373529,10,0.000169857,-3.53245,0.913038,0.0646194,0.578677,
2,1,0,1,0,54540.3,0.583095,0.582766,0.297388,82,0.0375952,10,0.000173308,-3.52668,0.574835,0.102638,0.582635,
2,1,0,1,0,54541.1,0.58709,0.586783,0.302079,82,0.0378411,10,0.000177255,-3.51988,0.551643,0.106953,0.58665,
2,1,0,1,0,54541.9,0.591085,0.590775,0.307469,82,0.0380908,10,0.000181645,-3.5122,0.575303,0.102555,0.59064,
2,1,0,1,0,54542.7,0.59508,0.594786,0.312504,82,0.0383445,10,0.000185873,-3.50514,0.405488,0.145504,0.594649,
2,1,0,0,0,54543.4,0.599076,0.598787,0.319234,82,0.0386031,10,0.000191153,-3.49589,0.534107,0.110465,0.598647,
2,1,0,1,0,54544.2,0.603071,0.602752,0.326372,82,0.0388669,10,0.000196721,-3.48629,0.397065,0.14859,0.602609,
2,1,0,0,0,54545,0.607066,0.606789,0.332877,82,0.0391363,10,0.000201986,-3.47772,0.394168,0.149682,0.606643,
2,1,0,1,0,54545.8,0.611061,0.610783,0.342888,82,0.0394126,10,0.00020943,-3.46485,0.318188,0.185425,0.610632,
2,1,0,1,0,54546.6,0.615056,0.614762,0.352185,82,0.0396964,10,0.00021651,-3.45323,0.305024,0.193427,0.614607,
2,1,0,1,0,54547.4,0.619051,0.618745,0.364336,82,0.0399893,10,0.000225431,-3.4385,0.248614,0.237316,0.618584,
2,1,0,1,0,54548.2,0.623047,0.622747,0.378628,82,0.0402924,10,0.00023579,-3.42179,0.23059,0.255865,0.622581,
2,1,0,0,0,54549,0.627042,0.626715,0.394633,82,0.0406074,10,0.000247323,-3.40381,0.210113,0.280801,0.626542,
2,1,0,1,0,54549.8,0.631037,0.630786,0.412742,82,0.0409364,10,0.000260352,-3.38432,0.190659,0.309453,0.630604,
2,1,0,1,0,54550.6,0.635032,0.634759,0.434828,82,0.0412811,10,0.000276011,-3.36168,0.182436,0.323401,0.634567,
2,1,0,1,0,54551.4,0.639027,0.638696,0.458518,82,0.041644,10,0.000292854,-3.33864,0.153486,0.384399,0.638494,
2,1,0,1,0,54552.2,0.643022,0.642725,0.487962,82,0.0420282,10,0.000313626,-3.31161,0.148803,0.396497,0.64251,
2,1,0,0,0,54553,0.647018,0.646691,0.521732,82,0.0424371,10,0.0003374,-3.28255,0.136731,0.431505,0.646462,
2,1,0,1,0,54553.8,0.651013,0.650704,0.558965,82,0.0428744,10,0.000363721,-3.25262,0.125179,0.471324,0.650458,
2,1,0,1,0,54554.6,0.655008,0.654783,0.604216,82,0.0433445,10,0.00039563,-3.21881,0.109957,0.536571,0.654517,
2,1,0,1,0,54555.4,0.659003,0.65869,0.656482,82,0.0438538,10,0.000432418,-3.18278,0.106372,0.554655,0.658401,
2,1,0,1,0,54556.2,0.662998,0.662662,0.717175,82,0.0444083,10,0.000475245,-3.14437,0.103263,0.571355,0.662346,
2,1,0,0,0,54557,0.666994,0.666731,0.787935,82,0.0450148,10,0.000525341,-3.10351,0.0937565,0.62929,0.666384,
2,1,0,1,0,54557.8,0.670989,0.670703,0.866788,82,0.0456813,10,0.000581358,-3.06209,0.0914892,0.644885,0.670322,
2,1,0,0,0,54558.6,0.674984,0.674664,0.958539,82,0.0464165,10,0.000646691,-3.01839,0.0913627,0.645778,0.674242,
2,1,0,1,0,54559.4,0.67898,0.678665,1.06194,82,0.0472296,10,0.0007207,-2.9739,0.0873966,0.675083,0.678198,
2,1,0,1,0,54560.2,0.682974,0.682698,1.17985,82,0.0481308,10,0.000805483,-2.92817,0.0859359,0.686559,0.682179,
2,1,0,1,0,54561,0.686969,0.686722,1.31162,82,0.0491313,10,0.000900715,-2.88219,0.0847352,0.696287,0.686145,
2,1,0,1,0,54561.8,0.690965,0.690692,1.45824,82,0.0502432,10,0.0010072,-2.83617,0.0855906,0.689328,0.69005,
2,1,0,0,0,54562.6,0.69496,0.694698,1.62073,82,0.0514784,10,0.00112592,-2.79029,0.0867901,0.679801,0.693985,
2,1,0,1,0,54563.4,0.698955,0.698679,1.8006,82,0.0528501,10,0.00125804,-2.74458,0.0851033,0.693275,0.697886,
2,1,0,1,0,54564.2,0.70295,0.702668,1.99605,82,0.0543724,10,0.00140256,-2.69983,0.088495,0.666704,0.70179,
2,1,0,1,0,54565,0.706945,0.706645,2.20874,82,0.0560573,10,0.0015608,-2.65585,0.0895295,0.659,0.705674,
2,1,0,1,0,54565.8,0.71094,0.710617,2.43862,82,0.0579198,10,0.00173293,-2.61286,0.0914817,0.644938,0.709544,
2,1,0,0,0,54566.6,0.714936,0.714593,2.68708,82,0.0599734,10,0.00192017,-2.57072,0.0927681,0.635994,0.713411,
2,1,0,1,0,54567.4,0.718931,0.718621,2.9534,82,0.0622322,10,0.00212238,-2.52968,0.0952522,0.619408,0.717321,
2,1,0,1,0,54568.2,0.722927,0.722641,3.23698,82,0.06471,10,0.00233917,-2.48986,0.098705,0.597741,0.721217,
2,1,0,1,0,54569,0.726921,0.726636,3.53681,82,0.0674216,10,0.00256997,-2.45139,0.101033,0.583968,0.72508,
2,1,0,1,0,54569.8,0.730916,0.730616,3.85961,82,0.070382,10,0.00281989,-2.41346,0.104074,0.566904,0.728918,
2,1,0,1,0,54570.6,0.734911,0.734608,4.19906,82,0.0736068,10,0.00308466,-2.37685,0.105663,0.558378,0.732761,
2,1,0,1,0,54571.4,0.738907,0.738653,4.55835,82,0.0771113,10,0.00336704,-2.34119,0.108194,0.545319,0.736647,
2,1,0,0,0,54572.2,0.742902,0.742628,4.9396,82,0.0809109,10,0.00366829,-2.30631,0.111157,0.530782,0.740455,
2,1,0,1,0,54573,0.746897,0.746576,5.34126,82,0.0850237,10,0.00398765,-2.27236,0.115592,0.510414,0.744225,
2,1,0,1,0,54573.8,0.750892,0.750644,5.76514,82,0.0894654,10,0.00432757,-2.23919,0.113823,0.51835,0.748107,
2,1,0,1,0,54574.6,0.754887,0.754608,6.21206,82,0.0942555,10,0.00468767,-2.20676,0.119905,0.492055,0.751875,
2,1,0,1,0,54575.4,0.758883,0.758595,6.68539,82,0.099414,10,0.0050715,-2.17487,0.119834,0.492346,0.755653,
2,1,0,0,0,54576.2,0.762878,0.762576,7.18317,82,0.104959,10,0.00547771,-2.14368,0.121764,0.484543,0.759415,
2,1,0,1,0,54577,0.766873,0.766608,7.70885,82,0.110914,10,0.00590967,-2.11301,0.124099,0.475427,0.763216,
2,1,0,1,0,54577.8,0.770868,0.770575,8.26456,82,0.1173,10,0.00636846,-2.08278,0.124391,0.474312,0.766938,
2,1,0,1,0,54578.6,0.774863,0.774575,8.84888,82,0.124142,10,0.00685412,-2.05311,0.127411,0.463068,0.770682,
2,1,0,1,0,54579.4,0.778858,0.778588,9.46703,82,0.131463,10,0.00737092,-2.02379,0.12571,0.469333,0.774423,
2,1,0,0,0,54580.2,0.782854,0.782593,10.1215,82,0.139294,10,0.00792103,-1.99475,0.127892,0.461327,0.778139,
2,1,0,1,0,54581,0.786849,0.786604,10.8232,82,0.147668,10,0.00851354,-1.96565,0.126874,0.465029,0.781842,
2,1,0,0,0,54581.8,0.790844,0.790561,11.5657,82,0.156617,10,0.00914336,-1.93683,0.126259,0.467293,0.785472,
2,1,0,1,0,54582.6,0.794839,0.794565,12.3576,82,0.16618,10,0.00981888,-1.90807,0.127444,0.462947,0.789128,
2,1,0,1,0,54583.4,0.798834,0.798498,13.2095,82,0.176398,10,0.0105478,-1.87911,0.125319,0.470797,0.792686,
2,1,0,1,0,54584.2,0.802829,0.80251,14.1165,82,0.187319,10,0.0113286,-1.85027,0.124793,0.472783,0.796299,
2,1,0,1,0,54585,0.806825,0.806521,15.0689,82,0.198985,10,0.0121534,-1.82192,0.126968,0.464684,0.799891,
2,1,0,0,0,54585.8,0.81082,0.810559,16.0335,82,0.211418,10,0.0129961,-1.79497,0.133479,0.442017,0.803504,
2,1,0,1,0,54586.6,0.814815,0.814546,17.1087,82,0.224657,10,0.0139358,-1.76678,0.123565,0.477482,0.807019,
2,1,0,1,0,54587.4,0.81881,0.818504,18.2128,82,0.238773,10,0.0149073,-1.73962,0.130498,0.452114,0.81049,
2,1,0,1,0,54588.2,0.822805,0.822513,19.3789,82,0.253797,10,0.0159394,-1.71267,0.131568,0.448437,0.813986,
2,1,0,1,0,54589,0.826801,0.826536,20.591,82,0.269772,10,0.0170192,-1.68632,0.130987,0.450425,0.817476,
2,1,0,0,0,54589.8,0.830796,0.830503,21.8343,82,0.286728,10,0.0181335,-1.66086,0.13875,0.425227,0.820896,
2,1,0,1,0,54590.6,0.834791,0.834531,23.1127,82,0.304689,10,0.0192883,-1.63615,0.140806,0.419015,0.824361,
2,1,0,1,0,54591.4,0.838786,0.838476,24.3925,82,0.323677,10,0.0204526,-1.61274,0.150431,0.392206,0.827744,
2,1,0,1,0,54592.2,0.842781,0.842525,25.7068,82,0.343699,10,0.0216586,-1.58995,0.152015,0.38812,0.831214,
2,1,0,1,0,54593,0.846776,0.846476,27.0575,82,0.364786,10,0.0229035,-1.56771,0.154912,0.380861,0.83457,
2,1,0,1,0,54593.7,0.849723,0.8495,27.9854,82,0.384132,10,0.0237736,-1.55307,0.0544439,1.08368,0.837187,
2,1,0,0,0,54594.5,0.845728,0.845498,25.9635,82,0.405624,10,0.0219521,-1.58564,0.106635,0.55329,0.834074,
2,1,0,1,0,54595.3,0.841732,0.841491,24.3133,82,0.425687,10,0.0204594,-1.61416,0.109413,0.539241,0.830793,
2,1,0,1,0,54596.1,0.837737,0.837463,22.3717,82,0.444389,10,0.0187354,-1.6503,0.0954577,0.618075,0.82762,
2,1,0,1,0,54596.9,0.833742,0.833488,21.0102,82,0.461709,10,0.0175118,-1.67757,0.125036,0.471864,0.824244,
2,1,0,1,0,54597.7,0.829747,0.829466,19.7187,82,0.477963,10,0.016356,-1.70512,0.123474,0.477832,0.82079,
2,1,0,0,0,54598.5,0.825752,0.825497,18.4747,82,0.493216,10,0.0152508,-1.73342,0.119127,0.495271,0.817368,
2,1,0,1,0,54599.3,0.821757,0.821445,17.2872,82,0.507491,10,0.0142005,-1.76228,0.12061,0.489178,0.813839,
2,1,0,1,0,54600.1,0.817761,0.817517,16.1426,82,0.520835,10,0.0131969,-1.79203,0.120077,0.49135,0.810414,
2,1,0,1,0,54600.9,0.813766,0.813464,15.1016,82,0.533306,10,0.0122846,-1.82098,0.116369,0.507008,0.80682,
2,1,0,1,0,54601.7,0.809771,0.809461,14.0897,82,0.54495,10,0.011405,-1.8511,0.120988,0.487653,0.803261,
2,1,0,1,0,54602.5,0.805776,0.805469,13.1463,82,0.55582,10,0.0105889,-1.8812,0.117536,0.501973,0.799685,
2,1,0,1,0,54603.3,0.801781,0.801507,12.2443,82,0.565954,10,0.0098139,-1.91207,0.116959,0.50445,0.79612,
2,1,0,0,0,54604.1,0.797786,0.797461,11.4014,82,0.575388,10,0.0090922,-1.94304,0.115971,0.508747,0.792444,
2,1,0,1,0,54604.9,0.79379,0.793488,10.599,82,0.584167,10,0.00841015,-1.97474,0.116557,0.506192,0.788825,
2,1,0,1,0,54605.7,0.789795,0.789522,9.85,82,0.592327,10,0.00777679,-2.00656,0.111956,0.526994,0.785188,
2,1,0,1,0,54606.5,0.7858,0.785492,9.15014,82,0.599907,10,0.00718736,-2.03857,0.117613,0.501645,0.781466,
2,1,0,1,0,54607.3,0.781805,0.781474,8.49121,82,0.606947,10,0.00663566,-2.07103,0.113687,0.518967,0.777738,
2,1,0,0,0,54608.1,0.77781,0.777504,7.8755,82,0.613475,10,0.00612323,-2.10372,0.114027,0.517421,0.774039,
2,1,0,1,0,54608.9,0.773814,0.773535,7.30195,82,0.619529,10,0.00564831,-2.13656,0.111456,0.529357,0.770322,
2,1,0,1,0,54609.7,0.769819,0.769528,6.75896,82,0.625139,10,0.00520121,-2.17012,0.110614,0.533388,0.766554,
2,1,0,1,0,54610.5,0.765824,0.765516,6.24675,82,0.630325,10,0.00478199,-2.20435,0.110997,0.531544,0.762768,
2,1,0,1,0,54611.3,0.761829,0.761558,5.76556,82,0.635115,10,0.00439081,-2.23916,0.108637,0.543094,0.759021,
2,1,0,0,0,54612.1,0.757834,0.757533,5.31869,82,0.639535,10,0.00402908,-2.2742,0.108232,0.545125,0.755193,
2,1,0,1,0,54612.9,0.753839,0.75357,4.89733,82,0.643608,10,0.00369048,-2.31004,0.105084,0.561453,0.751415,
2,1,0,0,0,54613.7,0.749844,0.749503,4.50221,82,0.647356,10,0.00337442,-2.34657,0.103134,0.572074,0.747522,
2,1,0,1,0,54614.5,0.745848,0.745534,4.13109,82,0.650797,10,0.00307987,-2.38394,0.100697,0.585914,0.743717,
2,1,0,1,0,54615.3,0.741853,0.741534,3.78007,82,0.65395,10,0.00280305,-2.4225,0.0993878,0.593634,0.739871,
2,1,0,1,0,54616.1,0.737858,0.737546,3.45271,82,0.656831,10,0.00254653,-2.46184,0.095733,0.616297,0.736027,
2,1,0,1,0,54616.9,0.733863,0.733589,3.14467,82,0.659459,10,0.0023069,-2.50242,0.0941759,0.626487,0.732206,
2,1,0,0,0,54617.7,0.729868,0.729562,2.85618,82,0.661849,10,0.00208376,-2.54421,0.0909915,0.648412,0.728305,
2,1,0,1,0,54618.5,0.725872,0.725578,2.58611,82,0.664016,10,0.00187642,-2.58735,0.0886705,0.665385,0.72444,
2,1,0,1,0,54619.3,0.721877,0.721583,2.33269,82,0.665973,10,0.00168323,-2.63214,0.0853192,0.691521,0.720557,
2,1,0,1,0,54620.1,0.717882,0.717571,2.09625,82,0.667736,10,0.00150421,-2.67856,0.0833501,0.707857,0.716649,
2,1,0,1,0,54620.9,0.713887,0.713593,1.87819,82,0.669316,10,0.00134026,-2.72626,0.0788882,0.747894,0.712767,
2,1,0,0,0,54621.7,0.709892,0.709572,1.6728,82,0.670727,10,0.00118697,-2.77656,0.0761322,0.774968,0.708836,
2,1,0,1,0,54622.5,0.705897,0.705641,1.48403,82,0.671981,10,0.00104719,-2.82856,0.07389,0.798484,0.704988,
2,1,0,1,0,54623.3,0.701901,0.701598,1.30945,82,0.673089,10,0.00091871,-2.88291,0.0704676,0.837265,0.701022,
2,1,0,1,0,54624.1,0.697906,0.697587,1.14784,82,0.674064,10,0.000800719,-2.94012,0.0677575,0.870752,0.697082,
2,1,0,1,0,54624.9,0.693911,0.693606,1.00056,82,0.674915,10,0.000693993,-2.99976,0.064378,0.916462,0.693166,
2,1,0,0,0,54625.7,0.689916,0.689588,0.865709,82,0.675654,10,0.000596983,-3.06263,0.0608172,0.97012,0.689207,
2,1,0,1,0,54626.4,0.685921,0.685585,0.744566,82,0.67629,10,0.000510463,-3.1281,0.0590185,0.999687,0.685257,
2,1,0,0,0,54627.2,0.681926,0.681612,0.635279,82,0.676835,10,0.000433014,-3.19704,0.055347,1.066,0.681333,
2,1,0,1,0,54628,0.67793,0.677636,0.538734,82,0.677296,10,0.000365066,-3.26863,0.0544986,1.0826,0.677399,
2,1,0,1,0,54628.8,0.673935,0.673642,0.450691,82,0.677684,10,0.000303605,-3.34612,0.0497374,1.18623,0.673444,
2,1,0,1,0,54629.6,0.66994,0.669675,0.374334,82,0.678007,10,0.000250682,-3.42674,0.0469585,1.25643,0.66951,
2,1,0,1,0,54630.4,0.665945,0.665625,0.306817,82,0.678272,10,0.000204225,-3.51312,0.0445676,1.32383,0.66549,
2,1,0,0,0,54631.2,0.66195,0.661663,0.247336,82,0.678486,10,0.000163653,-3.60671,0.0407995,1.4461,0.661554,
2,1,0,1,0,54632,0.657955,0.657688,0.196773,82,0.678656,10,0.000129415,-3.70604,0.0378775,1.55765,0.657601,
2,1,0,1,0,54632.8,0.653959,0.65365,0.152163,82,0.678789,10,9.94612e-05,-3.81769,0.0331948,1.77738,0.653583,
2,1,0,1,0,54633.6,0.649964,0.649674,0.113261,82,0.678889,10,7.35829e-05,-3.94592,0.0300995,1.96016,0.649624,
2,1,0,1,0,54634.4,0.64597,0.645669,0.0813241,82,0.67896,10,5.25085e-05,-4.08978,0.0247991,2.37912,0.645634,
2,1,0,0,0,54635.2,0.641974,0.641666,0.0539603,82,0.679007,10,3.46245e-05,-4.26793,0.0189101,3.12003,0.641642,
2,1,0,1,0,54636,0.637979,0.637662,0.030698,82,0.679034,10,1.9575e-05,-4.51289,0.0129796,4.54561,0.637648,
2,1,0,1,0,54636.8,0.633983,0.633714,0.0105635,82,0.679044,10,6.69423e-06,-4.97619,0.00492608,11.9771,0.633709,
2,1,0,1,0,54637.6,0.629988,0.629733,-0.0057889,82,0.67904,10,-3.64546e-06,-5.2374,-0.00637499,-9.25492,0.629736,
2,0,0,1,0,54638.4,0.625993,0.625691,-0.0196654,82,0.679023,10,-1.23045e-05,-4.7063,-0.0140232,-4.20731,0.6257,
2,0,0,0,0,54639.2,0.621998,0.621701,-0.0306776,82,0.678997,10,-1.90723e-05,-4.51318,-0.0263256,-2.24116,0.621714,
2,0,0,1,0,54640,0.618003,0.617723,-0.0397395,82,0.678962,10,-2.4548e-05,-4.40078,-0.0409092,-1.44222,0.617741,
2,0,0,0,0,54640.8,0.614008,0.613698,-0.0491107,82,0.67892,10,-3.01391e-05,-4.30882,-0.0743244,-0.793817,0.613719,
2,0,0,1,0,54641.6,0.610012,0.609733,-0.0552198,82,0.678872,10,-3.36693e-05,-4.25791,-0.0766409,-0.769824,0.609757,
2,0,0,1,0,54642.4,0.606017,0.60571,-0.0605354,82,0.678819,10,-3.66669e-05,-4.21799,-0.102737,-0.574284,0.605736,
2,0,0,1,0,54643.2,0.602022,0.601709,-0.06607,82,0.678762,10,-3.97549e-05,-4.18,-0.166776,-0.353768,0.601738,
2,0,0,1,0,54644,0.598027,0.597747,-0.0694387,82,0.678701,10,-4.15068e-05,-4.1584,-0.123582,-0.477416,0.597778,
2,0,0,0,0,54644.8,0.594032,0.593724,-0.0732961,82,0.678637,10,-4.35177e-05,-4.13492,-0.208787,-0.282584,0.593756,
2,0,0,1,0,54645.6,0.590037,0.589747,-0.0769209,82,0.67857,10,-4.53639e-05,-4.11396,-0.276534,-0.213355,0.589781,
2,0,0,1,0,54646.4,0.586041,0.585704,-0.0796908,82,0.678501,10,-4.66752e-05,-4.09859,-0.210475,-0.280318,0.585739,
2,0,0,1,0,54647.2,0.582046,0.581748,-0.0823988,82,0.67843,10,-4.79353e-05,-4.08408,-0.428007,-0.137848,0.581784,
2,0,0,1,0,54648,0.578052,0.577745,-0.0837378,82,0.678357,10,-4.83791e-05,-4.07708,-0.344987,-0.171021,0.577782,
2,0,0,0,0,54648.8,0.574056,0.573763,-0.0857812,82,0.678282,10,-4.92181e-05,-4.06661,-0.365577,-0.161389,0.573801,
2,0,0,1,0,54649.6,0.570061,0.56973,-0.0874228,82,0.678205,10,-4.98074e-05,-4.05838,-1.20994,-0.0487628,0.569769,
2,0,0,1,0,54650.4,0.566065,0.565718,-0.0894342,82,0.678128,10,-5.05946e-05,-4.0485,-0.358579,-0.164539,0.565758,
2,0,0,1,0,54651.2,0.56207,0.561714,-0.0916343,82,0.678049,10,-5.14723e-05,-4.03794,-1.51685,-0.0388965,0.561755,
2,0,0,1,0,54652,0.558075,0.55777,-0.0924137,82,0.677969,10,-5.15456e-05,-4.03426,-0.359208,-0.16425,0.557811,
2,0,0,1,0,54652.8,0.55408,0.553744,-0.0936736,82,0.677888,10,-5.18712e-05,-4.02838,-1.02918,-0.057327,0.553785,
2,0,0,1,0,54653.6,0.550085,0.549773,-0.0945207,82,0.677806,10,-5.1965e-05,-4.02447,-2.09664,-0.0281402,0.549815,
2,0,0,0,0,54654.4,0.54609,0.545788,-0.0964023,82,0.677723,10,-5.26153e-05,-4.01591,-0.531879,-0.110927,0.545831,
2,0,0,1,0,54655.2,0.542094,0.541782,-0.096514,82,0.677639,10,-5.22895e-05,-4.01541,-0.915972,-0.0644124,0.541824,
2,0,0,1,0,54656,0.538099,0.537807,-0.0982659,82,0.677555,10,-5.2848e-05,-4.0076,2.76678,0.0213245,0.53785,
2,0,0,1,0,54656.8,0.534104,0.533769,-0.0984897,82,0.677469,10,-5.25707e-05,-4.00661,-0.631188,-0.0934746,0.533812,
2,0,0,1,0,54657.6,0.530109,0.529792,-0.100211,82,0.677383,10,-5.30911e-05,-3.99908,-0.550282,-0.107218,0.529836,
2,0,0,0,0,54658.4,0.526114,0.525737,-0.100563,82,0.677296,10,-5.28697e-05,-3.99756,-0.521996,-0.113028,0.525781,
2,0,0,1,0,54659.2,0.522119,0.52179,-0.102074,82,0.677208,10,-5.3261e-05,-3.99109,-3.01155,-0.0195913,0.521835,
2,0,0,1,0,54660,0.518123,0.517778,-0.103142,82,0.677119,10,-5.34047e-05,-3.98656,-0.664936,-0.0887304,0.517824,
2,0,0,1,0,54660.8,0.514128,0.513832,-0.104542,82,0.677029,10,-5.37172e-05,-3.98071,-0.597359,-0.0987681,0.513878,
2,0,0,1,0,54661.6,0.510133,0.509782,-0.104375,82,0.676939,10,-5.32084e-05,-3.9814,-1.13566,-0.0519521,0.509827,
2,0,0,0,0,54662.4,0.506138,0.50581,-0.105946,82,0.676847,10,-5.35884e-05,-3.97492,-2.47053,-0.0238815,0.505856,
2,0,0,1,0,54663.2,0.502143,0.501814,-0.107302,82,0.676754,10,-5.38455e-05,-3.96939,-0.794328,-0.0742766,0.501861,
2,0,0,0,0,54664,0.498148,0.497843,-0.108481,82,0.676661,10,-5.40066e-05,-3.96465,-0.980834,-0.0601529,0.497891,
2,0,0,1,0,54664.8,0.494152,0.493868,-0.109703,82,0.676566,10,-5.41786e-05,-3.95978,-0.771719,-0.0764527,0.493917,
2,0,0,1,0,54665.6,0.490157,0.489813,-0.111154,82,0.676471,10,-5.44447e-05,-3.95407,-0.523599,-0.112682,0.489862,
2,0,0,1,0,54666.4,0.486162,0.485885,-0.112005,82,0.676374,10,-5.44217e-05,-3.95076,-1.25227,-0.0471144,0.485934,
2,0,0,1,0,54667.2,0.482167,0.481865,-0.113401,82,0.676277,10,-5.46442e-05,-3.94538,-0.616334,-0.0957274,0.481915,
2,0,0,0,0,54668,0.478172,0.47787,-0.114463,82,0.676178,10,-5.46985e-05,-3.94133,-1.04065,-0.0566952,0.477921,
2,0,0,1,0,54668.8,0.474177,0.473825,-0.116694,82,0.676078,10,-5.52926e-05,-3.93295,-0.865795,-0.0681455,0.473876,
2,0,0,1,0,54669.6,0.470181,0.469887,-0.118536,82,0.675977,10,-5.56985e-05,-3.92615,-0.550462,-0.107183,0.469939,
2,0,0,1,0,54670.4,0.466186,0.465831,-0.119743,82,0.675874,10,-5.57799e-05,-3.92175,-0.629696,-0.093696,0.465884,
2,0,0,1,0,54671.2,0.462191,0.46185,-0.121438,82,0.675771,10,-5.6086e-05,-3.91565,-0.888076,-0.0664357,0.461904,
2,0,0,0,0,54672,0.458196,0.457887,-0.122649,82,0.675666,10,-5.61593e-05,-3.91134,-1.08861,-0.0541974,0.457941,
2,0,0,1,0,54672.8,0.454201,0.453892,-0.124631,82,0.67556,10,-5.65689e-05,-3.90438,-0.648309,-0.091006,0.453947,
2,0,0,1,0,54673.6,0.450205,0.449868,-0.125001,82,0.675452,10,-5.62341e-05,-3.90309,-0.622881,-0.0947211,0.449923,
2,0,0,1,0,54674.4,0.44621,0.445926,-0.126766,82,0.675344,10,-5.65281e-05,-3.897,-0.653523,-0.09028,0.445982,
2,0,0,1,0,54675.2,0.442215,0.441918,-0.129092,82,0.675234,10,-5.70481e-05,-3.8891,-1.42681,-0.041351,0.441975,
2,0,0,0,0,54676,0.43822,0.437864,-0.130404,82,0.675122,10,-5.70991e-05,-3.88471,-0.54006,-0.109247,0.437922,
2,0,0,1,0,54676.8,0.434225,0.433892,-0.132659,82,0.675009,10,-5.75597e-05,-3.87726,-0.808931,-0.0729358,0.43395,
2,0,0,0,0,54677.6,0.43023,0.429896,-0.133944,82,0.674895,10,-5.75822e-05,-3.87308,-0.437626,-0.134818,0.429955,
2,0,0,1,0,54678.4,0.426234,0.425873,-0.136612,82,0.674779,10,-5.81791e-05,-3.86451,-1.3017,-0.0453253,0.425933,
2,0,0,1,0,54679.2,0.422239,0.421916,-0.138407,82,0.674662,10,-5.83962e-05,-3.85884,-0.524389,-0.112512,0.421977,
2,0,0,1,0,54680,0.418244,0.417982,-0.139651,82,0.674543,10,-5.83716e-05,-3.85496,-0.622731,-0.0947439,0.418043,
2,0,0,1,0,54680.8,0.414249,0.413948,-0.14097,82,0.674422,10,-5.83543e-05,-3.85087,-0.841435,-0.0701183,0.41401,
2,0,0,0,0,54681.6,0.410254,0.409896,-0.144352,82,0.6743,10,-5.91693e-05,-3.84058,-0.938605,-0.0628592,0.40996,
2,0,0,1,0,54682.4,0.406259,0.40596,-0.145886,82,0.674177,10,-5.92239e-05,-3.83599,-0.461116,-0.127951,0.406024,
2,0,0,1,0,54683.2,0.402263,0.401906,-0.148318,82,0.674051,10,-5.96098e-05,-3.82881,-0.915067,-0.0644761,0.401971,
2,0,0,1,0,54684,0.398268,0.397941,-0.149795,82,0.673924,10,-5.96097e-05,-3.8245,-0.428738,-0.137613,0.398007,
2,0,0,1,0,54684.8,0.394274,0.394005,-0.151852,82,0.673795,10,-5.98306e-05,-3.81858,-0.864118,-0.0682777,0.394072,
2,0,0,0,0,54685.6,0.390278,0.38994,-0.154237,82,0.673665,10,-6.01432e-05,-3.81181,-0.693712,-0.0850497,0.390008,
2,0,0,1,0,54686.4,0.386283,0.385991,-0.15535,82,0.673533,10,-5.99638e-05,-3.80869,-1.07705,-0.0547791,0.38606,
2,0,0,1,0,54687.2,0.382287,0.381933,-0.157518,82,0.673399,10,-6.01614e-05,-3.80267,-0.751885,-0.0784694,0.382002,
2,0,0,1,0,54688,0.378292,0.377953,-0.159571,82,0.673264,10,-6.03105e-05,-3.79705,-0.810939,-0.0727552,0.378024,
2,0,0,1,0,54688.8,0.374297,0.374004,-0.162604,82,0.673127,10,-6.08146e-05,-3.78887,-0.544432,-0.10837,0.374075,
2,0,0,1,0,54689.6,0.370303,0.369966,-0.164816,82,0.672987,10,-6.09764e-05,-3.783,-1.14643,-0.0514643,0.370038,
2,0,0,1,0,54690.4,0.366307,0.365972,-0.166286,82,0.672847,10,-6.08561e-05,-3.77914,-0.538256,-0.109613,0.366045,
2,0,0,0,0,54691.2,0.362312,0.361965,-0.169026,82,0.672704,10,-6.11815e-05,-3.77205,-0.589537,-0.100079,0.362039,
2,0,0,1,0,54692,0.358316,0.357971,-0.170626,82,0.67256,10,-6.10789e-05,-3.76796,-1.04083,-0.0566857,0.358046,
2,0,0,1,0,54692.8,0.354321,0.354019,-0.172795,82,0.672414,10,-6.11726e-05,-3.76247,-1.32679,-0.0444683,0.354095,
2,0,0,1,0,54693.6,0.350327,0.349999,-0.174129,82,0.672266,10,-6.0945e-05,-3.75913,-0.440842,-0.133835,0.350076,
2,0,0,1,0,54694.4,0.346331,0.345997,-0.177246,82,0.672116,10,-6.13266e-05,-3.75142,-1.60975,-0.0366517,0.346075,
2,0,0,0,0,54695.2,0.342336,0.342044,-0.179388,82,0.671964,10,-6.13587e-05,-3.74621,-0.452023,-0.130524,0.342123,
2,0,0,1,0,54696,0.338341,0.338022,-0.182692,82,0.67181,10,-6.17539e-05,-3.73828,-0.770676,-0.0765561,0.338102,
2,0,0,1,0,54696.8,0.334345,0.333995,-0.184573,82,0.671655,10,-6.16466e-05,-3.73383,-0.859741,-0.0686253,0.334076,
2,0,0,1,0,54697.6,0.33035,0.330036,-0.186412,82,0.671497,10,-6.15227e-05,-3.72953,-0.680312,-0.0867249,0.330118,
2,0,0,1,0,54698.4,0.326355,0.326038,-0.188255,82,0.671338,10,-6.13783e-05,-3.72525,-0.693604,-0.085063,0.326121,
2,0,0,0,0,54699.2,0.32236,0.322032,-0.19071,82,0.671176,10,-6.14148e-05,-3.71963,-0.638576,-0.0923931,0.322116,
2,0,0,1,0,54700,0.318365,0.318,-0.193814,82,0.671012,10,-6.16328e-05,-3.71262,-0.791794,-0.0745143,0.318085,
2,0,0,0,0,54700.8,0.31437,0.314051,-0.196892,82,0.670847,10,-6.18341e-05,-3.70577,-0.947838,-0.0622469,0.314138,
2,0,0,1,0,54701.6,0.310374,0.310034,-0.198545,82,0.670679,10,-6.15557e-05,-3.70214,-0.531428,-0.111022,0.310122,
2,0,0,1,0,54702.4,0.306379,0.306055,-0.201371,82,0.670509,10,-6.16305e-05,-3.696,-0.766228,-0.0770006,0.306144,
2,0,0,1,0,54703.2,0.302385,0.302016,-0.203564,82,0.670337,10,-6.14796e-05,-3.6913,-0.950871,-0.0620484,0.302106,
2,0,0,1,0,54704,0.298389,0.29806,-0.206027,82,0.670164,10,-6.14083e-05,-3.68608,-0.640511,-0.0921139,0.298151,
2,0,0,0,0,54704.8,0.294394,0.294054,-0.208716,82,0.669988,10,-6.13739e-05,-3.68044,-1.15404,-0.0511249,0.294146,
2,0,0,1,0,54705.6,0.290398,0.290044,-0.212378,82,0.66981,10,-6.1599e-05,-3.67289,-0.737919,-0.0799546,0.290138,
2,0,0,1,0,54706.4,0.286403,0.286037,-0.212624,82,0.66963,10,-6.08183e-05,-3.67239,-0.557297,-0.105868,0.286131,
2,0,0,1,0,54707.2,0.282408,0.282075,-0.217407,82,0.669447,10,-6.1325e-05,-3.66273,-1.4016,-0.0420948,0.28217,
2,0,0,1,0,54708,0.278414,0.278116,-0.219104,82,0.669263,10,-6.09362e-05,-3.65935,-0.572129,-0.103124,0.278212,
2,0,0,0,0,54708.7,0.274418,0.2741,-0.221693,82,0.669077,10,-6.07662e-05,-3.65425,-0.673489,-0.0876035,0.274198,
2,0,0,1,0,54709.5,0.270423,0.270067,-0.22513,82,0.668888,10,-6.08e-05,-3.64757,-0.895551,-0.0658812,0.270166,
2,0,0,1,0,54710.3,0.266427,0.266107,-0.227278,82,0.668697,10,-6.04803e-05,-3.64344,-0.565245,-0.10438,0.266207,
2,0,0,1,0,54711.1,0.262432,0.262065,-0.231114,82,0.668504,10,-6.05668e-05,-3.63617,-0.981901,-0.0600875,0.262167,
2,0,0,1,0,54711.9,0.258437,0.258161,-0.232183,82,0.668309,10,-5.99405e-05,-3.63417,-0.844786,-0.0698402,0.258263,
2,0,0,0,0,54712.7,0.254442,0.254115,-0.233894,82,0.668111,10,-5.9436e-05,-3.63098,-0.313401,-0.188257,0.254218,
2,0,0,1,0,54713.5,0.250447,0.250185,-0.238451,82,0.667911,10,-5.96569e-05,-3.6226,0.975563,0.0604779,0.25029,
2,0,0,0,0,54714.3,0.246452,0.24613,-0.240526,82,0.66771,10,-5.92006e-05,-3.61884,-0.769748,-0.0766485,0.246236,
2,0,0,1,0,54715.1,0.242456,0.242109,-0.24342,82,0.667506,10,-5.8934e-05,-3.61364,-1.09772,-0.0537478,0.242216,
2,0,0,1,0,54715.9,0.238461,0.238117,-0.245107,82,0.667301,10,-5.8364e-05,-3.61064,-0.816763,-0.0722364,0.238224,
2,0,0,1,0,54716.7,0.234467,0.234103,-0.247835,82,0.667094,10,-5.80191e-05,-3.60584,-0.840224,-0.0702194,0.234212,
2,0,0,1,0,54717.5,0.230471,0.230179,-0.250412,82,0.666884,10,-5.76397e-05,-3.60135,-0.876809,-0.0672895,0.23029,
2,0,0,0,0,54718.3,0.226476,0.226132,-0.252922,82,0.666673,10,-5.71938e-05,-3.59701,-1.31185,-0.0449747,0.226243,
2,0,0,1,0,54719.1,0.222481,0.222167,-0.254009,82,0.66646,10,-5.64325e-05,-3.59515,-1.09577,-0.0538435,0.222279,
2,0,0,1,0,54719.9,0.218485,0.218153,-0.257749,82,0.666244,10,-5.62287e-05,-3.5888,-1.33971,-0.0440395,0.218267,
2,0,0,1,0,54720.7,0.21449,0.21419,-0.260831,82,0.666027,10,-5.58674e-05,-3.58364,-0.611265,-0.0965212,0.214304,
2,0,0,1,0,54721.5,0.210496,0.210184,-0.262481,82,0.665807,10,-5.51693e-05,-3.5809,-0.859443,-0.0686491,0.210299,
2,0,0,0,0,54722.3,0.2065,0.206177,-0.268424,82,0.665586,10,-5.53429e-05,-3.57118,-0.766196,-0.0770038,0.206295,
2,0,0,1,0,54723.1,0.202505,0.20215,-0.269119,82,0.665361,10,-5.44023e-05,-3.57006,-0.920048,-0.0641271,0.202268,
2,0,0,1,0,54723.9,0.198509,0.198161,-0.272259,82,0.665135,10,-5.39513e-05,-3.56502,-0.68863,-0.0856773,0.198281,
2,0,0,1,0,54724.7,0.194514,0.194219,-0.275014,82,0.664905,10,-5.34129e-05,-3.56065,-0.860632,-0.0685542,0.19434,
2,0,0,1,0,54725.5,0.190519,0.190208,-0.278342,82,0.664673,10,-5.29427e-05,-3.55542,-0.583037,-0.101194,0.19033,
2,0,0,0,0,54726.3,0.186524,0.186166,-0.282743,82,0.664438,10,-5.26373e-05,-3.54861,-0.953082,-0.0619044,0.186291,
2,0,0,1,0,54727.1,0.182529,0.182184,-0.288385,82,0.664199,10,-5.25393e-05,-3.54003,-0.455307,-0.129583,0.182311,
2,0,0,0,0,54727.9,0.178534,0.178194,-0.291672,82,0.663957,10,-5.19741e-05,-3.53511,-0.58487,-0.100877,0.178322,
2,0,0,1,0,54728.7,0.174538,0.174211,-0.297391,82,0.66371,10,-5.18087e-05,-3.52667,-0.515256,-0.114506,0.174342,
2,0,0,1,0,54729.5,0.170543,0.17022,-0.303438,82,0.663459,10,-5.16511e-05,-3.51793,-0.372634,-0.158332,0.170353,
2,0,0,1,0,54730.3,0.166549,0.166225,-0.310084,82,0.663203,10,-5.15437e-05,-3.50852,-0.392071,-0.150483,0.166361,
2,0,0,1,0,54731.1,0.162553,0.162231,-0.320187,82,0.66294,10,-5.19442e-05,-3.4946,-0.309077,-0.190891,0.162372,
2,0,0,0,0,54731.9,0.158558,0.158249,-0.328981,82,0.662669,10,-5.20609e-05,-3.48283,-0.230937,-0.255481,0.158394,
2,0,0,1,0,54732.7,0.154563,0.154232,-0.344038,82,0.662388,10,-5.30618e-05,-3.46339,-0.246962,-0.238903,0.154383,
2,0,0,1,0,54733.5,0.150567,0.150246,-0.361716,82,0.662095,10,-5.43464e-05,-3.44163,-0.145311,-0.406025,0.150405,
2,0,0,1,0,54734.3,0.146572,0.146237,-0.386341,82,0.661786,10,-5.64973e-05,-3.41303,-0.12984,-0.454405,0.146407,
2,0,0,1,0,54735.1,0.142578,0.142236,-0.416543,82,0.661455,10,-5.92474e-05,-3.38034,-0.112979,-0.522219,0.142419,
2,0,0,0,0,54735.9,0.138582,0.138277,-0.45359,82,0.661097,10,-6.27212e-05,-3.34334,-0.0972784,-0.606507,0.138477,
2,0,0,1,0,54736.7,0.134587,0.134251,-0.498809,82,0.660704,10,-6.69655e-05,-3.30207,-0.104419,-0.565032,0.13447,
2,0,0,1,0,54737.5,0.130591,0.130269,-0.544757,82,0.660276,10,-7.09648e-05,-3.2638,-0.108493,-0.543816,0.130508,
2,0,0,1,0,54738.3,0.126596,0.126282,-0.585287,82,0.659812,10,-7.39111e-05,-3.23263,-0.137452,-0.429241,0.126539,
2,0,0,1,0,54739.1,0.122602,0.122275,-0.621482,82,0.659316,10,-7.59917e-05,-3.20657,-0.195908,-0.301162,0.122548,
2,0,0,1,0,54739.9,0.118607,0.118296,-0.643761,82,0.658799,10,-7.61546e-05,-3.19128,-0.340711,-0.173167,0.11858,
2,0,0,1,0,54740.7,0.114611,0.114237,-0.656576,82,0.658267,10,-7.50051e-05,-3.18272,-0.813474,-0.0725285,0.114526,
2,0,0,0,0,54741.5,0.110616,0.110235,-0.663325,82,0.657728,10,-7.31214e-05,-3.17827,-1.32574,-0.0445035,0.110527,
2,0,0,1,0,54742.3,0.10662,0.106258,-0.663387,82,0.657186,10,-7.04903e-05,-3.17823,-10.1367,-0.00582043,0.10655,
2,0,0,1,0,54743.1,0.102625,0.102262,-0.661818,82,0.656645,10,-6.76786e-05,-3.17926,1.54744,0.0381275,0.102553,
2,0,0,1,0,54743.9,0.0986305,0.098299,-0.65932,82,0.656105,10,-6.48105e-05,-3.1809,1.79755,0.0328225,0.0985891,
2,0,0,1,0,54744.7,0.0946351,0.0942788,-0.651323,82,0.655568,10,-6.14059e-05,-3.1862,0.997843,0.0591275,0.0945654,
2,0,0,0,0,54745.5,0.0906399,0.0902949,-0.648322,82,0.655036,10,-5.85402e-05,-3.18821,0.78776,0.0748959,0.0905802,
2,0,0,1,0,54746.3,0.0866448,0.0862653,-0.641866,82,0.654509,10,-5.53708e-05,-3.19256,1.08108,0.0545752,0.0865478,
2,0,0,1,0,54747.1,0.0826492,0.0823342,-0.633838,82,0.653987,10,-5.21866e-05,-3.19802,0.687065,0.0858725,0.0826131,
2,0,0,1,0,54747.9,0.0786544,0.0782794,-0.627363,82,0.653473,10,-4.91096e-05,-3.20248,0.95931,0.0615025,0.0785555,
2,0,0,1,0,54748.7,0.0746596,0.074317,-0.618165,82,0.652964,10,-4.59401e-05,-3.2089,0.688764,0.0856607,0.074589,
2,0,0,0,0,54749.5,0.0706641,0.0703264,-0.611556,82,0.65246,10,-4.30085e-05,-3.21356,0.66604,0.0885832,0.0705955,
2,0,0,1,0,54750.3,0.0666689,0.0663541,-0.603142,82,0.651964,10,-4.00209e-05,-3.21958,0.835036,0.0706557,0.0666195,
2,0,0,0,0,54751.1,0.0626737,0.0623055,-0.594761,82,0.651473,10,-3.70568e-05,-3.22566,0.635809,0.0927951,0.0625672,
2,0,0,1,0,54751.9,0.0586783,0.0583032,-0.587747,82,0.650988,10,-3.42675e-05,-3.23081,0.522031,0.11302,0.0585619,
2,0,0,1,0,54752.7,0.0546835,0.0543546,-0.578216,82,0.650511,10,-3.14287e-05,-3.23791,0.928298,0.0635572,0.054609,
2,0,0,1,0,54753.5,0.0506886,0.0503816,-0.569878,82,0.65004,10,-2.87113e-05,-3.24422,0.474317,0.124389,0.0506323,
2,0,0,1,0,54754.3,0.046693,0.0463262,-0.560089,82,0.649577,10,-2.59468e-05,-3.25174,0.624932,0.0944103,0.0465726,
2,0,0,0,0,54755.1,0.0426979,0.0423624,-0.551202,82,0.649121,10,-2.33502e-05,-3.25869,0.484559,0.12176,0.0426049,
2,0,0,1,0,54755.9,0.0387022,0.0384056,-0.542042,82,0.648673,10,-2.08175e-05,-3.26597,0.483959,0.121911,0.0386441,
2,0,0,1,0,54756.7,0.0347074,0.0344006,-0.531993,82,0.648233,10,-1.83009e-05,-3.27409,0.637963,0.0924819,0.0346347,
2,0,0,1,0,54757.5,0.0307126,0.030363,-0.521158,82,0.6478,10,-1.58239e-05,-3.28303,0.541494,0.108958,0.0305923,
2,0,0,1,0,54758.3,0.0267172,0.0263831,-0.514635,82,0.647374,10,-1.35777e-05,-3.2885,0.537849,0.109696,0.0266096,
2,0,0,0,0,54759.1,0.022722,0.0224077,-0.507291,82,0.646955,10,-1.13672e-05,-3.29474,0.877124,0.0672653,0.0226309,
2,0,0,1,0,54759.9,0.0187268,0.0183707,-0.501516,82,0.646541,10,-9.21321e-06,-3.29971,0.72711,0.0811432,0.0185914,
2,0,0,1,0,54760.7,0.0147313,0.0143738,-0.497097,82,0.646132,10,-7.14516e-06,-3.30356,1.2005,0.0491462,0.0145925,
2,0,0,1,0,54761.5,0.0107365,0.0103922,-0.491929,82,0.645726,10,-5.11222e-06,-3.3081,1.51303,0.0389946,0.0106086,
2,0,0,1,0,54762.3,0.00674163,0.00642121,-0.491129,82,0.645322,10,-3.15365e-06,-3.3088,3.33634,0.0176841,0.00663731,
2,0,0,0,0,54763.1,0.00274612,0.00243279,-0.489972,82,0.644919,10,-1.192e-06,-3.30983,-1.85856,-0.0317451,0.00264838,
2,0,0,1,0,54763.6,0.000274105,-0.000101048,-0.491887,82,0.644667,10,4.9704e-08,-3.30813, , ,0.000115383,