File: Figure_codes/Fig_3-5/workspace_calculate_alpha_eff/20221101_1-115_003_TrumpetPlot_ParaChange_from10_every3_16_CV_C01_3.csv
mode,ox/red,error,control changes,counter inc.,time/s,control/V,Ewe/V,<I>/mA,cycle number,(Q-Qo)/C,I Range,P/W,log(|I|),Tafel slope mV/dec,alpha_eff,E-IR/V,
2,0,0,1,0,3200.25,2.44065e-05,-0.000382585,-0.0326107,4,0.0000000E+000,10,1.24764e-08,-4.48664, , ,-0.000368237,
2,1,0,1,0,3201,0.00379485,0.00350274,0.216787,4,0.000155608,10,7.59351e-07,-3.66397,0.0681968,0.865144,0.00340736,
2,1,0,0,0,3201.8,0.00779002,0.00743897,0.236348,4,0.000351691,10,1.75819e-06,-3.62645,0.12327,0.478622,0.00733498,
2,1,0,1,0,3202.6,0.0117852,0.0114908,0.248637,4,0.000561199,10,2.85704e-06,-3.60443,0.201805,0.292361,0.0113814,
2,1,0,1,0,3203.4,0.0157806,0.0154347,0.26164,4,0.000780468,10,4.03833e-06,-3.5823,0.192966,0.305754,0.0153196,
2,1,0,1,0,3204.2,0.0197754,0.0194893,0.271999,4,0.00100857,10,5.30108e-06,-3.56543,0.23372,0.252439,0.0193697,
2,1,0,1,0,3205,0.0237704,0.0234826,0.283005,4,0.00124602,10,6.6457e-06,-3.54821,0.220664,0.267375,0.0233581,
2,1,0,0,0,3205.8,0.0277659,0.0274764,0.295735,4,0.00149259,10,8.12573e-06,-3.5291,0.212105,0.278164,0.0273463,
2,1,0,1,0,3206.6,0.0317611,0.0314688,0.307516,4,0.00174897,10,9.67718e-06,-3.51213,0.22812,0.258636,0.0313335,
2,1,0,1,0,3207.4,0.0357567,0.0354342,0.321728,4,0.00201606,10,1.14002e-05,-3.49251,0.232709,0.253536,0.0352926,
2,1,0,1,0,3208.19,0.0397516,0.0394136,0.335837,4,0.00229385,10,1.32365e-05,-3.47387,0.171166,0.344696,0.0392658,
2,1,0,1,0,3208.99,0.0437465,0.0434482,0.350399,4,0.00258424,10,1.52242e-05,-3.45544,0.214695,0.274808,0.043294,
2,1,0,1,0,3209.79,0.0477413,0.047437,0.366286,4,0.00288654,10,1.73755e-05,-3.43618,0.220214,0.267921,0.0472758,
2,1,0,1,0,3210.59,0.0517369,0.0514289,0.383697,4,0.00320138,10,1.97331e-05,-3.41601,0.205515,0.287083,0.05126,
2,1,0,0,0,3211.39,0.0557321,0.0554489,0.399735,4,0.00352968,10,2.21649e-05,-3.39823,0.272503,0.216512,0.055273,
2,1,0,1,0,3212.19,0.0597277,0.0593758,0.415225,4,0.0038698,10,2.46543e-05,-3.38172,0.233027,0.25319,0.0591931,
2,1,0,1,0,3212.99,0.0637226,0.0634127,0.428166,4,0.00422167,10,2.71511e-05,-3.36839,0.314622,0.187527,0.0632243,
2,1,0,1,0,3213.79,0.0677174,0.0674237,0.442794,4,0.00458548,10,2.98548e-05,-3.3538,0.380475,0.155069,0.0672289,
2,1,0,1,0,3214.59,0.0717128,0.0714027,0.454681,4,0.0049592,10,3.24654e-05,-3.34229,0.262677,0.22461,0.0712026,
2,1,0,0,0,3215.39,0.075708,0.0753835,0.464246,4,0.00534323,10,3.49965e-05,-3.33325,0.405636,0.14545,0.0751792,
2,1,0,1,0,3216.18,0.0797031,0.0794363,0.477958,4,0.00573653,10,3.79672e-05,-3.32061,0.353237,0.167027,0.079226,
2,1,0,1,0,3216.98,0.0836986,0.0833899,0.489873,4,0.00613927,10,4.08504e-05,-3.30992,0.37903,0.15566,0.0831743,
2,1,0,1,0,3217.78,0.0876935,0.0873884,0.502209,4,0.00655158,10,4.38872e-05,-3.29912,0.370085,0.159423,0.0871674,
2,1,0,1,0,3218.58,0.0916883,0.0913613,0.517145,4,0.006974,10,4.7247e-05,-3.28639,0.281903,0.209292,0.0911338,
2,1,0,0,0,3219.38,0.0956838,0.0953795,0.535336,4,0.00740974,10,5.10601e-05,-3.27137,0.249042,0.236908,0.095144,
2,1,0,1,0,3220.18,0.099679,0.0994133,0.556662,4,0.00786159,10,5.53397e-05,-3.25441,0.23283,0.253404,0.0991684,
2,1,0,0,0,3220.98,0.103674,0.103377,0.584228,4,0.00833217,10,6.03958e-05,-3.23342,0.174316,0.338466,0.10312,
2,1,0,1,0,3221.78,0.10767,0.107346,0.609209,4,0.00882603,10,6.53964e-05,-3.21523,0.193237,0.305325,0.107078,
2,1,0,1,0,3222.58,0.111664,0.111361,0.641072,4,0.00934239,10,7.13902e-05,-3.19309,0.21061,0.280138,0.111079,
2,1,0,1,0,3223.38,0.115659,0.115353,0.666085,4,0.00988063,10,7.68349e-05,-3.17647,0.222651,0.264989,0.11506,
2,1,0,1,0,3224.17,0.119655,0.119342,0.692212,4,0.0104385,10,8.26097e-05,-3.15976,0.301951,0.195396,0.119037,
2,1,0,0,0,3224.97,0.12365,0.123328,0.714301,4,0.0110153,10,8.80931e-05,-3.14612,0.297917,0.198042,0.123013,
2,1,0,1,0,3225.77,0.127646,0.127329,0.734339,4,0.0116102,10,9.35027e-05,-3.1341,0.337816,0.174651,0.127006,
2,1,0,1,0,3226.57,0.13164,0.131337,0.755093,4,0.0122222,10,9.91717e-05,-3.122,0.657817,0.0896906,0.131005,
2,1,0,1,0,3227.37,0.135635,0.135315,0.763538,4,0.0128447,10,0.000103318,-3.11717,1.32226,0.0446204,0.134979,
2,1,0,1,0,3228.17,0.139631,0.139366,0.75011,4,0.0134681,10,0.00010454,-3.12487,-0.296482,-0.199001,0.139036,
2,1,0,0,0,3228.97,0.143626,0.143322,0.718198,4,0.0140729,10,0.000102933,-3.14376,-0.136945,-0.430828,0.143006,
2,1,0,1,0,3229.77,0.147621,0.147319,0.656302,4,0.0146383,10,9.66859e-05,-3.1829,-0.0881105,-0.669614,0.147031,
2,1,0,1,0,3230.57,0.151617,0.151309,0.582964,4,0.0151493,10,8.82075e-05,-3.23436,-0.0742092,-0.795049,0.151052,
2,1,0,1,0,3231.37,0.155612,0.155301,0.517587,4,0.0156022,10,8.03818e-05,-3.28602,-0.0813584,-0.725186,0.155073,
2,1,0,1,0,3232.17,0.159606,0.159237,0.461763,4,0.0160074,10,7.35298e-05,-3.33558,-0.0883861,-0.667526,0.159034,
2,1,0,0,0,3232.96,0.163602,0.163294,0.421376,4,0.0163753,10,6.88083e-05,-3.37533,-0.104019,-0.567201,0.163109,
2,1,0,1,0,3233.76,0.167597,0.167309,0.393073,4,0.0167152,10,6.57646e-05,-3.40553,-0.163677,-0.360467,0.167136,
2,1,0,0,0,3234.56,0.171592,0.171324,0.369671,4,0.0170349,10,6.33334e-05,-3.43218,-0.177782,-0.331868,0.171161,
2,1,0,1,0,3235.36,0.175588,0.175315,0.355338,4,0.0173391,10,6.22962e-05,-3.44936,-0.230095,-0.256416,0.175159,
2,1,0,1,0,3236.16,0.179582,0.179291,0.34094,4,0.0176315,10,6.11274e-05,-3.46732,-0.309747,-0.190478,0.179141,
2,1,0,1,0,3236.96,0.183577,0.18324,0.332702,4,0.0179154,10,6.09644e-05,-3.47794,-0.325372,-0.181331,0.183094,
2,1,0,1,0,3237.76,0.187573,0.187278,0.324356,4,0.018192,10,6.07446e-05,-3.48898,-0.4347,-0.135726,0.187135,
2,1,0,0,0,3238.56,0.191568,0.191255,0.317838,4,0.0184628,10,6.07882e-05,-3.49779,-0.485575,-0.121505,0.191115,
2,1,0,1,0,3239.36,0.195563,0.195277,0.312631,4,0.0187291,10,6.10497e-05,-3.50497,-0.506352,-0.11652,0.19514,
2,1,0,1,0,3240.16,0.199559,0.199278,0.308228,4,0.0189911,10,6.14231e-05,-3.51113,-0.757842,-0.0778527,0.199143,
2,1,0,1,0,3240.95,0.203553,0.203221,0.301786,4,0.0192499,10,6.13291e-05,-3.5203,-0.717356,-0.0822465,0.203088,
2,1,0,1,0,3241.75,0.207548,0.207271,0.300509,4,0.0195061,10,6.22869e-05,-3.52214,-0.901833,-0.0654223,0.207139,
2,1,0,0,0,3242.55,0.211544,0.211262,0.297088,4,0.0197592,10,6.27633e-05,-3.52712,-1.4013,-0.0421037,0.211131,
2,1,0,1,0,3243.35,0.215539,0.215273,0.29341,4,0.0200104,10,6.31634e-05,-3.53252,-0.725594,-0.0813127,0.215144,
2,1,0,1,0,3244.15,0.219535,0.21926,0.292474,4,0.0202595,10,6.41279e-05,-3.53391,-0.964924,-0.0611447,0.219131,
2,1,0,1,0,3244.95,0.223529,0.223235,0.289307,4,0.0205067,10,6.45834e-05,-3.53864,-2.00062,-0.0294909,0.223108,
2,1,0,1,0,3245.75,0.227524,0.227237,0.288666,4,0.0207526,10,6.55955e-05,-3.5396,-0.717636,-0.0822143,0.22711,
2,1,0,0,0,3246.55,0.23152,0.231227,0.286128,4,0.0209968,10,6.61606e-05,-3.54344,2.0572,0.0286798,0.231101,
2,1,0,1,0,3247.35,0.235515,0.235237,0.284009,4,0.0212403,10,6.68094e-05,-3.54667,-1.07954,-0.0546528,0.235112,
2,1,0,0,0,3248.15,0.23951,0.239212,0.282299,4,0.0214824,10,6.75292e-05,-3.54929,-1.19829,-0.0492367,0.239088,
2,1,0,1,0,3248.95,0.243506,0.24321,0.282783,4,0.0217231,10,6.87757e-05,-3.54855,-5.61944,-0.0104993,0.243086,
2,1,0,1,0,3249.74,0.2475,0.247227,0.281032,4,0.0219631,10,6.94786e-05,-3.55124,-3.1843,-0.0185284,0.247103,
2,1,0,1,0,3250.54,0.251495,0.25123,0.279513,4,0.0222016,10,7.02221e-05,-3.5536,-2.16361,-0.0272692,0.251107,
2,1,0,1,0,3251.34,0.255491,0.255202,0.277924,4,0.0224395,10,7.09269e-05,-3.55607,-1.98063,-0.0297885,0.25508,
2,1,0,0,0,3252.14,0.259486,0.25925,0.278075,4,0.0226765,10,7.2091e-05,-3.55584,-1.041,-0.0566764,0.259128,
2,1,0,1,0,3252.94,0.263481,0.26315,0.276075,4,0.0229122,10,7.2649e-05,-3.55897,-10.5902,-0.00557119,0.263028,
2,1,0,1,0,3253.74,0.267476,0.267169,0.273515,4,0.0231471,10,7.30746e-05,-3.56302,-4.92153,-0.0119881,0.267048,
2,1,0,1,0,3254.54,0.271471,0.271172,0.274299,4,0.0233815,10,7.43822e-05,-3.56178,-2.49521,-0.0236453,0.271052,
2,1,0,1,0,3255.34,0.275466,0.27519,0.272423,4,0.0236149,10,7.4968e-05,-3.56476,-2.34656,-0.0251431,0.27507,
2,1,0,0,0,3256.14,0.279462,0.279143,0.273541,4,0.0238478,10,7.63571e-05,-3.56298,-7.59763,-0.00776558,0.279022,
2,1,0,1,0,3256.94,0.283457,0.283164,0.272113,4,0.0240797,10,7.70526e-05,-3.56525,-1.85308,-0.031839,0.283044,
2,1,0,0,0,3257.73,0.287452,0.287214,0.270887,4,0.0243108,10,7.78027e-05,-3.56721,-2.16255,-0.0272826,0.287095,
2,1,0,1,0,3258.53,0.291448,0.29113,0.270378,4,0.0245411,10,7.87149e-05,-3.56803,-1.9267,-0.0306223,0.291011,
2,1,0,1,0,3259.33,0.295442,0.295165,0.268916,4,0.0247706,10,7.93748e-05,-3.57038,-2.59425,-0.0227426,0.295047,
2,1,0,1,0,3260.13,0.299437,0.299117,0.267128,4,0.0249996,10,7.99026e-05,-3.57328,12.2957,0.00479843,0.299,
2,1,0,1,0,3260.93,0.303433,0.30319,0.266757,4,0.0252278,10,8.0878e-05,-3.57388,-1.03634,-0.0569312,0.303072,
2,1,0,0,0,3261.73,0.307428,0.307154,0.266477,4,0.0254552,10,8.18497e-05,-3.57434,3.39294,0.0173891,0.307037,
2,1,0,1,0,3262.53,0.311424,0.311122,0.264895,4,0.0256824,10,8.24146e-05,-3.57693,-1.30993,-0.0450404,0.311005,
2,1,0,1,0,3263.33,0.315418,0.315138,0.263373,4,0.0259084,10,8.29989e-05,-3.57943,27.2507,0.00216508,0.315022,
2,1,0,1,0,3264.13,0.319413,0.319065,0.263666,4,0.0261338,10,8.41265e-05,-3.57895,-1.44353,-0.0408719,0.318949,
2,1,0,1,0,3264.93,0.323409,0.323103,0.26223,4,0.0263588,10,8.47272e-05,-3.58132,-1.74048,-0.0338987,0.322988,
2,1,0,0,0,3265.72,0.327404,0.327109,0.26152,4,0.0265829,10,8.55456e-05,-3.58249,2.99052,0.019729,0.326994,
2,1,0,1,0,3266.52,0.331399,0.33111,0.260234,4,0.0268066,10,8.61662e-05,-3.58464,-1.77608,-0.0332193,0.330995,
2,1,0,1,0,3267.32,0.335395,0.33512,0.260461,4,0.0270293,10,8.72855e-05,-3.58426,-3.28827,-0.0179426,0.335005,
2,1,0,1,0,3268.12,0.339389,0.339088,0.259319,4,0.0272514,10,8.79319e-05,-3.58617,-3.26817,-0.0180529,0.338974,
2,1,0,1,0,3268.92,0.343384,0.343135,0.259334,4,0.027473,10,8.89865e-05,-3.58614,-3.13699,-0.0188079,0.343021,
2,1,0,0,0,3269.72,0.34738,0.347116,0.258584,4,0.0276938,10,8.97587e-05,-3.5874,-1.64702,-0.0358223,0.347002,
2,1,0,1,0,3270.52,0.351375,0.351106,0.257445,4,0.0279143,10,9.03904e-05,-3.58932,-31.6383,-0.00186483,0.350993,
2,1,0,0,0,3271.32,0.35537,0.355075,0.256321,4,0.0281343,10,9.10132e-05,-3.59122,-1.26213,-0.0467464,0.354962,
2,1,0,1,0,3272.12,0.359365,0.359008,0.255884,4,0.0283533,10,9.18644e-05,-3.59196,5.39919,0.0109276,0.358896,
2,1,0,1,0,3272.92,0.36336,0.363114,0.255045,4,0.0285719,10,9.26105e-05,-3.59338,16.6616,0.00354109,0.363002,
2,1,0,1,0,3273.72,0.367355,0.367055,0.254672,4,0.0287899,10,9.34787e-05,-3.59402,-3.16794,-0.0186241,0.366943,
2,1,0,1,0,3274.51,0.371351,0.371058,0.253679,4,0.0290074,10,9.41294e-05,-3.59572,6.87862,0.0085773,0.370946,
2,1,0,0,0,3275.31,0.375346,0.375061,0.253771,4,0.0292247,10,9.51797e-05,-3.59556,-1.02572,-0.0575205,0.374949,
2,1,0,1,0,3276.11,0.379342,0.379037,0.25318,4,0.0294412,10,9.59646e-05,-3.59657,-1.54327,-0.0382305,0.378926,
2,1,0,1,0,3276.91,0.383336,0.38304,0.252225,4,0.0296573,10,9.66123e-05,-3.59821,2.06777,0.0285332,0.382929,
2,1,0,1,0,3277.71,0.387331,0.387043,0.252085,4,0.0298734,10,9.75677e-05,-3.59845,-1.05091,-0.0561419,0.386932,
2,1,0,1,0,3278.51,0.391327,0.391061,0.251304,4,0.0300886,10,9.82752e-05,-3.5998,3.65088,0.0161605,0.390951,
2,1,0,0,0,3279.31,0.395322,0.395043,0.249363,4,0.0303037,10,9.85093e-05,-3.60317,-3.73789,-0.0157843,0.394933,
2,1,0,1,0,3280.11,0.399317,0.399019,0.251301,4,0.0305184,10,0.000100274,-3.59981,5.19089,0.0113661,0.398909,
2,1,0,1,0,3280.91,0.403313,0.403022,0.25031,4,0.0307327,10,0.00010088,-3.60152,-4.05063,-0.0145656,0.402912,
2,1,0,1,0,3281.71,0.407307,0.407031,0.2494,4,0.0309468,10,0.000101514,-3.6031,-1.98091,-0.0297843,0.406921,
2,1,0,1,0,3282.5,0.411302,0.411047,0.25093,4,0.0311604,10,0.000103144,-3.60045,-66.8048,-0.000883171,0.410937,
2,1,0,0,0,3283.3,0.415298,0.415045,0.24872,4,0.0313739,10,0.00010323,-3.60429,-7.4674,-0.00790101,0.414936,
2,1,0,1,0,3284.1,0.419293,0.419033,0.249144,4,0.0315869,10,0.000104399,-3.60355,-1.59704,-0.0369433,0.418923,
2,1,0,0,0,3284.9,0.423288,0.422986,0.248821,4,0.0317995,10,0.000105248,-3.60411,6.26408,0.00941878,0.422876,
2,1,0,1,0,3285.7,0.427283,0.427007,0.247604,4,0.0320122,10,0.000105729,-3.60624,2.21253,0.0266663,0.426898,
2,1,0,1,0,3286.5,0.431278,0.43102,0.249895,4,0.0322248,10,0.00010771,-3.60224,-4.34983,-0.0135637,0.43091,
2,1,0,1,0,3287.3,0.435273,0.434993,0.248517,4,0.032437,10,0.000108103,-3.60464,27.6741,0.00213195,0.434884,
2,1,0,1,0,3288.1,0.439269,0.439002,0.248908,4,0.0326493,10,0.000109271,-3.60396,-57.616,-0.00102402,0.438893,
2,1,0,0,0,3288.9,0.443264,0.442967,0.247227,4,0.0328613,10,0.000109513,-3.6069,-36.4583,-0.00161829,0.442858,
2,1,0,1,0,3289.7,0.447259,0.446969,0.248413,4,0.0330734,10,0.000111033,-3.60483,-7.85704,-0.00750919,0.44686,
2,1,0,1,0,3290.49,0.451254,0.451015,0.248499,4,0.0332857,10,0.000112077,-3.60468,-50.1986,-0.00117533,0.450906,
2,1,0,1,0,3291.29,0.455249,0.454944,0.249056,4,0.033498,10,0.000113306,-3.6037,2.058,0.0286685,0.454834,
2,1,0,1,0,3292.09,0.459244,0.458987,0.248905,4,0.0337107,10,0.000114244,-3.60397,2.9507,0.0199953,0.458878,
2,1,0,0,0,3292.89,0.46324,0.462973,0.24987,4,0.0339237,10,0.000115683,-3.60229,-4.6737,-0.0126238,0.462863,
2,1,0,1,0,3293.69,0.467235,0.466954,0.250565,4,0.0341367,10,0.000117002,-3.60108,4.65203,0.0126826,0.466844,
2,1,0,1,0,3294.49,0.471231,0.470959,0.249726,4,0.0343501,10,0.000117611,-3.60254,-4.06367,-0.0145189,0.470849,
2,1,0,1,0,3295.29,0.475225,0.474979,0.251442,4,0.0345637,10,0.00011943,-3.59956,1.31855,0.0447461,0.474868,
2,1,0,1,0,3296.09,0.47922,0.478945,0.250921,4,0.0347778,10,0.000120177,-3.60046,10.5813,0.00557587,0.478835,
2,1,0,0,0,3296.89,0.483216,0.482927,0.252589,4,0.0349925,10,0.000121982,-3.59759,-2.0923,-0.0281987,0.482816,
2,1,0,1,0,3297.69,0.487211,0.486937,0.252264,4,0.0352075,10,0.000122837,-3.59815,1.0481,0.0562921,0.486826,
2,1,0,0,0,3298.49,0.491206,0.490903,0.253236,4,0.0354229,10,0.000124314,-3.59648,1.78613,0.0330323,0.490791,
2,1,0,1,0,3299.28,0.495201,0.494937,0.254328,4,0.0356389,10,0.000125876,-3.59461,2.09455,0.0281683,0.494825,
2,1,0,1,0,3300.08,0.499196,0.498923,0.255191,4,0.0358554,10,0.00012732,-3.59314,1.57354,0.0374951,0.49881,
2,1,0,1,0,3300.88,0.503191,0.502912,0.255962,4,0.0360729,10,0.000128727,-3.59182,-10.0286,-0.00588317,0.5028,
2,1,0,1,0,3301.68,0.507187,0.506922,0.257564,4,0.0362913,10,0.000130565,-3.58911,1.12852,0.052281,0.506809,
2,1,0,0,0,3302.48,0.511182,0.510875,0.258986,4,0.0365104,10,0.00013231,-3.58672,1195.39,4.93565e-05,0.510761,
2,1,0,1,0,3303.28,0.515177,0.514905,0.258689,4,0.0367307,10,0.0001332,-3.58722,1.33863,0.0440748,0.514791,
2,1,0,1,0,3304.08,0.519172,0.518903,0.26145,4,0.0369519,10,0.000135667,-3.58261,1.7503,0.0337085,0.518788,
2,1,0,1,0,3304.88,0.523167,0.522887,0.262477,4,0.0371745,10,0.000137246,-3.58091,0.915487,0.0644465,0.522771,
2,1,0,1,0,3305.68,0.527162,0.52688,0.264595,4,0.0373985,10,0.00013941,-3.57742,1.1263,0.0523841,0.526763,
2,1,0,0,0,3306.48,0.531158,0.530874,0.266569,4,0.0376239,10,0.000141514,-3.57419,1.38939,0.0424645,0.530756,
2,1,0,1,0,3307.27,0.535153,0.53485,0.269306,4,0.0378512,10,0.000144038,-3.56975,1.00035,0.0589795,0.534732,
2,1,0,0,0,3308.07,0.539148,0.538868,0.27205,4,0.0380804,10,0.000146599,-3.56535,1.39986,0.0421472,0.538748,
2,1,0,1,0,3308.87,0.543143,0.54291,0.274441,4,0.0383115,10,0.000148997,-3.56155,0.834,0.0707434,0.54279,
2,1,0,1,0,3309.67,0.547138,0.546838,0.277657,4,0.0385448,10,0.000151833,-3.55649,1.31896,0.0447323,0.546716,
2,1,0,1,0,3310.47,0.551133,0.550821,0.281305,4,0.0387805,10,0.000154949,-3.55082,0.488828,0.120697,0.550698,
2,1,0,1,0,3311.27,0.555129,0.554843,0.28412,4,0.0390193,10,0.000157642,-3.5465,0.641423,0.0919829,0.554718,
2,1,0,0,0,3312.07,0.559124,0.5589,0.288725,4,0.0392612,10,0.000161369,-3.53952,0.663269,0.0889534,0.558773,
2,1,0,1,0,3312.87,0.56312,0.562851,0.293082,4,0.0395061,10,0.000164961,-3.53301,0.497655,0.118556,0.562722,
2,1,0,1,0,3313.67,0.567114,0.56689,0.298369,4,0.0397551,10,0.000169142,-3.52525,0.601828,0.0980346,0.566759,
2,1,0,1,0,3314.47,0.571109,0.570853,0.303875,4,0.040008,10,0.000173468,-3.5173,0.525913,0.112186,0.570719,
2,1,0,1,0,3315.26,0.575105,0.574843,0.309683,4,0.040266,10,0.000178019,-3.50908,0.37952,0.15546,0.574707,
2,1,0,0,0,3316.06,0.5791,0.578773,0.316951,4,0.0405295,10,0.000183443,-3.49901,0.43951,0.134241,0.578634,
2,1,0,1,0,3316.86,0.583095,0.582778,0.325499,4,0.040799,10,0.000189694,-3.48745,0.27232,0.216657,0.582635,
2,1,0,1,0,3317.66,0.58709,0.58681,0.335111,4,0.0410757,10,0.000196647,-3.47481,0.344743,0.171142,0.586663,
2,1,0,1,0,3318.46,0.591085,0.590829,0.345886,4,0.0413603,10,0.00020436,-3.46107,0.269446,0.218968,0.590677,
2,1,0,1,0,3319.26,0.59508,0.594775,0.357916,4,0.0416542,10,0.00021288,-3.44622,0.256453,0.230061,0.594617,
2,1,0,0,0,3320.06,0.599076,0.598838,0.373253,4,0.0419592,10,0.000223518,-3.428,0.217651,0.271077,0.598674,
2,1,0,1,0,3320.86,0.603071,0.602788,0.390065,4,0.0422766,10,0.000235127,-3.40886,0.185902,0.317371,0.602617,
2,1,0,0,0,3321.66,0.607066,0.606775,0.408972,4,0.0426085,10,0.000248154,-3.38831,0.183547,0.321443,0.606595,
2,1,0,1,0,3322.46,0.611061,0.610809,0.443166,4,0.0429633,10,0.00027069,-3.35343,0.14523,0.406253,0.610614,
2,1,0,1,0,3323.26,0.615056,0.614804,0.461799,4,0.0433357,10,0.000283915,-3.33555,0.148032,0.398563,0.6146,
2,1,0,1,0,3324.05,0.619051,0.61877,0.492141,4,0.04373,10,0.000304522,-3.30791,0.130596,0.451776,0.618554,
2,1,0,1,0,3324.85,0.623047,0.622779,0.529703,4,0.0441511,10,0.000329888,-3.27597,0.119739,0.492736,0.622546,
2,1,0,0,0,3325.65,0.627042,0.626756,0.572039,4,0.0446036,10,0.000358529,-3.24257,0.115557,0.510572,0.626504,
2,1,0,1,0,3326.45,0.631037,0.630771,0.624108,4,0.0450942,10,0.000393669,-3.20474,0.0995374,0.592742,0.630496,
2,1,0,1,0,3327.25,0.635032,0.63474,0.685595,4,0.0456298,10,0.000435174,-3.16393,0.0976535,0.604177,0.634438,
2,1,0,1,0,3328.05,0.639027,0.638755,0.755904,4,0.0462184,10,0.000482837,-3.12153,0.0857907,0.68772,0.638422,
2,1,0,1,0,3328.85,0.643022,0.642748,0.843321,4,0.0468707,10,0.000542043,-3.07401,0.0835487,0.706175,0.642377,
2,1,0,0,0,3329.65,0.647018,0.646732,0.9454,4,0.0475977,10,0.00061142,-3.02438,0.0770287,0.765949,0.646316,
2,1,0,1,0,3330.45,0.651013,0.650757,1.06487,4,0.0484134,10,0.000692968,-2.97271,0.0740064,0.797228,0.650288,
2,1,0,1,0,3331.25,0.655008,0.654775,1.20853,4,0.0493336,10,0.000791313,-2.91774,0.0697835,0.845472,0.654244,
2,1,0,1,0,3332.04,0.659003,0.658769,1.37613,4,0.0503776,10,0.000906554,-2.86134,0.0691378,0.853368,0.658164,
2,1,0,1,0,3332.84,0.662998,0.662766,1.57194,4,0.0515669,10,0.00104183,-2.80356,0.0667576,0.883794,0.662074,
2,1,0,0,0,3333.64,0.666994,0.666747,1.80188,4,0.0529256,10,0.0012014,-2.74427,0.0649945,0.90777,0.665954,
2,1,0,1,0,3334.44,0.670989,0.670719,2.06567,4,0.0544822,10,0.00138548,-2.68494,0.0649455,0.908454,0.66981,
2,1,0,0,0,3335.24,0.674984,0.674702,2.37139,4,0.0562661,10,0.00159998,-2.625,0.0643947,0.916224,0.673658,
2,1,0,1,0,3336.04,0.678979,0.678693,2.71946,4,0.0583108,10,0.00184568,-2.56552,0.0646769,0.912227,0.677496,
2,1,0,1,0,3336.84,0.682974,0.68271,3.1126,4,0.060652,10,0.00212501,-2.50688,0.0649257,0.908732,0.681341,
2,1,0,1,0,3337.64,0.686969,0.686688,3.55423,4,0.0633264,10,0.00244065,-2.44925,0.0674203,0.875108,0.685124,
2,1,0,1,0,3338.44,0.690965,0.690738,4.04553,4,0.0663746,10,0.0027944,-2.39302,0.06811,0.866246,0.688958,
2,1,0,0,0,3339.24,0.69496,0.694694,4.58831,4,0.0698356,10,0.00318747,-2.33835,0.0688449,0.856998,0.692675,
2,1,0,1,0,3340.03,0.698955,0.698712,5.18164,4,0.0737498,10,0.00362047,-2.28553,0.0727035,0.811516,0.696432,
2,1,0,1,0,3340.83,0.70295,0.702726,5.82101,4,0.0781574,10,0.00409057,-2.235,0.0739328,0.798022,0.700164,
2,1,0,1,0,3341.63,0.706945,0.706674,6.50964,4,0.0830956,10,0.00460019,-2.18644,0.0783648,0.752889,0.70381,
2,1,0,1,0,3342.43,0.71094,0.710683,7.23928,4,0.0886006,10,0.00514483,-2.1403,0.0809654,0.728707,0.707498,
2,1,0,0,0,3343.23,0.714936,0.714688,8.01315,4,0.094708,10,0.0057269,-2.0962,0.0853107,0.69159,0.711162,
2,1,0,1,0,3344.03,0.718931,0.718687,8.82368,4,0.101446,10,0.00634147,-2.05435,0.0890459,0.66258,0.714805,
2,1,0,1,0,3344.83,0.722927,0.722639,9.66884,4,0.108848,10,0.00698708,-2.01463,0.0934605,0.631283,0.718385,
2,1,0,1,0,3345.63,0.726921,0.726664,10.546,4,0.116937,10,0.00766339,-1.97691,0.0981832,0.600917,0.722024,
2,1,0,1,0,3346.43,0.730916,0.730673,11.4516,4,0.125737,10,0.00836737,-1.94113,0.102611,0.574985,0.725634,
2,1,0,1,0,3347.23,0.734911,0.734661,12.3868,4,0.135275,10,0.00910013,-1.90704,0.106805,0.552409,0.729211,
2,1,0,1,0,3348.03,0.738907,0.738625,13.3651,4,0.145576,10,0.00987179,-1.87403,0.108679,0.542881,0.732745,
2,1,0,0,0,3348.82,0.742902,0.742665,14.3886,4,0.156676,10,0.0106859,-1.84198,0.110641,0.533255,0.736334,
2,1,0,1,0,3349.62,0.746897,0.746677,15.4635,4,0.168617,10,0.0115462,-1.81069,0.116023,0.508518,0.739873,
2,1,0,1,0,3350.42,0.750892,0.750619,16.5915,4,0.181432,10,0.0124539,-1.78012,0.114683,0.514462,0.743318,
2,1,0,1,0,3351.22,0.754887,0.754644,17.7668,4,0.195171,10,0.0134076,-1.75039,0.117133,0.503702,0.746826,
2,1,0,1,0,3352.02,0.758883,0.75865,19.0697,4,0.209895,10,0.0144672,-1.71966,0.112041,0.526594,0.750259,
2,1,0,0,0,3352.82,0.762878,0.762606,20.3682,4,0.225666,10,0.0155329,-1.69105,0.120421,0.489947,0.753644,
2,1,0,1,0,3353.62,0.766873,0.76659,21.7155,4,0.242492,10,0.0166469,-1.66323,0.12754,0.4626,0.757036,
2,1,0,1,0,3354.42,0.770868,0.770648,23.101,4,0.260405,10,0.0178027,-1.63637,0.12597,0.468367,0.760483,
2,1,0,1,0,3355.22,0.774863,0.77461,24.5367,4,0.279445,10,0.0190064,-1.61018,0.127272,0.463575,0.763814,
2,1,0,1,0,3356.02,0.778858,0.7786,26.0216,4,0.299655,10,0.0202604,-1.58467,0.132581,0.44501,0.76715,
2,1,0,0,0,3356.81,0.782854,0.78263,27.5617,4,0.321081,10,0.0215706,-1.55969,0.136416,0.4325,0.770503,
2,1,0,1,0,3357.61,0.786849,0.786575,29.1051,4,0.343742,10,0.0228933,-1.53603,0.14396,0.409835,0.773768,
2,1,0,0,0,3358.41,0.790844,0.790593,30.6807,4,0.367637,10,0.0242559,-1.51313,0.142949,0.412734,0.777093,
2,1,0,1,0,3359.21,0.794839,0.794559,32.3081,4,0.392812,10,0.0256707,-1.49069,0.149747,0.393998,0.780343,
2,1,0,1,0,3360.01,0.798834,0.798554,33.9343,4,0.419298,10,0.0270984,-1.46936,0.148199,0.398114,0.783623,
2,1,0,1,0,3360.81,0.802829,0.802559,35.5185,4,0.447113,10,0.0285057,-1.44955,0.180006,0.327767,0.786931,
2,1,0,1,0,3361.61,0.806825,0.806587,37.1251,4,0.476164,10,0.0299446,-1.43033,0.17556,0.336068,0.790252,
2,1,0,0,0,3362.41,0.81082,0.810587,38.755,4,0.506502,10,0.0314143,-1.41167,0.18753,0.314616,0.793534,
2,1,0,1,0,3363.21,0.814815,0.814526,40.3626,4,0.538122,10,0.0328764,-1.39402,0.189671,0.311065,0.796767,
2,1,0,1,0,3364.01,0.81881,0.818525,41.9759,4,0.571024,10,0.0343584,-1.377,0.191312,0.308396,0.800056,
2,1,0,1,0,3364.81,0.822805,0.822603,43.6227,4,0.605235,10,0.0358841,-1.36029,0.21169,0.278709,0.803409,
2,1,0,1,0,3365.6,0.826801,0.826561,45.1474,4,0.640703,10,0.037317,-1.34537,0.214081,0.275596,0.806696,
2,1,0,0,0,3366.4,0.830796,0.830553,46.76,4,0.677426,10,0.0388366,-1.33013,0.212957,0.277051,0.809978,
2,1,0,1,0,3367.2,0.834791,0.834556,48.3465,4,0.715458,10,0.0403479,-1.31563,0.252214,0.233929,0.813283,
2,1,0,1,0,3368,0.838786,0.838552,49.8936,4,0.754725,10,0.0418384,-1.30195,0.230927,0.255492,0.816599,
2,1,0,1,0,3368.8,0.842781,0.842543,51.4565,4,0.795261,10,0.0433543,-1.28856,0.275468,0.214181,0.819902,
2,1,0,1,0,3369.6,0.846776,0.84653,52.826,4,0.836936,10,0.0447188,-1.27715,0.27763,0.212513,0.823286,
2,1,0,1,0,3370.3,0.849723,0.849509,53.7532,4,0.87437,10,0.0456638,-1.2696,0.0549162,1.07437,0.825857,
2,1,0,0,0,3371.1,0.845728,0.845473,51.3,4,0.916265,10,0.0433727,-1.28988,0.175835,0.335542,0.822901,
2,1,0,1,0,3371.9,0.841732,0.841492,49.505,4,0.956513,10,0.0416581,-1.30535,0.206348,0.285925,0.81971,
2,1,0,1,0,3372.7,0.837737,0.837466,47.7641,4,0.995361,10,0.0400009,-1.3209,0.225505,0.261635,0.81645,
2,1,0,1,0,3373.5,0.833742,0.83352,46.2675,4,1.03291,10,0.0385649,-1.33472,0.212115,0.278151,0.813162,
2,1,0,1,0,3374.29,0.829747,0.82952,44.5298,4,1.06916,10,0.0369384,-1.35135,0.201754,0.292435,0.809927,
2,1,0,0,0,3375.09,0.825752,0.825514,42.8753,4,1.10408,10,0.0353941,-1.36779,0.187719,0.3143,0.806649,
2,1,0,1,0,3375.89,0.821757,0.821521,41.2003,4,1.13763,10,0.0338469,-1.3851,0.196117,0.300841,0.803393,
2,1,0,1,0,3376.69,0.817761,0.817505,39.5446,4,1.16989,10,0.0323279,-1.40291,0.164429,0.358816,0.800106,
2,1,0,1,0,3377.49,0.813766,0.813514,37.7929,4,1.20076,10,0.030745,-1.42259,0.164277,0.359149,0.796885,
2,1,0,1,0,3378.29,0.809771,0.809579,36.0163,4,1.23024,10,0.029158,-1.4435,0.153749,0.383742,0.793732,
2,1,0,1,0,3379.09,0.805776,0.805546,34.2925,4,1.25831,10,0.0276242,-1.4648,0.148601,0.397038,0.790457,
2,1,0,1,0,3379.89,0.801781,0.80155,32.5729,4,1.28501,10,0.0261088,-1.48714,0.134339,0.439186,0.787218,
2,1,0,0,0,3380.69,0.797786,0.797524,30.4508,4,1.31023,10,0.0242852,-1.5164,0.110688,0.53303,0.784126,
2,1,0,1,0,3381.49,0.79379,0.793539,28.8408,4,1.33391,10,0.0228863,-1.53999,0.112601,0.523976,0.780849,
2,1,0,1,0,3382.28,0.789795,0.789555,26.9987,4,1.35616,10,0.0213169,-1.56866,0.125261,0.471018,0.777676,
2,1,0,1,0,3383.08,0.7858,0.785522,25.3698,4,1.37707,10,0.0199285,-1.59568,0.121813,0.484349,0.774359,
2,1,0,1,0,3383.88,0.781805,0.781533,23.8303,4,1.3967,10,0.0186242,-1.62287,0.117252,0.503191,0.771048,
2,1,0,0,0,3384.68,0.77781,0.777581,22.2961,4,1.41512,10,0.017337,-1.65177,0.105858,0.557353,0.767771,
2,1,0,1,0,3385.48,0.773814,0.77354,20.7253,4,1.43226,10,0.0160319,-1.6835,0.111834,0.527569,0.764421,
2,1,0,1,0,3386.28,0.769819,0.769591,19.3454,4,1.44825,10,0.014888,-1.71342,0.112213,0.525785,0.761079,
2,1,0,1,0,3387.08,0.765824,0.765559,17.9998,4,1.46315,10,0.01378,-1.74473,0.10624,0.555347,0.75764,
2,1,0,1,0,3387.88,0.761829,0.761579,16.6946,4,1.47699,10,0.0127143,-1.77742,0.101726,0.579988,0.754234,
2,1,0,0,0,3388.68,0.757834,0.757539,15.4152,4,1.4898,10,0.0116776,-1.81205,0.0965953,0.610796,0.750756,
2,1,0,1,0,3389.48,0.753839,0.753565,14.192,4,1.50161,10,0.0106946,-1.84796,0.0959404,0.614965,0.747321,
2,1,0,0,0,3390.27,0.749843,0.749573,13.0504,4,1.51247,10,0.00978224,-1.88438,0.0948957,0.621735,0.743831,
2,1,0,1,0,3391.07,0.745848,0.745579,11.9638,4,1.52244,10,0.00891997,-1.92213,0.0984333,0.59939,0.740315,
2,1,0,1,0,3391.87,0.741853,0.74157,10.9951,4,1.5316,10,0.00815364,-1.9588,0.0896761,0.657923,0.736732,
2,1,0,1,0,3392.67,0.737858,0.737609,10.0116,4,1.53997,10,0.00738465,-1.9995,0.0865435,0.681738,0.733204,
2,1,0,1,0,3393.47,0.733863,0.733595,8.90644,4,1.54754,10,0.00653372,-2.0503,0.068753,0.858144,0.729676,
2,1,0,0,0,3394.27,0.729868,0.729637,8.06395,4,1.5543,10,0.00588376,-2.09345,0.0829877,0.710949,0.726089,
2,1,0,1,0,3395.07,0.725872,0.725614,7.27405,4,1.56041,10,0.00527816,-2.13822,0.0802174,0.735501,0.722414,
2,1,0,1,0,3395.87,0.721877,0.721603,6.53613,4,1.56591,10,0.00471649,-2.18468,0.0777766,0.758583,0.718727,
2,1,0,1,0,3396.67,0.717882,0.717652,5.8433,4,1.57084,10,0.00419345,-2.23334,0.0754796,0.781668,0.715081,
2,1,0,1,0,3397.47,0.713887,0.71362,5.20347,4,1.57524,10,0.0037133,-2.28371,0.0717346,0.822476,0.71133,
2,1,0,0,0,3398.27,0.709892,0.70968,4.61243,4,1.57914,10,0.00327335,-2.33607,0.0702879,0.839405,0.707651,
2,1,0,1,0,3399.06,0.705897,0.705616,4.07198,4,1.5826,10,0.00287326,-2.39019,0.067793,0.870296,0.703824,
2,1,0,1,0,3399.86,0.701901,0.701675,3.57263,4,1.58563,10,0.00250683,-2.44701,0.0656913,0.89814,0.700103,
2,1,0,1,0,3400.66,0.697906,0.697694,3.11934,4,1.58829,10,0.00217635,-2.50594,0.0634027,0.93056,0.696322,
2,1,0,1,0,3401.46,0.693911,0.693654,2.70973,4,1.5906,10,0.00187961,-2.56707,0.0612128,0.96385,0.692462,
2,1,0,0,0,3402.26,0.689916,0.689719,2.34009,4,1.59261,10,0.00161401,-2.63077,0.058437,1.00963,0.68869,
2,1,0,1,0,3403.06,0.685921,0.685675,2.01077,4,1.59433,10,0.00137874,-2.69664,0.0579042,1.01892,0.68479,
2,1,0,0,0,3403.86,0.681926,0.68169,1.71685,4,1.5958,10,0.00117036,-2.76527,0.0551962,1.06891,0.680935,
2,1,0,1,0,3404.66,0.67793,0.677682,1.45745,4,1.59706,10,0.000987685,-2.83641,0.0542101,1.08836,0.677041,
2,1,0,1,0,3405.46,0.673935,0.673675,1.2308,4,1.59812,10,0.000829162,-2.90981,0.0523597,1.12682,0.673134,
2,1,0,1,0,3406.26,0.66994,0.6697,1.03572,4,1.59901,10,0.000693621,-2.98476,0.0504069,1.17047,0.669245,
2,1,0,1,0,3407.05,0.665945,0.665705,0.86304,4,1.59975,10,0.00057453,-3.06397,0.0499653,1.18082,0.665326,
2,1,0,0,0,3407.85,0.66195,0.66171,0.714301,4,1.60037,10,0.00047266,-3.14612,0.0465678,1.26697,0.661395,
2,1,0,1,0,3408.65,0.657955,0.657672,0.587535,4,1.60087,10,0.000386405,-3.23097,0.0457318,1.29013,0.657413,
2,1,0,1,0,3409.45,0.653959,0.653725,0.480033,4,1.60129,10,0.000313809,-3.31873,0.0443012,1.33179,0.653514,
2,1,0,1,0,3410.25,0.649964,0.649758,0.388866,4,1.60162,10,0.000252669,-3.4102,0.0410357,1.43777,0.649587,
2,1,0,1,0,3411.05,0.645969,0.645717,0.312732,4,1.60189,10,0.000201936,-3.50483,0.0418444,1.40998,0.64558,
2,1,0,0,0,3411.85,0.641974,0.641694,0.246551,4,1.6021,10,0.00015821,-3.60809,0.0373018,1.58169,0.641585,
2,1,0,1,0,3412.65,0.637979,0.637715,0.193709,4,1.60226,10,0.000123531,-3.71285,0.0365241,1.61537,0.63763,
2,1,0,1,0,3413.45,0.633983,0.633709,0.147558,4,1.60238,10,9.35089e-05,-3.83104,0.0324198,1.81987,0.633644,
2,1,0,1,0,3414.25,0.629988,0.629754,0.109411,4,1.60247,10,6.89018e-05,-3.96094,0.0275571,2.14101,0.629706,
2,1,0,1,0,3415.04,0.625993,0.62571,0.0777547,4,1.60253,10,4.86519e-05,-4.10927,0.0247446,2.38436,0.625676,
2,1,0,0,0,3415.84,0.621998,0.621771,0.0513249,4,1.60257,10,3.19123e-05,-4.28967,0.0181867,3.24412,0.621748,
2,1,0,1,0,3416.64,0.618003,0.617752,0.029108,4,1.60259,10,1.79815e-05,-4.53599,0.0100988,5.84229,0.617739,
2,1,0,0,0,3417.44,0.614008,0.613687,0.0092673,4,1.6026,10,5.68722e-06,-5.03305,0.00368983,15.9899,0.613683,
2,1,0,1,0,3418.24,0.610012,0.609758,-0.0064284,4,1.60258,10,-3.91977e-06,-5.1919,-0.00398233,-14.8154,0.609761,
2,0,0,1,0,3419.04,0.606017,0.605766,-0.0179277,4,1.60256,10,-1.086e-05,-4.74647,-0.014818,-3.98165,0.605774,
2,0,0,1,0,3419.84,0.602022,0.601755,-0.0285421,4,1.60253,10,-1.71754e-05,-4.54451,-0.0300031,-1.96647,0.601767,
2,0,0,1,0,3420.64,0.598027,0.597772,-0.0375856,4,1.60249,10,-2.24676e-05,-4.42498,-0.0351269,-1.67963,0.597788,
2,0,0,0,0,3421.44,0.594032,0.593726,-0.0448528,4,1.60245,10,-2.66303e-05,-4.34821,-0.0592128,-0.996407,0.593746,
2,0,0,1,0,3422.24,0.590037,0.589771,-0.0531507,4,1.60239,10,-3.13467e-05,-4.27449,-0.0737581,-0.799912,0.589794,
2,0,0,1,0,3423.04,0.586041,0.58578,-0.0586816,4,1.60234,10,-3.43745e-05,-4.2315,-0.0883023,-0.668159,0.585806,
2,0,0,1,0,3423.83,0.582046,0.581721,-0.063809,4,1.60228,10,-3.71191e-05,-4.19512,-0.161867,-0.364496,0.581749,
2,0,0,1,0,3424.63,0.578052,0.577803,-0.0668149,4,1.60221,10,-3.86059e-05,-4.17513,-0.163281,-0.36134,0.577833,
2,0,0,0,0,3425.43,0.574056,0.573815,-0.0707152,4,1.60214,10,-4.05774e-05,-4.15049,-0.198274,-0.297569,0.573846,
2,0,0,1,0,3426.23,0.570061,0.569784,-0.0725423,4,1.60207,10,-4.13335e-05,-4.13941,-0.591279,-0.0997836,0.569816,
2,0,0,1,0,3427.03,0.566065,0.565818,-0.0760609,4,1.602,10,-4.30366e-05,-4.11884,-0.142155,-0.41504,0.565851,
2,0,0,1,0,3427.83,0.56207,0.561802,-0.0798432,4,1.60193,10,-4.48561e-05,-4.09776,-0.385614,-0.153003,0.561837,
2,0,0,1,0,3428.63,0.558075,0.557779,-0.0823545,4,1.60185,10,-4.59356e-05,-4.08431,-0.283078,-0.208423,0.557815,
2,0,0,1,0,3429.43,0.55408,0.553814,-0.0839428,4,1.60177,10,-4.64887e-05,-4.07602,-0.384198,-0.153567,0.553851,
2,0,0,1,0,3430.23,0.550085,0.549773,-0.0851319,4,1.60169,10,-4.68032e-05,-4.06991,-0.553157,-0.10666,0.549811,
2,0,0,0,0,3431.03,0.54609,0.545816,-0.0870842,4,1.60161,10,-4.75319e-05,-4.06006,-0.36714,-0.160702,0.545854,
2,0,0,1,0,3431.82,0.542094,0.541844,-0.0894645,4,1.60153,10,-4.84758e-05,-4.04835,-0.900069,-0.0655505,0.541884,
2,0,0,1,0,3432.62,0.538099,0.537819,-0.0910396,4,1.60144,10,-4.89629e-05,-4.04077,-0.969216,-0.0608739,0.537859,
2,0,0,1,0,3433.42,0.534104,0.533859,-0.0922133,4,1.60136,10,-4.92289e-05,-4.03521,-0.43442,-0.135813,0.5339,
2,0,0,1,0,3434.22,0.530109,0.529847,-0.0933164,4,1.60127,10,-4.94434e-05,-4.03004,-0.409291,-0.144152,0.529888,
2,0,0,0,0,3435.02,0.526114,0.525817,-0.0947063,4,1.60118,10,-4.97981e-05,-4.02362,2.6665,0.0221264,0.525858,
2,0,0,1,0,3435.82,0.522119,0.52184,-0.0953555,4,1.60109,10,-4.97603e-05,-4.02065,-0.423365,-0.13936,0.521882,
2,0,0,1,0,3436.62,0.518123,0.517796,-0.0975728,4,1.601,10,-5.05228e-05,-4.01067,-0.966242,-0.0610613,0.517839,
2,0,0,1,0,3437.42,0.514128,0.513883,-0.0978191,4,1.60091,10,-5.02675e-05,-4.00958,-0.468574,-0.125914,0.513926,
2,0,0,1,0,3438.22,0.510133,0.509826,-0.0986727,4,1.60082,10,-5.03059e-05,-4.0058,-1.91927,-0.0307408,0.509869,
2,0,0,0,0,3439.02,0.506138,0.50584,-0.100797,4,1.60073,10,-5.09872e-05,-3.99655,5.45256,0.0108206,0.505884,
2,0,0,1,0,3439.81,0.502143,0.501859,-0.101962,4,1.60063,10,-5.11704e-05,-3.99156,-0.258313,-0.228405,0.501904,
2,0,0,0,0,3440.61,0.498148,0.49789,-0.104025,4,1.60054,10,-5.17929e-05,-3.98286,-1.04365,-0.0565321,0.497935,
2,0,0,1,0,3441.41,0.494152,0.493899,-0.103458,4,1.60044,10,-5.10979e-05,-3.98524,-0.740506,-0.0796753,0.493945,
2,0,0,1,0,3442.21,0.490157,0.489851,-0.105572,4,1.60035,10,-5.17145e-05,-3.97645,-15.1247,-0.00390089,0.489897,
2,0,0,1,0,3443.01,0.486162,0.485852,-0.106041,4,1.60025,10,-5.15203e-05,-3.97453,-0.525579,-0.112257,0.485899,
2,0,0,1,0,3443.81,0.482167,0.481871,-0.107821,4,1.60015,10,-5.19561e-05,-3.96729,-0.661382,-0.0892071,0.481919,
2,0,0,0,0,3444.61,0.478172,0.47789,-0.109254,4,1.60005,10,-5.22114e-05,-3.96156,-0.569229,-0.103649,0.477939,
2,0,0,1,0,3445.41,0.474177,0.473907,-0.111289,4,1.59995,10,-5.27409e-05,-3.95355,1.58373,0.0372537,0.473956,
2,0,0,1,0,3446.21,0.470181,0.469917,-0.112248,4,1.59985,10,-5.27473e-05,-3.94982,-0.248872,-0.23707,0.469966,
2,0,0,1,0,3447.01,0.466186,0.465924,-0.113726,4,1.59974,10,-5.29877e-05,-3.94414,-4.54531,-0.0129804,0.465974,
2,0,0,1,0,3447.81,0.462191,0.461909,-0.114942,4,1.59964,10,-5.30929e-05,-3.93952,-0.529839,-0.111355,0.46196,
2,0,0,0,0,3448.6,0.458196,0.457914,-0.115812,4,1.59953,10,-5.30318e-05,-3.93625,-1.06874,-0.0552053,0.457965,
2,0,0,1,0,3449.4,0.454201,0.453928,-0.118964,4,1.59943,10,-5.4001e-05,-3.92459,-0.613019,-0.096245,0.453981,
2,0,0,1,0,3450.2,0.450205,0.449881,-0.121079,4,1.59932,10,-5.44712e-05,-3.91693,-0.519415,-0.113589,0.449935,
2,0,0,1,0,3451,0.44621,0.445974,-0.121722,4,1.59921,10,-5.42849e-05,-3.91463,-0.937654,-0.062923,0.446028,
2,0,0,1,0,3451.8,0.442215,0.441904,-0.122766,4,1.5991,10,-5.42506e-05,-3.91092,-4.04605,-0.0145821,0.441958,
2,0,0,0,0,3452.6,0.43822,0.437945,-0.124849,4,1.59899,10,-5.46768e-05,-3.90362,-0.407858,-0.144658,0.438,
2,0,0,1,0,3453.4,0.434225,0.433944,-0.127397,4,1.59887,10,-5.52832e-05,-3.89484,-0.365228,-0.161543,0.434,
2,0,0,0,0,3454.2,0.43023,0.429961,-0.129432,4,1.59876,10,-5.56506e-05,-3.88796,-1.33741,-0.0441152,0.430018,
2,0,0,1,0,3455,0.426234,0.425945,-0.13016,4,1.59864,10,-5.54412e-05,-3.88552,-0.447717,-0.13178,0.426002,
2,0,0,1,0,3455.8,0.422239,0.421936,-0.132463,4,1.59852,10,-5.58908e-05,-3.87791,-3.83318,-0.0153919,0.421994,
2,0,0,1,0,3456.59,0.418244,0.417987,-0.134365,4,1.5984,10,-5.61629e-05,-3.87171,-0.434577,-0.135764,0.418046,
2,0,0,1,0,3457.39,0.414249,0.413944,-0.134981,4,1.59828,10,-5.58745e-05,-3.86973,-0.474938,-0.124227,0.414003,
2,0,0,0,0,3458.19,0.410254,0.409944,-0.139047,4,1.59816,10,-5.70016e-05,-3.85684,-2.28907,-0.0257747,0.410005,
2,0,0,1,0,3458.99,0.406259,0.405975,-0.140608,4,1.59804,10,-5.70831e-05,-3.85199,-0.507786,-0.116191,0.406037,
2,0,0,1,0,3459.79,0.402263,0.402016,-0.142934,4,1.59791,10,-5.74617e-05,-3.84486,-0.394955,-0.149384,0.402079,
2,0,0,1,0,3460.59,0.398268,0.397981,-0.144919,4,1.59778,10,-5.76752e-05,-3.83887,-0.60815,-0.0970156,0.398045,
2,0,0,1,0,3461.39,0.394273,0.393995,-0.148184,4,1.59765,10,-5.83837e-05,-3.8292,-0.703757,-0.0838357,0.39406,
2,0,0,0,0,3462.19,0.390278,0.389966,-0.149218,4,1.59752,10,-5.81899e-05,-3.82618,-0.729792,-0.0808449,0.390031,
2,0,0,1,0,3462.99,0.386283,0.385979,-0.150439,4,1.59739,10,-5.80661e-05,-3.82264,-0.939211,-0.0628187,0.386045,
2,0,0,1,0,3463.79,0.382287,0.382008,-0.15387,4,1.59725,10,-5.87795e-05,-3.81285,-0.553566,-0.106582,0.382076,
2,0,0,1,0,3464.59,0.378292,0.377989,-0.156218,4,1.59712,10,-5.90489e-05,-3.80627,-0.684621,-0.0861791,0.378058,
2,0,0,1,0,3465.38,0.374297,0.374013,-0.158607,4,1.59698,10,-5.9321e-05,-3.79968,-0.572213,-0.103109,0.374083,
2,0,0,1,0,3466.18,0.370302,0.370022,-0.160746,4,1.59684,10,-5.94795e-05,-3.79386,-0.596771,-0.0988654,0.370093,
2,0,0,1,0,3466.98,0.366307,0.36603,-0.163638,4,1.59669,10,-5.98963e-05,-3.78612,-0.553589,-0.106577,0.366102,
2,0,0,0,0,3467.78,0.362312,0.362027,-0.164894,4,1.59655,10,-5.96959e-05,-3.7828,-0.83378,-0.070762,0.3621,
2,0,0,1,0,3468.58,0.358316,0.357984,-0.166371,4,1.5964,10,-5.9558e-05,-3.77892,-1.02355,-0.0576423,0.358057,
2,0,0,1,0,3469.38,0.354321,0.354036,-0.169336,4,1.59626,10,-5.99509e-05,-3.77125,-1.19494,-0.049375,0.354111,
2,0,0,1,0,3470.18,0.350327,0.34999,-0.170601,4,1.59611,10,-5.97087e-05,-3.76802,-0.36321,-0.162441,0.350065,
2,0,0,1,0,3470.98,0.346331,0.346015,-0.174276,4,1.59596,10,-6.03023e-05,-3.75876,-21.7855,-0.00270822,0.346092,
2,0,0,0,0,3471.78,0.342336,0.342027,-0.176213,4,1.5958,10,-6.02694e-05,-3.75396,-0.289364,-0.203896,0.342104,
2,0,0,1,0,3472.58,0.338341,0.338061,-0.179656,4,1.59565,10,-6.07346e-05,-3.74556,-1.30544,-0.0451954,0.33814,
2,0,0,1,0,3473.37,0.334345,0.334036,-0.181782,4,1.59549,10,-6.07219e-05,-3.74045,-0.736205,-0.0801407,0.334116,
2,0,0,1,0,3474.17,0.33035,0.330037,-0.184271,4,1.59533,10,-6.08162e-05,-3.73454,-0.54653,-0.107954,0.330118,
2,0,0,1,0,3474.97,0.326355,0.326055,-0.187082,4,1.59517,10,-6.09989e-05,-3.72797,-1.68642,-0.0349854,0.326138,
2,0,0,0,0,3475.77,0.32236,0.322068,-0.188302,4,1.595,10,-6.06459e-05,-3.72515,-0.561376,-0.105099,0.322151,
2,0,0,1,0,3476.57,0.318365,0.318059,-0.191237,4,1.59484,10,-6.08247e-05,-3.71843,-0.57264,-0.103032,0.318143,
2,0,0,0,0,3477.37,0.31437,0.314095,-0.194424,4,1.59467,10,-6.10674e-05,-3.71125,-1.49839,-0.0393756,0.31418,
2,0,0,1,0,3478.17,0.310374,0.31009,-0.19639,4,1.5945,10,-6.08985e-05,-3.70688,-0.379607,-0.155424,0.310177,
2,0,0,1,0,3478.97,0.306379,0.306091,-0.198417,4,1.59433,10,-6.07338e-05,-3.70242,-1.71628,-0.0343766,0.306178,
2,0,0,1,0,3479.77,0.302385,0.302052,-0.202422,4,1.59415,10,-6.11419e-05,-3.69374,-0.540917,-0.109074,0.302141,
2,0,0,1,0,3480.57,0.298389,0.298115,-0.205167,4,1.59398,10,-6.11634e-05,-3.68789,-0.482691,-0.122231,0.298206,
2,0,0,0,0,3481.36,0.294394,0.294095,-0.207636,4,1.5938,10,-6.10647e-05,-3.6827,-0.800902,-0.073667,0.294187,
2,0,0,1,0,3482.16,0.290398,0.290127,-0.210823,4,1.59362,10,-6.11656e-05,-3.67608,-1.53334,-0.0384781,0.29022,
2,0,0,1,0,3482.96,0.286403,0.286108,-0.213473,4,1.59343,10,-6.10763e-05,-3.67066,-0.46661,-0.126444,0.286202,
2,0,0,1,0,3483.76,0.282408,0.282099,-0.215868,4,1.59325,10,-6.08961e-05,-3.66581,-3.22862,-0.018274,0.282194,
2,0,0,1,0,3484.56,0.278413,0.27814,-0.218389,4,1.59306,10,-6.07426e-05,-3.66077,-0.544666,-0.108323,0.278236,
2,0,0,0,0,3485.36,0.274418,0.27414,-0.220343,4,1.59287,10,-6.04048e-05,-3.6569,-1.03297,-0.0571169,0.274237,
2,0,0,1,0,3486.16,0.270423,0.270092,-0.223637,4,1.59268,10,-6.04025e-05,-3.65046,-0.526332,-0.112097,0.270191,
2,0,0,1,0,3486.96,0.266427,0.266127,-0.226461,4,1.59249,10,-6.02673e-05,-3.64501,-0.673506,-0.0876013,0.266227,
2,0,0,1,0,3487.76,0.262432,0.262171,-0.22896,4,1.59229,10,-6.00267e-05,-3.64024,-1.23576,-0.0477438,0.262272,
2,0,0,1,0,3488.56,0.258437,0.258126,-0.232241,4,1.59209,10,-5.99473e-05,-3.63406,-0.641234,-0.0920101,0.258228,
2,0,0,0,0,3489.36,0.254442,0.254165,-0.234047,4,1.59189,10,-5.94866e-05,-3.6307,-1.13203,-0.0521186,0.254268,
2,0,0,1,0,3490.15,0.250447,0.250177,-0.23664,4,1.59169,10,-5.92018e-05,-3.62591,-2.57612,-0.0229026,0.250281,
2,0,0,0,0,3490.95,0.246452,0.246177,-0.239403,4,1.59149,10,-5.89356e-05,-3.62087,-0.548772,-0.107513,0.246282,
2,0,0,1,0,3491.75,0.242456,0.242191,-0.242545,4,1.59128,10,-5.87424e-05,-3.61521,-0.681517,-0.0865716,0.242298,
2,0,0,1,0,3492.55,0.238461,0.238113,-0.243218,4,1.59107,10,-5.79135e-05,-3.614,-1.44529,-0.0408223,0.23822,
2,0,0,1,0,3493.35,0.234466,0.234164,-0.246385,4,1.59086,10,-5.76944e-05,-3.60839,-0.47901,-0.123171,0.234272,
2,0,0,1,0,3494.15,0.230471,0.230178,-0.249135,4,1.59065,10,-5.73456e-05,-3.60356,-4.00696,-0.0147244,0.230288,
2,0,0,0,0,3494.95,0.226476,0.226175,-0.251668,4,1.59044,10,-5.6921e-05,-3.59917,-0.657544,-0.0897278,0.226286,
2,0,0,1,0,3495.75,0.222481,0.222199,-0.254411,4,1.59022,10,-5.65299e-05,-3.59446,-0.803218,-0.0734545,0.222311,
2,0,0,1,0,3496.55,0.218485,0.218179,-0.259589,4,1.59,10,-5.66368e-05,-3.58571,-1.03551,-0.0569766,0.218293,
2,0,0,1,0,3497.35,0.21449,0.21418,-0.262607,4,1.58978,10,-5.62453e-05,-3.58069,-0.420051,-0.140459,0.214296,
2,0,0,1,0,3498.14,0.210496,0.210214,-0.266412,4,1.58955,10,-5.60034e-05,-3.57445,-0.701512,-0.084104,0.210331,
2,0,0,0,0,3498.94,0.2065,0.20618,-0.272055,4,1.58933,10,-5.60923e-05,-3.56534,-0.623012,-0.0947013,0.2063,
2,0,0,1,0,3499.74,0.202505,0.202194,-0.274634,4,1.58909,10,-5.55294e-05,-3.56125,-0.538672,-0.109529,0.202315,
2,0,0,1,0,3500.54,0.198509,0.198176,-0.278561,4,1.58886,10,-5.52041e-05,-3.55508,-0.6417,-0.0919433,0.198299,
2,0,0,1,0,3501.34,0.194514,0.194194,-0.285459,4,1.58862,10,-5.54346e-05,-3.54446,-0.442303,-0.133393,0.19432,
2,0,0,1,0,3502.14,0.190519,0.190217,-0.288735,4,1.58838,10,-5.49224e-05,-3.5395,-0.40149,-0.146953,0.190344,
2,0,0,0,0,3502.94,0.186524,0.186252,-0.296121,4,1.58813,10,-5.51531e-05,-3.52853,-0.443297,-0.133093,0.186382,
2,0,0,1,0,3503.74,0.182529,0.182238,-0.304794,4,1.58787,10,-5.55452e-05,-3.51599,-0.245906,-0.239929,0.182373,
2,0,0,0,0,3504.54,0.178534,0.178188,-0.314838,4,1.58761,10,-5.61003e-05,-3.50191,-0.296306,-0.199118,0.178326,
2,0,0,1,0,3505.34,0.174538,0.174254,-0.327181,4,1.58734,10,-5.70128e-05,-3.48521,-0.224635,-0.262648,0.174398,
2,0,0,1,0,3506.13,0.170543,0.170257,-0.342244,4,1.58706,10,-5.82695e-05,-3.46566,-0.179183,-0.329272,0.170408,
2,0,0,1,0,3506.93,0.166549,0.166202,-0.361446,4,1.58676,10,-6.00731e-05,-3.44196,-0.168046,-0.351095,0.166361,
2,0,0,1,0,3507.73,0.162553,0.162264,-0.385203,4,1.58645,10,-6.25045e-05,-3.41431,-0.135913,-0.434102,0.162433,
2,0,0,0,0,3508.53,0.158558,0.158273,-0.413046,4,1.58612,10,-6.53742e-05,-3.384,-0.10839,-0.544331,0.158455,
2,0,0,1,0,3509.33,0.154563,0.154233,-0.455113,4,1.58576,10,-7.01935e-05,-3.34188,-0.0940789,-0.627133,0.154433,
2,0,0,1,0,3510.13,0.150567,0.150264,-0.507995,4,1.58536,10,-7.63333e-05,-3.29414,-0.0770031,-0.766203,0.150487,
2,0,0,1,0,3510.93,0.146572,0.146263,-0.570448,4,1.58492,10,-8.34356e-05,-3.24378,-0.0741501,-0.795684,0.146514,
2,0,0,1,0,3511.73,0.142578,0.142248,-0.646464,4,1.58442,10,-9.19581e-05,-3.18946,-0.0800857,-0.736711,0.142532,
2,0,0,0,0,3512.53,0.138582,0.138242,-0.71405,4,1.58386,10,-9.87118e-05,-3.14627,-0.0973249,-0.606217,0.138556,
2,0,0,1,0,3513.33,0.134587,0.134277,-0.772441,4,1.58325,10,-0.000103721,-3.11213,-0.150571,-0.391843,0.134617,
2,0,0,1,0,3514.13,0.130591,0.130232,-0.811605,4,1.5826,10,-0.000105697,-3.09066,-0.248949,-0.236996,0.13059,
2,0,0,1,0,3514.92,0.126596,0.126297,-0.829674,4,1.58193,10,-0.000104785,-3.08109,-0.717093,-0.0822767,0.126662,
2,0,0,1,0,3515.72,0.122602,0.1223,-0.836203,4,1.58124,10,-0.000102268,-3.07769,2.17627,0.0271106,0.122668,
2,0,0,1,0,3516.52,0.118607,0.118334,-0.827284,4,1.58056,10,-9.78955e-05,-3.08235,0.942935,0.0625706,0.118698,
2,0,0,1,0,3517.32,0.114611,0.114263,-0.814793,4,1.57989,10,-9.31009e-05,-3.08895,0.418662,0.140925,0.114622,
2,0,0,0,0,3518.12,0.110616,0.110305,-0.79656,4,1.57923,10,-8.78644e-05,-3.09878,0.367748,0.160436,0.110655,
2,0,0,1,0,3518.92,0.10662,0.106267,-0.777,4,1.57859,10,-8.25699e-05,-3.10958,0.367173,0.160687,0.106609,
2,0,0,1,0,3519.72,0.102625,0.102311,-0.755355,4,1.57797,10,-7.72815e-05,-3.12185,0.331948,0.177738,0.102644,
2,0,0,1,0,3520.52,0.0986305,0.0982779,-0.73476,4,1.57736,10,-7.22107e-05,-3.13385,0.310631,0.189936,0.0986012,
2,0,0,1,0,3521.32,0.0946351,0.0943096,-0.710488,4,1.57676,10,-6.70059e-05,-3.14844,0.393234,0.150038,0.0946222,
2,0,0,0,0,3522.12,0.0906399,0.0902631,-0.730299,4,1.57618,10,-6.59191e-05,-3.1365,0.298926,0.197373,0.0905844,
2,0,0,1,0,3522.91,0.0866447,0.0863459,-0.678404,4,1.57561,10,-5.85774e-05,-3.16851,0.495527,0.119065,0.0866444,
2,0,0,1,0,3523.71,0.0826492,0.0823332,-0.666437,4,1.57506,10,-5.48699e-05,-3.17624,0.478749,0.123238,0.0826265,
2,0,0,1,0,3524.51,0.0786544,0.0783558,-0.655244,4,1.57452,10,-5.13421e-05,-3.1836,0.552137,0.106858,0.0786441,
2,0,0,1,0,3525.31,0.0746596,0.0743117,-0.644292,4,1.57399,10,-4.78784e-05,-3.19092,0.720612,0.0818748,0.0745952,
2,0,0,0,0,3526.11,0.0706641,0.0703476,-0.634245,4,1.57346,10,-4.46176e-05,-3.19774,0.613843,0.0961158,0.0706267,
2,0,0,1,0,3526.91,0.0666689,0.0663477,-0.625915,4,1.57294,10,-4.1528e-05,-3.20348,0.470689,0.125348,0.0666231,
2,0,0,0,0,3527.71,0.0626737,0.0623595,-0.610512,4,1.57243,10,-3.80713e-05,-3.21431,0.49272,0.119743,0.0626282,
2,0,0,1,0,3528.51,0.0586783,0.0583553,-0.60159,4,1.57193,10,-3.5106e-05,-3.2207,0.359378,0.164172,0.05862,
2,0,0,1,0,3529.31,0.0546835,0.0543651,-0.588139,4,1.57144,10,-3.19742e-05,-3.23052,0.549996,0.107274,0.0546239,
2,0,0,1,0,3530.11,0.0506886,0.050374,-0.574285,4,1.57096,10,-2.89291e-05,-3.24087,0.364034,0.162073,0.0506267,
2,0,0,1,0,3530.9,0.046693,0.0463803,-0.561523,4,1.57049,10,-2.60436e-05,-3.25063,0.456515,0.12924,0.0466273,
2,0,0,0,0,3531.7,0.0426979,0.0423921,-0.548461,4,1.57003,10,-2.32504e-05,-3.26085,0.376783,0.156589,0.0426334,
2,0,0,1,0,3532.5,0.0387022,0.0383473,-0.535914,4,1.56959,10,-2.05509e-05,-3.2709,0.372546,0.15837,0.0385831,
2,0,0,1,0,3533.3,0.0347074,0.0343934,-0.524336,4,1.56915,10,-1.80337e-05,-3.28039,0.443404,0.133062,0.0346241,
2,0,0,1,0,3534.1,0.0307126,0.0303844,-0.511786,4,1.56872,10,-1.55503e-05,-3.29091,0.484154,0.121862,0.0306096,
2,0,0,1,0,3534.9,0.0267172,0.0264255,-0.503604,4,1.5683,10,-1.3308e-05,-3.29791,0.427809,0.137912,0.0266471,
2,0,0,0,0,3535.7,0.022722,0.0224066,-0.495928,4,1.56788,10,-1.11121e-05,-3.30458,0.94486,0.0624431,0.0226248,
2,0,0,1,0,3536.5,0.0187268,0.0183951,-0.491901,4,1.56747,10,-9.04856e-06,-3.30812,0.864293,0.0682639,0.0186115,
2,0,0,1,0,3537.3,0.0147313,0.0143737,-0.488641,4,1.56707,10,-7.02359e-06,-3.31101,1.93055,0.0305612,0.0145887,
2,0,0,1,0,3538.1,0.0107365,0.0104154,-0.486257,4,1.56666,10,-5.06456e-06,-3.31313,3.85754,0.0152947,0.0106293,
2,0,0,1,0,3538.9,0.00674162,0.006382,-0.485848,4,1.56626,10,-3.10068e-06,-3.3135,-1.82456,-0.0323366,0.00659577,
2,0,0,0,0,3539.69,0.00274612,0.00241159,-0.487583,4,1.56586,10,-1.17585e-06,-3.31195,-1.60736,-0.0367062,0.00262612,
2,0,0,1,0,3540.19,0.000274105,-0.000111784,-0.48878,4,1.5656,10,5.46378e-08,-3.31089, , ,0.000103279,