File: Figure_codes/Fig_3-5/workspace_calculate_alpha_eff/20221101_1-115_003_TrumpetPlot_ParaChange_from10_every3_16_CV_C01_0.csv
mode,ox/red,error,control changes,counter inc.,time/s,control/V,Ewe/V,<I>/mA,cycle number,(Q-Qo)/C,I Range,P/W,log(|I|),Tafel slope mV/dec,alpha_eff,E-IR/V,
2,0,0,0,0,1230.12,2.44065e-05,-0.000344411,-0.0357908,1,0.0000000E+000,10,1.23268e-08,-4.44623, , ,-0.000328663,
2,1,0,0,0,1230.87,0.00379485,0.00349744,0.220028,1,0.000160179,10,7.69535e-07,-3.65752,0.0765192,0.771048,0.00340063,
2,1,0,1,0,1231.67,0.00779002,0.00750896,0.237488,1,0.000359016,10,1.78329e-06,-3.62436,0.131084,0.450091,0.00740446,
2,1,0,0,0,1232.47,0.0117852,0.0114558,0.248382,1,0.00057025,10,2.84541e-06,-3.60488,0.20024,0.294646,0.0113465,
2,1,0,1,0,1233.27,0.0157806,0.0154718,0.261328,1,0.000790316,10,4.04322e-06,-3.58281,0.275856,0.21388,0.0153568,
2,1,0,1,0,1234.07,0.0197754,0.019483,0.270356,1,0.00101826,10,5.26735e-06,-3.56806,0.214749,0.27474,0.0193641,
2,1,0,1,0,1234.87,0.0237704,0.0234749,0.28079,1,0.00125405,10,6.59154e-06,-3.55162,0.262197,0.225022,0.0233514,
2,1,0,1,0,1235.67,0.0277659,0.0274446,0.291777,1,0.00149741,10,8.00771e-06,-3.53495,0.245006,0.24081,0.0273162,
2,1,0,0,0,1236.47,0.0317611,0.0314837,0.301101,1,0.00174969,10,9.47978e-06,-3.52129,0.224684,0.262591,0.0313512,
2,1,0,1,0,1237.26,0.0357567,0.0354331,0.313632,1,0.00201147,10,1.11129e-05,-3.50358,0.277822,0.212366,0.0352951,
2,1,0,1,0,1238.06,0.0397516,0.0393903,0.32583,1,0.00228306,10,1.28346e-05,-3.48701,0.190192,0.310213,0.039247,
2,1,0,1,0,1238.86,0.0437465,0.0434651,0.340403,1,0.00256629,10,1.47956e-05,-3.46801,0.216049,0.273087,0.0433153,
2,1,0,1,0,1239.66,0.0477413,0.0474614,0.357678,1,0.00286151,10,1.69759e-05,-3.44651,0.218036,0.270598,0.047304,
2,1,0,0,0,1240.46,0.0517369,0.0514204,0.374188,1,0.00316962,10,1.92409e-05,-3.42691,0.174988,0.337167,0.0512557,
2,1,0,1,0,1241.26,0.0557321,0.0554022,0.392057,1,0.00349196,10,2.17208e-05,-3.40665,0.237525,0.248395,0.0552297,
2,1,0,1,0,1242.06,0.0597277,0.0594449,0.408663,1,0.00382751,10,2.42929e-05,-3.38864,0.205871,0.286588,0.0592651,
2,1,0,1,0,1242.86,0.0637226,0.0634222,0.424855,1,0.00417645,10,2.69452e-05,-3.37176,0.255885,0.230572,0.0632353,
2,1,0,1,0,1243.66,0.0677174,0.0673803,0.440523,1,0.00453865,10,2.96826e-05,-3.35603,0.327496,0.180155,0.0671865,
2,1,0,0,0,1244.46,0.0717128,0.071408,0.455673,1,0.00491228,10,3.25387e-05,-3.34135,0.254458,0.231865,0.0712075,
2,1,0,1,0,1245.26,0.075708,0.0753686,0.465888,1,0.00529751,10,3.51133e-05,-3.33172,0.346294,0.170376,0.0751636,
2,1,0,0,0,1246.05,0.0797031,0.0794013,0.481602,1,0.00569277,10,3.82398e-05,-3.31731,0.322293,0.183063,0.0791894,
2,1,0,1,0,1246.85,0.0836986,0.0834089,0.492838,1,0.00609812,10,4.11071e-05,-3.3073,0.382105,0.154408,0.083192,
2,1,0,1,0,1247.65,0.0876935,0.0874338,0.506807,1,0.00651358,10,4.43121e-05,-3.29516,0.334272,0.176503,0.0872108,
2,1,0,1,0,1248.45,0.0916883,0.0914101,0.520316,1,0.00693935,10,4.75622e-05,-3.28373,0.325204,0.181425,0.0911812,
2,1,0,1,0,1249.25,0.0956838,0.0954145,0.536499,1,0.00737781,10,5.11898e-05,-3.27043,0.264834,0.222781,0.0951785,
2,1,0,0,0,1250.05,0.099679,0.0993953,0.558451,1,0.00783112,10,5.55074e-05,-3.25301,0.278915,0.211534,0.0991496,
2,1,0,1,0,1250.85,0.103674,0.103362,0.583779,1,0.00830243,10,6.03407e-05,-3.23375,0.155538,0.379328,0.103105,
2,1,0,1,0,1251.65,0.10767,0.107395,0.612003,1,0.00879771,10,6.57263e-05,-3.21325,0.186194,0.316875,0.107126,
2,1,0,1,0,1252.45,0.111664,0.11133,0.646025,1,0.00931747,10,7.19222e-05,-3.18975,0.179443,0.328796,0.111046,
2,1,0,1,0,1253.25,0.115659,0.115333,0.679054,1,0.00986298,10,7.83172e-05,-3.1681,0.183794,0.321011,0.115034,
2,1,0,0,0,1254.04,0.119655,0.119333,0.708776,1,0.0104343,10,8.45804e-05,-3.14949,0.261893,0.225283,0.119021,
2,1,0,1,0,1254.84,0.12365,0.12341,0.736043,1,0.0110272,10,9.08353e-05,-3.1331,0.24786,0.238037,0.123086,
2,1,0,1,0,1255.64,0.127646,0.127313,0.759604,1,0.0116417,10,9.67076e-05,-3.11941,0.274256,0.215127,0.126979,
2,1,0,1,0,1256.44,0.13164,0.131302,0.783353,1,0.0122767,10,0.000102856,-3.10604,0.513,0.11501,0.130957,
2,1,0,1,0,1257.24,0.135635,0.135343,0.797579,1,0.0129256,10,0.000107947,-3.09823,0.602362,0.0979478,0.134992,
2,1,0,0,0,1258.04,0.139631,0.139324,0.793294,1,0.0135805,10,0.000110525,-3.10057,-0.542103,-0.108835,0.138975,
2,1,0,1,0,1258.84,0.143626,0.14334,0.770836,1,0.0142244,10,0.000110491,-3.11304,-0.179072,-0.329477,0.143,
2,1,0,0,0,1259.64,0.147621,0.147324,0.715573,1,0.0148355,10,0.000105421,-3.14535,-0.0995545,-0.59264,0.147009,
2,1,0,1,0,1260.44,0.151617,0.151308,0.643099,1,0.0153954,10,9.7306e-05,-3.19172,-0.0763695,-0.772559,0.151025,
2,1,0,1,0,1261.24,0.155612,0.155306,0.568216,1,0.015894,10,8.82476e-05,-3.24549,-0.0746396,-0.790465,0.155056,
2,1,0,1,0,1262.03,0.159606,0.159322,0.502407,1,0.0163364,10,8.00443e-05,-3.29894,-0.0809618,-0.728739,0.159101,
2,1,0,1,0,1262.83,0.163602,0.163289,0.452349,1,0.0167334,10,7.38636e-05,-3.34453,-0.0921116,-0.640527,0.16309,
2,1,0,0,0,1263.63,0.167597,0.16731,0.413786,1,0.0170948,10,6.92306e-05,-3.38322,-0.125325,-0.470777,0.167128,
2,1,0,1,0,1264.43,0.171592,0.171299,0.385492,1,0.0174307,10,6.60346e-05,-3.41398,-0.142745,-0.413325,0.17113,
2,1,0,1,0,1265.23,0.175588,0.175254,0.366055,1,0.0177468,10,6.41525e-05,-3.43645,-0.210907,-0.279744,0.175093,
2,1,0,1,0,1266.03,0.179582,0.179277,0.349283,1,0.0180487,10,6.26183e-05,-3.45682,-0.249566,-0.23641,0.179123,
2,1,0,1,0,1266.83,0.183577,0.183246,0.338649,1,0.0183403,10,6.20562e-05,-3.47025,-0.257427,-0.229191,0.183097,
2,1,0,0,0,1267.63,0.187573,0.187237,0.328208,1,0.0186227,10,6.14527e-05,-3.48385,-0.426014,-0.138493,0.187093,
2,1,0,1,0,1268.43,0.191568,0.191264,0.321855,1,0.0188985,10,6.15591e-05,-3.49234,-0.468461,-0.125944,0.191122,
2,1,0,0,0,1269.23,0.195563,0.19529,0.315657,1,0.019169,10,6.16447e-05,-3.50078,-0.483788,-0.121954,0.195151,
2,1,0,1,0,1270.03,0.199559,0.199258,0.310987,1,0.0194346,10,6.19667e-05,-3.50726,-0.4659,-0.126636,0.199121,
2,1,0,1,0,1270.82,0.203553,0.203251,0.305676,1,0.0196967,10,6.21291e-05,-3.51474,-0.931612,-0.0633311,0.203117,
2,1,0,1,0,1271.62,0.207548,0.207252,0.302983,1,0.0199556,10,6.27939e-05,-3.51858,-0.869936,-0.0678211,0.207119,
2,1,0,1,0,1272.42,0.211544,0.211264,0.299689,1,0.0202114,10,6.33136e-05,-3.52333,-0.670648,-0.0879746,0.211132,
2,1,0,0,0,1273.22,0.215539,0.215258,0.297136,1,0.0204649,10,6.39611e-05,-3.52704,-0.973883,-0.0605822,0.215128,
2,1,0,1,0,1274.02,0.219535,0.219234,0.293519,1,0.020716,10,6.43494e-05,-3.53236,-0.90129,-0.0654618,0.219105,
2,1,0,1,0,1274.82,0.223529,0.223238,0.290705,1,0.0209652,10,6.48965e-05,-3.53655,-1.41734,-0.0416272,0.22311,
2,1,0,1,0,1275.62,0.227524,0.227223,0.289855,1,0.0212127,10,6.58616e-05,-3.53782,-1.13542,-0.051963,0.227095,
2,1,0,1,0,1276.42,0.23152,0.231213,0.286629,1,0.0214585,10,6.62724e-05,-3.54268,-1.26823,-0.0465214,0.231087,
2,1,0,0,0,1277.22,0.235515,0.235214,0.283765,1,0.021703,10,6.67456e-05,-3.54704,-39.9471,-0.00147695,0.235089,
2,1,0,1,0,1278.02,0.23951,0.2392,0.284083,1,0.021946,10,6.79528e-05,-3.54655,-1.23458,-0.0477897,0.239075,
2,1,0,1,0,1278.81,0.243506,0.243199,0.282,1,0.0221877,10,6.85823e-05,-3.54975,-1.84532,-0.0319728,0.243075,
2,1,0,1,0,1279.61,0.2475,0.247214,0.280993,1,0.0224285,10,6.94654e-05,-3.5513,-1.55808,-0.0378672,0.24709,
2,1,0,1,0,1280.41,0.251495,0.25119,0.280376,1,0.0226679,10,7.04276e-05,-3.55226,-1.14104,-0.0517073,0.251067,
2,1,0,0,0,1281.21,0.255491,0.255186,0.278851,1,0.0229064,10,7.11587e-05,-3.55463,18.1397,0.00325253,0.255063,
2,1,0,1,0,1282.01,0.259486,0.259208,0.277892,1,0.0231444,10,7.20319e-05,-3.55612,-1.38812,-0.0425036,0.259086,
2,1,0,0,0,1282.81,0.263481,0.263186,0.27676,1,0.0233812,10,7.28392e-05,-3.5579,12.1059,0.00487366,0.263064,
2,1,0,1,0,1283.61,0.267476,0.267161,0.273359,1,0.0236172,10,7.30309e-05,-3.56327,-1.63761,-0.0360282,0.267041,
2,1,0,1,0,1284.41,0.271471,0.271214,0.273384,1,0.0238523,10,7.41457e-05,-3.56323,3.26521,0.0180693,0.271094,
2,1,0,1,0,1285.21,0.275466,0.275149,0.273242,1,0.0240866,10,7.51821e-05,-3.56345,-1.04482,-0.0564688,0.275029,
2,1,0,1,0,1286.01,0.279462,0.279183,0.27204,1,0.0243204,10,7.59488e-05,-3.56537,-3.75251,-0.0157228,0.279063,
2,1,0,0,0,1286.8,0.283457,0.283214,0.271705,1,0.0245531,10,7.69507e-05,-3.5659,-1.24331,-0.0474538,0.283094,
2,1,0,1,0,1287.6,0.287452,0.287115,0.27078,1,0.0247852,10,7.7745e-05,-3.56738,-3.15384,-0.0187074,0.286996,
2,1,0,1,0,1288.4,0.291448,0.291129,0.269814,1,0.0250167,10,7.85507e-05,-3.56893,-1.81021,-0.032593,0.29101,
2,1,0,1,0,1289.2,0.295442,0.295154,0.268603,1,0.0252473,10,7.9279e-05,-3.57089,1.89464,0.0311404,0.295036,
2,1,0,1,0,1290,0.299437,0.299135,0.265733,1,0.0254774,10,7.94901e-05,-3.57555,-0.788621,-0.0748141,0.299018,
2,1,0,0,0,1290.8,0.303433,0.303123,0.26734,1,0.0257065,10,8.10369e-05,-3.57294,13.362,0.00441551,0.303005,
2,1,0,1,0,1291.6,0.307428,0.307153,0.265542,1,0.0259349,10,8.15622e-05,-3.57587,-2.30586,-0.0255869,0.307036,
2,1,0,1,0,1292.4,0.311424,0.311122,0.264536,1,0.026163,10,8.23029e-05,-3.57752,-3.2471,-0.0181701,0.311005,
2,1,0,1,0,1293.2,0.315418,0.315133,0.265484,1,0.0263903,10,8.36629e-05,-3.57596,2.23959,0.0263441,0.315016,
2,1,0,1,0,1294,0.319413,0.319109,0.263888,1,0.0266173,10,8.42092e-05,-3.57858,-1.21976,-0.0483701,0.318993,
2,1,0,0,0,1294.8,0.323409,0.323121,0.263531,1,0.0268437,10,8.51525e-05,-3.57917,-2.42549,-0.024325,0.323005,
2,1,0,1,0,1295.59,0.327404,0.327125,0.261906,1,0.0270691,10,8.5676e-05,-3.58185,-1.8651,-0.0316337,0.32701,
2,1,0,0,0,1296.39,0.331399,0.331109,0.261578,1,0.0272936,10,8.6611e-05,-3.5824,-2.67736,-0.0220366,0.330994,
2,1,0,1,0,1297.19,0.335395,0.335131,0.261411,1,0.027518,10,8.76071e-05,-3.58268,-6.25558,-0.00943158,0.335016,
2,1,0,1,0,1297.99,0.339389,0.339077,0.259639,1,0.0277414,10,8.80374e-05,-3.58563,-3.11762,-0.0189247,0.338963,
2,1,0,1,0,1298.79,0.343384,0.343128,0.258461,1,0.0279645,10,8.86854e-05,-3.5876,-3.73495,-0.0157968,0.343015,
2,1,0,1,0,1299.59,0.34738,0.347151,0.259076,1,0.0281865,10,8.99385e-05,-3.58657,-1.87886,-0.031402,0.347037,
2,1,0,0,0,1300.39,0.351375,0.351073,0.25826,1,0.028408,10,9.06683e-05,-3.58794,12.2656,0.00481018,0.35096,
2,1,0,1,0,1301.19,0.35537,0.355074,0.257512,1,0.028629,10,9.14359e-05,-3.5892,-1.76674,-0.0333948,0.354961,
2,1,0,1,0,1301.99,0.359365,0.35904,0.256798,1,0.0288493,10,9.22009e-05,-3.59041,-7.2587,-0.00812817,0.358927,
2,1,0,1,0,1302.79,0.36336,0.363112,0.255256,1,0.0290693,10,9.26864e-05,-3.59302,-2.01441,-0.029289,0.363,
2,1,0,1,0,1303.58,0.367355,0.367087,0.254805,1,0.0292883,10,9.35356e-05,-3.59379,4.9689,0.0118739,0.366975,
2,1,0,0,0,1304.38,0.371351,0.371065,0.253617,1,0.0295069,10,9.41083e-05,-3.59582,-1.29681,-0.0454964,0.370953,
2,1,0,1,0,1305.18,0.375346,0.375067,0.253294,1,0.0297252,10,9.50024e-05,-3.59637,-2.10902,-0.0279751,0.374956,
2,1,0,1,0,1305.98,0.379342,0.379077,0.253261,1,0.0299427,10,9.60054e-05,-3.59643,-30.38,-0.00194207,0.378965,
2,1,0,1,0,1306.78,0.383336,0.383087,0.251935,1,0.03016,10,9.65129e-05,-3.59871,-2.48849,-0.0237092,0.382976,
2,1,0,1,0,1307.58,0.387331,0.387072,0.252394,1,0.0303771,10,9.76948e-05,-3.59792,-4.50717,-0.0130903,0.386961,
2,1,0,0,0,1308.38,0.391327,0.391048,0.251267,1,0.0305938,10,9.82576e-05,-3.59986,1.43508,0.0411128,0.390938,
2,1,0,1,0,1309.18,0.395322,0.395025,0.250509,1,0.0308103,10,9.89573e-05,-3.60118,-2.59941,-0.0226975,0.394915,
2,1,0,0,0,1309.98,0.399317,0.399013,0.250419,1,0.0310264,10,9.99205e-05,-3.60133,-2.9559,-0.0199601,0.398903,
2,1,0,1,0,1310.78,0.403313,0.403046,0.250511,1,0.0312421,10,0.000100967,-3.60117,-4.40036,-0.013408,0.402936,
2,1,0,1,0,1311.58,0.407307,0.407053,0.250619,1,0.0314576,10,0.000102015,-3.60099,2.32436,0.0253833,0.406943,
2,1,0,1,0,1312.37,0.411302,0.410981,0.25213,1,0.0316728,10,0.000103621,-3.59838,-1.99558,-0.0295654,0.41087,
2,1,0,1,0,1313.17,0.415298,0.415003,0.249835,1,0.0318879,10,0.000103682,-3.60235,7.31875,0.00806149,0.414893,
2,1,0,0,0,1313.97,0.419293,0.419006,0.24809,1,0.0321026,10,0.000103951,-3.60539,-0.823868,-0.0716134,0.418897,
2,1,0,1,0,1314.77,0.423288,0.423004,0.249238,1,0.0323167,10,0.000105429,-3.60338,2.01779,0.0292399,0.422894,
2,1,0,1,0,1315.57,0.427283,0.427034,0.248761,1,0.0325308,10,0.000106229,-3.60422,-5.04585,-0.0116928,0.426924,
2,1,0,1,0,1316.37,0.431278,0.430996,0.248744,1,0.0327446,10,0.000107208,-3.60425,3.46851,0.0170102,0.430886,
2,1,0,1,0,1317.17,0.435273,0.434976,0.250168,1,0.0329584,10,0.000108817,-3.60177,-2.03214,-0.0290335,0.434866,
2,1,0,0,0,1317.97,0.439269,0.439002,0.249642,1,0.0331723,10,0.000109593,-3.60268,1.74258,0.0338579,0.438892,
2,1,0,1,0,1318.77,0.443264,0.442991,0.24905,1,0.033386,10,0.000110327,-3.60371,-12.9743,-0.00454745,0.442882,
2,1,0,0,0,1319.57,0.447259,0.446991,0.248868,1,0.0335996,10,0.000111242,-3.60403,-6.77306,-0.00871098,0.446882,
2,1,0,1,0,1320.36,0.451254,0.451,0.249817,1,0.0338134,10,0.000112667,-3.60238,-2.81402,-0.0209665,0.45089,
2,1,0,1,0,1321.16,0.455249,0.454937,0.250242,1,0.0340272,10,0.000113844,-3.60164,2.47565,0.0238321,0.454827,
2,1,0,1,0,1321.96,0.459244,0.459017,0.248302,1,0.0342412,10,0.000113975,-3.60502,8.92183,0.006613,0.458908,
2,1,0,1,0,1322.76,0.46324,0.462976,0.250867,1,0.0344555,10,0.000116145,-3.60056,1.52319,0.0387345,0.462865,
2,1,0,0,0,1323.56,0.467235,0.46694,0.250288,1,0.0346704,10,0.000116869,-3.60156,11.5628,0.00510256,0.466829,
2,1,0,1,0,1324.36,0.471231,0.470951,0.250719,1,0.0348854,10,0.000118076,-3.60081,-4.00571,-0.014729,0.47084,
2,1,0,1,0,1325.16,0.475225,0.474963,0.251404,1,0.0351005,10,0.000119408,-3.59963,2.45654,0.0240175,0.474852,
2,1,0,1,0,1325.96,0.47922,0.478952,0.252085,1,0.0353161,10,0.000120736,-3.59845,-5.59045,-0.0105537,0.478841,
2,1,0,1,0,1326.76,0.483216,0.482929,0.252346,1,0.0355322,10,0.000121865,-3.598,1.19161,0.0495127,0.482818,
2,1,0,0,0,1327.56,0.487211,0.486876,0.252521,1,0.0357488,10,0.000122947,-3.5977,2.30365,0.0256115,0.486765,
2,1,0,1,0,1328.35,0.491206,0.490931,0.253692,1,0.0359658,10,0.000124545,-3.59569,2.57479,0.0229145,0.49082,
2,1,0,1,0,1329.15,0.495201,0.494927,0.255587,1,0.0361834,10,0.000126497,-3.59246,18.7994,0.00313839,0.494815,
2,1,0,1,0,1329.95,0.499196,0.49886,0.255048,1,0.0364017,10,0.000127233,-3.59338,3.47575,0.0169748,0.498748,
2,1,0,1,0,1330.75,0.503191,0.502924,0.25633,1,0.036621,10,0.000128915,-3.5912,2.21259,0.0266656,0.502811,
2,1,0,0,0,1331.55,0.507187,0.506879,0.257442,1,0.036841,10,0.000130492,-3.58932,1.28748,0.0458258,0.506765,
2,1,0,1,0,1332.35,0.511182,0.510909,0.259428,1,0.0370621,10,0.000132544,-3.58598,2.0373,0.0289599,0.510795,
2,1,0,0,0,1333.15,0.515177,0.51493,0.260937,1,0.0372845,10,0.000134364,-3.58346,1.56919,0.037599,0.514816,
2,1,0,1,0,1333.95,0.519172,0.518912,0.262954,1,0.0375078,10,0.00013645,-3.58012,1.26344,0.0466978,0.518796,
2,1,0,1,0,1334.75,0.523167,0.522863,0.263346,1,0.0377325,10,0.000137694,-3.57947,1.01769,0.0579742,0.522747,
2,1,0,1,0,1335.55,0.527162,0.526871,0.266029,1,0.0379587,10,0.000140163,-3.57507,1.21417,0.0485927,0.526754,
2,1,0,1,0,1336.35,0.531158,0.530895,0.268054,1,0.0381866,10,0.000142309,-3.57178,0.86257,0.0684002,0.530777,
2,1,0,0,0,1337.14,0.535153,0.534877,0.271186,1,0.0384164,10,0.000145051,-3.56673,1.19659,0.0493069,0.534757,
2,1,0,1,0,1337.94,0.539148,0.538901,0.273786,1,0.0386481,10,0.000147543,-3.56259,1.02653,0.057475,0.53878,
2,1,0,1,0,1338.74,0.543143,0.542886,0.276521,1,0.0388821,10,0.000150119,-3.55827,0.611525,0.09648,0.542764,
2,1,0,1,0,1339.54,0.547138,0.546836,0.279103,1,0.0391186,10,0.000152624,-3.55423,1.12601,0.0523976,0.546713,
2,1,0,1,0,1340.34,0.551133,0.550867,0.283407,1,0.0393577,10,0.000156119,-3.54759,0.496138,0.118918,0.550743,
2,1,0,0,0,1341.14,0.555129,0.55484,0.286794,1,0.0396002,10,0.000159124,-3.54243,0.75943,0.0776898,0.554714,
2,1,0,1,0,1341.94,0.559124,0.558856,0.292789,1,0.039846,10,0.000163627,-3.53345,0.551183,0.107043,0.558727,
2,1,0,1,0,1342.74,0.56312,0.562827,0.297068,1,0.0400955,10,0.000167198,-3.52714,0.473994,0.124474,0.562697,
2,1,0,1,0,1343.54,0.567114,0.566812,0.30256,1,0.0403496,10,0.000171495,-3.51919,0.499963,0.118009,0.566679,
2,1,0,1,0,1344.34,0.571109,0.570832,0.30852,1,0.0406082,10,0.000176113,-3.51072,0.479742,0.122983,0.570696,
2,1,0,0,0,1345.13,0.575105,0.574835,0.316316,1,0.0408723,10,0.00018183,-3.49988,0.34228,0.172374,0.574696,
2,1,0,1,0,1345.93,0.5791,0.578834,0.326476,1,0.0411425,10,0.000188975,-3.48615,0.356938,0.165295,0.57869,
2,1,0,0,0,1346.73,0.583095,0.582813,0.333508,1,0.0414195,10,0.000194373,-3.47689,0.321904,0.183285,0.582667,
2,1,0,1,0,1347.53,0.58709,0.586793,0.343358,1,0.0417046,10,0.00020148,-3.46425,0.264058,0.223436,0.586642,
2,1,0,1,0,1348.33,0.591085,0.590829,0.356525,1,0.041999,10,0.000210645,-3.44791,0.245493,0.240333,0.590672,
2,1,0,1,0,1349.13,0.59508,0.594785,0.372016,1,0.0423041,10,0.00022127,-3.42944,0.215716,0.273507,0.594621,
2,1,0,1,0,1349.93,0.599076,0.598833,0.388504,1,0.0426219,10,0.000232649,-3.4106,0.195815,0.301305,0.598662,
2,1,0,0,0,1350.73,0.603071,0.602784,0.407335,1,0.0429538,10,0.000245535,-3.39005,0.180415,0.327024,0.602605,
2,1,0,1,0,1351.53,0.607066,0.606821,0.430833,1,0.0433025,10,0.000261438,-3.36569,0.15723,0.375246,0.606631,
2,1,0,1,0,1352.33,0.611061,0.610806,0.456226,1,0.0436707,10,0.000278665,-3.34082,0.157027,0.37573,0.610605,
2,1,0,1,0,1353.12,0.615056,0.614759,0.487438,1,0.0440613,10,0.000299657,-3.31208,0.130393,0.452479,0.614545,
2,1,0,1,0,1353.92,0.619051,0.618758,0.522721,1,0.044479,10,0.000323438,-3.28173,0.124034,0.475677,0.618528,
2,1,0,0,0,1354.72,0.623047,0.622763,0.565244,1,0.0449274,10,0.000352013,-3.24776,0.115341,0.511525,0.622515,
2,1,0,1,0,1355.52,0.627042,0.626806,0.616688,1,0.0454126,10,0.000386544,-3.20993,0.099559,0.592613,0.626535,
2,1,0,1,0,1356.32,0.631037,0.630742,0.675637,1,0.0459426,10,0.000426153,-3.17029,0.0969092,0.608817,0.630445,
2,1,0,1,0,1357.12,0.635032,0.634798,0.746036,1,0.0465235,10,0.000473582,-3.12724,0.0879363,0.67094,0.63447,
2,1,0,1,0,1357.92,0.639027,0.638778,0.829318,1,0.0471665,10,0.00052975,-3.08128,0.0825185,0.714991,0.638413,
2,1,0,1,0,1358.72,0.643022,0.642791,0.929547,1,0.0478824,10,0.000597504,-3.03173,0.0802685,0.735033,0.642382,
2,1,0,1,0,1359.52,0.647018,0.646749,1.04677,1,0.048685,10,0.000676996,-2.98015,0.0715582,0.824503,0.646289,
2,1,0,0,0,1360.32,0.651013,0.650734,1.18577,1,0.0495901,10,0.000771619,-2.926,0.071106,0.829747,0.650212,
2,1,0,1,0,1361.12,0.655008,0.654764,1.35164,1,0.0506171,10,0.000885006,-2.86914,0.06852,0.861063,0.654169,
2,1,0,1,0,1361.91,0.659003,0.65875,1.54717,1,0.0517882,10,0.0010192,-2.81046,0.0663673,0.888992,0.658069,
2,1,0,1,0,1362.71,0.662998,0.662732,1.77481,1,0.0531272,10,0.00117622,-2.75085,0.0634689,0.929589,0.661951,
2,1,0,1,0,1363.51,0.666994,0.66672,2.04105,1,0.0546641,10,0.00136081,-2.69015,0.0637902,0.924906,0.665822,
2,1,0,0,0,1364.31,0.670989,0.670739,2.34942,1,0.0564302,10,0.00157585,-2.62904,0.0626745,0.941372,0.669705,
2,1,0,1,0,1365.11,0.674984,0.674728,2.70195,1,0.0584606,10,0.00182308,-2.56832,0.0634721,0.929542,0.67354,
2,1,0,1,0,1365.91,0.678979,0.67872,3.10628,1,0.0607937,10,0.0021083,-2.50776,0.0633128,0.931882,0.677353,
2,1,0,1,0,1366.71,0.682974,0.682697,3.56178,1,0.0634705,10,0.00243162,-2.44833,0.0646109,0.913159,0.68113,
2,1,0,1,0,1367.51,0.686969,0.686697,4.07611,1,0.0665341,10,0.00279905,-2.38975,0.0645966,0.913361,0.684903,
2,1,0,0,0,1368.31,0.690965,0.690717,4.64502,1,0.0700304,10,0.0032084,-2.33301,0.0670054,0.880526,0.688673,
2,1,0,1,0,1369.11,0.69496,0.694686,5.27166,1,0.0740039,10,0.00366215,-2.27805,0.0692524,0.851956,0.692367,
2,1,0,0,0,1369.9,0.698955,0.698703,5.95043,1,0.078499,10,0.00415758,-2.22545,0.0713395,0.827031,0.696085,
2,1,0,1,0,1370.7,0.70295,0.70266,6.68433,1,0.0835606,10,0.00469681,-2.17494,0.0744653,0.792315,0.699719,
2,1,0,1,0,1371.5,0.706945,0.706644,7.47025,1,0.0892282,10,0.00527881,-2.12667,0.0772575,0.76368,0.703357,
2,1,0,1,0,1372.3,0.71094,0.710661,8.30053,1,0.0955417,10,0.00589886,-2.08089,0.0798875,0.738538,0.707009,
2,1,0,1,0,1373.1,0.714936,0.714663,9.17357,1,0.102537,10,0.00655601,-2.03746,0.0860601,0.685568,0.710627,
2,1,0,0,0,1373.9,0.718931,0.718657,10.0871,1,0.110245,10,0.00724915,-1.99623,0.0884283,0.667207,0.714218,
2,1,0,1,0,1374.7,0.722927,0.72261,11.028,1,0.118696,10,0.00796891,-1.95751,0.096657,0.610406,0.717758,
2,1,0,1,0,1375.5,0.726921,0.726654,12.0079,1,0.127914,10,0.00872562,-1.92053,0.0988134,0.597085,0.72137,
2,1,0,1,0,1376.3,0.730916,0.730682,13.0174,1,0.137925,10,0.0095116,-1.88547,0.103305,0.571125,0.724954,
2,1,0,1,0,1377.1,0.734911,0.734642,14.0658,1,0.14876,10,0.0103333,-1.85184,0.106421,0.554401,0.728453,
2,1,0,0,0,1377.89,0.738907,0.738688,15.1605,1,0.160451,10,0.0111989,-1.81929,0.108007,0.54626,0.732017,
2,1,0,1,0,1378.69,0.742902,0.742665,16.3095,1,0.173038,10,0.0121125,-1.78756,0.111387,0.529683,0.735489,
2,1,0,1,0,1379.49,0.746897,0.746627,17.5223,1,0.186569,10,0.0130826,-1.75641,0.111855,0.527471,0.738918,
2,1,0,1,0,1380.29,0.750892,0.750656,18.7802,1,0.201083,10,0.0140974,-1.7263,0.11558,0.510467,0.742392,
2,1,0,1,0,1381.09,0.754887,0.754632,20.1349,1,0.216644,10,0.0151944,-1.69605,0.112394,0.524939,0.745772,
2,1,0,0,0,1381.89,0.758883,0.758624,21.5392,1,0.233307,10,0.0163401,-1.66677,0.115862,0.509225,0.749146,
2,1,0,1,0,1382.69,0.762878,0.762636,22.9722,1,0.251099,10,0.0175195,-1.6388,0.122288,0.482469,0.752528,
2,1,0,0,0,1383.49,0.766873,0.766648,24.4473,1,0.270064,10,0.0187425,-1.61177,0.126573,0.466135,0.755891,
2,1,0,1,0,1384.29,0.770868,0.770619,25.9724,1,0.290225,10,0.0200148,-1.58549,0.128455,0.459305,0.759191,
2,1,0,1,0,1385.09,0.774863,0.774632,27.5154,1,0.311607,10,0.0213143,-1.56042,0.13436,0.439118,0.762525,
2,1,0,1,0,1385.89,0.778858,0.778621,29.0933,1,0.334245,10,0.0226527,-1.53621,0.140999,0.418444,0.76582,
2,1,0,1,0,1386.68,0.782854,0.782577,30.6594,1,0.358133,10,0.0239933,-1.51344,0.146588,0.40249,0.769087,
2,1,0,0,0,1387.48,0.786849,0.786617,32.2802,1,0.38329,10,0.0253921,-1.49106,0.147864,0.399014,0.772414,
2,1,0,1,0,1388.28,0.790844,0.790607,33.9108,1,0.409749,10,0.0268101,-1.46966,0.152592,0.386653,0.775687,
2,1,0,1,0,1389.08,0.794839,0.794555,35.6561,1,0.437554,10,0.0283307,-1.44787,0.159252,0.370482,0.778866,
2,1,0,1,0,1389.88,0.798834,0.798562,36.8323,1,0.46666,10,0.0294129,-1.43377,0.227309,0.259558,0.782356,
2,1,0,1,0,1390.68,0.802829,0.802567,38.5889,1,0.496827,10,0.0309702,-1.41354,0.175356,0.336458,0.785588,
2,1,0,0,0,1391.48,0.806825,0.806551,40.1892,1,0.528326,10,0.0324147,-1.39589,0.187296,0.31501,0.788867,
2,1,0,1,0,1392.28,0.81082,0.810589,41.8645,1,0.561122,10,0.0339349,-1.37815,0.171011,0.345006,0.792168,
2,1,0,1,0,1393.08,0.814815,0.814561,43.7049,1,0.595333,10,0.0356003,-1.35947,0.190281,0.310068,0.795331,
2,1,0,1,0,1393.88,0.81881,0.818523,45.2688,1,0.630907,10,0.0370536,-1.3442,0.227448,0.259399,0.798604,
2,1,0,1,0,1394.67,0.822805,0.822582,46.877,1,0.667726,10,0.0385602,-1.32904,0.229276,0.257332,0.801956,
2,1,0,0,0,1395.47,0.826801,0.82657,48.3796,1,0.705808,10,0.0399891,-1.31534,0.275174,0.21441,0.805283,
2,1,0,1,0,1396.27,0.830796,0.830583,49.8179,1,0.745019,10,0.0413779,-1.30261,0.230097,0.256414,0.808663,
2,1,0,0,0,1397.07,0.834791,0.834577,51.2558,1,0.785442,10,0.0427769,-1.29026,0.302524,0.195026,0.812025,
2,1,0,1,0,1397.87,0.838786,0.838555,52.5956,1,0.826973,10,0.0441043,-1.27905,0.300865,0.196101,0.815413,
2,1,0,1,0,1398.67,0.842781,0.842529,54.0727,1,0.869611,10,0.0455578,-1.26702,0.301055,0.195978,0.818737,
2,1,0,1,0,1399.47,0.846776,0.846545,55.375,1,0.91335,10,0.0468774,-1.25669,0.435815,0.135378,0.82218,
2,1,0,0,0,1400.17,0.849723,0.849481,55.735,1,0.952339,10,0.0473458,-1.25387,0.0360915,1.63473,0.824958,
2,1,0,1,0,1400.97,0.845728,0.845485,53.5636,1,0.995841,10,0.0452872,-1.27113,0.226736,0.260214,0.821917,
2,1,0,0,0,1401.77,0.841732,0.841482,51.7694,1,1.03782,10,0.043563,-1.28593,0.229491,0.257091,0.818703,
2,1,0,1,0,1402.57,0.837737,0.837465,49.9898,1,1.07846,10,0.0418647,-1.30112,0.226745,0.260205,0.81547,
2,1,0,1,0,1403.36,0.833742,0.833483,48.5028,1,1.11777,10,0.0404262,-1.31423,0.259273,0.22756,0.812142,
2,1,0,1,0,1404.16,0.829747,0.829489,46.9111,1,1.15589,10,0.0389122,-1.32872,0.255581,0.230847,0.808848,
2,1,0,1,0,1404.96,0.825752,0.825499,45.4621,1,1.19284,10,0.0375289,-1.34235,0.217659,0.271066,0.805496,
2,1,0,0,0,1405.76,0.821757,0.821549,43.8728,1,1.22856,10,0.0360436,-1.35781,0.175696,0.335808,0.802245,
2,1,0,1,0,1406.56,0.817761,0.817502,42.0547,1,1.26287,10,0.0343798,-1.37618,0.178285,0.330931,0.798998,
2,1,0,1,0,1407.36,0.813766,0.813523,40.2344,1,1.29574,10,0.0327316,-1.3954,0.160976,0.366515,0.79582,
2,1,0,1,0,1408.16,0.809771,0.809506,38.4336,1,1.32715,10,0.0311122,-1.41529,0.161979,0.364245,0.792595,
2,1,0,1,0,1408.96,0.805776,0.805484,36.7165,1,1.35715,10,0.0295745,-1.43514,0.166569,0.354207,0.789329,
2,1,0,0,0,1409.76,0.801781,0.801538,35.0208,1,1.38582,10,0.0280705,-1.45567,0.150526,0.391958,0.786129,
2,1,0,1,0,1410.56,0.797786,0.797517,33.2842,1,1.41309,10,0.0265447,-1.47776,0.141165,0.417952,0.782872,
2,1,0,1,0,1411.36,0.79379,0.793523,31.53,1,1.43897,10,0.0250198,-1.50128,0.134965,0.437152,0.77965,
2,1,0,1,0,1412.15,0.789795,0.789553,29.7995,1,1.46345,10,0.0235283,-1.52579,0.127971,0.461043,0.776442,
2,1,0,1,0,1412.95,0.7858,0.785542,28.0966,1,1.48657,10,0.0220711,-1.55135,0.126729,0.465562,0.77318,
2,1,0,0,0,1413.75,0.781805,0.781548,26.4576,1,1.50835,10,0.0206779,-1.57745,0.122682,0.480917,0.769907,
2,1,0,1,0,1414.55,0.77781,0.777564,24.8331,1,1.52883,10,0.0193093,-1.60497,0.112912,0.522529,0.766638,
2,1,0,0,0,1415.35,0.773814,0.773578,23.2414,1,1.54801,10,0.017979,-1.63374,0.115869,0.509197,0.763352,
2,1,0,1,0,1416.15,0.769819,0.769568,21.6965,1,1.56595,10,0.0166969,-1.66361,0.108337,0.544596,0.760021,
2,1,0,1,0,1416.95,0.765824,0.765588,20.1883,1,1.58266,10,0.015456,-1.6949,0.10513,0.561213,0.756705,
2,1,0,1,0,1417.75,0.761829,0.76159,18.8074,1,1.5982,10,0.0143235,-1.72567,0.109439,0.539113,0.753314,
2,1,0,1,0,1418.55,0.757834,0.757607,17.4086,1,1.61266,10,0.0131888,-1.75924,0.0955272,0.617625,0.749947,
2,1,0,0,0,1419.35,0.753839,0.753579,16.0498,1,1.626,10,0.0120948,-1.79453,0.0955486,0.617487,0.746517,
2,1,0,1,0,1420.14,0.749843,0.749587,14.7549,1,1.63828,10,0.01106,-1.83106,0.0938026,0.628981,0.743095,
2,1,0,1,0,1420.94,0.745848,0.745564,13.512,1,1.64956,10,0.0100741,-1.86928,0.0882152,0.668819,0.739619,
2,1,0,1,0,1421.74,0.741853,0.741594,12.3267,1,1.65987,10,0.00914144,-1.90915,0.085712,0.688351,0.736171,
2,1,0,1,0,1422.54,0.737858,0.73764,11.2155,1,1.66925,10,0.00827298,-1.95018,0.0833218,0.708098,0.732705,
2,1,0,0,0,1423.34,0.733863,0.733614,10.1728,1,1.67778,10,0.0074629,-1.99256,0.0832218,0.708949,0.729138,
2,1,0,1,0,1424.14,0.729868,0.729623,9.20063,1,1.68549,10,0.006713,-2.03618,0.0820774,0.718834,0.725575,
2,1,0,1,0,1424.94,0.725872,0.725593,8.29089,1,1.69246,10,0.00601581,-2.0814,0.0777495,0.758848,0.721945,
2,1,0,1,0,1425.74,0.721877,0.721581,7.42915,1,1.69872,10,0.00536074,-2.12906,0.0744953,0.791996,0.718313,
2,1,0,1,0,1426.54,0.717882,0.717623,6.63278,1,1.70432,10,0.00475983,-2.1783,0.0727121,0.811419,0.714704,
2,1,0,0,0,1427.34,0.713887,0.713625,5.8987,1,1.70931,10,0.00420946,-2.22924,0.0715376,0.824741,0.71103,
2,1,0,1,0,1428.13,0.709892,0.709618,5.22296,1,1.71373,10,0.00370631,-2.28208,0.0691352,0.853401,0.70732,
2,1,0,0,0,1428.93,0.705897,0.705651,4.60496,1,1.71764,10,0.0032495,-2.33677,0.0666205,0.885613,0.703625,
2,1,0,1,0,1429.73,0.701901,0.70164,4.03789,1,1.72107,10,0.00283315,-2.39385,0.0648761,0.909426,0.699863,
2,1,0,1,0,1430.53,0.697906,0.697682,3.52819,1,1.72408,10,0.00246155,-2.45245,0.0630887,0.935191,0.696129,
2,1,0,1,0,1431.33,0.693911,0.693682,3.06934,1,1.72669,10,0.00212915,-2.51296,0.0620228,0.951264,0.692332,
2,1,0,1,0,1432.13,0.689916,0.689659,2.65235,1,1.72896,10,0.00182922,-2.57637,0.059017,0.999712,0.688492,
2,1,0,0,0,1432.93,0.685921,0.685655,2.27902,1,1.73092,10,0.00156262,-2.64225,0.0564882,1.04447,0.684652,
2,1,0,1,0,1433.73,0.681926,0.681587,1.94603,1,1.73259,10,0.00132639,-2.71085,0.0557186,1.05889,0.680731,
2,1,0,1,0,1434.53,0.67793,0.677684,1.65009,1,1.734,10,0.00111824,-2.78249,0.0535905,1.10094,0.676958,
2,1,0,1,0,1435.33,0.673935,0.673661,1.39469,1,1.7352,10,0.000939551,-2.85552,0.0524235,1.12545,0.673047,
2,1,0,1,0,1436.13,0.66994,0.669716,1.1688,1,1.73621,10,0.000782766,-2.93226,0.0500049,1.17988,0.669202,
2,1,0,0,0,1436.92,0.665945,0.665637,0.97744,1,1.73705,10,0.000650621,-3.00991,0.0496027,1.18945,0.665207,
2,1,0,1,0,1437.72,0.66195,0.661665,0.812661,1,1.73775,10,0.00053771,-3.09009,0.0475907,1.23974,0.661308,
2,1,0,0,0,1438.52,0.657955,0.657682,0.669972,1,1.73833,10,0.000440629,-3.17394,0.0461597,1.27817,0.657388,
2,1,0,1,0,1439.32,0.653959,0.653712,0.54927,1,1.7388,10,0.000359064,-3.26021,0.0453822,1.30007,0.65347,
2,1,0,1,0,1440.12,0.649964,0.649711,0.448265,1,1.73919,10,0.000291243,-3.34847,0.0432532,1.36406,0.649514,
2,1,0,1,0,1440.92,0.645969,0.645716,0.362432,1,1.73949,10,0.000234028,-3.44077,0.0421424,1.40001,0.645557,
2,1,0,1,0,1441.72,0.641974,0.641695,0.290489,1,1.73974,10,0.000186405,-3.53687,0.040109,1.47099,0.641567,
2,1,0,0,0,1442.52,0.637979,0.637717,0.229554,1,1.73993,10,0.00014639,-3.63912,0.0385507,1.53045,0.637616,
2,1,0,1,0,1443.32,0.633983,0.633713,0.178556,1,1.74008,10,0.000113153,-3.74823,0.0364228,1.61986,0.633634,
2,1,0,1,0,1444.12,0.629988,0.629746,0.136248,1,1.74019,10,8.58018e-05,-3.86567,0.0300514,1.9633,0.629686,
2,1,0,1,0,1444.91,0.625993,0.625743,0.100869,1,1.74027,10,6.31183e-05,-3.99624,0.0285439,2.06699,0.625698,
2,1,0,1,0,1445.71,0.621998,0.621709,0.0713334,1,1.74033,10,4.43486e-05,-4.14671,0.0224477,2.62833,0.621678,
2,1,0,0,0,1446.51,0.618003,0.617754,0.0440945,1,1.74036,10,2.72395e-05,-4.35562,0.0158152,3.73059,0.617734,
2,1,0,1,0,1447.31,0.614008,0.613713,0.0242818,1,1.74037,10,1.4902e-05,-4.61472,0.0119673,4.93011,0.613702,
2,1,0,1,0,1448.11,0.610012,0.609735,0.00645527,1,1.74037,10,3.936e-06,-5.19009,0.00419699,14.0577,0.609732,
2,0,0,1,0,1448.91,0.606017,0.605743,-0.00749647,1,1.74035,10,-4.54093e-06,-5.12514,-0.00432705,-13.6352,0.605746,
2,0,0,1,0,1449.71,0.602022,0.601749,-0.0186531,1,1.74033,10,-1.12245e-05,-4.72925,-0.0167128,-3.53023,0.601757,
2,0,0,0,0,1450.51,0.598027,0.597755,-0.0299797,1,1.7403,10,-1.79205e-05,-4.52317,-0.0280421,-2.10398,0.597768,
2,0,0,1,0,1451.31,0.594032,0.593705,-0.0381451,1,1.74025,10,-2.26469e-05,-4.41856,-0.0439907,-1.34119,0.593722,
2,0,0,0,0,1452.11,0.590037,0.589765,-0.0466358,1,1.74021,10,-2.75042e-05,-4.33128,-0.062742,-0.940359,0.589786,
2,0,0,1,0,1452.9,0.586041,0.585738,-0.0525194,1,1.74015,10,-3.07626e-05,-4.27968,-0.085609,-0.68918,0.585761,
2,0,0,1,0,1453.7,0.582046,0.581766,-0.0576708,1,1.74009,10,-3.35509e-05,-4.23904,-0.112284,-0.525452,0.581791,
2,0,0,1,0,1454.5,0.578052,0.577775,-0.0547102,1,1.74003,10,-3.16101e-05,-4.26193,-0.717181,-0.0822665,0.577799,
2,0,0,1,0,1455.3,0.574056,0.573759,-0.0639942,1,1.73997,10,-3.67172e-05,-4.19386,-0.0950807,-0.620526,0.573787,
2,0,0,0,0,1456.1,0.570061,0.569777,-0.0690957,1,1.7399,10,-3.93691e-05,-4.16055,-0.344839,-0.171094,0.569807,
2,0,0,1,0,1456.9,0.566065,0.565786,-0.0712655,1,1.73983,10,-4.0321e-05,-4.14712,-0.145502,-0.405494,0.565817,
2,0,0,1,0,1457.7,0.56207,0.561758,-0.0738061,1,1.73976,10,-4.14612e-05,-4.13191,-0.39563,-0.149129,0.56179,
2,0,0,1,0,1458.5,0.558075,0.557775,-0.0761566,1,1.73968,10,-4.24783e-05,-4.11829,-0.201432,-0.292903,0.557809,
2,0,0,1,0,1459.3,0.55408,0.553794,-0.079768,1,1.73961,10,-4.4175e-05,-4.09817,-0.252709,-0.23347,0.553829,
2,0,0,0,0,1460.1,0.550085,0.549823,-0.080662,1,1.73953,10,-4.43498e-05,-4.09333,-0.497074,-0.118695,0.549859,
2,0,0,1,0,1460.9,0.54609,0.545801,-0.0826261,1,1.73945,10,-4.50974e-05,-4.08288,-0.778778,-0.0757598,0.545837,
2,0,0,1,0,1461.69,0.542094,0.541786,-0.0842519,1,1.73936,10,-4.56465e-05,-4.07442,-0.460861,-0.128021,0.541823,
2,0,0,1,0,1462.49,0.538099,0.537796,-0.0857377,1,1.73928,10,-4.61094e-05,-4.06683,-1.0651,-0.0553938,0.537834,
2,0,0,1,0,1463.29,0.534104,0.533827,-0.087699,1,1.7392,10,-4.68161e-05,-4.05701,-0.437627,-0.134818,0.533866,
2,0,0,0,0,1464.09,0.530109,0.529778,-0.0886919,1,1.73911,10,-4.6987e-05,-4.05212,-0.293065,-0.201321,0.529817,
2,0,0,1,0,1464.89,0.526114,0.525821,-0.0899404,1,1.73902,10,-4.72925e-05,-4.04605,-1.80239,-0.0327343,0.52586,
2,0,0,0,0,1465.69,0.522119,0.521853,-0.0923903,1,1.73894,10,-4.82141e-05,-4.03437,-0.382731,-0.154155,0.521893,
2,0,0,1,0,1466.49,0.518123,0.517828,-0.0927567,1,1.73885,10,-4.8032e-05,-4.03265,-3.60986,-0.0163441,0.517869,
2,0,0,1,0,1467.29,0.514128,0.513837,-0.0947731,1,1.73876,10,-4.86979e-05,-4.02331,-0.454028,-0.129948,0.513879,
2,0,0,1,0,1468.09,0.510133,0.509831,-0.0944408,1,1.73866,10,-4.81489e-05,-4.02484,-0.859401,-0.0686525,0.509873,
2,0,0,1,0,1468.89,0.506138,0.505843,-0.0973873,1,1.73857,10,-4.92627e-05,-4.0115,1.09281,0.0539892,0.505886,
2,0,0,0,0,1469.68,0.502143,0.501846,-0.0983634,1,1.73848,10,-4.93633e-05,-4.00717,-0.257184,-0.229408,0.501889,
2,0,0,1,0,1470.48,0.498148,0.497859,-0.0992692,1,1.73839,10,-4.94221e-05,-4.00319,-0.765422,-0.0770816,0.497903,
2,0,0,1,0,1471.28,0.494152,0.493913,-0.101114,1,1.73829,10,-4.99417e-05,-3.99519,-1.00384,-0.0587746,0.493957,
2,0,0,1,0,1472.08,0.490157,0.489858,-0.101954,1,1.73819,10,-4.99428e-05,-3.9916,-0.48015,-0.122878,0.489903,
2,0,0,1,0,1472.88,0.486162,0.485841,-0.102153,1,1.7381,10,-4.963e-05,-3.99075,-4.34724,-0.0135718,0.485886,
2,0,0,0,0,1473.68,0.482167,0.48191,-0.105336,1,1.738,10,-5.07626e-05,-3.97742,-0.519639,-0.11354,0.481957,
2,0,0,1,0,1474.48,0.478172,0.477867,-0.105485,1,1.7379,10,-5.04078e-05,-3.97681,-0.908422,-0.0649478,0.477914,
2,0,0,0,0,1475.28,0.474177,0.473894,-0.107193,1,1.7378,10,-5.07982e-05,-3.96983,-0.61536,-0.0958789,0.473941,
2,0,0,1,0,1476.08,0.470181,0.469892,-0.109418,1,1.7377,10,-5.14148e-05,-3.96091,-10.1665,-0.00580337,0.46994,
2,0,0,1,0,1476.88,0.466186,0.46588,-0.110594,1,1.73759,10,-5.15235e-05,-3.95627,-0.295582,-0.199606,0.465929,
2,0,0,1,0,1477.67,0.462191,0.461897,-0.111252,1,1.73749,10,-5.13869e-05,-3.95369,-0.693307,-0.0850994,0.461946,
2,0,0,1,0,1478.47,0.458196,0.457878,-0.11341,1,1.73738,10,-5.19281e-05,-3.94535,-1.17875,-0.0500531,0.457928,
2,0,0,0,0,1479.27,0.454201,0.453927,-0.11457,1,1.73728,10,-5.20067e-05,-3.94093,-1.34748,-0.0437855,0.453978,
2,0,0,1,0,1480.07,0.450205,0.449895,-0.117788,1,1.73717,10,-5.29922e-05,-3.9289,-0.377101,-0.156457,0.449947,
2,0,0,1,0,1480.87,0.44621,0.445944,-0.118408,1,1.73706,10,-5.28032e-05,-3.92662,-0.497133,-0.118681,0.445996,
2,0,0,1,0,1481.67,0.442215,0.441896,-0.120376,1,1.73695,10,-5.31936e-05,-3.91946,-2.42067,-0.0243734,0.441949,
2,0,0,1,0,1482.47,0.43822,0.43795,-0.12124,1,1.73684,10,-5.30971e-05,-3.91635,-0.314392,-0.187664,0.438004,
2,0,0,0,0,1483.27,0.434225,0.433939,-0.124464,1,1.73672,10,-5.40099e-05,-3.90496,-0.494807,-0.119238,0.433993,
2,0,0,1,0,1484.07,0.43023,0.429943,-0.12541,1,1.73661,10,-5.39189e-05,-3.90167,-4.67503,-0.0126202,0.429998,
2,0,0,1,0,1484.87,0.426234,0.425967,-0.128424,1,1.73649,10,-5.47042e-05,-3.89136,-0.442622,-0.133297,0.426024,
2,0,0,1,0,1485.67,0.422239,0.42202,-0.128741,1,1.73637,10,-5.43312e-05,-3.89028,-0.547808,-0.107702,0.422076,
2,0,0,1,0,1486.46,0.418244,0.417973,-0.131676,1,1.73625,10,-5.5037e-05,-3.88049,-0.908601,-0.064935,0.418031,
2,0,0,0,0,1487.26,0.414249,0.413981,-0.132503,1,1.73613,10,-5.48537e-05,-3.87777,-0.452189,-0.130476,0.414039,
2,0,0,1,0,1488.06,0.410254,0.409942,-0.135931,1,1.73601,10,-5.57236e-05,-3.86668,2.43212,0.0242586,0.410001,
2,0,0,0,0,1488.86,0.406259,0.406029,-0.137818,1,1.73589,10,-5.59582e-05,-3.86069,-0.304252,-0.193918,0.406089,
2,0,0,1,0,1489.66,0.402263,0.401985,-0.14129,1,1.73576,10,-5.67964e-05,-3.84989,-0.494972,-0.119199,0.402047,
2,0,0,1,0,1490.46,0.398268,0.397981,-0.142514,1,1.73563,10,-5.67181e-05,-3.84614,-0.853564,-0.069122,0.398044,
2,0,0,1,0,1491.26,0.394273,0.393984,-0.144073,1,1.7355,10,-5.67624e-05,-3.84142,-0.447907,-0.131724,0.394048,
2,0,0,1,0,1492.06,0.390278,0.38995,-0.147526,1,1.73537,10,-5.75279e-05,-3.83113,-0.819372,-0.0720064,0.390015,
2,0,0,0,0,1492.86,0.386283,0.385997,-0.148332,1,1.73524,10,-5.72555e-05,-3.82877,-0.762295,-0.0773979,0.386062,
2,0,0,1,0,1493.66,0.382287,0.381971,-0.15032,1,1.7351,10,-5.74178e-05,-3.82298,-0.396211,-0.148911,0.382037,
2,0,0,1,0,1494.45,0.378292,0.377986,-0.153113,1,1.73497,10,-5.78745e-05,-3.81499,-5.65869,-0.0104264,0.378054,
2,0,0,1,0,1495.25,0.374297,0.374016,-0.156298,1,1.73483,10,-5.8458e-05,-3.80605,-0.371511,-0.158811,0.374085,
2,0,0,1,0,1496.05,0.370302,0.370009,-0.157872,1,1.73469,10,-5.84142e-05,-3.80169,-0.793024,-0.0743988,0.370079,
2,0,0,0,0,1496.85,0.366307,0.366004,-0.160081,1,1.73454,10,-5.85901e-05,-3.79566,-0.656277,-0.0899011,0.366074,
2,0,0,1,0,1497.65,0.362312,0.362006,-0.162008,1,1.7344,10,-5.86478e-05,-3.79046,-0.418127,-0.141106,0.362077,
2,0,0,1,0,1498.45,0.358316,0.358011,-0.165489,1,1.73425,10,-5.92469e-05,-3.78123,-2.91567,-0.0202355,0.358084,
2,0,0,1,0,1499.25,0.354321,0.354019,-0.167283,1,1.7341,10,-5.92215e-05,-3.77655,-0.584454,-0.100949,0.354093,
2,0,0,1,0,1500.05,0.350327,0.350059,-0.16906,1,1.73395,10,-5.91809e-05,-3.77196,-0.441006,-0.133785,0.350133,
2,0,0,0,0,1500.85,0.346331,0.346009,-0.173029,1,1.7338,10,-5.98697e-05,-3.76188,-2.55021,-0.0231353,0.346085,
2,0,0,1,0,1501.65,0.342336,0.342061,-0.175291,1,1.73365,10,-5.99602e-05,-3.75624,-0.370869,-0.159086,0.342138,
2,0,0,0,0,1502.44,0.338341,0.338082,-0.176558,1,1.73349,10,-5.96911e-05,-3.75311,-0.665006,-0.088721,0.33816,
2,0,0,1,0,1503.24,0.334345,0.334059,-0.178203,1,1.73333,10,-5.95301e-05,-3.74909,-0.504255,-0.117004,0.334137,
2,0,0,1,0,1504.04,0.33035,0.33009,-0.180487,1,1.73317,10,-5.95769e-05,-3.74355,-2.14736,-0.0274756,0.330169,
2,0,0,1,0,1504.84,0.326355,0.326083,-0.185758,1,1.73301,10,-6.05727e-05,-3.73105,-0.62994,-0.0936597,0.326165,
2,0,0,1,0,1505.64,0.32236,0.32208,-0.186856,1,1.73284,10,-6.01824e-05,-3.72849,-0.698636,-0.0844503,0.322162,
2,0,0,0,0,1506.44,0.318365,0.318096,-0.188399,1,1.73268,10,-5.99288e-05,-3.72492,-0.495222,-0.119139,0.318179,
2,0,0,1,0,1507.24,0.31437,0.314068,-0.192956,1,1.73251,10,-6.06014e-05,-3.71454,-5.99638,-0.00983927,0.314153,
2,0,0,1,0,1508.04,0.310374,0.310104,-0.194114,1,1.73234,10,-6.01955e-05,-3.71194,-0.385502,-0.153047,0.31019,
2,0,0,1,0,1508.84,0.306379,0.306075,-0.197561,1,1.73216,10,-6.04683e-05,-3.7043,-0.772494,-0.076376,0.306162,
2,0,0,1,0,1509.64,0.302385,0.302083,-0.199431,1,1.73199,10,-6.02447e-05,-3.70021,-0.507929,-0.116158,0.302171,
2,0,0,0,0,1510.44,0.298389,0.298082,-0.202458,1,1.73181,10,-6.03489e-05,-3.69367,-0.749109,-0.0787602,0.298171,
2,0,0,1,0,1511.23,0.294394,0.294101,-0.204863,1,1.73163,10,-6.02505e-05,-3.68854,-1.33291,-0.0442642,0.294191,
2,0,0,1,0,1512.03,0.290398,0.290116,-0.207719,1,1.73145,10,-6.02627e-05,-3.68252,-0.675407,-0.0873548,0.290208,
2,0,0,1,0,1512.83,0.286403,0.286116,-0.209475,1,1.73127,10,-5.9934e-05,-3.67887,-0.710706,-0.083016,0.286208,
2,0,0,1,0,1513.63,0.282408,0.282139,-0.212753,1,1.73108,10,-6.00258e-05,-3.67212,-1.06296,-0.0555054,0.282232,
2,0,0,1,0,1514.43,0.278413,0.278136,-0.215759,1,1.73089,10,-6.00102e-05,-3.66603,-0.569872,-0.103532,0.278231,
2,0,0,1,0,1515.23,0.274418,0.274089,-0.219675,1,1.7307,10,-6.02104e-05,-3.65822,-0.593319,-0.0994406,0.274185,
2,0,0,0,0,1516.03,0.270423,0.270105,-0.222584,1,1.73051,10,-6.0121e-05,-3.65251,-0.571032,-0.103322,0.270203,
2,0,0,1,0,1516.83,0.266427,0.266112,-0.22309,1,1.73032,10,-5.93668e-05,-3.65152,-1.55602,-0.0379172,0.26621,
2,0,0,1,0,1517.63,0.262432,0.262175,-0.2281,1,1.73012,10,-5.9802e-05,-3.64188,-1.18675,-0.0497157,0.262275,
2,0,0,1,0,1518.43,0.258437,0.258152,-0.230216,1,1.72992,10,-5.94309e-05,-3.63786,-0.622685,-0.0947509,0.258253,
2,0,0,1,0,1519.22,0.254442,0.254097,-0.231755,1,1.72972,10,-5.88882e-05,-3.63497,-0.711755,-0.0828936,0.254199,
2,0,0,0,0,1520.02,0.250447,0.250149,-0.235355,1,1.72952,10,-5.88738e-05,-3.62828,-1.54425,-0.0382062,0.250253,
2,0,0,1,0,1520.82,0.246452,0.246169,-0.237395,1,1.72931,10,-5.84393e-05,-3.62453,-0.448858,-0.131445,0.246274,
2,0,0,1,0,1521.62,0.242456,0.242161,-0.242067,1,1.7291,10,-5.86191e-05,-3.61606,-2.10441,-0.0280363,0.242267,
2,0,0,1,0,1522.42,0.238461,0.238155,-0.243022,1,1.72889,10,-5.78768e-05,-3.61435,-0.850045,-0.0694081,0.238262,
2,0,0,1,0,1523.22,0.234466,0.23415,-0.245378,1,1.72868,10,-5.74551e-05,-3.61017,-0.631718,-0.0933962,0.234258,
2,0,0,0,0,1524.02,0.230471,0.230152,-0.248146,1,1.72847,10,-5.71113e-05,-3.60529,-0.810597,-0.0727859,0.230261,
2,0,0,1,0,1524.82,0.226476,0.226172,-0.252242,1,1.72825,10,-5.70501e-05,-3.59818,-0.691089,-0.0853725,0.226283,
2,0,0,0,0,1525.62,0.222481,0.222211,-0.254283,1,1.72804,10,-5.65043e-05,-3.59468,-1.05711,-0.0558125,0.222322,
2,0,0,1,0,1526.42,0.218485,0.2182,-0.258097,1,1.72781,10,-5.63167e-05,-3.58822,-1.00096,-0.0589434,0.218313,
2,0,0,1,0,1527.22,0.21449,0.214157,-0.263415,1,1.72759,10,-5.64121e-05,-3.57936,-0.402535,-0.146571,0.214273,
2,0,0,1,0,1528.01,0.210496,0.210189,-0.266148,1,1.72736,10,-5.59414e-05,-3.57488,-0.648426,-0.0909895,0.210306,
2,0,0,1,0,1528.81,0.2065,0.206189,-0.270107,1,1.72713,10,-5.5693e-05,-3.56846,-0.636717,-0.0926629,0.206308,
2,0,0,0,0,1529.61,0.202505,0.202215,-0.273871,1,1.7269,10,-5.5381e-05,-3.56245,-0.563826,-0.104642,0.202336,
2,0,0,1,0,1530.41,0.198509,0.198208,-0.280824,1,1.72666,10,-5.56614e-05,-3.55157,-0.374456,-0.157562,0.198331,
2,0,0,1,0,1531.21,0.194514,0.194195,-0.286779,1,1.72642,10,-5.56913e-05,-3.54245,-0.403388,-0.146261,0.194322,
2,0,0,1,0,1532.01,0.190519,0.190236,-0.292042,1,1.72617,10,-5.55571e-05,-3.53455,-0.398033,-0.148229,0.190365,
2,0,0,1,0,1532.81,0.186524,0.186223,-0.300711,1,1.72592,10,-5.59995e-05,-3.52185,-0.392473,-0.150329,0.186356,
2,0,0,0,0,1533.61,0.182529,0.18226,-0.310498,1,1.72566,10,-5.65912e-05,-3.50794,-0.235585,-0.25044,0.182396,
2,0,0,1,0,1534.41,0.178534,0.17822,-0.321404,1,1.72539,10,-5.72806e-05,-3.49295,-0.234891,-0.251181,0.178361,
2,0,0,1,0,1535.21,0.174538,0.174213,-0.33554,1,1.72511,10,-5.84554e-05,-3.47426,-0.194022,-0.30409,0.174361,
2,0,0,1,0,1536,0.170543,0.170268,-0.353536,1,1.72482,10,-6.01956e-05,-3.45157,-0.147862,-0.39902,0.170423,
2,0,0,1,0,1536.8,0.166549,0.166189,-0.376518,1,1.72451,10,-6.25729e-05,-3.42421,-0.144838,-0.407351,0.166354,
2,0,0,0,0,1537.6,0.162553,0.16223,-0.404352,1,1.72418,10,-6.55979e-05,-3.39324,-0.114834,-0.513786,0.162408,
2,0,0,1,0,1538.4,0.158558,0.158283,-0.441678,1,1.72383,10,-6.991e-05,-3.35489,-0.0951,-0.620399,0.158477,
2,0,0,0,0,1539.2,0.154563,0.154301,-0.492365,1,1.72344,10,-7.59724e-05,-3.30771,-0.0832801,-0.708452,0.154518,
2,0,0,1,0,1540,0.150567,0.150246,-0.555605,1,1.723,10,-8.34773e-05,-3.25523,-0.0682763,-0.864136,0.15049,
2,0,0,1,0,1540.8,0.146572,0.146268,-0.629992,1,1.72251,10,-9.21474e-05,-3.20067,-0.0772371,-0.763882,0.146545,
2,0,0,1,0,1541.6,0.142578,0.142261,-0.709496,1,1.72196,10,-0.000100933,-3.14905,-0.0837133,-0.704786,0.142573,
2,0,0,1,0,1542.4,0.138582,0.138295,-0.77573,1,1.72135,10,-0.00010728,-3.11029,-0.117686,-0.501335,0.138637,
2,0,0,0,0,1543.2,0.134587,0.134236,-0.827938,1,1.72069,10,-0.000111139,-3.082,-0.190982,-0.30893,0.1346,
2,0,0,1,0,1543.99,0.130591,0.130255,-0.859482,1,1.72,10,-0.000111952,-3.06576,-0.378276,-0.155971,0.130633,
2,0,0,1,0,1544.79,0.126596,0.126303,-0.864721,1,1.71929,10,-0.000109217,-3.06312,-2.40385,-0.0245439,0.126683,
2,0,0,1,0,1545.59,0.122602,0.122238,-0.865557,1,1.71858,10,-0.000105804,-3.0627,0.612777,0.0962829,0.122619,
2,0,0,1,0,1546.39,0.118607,0.118275,-0.848824,1,1.71788,10,-0.000100395,-3.07118,0.525747,0.112221,0.118648,
2,0,0,0,0,1547.19,0.114611,0.114267,-0.829943,1,1.71719,10,-9.48355e-05,-3.08095,0.310247,0.190171,0.114633,
2,0,0,1,0,1547.99,0.110616,0.110272,-0.806126,1,1.71652,10,-8.8893e-05,-3.0936,0.337267,0.174936,0.110627,
2,0,0,1,0,1548.79,0.10662,0.106302,-0.780969,1,1.71587,10,-8.30183e-05,-3.10737,0.301637,0.195599,0.106645,
2,0,0,1,0,1549.59,0.102625,0.102287,-0.754912,1,1.71524,10,-7.72177e-05,-3.1221,0.230752,0.255686,0.102619,
2,0,0,1,0,1550.39,0.0986305,0.0983224,-0.731819,1,1.71462,10,-7.19542e-05,-3.1356,0.320699,0.183973,0.0986444,
2,0,0,0,0,1551.19,0.0946351,0.0943732,-0.701925,1,1.71403,10,-6.62429e-05,-3.15371,0.354671,0.166351,0.0946821,
2,0,0,1,0,1551.99,0.0906399,0.0903023,-0.691912,1,1.71346,10,-6.24813e-05,-3.15995,0.337998,0.174557,0.0906068,
2,0,0,0,0,1552.78,0.0866447,0.0863247,-0.677793,1,1.7129,10,-5.85103e-05,-3.1689,0.555015,0.106303,0.086623,
2,0,0,1,0,1553.58,0.0826492,0.0823935,-0.666591,1,1.71234,10,-5.49228e-05,-3.17614,0.526372,0.112088,0.0826868,
2,0,0,1,0,1554.38,0.0786544,0.0783272,-0.654786,1,1.7118,10,-5.12876e-05,-3.1839,0.58038,0.101657,0.0786153,
2,0,0,1,0,1555.18,0.0746596,0.0743902,-0.643987,1,1.71127,10,-4.79063e-05,-3.19112,0.5946,0.0992264,0.0746735,
2,0,0,1,0,1555.98,0.0706641,0.0703709,-0.632097,1,1.71074,10,-4.44813e-05,-3.19922,0.418558,0.14096,0.070649,
2,0,0,0,0,1556.78,0.0666689,0.0663732,-0.62088,1,1.71023,10,-4.12098e-05,-3.20699,0.540121,0.109235,0.0666464,
2,0,0,1,0,1557.58,0.0626737,0.0623892,-0.605158,1,1.70972,10,-3.77553e-05,-3.21813,0.452744,0.130317,0.0626555,
2,0,0,1,0,1558.38,0.0586783,0.0583904,-0.593951,1,1.70922,10,-3.46811e-05,-3.22625,0.338155,0.174476,0.0586517,
2,0,0,1,0,1559.18,0.0546835,0.0544002,-0.57867,1,1.70874,10,-3.14798e-05,-3.23757,0.409288,0.144153,0.0546548,
2,0,0,1,0,1559.98,0.0506886,0.0503998,-0.565203,1,1.70826,10,-2.84861e-05,-3.2478,0.331491,0.177984,0.0506485,
2,0,0,0,0,1560.77,0.046693,0.0464153,-0.54999,1,1.7078,10,-2.55279e-05,-3.25964,0.379591,0.15543,0.0466573,
2,0,0,1,0,1561.57,0.0426979,0.0424218,-0.535809,1,1.70735,10,-2.273e-05,-3.27099,0.378626,0.155827,0.0426575,
2,0,0,1,0,1562.37,0.0387022,0.0384002,-0.524634,1,1.70691,10,-2.01461e-05,-3.28014,0.342823,0.1721,0.0386311,
2,0,0,1,0,1563.17,0.0347074,0.0343869,-0.512685,1,1.70648,10,-1.76296e-05,-3.29015,0.434782,0.1357,0.0346125,
2,0,0,1,0,1563.97,0.0307126,0.0303863,-0.501282,1,1.70606,10,-1.52321e-05,-3.29992,0.672303,0.087758,0.0306068,
2,0,0,0,0,1564.77,0.0267172,0.0263747,-0.49417,1,1.70565,10,-1.30336e-05,-3.30612,0.440204,0.134029,0.0265921,
2,0,0,1,0,1565.57,0.022722,0.0224427,-0.487622,1,1.70524,10,-1.09435e-05,-3.31192,2.56726,0.0229817,0.0226572,
2,0,0,0,0,1566.37,0.0187268,0.0184301,-0.485836,1,1.70484,10,-8.95401e-06,-3.31351,1.09939,0.0536659,0.0186439,
2,0,0,1,0,1567.17,0.0147313,0.0144288,-0.48359,1,1.70443,10,-6.9776e-06,-3.31552,6.801,0.0086752,0.0146415,
2,0,0,1,0,1567.97,0.0107365,0.0104504,-0.482386,1,1.70403,10,-5.04114e-06,-3.31661,-2.01213,-0.0293222,0.0106627,
2,0,0,1,0,1568.76,0.00674162,0.00643184,-0.484883,1,1.70363,10,-3.11869e-06,-3.31436,-8.68471,-0.00679355,0.00664519,
2,0,0,1,0,1569.56,0.00274612,0.00241795,-0.486428,1,1.70323,10,-1.17616e-06,-3.31298,-1.26108,-0.0467854,0.00263198,
2,0,0,0,0,1570.06,0.000274105,-8.7925e-05,-0.490265,1,1.70298,10,4.31066e-08,-3.30957, , ,0.000127792,