File: Figure_codes/Fig_3-5/workspace_calculate_alpha_eff/20221101_1-115_003_TrumpetPlot_ParaChange_from10_every3_16_CV_C01_96.csv
mode,ox/red,error,control changes,counter inc.,time/s,control/V,Ewe/V,<I>/mA,cycle number,(Q-Qo)/C,I Range,P/W,log(|I|),Tafel slope mV/dec,alpha_eff,E-IR/V,
2,0,0,1,0,64274.3,2.44065e-05,-0.000363498,-0.0376989,97,0.0000000E+000,10,1.37035e-08,-4.42367, , ,-0.000346911,
2,1,0,1,0,64275,0.00379485,0.00345715,0.197272,97,0.000125169,10,6.81999e-07,-3.70493,0.0414741,1.42257,0.00337035,
2,1,0,0,0,64275.8,0.00779002,0.00743579,0.220038,97,0.00030264,10,1.63616e-06,-3.6575,0.0977957,0.603298,0.00733897,
2,1,0,1,0,64276.6,0.0117852,0.0114409,0.234621,97,0.000495195,10,2.68429e-06,-3.62963,0.154594,0.381646,0.0113377,
2,1,0,1,0,64277.4,0.0157806,0.0154453,0.248314,97,0.000699029,10,3.83527e-06,-3.605,0.16177,0.364716,0.015336,
2,1,0,1,0,64278.2,0.0197754,0.0194776,0.261897,97,0.00091348,10,5.10113e-06,-3.58187,0.206944,0.285101,0.0193624,
2,1,0,1,0,64279,0.0237704,0.0234431,0.275761,97,0.00113857,10,6.46469e-06,-3.55947,0.191276,0.308455,0.0233218,
2,1,0,0,0,64279.8,0.0277659,0.0274054,0.289101,97,0.00137386,10,7.92291e-06,-3.53895,0.189052,0.312083,0.0272782,
2,1,0,1,0,64280.6,0.0317611,0.0314031,0.301065,97,0.00161986,10,9.45436e-06,-3.52134,0.232455,0.253813,0.0312706,
2,1,0,1,0,64281.4,0.0357567,0.0354321,0.314554,97,0.00187635,10,1.11453e-05,-3.5023,0.239105,0.246753,0.0352937,
2,1,0,1,0,64282.2,0.0397516,0.0393606,0.32754,97,0.00214295,10,1.28922e-05,-3.48474,0.196628,0.300059,0.0392165,
2,1,0,1,0,64283,0.0437465,0.0434333,0.33892,97,0.0024203,10,1.47204e-05,-3.4699,0.279694,0.210945,0.0432841,
2,1,0,1,0,64283.8,0.0477413,0.0474349,0.352112,97,0.00270677,10,1.67024e-05,-3.45332,0.262417,0.224833,0.04728,
2,1,0,1,0,64284.6,0.0517369,0.051396,0.363007,97,0.00300267,10,1.86571e-05,-3.44009,0.273612,0.215634,0.0512363,
2,1,0,0,0,64285.4,0.0557321,0.0553715,0.374578,97,0.00330819,10,2.07409e-05,-3.42646,0.415388,0.142036,0.0552067,
2,1,0,1,0,64286.2,0.0597277,0.0594015,0.384725,97,0.00362158,10,2.28532e-05,-3.41485,0.334051,0.17662,0.0592322,
2,1,0,1,0,64287,0.0637226,0.0633883,0.392424,97,0.00394286,10,2.48751e-05,-3.40624,0.394474,0.149566,0.0632156,
2,1,0,1,0,64287.8,0.0677174,0.0674058,0.402265,97,0.00427184,10,2.7115e-05,-3.39549,0.57481,0.102643,0.0672288,
2,1,0,1,0,64288.6,0.0717128,0.0713804,0.409719,97,0.00460698,10,2.92459e-05,-3.38751,0.384829,0.153315,0.0712001,
2,1,0,0,0,64289.4,0.075708,0.0753941,0.417513,97,0.00494843,10,3.1478e-05,-3.37933,0.625104,0.0943842,0.0752104,
2,1,0,1,0,64290.2,0.0797031,0.0794003,0.425599,97,0.00529516,10,3.37927e-05,-3.371,0.525357,0.112305,0.079213,
2,1,0,1,0,64291,0.0836986,0.0833907,0.431166,97,0.00564772,10,3.59552e-05,-3.36536,0.478042,0.12342,0.083201,
2,1,0,1,0,64291.8,0.0876935,0.0873522,0.441088,97,0.00600701,10,3.853e-05,-3.35548,0.371303,0.1589,0.0871582,
2,1,0,1,0,64292.6,0.0916883,0.0913455,0.453661,97,0.00637448,10,4.14399e-05,-3.34327,0.299749,0.196831,0.0911458,
2,1,0,0,0,64293.4,0.0956838,0.0953636,0.467661,97,0.00675339,10,4.45978e-05,-3.33007,0.261932,0.225249,0.0951579,
2,1,0,1,0,64294.2,0.099679,0.0993105,0.487391,97,0.0071461,10,4.8403e-05,-3.31212,0.258325,0.228395,0.099096,
2,1,0,0,0,64295,0.103674,0.103346,0.507754,97,0.00755419,10,5.24745e-05,-3.29435,0.181074,0.325834,0.103123,
2,1,0,1,0,64295.8,0.10767,0.107344,0.527536,97,0.00797959,10,5.6628e-05,-3.27775,0.289659,0.203688,0.107112,
2,1,0,1,0,64296.6,0.111664,0.111334,0.545259,97,0.00841938,10,6.0706e-05,-3.2634,0.324921,0.181582,0.111094,
2,1,0,1,0,64297.4,0.115659,0.115272,0.559681,97,0.0088715,10,6.45157e-05,-3.25206,0.356013,0.165724,0.115026,
2,1,0,1,0,64298.2,0.119655,0.119339,0.569826,97,0.00933411,10,6.80027e-05,-3.24426,0.931534,0.0633364,0.119089,
2,1,0,0,0,64299,0.12365,0.123304,0.577582,97,0.00980294,10,7.12184e-05,-3.23839,0.697976,0.0845301,0.12305,
2,1,0,1,0,64299.8,0.127646,0.127299,0.581121,97,0.0102772,10,7.39763e-05,-3.23573,2.19079,0.0269309,0.127044,
2,1,0,1,0,64300.6,0.131641,0.131293,0.581366,97,0.0107537,10,7.63296e-05,-3.23555,-0.606659,-0.097254,0.131038,
2,1,0,1,0,64301.4,0.135635,0.135336,0.566924,97,0.0112238,10,7.67255e-05,-3.24647,-0.261385,-0.22572,0.135087,
2,1,0,1,0,64302.2,0.139631,0.139328,0.53427,97,0.0116765,10,7.44389e-05,-3.27224,-0.12435,-0.474467,0.139093,
2,1,0,0,0,64303,0.143626,0.14334,0.490581,97,0.0120979,10,7.03198e-05,-3.30929,-0.0887058,-0.66512,0.143124,
2,1,0,1,0,64303.8,0.147621,0.147313,0.436775,97,0.0124782,10,6.43426e-05,-3.35974,-0.0788101,-0.748635,0.147121,
2,1,0,1,0,64304.6,0.151617,0.151289,0.391104,97,0.0128186,10,5.91697e-05,-3.40771,-0.091893,-0.642051,0.151117,
2,1,0,1,0,64305.4,0.155612,0.155275,0.360235,97,0.0131273,10,5.59355e-05,-3.44341,-0.132628,-0.444855,0.155116,
2,1,0,1,0,64306.2,0.159606,0.159285,0.338286,97,0.0134158,10,5.38838e-05,-3.47072,-0.189949,-0.310609,0.159136,
2,1,0,0,0,64307,0.163602,0.163272,0.325207,97,0.0136909,10,5.30973e-05,-3.48784,-0.246107,-0.239733,0.163129,
2,1,0,1,0,64307.8,0.167597,0.167279,0.31679,97,0.0139569,10,5.29924e-05,-3.49923,-0.483968,-0.121909,0.16714,
2,1,0,0,0,64308.6,0.171592,0.17124,0.309429,97,0.0142173,10,5.29866e-05,-3.50944,-0.538221,-0.10962,0.171104,
2,1,0,1,0,64309.4,0.175588,0.175261,0.304991,97,0.014473,10,5.34531e-05,-3.51571,-0.646232,-0.0912985,0.175127,
2,1,0,1,0,64310.2,0.179582,0.179287,0.302466,97,0.0147255,10,5.42282e-05,-3.51932,-0.929036,-0.0635067,0.179154,
2,1,0,1,0,64311,0.183577,0.183251,0.299565,97,0.0149761,10,5.48955e-05,-3.52351,-2.04661,-0.0288282,0.183119,
2,1,0,1,0,64311.8,0.187573,0.187232,0.29846,97,0.0152245,10,5.58813e-05,-3.52511,-1.23479,-0.0477813,0.187101,
2,1,0,0,0,64312.6,0.191568,0.191232,0.295448,97,0.0154714,10,5.6499e-05,-3.52952,-1.31509,-0.0448638,0.191102,
2,1,0,1,0,64313.4,0.195563,0.195215,0.294468,97,0.0157171,10,5.74845e-05,-3.53096,-0.906657,-0.0650742,0.195085,
2,1,0,1,0,64314.2,0.199559,0.199236,0.294075,97,0.0159614,10,5.85904e-05,-3.53154,2.12062,0.027822,0.199107,
2,1,0,1,0,64315,0.203553,0.203233,0.29197,97,0.0162051,10,5.93381e-05,-3.53466,-2.18525,-0.0269992,0.203105,
2,1,0,1,0,64315.8,0.207548,0.207239,0.292059,97,0.0164481,10,6.05262e-05,-3.53453,-3.7371,-0.0157876,0.207111,
2,1,0,0,0,64316.6,0.211544,0.211235,0.289935,97,0.0166899,10,6.12446e-05,-3.5377,-3.63102,-0.0162489,0.211108,
2,1,0,1,0,64317.4,0.215539,0.215186,0.288896,97,0.016931,10,6.21665e-05,-3.53926,-1.35903,-0.0434134,0.215059,
2,1,0,1,0,64318.2,0.219535,0.219212,0.289352,97,0.0171712,10,6.34295e-05,-3.53857,4.79332,0.0123088,0.219085,
2,1,0,1,0,64319,0.223529,0.223198,0.28706,97,0.0174109,10,6.40711e-05,-3.54203,-1.38081,-0.0427286,0.223072,
2,1,0,1,0,64319.8,0.227524,0.227208,0.287067,97,0.0176498,10,6.52239e-05,-3.54202,-1.17486,-0.0502189,0.227082,
2,1,0,0,0,64320.6,0.23152,0.231236,0.2862,97,0.0178877,10,6.61797e-05,-3.54333,8.42699,0.00700131,0.23111,
2,1,0,1,0,64321.4,0.235515,0.23524,0.283899,97,0.0181252,10,6.67843e-05,-3.54684,-2.56167,-0.0230319,0.235115,
2,1,0,0,0,64322.2,0.23951,0.239208,0.284834,97,0.0183619,10,6.81345e-05,-3.54541,-4.31938,-0.0136594,0.239082,
2,1,0,1,0,64323,0.243506,0.243188,0.28306,97,0.018598,10,6.88368e-05,-3.54812,-5.76629,-0.0102319,0.243063,
2,1,0,1,0,64323.8,0.2475,0.247176,0.282341,97,0.0188337,10,6.97878e-05,-3.54923,-2.06465,-0.0285763,0.247051,
2,1,0,1,0,64324.6,0.251495,0.251193,0.28212,97,0.0190684,10,7.08666e-05,-3.54957,-2.4275,-0.0243048,0.251069,
2,1,0,1,0,64325.4,0.255491,0.25518,0.281258,97,0.0193024,10,7.17712e-05,-3.5509,-6.68391,-0.00882716,0.255056,
2,1,0,0,0,64326.2,0.259486,0.259175,0.280201,97,0.0195362,10,7.26211e-05,-3.55253,-1.58087,-0.0373211,0.259052,
2,1,0,1,0,64327,0.263481,0.263149,0.278654,97,0.0197689,10,7.33274e-05,-3.55493,2.39595,0.0246249,0.263026,
2,1,0,1,0,64327.8,0.267477,0.267142,0.27802,97,0.0200013,10,7.42709e-05,-3.55592,-2.15394,-0.0273917,0.26702,
2,1,0,1,0,64328.6,0.271471,0.271128,0.278438,97,0.0202329,10,7.54925e-05,-3.55527,115.485,0.000510887,0.271006,
2,1,0,1,0,64329.4,0.275466,0.275146,0.277844,97,0.0204638,10,7.64475e-05,-3.5562,-3.9173,-0.0150614,0.275023,
2,1,0,0,0,64330.2,0.279462,0.279138,0.277106,97,0.0206944,10,7.73509e-05,-3.55735,-1.63433,-0.0361004,0.279017,
2,1,0,1,0,64331,0.283457,0.283137,0.276532,97,0.0209243,10,7.82964e-05,-3.55826,-2.02653,-0.0291138,0.283016,
2,1,0,0,0,64331.8,0.287452,0.287149,0.276125,97,0.0211535,10,7.92888e-05,-3.5589,-2.9604,-0.0199298,0.287027,
2,1,0,1,0,64332.6,0.291448,0.291118,0.274079,97,0.0213821,10,7.97892e-05,-3.56213,-2.48875,-0.0237067,0.290997,
2,1,0,1,0,64333.4,0.295442,0.295122,0.27337,97,0.0216097,10,8.06774e-05,-3.56325,-6.49302,-0.00908669,0.295002,
2,1,0,1,0,64334.2,0.299437,0.299145,0.271526,97,0.0218371,10,8.12256e-05,-3.56619,-4.09597,-0.0144044,0.299025,
2,1,0,1,0,64335,0.303433,0.303117,0.272309,97,0.0220635,10,8.25416e-05,-3.56494,-3.62599,-0.0162714,0.302998,
2,1,0,0,0,64335.8,0.307428,0.307062,0.271227,97,0.022289,10,8.32835e-05,-3.56667,-4.01713,-0.0146871,0.306943,
2,1,0,1,0,64336.6,0.311424,0.311138,0.270127,97,0.022514,10,8.40467e-05,-3.56843,-1.61637,-0.0365015,0.311019,
2,1,0,1,0,64337.4,0.315418,0.315097,0.269022,97,0.022738,10,8.4768e-05,-3.57021,-2.80967,-0.0209989,0.314978,
2,1,0,1,0,64338.2,0.319413,0.319082,0.268196,97,0.0229614,10,8.55763e-05,-3.57155,-5.92757,-0.0099535,0.318964,
2,1,0,1,0,64339,0.323409,0.323112,0.268493,97,0.0231844,10,8.67534e-05,-3.57107,-1.11954,-0.0527004,0.322994,
2,1,0,0,0,64339.8,0.327404,0.327104,0.266653,97,0.0234067,10,8.72231e-05,-3.57405,2.10364,0.0280467,0.326986,
2,1,0,1,0,64340.6,0.331399,0.331085,0.266467,97,0.0236285,10,8.8223e-05,-3.57436,-6.75687,-0.00873185,0.330967,
2,1,0,1,0,64341.4,0.335395,0.335123,0.266457,97,0.0238498,10,8.92957e-05,-3.57437,-2.45613,-0.0240215,0.335005,
2,1,0,1,0,64342.2,0.339389,0.339046,0.265974,97,0.0240706,10,9.01775e-05,-3.57516,-8.53564,-0.00691219,0.338929,
2,1,0,1,0,64343,0.343384,0.343053,0.265097,97,0.0242912,10,9.09424e-05,-3.57659,-2.9661,-0.0198915,0.342936,
2,1,0,0,0,64343.8,0.34738,0.347061,0.265139,97,0.024511,10,9.20193e-05,-3.57653,-2.07954,-0.0283716,0.346944,
2,1,0,1,0,64344.6,0.351375,0.351057,0.264749,97,0.0247304,10,9.2942e-05,-3.57717,6.14339,0.00960382,0.350941,
2,1,0,0,0,64345.4,0.35537,0.355113,0.264159,97,0.0249495,10,9.38065e-05,-3.57813,-1.58627,-0.0371942,0.354997,
2,1,0,1,0,64346.2,0.359366,0.359019,0.262996,97,0.0251681,10,9.44206e-05,-3.58005,1.37377,0.0429475,0.358903,
2,1,0,1,0,64347,0.36336,0.363061,0.261701,97,0.0253863,10,9.50135e-05,-3.58219,-2.17309,-0.0271503,0.362946,
2,1,0,1,0,64347.8,0.367355,0.367036,0.262205,97,0.0256037,10,9.62389e-05,-3.58136,-9.07622,-0.0065005,0.366921,
2,1,0,1,0,64348.6,0.371351,0.371023,0.262189,97,0.0258208,10,9.72779e-05,-3.58139,-2.78491,-0.0211856,0.370907,
2,1,0,0,0,64349.4,0.375346,0.375053,0.261037,97,0.0260378,10,9.79029e-05,-3.5833,-2.17422,-0.0271362,0.374938,
2,1,0,1,0,64350.2,0.379342,0.379038,0.260608,97,0.026254,10,9.87801e-05,-3.58401,12.3434,0.00477989,0.378923,
2,1,0,1,0,64351,0.383336,0.38304,0.259229,97,0.0264699,10,9.92951e-05,-3.58632,-2.28108,-0.025865,0.382926,
2,1,0,1,0,64351.8,0.387331,0.386992,0.260235,97,0.0266854,10,0.000100709,-3.58464,-3.75665,-0.0157055,0.386878,
2,1,0,1,0,64352.6,0.391327,0.391009,0.259335,97,0.0269005,10,0.000101402,-3.58614,4.164,0.0141691,0.390895,
2,1,0,0,0,64353.4,0.395322,0.394994,0.258975,97,0.0271153,10,0.000102293,-3.58674,-2.16185,-0.0272914,0.39488,
2,1,0,1,0,64354.1,0.399317,0.398994,0.258147,97,0.0273296,10,0.000102999,-3.58813,-7.94168,-0.00742916,0.39888,
2,1,0,1,0,64354.9,0.403313,0.402967,0.258697,97,0.0275435,10,0.000104247,-3.58721,-5.55622,-0.0106187,0.402853,
2,1,0,1,0,64355.7,0.407307,0.406979,0.258472,97,0.0277574,10,0.000105193,-3.58759,7.36443,0.00801149,0.406865,
2,1,0,1,0,64356.5,0.411302,0.411013,0.258904,97,0.0279708,10,0.000106413,-3.58686,-8.18934,-0.00720448,0.410899,
2,1,0,0,0,64357.3,0.415298,0.415001,0.257345,97,0.028184,10,0.000106798,-3.58948,-1.39295,-0.0423562,0.414888,
2,1,0,1,0,64358.1,0.419293,0.418966,0.256422,97,0.0283966,10,0.000107432,-3.59105,-4.17619,-0.0141277,0.418853,
2,1,0,0,0,64358.9,0.423288,0.422986,0.256809,97,0.0286087,10,0.000108626,-3.59039,2.37297,0.0248634,0.422873,
2,1,0,1,0,64359.7,0.427283,0.42694,0.255871,97,0.028821,10,0.000109242,-3.59198,-5.12426,-0.0115138,0.426827,
2,1,0,1,0,64360.5,0.431278,0.430984,0.256566,97,0.0290332,10,0.000110576,-3.5908,3.10194,0.0190203,0.430871,
2,1,0,1,0,64361.3,0.435273,0.434971,0.255608,97,0.029245,10,0.000111182,-3.59243,-7.9006,-0.00746779,0.434859,
2,1,0,1,0,64362.1,0.439269,0.438998,0.255844,97,0.0294567,10,0.000112315,-3.59202,-2.58178,-0.0228524,0.438885,
2,1,0,0,0,64362.9,0.443264,0.442946,0.256436,97,0.0296682,10,0.000113587,-3.59102,-459.779,-0.000128322,0.442833,
2,1,0,1,0,64363.7,0.447259,0.446979,0.255885,97,0.0298794,10,0.000114375,-3.59195,-5.33162,-0.011066,0.446866,
2,1,0,1,0,64364.5,0.451254,0.45094,0.255909,97,0.0300908,10,0.0001154,-3.59191,-7.30201,-0.00807996,0.450828,
2,1,0,1,0,64365.3,0.455249,0.454936,0.255243,97,0.0303016,10,0.000116119,-3.59305,2.3923,0.0246624,0.454823,
2,1,0,1,0,64366.1,0.459244,0.458933,0.25555,97,0.0305125,10,0.00011728,-3.59252,-2.46101,-0.0239739,0.458821,
2,1,0,0,0,64366.9,0.46324,0.462921,0.25585,97,0.0307234,10,0.000118438,-3.59201,4.57324,0.0129011,0.462808,
2,1,0,1,0,64367.7,0.467235,0.466899,0.255809,97,0.0309343,10,0.000119437,-3.59208,5.89884,0.010002,0.466787,
2,1,0,1,0,64368.5,0.471231,0.470939,0.255859,97,0.0311454,10,0.000120494,-3.592,-18.9606,-0.00311171,0.470826,
2,1,0,1,0,64369.3,0.475225,0.474945,0.256619,97,0.0313566,10,0.00012188,-3.59071,3.69245,0.0159786,0.474832,
2,1,0,1,0,64370.1,0.47922,0.47893,0.256931,97,0.031568,10,0.000123052,-3.59018,-62.684,-0.000941229,0.478817,
2,1,0,0,0,64370.9,0.483216,0.482903,0.257074,97,0.0317796,10,0.000124142,-3.58994,8.01088,0.00736498,0.48279,
2,1,0,1,0,64371.7,0.487211,0.486914,0.257682,97,0.0319914,10,0.000125469,-3.58892,2.73655,0.02156,0.486801,
2,1,0,0,0,64372.5,0.491206,0.49093,0.256597,97,0.0322036,10,0.000125971,-3.59075,-28.2211,-0.00209063,0.490817,
2,1,0,1,0,64373.3,0.495201,0.494913,0.257907,97,0.0324159,10,0.000127641,-3.58854,7.60578,0.00775726,0.4948,
2,1,0,1,0,64374.1,0.499196,0.49891,0.258681,97,0.0326286,10,0.000129059,-3.58723,1.77242,0.0332879,0.498796,
2,1,0,1,0,64374.9,0.503191,0.502855,0.259464,97,0.0328419,10,0.000130473,-3.58592,4.34936,0.0135652,0.502741,
2,1,0,1,0,64375.7,0.507187,0.506853,0.260526,97,0.0330557,10,0.000132049,-3.58415,4.75443,0.0124095,0.506739,
2,1,0,0,0,64376.5,0.511182,0.510891,0.261404,97,0.03327,10,0.000133549,-3.58269,4.58473,0.0128688,0.510776,
2,1,0,1,0,64377.3,0.515177,0.514856,0.262394,97,0.033485,10,0.000135095,-3.58105,5.43906,0.0108475,0.514741,
2,1,0,1,0,64378.1,0.519173,0.518897,0.262426,97,0.0337006,10,0.000136172,-3.58099,0.939721,0.0627846,0.518781,
2,1,0,1,0,64378.9,0.523167,0.522845,0.263768,97,0.0339171,10,0.00013791,-3.57878,3.3917,0.0173954,0.522729,
2,1,0,1,0,64379.7,0.527162,0.526874,0.264182,97,0.0341342,10,0.00013919,-3.5781,4.19537,0.0140631,0.526758,
2,1,0,0,0,64380.5,0.531158,0.530884,0.265198,97,0.0343519,10,0.000140789,-3.57643,1.92166,0.0307026,0.530768,
2,1,0,1,0,64381.3,0.535153,0.534807,0.267214,97,0.0345706,10,0.000142908,-3.57314,2.10693,0.0280028,0.534689,
2,1,0,0,0,64382.1,0.539148,0.538847,0.269016,97,0.0347903,10,0.000144958,-3.57022,1.09227,0.0540158,0.538728,
2,1,0,1,0,64382.9,0.543143,0.542852,0.270002,97,0.0350113,10,0.000146571,-3.56863,1.79235,0.0329177,0.542733,
2,1,0,1,0,64383.7,0.547138,0.546834,0.271996,97,0.0352337,10,0.000148736,-3.56544,2.87747,0.0205041,0.546714,
2,1,0,1,0,64384.5,0.551133,0.550865,0.274009,97,0.0354574,10,0.000150942,-3.56224,0.970671,0.0607827,0.550744,
2,1,0,1,0,64385.3,0.555129,0.554812,0.274443,97,0.0356827,10,0.000152264,-3.56155,1.31214,0.0449647,0.554691,
2,1,0,0,0,64386.1,0.559124,0.558814,0.277952,97,0.0359094,10,0.000155324,-3.55603,1.04913,0.0562371,0.558692,
2,1,0,1,0,64386.9,0.56312,0.562836,0.279812,97,0.0361379,10,0.000157488,-3.55313,0.94033,0.0627439,0.562713,
2,1,0,1,0,64387.7,0.567114,0.566815,0.282858,97,0.0363687,10,0.000160328,-3.54843,1.02391,0.057622,0.566691,
2,1,0,1,0,64388.5,0.571109,0.570794,0.285588,97,0.0366014,10,0.000163012,-3.54426,1.01854,0.057926,0.570668,
2,1,0,1,0,64389.3,0.575105,0.574823,0.288786,97,0.0368365,10,0.000166001,-3.53942,0.586571,0.100585,0.574696,
2,1,0,0,0,64390.1,0.5791,0.578844,0.293073,97,0.0370745,10,0.000169644,-3.53302,1.02867,0.0573558,0.578715,
2,1,0,1,0,64390.9,0.583095,0.582781,0.296324,97,0.0373151,10,0.000172692,-3.52823,0.609182,0.0968513,0.58265,
2,1,0,1,0,64391.7,0.58709,0.586782,0.30058,97,0.0375593,10,0.000176375,-3.52204,0.746515,0.0790339,0.58665,
2,1,0,1,0,64392.5,0.591085,0.590758,0.304943,97,0.0378065,10,0.000180147,-3.51578,0.54712,0.107837,0.590624,
2,1,0,1,0,64393.3,0.59508,0.594785,0.310611,97,0.0380578,10,0.000184747,-3.50778,0.473876,0.124505,0.594648,
2,1,0,0,0,64394.1,0.599076,0.598766,0.316758,97,0.0383136,10,0.000189664,-3.49927,0.462154,0.127663,0.598627,
2,1,0,1,0,64394.9,0.603071,0.602761,0.32255,97,0.0385743,10,0.00019442,-3.4914,0.414745,0.142256,0.602619,
2,1,0,0,0,64395.7,0.607066,0.606763,0.329754,97,0.0388404,10,0.000200082,-3.48181,0.4263,0.1384,0.606618,
2,1,0,1,0,64396.5,0.611061,0.610715,0.338339,97,0.0391127,10,0.000206629,-3.47065,0.386911,0.15249,0.610566,
2,1,0,1,0,64397.3,0.615056,0.614763,0.34772,97,0.0393919,10,0.000213766,-3.45877,0.297549,0.198286,0.61461,
2,1,0,1,0,64398.1,0.619051,0.618768,0.357799,97,0.0396792,10,0.000221394,-3.44636,0.288588,0.204444,0.618611,
2,1,0,1,0,64398.9,0.623047,0.622772,0.370666,97,0.0399757,10,0.00023084,-3.43102,0.242968,0.24283,0.622608,
2,1,0,0,0,64399.7,0.627042,0.626766,0.385248,97,0.0402829,10,0.00024146,-3.41426,0.228461,0.258249,0.626597,
2,1,0,1,0,64400.5,0.631037,0.630772,0.402402,97,0.0406032,10,0.000253824,-3.39534,0.204291,0.288804,0.630595,
2,1,0,1,0,64401.3,0.635032,0.634745,0.422212,97,0.0409376,10,0.000267997,-3.37447,0.191822,0.307576,0.634559,
2,1,0,1,0,64402.1,0.639027,0.63877,0.44388,97,0.0412885,10,0.000283537,-3.35273,0.17085,0.345333,0.638575,
2,1,0,1,0,64402.9,0.643022,0.642754,0.469177,97,0.0416582,10,0.000301565,-3.32866,0.155963,0.378295,0.642547,
2,1,0,0,0,64403.7,0.647018,0.646725,0.499867,97,0.0420503,10,0.000323277,-3.30115,0.135834,0.434352,0.646505,
2,1,0,1,0,64404.5,0.651013,0.650749,0.533787,97,0.0424687,10,0.000347362,-3.27263,0.136161,0.43331,0.650515,
2,1,0,1,0,64405.3,0.655008,0.654722,0.574394,97,0.0429164,10,0.000376069,-3.24079,0.119607,0.493284,0.654469,
2,1,0,1,0,64406.1,0.659003,0.658719,0.620392,97,0.0433984,10,0.000408664,-3.20733,0.113156,0.521406,0.658447,
2,1,0,1,0,64406.9,0.662998,0.662695,0.675896,97,0.0439213,10,0.000447913,-3.17012,0.107099,0.550892,0.662397,
2,1,0,0,0,64407.7,0.666994,0.666744,0.737051,97,0.0444904,10,0.000491424,-3.1325,0.100314,0.588152,0.666419,
2,1,0,1,0,64408.5,0.670989,0.670654,0.808584,97,0.045113,10,0.00054228,-3.09227,0.0981011,0.60142,0.670299,
2,1,0,0,0,64409.3,0.674984,0.674703,0.890273,97,0.0457962,10,0.00060067,-3.05048,0.094319,0.625536,0.674311,
2,1,0,1,0,64410.1,0.67898,0.678699,0.981315,97,0.0465485,10,0.000666017,-3.00819,0.0909178,0.648938,0.678267,
2,1,0,1,0,64410.9,0.682974,0.682703,1.08416,97,0.0473788,10,0.000740162,-2.9649,0.0909118,0.648981,0.682226,
2,1,0,1,0,64411.7,0.686969,0.686692,1.19956,97,0.0482961,10,0.000823728,-2.92098,0.0881433,0.669364,0.686164,
2,1,0,1,0,64412.5,0.690965,0.690669,1.32929,97,0.0493116,10,0.000918099,-2.87638,0.0886243,0.665732,0.690085,
2,1,0,0,0,64413.3,0.69496,0.694699,1.47297,97,0.0504359,10,0.00102327,-2.83181,0.0895708,0.658697,0.694051,
2,1,0,1,0,64414.1,0.698955,0.698725,1.62888,97,0.0516795,10,0.00113814,-2.78811,0.0898056,0.656975,0.698009,
2,1,0,1,0,64414.9,0.70295,0.702663,1.80068,97,0.0530546,10,0.00126527,-2.74456,0.0898984,0.656296,0.701871,
2,1,0,1,0,64415.7,0.706945,0.706692,1.98876,97,0.0545729,10,0.00140544,-2.70142,0.0933651,0.631928,0.705817,
2,1,0,1,0,64416.5,0.71094,0.710675,2.18851,97,0.0562458,10,0.00155532,-2.65985,0.0936934,0.629713,0.709712,
2,1,0,0,0,64417.3,0.714936,0.714701,2.40585,97,0.0580866,10,0.00171946,-2.61873,0.0960947,0.613978,0.713643,
2,1,0,1,0,64418.1,0.718931,0.718642,2.63799,97,0.0601062,10,0.00189577,-2.57873,0.0985702,0.598558,0.717481,
2,1,0,1,0,64418.9,0.722927,0.722624,2.88598,97,0.0623178,10,0.00208548,-2.53971,0.101749,0.579859,0.721354,
2,1,0,1,0,64419.7,0.726921,0.726656,3.14817,97,0.0647328,10,0.00228763,-2.50194,0.102959,0.573042,0.72527,
2,1,0,1,0,64420.5,0.730916,0.730633,3.42902,97,0.0673647,10,0.00250535,-2.46483,0.106032,0.556433,0.729124,
2,1,0,1,0,64421.3,0.734911,0.734638,3.72439,97,0.0702264,10,0.00273608,-2.42895,0.109544,0.538594,0.732999,
2,1,0,1,0,64422.1,0.738907,0.738648,4.03704,97,0.0733319,10,0.00298195,-2.39394,0.109869,0.537005,0.736871,
2,1,0,0,0,64422.9,0.742902,0.742635,4.36701,97,0.076694,10,0.00324309,-2.35982,0.11533,0.511573,0.740713,
2,1,0,1,0,64423.7,0.746897,0.746589,4.71672,97,0.0803283,10,0.00352145,-2.32636,0.115638,0.510214,0.744514,
2,1,0,1,0,64424.5,0.750892,0.750616,5.0861,97,0.0842491,10,0.00381771,-2.29361,0.118664,0.497202,0.748378,
2,1,0,1,0,64425.3,0.754887,0.754605,5.47451,97,0.088473,10,0.0041311,-2.26165,0.120267,0.490577,0.752196,
2,1,0,1,0,64426.1,0.758883,0.758626,5.88731,97,0.0930168,10,0.00446626,-2.23008,0.122033,0.483477,0.756035,
2,1,0,0,0,64426.9,0.762878,0.762579,6.31999,97,0.0978973,10,0.00481949,-2.19928,0.123224,0.478801,0.759798,
2,1,0,1,0,64427.7,0.766873,0.76657,6.77703,97,0.103134,10,0.00519507,-2.16896,0.127187,0.463885,0.763588,
2,1,0,1,0,64428.5,0.770868,0.770586,7.26016,97,0.108746,10,0.00559458,-2.13905,0.127813,0.461611,0.767392,
2,1,0,1,0,64429.3,0.774863,0.774545,7.76806,97,0.114754,10,0.00601672,-2.10969,0.129762,0.454677,0.771127,
2,1,0,1,0,64430.1,0.778858,0.778589,8.30428,97,0.121179,10,0.00646562,-2.0807,0.126552,0.46621,0.774935,
2,1,0,0,0,64430.9,0.782854,0.782577,8.87026,97,0.128045,10,0.00694166,-2.05206,0.133486,0.441994,0.778674,
2,1,0,1,0,64431.7,0.786849,0.786519,9.47063,97,0.135376,10,0.00744883,-2.02362,0.130343,0.452653,0.782351,
2,1,0,0,0,64432.5,0.790844,0.790577,10.1076,97,0.143202,10,0.00799083,-1.99535,0.133059,0.443414,0.786129,
2,1,0,1,0,64433.3,0.794839,0.794526,10.7859,97,0.151552,10,0.00856965,-1.96714,0.129913,0.454151,0.78978,
2,1,0,1,0,64434.1,0.798834,0.798564,11.5032,97,0.160461,10,0.00918602,-1.93918,0.130011,0.453808,0.793502,
2,1,0,1,0,64434.9,0.802829,0.802523,12.2761,97,0.169965,10,0.00985189,-1.91094,0.131751,0.447813,0.797121,
2,1,0,1,0,64435.7,0.806825,0.80655,13.0941,97,0.180105,10,0.0105611,-1.88292,0.128777,0.458157,0.800788,
2,1,0,0,0,64436.5,0.81082,0.810532,13.9553,97,0.190916,10,0.0113112,-1.85526,0.130514,0.452058,0.804392,
2,1,0,1,0,64437.2,0.814815,0.814517,14.8642,97,0.202434,10,0.0121072,-1.82786,0.13455,0.4385,0.807977,
2,1,0,1,0,64438,0.81881,0.818502,15.8034,97,0.214688,10,0.0129351,-1.80125,0.132642,0.444807,0.811548,
2,1,0,1,0,64438.8,0.822805,0.822558,16.8052,97,0.227721,10,0.0138232,-1.77456,0.136981,0.430718,0.815164,
2,1,0,1,0,64439.6,0.826801,0.826585,17.8294,97,0.241564,10,0.0147375,-1.74886,0.136115,0.433459,0.81874,
2,1,0,0,0,64440.4,0.830796,0.830533,18.9232,97,0.25625,10,0.0157164,-1.723,0.136158,0.43332,0.822207,
2,1,0,1,0,64441.2,0.834791,0.83456,20.0445,97,0.27183,10,0.0167283,-1.69801,0.14659,0.402484,0.825741,
2,1,0,1,0,64442,0.838786,0.838535,21.1506,97,0.288297,10,0.0177355,-1.67468,0.154562,0.381724,0.829229,
2,1,0,1,0,64442.8,0.842781,0.842503,22.3012,97,0.305662,10,0.0187889,-1.65167,0.152349,0.387269,0.832691,
2,1,0,1,0,64443.6,0.846776,0.846537,23.4902,97,0.323956,10,0.0198854,-1.62911,0.155047,0.380529,0.836202,
2,1,0,1,0,64444.3,0.849723,0.849435,24.2817,97,0.34075,10,0.0206257,-1.61472,0.0447793,1.31757,0.838751,
2,1,0,0,0,64445.1,0.845728,0.845458,22.4183,97,0.35935,10,0.0189537,-1.6494,0.105194,0.560866,0.835594,
2,1,0,1,0,64445.9,0.841732,0.841506,20.9363,97,0.376648,10,0.017618,-1.6791,0.0920921,0.640663,0.832294,
2,1,0,1,0,64446.7,0.837737,0.837488,19.3321,97,0.392613,10,0.0161904,-1.71372,0.122538,0.481485,0.828982,
2,1,0,1,0,64447.5,0.833742,0.833476,18.0985,97,0.407557,10,0.0150847,-1.74236,0.118954,0.49599,0.825512,
2,1,0,1,0,64448.3,0.829747,0.829482,16.9139,97,0.421531,10,0.0140298,-1.77176,0.117556,0.50189,0.82204,
2,1,0,0,0,64449.1,0.825752,0.82548,15.7953,97,0.434582,10,0.0130387,-1.80147,0.120168,0.490978,0.81853,
2,1,0,1,0,64449.9,0.821757,0.82149,14.7677,97,0.446782,10,0.0121315,-1.83069,0.12114,0.487041,0.814992,
2,1,0,1,0,64450.7,0.817761,0.817457,13.7975,97,0.458183,10,0.0112789,-1.8602,0.12425,0.47485,0.811386,
2,1,0,1,0,64451.5,0.813766,0.813497,12.8945,97,0.468837,10,0.0104896,-1.8896,0.12105,0.487403,0.807824,
2,1,0,1,0,64452.3,0.809771,0.80947,12.0351,97,0.478787,10,0.00974208,-1.91955,0.118801,0.49663,0.804175,
2,1,0,1,0,64453.1,0.805776,0.805521,11.2192,97,0.488067,10,0.00903733,-1.95004,0.119195,0.494986,0.800585,
2,1,0,1,0,64453.9,0.801781,0.801479,10.4622,97,0.496719,10,0.0083852,-1.98038,0.120754,0.488598,0.796875,
2,1,0,0,0,64454.7,0.797786,0.797494,9.74793,97,0.504783,10,0.00777391,-2.01109,0.12118,0.486879,0.793205,
2,1,0,1,0,64455.5,0.79379,0.793471,9.07809,97,0.512294,10,0.0072032,-2.04201,0.117888,0.500474,0.789477,
2,1,0,1,0,64456.3,0.789795,0.789508,8.43927,97,0.519285,10,0.00666287,-2.07369,0.118379,0.498398,0.785794,
2,1,0,1,0,64457.1,0.7858,0.785524,7.847,97,0.525784,10,0.00616401,-2.1053,0.11705,0.504058,0.782072,
2,1,0,1,0,64457.9,0.781805,0.781531,7.28855,97,0.531824,10,0.00569623,-2.13736,0.117391,0.502592,0.778324,
2,1,0,0,0,64458.7,0.77781,0.777518,6.76511,97,0.537429,10,0.00526,-2.16972,0.116845,0.504941,0.774541,
2,1,0,1,0,64459.5,0.773814,0.773559,6.27651,97,0.542632,10,0.00485526,-2.20228,0.113495,0.519847,0.770798,
2,1,0,1,0,64460.3,0.769819,0.769557,5.81764,97,0.547456,10,0.00447701,-2.23525,0.114111,0.517041,0.766997,
2,1,0,1,0,64461.1,0.765824,0.765528,5.38519,97,0.551924,10,0.00412251,-2.2688,0.113343,0.520546,0.763158,
2,1,0,1,0,64461.9,0.761829,0.761594,4.97464,97,0.556055,10,0.00378865,-2.30324,0.110857,0.532219,0.759405,
2,1,0,0,0,64462.7,0.757834,0.757512,4.59526,97,0.559873,10,0.00348096,-2.33769,0.110095,0.535899,0.75549,
2,1,0,1,0,64463.5,0.753839,0.753605,4.2363,97,0.563394,10,0.00319249,-2.37301,0.107443,0.549128,0.751741,
2,1,0,0,0,64464.3,0.749844,0.749584,3.89923,97,0.566637,10,0.0029228,-2.40902,0.10605,0.556343,0.747868,
2,1,0,1,0,64465.1,0.745848,0.745575,3.58289,97,0.56962,10,0.00267131,-2.44577,0.103495,0.570076,0.743999,
2,1,0,1,0,64465.9,0.741853,0.741572,3.28361,97,0.572356,10,0.00243504,-2.48365,0.101636,0.580501,0.740128,
2,1,0,1,0,64466.7,0.737858,0.737561,3.00365,97,0.574862,10,0.00221537,-2.52235,0.098329,0.600027,0.73624,
2,1,0,1,0,64467.5,0.733863,0.73357,2.74094,97,0.577151,10,0.00201067,-2.5621,0.095364,0.618682,0.732364,
2,1,0,0,0,64468.3,0.729868,0.729585,2.49185,97,0.579234,10,0.00181802,-2.60348,0.0932874,0.632454,0.728489,
2,1,0,1,0,64469.1,0.725872,0.725604,2.25954,97,0.581126,10,0.00163953,-2.64598,0.0890171,0.662794,0.72461,
2,1,0,1,0,64469.9,0.721877,0.721584,2.03955,97,0.582837,10,0.00147171,-2.69047,0.0871517,0.67698,0.720687,
2,1,0,1,0,64470.7,0.717882,0.717631,1.83436,97,0.584379,10,0.00131639,-2.73652,0.0836574,0.705258,0.716824,
2,1,0,1,0,64471.5,0.713887,0.713588,1.64341,97,0.585762,10,0.00117272,-2.78425,0.0792083,0.744871,0.712865,
2,1,0,0,0,64472.3,0.709892,0.709603,1.46596,97,0.586998,10,0.00104025,-2.83388,0.0774167,0.762109,0.708958,
2,1,0,1,0,64473.1,0.705897,0.705614,1.30819,97,0.588098,10,0.000923078,-2.88333,0.0770032,0.766202,0.705038,
2,1,0,1,0,64473.9,0.701901,0.701617,1.15586,97,0.589076,10,0.000810972,-2.93709,0.0712581,0.827976,0.701108,
2,1,0,1,0,64474.7,0.697906,0.697634,1.01501,97,0.589937,10,0.000708105,-2.99353,0.0694825,0.849135,0.697187,
2,1,0,1,0,64475.5,0.693911,0.693602,0.885673,97,0.59069,10,0.000614304,-3.05273,0.0648538,0.909739,0.693212,
2,1,0,0,0,64476.3,0.689916,0.689626,0.767173,97,0.591344,10,0.000529062,-3.11511,0.0605562,0.974301,0.689288,
2,1,0,1,0,64477.1,0.685921,0.685641,0.660006,97,0.591907,10,0.000452527,-3.18045,0.0585614,1.00749,0.685351,
2,1,0,0,0,64477.9,0.681926,0.681641,0.56227,97,0.592389,10,0.000383266,-3.25006,0.0570459,1.03425,0.681394,
2,1,0,1,0,64478.7,0.67793,0.677646,0.475431,97,0.592798,10,0.000322174,-3.32291,0.0526338,1.12095,0.677437,
2,1,0,1,0,64479.5,0.673935,0.673662,0.398279,97,0.593141,10,0.000268305,-3.39981,0.0480732,1.22729,0.673487,
2,1,0,1,0,64480.3,0.66994,0.669665,0.329978,97,0.593425,10,0.000220975,-3.48152,0.0478274,1.2336,0.66952,
2,1,0,1,0,64481.1,0.665945,0.665621,0.268927,97,0.593659,10,0.000179003,-3.57037,0.0435685,1.35419,0.665502,
2,1,0,0,0,64481.9,0.66195,0.661668,0.216424,97,0.593846,10,0.000143201,-3.6647,0.0401686,1.46881,0.661573,
2,1,0,1,0,64482.7,0.657955,0.657666,0.170333,97,0.593995,10,0.000112022,-3.7687,0.0370439,1.59271,0.657591,
2,1,0,1,0,64483.5,0.653959,0.653713,0.129298,97,0.594109,10,8.45238e-05,-3.88841,0.0313904,1.87956,0.653656,
2,1,0,1,0,64484.3,0.649964,0.64971,0.0963551,97,0.594194,10,6.26029e-05,-4.01613,0.0278394,2.1193,0.649668,
2,1,0,1,0,64485.1,0.64597,0.645691,0.0674002,97,0.594253,10,4.35197e-05,-4.17134,0.0228123,2.58632,0.645661,
2,1,0,0,0,64485.9,0.641974,0.641666,0.0419228,97,0.594291,10,2.69004e-05,-4.37755,0.0157207,3.75302,0.641647,
2,1,0,1,0,64486.7,0.637979,0.637701,0.0210795,97,0.59431,10,1.34424e-05,-4.67614,0.0103067,5.72443,0.637692,
2,1,0,1,0,64487.5,0.633983,0.633678,0.00282853,97,0.594314,10,1.79238e-06,-5.54844,0.0105495,5.59267,0.633677,
2,0,0,1,0,64488.3,0.629988,0.629666,-0.0123143,97,0.594305,10,-7.75388e-06,-4.90959,-0.00728187,-8.10231,0.629672,
2,0,0,1,0,64489.1,0.625993,0.625745,-0.0244836,97,0.594285,10,-1.53205e-05,-4.61112,-0.0202391,-2.91514,0.625756,
2,0,0,0,0,64489.9,0.621998,0.621703,-0.0344187,97,0.594256,10,-2.13982e-05,-4.46321,-0.0310219,-1.90188,0.621718,
2,0,0,1,0,64490.7,0.618003,0.617747,-0.0432215,97,0.59422,10,-2.67e-05,-4.3643,-0.0483447,-1.2204,0.617766,
2,0,0,0,0,64491.5,0.614008,0.613705,-0.0505624,97,0.594176,10,-3.10304e-05,-4.29617,-0.078441,-0.752158,0.613727,
2,0,0,1,0,64492.3,0.610012,0.609753,-0.0571017,97,0.594128,10,-3.48179e-05,-4.24335,-0.0802205,-0.735473,0.609778,
2,0,0,1,0,64493.1,0.606017,0.605696,-0.0623532,97,0.594074,10,-3.77671e-05,-4.20514,-0.113115,-0.521591,0.605723,
2,0,0,1,0,64493.9,0.602022,0.60169,-0.0670261,97,0.594017,10,-4.03289e-05,-4.17376,-0.17601,-0.335208,0.601719,
2,0,0,1,0,64494.7,0.598027,0.597749,-0.0717399,97,0.593956,10,-4.28825e-05,-4.14424,-0.136285,-0.432916,0.597781,
2,0,0,0,0,64495.5,0.594032,0.593702,-0.0747949,97,0.593892,10,-4.44059e-05,-4.12613,-0.259727,-0.227162,0.593735,
2,0,0,1,0,64496.3,0.590037,0.58974,-0.0783549,97,0.593825,10,-4.6209e-05,-4.10593,-0.242861,-0.242938,0.589774,
2,0,0,1,0,64497.1,0.586041,0.585736,-0.0803271,97,0.593756,10,-4.70504e-05,-4.09514,-0.376394,-0.156751,0.585771,
2,0,0,1,0,64497.9,0.582046,0.581711,-0.0820814,97,0.593685,10,-4.77476e-05,-4.08576,-0.30211,-0.195293,0.581747,
2,0,0,1,0,64498.7,0.578052,0.577746,-0.0840966,97,0.593613,10,-4.85865e-05,-4.07522,-0.409922,-0.14393,0.577783,
2,0,0,0,0,64499.5,0.574056,0.57378,-0.085419,97,0.593539,10,-4.90117e-05,-4.06845,-0.55002,-0.107269,0.573817,
2,0,0,1,0,64500.3,0.570061,0.56976,-0.0876569,97,0.593464,10,-4.99434e-05,-4.05721,-0.558476,-0.105645,0.569798,
2,0,0,1,0,64501.1,0.566065,0.565748,-0.089569,97,0.593387,10,-5.06734e-05,-4.04784,-0.291391,-0.202477,0.565787,
2,0,0,1,0,64501.9,0.56207,0.561767,-0.0906297,97,0.593309,10,-5.09128e-05,-4.04273,-1.96438,-0.0300349,0.561807,
2,0,0,1,0,64502.7,0.558075,0.557763,-0.0922924,97,0.59323,10,-5.14772e-05,-4.03483,-0.552778,-0.106734,0.557803,
2,0,0,1,0,64503.5,0.55408,0.553782,-0.0930178,97,0.59315,10,-5.15116e-05,-4.03143,-0.690145,-0.0854893,0.553823,
2,0,0,1,0,64504.3,0.550085,0.549794,-0.0949153,97,0.593069,10,-5.21839e-05,-4.02266,-1.81637,-0.0324823,0.549836,
2,0,0,0,0,64505.1,0.54609,0.545741,-0.0956603,97,0.592987,10,-5.22057e-05,-4.01927,-0.785376,-0.0751232,0.545783,
2,0,0,1,0,64505.9,0.542094,0.541773,-0.0969102,97,0.592904,10,-5.25034e-05,-4.01363,-0.556799,-0.105963,0.541816,
2,0,0,1,0,64506.7,0.538099,0.537784,-0.0978148,97,0.592821,10,-5.26033e-05,-4.0096,5.53961,0.0106506,0.537827,
2,0,0,1,0,64507.5,0.534104,0.533792,-0.0984144,97,0.592736,10,-5.25328e-05,-4.00694,-0.33798,-0.174566,0.533835,
2,0,0,1,0,64508.3,0.530109,0.52976,-0.0996134,97,0.592651,10,-5.27712e-05,-4.00168,-4.82085,-0.0122385,0.529804,
2,0,0,0,0,64509.1,0.526114,0.525777,-0.10114,97,0.592565,10,-5.31772e-05,-3.99508,-0.72662,-0.0811978,0.525822,
2,0,0,1,0,64509.9,0.522119,0.521833,-0.101993,97,0.592477,10,-5.32231e-05,-3.99143,-0.853749,-0.069107,0.521877,
2,0,0,1,0,64510.7,0.518123,0.517809,-0.103049,97,0.592389,10,-5.33596e-05,-3.98696,-0.937676,-0.0629215,0.517855,
2,0,0,1,0,64511.5,0.514128,0.513838,-0.104521,97,0.5923,10,-5.37066e-05,-3.9808,-0.619558,-0.0952292,0.513884,
2,0,0,1,0,64512.3,0.510133,0.50983,-0.104422,97,0.59221,10,-5.32374e-05,-3.98121,-0.937654,-0.062923,0.509876,
2,0,0,0,0,64513.1,0.506138,0.505799,-0.106296,97,0.592119,10,-5.37645e-05,-3.97348,-1.18069,-0.0499709,0.505846,
2,0,0,1,0,64513.9,0.502143,0.501833,-0.107944,97,0.592027,10,-5.41697e-05,-3.9668,-0.53301,-0.110692,0.501881,
2,0,0,0,0,64514.7,0.498148,0.497806,-0.109152,97,0.591933,10,-5.43366e-05,-3.96197,-1.53554,-0.0384229,0.497854,
2,0,0,1,0,64515.5,0.494152,0.493868,-0.110231,97,0.59184,10,-5.44395e-05,-3.9577,-0.625235,-0.0943645,0.493917,
2,0,0,1,0,64516.3,0.490157,0.489859,-0.111401,97,0.591745,10,-5.45707e-05,-3.95311,-0.558016,-0.105732,0.489908,
2,0,0,1,0,64517.1,0.486162,0.485843,-0.113224,97,0.591648,10,-5.50091e-05,-3.94606,-1.93822,-0.0304403,0.485893,
2,0,0,1,0,64517.9,0.482167,0.48183,-0.114843,97,0.591551,10,-5.53347e-05,-3.9399,-0.921921,-0.0639968,0.48188,
2,0,0,0,0,64518.7,0.478172,0.477859,-0.11518,97,0.591453,10,-5.50398e-05,-3.93862,-0.598663,-0.0985529,0.477909,
2,0,0,1,0,64519.5,0.474177,0.473845,-0.11704,97,0.591353,10,-5.54586e-05,-3.93167,-1.03673,-0.0569095,0.473896,
2,0,0,1,0,64520.2,0.470181,0.469852,-0.118005,97,0.591253,10,-5.54448e-05,-3.9281,-0.681095,-0.0866252,0.469904,
2,0,0,1,0,64521,0.466186,0.465886,-0.119802,97,0.591151,10,-5.5814e-05,-3.92154,-0.643116,-0.0917409,0.465939,
2,0,0,1,0,64521.8,0.462191,0.461881,-0.121627,97,0.591048,10,-5.6177e-05,-3.91497,-1.01784,-0.0579657,0.461934,
2,0,0,0,0,64522.6,0.458196,0.457905,-0.122184,97,0.590944,10,-5.59485e-05,-3.91299,-0.497639,-0.11856,0.457959,
2,0,0,1,0,64523.4,0.454201,0.453865,-0.123928,97,0.590838,10,-5.62467e-05,-3.90683,-1.36899,-0.0430974,0.453919,
2,0,0,1,0,64524.2,0.450205,0.449875,-0.125631,97,0.590732,10,-5.65181e-05,-3.9009,-0.475666,-0.124037,0.44993,
2,0,0,1,0,64525,0.44621,0.445883,-0.127002,97,0.590624,10,-5.66281e-05,-3.89619,-0.817355,-0.0721841,0.445939,
2,0,0,1,0,64525.8,0.442215,0.441914,-0.129393,97,0.590514,10,-5.71807e-05,-3.88809,-0.778309,-0.0758054,0.441971,
2,0,0,0,0,64526.6,0.43822,0.437851,-0.131757,97,0.590403,10,-5.76897e-05,-3.88023,-0.550581,-0.107159,0.437909,
2,0,0,1,0,64527.4,0.434225,0.433915,-0.133986,97,0.59029,10,-5.81384e-05,-3.87294,-0.56856,-0.103771,0.433974,
2,0,0,0,0,64528.2,0.43023,0.429935,-0.135069,97,0.590176,10,-5.80709e-05,-3.86944,-1.10698,-0.0532984,0.429994,
2,0,0,1,0,64529,0.426234,0.425931,-0.136371,97,0.590061,10,-5.80848e-05,-3.86528,-0.549031,-0.107462,0.425991,
2,0,0,1,0,64529.8,0.422239,0.421954,-0.138946,97,0.589944,10,-5.86287e-05,-3.85715,-1.01829,-0.0579405,0.422015,
2,0,0,1,0,64530.6,0.418244,0.417891,-0.139941,97,0.589826,10,-5.848e-05,-3.85406,-0.652353,-0.0904419,0.417952,
2,0,0,1,0,64531.4,0.414249,0.413926,-0.141066,97,0.589706,10,-5.83908e-05,-3.85058,-0.718786,-0.0820828,0.413988,
2,0,0,0,0,64532.2,0.410254,0.409964,-0.143478,97,0.589584,10,-5.88206e-05,-3.84322,-1.1111,-0.0531008,0.410027,
2,0,0,1,0,64533,0.406259,0.405969,-0.146022,97,0.589461,10,-5.92805e-05,-3.83558,-0.517891,-0.113924,0.406034,
2,0,0,1,0,64533.8,0.402263,0.401928,-0.147893,97,0.589337,10,-5.94421e-05,-3.83005,-0.632355,-0.093302,0.401993,
2,0,0,1,0,64534.6,0.398268,0.397977,-0.150793,97,0.58921,10,-6.00123e-05,-3.82162,-0.724274,-0.0814608,0.398044,
2,0,0,1,0,64535.4,0.394274,0.393934,-0.151841,97,0.589082,10,-5.98153e-05,-3.81861,-0.485643,-0.121488,0.394001,
2,0,0,0,0,64536.2,0.390278,0.389987,-0.154468,97,0.588953,10,-6.02406e-05,-3.81116,-1.04999,-0.056191,0.390055,
2,0,0,1,0,64537,0.386283,0.385968,-0.156581,97,0.588821,10,-6.04352e-05,-3.80526,-0.640985,-0.0920459,0.386037,
2,0,0,1,0,64537.8,0.382287,0.381997,-0.158174,97,0.588688,10,-6.04222e-05,-3.80086,-1.07142,-0.0550672,0.382067,
2,0,0,1,0,64538.6,0.378292,0.37797,-0.160218,97,0.588553,10,-6.05577e-05,-3.79529,-0.905247,-0.0651756,0.378041,
2,0,0,1,0,64539.4,0.374297,0.37397,-0.16203,97,0.588417,10,-6.05942e-05,-3.79041,-0.410722,-0.143649,0.374041,
2,0,0,1,0,64540.2,0.370303,0.369982,-0.164342,97,0.588279,10,-6.08034e-05,-3.78425,-0.707089,-0.0834407,0.370054,
2,0,0,1,0,64541,0.366307,0.366002,-0.167217,97,0.588139,10,-6.12016e-05,-3.77672,-0.587414,-0.10044,0.366075,
2,0,0,0,0,64541.8,0.362312,0.361995,-0.169112,97,0.587997,10,-6.12176e-05,-3.77183,-0.722644,-0.0816447,0.36207,
2,0,0,1,0,64542.6,0.358316,0.357976,-0.170694,97,0.587853,10,-6.11043e-05,-3.76778,-1.30199,-0.0453153,0.358051,
2,0,0,1,0,64543.4,0.354321,0.354022,-0.173358,97,0.587707,10,-6.13727e-05,-3.76106,-0.605203,-0.097488,0.354099,
2,0,0,1,0,64544.2,0.350327,0.34997,-0.17587,97,0.58756,10,-6.15491e-05,-3.75481,-0.910202,-0.0648207,0.350047,
2,0,0,1,0,64545,0.346331,0.346001,-0.178322,97,0.58741,10,-6.16998e-05,-3.74879,-0.836193,-0.0705579,0.34608,
2,0,0,0,0,64545.8,0.342336,0.342048,-0.180074,97,0.587259,10,-6.15941e-05,-3.74455,-0.49562,-0.119043,0.342127,
2,0,0,1,0,64546.6,0.338341,0.338057,-0.182306,97,0.587106,10,-6.16298e-05,-3.7392,-1.23519,-0.0477661,0.338137,
2,0,0,1,0,64547.4,0.334345,0.334024,-0.185109,97,0.58695,10,-6.18309e-05,-3.73257,-0.493497,-0.119555,0.334105,
2,0,0,1,0,64548.2,0.33035,0.33004,-0.18621,97,0.586793,10,-6.14568e-05,-3.73,-1.21218,-0.0486728,0.330122,
2,0,0,1,0,64549,0.326355,0.325993,-0.189899,97,0.586634,10,-6.19056e-05,-3.72148,-0.58714,-0.100487,0.326076,
2,0,0,0,0,64549.8,0.32236,0.322039,-0.191919,97,0.586474,10,-6.18055e-05,-3.71688,-0.932211,-0.0632904,0.322124,
2,0,0,1,0,64550.6,0.318365,0.31806,-0.193159,97,0.586311,10,-6.1436e-05,-3.71409,-0.70222,-0.0840193,0.318145,
2,0,0,0,0,64551.4,0.31437,0.314059,-0.196406,97,0.586146,10,-6.16829e-05,-3.70685,-0.858015,-0.0687634,0.314145,
2,0,0,1,0,64552.2,0.310374,0.31,-0.19901,97,0.585979,10,-6.16931e-05,-3.70113,-0.93844,-0.0628703,0.310088,
2,0,0,1,0,64553,0.306379,0.306048,-0.201865,97,0.58581,10,-6.17802e-05,-3.69494,-0.672719,-0.0877038,0.306136,
2,0,0,1,0,64553.8,0.302385,0.302027,-0.20381,97,0.58564,10,-6.15559e-05,-3.69078,-0.639035,-0.0923267,0.302116,
2,0,0,1,0,64554.6,0.298389,0.298055,-0.207181,97,0.585467,10,-6.17513e-05,-3.68365,-0.567267,-0.104007,0.298146,
2,0,0,0,0,64555.4,0.294394,0.294072,-0.208921,97,0.585291,10,-6.14379e-05,-3.68002,-0.888857,-0.0663774,0.294164,
2,0,0,1,0,64556.2,0.290398,0.290082,-0.212792,97,0.585114,10,-6.17272e-05,-3.67204,-0.592648,-0.0995532,0.290176,
2,0,0,1,0,64557,0.286403,0.286102,-0.214232,97,0.584935,10,-6.12922e-05,-3.66912,-1.19318,-0.0494478,0.286196,
2,0,0,1,0,64557.8,0.282408,0.282075,-0.2171,97,0.584753,10,-6.12386e-05,-3.66334,-0.875229,-0.067411,0.28217,
2,0,0,1,0,64558.6,0.278414,0.27811,-0.219487,97,0.584569,10,-6.10416e-05,-3.65859,-0.762178,-0.0774097,0.278207,
2,0,0,0,0,64559.4,0.274418,0.27409,-0.222454,97,0.584383,10,-6.09725e-05,-3.65276,-0.613929,-0.0961024,0.274188,
2,0,0,1,0,64560.2,0.270423,0.27011,-0.226087,97,0.584195,10,-6.10683e-05,-3.64573,-0.705577,-0.0836195,0.27021,
2,0,0,1,0,64561,0.266427,0.266143,-0.229011,97,0.584005,10,-6.09496e-05,-3.64014,-1.10968,-0.0531683,0.266243,
2,0,0,1,0,64561.8,0.262432,0.262128,-0.230947,97,0.583813,10,-6.05375e-05,-3.63649,-0.708338,-0.0832936,0.262229,
2,0,0,1,0,64562.6,0.258437,0.258087,-0.23327,97,0.583619,10,-6.0204e-05,-3.63214,-0.776647,-0.0759676,0.25819,
2,0,0,0,0,64563.4,0.254442,0.254099,-0.234409,97,0.583422,10,-5.95632e-05,-3.63002,-1.11501,-0.0529141,0.254202,
2,0,0,1,0,64564.2,0.250447,0.250117,-0.237827,97,0.583224,10,-5.94846e-05,-3.62374,-1.37136,-0.0430228,0.250222,
2,0,0,0,0,64565,0.246452,0.246111,-0.239928,97,0.583024,10,-5.9049e-05,-3.61992,-0.923083,-0.0639162,0.246217,
2,0,0,1,0,64565.8,0.242456,0.242125,-0.242784,97,0.582822,10,-5.87841e-05,-3.61478,-0.85422,-0.0690688,0.242232,
2,0,0,1,0,64566.6,0.238461,0.238137,-0.244856,97,0.582618,10,-5.83093e-05,-3.61109,-0.576395,-0.10236,0.238244,
2,0,0,1,0,64567.4,0.234467,0.234173,-0.24735,97,0.582412,10,-5.79228e-05,-3.60669,-1.07649,-0.0548077,0.234282,
2,0,0,1,0,64568.2,0.230471,0.230157,-0.250135,97,0.582204,10,-5.75704e-05,-3.60183,-1.78591,-0.0330363,0.230267,
2,0,0,0,0,64569,0.226476,0.226133,-0.252656,97,0.581994,10,-5.71338e-05,-3.59747,-0.562645,-0.104862,0.226244,
2,0,0,1,0,64569.8,0.222481,0.222177,-0.254037,97,0.581782,10,-5.64411e-05,-3.5951,-1.69179,-0.0348743,0.222288,
2,0,0,1,0,64570.6,0.218485,0.218129,-0.258502,97,0.581567,10,-5.63868e-05,-3.58754,-1.25522,-0.0470038,0.218243,
2,0,0,1,0,64571.4,0.21449,0.214163,-0.261083,97,0.581351,10,-5.59143e-05,-3.58322,-0.580624,-0.101615,0.214278,
2,0,0,1,0,64572.2,0.210496,0.210179,-0.262954,97,0.581132,10,-5.52673e-05,-3.58012,-0.863112,-0.0683573,0.210294,
2,0,0,0,0,64573,0.2065,0.206167,-0.266903,97,0.580911,10,-5.50265e-05,-3.57365,-0.694378,-0.0849681,0.206284,
2,0,0,1,0,64573.8,0.202505,0.202235,-0.26891,97,0.580687,10,-5.43829e-05,-3.57039,-1.47662,-0.039956,0.202353,
2,0,0,1,0,64574.6,0.198509,0.19816,-0.272212,97,0.580461,10,-5.39415e-05,-3.56509,-0.695666,-0.0848108,0.19828,
2,0,0,1,0,64575.4,0.194514,0.194174,-0.275817,97,0.580233,10,-5.35565e-05,-3.55938,-0.886691,-0.0665395,0.194296,
2,0,0,1,0,64576.2,0.190519,0.19021,-0.278654,97,0.580002,10,-5.30027e-05,-3.55494,-0.638898,-0.0923465,0.190333,
2,0,0,0,0,64577,0.186524,0.186234,-0.283674,97,0.579768,10,-5.28298e-05,-3.54718,-0.950157,-0.062095,0.186359,
2,0,0,1,0,64577.8,0.182529,0.182224,-0.28638,97,0.579531,10,-5.21852e-05,-3.54306,-0.448894,-0.131434,0.18235,
2,0,0,0,0,64578.6,0.178534,0.178209,-0.290692,97,0.57929,10,-5.1804e-05,-3.53657,-0.560761,-0.105214,0.178337,
2,0,0,1,0,64579.4,0.174538,0.174171,-0.296892,97,0.579045,10,-5.171e-05,-3.5274,-0.491907,-0.119941,0.174301,
2,0,0,1,0,64580.2,0.170543,0.170215,-0.30215,97,0.578796,10,-5.14303e-05,-3.51978,-0.424204,-0.139084,0.170348,
2,0,0,1,0,64581,0.166549,0.166217,-0.308883,97,0.578541,10,-5.13416e-05,-3.51021,-0.441176,-0.133733,0.166353,
2,0,0,1,0,64581.8,0.162553,0.162204,-0.317952,97,0.578281,10,-5.15732e-05,-3.49764,-0.301425,-0.195737,0.162344,
2,0,0,0,0,64582.6,0.158558,0.158264,-0.326013,97,0.578013,10,-5.1596e-05,-3.48677,-0.268999,-0.219332,0.158407,
2,0,0,1,0,64583.4,0.154563,0.154245,-0.339759,97,0.577736,10,-5.2406e-05,-3.46883,-0.252456,-0.233704,0.154394,
2,0,0,1,0,64584.2,0.150567,0.150239,-0.356184,97,0.577448,10,-5.35125e-05,-3.44833,-0.161529,-0.36526,0.150395,
2,0,0,1,0,64585,0.146572,0.146205,-0.378708,97,0.577145,10,-5.53688e-05,-3.4217,-0.141364,-0.417363,0.146371,
2,0,0,1,0,64585.8,0.142578,0.142252,-0.40576,97,0.576823,10,-5.77202e-05,-3.39173,-0.120229,-0.490729,0.142431,
2,0,0,0,0,64586.6,0.138582,0.13824,-0.44093,97,0.576475,10,-6.09542e-05,-3.35563,-0.102803,-0.573913,0.138434,
2,0,0,1,0,64587.4,0.134587,0.134286,-0.481562,97,0.576096,10,-6.4667e-05,-3.31735,-0.101489,-0.581346,0.134498,
2,0,0,1,0,64588.2,0.130591,0.130274,-0.525351,97,0.575683,10,-6.84396e-05,-3.27955,-0.114271,-0.516317,0.130505,
2,0,0,1,0,64589,0.126596,0.126269,-0.565375,97,0.575236,10,-7.13893e-05,-3.24766,-0.135208,-0.436365,0.126518,
2,0,0,1,0,64589.8,0.122602,0.122284,-0.601414,97,0.574757,10,-7.35435e-05,-3.22083,-0.189742,-0.310948,0.122549,
2,0,0,1,0,64590.6,0.118607,0.118291,-0.625786,97,0.574255,10,-7.40249e-05,-3.20357,-0.276316,-0.213524,0.118566,
2,0,0,1,0,64591.4,0.114611,0.114294,-0.641474,97,0.573737,10,-7.33167e-05,-3.19282,-0.563437,-0.104714,0.114576,
2,0,0,0,0,64592.2,0.110616,0.11026,-0.648425,97,0.573211,10,-7.14955e-05,-3.18814,-1.30004,-0.0453832,0.110546,
2,0,0,1,0,64593,0.10662,0.106295,-0.651006,97,0.572681,10,-6.91988e-05,-3.18641,-2.25425,-0.0261727,0.106582,
2,0,0,1,0,64593.8,0.102625,0.102299,-0.651949,97,0.57215,10,-6.66936e-05,-3.18579,2.72842,0.0216242,0.102586,
2,0,0,1,0,64594.6,0.0986305,0.0982547,-0.650201,97,0.57162,10,-6.38853e-05,-3.18695,3.28575,0.0179563,0.0985408,
2,0,0,1,0,64595.4,0.0946351,0.0942852,-0.644925,97,0.571091,10,-6.08069e-05,-3.19049,1.2339,0.047816,0.094569,
2,0,0,0,0,64596.2,0.0906399,0.0902811,-0.642215,97,0.570566,10,-5.79799e-05,-3.19232,1.08281,0.0544877,0.0905637,
2,0,0,1,0,64597,0.0866448,0.0862961,-0.635948,97,0.570045,10,-5.48798e-05,-3.19658,1.20922,0.0487916,0.0865759,
2,0,0,1,0,64597.8,0.0826492,0.0822979,-0.630568,97,0.569528,10,-5.18944e-05,-3.20027,0.738803,0.0798589,0.0825754,
2,0,0,1,0,64598.6,0.0786544,0.078287,-0.624011,97,0.569018,10,-4.88519e-05,-3.20481,0.879693,0.0670689,0.0785615,
2,0,0,1,0,64599.4,0.0746596,0.074334,-0.615731,97,0.568513,10,-4.57698e-05,-3.21061,0.849217,0.0694757,0.0746049,
2,0,0,0,0,64600.2,0.0706641,0.0703412,-0.607797,97,0.568013,10,-4.27532e-05,-3.21624,0.633635,0.0931136,0.0706087,
2,0,0,1,0,64601,0.0666689,0.0663233,-0.599599,97,0.56752,10,-3.97674e-05,-3.22214,0.832392,0.07088,0.0665872,
2,0,0,0,0,64601.8,0.0626737,0.0623436,-0.589818,97,0.567033,10,-3.67714e-05,-3.22928,0.638634,0.0923846,0.0626032,
2,0,0,1,0,64602.5,0.0586783,0.0583246,-0.584496,97,0.566552,10,-3.40905e-05,-3.23322,0.604639,0.0975789,0.0585818,
2,0,0,1,0,64603.3,0.0546835,0.0543441,-0.575984,97,0.566078,10,-3.13013e-05,-3.23959,0.739466,0.0797873,0.0545975,
2,0,0,1,0,64604.1,0.0506886,0.0503542,-0.56712,97,0.56561,10,-2.85568e-05,-3.24633,0.543777,0.1085,0.0506037,
2,0,0,1,0,64604.9,0.046693,0.0463251,-0.558725,97,0.56515,10,-2.5883e-05,-3.2528,0.597037,0.0988214,0.046571,
2,0,0,0,0,64605.7,0.0426979,0.0423645,-0.549163,97,0.564697,10,-2.3265e-05,-3.2603,0.587643,0.100401,0.0426062,
2,0,0,1,0,64606.5,0.0387022,0.0383631,-0.540625,97,0.564251,10,-2.074e-05,-3.2671,0.466942,0.126354,0.0386009,
2,0,0,1,0,64607.3,0.0347074,0.0343594,-0.530601,97,0.563813,10,-1.82312e-05,-3.27523,0.624951,0.0944074,0.0345929,
2,0,0,1,0,64608.1,0.0307126,0.0303695,-0.520117,97,0.563383,10,-1.57957e-05,-3.2839,0.489043,0.120644,0.0305984,
2,0,0,1,0,64608.9,0.0267172,0.0263662,-0.512678,97,0.562959,10,-1.35173e-05,-3.29016,0.606044,0.0973527,0.0265917,
2,0,0,0,0,64609.7,0.022722,0.0223992,-0.506624,97,0.562541,10,-1.1348e-05,-3.29531,0.890637,0.0662447,0.0226221,
2,0,0,1,0,64610.5,0.0187268,0.0183378,-0.500194,97,0.562129,10,-9.17248e-06,-3.30086,0.861476,0.0684871,0.0185579,
2,0,0,1,0,64611.3,0.0147313,0.0143717,-0.49666,97,0.561721,10,-7.13783e-06,-3.30394,0.984246,0.0599443,0.0145902,
2,0,0,1,0,64612.1,0.0107365,0.0103997,-0.493086,97,0.561317,10,-5.12796e-06,-3.30708,1.55817,0.0378649,0.0106167,
2,0,0,1,0,64612.9,0.00674163,0.00642128,-0.490709,97,0.560914,10,-3.15098e-06,-3.30918,2.79989,0.0210722,0.00663719,
2,0,0,0,0,64613.7,0.00274612,0.00239674,-0.489679,97,0.560512,10,-1.17363e-06,-3.31009,-1.59736,-0.0369358,0.0026122,
2,0,0,1,0,64614.2,0.000274105,-0.000104626,-0.492599,97,0.560261,10,5.15389e-08,-3.30751, , ,0.000112117,