File: Figure_codes/Fig_3-5/workspace_calculate_alpha_eff/20221101_1-115_003_TrumpetPlot_ParaChange_from10_every3_16_CV_C01_82.csv
mode,ox/red,error,control changes,counter inc.,time/s,control/V,Ewe/V,<I>/mA,cycle number,(Q-Qo)/C,I Range,P/W,log(|I|),Tafel slope mV/dec,alpha_eff,E-IR/V,
2,0,0,0,0,54793.6,2.44065e-05,-0.00042076,-0.0879455,83,0.0000000E+000,10,3.70039e-08,-4.05579, , ,-0.000382064,
2,1,0,0,0,54794.4,0.00379485,0.00346881,0.149171,83,9.1893e-05,10,5.17445e-07,-3.82632,0.031168,1.89297,0.00340318,
2,1,0,1,0,54795.2,0.00779002,0.00744746,0.172985,83,0.000232581,10,1.2883e-06,-3.76199,0.0764507,0.771739,0.00737134,
2,1,0,0,0,54796,0.0117852,0.0114409,0.189435,83,0.000389068,10,2.16732e-06,-3.72254,0.115754,0.509702,0.0113576,
2,1,0,1,0,54796.8,0.0157806,0.0154284,0.203067,83,0.000557081,10,3.133e-06,-3.69236,0.13892,0.424704,0.0153391,
2,1,0,1,0,54797.6,0.0197754,0.0193981,0.216027,83,0.000735595,10,4.19051e-06,-3.66549,0.163588,0.360662,0.0193031,
2,1,0,1,0,54798.4,0.0237704,0.0234562,0.229197,83,0.000924819,10,5.37609e-06,-3.63979,0.158562,0.372094,0.0233553,
2,1,0,1,0,54799.2,0.0277659,0.0274329,0.243674,83,0.0011243,10,6.68471e-06,-3.61319,0.160203,0.368282,0.0273257,
2,1,0,0,0,54800,0.0317611,0.0314487,0.25614,83,0.00133484,10,8.05528e-06,-3.59152,0.159272,0.370435,0.031336,
2,1,0,1,0,54800.8,0.0357567,0.035431,0.271819,83,0.00155669,10,9.63081e-06,-3.56572,0.235591,0.250434,0.0353114,
2,1,0,1,0,54801.6,0.0397516,0.0394167,0.284197,83,0.00178916,10,1.12021e-05,-3.54638,0.159351,0.370252,0.0392917,
2,1,0,1,0,54802.4,0.0437465,0.0433951,0.29755,83,0.00203315,10,1.29122e-05,-3.52644,0.19476,0.302936,0.0432642,
2,1,0,1,0,54803.2,0.0477413,0.0473851,0.312035,83,0.00228727,10,1.47858e-05,-3.5058,0.228994,0.257648,0.0472478,
2,1,0,0,0,54804,0.0517369,0.0513949,0.3226,83,0.00255117,10,1.658e-05,-3.49134,0.234253,0.251865,0.051253,
2,1,0,1,0,54804.8,0.0557321,0.0553842,0.334324,83,0.00282503,10,1.85162e-05,-3.47583,0.330139,0.178713,0.0552371,
2,1,0,1,0,54805.6,0.0597277,0.0593559,0.345339,83,0.0031072,10,2.04979e-05,-3.46175,0.272048,0.216873,0.0592039,
2,1,0,1,0,54806.4,0.0637226,0.0633925,0.355283,83,0.0033982,10,2.25223e-05,-3.44943,0.338221,0.174442,0.0632362,
2,1,0,1,0,54807.2,0.0677174,0.0673983,0.364902,83,0.00369757,10,2.45938e-05,-3.43782,0.48197,0.122414,0.0672378,
2,1,0,0,0,54808,0.0717128,0.0713783,0.372623,83,0.00400352,10,2.65972e-05,-3.42873,0.35703,0.165252,0.0712144,
2,1,0,1,0,54808.8,0.075708,0.0753538,0.379173,83,0.00431617,10,2.85721e-05,-3.42116,0.503833,0.117102,0.0751869,
2,1,0,0,0,54809.6,0.0797031,0.0793833,0.388453,83,0.00463494,10,3.08367e-05,-3.41066,0.456727,0.12918,0.0792124,
2,1,0,1,0,54810.4,0.0836986,0.083377,0.397108,83,0.00496015,10,3.31097e-05,-3.40109,0.358066,0.164774,0.0832023,
2,1,0,1,0,54811.2,0.0876935,0.0873713,0.407497,83,0.0052931,10,3.56036e-05,-3.38988,0.376799,0.156582,0.087192,
2,1,0,1,0,54812,0.0916883,0.0913741,0.421265,83,0.00563473,10,3.84927e-05,-3.37544,0.252177,0.233963,0.0911887,
2,1,0,1,0,54812.8,0.0956838,0.0953414,0.435554,83,0.00598814,10,4.15263e-05,-3.36096,0.21885,0.269591,0.0951497,
2,1,0,0,0,54813.6,0.099679,0.0993677,0.455513,83,0.00635547,10,4.52633e-05,-3.3415,0.249816,0.236173,0.0991673,
2,1,0,1,0,54814.4,0.103674,0.103362,0.474913,83,0.00673831,10,4.9088e-05,-3.32339,0.187812,0.314144,0.103153,
2,1,0,1,0,54815.2,0.10767,0.107332,0.495233,83,0.00713911,10,5.31542e-05,-3.30519,0.221577,0.266273,0.107114,
2,1,0,1,0,54816,0.111664,0.111318,0.516584,83,0.0075555,10,5.75053e-05,-3.28686,0.264486,0.223074,0.111091,
2,1,0,1,0,54816.8,0.115659,0.115314,0.530069,83,0.00798557,10,6.11243e-05,-3.27567,0.31009,0.190267,0.115081,
2,1,0,0,0,54817.6,0.119655,0.119316,0.543251,83,0.00842719,10,6.48186e-05,-3.265,0.691287,0.0853481,0.119077,
2,1,0,1,0,54818.4,0.12365,0.123348,0.553141,83,0.00887644,10,6.82287e-05,-3.25716,0.580016,0.101721,0.123104,
2,1,0,1,0,54819.2,0.127646,0.127292,0.557537,83,0.00933206,10,7.09698e-05,-3.25373,1.07402,0.054934,0.127046,
2,1,0,1,0,54820,0.131641,0.131305,0.55905,83,0.00979105,10,7.3406e-05,-3.25255,-0.647743,-0.0910856,0.131059,
2,1,0,1,0,54820.8,0.135635,0.135292,0.547035,83,0.0102454,10,7.40094e-05,-3.26199,-0.276336,-0.213508,0.135051,
2,1,0,0,0,54821.6,0.139631,0.139295,0.517052,83,0.0106838,10,7.20228e-05,-3.28647,-0.124659,-0.473292,0.139068,
2,1,0,1,0,54822.4,0.143626,0.143295,0.472527,83,0.0110912,10,6.77107e-05,-3.32557,-0.0833945,-0.707481,0.143087,
2,1,0,0,0,54823.2,0.147621,0.147256,0.418295,83,0.0114571,10,6.15963e-05,-3.37852,-0.0728221,-0.810193,0.147072,
2,1,0,1,0,54824,0.151617,0.151309,0.368666,83,0.0117813,10,5.57824e-05,-3.43337,-0.0815929,-0.723102,0.151147,
2,1,0,1,0,54824.8,0.155612,0.155268,0.33439,83,0.0120718,10,5.19202e-05,-3.47575,-0.11406,-0.517271,0.155121,
2,1,0,1,0,54825.6,0.159606,0.159266,0.311732,83,0.0123402,10,4.96483e-05,-3.50622,-0.164879,-0.357837,0.159128,
2,1,0,1,0,54826.4,0.163602,0.16326,0.297428,83,0.0125944,10,4.85582e-05,-3.52662,-0.196427,-0.300366,0.16313,
2,1,0,0,0,54827.2,0.167597,0.167287,0.287717,83,0.0128386,10,4.81312e-05,-3.54103,-0.409588,-0.144047,0.16716,
2,1,0,1,0,54828,0.171592,0.171275,0.280228,83,0.0130766,10,4.79961e-05,-3.55249,-0.446934,-0.132011,0.171152,
2,1,0,1,0,54828.8,0.175588,0.175241,0.275692,83,0.0133095,10,4.83125e-05,-3.55958,-0.483825,-0.121945,0.17512,
2,1,0,1,0,54829.6,0.179582,0.179258,0.271427,83,0.0135386,10,4.86554e-05,-3.56635,-0.968406,-0.0609248,0.179138,
2,1,0,1,0,54830.4,0.183577,0.183237,0.268418,83,0.0137652,10,4.91841e-05,-3.57119,-0.60705,-0.0971913,0.183119,
2,1,0,0,0,54831.1,0.187573,0.187265,0.266043,83,0.0139893,10,4.98205e-05,-3.57505,-1.30377,-0.0452533,0.187148,
2,1,0,1,0,54831.9,0.191568,0.191262,0.263374,83,0.0142116,10,5.03733e-05,-3.57943,-1.96105,-0.0300859,0.191146,
2,1,0,0,0,54832.7,0.195563,0.195231,0.263168,83,0.0144329,10,5.13785e-05,-3.57977,-0.768817,-0.0767413,0.195115,
2,1,0,1,0,54833.5,0.199559,0.199226,0.260468,83,0.0146522,10,5.18921e-05,-3.58425,-6.21992,-0.00948566,0.199112,
2,1,0,1,0,54834.3,0.203553,0.203202,0.258465,83,0.0148701,10,5.25204e-05,-3.5876,-1.77938,-0.0331577,0.203088,
2,1,0,1,0,54835.1,0.207548,0.20724,0.259132,83,0.0150872,10,5.37027e-05,-3.58648,-1.92965,-0.0305755,0.207126,
2,1,0,1,0,54835.9,0.211544,0.211202,0.256043,83,0.0153032,10,5.4077e-05,-3.59169,-1.38376,-0.0426374,0.21109,
2,1,0,0,0,54836.7,0.215539,0.215219,0.25603,83,0.0155182,10,5.51026e-05,-3.59171,-1.69644,-0.0347787,0.215107,
2,1,0,1,0,54837.5,0.219535,0.219227,0.255244,83,0.015732,10,5.59564e-05,-3.59304,-3.00076,-0.0196617,0.219115,
2,1,0,1,0,54838.3,0.223529,0.223187,0.253398,83,0.0159449,10,5.65552e-05,-3.5962,-2.1348,-0.0276372,0.223076,
2,1,0,1,0,54839.1,0.227524,0.227163,0.251875,83,0.0161568,10,5.72167e-05,-3.59882,-1.11793,-0.0527763,0.227053,
2,1,0,1,0,54839.9,0.23152,0.23119,0.250525,83,0.0163678,10,5.79189e-05,-3.60115,88.6573,0.000665484,0.23108,
2,1,0,0,0,54840.7,0.235515,0.235203,0.249409,83,0.0165784,10,5.86617e-05,-3.60309,-5.53585,-0.0106578,0.235093,
2,1,0,1,0,54841.5,0.23951,0.239195,0.248954,83,0.0167881,10,5.95486e-05,-3.60388,-1.79502,-0.0328687,0.239085,
2,1,0,1,0,54842.3,0.243506,0.243215,0.248157,83,0.016997,10,6.03557e-05,-3.60527,-7.99933,-0.00737562,0.243106,
2,1,0,1,0,54843.1,0.2475,0.247145,0.248491,83,0.0172057,10,6.14133e-05,-3.60469,-5.34256,-0.0110434,0.247035,
2,1,0,1,0,54843.9,0.251495,0.25119,0.246989,83,0.0174136,10,6.20412e-05,-3.60732,-1.60678,-0.0367195,0.251081,
2,1,0,0,0,54844.7,0.255491,0.255143,0.246189,83,0.0176207,10,6.28133e-05,-3.60873,-4.947,-0.0119264,0.255034,
2,1,0,1,0,54845.5,0.259486,0.259179,0.244439,83,0.0178272,10,6.33535e-05,-3.61183,-1.09293,-0.0539834,0.259072,
2,1,0,0,0,54846.3,0.263481,0.263153,0.244394,83,0.0180331,10,6.43131e-05,-3.61191,11.5939,0.00508889,0.263045,
2,1,0,1,0,54847.1,0.267477,0.267181,0.243657,83,0.0182386,10,6.51006e-05,-3.61322,-7.10143,-0.00830819,0.267074,
2,1,0,1,0,54847.9,0.271471,0.271176,0.244462,83,0.0184433,10,6.62922e-05,-3.61179,-4.13984,-0.0142518,0.271068,
2,1,0,1,0,54848.7,0.275466,0.275126,0.241943,83,0.0186474,10,6.65648e-05,-3.61629,-1.97404,-0.029888,0.27502,
2,1,0,1,0,54849.5,0.279462,0.279117,0.241569,83,0.0188507,10,6.74261e-05,-3.61696,-1.36806,-0.0431268,0.279011,
2,1,0,0,0,54850.3,0.283457,0.283099,0.240636,83,0.0190528,10,6.81237e-05,-3.61864,-52.2352,-0.00112951,0.282993,
2,1,0,1,0,54851.1,0.287452,0.287115,0.239643,83,0.0192544,10,6.88049e-05,-3.62044,-1.42637,-0.0413638,0.287009,
2,1,0,1,0,54851.9,0.291448,0.29115,0.239141,83,0.0194552,10,6.96258e-05,-3.62135,-2.23429,-0.0264066,0.291045,
2,1,0,1,0,54852.7,0.295442,0.295103,0.237174,83,0.0196551,10,6.99907e-05,-3.62493,-46.8649,-0.00125894,0.294998,
2,1,0,1,0,54853.5,0.299437,0.299159,0.236279,83,0.0198545,10,7.06849e-05,-3.62658,-1.14592,-0.0514869,0.299055,
2,1,0,0,0,54854.3,0.303433,0.303112,0.236847,83,0.0200528,10,7.17913e-05,-3.62553,-2.39807,-0.0246031,0.303008,
2,1,0,1,0,54855.1,0.307428,0.307131,0.23541,83,0.0202503,10,7.23019e-05,-3.62817,-3.54141,-0.01666,0.307027,
2,1,0,1,0,54855.9,0.311424,0.311089,0.234655,83,0.0204474,10,7.29984e-05,-3.62957,-2.90898,-0.0202821,0.310986,
2,1,0,1,0,54856.7,0.315418,0.315113,0.233527,83,0.0206436,10,7.35872e-05,-3.63166,-1.84225,-0.032026,0.31501,
2,1,0,1,0,54857.5,0.319413,0.319098,0.233601,83,0.0208393,10,7.45416e-05,-3.63153,-5.37309,-0.0109807,0.318996,
2,1,0,0,0,54858.3,0.323409,0.323089,0.232438,83,0.0210346,10,7.50982e-05,-3.63369,-3.02569,-0.0194997,0.322987,
2,1,0,1,0,54859.1,0.327404,0.327089,0.231859,83,0.0212291,10,7.58386e-05,-3.63478,7.81118,0.00755327,0.326987,
2,1,0,0,0,54859.9,0.331399,0.331081,0.231469,83,0.0214231,10,7.6635e-05,-3.63551,-2.19307,-0.026903,0.33098,
2,1,0,1,0,54860.7,0.335395,0.335071,0.230865,83,0.0216168,10,7.7356e-05,-3.63664,-3.47967,-0.0169557,0.334969,
2,1,0,1,0,54861.5,0.339389,0.339059,0.23027,83,0.0218099,10,7.8075e-05,-3.63776,-8.74883,-0.00674376,0.338958,
2,1,0,1,0,54862.3,0.343384,0.343066,0.229979,83,0.0220028,10,7.88979e-05,-3.63831,-2.10159,-0.0280739,0.342965,
2,1,0,1,0,54863.1,0.34738,0.347049,0.229402,83,0.0221951,10,7.96137e-05,-3.6394,-7.63534,-0.00772723,0.346948,
2,1,0,0,0,54863.9,0.351375,0.351035,0.22953,83,0.0223869,10,8.05731e-05,-3.63916,-3.59095,-0.0164302,0.350934,
2,1,0,1,0,54864.7,0.35537,0.355058,0.22871,83,0.0225785,10,8.12055e-05,-3.64071,-10.5974,-0.00556741,0.354958,
2,1,0,1,0,54865.5,0.359366,0.358986,0.228323,83,0.0227696,10,8.19646e-05,-3.64145,3.4696,0.0170049,0.358886,
2,1,0,1,0,54866.3,0.36336,0.36305,0.226979,83,0.0229605,10,8.24049e-05,-3.64401,-1.7152,-0.0343984,0.362951,
2,1,0,1,0,54867.1,0.367355,0.367005,0.227615,83,0.0231505,10,8.35359e-05,-3.6428,22.0757,0.00267262,0.366905,
2,1,0,0,0,54867.9,0.371351,0.371015,0.226558,83,0.0233401,10,8.40563e-05,-3.64482,-24.6047,-0.00239791,0.370916,
2,1,0,1,0,54868.7,0.375346,0.3751,0.225511,83,0.0235295,10,8.45891e-05,-3.64683,-1.11739,-0.0528016,0.375001,
2,1,0,1,0,54869.5,0.379342,0.379008,0.225011,83,0.0237183,10,8.52811e-05,-3.6478,-5.83862,-0.0101051,0.378909,
2,1,0,1,0,54870.3,0.383336,0.383016,0.225216,83,0.0239068,10,8.62615e-05,-3.6474,-2.91929,-0.0202104,0.382917,
2,1,0,1,0,54871.1,0.387331,0.38702,0.225416,83,0.0240949,10,8.72405e-05,-3.64701,179.845,0.00032806,0.386921,
2,1,0,0,0,54871.9,0.391327,0.390995,0.223609,83,0.0242827,10,8.74299e-05,-3.65051,-6.37353,-0.00925704,0.390897,
2,1,0,1,0,54872.7,0.395322,0.394968,0.22448,83,0.0244702,10,8.86624e-05,-3.64882,4.01194,0.0147061,0.394869,
2,1,0,0,0,54873.5,0.399317,0.399011,0.224937,83,0.0246574,10,8.97522e-05,-3.64794,-2.69276,-0.0219106,0.398912,
2,1,0,1,0,54874.3,0.403313,0.402957,0.224101,83,0.0248445,10,9.03033e-05,-3.64956,5.17848,0.0113933,0.402859,
2,1,0,1,0,54875.1,0.407307,0.40695,0.223149,83,0.0250314,10,9.08105e-05,-3.65141,-4.18336,-0.0141035,0.406852,
2,1,0,1,0,54875.9,0.411302,0.410937,0.224496,83,0.025218,10,9.22538e-05,-3.64879,-3.86498,-0.0152653,0.410838,
2,1,0,1,0,54876.7,0.415298,0.414934,0.223641,83,0.0254047,10,9.27962e-05,-3.65045,16.5985,0.00355455,0.414836,
2,1,0,0,0,54877.5,0.419293,0.41899,0.223386,83,0.0255911,10,9.35966e-05,-3.65094,-2.57471,-0.0229152,0.418892,
2,1,0,1,0,54878.3,0.423288,0.422945,0.222551,83,0.025777,10,9.41271e-05,-3.65257,6.00671,0.00982236,0.422848,
2,1,0,1,0,54879.1,0.427283,0.426971,0.222646,83,0.025963,10,9.50633e-05,-3.65239,-9.25796,-0.0063729,0.426873,
2,1,0,1,0,54879.9,0.431278,0.430957,0.222822,83,0.0261487,10,9.60268e-05,-3.65204,8.64254,0.00682669,0.430859,
2,1,0,1,0,54880.7,0.435273,0.43495,0.222954,83,0.0263344,10,9.69737e-05,-3.65179,7.1667,0.00823252,0.434852,
2,1,0,0,0,54881.5,0.439269,0.43895,0.223031,83,0.02652,10,9.78997e-05,-3.65163,-1.71742,-0.0343538,0.438852,
2,1,0,1,0,54882.3,0.443264,0.442967,0.222958,83,0.0267052,10,9.87629e-05,-3.65178,4.25654,0.013861,0.442869,
2,1,0,0,0,54883.1,0.447259,0.446885,0.2232,83,0.0268905,10,9.97448e-05,-3.65131,4.05759,0.0145407,0.446787,
2,1,0,1,0,54883.9,0.451254,0.450951,0.223208,83,0.0270761,10,0.000100656,-3.65129,-2.74273,-0.0215115,0.450853,
2,1,0,1,0,54884.7,0.455249,0.454936,0.222535,83,0.0272613,10,0.000101239,-3.6526,3.79118,0.0155624,0.454838,
2,1,0,1,0,54885.5,0.459244,0.458963,0.222429,83,0.0274466,10,0.000102087,-3.65281,4.9494,0.0119206,0.458865,
2,1,0,1,0,54886.3,0.46324,0.462929,0.222631,83,0.0276321,10,0.000103062,-3.65241,5.29313,0.0111465,0.462831,
2,1,0,0,0,54887.1,0.467235,0.466904,0.224025,83,0.027818,10,0.000104598,-3.6497,-73.7468,-0.000800035,0.466805,
2,1,0,1,0,54887.9,0.471231,0.47089,0.224239,83,0.028004,10,0.000105592,-3.64929,3.4405,0.0171487,0.470791,
2,1,0,1,0,54888.7,0.475225,0.474888,0.225114,83,0.0281901,10,0.000106904,-3.6476,2.44413,0.0241394,0.474789,
2,1,0,1,0,54889.5,0.47922,0.478884,0.224809,83,0.0283767,10,0.000107657,-3.64819,-7.7862,-0.0075775,0.478785,
2,1,0,1,0,54890.3,0.483216,0.482866,0.22611,83,0.0285634,10,0.000109181,-3.64568,29.1041,0.00202721,0.482766,
2,1,0,0,0,54891.1,0.487211,0.486857,0.226599,83,0.0287505,10,0.000110321,-3.64474,1.83744,0.03211,0.486757,
2,1,0,1,0,54891.9,0.491206,0.490883,0.226042,83,0.0289381,10,0.00011096,-3.64581,1.98104,0.0297823,0.490783,
2,1,0,1,0,54892.7,0.495201,0.494865,0.227373,83,0.0291261,10,0.000112519,-3.64326,695.861,8.47871e-05,0.494765,
2,1,0,1,0,54893.5,0.499196,0.498863,0.227781,83,0.0293145,10,0.000113632,-3.64248,1.26967,0.0464687,0.498763,
2,1,0,1,0,54894.3,0.503191,0.502882,0.228708,83,0.0295038,10,0.000115013,-3.64072,5.24166,0.011256,0.502781,
2,1,0,0,0,54895.1,0.507187,0.506844,0.229904,83,0.0296935,10,0.000116525,-3.63845,1.83315,0.0321851,0.506743,
2,1,0,1,0,54895.9,0.511182,0.510857,0.229802,83,0.0298835,10,0.000117396,-3.63865,8.4278,0.00700064,0.510756,
2,1,0,0,0,54896.7,0.515177,0.514893,0.230997,83,0.0300744,10,0.000118939,-3.63639,9.42358,0.00626089,0.514792,
2,1,0,1,0,54897.5,0.519173,0.518859,0.232059,83,0.0302659,10,0.000120406,-3.6344,1.45374,0.0405849,0.518756,
2,1,0,1,0,54898.3,0.523167,0.522827,0.232954,83,0.0304584,10,0.000121795,-3.63273,2.05465,0.0287154,0.522725,
2,1,0,1,0,54899.1,0.527162,0.526863,0.234832,83,0.0306518,10,0.000123724,-3.62924,0.958145,0.0615773,0.526759,
2,1,0,1,0,54899.9,0.531158,0.530779,0.235958,83,0.0308463,10,0.000125242,-3.62716,1.63995,0.0359768,0.530675,
2,1,0,0,0,54900.7,0.535153,0.534845,0.237589,83,0.031042,10,0.000127073,-3.62417,1.50237,0.0392712,0.53474,
2,1,0,1,0,54901.5,0.539148,0.538798,0.239541,83,0.0312388,10,0.000129064,-3.62062,1.27185,0.0463892,0.538693,
2,1,0,1,0,54902.3,0.543143,0.542815,0.240987,83,0.0314368,10,0.000130812,-3.61801,1.28696,0.0458446,0.542709,
2,1,0,1,0,54903.1,0.547138,0.54679,0.242617,83,0.0316361,10,0.000132661,-3.61508,6.66907,0.00884681,0.546683,
2,1,0,1,0,54903.9,0.551133,0.550836,0.244595,83,0.0318368,10,0.000134732,-3.61155,0.781022,0.075542,0.550729,
2,1,0,0,0,54904.7,0.555129,0.554794,0.246167,83,0.0320393,10,0.000136572,-3.60877,0.828419,0.07122,0.554686,
2,1,0,1,0,54905.5,0.559124,0.558782,0.24926,83,0.0322434,10,0.000139282,-3.60335,0.944305,0.0624798,0.558673,
2,1,0,1,0,54906.3,0.56312,0.56285,0.251751,83,0.0324496,10,0.000141698,-3.59903,1.04657,0.0563744,0.562739,
2,1,0,1,0,54907.1,0.567114,0.566824,0.25415,83,0.032658,10,0.000144058,-3.59491,0.743085,0.0793987,0.566712,
2,1,0,1,0,54907.9,0.571109,0.570808,0.257099,83,0.0328685,10,0.000146754,-3.5899,0.662111,0.0891089,0.570695,
2,1,0,0,0,54908.7,0.575105,0.574771,0.260348,83,0.0330816,10,0.000149641,-3.58445,0.680286,0.0867282,0.574657,
2,1,0,1,0,54909.5,0.5791,0.578758,0.264865,83,0.0332977,10,0.000153293,-3.57698,0.855916,0.068932,0.578642,
2,1,0,0,0,54910.3,0.583095,0.582776,0.267894,83,0.0335166,10,0.000156122,-3.57204,0.502817,0.117339,0.582658,
2,1,0,1,0,54911.1,0.58709,0.586771,0.272375,83,0.033739,10,0.000159822,-3.56483,0.494783,0.119244,0.586651,
2,1,0,1,0,54911.9,0.591085,0.590745,0.278768,83,0.0339652,10,0.000164681,-3.55476,0.460985,0.127987,0.590623,
2,1,0,1,0,54912.7,0.59508,0.594796,0.283494,83,0.0341957,10,0.000168621,-3.54746,0.449645,0.131215,0.594671,
2,1,0,1,0,54913.4,0.599076,0.598756,0.289579,83,0.0344311,10,0.000173387,-3.53823,0.412157,0.143149,0.598628,
2,1,0,0,0,54914.2,0.603071,0.602747,0.297341,83,0.0346716,10,0.000179221,-3.52675,0.362827,0.162612,0.602616,
2,1,0,1,0,54915,0.607066,0.606748,0.304495,83,0.0349181,10,0.000184751,-3.51642,0.329072,0.179292,0.606614,
2,1,0,1,0,54915.8,0.611061,0.610751,0.31383,83,0.0351714,10,0.000191672,-3.50331,0.338105,0.174502,0.610613,
2,1,0,1,0,54916.6,0.615056,0.614743,0.323627,83,0.0354317,10,0.000198948,-3.48995,0.254563,0.23177,0.614601,
2,1,0,1,0,54917.4,0.619051,0.618777,0.335147,83,0.0357012,10,0.000207381,-3.47476,0.245275,0.240546,0.618629,
2,1,0,0,0,54918.2,0.623047,0.622739,0.349379,83,0.0359805,10,0.000217572,-3.4567,0.216339,0.272721,0.622585,
2,1,0,1,0,54919,0.627042,0.626735,0.363912,83,0.0362714,10,0.000228077,-3.439,0.20827,0.283286,0.626575,
2,1,0,1,0,54919.8,0.631037,0.630733,0.38332,83,0.0365759,10,0.000241772,-3.41644,0.176324,0.334611,0.630564,
2,1,0,1,0,54920.6,0.635032,0.634723,0.40455,83,0.0368962,10,0.000256777,-3.39303,0.158802,0.371533,0.634545,
2,1,0,1,0,54921.4,0.639027,0.638707,0.428286,83,0.0372348,10,0.00027355,-3.36827,0.151339,0.389852,0.638519,
2,1,0,1,0,54922.2,0.643022,0.642728,0.456865,83,0.0375944,10,0.00029364,-3.34021,0.139227,0.423769,0.642527,
2,1,0,1,0,54923,0.647018,0.646711,0.489462,83,0.0379781,10,0.000316541,-3.31028,0.125496,0.470135,0.646496,
2,1,0,0,0,54923.8,0.651013,0.650712,0.528045,83,0.0383906,10,0.000343606,-3.27733,0.11797,0.500128,0.65048,
2,1,0,1,0,54924.6,0.655008,0.6547,0.571321,83,0.0388356,10,0.000374044,-3.24312,0.111995,0.52681,0.654448,
2,1,0,1,0,54925.4,0.659003,0.658648,0.62327,83,0.0393184,10,0.000410515,-3.20532,0.101864,0.579206,0.658373,
2,1,0,1,0,54926.2,0.662998,0.66268,0.683776,83,0.0398463,10,0.000453125,-3.16509,0.0980656,0.601638,0.662379,
2,1,0,1,0,54927,0.666994,0.666692,0.751656,83,0.0404251,10,0.000501123,-3.12398,0.0903293,0.653166,0.666361,
2,1,0,0,0,54927.8,0.670989,0.670699,0.831259,83,0.0410634,10,0.000557524,-3.08026,0.0898893,0.656363,0.670333,
2,1,0,1,0,54928.6,0.674984,0.674659,0.922512,83,0.0417694,10,0.000622381,-3.03503,0.0885448,0.666329,0.674254,
2,1,0,1,0,54929.4,0.67898,0.678638,1.02499,83,0.0425524,10,0.000695599,-2.98928,0.0856206,0.689087,0.678187,
2,1,0,1,0,54930.2,0.682974,0.682626,1.13951,83,0.0434224,10,0.000777863,-2.94328,0.0834687,0.706852,0.682125,
2,1,0,1,0,54931,0.686969,0.686695,1.2698,83,0.04439,10,0.000871965,-2.89626,0.0843142,0.699764,0.686136,
2,1,0,0,0,54931.8,0.690965,0.69066,1.41497,83,0.0454679,10,0.000977262,-2.84925,0.0835736,0.705965,0.690037,
2,1,0,1,0,54932.6,0.69496,0.694641,1.57485,83,0.0466674,10,0.00109396,-2.80276,0.0856016,0.689239,0.693948,
2,1,0,0,0,54933.4,0.698955,0.698644,1.7521,83,0.0480012,10,0.0012241,-2.75644,0.0849518,0.694511,0.697873,
2,1,0,1,0,54934.2,0.70295,0.702639,1.94465,83,0.0494834,10,0.00136639,-2.71116,0.0867108,0.680423,0.701784,
2,1,0,1,0,54935,0.706945,0.706651,2.15544,83,0.0511264,10,0.00152314,-2.66647,0.0881112,0.669609,0.705702,
2,1,0,1,0,54935.8,0.71094,0.710629,2.38221,83,0.0529442,10,0.00169287,-2.62302,0.0898329,0.656775,0.709581,
2,1,0,1,0,54936.6,0.714936,0.714686,2.62532,83,0.0549502,10,0.00187628,-2.58082,0.0942699,0.625863,0.71353,
2,1,0,0,0,54937.4,0.718931,0.718619,2.88805,83,0.0571576,10,0.0020754,-2.5394,0.0963355,0.612443,0.717348,
2,1,0,1,0,54938.2,0.722927,0.722645,3.16472,83,0.0595807,10,0.00228697,-2.49966,0.0965489,0.611089,0.721253,
2,1,0,1,0,54939,0.726921,0.726614,3.46302,83,0.0622339,10,0.00251628,-2.46055,0.100759,0.585555,0.72509,
2,1,0,1,0,54939.8,0.730916,0.730578,3.77754,83,0.0651312,10,0.00275979,-2.42279,0.104593,0.564089,0.728916,
2,1,0,1,0,54940.6,0.734911,0.734584,4.11137,83,0.0682884,10,0.00302015,-2.38601,0.105168,0.561006,0.732775,
2,1,0,0,0,54941.4,0.738907,0.73861,4.46571,83,0.0717203,10,0.00329842,-2.35011,0.109169,0.540448,0.736645,
2,1,0,1,0,54942.2,0.742902,0.74266,4.83935,83,0.0754421,10,0.00359399,-2.31521,0.10944,0.539109,0.740531,
2,1,0,1,0,54943,0.746897,0.746553,5.23437,83,0.0794722,10,0.00390774,-2.28114,0.113826,0.518336,0.74425,
2,1,0,1,0,54943.8,0.750892,0.750589,5.65162,83,0.0838259,10,0.00424204,-2.24783,0.115737,0.509775,0.748102,
2,1,0,1,0,54944.6,0.754887,0.754568,6.09121,83,0.0885227,10,0.00459624,-2.2153,0.117288,0.503036,0.751888,
2,1,0,0,0,54945.4,0.758883,0.758573,6.55719,83,0.0935822,10,0.00497411,-2.18328,0.118761,0.496798,0.755687,
2,1,0,1,0,54946.2,0.762878,0.762584,7.04775,83,0.0990222,10,0.0053745,-2.15195,0.12237,0.482144,0.759483,
2,1,0,0,0,54947,0.766873,0.766557,7.56568,83,0.104866,10,0.00579953,-2.12115,0.123437,0.477976,0.763229,
2,1,0,1,0,54947.8,0.770868,0.770598,8.1146,83,0.111136,10,0.00625309,-2.09073,0.124989,0.472041,0.767028,
2,1,0,1,0,54948.6,0.774863,0.774572,8.6916,83,0.117854,10,0.00673227,-2.0609,0.123902,0.476185,0.770748,
2,1,0,1,0,54949.4,0.778858,0.778541,9.30717,83,0.125049,10,0.00724602,-2.03118,0.126618,0.46597,0.774446,
2,1,0,1,0,54950.2,0.782854,0.782574,9.96039,83,0.13275,10,0.00779474,-2.00172,0.125599,0.469748,0.778191,
2,1,0,0,0,54951,0.786849,0.786556,10.655,83,0.140991,10,0.00838071,-1.97245,0.126362,0.466912,0.781867,
2,1,0,1,0,54951.8,0.790844,0.790532,11.3929,83,0.149802,10,0.00900644,-1.94337,0.126374,0.466869,0.785519,
2,1,0,1,0,54952.6,0.794839,0.794581,12.178,83,0.159223,10,0.00967638,-1.91443,0.125275,0.470964,0.789223,
2,1,0,1,0,54953.4,0.798834,0.798501,13.0249,83,0.169295,10,0.0104004,-1.88523,0.120715,0.488755,0.79277,
2,1,0,1,0,54954.2,0.802829,0.802534,13.9332,83,0.18007,10,0.0111819,-1.85595,0.126024,0.468165,0.796403,
2,1,0,0,0,54955,0.806825,0.80652,14.8831,83,0.191589,10,0.0120035,-1.82731,0.123579,0.477429,0.799971,
2,1,0,1,0,54955.8,0.81082,0.81052,15.8925,83,0.203887,10,0.0128812,-1.79881,0.130121,0.453423,0.803527,
2,1,0,1,0,54956.6,0.814815,0.814542,16.9139,83,0.216992,10,0.0137771,-1.77176,0.127476,0.462831,0.8071,
2,1,0,1,0,54957.4,0.81881,0.818482,18.0157,83,0.230953,10,0.0147455,-1.74435,0.127599,0.462388,0.810555,
2,1,0,1,0,54958.2,0.822805,0.822564,19.1921,83,0.245819,10,0.0157867,-1.71688,0.129919,0.45413,0.81412,
2,1,0,0,0,54959,0.826801,0.826517,20.3963,83,0.261642,10,0.0168579,-1.69045,0.131253,0.449513,0.817543,
2,1,0,1,0,54959.8,0.830796,0.830522,21.6382,83,0.278441,10,0.017971,-1.66478,0.138977,0.42453,0.821001,
2,1,0,0,0,54960.6,0.834791,0.834472,22.8663,83,0.296229,10,0.0190813,-1.6408,0.14691,0.401608,0.824411,
2,1,0,1,0,54961.4,0.838786,0.838479,24.1649,83,0.315024,10,0.0202618,-1.61681,0.145392,0.405799,0.827846,
2,1,0,1,0,54962.2,0.842781,0.842463,25.4581,83,0.334858,10,0.0214475,-1.59417,0.14847,0.397386,0.831262,
2,1,0,1,0,54963,0.846776,0.846547,26.7949,83,0.355748,10,0.0226832,-1.57195,0.181664,0.324776,0.834757,
2,1,0,0,0,54963.7,0.849723,0.849457,27.5631,83,0.374826,10,0.0234136,-1.55967,0.0446397,1.32169,0.837329,
2,1,0,1,0,54964.5,0.845728,0.845441,25.5887,83,0.396003,10,0.0216337,-1.59195,0.112129,0.526178,0.834182,
2,1,0,0,0,54965.3,0.841732,0.84146,23.9309,83,0.415767,10,0.0201369,-1.62104,0.112675,0.523629,0.830931,
2,1,0,1,0,54966.1,0.837737,0.837451,22.3943,83,0.43426,10,0.0187541,-1.64986,0.11688,0.50479,0.827597,
2,1,0,1,0,54966.9,0.833742,0.833434,20.9688,83,0.451567,10,0.0174761,-1.67843,0.117886,0.500483,0.824208,
2,1,0,1,0,54967.7,0.829747,0.829476,19.649,83,0.467774,10,0.0162984,-1.70666,0.121805,0.48438,0.82083,
2,1,0,1,0,54968.5,0.825752,0.825472,18.4002,83,0.482961,10,0.0151888,-1.73518,0.122706,0.480825,0.817375,
2,1,0,0,0,54969.3,0.821757,0.821478,17.2046,83,0.497177,10,0.0141332,-1.76435,0.116793,0.505169,0.813908,
2,1,0,1,0,54970.1,0.817761,0.817432,16.0504,83,0.51045,10,0.0131201,-1.79451,0.117988,0.500052,0.81037,
2,1,0,1,0,54970.9,0.813766,0.813491,15.0022,83,0.522842,10,0.0122041,-1.82385,0.118751,0.496838,0.80689,
2,1,0,1,0,54971.7,0.809771,0.809481,14.0031,83,0.534418,10,0.0113352,-1.85378,0.118102,0.499569,0.80332,
2,1,0,1,0,54972.5,0.805776,0.805488,13.0512,83,0.545215,10,0.0105126,-1.88435,0.115946,0.508857,0.799745,
2,1,0,0,0,54973.3,0.801781,0.801526,12.1617,83,0.555275,10,0.00974789,-1.91501,0.119745,0.492712,0.796175,
2,1,0,1,0,54974.1,0.797786,0.797482,11.3185,83,0.564645,10,0.00902627,-1.94621,0.113981,0.517631,0.792502,
2,1,0,1,0,54974.9,0.79379,0.793469,10.5213,83,0.57336,10,0.00834832,-1.97793,0.115386,0.511325,0.78884,
2,1,0,1,0,54975.7,0.789795,0.789476,9.77598,83,0.581459,10,0.0077179,-2.00984,0.11457,0.514971,0.785175,
2,1,0,1,0,54976.5,0.7858,0.785472,9.07075,83,0.588978,10,0.00712482,-2.04236,0.112817,0.522971,0.781481,
2,1,0,0,0,54977.3,0.781805,0.781501,8.4112,83,0.595953,10,0.00657336,-2.07514,0.113101,0.521658,0.7778,
2,1,0,1,0,54978.1,0.77781,0.77748,7.80068,83,0.60242,10,0.00606487,-2.10787,0.112105,0.52629,0.774047,
2,1,0,0,0,54978.9,0.773814,0.773535,7.2173,83,0.60841,10,0.00558283,-2.14163,0.107576,0.548448,0.770359,
2,1,0,1,0,54979.7,0.769819,0.769504,6.6664,83,0.613947,10,0.00512982,-2.17611,0.111329,0.529962,0.766571,
2,1,0,1,0,54980.5,0.765824,0.765528,6.15999,83,0.619062,10,0.00471564,-2.21042,0.108978,0.541395,0.762818,
2,1,0,1,0,54981.3,0.761829,0.761553,5.68418,83,0.623784,10,0.0043288,-2.24533,0.109711,0.537775,0.759051,
2,1,0,1,0,54982.1,0.757834,0.757526,5.24242,83,0.628142,10,0.00397127,-2.28047,0.107179,0.55048,0.755219,
2,1,0,0,0,54982.9,0.753839,0.753506,4.82601,83,0.632155,10,0.00363643,-2.31641,0.104329,0.565519,0.751382,
2,1,0,1,0,54983.7,0.749844,0.749551,4.43587,83,0.635847,10,0.00332491,-2.35302,0.10425,0.565949,0.747599,
2,1,0,1,0,54984.5,0.745848,0.745557,4.06897,83,0.639238,10,0.00303365,-2.39052,0.0999659,0.590201,0.743766,
2,1,0,1,0,54985.3,0.741853,0.74155,3.72059,83,0.642342,10,0.00275901,-2.42939,0.0976412,0.604253,0.739913,
2,1,0,1,0,54986.1,0.737858,0.737571,3.39585,83,0.645177,10,0.00250468,-2.46905,0.0974457,0.605465,0.736077,
2,1,0,0,0,54986.9,0.733863,0.733599,3.09228,83,0.647762,10,0.00226849,-2.50972,0.0927201,0.636323,0.732238,
2,1,0,1,0,54987.7,0.729868,0.729572,2.80649,83,0.65011,10,0.00204754,-2.55184,0.0901342,0.65458,0.728337,
2,1,0,1,0,54988.5,0.725872,0.725538,2.5383,83,0.652239,10,0.00184164,-2.59546,0.0878276,0.671771,0.724422,
2,1,0,1,0,54989.3,0.721877,0.72158,2.28839,83,0.65416,10,0.00165126,-2.64047,0.08422,0.700546,0.720573,
2,1,0,1,0,54990.1,0.717882,0.717592,2.05304,83,0.655887,10,0.00147324,-2.6876,0.0821393,0.718292,0.716689,
2,1,0,0,0,54990.9,0.713887,0.713592,1.83621,83,0.657435,10,0.0013103,-2.73608,0.0783136,0.753382,0.712784,
2,1,0,1,0,54991.7,0.709892,0.709599,1.63267,83,0.658813,10,0.00115854,-2.7871,0.0752932,0.783603,0.70888,
2,1,0,0,0,54992.5,0.705897,0.705607,1.44534,83,0.660035,10,0.00101985,-2.84003,0.072682,0.811755,0.704971,
2,1,0,1,0,54993.3,0.701901,0.701562,1.27283,83,0.661114,10,0.000892969,-2.89523,0.0691519,0.853194,0.701002,
2,1,0,1,0,54994.1,0.697906,0.697596,1.11231,83,0.66206,10,0.000775946,-2.95377,0.0667049,0.884493,0.697107,
2,1,0,1,0,54994.9,0.693911,0.693652,0.967146,83,0.662884,10,0.000670863,-3.01451,0.0614662,0.959877,0.693226,
2,1,0,1,0,54995.7,0.689916,0.689575,0.834249,83,0.663597,10,0.000575277,-3.0787,0.0583376,1.01136,0.689208,
2,1,0,0,0,54996.5,0.685921,0.6856,0.711554,83,0.664206,10,0.000487841,-3.14779,0.0578113,1.02056,0.685287,
2,1,0,1,0,54997.2,0.681926,0.681626,0.60419,83,0.664726,10,0.000411832,-3.21883,0.0538832,1.09496,0.68136,
2,1,0,1,0,54998,0.67793,0.67759,0.509009,83,0.665164,10,0.000344899,-3.29327,0.0519,1.1368,0.677366,
2,1,0,1,0,54998.8,0.673935,0.673626,0.424061,83,0.66553,10,0.000285658,-3.37257,0.0467828,1.26115,0.673439,
2,1,0,1,0,54999.6,0.66994,0.669647,0.347535,83,0.665831,10,0.000232726,-3.459,0.0453051,1.30228,0.669494,
2,1,0,0,0,55000.4,0.665945,0.665606,0.280339,83,0.666076,10,0.000186595,-3.55232,0.0410712,1.43653,0.665482,
2,1,0,1,0,55001.2,0.66195,0.661642,0.222816,83,0.666271,10,0.000147425,-3.65205,0.0371853,1.58665,0.661544,
2,1,0,0,0,55002,0.657955,0.657606,0.17223,83,0.666422,10,0.00011326,-3.76389,0.0335773,1.75714,0.65753,
2,1,0,1,0,55002.8,0.653959,0.65361,0.127762,83,0.666536,10,8.35063e-05,-3.8936,0.0285253,2.06834,0.653554,
2,1,0,1,0,55003.6,0.649964,0.649694,0.0905843,83,0.666617,10,5.88521e-05,-4.04295,0.0251782,2.34329,0.649654,
2,1,0,1,0,55004.4,0.64597,0.645671,0.0595003,83,0.666671,10,3.84176e-05,-4.22548,0.0181475,3.25113,0.645644,
2,1,0,1,0,55005.2,0.641974,0.641695,0.0319657,83,0.666701,10,2.05122e-05,-4.49532,0.011262,5.23885,0.641681,
2,1,0,0,0,55006,0.637979,0.637649,0.00939686,83,0.666711,10,5.9919e-06,-5.02702,0.00333953,17.6672,0.637645,
2,0,0,1,0,55006.8,0.633983,0.63367,-0.0101932,83,0.666705,10,-6.45914e-06,-4.99169,-0.00348243,-16.9422,0.633675,
2,0,0,1,0,55007.6,0.629988,0.629623,-0.0260003,83,0.666684,10,-1.63704e-05,-4.58502,-0.0147829,-3.9911,0.629634,
2,0,0,1,0,55008.4,0.625993,0.625702,-0.0390633,83,0.666652,10,-2.4442e-05,-4.40823,-0.0317117,-1.86051,0.625719,
2,0,0,1,0,55009.2,0.621998,0.621682,-0.0506021,83,0.66661,10,-3.14584e-05,-4.29583,-0.0410454,-1.43743,0.621704,
2,0,0,0,0,55010,0.618003,0.617684,-0.0605711,83,0.66656,10,-3.74138e-05,-4.21773,-0.0559313,-1.05486,0.61771,
2,0,0,1,0,55010.8,0.614008,0.613668,-0.0690647,83,0.666502,10,-4.23828e-05,-4.16074,-0.0994991,-0.59297,0.613698,
2,0,0,1,0,55011.6,0.610012,0.609686,-0.0752503,83,0.666439,10,-4.58791e-05,-4.12349,-0.100475,-0.587208,0.609719,
2,0,0,1,0,55012.4,0.606017,0.605698,-0.0804521,83,0.66637,10,-4.87297e-05,-4.09446,-0.155088,-0.38043,0.605734,
2,0,0,1,0,55013.2,0.602022,0.601691,-0.0858833,83,0.666297,10,-5.16752e-05,-4.06609,-0.177404,-0.332575,0.601729,
2,0,0,0,0,55014,0.598027,0.597693,-0.0906162,83,0.666221,10,-5.41607e-05,-4.04279,-0.208072,-0.283556,0.597733,
2,0,0,1,0,55014.8,0.594032,0.593696,-0.0927437,83,0.666141,10,-5.50616e-05,-4.03272,-0.293641,-0.200926,0.593737,
2,0,0,0,0,55015.6,0.590037,0.589729,-0.0967513,83,0.666059,10,-5.70571e-05,-4.01434,-0.28275,-0.208665,0.589772,
2,0,0,1,0,55016.4,0.586041,0.585691,-0.0996366,83,0.665975,10,-5.83563e-05,-4.00158,-0.330841,-0.178333,0.585735,
2,0,0,1,0,55017.2,0.582046,0.581731,-0.101047,83,0.665889,10,-5.87821e-05,-3.99548,-0.514833,-0.1146,0.581775,
2,0,0,1,0,55018,0.578052,0.577723,-0.103091,83,0.665801,10,-5.9558e-05,-3.98678,-0.546208,-0.108017,0.577768,
2,0,0,1,0,55018.8,0.574056,0.573726,-0.10411,83,0.665712,10,-5.97305e-05,-3.98251,-0.749948,-0.0786721,0.573772,
2,0,0,0,0,55019.6,0.570061,0.569723,-0.106972,83,0.665621,10,-6.09443e-05,-3.97073,-0.717534,-0.0822261,0.56977,
2,0,0,1,0,55020.4,0.566065,0.565714,-0.107903,83,0.665529,10,-6.1042e-05,-3.96697,-0.580375,-0.101658,0.565761,
2,0,0,1,0,55021.2,0.56207,0.561731,-0.109858,83,0.665436,10,-6.17106e-05,-3.95917,-0.744874,-0.0792081,0.56178,
2,0,0,1,0,55022,0.558075,0.557775,-0.110296,83,0.665342,10,-6.15205e-05,-3.95744,-0.71342,-0.0827002,0.557824,
2,0,0,1,0,55022.8,0.55408,0.553739,-0.111182,83,0.665247,10,-6.15658e-05,-3.95397,-0.573319,-0.10291,0.553788,
2,0,0,0,0,55023.6,0.550085,0.54977,-0.112361,83,0.665151,10,-6.17725e-05,-3.94939,3.97549,0.0148409,0.549819,
2,0,0,1,0,55024.4,0.54609,0.54578,-0.11378,83,0.665054,10,-6.20987e-05,-3.94393,-0.943448,-0.0625366,0.54583,
2,0,0,1,0,55025.2,0.542094,0.541769,-0.115004,83,0.664956,10,-6.23056e-05,-3.93929,-0.620815,-0.0950363,0.541819,
2,0,0,1,0,55026,0.538099,0.537817,-0.115963,83,0.664858,10,-6.2367e-05,-3.93568,-11.8114,-0.00499519,0.537868,
2,0,0,1,0,55026.8,0.534104,0.533774,-0.117345,83,0.664759,10,-6.26358e-05,-3.93053,-0.610693,-0.0966116,0.533826,
2,0,0,0,0,55027.6,0.530109,0.529767,-0.117293,83,0.664659,10,-6.21378e-05,-3.93073,-2.32709,-0.0253536,0.529818,
2,0,0,1,0,55028.4,0.526114,0.525768,-0.118391,83,0.664558,10,-6.22462e-05,-3.92668,-1.02286,-0.0576815,0.52582,
2,0,0,0,0,55029.2,0.522119,0.521828,-0.118977,83,0.664456,10,-6.20856e-05,-3.92454,-1.41335,-0.0417448,0.521881,
2,0,0,1,0,55030,0.518123,0.517794,-0.120159,83,0.664354,10,-6.22174e-05,-3.92025,-1.51634,-0.0389094,0.517847,
2,0,0,1,0,55030.8,0.514128,0.5138,-0.121456,83,0.664251,10,-6.2404e-05,-3.91558,-2.42693,-0.0243105,0.513853,
2,0,0,1,0,55031.6,0.510133,0.509797,-0.121141,83,0.664148,10,-6.17572e-05,-3.91671,-0.621936,-0.0948651,0.50985,
2,0,0,1,0,55032.4,0.506138,0.505793,-0.122908,83,0.664043,10,-6.2166e-05,-3.91042,-2.23215,-0.0264319,0.505847,
2,0,0,0,0,55033.2,0.502143,0.501831,-0.124215,83,0.663938,10,-6.23352e-05,-3.90582,-0.654503,-0.0901448,0.501886,
2,0,0,1,0,55034,0.498148,0.4978,-0.12554,83,0.663831,10,-6.24937e-05,-3.90122,-1.16753,-0.0505339,0.497855,
2,0,0,1,0,55034.8,0.494152,0.493796,-0.125579,83,0.663724,10,-6.20104e-05,-3.90108,-0.672116,-0.0877824,0.493852,
2,0,0,1,0,55035.6,0.490157,0.489803,-0.127618,83,0.663616,10,-6.25075e-05,-3.89409,-1.52233,-0.0387563,0.489859,
2,0,0,1,0,55036.4,0.486162,0.485813,-0.128767,83,0.663507,10,-6.25567e-05,-3.8902,-1.01764,-0.0579774,0.48587,
2,0,0,0,0,55037.2,0.482167,0.481853,-0.129636,83,0.663397,10,-6.24657e-05,-3.88727,-1.57126,-0.0375494,0.48191,
2,0,0,1,0,55038,0.478172,0.477891,-0.130654,83,0.663286,10,-6.24384e-05,-3.88388,-0.746767,-0.0790072,0.477949,
2,0,0,0,0,55038.8,0.474177,0.473816,-0.133077,83,0.663174,10,-6.30542e-05,-3.8759,-4.15917,-0.0141855,0.473875,
2,0,0,1,0,55039.6,0.470181,0.469856,-0.134019,83,0.663061,10,-6.29694e-05,-3.87284,-0.549077,-0.107453,0.469915,
2,0,0,1,0,55040.4,0.466186,0.46585,-0.135116,83,0.662946,10,-6.29439e-05,-3.86929,-0.825103,-0.0715062,0.465909,
2,0,0,1,0,55041.2,0.462191,0.461855,-0.136326,83,0.662831,10,-6.29631e-05,-3.86542,-1.18325,-0.0498625,0.461915,
2,0,0,1,0,55042,0.458196,0.457864,-0.137513,83,0.662714,10,-6.29623e-05,-3.86166,-0.877054,-0.0672706,0.457924,
2,0,0,0,0,55042.8,0.454201,0.453872,-0.139097,83,0.662597,10,-6.31325e-05,-3.85668,-1.77641,-0.0332131,0.453933,
2,0,0,1,0,55043.6,0.450205,0.449891,-0.141238,83,0.662478,10,-6.35419e-05,-3.85005,-0.529222,-0.111485,0.449953,
2,0,0,1,0,55044.4,0.44621,0.445866,-0.141489,83,0.662357,10,-6.3085e-05,-3.84928,-1.8046,-0.0326942,0.445928,
2,0,0,1,0,55045.2,0.442215,0.441877,-0.143887,83,0.662236,10,-6.35804e-05,-3.84198,-1.00166,-0.0589024,0.441941,
2,0,0,1,0,55046,0.43822,0.437886,-0.145639,83,0.662113,10,-6.37731e-05,-3.83672,-0.449327,-0.131307,0.43795,
2,0,0,0,0,55046.8,0.434225,0.433889,-0.147818,83,0.661989,10,-6.41365e-05,-3.83027,-0.819277,-0.0720147,0.433954,
2,0,0,1,0,55047.6,0.43023,0.429902,-0.14962,83,0.661863,10,-6.43219e-05,-3.82501,-1.04766,-0.0563159,0.429968,
2,0,0,1,0,55048.4,0.426234,0.425877,-0.150824,83,0.661736,10,-6.42326e-05,-3.82153,-0.455701,-0.129471,0.425944,
2,0,0,1,0,55049.2,0.422239,0.421914,-0.15171,83,0.661608,10,-6.40084e-05,-3.81899,3.55035,0.0166181,0.421981,
2,0,0,1,0,55050,0.418244,0.417899,-0.154177,83,0.661478,10,-6.44306e-05,-3.81198,-0.43353,-0.136092,0.417967,
2,0,0,0,0,55050.8,0.414249,0.41396,-0.15444,83,0.661347,10,-6.3932e-05,-3.81124,-2.3782,-0.0248086,0.414028,
2,0,0,1,0,55051.6,0.410254,0.409904,-0.157934,83,0.661214,10,-6.47377e-05,-3.80152,-0.918508,-0.0642346,0.409973,
2,0,0,0,0,55052.4,0.406259,0.405942,-0.159938,83,0.661079,10,-6.49254e-05,-3.79605,-0.531648,-0.110976,0.406012,
2,0,0,1,0,55053.2,0.402263,0.401878,-0.161029,83,0.660943,10,-6.47138e-05,-3.7931,-0.759373,-0.0776957,0.401949,
2,0,0,1,0,55054,0.398268,0.397946,-0.163923,83,0.660805,10,-6.52325e-05,-3.78536,-0.688781,-0.0856586,0.398018,
2,0,0,1,0,55054.8,0.394274,0.39396,-0.165892,83,0.660666,10,-6.53548e-05,-3.78017,-0.848735,-0.0695152,0.394033,
2,0,0,1,0,55055.6,0.390278,0.389956,-0.167497,83,0.660525,10,-6.53163e-05,-3.77599,-0.710941,-0.0829885,0.39003,
2,0,0,0,0,55056.4,0.386283,0.385935,-0.16974,83,0.660383,10,-6.55088e-05,-3.77021,-0.739254,-0.0798101,0.38601,
2,0,0,1,0,55057.2,0.382287,0.381984,-0.170441,83,0.660238,10,-6.51056e-05,-3.76843,-1.15712,-0.0509886,0.382059,
2,0,0,1,0,55058,0.378292,0.377976,-0.173876,83,0.660093,10,-6.5721e-05,-3.75976,-1.09304,-0.0539779,0.378052,
2,0,0,1,0,55058.8,0.374297,0.373951,-0.175008,83,0.659945,10,-6.54445e-05,-3.75694,-0.535801,-0.110115,0.374028,
2,0,0,1,0,55059.6,0.370303,0.36996,-0.176908,83,0.659796,10,-6.54487e-05,-3.75225,-0.884893,-0.0666748,0.370037,
2,0,0,0,0,55060.4,0.366307,0.365996,-0.179453,83,0.659645,10,-6.56792e-05,-3.74605,-0.706983,-0.0834532,0.366075,
2,0,0,1,0,55061.2,0.362312,0.361976,-0.181825,83,0.659493,10,-6.58163e-05,-3.74035,-0.678536,-0.0869519,0.362056,
2,0,0,1,0,55062,0.358316,0.357989,-0.183926,83,0.659338,10,-6.58433e-05,-3.73536,-1.07846,-0.0547079,0.35807,
2,0,0,1,0,55062.8,0.354321,0.35404,-0.186127,83,0.659182,10,-6.58966e-05,-3.73019,-0.63906,-0.0923232,0.354122,
2,0,0,1,0,55063.6,0.350327,0.349936,-0.187917,83,0.659024,10,-6.57589e-05,-3.72603,-0.786883,-0.0749794,0.350018,
2,0,0,0,0,55064.4,0.346331,0.345951,-0.190687,83,0.658864,10,-6.59683e-05,-3.71968,-1.76816,-0.0333681,0.346035,
2,0,0,1,0,55065.2,0.342336,0.341988,-0.192795,83,0.658702,10,-6.59335e-05,-3.7149,-0.526736,-0.11201,0.342073,
2,0,0,0,0,55066,0.338341,0.337999,-0.195309,83,0.658538,10,-6.60145e-05,-3.70928,-0.774312,-0.0761967,0.338085,
2,0,0,1,0,55066.8,0.334345,0.334034,-0.197658,83,0.658373,10,-6.60246e-05,-3.70408,-0.893055,-0.0660654,0.334121,
2,0,0,1,0,55067.6,0.33035,0.330012,-0.200164,83,0.658205,10,-6.60566e-05,-3.69861,-0.670665,-0.0879724,0.3301,
2,0,0,1,0,55068.4,0.326355,0.32598,-0.201502,83,0.658036,10,-6.56857e-05,-3.69572,-1.02789,-0.0573993,0.326069,
2,0,0,1,0,55069.2,0.32236,0.322031,-0.2038,83,0.657864,10,-6.563e-05,-3.69079,-0.812532,-0.0726126,0.32212,
2,0,0,0,0,55070,0.318365,0.31799,-0.205785,83,0.657691,10,-6.54375e-05,-3.68659,-0.622556,-0.0947706,0.31808,
2,0,0,1,0,55070.8,0.31437,0.314034,-0.209065,83,0.657516,10,-6.56536e-05,-3.67972,-1.68542,-0.0350061,0.314126,
2,0,0,1,0,55071.6,0.310374,0.31,-0.211045,83,0.657338,10,-6.54239e-05,-3.67563,-0.574767,-0.10265,0.310093,
2,0,0,1,0,55072.4,0.306379,0.306065,-0.213831,83,0.657159,10,-6.5446e-05,-3.66993,-0.676698,-0.0871881,0.306159,
2,0,0,1,0,55073.2,0.302385,0.302057,-0.216572,83,0.656978,10,-6.54172e-05,-3.6644,-0.725197,-0.0813572,0.302153,
2,0,0,0,0,55074,0.298389,0.298078,-0.219179,83,0.656795,10,-6.53324e-05,-3.6592,-0.974267,-0.0605584,0.298175,
2,0,0,1,0,55074.8,0.294394,0.294055,-0.221914,83,0.656609,10,-6.5255e-05,-3.65382,-0.842958,-0.0699916,0.294153,
2,0,0,1,0,55075.6,0.290398,0.290038,-0.224718,83,0.656422,10,-6.51766e-05,-3.64836,-0.773934,-0.0762339,0.290137,
2,0,0,1,0,55076.4,0.286403,0.286071,-0.225937,83,0.656232,10,-6.46342e-05,-3.64601,-0.898015,-0.0657004,0.286171,
2,0,0,1,0,55077.2,0.282408,0.28204,-0.230091,83,0.65604,10,-6.48949e-05,-3.6381,-1.08157,-0.0545504,0.282141,
2,0,0,1,0,55078,0.278414,0.27805,-0.231268,83,0.655847,10,-6.43039e-05,-3.63588,-0.595177,-0.0991301,0.278151,
2,0,0,1,0,55078.8,0.274418,0.274072,-0.234713,83,0.655651,10,-6.43281e-05,-3.62946,-0.746877,-0.0789956,0.274175,
2,0,0,0,0,55079.5,0.270423,0.270058,-0.237638,83,0.655453,10,-6.41761e-05,-3.62408,-0.934219,-0.0631544,0.270163,
2,0,0,1,0,55080.3,0.266427,0.266059,-0.239902,83,0.655253,10,-6.38281e-05,-3.61997,-0.864034,-0.0682844,0.266165,
2,0,0,1,0,55081.1,0.262432,0.26206,-0.242643,83,0.655051,10,-6.35871e-05,-3.61503,-0.985235,-0.0598842,0.262167,
2,0,0,1,0,55081.9,0.258437,0.258173,-0.244729,83,0.654847,10,-6.31825e-05,-3.61131,-1.20035,-0.0491525,0.258281,
2,0,0,1,0,55082.7,0.254442,0.254074,-0.245568,83,0.65464,10,-6.23923e-05,-3.60983,-0.733322,-0.0804558,0.254182,
2,0,0,0,0,55083.5,0.250447,0.2501,-0.249897,83,0.654432,10,-6.24992e-05,-3.60224,-1.3551,-0.0435394,0.25021,
2,0,0,1,0,55084.3,0.246452,0.246098,-0.2513,83,0.654223,10,-6.18446e-05,-3.59981,-0.864834,-0.0682212,0.246209,
2,0,0,1,0,55085.1,0.242456,0.242091,-0.254512,83,0.654011,10,-6.16151e-05,-3.59429,-1.01794,-0.05796,0.242203,
2,0,0,1,0,55085.9,0.238461,0.238148,-0.256499,83,0.653798,10,-6.10848e-05,-3.59091,-1.12312,-0.0525324,0.238261,
2,0,0,1,0,55086.7,0.234467,0.234094,-0.258682,83,0.653582,10,-6.05558e-05,-3.58723,-0.813885,-0.0724918,0.234207,
2,0,0,0,0,55087.5,0.230471,0.230124,-0.261093,83,0.653365,10,-6.00839e-05,-3.5832,-1.45819,-0.0404611,0.230239,
2,0,0,1,0,55088.3,0.226476,0.22611,-0.263166,83,0.653146,10,-5.95045e-05,-3.57977,-0.895676,-0.065872,0.226225,
2,0,0,0,0,55089.1,0.222481,0.222151,-0.26471,83,0.652925,10,-5.88056e-05,-3.57723,-0.986634,-0.0597993,0.222268,
2,0,0,1,0,55089.9,0.218485,0.218119,-0.268656,83,0.652702,10,-5.8599e-05,-3.5708,-0.968901,-0.0608937,0.218237,
2,0,0,1,0,55090.7,0.21449,0.214124,-0.270998,83,0.652476,10,-5.80272e-05,-3.56703,-0.838636,-0.0703523,0.214243,
2,0,0,1,0,55091.5,0.210496,0.210157,-0.274127,83,0.652249,10,-5.76097e-05,-3.56205,-0.658229,-0.0896345,0.210278,
2,0,0,1,0,55092.3,0.2065,0.206111,-0.2781,83,0.652019,10,-5.73196e-05,-3.5558,-1.3466,-0.043814,0.206234,
2,0,0,0,0,55093.1,0.202505,0.202136,-0.28014,83,0.651786,10,-5.66265e-05,-3.55262,-0.83657,-0.0705261,0.202259,
2,0,0,1,0,55093.9,0.198509,0.198133,-0.282743,83,0.651552,10,-5.60208e-05,-3.54861,-0.734751,-0.0802993,0.198258,
2,0,0,1,0,55094.7,0.194514,0.194182,-0.285436,83,0.651315,10,-5.54264e-05,-3.54449,-1.00951,-0.0584445,0.194307,
2,0,0,1,0,55095.5,0.190519,0.190141,-0.288756,83,0.651074,10,-5.49044e-05,-3.53947,-0.546628,-0.107934,0.190268,
2,0,0,1,0,55096.3,0.186524,0.186184,-0.293257,83,0.650831,10,-5.45999e-05,-3.53275,-1.04004,-0.0567287,0.186313,
2,0,0,0,0,55097.1,0.182529,0.182176,-0.297699,83,0.650585,10,-5.42336e-05,-3.52622,-0.519237,-0.113628,0.182307,
2,0,0,1,0,55097.9,0.178534,0.178222,-0.302181,83,0.650335,10,-5.38552e-05,-3.51973,-0.593371,-0.0994319,0.178355,
2,0,0,1,0,55098.7,0.174538,0.174183,-0.307489,83,0.650081,10,-5.35595e-05,-3.51217,-0.504519,-0.116943,0.174319,
2,0,0,1,0,55099.5,0.170543,0.170204,-0.314025,83,0.649822,10,-5.34483e-05,-3.50304,-0.390641,-0.151034,0.170342,
2,0,0,1,0,55100.3,0.166549,0.166224,-0.32086,83,0.649558,10,-5.33345e-05,-3.49368,-0.40334,-0.146279,0.166365,
2,0,0,0,0,55101.1,0.162553,0.1622,-0.329352,83,0.649287,10,-5.34209e-05,-3.48234,-0.358265,-0.164683,0.162345,
2,0,0,1,0,55101.9,0.158558,0.158198,-0.338694,83,0.649009,10,-5.35807e-05,-3.47019,-0.258083,-0.228609,0.158347,
2,0,0,0,0,55102.7,0.154563,0.154206,-0.353514,83,0.648722,10,-5.45138e-05,-3.45159,-0.216967,-0.271931,0.154361,
2,0,0,1,0,55103.5,0.150567,0.150186,-0.371011,83,0.648422,10,-5.57208e-05,-3.43061,-0.153677,-0.383921,0.15035,
2,0,0,1,0,55104.3,0.146572,0.146228,-0.394595,83,0.648106,10,-5.7701e-05,-3.40385,-0.147378,-0.400331,0.146402,
2,0,0,1,0,55105.1,0.142578,0.142286,-0.423747,83,0.647769,10,-6.02933e-05,-3.37289,-0.112973,-0.522249,0.142472,
2,0,0,1,0,55105.9,0.138582,0.138238,-0.461589,83,0.647404,10,-6.38091e-05,-3.33574,-0.100983,-0.584258,0.138441,
2,0,0,0,0,55106.7,0.134587,0.134204,-0.506984,83,0.647006,10,-6.80395e-05,-3.29501,-0.105304,-0.560285,0.134427,
2,0,0,1,0,55107.5,0.130591,0.130255,-0.552121,83,0.646572,10,-7.19165e-05,-3.25797,-0.108948,-0.541543,0.130498,
2,0,0,1,0,55108.3,0.126596,0.126276,-0.594058,83,0.646102,10,-7.50155e-05,-3.22617,-0.141683,-0.416424,0.126538,
2,0,0,1,0,55109.1,0.122602,0.122244,-0.628071,83,0.645601,10,-7.6778e-05,-3.20199,-0.208259,-0.283302,0.12252,
2,0,0,1,0,55109.9,0.118607,0.118307,-0.650567,83,0.645078,10,-7.69667e-05,-3.18671,-0.313248,-0.188349,0.118593,
2,0,0,0,0,55110.7,0.114611,0.114218,-0.664165,83,0.64454,10,-7.58594e-05,-3.17772,-0.704277,-0.0837739,0.11451,
2,0,0,1,0,55111.5,0.110616,0.110252,-0.670825,83,0.643996,10,-7.39596e-05,-3.17339,-1.3826,-0.0426733,0.110547,
2,0,0,1,0,55112.3,0.10662,0.106265,-0.67244,83,0.643448,10,-7.1457e-05,-3.17235,7.91446,0.00745471,0.106561,
2,0,0,1,0,55113.1,0.102625,0.102285,-0.67076,83,0.6429,10,-6.86087e-05,-3.17343,2.06947,0.0285097,0.10258,
2,0,0,1,0,55113.9,0.0986305,0.0982577,-0.668068,83,0.642355,10,-6.56428e-05,-3.17518,1.63807,0.036018,0.0985517,
2,0,0,0,0,55114.7,0.0946351,0.0943011,-0.660645,83,0.641812,10,-6.22996e-05,-3.18003,1.28169,0.0460329,0.0945918,
2,0,0,1,0,55115.5,0.0906399,0.0902747,-0.657658,83,0.641273,10,-5.93699e-05,-3.182,0.813954,0.0724857,0.0905641,
2,0,0,0,0,55116.3,0.0866448,0.0862834,-0.65011,83,0.640739,10,-5.60937e-05,-3.18701,1.14524,0.0515176,0.0865694,
2,0,0,1,0,55117.1,0.0826492,0.0823373,-0.643675,83,0.640211,10,-5.29985e-05,-3.19133,0.687593,0.0858066,0.0826205,
2,0,0,1,0,55117.9,0.0786544,0.0782945,-0.636096,83,0.63969,10,-4.98028e-05,-3.19648,0.7338,0.0804034,0.0785743,
2,0,0,1,0,55118.7,0.0746596,0.074319,-0.626923,83,0.639174,10,-4.65922e-05,-3.20279,0.954366,0.0618211,0.0745948,
2,0,0,1,0,55119.5,0.0706641,0.070319,-0.619983,83,0.638665,10,-4.35966e-05,-3.20762,0.59186,0.0996857,0.0705918,
2,0,0,0,0,55120.3,0.0666689,0.0663032,-0.611074,83,0.638162,10,-4.05162e-05,-3.21391,0.867213,0.068034,0.0665721,
2,0,0,1,0,55121.1,0.0626737,0.0623076,-0.602035,83,0.637665,10,-3.75114e-05,-3.22038,0.726965,0.0811593,0.0625725,
2,0,0,1,0,55121.9,0.0586783,0.0583371,-0.595249,83,0.637175,10,-3.47251e-05,-3.2253,0.496293,0.118881,0.058599,
2,0,0,1,0,55122.7,0.0546835,0.0543313,-0.587158,83,0.636692,10,-3.19011e-05,-3.23124,0.783888,0.0752658,0.0545897,
2,0,0,1,0,55123.5,0.0506886,0.0503414,-0.578065,83,0.636215,10,-2.91006e-05,-3.23802,0.506478,0.116491,0.0505957,
2,0,0,0,0,55124.3,0.046693,0.0463718,-0.568298,83,0.635746,10,-2.6353e-05,-3.24542,0.58643,0.100609,0.0466218,
2,0,0,1,0,55125.1,0.0426979,0.0423433,-0.557907,83,0.635285,10,-2.36236e-05,-3.25344,0.605457,0.097447,0.0425888,
2,0,0,1,0,55125.9,0.0387022,0.0382994,-0.549269,83,0.634832,10,-2.10367e-05,-3.26021,0.415759,0.141909,0.0385411,
2,0,0,1,0,55126.7,0.0347074,0.0343159,-0.53932,83,0.634387,10,-1.85072e-05,-3.26815,0.569753,0.103554,0.0345532,
2,0,0,1,0,55127.5,0.0307126,0.0303662,-0.528982,83,0.633949,10,-1.60632e-05,-3.27656,0.620813,0.0950366,0.030599,
2,0,0,0,0,55128.3,0.0267172,0.0263418,-0.521462,83,0.633518,10,-1.37362e-05,-3.28278,0.501739,0.117591,0.0265712,
2,0,0,1,0,55129.1,0.022722,0.0223907,-0.513354,83,0.633094,10,-1.14943e-05,-3.28958,0.789859,0.0746969,0.0226166,
2,0,0,0,0,55129.9,0.0187268,0.0183877,-0.507843,83,0.632675,10,-9.33805e-06,-3.29427,0.798634,0.0738762,0.0186111,
2,0,0,1,0,55130.7,0.0147313,0.0143398,-0.504492,83,0.632261,10,-7.23434e-06,-3.29715,1.71028,0.0344974,0.0145618,
2,0,0,1,0,55131.5,0.0107365,0.0103637,-0.500381,83,0.63185,10,-5.18578e-06,-3.3007,1.23247,0.0478714,0.0105838,
2,0,0,1,0,55132.3,0.00674163,0.00640642,-0.497911,83,0.631441,10,-3.18983e-06,-3.30285,3.60487,0.0163667,0.0066255,
2,0,0,1,0,55133.1,0.00274612,0.00241159,-0.498748,83,0.631033,10,-1.20277e-06,-3.30212,-1.77729,-0.0331966,0.00263103,
2,0,0,0,0,55133.6,0.000274105,-0.000130871,-0.499352,83,0.630778,10,6.53509e-08,-3.30159, , ,8.88435e-05,