File: Figure_codes/Fig_3-5/workspace_calculate_alpha_eff/20221101_1-115_003_TrumpetPlot_ParaChange_from10_every3_16_CV_C01_60.csv
mode,ox/red,error,control changes,counter inc.,time/s,control/V,Ewe/V,<I>/mA,cycle number,(Q-Qo)/C,I Range,P/W,log(|I|),Tafel slope mV/dec,alpha_eff,E-IR/V,
2,0,0,1,0,40632.7,2.44065e-05,-0.000401673,-0.0408791,61,0.0000000E+000,10,1.642e-08,-4.3885, , ,-0.000383686,
2,1,0,1,0,40633.5,0.00379485,0.00349638,0.202593,61,0.000131001,10,7.08342e-07,-3.69338,0.0440537,1.33927,0.00340724,
2,1,0,0,0,40634.3,0.00779002,0.00745276,0.226173,61,0.000313716,10,1.68561e-06,-3.64556,0.106065,0.556265,0.00735324,
2,1,0,1,0,40635.1,0.0117852,0.0114569,0.242731,61,0.00051209,10,2.78093e-06,-3.61487,0.144023,0.409656,0.0113501,
2,1,0,1,0,40635.9,0.0157806,0.0154642,0.258342,61,0.000722638,10,3.99505e-06,-3.5878,0.174382,0.338338,0.0153505,
2,1,0,1,0,40636.7,0.0197754,0.0194511,0.271146,61,0.000944174,10,5.27408e-06,-3.5668,0.18451,0.319766,0.0193317,
2,1,0,1,0,40637.5,0.0237704,0.0234848,0.284743,61,0.00117682,10,6.68713e-06,-3.54555,0.179894,0.32797,0.0233595,
2,1,0,0,0,40638.3,0.0277659,0.0274446,0.299492,61,0.00142029,10,8.21944e-06,-3.52361,0.198632,0.297032,0.0273128,
2,1,0,1,0,40639.1,0.0317611,0.0314095,0.311568,61,0.00167475,10,9.78618e-06,-3.50645,0.210783,0.279908,0.0312724,
2,1,0,1,0,40639.9,0.0357567,0.0354479,0.326972,61,0.00194025,10,1.15905e-05,-3.48549,0.270862,0.217823,0.0353041,
2,1,0,1,0,40640.7,0.0397516,0.0394136,0.33945,61,0.00221606,10,1.33789e-05,-3.46922,0.186583,0.316213,0.0392642,
2,1,0,1,0,40641.5,0.0437465,0.0433942,0.351078,61,0.00250325,10,1.52347e-05,-3.4546,0.302272,0.195188,0.0432397,
2,1,0,1,0,40642.3,0.0477413,0.0474063,0.366141,61,0.00280046,10,1.73574e-05,-3.43635,0.239312,0.24654,0.0472452,
2,1,0,1,0,40643.1,0.0517369,0.0513822,0.376212,61,0.00310765,10,1.93306e-05,-3.42457,0.269632,0.218816,0.0512167,
2,1,0,0,0,40643.9,0.0557321,0.0554393,0.388687,61,0.00342487,10,2.15485e-05,-3.4104,0.421163,0.140088,0.0552683,
2,1,0,1,0,40644.7,0.0597277,0.0593601,0.400612,61,0.00375056,10,2.37804e-05,-3.39728,0.33152,0.177968,0.0591839,
2,1,0,1,0,40645.5,0.0637226,0.0633701,0.40866,61,0.00408463,10,2.58969e-05,-3.38864,0.372515,0.158383,0.0631903,
2,1,0,1,0,40646.3,0.0677174,0.0673739,0.420577,61,0.00442741,10,2.83359e-05,-3.37615,0.478526,0.123295,0.0671888,
2,1,0,1,0,40647.1,0.0717128,0.0714091,0.427507,61,0.00477659,10,3.05279e-05,-3.36906,0.459816,0.128312,0.071221,
2,1,0,0,0,40647.9,0.075708,0.0753824,0.433536,61,0.00513227,10,3.2681e-05,-3.36297,0.586528,0.100592,0.0751916,
2,1,0,1,0,40648.7,0.0797031,0.0794045,0.443291,61,0.00549311,10,3.51993e-05,-3.35331,0.533807,0.110527,0.0792095,
2,1,0,1,0,40649.5,0.0836986,0.0834069,0.449883,61,0.00586008,10,3.75233e-05,-3.3469,0.4752,0.124158,0.0832089,
2,1,0,1,0,40650.3,0.0876935,0.0873522,0.460037,61,0.00623419,10,4.01853e-05,-3.33721,0.408236,0.144524,0.0871498,
2,1,0,1,0,40651.1,0.0916883,0.0913198,0.472517,61,0.00661703,10,4.31502e-05,-3.32558,0.28726,0.205389,0.0911119,
2,1,0,0,0,40651.9,0.0956838,0.0953795,0.487347,61,0.00701217,10,4.64829e-05,-3.31216,0.237236,0.248697,0.0951651,
2,1,0,1,0,40652.7,0.099679,0.0993391,0.508604,61,0.00742206,10,5.05242e-05,-3.29362,0.249417,0.236551,0.0991153,
2,1,0,0,0,40653.5,0.103674,0.103393,0.530863,61,0.00784833,10,5.48876e-05,-3.27502,0.194869,0.302767,0.103159,
2,1,0,1,0,40654.3,0.10767,0.107333,0.549873,61,0.00829242,10,5.90194e-05,-3.25974,0.26891,0.219404,0.107091,
2,1,0,1,0,40655.1,0.111664,0.111343,0.570017,61,0.00875179,10,6.34672e-05,-3.24411,0.300538,0.196314,0.111092,
2,1,0,1,0,40655.9,0.115659,0.115313,0.585351,61,0.00922462,10,6.74984e-05,-3.23258,0.33938,0.173847,0.115055,
2,1,0,1,0,40656.7,0.119655,0.119325,0.598169,61,0.00970927,10,7.13763e-05,-3.22318,0.683216,0.0863563,0.119061,
2,1,0,0,0,40657.5,0.12365,0.123327,0.608405,61,0.0102022,10,7.50325e-05,-3.21581,0.556868,0.10595,0.123059,
2,1,0,1,0,40658.3,0.127646,0.127318,0.616674,61,0.0107033,10,7.85139e-05,-3.20994,0.780863,0.0755574,0.127047,
2,1,0,1,0,40659,0.131641,0.131291,0.620133,61,0.0112097,10,8.14181e-05,-3.20751,-1.0831,-0.0544734,0.131018,
2,1,0,1,0,40659.8,0.135635,0.135261,0.608841,61,0.0117129,10,8.23524e-05,-3.2155,-0.320919,-0.183847,0.134993,
2,1,0,1,0,40660.6,0.139631,0.139308,0.577856,61,0.0122001,10,8.05e-05,-3.23818,-0.131112,-0.449997,0.139054,
2,1,0,0,0,40661.4,0.143626,0.143358,0.532302,61,0.012655,10,7.63095e-05,-3.27384,-0.0931172,-0.63361,0.143123,
2,1,0,1,0,40662.2,0.147621,0.147275,0.471774,61,0.0130665,10,6.94805e-05,-3.32627,-0.0747479,-0.789319,0.147067,
2,1,0,1,0,40663,0.151617,0.151302,0.420408,61,0.0134328,10,6.36088e-05,-3.37633,-0.0830034,-0.710814,0.151117,
2,1,0,1,0,40663.8,0.155612,0.155252,0.381916,61,0.0137623,10,5.92933e-05,-3.41803,-0.111934,-0.527094,0.155084,
2,1,0,1,0,40664.6,0.159606,0.159301,0.356804,61,0.0140671,10,5.68392e-05,-3.44757,-0.172851,-0.341334,0.159144,
2,1,0,0,0,40665.4,0.163602,0.163277,0.340232,61,0.0143555,10,5.55522e-05,-3.46822,-0.216734,-0.272224,0.163128,
2,1,0,1,0,40666.2,0.167597,0.167214,0.329877,61,0.0146328,10,5.516e-05,-3.48165,-0.425722,-0.138588,0.167068,
2,1,0,0,0,40667,0.171592,0.171287,0.320765,61,0.0149031,10,5.49428e-05,-3.49381,-0.377633,-0.156236,0.171145,
2,1,0,1,0,40667.8,0.175588,0.175298,0.315963,61,0.0151675,10,5.53877e-05,-3.50036,-0.659459,-0.0894672,0.175159,
2,1,0,1,0,40668.6,0.179582,0.179238,0.311367,61,0.015428,10,5.58087e-05,-3.50673,-0.663815,-0.0888802,0.179101,
2,1,0,1,0,40669.4,0.183577,0.183265,0.307912,61,0.0156854,10,5.64293e-05,-3.51157,-0.71636,-0.0823609,0.183129,
2,1,0,1,0,40670.2,0.187573,0.187244,0.304859,61,0.0159396,10,5.70828e-05,-3.5159,-1.15493,-0.0510855,0.187109,
2,1,0,0,0,40671,0.191568,0.191186,0.301166,61,0.0161918,10,5.75788e-05,-3.52119,-1.29144,-0.0456856,0.191054,
2,1,0,1,0,40671.8,0.195563,0.195234,0.300802,61,0.0164425,10,5.87266e-05,-3.52172,-0.804989,-0.0732929,0.195101,
2,1,0,1,0,40672.6,0.199559,0.199207,0.297823,61,0.0166913,10,5.93285e-05,-3.52604,-6.85818,-0.00860286,0.199076,
2,1,0,1,0,40673.4,0.203553,0.20321,0.295429,61,0.0169388,10,6.00341e-05,-3.52955,-1.35511,-0.043539,0.20308,
2,1,0,1,0,40674.2,0.207548,0.207199,0.295021,61,0.0171852,10,6.1128e-05,-3.53015,-4.42041,-0.0133472,0.207069,
2,1,0,0,0,40675,0.211544,0.211215,0.293975,61,0.0174303,10,6.20921e-05,-3.53169,-1.14298,-0.0516195,0.211086,
2,1,0,1,0,40675.8,0.215539,0.21521,0.291894,61,0.0176744,10,6.28183e-05,-3.53478,-1.61967,-0.0364271,0.215081,
2,1,0,1,0,40676.6,0.219535,0.219225,0.290601,61,0.0179171,10,6.3707e-05,-3.5367,-10.2189,-0.00577364,0.219097,
2,1,0,1,0,40677.4,0.223529,0.223202,0.289096,61,0.0181591,10,6.45268e-05,-3.53896,-3.16937,-0.0186157,0.223075,
2,1,0,1,0,40678.2,0.227524,0.227162,0.288498,61,0.0184001,10,6.55359e-05,-3.53986,-0.888589,-0.0663974,0.227035,
2,1,0,0,0,40679,0.23152,0.231185,0.287602,61,0.0186401,10,6.64892e-05,-3.54121,1.52289,0.0387421,0.231058,
2,1,0,1,0,40679.8,0.235515,0.23522,0.286402,61,0.0188796,10,6.73673e-05,-3.54302,-2.37234,-0.02487,0.235094,
2,1,0,0,0,40680.6,0.23951,0.239193,0.286196,61,0.0191183,10,6.8456e-05,-3.54334,-1.73453,-0.034015,0.239067,
2,1,0,1,0,40681.4,0.243506,0.243194,0.286119,61,0.0193563,10,6.95824e-05,-3.54345,4.2826,0.0137767,0.243068,
2,1,0,1,0,40682.2,0.2475,0.247199,0.284848,61,0.019594,10,7.04142e-05,-3.54539,-1.07788,-0.0547369,0.247074,
2,1,0,1,0,40683,0.251495,0.251188,0.284455,61,0.0198306,10,7.14516e-05,-3.54599,47.6675,0.00123774,0.251063,
2,1,0,1,0,40683.8,0.255491,0.255171,0.282714,61,0.0200668,10,7.21404e-05,-3.54865,-1.94155,-0.0303881,0.255047,
2,1,0,0,0,40684.6,0.259486,0.259203,0.282481,61,0.0203023,10,7.32199e-05,-3.54901,-1.12624,-0.0523865,0.259078,
2,1,0,1,0,40685.4,0.263481,0.263154,0.281626,61,0.0205368,10,7.41108e-05,-3.55033,10.72,0.00550375,0.26303,
2,1,0,1,0,40686.2,0.267477,0.267112,0.279611,61,0.0207708,10,7.46875e-05,-3.55345,-2.33941,-0.0252201,0.266989,
2,1,0,1,0,40687,0.271471,0.271159,0.279339,61,0.0210041,10,7.57451e-05,-3.55387,-2.66522,-0.022137,0.271036,
2,1,0,1,0,40687.8,0.275466,0.275174,0.27799,61,0.0212366,10,7.64956e-05,-3.55597,-3.02899,-0.0194785,0.275052,
2,1,0,0,0,40688.6,0.279462,0.279132,0.27733,61,0.0214685,10,7.74116e-05,-3.557,-2.37772,-0.0248137,0.27901,
2,1,0,1,0,40689.4,0.283457,0.28318,0.277449,61,0.0216992,10,7.85679e-05,-3.55682,-2.21722,-0.0266098,0.283058,
2,1,0,0,0,40690.2,0.287452,0.287108,0.276536,61,0.0219293,10,7.93957e-05,-3.55825,-9.41025,-0.00626976,0.286987,
2,1,0,1,0,40691,0.291448,0.291126,0.274291,61,0.0221603,10,7.98531e-05,-3.56179,-1.45718,-0.0404892,0.291005,
2,1,0,1,0,40691.8,0.295442,0.295146,0.27358,61,0.0223892,10,8.07462e-05,-3.56292,-5.52457,-0.0106796,0.295026,
2,1,0,1,0,40692.6,0.299437,0.299144,0.271493,61,0.0226174,10,8.12154e-05,-3.56624,-3.04326,-0.0193871,0.299024,
2,1,0,1,0,40693.4,0.303433,0.303123,0.271785,61,0.0228448,10,8.23842e-05,-3.56577,-10.9477,-0.00538927,0.303003,
2,1,0,0,0,40694.2,0.307428,0.307116,0.271283,61,0.0230715,10,8.33154e-05,-3.56658,-4.79376,-0.0123077,0.306997,
2,1,0,1,0,40695,0.311424,0.311072,0.270916,61,0.0232978,10,8.42745e-05,-3.56716,-1.64493,-0.0358678,0.310953,
2,1,0,1,0,40695.8,0.315418,0.315098,0.269511,61,0.023523,10,8.49223e-05,-3.56942,-2.33091,-0.025312,0.314979,
2,1,0,1,0,40696.6,0.319413,0.31909,0.268307,61,0.0237478,10,8.5614e-05,-3.57137,-4.49431,-0.0131277,0.318972,
2,1,0,1,0,40697.4,0.323409,0.323128,0.268412,61,0.023972,10,8.67315e-05,-3.5712,-3.71989,-0.0158607,0.32301,
2,1,0,0,0,40698.2,0.327404,0.3271,0.268453,61,0.0241954,10,8.78109e-05,-3.57113,-2.76283,-0.0213549,0.326981,
2,1,0,1,0,40699,0.331399,0.331097,0.266304,61,0.0244185,10,8.81725e-05,-3.57462,-3.08482,-0.0191259,0.33098,
2,1,0,1,0,40699.8,0.335395,0.335115,0.267087,61,0.024641,10,8.95049e-05,-3.57335,-8.20684,-0.00718912,0.334998,
2,1,0,1,0,40700.6,0.339389,0.339103,0.265623,61,0.0248627,10,9.00737e-05,-3.57573,28.5339,0.00206772,0.338986,
2,1,0,1,0,40701.4,0.343384,0.343067,0.265038,61,0.0250842,10,9.09258e-05,-3.57669,-2.17876,-0.0270797,0.34295,
2,1,0,0,0,40702.2,0.34738,0.347063,0.265124,61,0.0253049,10,9.20148e-05,-3.57655,-3.29634,-0.0178987,0.346946,
2,1,0,1,0,40703,0.351375,0.35103,0.262875,61,0.0255252,10,9.22768e-05,-3.58025,-4.86815,-0.0121196,0.350914,
2,1,0,0,0,40703.8,0.35537,0.355061,0.262922,61,0.0257452,10,9.33536e-05,-3.58017,-2.5312,-0.0233091,0.354946,
2,1,0,1,0,40704.6,0.359366,0.359017,0.262529,61,0.0259643,10,9.42525e-05,-3.58082,-4.74906,-0.0124235,0.358901,
2,1,0,1,0,40705.4,0.36336,0.363016,0.261456,61,0.0261832,10,9.49127e-05,-3.5826,-3.69433,-0.0159704,0.362901,
2,1,0,1,0,40706.2,0.367355,0.367082,0.261499,61,0.0264015,10,9.59916e-05,-3.58253,7.00904,0.0084177,0.366967,
2,1,0,1,0,40707,0.371351,0.371057,0.259858,61,0.0266193,10,9.6422e-05,-3.58526,-8.19971,-0.00719537,0.370942,
2,1,0,0,0,40707.8,0.375346,0.375039,0.260967,61,0.0268369,10,9.78728e-05,-3.58342,-1.38954,-0.04246,0.374925,
2,1,0,1,0,40708.6,0.379342,0.379065,0.260354,61,0.0270538,10,9.86913e-05,-3.58444,-36.3071,-0.00162503,0.378951,
2,1,0,1,0,40709.4,0.383336,0.38301,0.260388,61,0.0272705,10,9.9731e-05,-3.58438,27.2369,0.00216618,0.382895,
2,1,0,1,0,40710.2,0.387331,0.387007,0.259953,61,0.0274872,10,0.000100604,-3.5851,-3.51762,-0.0167727,0.386893,
2,1,0,1,0,40711,0.391327,0.391054,0.259151,61,0.0277033,10,0.000101342,-3.58645,5.18266,0.0113841,0.39094,
2,1,0,0,0,40711.8,0.395322,0.394984,0.257817,61,0.0279191,10,0.000101834,-3.58869,-2.63506,-0.0223904,0.39487,
2,1,0,1,0,40712.6,0.399317,0.398998,0.258225,61,0.0281346,10,0.000103031,-3.588,-5.73146,-0.0102941,0.398885,
2,1,0,1,0,40713.4,0.403313,0.402998,0.258206,61,0.0283498,10,0.000104057,-3.58803,-19.4569,-0.00303235,0.402885,
2,1,0,1,0,40714.2,0.407307,0.407004,0.257146,61,0.0285648,10,0.000104659,-3.58982,-25.5968,-0.00230498,0.40689,
2,1,0,1,0,40715,0.411302,0.410982,0.258334,61,0.0287792,10,0.00010617,-3.58782,-20.7902,-0.00283788,0.410868,
2,1,0,0,0,40715.8,0.415298,0.415,0.257006,61,0.0289934,10,0.000106657,-3.59006,-4.61062,-0.0127965,0.414887,
2,1,0,1,0,40716.6,0.419293,0.418959,0.257348,61,0.0292075,10,0.000107818,-3.58948,-2.45758,-0.0240073,0.418846,
2,1,0,0,0,40717.4,0.423288,0.422953,0.256997,61,0.0294212,10,0.000108698,-3.59007,33.8916,0.00174085,0.42284,
2,1,0,1,0,40718.2,0.427283,0.426927,0.255285,61,0.0296347,10,0.000108988,-3.59297,-11.0324,-0.0053479,0.426814,
2,1,0,1,0,40719,0.431278,0.430954,0.256311,61,0.0298479,10,0.000110458,-3.59123,-19.9306,-0.00296027,0.430842,
2,1,0,1,0,40719.8,0.435273,0.434962,0.256095,61,0.0300609,10,0.000111392,-3.5916,-8.38752,-0.00703426,0.434849,
2,1,0,1,0,40720.6,0.439269,0.438969,0.255816,61,0.0302738,10,0.000112296,-3.59207,-11.0653,-0.00533201,0.438857,
2,1,0,0,0,40721.4,0.443264,0.442953,0.255394,61,0.0304862,10,0.000113128,-3.59279,-3.7908,-0.015564,0.442841,
2,1,0,1,0,40722.2,0.447259,0.446929,0.255507,61,0.0306985,10,0.000114193,-3.5926,-15.9371,-0.00370206,0.446816,
2,1,0,1,0,40723,0.451254,0.450957,0.255436,61,0.030911,10,0.000115191,-3.59272,27.8305,0.00211998,0.450845,
2,1,0,1,0,40723.8,0.455249,0.45499,0.254621,61,0.031123,10,0.00011585,-3.59411,2.29443,0.0257145,0.454878,
2,1,0,1,0,40724.6,0.459244,0.458934,0.25566,61,0.0313352,10,0.000117331,-3.59234,9.90771,0.00595496,0.458822,
2,1,0,0,0,40725.4,0.46324,0.462925,0.255441,61,0.0315475,10,0.00011825,-3.59271,32.1944,0.00183262,0.462813,
2,1,0,1,0,40726.2,0.467235,0.46693,0.255445,61,0.0317597,10,0.000119275,-3.5927,-6.28555,-0.00938661,0.466818,
2,1,0,1,0,40727,0.471231,0.470918,0.255917,61,0.0319721,10,0.000120516,-3.5919,3.04373,0.0193841,0.470805,
2,1,0,1,0,40727.8,0.475225,0.47493,0.257267,61,0.0321847,10,0.000122184,-3.58962,-13.5067,-0.0043682,0.474817,
2,1,0,1,0,40728.6,0.47922,0.478909,0.257026,61,0.0323977,10,0.000123092,-3.59002,2.48678,0.0237254,0.478796,
2,1,0,0,0,40729.4,0.483216,0.482896,0.256935,61,0.032611,10,0.000124073,-3.59018,-9.20765,-0.00640772,0.482782,
2,1,0,1,0,40730.2,0.487211,0.486906,0.257726,61,0.0328245,10,0.000125488,-3.58884,2.37757,0.0248152,0.486793,
2,1,0,0,0,40731,0.491206,0.490889,0.257315,61,0.0330384,10,0.000126313,-3.58953,8.73084,0.00675766,0.490776,
2,1,0,1,0,40731.8,0.495201,0.494886,0.259406,61,0.0332526,10,0.000128376,-3.58602,4.23763,0.0139229,0.494772,
2,1,0,1,0,40732.6,0.499196,0.498859,0.258796,61,0.0334671,10,0.000129103,-3.58704,3.23266,0.0182512,0.498745,
2,1,0,1,0,40733.4,0.503191,0.502915,0.259764,61,0.0336823,10,0.000130639,-3.58542,3.67434,0.0160573,0.5028,
2,1,0,1,0,40734.2,0.507187,0.506875,0.260744,61,0.0338978,10,0.000132165,-3.58379,3.61991,0.0162987,0.50676,
2,1,0,0,0,40735,0.511182,0.510878,0.261473,61,0.0341139,10,0.000133581,-3.58257,1.8917,0.0311888,0.510763,
2,1,0,1,0,40735.8,0.515177,0.514891,0.262526,61,0.0343309,10,0.000135172,-3.58083,-37.6486,-0.00156712,0.514776,
2,1,0,1,0,40736.6,0.519173,0.518852,0.264139,61,0.0345485,10,0.000137049,-3.57817,0.858953,0.0686883,0.518736,
2,1,0,1,0,40737.4,0.523167,0.522891,0.265153,61,0.0347672,10,0.000138646,-3.5765,103.059,0.000572488,0.522774,
2,1,0,1,0,40738.2,0.527162,0.52688,0.266457,61,0.0349867,10,0.000140391,-3.57437,1.22224,0.0482721,0.526763,
2,1,0,0,0,40739,0.531158,0.530833,0.26742,61,0.0352073,10,0.000141955,-3.57281,2.5774,0.0228913,0.530716,
2,1,0,1,0,40739.8,0.535153,0.534815,0.269098,61,0.035429,10,0.000143918,-3.57009,1.31278,0.0449428,0.534697,
2,1,0,0,0,40740.6,0.539148,0.538795,0.271167,61,0.0356519,10,0.000146103,-3.56676,1.59046,0.0370962,0.538676,
2,1,0,1,0,40741.3,0.543143,0.542868,0.27161,61,0.0358763,10,0.000147449,-3.56605,1.1034,0.053471,0.542748,
2,1,0,1,0,40742.1,0.547138,0.546797,0.274708,61,0.0361021,10,0.000150209,-3.56113,1.96339,0.03005,0.546676,
2,1,0,1,0,40742.9,0.551133,0.550839,0.276786,61,0.0363294,10,0.000152464,-3.55786,0.800442,0.0737093,0.550717,
2,1,0,1,0,40743.7,0.555129,0.554863,0.278926,61,0.0365589,10,0.000154766,-3.55451,1.1309,0.0521707,0.55474,
2,1,0,0,0,40744.5,0.559124,0.558879,0.281854,61,0.0367899,10,0.000157522,-3.54998,0.927001,0.0636461,0.558755,
2,1,0,1,0,40745.3,0.56312,0.562788,0.28359,61,0.0370228,10,0.000159601,-3.54731,0.856023,0.0689234,0.562663,
2,1,0,1,0,40746.1,0.567114,0.566821,0.287542,61,0.0372583,10,0.000162985,-3.5413,1.03987,0.0567379,0.566694,
2,1,0,1,0,40746.9,0.571109,0.57082,0.290747,61,0.0374962,10,0.000165964,-3.53648,0.586475,0.100601,0.570692,
2,1,0,1,0,40747.7,0.575105,0.574779,0.294523,61,0.0377372,10,0.000169286,-3.53088,0.830481,0.0710431,0.574649,
2,1,0,0,0,40748.5,0.5791,0.578788,0.299557,61,0.0379811,10,0.00017338,-3.52352,0.816854,0.0722283,0.578656,
2,1,0,1,0,40749.3,0.583095,0.58282,0.30273,61,0.0382282,10,0.000176437,-3.51894,0.583721,0.101076,0.582687,
2,1,0,1,0,40750.1,0.58709,0.586796,0.307629,61,0.0384791,10,0.000180516,-3.51197,0.48599,0.121402,0.58666,
2,1,0,1,0,40750.9,0.591085,0.590809,0.313577,61,0.0387343,10,0.000185264,-3.50366,0.461852,0.127746,0.590671,
2,1,0,1,0,40751.7,0.59508,0.594767,0.319526,61,0.0389943,10,0.000190044,-3.49549,0.475595,0.124055,0.594626,
2,1,0,0,0,40752.5,0.599076,0.598741,0.326722,61,0.0392595,10,0.000195622,-3.48582,0.412219,0.143128,0.598597,
2,1,0,1,0,40753.3,0.603071,0.602774,0.335207,61,0.0395306,10,0.000202054,-3.47469,0.352589,0.167333,0.602627,
2,1,0,0,0,40754.1,0.607066,0.606754,0.343901,61,0.0398089,10,0.000208663,-3.46357,0.320291,0.184207,0.606603,
2,1,0,1,0,40754.9,0.611061,0.610787,0.354598,61,0.0400948,10,0.000216584,-3.45026,0.282327,0.208977,0.610631,
2,1,0,1,0,40755.7,0.615056,0.614773,0.367269,61,0.0403898,10,0.000225787,-3.43502,0.235039,0.251022,0.614611,
2,1,0,1,0,40756.5,0.619051,0.618792,0.380926,61,0.0406958,10,0.000235714,-3.41916,0.2412,0.24461,0.618624,
2,1,0,1,0,40757.3,0.623047,0.622771,0.39766,61,0.0410139,10,0.000247651,-3.40049,0.201179,0.29327,0.622596,
2,1,0,0,0,40758.1,0.627042,0.626779,0.417189,61,0.0413462,10,0.000261485,-3.37967,0.183429,0.32165,0.626595,
2,1,0,1,0,40758.9,0.631037,0.630771,0.439759,61,0.0416953,10,0.000277387,-3.35679,0.176874,0.333571,0.630577,
2,1,0,1,0,40759.7,0.635032,0.634709,0.464188,61,0.0420629,10,0.000294624,-3.33331,0.157463,0.37469,0.634505,
2,1,0,1,0,40760.5,0.639027,0.638731,0.494641,61,0.0424525,10,0.000315942,-3.30571,0.137222,0.429961,0.638513,
2,1,0,1,0,40761.3,0.643022,0.642707,0.528918,61,0.042868,10,0.000339939,-3.27661,0.130711,0.451376,0.642474,
2,1,0,0,0,40762.1,0.647018,0.646712,0.568413,61,0.0433128,10,0.0003676,-3.24534,0.121931,0.483879,0.646462,
2,1,0,1,0,40762.9,0.651013,0.650757,0.615273,61,0.0437924,10,0.000400393,-3.21093,0.107444,0.549124,0.650486,
2,1,0,1,0,40763.7,0.655008,0.654733,0.672443,61,0.0443134,10,0.000440271,-3.17234,0.104158,0.56645,0.654437,
2,1,0,1,0,40764.5,0.659003,0.658699,0.735056,61,0.0448818,10,0.00048418,-3.13368,0.0960065,0.614542,0.658376,
2,1,0,1,0,40765.3,0.662998,0.662703,0.810677,61,0.0455058,10,0.000537238,-3.09115,0.0955272,0.617625,0.662346,
2,1,0,0,0,40766.1,0.666994,0.666731,0.896608,61,0.0461935,10,0.000597796,-3.0474,0.0867574,0.680057,0.666336,
2,1,0,1,0,40766.9,0.670989,0.670758,0.994114,61,0.046955,10,0.00066681,-3.00256,0.0867176,0.680369,0.670321,
2,1,0,0,0,40767.7,0.674984,0.674679,1.10725,61,0.0478007,10,0.000747036,-2.95576,0.0852436,0.692134,0.674191,
2,1,0,1,0,40768.5,0.67898,0.678713,1.2353,61,0.0487424,10,0.000838416,-2.90823,0.0805696,0.732286,0.678169,
2,1,0,1,0,40769.3,0.682974,0.682689,1.37976,61,0.0497933,10,0.000941949,-2.8602,0.0824147,0.715891,0.682082,
2,1,0,1,0,40770.1,0.686969,0.686672,1.5417,61,0.0509665,10,0.00105864,-2.812,0.0806345,0.731696,0.685993,
2,1,0,1,0,40770.9,0.690965,0.690693,1.72148,61,0.052276,10,0.00118901,-2.7641,0.0817603,0.721621,0.689935,
2,1,0,0,0,40771.7,0.69496,0.694675,1.92343,61,0.0537383,10,0.00133615,-2.71592,0.0819852,0.719642,0.693828,
2,1,0,1,0,40772.5,0.698955,0.698683,2.14235,61,0.0553679,10,0.00149682,-2.66911,0.084011,0.702289,0.69774,
2,1,0,1,0,40773.3,0.70295,0.702697,2.38285,61,0.0571819,10,0.00167442,-2.6229,0.085035,0.693832,0.701648,
2,1,0,1,0,40774.1,0.706945,0.706685,2.6426,61,0.0591956,10,0.00186749,-2.57797,0.0874862,0.674392,0.705522,
2,1,0,1,0,40774.9,0.71094,0.710633,2.92304,61,0.0614253,10,0.00207721,-2.53417,0.0888909,0.663735,0.709347,
2,1,0,0,0,40775.7,0.714936,0.714606,3.22432,61,0.0638873,10,0.00230412,-2.49156,0.0919944,0.641343,0.713187,
2,1,0,1,0,40776.5,0.718931,0.718637,3.54643,61,0.0665983,10,0.0025486,-2.45021,0.0936369,0.630094,0.717076,
2,1,0,1,0,40777.3,0.722927,0.72264,3.8905,61,0.069576,10,0.00281143,-2.40999,0.0983666,0.599797,0.720928,
2,1,0,1,0,40778.1,0.726921,0.726631,4.25509,61,0.072836,10,0.00309188,-2.37109,0.100629,0.58631,0.724759,
2,1,0,1,0,40778.9,0.730916,0.73062,4.63939,61,0.0763952,10,0.00338963,-2.33354,0.102253,0.577002,0.728579,
2,1,0,1,0,40779.7,0.734911,0.734637,5.04771,61,0.0802719,10,0.00370824,-2.29691,0.105128,0.561219,0.732416,
2,1,0,1,0,40780.5,0.738907,0.738623,5.47675,61,0.0844834,10,0.00404526,-2.26148,0.10993,0.536705,0.736213,
2,1,0,0,0,40781.3,0.742902,0.742657,5.9295,61,0.0890462,10,0.00440359,-2.22698,0.110981,0.531623,0.740048,
2,1,0,1,0,40782.1,0.746897,0.746615,6.4046,61,0.0939805,10,0.00478177,-2.19351,0.114493,0.515316,0.743797,
2,1,0,1,0,40782.9,0.750892,0.750599,6.90363,61,0.0993027,10,0.00518186,-2.16092,0.117905,0.500402,0.747561,
2,1,0,1,0,40783.7,0.754887,0.754661,7.42649,61,0.105034,10,0.00560448,-2.12922,0.119968,0.491797,0.751394,
2,1,0,1,0,40784.5,0.758883,0.758632,7.9775,61,0.111195,10,0.00605199,-2.09813,0.121439,0.485839,0.755122,
2,1,0,0,0,40785.3,0.762878,0.762607,8.55461,61,0.117805,10,0.00652381,-2.0678,0.124643,0.47335,0.758843,
2,1,0,1,0,40786.1,0.766873,0.766605,9.16046,61,0.124889,10,0.00702246,-2.03808,0.126225,0.467419,0.762575,
2,1,0,1,0,40786.9,0.770868,0.770627,9.80123,61,0.13247,10,0.00755309,-2.00872,0.127857,0.461454,0.766314,
2,1,0,1,0,40787.7,0.774863,0.77457,10.4743,61,0.140574,10,0.00811306,-1.97988,0.12882,0.458003,0.769961,
2,1,0,1,0,40788.5,0.778858,0.778572,11.1901,61,0.149235,10,0.00871228,-1.95117,0.127002,0.464559,0.773648,
2,1,0,0,0,40789.3,0.782854,0.78259,11.9448,61,0.158483,10,0.00934788,-1.92282,0.129996,0.453862,0.777334,
2,1,0,1,0,40790.1,0.786849,0.786578,12.7545,61,0.168353,10,0.0100324,-1.89434,0.123882,0.476261,0.780966,
2,1,0,0,0,40790.9,0.790844,0.790551,13.6414,61,0.178904,10,0.0107842,-1.86514,0.125424,0.470405,0.784549,
2,1,0,1,0,40791.7,0.794839,0.794568,14.5679,61,0.190178,10,0.0115752,-1.8366,0.123641,0.477186,0.788159,
2,1,0,1,0,40792.5,0.798834,0.798535,15.5672,61,0.202224,10,0.012431,-1.80779,0.127505,0.462727,0.791685,
2,1,0,1,0,40793.3,0.802829,0.802523,16.6,61,0.215079,10,0.0133219,-1.77989,0.127848,0.461486,0.795219,
2,1,0,1,0,40794.1,0.806825,0.806546,17.6955,61,0.228785,10,0.0142722,-1.75214,0.127329,0.463368,0.79876,
2,1,0,0,0,40794.9,0.81082,0.81052,18.8223,61,0.243377,10,0.0152558,-1.72533,0.129218,0.456593,0.802238,
2,1,0,1,0,40795.7,0.814815,0.814555,20.0019,61,0.258895,10,0.0162927,-1.69893,0.131526,0.448582,0.805754,
2,1,0,1,0,40796.5,0.81881,0.818536,21.2425,61,0.275377,10,0.0173877,-1.67279,0.130517,0.452048,0.80919,
2,1,0,1,0,40797.3,0.822805,0.822525,22.603,61,0.292894,10,0.0185916,-1.64583,0.130982,0.450443,0.81258,
2,1,0,1,0,40798.1,0.826801,0.826589,23.9155,61,0.311493,10,0.0197683,-1.62132,0.141325,0.417479,0.816066,
2,1,0,0,0,40798.9,0.830796,0.830523,25.261,61,0.331154,10,0.0209798,-1.59755,0.184608,0.319596,0.819409,
2,1,0,1,0,40799.7,0.834791,0.834565,26.4045,61,0.35177,10,0.0220362,-1.57832,0.148523,0.397246,0.822947,
2,1,0,1,0,40800.5,0.838786,0.838493,27.859,61,0.373447,10,0.0233596,-1.55503,0.142214,0.414868,0.826235,
2,1,0,1,0,40801.3,0.842781,0.842544,29.2611,61,0.396287,10,0.0246538,-1.53371,0.163281,0.36134,0.829669,
2,1,0,1,0,40802.1,0.846776,0.846537,30.7133,61,0.420253,10,0.0259999,-1.51267,0.161245,0.365903,0.833023,
2,1,0,1,0,40802.8,0.849723,0.849464,31.6805,61,0.442185,10,0.0269114,-1.49921,0.0491944,1.19932,0.835525,
2,1,0,0,0,40803.6,0.845728,0.84549,29.5307,61,0.466562,10,0.0249679,-1.52973,0.120898,0.488015,0.832496,
2,1,0,1,0,40804.4,0.841732,0.841509,27.8581,61,0.489482,10,0.0234428,-1.55505,0.126972,0.46467,0.829252,
2,1,0,1,0,40805.2,0.837737,0.837444,26.2301,61,0.511078,10,0.0219662,-1.5812,0.13337,0.442377,0.825903,
2,1,0,1,0,40806,0.833742,0.833487,24.7968,61,0.531462,10,0.0206678,-1.6056,0.129306,0.456282,0.822577,
2,1,0,1,0,40806.8,0.829747,0.829504,23.3443,61,0.550677,10,0.0193642,-1.63182,0.126641,0.465885,0.819233,
2,1,0,0,0,40807.6,0.825752,0.82551,21.925,61,0.568749,10,0.0180993,-1.65906,0.123621,0.477264,0.815863,
2,1,0,1,0,40808.4,0.821757,0.821536,20.5886,61,0.585717,10,0.0169143,-1.68637,0.125407,0.470467,0.812477,
2,1,0,1,0,40809.2,0.817761,0.817478,19.3112,61,0.601648,10,0.0157865,-1.71419,0.122887,0.480116,0.808981,
2,1,0,1,0,40810,0.813766,0.813518,18.1042,61,0.616584,10,0.0147281,-1.74222,0.126485,0.466457,0.805553,
2,1,0,1,0,40810.8,0.809771,0.80946,16.9726,61,0.630585,10,0.0137387,-1.77025,0.123878,0.476274,0.801992,
2,1,0,1,0,40811.6,0.805776,0.80548,15.863,61,0.643695,10,0.0127774,-1.79961,0.114722,0.514288,0.7985,
2,1,0,1,0,40812.4,0.801781,0.801429,14.7987,61,0.655934,10,0.0118601,-1.82978,0.120514,0.489569,0.794917,
2,1,0,0,0,40813.2,0.797786,0.797517,13.7779,61,0.667342,10,0.0109881,-1.86082,0.111526,0.529026,0.791455,
2,1,0,1,0,40814,0.79379,0.793477,12.8351,61,0.677965,10,0.0101843,-1.8916,0.115508,0.510789,0.78783,
2,1,0,1,0,40814.8,0.789795,0.789544,11.9502,61,0.687856,10,0.00943523,-1.92262,0.116662,0.505734,0.784286,
2,1,0,1,0,40815.6,0.7858,0.785505,11.1132,61,0.69706,10,0.00872944,-1.95416,0.113191,0.521243,0.780615,
2,1,0,1,0,40816.4,0.781805,0.781545,10.3219,61,0.705614,10,0.00806703,-1.98624,0.113978,0.517645,0.777004,
2,1,0,0,0,40817.2,0.77781,0.777553,9.57324,61,0.71355,10,0.0074437,-2.01894,0.109683,0.537914,0.773341,
2,1,0,1,0,40818,0.773814,0.773538,8.87086,61,0.720907,10,0.00686195,-2.05203,0.112154,0.526063,0.769635,
2,1,0,1,0,40818.8,0.769819,0.769527,8.20253,61,0.727719,10,0.00631207,-2.08605,0.107339,0.549661,0.765918,
2,1,0,1,0,40819.6,0.765824,0.765568,7.58117,61,0.734015,10,0.0058039,-2.12026,0.109998,0.536375,0.762233,
2,1,0,1,0,40820.4,0.761829,0.761534,6.99826,61,0.739832,10,0.00532941,-2.15501,0.106246,0.555316,0.758454,
2,1,0,0,0,40821.2,0.757834,0.75756,6.44769,61,0.745194,10,0.00488451,-2.1906,0.102358,0.576408,0.754723,
2,1,0,1,0,40822,0.753839,0.753539,5.92852,61,0.750128,10,0.00446737,-2.22705,0.10392,0.567744,0.75093,
2,1,0,0,0,40822.8,0.749844,0.749585,5.43981,61,0.75466,10,0.00407759,-2.26442,0.0993289,0.593986,0.747191,
2,1,0,1,0,40823.6,0.745848,0.745559,4.98487,61,0.758815,10,0.00371652,-2.30235,0.100706,0.585863,0.743366,
2,1,0,1,0,40824.4,0.741853,0.741587,4.55988,61,0.762619,10,0.00338155,-2.34105,0.0962333,0.613094,0.739581,
2,1,0,1,0,40825.1,0.737858,0.737591,4.16038,61,0.766094,10,0.00306866,-2.38087,0.0945281,0.624153,0.73576,
2,1,0,1,0,40825.9,0.733863,0.733578,3.78685,61,0.76926,10,0.00277795,-2.42172,0.0933281,0.632178,0.731912,
2,1,0,0,0,40826.7,0.729868,0.729595,3.43474,61,0.772136,10,0.00250597,-2.46411,0.0884759,0.666848,0.728084,
2,1,0,1,0,40827.5,0.725872,0.725564,3.10458,61,0.77474,10,0.00225257,-2.508,0.0866536,0.680872,0.724198,
2,1,0,1,0,40828.3,0.721877,0.721541,2.79875,61,0.777089,10,0.00201941,-2.55304,0.0846769,0.696766,0.72031,
2,1,0,1,0,40829.1,0.717882,0.717596,2.51337,61,0.779203,10,0.00180359,-2.59974,0.0820886,0.718735,0.71649,
2,1,0,1,0,40829.9,0.713887,0.713673,2.24786,61,0.781096,10,0.00160423,-2.64823,0.0774117,0.762159,0.712684,
2,1,0,0,0,40830.7,0.709892,0.709599,2.00144,61,0.782785,10,0.00142022,-2.69866,0.075651,0.779897,0.708718,
2,1,0,1,0,40831.5,0.705897,0.705598,1.77231,61,0.784284,10,0.00125054,-2.75146,0.0725476,0.81326,0.704818,
2,1,0,1,0,40832.3,0.701901,0.701582,1.56218,61,0.785607,10,0.001096,-2.80627,0.0700658,0.842066,0.700894,
2,1,0,1,0,40833.1,0.697906,0.697583,1.36953,61,0.78677,10,0.000955363,-2.86343,0.0675317,0.873664,0.69698,
2,1,0,1,0,40833.9,0.693911,0.69365,1.19361,61,0.787785,10,0.000827945,-2.92314,0.0639588,0.922469,0.693124,
2,1,0,0,0,40834.7,0.689916,0.689657,1.03408,61,0.788667,10,0.000713158,-2.98545,0.0608306,0.969906,0.689202,
2,1,0,1,0,40835.5,0.685921,0.685629,0.892504,61,0.789427,10,0.000611927,-3.04939,0.0600752,0.982103,0.685237,
2,1,0,0,0,40836.3,0.681926,0.681614,0.760317,61,0.790079,10,0.000518242,-3.11901,0.0553922,1.06513,0.681279,
2,1,0,1,0,40837.1,0.67793,0.677695,0.643977,61,0.790632,10,0.00043642,-3.19113,0.0536417,1.09989,0.677412,
2,1,0,1,0,40837.9,0.673935,0.673651,0.541732,61,0.791098,10,0.000364939,-3.26622,0.051626,1.14284,0.673413,
2,1,0,1,0,40838.7,0.66994,0.669678,0.451859,61,0.791486,10,0.0003026,-3.345,0.0476938,1.23706,0.669479,
2,1,0,1,0,40839.5,0.665945,0.665635,0.371523,61,0.791807,10,0.000247299,-3.43001,0.0465641,1.26707,0.665472,
2,1,0,0,0,40840.3,0.66195,0.66163,0.303326,61,0.792069,10,0.00020069,-3.51809,0.0427118,1.38135,0.661497,
2,1,0,1,0,40841.1,0.657955,0.657693,0.241981,61,0.792279,10,0.000159149,-3.61622,0.040543,1.45525,0.657586,
2,1,0,1,0,40841.9,0.653959,0.653667,0.191193,61,0.792445,10,0.000124976,-3.71853,0.0362718,1.62661,0.653583,
2,1,0,1,0,40842.7,0.649964,0.649699,0.147252,61,0.792572,10,9.56692e-05,-3.83194,0.0317666,1.85729,0.649634,
2,1,0,1,0,40843.5,0.64597,0.645686,0.109047,61,0.792667,10,7.04101e-05,-3.96239,0.0298043,1.97958,0.645638,
2,1,0,0,0,40844.3,0.641974,0.641657,0.076881,61,0.792734,10,4.93313e-05,-4.11418,0.0238471,2.4741,0.641624,
2,1,0,1,0,40845.1,0.637979,0.637675,0.050948,61,0.792777,10,3.24882e-05,-4.29287,0.0180554,3.26772,0.637652,
2,1,0,1,0,40845.9,0.633983,0.633711,0.0272426,61,0.7928,10,1.72639e-05,-4.56475,0.0114658,5.14575,0.633699,
2,1,0,1,0,40846.7,0.629988,0.629725,0.00829571,61,0.792807,10,5.22401e-06,-5.08115,0.00241333,24.4475,0.629721,
2,0,0,1,0,40847.5,0.625993,0.625685,-0.00789729,61,0.792799,10,-4.94121e-06,-5.10252,-0.00246917,-23.8946,0.625688,
2,0,0,0,0,40848.3,0.621998,0.621689,-0.0210856,61,0.79278,10,-1.31087e-05,-4.67601,-0.016285,-3.62296,0.621698,
2,0,0,1,0,40849.1,0.618003,0.617699,-0.0312326,61,0.792752,10,-1.92923e-05,-4.50539,-0.0262876,-2.24441,0.617712,
2,0,0,0,0,40849.9,0.614008,0.613688,-0.0420643,61,0.792714,10,-2.58144e-05,-4.37609,-0.0486927,-1.21168,0.613707,
2,0,0,1,0,40850.7,0.610012,0.60972,-0.0490917,61,0.792671,10,-2.99322e-05,-4.30899,-0.0684222,-0.862293,0.609741,
2,0,0,1,0,40851.5,0.606017,0.60577,-0.055657,61,0.792621,10,-3.37153e-05,-4.25448,-0.0836116,-0.705643,0.605795,
2,0,0,1,0,40852.3,0.602022,0.601732,-0.0615949,61,0.792567,10,-3.70637e-05,-4.21046,-0.117467,-0.502267,0.60176,
2,0,0,1,0,40853.1,0.598027,0.597721,-0.0665692,61,0.792509,10,-3.97898e-05,-4.17673,-0.117397,-0.502569,0.59775,
2,0,0,0,0,40853.9,0.594032,0.593724,-0.0702971,61,0.792446,10,-4.1737e-05,-4.15306,-0.174715,-0.337693,0.593755,
2,0,0,1,0,40854.7,0.590037,0.58975,-0.07434,61,0.792381,10,-4.3842e-05,-4.12878,-0.241786,-0.244018,0.589782,
2,0,0,1,0,40855.5,0.586041,0.585758,-0.0775878,61,0.792313,10,-4.54477e-05,-4.11021,-0.19363,-0.304705,0.585792,
2,0,0,1,0,40856.3,0.582046,0.581775,-0.08078,61,0.792242,10,-4.69958e-05,-4.0927,-0.319048,-0.184925,0.581811,
2,0,0,1,0,40857.1,0.578052,0.57777,-0.0830612,61,0.79217,10,-4.79902e-05,-4.0806,-0.434427,-0.135811,0.577806,
2,0,0,0,0,40857.9,0.574056,0.573767,-0.08401,61,0.792095,10,-4.82022e-05,-4.07567,-0.272087,-0.216843,0.573804,
2,0,0,1,0,40858.7,0.570061,0.569798,-0.0866557,61,0.792019,10,-4.93763e-05,-4.0622,-1.24468,-0.0474018,0.569836,
2,0,0,1,0,40859.5,0.566065,0.565752,-0.0882255,61,0.791942,10,-4.99137e-05,-4.05441,-0.362108,-0.162935,0.565791,
2,0,0,1,0,40860.3,0.56207,0.561768,-0.0897914,61,0.791863,10,-5.04419e-05,-4.04677,-0.727659,-0.0810819,0.561808,
2,0,0,1,0,40861.1,0.558075,0.557793,-0.0909966,61,0.791783,10,-5.07573e-05,-4.04097,-0.573433,-0.102889,0.557833,
2,0,0,1,0,40861.9,0.55408,0.553768,-0.092555,61,0.791702,10,-5.1254e-05,-4.0336,-0.367739,-0.16044,0.553809,
2,0,0,1,0,40862.7,0.550085,0.549776,-0.0936079,61,0.79162,10,-5.14634e-05,-4.02869,-0.948541,-0.0622008,0.549818,
2,0,0,0,0,40863.5,0.54609,0.545799,-0.09517,61,0.791537,10,-5.19437e-05,-4.0215,-1.96885,-0.0299667,0.545841,
2,0,0,1,0,40864.3,0.542094,0.541826,-0.0957136,61,0.791453,10,-5.18601e-05,-4.01903,-0.534037,-0.110479,0.541868,
2,0,0,1,0,40865.1,0.538099,0.537784,-0.0969092,61,0.791368,10,-5.21163e-05,-4.01363,-9.63725,-0.00612208,0.537827,
2,0,0,1,0,40865.9,0.534104,0.533791,-0.097878,61,0.791282,10,-5.22464e-05,-4.00931,-0.495379,-0.119101,0.533834,
2,0,0,1,0,40866.7,0.530109,0.529821,-0.0990495,61,0.791196,10,-5.24785e-05,-4.00415,-1.715,-0.0344024,0.529864,
2,0,0,0,0,40867.5,0.526114,0.52578,-0.10046,61,0.791108,10,-5.28199e-05,-3.99801,-0.894808,-0.0659359,0.525825,
2,0,0,1,0,40868.3,0.522119,0.521802,-0.101292,61,0.79102,10,-5.28543e-05,-3.99443,-0.58176,-0.101416,0.521846,
2,0,0,1,0,40869.1,0.518123,0.517793,-0.102729,61,0.79093,10,-5.31923e-05,-3.98831,-0.755413,-0.0781029,0.517838,
2,0,0,1,0,40869.9,0.514128,0.513821,-0.103825,61,0.79084,10,-5.33474e-05,-3.9837,-1.66449,-0.0354463,0.513867,
2,0,0,1,0,40870.7,0.510133,0.509822,-0.104384,61,0.790749,10,-5.3217e-05,-3.98137,-1.00778,-0.0585446,0.509868,
2,0,0,0,0,40871.5,0.506138,0.505773,-0.105207,61,0.790657,10,-5.32107e-05,-3.97796,-0.661721,-0.0891615,0.505819,
2,0,0,1,0,40872.3,0.502143,0.501841,-0.106215,61,0.790564,10,-5.33031e-05,-3.97381,-0.550675,-0.107141,0.501887,
2,0,0,0,0,40873.1,0.498148,0.497845,-0.108123,61,0.79047,10,-5.38286e-05,-3.96608,-6.48741,-0.00909454,0.497893,
2,0,0,1,0,40873.9,0.494152,0.493879,-0.109488,61,0.790375,10,-5.40737e-05,-3.96063,-0.615274,-0.0958923,0.493927,
2,0,0,1,0,40874.7,0.490157,0.489834,-0.110078,61,0.790279,10,-5.39198e-05,-3.9583,-0.536834,-0.109904,0.489882,
2,0,0,1,0,40875.5,0.486162,0.485797,-0.111828,61,0.790182,10,-5.43257e-05,-3.95145,-0.780683,-0.0755748,0.485847,
2,0,0,1,0,40876.3,0.482167,0.481869,-0.113684,61,0.790084,10,-5.47809e-05,-3.9443,-1.19229,-0.0494845,0.481919,
2,0,0,0,0,40877.1,0.478172,0.477876,-0.113836,61,0.789985,10,-5.43993e-05,-3.94372,-0.428618,-0.137652,0.477926,
2,0,0,1,0,40877.9,0.474177,0.473858,-0.11665,61,0.789885,10,-5.52754e-05,-3.93312,2.78637,0.0211745,0.473909,
2,0,0,1,0,40878.7,0.470181,0.469878,-0.117201,61,0.789783,10,-5.50703e-05,-3.93107,-0.580123,-0.101703,0.469929,
2,0,0,1,0,40879.5,0.466186,0.46584,-0.119476,61,0.789681,10,-5.56569e-05,-3.92272,-0.556243,-0.106069,0.465893,
2,0,0,1,0,40880.3,0.462191,0.461883,-0.120756,61,0.789577,10,-5.57749e-05,-3.91809,-0.853767,-0.0691055,0.461936,
2,0,0,0,0,40881.1,0.458196,0.45794,-0.121783,61,0.789472,10,-5.57694e-05,-3.91441,-0.59413,-0.0993048,0.457993,
2,0,0,1,0,40881.9,0.454201,0.453917,-0.12289,61,0.789365,10,-5.5782e-05,-3.91048,-1.08996,-0.0541305,0.453971,
2,0,0,1,0,40882.7,0.450205,0.449901,-0.124999,61,0.789258,10,-5.62373e-05,-3.90309,-0.760768,-0.0775532,0.449956,
2,0,0,1,0,40883.5,0.44621,0.445931,-0.126465,61,0.789148,10,-5.63948e-05,-3.89803,-0.480439,-0.122804,0.445986,
2,0,0,1,0,40884.3,0.442215,0.441911,-0.128125,61,0.789038,10,-5.66199e-05,-3.89237,-1.02325,-0.0576596,0.441968,
2,0,0,0,0,40885.1,0.43822,0.437936,-0.129823,61,0.788927,10,-5.68544e-05,-3.88665,-0.5272,-0.111912,0.437994,
2,0,0,1,0,40885.9,0.434225,0.433935,-0.131686,61,0.788814,10,-5.71432e-05,-3.88046,-1.56542,-0.0376897,0.433993,
2,0,0,0,0,40886.7,0.43023,0.429937,-0.133541,61,0.788699,10,-5.74142e-05,-3.87439,-0.510609,-0.115548,0.429995,
2,0,0,1,0,40887.5,0.426234,0.425931,-0.135408,61,0.788583,10,-5.76745e-05,-3.86836,-0.42123,-0.140066,0.425991,
2,0,0,1,0,40888.3,0.422239,0.42195,-0.137627,61,0.788466,10,-5.80717e-05,-3.8613,-1.4011,-0.0421097,0.42201,
2,0,0,1,0,40889.1,0.418244,0.41797,-0.138942,61,0.788347,10,-5.80735e-05,-3.85717,-0.613006,-0.096247,0.418032,
2,0,0,1,0,40889.9,0.414249,0.413933,-0.140601,61,0.788226,10,-5.81993e-05,-3.85201,-1.05678,-0.05583,0.413995,
2,0,0,0,0,40890.7,0.410254,0.409916,-0.143338,61,0.788104,10,-5.87564e-05,-3.84364,-0.862226,-0.0684275,0.409979,
2,0,0,1,0,40891.5,0.406259,0.405945,-0.145055,61,0.78798,10,-5.88842e-05,-3.83847,-0.4304,-0.137082,0.406009,
2,0,0,1,0,40892.3,0.402263,0.40196,-0.146498,61,0.787854,10,-5.88864e-05,-3.83417,-0.787194,-0.0749498,0.402024,
2,0,0,1,0,40893.1,0.398268,0.397963,-0.149541,61,0.787727,10,-5.95118e-05,-3.82524,-0.592357,-0.099602,0.398029,
2,0,0,1,0,40893.9,0.394274,0.39396,-0.151488,61,0.787598,10,-5.96802e-05,-3.81962,-1.49967,-0.0393421,0.394026,
2,0,0,0,0,40894.7,0.390278,0.389952,-0.152941,61,0.787467,10,-5.96398e-05,-3.81547,-0.599957,-0.0983404,0.390019,
2,0,0,1,0,40895.5,0.386283,0.385919,-0.15562,61,0.787335,10,-6.00566e-05,-3.80794,-0.481047,-0.122649,0.385988,
2,0,0,1,0,40896.3,0.382287,0.381994,-0.156612,61,0.787201,10,-5.98249e-05,-3.80517,-0.782234,-0.075425,0.382063,
2,0,0,1,0,40897.1,0.378292,0.37802,-0.159886,61,0.787065,10,-6.04402e-05,-3.79619,-0.973266,-0.0606207,0.378091,
2,0,0,1,0,40897.9,0.374297,0.374003,-0.161373,61,0.786927,10,-6.0354e-05,-3.79217,-0.425564,-0.13864,0.374074,
2,0,0,1,0,40898.7,0.370303,0.369989,-0.164281,61,0.786788,10,-6.07822e-05,-3.78441,-1.91512,-0.0308075,0.370062,
2,0,0,1,0,40899.5,0.366307,0.36598,-0.165519,61,0.786647,10,-6.05768e-05,-3.78115,-0.449314,-0.131311,0.366053,
2,0,0,0,0,40900.3,0.362312,0.361975,-0.168886,61,0.786504,10,-6.11327e-05,-3.77241,-0.808506,-0.0729741,0.36205,
2,0,0,1,0,40901.1,0.358316,0.357997,-0.170682,61,0.786358,10,-6.11035e-05,-3.76781,-0.589096,-0.100153,0.358072,
2,0,0,1,0,40901.9,0.354321,0.354011,-0.172982,61,0.786212,10,-6.12377e-05,-3.762,-0.805423,-0.0732535,0.354088,
2,0,0,1,0,40902.7,0.350327,0.35001,-0.174516,61,0.786063,10,-6.10824e-05,-3.75816,-0.75002,-0.0786645,0.350087,
2,0,0,1,0,40903.5,0.346331,0.346033,-0.177963,61,0.785912,10,-6.15811e-05,-3.74967,-1.6139,-0.0365575,0.346111,
2,0,0,0,0,40904.3,0.342336,0.342051,-0.179475,61,0.785759,10,-6.13897e-05,-3.746,-0.442942,-0.1332,0.34213,
2,0,0,1,0,40905.1,0.338341,0.338017,-0.182309,61,0.785605,10,-6.16235e-05,-3.73919,-0.622389,-0.094796,0.338098,
2,0,0,1,0,40905.9,0.334345,0.334038,-0.184916,61,0.785448,10,-6.1769e-05,-3.73302,-0.698417,-0.0844767,0.334119,
2,0,0,1,0,40906.7,0.33035,0.330027,-0.18728,61,0.785289,10,-6.18074e-05,-3.72751,-0.52671,-0.112016,0.33011,
2,0,0,1,0,40907.4,0.326355,0.326014,-0.189616,61,0.785129,10,-6.18174e-05,-3.72213,-1.00047,-0.0589725,0.326098,
2,0,0,0,0,40908.2,0.32236,0.32205,-0.1921,61,0.784966,10,-6.18658e-05,-3.71647,-0.83158,-0.0709492,0.322134,
2,0,0,1,0,40909,0.318365,0.318055,-0.19353,61,0.784801,10,-6.15532e-05,-3.71325,-0.669911,-0.0880714,0.31814,
2,0,0,0,0,40909.8,0.31437,0.314037,-0.19778,61,0.784634,10,-6.21103e-05,-3.70382,-1.05937,-0.0556935,0.314124,
2,0,0,1,0,40910.6,0.310374,0.310039,-0.199648,61,0.784466,10,-6.18986e-05,-3.69974,-0.6309,-0.0935172,0.310126,
2,0,0,1,0,40911.4,0.306379,0.306045,-0.202229,61,0.784295,10,-6.18911e-05,-3.69416,-0.65749,-0.0897352,0.306134,
2,0,0,1,0,40912.2,0.302385,0.302039,-0.203163,61,0.784122,10,-6.13634e-05,-3.69215,-0.926576,-0.0636753,0.302129,
2,0,0,1,0,40913,0.298389,0.298075,-0.206423,61,0.783948,10,-6.15295e-05,-3.68524,-0.497711,-0.118543,0.298166,
2,0,0,0,0,40913.8,0.294394,0.29403,-0.20945,61,0.783771,10,-6.15844e-05,-3.67892,-1.66269,-0.0354846,0.294122,
2,0,0,1,0,40914.6,0.290398,0.290054,-0.212153,61,0.783592,10,-6.15357e-05,-3.67335,-0.686534,-0.085939,0.290147,
2,0,0,1,0,40915.4,0.286403,0.286125,-0.213695,61,0.783411,10,-6.11435e-05,-3.67021,-0.545491,-0.108159,0.286219,
2,0,0,1,0,40916.2,0.282408,0.282053,-0.217699,61,0.783227,10,-6.14025e-05,-3.66214,-1.42463,-0.0414142,0.282148,
2,0,0,1,0,40917,0.278414,0.278091,-0.220017,61,0.783042,10,-6.11849e-05,-3.65754,-0.508903,-0.115936,0.278188,
2,0,0,0,0,40917.8,0.274418,0.274121,-0.222509,61,0.782854,10,-6.09943e-05,-3.65265,-0.778279,-0.0758083,0.274219,
2,0,0,1,0,40918.6,0.270423,0.270126,-0.226609,61,0.782664,10,-6.12131e-05,-3.64472,-1.02729,-0.0574327,0.270226,
2,0,0,1,0,40919.4,0.266427,0.266118,-0.228344,61,0.782471,10,-6.07662e-05,-3.64141,-0.684898,-0.0861442,0.266218,
2,0,0,1,0,40920.2,0.262432,0.262073,-0.231109,61,0.782277,10,-6.05675e-05,-3.63618,-0.889097,-0.0663595,0.262175,
2,0,0,1,0,40921,0.258437,0.258083,-0.233981,61,0.782081,10,-6.03866e-05,-3.63082,-0.72407,-0.0814838,0.258186,
2,0,0,0,0,40921.8,0.254442,0.25412,-0.235478,61,0.781882,10,-5.98398e-05,-3.62805,-0.734326,-0.0803458,0.254224,
2,0,0,1,0,40922.6,0.250447,0.250132,-0.238214,61,0.781681,10,-5.95849e-05,-3.62303,-2.14891,-0.0274558,0.250237,
2,0,0,0,0,40923.4,0.246452,0.246131,-0.241238,61,0.781479,10,-5.93762e-05,-3.61755,-0.602844,-0.0978694,0.246237,
2,0,0,1,0,40924.2,0.242456,0.24213,-0.24411,61,0.781274,10,-5.91064e-05,-3.61241,-0.703397,-0.0838786,0.242237,
2,0,0,1,0,40925,0.238461,0.238148,-0.246093,61,0.781067,10,-5.86067e-05,-3.6089,-0.759527,-0.0776799,0.238257,
2,0,0,1,0,40925.8,0.234467,0.23417,-0.249141,61,0.780859,10,-5.83414e-05,-3.60356,-2.06773,-0.0285338,0.23428,
2,0,0,1,0,40926.6,0.230471,0.230186,-0.251292,61,0.780648,10,-5.78439e-05,-3.59982,-0.863588,-0.0683196,0.230296,
2,0,0,0,0,40927.4,0.226476,0.226141,-0.25349,61,0.780435,10,-5.73247e-05,-3.59604,-1.02846,-0.0573673,0.226253,
2,0,0,1,0,40928.2,0.222481,0.22215,-0.256631,61,0.780221,10,-5.70106e-05,-3.59069,-0.72474,-0.0814085,0.222263,
2,0,0,1,0,40929,0.218485,0.218159,-0.260211,61,0.780003,10,-5.67674e-05,-3.58467,-1.92044,-0.0307221,0.218273,
2,0,0,1,0,40929.8,0.21449,0.214154,-0.261904,61,0.779784,10,-5.60876e-05,-3.58186,-0.549534,-0.107364,0.214269,
2,0,0,1,0,40930.6,0.210496,0.21019,-0.265124,61,0.779562,10,-5.57265e-05,-3.57655,-0.962093,-0.0613246,0.210307,
2,0,0,0,0,40931.4,0.2065,0.206151,-0.268983,61,0.779338,10,-5.54511e-05,-3.57027,-0.717238,-0.08226,0.206269,
2,0,0,1,0,40932.2,0.202505,0.202159,-0.271613,61,0.779112,10,-5.49091e-05,-3.56605,-0.977168,-0.0603786,0.202279,
2,0,0,1,0,40933,0.198509,0.198209,-0.273943,61,0.778883,10,-5.42979e-05,-3.56234,-0.742278,-0.0794851,0.198329,
2,0,0,1,0,40933.8,0.194514,0.194185,-0.277802,61,0.778651,10,-5.39449e-05,-3.55627,-0.820756,-0.0718849,0.194307,
2,0,0,1,0,40934.6,0.190519,0.190163,-0.281085,61,0.778417,10,-5.34521e-05,-3.55116,-0.514495,-0.114676,0.190287,
2,0,0,0,0,40935.4,0.186524,0.186187,-0.285541,61,0.778179,10,-5.31641e-05,-3.54433,-1.13293,-0.0520773,0.186313,
2,0,0,1,0,40936.2,0.182529,0.182234,-0.290762,61,0.777937,10,-5.29867e-05,-3.53646,-0.428043,-0.137837,0.182362,
2,0,0,0,0,40937,0.178534,0.178204,-0.295944,61,0.777692,10,-5.27383e-05,-3.52879,-0.490691,-0.120239,0.178334,
2,0,0,1,0,40937.8,0.174538,0.174169,-0.301765,61,0.777442,10,-5.25579e-05,-3.52033,-0.463274,-0.127354,0.174301,
2,0,0,1,0,40938.6,0.170543,0.170222,-0.30794,61,0.777187,10,-5.24182e-05,-3.51153,-0.351494,-0.167855,0.170357,
2,0,0,1,0,40939.4,0.166549,0.166197,-0.316276,61,0.776926,10,-5.25641e-05,-3.49993,-0.30817,-0.191453,0.166336,
2,0,0,1,0,40940.2,0.162553,0.162241,-0.327348,61,0.776657,10,-5.31094e-05,-3.48499,-0.285122,-0.206929,0.162385,
2,0,0,0,0,40941,0.158558,0.158205,-0.337464,61,0.77638,10,-5.33887e-05,-3.47177,-0.216681,-0.27229,0.158354,
2,0,0,1,0,40941.8,0.154563,0.154224,-0.355729,61,0.776091,10,-5.48618e-05,-3.44888,-0.196803,-0.299792,0.15438,
2,0,0,1,0,40942.6,0.150567,0.150258,-0.376174,61,0.775787,10,-5.65233e-05,-3.42461,-0.134844,-0.437541,0.150424,
2,0,0,1,0,40943.4,0.146572,0.146234,-0.404026,61,0.775464,10,-5.90822e-05,-3.39359,-0.116546,-0.506236,0.146411,
2,0,0,1,0,40944.2,0.142578,0.142267,-0.440605,61,0.775116,10,-6.26835e-05,-3.35595,-0.0974828,-0.605235,0.142461,
2,0,0,0,0,40945,0.138582,0.138251,-0.485353,61,0.774734,10,-6.71005e-05,-3.31394,-0.0922689,-0.639435,0.138464,
2,0,0,1,0,40945.8,0.134587,0.134238,-0.534721,61,0.774315,10,-7.178e-05,-3.27187,-0.0997896,-0.591244,0.134473,
2,0,0,1,0,40946.6,0.130591,0.130259,-0.586061,61,0.773855,10,-7.63397e-05,-3.23206,-0.108398,-0.544288,0.130517,
2,0,0,1,0,40947.4,0.126596,0.126339,-0.626824,61,0.773357,10,-7.91923e-05,-3.20285,-0.157041,-0.375699,0.126615,
2,0,0,1,0,40948.2,0.122602,0.12228,-0.658938,61,0.77283,10,-8.05749e-05,-3.18116,-0.245946,-0.23989,0.12257,
2,0,0,1,0,40949,0.118607,0.118284,-0.678052,61,0.772283,10,-8.02025e-05,-3.16874,-0.41046,-0.143741,0.118582,
2,0,0,1,0,40949.8,0.114611,0.114257,-0.687847,61,0.771724,10,-7.85913e-05,-3.16251,-1.57726,-0.0374067,0.11456,
2,0,0,0,0,40950.6,0.110616,0.110244,-0.691403,61,0.771161,10,-7.62232e-05,-3.16027,-5.44139,-0.0108428,0.110549,
2,0,0,1,0,40951.4,0.10662,0.106349,-0.688646,61,0.770598,10,-7.32368e-05,-3.162,2.83583,0.0208052,0.106652,
2,0,0,1,0,40952.2,0.102625,0.102261,-0.684436,61,0.770037,10,-6.99908e-05,-3.16467,0.970451,0.0607964,0.102562,
2,0,0,1,0,40953,0.0986305,0.0982887,-0.678009,61,0.769481,10,-6.66406e-05,-3.16876,0.968179,0.0609392,0.0985871,
2,0,0,1,0,40953.8,0.0946351,0.0943,-0.668517,61,0.768929,10,-6.30412e-05,-3.17489,0.724714,0.0814114,0.0945942,
2,0,0,0,0,40954.6,0.0906399,0.0902981,-0.663144,61,0.768384,10,-5.98806e-05,-3.17839,0.64463,0.0915253,0.0905899,
2,0,0,1,0,40955.4,0.0866448,0.0862738,-0.652834,61,0.767847,10,-5.63225e-05,-3.1852,0.743837,0.0793184,0.0865611,
2,0,0,1,0,40956.2,0.0826492,0.0822876,-0.644995,61,0.767316,10,-5.3075e-05,-3.19044,0.692061,0.0852526,0.0825714,
2,0,0,1,0,40957,0.0786544,0.0783303,-0.636317,61,0.766793,10,-4.98429e-05,-3.19633,0.674765,0.0874378,0.0786102,
2,0,0,1,0,40957.8,0.0746596,0.0743244,-0.625958,61,0.766277,10,-4.6524e-05,-3.20345,0.867272,0.0680294,0.0745999,
2,0,0,0,0,40958.6,0.0706641,0.0703391,-0.61963,61,0.765767,10,-4.35842e-05,-3.20787,0.594951,0.0991679,0.0706117,
2,0,0,1,0,40959.4,0.0666689,0.0663594,-0.61155,61,0.765263,10,-4.05821e-05,-3.21357,0.676639,0.0871957,0.0666285,
2,0,0,0,0,40960.2,0.0626737,0.0623638,-0.601833,61,0.764766,10,-3.75326e-05,-3.22052,0.733765,0.0804072,0.0626286,
2,0,0,1,0,40961,0.0586783,0.0583403,-0.594171,61,0.764276,10,-3.46642e-05,-3.22609,0.488917,0.120675,0.0586018,
2,0,0,1,0,40961.8,0.0546835,0.0544002,-0.585661,61,0.763793,10,-3.18601e-05,-3.23235,0.852211,0.0692317,0.0546579,
2,0,0,1,0,40962.6,0.0506886,0.0503867,-0.576111,61,0.763317,10,-2.90283e-05,-3.23949,0.483909,0.121924,0.0506402,
2,0,0,1,0,40963.4,0.046693,0.0463654,-0.565435,61,0.762849,10,-2.62166e-05,-3.24762,0.511456,0.115357,0.0466142,
2,0,0,0,0,40964.2,0.0426979,0.0423603,-0.555307,61,0.76239,10,-2.3523e-05,-3.25547,0.550084,0.107256,0.0426046,
2,0,0,1,0,40965,0.0387022,0.0383661,-0.545844,61,0.761937,10,-2.09419e-05,-3.26293,0.480613,0.12276,0.0386063,
2,0,0,1,0,40965.8,0.0347074,0.0343743,-0.537069,61,0.761493,10,-1.84614e-05,-3.26997,0.55548,0.106214,0.0346106,
2,0,0,1,0,40966.6,0.0307126,0.030379,-0.525491,61,0.761057,10,-1.59639e-05,-3.27943,0.518032,0.113892,0.0306102,
2,0,0,1,0,40967.4,0.0267172,0.0263948,-0.519026,61,0.760628,10,-1.36996e-05,-3.28481,0.492615,0.119769,0.0266232,
2,0,0,0,0,40968.2,0.022722,0.0223684,-0.511153,61,0.760205,10,-1.14337e-05,-3.29145,0.788109,0.0748628,0.0225933,
2,0,0,1,0,40969,0.0187268,0.0183951,-0.504498,61,0.759788,10,-9.28028e-06,-3.29714,0.856566,0.0688797,0.0186171,
2,0,0,1,0,40969.8,0.0147313,0.0144226,-0.500956,61,0.759376,10,-7.22507e-06,-3.3002,0.940875,0.0627076,0.014643,
2,0,0,1,0,40970.6,0.0107365,0.0104006,-0.495816,61,0.758967,10,-5.15676e-06,-3.30468,5.54302,0.010644,0.0106187,
2,0,0,1,0,40971.4,0.00674163,0.00636822,-0.494331,61,0.75856,10,-3.14801e-06,-3.30598,1.56756,0.0376382,0.00658573,
2,0,0,0,0,40972.2,0.00274612,0.0024084,-0.493806,61,0.758155,10,-1.18928e-06,-3.30644,-1.6111,-0.036621,0.00262568,
2,0,0,1,0,40972.7,0.000274105,-0.00010224,-0.494928,61,0.757901,10,5.06017e-08,-3.30546, , ,0.000115528,