File: Figure_codes/Fig_3-5/workspace_calculate_alpha_eff/20221101_1-115_003_TrumpetPlot_ParaChange_from10_every3_16_CV_C01_92.csv
mode,ox/red,error,control changes,counter inc.,time/s,control/V,Ewe/V,<I>/mA,cycle number,(Q-Qo)/C,I Range,P/W,log(|I|),Tafel slope mV/dec,alpha_eff,E-IR/V,
2,0,0,0,0,61074,2.44065e-05,-0.000382585,-0.098122,93,0.0000000E+000,10,3.754e-08,-4.00823, , ,-0.000339412,
2,1,0,0,0,61074.8,0.00379485,0.00346775,0.141083,93,8.18616e-05,10,4.89242e-07,-3.85052,0.0279506,2.11087,0.00340567,
2,1,0,1,0,61075.6,0.00779002,0.00746336,0.163777,93,0.000214405,10,1.22233e-06,-3.78575,0.0737285,0.800234,0.0073913,
2,1,0,0,0,61076.4,0.0117852,0.0114123,0.180724,93,0.00036257,10,2.06248e-06,-3.74298,0.116207,0.507714,0.0113328,
2,1,0,1,0,61077.2,0.0157806,0.0154377,0.194887,93,0.00052242,10,3.00861e-06,-3.71022,0.135236,0.436273,0.015352,
2,1,0,1,0,61078,0.0197754,0.0194363,0.207412,93,0.000692747,10,4.03133e-06,-3.68317,0.145805,0.40465,0.0193451,
2,1,0,1,0,61078.8,0.0237704,0.0233999,0.220336,93,0.000873471,10,5.15584e-06,-3.65691,0.159183,0.370643,0.0233029,
2,1,0,1,0,61079.6,0.0277659,0.0273937,0.23418,93,0.00106425,10,6.41505e-06,-3.63045,0.159147,0.370727,0.0272907,
2,1,0,0,0,61080.4,0.0317611,0.0314042,0.246724,93,0.00126566,10,7.74815e-06,-3.60779,0.171629,0.343766,0.0312956,
2,1,0,1,0,61081.2,0.0357567,0.0353938,0.260736,93,0.00147791,10,9.22845e-06,-3.5838,0.200345,0.294492,0.0352791,
2,1,0,1,0,61082,0.0397516,0.039422,0.273787,93,0.00170082,10,1.07933e-05,-3.56259,0.159326,0.370309,0.0393016,
2,1,0,1,0,61082.8,0.0437465,0.0433984,0.286304,93,0.00193504,10,1.24251e-05,-3.54317,0.232213,0.254077,0.0432724,
2,1,0,1,0,61083.6,0.0477413,0.0473871,0.299934,93,0.00217884,10,1.4213e-05,-3.52297,0.209277,0.281922,0.0472551,
2,1,0,0,0,61084.4,0.0517369,0.0513886,0.311067,93,0.00243275,10,1.59853e-05,-3.50715,0.220973,0.267001,0.0512517,
2,1,0,1,0,61085.2,0.0557321,0.0553736,0.323485,93,0.00269631,10,1.79125e-05,-3.49015,0.284196,0.207603,0.0552313,
2,1,0,1,0,61086,0.0597277,0.0593718,0.333969,93,0.0029683,10,1.98283e-05,-3.47629,0.275015,0.214534,0.0592248,
2,1,0,1,0,61086.8,0.0637226,0.06333,0.343397,93,0.00324893,10,2.17473e-05,-3.4642,0.320471,0.184104,0.0631789,
2,1,0,1,0,61087.6,0.0677174,0.0673346,0.354761,93,0.00353797,10,2.38877e-05,-3.45006,0.501951,0.117541,0.0671785,
2,1,0,0,0,61088.4,0.0717128,0.0713465,0.362643,93,0.00383406,10,2.58733e-05,-3.44052,0.300868,0.196099,0.0711869,
2,1,0,1,0,61089.2,0.075708,0.0753294,0.3696,93,0.00413723,10,2.78417e-05,-3.43227,0.501293,0.117696,0.0751667,
2,1,0,0,0,61090,0.0797031,0.079361,0.378794,93,0.00444638,10,3.00615e-05,-3.4216,0.412438,0.143052,0.0791944,
2,1,0,1,0,61090.8,0.0836986,0.0833283,0.385375,93,0.00476182,10,3.21126e-05,-3.41412,0.373258,0.158068,0.0831587,
2,1,0,1,0,61091.6,0.0876935,0.0873608,0.397608,93,0.00508489,10,3.47354e-05,-3.40054,0.346156,0.170443,0.0871858,
2,1,0,1,0,61092.4,0.0916883,0.0913412,0.410256,93,0.00541676,10,3.74733e-05,-3.38694,0.261783,0.225377,0.0911606,
2,1,0,1,0,61093.2,0.0956838,0.0953435,0.424063,93,0.00576036,10,4.04316e-05,-3.37257,0.228369,0.258354,0.0951569,
2,1,0,0,0,61094,0.099679,0.099337,0.443201,93,0.00611735,10,4.40263e-05,-3.3534,0.23041,0.256066,0.099142,
2,1,0,1,0,61094.8,0.103674,0.103339,0.463167,93,0.00648949,10,4.78632e-05,-3.33426,0.190685,0.309411,0.103135,
2,1,0,1,0,61095.6,0.10767,0.107336,0.483216,93,0.00687906,10,5.18665e-05,-3.31586,0.211665,0.278742,0.107123,
2,1,0,1,0,61096.4,0.111664,0.111326,0.504547,93,0.0072844,10,5.61692e-05,-3.2971,0.265125,0.222537,0.111104,
2,1,0,1,0,61097.2,0.115659,0.115255,0.518545,93,0.00770338,10,5.97651e-05,-3.28521,0.310821,0.18982,0.115027,
2,1,0,0,0,61098,0.119655,0.119272,0.531558,93,0.00813368,10,6.33998e-05,-3.27445,0.703124,0.0839112,0.119038,
2,1,0,1,0,61098.8,0.12365,0.123285,0.539525,93,0.00857132,10,6.65154e-05,-3.26799,0.580151,0.101698,0.123048,
2,1,0,1,0,61099.6,0.127646,0.127257,0.544412,93,0.00901499,10,6.92802e-05,-3.26407,1.5951,0.0369882,0.127017,
2,1,0,1,0,61100.4,0.131641,0.131271,0.545626,93,0.00946136,10,7.16249e-05,-3.26311,-0.751736,-0.078485,0.131031,
2,1,0,1,0,61101.2,0.135635,0.135282,0.53383,93,0.00990289,10,7.22178e-05,-3.2726,-0.261436,-0.225677,0.135047,
2,1,0,0,0,61102,0.139631,0.139301,0.502667,93,0.0103285,10,7.00218e-05,-3.29872,-0.11868,-0.497135,0.139079,
2,1,0,1,0,61102.8,0.143626,0.143229,0.458594,93,0.0107234,10,6.56842e-05,-3.33857,-0.083836,-0.703755,0.143028,
2,1,0,0,0,61103.6,0.147621,0.147286,0.403837,93,0.0110775,10,5.94797e-05,-3.39379,-0.0718848,-0.820758,0.147109,
2,1,0,1,0,61104.4,0.151617,0.151231,0.356883,93,0.0113905,10,5.39719e-05,-3.44747,-0.0793893,-0.743173,0.151074,
2,1,0,1,0,61105.1,0.155612,0.155241,0.325296,93,0.0116708,10,5.04992e-05,-3.48772,-0.11355,-0.519593,0.155098,
2,1,0,1,0,61105.9,0.159606,0.159253,0.302482,93,0.01193,10,4.81711e-05,-3.5193,-0.165826,-0.355794,0.15912,
2,1,0,1,0,61106.7,0.163602,0.163218,0.287552,93,0.0121751,10,4.69336e-05,-3.54128,-0.189113,-0.311982,0.163091,
2,1,0,0,0,61107.5,0.167597,0.167266,0.278558,93,0.0124105,10,4.65931e-05,-3.55509,-0.466075,-0.126589,0.167143,
2,1,0,1,0,61108.3,0.171592,0.171228,0.269934,93,0.0126397,10,4.62204e-05,-3.56874,-0.374215,-0.157663,0.17111,
2,1,0,1,0,61109.1,0.175588,0.175212,0.266355,93,0.0128637,10,4.66687e-05,-3.57454,-0.677853,-0.0870395,0.175095,
2,1,0,1,0,61109.9,0.179582,0.179209,0.262559,93,0.0130842,10,4.70528e-05,-3.58077,-0.703627,-0.0838513,0.179093,
2,1,0,1,0,61110.7,0.183577,0.183207,0.260149,93,0.0133023,10,4.76613e-05,-3.58478,-0.665147,-0.0887021,0.183093,
2,1,0,0,0,61111.5,0.187573,0.187229,0.256732,93,0.013518,10,4.80677e-05,-3.59052,-1.13206,-0.0521173,0.187116,
2,1,0,1,0,61112.3,0.191568,0.191196,0.254952,93,0.0137319,10,4.87458e-05,-3.59354,-2.45275,-0.0240546,0.191084,
2,1,0,0,0,61113.1,0.195563,0.195192,0.253993,93,0.0139444,10,4.95774e-05,-3.59518,-0.593759,-0.0993668,0.195081,
2,1,0,1,0,61113.9,0.199559,0.199172,0.251988,93,0.0141555,10,5.0189e-05,-3.59862,7.40703,0.0079654,0.199062,
2,1,0,1,0,61114.7,0.203553,0.203198,0.249972,93,0.0143656,10,5.0794e-05,-3.60211,-2.8365,-0.0208002,0.203088,
2,1,0,1,0,61115.5,0.207548,0.207216,0.250353,93,0.0145748,10,5.18771e-05,-3.60145,-1.22432,-0.04819,0.207106,
2,1,0,1,0,61116.3,0.211544,0.211188,0.248003,93,0.0147828,10,5.23752e-05,-3.60554,19.3562,0.00304811,0.211078,
2,1,0,0,0,61117.1,0.215539,0.215181,0.248035,93,0.0149902,10,5.33725e-05,-3.60549,-1.60305,-0.0368049,0.215072,
2,1,0,1,0,61117.9,0.219535,0.21923,0.247282,93,0.0151965,10,5.42118e-05,-3.60681,-1.05836,-0.0557466,0.219121,
2,1,0,1,0,61118.7,0.223529,0.223191,0.24486,93,0.015402,10,5.46504e-05,-3.61108,7.80373,0.00756049,0.223083,
2,1,0,1,0,61119.5,0.227524,0.227213,0.244565,93,0.0156069,10,5.55684e-05,-3.61161,-1.03874,-0.0567995,0.227106,
2,1,0,1,0,61120.3,0.23152,0.231179,0.243901,93,0.0158109,10,5.63849e-05,-3.61279,3.36983,0.0175083,0.231072,
2,1,0,0,0,61121.1,0.235515,0.235162,0.24261,93,0.0160144,10,5.70527e-05,-3.61509,-2.88701,-0.0204364,0.235056,
2,1,0,1,0,61121.9,0.23951,0.239151,0.242935,93,0.0162173,10,5.80981e-05,-3.61451,-2.39912,-0.0245923,0.239044,
2,1,0,1,0,61122.7,0.243506,0.243133,0.241341,93,0.0164192,10,5.86778e-05,-3.61737,-2.12325,-0.0277875,0.243026,
2,1,0,1,0,61123.5,0.2475,0.247123,0.240589,93,0.0166207,10,5.94551e-05,-3.61872,-1.13927,-0.0517876,0.247017,
2,1,0,1,0,61124.3,0.251495,0.251151,0.239767,93,0.0168211,10,6.02177e-05,-3.62021,2.94056,0.0200642,0.251045,
2,1,0,0,0,61125.1,0.255491,0.255094,0.238885,93,0.0170212,10,6.09381e-05,-3.62181,-2.3762,-0.0248296,0.254989,
2,1,0,1,0,61125.9,0.259486,0.25916,0.237941,93,0.0172208,10,6.1665e-05,-3.62353,-1.35822,-0.0434391,0.259056,
2,1,0,0,0,61126.7,0.263481,0.263091,0.238044,93,0.0174196,10,6.26273e-05,-3.62334,2.45926,0.0239909,0.262987,
2,1,0,1,0,61127.5,0.267477,0.267152,0.236535,93,0.0176179,10,6.31907e-05,-3.6261,-0.86984,-0.0678286,0.267048,
2,1,0,1,0,61128.3,0.271471,0.271147,0.235792,93,0.0178154,10,6.39343e-05,-3.62747,10.1509,0.00581231,0.271043,
2,1,0,1,0,61129.1,0.275466,0.275091,0.235234,93,0.0180121,10,6.47108e-05,-3.6285,-2.40218,-0.024561,0.274988,
2,1,0,1,0,61129.9,0.279462,0.279141,0.234423,93,0.0182085,10,6.54368e-05,-3.63,-6.59115,-0.0089514,0.279037,
2,1,0,0,0,61130.7,0.283457,0.283119,0.234546,93,0.0184039,10,6.64046e-05,-3.62977,-1.83236,-0.0321989,0.283016,
2,1,0,1,0,61131.5,0.287452,0.287133,0.233481,93,0.0185989,10,6.704e-05,-3.63175,-3.09317,-0.0190743,0.28703,
2,1,0,1,0,61132.3,0.291448,0.291096,0.232111,93,0.0187933,10,6.75667e-05,-3.6343,-1.50832,-0.0391164,0.290994,
2,1,0,1,0,61133.1,0.295442,0.29504,0.23125,93,0.0189867,10,6.8228e-05,-3.63592,-2.82198,-0.0209073,0.294939,
2,1,0,1,0,61133.9,0.299437,0.299093,0.229983,93,0.0191797,10,6.87861e-05,-3.63831,-2.84727,-0.0207216,0.298992,
2,1,0,0,0,61134.7,0.303433,0.303103,0.229783,93,0.0193717,10,6.96479e-05,-3.63868,-2.33519,-0.0252656,0.303001,
2,1,0,1,0,61135.5,0.307428,0.307049,0.229209,93,0.019563,10,7.03785e-05,-3.63977,-6.31062,-0.00934932,0.306949,
2,1,0,1,0,61136.3,0.311424,0.311076,0.228588,93,0.0197539,10,7.11084e-05,-3.64095,-1.60263,-0.0368144,0.310976,
2,1,0,1,0,61137.1,0.315418,0.315089,0.227743,93,0.0199437,10,7.17595e-05,-3.64255,-1.72809,-0.0341418,0.314989,
2,1,0,1,0,61137.9,0.319413,0.31906,0.226348,93,0.0201328,10,7.22187e-05,-3.64522,-5.32302,-0.0110839,0.318961,
2,1,0,0,0,61138.7,0.323409,0.32309,0.22548,93,0.0203217,10,7.28503e-05,-3.64689,-1.271,-0.0464201,0.322991,
2,1,0,1,0,61139.5,0.327404,0.327036,0.225452,93,0.0205099,10,7.37309e-05,-3.64695,1.38898,0.0424773,0.326937,
2,1,0,0,0,61140.3,0.331399,0.331045,0.223599,93,0.0206976,10,7.40215e-05,-3.65053,-2.17331,-0.0271475,0.330947,
2,1,0,1,0,61141.1,0.335395,0.335001,0.22517,93,0.0208848,10,7.54322e-05,-3.64749,-41.5035,-0.00142157,0.334902,
2,1,0,1,0,61141.9,0.339389,0.33905,0.223561,93,0.0210715,10,7.57984e-05,-3.6506,-3.20784,-0.0183924,0.338952,
2,1,0,1,0,61142.7,0.343384,0.343048,0.224271,93,0.021258,10,7.69358e-05,-3.64923,-2.30524,-0.0255938,0.342949,
2,1,0,1,0,61143.5,0.34738,0.347031,0.223199,93,0.021444,10,7.7457e-05,-3.65131,24.6483,0.00239367,0.346933,
2,1,0,0,0,61144.3,0.351375,0.351016,0.222151,93,0.0216296,10,7.79785e-05,-3.65335,-1.35714,-0.0434736,0.350918,
2,1,0,1,0,61145.1,0.35537,0.355037,0.222214,93,0.0218148,10,7.88942e-05,-3.65323,-5.60615,-0.0105242,0.354939,
2,1,0,1,0,61145.9,0.359366,0.359022,0.221416,93,0.0219996,10,7.94931e-05,-3.65479,-34.8608,-0.00169245,0.358925,
2,1,0,1,0,61146.7,0.36336,0.363071,0.220649,93,0.0221842,10,8.01111e-05,-3.6563,35.3632,0.0016684,0.362973,
2,1,0,1,0,61147.5,0.367355,0.367029,0.220463,93,0.0223683,10,8.09161e-05,-3.65667,-3.2383,-0.0182194,0.366932,
2,1,0,0,0,61148.3,0.371351,0.370983,0.22035,93,0.0225519,10,8.17463e-05,-3.65689,-10.8702,-0.00542766,0.370886,
2,1,0,1,0,61149.1,0.375346,0.374985,0.220078,93,0.0227352,10,8.2526e-05,-3.65742,-4.73409,-0.0124628,0.374889,
2,1,0,1,0,61149.9,0.379342,0.378984,0.219768,93,0.0229181,10,8.32883e-05,-3.65804,-1.47509,-0.0399974,0.378887,
2,1,0,1,0,61150.7,0.383336,0.382998,0.219751,93,0.0231008,10,8.41641e-05,-3.65807,-5.35865,-0.0110102,0.382901,
2,1,0,1,0,61151.5,0.387331,0.387009,0.219079,93,0.0232832,10,8.47854e-05,-3.6594,-37.8248,-0.00155982,0.386913,
2,1,0,0,0,61152.3,0.391327,0.390935,0.218765,93,0.0234651,10,8.55228e-05,-3.66002,-18.2519,-0.00323254,0.390839,
2,1,0,1,0,61153.1,0.395322,0.394942,0.218291,93,0.0236468,10,8.62122e-05,-3.66096,-4.23597,-0.0139283,0.394846,
2,1,0,0,0,61153.9,0.399317,0.398943,0.21754,93,0.0238283,10,8.6786e-05,-3.66246,-11.2336,-0.0052521,0.398847,
2,1,0,1,0,61154.7,0.403313,0.40301,0.21736,93,0.0240094,10,8.75983e-05,-3.66282,11.1439,0.00529437,0.402915,
2,1,0,1,0,61155.5,0.407307,0.406967,0.216902,93,0.0241904,10,8.82719e-05,-3.66374,-2.63915,-0.0223557,0.406872,
2,1,0,1,0,61156.3,0.411302,0.410953,0.218322,93,0.0243709,10,8.97199e-05,-3.6609,12.5008,0.00471969,0.410857,
2,1,0,1,0,61157.1,0.415298,0.414963,0.216703,93,0.0245515,10,8.99239e-05,-3.66413,-5.43907,-0.0108474,0.414867,
2,1,0,0,0,61157.9,0.419293,0.418951,0.216963,93,0.0247316,10,9.08967e-05,-3.66362,-2.87707,-0.020507,0.418855,
2,1,0,1,0,61158.7,0.423288,0.42299,0.217268,93,0.0249116,10,9.19024e-05,-3.663,1.45277,0.040612,0.422894,
2,1,0,1,0,61159.5,0.427283,0.426924,0.216726,93,0.0250918,10,9.25256e-05,-3.66409,-2.5958,-0.0227291,0.426829,
2,1,0,1,0,61160.3,0.431278,0.430947,0.217332,93,0.0252718,10,9.36585e-05,-3.66288,2.72447,0.0216556,0.430852,
2,1,0,1,0,61161.1,0.435273,0.434961,0.216165,93,0.0254517,10,9.40232e-05,-3.66522,-6.46887,-0.0091206,0.434866,
2,1,0,0,0,61161.9,0.439269,0.438927,0.216957,93,0.0256315,10,9.52281e-05,-3.66363,-2.40494,-0.0245329,0.438831,
2,1,0,1,0,61162.7,0.443264,0.442904,0.217041,93,0.0258111,10,9.61283e-05,-3.66346,17.2856,0.00341325,0.442809,
2,1,0,0,0,61163.5,0.447259,0.446884,0.216964,93,0.0259906,10,9.69579e-05,-3.66361,4.49612,0.0131224,0.446789,
2,1,0,1,0,61164.3,0.451254,0.450925,0.216901,93,0.0261706,10,9.78061e-05,-3.66374,-4.71618,-0.0125101,0.450829,
2,1,0,1,0,61165.1,0.455249,0.454891,0.217073,93,0.0263504,10,9.87448e-05,-3.66339,-9.79768,-0.00602183,0.454796,
2,1,0,1,0,61165.9,0.459244,0.458924,0.216318,93,0.02653,10,9.92736e-05,-3.66491,2.47648,0.0238241,0.458828,
2,1,0,1,0,61166.7,0.46324,0.462869,0.217161,93,0.0267098,10,0.000100517,-3.66322,3.53851,0.0166737,0.462773,
2,1,0,0,0,61167.5,0.467235,0.466917,0.217587,93,0.0268897,10,0.000101595,-3.66237,-6.69073,-0.00881817,0.466822,
2,1,0,1,0,61168.3,0.471231,0.470886,0.218069,93,0.0270698,10,0.000102686,-3.66141,2.32544,0.0253716,0.47079,
2,1,0,1,0,61169.1,0.475225,0.474855,0.218517,93,0.02725,10,0.000103764,-3.66051,16.2363,0.00363382,0.474758,
2,1,0,1,0,61169.9,0.47922,0.478889,0.218655,93,0.0274307,10,0.000104712,-3.66024,-7.2514,-0.00813636,0.478793,
2,1,0,1,0,61170.7,0.483216,0.482844,0.218927,93,0.0276115,10,0.000105707,-3.6597,4.32571,0.0136394,0.482747,
2,1,0,0,0,61171.5,0.487211,0.486869,0.219626,93,0.0277925,10,0.000106929,-3.65832,1.13481,0.0519912,0.486772,
2,1,0,1,0,61172.3,0.491206,0.490858,0.220012,93,0.027974,10,0.000107995,-3.65755,4.16065,0.0141805,0.490761,
2,1,0,1,0,61173.1,0.495201,0.49489,0.221259,93,0.028156,10,0.000109499,-3.6551,7.63953,0.00772299,0.494793,
2,1,0,1,0,61173.9,0.499196,0.498837,0.221516,93,0.0283383,10,0.0001105,-3.6546,1.70278,0.0346492,0.498739,
2,1,0,1,0,61174.7,0.503191,0.502857,0.222197,93,0.0285216,10,0.000111733,-3.65326,10.1328,0.00582269,0.50276,
2,1,0,0,0,61175.5,0.507187,0.506861,0.222662,93,0.0287053,10,0.000112859,-3.65235,2.32304,0.0253978,0.506763,
2,1,0,1,0,61176.3,0.511182,0.510839,0.22384,93,0.0288897,10,0.000114346,-3.65006,2.15439,0.027386,0.510741,
2,1,0,0,0,61177.1,0.515177,0.514834,0.225372,93,0.0290747,10,0.000116029,-3.6471,4.54751,0.0129741,0.514735,
2,1,0,1,0,61177.9,0.519173,0.518858,0.225868,93,0.0292605,10,0.000117194,-3.64614,1.2123,0.0486678,0.518759,
2,1,0,1,0,61178.7,0.523167,0.522821,0.226209,93,0.0294473,10,0.000118267,-3.64549,2.52184,0.0233956,0.522721,
2,1,0,1,0,61179.5,0.527162,0.526817,0.228766,93,0.0296349,10,0.000120518,-3.64061,1.16192,0.0507778,0.526717,
2,1,0,1,0,61180.3,0.531158,0.530826,0.228756,93,0.0298233,10,0.000121429,-3.64063,3.5607,0.0165698,0.530725,
2,1,0,0,0,61181.1,0.535153,0.534819,0.230908,93,0.0300128,10,0.000123494,-3.63656,1.15393,0.0511298,0.534718,
2,1,0,1,0,61181.9,0.539148,0.538777,0.232334,93,0.0302033,10,0.000125176,-3.63389,1.3908,0.0424215,0.538675,
2,1,0,1,0,61182.7,0.543143,0.542788,0.233731,93,0.0303951,10,0.000126866,-3.63128,1.20424,0.0489935,0.542686,
2,1,0,1,0,61183.5,0.547138,0.5468,0.235329,93,0.0305881,10,0.000128678,-3.62832,5.65895,0.010426,0.546696,
2,1,0,1,0,61184.3,0.551133,0.55079,0.237354,93,0.0307823,10,0.000130732,-3.6246,0.56828,0.103822,0.550685,
2,1,0,0,0,61185.1,0.555129,0.554777,0.23867,93,0.0309784,10,0.000132409,-3.6222,1.54954,0.0380758,0.554672,
2,1,0,1,0,61185.9,0.559124,0.55877,0.241924,93,0.031176,10,0.00013518,-3.61632,0.793478,0.0743562,0.558663,
2,1,0,1,0,61186.7,0.56312,0.562785,0.24418,93,0.0313757,10,0.000137421,-3.61229,0.764533,0.0771713,0.562677,
2,1,0,1,0,61187.4,0.567114,0.566745,0.24681,93,0.0315776,10,0.000139879,-3.60764,1.11671,0.0528338,0.566637,
2,1,0,1,0,61188.2,0.571109,0.570799,0.250049,93,0.0317815,10,0.000142727,-3.60198,0.690229,0.0854789,0.570689,
2,1,0,0,0,61189,0.575105,0.574765,0.253505,93,0.0319881,10,0.000145706,-3.59601,0.63466,0.0929631,0.574653,
2,1,0,1,0,61189.8,0.5791,0.578776,0.257253,93,0.0321976,10,0.000148892,-3.58964,0.725088,0.0813695,0.578663,
2,1,0,0,0,61190.6,0.583095,0.582755,0.260753,93,0.0324099,10,0.000151955,-3.58377,0.548508,0.107564,0.58264,
2,1,0,1,0,61191.4,0.58709,0.586731,0.264337,93,0.0326254,10,0.000155095,-3.57784,0.625947,0.0942571,0.586615,
2,1,0,1,0,61192.2,0.591085,0.590756,0.27007,93,0.0328444,10,0.000159546,-3.56852,0.423946,0.139169,0.590637,
2,1,0,1,0,61193,0.59508,0.594743,0.275118,93,0.0330676,10,0.000163624,-3.56048,0.479507,0.123043,0.594622,
2,1,0,1,0,61193.8,0.599076,0.598739,0.280423,93,0.033295,10,0.0001679,-3.55219,0.439576,0.13422,0.598615,
2,1,0,0,0,61194.6,0.603071,0.602764,0.287279,93,0.033527,10,0.000173162,-3.5417,0.380781,0.154945,0.602638,
2,1,0,1,0,61195.4,0.607066,0.606721,0.293968,93,0.0337646,10,0.000178357,-3.5317,0.352704,0.167279,0.606592,
2,1,0,1,0,61196.2,0.611061,0.610767,0.302738,93,0.0340083,10,0.000184902,-3.51893,0.340819,0.173112,0.610634,
2,1,0,1,0,61197,0.615056,0.614761,0.311541,93,0.0342589,10,0.000191523,-3.50648,0.265683,0.222069,0.614623,
2,1,0,1,0,61197.8,0.619051,0.618746,0.322513,93,0.0345177,10,0.000199554,-3.49145,0.266535,0.221359,0.618604,
2,1,0,0,0,61198.6,0.623047,0.622733,0.334642,93,0.0347852,10,0.000208393,-3.47542,0.241685,0.244119,0.622586,
2,1,0,1,0,61199.4,0.627042,0.626733,0.348216,93,0.035063,10,0.000218239,-3.45815,0.212818,0.277232,0.62658,
2,1,0,1,0,61200.2,0.631037,0.630719,0.364233,93,0.0353528,10,0.000229728,-3.43862,0.194256,0.303724,0.630559,
2,1,0,1,0,61201,0.635032,0.634705,0.38361,93,0.0356565,10,0.000243479,-3.41611,0.168782,0.349564,0.634536,
2,1,0,1,0,61201.8,0.639027,0.638705,0.405229,93,0.0359766,10,0.000258822,-3.3923,0.164513,0.358634,0.638527,
2,1,0,1,0,61202.6,0.643022,0.642707,0.430732,93,0.0363155,10,0.000276834,-3.36579,0.144457,0.408425,0.642517,
2,1,0,1,0,61203.4,0.647018,0.646669,0.460265,93,0.0366761,10,0.000297639,-3.33699,0.133902,0.44062,0.646466,
2,1,0,0,0,61204.2,0.651013,0.650704,0.494272,93,0.0370621,10,0.000321625,-3.30603,0.123897,0.476203,0.650486,
2,1,0,1,0,61205,0.655008,0.654716,0.533222,93,0.0374773,10,0.000349109,-3.27309,0.117872,0.500544,0.654481,
2,1,0,1,0,61205.8,0.659003,0.65869,0.577925,93,0.0379258,10,0.000380673,-3.23813,0.10763,0.548172,0.658435,
2,1,0,1,0,61206.6,0.662998,0.662647,0.630713,93,0.0384132,10,0.00041794,-3.20017,0.100444,0.58739,0.66237,
2,1,0,1,0,61207.4,0.666994,0.66669,0.69242,93,0.0389464,10,0.00046163,-3.15963,0.0978022,0.603259,0.666386,
2,1,0,0,0,61208.2,0.670989,0.670674,0.760835,93,0.0395313,10,0.000510272,-3.11871,0.0921559,0.64022,0.67034,
2,1,0,1,0,61209,0.674984,0.674689,0.840427,93,0.0401758,10,0.000567027,-3.0755,0.0914877,0.644896,0.674319,
2,1,0,1,0,61209.8,0.67898,0.678624,0.929834,93,0.0408877,10,0.000631008,-3.03159,0.088617,0.665787,0.678215,
2,1,0,1,0,61210.6,0.682974,0.682687,1.03184,93,0.0416762,10,0.000704422,-2.98639,0.0879855,0.670565,0.682233,
2,1,0,1,0,61211.4,0.686969,0.686619,1.14555,93,0.0425502,10,0.000786558,-2.94099,0.0872216,0.676438,0.686115,
2,1,0,0,0,61212.2,0.690965,0.690625,1.27284,93,0.0435206,10,0.000879056,-2.89523,0.0854573,0.690403,0.690065,
2,1,0,1,0,61213,0.69496,0.694675,1.41252,93,0.0445977,10,0.000981242,-2.85001,0.0881825,0.669067,0.694053,
2,1,0,0,0,61213.8,0.698955,0.698611,1.56581,93,0.0457921,10,0.0010939,-2.80526,0.0866838,0.680635,0.697922,
2,1,0,1,0,61214.6,0.70295,0.702664,1.73476,93,0.0471154,10,0.00121895,-2.76076,0.0888424,0.664097,0.701901,
2,1,0,1,0,61215.4,0.706945,0.706618,1.91907,93,0.0485797,10,0.00135605,-2.71691,0.0894074,0.659901,0.705773,
2,1,0,1,0,61216.2,0.71094,0.710613,2.11617,93,0.0501961,10,0.00150378,-2.67445,0.0938329,0.628778,0.709682,
2,1,0,1,0,61217,0.714936,0.714589,2.33003,93,0.0519771,10,0.00166501,-2.63264,0.0950704,0.620593,0.713564,
2,1,0,0,0,61217.8,0.718931,0.718583,2.55687,93,0.0539338,10,0.00183732,-2.59229,0.0973825,0.605858,0.717457,
2,1,0,1,0,61218.6,0.722927,0.722594,2.80097,93,0.056079,10,0.00202396,-2.55269,0.0994693,0.593148,0.721361,
2,1,0,1,0,61219.4,0.726921,0.726659,3.0576,93,0.058424,10,0.00222183,-2.51462,0.103633,0.569317,0.725313,
2,1,0,1,0,61220.2,0.730916,0.730565,3.33225,93,0.0609811,10,0.00243443,-2.47726,0.103949,0.567585,0.729099,
2,1,0,1,0,61221,0.734911,0.734614,3.62202,93,0.0637642,10,0.00266079,-2.44105,0.109252,0.540034,0.73302,
2,1,0,0,0,61221.8,0.738907,0.738604,3.92986,93,0.0667862,10,0.00290261,-2.40562,0.110763,0.532668,0.736875,
2,1,0,1,0,61222.6,0.742902,0.742577,4.25309,93,0.0700598,10,0.00315825,-2.3713,0.11109,0.531099,0.740706,
2,1,0,1,0,61223.4,0.746897,0.746574,4.59539,93,0.0736,10,0.0034308,-2.33768,0.117802,0.500841,0.744552,
2,1,0,1,0,61224.2,0.750892,0.750583,4.95787,93,0.0774207,10,0.00372129,-2.30471,0.11726,0.503155,0.748401,
2,1,0,1,0,61225,0.754887,0.754558,5.33842,93,0.0815384,10,0.00402815,-2.27259,0.120649,0.489024,0.752209,
2,1,0,0,0,61225.8,0.758883,0.758594,5.74175,93,0.0859697,10,0.00435566,-2.24096,0.12097,0.487726,0.756067,
2,1,0,1,0,61226.6,0.762878,0.762534,6.16609,93,0.0907307,10,0.00470186,-2.20999,0.124499,0.473901,0.759821,
2,1,0,0,0,61227.4,0.766873,0.766537,6.61358,93,0.0958406,10,0.00506956,-2.17956,0.124639,0.473367,0.763627,
2,1,0,1,0,61228.2,0.770868,0.770523,7.08742,93,0.10132,10,0.00546102,-2.14951,0.126418,0.466706,0.767404,
2,1,0,1,0,61229,0.774863,0.774501,7.58622,93,0.107186,10,0.00587553,-2.11997,0.128938,0.457583,0.771163,
2,1,0,1,0,61229.8,0.778858,0.778576,8.11224,93,0.113462,10,0.006316,-2.09086,0.130366,0.452572,0.775006,
2,1,0,1,0,61230.6,0.782854,0.782524,8.66948,93,0.12017,10,0.00678407,-2.06201,0.129712,0.454855,0.778709,
2,1,0,0,0,61231.4,0.786849,0.786556,9.26133,93,0.127338,10,0.00728455,-2.03333,0.131686,0.448035,0.782481,
2,1,0,1,0,61232.2,0.790844,0.790547,9.88514,93,0.134991,10,0.00781467,-2.00502,0.131082,0.4501,0.786198,
2,1,0,1,0,61233,0.794839,0.794535,10.5372,93,0.143156,10,0.00837217,-1.97728,0.132523,0.445207,0.789899,
2,1,0,1,0,61233.8,0.798834,0.798541,11.2334,93,0.151858,10,0.00897032,-1.94949,0.133111,0.443238,0.793599,
2,1,0,1,0,61234.6,0.802829,0.802541,11.9849,93,0.161136,10,0.00961836,-1.92137,0.130302,0.452795,0.797268,
2,1,0,0,0,61235.4,0.806825,0.806512,12.7781,93,0.171034,10,0.0103057,-1.89353,0.131364,0.449133,0.80089,
2,1,0,1,0,61236.2,0.81082,0.810563,13.6301,93,0.181588,10,0.011048,-1.8655,0.128062,0.460714,0.804566,
2,1,0,1,0,61237,0.814815,0.814539,14.5289,93,0.192842,10,0.0118344,-1.83777,0.130935,0.450606,0.808146,
2,1,0,1,0,61237.8,0.81881,0.818487,15.4726,93,0.204831,10,0.0126641,-1.81044,0.13162,0.448261,0.811679,
2,1,0,1,0,61238.6,0.822805,0.822518,16.4613,93,0.217593,10,0.0135397,-1.78354,0.134157,0.439784,0.815275,
2,1,0,0,0,61239.4,0.826801,0.826515,17.498,93,0.231164,10,0.0144623,-1.75701,0.13316,0.443077,0.818816,
2,1,0,1,0,61240.2,0.830796,0.830526,18.5864,93,0.245583,10,0.0154365,-1.73081,0.137819,0.428098,0.822348,
2,1,0,0,0,61241,0.834791,0.834533,19.7175,93,0.260879,10,0.0164549,-1.70515,0.135155,0.436535,0.825857,
2,1,0,1,0,61241.8,0.838786,0.838478,20.8617,93,0.277104,10,0.017492,-1.68065,0.146875,0.401702,0.829299,
2,1,0,1,0,61242.6,0.842781,0.842502,22.0307,93,0.294243,10,0.0185609,-1.65697,0.146821,0.40185,0.832808,
2,1,0,1,0,61243.4,0.846776,0.846499,23.2496,93,0.312339,10,0.0196808,-1.63358,0.152983,0.385665,0.836269,
2,1,0,0,0,61244.1,0.849723,0.849434,24.0522,93,0.328968,10,0.0204308,-1.61884,0.0519658,1.13536,0.838851,
2,1,0,1,0,61244.9,0.845728,0.845461,22.2748,93,0.347424,10,0.0188325,-1.65219,0.110733,0.532814,0.83566,
2,1,0,0,0,61245.7,0.841732,0.841462,20.8673,93,0.364639,10,0.017559,-1.68053,0.12269,0.480888,0.832281,
2,1,0,1,0,61246.5,0.837737,0.837422,19.5352,93,0.380773,10,0.0163592,-1.70918,0.115286,0.511773,0.828826,
2,1,0,1,0,61247.3,0.833742,0.833419,18.2754,93,0.395863,10,0.0152311,-1.73813,0.118884,0.496282,0.825378,
2,1,0,1,0,61248.1,0.829747,0.829474,17.0945,93,0.409978,10,0.0141794,-1.76714,0.120332,0.49031,0.821952,
2,1,0,1,0,61248.9,0.825752,0.825436,15.9747,93,0.423179,10,0.0131861,-1.79657,0.118168,0.499291,0.818407,
2,1,0,0,0,61249.7,0.821757,0.821452,14.9147,93,0.435504,10,0.0122517,-1.82639,0.11906,0.495548,0.814889,
2,1,0,1,0,61250.5,0.817761,0.817415,13.9178,93,0.447011,10,0.0113766,-1.85643,0.120898,0.488015,0.811291,
2,1,0,1,0,61251.3,0.813766,0.813444,12.9955,93,0.457752,10,0.0105711,-1.88621,0.111538,0.528967,0.807726,
2,1,0,1,0,61252.1,0.809771,0.809455,12.0736,93,0.46774,10,0.00977303,-1.91816,0.120341,0.490275,0.804143,
2,1,0,1,0,61252.9,0.805776,0.805455,11.2611,93,0.477053,10,0.00907028,-1.94842,0.121033,0.487469,0.8005,
2,1,0,0,0,61253.7,0.801781,0.801461,10.4977,93,0.485737,10,0.00841353,-1.9789,0.119214,0.49491,0.796842,
2,1,0,1,0,61254.5,0.797786,0.797449,9.78384,93,0.49383,10,0.00780212,-2.00949,0.118215,0.499091,0.793144,
2,1,0,1,0,61255.3,0.79379,0.793435,9.0986,93,0.501365,10,0.00721915,-2.04103,0.120353,0.490224,0.789432,
2,1,0,1,0,61256.1,0.789795,0.789496,8.45714,93,0.508369,10,0.00667688,-2.07278,0.113476,0.519932,0.785775,
2,1,0,1,0,61256.9,0.7858,0.785498,7.85719,93,0.514878,10,0.0061718,-2.10473,0.11789,0.500468,0.782041,
2,1,0,0,0,61257.7,0.781805,0.781458,7.29445,93,0.520924,10,0.00570031,-2.13701,0.116242,0.507563,0.778249,
2,1,0,1,0,61258.5,0.77781,0.777533,6.77062,93,0.526535,10,0.00526438,-2.16937,0.115406,0.511239,0.774554,
2,1,0,0,0,61259.3,0.773814,0.773507,6.27653,93,0.531739,10,0.00485494,-2.20228,0.115382,0.511345,0.770746,
2,1,0,1,0,61260.1,0.769819,0.769481,5.81476,93,0.536561,10,0.00447434,-2.23547,0.113084,0.521735,0.766922,
2,1,0,1,0,61260.9,0.765824,0.765527,5.37953,93,0.541025,10,0.00411818,-2.26926,0.112345,0.52517,0.76316,
2,1,0,1,0,61261.7,0.761829,0.761482,4.97101,93,0.545153,10,0.00378533,-2.30356,0.110455,0.534155,0.759294,
2,1,0,1,0,61262.5,0.757834,0.757515,4.59472,93,0.548966,10,0.00348057,-2.33774,0.11053,0.533792,0.755494,
2,1,0,0,0,61263.3,0.753839,0.753554,4.22666,93,0.552486,10,0.00318502,-2.374,0.106328,0.554887,0.751694,
2,1,0,1,0,61264.1,0.749844,0.749529,3.89201,93,0.555723,10,0.00291717,-2.40983,0.104554,0.564302,0.747817,
2,1,0,1,0,61264.9,0.745848,0.745543,3.57468,93,0.5587,10,0.00266508,-2.44676,0.102854,0.573631,0.74397,
2,1,0,1,0,61265.7,0.741853,0.741511,3.2733,93,0.561429,10,0.00242718,-2.48501,0.100095,0.589439,0.74007,
2,1,0,1,0,61266.5,0.737858,0.737554,2.98867,93,0.563925,10,0.0022043,-2.52452,0.0964304,0.61184,0.736239,
2,1,0,0,0,61267.3,0.733863,0.733576,2.72277,93,0.5662,10,0.00199736,-2.56499,0.0941764,0.626484,0.732378,
2,1,0,1,0,61268.1,0.729868,0.729547,2.47305,93,0.568269,10,0.00180421,-2.60677,0.0916965,0.643427,0.728459,
2,1,0,1,0,61268.9,0.725872,0.725566,2.23777,93,0.570145,10,0.00162365,-2.65019,0.0896218,0.658322,0.724581,
2,1,0,1,0,61269.7,0.721877,0.721576,2.02139,93,0.57184,10,0.00145859,-2.69435,0.0865239,0.681893,0.720687,
2,1,0,1,0,61270.4,0.717882,0.717556,1.81506,93,0.573367,10,0.00130241,-2.74111,0.0807657,0.730508,0.716758,
2,1,0,0,0,61271.2,0.713887,0.713533,1.62319,93,0.574735,10,0.0011582,-2.78963,0.0790429,0.74643,0.712819,
2,1,0,1,0,61272,0.709892,0.70957,1.44487,93,0.575955,10,0.00102523,-2.84017,0.0769229,0.767002,0.708934,
2,1,0,0,0,61272.8,0.705897,0.705598,1.27967,93,0.577037,10,0.00090293,-2.8929,0.0711493,0.829243,0.705035,
2,1,0,1,0,61273.6,0.701901,0.701599,1.12539,93,0.577991,10,0.000789574,-2.9487,0.0696294,0.847343,0.701104,
2,1,0,1,0,61274.4,0.697906,0.69759,0.984366,93,0.578828,10,0.000686684,-3.00684,0.0659147,0.895096,0.697157,
2,1,0,1,0,61275.2,0.693911,0.693617,0.854849,93,0.579557,10,0.000592938,-3.06811,0.0627099,0.94084,0.693241,
2,1,0,1,0,61276,0.689916,0.689595,0.735953,93,0.580187,10,0.00050751,-3.13315,0.0587018,1.00508,0.689271,
2,1,0,0,0,61276.8,0.685921,0.685624,0.629216,93,0.580726,10,0.000431405,-3.2012,0.0558633,1.05615,0.685347,
2,1,0,1,0,61277.6,0.681926,0.681652,0.53348,93,0.581184,10,0.000363647,-3.27288,0.0536025,1.10069,0.681417,
2,1,0,1,0,61278.4,0.67793,0.677608,0.446424,93,0.58157,10,0.0003025,-3.35025,0.0503197,1.1725,0.677412,
2,1,0,1,0,61279.2,0.673935,0.673638,0.368996,93,0.58189,10,0.00024857,-3.43298,0.0456596,1.29217,0.673476,
2,1,0,1,0,61280,0.66994,0.669632,0.301678,93,0.582152,10,0.000202014,-3.52046,0.0430985,1.36896,0.6695,
2,1,0,0,0,61280.8,0.665945,0.665614,0.240004,93,0.582362,10,0.00015975,-3.61978,0.0390131,1.51231,0.665509,
2,1,0,1,0,61281.6,0.66195,0.661625,0.18848,93,0.582528,10,0.000124703,-3.72474,0.0352808,1.6723,0.661542,
2,1,0,0,0,61282.4,0.657955,0.657677,0.14228,93,0.582654,10,9.35743e-05,-3.84686,0.0300479,1.96353,0.657614,
2,1,0,1,0,61283.2,0.653959,0.65364,0.101897,93,0.582746,10,6.6604e-05,-3.99184,0.0256832,2.29722,0.653595,
2,1,0,1,0,61284,0.649964,0.649641,0.0689554,93,0.582809,10,4.47963e-05,-4.16143,0.0197414,2.98865,0.649611,
2,1,0,1,0,61284.8,0.64597,0.645675,0.0394025,93,0.582846,10,2.54412e-05,-4.40448,0.0134666,4.38121,0.645657,
2,1,0,1,0,61285.6,0.641974,0.641703,0.0147987,93,0.582862,10,9.49638e-06,-4.82978,0.00525581,11.2257,0.641697,
2,0,0,0,0,61286.4,0.637979,0.637676,-0.0051347,93,0.58286,10,-3.27427e-06,-5.28948,-0.0084025,-7.02172,0.637678,
2,0,0,1,0,61287.2,0.633983,0.633696,-0.0229013,93,0.582844,10,-1.45125e-05,-4.64014,-0.0124051,-4.75612,0.633706,
2,0,0,1,0,61288,0.629988,0.629664,-0.0368488,93,0.582814,10,-2.32024e-05,-4.43358,-0.0237041,-2.48903,0.62968,
2,0,0,1,0,61288.8,0.625993,0.625686,-0.0495126,93,0.582774,10,-3.09794e-05,-4.30528,-0.0409931,-1.43927,0.625708,
2,0,0,1,0,61289.6,0.621998,0.621746,-0.0595758,93,0.582725,10,-3.7041e-05,-4.22493,-0.0556946,-1.05935,0.621772,
2,0,0,0,0,61290.4,0.618003,0.617697,-0.0682167,93,0.582668,10,-4.21372e-05,-4.16611,-0.0726941,-0.81162,0.617727,
2,0,0,1,0,61291.2,0.614008,0.61367,-0.076385,93,0.582605,10,-4.68752e-05,-4.11699,-0.122339,-0.482265,0.613704,
2,0,0,1,0,61292,0.610012,0.609687,-0.0824116,93,0.582536,10,-5.02453e-05,-4.08401,-0.102985,-0.5729,0.609723,
2,0,0,1,0,61292.8,0.606017,0.605699,-0.0859256,93,0.582462,10,-5.20451e-05,-4.06588,-0.187267,-0.315059,0.605737,
2,0,0,1,0,61293.6,0.602022,0.601719,-0.0918874,93,0.582385,10,-5.52903e-05,-4.03674,-0.216104,-0.273017,0.601759,
2,0,0,0,0,61294.4,0.598027,0.597708,-0.0961741,93,0.582304,10,-5.7484e-05,-4.01694,-0.226211,-0.260819,0.59775,
2,0,0,1,0,61295.2,0.594032,0.593715,-0.0996915,93,0.58222,10,-5.91884e-05,-4.00134,-0.33978,-0.173642,0.593759,
2,0,0,0,0,61296,0.590037,0.589682,-0.10272,93,0.582135,10,-6.05721e-05,-3.98835,-0.389152,-0.151612,0.589727,
2,0,0,1,0,61296.8,0.586041,0.585694,-0.103746,93,0.582047,10,-6.07636e-05,-3.98403,-0.346404,-0.170321,0.58574,
2,0,0,1,0,61297.6,0.582046,0.581704,-0.106959,93,0.581957,10,-6.22186e-05,-3.97078,-0.709816,-0.0831201,0.581751,
2,0,0,1,0,61298.4,0.578052,0.577742,-0.108048,93,0.581865,10,-6.24239e-05,-3.96638,-0.441212,-0.133723,0.577789,
2,0,0,1,0,61299.2,0.574056,0.573758,-0.10946,93,0.581772,10,-6.28036e-05,-3.96074,-0.830257,-0.0710623,0.573806,
2,0,0,0,0,61300,0.570061,0.569731,-0.111754,93,0.581678,10,-6.36697e-05,-3.95174,-0.711932,-0.082873,0.56978,
2,0,0,1,0,61300.8,0.566065,0.565681,-0.112478,93,0.581583,10,-6.36269e-05,-3.94893,-0.736101,-0.080152,0.565731,
2,0,0,1,0,61301.6,0.56207,0.561722,-0.114083,93,0.581486,10,-6.40831e-05,-3.94278,-1.02405,-0.0576146,0.561772,
2,0,0,1,0,61302.4,0.558075,0.557728,-0.115047,93,0.581389,10,-6.41649e-05,-3.93912,-1.06463,-0.0554184,0.557778,
2,0,0,1,0,61303.2,0.55408,0.553781,-0.116475,93,0.581291,10,-6.45017e-05,-3.93377,-0.599116,-0.0984784,0.553832,
2,0,0,0,0,61304,0.550085,0.54977,-0.117363,93,0.581192,10,-6.45229e-05,-3.93047,-2.89833,-0.0203566,0.549822,
2,0,0,1,0,61304.8,0.54609,0.545754,-0.118079,93,0.581092,10,-6.44421e-05,-3.92783,-0.740396,-0.0796871,0.545806,
2,0,0,1,0,61305.6,0.542094,0.54174,-0.119053,93,0.580991,10,-6.44957e-05,-3.92426,-2.56552,-0.0229973,0.541793,
2,0,0,1,0,61306.4,0.538099,0.53776,-0.120131,93,0.58089,10,-6.46017e-05,-3.92034,-2.68046,-0.0220111,0.537813,
2,0,0,1,0,61307.2,0.534104,0.533788,-0.121683,93,0.580788,10,-6.49527e-05,-3.91477,-1.02251,-0.0577011,0.533841,
2,0,0,0,0,61308,0.530109,0.529778,-0.122569,93,0.580685,10,-6.49346e-05,-3.91162,-0.90269,-0.0653602,0.529832,
2,0,0,1,0,61308.8,0.526114,0.525732,-0.123258,93,0.580581,10,-6.48009e-05,-3.90918,-1.30726,-0.0451327,0.525786,
2,0,0,0,0,61309.6,0.522119,0.521766,-0.123357,93,0.580477,10,-6.43635e-05,-3.90884,-1.61244,-0.0365906,0.52182,
2,0,0,1,0,61310.4,0.518123,0.517791,-0.124854,93,0.580372,10,-6.46485e-05,-3.9036,-0.919712,-0.0641505,0.517846,
2,0,0,1,0,61311.2,0.514128,0.513802,-0.125142,93,0.580266,10,-6.42981e-05,-3.9026,-1.3684,-0.0431161,0.513857,
2,0,0,1,0,61312,0.510133,0.509801,-0.125783,93,0.58016,10,-6.41243e-05,-3.90038,-0.964553,-0.0611682,0.509856,
2,0,0,1,0,61312.8,0.506138,0.505821,-0.12746,93,0.580052,10,-6.44721e-05,-3.89462,-6.22786,-0.00947356,0.505877,
2,0,0,0,0,61313.6,0.502143,0.50182,-0.128208,93,0.579944,10,-6.43375e-05,-3.89208,-0.654383,-0.0901612,0.501876,
2,0,0,1,0,61314.4,0.498148,0.49782,-0.129644,93,0.579835,10,-6.45393e-05,-3.88725,-1.6658,-0.0354185,0.497877,
2,0,0,1,0,61315.2,0.494152,0.493828,-0.130619,93,0.579725,10,-6.45032e-05,-3.88399,-0.971654,-0.0607212,0.493886,
2,0,0,1,0,61316,0.490157,0.489822,-0.131104,93,0.579614,10,-6.42179e-05,-3.88238,-1.56806,-0.0376261,0.48988,
2,0,0,1,0,61316.8,0.486162,0.485846,-0.132198,93,0.579503,10,-6.4228e-05,-3.87877,-1.00503,-0.0587047,0.485904,
2,0,0,0,0,61317.6,0.482167,0.481824,-0.13429,93,0.57939,10,-6.47044e-05,-3.87196,-1.17908,-0.0500392,0.481884,
2,0,0,1,0,61318.4,0.478172,0.477838,-0.134333,93,0.579277,10,-6.41895e-05,-3.87182,-0.707182,-0.0834297,0.477898,
2,0,0,0,0,61319.2,0.474177,0.47384,-0.136801,93,0.579162,10,-6.48216e-05,-3.86391,-6.56891,-0.00898171,0.4739,
2,0,0,1,0,61320,0.470181,0.469883,-0.138159,93,0.579047,10,-6.49188e-05,-3.85962,-0.422322,-0.139704,0.469944,
2,0,0,1,0,61320.8,0.466186,0.465884,-0.139164,93,0.57893,10,-6.4834e-05,-3.85647,-1.39639,-0.0422517,0.465945,
2,0,0,1,0,61321.6,0.462191,0.461867,-0.140678,93,0.578812,10,-6.49747e-05,-3.85177,-1.73692,-0.0339681,0.461929,
2,0,0,1,0,61322.4,0.458196,0.457819,-0.141496,93,0.578693,10,-6.47795e-05,-3.84926,-0.505539,-0.116707,0.457881,
2,0,0,0,0,61323.2,0.454201,0.453903,-0.14307,93,0.578572,10,-6.49398e-05,-3.84445,-1.14463,-0.051545,0.453966,
2,0,0,1,0,61324,0.450205,0.449863,-0.144859,93,0.578451,10,-6.51667e-05,-3.83906,-1.61688,-0.03649,0.449927,
2,0,0,1,0,61324.8,0.44621,0.445914,-0.145678,93,0.578328,10,-6.49598e-05,-3.83661,-0.754741,-0.0781725,0.445978,
2,0,0,1,0,61325.6,0.442215,0.441868,-0.14842,93,0.578204,10,-6.55822e-05,-3.82851,-0.987827,-0.0597271,0.441933,
2,0,0,1,0,61326.4,0.43822,0.437863,-0.149736,93,0.578079,10,-6.5564e-05,-3.82467,-0.477846,-0.123471,0.437929,
2,0,0,0,0,61327.2,0.434225,0.433887,-0.151428,93,0.577952,10,-6.57026e-05,-3.81979,-1.25512,-0.0470074,0.433953,
2,0,0,1,0,61328,0.43023,0.429894,-0.153077,93,0.577824,10,-6.58069e-05,-3.81509,-1.00109,-0.0589356,0.429962,
2,0,0,1,0,61328.8,0.426234,0.425933,-0.154308,93,0.577694,10,-6.5725e-05,-3.81161,-0.802573,-0.0735135,0.426001,
2,0,0,1,0,61329.6,0.422239,0.42189,-0.156854,93,0.577563,10,-6.6175e-05,-3.80451,-1.82247,-0.0323736,0.421959,
2,0,0,1,0,61330.4,0.418244,0.41792,-0.158287,93,0.57743,10,-6.61513e-05,-3.80056,-0.765212,-0.0771028,0.41799,
2,0,0,0,0,61331.2,0.414249,0.41394,-0.159028,93,0.577297,10,-6.58281e-05,-3.79853,-0.598604,-0.0985626,0.41401,
2,0,0,1,0,61332,0.410254,0.409928,-0.162139,93,0.577161,10,-6.64653e-05,-3.79011,-1.10628,-0.0533317,0.409999,
2,0,0,0,0,61332.8,0.406259,0.405928,-0.163818,93,0.577024,10,-6.64984e-05,-3.78564,-0.614152,-0.0960674,0.406,
2,0,0,1,0,61333.6,0.402263,0.401922,-0.165787,93,0.576885,10,-6.66336e-05,-3.78045,-0.896046,-0.0658448,0.401995,
2,0,0,1,0,61334.4,0.398268,0.397936,-0.167747,93,0.576745,10,-6.67524e-05,-3.77535,-0.855057,-0.0690012,0.39801,
2,0,0,1,0,61335.2,0.394274,0.393921,-0.170029,93,0.576604,10,-6.69782e-05,-3.76948,-0.545092,-0.108239,0.393996,
2,0,0,1,0,61336,0.390278,0.389927,-0.171459,93,0.57646,10,-6.68562e-05,-3.76584,-1.44132,-0.0409346,0.390002,
2,0,0,0,0,61336.8,0.386283,0.385999,-0.173583,93,0.576315,10,-6.70028e-05,-3.76049,-0.773634,-0.0762634,0.386075,
2,0,0,1,0,61337.6,0.382287,0.381974,-0.174888,93,0.576169,10,-6.68029e-05,-3.75724,-0.810412,-0.0728025,0.382051,
2,0,0,1,0,61338.4,0.378292,0.37793,-0.177655,93,0.57602,10,-6.71413e-05,-3.75042,-0.809843,-0.0728536,0.378008,
2,0,0,1,0,61339.2,0.374297,0.374012,-0.179178,93,0.575871,10,-6.70147e-05,-3.74672,-0.644066,-0.0916055,0.374091,
2,0,0,1,0,61340,0.370303,0.36998,-0.181798,93,0.575719,10,-6.72617e-05,-3.74041,-1.17154,-0.0503612,0.37006,
2,0,0,0,0,61340.8,0.366307,0.365961,-0.183525,93,0.575565,10,-6.71632e-05,-3.7363,-0.631063,-0.093493,0.366042,
2,0,0,1,0,61341.6,0.362312,0.361953,-0.185796,93,0.57541,10,-6.72493e-05,-3.73096,-0.726842,-0.0811731,0.362035,
2,0,0,1,0,61342.4,0.358316,0.357938,-0.187681,93,0.575253,10,-6.71781e-05,-3.72658,-1.28458,-0.0459295,0.358021,
2,0,0,1,0,61343.2,0.354321,0.353999,-0.189974,93,0.575094,10,-6.72506e-05,-3.72131,-0.672105,-0.0877839,0.354082,
2,0,0,1,0,61344,0.350327,0.349982,-0.192029,93,0.574934,10,-6.72067e-05,-3.71663,-0.777556,-0.0758787,0.350067,
2,0,0,0,0,61344.8,0.346331,0.345991,-0.194705,93,0.574771,10,-6.7366e-05,-3.71062,-0.875851,-0.067363,0.346076,
2,0,0,1,0,61345.6,0.342336,0.342008,-0.196836,93,0.574607,10,-6.73196e-05,-3.70589,-0.602335,-0.0979522,0.342094,
2,0,0,0,0,61346.4,0.338341,0.337982,-0.199211,93,0.574441,10,-6.73298e-05,-3.70069,-1.03331,-0.057098,0.33807,
2,0,0,1,0,61347.2,0.334345,0.334025,-0.202119,93,0.574273,10,-6.75129e-05,-3.69439,-0.879162,-0.0671093,0.334114,
2,0,0,1,0,61348,0.33035,0.330034,-0.203803,93,0.574103,10,-6.7262e-05,-3.69079,-0.709753,-0.0831275,0.330123,
2,0,0,1,0,61348.8,0.326355,0.32599,-0.205866,93,0.573931,10,-6.71101e-05,-3.68642,-0.786264,-0.0750384,0.32608,
2,0,0,1,0,61349.6,0.32236,0.322076,-0.20875,93,0.573757,10,-6.72336e-05,-3.68037,-0.804104,-0.0733736,0.322168,
2,0,0,0,0,61350.4,0.318365,0.318019,-0.209966,93,0.573581,10,-6.67734e-05,-3.67785,-0.979351,-0.060244,0.318112,
2,0,0,1,0,61351.2,0.31437,0.314031,-0.213248,93,0.573404,10,-6.69666e-05,-3.67111,-1.01271,-0.0582596,0.314125,
2,0,0,1,0,61352,0.310374,0.309995,-0.216307,93,0.573224,10,-6.70543e-05,-3.66493,-0.587018,-0.100508,0.31009,
2,0,0,1,0,61352.8,0.306379,0.306076,-0.217711,93,0.573042,10,-6.66361e-05,-3.66212,-0.7839,-0.0752647,0.306172,
2,0,0,1,0,61353.5,0.302385,0.30204,-0.219741,93,0.572859,10,-6.63706e-05,-3.65809,-0.953676,-0.0618659,0.302137,
2,0,0,0,0,61354.3,0.298389,0.298065,-0.222803,93,0.572674,10,-6.64098e-05,-3.65208,-0.736779,-0.0800783,0.298163,
2,0,0,1,0,61355.1,0.294394,0.294067,-0.224764,93,0.572486,10,-6.60958e-05,-3.64827,-1.27315,-0.0463416,0.294166,
2,0,0,1,0,61355.9,0.290398,0.290069,-0.228832,93,0.572297,10,-6.6377e-05,-3.64048,-0.696504,-0.0847087,0.290169,
2,0,0,1,0,61356.7,0.286403,0.28605,-0.229458,93,0.572105,10,-6.56364e-05,-3.6393,-0.627363,-0.0940444,0.286151,
2,0,0,1,0,61357.5,0.282408,0.282059,-0.233052,93,0.571911,10,-6.57345e-05,-3.63255,-1.57557,-0.0374467,0.282162,
2,0,0,1,0,61358.3,0.278414,0.278087,-0.235387,93,0.571715,10,-6.54581e-05,-3.62822,-0.662749,-0.0890231,0.278191,
2,0,0,1,0,61359.1,0.274418,0.274055,-0.238716,93,0.571517,10,-6.54213e-05,-3.62212,-0.788926,-0.0747852,0.27416,
2,0,0,0,0,61359.9,0.270423,0.270068,-0.241022,93,0.571318,10,-6.50921e-05,-3.61794,-1.0831,-0.0544733,0.270174,
2,0,0,1,0,61360.7,0.266427,0.266117,-0.2428,93,0.571116,10,-6.46134e-05,-3.61475,-0.829113,-0.0711604,0.266224,
2,0,0,1,0,61361.5,0.262432,0.2621,-0.245939,93,0.570912,10,-6.44605e-05,-3.60917,-1.19181,-0.0495046,0.262208,
2,0,0,1,0,61362.3,0.258437,0.258061,-0.248353,93,0.570706,10,-6.40901e-05,-3.60493,-0.832555,-0.0708662,0.25817,
2,0,0,1,0,61363.1,0.254442,0.254108,-0.250299,93,0.570498,10,-6.36027e-05,-3.60154,-1.05176,-0.0560965,0.254218,
2,0,0,0,0,61363.9,0.250447,0.250135,-0.253617,93,0.570288,10,-6.34386e-05,-3.59582,-0.917707,-0.0642907,0.250247,
2,0,0,1,0,61364.7,0.246452,0.246098,-0.255167,93,0.570077,10,-6.27962e-05,-3.59318,-0.976319,-0.0604311,0.246211,
2,0,0,1,0,61365.5,0.242456,0.242132,-0.256738,93,0.569863,10,-6.21647e-05,-3.59051,-0.917621,-0.0642967,0.242245,
2,0,0,1,0,61366.3,0.238461,0.23812,-0.259266,93,0.569648,10,-6.17362e-05,-3.58626,-1.07665,-0.0547995,0.238234,
2,0,0,1,0,61367.1,0.234467,0.234126,-0.261917,93,0.569431,10,-6.13215e-05,-3.58184,-1.04613,-0.0563983,0.234241,
2,0,0,0,0,61367.9,0.230471,0.230123,-0.264578,93,0.569211,10,-6.08856e-05,-3.57745,-1.50499,-0.0392029,0.23024,
2,0,0,1,0,61368.7,0.226476,0.226159,-0.267997,93,0.56899,10,-6.06101e-05,-3.57187,-0.763366,-0.0772893,0.226277,
2,0,0,0,0,61369.5,0.222481,0.22215,-0.268901,93,0.568767,10,-5.97364e-05,-3.57041,-1.03119,-0.0572153,0.222268,
2,0,0,1,0,61370.3,0.218485,0.218143,-0.272437,93,0.568542,10,-5.94301e-05,-3.56473,-1.25971,-0.046836,0.218263,
2,0,0,1,0,61371.1,0.21449,0.214151,-0.274429,93,0.568315,10,-5.87694e-05,-3.56157,-0.779617,-0.0756782,0.214272,
2,0,0,1,0,61371.9,0.210496,0.210163,-0.276874,93,0.568085,10,-5.81886e-05,-3.55772,-1.12713,-0.0523451,0.210285,
2,0,0,1,0,61372.7,0.2065,0.206164,-0.28128,93,0.567854,10,-5.79899e-05,-3.55086,-0.72311,-0.081592,0.206288,
2,0,0,0,0,61373.5,0.202505,0.202206,-0.283029,93,0.56762,10,-5.72302e-05,-3.54817,-1.02388,-0.0576239,0.20233,
2,0,0,1,0,61374.3,0.198509,0.198208,-0.285651,93,0.567384,10,-5.66183e-05,-3.54416,-0.759986,-0.077633,0.198334,
2,0,0,1,0,61375.1,0.194514,0.194165,-0.28942,93,0.567145,10,-5.61952e-05,-3.53847,-0.863922,-0.0682932,0.194292,
2,0,0,1,0,61375.9,0.190519,0.190169,-0.291683,93,0.566904,10,-5.5469e-05,-3.53509,-0.749485,-0.0787207,0.190297,
2,0,0,1,0,61376.7,0.186524,0.186186,-0.295579,93,0.566659,10,-5.50328e-05,-3.52933,-1.15221,-0.051206,0.186316,
2,0,0,0,0,61377.5,0.182529,0.182177,-0.300221,93,0.566412,10,-5.46934e-05,-3.52256,-0.45474,-0.129745,0.182309,
2,0,0,1,0,61378.3,0.178534,0.178174,-0.304884,93,0.56616,10,-5.43224e-05,-3.51587,-0.823902,-0.0716105,0.178308,
2,0,0,1,0,61379.1,0.174538,0.174188,-0.310396,93,0.565905,10,-5.40671e-05,-3.50808,-0.428158,-0.137799,0.174324,
2,0,0,1,0,61379.9,0.170543,0.170213,-0.316512,93,0.565646,10,-5.38746e-05,-3.49961,-0.426518,-0.138329,0.170353,
2,0,0,1,0,61380.7,0.166549,0.166205,-0.323637,93,0.565381,10,-5.37903e-05,-3.48994,-0.43736,-0.1349,0.166348,
2,0,0,0,0,61381.5,0.162553,0.162208,-0.331419,93,0.56511,10,-5.3759e-05,-3.47962,-0.312331,-0.188902,0.162354,
2,0,0,1,0,61382.3,0.158558,0.158214,-0.339478,93,0.564832,10,-5.37102e-05,-3.46919,-0.275939,-0.213815,0.158363,
2,0,0,0,0,61383.1,0.154563,0.15421,-0.353696,93,0.564545,10,-5.45434e-05,-3.45137,-0.25969,-0.227194,0.154365,
2,0,0,1,0,61383.9,0.150567,0.150241,-0.370629,93,0.564246,10,-5.56835e-05,-3.43106,-0.174553,-0.338005,0.150404,
2,0,0,1,0,61384.7,0.146572,0.146223,-0.392302,93,0.563932,10,-5.73636e-05,-3.40638,-0.139773,-0.422113,0.146396,
2,0,0,1,0,61385.5,0.142578,0.142202,-0.420655,93,0.563598,10,-5.98181e-05,-3.37607,-0.11989,-0.492117,0.142387,
2,0,0,1,0,61386.3,0.138582,0.13825,-0.455937,93,0.563238,10,-6.30331e-05,-3.3411,-0.105909,-0.557082,0.13845,
2,0,0,0,0,61387.1,0.134587,0.134244,-0.499757,93,0.562846,10,-6.70896e-05,-3.30124,-0.103639,-0.569286,0.134464,
2,0,0,1,0,61387.9,0.130591,0.130222,-0.544114,93,0.56242,10,-7.08556e-05,-3.26431,-0.115215,-0.512085,0.130461,
2,0,0,1,0,61388.7,0.126596,0.126217,-0.583845,93,0.561958,10,-7.36913e-05,-3.2337,-0.139015,-0.424414,0.126474,
2,0,0,1,0,61389.5,0.122602,0.122248,-0.618976,93,0.561467,10,-7.56689e-05,-3.20833,-0.196881,-0.299674,0.122521,
2,0,0,1,0,61390.3,0.118607,0.1183,-0.642337,93,0.560952,10,-7.59881e-05,-3.19224,-0.283075,-0.208425,0.118582,
2,0,0,0,0,61391.1,0.114611,0.114246,-0.656885,93,0.560422,10,-7.50467e-05,-3.18251,-0.812426,-0.072622,0.114535,
2,0,0,1,0,61391.9,0.110616,0.110253,-0.664338,93,0.559884,10,-7.32451e-05,-3.17761,-1.31342,-0.044921,0.110545,
2,0,0,1,0,61392.7,0.10662,0.106256,-0.664581,93,0.559343,10,-7.06157e-05,-3.17745,-2.26174,-0.0260861,0.106548,
2,0,0,1,0,61393.5,0.102625,0.102266,-0.666221,93,0.5588,10,-6.81317e-05,-3.17638,1.77142,0.0333066,0.102559,
2,0,0,1,0,61394.3,0.0986305,0.0982832,-0.662545,93,0.558259,10,-6.51171e-05,-3.17878,2.3415,0.0251975,0.0985747,
2,0,0,0,0,61395.1,0.0946351,0.094281,-0.658453,93,0.55772,10,-6.20796e-05,-3.18148,1.70875,0.0345282,0.0945707,
2,0,0,1,0,61395.9,0.0906399,0.0902716,-0.655177,93,0.557185,10,-5.91439e-05,-3.18364,0.805558,0.0732412,0.0905598,
2,0,0,0,0,61396.7,0.0866448,0.0862929,-0.648122,93,0.556655,10,-5.59284e-05,-3.18834,1.07771,0.0547457,0.0865781,
2,0,0,1,0,61397.5,0.0826492,0.0822938,-0.641819,93,0.556129,10,-5.28177e-05,-3.19259,0.802953,0.0734788,0.0825762,
2,0,0,1,0,61398.3,0.0786544,0.0783357,-0.633801,93,0.55561,10,-4.96492e-05,-3.19805,0.819981,0.0719529,0.0786146,
2,0,0,1,0,61399.1,0.0746596,0.0743457,-0.626129,93,0.555098,10,-4.655e-05,-3.20334,0.718743,0.0820877,0.0746212,
2,0,0,1,0,61399.9,0.0706641,0.0703115,-0.618791,93,0.554591,10,-4.35081e-05,-3.20846,0.646808,0.0912172,0.0705838,
2,0,0,0,0,61400.7,0.0666689,0.0663191,-0.610618,93,0.554091,10,-4.04956e-05,-3.21423,0.811183,0.0727333,0.0665878,
2,0,0,1,0,61401.5,0.0626737,0.0623691,-0.600386,93,0.553597,10,-3.74456e-05,-3.22157,0.585428,0.100781,0.0626333,
2,0,0,1,0,61402.3,0.0586783,0.0583161,-0.592763,93,0.553109,10,-3.45676e-05,-3.22712,0.536615,0.109949,0.0585769,
2,0,0,1,0,61403.1,0.0546835,0.0543281,-0.583875,93,0.552629,10,-3.17208e-05,-3.23368,0.804567,0.0733314,0.054585,
2,0,0,1,0,61403.9,0.0506886,0.0503403,-0.5749,93,0.552156,10,-2.89406e-05,-3.24041,0.533402,0.110611,0.0505932,
2,0,0,0,0,61404.7,0.046693,0.0463951,-0.565036,93,0.55169,10,-2.62149e-05,-3.24792,0.498734,0.118299,0.0466437,
2,0,0,1,0,61405.5,0.0426979,0.042338,-0.555279,93,0.551232,10,-2.35094e-05,-3.25549,0.582542,0.10128,0.0425823,
2,0,0,1,0,61406.3,0.0387022,0.0383262,-0.546054,93,0.550782,10,-2.09282e-05,-3.26276,0.447137,0.131951,0.0385665,
2,0,0,1,0,61407.1,0.0347074,0.0343678,-0.536033,93,0.55034,10,-1.84223e-05,-3.27081,0.619558,0.0952292,0.0346037,
2,0,0,1,0,61407.9,0.0307126,0.0303991,-0.525992,93,0.549906,10,-1.59897e-05,-3.27902,0.571418,0.103252,0.0306306,
2,0,0,0,0,61408.7,0.0267172,0.0263747,-0.51919,93,0.549478,10,-1.36935e-05,-3.28467,0.455163,0.129624,0.0266031,
2,0,0,1,0,61409.5,0.022722,0.0223462,-0.511347,93,0.549057,10,-1.14266e-05,-3.29128,0.908583,0.0649363,0.0225712,
2,0,0,0,0,61410.3,0.0187268,0.0183527,-0.505371,93,0.548642,10,-9.27491e-06,-3.29639,0.791952,0.0744994,0.018575,
2,0,0,1,0,61411.1,0.0147313,0.0143706,-0.501395,93,0.54823,10,-7.20533e-06,-3.29982,1.31506,0.0448648,0.0145912,
2,0,0,1,0,61411.9,0.0107365,0.010387,-0.497082,93,0.547823,10,-5.16318e-06,-3.30357,2.66496,0.0221392,0.0106057,
2,0,0,1,0,61412.7,0.00674163,0.00643299,-0.494784,93,0.547416,10,-3.18294e-06,-3.30558,3.49786,0.0168675,0.00665069,
2,0,0,1,0,61413.5,0.00274612,0.00238295,-0.495493,93,0.547011,10,-1.18074e-06,-3.30496,-1.81789,-0.0324552,0.00260097,
2,0,0,0,0,61414,0.000274105,-0.000101048,-0.497484,93,0.546758,10,5.02695e-08,-3.30322, , ,0.000117845,