File: Figure_codes/Fig_3-5/workspace_calculate_alpha_eff/20221101_1-115_003_TrumpetPlot_ParaChange_from10_every3_16_CV_C01_33.csv
mode,ox/red,error,control changes,counter inc.,time/s,control/V,Ewe/V,<I>/mA,cycle number,(Q-Qo)/C,I Range,P/W,log(|I|),Tafel slope mV/dec,alpha_eff,E-IR/V,
2,0,0,1,0,22901.6,2.44065e-05,-0.000478022,-0.0567799,34,0.0000000E+000,10,2.7142e-08,-4.24581, , ,-0.000453039,
2,1,0,1,0,22902.3,0.00379485,0.00343382,0.212108,34,0.00014583,10,7.28342e-07,-3.67344,0.0541204,1.09016,0.00334049,
2,1,0,0,0,22903.1,0.00779002,0.00746548,0.235229,34,0.000338741,10,1.7561e-06,-3.62851,0.111699,0.528206,0.00736198,
2,1,0,1,0,22903.9,0.0117852,0.0114802,0.250472,34,0.000547162,10,2.87546e-06,-3.60124,0.151033,0.390643,0.01137,
2,1,0,1,0,22904.7,0.0157806,0.0155163,0.267118,34,0.000767716,10,4.14468e-06,-3.5733,0.154409,0.382102,0.0153988,
2,1,0,1,0,22905.5,0.0197754,0.0194957,0.280165,34,0.000999574,10,5.46204e-06,-3.55259,0.195341,0.302036,0.0193725,
2,1,0,1,0,22906.3,0.0237704,0.0234531,0.294504,34,0.0012431,10,6.90703e-06,-3.53091,0.187333,0.314948,0.0233235,
2,1,0,0,0,22907.1,0.0277659,0.0274637,0.310386,34,0.00149784,10,8.52434e-06,-3.5081,0.190847,0.309148,0.0273271,
2,1,0,1,0,22907.9,0.0317611,0.031437,0.323329,34,0.00176407,10,1.01645e-05,-3.49036,0.199267,0.296086,0.0312948,
2,1,0,1,0,22908.7,0.0357567,0.0354511,0.337356,34,0.0020419,10,1.19596e-05,-3.47191,0.298988,0.197332,0.0353027,
2,1,0,1,0,22909.5,0.0397516,0.0394116,0.352242,34,0.00233056,10,1.38824e-05,-3.45316,0.203371,0.29011,0.0392566,
2,1,0,1,0,22910.3,0.0437465,0.0433971,0.363717,34,0.00263087,10,1.57843e-05,-3.43924,0.238649,0.247225,0.0432371,
2,1,0,1,0,22911.1,0.0477413,0.0474032,0.377469,34,0.00294159,10,1.78933e-05,-3.42312,0.2856,0.206583,0.0472371,
2,1,0,1,0,22911.9,0.0517369,0.0513843,0.389457,34,0.00326254,10,2.0012e-05,-3.40954,0.253409,0.232825,0.051213,
2,1,0,0,0,22912.7,0.0557321,0.0554309,0.403358,34,0.00359391,10,2.23585e-05,-3.39431,0.363407,0.162352,0.0552534,
2,1,0,1,0,22913.5,0.0597277,0.0594334,0.414722,34,0.00393385,10,2.46484e-05,-3.38224,0.352736,0.167264,0.0592509,
2,1,0,1,0,22914.3,0.0637226,0.0634116,0.42421,34,0.00428289,10,2.68998e-05,-3.37242,0.368017,0.160318,0.063225,
2,1,0,1,0,22915.1,0.0677174,0.06741,0.4336,34,0.00464027,10,2.9229e-05,-3.36291,0.616561,0.0956921,0.0672193,
2,1,0,1,0,22915.9,0.0717128,0.0713953,0.442345,34,0.00500428,10,3.15813e-05,-3.35424,0.338258,0.174423,0.0712006,
2,1,0,0,0,22916.7,0.075708,0.0754142,0.450339,34,0.00537545,10,3.3962e-05,-3.34646,0.628849,0.0938222,0.0752161,
2,1,0,1,0,22917.5,0.0797031,0.0793982,0.459251,34,0.00575263,10,3.64637e-05,-3.33795,0.574734,0.102656,0.0791961,
2,1,0,1,0,22918.3,0.0836986,0.0833825,0.466754,34,0.00613607,10,3.89191e-05,-3.33091,0.427782,0.137921,0.0831771,
2,1,0,1,0,22919.1,0.0876935,0.0873459,0.477958,34,0.00652741,10,4.17477e-05,-3.32061,0.337715,0.174703,0.0871356,
2,1,0,1,0,22919.9,0.0916883,0.0913794,0.491715,34,0.00692828,10,4.49327e-05,-3.30829,0.317484,0.185836,0.0911631,
2,1,0,0,0,22920.7,0.0956838,0.095387,0.508711,34,0.00734231,10,4.85244e-05,-3.29353,0.223628,0.263831,0.0951631,
2,1,0,1,0,22921.5,0.099679,0.0993624,0.530146,34,0.00777201,10,5.26766e-05,-3.2756,0.244205,0.2416,0.0991292,
2,1,0,0,0,22922.3,0.103674,0.103359,0.554971,34,0.00821949,10,5.73613e-05,-3.25573,0.185229,0.318524,0.103115,
2,1,0,1,0,22923.1,0.10767,0.107362,0.577074,34,0.00868661,10,6.1956e-05,-3.23877,0.26371,0.223731,0.107108,
2,1,0,1,0,22923.9,0.111664,0.111322,0.596615,34,0.00917005,10,6.64161e-05,-3.22431,0.308687,0.191132,0.111059,
2,1,0,1,0,22924.7,0.115659,0.11533,0.612253,34,0.00966786,10,7.06109e-05,-3.21307,0.344706,0.171161,0.11506,
2,1,0,1,0,22925.5,0.119655,0.119328,0.626315,34,0.0101786,10,7.47368e-05,-3.20321,0.511223,0.11541,0.119052,
2,1,0,0,0,22926.3,0.12365,0.123351,0.641377,34,0.0106993,10,7.91145e-05,-3.19289,0.406672,0.14508,0.123069,
2,1,0,1,0,22927.1,0.127646,0.127334,0.652923,34,0.0112312,10,8.31394e-05,-3.18514,0.515148,0.11453,0.127047,
2,1,0,1,0,22927.9,0.131641,0.131372,0.659584,34,0.0117718,10,8.66507e-05,-3.18073,-2.06202,-0.0286128,0.131082,
2,1,0,1,0,22928.7,0.135635,0.135279,0.651309,34,0.0123113,10,8.81086e-05,-3.18621,-0.343084,-0.17197,0.134993,
2,1,0,1,0,22929.5,0.139631,0.139263,0.617711,34,0.0128357,10,8.60246e-05,-3.20921,-0.130828,-0.450972,0.138992,
2,1,0,0,0,22930.3,0.143626,0.143295,0.567356,34,0.0133247,10,8.12993e-05,-3.24614,-0.0888338,-0.664162,0.143045,
2,1,0,1,0,22931.1,0.147621,0.147323,0.503189,34,0.0137655,10,7.4131e-05,-3.29827,-0.0715875,-0.824167,0.147101,
2,1,0,1,0,22931.9,0.151617,0.151297,0.444149,34,0.0141567,10,6.71985e-05,-3.35247,-0.0806769,-0.731313,0.151102,
2,1,0,1,0,22932.7,0.155612,0.155293,0.401236,34,0.0145066,10,6.23089e-05,-3.3966,-0.106429,-0.55436,0.155116,
2,1,0,1,0,22933.5,0.159606,0.159285,0.369937,34,0.014828,10,5.89253e-05,-3.43187,-0.144044,-0.409598,0.159122,
2,1,0,0,0,22934.3,0.163602,0.163269,0.351268,34,0.0151299,10,5.73512e-05,-3.45436,-0.175024,-0.337097,0.163114,
2,1,0,1,0,22935.1,0.167597,0.167292,0.337335,34,0.0154179,10,5.64334e-05,-3.47194,-0.311261,-0.189552,0.167144,
2,1,0,0,0,22935.9,0.171592,0.171282,0.325213,34,0.0156966,10,5.57032e-05,-3.48783,-0.317396,-0.185887,0.171139,
2,1,0,1,0,22936.7,0.175588,0.175254,0.319355,34,0.0159681,10,5.59682e-05,-3.49573,-0.515299,-0.114497,0.175113,
2,1,0,1,0,22937.5,0.179582,0.179246,0.314346,34,0.0162342,10,5.63452e-05,-3.50259,-0.617807,-0.0954991,0.179108,
2,1,0,1,0,22938.3,0.183577,0.183266,0.309456,34,0.0164965,10,5.67127e-05,-3.5094,-0.544016,-0.108453,0.18313,
2,1,0,1,0,22939.1,0.187573,0.187238,0.305549,34,0.0167553,10,5.72105e-05,-3.51492,-0.687271,-0.0858468,0.187104,
2,1,0,0,0,22939.9,0.191568,0.191248,0.302805,34,0.0170114,10,5.79107e-05,-3.51884,-1.08227,-0.054515,0.191114,
2,1,0,1,0,22940.7,0.195563,0.195276,0.300025,34,0.0172654,10,5.85877e-05,-3.52284,-1.14403,-0.0515721,0.195144,
2,1,0,1,0,22941.5,0.199559,0.199236,0.297796,34,0.0175171,10,5.93316e-05,-3.52608,-1.75689,-0.033582,0.199105,
2,1,0,1,0,22942.3,0.203553,0.203261,0.294084,34,0.0177671,10,5.97757e-05,-3.53153,-1.12675,-0.0523629,0.203132,
2,1,0,1,0,22943.1,0.207548,0.207227,0.292608,34,0.0180154,10,6.06365e-05,-3.53371,-1.47357,-0.0400388,0.207099,
2,1,0,0,0,22943.9,0.211544,0.211228,0.291424,34,0.0182621,10,6.15569e-05,-3.53547,-1.10617,-0.0533373,0.2111,
2,1,0,1,0,22944.7,0.215539,0.215217,0.289531,34,0.0185076,10,6.2312e-05,-3.53831,-1.88534,-0.031294,0.21509,
2,1,0,1,0,22945.5,0.219535,0.219292,0.288566,34,0.0187516,10,6.32802e-05,-3.53975,-1.99608,-0.029558,0.219165,
2,1,0,1,0,22946.3,0.223529,0.223229,0.287248,34,0.0189943,10,6.41219e-05,-3.54174,-1.60153,-0.0368398,0.223102,
2,1,0,1,0,22947.1,0.227524,0.227235,0.28412,34,0.0192359,10,6.45622e-05,-3.5465,-1.21483,-0.0485666,0.22711,
2,1,0,0,0,22947.9,0.23152,0.231232,0.284522,34,0.0194766,10,6.57907e-05,-3.54588,13.1513,0.00448624,0.231107,
2,1,0,1,0,22948.7,0.235515,0.235196,0.281698,34,0.0197164,10,6.62543e-05,-3.55022,-1.89142,-0.0311935,0.235072,
2,1,0,0,0,22949.4,0.23951,0.239243,0.282176,34,0.0199551,10,6.75087e-05,-3.54948,-1.65019,-0.0357534,0.239119,
2,1,0,1,0,22950.2,0.243506,0.243196,0.280044,34,0.0201927,10,6.81056e-05,-3.55277,-119.895,-0.000492097,0.243073,
2,1,0,1,0,22951,0.2475,0.247196,0.279944,34,0.02043,10,6.92011e-05,-3.55293,-1.40729,-0.0419245,0.247073,
2,1,0,1,0,22951.8,0.251495,0.251176,0.278175,34,0.0206661,10,6.9871e-05,-3.55568,-3.05123,-0.0193365,0.251054,
2,1,0,1,0,22952.6,0.255491,0.255219,0.277664,34,0.0209016,10,7.08651e-05,-3.55648,-12.2248,-0.00482626,0.255097,
2,1,0,0,0,22953.4,0.259486,0.25914,0.278173,34,0.0211367,10,7.20859e-05,-3.55568,-1.24931,-0.0472261,0.259018,
2,1,0,1,0,22954.2,0.263481,0.263177,0.276986,34,0.0213708,10,7.28964e-05,-3.55754,-169.166,-0.00034877,0.263055,
2,1,0,1,0,22955,0.267477,0.267228,0.274931,34,0.0216043,10,7.34693e-05,-3.56078,17.1766,0.00343491,0.267107,
2,1,0,1,0,22955.8,0.271471,0.271125,0.275623,34,0.0218373,10,7.47282e-05,-3.55969,-1.00853,-0.0585007,0.271004,
2,1,0,1,0,22956.6,0.275466,0.275159,0.274504,34,0.0220693,10,7.55323e-05,-3.56145,3.10204,0.0190197,0.275039,
2,1,0,0,0,22957.4,0.279462,0.279178,0.274376,34,0.0223008,10,7.65997e-05,-3.56165,-1.68114,-0.0350953,0.279057,
2,1,0,1,0,22958.2,0.283457,0.283179,0.272714,34,0.0225313,10,7.72268e-05,-3.56429,-13.5114,-0.00436668,0.283059,
2,1,0,0,0,22959,0.287452,0.287107,0.272028,34,0.0227613,10,7.81014e-05,-3.56539,-2.05573,-0.0287003,0.286988,
2,1,0,1,0,22959.8,0.291448,0.291156,0.270989,34,0.0229906,10,7.89001e-05,-3.56705,-1.30417,-0.0452395,0.291037,
2,1,0,1,0,22960.6,0.295442,0.295132,0.269745,34,0.0232187,10,7.96105e-05,-3.56905,4.65908,0.0126635,0.295014,
2,1,0,1,0,22961.4,0.299437,0.299176,0.268277,34,0.0234466,10,8.02622e-05,-3.57142,-1.73742,-0.0339584,0.299058,
2,1,0,1,0,22962.2,0.303433,0.303143,0.268097,34,0.0236735,10,8.12717e-05,-3.57171,-2.39429,-0.0246419,0.303025,
2,1,0,0,0,22963,0.307428,0.307122,0.267408,34,0.0238999,10,8.21267e-05,-3.57283,-11.0145,-0.00535658,0.307004,
2,1,0,1,0,22963.8,0.311424,0.311123,0.26679,34,0.0241259,10,8.30046e-05,-3.57383,-2.26217,-0.0260812,0.311006,
2,1,0,1,0,22964.6,0.315418,0.315135,0.265957,34,0.024351,10,8.38123e-05,-3.57519,-2.51947,-0.0234177,0.315018,
2,1,0,1,0,22965.4,0.319413,0.319118,0.264925,34,0.0245755,10,8.45423e-05,-3.57688,4.67607,0.0126174,0.319001,
2,1,0,1,0,22966.2,0.323409,0.323108,0.26532,34,0.0247999,10,8.57271e-05,-3.57623,-1.15141,-0.0512416,0.322991,
2,1,0,0,0,22967,0.327404,0.327127,0.263047,34,0.0250232,10,8.60498e-05,-3.57997,4.53217,0.0130181,0.327011,
2,1,0,1,0,22967.8,0.331399,0.33112,0.263068,34,0.0252463,10,8.71069e-05,-3.57993,-1.80222,-0.0327374,0.331004,
2,1,0,1,0,22968.6,0.335395,0.335122,0.26235,34,0.0254687,10,8.79193e-05,-3.58112,-1.61722,-0.0364824,0.335006,
2,1,0,1,0,22969.4,0.339389,0.339123,0.261538,34,0.0256905,10,8.86937e-05,-3.58247,2.98084,0.0197931,0.339008,
2,1,0,1,0,22970.2,0.343384,0.3431,0.26168,34,0.0259119,10,8.97824e-05,-3.58223,-2.9834,-0.0197761,0.342985,
2,1,0,0,0,22971,0.34738,0.347049,0.261332,34,0.0261326,10,9.06949e-05,-3.58281,-2.66608,-0.0221299,0.346934,
2,1,0,1,0,22971.8,0.351375,0.351083,0.260875,34,0.0263532,10,9.15888e-05,-3.58357,-7.56406,-0.00780005,0.350968,
2,1,0,0,0,22972.6,0.35537,0.355043,0.258964,34,0.0265731,10,9.19436e-05,-3.58676,-1.43652,-0.0410716,0.354929,
2,1,0,1,0,22973.4,0.359366,0.359066,0.258904,34,0.0267924,10,9.29636e-05,-3.58686,4.23154,0.0139429,0.358952,
2,1,0,1,0,22974.2,0.36336,0.363068,0.258343,34,0.0270115,10,9.37963e-05,-3.5878,-3.67148,-0.0160698,0.362955,
2,1,0,1,0,22975,0.367355,0.367086,0.258079,34,0.02723,10,9.47373e-05,-3.58825,143.334,0.000411625,0.366973,
2,1,0,1,0,22975.8,0.371351,0.371069,0.256996,34,0.0274479,10,9.53633e-05,-3.59007,-3.46034,-0.0170503,0.370956,
2,1,0,0,0,22976.6,0.375346,0.37504,0.257221,34,0.0276656,10,9.64681e-05,-3.58969,70.8895,0.000832281,0.374926,
2,1,0,1,0,22977.4,0.379342,0.379044,0.256424,34,0.0278826,10,9.7196e-05,-3.59104,-4.04526,-0.014585,0.378931,
2,1,0,1,0,22978.2,0.383336,0.383037,0.255904,34,0.0280994,10,9.80206e-05,-3.59192,-2.04486,-0.0288529,0.382924,
2,1,0,1,0,22979,0.387331,0.387023,0.256276,34,0.0283159,10,9.91846e-05,-3.59129,-2.40136,-0.0245694,0.38691,
2,1,0,1,0,22979.8,0.391327,0.391039,0.256598,34,0.0285318,10,0.00010034,-3.59075,-10.2242,-0.00577061,0.390926,
2,1,0,0,0,22980.6,0.395322,0.395014,0.255042,34,0.0287474,10,0.000100745,-3.59339,35.0078,0.00168534,0.394902,
2,1,0,1,0,22981.4,0.399317,0.399037,0.255275,34,0.0289626,10,0.000101864,-3.59299,-6.1997,-0.00951659,0.398924,
2,1,0,1,0,22982.2,0.403313,0.403023,0.254509,34,0.0291776,10,0.000102573,-3.5943,-2.96502,-0.0198987,0.402911,
2,1,0,1,0,22983,0.407307,0.407024,0.253735,34,0.0293923,10,0.000103276,-3.59562,-9.49253,-0.00621542,0.406912,
2,1,0,1,0,22983.8,0.411302,0.411035,0.25462,34,0.0296064,10,0.000104658,-3.59411,-14.2162,-0.00415018,0.410923,
2,1,0,0,0,22984.6,0.415298,0.415019,0.252271,34,0.0298204,10,0.000104697,-3.59813,-74.36,-0.000793438,0.414908,
2,1,0,1,0,22985.4,0.419293,0.419053,0.253505,34,0.0300342,10,0.000106232,-3.59601,-3.58303,-0.0164665,0.418941,
2,1,0,0,0,22986.2,0.423288,0.422956,0.253343,34,0.0302476,10,0.000107153,-3.59629,12.9095,0.00457029,0.422845,
2,1,0,1,0,22987,0.427283,0.427003,0.251455,34,0.030461,10,0.000107372,-3.59954,15.6212,0.00377691,0.426892,
2,1,0,1,0,22987.8,0.431278,0.430999,0.253892,34,0.030674,10,0.000109427,-3.59535,4.9614,0.0118918,0.430887,
2,1,0,1,0,22988.6,0.435273,0.434991,0.253485,34,0.030887,10,0.000110264,-3.59605,-45.3671,-0.0013005,0.43488,
2,1,0,1,0,22989.4,0.439269,0.438948,0.253138,34,0.0311003,10,0.000111115,-3.59664,-3.97831,-0.0148304,0.438837,
2,1,0,0,0,22990.2,0.443264,0.442965,0.253284,34,0.0313133,10,0.000112196,-3.59639,2.94848,0.0200103,0.442853,
2,1,0,1,0,22991,0.447259,0.447,0.25257,34,0.0315262,10,0.000112899,-3.59762,-2.22538,-0.0265123,0.446889,
2,1,0,1,0,22991.8,0.451254,0.450975,0.253472,34,0.0317392,10,0.00011431,-3.59607,-2.55543,-0.0230881,0.450864,
2,1,0,1,0,22992.6,0.455249,0.454959,0.253002,34,0.031952,10,0.000115105,-3.59688,1.2912,0.0456938,0.454848,
2,1,0,1,0,22993.4,0.459244,0.458976,0.251801,34,0.032165,10,0.00011557,-3.59894,-5.30339,-0.011125,0.458865,
2,1,0,0,0,22994.2,0.46324,0.46293,0.252881,34,0.0323779,10,0.000117066,-3.59708,-18.4096,-0.00320486,0.462819,
2,1,0,1,0,22995,0.467235,0.466917,0.254327,34,0.0325907,10,0.000118749,-3.59461,8.81058,0.00669649,0.466805,
2,1,0,1,0,22995.8,0.471231,0.47093,0.253605,34,0.0328038,10,0.00011943,-3.59584,2.87179,0.0205447,0.470819,
2,1,0,1,0,22996.6,0.475225,0.474904,0.254985,34,0.0330169,10,0.000121093,-3.59349,3.66411,0.0161021,0.474791,
2,1,0,1,0,22997.4,0.47922,0.478937,0.254088,34,0.0332305,10,0.000121692,-3.59502,7.4476,0.00792202,0.478825,
2,1,0,0,0,22998.2,0.483216,0.482888,0.253845,34,0.0334446,10,0.000122579,-3.59543,-2.89293,-0.0203945,0.482776,
2,1,0,1,0,22999,0.487211,0.486885,0.25599,34,0.0336586,10,0.000124638,-3.59178,2.75126,0.0214447,0.486772,
2,1,0,0,0,22999.8,0.491206,0.490887,0.255239,34,0.0338732,10,0.000125294,-3.59305,9.24499,0.00638183,0.490774,
2,1,0,1,0,23000.6,0.495201,0.494958,0.256781,34,0.0340882,10,0.000127096,-3.59044,0.900813,0.0654964,0.494845,
2,1,0,1,0,23001.4,0.499196,0.498915,0.257225,34,0.0343036,10,0.000128333,-3.58969,6.97008,0.00846475,0.498802,
2,1,0,1,0,23002.2,0.503191,0.502919,0.258066,34,0.0345199,10,0.000129786,-3.58827,2.446,0.024121,0.502805,
2,1,0,1,0,23003,0.507187,0.506923,0.258654,34,0.0347364,10,0.000131118,-3.58728,-10.8835,-0.00542107,0.50681,
2,1,0,0,0,23003.8,0.511182,0.510902,0.259986,34,0.0349538,10,0.000132827,-3.58505,1.28644,0.0458631,0.510788,
2,1,0,1,0,23004.6,0.515177,0.514903,0.260661,34,0.0351723,10,0.000134215,-3.58392,-128.642,-0.000458638,0.514788,
2,1,0,1,0,23005.4,0.519173,0.518904,0.262255,34,0.0353917,10,0.000136085,-3.58128,1.41606,0.041665,0.518789,
2,1,0,1,0,23006.2,0.523167,0.522838,0.262782,34,0.035612,10,0.000137393,-3.5804,1.40784,0.0419081,0.522722,
2,1,0,1,0,23007,0.527162,0.526859,0.265909,34,0.0358336,10,0.000140097,-3.57527,1.30997,0.0450392,0.526742,
2,1,0,0,0,23007.8,0.531158,0.530851,0.26694,34,0.0360563,10,0.000141705,-3.57359,1.07342,0.0549644,0.530734,
2,1,0,1,0,23008.6,0.535153,0.534886,0.2691,34,0.0362805,10,0.000143938,-3.57009,2.06491,0.0285727,0.534768,
2,1,0,0,0,23009.4,0.539148,0.538867,0.27146,34,0.0365058,10,0.000146281,-3.56629,1.371,0.0430342,0.538748,
2,1,0,1,0,23010.2,0.543143,0.542821,0.272376,34,0.0367326,10,0.000147852,-3.56483,1.26352,0.0466949,0.542702,
2,1,0,1,0,23011,0.547138,0.546863,0.274426,34,0.0369609,10,0.000150074,-3.56157,1.62339,0.0363438,0.546743,
2,1,0,1,0,23011.8,0.551133,0.550838,0.276534,34,0.0371911,10,0.000152325,-3.55825,0.746553,0.0790298,0.550716,
2,1,0,1,0,23012.6,0.555129,0.554851,0.279598,34,0.0374235,10,0.000155135,-3.55347,0.875271,0.0674077,0.554727,
2,1,0,0,0,23013.4,0.559124,0.55884,0.282462,34,0.037658,10,0.000157851,-3.54904,0.689554,0.0855625,0.558715,
2,1,0,1,0,23014.2,0.56312,0.562807,0.286299,34,0.0378949,10,0.000161131,-3.54318,0.794233,0.0742855,0.562681,
2,1,0,1,0,23015,0.567114,0.566828,0.289504,34,0.0381345,10,0.000164099,-3.53835,1.12044,0.052658,0.566701,
2,1,0,1,0,23015.8,0.571109,0.570818,0.294178,34,0.0383768,10,0.000167922,-3.53139,0.615128,0.095915,0.570688,
2,1,0,1,0,23016.6,0.575105,0.574814,0.297229,34,0.0386224,10,0.000170851,-3.52691,0.511221,0.11541,0.574683,
2,1,0,0,0,23017.4,0.5791,0.578802,0.30179,34,0.0388719,10,0.000174677,-3.52029,0.778172,0.0758187,0.578669,
2,1,0,1,0,23018.2,0.583095,0.582821,0.307413,34,0.0391252,10,0.000179167,-3.51228,0.418445,0.140998,0.582686,
2,1,0,1,0,23019,0.58709,0.586824,0.313344,34,0.039383,10,0.000183878,-3.50398,0.496111,0.118925,0.586686,
2,1,0,1,0,23019.8,0.591085,0.590794,0.321449,34,0.0396459,10,0.00018991,-3.49289,0.377764,0.156182,0.590653,
2,1,0,1,0,23020.6,0.59508,0.594789,0.328532,34,0.0399144,10,0.000195408,-3.48342,0.356236,0.165621,0.594645,
2,1,0,0,0,23021.4,0.599076,0.59878,0.336403,34,0.0401896,10,0.000201431,-3.47314,0.33773,0.174696,0.598632,
2,1,0,1,0,23022.2,0.603071,0.602793,0.346849,34,0.0404721,10,0.000209078,-3.45986,0.303601,0.194334,0.60264,
2,1,0,0,0,23023,0.607066,0.606794,0.35864,34,0.0407636,10,0.000217621,-3.44534,0.261852,0.225318,0.606636,
2,1,0,1,0,23023.8,0.611061,0.61079,0.372058,34,0.0410652,10,0.000227249,-3.42939,0.261643,0.225498,0.610626,
2,1,0,1,0,23024.6,0.615056,0.614757,0.386847,34,0.0413781,10,0.000237817,-3.41246,0.194043,0.304057,0.614587,
2,1,0,1,0,23025.4,0.619051,0.618795,0.404794,34,0.0417049,10,0.000250484,-3.39277,0.200861,0.293735,0.618617,
2,1,0,1,0,23026.2,0.623047,0.622762,0.42741,34,0.0420471,10,0.000266175,-3.36916,0.167468,0.352305,0.622574,
2,1,0,0,0,23027,0.627042,0.626766,0.452099,34,0.0424072,10,0.00028336,-3.34477,0.153933,0.383283,0.626567,
2,1,0,1,0,23027.8,0.631037,0.630764,0.479484,34,0.0427885,10,0.000302441,-3.31923,0.145238,0.406229,0.630553,
2,1,0,1,0,23028.6,0.635032,0.634773,0.512805,34,0.0431942,10,0.000325515,-3.29005,0.132611,0.44491,0.634548,
2,1,0,1,0,23029.4,0.639027,0.638716,0.5511,34,0.0436284,10,0.000351996,-3.25877,0.12358,0.477422,0.638473,
2,1,0,1,0,23030.2,0.643022,0.642792,0.595898,34,0.044096,10,0.000383039,-3.22483,0.111406,0.529594,0.64253,
2,1,0,0,0,23031,0.647018,0.646764,0.650504,34,0.0446034,10,0.000420723,-3.18675,0.0999522,0.590282,0.646478,
2,1,0,1,0,23031.8,0.651013,0.650758,0.713084,34,0.0451576,10,0.000464045,-3.14686,0.0955457,0.617506,0.650444,
2,1,0,1,0,23032.5,0.655008,0.654734,0.788301,34,0.0457667,10,0.000516127,-3.10331,0.088903,0.663645,0.654387,
2,1,0,1,0,23033.3,0.659003,0.658745,0.874403,34,0.04644,10,0.000576009,-3.05829,0.0839739,0.7026,0.65836,
2,1,0,1,0,23034.1,0.662998,0.662701,0.97587,34,0.0471884,10,0.00064671,-3.01061,0.0832112,0.709039,0.662272,
2,1,0,0,0,23034.9,0.666994,0.666728,1.0919,34,0.0480232,10,0.000728002,-2.96182,0.0801227,0.736371,0.666247,
2,1,0,1,0,23035.7,0.670989,0.670736,1.2263,34,0.048958,10,0.000822523,-2.9114,0.0762693,0.773574,0.670196,
2,1,0,0,0,23036.5,0.674984,0.674717,1.38278,34,0.0500085,10,0.000932985,-2.85925,0.0754223,0.782262,0.674108,
2,1,0,1,0,23037.3,0.67898,0.678735,1.55734,34,0.0511912,10,0.00105702,-2.80762,0.0754086,0.782404,0.67805,
2,1,0,1,0,23038.1,0.682974,0.682709,1.75836,34,0.0525242,10,0.00120045,-2.75489,0.0733773,0.804064,0.681935,
2,1,0,1,0,23038.9,0.686969,0.686713,1.98429,34,0.0540275,10,0.00136264,-2.70239,0.0747994,0.788777,0.68584,
2,1,0,1,0,23039.7,0.690965,0.690692,2.23517,34,0.0557213,10,0.00154381,-2.65069,0.0750322,0.786329,0.689708,
2,1,0,0,0,23040.5,0.69496,0.69473,2.51548,34,0.0576279,10,0.00174758,-2.59938,0.0764259,0.77199,0.693623,
2,1,0,1,0,23041.3,0.698955,0.698664,2.82333,34,0.0597688,10,0.00197256,-2.54924,0.0778976,0.757404,0.697422,
2,1,0,1,0,23042.1,0.70295,0.702667,3.15857,34,0.0621674,10,0.00221942,-2.50051,0.0788304,0.748443,0.701277,
2,1,0,1,0,23042.9,0.706945,0.70671,3.52574,34,0.0648468,10,0.00249167,-2.45275,0.0821931,0.717821,0.705159,
2,1,0,1,0,23043.7,0.71094,0.710651,3.92045,34,0.0678304,10,0.00278607,-2.40666,0.0835732,0.705968,0.708926,
2,1,0,0,0,23044.5,0.714936,0.714696,4.34539,34,0.071142,10,0.00310564,-2.36197,0.0862972,0.683684,0.712784,
2,1,0,1,0,23045.3,0.718931,0.718656,4.80092,34,0.074804,10,0.00345021,-2.31868,0.0902448,0.653777,0.716543,
2,1,0,1,0,23046.1,0.722927,0.722656,5.28327,34,0.0788417,10,0.00381798,-2.2771,0.0913656,0.645757,0.720331,
2,1,0,1,0,23046.9,0.726921,0.72667,5.79564,34,0.0832762,10,0.00421152,-2.2369,0.0964566,0.611674,0.72412,
2,1,0,1,0,23047.7,0.730916,0.730673,6.33593,34,0.0881309,10,0.00462949,-2.19819,0.0983485,0.599907,0.727885,
2,1,0,1,0,23048.5,0.734911,0.734626,6.90371,34,0.0934292,10,0.00507165,-2.16092,0.101946,0.57874,0.731589,
2,1,0,1,0,23049.3,0.738907,0.738618,7.5009,34,0.0991937,10,0.00554029,-2.12489,0.104545,0.564351,0.735317,
2,1,0,0,0,23050.1,0.742902,0.742585,8.12622,34,0.105446,10,0.00603441,-2.09011,0.109685,0.537906,0.739009,
2,1,0,1,0,23050.9,0.746897,0.746629,8.78148,34,0.11221,10,0.00655651,-2.05643,0.111432,0.529471,0.742766,
2,1,0,1,0,23051.7,0.750892,0.750604,9.46517,34,0.119509,10,0.00710459,-2.02387,0.113833,0.518302,0.746439,
2,1,0,1,0,23052.5,0.754887,0.754592,10.1797,34,0.127365,10,0.00768148,-1.99227,0.119011,0.495754,0.750113,
2,1,0,1,0,23053.3,0.758883,0.75859,10.9305,34,0.135809,10,0.00829174,-1.96136,0.119932,0.491944,0.75378,
2,1,0,0,0,23054.1,0.762878,0.76262,11.7176,34,0.144865,10,0.00893606,-1.93116,0.120321,0.490356,0.757465,
2,1,0,1,0,23054.9,0.766873,0.766588,12.5493,34,0.154568,10,0.00962011,-1.90138,0.122641,0.481077,0.761067,
2,1,0,1,0,23055.7,0.770868,0.770634,13.4282,34,0.164954,10,0.0103482,-1.87198,0.123682,0.477028,0.764726,
2,1,0,1,0,23056.5,0.774863,0.774564,14.361,34,0.176062,10,0.0111235,-1.84282,0.12127,0.486517,0.768245,
2,1,0,1,0,23057.3,0.778858,0.778603,15.366,34,0.187946,10,0.011964,-1.81344,0.120394,0.490058,0.771842,
2,1,0,0,0,23058.1,0.782854,0.782589,16.4225,34,0.200654,10,0.0128521,-1.78456,0.125389,0.470537,0.775363,
2,1,0,1,0,23058.9,0.786849,0.786596,17.5416,34,0.21423,10,0.0137981,-1.75593,0.119534,0.493583,0.778878,
2,1,0,0,0,23059.7,0.790844,0.790574,18.7358,34,0.228734,10,0.014812,-1.72733,0.12372,0.476881,0.78233,
2,1,0,1,0,23060.5,0.794839,0.79456,20.0053,34,0.244217,10,0.0158954,-1.69885,0.121054,0.487388,0.785757,
2,1,0,1,0,23061.3,0.798834,0.798594,21.2876,34,0.260723,10,0.0170002,-1.67187,0.127085,0.464257,0.789228,
2,1,0,1,0,23062.1,0.802829,0.80257,22.6314,34,0.278281,10,0.0181633,-1.64529,0.129001,0.457362,0.792612,
2,1,0,1,0,23062.9,0.806825,0.806553,24.0103,34,0.296927,10,0.0193656,-1.6196,0.132158,0.446436,0.795988,
2,1,0,0,0,23063.7,0.81082,0.81053,25.4595,34,0.316709,10,0.0206357,-1.59415,0.138486,0.426037,0.799328,
2,1,0,1,0,23064.5,0.814815,0.814544,26.9355,34,0.337644,10,0.0219401,-1.56968,0.138058,0.427357,0.802693,
2,1,0,1,0,23065.3,0.81881,0.8185,28.4171,34,0.359757,10,0.0232594,-1.54642,0.141006,0.418423,0.805997,
2,1,0,1,0,23066.1,0.822805,0.822607,29.9242,34,0.383087,10,0.0246159,-1.52398,0.200031,0.294955,0.80944,
2,1,0,1,0,23066.9,0.826801,0.826537,31.1937,34,0.407497,10,0.0257828,-1.50593,0.151295,0.389968,0.812812,
2,1,0,0,0,23067.7,0.830796,0.83058,32.7774,34,0.433071,10,0.0272243,-1.48443,0.154568,0.381709,0.816158,
2,1,0,1,0,23068.5,0.834791,0.834563,34.2994,34,0.459885,10,0.0286251,-1.46471,0.177635,0.332143,0.819472,
2,1,0,1,0,23069.3,0.838786,0.838543,35.711,34,0.48788,10,0.0299452,-1.4472,0.188085,0.313687,0.822831,
2,1,0,1,0,23070.1,0.842781,0.84254,37.3194,34,0.517072,10,0.0314431,-1.42807,0.185112,0.318726,0.826119,
2,1,0,1,0,23070.9,0.846776,0.84655,38.9054,34,0.547526,10,0.0329354,-1.40999,0.184382,0.319988,0.829432,
2,1,0,1,0,23071.6,0.849723,0.84946,39.8996,34,0.575221,10,0.0338931,-1.39903,0.0528343,1.1167,0.831904,
2,1,0,0,0,23072.4,0.845728,0.845476,37.5487,34,0.606075,10,0.0317466,-1.4254,0.1313,0.449353,0.828955,
2,1,0,1,0,23073.2,0.841732,0.841492,35.6253,34,0.63528,10,0.0299785,-1.44824,0.138285,0.426654,0.825817,
2,1,0,1,0,23074,0.837737,0.837493,33.8188,34,0.663008,10,0.028323,-1.47084,0.144453,0.408437,0.822613,
2,1,0,1,0,23074.8,0.833742,0.83347,32.0902,34,0.689318,10,0.0267462,-1.49363,0.214134,0.275529,0.819351,
2,1,0,1,0,23075.6,0.829747,0.829518,31.5632,34,0.71473,10,0.0261822,-1.50082,0.233335,0.252855,0.81563,
2,1,0,0,0,23076.4,0.825752,0.825461,29.7395,34,0.739208,10,0.0245488,-1.52667,0.122836,0.480314,0.812376,
2,1,0,1,0,23077.2,0.821757,0.821546,28.0358,34,0.762274,10,0.0230327,-1.55229,0.12995,0.454021,0.80921,
2,1,0,1,0,23078,0.817761,0.817478,26.4121,34,0.78401,10,0.0215913,-1.5782,0.121773,0.48451,0.805856,
2,1,0,1,0,23078.8,0.813766,0.813473,24.8103,34,0.804463,10,0.0201825,-1.60537,0.12012,0.491177,0.802556,
2,1,0,1,0,23079.6,0.809771,0.809485,23.3158,34,0.82366,10,0.0188738,-1.63235,0.119083,0.495453,0.799226,
2,1,0,1,0,23080.4,0.805776,0.80551,21.8134,34,0.841669,10,0.0175709,-1.66128,0.119274,0.494658,0.795912,
2,1,0,1,0,23081.2,0.801781,0.801515,20.4213,34,0.858528,10,0.016368,-1.68992,0.118489,0.497938,0.79253,
2,1,0,0,0,23082,0.797786,0.79752,19.1207,34,0.874306,10,0.0152491,-1.7185,0.119084,0.495447,0.789107,
2,1,0,1,0,23082.8,0.79379,0.79353,17.8471,34,0.889066,10,0.0141622,-1.74843,0.111647,0.528451,0.785678,
2,1,0,1,0,23083.6,0.789795,0.789551,16.6271,34,0.902821,10,0.013128,-1.77918,0.112174,0.52597,0.782235,
2,1,0,1,0,23084.4,0.7858,0.785511,15.4718,34,0.915629,10,0.0121532,-1.81046,0.112229,0.525712,0.778704,
2,1,0,1,0,23085.2,0.781805,0.781521,14.3909,34,0.927545,10,0.0112468,-1.84191,0.10877,0.542427,0.775189,
2,1,0,0,0,23086,0.77781,0.777549,13.3356,34,0.938607,10,0.0103691,-1.87499,0.107024,0.551277,0.771681,
2,1,0,1,0,23086.8,0.773815,0.773575,12.3403,34,0.948848,10,0.00954617,-1.90867,0.105162,0.561038,0.768146,
2,1,0,1,0,23087.6,0.769819,0.769562,11.4047,34,0.958321,10,0.00877663,-1.94292,0.103551,0.569768,0.764544,
2,1,0,1,0,23088.4,0.765824,0.76556,10.5267,34,0.967067,10,0.00805885,-1.97771,0.103887,0.567923,0.760928,
2,1,0,1,0,23089.2,0.761829,0.761544,9.69488,34,0.975131,10,0.00738308,-2.01346,0.0996827,0.591878,0.757278,
2,1,0,0,0,23090,0.757834,0.757527,8.9114,34,0.982551,10,0.00675063,-2.05005,0.0991451,0.595088,0.753606,
2,1,0,1,0,23090.8,0.753839,0.753562,8.1782,34,0.989364,10,0.00616278,-2.08734,0.097521,0.604998,0.749964,
2,1,0,0,0,23091.6,0.749844,0.74955,7.4872,34,0.995609,10,0.00561203,-2.12568,0.0957619,0.616112,0.746255,
2,1,0,1,0,23092.4,0.745848,0.745595,6.84019,34,1.00132,10,0.00510001,-2.16493,0.0922996,0.639223,0.742585,
2,1,0,1,0,23093.2,0.741853,0.741567,6.23281,34,1.00653,10,0.00462204,-2.20532,0.0929104,0.635021,0.738825,
2,1,0,1,0,23094,0.737858,0.737589,5.66515,34,1.01127,10,0.00417855,-2.24679,0.0878149,0.671868,0.735096,
2,1,0,1,0,23094.8,0.733863,0.733597,5.13396,34,1.01557,10,0.00376626,-2.28955,0.0873748,0.675252,0.731338,
2,1,0,0,0,23095.6,0.729868,0.729582,4.63492,34,1.01946,10,0.00338156,-2.33396,0.0848962,0.694966,0.727543,
2,1,0,1,0,23096.4,0.725872,0.725625,4.17451,34,1.02297,10,0.00302913,-2.37939,0.0809339,0.72899,0.723788,
2,1,0,1,0,23097.2,0.721877,0.721596,3.74556,34,1.02612,10,0.00270278,-2.42648,0.0794284,0.742807,0.719948,
2,1,0,1,0,23098,0.717882,0.717598,3.34862,34,1.02894,10,0.00240296,-2.47513,0.0779929,0.756479,0.716124,
2,1,0,1,0,23098.8,0.713887,0.713633,2.98134,34,1.03146,10,0.00212758,-2.52559,0.0747845,0.788933,0.712321,
2,1,0,0,0,23099.6,0.709892,0.709599,2.64354,34,1.03369,10,0.00187585,-2.57781,0.0726877,0.811692,0.708436,
2,1,0,1,0,23100.4,0.705897,0.705608,2.33342,34,1.03567,10,0.00164648,-2.63201,0.0693834,0.850347,0.704582,
2,1,0,1,0,23101.2,0.701901,0.701616,2.04427,34,1.03741,10,0.00143429,-2.68946,0.066798,0.88326,0.700716,
2,1,0,1,0,23102,0.697906,0.69766,1.78764,34,1.03893,10,0.00124716,-2.74772,0.0643764,0.916485,0.696873,
2,1,0,1,0,23102.8,0.693911,0.693682,1.55307,34,1.04025,10,0.00107734,-2.80881,0.0627811,0.939774,0.692999,
2,1,0,0,0,23103.6,0.689916,0.689647,1.34188,34,1.04139,10,0.000925425,-2.87229,0.0609122,0.968607,0.689057,
2,1,0,1,0,23104.4,0.685921,0.685626,1.15338,34,1.04238,10,0.00079079,-2.93803,0.0580318,1.01668,0.685119,
2,1,0,0,0,23105.2,0.681926,0.681651,0.984507,34,1.04322,10,0.00067109,-3.00678,0.056076,1.05214,0.681218,
2,1,0,1,0,23106,0.67793,0.677646,0.834985,34,1.04394,10,0.000565825,-3.07832,0.0533331,1.10625,0.677279,
2,1,0,1,0,23106.8,0.673935,0.67365,0.701739,34,1.04454,10,0.000472726,-3.15382,0.0511332,1.15385,0.673341,
2,1,0,1,0,23107.6,0.66994,0.669676,0.585633,34,1.04504,10,0.000392184,-3.23237,0.0497815,1.18518,0.669418,
2,1,0,1,0,23108.4,0.665945,0.665681,0.485399,34,1.04546,10,0.000323121,-3.3139,0.0474638,1.24305,0.665467,
2,1,0,0,0,23109.2,0.66195,0.66168,0.396821,34,1.0458,10,0.000262569,-3.40141,0.0435941,1.35339,0.661505,
2,1,0,1,0,23110,0.657955,0.657669,0.32255,34,1.04608,10,0.000212131,-3.4914,0.0429998,1.3721,0.657527,
2,1,0,1,0,23110.8,0.653959,0.653721,0.256611,34,1.0463,10,0.000167752,-3.59072,0.0388462,1.51881,0.653609,
2,1,0,1,0,23111.6,0.649964,0.649685,0.202373,34,1.04647,10,0.000131479,-3.69385,0.0364882,1.61696,0.649596,
2,1,0,1,0,23112.4,0.64597,0.645664,0.155313,34,1.04661,10,0.00010028,-3.80879,0.0333142,1.77102,0.645596,
2,1,0,0,0,23113.2,0.641974,0.641684,0.115923,34,1.0467,10,7.43862e-05,-3.93583,0.0295147,1.999,0.641633,
2,1,0,1,0,23114,0.637979,0.637687,0.0836801,34,1.04677,10,5.33617e-05,-4.07738,0.024032,2.45506,0.637651,
2,1,0,1,0,23114.8,0.633983,0.633684,0.054559,34,1.04682,10,3.45731e-05,-4.26313,0.0207709,2.84052,0.63366,
2,1,0,1,0,23115.5,0.629988,0.629703,0.0310892,34,1.04684,10,1.95769e-05,-4.50739,0.0116776,5.05241,0.629689,
2,1,0,1,0,23116.3,0.625993,0.625724,0.0104341,34,1.04685,10,6.52888e-06,-4.98154,0.00472751,12.4801,0.625719,
2,1,0,0,0,23117.1,0.621998,0.621707,-0.00445155,34,1.04684,10,-2.76756e-06,-5.35149,-0.00629265,-9.37602,0.621709,
2,0,0,1,0,23117.9,0.618003,0.617736,-0.0184855,34,1.04682,10,-1.14191e-05,-4.73317,-0.0122069,-4.83335,0.617744,
2,0,0,0,0,23118.7,0.614008,0.613743,-0.0301991,34,1.04679,10,-1.85345e-05,-4.52001,-0.0288702,-2.04363,0.613757,
2,0,0,1,0,23119.5,0.610012,0.609704,-0.0405048,34,1.04675,10,-2.46959e-05,-4.39249,-0.0408015,-1.44603,0.609722,
2,0,0,1,0,23120.3,0.606017,0.605682,-0.0470548,34,1.04671,10,-2.85003e-05,-4.3274,-0.0648114,-0.910333,0.605703,
2,0,0,1,0,23121.1,0.602022,0.601715,-0.0543815,34,1.04666,10,-3.27222e-05,-4.26455,-0.0945276,-0.624156,0.601739,
2,0,0,1,0,23121.9,0.598027,0.597716,-0.0602398,34,1.0466,10,-3.60063e-05,-4.22012,-0.0922172,-0.639794,0.597743,
2,0,0,0,0,23122.7,0.594032,0.593748,-0.0653796,34,1.04654,10,-3.8819e-05,-4.18456,-0.127377,-0.463193,0.593777,
2,0,0,1,0,23123.5,0.590037,0.589699,-0.0692149,34,1.04648,10,-4.08159e-05,-4.1598,-0.168033,-0.351121,0.589729,
2,0,0,1,0,23124.3,0.586041,0.585754,-0.0720349,34,1.04641,10,-4.21947e-05,-4.14246,-0.159122,-0.370785,0.585785,
2,0,0,1,0,23125.1,0.582046,0.58175,-0.0754179,34,1.04634,10,-4.38744e-05,-4.12253,-0.270589,-0.218043,0.581783,
2,0,0,1,0,23125.9,0.578052,0.577746,-0.0784927,34,1.04627,10,-4.53488e-05,-4.10517,-0.314106,-0.187835,0.577781,
2,0,0,0,0,23126.7,0.574056,0.573737,-0.0800451,34,1.0462,10,-4.59249e-05,-4.09667,-0.309854,-0.190413,0.573773,
2,0,0,1,0,23127.5,0.570061,0.569767,-0.0838039,34,1.04612,10,-4.77487e-05,-4.07674,-0.534898,-0.110301,0.569804,
2,0,0,1,0,23128.3,0.566065,0.565796,-0.0840343,34,1.04604,10,-4.75462e-05,-4.07554,-0.293997,-0.200682,0.565833,
2,0,0,1,0,23129.1,0.56207,0.56178,-0.0871261,34,1.04597,10,-4.89457e-05,-4.05985,-0.789573,-0.0747239,0.561818,
2,0,0,1,0,23129.9,0.558075,0.55777,-0.0880117,34,1.04589,10,-4.90903e-05,-4.05546,-0.363105,-0.162488,0.557809,
2,0,0,1,0,23130.7,0.55408,0.553787,-0.0894179,34,1.0458,10,-4.95185e-05,-4.04858,-0.545943,-0.10807,0.553827,
2,0,0,1,0,23131.5,0.550085,0.549811,-0.0911551,34,1.04572,10,-5.01181e-05,-4.04022,-0.638845,-0.0923542,0.549852,
2,0,0,0,0,23132.3,0.54609,0.54583,-0.0929263,34,1.04564,10,-5.07219e-05,-4.03186,-1.17307,-0.0502956,0.545871,
2,0,0,1,0,23133.1,0.542094,0.541801,-0.0941346,34,1.04555,10,-5.10022e-05,-4.02625,-0.538197,-0.109625,0.541842,
2,0,0,1,0,23133.9,0.538099,0.53783,-0.095254,34,1.04547,10,-5.12305e-05,-4.02112,-1.47769,-0.0399271,0.537872,
2,0,0,1,0,23134.7,0.534104,0.53383,-0.0953198,34,1.04538,10,-5.08846e-05,-4.02082,-0.429064,-0.137509,0.533872,
2,0,0,1,0,23135.5,0.530109,0.52979,-0.0970737,34,1.04529,10,-5.14287e-05,-4.0129,-1.13634,-0.0519209,0.529833,
2,0,0,0,0,23136.3,0.526114,0.525807,-0.0993307,34,1.04521,10,-5.22288e-05,-4.00292,-0.759155,-0.0777179,0.525851,
2,0,0,1,0,23137.1,0.522119,0.521787,-0.0997194,34,1.04512,10,-5.20323e-05,-4.00122,-0.80747,-0.0730677,0.521831,
2,0,0,1,0,23137.9,0.518123,0.517804,-0.101057,34,1.04503,10,-5.23278e-05,-3.99543,-1.24133,-0.0475296,0.517848,
2,0,0,1,0,23138.7,0.514128,0.513804,-0.102303,34,1.04493,10,-5.25636e-05,-3.99011,-0.449044,-0.13139,0.513849,
2,0,0,1,0,23139.5,0.510133,0.50986,-0.103409,34,1.04484,10,-5.27242e-05,-3.98544,-3.88308,-0.0151941,0.509906,
2,0,0,0,0,23140.3,0.506138,0.505825,-0.103568,34,1.04475,10,-5.23873e-05,-3.98477,-3.243,-0.018193,0.50587,
2,0,0,1,0,23141.1,0.502143,0.501795,-0.105036,34,1.04465,10,-5.27065e-05,-3.97866,-0.791689,-0.0745242,0.501841,
2,0,0,0,0,23141.9,0.498148,0.497848,-0.105762,34,1.04456,10,-5.26535e-05,-3.97567,-0.444595,-0.132705,0.497895,
2,0,0,1,0,23142.7,0.494152,0.493878,-0.107328,34,1.04446,10,-5.30069e-05,-3.96929,-1.11003,-0.0531517,0.493925,
2,0,0,1,0,23143.5,0.490157,0.489873,-0.108355,34,1.04437,10,-5.30801e-05,-3.96515,-0.876581,-0.067307,0.489921,
2,0,0,1,0,23144.3,0.486162,0.485855,-0.110178,34,1.04427,10,-5.35305e-05,-3.95791,-0.743678,-0.0793354,0.485904,
2,0,0,1,0,23145.1,0.482167,0.48188,-0.111711,34,1.04417,10,-5.38314e-05,-3.9519,-0.504571,-0.116931,0.481929,
2,0,0,0,0,23145.9,0.478172,0.477892,-0.110828,34,1.04407,10,-5.29637e-05,-3.95535,-1.2467,-0.0473248,0.47794,
2,0,0,1,0,23146.7,0.474177,0.473894,-0.114309,34,1.04397,10,-5.41702e-05,-3.94192,-3.22557,-0.0182914,0.473944,
2,0,0,1,0,23147.5,0.470181,0.469886,-0.114817,34,1.04387,10,-5.39511e-05,-3.93999,-0.42632,-0.138394,0.469937,
2,0,0,1,0,23148.3,0.466186,0.465897,-0.116962,34,1.04376,10,-5.44922e-05,-3.93196,-0.797242,-0.0740052,0.465949,
2,0,0,1,0,23149.1,0.462191,0.461875,-0.118063,34,1.04366,10,-5.45303e-05,-3.92789,-0.526139,-0.112138,0.461926,
2,0,0,0,0,23149.9,0.458196,0.457923,-0.11946,34,1.04355,10,-5.47035e-05,-3.92278,-1.71767,-0.0343489,0.457976,
2,0,0,1,0,23150.7,0.454201,0.453883,-0.121655,34,1.04345,10,-5.52172e-05,-3.91487,-0.527723,-0.111801,0.453936,
2,0,0,1,0,23151.5,0.450205,0.449895,-0.122326,34,1.04334,10,-5.50337e-05,-3.91248,-0.710881,-0.0829956,0.449949,
2,0,0,1,0,23152.3,0.44621,0.445923,-0.123937,34,1.04323,10,-5.52663e-05,-3.9068,-3.68997,-0.0159893,0.445978,
2,0,0,1,0,23153.1,0.442215,0.441934,-0.124834,34,1.04312,10,-5.51685e-05,-3.90367,-0.671013,-0.0879268,0.441989,
2,0,0,0,0,23153.9,0.43822,0.437921,-0.126487,34,1.04301,10,-5.53914e-05,-3.89795,-0.391949,-0.15053,0.437976,
2,0,0,1,0,23154.7,0.434225,0.433967,-0.129151,34,1.04289,10,-5.60472e-05,-3.8889,-1.06936,-0.0551733,0.434024,
2,0,0,0,0,23155.5,0.43023,0.429963,-0.132088,34,1.04278,10,-5.67929e-05,-3.87914,-0.68106,-0.0866297,0.430021,
2,0,0,1,0,23156.3,0.426234,0.425943,-0.133229,34,1.04266,10,-5.67479e-05,-3.8754,-0.559739,-0.105406,0.426001,
2,0,0,1,0,23157.1,0.422239,0.421986,-0.134646,34,1.04254,10,-5.68187e-05,-3.87081,-0.85974,-0.0686254,0.422045,
2,0,0,1,0,23157.9,0.418244,0.417903,-0.136458,34,1.04242,10,-5.70261e-05,-3.865,-0.566687,-0.104114,0.417963,
2,0,0,1,0,23158.7,0.414249,0.413972,-0.137135,34,1.0423,10,-5.67701e-05,-3.86285,-0.696338,-0.0847289,0.414033,
2,0,0,0,0,23159.5,0.410254,0.409936,-0.140449,34,1.04218,10,-5.75752e-05,-3.85248,-0.655532,-0.0900032,0.409998,
2,0,0,1,0,23160.3,0.406259,0.4059,-0.142122,34,1.04206,10,-5.76873e-05,-3.84734,-0.666062,-0.0885803,0.405963,
2,0,0,1,0,23161.1,0.402263,0.401958,-0.144956,34,1.04193,10,-5.82662e-05,-3.83876,-0.530443,-0.111228,0.402022,
2,0,0,1,0,23161.9,0.398268,0.397947,-0.14682,34,1.0418,10,-5.84266e-05,-3.83322,-0.640908,-0.0920569,0.398012,
2,0,0,1,0,23162.7,0.394274,0.393992,-0.148496,34,1.04167,10,-5.85065e-05,-3.82828,-0.680285,-0.0867284,0.394058,
2,0,0,0,0,23163.5,0.390278,0.389998,-0.150358,34,1.04154,10,-5.86391e-05,-3.82287,-0.653171,-0.0903286,0.390064,
2,0,0,1,0,23164.3,0.386283,0.385971,-0.152587,34,1.04141,10,-5.8894e-05,-3.81648,-0.717768,-0.0821993,0.386038,
2,0,0,1,0,23165.1,0.382287,0.38196,-0.155082,34,1.04127,10,-5.92353e-05,-3.80944,-0.853936,-0.0690918,0.382029,
2,0,0,1,0,23165.9,0.378292,0.377971,-0.157475,34,1.04114,10,-5.95209e-05,-3.80279,-0.932181,-0.0632924,0.378041,
2,0,0,1,0,23166.7,0.374297,0.374028,-0.158794,34,1.041,10,-5.93933e-05,-3.79917,-0.446842,-0.132038,0.374098,
2,0,0,1,0,23167.5,0.370303,0.369982,-0.161618,34,1.04086,10,-5.97957e-05,-3.79151,-0.782577,-0.075392,0.370053,
2,0,0,1,0,23168.3,0.366307,0.365981,-0.163538,34,1.04072,10,-5.98517e-05,-3.78638,-0.557545,-0.105821,0.366053,
2,0,0,0,0,23169.1,0.362312,0.362,-0.165699,34,1.04057,10,-5.99829e-05,-3.78068,-0.591303,-0.0997796,0.362073,
2,0,0,1,0,23169.9,0.358316,0.357997,-0.168755,34,1.04043,10,-6.04138e-05,-3.77274,-1.00739,-0.0585673,0.358072,
2,0,0,1,0,23170.7,0.354321,0.354017,-0.170788,34,1.04028,10,-6.04618e-05,-3.76754,-0.429264,-0.137444,0.354092,
2,0,0,1,0,23171.5,0.350327,0.350007,-0.172126,34,1.04013,10,-6.02452e-05,-3.76415,-1.87126,-0.0315295,0.350083,
2,0,0,1,0,23172.3,0.346331,0.346016,-0.175731,34,1.03998,10,-6.08058e-05,-3.75515,-1.79669,-0.0328381,0.346093,
2,0,0,0,0,23173.1,0.342336,0.342065,-0.17647,34,1.03983,10,-6.03643e-05,-3.75333,-0.329082,-0.179287,0.342143,
2,0,0,1,0,23173.9,0.338341,0.338044,-0.179794,34,1.03967,10,-6.07782e-05,-3.74523,-1.59257,-0.0370471,0.338123,
2,0,0,1,0,23174.7,0.334345,0.334018,-0.18152,34,1.03952,10,-6.06311e-05,-3.74107,-0.611117,-0.0965445,0.334098,
2,0,0,1,0,23175.5,0.33035,0.330072,-0.185001,34,1.03936,10,-6.10637e-05,-3.73283,-0.597414,-0.098759,0.330153,
2,0,0,1,0,23176.3,0.326355,0.326014,-0.187143,34,1.0392,10,-6.10112e-05,-3.72783,-1.06605,-0.0553446,0.326097,
2,0,0,0,0,23177.1,0.32236,0.322049,-0.189593,34,1.03903,10,-6.10581e-05,-3.72218,-0.688853,-0.0856496,0.322132,
2,0,0,1,0,23177.9,0.318365,0.318016,-0.191283,34,1.03887,10,-6.08311e-05,-3.71832,-0.411473,-0.143387,0.3181,
2,0,0,0,0,23178.7,0.31437,0.314045,-0.194042,34,1.0387,10,-6.09379e-05,-3.7121,-2.32956,-0.0253266,0.31413,
2,0,0,1,0,23179.5,0.310374,0.310045,-0.195721,34,1.03853,10,-6.06824e-05,-3.70836,-0.601613,-0.0980697,0.310131,
2,0,0,1,0,23180.3,0.306379,0.306087,-0.198928,34,1.03836,10,-6.08892e-05,-3.7013,-0.588316,-0.100286,0.306174,
2,0,0,1,0,23181.1,0.302385,0.302072,-0.201305,34,1.03819,10,-6.08087e-05,-3.69615,-1.09488,-0.0538874,0.302161,
2,0,0,1,0,23181.9,0.298389,0.298082,-0.204179,34,1.03801,10,-6.08619e-05,-3.68999,-0.664833,-0.0887441,0.298171,
2,0,0,0,0,23182.7,0.294394,0.294054,-0.207893,34,1.03783,10,-6.11319e-05,-3.68216,-0.539094,-0.109443,0.294146,
2,0,0,1,0,23183.5,0.290398,0.290078,-0.209828,34,1.03765,10,-6.08664e-05,-3.67814,-0.703549,-0.0838606,0.290171,
2,0,0,1,0,23184.3,0.286403,0.286066,-0.21195,34,1.03747,10,-6.06318e-05,-3.67377,-0.752262,-0.0784301,0.286159,
2,0,0,1,0,23185.1,0.282408,0.282108,-0.214608,34,1.03729,10,-6.05425e-05,-3.66835,-2.98753,-0.0197487,0.282202,
2,0,0,1,0,23185.9,0.278414,0.278084,-0.218031,34,1.0371,10,-6.06308e-05,-3.66148,-0.430668,-0.136996,0.27818,
2,0,0,0,0,23186.7,0.274418,0.274089,-0.220716,34,1.03691,10,-6.04957e-05,-3.65617,-0.891829,-0.0661562,0.274186,
2,0,0,1,0,23187.5,0.270423,0.270137,-0.223451,34,1.03672,10,-6.03624e-05,-3.65082,-0.623825,-0.0945777,0.270235,
2,0,0,1,0,23188.3,0.266427,0.266088,-0.226074,34,1.03653,10,-6.01556e-05,-3.64575,-1.68943,-0.034923,0.266187,
2,0,0,1,0,23189.1,0.262432,0.262107,-0.228328,34,1.03634,10,-5.98465e-05,-3.64144,-0.616309,-0.0957313,0.262208,
2,0,0,1,0,23189.9,0.258437,0.258165,-0.231606,34,1.03614,10,-5.97924e-05,-3.63525,-0.961815,-0.0613423,0.258267,
2,0,0,0,0,23190.7,0.254442,0.25419,-0.233793,34,1.03594,10,-5.94278e-05,-3.63117,-0.673786,-0.0875649,0.254293,
2,0,0,1,0,23191.5,0.250447,0.250163,-0.236717,34,1.03574,10,-5.92177e-05,-3.62577,-2.26187,-0.0260846,0.250267,
2,0,0,0,0,23192.3,0.246452,0.246129,-0.238589,34,1.03554,10,-5.87238e-05,-3.62235,-0.493665,-0.119514,0.246234,
2,0,0,1,0,23193.1,0.242456,0.242126,-0.241528,34,1.03533,10,-5.84801e-05,-3.61703,-2.05172,-0.0287564,0.242232,
2,0,0,1,0,23193.9,0.238461,0.23815,-0.244557,34,1.03512,10,-5.82411e-05,-3.61162,-0.731817,-0.0806213,0.238257,
2,0,0,1,0,23194.7,0.234467,0.234129,-0.246735,34,1.03492,10,-5.77678e-05,-3.60777,-0.624339,-0.0945,0.234237,
2,0,0,1,0,23195.5,0.230471,0.230154,-0.249224,34,1.0347,10,-5.73599e-05,-3.60341,-3.99099,-0.0147833,0.230264,
2,0,0,0,0,23196.3,0.226476,0.226153,-0.251518,34,1.03449,10,-5.68815e-05,-3.59943,-0.81988,-0.0719617,0.226264,
2,0,0,1,0,23197.1,0.222481,0.222174,-0.253936,34,1.03428,10,-5.64182e-05,-3.59528,-0.693074,-0.085128,0.222286,
2,0,0,1,0,23197.9,0.218485,0.218159,-0.25616,34,1.03406,10,-5.58834e-05,-3.59149,-1.41035,-0.0418337,0.218271,
2,0,0,1,0,23198.6,0.21449,0.21413,-0.260174,34,1.03384,10,-5.57112e-05,-3.58474,-0.683417,-0.0863308,0.214245,
2,0,0,1,0,23199.4,0.210496,0.210191,-0.261968,34,1.03362,10,-5.50633e-05,-3.58175,-0.821943,-0.0717811,0.210307,
2,0,0,0,0,23200.2,0.2065,0.206178,-0.266912,34,1.03339,10,-5.50314e-05,-3.57363,-0.48282,-0.122199,0.206296,
2,0,0,1,0,23201,0.202505,0.202168,-0.269354,34,1.03317,10,-5.44548e-05,-3.56968,-0.843132,-0.0699772,0.202286,
2,0,0,1,0,23201.8,0.198509,0.198234,-0.272082,34,1.03294,10,-5.39361e-05,-3.5653,-0.994673,-0.059316,0.198354,
2,0,0,1,0,23202.6,0.194514,0.1942,-0.27708,34,1.0327,10,-5.38089e-05,-3.55739,-0.508172,-0.116102,0.194322,
2,0,0,1,0,23203.4,0.190519,0.190185,-0.279694,34,1.03247,10,-5.31938e-05,-3.55332,-0.584285,-0.100978,0.190309,
2,0,0,0,0,23204.2,0.186524,0.186184,-0.285862,34,1.03223,10,-5.3223e-05,-3.54384,-0.785302,-0.0751304,0.18631,
2,0,0,1,0,23205,0.182529,0.182181,-0.290304,34,1.03198,10,-5.28879e-05,-3.53715,-0.362104,-0.162937,0.182309,
2,0,0,0,0,23205.8,0.178534,0.178226,-0.296156,34,1.03174,10,-5.27827e-05,-3.52848,-0.466153,-0.126568,0.178356,
2,0,0,1,0,23206.6,0.174538,0.174208,-0.304051,34,1.03148,10,-5.2968e-05,-3.51705,-0.382106,-0.154407,0.174342,
2,0,0,1,0,23207.4,0.170543,0.170203,-0.311847,34,1.03122,10,-5.30773e-05,-3.50606,-0.273672,-0.215586,0.17034,
2,0,0,1,0,23208.2,0.166549,0.166247,-0.321675,34,1.03095,10,-5.34775e-05,-3.49258,-0.334914,-0.176165,0.166388,
2,0,0,1,0,23209,0.162553,0.16225,-0.334019,34,1.03068,10,-5.41946e-05,-3.47623,-0.214254,-0.275374,0.162397,
2,0,0,0,0,23209.8,0.158558,0.158257,-0.350337,34,1.03039,10,-5.54434e-05,-3.45551,-0.161035,-0.36638,0.158412,
2,0,0,1,0,23210.6,0.154563,0.154228,-0.371053,34,1.03009,10,-5.72267e-05,-3.43056,-0.162797,-0.362416,0.154391,
2,0,0,1,0,23211.4,0.150567,0.150232,-0.396736,34,1.02977,10,-5.96024e-05,-3.4015,-0.114309,-0.516145,0.150406,
2,0,0,1,0,23212.2,0.146572,0.146238,-0.433719,34,1.02942,10,-6.34261e-05,-3.36279,-0.0979632,-0.602267,0.146429,
2,0,0,1,0,23213,0.142578,0.14226,-0.480804,34,1.02905,10,-6.83989e-05,-3.31803,-0.0843178,-0.699734,0.142471,
2,0,0,0,0,23213.8,0.138582,0.138236,-0.534926,34,1.02863,10,-7.39459e-05,-3.27171,-0.0855937,-0.689303,0.138471,
2,0,0,1,0,23214.6,0.134587,0.134267,-0.593828,34,1.02816,10,-7.97314e-05,-3.22634,-0.0939135,-0.628238,0.134528,
2,0,0,1,0,23215.4,0.130591,0.130294,-0.647933,34,1.02765,10,-8.44218e-05,-3.18847,-0.122837,-0.480313,0.130579,
2,0,0,1,0,23216.2,0.126596,0.126242,-0.685594,34,1.0271,10,-8.65504e-05,-3.16393,-0.189025,-0.312128,0.126543,
2,0,0,1,0,23217,0.122602,0.122284,-0.714096,34,1.02653,10,-8.73227e-05,-3.14624,-0.368802,-0.159977,0.122599,
2,0,0,1,0,23217.8,0.118607,0.118293,-0.727479,34,1.02593,10,-8.60557e-05,-3.13818,-0.644869,-0.0914914,0.118613,
2,0,0,1,0,23218.6,0.114611,0.114277,-0.731494,34,1.02534,10,-8.35929e-05,-3.13579,1.71273,0.0344479,0.114599,
2,0,0,0,0,23219.4,0.110616,0.110279,-0.726196,34,1.02474,10,-8.00844e-05,-3.13895,1.61645,0.0364997,0.110599,
2,0,0,1,0,23220.2,0.10662,0.106307,-0.718889,34,1.02415,10,-7.64226e-05,-3.14334,0.841236,0.0701349,0.106623,
2,0,0,1,0,23221,0.102625,0.102292,-0.709108,34,1.02356,10,-7.25363e-05,-3.14929,0.515568,0.114437,0.102604,
2,0,0,1,0,23221.8,0.0986305,0.0983245,-0.698478,34,1.02299,10,-6.86775e-05,-3.15585,0.700853,0.0841832,0.0986318,
2,0,0,1,0,23222.6,0.0946351,0.0942969,-0.684673,34,1.02242,10,-6.45625e-05,-3.16452,0.495969,0.118959,0.0945981,
2,0,0,0,0,23223.4,0.0906399,0.090314,-0.674994,34,1.02186,10,-6.09614e-05,-3.1707,0.5207,0.113309,0.090611,
2,0,0,1,0,23224.2,0.0866448,0.086276,-0.663911,34,1.02131,10,-5.72796e-05,-3.17789,0.587521,0.100422,0.0865681,
2,0,0,1,0,23225,0.0826492,0.0823404,-0.654397,34,1.02077,10,-5.38833e-05,-3.18416,0.547033,0.107854,0.0826283,
2,0,0,1,0,23225.8,0.0786544,0.0783545,-0.644338,34,1.02024,10,-5.04868e-05,-3.19089,0.784619,0.0751957,0.078638,
2,0,0,1,0,23226.6,0.0746596,0.0743266,-0.634134,34,1.01971,10,-4.71331e-05,-3.19782,0.585281,0.100806,0.0746057,
2,0,0,0,0,23227.4,0.0706641,0.0703179,-0.625572,34,1.01919,10,-4.39889e-05,-3.20372,0.728825,0.0809522,0.0705931,
2,0,0,1,0,23228.2,0.0666689,0.0663562,-0.617865,34,1.01868,10,-4.09992e-05,-3.20911,0.688366,0.0857102,0.0666281,
2,0,0,0,0,23229,0.0626737,0.0624211,-0.607585,34,1.01818,10,-3.79261e-05,-3.21639,0.621833,0.0948807,0.0626884,
2,0,0,1,0,23229.8,0.0586783,0.0583605,-0.601065,34,1.01768,10,-3.50785e-05,-3.22108,0.555339,0.106242,0.058625,
2,0,0,1,0,23230.6,0.0546835,0.0543777,-0.591698,34,1.01719,10,-3.21752e-05,-3.2279,0.709668,0.0831375,0.0546381,
2,0,0,1,0,23231.4,0.0506886,0.0504104,-0.581734,34,1.0167,10,-2.93255e-05,-3.23528,0.579609,0.101793,0.0506664,
2,0,0,1,0,23232.2,0.046693,0.046357,-0.570781,34,1.01623,10,-2.64597e-05,-3.24353,0.466801,0.126392,0.0466081,
2,0,0,0,0,23233,0.0426979,0.0423592,-0.560771,34,1.01576,10,-2.37538e-05,-3.25121,0.557205,0.105886,0.042606,
2,0,0,1,0,23233.8,0.0387022,0.0383747,-0.551026,34,1.0153,10,-2.11455e-05,-3.25883,0.43309,0.13623,0.0386172,
2,0,0,1,0,23234.6,0.0347074,0.0344029,-0.540611,34,1.01485,10,-1.85986e-05,-3.26712,0.487533,0.121017,0.0346408,
2,0,0,1,0,23235.4,0.0307126,0.0304321,-0.527425,34,1.01441,10,-1.60506e-05,-3.27784,0.465353,0.126786,0.0306641,
2,0,0,1,0,23236.2,0.0267172,0.026364,-0.52014,34,1.01398,10,-1.3713e-05,-3.28388,0.466605,0.126445,0.0265929,
2,0,0,0,0,23237,0.022722,0.0224458,-0.512389,34,1.01355,10,-1.1501e-05,-3.2904,0.801092,0.0736495,0.0226713,
2,0,0,1,0,23237.8,0.0187268,0.0184227,-0.505612,34,1.01313,10,-9.31473e-06,-3.29618,0.772292,0.076396,0.0186451,
2,0,0,1,0,23238.6,0.0147313,0.0143928,-0.500525,34,1.01272,10,-7.20396e-06,-3.30057,1.04506,0.056456,0.014613,
2,0,0,1,0,23239.4,0.0107365,0.0104251,-0.496207,34,1.0123,10,-5.17301e-06,-3.30434,1.26458,0.0466557,0.0106434,
2,0,0,1,0,23240.2,0.00674163,0.0064183,-0.494105,34,1.0119,10,-3.17132e-06,-3.30618,2.43913,0.0241889,0.00663571,
2,0,0,0,0,23241,0.00274612,0.00241053,-0.491436,34,1.01149,10,-1.18462e-06,-3.30853,-3.26483,-0.0180714,0.00262676,
2,0,0,1,0,23241.5,0.000274105,-6.64518e-05,-0.494529,34,1.01123,10,3.28623e-08,-3.30581, , ,0.000151141,