File: Figure_codes/Fig_3-5/workspace_calculate_alpha_eff/20221101_1-115_003_TrumpetPlot_ParaChange_from10_every3_16_CV_C01_67.csv
mode,ox/red,error,control changes,counter inc.,time/s,control/V,Ewe/V,<I>/mA,cycle number,(Q-Qo)/C,I Range,P/W,log(|I|),Tafel slope mV/dec,alpha_eff,E-IR/V,
2,0,0,0,0,44943,2.44065e-05,-0.000516197,-0.0860374,68,0.0000000E+000,10,4.44122e-08,-4.06531, , ,-0.00047834,
2,1,0,0,0,44943.7,0.00379485,0.00347093,0.152955,68,9.64732e-05,10,5.30895e-07,-3.81544,0.0329958,1.78811,0.00340363,
2,1,0,1,0,44944.5,0.00779002,0.00748139,0.175174,68,0.000240344,10,1.31055e-06,-3.75653,0.0779643,0.756757,0.00740431,
2,1,0,0,0,44945.3,0.0117852,0.0114781,0.191107,68,0.000399957,10,2.19354e-06,-3.71872,0.135033,0.436931,0.011394,
2,1,0,1,0,44946.1,0.0157806,0.0154527,0.206196,68,0.000571329,10,3.1863e-06,-3.68572,0.138152,0.427067,0.015362,
2,1,0,1,0,44946.9,0.0197754,0.01945,0.219803,68,0.000753296,10,4.27516e-06,-3.65797,0.144231,0.409066,0.0193533,
2,1,0,1,0,44947.7,0.0237704,0.0234644,0.232891,68,0.000946195,10,5.46465e-06,-3.63285,0.169027,0.349056,0.023362,
2,1,0,1,0,44948.5,0.0277659,0.0274308,0.246241,68,0.00114925,10,6.75458e-06,-3.60864,0.159355,0.370243,0.0273225,
2,1,0,0,0,44949.3,0.0317611,0.0314402,0.259007,68,0.00136348,10,8.14323e-06,-3.58669,0.169346,0.3484,0.0313262,
2,1,0,1,0,44950.1,0.0357567,0.0354681,0.274433,68,0.00158934,10,9.73363e-06,-3.56156,0.20689,0.285176,0.0353473,
2,1,0,1,0,44950.9,0.0397516,0.0394232,0.288719,68,0.00182629,10,1.13822e-05,-3.53952,0.170544,0.345952,0.0392962,
2,1,0,1,0,44951.7,0.0437465,0.043411,0.300768,68,0.00207487,10,1.30566e-05,-3.52177,0.198587,0.297099,0.0432787,
2,1,0,1,0,44952.5,0.0477413,0.0474221,0.316001,68,0.00233356,10,1.49854e-05,-3.50031,0.216401,0.272643,0.0472831,
2,1,0,0,0,44953.3,0.0517369,0.0513854,0.328414,68,0.00260291,10,1.68757e-05,-3.48358,0.254266,0.232041,0.0512409,
2,1,0,1,0,44954.1,0.0557321,0.0554298,0.34037,68,0.00288216,10,1.88667e-05,-3.46805,0.290161,0.203335,0.05528,
2,1,0,1,0,44954.9,0.0597277,0.0594045,0.351407,68,0.00317035,10,2.08752e-05,-3.45419,0.293481,0.201035,0.0592499,
2,1,0,1,0,44955.7,0.0637226,0.063436,0.360696,68,0.00346755,10,2.28811e-05,-3.44286,0.30687,0.192264,0.0632773,
2,1,0,1,0,44956.5,0.0677174,0.0674184,0.37131,68,0.00377315,10,2.50332e-05,-3.43026,0.473034,0.124727,0.0672551,
2,1,0,0,0,44957.3,0.0717128,0.0713709,0.380707,68,0.00408594,10,2.71714e-05,-3.41941,0.331687,0.177878,0.0712034,
2,1,0,1,0,44958.1,0.075708,0.0754068,0.387094,68,0.00440577,10,2.91895e-05,-3.41218,0.400798,0.147206,0.0752365,
2,1,0,0,0,44958.9,0.0797031,0.079378,0.398975,68,0.00473199,10,3.16699e-05,-3.39905,0.4662,0.126555,0.0792025,
2,1,0,1,0,44959.7,0.0836986,0.0833315,0.40601,68,0.00506516,10,3.38334e-05,-3.39146,0.412846,0.142911,0.0831528,
2,1,0,1,0,44960.5,0.0876935,0.0873511,0.41687,68,0.00540607,10,3.64141e-05,-3.38,0.348741,0.16918,0.0871677,
2,1,0,1,0,44961.3,0.0916883,0.0913358,0.429831,68,0.00575584,10,3.9259e-05,-3.3667,0.255148,0.231238,0.0911466,
2,1,0,1,0,44962.1,0.0956838,0.0953562,0.444556,68,0.00611789,10,4.23912e-05,-3.35207,0.227338,0.259526,0.0951606,
2,1,0,0,0,44962.9,0.099679,0.0993985,0.464669,68,0.00649449,10,4.61874e-05,-3.33286,0.22532,0.26185,0.099194,
2,1,0,1,0,44963.7,0.103674,0.103322,0.486845,68,0.00688735,10,5.03018e-05,-3.31261,0.177949,0.331556,0.103108,
2,1,0,1,0,44964.5,0.10767,0.107384,0.507853,68,0.00729859,10,5.45351e-05,-3.29426,0.226732,0.260219,0.10716,
2,1,0,1,0,44965.3,0.111664,0.111339,0.528366,68,0.00772591,10,5.88276e-05,-3.27706,0.286666,0.205815,0.111106,
2,1,0,1,0,44966.1,0.115659,0.115334,0.543134,68,0.00816732,10,6.26416e-05,-3.26509,0.304634,0.193675,0.115095,
2,1,0,0,0,44966.9,0.119655,0.119312,0.55662,68,0.00862077,10,6.64113e-05,-3.25444,0.545972,0.108064,0.119067,
2,1,0,1,0,44967.7,0.12365,0.123325,0.567833,68,0.00908253,10,7.00283e-05,-3.24578,0.541175,0.109022,0.123076,
2,1,0,1,0,44968.5,0.127646,0.12731,0.573736,68,0.00955185,10,7.30424e-05,-3.24129,0.856243,0.0689057,0.127058,
2,1,0,1,0,44969.3,0.131641,0.131323,0.577514,68,0.0100257,10,7.58411e-05,-3.23844,-0.833732,-0.0707661,0.131069,
2,1,0,1,0,44970.1,0.135635,0.135324,0.566794,68,0.010496,10,7.67008e-05,-3.24657,-0.288051,-0.204825,0.135074,
2,1,0,0,0,44970.9,0.139631,0.139337,0.535847,68,0.0109508,10,7.46631e-05,-3.27096,-0.130903,-0.450716,0.139101,
2,1,0,1,0,44971.7,0.143626,0.143288,0.488877,68,0.0113742,10,7.005e-05,-3.3108,-0.0821832,-0.717908,0.143073,
2,1,0,0,0,44972.5,0.147621,0.14733,0.431719,68,0.011754,10,6.36051e-05,-3.3648,-0.0701446,-0.841119,0.14714,
2,1,0,1,0,44973.3,0.151617,0.151343,0.379542,68,0.0120893,10,5.7441e-05,-3.42074,-0.0771646,-0.764599,0.151176,
2,1,0,1,0,44974.1,0.155612,0.155289,0.344638,68,0.0123885,10,5.35186e-05,-3.46264,-0.110617,-0.533371,0.155138,
2,1,0,1,0,44974.9,0.159606,0.159278,0.319361,68,0.012664,10,5.08672e-05,-3.49572,-0.1554,-0.379665,0.159138,
2,1,0,1,0,44975.7,0.163602,0.163305,0.303747,68,0.0129239,10,4.96034e-05,-3.51749,-0.187617,-0.31447,0.163171,
2,1,0,0,0,44976.5,0.167597,0.167273,0.292014,68,0.0131732,10,4.88461e-05,-3.5346,-0.382762,-0.154143,0.167144,
2,1,0,1,0,44977.3,0.171592,0.171325,0.283827,68,0.0134155,10,4.86266e-05,-3.54695,-0.350046,-0.168549,0.1712,
2,1,0,1,0,44978.1,0.175588,0.175253,0.279262,68,0.0136523,10,4.89414e-05,-3.55399,-0.667386,-0.0884046,0.17513,
2,1,0,1,0,44978.9,0.179582,0.179276,0.275538,68,0.0138852,10,4.93973e-05,-3.55982,-0.570396,-0.103437,0.179155,
2,1,0,1,0,44979.7,0.183577,0.183263,0.271575,68,0.0141152,10,4.97697e-05,-3.56611,-0.727787,-0.0810677,0.183144,
2,1,0,0,0,44980.5,0.187573,0.187253,0.26892,68,0.0143425,10,5.03561e-05,-3.57038,-1.59562,-0.0369761,0.187135,
2,1,0,1,0,44981.3,0.191568,0.191286,0.266757,68,0.0145681,10,5.10269e-05,-3.57388,-1.24484,-0.0473958,0.191169,
2,1,0,0,0,44982.1,0.195563,0.195249,0.26539,68,0.014792,10,5.1817e-05,-3.57612,-0.791848,-0.0745092,0.195132,
2,1,0,1,0,44982.9,0.199559,0.199229,0.262497,68,0.0150141,10,5.22972e-05,-3.58088,-9.12787,-0.00646372,0.199114,
2,1,0,1,0,44983.7,0.203553,0.203228,0.260633,68,0.0152347,10,5.29679e-05,-3.58397,-0.803931,-0.0733893,0.203113,
2,1,0,1,0,44984.5,0.207548,0.207235,0.259436,68,0.0154542,10,5.37643e-05,-3.58597,-3.34049,-0.0176621,0.207121,
2,1,0,1,0,44985.3,0.211544,0.211196,0.258512,68,0.0156726,10,5.45968e-05,-3.58752,-1.76235,-0.0334781,0.211082,
2,1,0,0,0,44986.1,0.215539,0.215249,0.256896,68,0.0158897,10,5.52965e-05,-3.59024,-1.67054,-0.0353179,0.215136,
2,1,0,1,0,44986.9,0.219535,0.219203,0.255781,68,0.0161056,10,5.60682e-05,-3.59213,-1.55489,-0.0379448,0.219091,
2,1,0,1,0,44987.7,0.223529,0.223218,0.253895,68,0.0163205,10,5.66738e-05,-3.59535,-1.49778,-0.0393916,0.223106,
2,1,0,1,0,44988.5,0.227524,0.227189,0.252537,68,0.0165342,10,5.73737e-05,-3.59767,-0.995226,-0.059283,0.227078,
2,1,0,1,0,44989.3,0.23152,0.231171,0.251893,68,0.0167469,10,5.82303e-05,-3.59878,4.47739,0.0131773,0.23106,
2,1,0,0,0,44990.1,0.235515,0.235214,0.249907,68,0.0169591,10,5.87816e-05,-3.60222,-3.60424,-0.0163696,0.235104,
2,1,0,1,0,44990.9,0.23951,0.239185,0.25012,68,0.0171702,10,5.98251e-05,-3.60185,-2.45375,-0.0240449,0.239075,
2,1,0,1,0,44991.7,0.243506,0.24315,0.24834,68,0.0173806,10,6.03839e-05,-3.60495,-3.97671,-0.0148364,0.24304,
2,1,0,1,0,44992.5,0.2475,0.247221,0.248808,68,0.0175906,10,6.15107e-05,-3.60414,-2.64301,-0.0223231,0.247112,
2,1,0,1,0,44993.3,0.251495,0.25119,0.24711,68,0.0177997,10,6.20716e-05,-3.60711,-2.47024,-0.0238843,0.251081,
2,1,0,0,0,44994.1,0.255491,0.255182,0.246335,68,0.0180081,10,6.28602e-05,-3.60847,-6.00182,-0.00983036,0.255073,
2,1,0,1,0,44994.9,0.259486,0.259171,0.24532,68,0.0182157,10,6.358e-05,-3.61027,-0.782924,-0.0753585,0.259063,
2,1,0,0,0,44995.7,0.263481,0.263159,0.245168,68,0.0184223,10,6.45183e-05,-3.61054,2.49424,0.0236545,0.263051,
2,1,0,1,0,44996.5,0.267477,0.267186,0.243568,68,0.0186289,10,6.50779e-05,-3.61338,-39.1965,-0.00150524,0.267079,
2,1,0,1,0,44997.3,0.271471,0.271168,0.243727,68,0.0188345,10,6.60911e-05,-3.6131,-1.42245,-0.0414778,0.271061,
2,1,0,1,0,44998.1,0.275466,0.275155,0.242506,68,0.0190394,10,6.67269e-05,-3.61528,-4.32957,-0.0136272,0.275048,
2,1,0,1,0,44998.9,0.279462,0.279111,0.242112,68,0.0192437,10,6.75762e-05,-3.61598,-1.24491,-0.047393,0.279004,
2,1,0,0,0,44999.7,0.283457,0.28312,0.240589,68,0.0194469,10,6.81155e-05,-3.61873,-4.45492,-0.0132438,0.283014,
2,1,0,1,0,45000.5,0.287452,0.287096,0.239857,68,0.0196496,10,6.88619e-05,-3.62005,-1.66912,-0.035348,0.28699,
2,1,0,1,0,45001.3,0.291448,0.291148,0.239144,68,0.0198514,10,6.96261e-05,-3.62134,-1.15758,-0.0509684,0.291042,
2,1,0,1,0,45002.1,0.295442,0.295128,0.237073,68,0.0200523,10,6.9967e-05,-3.62512,4.86568,0.0121258,0.295024,
2,1,0,1,0,45002.9,0.299437,0.299151,0.236839,68,0.0202527,10,7.08508e-05,-3.62555,-2.00159,-0.0294766,0.299047,
2,1,0,0,0,45003.7,0.303433,0.303161,0.236314,68,0.0204522,10,7.16413e-05,-3.62651,-2.66043,-0.0221769,0.303057,
2,1,0,1,0,45004.5,0.307428,0.307116,0.235363,68,0.0206507,10,7.22839e-05,-3.62826,6.54677,0.00901208,0.307013,
2,1,0,1,0,45005.3,0.311424,0.311126,0.234866,68,0.0208489,10,7.3073e-05,-3.62918,-1.182,-0.0499154,0.311023,
2,1,0,1,0,45006.1,0.315418,0.315101,0.233278,68,0.0210461,10,7.35063e-05,-3.63213,-1.78835,-0.0329913,0.314999,
2,1,0,1,0,45006.9,0.319413,0.319089,0.233694,68,0.021243,10,7.45691e-05,-3.63135,13.5517,0.00435369,0.318986,
2,1,0,0,0,45007.7,0.323409,0.323153,0.232657,68,0.0214395,10,7.51838e-05,-3.63328,-1.67855,-0.0351494,0.32305,
2,1,0,1,0,45008.5,0.327404,0.327092,0.232562,68,0.0216352,10,7.60691e-05,-3.63346,3.63191,0.0162449,0.32699,
2,1,0,0,0,45009.3,0.331399,0.331072,0.23191,68,0.0218308,10,7.6779e-05,-3.63468,-8.59943,-0.00686092,0.33097,
2,1,0,1,0,45010.1,0.335395,0.335093,0.231771,68,0.0220256,10,7.76648e-05,-3.63494,-1.25969,-0.0468368,0.334991,
2,1,0,1,0,45010.9,0.339389,0.339114,0.231866,68,0.0222199,10,7.86291e-05,-3.63476,-2.96684,-0.0198865,0.339012,
2,1,0,1,0,45011.7,0.343384,0.343048,0.230353,68,0.0224141,10,7.90221e-05,-3.63761,54.0465,0.00109165,0.342946,
2,1,0,1,0,45012.5,0.34738,0.347055,0.230648,68,0.0226075,10,8.00475e-05,-3.63705,-3.09221,-0.0190802,0.346954,
2,1,0,0,0,45013.3,0.351375,0.351041,0.228093,68,0.0228004,10,8.00701e-05,-3.64189,-4.15876,-0.0141869,0.350941,
2,1,0,1,0,45014.1,0.35537,0.355074,0.228421,68,0.0229928,10,8.11062e-05,-3.64126,-1.1064,-0.053326,0.354974,
2,1,0,1,0,45014.9,0.359366,0.359086,0.228357,68,0.0231848,10,8.19996e-05,-3.64139,1.57279,0.037513,0.358985,
2,1,0,1,0,45015.7,0.36336,0.363071,0.226702,68,0.0233765,10,8.23092e-05,-3.64454,-1.07425,-0.0549222,0.362972,
2,1,0,1,0,45016.5,0.367355,0.367017,0.227411,68,0.0235674,10,8.34637e-05,-3.64319,8.75935,0.00673566,0.366917,
2,1,0,0,0,45017.3,0.371351,0.371043,0.226852,68,0.0237579,10,8.41718e-05,-3.64426,-3.15035,-0.0187281,0.370943,
2,1,0,1,0,45018.1,0.375346,0.375084,0.226369,68,0.0239482,10,8.49074e-05,-3.64518,13.2352,0.00445781,0.374984,
2,1,0,1,0,45018.9,0.379342,0.379032,0.225729,68,0.024138,10,8.55584e-05,-3.64641,-1.48714,-0.0396734,0.378933,
2,1,0,1,0,45019.7,0.383336,0.383049,0.225379,68,0.0243275,10,8.63312e-05,-3.64709,2.59751,0.0227141,0.38295,
2,1,0,1,0,45020.4,0.387331,0.387021,0.225295,68,0.024517,10,8.7194e-05,-3.64725,-3.47801,-0.0169637,0.386922,
2,1,0,0,0,45021.2,0.391327,0.391022,0.22433,68,0.0247061,10,8.77179e-05,-3.64911,-6.44254,-0.00915787,0.390923,
2,1,0,1,0,45022,0.395322,0.395018,0.223638,68,0.0248948,10,8.83409e-05,-3.65045,-8.00966,-0.00736611,0.394919,
2,1,0,0,0,45022.8,0.399317,0.39901,0.224567,68,0.0250833,10,8.96045e-05,-3.64865,-6.17456,-0.00955533,0.398911,
2,1,0,1,0,45023.6,0.403313,0.402982,0.224791,68,0.0252717,10,9.05865e-05,-3.64822,-15.5199,-0.00380158,0.402883,
2,1,0,1,0,45024.4,0.407307,0.407049,0.224143,68,0.0254598,10,9.12374e-05,-3.64947,4.99641,0.0118085,0.40695,
2,1,0,1,0,45025.2,0.411302,0.410968,0.224848,68,0.0256477,10,9.24054e-05,-3.64811,3.82131,0.0154397,0.410869,
2,1,0,1,0,45026,0.415298,0.414984,0.224423,68,0.0258357,10,9.31318e-05,-3.64893,-3.53305,-0.0166994,0.414885,
2,1,0,0,0,45026.8,0.419293,0.419021,0.224143,68,0.0260237,10,9.39206e-05,-3.64947,-4.47645,-0.0131801,0.418922,
2,1,0,1,0,45027.6,0.423288,0.423009,0.223883,68,0.0262115,10,9.47043e-05,-3.64998,6.88568,0.00856851,0.422911,
2,1,0,1,0,45028.4,0.427283,0.427013,0.223664,68,0.0263991,10,9.55073e-05,-3.6504,-9.04606,-0.00652217,0.426915,
2,1,0,1,0,45029.2,0.431278,0.430973,0.223793,68,0.0265865,10,9.64486e-05,-3.65015,25.1794,0.00234319,0.430874,
2,1,0,1,0,45030,0.435273,0.434979,0.223872,68,0.0267737,10,9.73794e-05,-3.65,2.63943,0.0223533,0.43488,
2,1,0,0,0,45030.8,0.439269,0.438997,0.223648,68,0.0269612,10,9.81809e-05,-3.65043,-1.72213,-0.0342599,0.438898,
2,1,0,1,0,45031.6,0.443264,0.442998,0.223586,68,0.0271483,10,9.90483e-05,-3.65055,3.40442,0.0173304,0.442899,
2,1,0,0,0,45032.4,0.447259,0.446949,0.223545,68,0.0273352,10,9.99132e-05,-3.65064,-4.27984,-0.0137856,0.44685,
2,1,0,1,0,45033.2,0.451254,0.450964,0.223181,68,0.0275223,10,0.000100647,-3.65134,-3.68879,-0.0159944,0.450865,
2,1,0,1,0,45034,0.455249,0.454956,0.223578,68,0.0277091,10,0.000101718,-3.65057,7.69662,0.0076657,0.454858,
2,1,0,1,0,45034.8,0.459244,0.458946,0.222928,68,0.0278962,10,0.000102312,-3.65184,8.15064,0.0072387,0.458848,
2,1,0,1,0,45035.6,0.46324,0.462938,0.224412,68,0.0280833,10,0.000103889,-3.64895,1.59942,0.0368883,0.462839,
2,1,0,0,0,45036.4,0.467235,0.466945,0.224398,68,0.0282705,10,0.000104781,-3.64898,2.02392,0.0291513,0.466846,
2,1,0,1,0,45037.2,0.471231,0.470918,0.225147,68,0.0284581,10,0.000106026,-3.64753,-2.55489,-0.023093,0.470819,
2,1,0,1,0,45038,0.475225,0.474942,0.226332,68,0.0286457,10,0.000107494,-3.64525,3.84733,0.0153353,0.474842,
2,1,0,1,0,45038.8,0.47922,0.478948,0.22558,68,0.0288338,10,0.000108041,-3.6467,5.12947,0.0115022,0.478849,
2,1,0,1,0,45039.6,0.483216,0.48288,0.226558,68,0.0290223,10,0.0001094,-3.64482,499.617,0.00011809,0.48278,
2,1,0,0,0,45040.4,0.487211,0.486901,0.226759,68,0.0292109,10,0.000110409,-3.64443,1.35247,0.0436238,0.486801,
2,1,0,1,0,45041.2,0.491206,0.490898,0.227192,68,0.0294002,10,0.000111528,-3.64361,5.11089,0.011544,0.490798,
2,1,0,1,0,45042,0.495201,0.49491,0.228866,68,0.0295902,10,0.000113268,-3.64042,3.27274,0.0180277,0.49481,
2,1,0,1,0,45042.8,0.499196,0.498935,0.228982,68,0.0297804,10,0.000114247,-3.6402,1.59322,0.037032,0.498835,
2,1,0,1,0,45043.6,0.503191,0.5029,0.230135,68,0.0299714,10,0.000115735,-3.63802,7.49005,0.00787711,0.502798,
2,1,0,0,0,45044.4,0.507187,0.506888,0.229901,68,0.030163,10,0.000116534,-3.63846,2.45825,0.0240008,0.506787,
2,1,0,1,0,45045.2,0.511182,0.510891,0.231951,68,0.0303554,10,0.000118502,-3.6346,1.53962,0.0383211,0.510789,
2,1,0,0,0,45046,0.515177,0.514902,0.232792,68,0.0305488,10,0.000119865,-3.63303,3.12124,0.0189027,0.514799,
2,1,0,1,0,45046.8,0.519173,0.518886,0.233729,68,0.0307426,10,0.000121279,-3.63129,2.9855,0.0197622,0.518783,
2,1,0,1,0,45047.6,0.523167,0.522883,0.234783,68,0.0309373,10,0.000122764,-3.62933,2.76062,0.021372,0.52278,
2,1,0,1,0,45048.4,0.527162,0.526877,0.23663,68,0.0311331,10,0.000124675,-3.62593,0.958847,0.0615322,0.526773,
2,1,0,1,0,45049.2,0.531158,0.530852,0.237534,68,0.0313299,10,0.000126095,-3.62428,1.41352,0.0417398,0.530748,
2,1,0,0,0,45050,0.535153,0.534862,0.239531,68,0.031528,10,0.000128116,-3.62064,1.15455,0.0511023,0.534756,
2,1,0,1,0,45050.8,0.539148,0.538852,0.241002,68,0.0317272,10,0.000129864,-3.61798,1.50708,0.0391487,0.538746,
2,1,0,1,0,45051.6,0.543143,0.542854,0.24305,68,0.0319278,10,0.000131941,-3.6143,1.20892,0.0488038,0.542747,
2,1,0,1,0,45052.4,0.547138,0.546836,0.244757,68,0.03213,10,0.000133842,-3.61127,1.1828,0.0498818,0.546728,
2,1,0,1,0,45053.2,0.551133,0.550841,0.247729,68,0.0323337,10,0.000136459,-3.60602,0.798323,0.0739049,0.550732,
2,1,0,0,0,45054,0.555129,0.554861,0.249016,68,0.0325396,10,0.000138169,-3.60377,0.894849,0.0659329,0.554752,
2,1,0,1,0,45054.8,0.559124,0.558843,0.252162,68,0.0327472,10,0.000140919,-3.59832,0.890853,0.0662286,0.558732,
2,1,0,1,0,45055.6,0.56312,0.562842,0.255107,68,0.032957,10,0.000143585,-3.59328,0.631794,0.0933849,0.56273,
2,1,0,1,0,45056.4,0.567114,0.566863,0.258277,68,0.0331694,10,0.000146408,-3.58791,1.14215,0.0516568,0.566749,
2,1,0,1,0,45057.2,0.571109,0.570811,0.262151,68,0.0333842,10,0.000149639,-3.58145,0.699725,0.0843188,0.570696,
2,1,0,0,0,45058,0.575105,0.574841,0.265282,68,0.0336019,10,0.000152495,-3.57629,0.518816,0.11372,0.574724,
2,1,0,1,0,45058.8,0.5791,0.578809,0.269228,68,0.0338228,10,0.000155831,-3.56988,0.744469,0.0792511,0.578691,
2,1,0,0,0,45059.6,0.583095,0.582815,0.274216,68,0.0340469,10,0.000159817,-3.56191,0.389012,0.151666,0.582695,
2,1,0,1,0,45060.4,0.58709,0.586803,0.278755,68,0.0342749,10,0.000163574,-3.55478,0.555394,0.106231,0.58668,
2,1,0,1,0,45061.2,0.591085,0.590778,0.284989,68,0.0345071,10,0.000168365,-3.54517,0.451212,0.130759,0.590653,
2,1,0,1,0,45062,0.59508,0.594793,0.290979,68,0.0347441,10,0.000173072,-3.53614,0.404683,0.145793,0.594665,
2,1,0,1,0,45062.8,0.599076,0.598779,0.298098,68,0.0349864,10,0.000178495,-3.52564,0.376098,0.156874,0.598648,
2,1,0,0,0,45063.6,0.603071,0.602845,0.306452,68,0.0352347,10,0.000184743,-3.51364,0.299565,0.196952,0.602711,
2,1,0,1,0,45064.4,0.607066,0.606755,0.315168,68,0.03549,10,0.00019123,-3.50146,0.293702,0.200884,0.606617,
2,1,0,1,0,45065.2,0.611061,0.610797,0.325984,68,0.035753,10,0.00019911,-3.4868,0.293077,0.201312,0.610653,
2,1,0,1,0,45066,0.615056,0.614784,0.337417,68,0.0360247,10,0.000207439,-3.47183,0.224737,0.262529,0.614635,
2,1,0,1,0,45066.8,0.619051,0.618769,0.351115,68,0.0363072,10,0.000217259,-3.45455,0.228088,0.258673,0.618615,
2,1,0,0,0,45067.6,0.623047,0.622734,0.367308,68,0.0366011,10,0.000228735,-3.43497,0.19484,0.302812,0.622573,
2,1,0,1,0,45068.4,0.627042,0.626749,0.386179,68,0.036909,10,0.000242038,-3.41321,0.176474,0.334326,0.626579,
2,1,0,1,0,45069.2,0.631037,0.630763,0.407405,68,0.0372333,10,0.000256976,-3.38997,0.156843,0.376173,0.630584,
2,1,0,1,0,45070,0.635032,0.634728,0.433582,68,0.0375761,10,0.000275207,-3.36293,0.146437,0.402903,0.634537,
2,1,0,1,0,45070.8,0.639027,0.638786,0.461733,68,0.0379404,10,0.000294948,-3.33561,0.138744,0.425243,0.638582,
2,1,0,1,0,45071.6,0.643022,0.642734,0.496935,68,0.03833,10,0.000319397,-3.3037,0.119753,0.492682,0.642516,
2,1,0,1,0,45072.4,0.647018,0.646714,0.536561,68,0.0387496,10,0.000347001,-3.27038,0.116691,0.505611,0.646477,
2,1,0,0,0,45073.2,0.651013,0.650766,0.581272,68,0.0392028,10,0.000378272,-3.23562,0.108292,0.544825,0.650511,
2,1,0,1,0,45074,0.655008,0.654755,0.637184,68,0.0396959,10,0.000417199,-3.19574,0.0964196,0.611909,0.654475,
2,1,0,1,0,45074.8,0.659003,0.658722,0.699063,68,0.0402362,10,0.000460488,-3.15548,0.0959962,0.614607,0.658414,
2,1,0,1,0,45075.6,0.662998,0.662738,0.773141,68,0.0408305,10,0.00051239,-3.11174,0.0893241,0.660516,0.662398,
2,1,0,1,0,45076.4,0.666994,0.666686,0.857087,68,0.0414879,10,0.000571408,-3.06697,0.087406,0.675011,0.666309,
2,1,0,0,0,45077.2,0.670989,0.670719,0.953396,68,0.0422177,10,0.000639461,-3.02073,0.0836655,0.705189,0.670299,
2,1,0,1,0,45078,0.674984,0.674706,1.06393,68,0.0430301,10,0.00071784,-2.97309,0.0819912,0.719589,0.674238,
2,1,0,1,0,45078.8,0.67898,0.678702,1.18914,68,0.0439362,10,0.000807072,-2.92477,0.0795286,0.741872,0.678179,
2,1,0,1,0,45079.6,0.682974,0.682695,1.33135,68,0.0449496,10,0.000908904,-2.87571,0.0817309,0.721881,0.682109,
2,1,0,1,0,45080.4,0.686969,0.686716,1.49113,68,0.046083,10,0.00102399,-2.82648,0.0801643,0.735988,0.68606,
2,1,0,0,0,45081.2,0.690965,0.690704,1.66758,68,0.0473507,10,0.00115181,-2.77791,0.0797148,0.740139,0.689971,
2,1,0,1,0,45082,0.69496,0.69473,1.86471,68,0.0487675,10,0.00129547,-2.72939,0.0826647,0.713727,0.693909,
2,1,0,0,0,45082.8,0.698955,0.698684,2.07855,68,0.0503487,10,0.00145225,-2.68224,0.0822879,0.716995,0.697769,
2,1,0,1,0,45083.6,0.70295,0.702668,2.32502,68,0.0521124,10,0.00163372,-2.63357,0.081145,0.727094,0.701645,
2,1,0,1,0,45084.4,0.706945,0.706641,2.57872,68,0.0540771,10,0.00182223,-2.5886,0.0872298,0.676374,0.705507,
2,1,0,1,0,45085.2,0.71094,0.710651,2.85542,68,0.056254,10,0.00202921,-2.54433,0.0878815,0.671359,0.709395,
2,1,0,1,0,45086,0.714936,0.714661,3.15168,68,0.05866,10,0.00225238,-2.50146,0.0921313,0.64039,0.713274,
2,1,0,0,0,45086.8,0.718931,0.718657,3.4711,68,0.0613116,10,0.00249453,-2.45953,0.0924859,0.637935,0.717129,
2,1,0,1,0,45087.6,0.722927,0.722665,3.80862,68,0.064226,10,0.00275236,-2.41923,0.0964114,0.611961,0.72099,
2,1,0,1,0,45088.4,0.726921,0.72667,4.1686,68,0.067419,10,0.0030292,-2.38001,0.100983,0.584257,0.724836,
2,1,0,1,0,45089.2,0.730916,0.730637,4.54784,68,0.0709072,10,0.00332282,-2.34219,0.100663,0.586112,0.728636,
2,1,0,1,0,45090,0.734911,0.734688,4.95254,68,0.0747092,10,0.00363857,-2.30517,0.105763,0.557852,0.732509,
2,1,0,0,0,45090.8,0.738907,0.738675,5.37883,68,0.0788434,10,0.00397321,-2.26931,0.108008,0.546255,0.736308,
2,1,0,1,0,45091.6,0.742902,0.742652,5.82703,68,0.083326,10,0.00432746,-2.23455,0.109341,0.539595,0.740088,
2,1,0,1,0,45092.4,0.746897,0.746611,6.30098,68,0.0881779,10,0.00470438,-2.20059,0.114132,0.516945,0.743838,
2,1,0,1,0,45093.2,0.750892,0.750644,6.7995,68,0.0934168,10,0.00510401,-2.16752,0.115354,0.511471,0.747652,
2,1,0,1,0,45094,0.754887,0.754597,7.32348,68,0.0990646,10,0.00552627,-2.13528,0.116383,0.506946,0.751374,
2,1,0,0,0,45094.8,0.758883,0.758565,7.8779,68,0.105145,10,0.0059759,-2.10359,0.119537,0.493572,0.755099,
2,1,0,1,0,45095.6,0.762878,0.762573,8.45906,68,0.111677,10,0.00645065,-2.07268,0.123179,0.478978,0.758851,
2,1,0,0,0,45096.4,0.766873,0.766619,9.0757,68,0.118688,10,0.0069576,-2.04212,0.121938,0.483854,0.762626,
2,1,0,1,0,45097.2,0.770868,0.770609,9.73161,68,0.126208,10,0.00749926,-2.01182,0.122214,0.48276,0.766327,
2,1,0,1,0,45098,0.774863,0.774558,10.4217,68,0.134265,10,0.0080722,-1.98206,0.123617,0.477282,0.769973,
2,1,0,1,0,45098.8,0.778858,0.778557,11.155,68,0.142891,10,0.00868482,-1.95253,0.125756,0.469162,0.773649,
2,1,0,1,0,45099.6,0.782854,0.782564,11.9456,68,0.152124,10,0.00934822,-1.92279,0.121132,0.487073,0.777308,
2,1,0,0,0,45100.4,0.786849,0.786583,12.7834,68,0.162009,10,0.0100552,-1.89335,0.124125,0.475327,0.780958,
2,1,0,1,0,45101.2,0.790844,0.790546,13.6231,68,0.172564,10,0.0107697,-1.86572,0.129208,0.456627,0.784552,
2,1,0,1,0,45102,0.794839,0.794588,14.5754,68,0.183835,10,0.0115815,-1.83638,0.121361,0.486154,0.788175,
2,1,0,1,0,45102.7,0.798834,0.79855,15.5881,68,0.19589,10,0.0124479,-1.80721,0.122331,0.482297,0.791691,
2,1,0,1,0,45103.5,0.802829,0.802545,16.6612,68,0.208778,10,0.0133714,-1.77829,0.121384,0.486061,0.795214,
2,1,0,0,0,45104.3,0.806825,0.806516,17.7992,68,0.222555,10,0.0143553,-1.7496,0.12251,0.481595,0.798684,
2,1,0,1,0,45105.1,0.81082,0.81051,18.9859,68,0.237259,10,0.0153883,-1.72157,0.123781,0.476648,0.802156,
2,1,0,1,0,45105.9,0.814815,0.814523,20.2415,68,0.25294,10,0.0164872,-1.69376,0.126033,0.468133,0.805617,
2,1,0,1,0,45106.7,0.81881,0.818475,21.5381,68,0.269639,10,0.0176284,-1.66679,0.127528,0.462645,0.808998,
2,1,0,1,0,45107.5,0.822805,0.82257,22.8877,68,0.287398,10,0.0188268,-1.6404,0.131283,0.449412,0.812499,
2,1,0,0,0,45108.3,0.826801,0.826559,24.279,68,0.30625,10,0.020068,-1.61477,0.135178,0.436462,0.815877,
2,1,0,1,0,45109.1,0.830796,0.830555,25.673,68,0.326215,10,0.0213229,-1.59052,0.141449,0.417111,0.819259,
2,1,0,0,0,45109.9,0.834791,0.834557,27.1181,68,0.347312,10,0.0226316,-1.56674,0.146576,0.40252,0.822625,
2,1,0,1,0,45110.7,0.838786,0.838539,28.5594,68,0.369568,10,0.0239482,-1.54425,0.152388,0.387171,0.825973,
2,1,0,1,0,45111.5,0.842781,0.842508,30.0255,68,0.392976,10,0.0252968,-1.52251,0.153487,0.384397,0.829297,
2,1,0,1,0,45112.3,0.846776,0.846484,31.5187,68,0.417576,10,0.0266801,-1.50143,0.162383,0.363339,0.832616,
2,1,0,0,0,45113,0.849723,0.849476,32.4739,68,0.440077,10,0.0275858,-1.48847,0.0387596,1.5222,0.835187,
2,1,0,1,0,45113.8,0.845728,0.845477,30.1819,68,0.465023,10,0.0255181,-1.52025,0.106948,0.551669,0.832197,
2,1,0,0,0,45114.6,0.841732,0.841482,28.3254,68,0.488355,10,0.0238353,-1.54782,0.12182,0.48432,0.829018,
2,1,0,1,0,45115.4,0.837737,0.837465,26.5958,68,0.510282,10,0.0222731,-1.57519,0.119912,0.492029,0.825763,
2,1,0,1,0,45116.2,0.833742,0.833492,24.9978,68,0.530873,10,0.0208355,-1.6021,0.125063,0.471761,0.822493,
2,1,0,1,0,45117,0.829747,0.829461,23.4918,68,0.55023,10,0.0194855,-1.62908,0.123809,0.47654,0.819125,
2,1,0,1,0,45117.8,0.825752,0.825452,22.0418,68,0.568411,10,0.0181944,-1.65675,0.120728,0.488701,0.815754,
2,1,0,0,0,45118.6,0.821757,0.821467,20.661,68,0.585459,10,0.0169723,-1.68485,0.117628,0.501582,0.812377,
2,1,0,1,0,45119.4,0.817761,0.817496,19.336,68,0.601421,10,0.0158071,-1.71363,0.11954,0.49356,0.808988,
2,1,0,1,0,45120.2,0.813766,0.813482,18.0814,68,0.616355,10,0.0147089,-1.74277,0.116345,0.507112,0.805527,
2,1,0,1,0,45121,0.809771,0.809527,16.8975,68,0.630313,10,0.013679,-1.77218,0.118171,0.499278,0.802092,
2,1,0,1,0,45121.8,0.805776,0.805529,15.7753,68,0.643353,10,0.0127075,-1.80202,0.117532,0.501989,0.798588,
2,1,0,0,0,45122.6,0.801781,0.801549,14.7187,68,0.655524,10,0.0117977,-1.83213,0.116964,0.504429,0.795072,
2,1,0,1,0,45123.4,0.797786,0.797565,13.7144,68,0.66687,10,0.0109381,-1.86282,0.114949,0.513273,0.79153,
2,1,0,1,0,45124.2,0.79379,0.793514,12.762,68,0.677437,10,0.0101268,-1.89408,0.113943,0.517802,0.787898,
2,1,0,1,0,45125,0.789795,0.789494,11.8569,68,0.687259,10,0.00936098,-1.92603,0.1108,0.53249,0.784277,
2,1,0,1,0,45125.8,0.7858,0.785559,11.012,68,0.696383,10,0.00865055,-1.95814,0.114624,0.514727,0.780714,
2,1,0,0,0,45126.6,0.781805,0.781532,10.2247,68,0.704857,10,0.00799096,-1.99035,0.111566,0.528833,0.777034,
2,1,0,1,0,45127.4,0.77781,0.777564,9.47966,68,0.712717,10,0.00737104,-2.02321,0.111774,0.527852,0.773393,
2,1,0,0,0,45128.2,0.773814,0.773529,8.77671,68,0.719999,10,0.00678904,-2.05667,0.109997,0.53638,0.769667,
2,1,0,1,0,45129,0.769819,0.769553,8.12442,68,0.726739,10,0.00625217,-2.09021,0.110573,0.533585,0.765978,
2,1,0,1,0,45129.8,0.765824,0.765561,7.51122,68,0.732976,10,0.00575029,-2.12429,0.108785,0.542354,0.762256,
2,1,0,1,0,45130.6,0.761829,0.761519,6.92656,68,0.738735,10,0.00527471,-2.15948,0.105924,0.557004,0.758471,
2,1,0,1,0,45131.4,0.757834,0.757536,6.3863,68,0.744045,10,0.00483785,-2.19475,0.10629,0.555084,0.754726,
2,1,0,0,0,45132.2,0.753839,0.753544,5.8771,68,0.748934,10,0.00442866,-2.23084,0.101388,0.581924,0.750958,
2,1,0,1,0,45133,0.749844,0.749574,5.39909,68,0.753429,10,0.00404702,-2.26768,0.0973997,0.605752,0.747198,
2,1,0,1,0,45133.8,0.745848,0.745617,4.93177,68,0.757542,10,0.00367721,-2.307,0.099178,0.59489,0.743447,
2,1,0,1,0,45134.6,0.741853,0.74156,4.50871,68,0.761303,10,0.00334347,-2.34595,0.0986545,0.598047,0.739576,
2,1,0,1,0,45135.4,0.737858,0.737581,4.11568,68,0.76474,10,0.00303565,-2.38556,0.0946045,0.623649,0.73577,
2,1,0,0,0,45136.2,0.733863,0.733558,3.74685,68,0.767873,10,0.00274853,-2.42633,0.0923661,0.638762,0.731909,
2,1,0,1,0,45137,0.729868,0.729603,3.40111,68,0.77072,10,0.00248146,-2.46838,0.09229,0.639289,0.728107,
2,1,0,1,0,45137.8,0.725872,0.725582,3.07912,68,0.773301,10,0.00223415,-2.51157,0.0861768,0.684639,0.724227,
2,1,0,1,0,45138.6,0.721877,0.721659,2.77889,68,0.775632,10,0.00200541,-2.55613,0.087938,0.670927,0.720436,
2,1,0,1,0,45139.4,0.717882,0.717635,2.50463,68,0.777735,10,0.00179741,-2.60126,0.0826664,0.713712,0.716533,
2,1,0,0,0,45140.2,0.713887,0.713614,2.24391,68,0.779624,10,0.00160129,-2.64899,0.0795774,0.741416,0.712627,
2,1,0,1,0,45141,0.709892,0.709599,1.99815,68,0.78131,10,0.00141788,-2.69937,0.075077,0.78586,0.70872,
2,1,0,0,0,45141.8,0.705897,0.705598,1.77064,68,0.782807,10,0.00124936,-2.75187,0.0722044,0.817125,0.704819,
2,1,0,1,0,45142.6,0.701901,0.701679,1.55907,68,0.784128,10,0.00109397,-2.80713,0.0689602,0.855566,0.700993,
2,1,0,1,0,45143.4,0.697906,0.697628,1.36652,68,0.785288,10,0.000953322,-2.86438,0.0689317,0.85592,0.697026,
2,1,0,1,0,45144.2,0.693911,0.693635,1.19431,68,0.786303,10,0.000828413,-2.92288,0.0642919,0.917689,0.693109,
2,1,0,1,0,45145,0.689916,0.6896,1.03445,68,0.787186,10,0.000713354,-2.98529,0.061745,0.955543,0.689144,
2,1,0,0,0,45145.8,0.685921,0.68561,0.8897,68,0.787946,10,0.000609988,-3.05076,0.0583273,1.01153,0.685219,
2,1,0,1,0,45146.6,0.681926,0.68164,0.757308,68,0.788596,10,0.000516211,-3.12073,0.0550557,1.07164,0.681307,
2,1,0,1,0,45147.4,0.67793,0.67768,0.640762,68,0.789146,10,0.000434232,-3.1933,0.0519375,1.13598,0.677398,
2,1,0,1,0,45148.2,0.673935,0.673655,0.536749,68,0.789608,10,0.000361584,-3.27023,0.0496396,1.18857,0.673419,
2,1,0,1,0,45149,0.66994,0.669702,0.444587,68,0.789991,10,0.000297741,-3.35204,0.0467976,1.26075,0.669507,
2,1,0,0,0,45149.8,0.665945,0.665654,0.362356,68,0.790306,10,0.000241204,-3.44086,0.0446106,1.32256,0.665495,
2,1,0,1,0,45150.6,0.66195,0.661642,0.291889,68,0.790559,10,0.000193126,-3.53478,0.0404038,1.46026,0.661513,
2,1,0,0,0,45151.4,0.657955,0.657658,0.231146,68,0.79076,10,0.000152015,-3.63611,0.0370993,1.59033,0.657556,
2,1,0,1,0,45152.2,0.653959,0.653693,0.17781,68,0.790917,10,0.000116233,-3.75004,0.0335784,1.75708,0.653615,
2,1,0,1,0,45153,0.649964,0.649716,0.133094,68,0.791034,10,8.64732e-05,-3.87584,0.0291265,2.02564,0.649657,
2,1,0,1,0,45153.8,0.64597,0.645708,0.0945754,68,0.791117,10,6.10681e-05,-4.02422,0.0246751,2.39107,0.645666,
2,1,0,1,0,45154.6,0.641974,0.641671,0.0622935,68,0.791173,10,3.9972e-05,-4.20556,0.0188705,3.12657,0.641644,
2,1,0,0,0,45155.4,0.637979,0.637648,0.0359733,68,0.791204,10,2.29383e-05,-4.44402,0.0117671,5.01399,0.637632,
2,1,0,1,0,45156.2,0.633983,0.633715,0.0111317,68,0.791215,10,7.05432e-06,-4.95344,0.00362181,16.2902,0.63371,
2,0,0,1,0,45157,0.629988,0.629733,-0.00830215,68,0.791209,10,-5.22814e-06,-5.08081,-0.0040195,-14.6784,0.629737,
2,0,0,1,0,45157.8,0.625993,0.625676,-0.0242864,68,0.791188,10,-1.51954e-05,-4.61464,-0.0148664,-3.96868,0.625687,
2,0,0,1,0,45158.6,0.621998,0.621732,-0.0376739,68,0.791156,10,-2.34231e-05,-4.42396,-0.0265584,-2.22152,0.621749,
2,0,0,0,0,45159.4,0.618003,0.617709,-0.0487397,68,0.791114,10,-3.0107e-05,-4.31212,-0.0414053,-1.42494,0.617731,
2,0,0,1,0,45160.2,0.614008,0.613692,-0.0588897,68,0.791064,10,-3.61402e-05,-4.22996,-0.0686568,-0.859347,0.613718,
2,0,0,1,0,45161,0.610012,0.609716,-0.066748,68,0.791006,10,-4.06973e-05,-4.17556,-0.0783831,-0.752713,0.609745,
2,0,0,1,0,45161.8,0.606017,0.605711,-0.0730591,68,0.790942,10,-4.42527e-05,-4.13633,-0.108865,-0.541958,0.605743,
2,0,0,1,0,45162.6,0.602022,0.601711,-0.0791984,68,0.790874,10,-4.76546e-05,-4.10128,-0.149708,-0.3941,0.601746,
2,0,0,0,0,45163.4,0.598027,0.5977,-0.0846446,68,0.790801,10,-5.05921e-05,-4.0724,-0.195152,-0.302328,0.597738,
2,0,0,1,0,45164.2,0.594032,0.593728,-0.0884284,68,0.790724,10,-5.25024e-05,-4.05341,-0.145328,-0.405977,0.593767,
2,0,0,0,0,45165,0.590037,0.589741,-0.092433,68,0.790645,10,-5.45115e-05,-4.03417,-0.257192,-0.229401,0.589782,
2,0,0,1,0,45165.8,0.586041,0.585735,-0.0954672,68,0.790562,10,-5.59184e-05,-4.02015,-0.382829,-0.154116,0.585777,
2,0,0,1,0,45166.6,0.582046,0.581714,-0.0975403,68,0.790477,10,-5.67406e-05,-4.01082,-0.328416,-0.17965,0.581757,
2,0,0,1,0,45167.4,0.578052,0.577762,-0.100467,68,0.79039,10,-5.80461e-05,-3.99798,-0.345416,-0.170809,0.577806,
2,0,0,1,0,45168.2,0.574056,0.573786,-0.102143,68,0.790301,10,-5.86081e-05,-3.99079,-0.63555,-0.0928329,0.573831,
2,0,0,0,0,45169,0.570061,0.569761,-0.103968,68,0.790211,10,-5.92372e-05,-3.9831,-0.749904,-0.0786767,0.569807,
2,0,0,1,0,45169.8,0.566065,0.565802,-0.106837,68,0.790119,10,-6.04485e-05,-3.97128,-0.316981,-0.186131,0.565849,
2,0,0,1,0,45170.6,0.56207,0.561775,-0.108508,68,0.790025,10,-6.0957e-05,-3.96454,-0.719445,-0.0820077,0.561823,
2,0,0,1,0,45171.4,0.558075,0.557789,-0.109269,68,0.789931,10,-6.09492e-05,-3.9615,-3.65319,-0.0161503,0.557837,
2,0,0,1,0,45172.2,0.55408,0.553757,-0.110559,68,0.789836,10,-6.12227e-05,-3.95641,-0.503474,-0.117186,0.553805,
2,0,0,0,0,45173,0.550085,0.549815,-0.111738,68,0.789739,10,-6.14351e-05,-3.9518,-2.46945,-0.023892,0.549864,
2,0,0,1,0,45173.8,0.54609,0.545764,-0.112474,68,0.789642,10,-6.13842e-05,-3.94895,-0.501376,-0.117676,0.545813,
2,0,0,1,0,45174.6,0.542094,0.54178,-0.113444,68,0.789543,10,-6.14616e-05,-3.94522,-1.74556,-0.0338001,0.54183,
2,0,0,1,0,45175.4,0.538099,0.537752,-0.115265,68,0.789444,10,-6.19842e-05,-3.9383,-1.30221,-0.0453077,0.537803,
2,0,0,1,0,45176.2,0.534104,0.533784,-0.115722,68,0.789344,10,-6.17707e-05,-3.93658,-0.575975,-0.102435,0.533835,
2,0,0,0,0,45177,0.530109,0.5298,-0.116817,68,0.789243,10,-6.18898e-05,-3.93249,-2.67518,-0.0220546,0.529852,
2,0,0,1,0,45177.8,0.526114,0.525803,-0.118284,68,0.789142,10,-6.21938e-05,-3.92708,-1.40915,-0.0418692,0.525855,
2,0,0,0,0,45178.6,0.522119,0.521798,-0.118633,68,0.789039,10,-6.19022e-05,-3.9258,-0.869159,-0.0678817,0.52185,
2,0,0,1,0,45179.4,0.518123,0.517779,-0.120211,68,0.788936,10,-6.22429e-05,-3.92006,-0.617363,-0.0955677,0.517832,
2,0,0,1,0,45180.2,0.514128,0.513837,-0.12059,68,0.788831,10,-6.19635e-05,-3.91869,-5.31011,-0.0111109,0.51389,
2,0,0,1,0,45181,0.510133,0.509834,-0.122587,68,0.788726,10,-6.24993e-05,-3.91155,-2.2552,-0.0261617,0.509888,
2,0,0,1,0,45181.8,0.506138,0.505842,-0.123021,68,0.78862,10,-6.22294e-05,-3.91002,-1.2919,-0.0456691,0.505896,
2,0,0,0,0,45182.6,0.502143,0.50185,-0.123946,68,0.788513,10,-6.22024e-05,-3.90677,-0.506872,-0.1164,0.501905,
2,0,0,1,0,45183.4,0.498148,0.497854,-0.125206,68,0.788405,10,-6.23341e-05,-3.90238,6.81011,0.00866359,0.497909,
2,0,0,1,0,45184.2,0.494152,0.493861,-0.125827,68,0.788297,10,-6.21413e-05,-3.90022,-0.935192,-0.0630886,0.493916,
2,0,0,1,0,45185,0.490157,0.489847,-0.127206,68,0.788188,10,-6.23116e-05,-3.89549,-0.4924,-0.119821,0.489903,
2,0,0,1,0,45185.7,0.486162,0.485856,-0.128459,68,0.788077,10,-6.24125e-05,-3.89124,-2.77554,-0.0212571,0.485912,
2,0,0,0,0,45186.5,0.482167,0.481853,-0.128912,68,0.787966,10,-6.21167e-05,-3.88971,-2.81647,-0.0209482,0.48191,
2,0,0,1,0,45187.3,0.478172,0.477893,-0.130059,68,0.787854,10,-6.21542e-05,-3.88586,-0.581511,-0.10146,0.47795,
2,0,0,0,0,45188.1,0.474177,0.473839,-0.131596,68,0.787741,10,-6.23551e-05,-3.88076,-1.13967,-0.0517693,0.473897,
2,0,0,1,0,45188.9,0.470181,0.46989,-0.133611,68,0.787627,10,-6.27827e-05,-3.87416,-0.617612,-0.0955292,0.469949,
2,0,0,1,0,45189.7,0.466186,0.465849,-0.134917,68,0.787511,10,-6.28511e-05,-3.86993,-1.20552,-0.0489416,0.465909,
2,0,0,1,0,45190.5,0.462191,0.46189,-0.135381,68,0.787395,10,-6.25311e-05,-3.86844,-1.73292,-0.0340466,0.46195,
2,0,0,1,0,45191.3,0.458196,0.4579,-0.136979,68,0.787277,10,-6.27225e-05,-3.86335,-0.66726,-0.0884213,0.45796,
2,0,0,0,0,45192.1,0.454201,0.453968,-0.138308,68,0.787158,10,-6.27875e-05,-3.85915,-0.725765,-0.0812935,0.454028,
2,0,0,1,0,45192.9,0.450205,0.449834,-0.140542,68,0.787038,10,-6.32204e-05,-3.85219,-0.710424,-0.083049,0.449896,
2,0,0,1,0,45193.7,0.44621,0.445931,-0.141913,68,0.786916,10,-6.32833e-05,-3.84798,-0.935083,-0.063096,0.445993,
2,0,0,1,0,45194.5,0.442215,0.441946,-0.143593,68,0.786794,10,-6.34606e-05,-3.84287,-1.6203,-0.0364131,0.442009,
2,0,0,1,0,45195.3,0.43822,0.437929,-0.144823,68,0.78667,10,-6.34223e-05,-3.83916,-0.512832,-0.115047,0.437993,
2,0,0,0,0,45196.1,0.434225,0.433916,-0.146568,68,0.786544,10,-6.35982e-05,-3.83396,-0.991154,-0.0595266,0.433981,
2,0,0,1,0,45196.9,0.43023,0.429892,-0.148229,68,0.786417,10,-6.37223e-05,-3.82907,-1.23941,-0.0476031,0.429957,
2,0,0,1,0,45197.7,0.426234,0.425944,-0.150637,68,0.786289,10,-6.41628e-05,-3.82207,-0.587695,-0.100392,0.42601,
2,0,0,1,0,45198.5,0.422239,0.421937,-0.151619,68,0.786159,10,-6.39736e-05,-3.81925,-0.772167,-0.0764083,0.422004,
2,0,0,1,0,45199.3,0.418244,0.417958,-0.154164,68,0.786027,10,-6.44338e-05,-3.81202,-0.565415,-0.104348,0.418025,
2,0,0,0,0,45200.1,0.414249,0.413938,-0.154744,68,0.785894,10,-6.40543e-05,-3.81039,-1.36598,-0.0431924,0.414006,
2,0,0,1,0,45200.9,0.410254,0.409948,-0.157996,68,0.78576,10,-6.47701e-05,-3.80135,-1.4601,-0.0404083,0.410018,
2,0,0,0,0,45201.7,0.406259,0.405969,-0.160386,68,0.785623,10,-6.5112e-05,-3.79483,-0.377462,-0.156307,0.40604,
2,0,0,1,0,45202.5,0.402263,0.401993,-0.162336,68,0.785486,10,-6.52578e-05,-3.78959,-1.06596,-0.0553491,0.402064,
2,0,0,1,0,45203.3,0.398268,0.397973,-0.164308,68,0.785346,10,-6.53899e-05,-3.78434,-1.07654,-0.0548054,0.398045,
2,0,0,1,0,45204.1,0.394274,0.393963,-0.165061,68,0.785205,10,-6.50281e-05,-3.78235,-0.683911,-0.0862685,0.394036,
2,0,0,1,0,45204.9,0.390278,0.389937,-0.167573,68,0.785063,10,-6.5343e-05,-3.7758,-1.28727,-0.0458334,0.390011,
2,0,0,0,0,45205.7,0.386283,0.385965,-0.169938,68,0.784918,10,-6.55899e-05,-3.76971,-0.673924,-0.0875469,0.38604,
2,0,0,1,0,45206.5,0.382287,0.381954,-0.171195,68,0.784772,10,-6.53884e-05,-3.76651,-0.617966,-0.0954745,0.382029,
2,0,0,1,0,45207.3,0.378292,0.377983,-0.173019,68,0.784625,10,-6.53982e-05,-3.76191,-1.2922,-0.0456585,0.378059,
2,0,0,1,0,45208.1,0.374297,0.373999,-0.175349,68,0.784475,10,-6.55804e-05,-3.7561,-0.533984,-0.11049,0.374077,
2,0,0,1,0,45208.9,0.370303,0.36998,-0.17853,68,0.784324,10,-6.60525e-05,-3.74829,-0.767179,-0.0769052,0.370058,
2,0,0,0,0,45209.7,0.366307,0.366024,-0.179455,68,0.784171,10,-6.56847e-05,-3.74605,-0.894945,-0.0659258,0.366103,
2,0,0,1,0,45210.5,0.362312,0.362008,-0.18256,68,0.784016,10,-6.60881e-05,-3.7386,-0.571757,-0.103191,0.362088,
2,0,0,1,0,45211.3,0.358316,0.358001,-0.184625,68,0.783859,10,-6.60958e-05,-3.73371,-1.36803,-0.0431277,0.358082,
2,0,0,1,0,45212.1,0.354321,0.354015,-0.186325,68,0.783701,10,-6.59617e-05,-3.72973,-0.836076,-0.0705677,0.354097,
2,0,0,1,0,45212.9,0.350327,0.35001,-0.18819,68,0.783541,10,-6.58684e-05,-3.7254,-0.537721,-0.109722,0.350093,
2,0,0,0,0,45213.7,0.346331,0.346031,-0.190199,68,0.783378,10,-6.58149e-05,-3.72079,-1.12864,-0.0522753,0.346115,
2,0,0,1,0,45214.5,0.342336,0.342058,-0.193397,68,0.783214,10,-6.6153e-05,-3.71355,-0.622994,-0.094704,0.342143,
2,0,0,0,0,45215.3,0.338341,0.338028,-0.195953,68,0.783048,10,-6.62376e-05,-3.70785,-1.04677,-0.0563638,0.338114,
2,0,0,1,0,45216.1,0.334345,0.334059,-0.198912,68,0.782881,10,-6.64483e-05,-3.70134,-0.664148,-0.0888356,0.334146,
2,0,0,1,0,45216.9,0.33035,0.330071,-0.199472,68,0.782711,10,-6.584e-05,-3.70012,-0.7306,-0.0807555,0.330159,
2,0,0,1,0,45217.7,0.326355,0.326021,-0.202888,68,0.782539,10,-6.61457e-05,-3.69274,-0.844361,-0.0698753,0.326111,
2,0,0,1,0,45218.5,0.32236,0.322045,-0.204376,68,0.782366,10,-6.58182e-05,-3.68957,-0.992113,-0.059469,0.322135,
2,0,0,0,0,45219.3,0.318365,0.318035,-0.206062,68,0.78219,10,-6.55349e-05,-3.686,-0.667446,-0.0883966,0.318126,
2,0,0,1,0,45220.1,0.31437,0.314065,-0.20962,68,0.782013,10,-6.58344e-05,-3.67857,-1.19356,-0.0494319,0.314157,
2,0,0,1,0,45220.9,0.310374,0.310078,-0.21154,68,0.781833,10,-6.55937e-05,-3.67461,-0.585506,-0.100768,0.310171,
2,0,0,1,0,45221.7,0.306379,0.306082,-0.214654,68,0.781652,10,-6.57018e-05,-3.66826,-0.98834,-0.0596961,0.306177,
2,0,0,1,0,45222.5,0.302385,0.302096,-0.216949,68,0.781468,10,-6.55394e-05,-3.66364,-0.670046,-0.0880536,0.302191,
2,0,0,0,0,45223.3,0.298389,0.298068,-0.219355,68,0.781283,10,-6.53827e-05,-3.65885,-0.704704,-0.0837231,0.298164,
2,0,0,1,0,45224.1,0.294394,0.294076,-0.222398,68,0.781095,10,-6.54021e-05,-3.65287,-0.669877,-0.0880759,0.294174,
2,0,0,1,0,45224.9,0.290398,0.290103,-0.226484,68,0.780905,10,-6.57037e-05,-3.64496,-1.28021,-0.0460862,0.290202,
2,0,0,1,0,45225.7,0.286403,0.286105,-0.226164,68,0.780713,10,-6.47066e-05,-3.64558,-0.749019,-0.0787697,0.286205,
2,0,0,1,0,45226.5,0.282408,0.282059,-0.23034,68,0.780519,10,-6.49694e-05,-3.63763,-0.915228,-0.0644648,0.28216,
2,0,0,1,0,45227.3,0.278414,0.278078,-0.232555,68,0.780322,10,-6.46686e-05,-3.63347,-0.533953,-0.110497,0.278181,
2,0,0,1,0,45228.1,0.274418,0.274108,-0.235527,68,0.780124,10,-6.45598e-05,-3.62796,-1.49997,-0.0393342,0.274211,
2,0,0,0,0,45228.9,0.270423,0.270096,-0.238214,68,0.779923,10,-6.43407e-05,-3.62303,-0.91199,-0.0646937,0.270201,
2,0,0,1,0,45229.7,0.266427,0.266108,-0.240252,68,0.779721,10,-6.39329e-05,-3.61933,-0.926761,-0.0636626,0.266214,
2,0,0,1,0,45230.5,0.262432,0.262117,-0.242658,68,0.779517,10,-6.36047e-05,-3.61501,-0.818116,-0.0721169,0.262224,
2,0,0,1,0,45231.3,0.258437,0.258167,-0.245374,68,0.77931,10,-6.33474e-05,-3.61017,-1.12961,-0.0522304,0.258275,
2,0,0,1,0,45232.1,0.254442,0.254158,-0.246955,68,0.779102,10,-6.27657e-05,-3.60738,-0.689508,-0.0855683,0.254267,
2,0,0,0,0,45232.9,0.250447,0.250136,-0.249567,68,0.778892,10,-6.24257e-05,-3.60281,-3.8454,-0.015343,0.250246,
2,0,0,1,0,45233.7,0.246452,0.246148,-0.25298,68,0.77868,10,-6.22704e-05,-3.59691,-0.521436,-0.113149,0.246259,
2,0,0,1,0,45234.5,0.242456,0.242139,-0.254985,68,0.778465,10,-6.17416e-05,-3.59349,-2.38616,-0.0247259,0.242251,
2,0,0,1,0,45235.3,0.238461,0.23813,-0.257537,68,0.778249,10,-6.13273e-05,-3.58916,-0.638714,-0.0923732,0.238244,
2,0,0,1,0,45236.1,0.234467,0.234132,-0.260003,68,0.778031,10,-6.08749e-05,-3.58502,-0.917258,-0.0643222,0.234246,
2,0,0,0,0,45236.9,0.230471,0.230109,-0.261918,68,0.777811,10,-6.02698e-05,-3.58183,-1.40674,-0.041941,0.230225,
2,0,0,1,0,45237.7,0.226476,0.226128,-0.264412,68,0.777589,10,-5.97908e-05,-3.57772,-0.957627,-0.0616106,0.226244,
2,0,0,0,0,45238.5,0.222481,0.222171,-0.267396,68,0.777365,10,-5.94077e-05,-3.57285,-0.935556,-0.0630641,0.222289,
2,0,0,1,0,45239.3,0.218485,0.21811,-0.270081,68,0.777139,10,-5.89073e-05,-3.56851,-1.1674,-0.0505394,0.218229,
2,0,0,1,0,45240.1,0.21449,0.214162,-0.271679,68,0.776911,10,-5.81833e-05,-3.56594,-0.68682,-0.0859031,0.214282,
2,0,0,1,0,45240.9,0.210496,0.210174,-0.276378,68,0.77668,10,-5.80875e-05,-3.5585,-1.13598,-0.0519376,0.210296,
2,0,0,1,0,45241.7,0.2065,0.206187,-0.279186,68,0.776447,10,-5.75645e-05,-3.55411,-0.731518,-0.0806542,0.20631,
2,0,0,0,0,45242.5,0.202505,0.202175,-0.280955,68,0.776211,10,-5.68021e-05,-3.55136,-0.958626,-0.0615464,0.202299,
2,0,0,1,0,45243.3,0.198509,0.198185,-0.284241,68,0.775974,10,-5.63324e-05,-3.54631,-0.835479,-0.0706182,0.19831,
2,0,0,1,0,45244.1,0.194514,0.19419,-0.287665,68,0.775733,10,-5.58617e-05,-3.54111,-0.674756,-0.087439,0.194317,
2,0,0,1,0,45244.9,0.190519,0.190181,-0.290392,68,0.77549,10,-5.52271e-05,-3.53701,-0.768396,-0.0767833,0.190309,
2,0,0,1,0,45245.7,0.186524,0.186212,-0.294531,68,0.775243,10,-5.48451e-05,-3.53087,-0.939533,-0.0627972,0.186341,
2,0,0,0,0,45246.5,0.182529,0.182217,-0.300262,68,0.774993,10,-5.4713e-05,-3.5225,-0.392176,-0.150443,0.182349,
2,0,0,1,0,45247.3,0.178534,0.178234,-0.30486,68,0.774738,10,-5.43366e-05,-3.5159,-0.766234,-0.077,0.178369,
2,0,0,1,0,45248.1,0.174538,0.174205,-0.31001,68,0.77448,10,-5.40052e-05,-3.50862,-0.426351,-0.138384,0.174341,
2,0,0,1,0,45248.9,0.170543,0.170215,-0.317012,68,0.774217,10,-5.396e-05,-3.49892,-0.342247,-0.17239,0.170354,
2,0,0,1,0,45249.7,0.166549,0.166238,-0.324117,68,0.773947,10,-5.38807e-05,-3.4893,-0.422866,-0.139524,0.166381,
2,0,0,0,0,45250.5,0.162553,0.162229,-0.335359,68,0.773671,10,-5.44048e-05,-3.47449,-0.279365,-0.211193,0.162376,
2,0,0,1,0,45251.3,0.158558,0.158236,-0.345605,68,0.773386,10,-5.46872e-05,-3.46142,-0.221802,-0.266003,0.158388,
2,0,0,0,0,45252.1,0.154563,0.154232,-0.3625,68,0.77309,10,-5.59092e-05,-3.44069,-0.221791,-0.266016,0.154392,
2,0,0,1,0,45252.9,0.150567,0.15025,-0.383324,68,0.77278,10,-5.75945e-05,-3.41643,-0.134242,-0.439505,0.150419,
2,0,0,1,0,45253.7,0.146572,0.146248,-0.409138,68,0.772451,10,-5.98357e-05,-3.38813,-0.127814,-0.46161,0.146428,
2,0,0,1,0,45254.5,0.142578,0.142254,-0.446278,68,0.772098,10,-6.34849e-05,-3.35039,-0.100024,-0.589859,0.142451,
2,0,0,1,0,45255.3,0.138582,0.138248,-0.488766,68,0.771712,10,-6.75707e-05,-3.3109,-0.0936105,-0.630271,0.138463,
2,0,0,0,0,45256.1,0.134587,0.134275,-0.538493,68,0.771288,10,-7.23063e-05,-3.26882,-0.101408,-0.581806,0.134512,
2,0,0,1,0,45256.9,0.130591,0.130195,-0.58835,68,0.770824,10,-7.66004e-05,-3.23036,-0.110921,-0.53191,0.130454,
2,0,0,1,0,45257.7,0.126596,0.126274,-0.628549,68,0.770322,10,-7.93697e-05,-3.20166,-0.157694,-0.374141,0.126551,
2,0,0,1,0,45258.5,0.122602,0.122281,-0.663562,68,0.769792,10,-8.11411e-05,-3.17812,-0.246204,-0.239638,0.122573,
2,0,0,1,0,45259.3,0.118607,0.1183,-0.68081,68,0.76924,10,-8.05402e-05,-3.16697,-0.377174,-0.156426,0.1186,
2,0,0,0,0,45260.1,0.114611,0.114296,-0.692454,68,0.768677,10,-7.91448e-05,-3.15961,-1.59807,-0.0369196,0.114601,
2,0,0,1,0,45260.9,0.110616,0.110227,-0.694645,68,0.76811,10,-7.65689e-05,-3.15824,-4.89592,-0.0120508,0.110533,
2,0,0,1,0,45261.7,0.10662,0.106281,-0.692415,68,0.767542,10,-7.35907e-05,-3.15963,2.3892,0.0246944,0.106586,
2,0,0,1,0,45262.5,0.102625,0.102306,-0.688849,68,0.766976,10,-7.04735e-05,-3.16188,0.960305,0.0614388,0.102609,
2,0,0,1,0,45263.3,0.0986305,0.0982916,-0.683077,68,0.766415,10,-6.71407e-05,-3.16553,1.58741,0.0371675,0.0985922,
2,0,0,0,0,45264.1,0.0946351,0.0943053,-0.674418,68,0.765859,10,-6.36013e-05,-3.17107,0.694497,0.0849536,0.0946021,
2,0,0,1,0,45264.9,0.0906399,0.0903087,-0.668487,68,0.765308,10,-6.03701e-05,-3.17491,0.603481,0.0977661,0.0906028,
2,0,0,0,0,45265.7,0.0866448,0.0863067,-0.659147,68,0.764764,10,-5.68888e-05,-3.18102,0.862038,0.0684424,0.0865967,
2,0,0,1,0,45266.5,0.0826492,0.0823787,-0.651358,68,0.764228,10,-5.3658e-05,-3.18618,0.643054,0.0917497,0.0826653,
2,0,0,1,0,45267.3,0.0786544,0.0783367,-0.643635,68,0.763698,10,-5.04202e-05,-3.19136,0.708034,0.0833293,0.0786199,
2,0,0,1,0,45268.1,0.0746596,0.0743257,-0.632675,68,0.763176,10,-4.7024e-05,-3.19882,0.708424,0.0832835,0.0746041,
2,0,0,1,0,45268.8,0.0706641,0.0703465,-0.62415,68,0.762661,10,-4.39068e-05,-3.20471,0.611781,0.0964397,0.0706212,
2,0,0,0,0,45269.6,0.0666689,0.0663626,-0.616489,68,0.762153,10,-4.09118e-05,-3.21007,0.768874,0.0767356,0.0666338,
2,0,0,1,0,45270.4,0.0626737,0.06235,-0.606011,68,0.76165,10,-3.77848e-05,-3.21752,0.646238,0.0912976,0.0626166,
2,0,0,1,0,45271.2,0.0586783,0.0583479,-0.598698,68,0.761155,10,-3.49328e-05,-3.22279,0.491528,0.120034,0.0586113,
2,0,0,1,0,45272,0.0546835,0.054361,-0.58832,68,0.760668,10,-3.19816e-05,-3.23039,0.754691,0.0781777,0.0546198,
2,0,0,1,0,45272.8,0.0506886,0.0503648,-0.580737,68,0.760187,10,-2.92487e-05,-3.23602,0.486175,0.121355,0.0506203,
2,0,0,0,0,45273.6,0.046693,0.0463591,-0.569654,68,0.759714,10,-2.64086e-05,-3.24439,0.577677,0.102133,0.0466097,
2,0,0,1,0,45274.4,0.0426979,0.0423666,-0.559039,68,0.75925,10,-2.36846e-05,-3.25256,0.512206,0.115188,0.0426126,
2,0,0,1,0,45275.2,0.0387022,0.0384184,-0.549443,68,0.758794,10,-2.11087e-05,-3.26008,0.470932,0.125283,0.0386602,
2,0,0,1,0,45276,0.0347074,0.0343954,-0.538841,68,0.758347,10,-1.85337e-05,-3.26854,0.468553,0.12592,0.0346325,
2,0,0,1,0,45276.8,0.0307126,0.0303905,-0.527249,68,0.757907,10,-1.60234e-05,-3.27798,0.576598,0.102324,0.0306225,
2,0,0,0,0,45277.6,0.0267172,0.0264266,-0.520119,68,0.757475,10,-1.3745e-05,-3.2839,0.502357,0.117446,0.0266555,
2,0,0,1,0,45278.4,0.022722,0.0223918,-0.512553,68,0.75705,10,-1.1477e-05,-3.29026,0.799526,0.0737938,0.0226173,
2,0,0,0,0,45279.2,0.0187268,0.0183728,-0.508014,68,0.756629,10,-9.33364e-06,-3.29412,0.724377,0.0814493,0.0185963,
2,0,0,1,0,45280,0.0147313,0.0144054,-0.502354,68,0.756214,10,-7.23661e-06,-3.29899,1.25789,0.046904,0.0146264,
2,0,0,1,0,45280.8,0.0107365,0.010425,-0.49903,68,0.755802,10,-5.20239e-06,-3.30187,4.20868,0.0140187,0.0106446,
2,0,0,1,0,45281.6,0.00674163,0.00639167,-0.496964,68,0.755392,10,-3.17643e-06,-3.30368,3.48806,0.0169148,0.00661033,
2,0,0,1,0,45282.4,0.00274612,0.00243916,-0.497095,68,0.754982,10,-1.21249e-06,-3.30356,-1.36734,-0.0431496,0.00265788,
2,0,0,0,0,45282.9,0.000274105,-7.83813e-05,-0.499841,68,0.754725,10,3.91782e-08,-3.30117, , ,0.000141549,