File: Figure_codes/Fig_3-5/rawdata_trumpetplot_data/before 10th/20221101_1-115_002_TrumpetPlot_ParaChange_14_CV_C01_7.csv
mode,ox/red,error,control changes,counter inc.,time/s,control/V,Ewe/V,<I>/mA,cycle number,(Q-Qo)/C,I Range,P/W,log(|I|),Tafel slope mV/dec,alpha_eff,dI/d(E-IR),E-IR/V,
2,1,0,1,0,9837.69,2.44065e-05,-0.000649808,26.5294,8,0.0000000E+000,10,-1.7239e-05,-1.57627, , , ,-0.000649808,
2,1,0,1,0,9837.69,0.00188327,0.00147737,24.505,8,7.80415e-05,10,3.62028e-05,-1.61075, , , ,0.00147737,
2,1,0,1,0,9837.7,0.00428592,0.00391948,24.2772,8,0.000175372,10,9.51541e-05,-1.6148, , , ,0.00391948,
2,1,0,1,0,9837.7,0.0066858,0.00633191,24.5187,8,0.00027292,10,0.00015525,-1.6105,0.66298,0.0889922,86.5568,0.00633191,
2,1,0,1,0,9837.71,0.00908291,0.00869874,24.9031,8,0.000371776,10,0.000216626,-1.60375,0.36727,0.160645,156.867,0.00869874,
2,1,0,1,0,9837.71,0.01148,0.0111716,25.3441,8,0.000472316,10,0.000283134,-1.59612,0.334311,0.176482,174.583,0.0111716,
2,1,0,1,0,9837.71,0.0138882,0.013496,25.7794,8,0.000574607,10,0.00034792,-1.58873,0.343918,0.171553,172.241,0.013496,
2,1,0,1,0,9837.72,0.0162853,0.0159328,26.1949,8,0.0006786,10,0.000417359,-1.58178,0.361394,0.163257,166.508,0.0159328,
2,1,0,1,0,9837.72,0.0186824,0.018359,26.567,8,0.00078417,10,0.000487745,-1.57566,0.390387,0.151132,156.474,0.018359,
2,1,0,1,0,9837.73,0.0210878,0.0207534,26.9395,8,0.000891206,10,0.000559088,-1.56961,0.425108,0.138788,145.648,0.0207534,
2,1,0,1,0,9837.73,0.023485,0.023169,27.293,8,0.000999723,10,0.000632353,-1.56395,0.454103,0.129927,138.038,0.023169,
2,1,0,1,0,9837.73,0.0258821,0.0255592,27.597,8,0.00110954,10,0.000705356,-1.55914,0.487984,0.120905,130.039,0.0255592,
2,1,0,1,0,9837.74,0.0282792,0.0279419,27.8898,8,0.00122054,10,0.000779296,-1.55455,0.535311,0.110216,119.853,0.0279419,
2,1,0,1,0,9837.74,0.0306874,0.0303544,28.188,8,0.00133275,10,0.000855629,-1.54994,0.560951,0.105179,115.546,0.0303544,
2,1,0,1,0,9837.75,0.0330845,0.0327572,28.4422,8,0.00144602,10,0.000931687,-1.54604,0.579191,0.101866,113.02,0.0327572,
2,1,0,1,0,9837.75,0.0354816,0.0351781,28.7084,8,0.00156037,10,0.00100991,-1.54199,0.614441,0.0960222,107.557,0.0351781,
2,1,0,1,0,9837.75,0.0378898,0.037546,28.9753,8,0.00167575,10,0.00108791,-1.53797,0.625141,0.0943787,106.634,0.037546,
2,1,0,1,0,9837.76,0.0402869,0.0399585,29.221,8,0.00179216,10,0.00116763,-1.5343,0.649463,0.0908442,103.53,0.0399585,
2,1,0,1,0,9837.76,0.042684,0.0423497,29.4651,8,0.00190954,10,0.00124784,-1.53069,0.647659,0.0910973,104.795,0.0423497,
2,1,0,1,0,9837.77,0.0450811,0.0447579,29.7002,8,0.00202789,10,0.00132932,-1.52724,0.639696,0.0922313,107.021,0.0447579,
2,1,0,1,0,9837.77,0.0474865,0.0471618,29.983,8,0.00214731,10,0.00141405,-1.52313,0.637027,0.0926178,108.369,0.0471618,
2,1,0,1,0,9837.77,0.0498836,0.0495657,30.2492,8,0.00226781,10,0.00149932,-1.51929,0.599272,0.0984528,116.242,0.04956574,
2,1,0,1,0,9837.78,0.0522807,0.0519294,30.5032,8,0.00238932,10,0.00158401,-1.51565,0.604651,0.0975769,116.285,0.0519294,
2,1,0,1,0,9837.78,0.0546889,0.0543323,30.8131,8,0.00251195,10,0.00167415,-1.51126,0.585234,0.100814,121.293,0.0543323,
2,1,0,1,0,9837.79,0.057086,0.0567309,31.0957,8,0.00263579,10,0.00176409,-1.5073,0.550699,0.107137,130.133,0.0567309,
2,1,0,1,0,9837.79,0.0594831,0.0591741,31.4146,8,0.00276083,10,0.00185893,-1.50287,0.546744,0.107912,132.422,0.0591741,
2,1,0,1,0,9837.79,0.061883,0.0615239,31.7518,8,0.00288718,10,0.00195349,-1.49823,0.520174,0.113424,140.616,0.06152394,
2,1,0,1,0,9837.8,0.0642857,0.0639152,32.0821,8,0.00301489,10,0.00205053,-1.49374,0.499445,0.118131,148.076,0.0639152,
2,1,0,1,0,9837.8,0.0666828,0.0663371,32.4465,8,0.00314398,10,0.00215241,-1.48883,0.479828,0.122961,155.923,0.0663371,
2,1,0,1,0,9837.81,0.0690799,0.0687538,32.8331,8,0.00327458,10,0.0022574,-1.48369,0.460566,0.128103,164.31,0.0687538,
2,1,0,1,0,9837.81,0.0714881,0.0710952,33.2441,8,0.00340674,10,0.0023635,-1.47828,0.443028,0.133175,172.899,0.0710952,
2,1,0,1,0,9837.81,0.0738852,0.0735277,33.6616,8,0.00354058,10,0.00247506,-1.47287,0.432153,0.136526,179.491,0.0735277,
2,1,0,1,0,9837.82,0.0762823,0.075902,34.1003,8,0.00367614,10,0.00258828,-1.46724,0.423579,0.139289,185.552,0.075902,
2,1,0,1,0,9837.82,0.0786849,0.0783526,34.556,8,0.0038135,10,0.00270755,-1.46148,0.411964,0.143216,193.286,0.0783526,
2,1,0,1,0,9837.83,0.0810876,0.0807682,35.039,8,0.00395276,10,0.00283004,-1.45545,0.405749,0.14541,198.893,0.0807682,
2,1,0,1,0,9837.83,0.0834847,0.0831329,35.5181,8,0.0040939,10,0.00295272,-1.44955,0.399578,0.147656,204.725,0.0831329,
2,1,0,1,0,9837.83,0.0858818,0.0855188,36.013,8,0.00423701,10,0.00307979,-1.44354,0.404603,0.145822,204.917,0.0855188,
2,1,0,1,0,9837.84,0.0882872,0.0879249,36.5157,8,0.00438213,10,0.00321064,-1.43752,0.399534,0.147672,210.42,0.0879249,
2,1,0,1,0,9837.84,0.0906843,0.0903055,36.9933,8,0.00452919,10,0.0033407,-1.43188,0.390861,0.150949,218.269,0.0903055,
2,1,0,1,0,9837.85,0.0930814,0.0926585,37.5225,8,0.00467823,10,0.00347678,-1.42571,0.379947,0.155285,227.861,0.0926585,
2,1,0,1,0,9837.85,0.0954841,0.0951197,38.1086,8,0.00482957,10,0.00362488,-1.41898,0.371225,0.158933,236.451,0.0951197,
2,1,0,1,0,9837.85,0.0978867,0.0975279,38.7039,8,0.00498325,10,0.00377471,-1.41225,0.37372,0.157872,238.221,0.0975279,
2,1,0,1,0,9837.86,0.100284,0.0999382,39.271,8,0.00513928,10,0.00392468,-1.40593,0.376107,0.15687,240.307,0.0999382,
2,1,0,1,0,9837.86,0.102681,0.102342,39.8293,8,0.00529753,10,0.00407622,-1.3998,0.383172,0.153978,239.423,0.102342,
2,1,0,1,0,9837.87,0.105086,0.104731,40.4183,8,0.00545808,10,0.00423306,-1.39342,0.388832,0.151736,239.306,0.104731,
2,1,0,1,0,9837.87,0.107483,0.10713,41.0028,8,0.005621,10,0.00439263,-1.38719,0.387886,0.152106,243.329,0.1071299,
2,1,0,1,0,9837.87,0.109881,0.109557,41.5729,8,0.0057862,10,0.00455461,-1.38119,0.393663,0.149875,243.177,0.109557,
2,1,0,1,0,9837.88,0.112289,0.111978,42.174,8,0.00595375,10,0.00472257,-1.37495,0.398481,0.148062,243.648,0.111978,
2,1,0,1,0,9837.88,0.114686,0.114333,42.7533,8,0.00612366,10,0.00488812,-1.36903,0.395291,0.149257,249.086,0.114333,
2,1,0,1,0,9837.89,0.117083,0.116762,43.3496,8,0.00629591,10,0.00506156,-1.36302,0.395778,0.149073,252.326,0.116762,
2,1,0,1,0,9837.89,0.11948,0.119189,43.972,8,0.00647062,10,0.00524097,-1.35682,0.397079,0.148585,254.981,0.119189,
2,1,0,1,0,9837.89,0.121888,0.121554,44.5902,8,0.0066478,10,0.0054201,-1.35076,0.394584,0.149525,260.184,0.121554,
2,1,0,1,0,9837.9,0.124285,0.123977,45.2121,8,0.00682747,10,0.00560524,-1.34475,0.392329,0.150384,265.438,0.123977,
2,1,0,1,0,9837.9,0.126682,0.12636,45.847,8,0.00700963,10,0.00579325,-1.33869,0.388937,0.151696,271.626,0.12636,
2,1,0,1,0,9837.91,0.129088,0.128734,46.5055,8,0.00719438,10,0.00598682,-1.3325,0.383315,0.15392,279.542,0.128734,
2,1,0,1,0,9837.91,0.131485,0.13115,47.1969,8,0.00738188,10,0.00618988,-1.32609,0.378227,0.155991,287.427,0.13115,
2,1,0,1,0,9837.91,0.133882,0.133538,47.885,8,0.00757212,10,0.00639448,-1.3198,0.372185,0.158523,296.417,0.133538,
2,1,0,1,0,9837.92,0.136279,0.135961,48.6066,8,0.00776517,10,0.00660861,-1.3133,0.371242,0.158926,301.623,0.135961,
2,1,0,1,0,9837.92,0.138687,0.13832,49.347,8,0.00796115,10,0.00682566,-1.30674,0.363399,0.162356,312.831,0.13832,
2,1,0,1,0,9837.93,0.141085,0.140749,50.0921,8,0.00816009,10,0.00705042,-1.30023,0.358333,0.164651,322.164,0.140749,
2,1,0,1,0,9837.93,0.143482,0.14314,50.8888,8,0.00836213,10,0.00728424,-1.29338,0.357586,0.164995,327.787,0.14314,
2,1,0,1,0,9837.93,0.145887,0.145554,51.6969,8,0.00856738,10,0.00752468,-1.28654,0.354175,0.166584,336.036,0.145554,
2,1,0,1,0,9837.94,0.148284,0.147923,52.4947,8,0.00877583,10,0.00776516,-1.27988,0.354558,0.166404,340.976,0.147923,
2,1,0,1,0,9837.94,0.150681,0.150346,53.3169,8,0.00898755,10,0.00801597,-1.27313,0.354759,0.16631,346.184,0.1503457,
2,1,0,1,0,9837.95,0.153084,0.152716,54.1538,8,0.00920257,10,0.00827014,-1.26637,0.355989,0.165736,350.318,0.152716,
2,1,0,1,0,9837.95,0.155487,0.155125,55.0103,8,0.009421,10,0.00853348,-1.25956,0.361349,0.163277,350.344,0.155125,
2,1,0,1,0,9837.95,0.157884,0.157532,55.8611,8,0.00964283,10,0.00879991,-1.25289,0.364539,0.161848,352.63,0.157532,
2,1,0,1,0,9837.96,0.160281,0.159938,56.6776,8,0.00986799,10,0.00906491,-1.24659,0.374656,0.157478,348.23,0.159938,
2,1,0,1,0,9837.96,0.162689,0.162305,57.5353,8,0.0100965,10,0.00933826,-1.24007,0.385652,0.152988,343.266,0.162305,
2,1,0,1,0,9837.97,0.165086,0.164698,58.3441,8,0.0103283,10,0.00960917,-1.234,0.392672,0.150253,341.887,0.1646983,
2,1,0,1,0,9837.97,0.167483,0.167129,59.1553,8,0.0105634,10,0.00988655,-1.22801,0.412077,0.143177,330.298,0.167129,
2,1,0,1,0,9837.97,0.169886,0.169541,59.9607,8,0.0108017,10,0.0101658,-1.22213,0.428665,0.137637,321.641,0.1695412,
2,1,0,1,0,9837.98,0.172286,0.171932,60.7152,8,0.0110431,10,0.0104389,-1.2167,0.451467,0.130685,309.24,0.171932,
2,1,0,1,0,9837.98,0.174683,0.174325,61.4403,8,0.0112875,10,0.0107106,-1.21155,0.479215,0.123118,294.866,0.174325,
2,1,0,1,0,9837.99,0.17708,0.176761,62.1341,8,0.0115347,10,0.0109829,-1.20667,0.515012,0.114561,277.381,0.176761,
2,1,0,1,0,9837.99,0.179488,0.179158,62.7964,8,0.0117846,10,0.0112505,-1.20207,0.568884,0.103712,253.604,0.179158,
2,1,0,1,0,9837.99,0.181885,0.181561,63.3859,8,0.0120371,10,0.0115084,-1.19801,0.635637,0.0928203,229.018,0.181561,
2,1,0,1,0,9838,0.184282,0.183976,63.888,8,0.0122917,10,0.0117539,-1.19458,0.760932,0.0775365,192.801,0.183976,
2,1,0,1,0,9838,0.186688,0.186309,64.3208,8,0.0125482,10,0.0119836,-1.19165,0.982685,0.0600396,150.205,0.1863094,
2,1,0,1,0,9838.01,0.189085,0.18873,64.642,8,0.0128061,10,0.0121999,-1.18949,1.42888,0.0412912,103.752,0.18873,
2,1,0,1,0,9838.01,0.191482,0.191154,64.8269,8,0.0130652,10,0.012392,-1.18824,3.14432,0.018764,47.269,0.191154,
2,1,0,1,0,9838.01,0.193879,0.19356,64.8824,8,0.0133246,10,0.0125587,-1.18787,-7.46763,-0.00790077,-19.9024,0.19356,
2,1,0,1,0,9838.02,0.196287,0.195962,64.7771,8,0.013584,10,0.0126939,-1.18858,-1.59194,-0.0370617,-93.1168,0.195962,
2,1,0,1,0,9838.02,0.198684,0.198325,64.451,8,0.0138425,10,0.0127822,-1.19077,-0.853956,-0.0690902,-172.685,0.198325,
2,1,0,1,0,9838.03,0.201081,0.20077,63.9316,8,0.0140992,10,0.0128355,-1.19428,-0.553143,-0.106663,-264.345,0.20077,
2,1,0,1,0,9838.03,0.20349,0.203233,63.212,8,0.0143535,10,0.0128468,-1.1992,-0.410952,-0.143569,-351.548,0.203233,
2,1,0,1,0,9838.03,0.205887,0.20554,62.2453,8,0.0146044,10,0.0127939,-1.20589,-0.318154,-0.185445,-447.01,0.20554,
2,1,0,1,0,9838.04,0.208284,0.20796,61.0639,8,0.0148509,10,0.0126988,-1.21422,-0.258187,-0.228516,-540.415,0.20796,
2,1,0,1,0,9838.04,0.210681,0.210355,59.647,8,0.0150922,10,0.012547,-1.22441,-0.21917,-0.269198,-622.094,0.210355,
2,1,0,1,0,9838.05,0.213086,0.212778,58.0539,8,0.0153276,10,0.0123526,-1.23617,-0.189863,-0.310751,-699.024,0.2127782,
2,1,0,1,0,9838.05,0.215484,0.215126,56.2818,8,0.0155561,10,0.0121077,-1.24963,-0.16894,-0.349236,-761.948,0.215126,
2,1,0,1,0,9838.05,0.217881,0.217572,54.3445,8,0.0157772,10,0.0118239,-1.26484,-0.152416,-0.387099,-816.213,0.2175723,
2,1,0,1,0,9838.06,0.220289,0.21997,52.321,8,0.0159903,10,0.0115091,-1.28132,-0.140938,-0.418623,-850.381,0.21997,
2,1,0,1,0,9838.06,0.222686,0.22241,50.1924,8,0.0161951,10,0.0111633,-1.29936,-0.130972,-0.450478,-879.015,0.22241,
2,1,0,1,0,9838.07,0.225083,0.224821,48.0372,8,0.0163914,10,0.0107998,-1.31842,-0.124205,-0.475022,-888.354,0.224821,
2,1,0,1,0,9838.07,0.227483,0.227189,45.8911,8,0.016579,10,0.010426,-1.33827,-0.1188,-0.496632,-888.11,0.227189,
2,1,0,1,0,9838.07,0.229886,0.229594,43.7713,8,0.0167581,10,0.0100496,-1.35881,-0.116104,-0.508164,-867.798,0.229594,
2,1,0,1,0,9838.08,0.232283,0.231959,41.7119,8,0.0169289,10,0.00967543,-1.37974,-0.116002,-0.508611,-828.998,0.231959,
2,1,0,1,0,9838.08,0.23468,0.234383,39.7395,8,0.0170915,10,0.00931427,-1.40078,-0.116284,-0.507377,-789.237,0.234383,
2,1,0,1,0,9838.09,0.237088,0.236838,37.8924,8,0.0172466,10,0.00897436,-1.42145,-0.118688,-0.497101,-737.983,0.236838,
2,1,0,1,0,9838.09,0.239485,0.239207,36.1847,8,0.0173945,10,0.00865562,-1.44147,-0.121634,-0.485062,-687.85,0.2392067,
2,1,0,1,0,9838.09,0.241882,0.24161,34.5898,8,0.0175359,10,0.00835722,-1.46105,-0.126436,-0.466638,-633.28,0.24161,
2,1,0,1,0,9838.1,0.244285,0.243989,33.1319,8,0.0176711,10,0.00808382,-1.47975,-0.132694,-0.444634,-578.441,0.243989,
2,1,0,1,0,9838.1,0.246687,0.246409,31.8312,8,0.0178009,10,0.00784349,-1.49715,-0.142147,-0.415064,-518.815,0.246409,
2,1,0,1,0,9838.11,0.249085,0.248796,30.6379,8,0.0179257,10,0.00762258,-1.51374,-0.15289,-0.385898,-464.605,0.248796,
2,1,0,1,0,9838.11,0.251482,0.251234,29.5965,8,0.018046,10,0.00743565,-1.52876,-0.163559,-0.360727,-419.242,0.251234,
2,1,0,1,0,9838.11,0.253887,0.253584,28.6742,8,0.0181625,10,0.00727132,-1.54251,-0.179139,-0.329354,-370.52,0.253584,
2,1,0,1,0,9838.12,0.256284,0.25598,27.8185,8,0.0182753,10,0.00712099,-1.55567,-0.194284,-0.303679,-331.661,0.25598,
2,1,0,1,0,9838.12,0.258681,0.258379,27.0872,8,0.018385,10,0.00699877,-1.56724,-0.21619,-0.272907,-290.267,0.258379,
2,1,0,1,0,9838.13,0.261084,0.260775,26.432,8,0.018492,10,0.00689282,-1.57787,-0.239725,-0.246115,-255.263,0.260775,
2,1,0,1,0,9838.13,0.263487,0.26321,25.88,8,0.0185965,10,0.00681188,-1.58704,-0.263455,-0.223947,-227.082,0.26321,
2,1,0,1,0,9838.13,0.265884,0.265571,25.3705,8,0.018699,10,0.00673765,-1.59567,-0.293195,-0.201232,-199.962,0.265571,
2,1,0,1,0,9838.14,0.268281,0.267978,24.9075,8,0.0187995,10,0.00667465,-1.60367,-0.320618,-0.184019,-179.626,0.267978,
2,1,0,1,0,9838.14,0.270686,0.270359,24.5156,8,0.0188983,10,0.00662801,-1.61056,-0.354705,-0.166336,-159.674,0.270359,
2,1,0,1,0,9838.15,0.273083,0.27277,24.1629,8,0.0189956,10,0.00659089,-1.61685,-0.402804,-0.146473,-138.553,0.27277,
2,1,0,1,0,9838.15,0.27548,0.275157,23.8398,8,0.0190915,10,0.00655968,-1.6227,-0.438211,-0.134638,-125.613,0.275157,
2,1,0,1,0,9838.15,0.277889,0.277555,23.5805,8,0.0191863,10,0.00654489,-1.62745,-0.472759,-0.124799,-114.982,0.277555,
2,1,0,1,0,9838.16,0.280286,0.279989,23.306,8,0.0192801,10,0.00652541,-1.63253,-0.52272,-0.112871,-102.821,0.279989,
2,1,0,1,0,9838.16,0.282683,0.282353,23.061,8,0.0193728,10,0.00651133,-1.63712,-0.55778,-0.105776,-95.4416,0.282353,
2,1,0,1,0,9838.17,0.28508,0.284777,22.8507,8,0.0194645,10,0.00650734,-1.6411,-0.618799,-0.095346,-85.1925,0.284777,
2,1,0,1,0,9838.17,0.287488,0.287145,22.6653,8,0.0195556,10,0.00650821,-1.64464,-0.677538,-0.08708,-77.105,0.287145,
2,1,0,1,0,9838.17,0.289885,0.289587,22.4883,8,0.0196459,10,0.00651232,-1.64804,-0.72338,-0.0815615,-71.6326,0.2895866,
2,1,0,1,0,9838.18,0.292282,0.291969,22.3195,8,0.0197354,10,0.00651661,-1.65132,-0.764976,-0.0771266,-67.2411,0.291969,
2,1,0,1,0,9838.18,0.294688,0.294404,22.161,8,0.0198244,10,0.0065243,-1.65441,-0.814677,-0.0724214,-62.7121,0.294404,
2,1,0,1,0,9838.19,0.297085,0.296798,22.0161,8,0.0199127,10,0.00653436,-1.65726,-0.809194,-0.0729121,-62.8132,0.296798,
2,1,0,1,0,9838.19,0.299363,0.299117,21.8907,8,0.0199961,10,0.00654786,-1.65974,-0.0873347,-0.675562,-549.619,0.299117,
2,1,0,1,0,9838.19,0.300012,0.299746,21.831,8,0.0200201,10,0.00654376,-1.66093,0.000472423,124.888,84393.7,0.299746,
2,1,0,1,0,9838.19,0.299243,0.299091,19.585,8,0.0200462,10,0.00585769,-1.70808,0.0119515,4.93664,2729.6,0.299091,
2,1,0,1,0,9838.2,0.296846,0.296696,13.3362,8,0.0201109,10,0.00395681,-1.87497,0.0119516,4.93656,2147.76,0.296696,
2,1,0,1,0,9838.2,0.294449,0.294217,8.51813,8,0.0201538,10,0.00250618,-2.06966,0.00893534,6.603,1855.54,0.294217,
2,1,0,1,0,9838.2,0.292041,0.291767,4.69258,8,0.0201796,10,0.00136914,-2.32859,0.00827971,7.12585,1468.7,0.291767,
2,1,0,1,0,9838.21,0.289644,0.289406,1.61457,8,0.0201917,10,0.000467267,-2.79194,0.0207996,2.8366,1199.45,0.289406,
2,0,0,1,0,9838.21,0.287247,0.287002,-0.900158,8,0.0201928,10,-0.000258348,-3.04568,3.79346,0.0155531,974.036,0.287002,
2,0,0,1,0,9838.22,0.284841,0.284653,-2.95451,8,0.0201848,10,-0.000841008,-2.52952,-0.0167389,-3.52472,798.21,0.284653,
2,0,0,1,0,9838.22,0.282444,0.28216,-4.66529,8,0.0201693,10,-0.00131636,-2.33112,-0.0106035,-5.56419,660.283,0.28216,
2,0,0,1,0,9838.22,0.280047,0.279783,-6.06672,8,0.0201476,10,-0.00169737,-2.21705,-0.0217357,-2.71443,546.393,0.279783,
2,0,0,1,0,9838.23,0.27765,0.277403,-7.23878,8,0.0201208,10,-0.00200806,-2.14033,-0.0332367,-1.77515,459.508,0.277403,
2,0,0,1,0,9838.23,0.275242,0.274956,-8.25251,8,0.0200897,10,-0.00226908,-2.08341,-0.0460073,-1.28241,390.259,0.274956,
2,0,0,1,0,9838.24,0.272845,0.272534,-9.08819,8,0.0200549,10,-0.00247684,-2.04152,-0.0603569,-0.977519,333.915,0.272534,
2,0,0,1,0,9838.24,0.270448,0.27014,-9.83012,8,0.020017,10,-0.00265551,-2.00744,-0.0772951,-0.763309,284.68,0.27014,
2,0,0,1,0,9838.24,0.26804,0.267742,-10.4645,8,0.0199763,10,-0.00280179,-1.98028,-0.0948999,-0.621708,248.286,0.267742,
2,0,0,1,0,9838.25,0.265642,0.265337,-10.9908,8,0.0199333,10,-0.00291628,-1.95897,-0.11525,-0.511929,216.383,0.265337,
2,0,0,1,0,9838.25,0.263245,0.262941,-11.4701,8,0.0198883,10,-0.00301596,-1.94043,-0.137478,-0.429161,190.108,0.2629407,
2,0,0,1,0,9838.26,0.260843,0.26059,-11.8966,8,0.0198416,10,-0.00310013,-1.92458,-0.159415,-0.370103,170.284,0.26059,
2,0,0,1,0,9838.26,0.258443,0.258165,-12.2853,8,0.0197932,10,-0.00317162,-1.91062,-0.186062,-0.317099,150.715,0.258165,
2,0,0,1,0,9838.26,0.256046,0.255737,-12.6255,8,0.0197433,10,-0.00322882,-1.89875,-0.21061,-0.280138,137.196,0.255737,
2,0,0,1,0,9838.27,0.253649,0.253349,-12.9157,8,0.0196922,10,-0.00327218,-1.88888,-0.237948,-0.247953,124.601,0.253349,
2,0,0,1,0,9838.27,0.25124,0.25091,-13.2245,8,0.0196398,10,-0.00331818,-1.87862,-0.264337,-0.2232,114.718,0.25091,
2,0,0,1,0,9838.28,0.248843,0.24853,-13.4858,8,0.0195864,10,-0.00335162,-1.87012,-0.277764,-0.212411,111.453,0.24853,
2,0,0,1,0,9838.28,0.246446,0.246117,-13.7291,8,0.0195319,10,-0.00337898,-1.86236,-0.313151,-0.188408,100.73,0.2461174,
2,0,0,1,0,9838.28,0.244041,0.243727,-13.9881,8,0.0194765,10,-0.00340928,-1.85424,-0.341545,-0.172744,93.924,0.243727,
2,0,0,1,0,9838.29,0.241644,0.241374,-14.1851,8,0.0194201,10,-0.00342392,-1.84817,-0.361508,-0.163205,90.1704,0.241374,
2,0,0,1,0,9838.29,0.239247,0.238928,-14.3876,8,0.0193629,10,-0.00343761,-1.84201,-0.390306,-0.151164,84.9033,0.238928,
2,0,0,1,0,9838.3,0.236849,0.236533,-14.5933,8,0.019305,10,-0.00345181,-1.83585,-0.394216,-0.149664,85.2305,0.236533,
2,0,0,1,0,9838.3,0.234441,0.234128,-14.8031,8,0.0192461,10,-0.00346582,-1.82965,-0.41289,-0.142895,82.4158,0.234128,
2,0,0,1,0,9838.3,0.232044,0.231737,-15.0065,8,0.0191865,10,-0.00347756,-1.82372,-0.424975,-0.138832,81.1506,0.231737,
2,0,0,1,0,9838.31,0.229647,0.229359,-15.1763,8,0.0191261,10,-0.00348081,-1.81883,-0.448673,-0.131499,77.8722,0.229359,
2,0,0,1,0,9838.31,0.227239,0.226982,-15.3684,8,0.0190651,10,-0.00348836,-1.81337,-0.474389,-0.12437,74.5553,0.226982,
2,0,0,1,0,9838.32,0.224842,0.224526,-15.5508,8,0.0190032,10,-0.00349157,-1.80825,-0.47528,-0.124137,75.2585,0.224526,
2,0,0,1,0,9838.32,0.222445,0.222174,-15.7195,8,0.0189406,10,-0.00349246,-1.80356,-0.480035,-0.122908,75.4486,0.222174,
2,0,0,1,0,9838.32,0.220047,0.219773,-15.8977,8,0.0188773,10,-0.00349388,-1.79867,-0.494168,-0.119393,74.1045,0.219773,
2,0,0,1,0,9838.33,0.217642,0.217342,-16.0957,8,0.0188133,10,-0.00349828,-1.79329,-0.488121,-0.120872,75.863,0.217342,
2,0,0,1,0,9838.33,0.215245,0.214926,-16.2623,8,0.0187486,10,-0.00349518,-1.78882,-0.476519,-0.123815,78.6358,0.214926,
2,0,0,1,0,9838.34,0.212848,0.212542,-16.4502,8,0.0186831,10,-0.00349636,-1.78383,-0.49507,-0.119175,76.5618,0.212542,
2,0,0,1,0,9838.34,0.21044,0.210137,-16.6554,8,0.0186169,10,-0.00349992,-1.77844,-0.47771,-0.123506,80.2267,0.210137,
2,0,0,1,0,9838.34,0.208043,0.207722,-16.8323,8,0.0185499,10,-0.00349643,-1.77386,-0.485757,-0.12146,79.7782,0.207722,
2,0,0,1,0,9838.35,0.205645,0.205326,-17.0324,8,0.0184822,10,-0.0034972,-1.76872,-0.482977,-0.122159,81.248,0.205326,
2,0,0,1,0,9838.35,0.203246,0.202945,-17.2158,8,0.0184137,10,-0.00349387,-1.76407,-0.460195,-0.128206,86.2666,0.202945,
2,0,0,1,0,9838.36,0.200843,0.200545,-17.4347,8,0.0183443,10,-0.00349645,-1.75858,-0.465255,-0.126812,86.3294,0.200545,
2,0,0,1,0,9838.36,0.198446,0.198164,-17.6568,8,0.0182741,10,-0.00349894,-1.75309,-0.437756,-0.134778,92.8869,0.198164,
2,0,0,1,0,9838.36,0.196049,0.195726,-17.8612,8,0.0182031,10,-0.00349589,-1.74809,-0.439327,-0.134296,93.7176,0.1957258,
2,0,0,1,0,9838.37,0.19364,0.193318,-18.1101,8,0.0181311,10,-0.003501,-1.74208,-0.436585,-0.13514,95.5267,0.193318,
2,0,0,1,0,9838.37,0.191243,0.190939,-18.335,8,0.0180582,10,-0.00350087,-1.73672,-0.40672,-0.145063,103.918,0.190939,
2,0,0,1,0,9838.38,0.188846,0.188543,-18.5759,8,0.0179844,10,-0.00350235,-1.73105,-0.398372,-0.148103,107.617,0.188543,
2,0,0,1,0,9838.38,0.186444,0.186122,-18.8592,8,0.0179095,10,-0.00351011,-1.72448,-0.380959,-0.154872,114.085,0.1861217,
2,0,0,1,0,9838.38,0.184041,0.183775,-19.137,8,0.0178335,10,-0.00351691,-1.71813,-0.36268,-0.162678,121.606,0.183775,
2,0,0,1,0,9838.39,0.181644,0.181376,-19.426,8,0.0177563,10,-0.00352341,-1.71162,-0.351094,-0.168046,127.671,0.181376,
2,0,0,1,0,9838.39,0.179247,0.178933,-19.7445,8,0.017678,10,-0.00353294,-1.70455,-0.334516,-0.176374,136.2,0.1789332,
2,0,0,1,0,9838.4,0.176841,0.1765,-20.0877,8,0.0175983,10,-0.00354547,-1.69707,-0.314569,-0.187558,147.312,0.1765,
2,0,0,1,0,9838.4,0.174444,0.174124,-20.4515,8,0.0175172,10,-0.0035611,-1.68928,-0.29992,-0.196719,157.312,0.174124,
2,0,0,1,0,9838.4,0.172047,0.171771,-20.8409,8,0.0174345,10,-0.00357987,-1.68108,-0.28267,-0.208724,170.163,0.171771,
2,0,0,1,0,9838.41,0.169644,0.169331,-21.255,8,0.0173503,10,-0.00359913,-1.67254,-0.27236,-0.216625,180.1,0.169331,
2,0,0,1,0,9838.41,0.167242,0.166951,-21.7126,8,0.0172644,10,-0.00362493,-1.66329,-0.256726,-0.229817,195.226,0.1669506,
2,0,0,1,0,9838.42,0.164845,0.164537,-22.1781,8,0.0171765,10,-0.00364912,-1.65408,-0.239216,-0.246639,214.297,0.164537,
2,0,0,1,0,9838.42,0.162448,0.162149,-22.7194,8,0.0170867,10,-0.00368393,-1.6436,-0.231621,-0.254726,226.482,0.162149,
2,0,0,1,0,9838.42,0.160042,0.159774,-23.3031,8,0.0169946,10,-0.00372323,-1.63259,-0.218004,-0.270637,246.521,0.1597738,
2,0,0,1,0,9838.43,0.157645,0.157352,-23.8865,8,0.0169002,10,-0.00375859,-1.62185,-0.208286,-0.283264,264.952,0.157352,
2,0,0,1,0,9838.43,0.155248,0.154948,-24.5421,8,0.0168033,10,-0.00380274,-1.61009,-0.200395,-0.294418,283.108,0.154948,
2,0,0,1,0,9838.44,0.152845,0.152563,-25.2593,8,0.0167036,10,-0.00385363,-1.59758,-0.189555,-0.311256,307.751,0.152563,
2,0,0,1,0,9838.44,0.150443,0.150159,-26.0251,8,0.016601,10,-0.00390791,-1.58461,-0.182319,-0.323608,329.495,0.150159,
2,0,0,1,0,9838.44,0.148046,0.147753,-26.8406,8,0.0164952,10,-0.00396578,-1.57121,-0.176683,-0.333931,350.682,0.147753,
2,0,0,1,0,9838.45,0.145648,0.145362,-27.7006,8,0.016386,10,-0.00402661,-1.55751,-0.170506,-0.346029,375.212,0.1453618,
2,0,0,1,0,9838.45,0.14324,0.142956,-28.6284,8,0.0162733,10,-0.00409259,-1.5432,-0.165199,-0.357145,400.185,0.142956,
2,0,0,1,0,9838.46,0.140843,0.140575,-29.6211,8,0.0161567,10,-0.00416399,-1.5284,-0.15953,-0.369836,428.829,0.140575,
2,0,0,1,0,9838.46,0.138446,0.138191,-30.667,8,0.016036,10,-0.00423792,-1.51333,-0.156139,-0.377867,453.444,0.138191,
2,0,0,1,0,9838.46,0.136041,0.135766,-31.8155,8,0.015911,10,-0.00431947,-1.49736,-0.154799,-0.38114,473.57,0.135766,
2,0,0,1,0,9838.47,0.133644,0.13338,-32.9703,8,0.0157813,10,-0.00439759,-1.48188,-0.153713,-0.383831,494.088,0.13338,
2,0,0,1,0,9838.47,0.131246,0.130988,-34.1613,8,0.015647,10,-0.00447472,-1.46647,-0.154485,-0.381914,509.802,0.130988,
2,0,0,1,0,9838.48,0.128849,0.128583,-35.4144,8,0.0155077,10,-0.00455369,-1.45082,-0.154221,-0.382567,529.036,0.128583,
2,0,0,1,0,9838.48,0.126441,0.126168,-36.7085,8,0.0153633,10,-0.00463145,-1.43523,-0.157168,-0.375395,537.576,0.126168,
2,0,0,1,0,9838.48,0.124044,0.123842,-38.0164,8,0.0152137,10,-0.00470803,-1.42003,-0.160259,-0.368155,545.747,0.123842,
2,0,0,1,0,9838.49,0.121647,0.12134,-39.3476,8,0.0150589,10,-0.00477446,-1.40508,-0.165156,-0.357238,547.398,0.12134,
2,0,0,1,0,9838.49,0.119241,0.118945,-40.6743,8,0.0148987,10,-0.004838,-1.39068,-0.170777,-0.34548,547.175,0.118945,
2,0,0,1,0,9838.5,0.116844,0.116624,-41.9332,8,0.0147333,10,-0.00489041,-1.37744,-0.172867,-0.341302,558.597,0.116624,
2,0,0,1,0,9838.5,0.114447,0.114256,-43.2617,8,0.0145628,10,-0.0049429,-1.3639,-0.179954,-0.327861,553.462,0.114256,
2,0,0,1,0,9838.5,0.11205,0.111871,-44.6372,8,0.0143869,10,-0.00499361,-1.3503,-0.186213,-0.316842,550.574,0.111871,
2,0,0,1,0,9838.51,0.109642,0.109427,-45.9423,8,0.0142056,10,-0.00502731,-1.33779,-0.193724,-0.304558,544.715,0.109427,
2,0,0,1,0,9838.51,0.107245,0.107016,-47.2227,8,0.0140191,10,-0.00505361,-1.32585,-0.205413,-0.287226,528.327,0.107016,
2,0,0,1,0,9838.52,0.104848,0.104649,-48.4949,8,0.0138275,10,-0.00507492,-1.3143,-0.216003,-0.273144,515.572,0.104649,
2,0,0,1,0,9838.52,0.10244,0.102254,-49.718,8,0.013631,10,-0.00508388,-1.30349,-0.229763,-0.256786,496.726,0.102254,
2,0,0,1,0,9838.52,0.100042,0.0998651,-50.872,8,0.0134297,10,-0.00508034,-1.29352,-0.244934,-0.240881,477.11,0.0998651,
2,0,0,1,0,9838.53,0.0976454,0.0974293,-51.9849,8,0.0132238,10,-0.00506486,-1.28412,-0.260107,-0.22683,459.394,0.0974293,
2,0,0,1,0,9838.53,0.0952427,0.0950434,-53.0776,8,0.0130136,10,-0.00504468,-1.27509,-0.274066,-0.215276,445.19,0.0950434,
2,0,0,1,0,9838.54,0.0928428,0.0926426,-54.1335,8,0.0127991,10,-0.00501507,-1.26653,-0.291267,-0.202563,427.016,0.0926426,
2,0,0,1,0,9838.54,0.0904457,0.0902249,-55.1637,8,0.0125804,10,-0.00497714,-1.25835,-0.314443,-0.187633,402.816,0.0902249,
2,0,0,1,0,9838.54,0.0880486,0.0877955,-56.0987,8,0.0123577,10,-0.00492521,-1.25105,-0.342721,-0.172151,375.811,0.0877955,
2,0,0,1,0,9838.55,0.0856404,0.0853396,-56.9865,8,0.0121314,10,-0.0048632,-1.24423,-0.3763,-0.15679,347.659,0.0853396,
2,0,0,1,0,9838.55,0.0832433,0.082942,-57.7791,8,0.0119018,10,-0.00479232,-1.23823,-0.415951,-0.141844,318.992,0.082942,
2,0,0,1,0,9838.56,0.0808462,0.0806251,-58.5012,8,0.0116692,10,-0.00471666,-1.23284,-0.463442,-0.127308,289.986,0.08062505,
2,0,0,1,0,9838.56,0.0784408,0.0781437,-59.1776,8,0.0114337,10,-0.00462435,-1.22784,-0.527499,-0.111849,257.548,0.0781437,
2,0,0,1,0,9838.56,0.0760437,0.0757525,-59.7666,8,0.0111958,10,-0.00452747,-1.22354,-0.61743,-0.0955575,222.159,0.0757525,
2,0,0,1,0,9838.57,0.0736466,0.0733825,-60.2412,8,0.0109557,10,-0.00442065,-1.22011,-0.734194,-0.0803603,188.419,0.0733825,
2,0,0,1,0,9838.57,0.0712495,0.070935,-60.6539,8,0.0107138,10,-0.00430249,-1.21714,-0.915706,-0.0644311,152.119,0.070935,
2,0,0,1,0,9838.58,0.0688413,0.0685322,-60.9886,8,0.0104705,10,-0.00417968,-1.21475,-1.1702,-0.0504186,119.664,0.0685322,
2,0,0,1,0,9838.58,0.0664442,0.0661314,-61.2301,8,0.010226,10,-0.00404924,-1.21303,-1.70147,-0.0346759,82.6147,0.0661314,
2,0,0,1,0,9838.58,0.0640471,0.0637603,-61.3926,8,0.00998073,10,-0.00391441,-1.21188,-3.18091,-0.0185481,44.3017,0.06376034,
2,0,0,1,0,9838.59,0.0616389,0.0613925,-61.4423,8,0.00973506,10,-0.00377209,-1.21153,-19.9413,-0.00295869,7.07404,0.0613925,
2,0,0,1,0,9838.59,0.0592417,0.0589419,-61.4134,8,0.00948932,10,-0.00361982,-1.21174,4.81529,0.0122526,-29.2895,0.0589419,
2,0,0,1,0,9838.6,0.0568446,0.0565909,-61.2976,8,0.0092439,10,-0.00346889,-1.21256,2.37336,0.0248593,-59.3308,0.0565909,
2,0,0,1,0,9838.6,0.0544475,0.0541573,-61.1113,8,0.00899909,10,-0.00330962,-1.21388,1.521,0.0387903,-92.2975,0.0541573,
2,0,0,1,0,9838.6,0.0520421,0.0517056,-60.8675,8,0.00875512,10,-0.00314719,-1.21561,1.16729,0.0505444,-119.772,0.0517056,
2,0,0,1,0,9838.61,0.049645,0.0493165,-60.525,8,0.00851233,10,-0.00298489,-1.21806,0.978947,0.0602689,-142.12,0.0493165,
2,0,0,1,0,9838.61,0.0472479,0.0469423,-60.142,8,0.00827103,10,-0.0028232,-1.22082,0.832072,0.0709073,-166.24,0.0469423,
2,0,0,1,0,9838.62,0.0448397,0.0444981,-59.7385,8,0.00803132,10,-0.00265825,-1.22375,0.770199,0.0766036,-178.377,0.04449806,
2,0,0,1,0,9838.62,0.0424426,0.0421896,-59.2856,8,0.00779332,10,-0.00250123,-1.22705,0.712542,0.0828021,-191.356,0.0421896,
2,0,0,1,0,9838.62,0.0400455,0.0397305,-58.8151,8,0.00755717,10,-0.00233675,-1.23051,0.664158,0.0888343,-203.715,0.0397305,
2,0,0,1,0,9838.63,0.0376456,0.0373106,-58.2989,8,0.00732298,10,-0.00217517,-1.23434,0.645418,0.0914137,-207.903,0.0373106,
2,0,0,1,0,9838.63,0.035243,0.0349396,-57.7913,8,0.00709083,10,-0.0020192,-1.23814,0.617685,0.0955179,-215.367,0.0349396,
2,0,0,1,0,9838.64,0.0328459,0.0325293,-57.2772,8,0.00686075,10,-0.00186318,-1.24202,0.613544,0.0961625,-214.892,0.03252925,
2,0,0,1,0,9838.64,0.0304488,0.0301168,-56.7446,8,0.00663274,10,-0.00170897,-1.24608,0.593236,0.0994545,-220.181,0.0301168,
2,0,0,1,0,9838.64,0.0280406,0.0276991,-56.2335,8,0.00640686,10,-0.00155762,-1.25001,0.575236,0.102567,-224.911,0.0276991,
2,0,0,1,0,9838.65,0.0256435,0.0253344,-55.6765,8,0.00618309,10,-0.00141053,-1.25433,0.558039,0.105727,-229.576,0.0253344,
2,0,0,1,0,9838.65,0.0232463,0.0229039,-55.1123,8,0.00596157,10,-0.00126229,-1.25875,0.535641,0.110148,-236.832,0.0229039,
2,0,0,1,0,9838.66,0.0208437,0.0205435,-54.5468,8,0.00574233,10,-0.00112058,-1.26323,0.519297,0.113615,-241.696,0.0205435,
2,0,0,1,0,9838.66,0.018441,0.0181364,-53.9687,8,0.00552533,10,-0.000978796,-1.26786,0.497626,0.118563,-249.446,0.0181364,
2,0,0,1,0,9838.66,0.0160439,0.015743,-53.3583,8,0.00531075,10,-0.00084002,-1.2728,0.47417,0.124428,-258.814,0.015743,
2,0,0,1,0,9838.67,0.0136468,0.0133295,-52.724,8,0.00509864,10,-0.000702787,-1.27799,0.451948,0.130546,-268.34,0.0133295,
2,0,0,1,0,9838.67,0.0112414,0.0109627,-52.0672,8,0.0048891,10,-0.000570797,-1.28344,0.430421,0.137075,-278.215,0.0109627,
2,0,0,1,0,9838.68,0.00884431,0.00853013,-51.391,8,0.00468226,10,-0.000438372,-1.28911,0.409535,0.144066,-288.55,0.00853013,
2,0,0,1,0,9838.68,0.0064472,0.00610816,-50.6777,8,0.00447818,10,-0.000309548,-1.29518,0.399049,0.147851,-292.166,0.00610816,
2,0,0,1,0,9838.68,0.00404455,0.00369362,-49.9436,8,0.00427703,10,-0.000184472,-1.30152,0.371347,0.158881,-309.323,0.00369362,
2,0,0,1,0,9838.69,0.0016419,0.0012409,-49.2268,8,0.00407883,10,-6.10854e-05,-1.3078,0.350205,0.168473,-322.896,0.0012409,
2,0,0,1,0,9838.69,-0.000755208,-0.00110684,-48.41,8,0.00388362,10,5.35823e-05,-1.31506,0.335374,0.175923,-331.822,-0.00110684,
2,0,0,1,0,9838.7,-0.00315231,-0.00350124,-47.5749,8,0.00369175,10,0.000166571,-1.32262,0.314846,0.187393,-347.69,-0.003501242,
2,0,0,1,0,9838.7,-0.00555774,-0.00592427,-46.7522,8,0.00350316,10,0.000276973,-1.3302,0.3066,0.192433,-350.787,-0.00592427,
2,0,0,1,0,9838.7,-0.00795485,-0.00833988,-45.8957,8,0.00331793,10,0.000382764,-1.33823,0.305758,0.192963,-345.561,-0.00833988,
2,0,0,1,0,9838.71,-0.010352,-0.0106908,-45.0481,8,0.00313612,10,0.000481601,-1.34632,0.30147,0.195708,-344.27,-0.0106908,
2,0,0,1,0,9838.71,-0.0127546,-0.0131552,-44.2388,8,0.00295765,10,0.00058197,-1.3542,0.305081,0.193392,-334.134,-0.0131552,
2,0,0,1,0,9838.72,-0.0151573,-0.0155549,-43.4366,8,0.00278239,10,0.000675652,-1.36214,0.313281,0.188329,-319.626,-0.0155549,
2,0,0,1,0,9838.72,-0.0175544,-0.0179482,-42.6852,8,0.00261024,10,0.000766124,-1.36972,0.319984,0.184384,-307.619,-0.0179482,
2,0,0,1,0,9838.72,-0.0199515,-0.0203437,-41.9628,8,0.00244105,10,0.000853678,-1.37714,0.335056,0.17609,-288.927,-0.0203437,
2,0,0,1,0,9838.73,-0.0223597,-0.0227317,-41.2929,8,0.00227462,10,0.000938659,-1.38412,0.352623,0.167318,-270.228,-0.0227317,
2,0,0,1,0,9838.73,-0.0247568,-0.0250996,-40.6789,8,0.00211075,10,0.00102102,-1.39063,0.383681,0.153774,-244.739,-0.0250996,
2,0,0,1,0,9838.74,-0.0271539,-0.0274855,-40.108,8,0.00194925,10,0.00110239,-1.39677,0.417915,0.141177,-221.622,-0.0274855,
2,0,0,1,0,9838.74,-0.0295593,-0.0299107,-39.6214,8,0.00178987,10,0.0011851,-1.40207,0.455475,0.129535,-200.736,-0.0299107,
2,0,0,1,0,9838.74,-0.0319564,-0.0322934,-39.1738,8,0.00163234,10,0.00126506,-1.407,0.511917,0.115253,-176.561,-0.0322934,
2,0,0,1,0,9838.75,-0.0343535,-0.0346995,-38.7519,8,0.00147655,10,0.00134467,-1.41171,0.577802,0.102111,-154.91,-0.0346995,
2,0,0,1,0,9838.75,-0.0367506,-0.0370949,-38.4113,8,0.00132227,10,0.00142486,-1.41554,0.657813,0.0896912,-134.837,-0.0370949,
2,0,0,1,0,9838.76,-0.0391588,-0.039519,-38.133,8,0.00116921,10,0.00150698,-1.4187,0.783813,0.0752731,-112.243,-0.039519,
2,0,0,1,0,9838.76,-0.0415559,-0.041924,-37.8753,8,0.00101724,10,0.00158788,-1.42164,0.910173,0.0648228,-95.9984,-0.04192403,
2,0,0,1,0,9838.76,-0.043953,-0.0443449,-37.6692,8,0.000866209,10,0.00167044,-1.42401,1.06549,0.0553737,-81.5588,-0.0443449,
2,0,0,1,0,9838.77,-0.0463585,-0.0467383,-37.4856,8,0.000715926,10,0.00175201,-1.42614,1.34151,0.0439804,-64.4776,-0.0467383,
2,0,0,1,0,9838.77,-0.0487556,-0.0491189,-37.35,8,0.000566266,10,0.00183459,-1.42771,1.69483,0.0348117,-50.8459,-0.0491189,
2,0,0,1,0,9838.78,-0.0511527,-0.0515144,-37.2569,8,0.000417076,10,0.00191927,-1.42879,2.51174,0.0234897,-34.2142,-0.05151435,
2,0,0,1,0,9838.78,-0.0535498,-0.053913,-37.1827,8,0.000268221,10,0.00200463,-1.42966,3.69905,0.0159501,-23.1804,-0.05391299,
2,0,0,1,0,9838.78,-0.055958,-0.0562862,-37.1589,8,0.00011955,10,0.00209153,-1.42994,6.51499,0.00905603,-13.1454,-0.0562862,
2,0,0,1,0,9838.79,-0.0583551,-0.0587039,-37.1278,8,-2.90168e-05,10,0.00217955,-1.4303,-120.843,-0.000488236,0.708557,-0.0587039,
2,0,0,1,0,9838.79,-0.0607522,-0.0610866,-37.1311,8,-0.000177512,10,0.00226821,-1.43026,-11.4442,-0.00515546,7.48367,-0.0610866,
2,0,0,1,0,9838.8,-0.0631604,-0.0635372,-37.1896,8,-0.000326145,10,0.00236292,-1.42958,-4.63352,-0.0127333,18.4944,-0.0635372,
2,0,0,1,0,9838.8,-0.0655575,-0.0659136,-37.2309,8,-0.000474984,10,0.00245403,-1.4291,-3.09616,-0.0190559,27.7133,-0.06591361,
2,0,0,1,0,9838.8,-0.0679546,-0.0683006,-37.3053,8,-0.000624043,10,0.00254797,-1.42823,-2.70843,-0.0217839,31.7456,-0.06830059,
2,0,0,1,0,9838.81,-0.0703573,-0.0707311,-37.3984,8,-0.000773443,10,0.00264523,-1.42715,-2.08728,-0.0282665,41.29,-0.0707311,
2,0,0,1,0,9838.81,-0.0727571,-0.0730841,-37.4926,8,-0.000923227,10,0.00274011,-1.42605,-1.80576,-0.0326733,47.8618,-0.0730841,
2,0,0,1,0,9838.82,-0.0751542,-0.0755283,-37.6279,8,-0.00107347,10,0.00284197,-1.42449,-1.55873,-0.0378514,55.6388,-0.0755283,
2,0,0,1,0,9838.82,-0.0775514,-0.0779026,-37.7649,8,-0.00122426,10,0.00294198,-1.42291,-1.44396,-0.04086,60.2482,-0.0779026,
2,0,0,1,0,9838.82,-0.0799595,-0.0803214,-37.9319,8,-0.00137563,10,0.00304675,-1.42099,-1.37059,-0.0430472,63.7293,-0.0803214,
2,0,0,1,0,9838.83,-0.0823567,-0.0827073,-38.0724,8,-0.00152765,10,0.00314887,-1.41939,-1.2467,-0.0473249,70.3756,-0.0827073,
2,0,0,1,0,9838.83,-0.0847538,-0.0851664,-38.2422,8,-0.0016803,10,0.00325695,-1.41746,-1.17754,-0.0501045,74.8725,-0.0851664,
2,0,0,1,0,9838.84,-0.0871592,-0.0875629,-38.4447,8,-0.00183365,10,0.00336633,-1.41516,-1.08916,-0.0541704,81.3107,-0.0875629,
2,0,0,1,0,9838.84,-0.0895563,-0.0899064,-38.6496,8,-0.00198788,10,0.00347485,-1.41285,-1.0383,-0.0568238,85.7109,-0.08990638,
2,0,0,1,0,9838.84,-0.0919534,-0.0923008,-38.8525,8,-0.00214289,10,0.00358611,-1.41058,-1.00204,-0.0588798,89.3176,-0.0923008,
2,0,0,1,0,9838.85,-0.0943505,-0.0947015,-39.0594,8,-0.00229873,10,0.00369899,-1.40827,-0.965149,-0.0611305,93.2694,-0.0947015,
2,0,0,1,0,9838.85,-0.0967587,-0.0971055,-39.2971,8,-0.00245548,10,0.00381596,-1.40564,-0.923278,-0.0639027,97.8709,-0.0971055,
2,0,0,1,0,9838.86,-0.0991558,-0.0994872,-39.5432,8,-0.00261317,10,0.00393404,-1.40293,-1.3448,-0.0438727,67.2065,-0.0994872,
2,0,0,0,0,9838.86,-0.0999548,-0.100324,-39.6377,8,-0.00266461,10,0.0039766,-1.40189,0.0195459,3.01853,-4281.32,-0.1003238,
2,0,0,0,1,9838.86,-0.0999548,-0.100419,-39.4437,8,-0.0026883,10,0.0039609,-1.40402,-0.0220343,-2.67765,3466.57,-0.100419,
2,0,0,1,1,9838.86,-0.0979573,-0.0984501,-33.5404,8,-0.00279937,10,0.00330205,-1.47443,-0.026817,-2.2001,2585.81,-0.09845008,
2,0,0,1,1,9838.87,-0.0955546,-0.0960207,-27.5264,8,-0.00292065,10,0.00264311,-1.56025,-0.0263042,-2.24299,2369.07,-0.0960207,
2,0,0,1,1,9838.87,-0.093152,-0.0936019,-22.2561,8,-0.00301949,10,0.00208322,-1.65255,-0.0241589,-2.44216,2092.92,-0.0936019,
2,0,0,1,1,9838.87,-0.0907548,-0.0911958,-17.5928,8,-0.00309859,10,0.00160439,-1.75467,-0.0210371,-2.80457,1861.32,-0.0911958,
2,0,0,1,1,9838.88,-0.0883578,-0.0888322,-13.4109,8,-0.00316007,10,0.00119132,-1.87254,-0.0171491,-3.44042,1678.97,-0.0888322,
2,0,0,1,1,9838.88,-0.0859523,-0.0863805,-9.58305,8,-0.00320559,10,0.000827789,-2.0185,-0.0123844,-4.76408,1525.49,-0.0863805,
2,0,0,1,1,9838.89,-0.0835552,-0.0839957,-6.1276,8,-0.00323657,10,0.000514692,-2.21271,-0.00390804,-15.0971,1390.3,-0.0839957,
2,0,0,1,1,9838.89,-0.0811581,-0.0816002,-2.95472,8,-0.00325432,10,0.000241106,-2.52948,-0.0168434,-3.50286,1274.52,-0.0816002,
2,0,0,1,1,9838.89,-0.0787555,-0.0792196,-0.0465327,8,-0.00325997,10,3.6863e-06,-4.33224,-0.113853,-0.518213,1167.89,-0.0792196,
2,1,0,1,1,9838.9,-0.0763528,-0.0768252,2.59537,8,-0.00325454,10,-0.00019939,-2.5858,0.0244243,2.41563,1068.09,-0.0768252,
2,1,0,1,1,9838.9,-0.0739557,-0.0744255,5.04932,8,-0.00323897,10,-0.000375798,-2.29677,0.00414646,14.229,987.944,-0.0744255,
2,1,0,1,1,9838.91,-0.0715586,-0.0719866,7.31352,8,-0.00321397,10,-0.000526475,-2.13587,0.0149334,3.95087,913.003,-0.0719866,
2,1,0,1,1,9838.91,-0.0691532,-0.0696611,9.39674,8,-0.00318032,10,-0.000654587,-2.02702,0.0231337,2.5504,840.54,-0.0696611,
2,1,0,1,1,9838.91,-0.0667561,-0.0672773,11.3126,8,-0.00313868,10,-0.000761084,-1.94644,0.031336,1.88282,779.843,-0.0672773,
2,1,0,1,1,9838.92,-0.0643589,-0.0648468,13.1006,8,-0.00308962,10,-0.00084953,-1.88271,0.0402644,1.46531,717.438,-0.0648468,
2,1,0,1,1,9838.92,-0.0619563,-0.0624111,14.7809,8,-0.00303367,10,-0.000922491,-1.8303,0.0493201,1.19627,667.315,-0.0624111,
2,1,0,1,1,9838.93,-0.0595536,-0.0599976,16.3297,8,-0.00297126,10,-0.000979743,-1.78702,0.0590762,0.99871,619.805,-0.0599976,
2,1,0,1,1,9838.93,-0.0571565,-0.0576202,17.757,8,-0.00290291,10,-0.00102316,-1.75063,0.0702822,0.839473,569.846,-0.0576202,
2,1,0,1,1,9838.93,-0.0547594,-0.0552046,19.0769,8,-0.00282908,10,-0.00105313,-1.71949,0.0819683,0.71979,526.675,-0.0552046,
2,1,0,1,1,9838.94,-0.0523512,-0.0527306,20.2973,8,-0.00275016,10,-0.00107029,-1.69256,0.0958406,0.615605,480.431,-0.0527306,
2,1,0,1,1,9838.94,-0.0499541,-0.0503787,21.3958,8,-0.00266664,10,-0.00107789,-1.66967,0.109421,0.539201,445.063,-0.0503787,
2,1,0,1,1,9838.95,-0.047557,-0.0479185,22.418,8,-0.00257888,10,-0.00107424,-1.6494,0.12423,0.474927,411.671,-0.0479185,
2,1,0,1,1,9838.95,-0.0451544,-0.0455633,23.3678,8,-0.00248719,10,-0.00106472,-1.63138,0.141656,0.416502,376.486,-0.0455633,
2,1,0,1,1,9838.95,-0.0427545,-0.043152,24.2405,8,-0.00239187,10,-0.00104603,-1.61546,0.15989,0.369004,346.151,-0.043152,
2,1,0,1,1,9838.96,-0.0403574,-0.040747,25.022,8,-0.00229325,10,-0.00101957,-1.60168,0.18045,0.326961,317.245,-0.040747,
2,1,0,1,1,9838.96,-0.0379603,-0.0383473,25.7311,8,-0.00219165,10,-0.000986716,-1.58954,0.203166,0.290402,290.255,-0.0383473,
2,1,0,1,1,9838.97,-0.0355521,-0.0359476,26.4184,8,-0.00208726,10,-0.000949677,-1.57809,0.227066,0.259836,266.471,-0.0359476,
2,1,0,1,1,9838.97,-0.033155,-0.0335383,27.0309,8,-0.00198029,10,-0.000906572,-1.56814,0.253686,0.232571,244.077,-0.03353833,
2,1,0,1,1,9838.97,-0.0307579,-0.0311673,27.5747,8,-0.00187102,10,-0.000859427,-1.55949,0.288338,0.204621,219.277,-0.0311673,
2,1,0,1,1,9838.98,-0.0283524,-0.0287018,28.0853,8,-0.00175965,10,-0.000806099,-1.55152,0.325473,0.181275,197.896,-0.0287018,
2,1,0,1,1,9838.98,-0.0259553,-0.0263371,28.5257,8,-0.00164634,10,-0.000751286,-1.54476,0.364134,0.162028,179.797,-0.0263371,
2,1,0,1,1,9838.99,-0.0235582,-0.0239098,28.9364,8,-0.00153137,10,-0.000691864,-1.53856,0.408436,0.144453,162.69,-0.0239098,
2,1,0,1,1,9838.99,-0.0211611,-0.0215176,29.3097,8,-0.00141481,10,-0.000630672,-1.53299,0.45623,0.129321,147.513,-0.0215176,
2,1,0,1,1,9838.99,-0.0187529,-0.0191147,29.645,8,-0.00129684,10,-0.000566655,-1.52805,0.51906,0.113667,131.119,-0.0191147,
2,1,0,1,1,9839,-0.0163558,-0.0167404,29.9414,8,-0.00117762,10,-0.000501231,-1.52373,0.595926,0.0990055,115.369,-0.0167404,
2,1,0,1,1,9839,-0.0139587,-0.0143694,30.1873,8,-0.00105735,10,-0.000433772,-1.52018,0.677534,0.0870805,102.407,-0.0143694,
2,1,0,1,1,9839.01,-0.0115505,-0.0119484,30.4136,8,-0.000936136,10,-0.000363396,-1.51693,0.803267,0.07345,87.0212,-0.0119484,
2,1,0,1,1,9839.01,-0.0091534,-0.00952966,30.6266,8,-0.000814035,10,-0.000291861,-1.5139,0.935776,0.0630493,75.1704,-0.00952966,
2,1,0,1,1,9839.01,-0.00675629,-0.00712677,30.778,8,-0.0006912,10,-0.000219348,-1.51176,1.07776,0.054743,65.6508,-0.00712677,
2,1,0,1,1,9839.02,-0.00435919,-0.00469632,30.9144,8,-0.00056779,10,-0.000145184,-1.50984,1.64703,0.0358221,43.0905,-0.00469632,
2,1,0,1,1,9839.02,-0.00195376,-0.00231041,31.0464,8,-0.000443831,10,-7.17297e-05,-1.50799, , , ,-0.00231041,
2,1,0,1,1,9839.03,-7.54729e-05,-0.00042076,31.0191,8,-0.000347523,10,-1.30516e-05,-1.50837, , , ,-0.00042076,