File: Figure_codes/Fig_3-5/rawdata_trumpetplot_data/before 10th/20221101_1-115_002_TrumpetPlot_ParaChange_14_CV_C01_0.csv
mode,ox/red,error,control changes,counter inc.,time/s,control/V,Ewe/V,<I>/mA,cycle number,(Q-Qo)/C,I Range,P/W,log(|I|),Tafel slope mV/dec,alpha_eff,dI/d(E-IR),E-IR/V,
2,1,0,0,0,1216.29,2.44065e-05,-0.000840681,21.8278,1,0.0000000E+000,10,-1.83502e-05,-1.66099, , , ,-0.0008406812,
2,1,0,1,0,1216.3,0.00188327,0.0014551,22.9719,1,7.03943e-05,10,3.34264e-05,-1.6388, , , ,0.001455099,
2,1,0,1,0,1216.3,0.00428592,0.00396296,24.0372,1,0.000164581,10,9.52583e-05,-1.61912, , , ,0.00396296,
2,1,0,1,0,1216.3,0.0066858,0.0063616,24.9912,1,0.000262765,10,0.000158984,-1.60221,0.150236,0.392714,379.644,0.0063616,
2,1,0,1,0,1216.31,0.00908291,0.00878145,25.8685,1,0.000364604,10,0.000227163,-1.58723,0.169825,0.347417,347.995,0.008781448,
2,1,0,1,0,1216.31,0.01148,0.0111716,26.6607,1,0.000469769,10,0.000297843,-1.57413,0.196977,0.299527,309.136,0.0111716,
2,1,0,1,0,1216.32,0.0138882,0.013531,27.3668,1,0.000577905,10,0.0003703,-1.56278,0.231615,0.254733,269.792,0.013531,
2,1,0,1,0,1216.32,0.0162853,0.0159487,27.955,1,0.000688639,10,0.000445847,-1.55354,0.275663,0.21403,231.859,0.0159487,
2,1,0,1,0,1216.32,0.0186824,0.0183453,28.4488,1,0.00080152,10,0.0005219,-1.54594,0.333181,0.177081,195.592,0.0183453,
2,1,0,1,0,1216.33,0.0210878,0.020764,28.8848,1,0.000916245,10,0.000599766,-1.53933,0.399339,0.147744,165.74,0.02076404,
2,1,0,1,0,1216.33,0.023485,0.0231998,29.2579,1,0.00103258,10,0.000678778,-1.53376,0.480835,0.122703,139.435,0.0231998,
2,1,0,1,0,1216.34,0.0258821,0.0255634,29.5485,1,0.00115025,10,0.000755362,-1.52946,0.579449,0.101821,117.006,0.0255634,
2,1,0,1,0,1216.34,0.0282792,0.0280098,29.7963,1,0.00126899,10,0.000834589,-1.52584,0.736689,0.080088,92.8287,0.0280098,
2,1,0,1,0,1216.34,0.0306874,0.0303947,30.0117,1,0.00138865,10,0.000912194,-1.52271,0.901998,0.0654104,76.3631,0.0303947,
2,1,0,1,0,1216.35,0.0330845,0.0327636,30.1457,1,0.00150898,10,0.000987682,-1.52077,1.1165,0.0528439,62.0611,0.0327636,
2,1,0,1,0,1216.35,0.0354816,0.0351728,30.2823,1,0.00162985,10,0.00106512,-1.51881,1.47745,0.0399337,47.1241,0.0351728,
2,1,0,1,0,1216.36,0.0378898,0.0375927,30.3911,1,0.00175121,10,0.00114248,-1.51725,1.80079,0.0327635,38.784,0.0375927,
2,1,0,1,0,1216.36,0.0402869,0.039985,30.4636,1,0.00187294,10,0.00121809,-1.51622,2.60151,0.0226791,26.9172,0.039985,
2,1,0,1,0,1216.36,0.042684,0.0423836,30.5188,1,0.00199493,10,0.0012935,-1.51543,3.04498,0.0193762,23.0649,0.0423836,
2,1,0,1,0,1216.37,0.0450811,0.0447939,30.5413,1,0.00211704,10,0.00136806,-1.51511,3.888,0.0151749,18.0926,0.0447939,
2,1,0,1,0,1216.37,0.0474865,0.0471692,30.6119,1,0.00223939,10,0.00144394,-1.51411,5.00378,0.0117911,14.0749,0.0471692,
2,1,0,1,0,1216.38,0.0498836,0.0495392,30.6365,1,0.0023619,10,0.00151771,-1.51376,4.18693,0.0140915,16.8403,0.0495392,
2,1,0,1,0,1216.38,0.0522807,0.0519813,30.6539,1,0.00248448,10,0.00159343,-1.51351,6.09513,0.00967985,11.5853,0.0519813,
2,1,0,1,0,1216.38,0.0546889,0.0543556,30.7023,1,0.00260718,10,0.00166884,-1.51283,4.62671,0.012752,15.2835,0.0543556,
2,1,0,1,0,1216.39,0.057086,0.0567277,30.7227,1,0.00273005,10,0.00174283,-1.51254,3.31155,0.0178164,21.3852,0.0567277,
2,1,0,1,0,1216.39,0.0594831,0.0591571,30.7835,1,0.00285307,10,0.00182106,-1.51168,3.06517,0.0192485,23.1474,0.0591571,
2,1,0,1,0,1216.4,0.061883,0.0615367,30.8583,1,0.00297634,10,0.00189891,-1.51063,2.24369,0.0262959,31.6857,0.06153667,
2,1,0,1,0,1216.4,0.0642857,0.0639682,30.9248,1,0.00309993,10,0.0019782,-1.50969,1.95022,0.030253,36.5522,0.0639682,
2,1,0,1,0,1216.4,0.0666828,0.0663785,31.0285,1,0.00322383,10,0.00205962,-1.50824,1.55267,0.0379991,46.0911,0.0663785,
2,1,0,1,0,1216.41,0.0690799,0.0687612,31.1345,1,0.00334818,10,0.00214085,-1.50676,1.20786,0.0488466,59.4947,0.0687612,
2,1,0,1,0,1216.41,0.0714881,0.0711779,31.3026,1,0.00347306,10,0.00222805,-1.50442,1.04659,0.0563737,68.99,0.0711779,
2,1,0,1,0,1216.42,0.0738852,0.0735511,31.495,1,0.00359866,10,0.00231649,-1.50176,0.88831,0.0664183,81.7169,0.0735511,
2,1,0,1,0,1216.42,0.0762823,0.0759603,31.6895,1,0.00372506,10,0.00240715,-1.49908,0.793878,0.0743188,92.0667,0.0759603,
2,1,0,1,0,1216.42,0.0786849,0.0783685,31.9196,1,0.00385229,10,0.00250149,-1.49594,0.725115,0.0813665,101.554,0.0783685,
2,1,0,1,0,1216.43,0.0810876,0.0807767,32.1864,1,0.00398055,10,0.00259991,-1.49233,0.640835,0.0920674,115.851,0.0807767,
2,1,0,1,0,1216.43,0.0834847,0.0831668,32.4715,1,0.00410988,10,0.00270055,-1.4885,0.578402,0.102005,129.526,0.08316683,
2,1,0,1,0,1216.44,0.0858818,0.0855655,32.8023,1,0.00424045,10,0.00280674,-1.4841,0.552873,0.106715,136.759,0.0855655,
2,1,0,1,0,1216.44,0.0882872,0.0879556,33.1614,1,0.00437241,10,0.00291673,-1.47937,0.517567,0.113995,147.575,0.0879556,
2,1,0,1,0,1216.44,0.0906843,0.0903585,33.4968,1,0.00450573,10,0.00302672,-1.475,0.479065,0.123157,161.33,0.0903585,
2,1,0,1,0,1216.45,0.0930814,0.0927211,33.8815,1,0.00464053,10,0.00314153,-1.47004,0.438511,0.134546,178.572,0.0927211,
2,1,0,1,0,1216.45,0.0954841,0.0950996,34.3404,1,0.004777,10,0.00326576,-1.46419,0.399305,0.147757,198.585,0.0950996,
2,1,0,1,0,1216.46,0.0978867,0.0975152,34.8684,1,0.00491548,10,0.0034002,-1.45757,0.375336,0.157192,214.119,0.0975152,
2,1,0,1,0,1216.46,0.100284,0.0999244,35.3964,1,0.00505607,10,0.00353697,-1.45104,0.358401,0.16462,227.603,0.0999244,
2,1,0,1,0,1216.46,0.102681,0.102356,35.9445,1,0.00519879,10,0.00367913,-1.44437,0.35209,0.167571,235.379,0.102356,
2,1,0,1,0,1216.47,0.105086,0.104745,36.5358,1,0.0053438,10,0.00382694,-1.43728,0.34421,0.171407,244.602,0.104745,
2,1,0,1,0,1216.47,0.107483,0.107164,37.1395,1,0.00549122,10,0.00398001,-1.43016,0.33161,0.17792,258.13,0.107164,
2,1,0,1,0,1216.48,0.109881,0.109585,37.7593,1,0.00564107,10,0.00413785,-1.42298,0.328311,0.179708,265.093,0.109585,
2,1,0,1,0,1216.48,0.112289,0.111997,38.4331,1,0.00579352,10,0.0043044,-1.41529,0.320371,0.184161,276.332,0.111997,
2,1,0,1,0,1216.48,0.114686,0.114376,39.0888,1,0.00594862,10,0.0044708,-1.40795,0.309922,0.19037,290.727,0.114376,
2,1,0,1,0,1216.49,0.117083,0.116741,39.7861,1,0.00610644,10,0.00464469,-1.40027,0.305762,0.19296,300.096,0.116741,
2,1,0,1,0,1216.49,0.11948,0.119135,40.5358,1,0.00626716,10,0.00482922,-1.39216,0.299364,0.197085,312.049,0.119135,
2,1,0,1,0,1216.5,0.121888,0.121555,41.3013,1,0.00643092,10,0.00502036,-1.38404,0.294024,0.200664,323.613,0.121555,
2,1,0,1,0,1216.5,0.124285,0.123988,42.0884,1,0.00659778,10,0.00521846,-1.37584,0.289502,0.203798,335.049,0.123988,
2,1,0,1,0,1216.5,0.126682,0.126361,42.8993,1,0.00676783,10,0.00542082,-1.36755,0.282778,0.208644,349.79,0.126361,
2,1,0,1,0,1216.51,0.129088,0.128746,43.7561,1,0.00694121,10,0.00563344,-1.35896,0.276073,0.213712,365.418,0.128746,
2,1,0,1,0,1216.51,0.131485,0.131148,44.657,1,0.00711812,10,0.00585668,-1.35011,0.270131,0.218413,380.989,0.1311481,
2,1,0,1,0,1216.52,0.133882,0.133552,45.5831,1,0.00729871,10,0.00608772,-1.3412,0.265769,0.221997,395.336,0.133552,
2,1,0,1,0,1216.52,0.136279,0.135924,46.5426,1,0.00748304,10,0.00632626,-1.33215,0.261074,0.22599,410.969,0.135924,
2,1,0,1,0,1216.52,0.138687,0.138362,47.5576,1,0.00767136,10,0.00658017,-1.32278,0.256001,0.230468,428.27,0.138362,
2,1,0,1,0,1216.53,0.141085,0.140724,48.5922,1,0.00786375,10,0.00683807,-1.31343,0.249344,0.236621,449.503,0.140724,
2,1,0,1,0,1216.53,0.143482,0.143179,49.7063,1,0.00806044,10,0.00711692,-1.30359,0.244674,0.241137,468.386,0.143179,
2,1,0,1,0,1216.54,0.145887,0.14556,50.874,1,0.00826172,10,0.00740522,-1.2935,0.24165,0.244154,485.004,0.1455601,
2,1,0,1,0,1216.54,0.148284,0.147958,52.052,1,0.00846767,10,0.0077015,-1.28356,0.237261,0.248671,505.538,0.147958,
2,1,0,1,0,1216.54,0.150681,0.150388,53.2796,1,0.00867847,10,0.00801262,-1.27344,0.23558,0.250446,521.372,0.150388,
2,1,0,1,0,1216.55,0.153084,0.152763,54.5513,1,0.00889426,10,0.00833345,-1.26319,0.231534,0.254822,543.194,0.152763,
2,1,0,1,0,1216.55,0.155487,0.155179,55.889,1,0.00911526,10,0.0086728,-1.25267,0.228504,0.258201,563.508,0.155179,
2,1,0,1,0,1216.56,0.157884,0.157567,57.2718,1,0.00934172,10,0.00902415,-1.24206,0.227882,0.258906,578.667,0.157567,
2,1,0,1,0,1216.56,0.160281,0.159917,58.6491,1,0.00957369,10,0.00937899,-1.23174,0.230747,0.255692,585.269,0.159917,
2,1,0,1,0,1216.56,0.162689,0.162311,60.0764,1,0.00981127,10,0.00975108,-1.2213,0.232708,0.253537,594.31,0.162311,
2,1,0,1,0,1216.57,0.165086,0.16477,61.5026,1,0.0100546,10,0.0101338,-1.21111,0.236684,0.249278,598.184,0.16477,
2,1,0,1,0,1216.57,0.167483,0.167111,62.9437,1,0.0103036,10,0.0105186,-1.20105,0.242161,0.24364,598.324,0.167111,
2,1,0,1,0,1216.58,0.169886,0.169558,64.4163,1,0.0105584,10,0.0109223,-1.191,0.246246,0.239598,601.64,0.169558,
2,1,0,1,0,1216.58,0.172286,0.171982,65.8627,1,0.0108192,10,0.0113272,-1.18136,0.254671,0.231672,594.572,0.171982,
2,1,0,1,0,1216.58,0.174683,0.17435,67.2661,1,0.0110856,10,0.0117279,-1.1722,0.264362,0.223179,585.177,0.17435,
2,1,0,1,0,1216.59,0.17708,0.176727,68.661,1,0.0113576,10,0.0121342,-1.16329,0.274168,0.215196,575.898,0.176727,
2,1,0,1,0,1216.59,0.179488,0.179154,70.0315,1,0.0116351,10,0.0125464,-1.15471,0.289048,0.204118,556.831,0.179154,
2,1,0,1,0,1216.6,0.181885,0.181518,71.3546,1,0.011918,10,0.0129522,-1.14658,0.309929,0.190366,528.812,0.181518,
2,1,0,1,0,1216.6,0.184282,0.183933,72.6022,1,0.0122061,10,0.0133539,-1.13905,0.335119,0.176057,497.395,0.183933,
2,1,0,1,0,1216.6,0.186688,0.186362,73.7566,1,0.0124989,10,0.0137454,-1.1322,0.373015,0.15817,453.848,0.1863624,
2,1,0,1,0,1216.61,0.189085,0.188747,74.8032,1,0.0127962,10,0.0141189,-1.12608,0.420602,0.140275,408.121,0.188747,
2,1,0,1,0,1216.61,0.191482,0.191168,75.7341,1,0.0130974,10,0.014478,-1.12071,0.489873,0.120439,354.666,0.191168,
2,1,0,1,0,1216.62,0.193879,0.19356,76.5313,1,0.0134021,10,0.0148134,-1.11616,0.609234,0.096843,287.924,0.19356,
2,1,0,1,0,1216.62,0.196287,0.196013,77.1794,1,0.0137097,10,0.0151282,-1.1125,0.838417,0.0703707,210.755,0.196013,
2,1,0,1,0,1216.62,0.198684,0.198375,77.5752,1,0.0140193,10,0.015389,-1.11028,1.47277,0.0400606,120.557,0.1983747,
2,1,0,1,0,1216.63,0.201081,0.200755,77.7546,1,0.01433,10,0.0156097,-1.10927,11.9098,0.00495389,14.9352,0.200755,
2,1,0,1,0,1216.63,0.20349,0.203191,77.6923,1,0.0146409,10,0.0157864,-1.10962,-1.88537,-0.0312935,-94.1884,0.203191,
2,1,0,1,0,1216.64,0.205887,0.205555,77.3219,1,0.014951,10,0.0158939,-1.1117,-0.800251,-0.0737268,-220.645,0.205555,
2,1,0,1,0,1216.64,0.208284,0.207975,76.671,1,0.015259,10,0.0159456,-1.11537,-0.492313,-0.119842,-355.307,0.207975,
2,1,0,1,0,1216.64,0.210681,0.210417,75.6229,1,0.0155636,10,0.0159123,-1.12135,-0.348717,-0.169192,-494.616,0.210417,
2,1,0,1,0,1216.65,0.213086,0.212826,74.269,1,0.0158634,10,0.0158064,-1.12919,-0.26276,-0.224539,-644.273,0.212826,
2,1,0,1,0,1216.65,0.215484,0.215214,72.5442,1,0.016157,10,0.0156125,-1.1394,-0.21072,-0.279992,-784.443,0.215214,
2,1,0,1,0,1216.66,0.217881,0.217616,70.4594,1,0.0164429,10,0.0153331,-1.15206,-0.17377,-0.339529,-923.852,0.217616,
2,1,0,1,0,1216.66,0.220289,0.220026,68.0849,1,0.0167198,10,0.0149804,-1.16695,-0.147452,-0.400131,-1051.54,0.220026,
2,1,0,1,0,1216.66,0.222686,0.222467,65.362,1,0.0169865,10,0.0145409,-1.18467,-0.128294,-0.459881,-1160.96,0.222467,
2,1,0,1,0,1216.67,0.225083,0.224873,62.3871,1,0.0172417,10,0.0140292,-1.2049,-0.112781,-0.523136,-1261.99,0.224873,
2,1,0,1,0,1216.67,0.227483,0.227282,59.2368,1,0.0174847,10,0.0134635,-1.22741,-0.10131,-0.58237,-1334.66,0.227282,
2,1,0,1,0,1216.68,0.229886,0.229651,55.9379,1,0.0177148,10,0.0128462,-1.25229,-0.092674,-0.63664,-1379.09,0.229651,
2,1,0,1,0,1216.68,0.232283,0.232067,52.5494,1,0.0179314,10,0.012195,-1.27943,-0.0858112,-0.687556,-1401.71,0.232067,
2,1,0,1,0,1216.68,0.23468,0.234472,49.1495,1,0.0181344,10,0.0115242,-1.30848,-0.0810019,-0.728378,-1391.86,0.234472,
2,1,0,1,0,1216.69,0.237088,0.236859,45.8133,1,0.018324,10,0.0108513,-1.33901,-0.0775017,-0.761274,-1358.45,0.236859,
2,1,0,1,0,1216.69,0.239485,0.239237,42.5953,1,0.0185005,10,0.0101904,-1.37064,-0.0752579,-0.783971,-1303.3,0.239237,
2,1,0,1,0,1216.7,0.241882,0.241662,39.5157,1,0.0186643,10,0.00954943,-1.40323,-0.0741914,-0.79524,-1230.15,0.241662,
2,1,0,1,0,1216.7,0.244285,0.244059,36.6546,1,0.0188163,10,0.00894589,-1.43587,-0.0743808,-0.793216,-1141.37,0.244059,
2,1,0,1,0,1216.7,0.246687,0.246428,34.0418,1,0.0189574,10,0.00838886,-1.46799,-0.0763458,-0.772799,-1035.42,0.246428,
2,1,0,1,0,1216.71,0.249085,0.248799,31.6819,1,0.0190885,10,0.00788243,-1.49919,-0.0799599,-0.73787,-922.804,0.248799,
2,1,0,1,0,1216.71,0.251482,0.251218,29.6209,1,0.0192108,10,0.00744129,-1.5284,-0.085323,-0.69149,-809.475,0.251218,
2,1,0,1,0,1216.72,0.253887,0.253611,27.8399,1,0.0193255,10,0.0070605,-1.55533,-0.0938209,-0.628858,-692.403,0.253611,
2,1,0,1,0,1216.72,0.256284,0.256013,26.283,1,0.0194336,10,0.00672878,-1.58033,-0.104618,-0.563957,-587.407,0.256013,
2,1,0,1,0,1216.72,0.258681,0.25844,25.0063,1,0.0195359,10,0.00646264,-1.60195,-0.11873,-0.496925,-492.621,0.25844,
2,1,0,1,0,1216.73,0.261084,0.26086,23.9569,1,0.0196337,10,0.00624941,-1.62057,-0.139779,-0.422095,-400.394,0.2608602,
2,1,0,1,0,1216.73,0.263487,0.263213,23.1097,1,0.0197277,10,0.00608279,-1.63621,-0.163655,-0.360514,-329.231,0.263213,
2,1,0,1,0,1216.74,0.265884,0.265634,22.4308,1,0.0198186,10,0.00595838,-1.64916,-0.20017,-0.29475,-260.978,0.265634,
2,1,0,1,0,1216.74,0.268281,0.267985,21.8639,1,0.0199072,10,0.00585919,-1.66027,-0.247641,-0.238248,-205.573,0.267985,
2,1,0,1,0,1216.74,0.270686,0.270413,21.4637,1,0.0199938,10,0.00580408,-1.66829,-0.308151,-0.191464,-161.79,0.2704134,
2,1,0,1,0,1216.75,0.273083,0.272805,21.138,1,0.0200789,10,0.00576654,-1.67494,-0.4187,-0.140913,-117.104,0.272805,
2,1,0,1,0,1216.75,0.27548,0.275147,20.8917,1,0.0201629,10,0.00574828,-1.68003,-0.532435,-0.110812,-90.918,0.275147,
2,1,0,1,0,1216.76,0.277889,0.277631,20.7344,1,0.0202462,10,0.00575649,-1.68331,-0.684822,-0.0861537,-69.9426,0.277631,
2,1,0,1,0,1216.76,0.280286,0.280036,20.5889,1,0.0203288,10,0.00576563,-1.68637,-0.931079,-0.0633674,-51.0564,0.280036,
2,1,0,1,0,1216.76,0.282683,0.282362,20.4695,1,0.0204109,10,0.00577982,-1.68889,-1.22057,-0.048338,-38.7639,0.282362,
2,1,0,1,0,1216.77,0.28508,0.284761,20.4008,1,0.0204926,10,0.00580936,-1.69035,-1.7678,-0.0333747,-26.6499,0.284761,
2,1,0,1,0,1216.77,0.287488,0.287202,20.3633,1,0.0205742,10,0.00584839,-1.69115,-2.52032,-0.0234098,-18.6194,0.287202,
2,1,0,1,0,1216.78,0.289885,0.289663,20.3323,1,0.0206555,10,0.00588953,-1.69181,-3.29151,-0.0179249,-14.2234,0.289663,
2,1,0,1,0,1216.78,0.292282,0.291961,20.2908,1,0.0207368,10,0.00592412,-1.6927,-4.0091,-0.0147165,-11.6632,0.2919609,
2,1,0,1,0,1216.78,0.294688,0.294415,20.2635,1,0.0208179,10,0.00596588,-1.69329,-4.78108,-0.0123403,-9.76993,0.294415,
2,1,0,1,0,1216.79,0.297085,0.296824,20.2511,1,0.0208989,10,0.00601101,-1.69355,-5.30109,-0.0111298,-8.79868,0.296824,
2,1,0,1,0,1216.79,0.299363,0.299088,20.2403,1,0.0209758,10,0.00605362,-1.69378,-0.0784098,-0.752457,-555.425,0.299088,
2,1,0,0,0,1216.79,0.300012,0.299727,20.2225,1,0.0209981,10,0.00606123,-1.69417,0.000293644,200.923,113853,0.299727,
2,1,0,1,0,1216.79,0.299243,0.299164,17.6255,1,0.0210217,10,0.00527292,-1.75386,0.00709214,8.31906,3319.57,0.299164,
2,1,0,1,0,1216.8,0.296846,0.296734,9.98722,1,0.0210755,10,0.00296355,-2.00056,0.00356204,16.5636,2582.06,0.296734,
2,1,0,1,0,1216.8,0.294449,0.294264,4.22714,1,0.0211029,10,0.0012439,-2.37395,0.0137069,4.3044,2162.91,0.294264,
2,1,0,1,0,1216.81,0.292041,0.291847,-0.124058,1,0.0211103,10,-3.6206e-05,-3.90638,0.0431693,1.36671,1632.78,0.291847,
2,0,0,1,0,1216.81,0.289644,0.289428,-3.43397,1,0.0211027,10,-0.000993885,-2.4642,-0.0358575,-1.6454,1250.71,0.289428,
2,0,0,1,0,1216.81,0.287247,0.286981,-5.93651,1,0.0210835,10,-0.00170367,-2.22647,-0.0051444,-11.4688,957.177,0.2869812,
2,0,0,1,0,1216.82,0.284841,0.284596,-7.86432,1,0.0210556,10,-0.00223816,-2.10434,-0.0198259,-2.97591,734.897,0.284596,
2,0,0,1,0,1216.82,0.282444,0.282185,-9.3727,1,0.0210209,10,-0.00264484,-2.02814,-0.033661,-1.75277,573.043,0.282185,
2,0,0,1,0,1216.83,0.280047,0.279792,-10.5154,1,0.0209809,10,-0.00294212,-1.97817,-0.0509339,-1.15836,445.166,0.279792,
2,0,0,1,0,1216.83,0.27765,0.27743,-11.4097,1,0.0209369,10,-0.00316539,-1.94273,-0.072902,-0.809306,345.712,0.27743,
2,0,0,1,0,1216.83,0.275242,0.274995,-12.1383,1,0.0208897,10,-0.00333798,-1.91584,-0.0984572,-0.599245,275.791,0.274995,
2,0,0,1,0,1216.84,0.272845,0.272603,-12.6853,1,0.0208399,10,-0.00345804,-1.8967,-0.128214,-0.460168,223.82,0.272603,
2,0,0,1,0,1216.84,0.270448,0.270168,-13.1694,1,0.0207882,10,-0.00355795,-1.88043,-0.164062,-0.359619,182.407,0.270168,
2,0,0,1,0,1216.85,0.268039,0.267738,-13.579,1,0.0207346,10,-0.0036356,-1.86713,-0.201952,-0.292148,152.881,0.267738,
2,0,0,1,0,1216.85,0.265642,0.265366,-13.8948,1,0.0206796,10,-0.00368721,-1.85715,-0.247004,-0.238863,128.449,0.265366,
2,0,0,1,0,1216.85,0.263245,0.262963,-14.1591,1,0.0206235,10,-0.00372331,-1.84897,-0.291743,-0.202233,111.329,0.262963,
2,0,0,1,0,1216.86,0.260843,0.260531,-14.4072,1,0.0205663,10,-0.00375354,-1.84142,-0.328428,-0.179644,100.769,0.260531,
2,0,0,1,0,1216.86,0.258443,0.258156,-14.6457,1,0.0205082,10,-0.00378088,-1.83429,-0.364367,-0.161924,92.2544,0.258156,
2,0,0,1,0,1216.87,0.256046,0.255765,-14.8623,1,0.0204491,10,-0.00380125,-1.82791,-0.389927,-0.15131,87.5225,0.255765,
2,0,0,1,0,1216.87,0.253649,0.253337,-15.0471,1,0.0203893,10,-0.00381199,-1.82255,-0.431305,-0.136794,80.2264,0.253337,
2,0,0,1,0,1216.87,0.25124,0.250979,-15.2433,1,0.0203287,10,-0.00382575,-1.81692,-0.457266,-0.129028,76.6788,0.250979,
2,0,0,1,0,1216.88,0.248843,0.248556,-15.4159,1,0.0202673,10,-0.00383171,-1.81203,-0.454008,-0.129954,78.2004,0.2485563,
2,0,0,1,0,1216.88,0.246446,0.246162,-15.5986,1,0.0202053,10,-0.00383979,-1.80691,-0.477255,-0.123624,75.2661,0.246162,
2,0,0,1,0,1216.89,0.244041,0.243747,-15.797,1,0.0201425,10,-0.00385048,-1.80143,-0.488256,-0.120838,74.375,0.243747,
2,0,0,1,0,1216.89,0.241644,0.241418,-15.9629,1,0.020079,10,-0.00385374,-1.79689,-0.492633,-0.119765,74.5665,0.241418,
2,0,0,1,0,1216.89,0.239247,0.238934,-16.1315,1,0.0200148,10,-0.00385437,-1.79233,-0.491524,-0.120035,75.6841,0.2389342,
2,0,0,1,0,1216.9,0.236849,0.236577,-16.3134,1,0.0199498,10,-0.00385937,-1.78746,-0.484094,-0.121877,77.6932,0.236577,
2,0,0,1,0,1216.9,0.234441,0.23419,-16.5204,1,0.0198841,10,-0.0038689,-1.78198,-0.474132,-0.124438,80.1955,0.23419,
2,0,0,1,0,1216.91,0.232044,0.231788,-16.7111,1,0.0198177,10,-0.00387343,-1.777,-0.473957,-0.124484,81.1359,0.2317881,
2,0,0,1,0,1216.91,0.229647,0.229339,-16.901,1,0.0197504,10,-0.00387606,-1.77209,-0.477201,-0.123638,81.5993,0.229339,
2,0,0,1,0,1216.91,0.227239,0.226953,-17.0942,1,0.0196825,10,-0.00387958,-1.76715,-0.463904,-0.127181,84.9499,0.226953,
2,0,0,1,0,1216.92,0.224842,0.224538,-17.3079,1,0.0196136,10,-0.00388629,-1.76175,-0.44971,-0.131196,88.6921,0.2245381,
2,0,0,1,0,1216.92,0.222445,0.222204,-17.5253,1,0.0195439,10,-0.00389418,-1.75634,-0.428243,-0.137772,94.3192,0.222204,
2,0,0,1,0,1216.93,0.220047,0.219764,-17.7502,1,0.0194734,10,-0.00390086,-1.7508,-0.424321,-0.139046,96.4025,0.219764,
2,0,0,1,0,1216.93,0.217642,0.217379,-17.9972,1,0.0194018,10,-0.00391222,-1.7448,-0.414709,-0.142269,99.9557,0.217379,
2,0,0,1,0,1216.93,0.215245,0.214971,-18.2302,1,0.0193293,10,-0.00391897,-1.73921,-0.390022,-0.151274,107.822,0.2149711,
2,0,0,1,0,1216.94,0.212848,0.212567,-18.4885,1,0.0192559,10,-0.00393005,-1.7331,-0.386415,-0.152686,110.362,0.212567,
2,0,0,1,0,1216.94,0.21044,0.210156,-18.7862,1,0.0191813,10,-0.00394803,-1.72616,-0.361455,-0.163229,119.772,0.2101558,
2,0,0,1,0,1216.95,0.208042,0.207801,-19.0543,1,0.0191056,10,-0.0039595,-1.72001,-0.355368,-0.166025,123.609,0.207801,
2,0,0,1,0,1216.95,0.205645,0.205333,-19.3846,1,0.0190287,10,-0.0039803,-1.71254,-0.346888,-0.170084,128.763,0.205333,
2,0,0,1,0,1216.95,0.203246,0.202945,-19.6779,1,0.0189506,10,-0.00399353,-1.70602,-0.323404,-0.182434,140.412,0.202945,
2,0,0,1,0,1216.96,0.200843,0.200546,-20.0235,1,0.0188711,10,-0.00401564,-1.69846,-0.319413,-0.184714,144.677,0.200546,
2,0,0,1,0,1216.96,0.198446,0.198191,-20.4036,1,0.0187902,10,-0.00404381,-1.69029,-0.295707,-0.199522,159.098,0.198191,
2,0,0,1,0,1216.97,0.196049,0.195754,-20.7704,1,0.0187078,10,-0.0040659,-1.68256,-0.284938,-0.207063,168.25,0.195754,
2,0,0,1,0,1216.97,0.19364,0.193346,-21.2051,1,0.0186239,10,-0.00409992,-1.67356,-0.279169,-0.211342,175.138,0.193346,
2,0,0,1,0,1216.97,0.191243,0.19095,-21.6382,1,0.0185381,10,-0.0041318,-1.66478,-0.261434,-0.225679,190.884,0.19095,
2,0,0,1,0,1216.98,0.188846,0.188582,-22.0866,1,0.0184507,10,-0.00416512,-1.65587,-0.252587,-0.233583,201.998,0.188582,
2,0,0,1,0,1216.98,0.186444,0.186164,-22.601,1,0.0183613,10,-0.0042075,-1.64587,-0.241171,-0.244639,216.349,0.186164,
2,0,0,1,0,1216.99,0.184041,0.183765,-23.1404,1,0.0182697,10,-0.0042524,-1.63563,-0.229904,-0.256628,232.209,0.183765,
2,0,0,1,0,1216.99,0.181644,0.181354,-23.7142,1,0.018176,10,-0.00430066,-1.62499,-0.221221,-0.266701,247.384,0.181354,
2,0,0,1,0,1216.99,0.179247,0.178965,-24.3197,1,0.0180799,10,-0.00435237,-1.61404,-0.210907,-0.279744,266.316,0.178965,
2,0,0,1,0,1217,0.176841,0.176575,-24.9733,1,0.0179812,10,-0.00440965,-1.60252,-0.203941,-0.2893,282.81,0.176575,
2,0,0,1,0,1217,0.174444,0.174188,-25.691,1,0.0178799,10,-0.00447506,-1.59022,-0.194423,-0.303461,305,0.1741879,
2,0,0,1,0,1217.01,0.172047,0.171744,-26.4321,1,0.0177756,10,-0.00453955,-1.57787,-0.187167,-0.315226,326.067,0.171744,
2,0,0,1,0,1217.01,0.169644,0.169383,-27.2421,1,0.0176681,10,-0.00461436,-1.56476,-0.182253,-0.323726,345.023,0.169383,
2,0,0,1,0,1217.01,0.167242,0.166994,-28.0972,1,0.0175574,10,-0.00469207,-1.55134,-0.175527,-0.33613,369.437,0.166994,
2,0,0,1,0,1217.02,0.164845,0.164616,-28.9937,1,0.0174431,10,-0.00477281,-1.5377,-0.170745,-0.345544,392.214,0.164616,
2,0,0,1,0,1217.02,0.162448,0.162177,-29.9665,1,0.0173251,10,-0.00485987,-1.52336,-0.167199,-0.352872,413.672,0.162177,
2,0,0,1,0,1217.03,0.160042,0.159783,-31.0073,1,0.0172031,10,-0.00495445,-1.50854,-0.161439,-0.365464,443.163,0.1597833,
2,0,0,1,0,1217.03,0.157645,0.157398,-32.0667,1,0.0170768,10,-0.00504724,-1.49395,-0.156265,-0.377564,474.176,0.157398,
2,0,0,1,0,1217.03,0.155248,0.155022,-33.2452,1,0.0169461,10,-0.00515374,-1.47827,-0.15372,-0.383814,499.477,0.155022,
2,0,0,1,0,1217.04,0.152845,0.152616,-34.4999,1,0.0168105,10,-0.00526524,-1.46218,-0.149637,-0.394287,531.663,0.152616,
2,0,0,1,0,1217.04,0.150443,0.150193,-35.7975,1,0.0166698,10,-0.00537653,-1.44615,-0.149197,-0.395451,553.231,0.150193,
2,0,0,1,0,1217.05,0.148046,0.147818,-37.1604,1,0.0165237,10,-0.00549297,-1.42992,-0.148195,-0.398123,578.113,0.1478177,
2,0,0,1,0,1217.05,0.145648,0.145378,-38.5807,1,0.0163721,10,-0.00560878,-1.41363,-0.147594,-0.399746,602.489,0.145378,
2,0,0,1,0,1217.05,0.14324,0.14301,-40.0534,1,0.0162147,10,-0.00572803,-1.39736,-0.147381,-0.400322,626.277,0.14301,
2,0,0,1,0,1217.06,0.140843,0.140587,-41.5851,1,0.0160513,10,-0.00584632,-1.38106,-0.148473,-0.397379,644.699,0.140587,
2,0,0,1,0,1217.06,0.138446,0.138236,-43.1613,1,0.0158816,10,-0.00596644,-1.36491,-0.150579,-0.391822,659.269,0.138236,
2,0,0,1,0,1217.07,0.136041,0.135868,-44.7117,1,0.0157057,10,-0.00607488,-1.34958,-0.151722,-0.388869,679.03,0.135868,
2,0,0,1,0,1217.07,0.133644,0.133497,-46.325,1,0.0155235,10,-0.00618424,-1.33418,-0.15523,-0.38008,687.902,0.133497,
2,0,0,1,0,1217.07,0.131246,0.131057,-48.0562,1,0.0153346,10,-0.00629809,-1.31825,-0.156675,-0.376576,705.828,0.131057,
2,0,0,1,0,1217.08,0.128849,0.128665,-49.7454,1,0.0151388,10,-0.00640047,-1.30325,-0.159542,-0.369808,717.215,0.128665,
2,0,0,1,0,1217.08,0.126441,0.126248,-51.5017,1,0.0149361,10,-0.00650199,-1.28818,-0.165805,-0.355839,713.986,0.126248,
2,0,0,1,0,1217.09,0.124044,0.123878,-53.2238,1,0.0147265,10,-0.00659326,-1.27389,-0.17091,-0.345212,715.33,0.123878,
2,0,0,1,0,1217.09,0.121647,0.12144,-54.9224,1,0.01451,10,-0.00666979,-1.26025,-0.179064,-0.329492,704.81,0.12144,
2,0,0,1,0,1217.09,0.119241,0.119092,-56.5927,1,0.0142868,10,-0.00673976,-1.24724,-0.186484,-0.316381,697.736,0.119092,
2,0,0,1,0,1217.1,0.116844,0.116662,-58.2581,1,0.0140569,10,-0.0067965,-1.23464,-0.192549,-0.306415,695.731,0.1166619,
2,0,0,1,0,1217.1,0.114447,0.114272,-59.9264,1,0.0138204,10,-0.0068479,-1.22238,-0.201753,-0.292437,682.845,0.114272,
2,0,0,1,0,1217.11,0.11205,0.111896,-61.5623,1,0.0135772,10,-0.0068886,-1.21069,-0.212163,-0.278088,666.646,0.111896,
2,0,0,1,0,1217.11,0.109642,0.10943,-63.1906,1,0.0133275,10,-0.00691495,-1.19935,-0.224613,-0.262674,645.777,0.10943,
2,0,0,1,0,1217.11,0.107245,0.10699,-64.7059,1,0.0130715,10,-0.00692288,-1.18906,-0.2402,-0.245628,618.493,0.10699,
2,0,0,1,0,1217.12,0.104848,0.10461,-66.1655,1,0.0128096,10,-0.0069216,-1.17937,-0.258622,-0.228132,587.484,0.10461,
2,0,0,1,0,1217.12,0.10244,0.102182,-67.5705,1,0.012542,10,-0.0069045,-1.17024,-0.278256,-0.212035,557.273,0.102182,
2,0,0,1,0,1217.13,0.100042,0.0997781,-68.8609,1,0.012269,10,-0.00687081,-1.16203,-0.30504,-0.193417,517.979,0.0997781,
2,0,0,1,0,1217.13,0.0976454,0.0973964,-70.052,1,0.011991,10,-0.00682282,-1.15458,-0.342004,-0.172512,469.964,0.0973964,
2,0,0,1,0,1217.13,0.0952427,0.0950158,-71.1353,1,0.0117085,10,-0.00675898,-1.14791,-0.384065,-0.15362,424.944,0.0950158,
2,0,0,1,0,1217.14,0.0928428,0.0925737,-72.0861,1,0.0114219,10,-0.00667328,-1.14215,-0.448256,-0.131621,368.895,0.0925737,
2,0,0,1,0,1217.14,0.0904457,0.0901857,-72.9372,1,0.0111318,10,-0.00657789,-1.13705,-0.535509,-0.110176,312.327,0.0901857,
2,0,0,1,0,1217.15,0.0880486,0.0877605,-73.6067,1,0.0108386,10,-0.00645976,-1.13308,-0.673799,-0.0875632,250.44,0.0877605,
2,0,0,1,0,1217.15,0.0856404,0.085329,-74.1607,1,0.0105429,10,-0.00632806,-1.12983,-0.94968,-0.0621262,178.917,0.085329,
2,0,0,1,0,1217.15,0.0832433,0.082942,-74.4983,1,0.0102455,10,-0.00617904,-1.12785,-1.57924,-0.0373597,108.077,0.082942,
2,0,0,1,0,1217.16,0.0808462,0.0805837,-74.6552,1,0.00994716,10,-0.00601599,-1.12694,-6.19972,-0.00951656,27.5924,0.0805837,
2,0,0,1,0,1217.16,0.0784408,0.0781363,-74.6469,1,0.00964854,10,-0.00583263,-1.12699,3.23161,0.0182572,-52.9009,0.07813628,
2,0,0,1,0,1217.17,0.0760437,0.0757641,-74.4247,1,0.00935035,10,-0.00563872,-1.12828,1.26905,0.0464915,-134.278,0.0757641,
2,0,0,1,0,1217.17,0.0736466,0.0733676,-73.9918,1,0.00905353,10,-0.0054286,-1.13082,0.770438,0.0765798,-219.932,0.0733676,
2,0,0,1,0,1217.17,0.0712495,0.0709425,-73.3606,1,0.00875885,10,-0.00520438,-1.13454,0.562094,0.104965,-298.942,0.0709425,
2,0,0,1,0,1217.18,0.0688413,0.0685597,-72.5407,1,0.00846708,10,-0.00497337,-1.13942,0.445817,0.132341,-372.793,0.0685597,
2,0,0,1,0,1217.18,0.0664442,0.0661356,-71.5463,1,0.00817897,10,-0.00473176,-1.14541,0.367891,0.160374,-445.647,0.0661356,
2,0,0,1,0,1217.19,0.0640471,0.06372,-70.3952,1,0.00789515,10,-0.00448559,-1.15246,0.317454,0.185854,-508.21,0.06372,
2,0,0,1,0,1217.19,0.0616389,0.0613522,-69.0867,1,0.0076163,10,-0.00423862,-1.16061,0.279494,0.211096,-566.71,0.06135216,
2,0,0,1,0,1217.19,0.0592417,0.0589334,-67.6485,1,0.00734295,10,-0.00398675,-1.16974,0.251813,0.234301,-616.332,0.0589334,
2,0,0,1,0,1217.2,0.0568446,0.0565305,-66.103,1,0.00707557,10,-0.00373683,-1.17978,0.235649,0.250372,-644.208,0.0565305,
2,0,0,1,0,1217.2,0.0544475,0.0541488,-64.4962,1,0.00681454,10,-0.00349239,-1.19047,0.219067,0.269324,-676.46,0.0541488,
2,0,0,1,0,1217.21,0.0520421,0.0517003,-62.8689,1,0.00655994,10,-0.00325034,-1.20156,0.210785,0.279906,-685.374,0.0517003,
2,0,0,1,0,1217.21,0.049645,0.0493653,-61.1761,1,0.006312,10,-0.00301998,-1.21342,0.204679,0.288256,-687.553,0.0493653,
2,0,0,1,0,1217.21,0.0472479,0.0468893,-59.4951,1,0.00607082,10,-0.00278968,-1.22552,0.197373,0.298926,-693.98,0.0468893,
2,0,0,1,0,1217.22,0.0448397,0.0444949,-57.8586,1,0.0058363,10,-0.00257441,-1.23763,0.196334,0.300509,-678.474,0.0444949,
2,0,0,1,0,1217.22,0.0424426,0.0421312,-56.2281,1,0.00560832,10,-0.00236896,-1.25005,0.194438,0.303438,-666.061,0.0421312,
2,0,0,1,0,1217.23,0.0400455,0.0397453,-54.6491,1,0.00538676,10,-0.00217205,-1.26242,0.192228,0.306927,-654.938,0.0397453,
2,0,0,1,0,1217.23,0.0376456,0.0373096,-53.1145,1,0.00517139,10,-0.00198168,-1.27479,0.193763,0.304496,-631.523,0.0373096,
2,0,0,1,0,1217.23,0.035243,0.0349597,-51.6136,1,0.00496209,10,-0.0018044,-1.28724,0.194094,0.303976,-612.766,0.0349597,
2,0,0,1,0,1217.24,0.0328459,0.032542,-50.1723,1,0.00475867,10,-0.0016327,-1.29954,0.195576,0.301673,-591.378,0.032542,
2,0,0,1,0,1217.24,0.0304488,0.0301465,-48.7673,1,0.00456092,10,-0.00147016,-1.31187,0.197772,0.298324,-568.444,0.0301465,
2,0,0,1,0,1217.25,0.0280406,0.0277352,-47.4524,1,0.00436867,10,-0.0013161,-1.32374,0.197418,0.298858,-553.636,0.0277352,
2,0,0,1,0,1217.25,0.0256435,0.0253259,-46.1374,1,0.00418162,10,-0.00116847,-1.33595,0.19989,0.295162,-531.798,0.0253259,
2,0,0,1,0,1217.25,0.0232463,0.0229495,-44.8616,1,0.00399979,10,-0.00102955,-1.34813,0.201011,0.293517,-514.828,0.0229495,
2,0,0,1,0,1217.26,0.0208437,0.0205403,-43.6587,1,0.0038229,10,-0.000896763,-1.35993,0.205202,0.287522,-490.79,0.0205403,
2,0,0,1,0,1217.26,0.018441,0.0181629,-42.5243,1,0.00365062,10,-0.000772363,-1.37136,0.210968,0.279664,-464.869,0.0181629,
2,0,0,1,0,1217.27,0.0160439,0.0157218,-41.4238,1,0.00348286,10,-0.000651256,-1.38275,0.217564,0.271185,-439.3,0.0157218,
2,0,0,1,0,1217.27,0.0136468,0.0133539,-40.4008,1,0.00331932,10,-0.00053951,-1.39361,0.223402,0.264098,-417.407,0.0133539,
2,0,0,1,0,1217.27,0.0112414,0.0109118,-39.429,1,0.00315976,10,-0.000430241,-1.40418,0.238051,0.247846,-382.63,0.0109118,
2,0,0,1,0,1217.28,0.00884431,0.00860966,-38.5367,1,0.00300393,10,-0.000331788,-1.41413,0.252827,0.233361,-352.349,0.00860966,
2,0,0,1,0,1217.28,0.0064472,0.00611771,-37.7489,1,0.00285146,10,-0.000230937,-1.4231,0.285634,0.206558,-305.843,0.00611771,
2,0,0,1,0,1217.29,0.00404455,0.00377315,-37.0251,1,0.00270203,10,-0.000139701,-1.4315,0.318476,0.185257,-269.072,0.00377315,
2,0,0,1,0,1217.29,0.0016419,0.0012971,-36.4884,1,0.00255515,10,-4.7329e-05,-1.43785,0.350485,0.168338,-240.34,0.0012971,
2,0,0,1,0,1217.29,-0.000755207,-0.00109306,-35.926,1,0.0024104,10,3.92692e-05,-1.44459,0.412124,0.143161,-201.377,-0.00109306,
2,0,0,1,0,1217.3,-0.00315231,-0.00348428,-35.4412,1,0.00226777,10,0.000123487,-1.45049,0.449681,0.131204,-182.34,-0.00348428,
2,0,0,1,0,1217.3,-0.00555774,-0.00589246,-35.0786,1,0.00212678,10,0.000206699,-1.45496,0.547472,0.107768,-148.096,-0.00589246,
2,0,0,1,0,1217.31,-0.00795485,-0.00825929,-34.7459,1,0.00198717,10,0.000286976,-1.4591,0.697561,0.0845805,-115.148,-0.008259288,
2,0,0,1,0,1217.31,-0.010352,-0.0106717,-34.5074,1,0.0018487,10,0.000368253,-1.46209,0.854173,0.0690726,-93.3527,-0.0106717,
2,0,0,1,0,1217.31,-0.0127546,-0.0131181,-34.3319,1,0.00171106,10,0.000450368,-1.4643,1.22717,0.0480783,-64.6101,-0.0131181,
2,0,0,1,0,1217.32,-0.0151573,-0.0154552,-34.1859,1,0.00157405,10,0.000528351,-1.46615,1.81238,0.0325538,-43.5739,-0.01545521,
2,0,0,1,0,1217.32,-0.0175544,-0.0178825,-34.1241,1,0.00143745,10,0.000610224,-1.46694,3.17851,0.0185621,-24.7847,-0.0178825,
2,0,0,1,0,1217.33,-0.0199515,-0.0202917,-34.0882,1,0.00130105,10,0.000691709,-1.4674,15.5644,0.0037907,-5.05383,-0.0202917,
2,0,0,1,0,1217.33,-0.0223597,-0.0226914,-34.0946,1,0.00116467,10,0.000773656,-1.46731,-12.8111,-0.00460539,6.13853,-0.0226914,
2,0,0,1,0,1217.33,-0.0247568,-0.0250964,-34.1372,1,0.00102821,10,0.000856722,-1.46677,-3.38499,-0.0174299,23.264,-0.02509643,
2,0,0,1,0,1217.34,-0.0271539,-0.0274495,-34.1828,1,0.000891561,10,0.0009383,-1.46619,-2.20154,-0.0267994,35.8389,-0.0274495,
2,0,0,1,0,1217.34,-0.0295593,-0.0299032,-34.3118,1,0.000754582,10,0.00102604,-1.46456,-1.77023,-0.0333289,44.68,-0.02990325,
2,0,0,1,0,1217.35,-0.0319564,-0.0322807,-34.4383,1,0.000617087,10,0.00111169,-1.46296,-1.41495,-0.0416977,56.0658,-0.0322807,
2,0,0,1,0,1217.35,-0.0343535,-0.0346475,-34.5639,1,0.000479086,10,0.00119756,-1.46138,-1.25585,-0.04698,63.4645,-0.0346475,
2,0,0,1,0,1217.35,-0.0367506,-0.0370992,-34.7238,1,0.000340526,10,0.00128823,-1.45937,-1.16115,-0.0508117,68.9458,-0.0370992,
2,0,0,1,0,1217.36,-0.0391588,-0.0394607,-34.9184,1,0.000201211,10,0.0013779,-1.45695,-1.04791,-0.0563023,76.7589,-0.0394607,
2,0,0,1,0,1217.36,-0.0415559,-0.0418774,-35.0999,1,6.11696e-05,10,0.00146989,-1.45469,-0.97002,-0.0608235,83.3699,-0.04187737,
2,0,0,1,0,1217.37,-0.043953,-0.0443036,-35.3051,1,-7.96508e-05,10,0.00156414,-1.45216,-0.965063,-0.0611359,84.2742,-0.0443036,
2,0,0,1,0,1217.37,-0.0463585,-0.0466778,-35.5224,1,-0.000221334,10,0.00165811,-1.4495,-0.917834,-0.0642818,89.131,-0.0466778,
2,0,0,1,0,1217.37,-0.0487556,-0.0490553,-35.727,1,-0.000363856,10,0.0017526,-1.447,-0.890507,-0.0662544,92.4249,-0.04905526,
2,0,0,1,0,1217.38,-0.0511527,-0.0515334,-35.9606,1,-0.00050728,10,0.00185317,-1.44417,-0.854612,-0.0690372,96.9576,-0.0515334,
2,0,0,1,0,1217.38,-0.0535498,-0.0538525,-36.1877,1,-0.000651587,10,0.0019488,-1.44144,-0.82297,-0.0716915,101.314,-0.0538525,
2,0,0,1,0,1217.39,-0.055958,-0.0562841,-36.4538,1,-0.000796915,10,0.00205177,-1.43826,-0.82445,-0.0715629,101.787,-0.0562841,
2,0,0,1,0,1217.39,-0.0583551,-0.0586509,-36.6991,1,-0.000943242,10,0.00215244,-1.43534,-0.79474,-0.0742381,106.319,-0.0586509,
2,0,0,1,0,1217.39,-0.0607522,-0.0611015,-36.9345,1,-0.00109051,10,0.00225675,-1.43257,-0.81139,-0.0727147,104.873,-0.0611015,
2,0,0,1,0,1217.4,-0.0631604,-0.0634598,-37.2091,1,-0.00123882,10,0.00236129,-1.42935,-0.80976,-0.0728611,105.801,-0.0634598,
2,0,0,1,0,1217.4,-0.0655575,-0.0658924,-37.4615,1,-0.00138819,10,0.00246843,-1.42642,-0.768001,-0.0768229,112.341,-0.0658924,
2,0,0,1,0,1217.41,-0.0679546,-0.0683048,-37.7205,1,-0.0015386,10,0.00257649,-1.42342,-0.790845,-0.0746038,109.863,-0.0683048,
2,0,0,1,0,1217.41,-0.0703573,-0.0706791,-38.0105,1,-0.00169009,10,0.00268654,-1.4201,-0.776069,-0.0760242,112.745,-0.0706791,
2,0,0,1,0,1217.41,-0.0727571,-0.0730501,-38.2628,1,-0.00184265,10,0.0027951,-1.41722,-0.761192,-0.07751,115.771,-0.0730501,
2,0,0,1,0,1217.42,-0.0751542,-0.0754901,-38.5436,1,-0.00199629,10,0.00290966,-1.41405,-0.766096,-0.0770139,115.91,-0.0754901,
2,0,0,1,0,1217.42,-0.0775514,-0.0778739,-38.8284,1,-0.00215106,10,0.00302372,-1.41085,-0.74585,-0.0791043,119.898,-0.0778739,
2,0,0,1,0,1217.43,-0.0799595,-0.0802885,-39.1243,1,-0.00230699,10,0.00314123,-1.40755,-0.750268,-0.0786386,120.047,-0.0802885,
2,0,0,1,0,1217.43,-0.0823567,-0.0826786,-39.4172,1,-0.0024641,10,0.00325896,-1.40431,-0.743976,-0.0793036,121.981,-0.0826786,
2,0,0,1,0,1217.43,-0.0847538,-0.0850699,-39.6936,1,-0.00262234,10,0.00337673,-1.40128,-0.726603,-0.0811997,125.891,-0.0850699,
2,0,0,1,0,1217.44,-0.0871592,-0.0875014,-40.0027,1,-0.00278174,10,0.00350029,-1.39791,-0.723233,-0.0815781,127.429,-0.0875014,
2,0,0,1,0,1217.44,-0.0895563,-0.0898979,-40.334,1,-0.00294247,10,0.00362594,-1.39433,-0.699584,-0.0843358,132.724,-0.0898979,
2,0,0,1,0,1217.45,-0.0919534,-0.0922668,-40.639,1,-0.00310444,10,0.00374963,-1.39106,-0.693108,-0.0851238,135.034,-0.09226685,
2,0,0,1,0,1217.45,-0.0943505,-0.0946326,-40.9628,1,-0.00326769,10,0.00387642,-1.38761,-0.69773,-0.0845599,135.233,-0.0946326,
2,0,0,1,0,1217.45,-0.0967587,-0.0970959,-41.2983,1,-0.00343224,10,0.0040099,-1.38407,-0.677619,-0.0870696,139.969,-0.0970959,
2,0,0,1,0,1217.46,-0.0991558,-0.0994766,-41.6294,1,-0.00359812,10,0.00414115,-1.3806,-0.933963,-0.0631716,101.72,-0.0994766,
2,0,0,1,0,1217.46,-0.0999548,-0.10019,-41.748,1,-0.00365229,10,0.00418274,-1.37936,0.0173498,3.40063,-5014.95,-0.10019,
2,0,0,1,1,1217.46,-0.0999548,-0.100476,-41.5572,1,-0.00367725,10,0.00417552,-1.38135,-0.0181958,-3.24251,4267.14,-0.1004765,
2,0,0,1,1,1217.46,-0.0979573,-0.0984554,-34.4808,1,-0.00379285,10,0.00339482,-1.46242,-0.0208513,-2.82956,3277.48,-0.0984554,
2,0,0,1,1,1217.47,-0.0955546,-0.0960207,-26.8827,1,-0.00391455,10,0.0025813,-1.57053,-0.019967,-2.95488,2944.5,-0.0960207,
2,0,0,1,1,1217.47,-0.0931519,-0.0936146,-20.1967,1,-0.00400781,10,0.00189071,-1.69472,-0.0165463,-3.56576,2642.11,-0.0936146,
2,0,0,1,1,1217.48,-0.0907548,-0.0912117,-14.2772,1,-0.00407598,10,0.00130225,-1.84536,-0.0120783,-4.88478,2349.81,-0.0912117,
2,0,0,1,1,1217.48,-0.0883577,-0.0888184,-9.01886,1,-0.0041219,10,0.000801041,-2.04485,-0.00432622,-13.6378,2091.82,-0.0888184,
2,0,0,1,1,1217.48,-0.0859523,-0.0864123,-4.30498,1,-0.00414797,10,0.000372003,-2.36603,-0.0162629,-3.62788,1861.36,-0.08641234,
2,0,0,1,1,1217.49,-0.0835552,-0.0840179,-0.122185,1,-0.00415627,10,1.02657e-05,-3.91298,-0.0923604,-0.638802,1678.38,-0.08401794,
2,1,0,1,1,1217.49,-0.0811581,-0.0815801,3.65086,1,-0.00414875,10,-0.000297838,-2.4376,0.0257784,2.28873,1505.18,-0.0815801,
2,1,0,1,1,1217.5,-0.0787554,-0.0792154,7.09868,1,-0.00412682,10,-0.000562325,-2.14882,0.00474119,12.4441,1355.9,-0.0792154,
2,1,0,1,1,1217.5,-0.0763528,-0.0768072,10.1526,1,-0.00409192,10,-0.000779789,-1.99342,0.0152353,3.87258,1231.39,-0.0768072,
2,1,0,1,1,1217.5,-0.0739557,-0.0744266,12.8827,1,-0.00404551,10,-0.000958817,-1.88999,0.0240251,2.45577,1111.02,-0.0744266,
2,1,0,1,1,1217.51,-0.0715586,-0.0720756,15.3545,1,-0.00398876,10,-0.00110669,-1.81376,0.0332818,1.77274,997.958,-0.0720756,
2,1,0,1,1,1217.51,-0.0691532,-0.0696993,17.6713,1,-0.00392244,10,-0.00123167,-1.75273,0.0427711,1.37944,908.07,-0.0696993,
2,1,0,1,1,1217.52,-0.0667561,-0.0671861,19.754,1,-0.00384732,10,-0.00132719,-1.70435,0.0536063,1.10062,818.07,-0.0671861,
2,1,0,1,1,1217.52,-0.0643589,-0.0648267,21.6001,1,-0.00376435,10,-0.00140026,-1.66554,0.0664096,0.888426,729.288,-0.0648267,
2,1,0,1,1,1217.52,-0.0619563,-0.0623814,23.2851,1,-0.00367439,10,-0.00145256,-1.63292,0.0797244,0.740049,658.144,-0.0623814,
2,1,0,1,1,1217.53,-0.0595536,-0.0599276,24.7976,1,-0.00357801,10,-0.00148606,-1.60559,0.0950303,0.620855,589.766,-0.05992762,
2,1,0,1,1,1217.53,-0.0571565,-0.0575184,26.1167,1,-0.00347603,10,-0.00150219,-1.58308,0.112667,0.523668,526.036,-0.0575184,
2,1,0,1,1,1217.54,-0.0547594,-0.0551568,27.303,1,-0.00336903,10,-0.00150595,-1.56379,0.132806,0.444256,467.71,-0.0551568,
2,1,0,1,1,1217.54,-0.0523512,-0.0527338,28.3601,1,-0.00325754,10,-0.00149553,-1.54729,0.155104,0.38039,416.662,-0.05273382,
2,1,0,1,1,1217.54,-0.0499541,-0.0503468,29.2786,1,-0.00314216,10,-0.00147409,-1.53345,0.181259,0.325501,368.901,-0.0503468,
2,1,0,1,1,1217.55,-0.047557,-0.0479312,30.1113,1,-0.00302327,10,-0.00144327,-1.52127,0.210693,0.280028,326.811,-0.0479312,
2,1,0,1,1,1217.55,-0.0451544,-0.0455453,30.8487,1,-0.00290128,10,-0.00140501,-1.51076,0.24319,0.242608,290.2,-0.0455453,
2,1,0,1,1,1217.56,-0.0427545,-0.0431159,31.5033,1,-0.00277648,10,-0.00135829,-1.50164,0.28585,0.206402,252.171,-0.0431159,
2,1,0,1,1,1217.56,-0.0403574,-0.0407512,32.0633,1,-0.00264926,10,-0.00130662,-1.49399,0.33186,0.177786,221.358,-0.0407512,
2,1,0,1,1,1217.56,-0.0379603,-0.0383388,32.5303,1,-0.00252001,10,-0.00124717,-1.48771,0.390334,0.151153,191.212,-0.0383388,
2,1,0,1,1,1217.57,-0.0355521,-0.0359105,32.9815,1,-0.00238891,10,-0.00118438,-1.48173,0.462436,0.127585,163.536,-0.0359105,
2,1,0,1,1,1217.57,-0.033155,-0.033498,33.3423,1,-0.00225622,10,-0.0011169,-1.477,0.530855,0.111141,144.092,-0.033498,
2,1,0,1,1,1217.58,-0.0307579,-0.0311323,33.6363,1,-0.00212221,10,-0.00104718,-1.47319,0.664639,0.0887699,116.18,-0.0311323,
2,1,0,1,1,1217.58,-0.0283524,-0.0286965,33.9197,1,-0.00198708,10,-0.000973376,-1.46955,0.805663,0.0732316,96.6083,-0.0286965,
2,1,0,1,1,1217.58,-0.0259553,-0.0263233,34.0953,1,-0.00185099,10,-0.000897502,-1.46731,0.983196,0.0600084,79.6679,-0.0263233,
2,1,0,1,1,1217.59,-0.0235582,-0.0239226,34.2674,1,-0.00171424,10,-0.000819764,-1.46512,1.27787,0.0461707,61.6508,-0.0239226,
2,1,0,1,1,1217.59,-0.0211611,-0.0215165,34.4024,1,-0.00157689,10,-0.000740219,-1.46341,1.62275,0.0363579,48.7109,-0.0215165,
2,1,0,1,1,1217.6,-0.0187529,-0.0191083,34.5108,1,-0.00143901,10,-0.000659443,-1.46205,2.41123,0.0244689,32.8742,-0.01910831,
2,1,0,1,1,1217.6,-0.0163558,-0.0167001,34.5641,1,-0.00130086,10,-0.000577224,-1.46138,4.06799,0.0145035,19.5256,-0.01670013,
2,1,0,1,1,1217.6,-0.0139587,-0.0143025,34.5837,1,-0.00116255,10,-0.000494635,-1.46113,9.73727,0.0060592,8.17011,-0.0143025,
2,1,0,1,1,1217.61,-0.0115505,-0.0119198,34.5898,1,-0.00102421,10,-0.000412304,-1.46105,-26.4128,-0.00223377,-3.01193,-0.0119198,
2,1,0,1,1,1217.61,-0.0091534,-0.00948088,34.5894,1,-0.000885865,10,-0.000327938,-1.46106,-6.99341,-0.00843651,-11.3687,-0.00948088,
2,1,0,1,1,1217.62,-0.00675629,-0.00709178,34.5351,1,-0.000747586,10,-0.000244915,-1.46174,-4.10433,-0.0143751,-19.3533,-0.00709178,
2,1,0,1,1,1217.62,-0.00435919,-0.00470799,34.4746,1,-0.000609568,10,-0.000162306,-1.4625,-1.94396,-0.0303504,-40.7474,-0.004707986,
2,1,0,1,1,1217.62,-0.00195376,-0.00233798,34.4043,1,-0.000471796,10,-8.04365e-05,-1.46339, , , ,-0.00233798,
2,1,0,0,1,1217.63,-7.54729e-05,-0.000248974,34.2133,1,-0.000365311,10,-8.51822e-06,-1.46581, , , ,-0.000248974,