File: Figure_codes/Fig_3-5/rawdata_trumpetplot_data/before 10th/20221101_1-115_002_TrumpetPlot_ParaChange_15_CV_C01_5.csv
mode,ox/red,error,control changes,counter inc.,time/s,control/V,Ewe/V,<I>/mA,cycle number,(Q-Qo)/C,I Range,P/W,log(|I|),Tafel slope mV/dec,alpha_eff,dI/d(E-IR),E-IR/V,
2,1,0,0,0,7375.87,2.44065e-05,-0.00091703,35.5521,6,0.0000000E+000,10,-3.26024e-05,-1.44913, , , ,-0.0009170305,
2,1,0,1,0,7375.87,0.00250197,0.00213906,33.6636,6,0.000106471,10,7.20086e-05,-1.47284, , , ,0.00213906,
2,1,0,1,0,7375.88,0.00570921,0.00536482,33.5198,6,0.000240567,10,0.000179828,-1.4747, , , ,0.00536482,
2,1,0,1,0,7375.88,0.00890534,0.0085418,33.9066,6,0.000375373,10,0.000289624,-1.46972,0.766298,0.0769935,103.13,0.0085418,
2,1,0,1,0,7375.88,0.0121015,0.0117336,34.4166,6,0.000512049,10,0.000403831,-1.46323,0.509659,0.115764,155.906,0.0117336,
2,1,0,1,0,7375.89,0.0153059,0.0149838,34.9883,6,0.000650914,10,0.000524257,-1.45608,0.488496,0.120779,164.755,0.0149838,
2,1,0,1,0,7375.89,0.0185021,0.0181713,35.5164,6,0.000791996,10,0.000645382,-1.44957,0.514407,0.114695,158.577,0.0181713,
2,1,0,1,0,7375.9,0.0217065,0.0213738,36.0208,6,0.000935123,10,0.0007699,-1.44345,0.567346,0.103993,145.756,0.0213738,
2,1,0,1,0,7375.9,0.0249027,0.0245985,36.4567,6,0.00108014,10,0.000896778,-1.43822,0.616976,0.0956278,135.767,0.02459847,
2,1,0,1,0,7375.9,0.0280988,0.0277892,36.8548,6,0.00122683,10,0.00102417,-1.43351,0.682688,0.0864231,124.148,0.0277892,
2,1,0,1,0,7375.91,0.0313061,0.0309758,37.2549,6,0.00137513,10,0.001154,-1.42882,0.739387,0.0797959,115.817,0.0309758,
2,1,0,1,0,7375.91,0.0345022,0.0341538,37.6074,6,0.00152489,10,0.00128444,-1.42473,0.804866,0.0733042,107.391,0.0341538,
2,1,0,1,0,7375.92,0.0377094,0.0373499,37.9335,6,0.00167602,10,0.00141681,-1.42098,0.885613,0.0666205,98.4938,0.0373499,
2,1,0,1,0,7375.92,0.0409056,0.0406011,38.2307,6,0.00182837,10,0.00155221,-1.41759,0.930243,0.0634243,94.5782,0.0406011,
2,1,0,1,0,7375.92,0.0441017,0.0437897,38.517,6,0.0019819,10,0.00168665,-1.41435,0.969355,0.0608652,91.496,0.0437897,
2,1,0,1,0,7375.93,0.0473089,0.046954,38.818,6,0.00213659,10,0.00182266,-1.41097,0.965333,0.0611188,92.5955,0.046954,
2,1,0,1,0,7375.93,0.0505051,0.050202,39.1094,6,0.00229247,10,0.00196337,-1.40772,0.948201,0.0622231,94.9997,0.050202,
2,1,0,1,0,7375.94,0.0537012,0.0533864,39.4145,6,0.00244952,10,0.0021042,-1.40434,0.93201,0.0633041,97.4338,0.0533864,
2,1,0,1,0,7375.94,0.0569057,0.0565665,39.7308,6,0.00260786,10,0.00224743,-1.40087,0.876572,0.0673076,104.475,0.05656654,
2,1,0,1,0,7375.94,0.0601018,0.0597467,40.0645,6,0.00276747,10,0.00239372,-1.39724,0.822775,0.0717085,112.302,0.0597467,
2,1,0,1,0,7375.95,0.0633063,0.0629693,40.4433,6,0.0029285,10,0.00254668,-1.39315,0.771778,0.0764468,120.834,0.0629693,
2,1,0,1,0,7375.95,0.0665024,0.066177,40.851,6,0.00309113,10,0.00270339,-1.3888,0.711393,0.0829358,132.403,0.066177,
2,1,0,1,0,7375.96,0.0696986,0.0693953,41.2809,6,0.00325544,10,0.0028647,-1.38425,0.667763,0.0883547,142.571,0.0693953,
2,1,0,1,0,7375.96,0.0729058,0.0725543,41.7602,6,0.00342157,10,0.00302988,-1.37924,0.619585,0.095225,155.484,0.07255429,
2,1,0,1,0,7375.96,0.0761019,0.0757302,42.2626,6,0.00358968,10,0.00320056,-1.37404,0.57069,0.103384,170.927,0.0757302,
2,1,0,1,0,7375.97,0.0793092,0.078974,42.8407,6,0.0037599,10,0.0033833,-1.36814,0.533721,0.110545,185.216,0.078974,
2,1,0,1,0,7375.97,0.0825053,0.0821764,43.4655,6,0.00393257,10,0.00357184,-1.36185,0.502599,0.11739,199.421,0.0821764,
2,1,0,1,0,7375.98,0.0857014,0.0853195,44.1245,6,0.00410781,10,0.00376468,-1.35532,0.479456,0.123056,212.182,0.0853195,
2,1,0,1,0,7375.98,0.0889087,0.0885548,44.8201,6,0.00428576,10,0.00396903,-1.34853,0.465801,0.126664,221.789,0.0885548,
2,1,0,1,0,7375.98,0.0921048,0.0917445,45.5503,6,0.00446655,10,0.00417899,-1.34151,0.457393,0.128992,229.443,0.0917445,
2,1,0,1,0,7375.99,0.0953065,0.0949469,46.2979,6,0.00465031,10,0.00439584,-1.33444,0.438985,0.134401,243.079,0.0949469,
2,1,0,1,0,7375.99,0.0985054,0.0981207,47.0617,6,0.00483712,10,0.00461773,-1.32733,0.424212,0.139081,256.029,0.0981207,
2,1,0,1,0,7376,0.101702,0.101223,47.8996,6,0.00502708,10,0.00484856,-1.31967,0.408263,0.144515,270.749,0.101223,
2,1,0,1,0,7376,0.104906,0.104537,48.8257,6,0.00522062,10,0.0051041,-1.31135,0.396572,0.148775,283.663,0.104537,
2,1,0,1,0,7376,0.108102,0.107714,49.7546,6,0.00541787,10,0.00535928,-1.30317,0.393943,0.149768,290.815,0.107714,
2,1,0,1,0,7376.01,0.111304,0.110923,50.6932,6,0.00561887,10,0.00562304,-1.29505,0.395604,0.149139,295.096,0.110923,
2,1,0,1,0,7376.01,0.114506,0.114144,51.6572,6,0.0058237,10,0.00589639,-1.28687,0.397731,0.148341,299.052,0.1141445,
2,1,0,1,0,7376.02,0.117702,0.117401,52.6217,6,0.00603233,10,0.00617784,-1.27884,0.398164,0.14818,304.323,0.117401,
2,1,0,1,0,7376.02,0.120909,0.12059,53.6051,6,0.00624488,10,0.00646421,-1.27079,0.399849,0.147556,308.725,0.12059,
2,1,0,1,0,7376.02,0.124105,0.123769,54.6025,6,0.00646138,10,0.00675808,-1.26279,0.394568,0.149531,318.816,0.123769,
2,1,0,1,0,7376.03,0.127301,0.126957,55.6129,6,0.0066819,10,0.00706047,-1.25482,0.393944,0.149768,325.293,0.126957,
2,1,0,1,0,7376.03,0.130508,0.130169,56.6925,6,0.0069066,10,0.00737962,-1.24647,0.393419,0.149967,331.838,0.130169,
2,1,0,1,0,7376.04,0.133705,0.133343,57.7537,6,0.00713558,10,0.00770106,-1.23842,0.389713,0.151393,341.311,0.133343,
2,1,0,1,0,7376.04,0.136906,0.136556,58.8458,6,0.00736887,10,0.00803576,-1.23028,0.38791,0.152097,349.581,0.136556,
2,1,0,1,0,7376.04,0.140105,0.139741,59.9759,6,0.00760665,10,0.00838107,-1.22202,0.382381,0.154296,361.511,0.139741,
2,1,0,1,0,7376.05,0.143301,0.14292,61.1497,6,0.00784899,10,0.0087395,-1.21361,0.376121,0.156865,374.718,0.14292,
2,1,0,1,0,7376.05,0.146506,0.146126,62.3749,6,0.00809616,10,0.00911462,-1.20499,0.374463,0.157559,383.721,0.146126,
2,1,0,1,0,7376.06,0.149702,0.149336,63.6347,6,0.00834828,10,0.00950297,-1.19631,0.369579,0.159641,396.635,0.1493362,
2,1,0,1,0,7376.06,0.152904,0.152562,64.8958,6,0.00860547,10,0.00990063,-1.18778,0.368782,0.159986,405.524,0.152562,
2,1,0,1,0,7376.06,0.156105,0.15576,66.2427,6,0.00886786,10,0.010318,-1.17886,0.364602,0.16182,418.589,0.15576,
2,1,0,1,0,7376.07,0.159301,0.158992,67.5924,6,0.00913567,10,0.0107467,-1.1701,0.361922,0.163018,430.153,0.158992,
2,1,0,1,0,7376.07,0.162509,0.162154,69.0003,6,0.00940897,10,0.0111887,-1.16115,0.365226,0.161544,434.937,0.162154,
2,1,0,1,0,7376.08,0.165705,0.165364,70.4027,6,0.00968794,10,0.0116421,-1.15241,0.366578,0.160948,442.042,0.165364,
2,1,0,1,0,7376.08,0.168901,0.168555,71.8077,6,0.0099725,10,0.0121035,-1.14383,0.374902,0.157375,440.87,0.168555,
2,1,0,1,0,7376.08,0.172108,0.171749,73.2314,6,0.0102627,10,0.0125774,-1.1353,0.382031,0.154438,441.101,0.171749,
2,1,0,1,0,7376.09,0.175304,0.174939,74.6365,6,0.0105586,10,0.0130568,-1.12705,0.392843,0.150187,437.126,0.174939,
2,1,0,1,0,7376.09,0.178506,0.178142,76.0391,6,0.0108601,10,0.0135458,-1.11896,0.410113,0.143863,426.331,0.178142,
2,1,0,1,0,7376.1,0.181705,0.181391,77.4187,6,0.0111672,10,0.0140431,-1.11115,0.427218,0.138103,416.473,0.181391,
2,1,0,1,0,7376.1,0.184901,0.18458,78.7016,6,0.0114796,10,0.0145267,-1.10402,0.454371,0.12985,398.11,0.18458,
2,1,0,1,0,7376.1,0.188105,0.187741,79.9683,6,0.0117971,10,0.0150133,-1.09708,0.489373,0.120563,375.43,0.187741,
2,1,0,1,0,7376.11,0.191302,0.190942,81.1349,6,0.0121194,10,0.0154921,-1.09079,0.536854,0.109899,346.977,0.190942,
2,1,0,1,0,7376.11,0.194503,0.194155,82.2108,6,0.0124462,10,0.0159617,-1.08507,0.621062,0.0949986,303.639,0.194155,
2,1,0,1,0,7376.12,0.197705,0.197361,83.1363,6,0.0127771,10,0.0164079,-1.08021,0.747894,0.0788882,254.786,0.197361,
2,1,0,1,0,7376.12,0.200901,0.200557,83.8598,6,0.0131112,10,0.0168187,-1.07645,1.00097,0.0589428,191.935,0.200557,
2,1,0,1,0,7376.12,0.204108,0.203752,84.3987,6,0.0134479,10,0.0171964,-1.07366,1.64199,0.035932,117.637,0.203752,
2,1,0,1,0,7376.13,0.207305,0.206997,84.6755,6,0.0137861,10,0.0175276,-1.07224,6.12736,0.00962894,31.5895,0.206997,
2,1,0,1,0,7376.13,0.210501,0.210173,84.6435,6,0.0141248,10,0.0177898,-1.07241,-2.65868,-0.0221915,-72.6897,0.210173,
2,1,0,1,0,7376.14,0.213708,0.213385,84.265,6,0.0144627,10,0.0179809,-1.07435,-1.02995,-0.0572845,-186.614,0.213385,
2,1,0,1,0,7376.14,0.216904,0.216594,83.4652,6,0.0147982,10,0.018078,-1.07849,-0.616206,-0.0957472,-308.802,0.216594,
2,1,0,1,0,7376.14,0.220106,0.219827,82.2812,6,0.0151297,10,0.0180876,-1.0847,-0.427426,-0.138036,-438.629,0.219827,
2,1,0,1,0,7376.15,0.223305,0.223046,80.6682,6,0.0154555,10,0.0179927,-1.0933,-0.327521,-0.180141,-561.005,0.223046,
2,1,0,1,0,7376.15,0.226501,0.2262,78.644,6,0.0157741,10,0.0177892,-1.10433,-0.260555,-0.226439,-687.415,0.2262,
2,1,0,1,0,7376.16,0.229705,0.229474,76.2391,6,0.0160837,10,0.0174949,-1.11782,-0.217183,-0.27166,-799.652,0.229474,
2,1,0,1,0,7376.16,0.232901,0.232662,73.4582,6,0.0163829,10,0.0170909,-1.13396,-0.187897,-0.314002,-891.497,0.232662,
2,1,0,1,0,7376.16,0.236103,0.235871,70.413,6,0.0166704,10,0.0166084,-1.15235,-0.164741,-0.358138,-975.893,0.235871,
2,1,0,1,0,7376.17,0.239305,0.239087,67.1551,6,0.0169453,10,0.0160559,-1.17292,-0.150497,-0.392035,-1020.55,0.239087,
2,1,0,1,0,7376.17,0.242501,0.242247,63.7743,6,0.0172069,10,0.0154491,-1.19535,-0.139009,-0.424433,-1050.86,0.2422469,
2,1,0,1,0,7376.18,0.245708,0.245481,60.3755,6,0.0174548,10,0.014821,-1.21914,-0.131286,-0.449399,-1054.97,0.245481,
2,1,0,1,0,7376.18,0.248904,0.248686,56.9462,6,0.0176892,10,0.0141617,-1.24454,-0.126618,-0.465967,-1034.51,0.248686,
2,1,0,1,0,7376.18,0.2521,0.251887,53.6514,6,0.01791,10,0.0135141,-1.27042,-0.123825,-0.476479,-999.253,0.251887,
2,1,0,1,0,7376.19,0.255308,0.255064,50.5149,6,0.018118,10,0.0128845,-1.29658,-0.123632,-0.477221,-944.307,0.255064,
2,1,0,1,0,7376.19,0.258504,0.258263,47.6028,6,0.0183138,10,0.0122941,-1.32237,-0.126288,-0.467186,-872.686,0.258263,
2,1,0,1,0,7376.2,0.261708,0.261407,44.9329,6,0.0184986,10,0.0117458,-1.34744,-0.130717,-0.451356,-796.751,0.261407,
2,1,0,1,0,7376.2,0.264904,0.264656,42.5077,6,0.0186731,10,0.0112499,-1.37153,-0.13793,-0.427753,-715.515,0.264656,
2,1,0,1,0,7376.2,0.268101,0.267847,40.3299,6,0.0188385,10,0.0108022,-1.39437,-0.147682,-0.399507,-634.985,0.267847,
2,1,0,1,0,7376.21,0.271305,0.271062,38.4449,6,0.0189958,10,0.010421,-1.41516,-0.16051,-0.367579,-557.126,0.271062,
2,1,0,1,0,7376.21,0.274501,0.27423,36.7909,6,0.0191461,10,0.0100892,-1.43426,-0.176025,-0.33518,-485.836,0.27423,
2,1,0,1,0,7376.22,0.277708,0.277445,35.3829,6,0.0192902,10,0.00981681,-1.45121,-0.194443,-0.30343,-422.608,0.277445,
2,1,0,1,0,7376.22,0.280905,0.280621,34.124,6,0.0194291,10,0.0095759,-1.46694,-0.219466,-0.268835,-361.201,0.2806209,
2,1,0,1,0,7376.22,0.284101,0.283793,33.065,6,0.0195633,10,0.00938361,-1.48063,-0.245397,-0.240427,-312.884,0.283793,
2,1,0,1,0,7376.23,0.287308,0.287032,32.1667,6,0.0196936,10,0.00923288,-1.49259,-0.280725,-0.21017,-265.692,0.287032,
2,1,0,1,0,7376.23,0.290504,0.290213,31.3879,6,0.0198206,10,0.00910919,-1.50324,-0.322688,-0.182839,-225.466,0.290213,
2,1,0,1,0,7376.24,0.2937,0.293431,30.7205,6,0.0199448,10,0.00901434,-1.51257,-0.358983,-0.164353,-198.455,0.293431,
2,1,0,1,0,7376.24,0.296907,0.296617,30.1735,6,0.0200665,10,0.00894999,-1.52037,-0.389602,-0.151436,-180.366,0.296617,
2,1,0,1,0,7376.24,0.29955,0.299236,29.7448,6,0.0201654,10,0.00890071,-1.52659,-0.0843598,-0.699385,-778.955,0.299236,
2,1,0,1,0,7376.24,0.300012,0.299766,29.665,6,0.0201832,10,0.00889254,-1.52776,0.00380356,15.5118,14065.6,0.299766,
2,1,0,1,0,7376.25,0.298983,0.298897,26.4625,6,0.0202184,10,0.00790955,-1.57737,0.0150944,3.90873,2822.29,0.298897,
2,1,0,1,0,7376.25,0.295787,0.295713,17.4508,6,0.0203046,10,0.00516041,-1.75819,0.0137862,4.27964,2324.33,0.295713,
2,1,0,1,0,7376.25,0.292579,0.292426,10.5265,6,0.0203595,10,0.00307824,-1.97771,0.00814749,7.24149,2000.35,0.292426,
2,1,0,1,0,7376.26,0.289383,0.289182,5.0643,6,0.0203898,10,0.0014645,-2.29548,0.0164533,3.5859,1566.5,0.289182,
2,1,0,1,0,7376.26,0.286187,0.286015,0.694303,6,0.0204006,10,0.000198581,-3.15845,0.0478819,1.2322,1259.13,0.286015,
2,0,0,1,0,7376.27,0.282983,0.282755,-2.84649,6,0.0203957,10,-0.00080486,-2.54569,-0.0649059,-0.909008,1014.14,0.282755,
2,0,0,1,0,7376.27,0.279786,0.279563,-5.67061,6,0.0203782,10,-0.00158529,-2.24637,-0.0111929,-5.27122,819.583,0.279563,
2,0,0,1,0,7376.27,0.276582,0.276302,-7.99753,6,0.0203506,10,-0.00220973,-2.09704,-0.0211574,-2.78862,673.41,0.276302,
2,0,0,1,0,7376.28,0.273386,0.273104,-9.88775,6,0.0203145,10,-0.00270038,-2.0049,-0.0363083,-1.62497,554.904,0.273104,
2,0,0,1,0,7376.28,0.27019,0.26995,-11.4698,6,0.0202715,10,-0.00309627,-1.94044,-0.0535628,-1.10151,458.657,0.26995,
2,0,0,1,0,7376.29,0.266982,0.266747,-12.7823,6,0.0202228,10,-0.00340963,-1.89339,-0.0723796,-0.815147,387.634,0.266747,
2,0,0,1,0,7376.29,0.263786,0.263479,-13.8786,6,0.0201693,10,-0.00365673,-1.85765,-0.0956198,-0.617027,323.678,0.263479,
2,0,0,1,0,7376.29,0.260585,0.260398,-14.8129,6,0.0201118,10,-0.00385726,-1.82936,-0.121087,-0.487251,275.292,0.260398,
2,0,0,1,0,7376.3,0.257383,0.257106,-15.627,6,0.0200508,10,-0.00401781,-1.80612,-0.147053,-0.401217,240.502,0.257106,
2,0,0,1,0,7376.3,0.254187,0.253913,-16.3151,6,0.0199868,10,-0.00414263,-1.78741,-0.180062,-0.327666,205.949,0.253913,
2,0,0,1,0,7376.31,0.25098,0.250742,-16.942,6,0.0199202,10,-0.00424808,-1.77103,-0.211714,-0.278678,182.342,0.250742,
2,0,0,1,0,7376.31,0.247783,0.247494,-17.4705,6,0.0198513,10,-0.00432385,-1.75769,-0.244613,-0.241197,163.217,0.247494,
2,0,0,1,0,7376.31,0.244587,0.244321,-17.9583,6,0.0197804,10,-0.0043876,-1.74573,-0.280292,-0.210494,146.772,0.244321,
2,0,0,1,0,7376.32,0.241383,0.241107,-18.4054,6,0.0197076,10,-0.00443767,-1.73506,-0.309783,-0.190456,136.215,0.241107,
2,0,0,1,0,7376.32,0.238187,0.237919,-18.824,6,0.0196331,10,-0.0044786,-1.72529,-0.343048,-0.171987,125.875,0.237919,
2,0,0,1,0,7376.33,0.234982,0.234732,-19.2089,6,0.019557,10,-0.00450894,-1.7165,-0.375534,-0.15711,117.396,0.234732,
2,0,0,1,0,7376.33,0.231786,0.231505,-19.5715,6,0.0194794,10,-0.00453091,-1.70837,-0.400401,-0.147352,112.333,0.231505,
2,0,0,1,0,7376.33,0.22859,0.228316,-19.9069,6,0.0194004,10,-0.00454508,-1.701,-0.427779,-0.137922,107.044,0.228316,
2,0,0,1,0,7376.34,0.225383,0.225125,-20.2613,6,0.01932,10,-0.00456132,-1.69333,-0.441717,-0.13357,105.52,0.225125,
2,0,0,1,0,7376.34,0.222187,0.221916,-20.5808,6,0.0192383,10,-0.0045672,-1.68654,-0.455268,-0.129594,104.012,0.221916,
2,0,0,1,0,7376.35,0.218979,0.218645,-20.9285,6,0.0191553,10,-0.00457592,-1.67926,-0.476833,-0.123733,100.93,0.218645,
2,0,0,1,0,7376.35,0.215783,0.215519,-21.238,6,0.0190709,10,-0.0045772,-1.67289,-0.477875,-0.123463,102.298,0.215519,
2,0,0,1,0,7376.35,0.212587,0.212315,-21.5542,6,0.0189853,10,-0.00457628,-1.66647,-0.476867,-0.123724,104.231,0.212315,
2,0,0,1,0,7376.36,0.20938,0.209077,-21.8941,6,0.0188983,10,-0.00457757,-1.65967,-0.475072,-0.124192,106.206,0.209077,
2,0,0,1,0,7376.36,0.206184,0.205892,-22.2578,6,0.01881,10,-0.0045827,-1.65252,-0.465316,-0.126795,110.121,0.205892,
2,0,0,1,0,7376.37,0.202988,0.202682,-22.6014,6,0.0187203,10,-0.0045809,-1.64586,-0.460694,-0.128068,112.993,0.202682,
2,0,0,1,0,7376.37,0.199783,0.199474,-22.9682,6,0.0186291,10,-0.00458157,-1.63887,-0.45378,-0.130019,116.686,0.199474,
2,0,0,1,0,7376.37,0.196587,0.196318,-23.3359,6,0.0185364,10,-0.00458125,-1.63198,-0.436097,-0.135291,123.449,0.196318,
2,0,0,1,0,7376.38,0.193382,0.193106,-23.7498,6,0.0184422,10,-0.00458621,-1.62434,-0.419657,-0.140591,130.532,0.193106,
2,0,0,1,0,7376.38,0.190186,0.189917,-24.1772,6,0.0183463,10,-0.00459166,-1.61659,-0.401294,-0.147024,138.956,0.189917,
2,0,0,1,0,7376.39,0.18699,0.186734,-24.6313,6,0.0182487,10,-0.00459949,-1.60851,-0.384769,-0.153339,147.707,0.186734,
2,0,0,1,0,7376.39,0.183783,0.183474,-25.1206,6,0.0181491,10,-0.00460897,-1.59997,-0.36423,-0.161985,159.208,0.183474,
2,0,0,1,0,7376.39,0.180587,0.180317,-25.6387,6,0.0180475,10,-0.0046231,-1.5911,-0.343149,-0.171937,172.613,0.180317,
2,0,0,1,0,7376.4,0.17738,0.177097,-26.2183,6,0.0179438,10,-0.00464318,-1.5814,-0.32144,-0.183549,188.431,0.177097,
2,0,0,1,0,7376.4,0.174183,0.173887,-26.8488,6,0.0178376,10,-0.00466865,-1.57107,-0.301714,-0.195549,205.548,0.173887,
2,0,0,1,0,7376.41,0.170987,0.17071,-27.5258,6,0.0177288,10,-0.00469892,-1.56026,-0.285776,-0.206455,222.543,0.17071,
2,0,0,1,0,7376.41,0.16778,0.16751,-28.2711,6,0.0176172,10,-0.0047357,-1.54866,-0.266629,-0.221282,245.102,0.16751,
2,0,0,1,0,7376.41,0.164584,0.164279,-29.0707,6,0.0175024,10,-0.00477572,-1.53654,-0.251392,-0.234693,267.476,0.164279,
2,0,0,1,0,7376.42,0.161382,0.161145,-29.9719,6,0.0173843,10,-0.00482981,-1.52329,-0.237879,-0.248026,291.385,0.1611449,
2,0,0,1,0,7376.42,0.158183,0.157922,-30.9461,6,0.0172624,10,-0.00488708,-1.50939,-0.222945,-0.264639,320.916,0.1579223,
2,0,0,1,0,7376.43,0.154987,0.154672,-32.012,6,0.0171364,10,-0.00495136,-1.49469,-0.213158,-0.27679,347.24,0.154672,
2,0,0,1,0,7376.43,0.151783,0.151525,-33.1638,6,0.0170059,10,-0.00502515,-1.47934,-0.202614,-0.291194,378.473,0.1515249,
2,0,0,1,0,7376.43,0.148587,0.148332,-34.421,6,0.0168707,10,-0.00510574,-1.46318,-0.193171,-0.305428,412.106,0.148332,
2,0,0,1,0,7376.44,0.145385,0.145157,-35.7774,6,0.0167302,10,-0.00519334,-1.44639,-0.186645,-0.316108,443.093,0.145157,
2,0,0,1,0,7376.44,0.142183,0.141921,-37.2669,6,0.0165839,10,-0.00528895,-1.42868,-0.180534,-0.326808,476.749,0.141921,
2,0,0,1,0,7376.45,0.138987,0.138765,-38.8177,6,0.0164316,10,-0.00538653,-1.41097,-0.17645,-0.334371,508.194,0.138765,
2,0,0,1,0,7376.45,0.13578,0.135575,-40.5028,6,0.0162729,10,-0.00549117,-1.39252,-0.172975,-0.34109,540.769,0.135575,
2,0,0,1,0,7376.45,0.132584,0.132339,-42.2915,6,0.0161071,10,-0.00559681,-1.37375,-0.171077,-0.344874,570.25,0.132339,
2,0,0,1,0,7376.46,0.129388,0.129144,-44.1762,6,0.015934,10,-0.00570509,-1.35481,-0.170401,-0.346241,597.45,0.129144,
2,0,0,1,0,7376.46,0.12618,0.125944,-46.129,6,0.0157532,10,-0.00580966,-1.33603,-0.171911,-0.343201,617.743,0.125944,
2,0,0,1,0,7376.47,0.122984,0.122784,-48.1451,6,0.0155645,10,-0.00591143,-1.31745,-0.175481,-0.336218,631.21,0.122784,
2,0,0,1,0,7376.47,0.119782,0.119578,-50.1745,6,0.0153676,10,-0.00599976,-1.29952,-0.18088,-0.326184,637.402,0.119578,
2,0,0,1,0,7376.47,0.116584,0.116337,-52.2598,6,0.0151626,10,-0.00607977,-1.28183,-0.187802,-0.31416,638.891,0.116337,
2,0,0,1,0,7376.48,0.113387,0.113231,-54.2318,6,0.0149494,10,-0.00614075,-1.26575,-0.193584,-0.304777,644.486,0.113231,
2,0,0,1,0,7376.48,0.110183,0.110044,-56.2844,6,0.0147282,10,-0.00619376,-1.24961,-0.201626,-0.29262,642.381,0.1100439,
2,0,0,1,0,7376.49,0.106987,0.106814,-58.4008,6,0.0144985,10,-0.00623801,-1.23358,-0.209407,-0.281748,640.266,0.106814,
2,0,0,1,0,7376.49,0.103785,0.103605,-60.4388,6,0.0142606,10,-0.00626177,-1.21868,-0.22214,-0.265598,624.172,0.103605,
2,0,0,1,0,7376.49,0.100583,0.100447,-62.4171,6,0.0140147,10,-0.00626963,-1.2047,-0.236474,-0.249499,605.745,0.100447,
2,0,0,1,0,7376.5,0.0973873,0.0971578,-64.3276,6,0.013761,10,-0.00624993,-1.1916,-0.250757,-0.235288,588.867,0.0971578,
2,0,0,1,0,7376.5,0.0941801,0.0939703,-66.1807,6,0.0134998,10,-0.00621902,-1.17927,-0.268312,-0.219893,566.18,0.0939703,
2,0,0,1,0,7376.51,0.0909839,0.0908219,-67.9664,6,0.0132313,10,-0.00617284,-1.16771,-0.284307,-0.207522,548.909,0.0908219,
2,0,0,1,0,7376.51,0.0877878,0.0876449,-69.6655,6,0.0129558,10,-0.00610583,-1.15698,-0.306049,-0.19278,522.655,0.0876449,
2,0,0,1,0,7376.51,0.0845806,0.0843746,-71.3444,6,0.0126736,10,-0.00601966,-1.14664,-0.333096,-0.177126,491.328,0.0843746,
2,0,0,1,0,7376.52,0.0813844,0.0811828,-72.8642,6,0.012385,10,-0.00591532,-1.13749,-0.367801,-0.160413,454.26,0.0811828,
2,0,0,1,0,7376.52,0.0781828,0.077973,-74.2795,6,0.0120905,10,-0.00579179,-1.12913,-0.410804,-0.143621,414.629,0.077973,
2,0,0,1,0,7376.53,0.0749839,0.0747239,-75.535,6,0.0117907,10,-0.00564427,-1.12185,-0.467087,-0.126315,370.847,0.0747239,
2,0,0,1,0,7376.53,0.0717877,0.0715374,-76.6671,6,0.0114861,10,-0.00548456,-1.11539,-0.539844,-0.109291,325.684,0.0715374,
2,0,0,1,0,7376.53,0.0685832,0.0682999,-77.6417,6,0.0111774,10,-0.00530293,-1.1099,-0.632872,-0.0932258,281.32,0.0682999,
2,0,0,1,0,7376.54,0.0653871,0.0650965,-78.4731,6,0.010865,10,-0.00510832,-1.10528,-0.775701,-0.0760603,231.967,0.0650965,
2,0,0,1,0,7376.54,0.0621854,0.0619227,-79.1363,6,0.0105497,10,-0.00490033,-1.10162,-1.01241,-0.0582767,179.178,0.0619227,
2,0,0,1,0,7376.55,0.0589837,0.0587064,-79.6434,6,0.010232,10,-0.00467558,-1.09885,-1.44488,-0.0408338,126.341,0.0587064,
2,0,0,1,0,7376.55,0.0557876,0.0555093,-79.9336,6,0.00991276,10,-0.00443706,-1.09727,-2.59533,-0.0227331,70.6103,0.0555093,
2,0,0,1,0,7376.55,0.0525804,0.052292,-80.0909,6,0.00959265,10,-0.00418812,-1.09642,-11.5762,-0.00509667,15.8618,0.052292,
2,0,0,1,0,7376.56,0.0493842,0.0491182,-80.0404,6,0.00927234,10,-0.00393144,-1.09669,5.44956,0.0108266,-33.6826,0.0491182,
2,0,0,1,0,7376.56,0.0461881,0.045902,-79.8465,6,0.00895254,10,-0.00366512,-1.09774,2.20789,0.0267223,-82.9696,0.045902,
2,0,0,1,0,7376.57,0.0429808,0.0426625,-79.5008,6,0.0086338,10,-0.0033917,-1.09963,1.45353,0.0405908,-125.515,0.0426625,
2,0,0,1,0,7376.57,0.0397847,0.0394632,-79.0265,6,0.00831677,10,-0.00311864,-1.10223,1.1208,0.0526408,-161.902,0.0394632,
2,0,0,1,0,7376.57,0.036583,0.0362873,-78.4299,6,0.00800189,10,-0.00284601,-1.10552,0.931891,0.0633121,-193.372,0.0362873,
2,0,0,1,0,7376.58,0.0333841,0.0331178,-77.7767,6,0.00768954,10,-0.00257579,-1.10915,0.824481,0.0715602,-216.811,0.0331178,
2,0,0,1,0,7376.58,0.030188,0.0299005,-77.033,6,0.00737997,10,-0.00230333,-1.11332,0.7522,0.0784366,-235.437,0.0299005,
2,0,0,1,0,7376.59,0.0269835,0.0266832,-76.2556,6,0.00707345,10,-0.00203475,-1.11773,0.698031,0.0845234,-251.214,0.0266832,
2,0,0,1,0,7376.59,0.0237874,0.0234744,-75.4133,6,0.00677017,10,-0.00177028,-1.12255,0.661978,0.0891268,-262.056,0.0234744,
2,0,0,1,0,7376.59,0.0205857,0.0203028,-74.5574,6,0.00647031,10,-0.00151372,-1.12751,0.629487,0.0937271,-272.507,0.0203028,
2,0,0,1,0,7376.6,0.017384,0.0170696,-73.6706,6,0.0061739,10,-0.00125753,-1.13271,0.604209,0.0976484,-280.489,0.0170696,
2,0,0,1,0,7376.6,0.0141879,0.0138884,-72.7689,6,0.00588111,10,-0.00101064,-1.13805,0.577045,0.102245,-289.989,0.0138884,
2,0,0,1,0,7376.61,0.0109806,0.0106594,-71.8188,6,0.00559198,10,-0.000765548,-1.14376,0.538934,0.109475,-306.294,0.0106594,
2,0,0,1,0,7376.61,0.00778448,0.00741883,-70.8212,6,0.00530678,10,-0.00052541,-1.14984,0.518616,0.113764,-314.02,0.00741883,
2,0,0,1,0,7376.61,0.00458834,0.00425245,-69.7448,6,0.00502573,10,-0.000296586,-1.15649,0.479579,0.123025,-334.428,0.00425245,
2,0,0,1,0,7376.62,0.0013811,0.00100761,-68.7241,6,0.00474893,10,-6.92469e-05,-1.16289,0.44636,0.13218,-353.555,0.00100761,
2,0,0,1,0,7376.62,-0.00181504,-0.00215559,-67.5332,6,0.00447651,10,0.000145574,-1.17048,0.415311,0.142062,-373.228,-0.00215559,
2,0,0,1,0,7376.63,-0.0050195,-0.0053612,-66.3028,6,0.00420897,10,0.000355462,-1.17847,0.379403,0.155507,-401.321,-0.0053612,
2,0,0,1,0,7376.63,-0.00821564,-0.00859862,-64.9484,6,0.00394657,10,0.000558467,-1.18743,0.358808,0.164434,-416.043,-0.00859862,
2,0,0,1,0,7376.63,-0.0114118,-0.0117714,-63.5957,6,0.0036896,10,0.000748607,-1.19657,0.34177,0.172631,-427.941,-0.0117714,
2,0,0,1,0,7376.64,-0.0146162,-0.0149685,-62.2024,6,0.00343811,10,0.000931076,-1.20619,0.332388,0.177503,-430.562,-0.0149685,
2,0,0,1,0,7376.64,-0.0178124,-0.0181879,-60.8137,6,0.00319222,10,0.00110607,-1.216,0.325951,0.181009,-429.53,-0.0181879,
2,0,0,1,0,7376.65,-0.0210196,-0.0213924,-59.4399,6,0.00295187,10,0.00127156,-1.22592,0.325415,0.181307,-420.786,-0.0213924,
2,0,0,1,0,7376.65,-0.0242158,-0.0245779,-58.0949,6,0.00271694,10,0.00142785,-1.23586,0.332482,0.177453,-403.073,-0.02457789,
2,0,0,1,0,7376.65,-0.0274119,-0.0277718,-56.815,6,0.00248725,10,0.00157786,-1.24554,0.346622,0.170214,-378.589,-0.0277718,
2,0,0,1,0,7376.66,-0.0306191,-0.0309594,-55.6659,6,0.00226243,10,0.00172338,-1.25441,0.373051,0.158155,-344.786,-0.03095942,
2,0,0,1,0,7376.66,-0.0338153,-0.0341481,-54.6108,6,0.00204199,10,0.00186485,-1.26272,0.405075,0.145652,-311.512,-0.0341481,
2,0,0,1,0,7376.67,-0.037017,-0.0373717,-53.6837,6,0.00182556,10,0.00200625,-1.27016,0.446821,0.132044,-277.622,-0.0373717,
2,0,0,1,0,7376.67,-0.0402187,-0.0405423,-52.8368,6,0.00161261,10,0.00214213,-1.27706,0.503849,0.117099,-242.401,-0.0405423,
2,0,0,1,0,7376.67,-0.0434148,-0.0437341,-52.1193,6,0.00140283,10,0.00227939,-1.283,0.577352,0.102191,-208.731,-0.0437341,
2,0,0,1,0,7376.68,-0.0466193,-0.0469673,-51.5034,6,0.00119568,10,0.00241897,-1.28816,0.676265,0.0872439,-176.037,-0.0469673,
2,0,0,1,0,7376.68,-0.0498154,-0.0501634,-51.0137,6,0.000990741,10,0.00255902,-1.29231,0.81832,0.072099,-144.034,-0.0501634,
2,0,0,1,0,7376.69,-0.0530115,-0.0533435,-50.5833,6,0.000787621,10,0.00269829,-1.29599,0.986041,0.0598352,-118.489,-0.0533435,
2,0,0,1,0,7376.69,-0.056216,-0.056582,-50.2688,6,0.000585953,10,0.00284431,-1.2987,1.24889,0.0472421,-92.951,-0.056582,
2,0,0,1,0,7376.69,-0.0594121,-0.0597717,-49.9862,6,0.000385487,10,0.00298776,-1.30115,1.66679,0.0353973,-69.2646,-0.0597717,
2,0,0,1,0,7376.7,-0.0626194,-0.0629911,-49.8214,6,0.000185929,10,0.0031383,-1.30258,2.37019,0.0248926,-48.5324,-0.0629911,
2,0,0,1,0,7376.7,-0.0658155,-0.0661278,-49.6978,6,-1.31114e-05,10,0.00328641,-1.30366,4.27497,0.0138013,-26.8311,-0.0661278,
2,0,0,1,0,7376.71,-0.0690117,-0.0693918,-49.6471,6,-0.000211801,10,0.0034451,-1.30411,10.3542,0.00569816,-11.0637,-0.06939175,
2,0,0,1,0,7376.71,-0.0722189,-0.0725433,-49.6435,6,-0.0004104,10,0.0036013,-1.30414,-30.1801,-0.00195493,3.79354,-0.0725433,
2,0,0,1,0,7376.71,-0.075415,-0.075715,-49.6806,6,-0.000609036,10,0.00376156,-1.30381,-5.94868,-0.00991816,19.2647,-0.075715,
2,0,0,1,0,7376.72,-0.0786167,-0.0789343,-49.7464,6,-0.000807879,10,0.0039267,-1.30324,-3.71123,-0.0158977,30.923,-0.0789343,
2,0,0,1,0,7376.72,-0.0818184,-0.0821484,-49.8928,6,-0.00100717,10,0.00409862,-1.30196,-2.59328,-0.0227511,44.3643,-0.0821484,
2,0,0,1,0,7376.73,-0.0850146,-0.0853138,-50.0384,6,-0.00120706,10,0.00426896,-1.3007,-2.0826,-0.0283299,55.3918,-0.0853138,
2,0,0,1,0,7376.73,-0.088219,-0.0885692,-50.2509,6,-0.00140764,10,0.00445068,-1.29886,-1.84444,-0.0319881,62.7848,-0.0885692,
2,0,0,1,0,7376.73,-0.0914152,-0.0917271,-50.455,6,-0.00160907,10,0.00462809,-1.2971,-1.58134,-0.0373101,73.5449,-0.0917271,
2,0,0,1,0,7376.74,-0.0946141,-0.0949104,-50.6941,6,-0.00181137,10,0.0048114,-1.29504,-1.42448,-0.0414186,82.0717,-0.0949104,
2,0,0,1,0,7376.74,-0.0978158,-0.0981309,-50.981,6,-0.00201479,10,0.00500281,-1.29259,-1.29042,-0.0457216,91.0682,-0.0981309,
2,0,0,1,0,7376.75,-0.101012,-0.101341,-51.299,6,-0.00221938,10,0.00519868,-1.28989,-1.19303,-0.049454,99.0643,-0.101341,
2,0,0,1,0,7376.75,-0.104219,-0.10455,-51.6227,6,-0.00242526,10,0.00539713,-1.28716,-1.13953,-0.0517758,104.362,-0.10455,
2,0,0,1,0,7376.75,-0.107415,-0.107756,-51.9667,6,-0.00263246,10,0.00559973,-1.28428,-1.05676,-0.0558312,113.351,-0.107756,
2,0,0,1,0,7376.76,-0.110611,-0.110962,-52.3201,6,-0.00284108,10,0.00580553,-1.28133,-1.00279,-0.058836,120.297,-0.110962,
2,0,0,1,0,7376.76,-0.113819,-0.114153,-52.7513,6,-0.00305129,10,0.00602169,-1.27777,-0.941696,-0.0626529,129.072,-0.114153,
2,0,0,1,0,7376.77,-0.117015,-0.117365,-53.1643,6,-0.00326317,10,0.00623961,-1.27438,-0.898816,-0.0656419,136.253,-0.117365,
2,0,0,1,0,7376.77,-0.120216,-0.120536,-53.6162,6,-0.00347676,10,0.0064627,-1.2707,-0.881758,-0.0669118,140.082,-0.120536,
2,0,0,1,0,7376.77,-0.123418,-0.123751,-54.0627,6,-0.00369216,10,0.00669034,-1.2671,-0.836838,-0.0705035,148.878,-0.123751,
2,0,0,1,0,7376.78,-0.126614,-0.126963,-54.5458,6,-0.00390942,10,0.00692532,-1.26324,-0.817609,-0.0721616,153.751,-0.126963,
2,0,0,1,0,7376.78,-0.129819,-0.13011,-55.0618,6,-0.00412868,10,0.00716406,-1.25915,-0.793829,-0.0743233,159.764,-0.13011,
2,0,0,1,0,7376.79,-0.133015,-0.133337,-55.5844,6,-0.00435002,10,0.00741149,-1.25505,-0.769823,-0.076641,166.304,-0.133337,
2,0,0,1,0,7376.79,-0.136214,-0.13656,-56.1091,6,-0.00457347,10,0.00766226,-1.25097,-0.770214,-0.0766021,167.798,-0.13656,
2,0,0,1,0,7376.79,-0.139416,-0.139725,-56.6682,6,-0.00479908,10,0.00791799,-1.24666,-0.751242,-0.0785366,173.762,-0.139725,
2,0,0,1,0,7376.8,-0.142612,-0.142906,-57.2089,6,-0.00502689,10,0.00817547,-1.24254,-0.737661,-0.0799826,178.674,-0.142906,
2,0,0,1,0,7376.8,-0.145819,-0.146165,-57.8134,6,-0.00525698,10,0.00845031,-1.23797,-0.736344,-0.0801255,180.803,-0.146165,
2,0,0,1,0,7376.81,-0.149015,-0.149308,-58.3868,6,-0.00548945,10,0.00871764,-1.23369,-0.731762,-0.0806273,183.709,-0.149308,
2,0,0,1,0,7376.81,-0.152211,-0.152542,-58.9856,6,-0.00572426,10,0.00899781,-1.22925,-0.73652,-0.0801065,184.404,-0.1525425,
2,0,0,1,0,7376.81,-0.155418,-0.15577,-59.5723,6,-0.00596146,10,0.0092796,-1.22496,-0.731902,-0.0806119,187.436,-0.15577,
2,0,0,1,0,7376.82,-0.158615,-0.158953,-60.1714,6,-0.00620102,10,0.00956441,-1.22061,-0.725838,-0.0812853,190.965,-0.158953,
2,0,0,1,0,7376.82,-0.161816,-0.162112,-60.7867,6,-0.00644301,10,0.00985422,-1.21619,-0.727507,-0.0810988,192.399,-0.162112,
2,0,0,1,0,7376.83,-0.165018,-0.165319,-61.4255,6,-0.00668749,10,0.0101548,-1.21165,-0.728434,-0.0809957,194.102,-0.165319,
2,0,0,1,0,7376.83,-0.168214,-0.168504,-62.0222,6,-0.00693447,10,0.010451,-1.20745,-0.738434,-0.0798988,193.382,-0.168504,
2,0,0,1,0,7376.83,-0.171419,-0.171751,-62.6556,6,-0.00718388,10,0.0107611,-1.20304,-0.740122,-0.0797166,194.948,-0.171751,
2,0,0,1,0,7376.84,-0.174615,-0.174922,-63.264,6,-0.00743578,10,0.0110663,-1.19884,-0.738581,-0.0798829,197.278,-0.174922,
2,0,0,1,0,7376.84,-0.177814,-0.178093,-63.9157,6,-0.00769018,10,0.0113829,-1.19439,-0.738091,-0.079936,199.404,-0.178093,
2,0,0,1,0,7376.85,-0.181015,-0.181334,-64.5532,6,-0.0079472,10,0.0117057,-1.19008,-0.736986,-0.0800558,201.66,-0.181334,
2,0,0,1,0,7376.85,-0.184211,-0.184504,-65.1987,6,-0.00820677,10,0.0120294,-1.18576,-0.743463,-0.0793583,201.952,-0.184504,
2,0,0,1,0,7376.85,-0.187419,-0.187714,-65.8436,6,-0.00846893,10,0.0123598,-1.18149,-0.736268,-0.0801339,205.957,-0.187714,
2,0,0,1,0,7376.86,-0.190615,-0.190962,-66.5147,6,-0.00873371,10,0.0127018,-1.17708,-0.730092,-0.0808117,209.825,-0.190962,
2,0,0,1,0,7376.86,-0.193811,-0.19407,-67.1764,6,-0.00900118,10,0.0130369,-1.17278,-0.735646,-0.0802016,210.094,-0.19407,
2,0,0,1,0,7376.87,-0.197018,-0.197282,-67.8798,6,-0.00927138,10,0.0133915,-1.16826,-0.765942,-0.0770294,202.873,-0.197282,
2,0,0,1,0,7376.87,-0.199647,-0.199964,-68.4173,6,-0.0094963,10,0.013681,-1.16483,0.387717,0.152173,-392.674,-0.199964,
2,0,0,1,0,7376.87,-0.200134,-0.20057,-68.4639,6,-0.00953739,10,0.0137318,-1.16454,-0.013224,-4.46158,10778.8,-0.2005704,
2,0,0,1,1,7376.87,-0.198935,-0.199424,-65.074,6,-0.00963653,10,0.0129773,-1.18659,-0.0472075,-1.2498,2830.03,-0.199424,
2,0,0,1,1,7376.87,-0.195739,-0.196207,-56.2899,6,-0.00987794,10,0.0110445,-1.24957,-0.0508338,-1.16065,2452.87,-0.1962069,
2,0,0,1,1,7376.88,-0.192535,-0.19301,-48.7354,6,-0.010087,10,0.0094064,-1.31216,-0.0496341,-1.1887,2273.89,-0.19301,
2,0,0,1,1,7376.88,-0.189339,-0.189777,-41.988,6,-0.0102676,10,0.00796834,-1.37687,-0.0474572,-1.24323,2032.92,-0.189777,
2,0,0,1,1,7376.89,-0.186137,-0.18657,-35.8449,6,-0.0104225,10,0.00668758,-1.44557,-0.0442896,-1.33214,1848.06,-0.1865699,
2,0,0,1,1,7376.89,-0.182935,-0.183373,-30.1992,6,-0.0105538,10,0.00553771,-1.52,-0.0402019,-1.46759,1703.02,-0.183373,
2,0,0,1,1,7376.89,-0.179739,-0.180158,-24.9839,6,-0.0106636,10,0.00450105,-1.60234,-0.0355811,-1.65819,1576.54,-0.180158,
2,0,0,1,1,7376.9,-0.176532,-0.176944,-20.1331,6,-0.0107532,10,0.00356243,-1.69609,-0.0304039,-1.94054,1462.9,-0.176944,
2,0,0,1,1,7376.9,-0.173336,-0.173754,-15.6399,6,-0.0108242,10,0.00271749,-1.80577,-0.0244088,-2.41716,1367.52,-0.173754,
2,0,0,1,1,7376.91,-0.17014,-0.170541,-11.4273,6,-0.0108779,10,0.00194882,-1.94206,-0.0175398,-3.36377,1279.58,-0.170541,
2,0,0,1,1,7376.91,-0.166932,-0.167342,-7.45765,6,-0.0109152,10,0.00124797,-2.1274,-0.00714483,-8.25771,1207.42,-0.167342,
2,0,0,1,1,7376.91,-0.163736,-0.164139,-3.7488,6,-0.0109371,10,0.000615325,-2.42611,-0.0218819,-2.69629,1135.95,-0.164139,
2,0,0,1,1,7376.92,-0.160532,-0.161014,-0.257731,6,-0.0109447,10,4.14983e-05,-3.58883,-0.146008,-0.404086,1064.32,-0.161014,
2,1,0,1,1,7376.92,-0.157336,-0.157838,3.00218,6,-0.0109389,10,-0.000473859,-2.52256,0.0332177,1.77616,1006.46,-0.157838,
2,1,0,1,1,7376.93,-0.154139,-0.154603,6.10036,6,-0.0109203,10,-0.000943133,-2.21464,0.00770197,7.66037,943.086,-0.154603,
2,1,0,1,1,7376.93,-0.150935,-0.151418,9.05399,6,-0.0108896,10,-0.00137094,-2.04316,0.0187468,3.1472,894.192,-0.151418,
2,1,0,1,1,7376.93,-0.147739,-0.148221,11.8069,6,-0.0108476,10,-0.00175004,-1.92786,0.0287484,2.05229,850.098,-0.148221,
2,1,0,1,1,7376.94,-0.144532,-0.145054,14.4338,6,-0.0107949,10,-0.00209368,-1.84062,0.0387804,1.52139,804.245,-0.145054,
2,1,0,1,1,7376.94,-0.141335,-0.14185,16.9412,6,-0.0107318,10,-0.00240312,-1.77106,0.0489704,1.20481,762.276,-0.14185,
2,1,0,1,1,7376.95,-0.138139,-0.138652,19.3212,6,-0.010659,10,-0.00267892,-1.71397,0.0595642,0.990529,722.868,-0.138652,
2,1,0,1,1,7376.95,-0.134932,-0.13538,21.5957,6,-0.0105769,10,-0.00292362,-1.66563,0.0710849,0.829993,681.223,-0.13538,
2,1,0,1,1,7376.95,-0.131736,-0.13219,23.7326,6,-0.010486,10,-0.00313722,-1.62465,0.0831363,0.709678,643.293,-0.13219,
2,1,0,1,1,7376.96,-0.12854,-0.128948,25.7303,6,-0.0103869,10,-0.00331788,-1.58955,0.0958541,0.615519,607.587,-0.128948,
2,1,0,1,1,7376.96,-0.125333,-0.125743,27.6257,6,-0.0102799,10,-0.00347373,-1.55869,0.109955,0.536582,570.485,-0.125743,
2,1,0,1,1,7376.97,-0.122136,-0.122551,29.3903,6,-0.0101657,10,-0.00360181,-1.5318,0.123745,0.476785,540.69,-0.122551,
2,1,0,1,1,7376.97,-0.118932,-0.119307,31.0821,6,-0.0100446,10,-0.00370832,-1.50749,0.139169,0.423945,509.056,-0.119307,
2,1,0,1,1,7376.97,-0.115736,-0.116131,32.6604,6,-0.00991692,10,-0.0037929,-1.48598,0.155088,0.380428,480.626,-0.116131,
2,1,0,1,1,7376.98,-0.11254,-0.112948,34.139,6,-0.00978315,10,-0.00385593,-1.46675,0.172792,0.341452,451.521,-0.112948,
2,1,0,1,1,7376.98,-0.109335,-0.109737,35.5491,6,-0.00964358,10,-0.00390105,-1.44917,0.191432,0.308203,424.755,-0.109737,
2,1,0,1,1,7376.99,-0.106139,-0.106538,36.8478,6,-0.00949863,10,-0.00392568,-1.43359,0.210716,0.279998,400.426,-0.1065378,
2,1,0,1,1,7376.99,-0.102932,-0.103311,38.1059,6,-0.00934857,10,-0.00393676,-1.41901,0.2332,0.253002,374.215,-0.103311,
2,1,0,1,1,7376.99,-0.0997357,-0.100137,39.2688,6,-0.00919369,10,-0.00393227,-1.40595,0.255178,0.231211,352.501,-0.100137,
2,1,0,1,1,7377,-0.0965395,-0.096904,40.3514,6,-0.00903429,10,-0.00391021,-1.39414,0.282253,0.209032,327.725,-0.096904,
2,1,0,1,1,7377,-0.0933323,-0.0937101,41.3696,6,-0.00887074,10,-0.00387674,-1.38332,0.308801,0.191061,307.313,-0.0937101,
2,1,0,1,1,7377.01,-0.0901362,-0.0904726,42.3134,6,-0.00870324,10,-0.0038282,-1.37352,0.336194,0.175494,288.857,-0.0904726,
2,1,0,1,1,7377.01,-0.0869345,-0.0872723,43.2223,6,-0.00853209,10,-0.00377211,-1.36429,0.368024,0.160316,269.516,-0.0872723,
2,1,0,1,1,7377.01,-0.0837328,-0.084089,44.0531,6,-0.00835741,10,-0.00370438,-1.35602,0.399552,0.147665,253.06,-0.084089,
2,1,0,1,1,7377.02,-0.0805366,-0.0808675,44.8308,6,-0.00817955,10,-0.00362536,-1.34842,0.437232,0.13494,235.432,-0.0808675,
2,1,0,1,1,7377.02,-0.0773322,-0.0776831,45.5499,6,-0.00799872,10,-0.00353846,-1.34151,0.477836,0.123473,218.939,-0.0776831,
2,1,0,1,1,7377.03,-0.074136,-0.0745294,46.2224,6,-0.00781511,10,-0.00344493,-1.33515,0.521386,0.11316,203.661,-0.0745294,
2,1,0,1,1,7377.03,-0.0709371,-0.0713387,46.8446,6,-0.0076289,10,-0.00334183,-1.32934,0.568595,0.103764,189.308,-0.0713387,
2,1,0,1,1,7377.03,-0.0677354,-0.0681277,47.4254,6,-0.00744027,10,-0.00323099,-1.32399,0.623776,0.0945853,174.727,-0.0681277,
2,1,0,1,1,7377.04,-0.0645393,-0.0649221,47.9656,6,-0.0072494,10,-0.00311403,-1.31907,0.683289,0.0863471,161.325,-0.0649221,
2,1,0,1,1,7377.04,-0.0613321,-0.0617038,48.4634,6,-0.00705651,10,-0.00299038,-1.31459,0.749289,0.0787413,148.654,-0.0617038,
2,1,0,1,1,7377.05,-0.0581359,-0.0584971,48.9163,6,-0.00686168,10,-0.00286146,-1.31055,0.821115,0.0718535,136.959,-0.0584971,
2,1,0,1,1,7377.05,-0.0549398,-0.055282,49.335,6,-0.00666513,10,-0.00272734,-1.30684,0.905717,0.0651417,125.234,-0.055282,
2,1,0,1,1,7377.05,-0.0517325,-0.05207,49.7259,6,-0.00646692,10,-0.00258923,-1.30342,0.995839,0.0592466,114.795,-0.05207,
2,1,0,1,1,7377.06,-0.0485364,-0.0489036,50.0664,6,-0.00626729,10,-0.00244843,-1.30045,1.10691,0.0533014,104.005,-0.0489036,
2,1,0,1,1,7377.06,-0.0453347,-0.0457001,50.3853,6,-0.00606635,10,-0.00230262,-1.2977,1.23523,0.0477643,93.8008,-0.0457001,
2,1,0,1,1,7377.07,-0.042133,-0.0424797,50.6665,6,-0.0058642,10,-0.0021523,-1.29528,1.36476,0.043231,85.3885,-0.0424797,
2,1,0,1,1,7377.07,-0.0389369,-0.0393536,50.9187,6,-0.00566099,10,-0.00200383,-1.29312,1.58893,0.037132,73.6991,-0.0393536,
2,1,0,1,1,7377.07,-0.0357324,-0.0361151,51.1584,6,-0.00545684,10,-0.00184759,-1.29108,1.82291,0.0323659,64.5175,-0.0361151,
2,1,0,1,1,7377.08,-0.0325363,-0.0328628,51.3314,6,-0.00525182,10,-0.0016869,-1.28962,2.1851,0.0270011,54.0224,-0.03286285,
2,1,0,1,1,7377.08,-0.0293374,-0.0297198,51.4897,6,-0.00504618,10,-0.00153027,-1.28828,2.66539,0.0221356,44.44,-0.0297198,
2,1,0,1,1,7377.09,-0.0261357,-0.0264675,51.6148,6,-0.00483991,10,-0.00136612,-1.28723,3.20913,0.0183851,37.0002,-0.0264675,
2,1,0,1,1,7377.09,-0.0229395,-0.0233224,51.7269,6,-0.00463322,10,-0.00120639,-1.28628,4.31594,0.0136703,27.5644,-0.0233224,
2,1,0,1,1,7377.09,-0.0197323,-0.0200849,51.8042,6,-0.00442615,10,-0.00104048,-1.28564,6.58157,0.00896442,18.098,-0.0200849,
2,1,0,1,1,7377.1,-0.0165361,-0.0168942,51.8433,6,-0.00421882,10,-0.00087585,-1.28531,11.7371,0.0050268,10.1606,-0.0168942,
2,1,0,1,1,7377.1,-0.01334,-0.0137045,51.8458,6,-0.00401143,10,-0.00071052,-1.28529,81.0552,0.000727899,1.4719,-0.01370448,
2,1,0,1,1,7377.11,-0.0101328,-0.0104724,51.8575,6,-0.00380401,10,-0.00054307,-1.28519,-20.0824,-0.0029379,-5.93983,-0.0104724,
2,1,0,1,1,7377.11,-0.00693663,-0.00731447,51.823,6,-0.00359663,10,-0.000379057,-1.28548,-9.25763,-0.00637312,-12.8752,-0.007314465,
2,1,0,1,1,7377.11,-0.00373494,-0.00409825,51.7673,6,-0.00338946,10,-0.000212155,-1.28594, , , ,-0.00409825,
2,1,0,1,1,7377.12,-0.000774629,-0.00116676,51.6844,6,-0.00319804,10,-6.03031e-05,-1.28664, , , ,-0.00116676,
2,1,0,0,1,7377.12,-0.000125413,-0.000516197,51.6831,6,-0.0031567,10,-2.66787e-05,-1.28665, , , ,-0.000516197,