File: Figure_codes/Fig_3-5/rawdata_trumpetplot_data/before 10th/20221101_1-115_002_TrumpetPlot_ParaChange_09_CV_C01_0.csv
mode,ox/red,error,control changes,counter inc.,time/s,control/V,Ewe/V,<I>/mA,cycle number,(Q-Qo)/C,I Range,P/W,log(|I|),Tafel slope mV/dec,alpha_eff,dI/d(E-IR),E-IR/V,
2,0,0,0,0,1184.29,2.44065e-05,1.82482e-05,-3.87168,1,0.0000000E+000,11,-7.06514e-08,-2.4121, , , ,1.82482e-05,
2,0,0,1,0,1184.31,0.0013005,0.00090179,-0.601156,1,-4.54963e-05,11,-5.42117e-07,-3.22101, , , ,0.00090179,
2,1,0,1,0,1184.34,0.00279471,0.00248,1.31767,1,-3.32437e-05,11,3.26783e-06,-2.88019,0.0430325,1.37106,945.832,0.00248,
2,1,0,1,0,1184.36,0.00429425,0.00398145,2.02606,1,1.00687e-05,11,8.06663e-06,-2.69335,0.00921734,6.40098,370.999,0.00398145,
2,1,0,1,0,1184.39,0.00579379,0.00549373,2.31127,1,6.49678e-05,11,1.26975e-05,-2.63615,0.031929,1.84785,155.162,0.005493728,
2,1,0,1,0,1184.41,0.007288,0.00699818,2.44817,1,0.000124499,11,1.71327e-05,-2.61116,0.0761602,0.774683,72.0753,0.00699818,
2,1,0,1,0,1184.44,0.00878882,0.00847996,2.51335,1,0.000186721,11,2.13131e-05,-2.59975,0.167018,0.353256,34.2635,0.00847996,
2,1,0,1,0,1184.46,0.0102896,0.0100215,2.54797,1,0.000250153,11,2.55345e-05,-2.59381,0.43882,0.134451,13.2646,0.0100215,
2,1,0,1,0,1184.49,0.0117838,0.0114933,2.57402,1,0.000313955,11,2.9584e-05,-2.58939,0.454678,0.129762,12.9817,0.0114933,
2,1,0,1,0,1184.51,0.0132834,0.0129502,2.58168,1,0.000378351,11,3.34332e-05,-2.5881,0.365268,0.161525,16.3387,0.0129502,
2,1,0,1,0,1184.54,0.0147816,0.0144875,2.59785,1,0.000443278,11,3.76363e-05,-2.58539,0.464715,0.12696,12.9301,0.0144875,
2,1,0,1,0,1184.56,0.0162811,0.0159647,2.62565,1,0.000508821,11,4.19177e-05,-2.58076,0.689713,0.0855429,8.73921,0.01596467,
2,1,0,1,0,1184.59,0.0177753,0.017514,2.64502,1,0.000574493,11,4.63249e-05,-2.57757,0.754369,0.078211,8.03204,0.017514,
2,1,0,1,0,1184.61,0.0192761,0.0189702,2.64553,1,0.000640559,11,5.01863e-05,-2.57749,0.610073,0.0967098,9.99275,0.0189702,
2,1,0,1,0,1184.64,0.020777,0.0204912,2.65558,1,0.000706997,11,5.44158e-05,-2.57584,0.558875,0.105569,10.9497,0.0204912,
2,1,0,1,0,1184.66,0.0222712,0.0220071,2.68084,1,0.000773564,11,5.89976e-05,-2.57173,1.00517,0.0586966,6.1259,0.0220071,
2,1,0,1,0,1184.69,0.0237707,0.0235287,2.69192,1,0.000840772,11,6.33372e-05,-2.56994,0.864149,0.0682753,7.16082,0.0235287,
2,1,0,1,0,1184.71,0.0252703,0.0249677,2.69427,1,0.000908197,11,6.72696e-05,-2.56956,0.661468,0.0891955,9.41984,0.0249677,
2,1,0,1,0,1184.74,0.0267645,0.0264891,2.70845,1,0.000975652,11,7.17445e-05,-2.56728,0.619756,0.0951987,10.0986,0.0264891,
2,1,0,1,0,1184.76,0.0282653,0.0279566,2.73518,1,0.00104379,11,7.64662e-05,-2.56301,0.845335,0.0697948,7.42607,0.0279566,
2,1,0,1,0,1184.79,0.0297648,0.0294735,2.74662,1,0.00111233,11,8.09525e-05,-2.5612,0.902885,0.0653461,6.96652,0.0294735,
2,1,0,1,0,1184.81,0.031259,0.0309774,2.73878,1,0.00118082,11,8.48401e-05,-2.56244,0.605672,0.0974125,10.4665,0.0309774,
2,1,0,1,0,1184.84,0.0327585,0.0324577,2.7515,1,0.00124964,11,8.93073e-05,-2.56043,0.814976,0.0723948,7.82779,0.0324577,
2,1,0,1,0,1184.86,0.034258,0.0339614,2.7787,1,0.00131899,11,9.43686e-05,-2.55616,0.719789,0.0819684,8.87081,0.03396143,
2,1,0,1,0,1184.89,0.0357576,0.0354688,2.7902,1,0.00138876,11,9.8965e-05,-2.55437,1.01143,0.0583332,6.33809,0.0354688,
2,1,0,1,0,1184.91,0.0372518,0.0369467,2.80241,1,0.00145852,11,0.00010354,-2.55247,0.690466,0.0854496,9.36037,0.03694668,
2,1,0,1,0,1184.93,0.0387526,0.0384769,2.80875,1,0.00152874,11,0.000108072,-2.55149,0.652304,0.0904486,9.96936,0.0384769,
2,1,0,1,0,1184.96,0.0402534,0.0399718,2.83736,1,0.00159944,11,0.000113414,-2.54709,0.601959,0.0980133,10.8462,0.0399718,
2,1,0,1,0,1184.98,0.0417476,0.0414679,2.86142,1,0.00167038,11,0.000118657,-2.54342,0.53796,0.109674,12.1798,0.0414679,
2,1,0,1,0,1185.01,0.0432472,0.04295,2.86974,1,0.00174205,11,0.000123255,-2.54216,0.533444,0.110602,12.3692,0.04295,
2,1,0,1,0,1185.03,0.0447467,0.0444711,2.87272,1,0.00181396,11,0.000127753,-2.54171,0.568358,0.103808,11.7083,0.0444711,
2,1,0,1,0,1185.06,0.0462463,0.0459756,2.90558,1,0.00188631,11,0.000133586,-2.53677,0.484125,0.121869,13.8113,0.0459756,
2,1,0,1,0,1185.08,0.0477391,0.0474568,2.93294,1,0.001959,11,0.000139188,-2.5327,0.439582,0.134218,15.3086,0.04745676,
2,1,0,1,0,1185.11,0.0492399,0.0489697,2.94399,1,0.00203255,11,0.000144166,-2.53106,0.430975,0.136899,15.7307,0.0489697,
2,1,0,1,0,1185.13,0.0507408,0.0504512,2.95825,1,0.00210656,11,0.000149247,-2.52896,0.454074,0.129935,15.0753,0.0504512,
2,1,0,1,0,1185.16,0.052235,0.0519293,2.99103,1,0.00218081,11,0.000155322,-2.52418,0.400145,0.147447,17.2533,0.0519293,
2,1,0,1,0,1185.18,0.0537345,0.0534534,3.04069,1,0.00225621,11,0.000162535,-2.51703,0.345366,0.170833,20.1572,0.0534534,
2,1,0,1,0,1185.21,0.0552341,0.0549593,3.05741,1,0.00233243,11,0.000168033,-2.51465,0.366683,0.160902,19.1772,0.0549593,
2,1,0,1,0,1185.23,0.0567283,0.0564283,3.07671,1,0.00240899,11,0.000173614,-2.51191,0.362169,0.162908,19.6611,0.0564283,
2,1,0,1,0,1185.26,0.0582291,0.0579498,3.11577,1,0.00248648,11,0.000180558,-2.50643,0.335579,0.175815,21.4087,0.0579498,
2,1,0,1,0,1185.28,0.0597299,0.0594401,3.16182,1,0.00256502,11,0.000187939,-2.50006,0.274178,0.215189,26.4657,0.0594401,
2,1,0,1,0,1185.31,0.0612228,0.0609927,3.19076,1,0.00264416,11,0.000194613,-2.49611,0.285467,0.206679,25.7424,0.06099268,
2,1,0,1,0,1185.33,0.0627223,0.0624459,3.22702,1,0.00272457,11,0.000201514,-2.4912,0.272176,0.216772,27.3954,0.0624459,
2,1,0,1,0,1185.36,0.0642218,0.0639687,3.26933,1,0.00280587,11,0.000209135,-2.48554,0.274162,0.215201,27.5347,0.0639687,
2,1,0,1,0,1185.38,0.0657214,0.0654777,3.32844,1,0.0028884,11,0.000217938,-2.47776,0.221858,0.265936,34.4468,0.0654777,
2,1,0,1,0,1185.41,0.0672156,0.0669326,3.37637,1,0.00297193,11,0.000225989,-2.47155,0.213773,0.275994,36.3004,0.0669326,
2,1,0,1,0,1185.43,0.0687164,0.0684721,3.41849,1,0.00305699,11,0.000234071,-2.46617,0.250342,0.235677,31.5172,0.0684721,
2,1,0,1,0,1185.46,0.0702172,0.0699492,3.46344,1,0.00314313,11,0.000242265,-2.46049,0.243528,0.242272,32.852,0.0699492,
2,1,0,1,0,1185.48,0.0717114,0.0714211,3.52841,1,0.00323027,11,0.000252003,-2.45242,0.204282,0.288817,39.6857,0.0714211,
2,1,0,1,0,1185.51,0.073211,0.0729527,3.58506,1,0.00331929,11,0.00026154,-2.4455,0.193201,0.305382,42.7403,0.0729527,
2,1,0,1,0,1185.53,0.0747105,0.0744317,3.63563,1,0.00340973,11,0.000270606,-2.43942,0.220268,0.267855,38.126,0.0744317,
2,1,0,1,0,1185.56,0.0762101,0.0759479,3.69109,1,0.00350157,11,0.00028033,-2.43285,0.222778,0.264837,38.2875,0.0759479,
2,1,0,1,0,1185.58,0.0777042,0.0774324,3.77091,1,0.00359453,11,0.00029199,-2.42355,0.19775,0.298357,43.7858,0.0774324,
2,1,0,1,0,1185.61,0.0792037,0.0789456,3.83261,1,0.00368953,11,0.000302567,-2.41651,0.186611,0.316166,47.2001,0.0789456,
2,1,0,1,0,1185.63,0.0807046,0.0804555,3.89172,1,0.00378621,11,0.00031311,-2.40986,0.209327,0.281855,42.7891,0.0804555,
2,1,0,1,0,1185.66,0.0821988,0.081924,3.95414,1,0.00388411,11,0.000323939,-2.40295,0.22115,0.266788,41.2215,0.081924,
2,1,0,1,0,1185.68,0.0836983,0.0833715,4.0224,1,0.00398388,11,0.000335354,-2.39551,0.209943,0.281029,44.1757,0.0833715,
2,1,0,1,0,1185.71,0.0851979,0.0848786,4.09425,1,0.00408546,11,0.000347514,-2.38783,0.19324,0.30532,48.7689,0.0848786,
2,1,0,1,0,1185.73,0.0866921,0.0864406,4.15951,1,0.00418843,11,0.00035955,-2.38096,0.218814,0.269635,43.7916,0.0864406,
2,1,0,1,0,1185.76,0.0881929,0.0879548,4.23789,1,0.00429357,11,0.000372743,-2.37285,0.235494,0.250537,41.3765,0.0879548,
2,1,0,1,0,1185.78,0.0896937,0.0893961,4.30929,1,0.00440024,11,0.000385234,-2.36559,0.217468,0.271304,45.5615,0.0893961,
2,1,0,1,0,1185.81,0.0911879,0.0908893,4.3764,1,0.0045083,11,0.000397768,-2.35888,0.191436,0.308197,52.5182,0.09088935,
2,1,0,1,0,1185.83,0.0926861,0.0923893,4.44371,1,0.0046187,11,0.000410551,-2.35225,0.204422,0.288618,50.0735,0.0923893,
2,1,0,1,0,1185.86,0.0941856,0.0939348,4.5145,1,0.00473084,11,0.000424069,-2.34539,0.239882,0.245955,43.379,0.0939348,
2,1,0,1,0,1185.88,0.0956852,0.0953829,4.58739,1,0.00484471,11,0.000437559,-2.33843,0.224782,0.262477,47.0015,0.0953829,
2,1,0,1,0,1185.91,0.0971794,0.0969168,4.65991,1,0.00495993,11,0.000451623,-2.33162,0.199458,0.295802,53.7924,0.0969168,
2,1,0,1,0,1185.93,0.0986802,0.0983895,4.7305,1,0.00507749,11,0.000465432,-2.32509,0.215641,0.273603,50.6003,0.0983895,
2,1,0,1,0,1185.96,0.100181,0.0998864,4.81269,1,0.00519704,11,0.000480722,-2.31761,0.228622,0.258068,48.4715,0.0998864,
2,1,0,1,0,1185.98,0.101675,0.101394,4.88804,1,0.00531797,11,0.000495617,-2.31087,0.219194,0.269168,51.3972,0.101394,
2,1,0,1,0,1186.01,0.103175,0.102878,4.97631,1,0.00544135,11,0.000511952,-2.30309,0.195249,0.302178,58.7766,0.102878,
2,1,0,1,0,1186.03,0.104674,0.104408,5.06221,1,0.00556694,11,0.000528533,-2.29566,0.192628,0.30629,60.604,0.104408,
2,1,0,1,0,1186.06,0.106169,0.105902,5.15677,1,0.00569439,11,0.000546112,-2.28762,0.197287,0.299057,60.218,0.105902,
2,1,0,1,0,1186.08,0.107668,0.107397,5.25947,1,0.00582468,11,0.000564853,-2.27906,0.187105,0.315331,64.7175,0.107397,
2,1,0,1,0,1186.11,0.109169,0.108847,5.35618,1,0.00595735,11,0.000583005,-2.27114,0.168005,0.35118,73.5534,0.1088471,
2,1,0,1,0,1186.13,0.110663,0.110406,5.46156,1,0.00609216,11,0.00060299,-2.26268,0.160943,0.36659,78.3187,0.110406,
2,1,0,1,0,1186.16,0.112163,0.111867,5.58519,1,0.00623051,11,0.000624799,-2.25296,0.161639,0.365011,79.6205,0.111867,
2,1,0,1,0,1186.18,0.113662,0.113369,5.71569,1,0.00637184,11,0.00064798,-2.24293,0.156503,0.376989,84.0407,0.113369,
2,1,0,1,0,1186.21,0.115162,0.114819,5.8439,1,0.00651633,11,0.000670989,-2.2333,0.139042,0.424332,96.9867,0.114819,
2,1,0,1,0,1186.23,0.116656,0.116332,5.98922,1,0.0066637,11,0.000696738,-2.22263,0.126482,0.466469,109.389,0.116332,
2,1,0,1,0,1186.26,0.118157,0.117884,6.16608,1,0.00681581,11,0.000726885,-2.20999,0.126474,0.466498,112.284,0.117884,
2,1,0,1,0,1186.28,0.119657,0.119427,6.34793,1,0.00697234,11,0.000758111,-2.19737,0.128362,0.459639,113.68,0.1194265,
2,1,0,1,0,1186.31,0.121152,0.120855,6.51492,1,0.00713246,11,0.00078736,-2.18609,0.119293,0.494581,126.041,0.120855,
2,1,0,1,0,1186.33,0.122651,0.122374,6.71018,1,0.00729785,11,0.000821151,-2.17327,0.110641,0.533258,139.9,0.122374,
2,1,0,1,0,1186.36,0.124151,0.123872,6.92014,1,0.00746843,11,0.000857213,-2.15989,0.110758,0.532693,144.123,0.123872,
2,1,0,1,0,1186.38,0.125649,0.125376,7.14073,1,0.00764438,11,0.000895276,-2.14626,0.111948,0.527033,146.861,0.125376,
2,1,0,1,0,1186.41,0.127143,0.126882,7.36522,1,0.00782517,11,0.000934514,-2.13281,0.109901,0.536847,154.447,0.126882,
2,1,0,1,0,1186.43,0.128644,0.128339,7.59987,1,0.00801231,11,0.000975359,-2.11919,0.108764,0.542458,161.084,0.128339,
2,1,0,1,0,1186.46,0.130145,0.129873,7.84609,1,0.00820563,11,0.001019,-2.10535,0.109893,0.536886,164.455,0.129873,
2,1,0,1,0,1186.48,0.131639,0.131392,8.10981,1,0.00840435,11,0.00106557,-2.09099,0.114983,0.513118,162.046,0.131392,
2,1,0,1,0,1186.51,0.133139,0.132851,8.35377,1,0.0086102,11,0.0011098,-2.07812,0.111868,0.527409,171.806,0.132851,
2,1,0,1,0,1186.53,0.134638,0.134406,8.59212,1,0.00882208,11,0.00115483,-2.0659,0.119837,0.492335,165.231,0.1344061,
2,1,0,1,0,1186.56,0.136132,0.135827,8.84505,1,0.00903942,11,0.0012014,-2.0533,0.122508,0.481601,166.151,0.135827,
2,1,0,1,0,1186.58,0.137633,0.137372,9.09876,1,0.00926379,11,0.00124991,-2.04102,0.129533,0.455482,161.335,0.137372,
2,1,0,1,0,1186.61,0.139133,0.138863,9.33162,1,0.00949422,11,0.00129582,-2.03004,0.142928,0.412794,149.86,0.1388634,
2,1,0,1,0,1186.63,0.140627,0.140353,9.53532,1,0.00972924,11,0.00133831,-2.02066,0.153307,0.38485,143.144,0.140353,
2,1,0,1,0,1186.66,0.142126,0.141845,9.74529,1,0.00997044,11,0.00138232,-2.01121,0.168607,0.349925,132.969,0.141845,
2,1,0,1,0,1186.68,0.143626,0.143363,9.95032,1,0.0102168,11,0.00142651,-2.00216,0.183041,0.322333,124.836,0.143363,
2,1,0,1,0,1186.71,0.145125,0.144833,10.1166,1,0.0104678,11,0.00146522,-1.99497,0.220995,0.266974,105.157,0.144833,
2,1,0,1,0,1186.73,0.14662,0.146343,10.2459,1,0.0107217,11,0.00149942,-1.98945,0.268497,0.219742,87.8024,0.146343,
2,1,0,1,0,1186.76,0.14812,0.147844,10.3737,1,0.0109797,11,0.00153369,-1.98406,0.338579,0.174258,70.4257,0.147844,
2,1,0,1,0,1186.78,0.149621,0.149349,10.4804,1,0.0112405,11,0.00156524,-1.97962,0.457409,0.128988,52.5617,0.149349,
2,1,0,1,0,1186.81,0.151116,0.150811,10.5416,1,0.0115022,11,0.00158979,-1.97709,0.783687,0.0752851,30.8386,0.150811,
2,1,0,1,0,1186.83,0.152615,0.15233,10.5615,1,0.0117663,11,0.00160883,-1.97628,4.24793,0.0138891,5.70901,0.15233,
2,1,0,1,0,1186.86,0.154115,0.15384,10.5463,1,0.0120303,11,0.00162245,-1.9769,-1.19144,-0.0495201,-20.3485,0.15384,
2,1,0,1,0,1186.88,0.155614,0.155296,10.5076,1,0.0122937,11,0.00163178,-1.9785,-0.496738,-0.118775,-48.513,0.155296,
2,1,0,1,0,1186.91,0.157107,0.156846,10.4201,1,0.0125544,11,0.00163436,-1.98213,-0.29018,-0.203322,-82.1678,0.156846,
2,1,0,1,0,1186.93,0.158608,0.158347,10.2648,1,0.0128132,11,0.0016254,-1.98865,-0.201999,-0.292081,-116.437,0.158347,
2,1,0,1,0,1186.96,0.160109,0.159844,10.0508,1,0.0130672,11,0.00160656,-1.9978,-0.146275,-0.403351,-157.514,0.159844,
2,1,0,1,0,1186.98,0.161603,0.16135,9.80087,1,0.0133145,11,0.00158137,-2.00874,-0.11623,-0.507613,-192.812,0.16135,
2,1,0,1,0,1187.01,0.163102,0.162846,9.48376,1,0.0135556,11,0.00154439,-2.02302,-0.0941666,-0.626549,-230.234,0.162846,
2,1,0,1,0,1187.03,0.164602,0.164294,9.09592,1,0.013788,11,0.00149441,-2.04115,-0.0774615,-0.761669,-268.755,0.164294,
2,1,0,1,0,1187.06,0.166096,0.16581,8.66079,1,0.0140092,11,0.00143604,-2.06244,-0.0660375,-0.893432,-300.666,0.16581,
2,1,0,1,0,1187.08,0.167597,0.167303,8.19804,1,0.0142201,11,0.00137156,-2.08629,-0.0598808,-0.98529,-313.65,0.167303,
2,1,0,1,0,1187.11,0.169098,0.168847,7.71624,1,0.014419,11,0.00130286,-2.11259,-0.0546841,-1.07892,-323.473,0.168847,
2,1,0,1,0,1187.13,0.170592,0.170298,7.21051,1,0.0146048,11,0.00122794,-2.14203,-0.0513028,-1.15004,-323.253,0.1702985,
2,1,0,1,0,1187.16,0.17209,0.171806,6.71133,1,0.0147791,11,0.00115305,-2.17319,-0.0496672,-1.18791,-312.291,0.1718064,
2,1,0,1,0,1187.18,0.17359,0.173311,6.2633,1,0.0149413,11,0.0010855,-2.2032,-0.0501103,-1.1774,-289.086,0.173311,
2,1,0,1,0,1187.21,0.175089,0.174758,5.85918,1,0.0150928,11,0.00102394,-2.23216,-0.0524958,-1.1239,-258.005,0.174758,
2,1,0,1,0,1187.23,0.176583,0.176316,5.49712,1,0.0152342,11,0.000969228,-2.25986,-0.0565895,-1.0426,-224.903,0.176316,
2,1,0,1,0,1187.26,0.178084,0.177819,5.18011,1,0.0153677,11,0.000921122,-2.28566,-0.0622429,-0.947899,-193.149,0.177819,
2,1,0,1,0,1187.28,0.179585,0.179333,4.92774,1,0.015494,11,0.000883706,-2.30735,-0.0707806,-0.833561,-161.281,0.179333,
2,1,0,1,0,1187.31,0.181079,0.180801,4.70457,1,0.0156139,11,0.00085059,-2.32748,-0.0811691,-0.726878,-134.166,0.180801,
2,1,0,1,0,1187.33,0.182579,0.182317,4.51803,1,0.0157293,11,0.000823715,-2.34505,-0.0905216,-0.651778,-115.323,0.182317,
2,1,0,1,0,1187.36,0.184078,0.183844,4.35454,1,0.0158403,11,0.000800553,-2.36106,-0.0953774,-0.618595,-105.543,0.183844,
2,1,0,1,0,1187.38,0.185578,0.185307,4.2066,1,0.0159473,11,0.000779513,-2.37607,-0.106154,-0.555798,-91.6904,0.185307,
2,1,0,1,0,1187.41,0.187072,0.186838,4.0877,1,0.0160506,11,0.000763736,-2.38852,-0.123179,-0.478978,-76.4391,0.186838,
2,1,0,1,0,1187.43,0.188573,0.188288,3.97172,1,0.0161514,11,0.000747829,-2.40102,-0.132021,-0.446899,-69.4293,0.188288,
2,1,0,1,0,1187.46,0.190072,0.189744,3.86401,1,0.0162495,11,0.000733173,-2.41296,-0.131307,-0.449329,-67.9472,0.189744,
2,1,0,1,0,1187.48,0.191567,0.191301,3.76743,1,0.0163447,11,0.000720714,-2.42395,-0.134422,-0.438916,-64.7516,0.191301,
2,1,0,1,0,1187.51,0.193066,0.192809,3.69492,1,0.016438,11,0.000712416,-2.43239,-0.163921,-0.35993,-51.8375,0.192809,
2,1,0,1,0,1187.53,0.194566,0.194289,3.61054,1,0.0165293,11,0.000701488,-2.44243,-0.175035,-0.337075,-47.5563,0.194289,
2,1,0,1,0,1187.56,0.19606,0.195785,3.52995,1,0.0166184,11,0.000691111,-2.45223,-0.153869,-0.383443,-52.9153,0.195785,
2,1,0,1,0,1187.58,0.197561,0.197272,3.45513,1,0.0167059,11,0.000681599,-2.46154,-0.167702,-0.351814,-47.5747,0.197272,
2,1,0,1,0,1187.61,0.199062,0.198793,3.40507,1,0.0167916,11,0.000676902,-2.46787,-0.191682,-0.307802,-40.8577,0.198793,
2,1,0,1,0,1187.63,0.200556,0.200299,3.34168,1,0.0168756,11,0.000669336,-2.47603,-0.237261,-0.248671,-32.4364,0.200299,
2,1,0,1,0,1187.66,0.202055,0.201769,3.28502,1,0.0169585,11,0.000662814,-2.48346,-0.195894,-0.301184,-38.6303,0.201769,
2,1,0,1,0,1187.68,0.203553,0.203295,3.23145,1,0.0170401,11,0.000656937,-2.4906,-0.223599,-0.263865,-33.358,0.203295,
2,1,0,1,0,1187.71,0.205053,0.204817,3.18514,1,0.0171204,11,0.000652371,-2.49687,-0.299835,-0.196775,-24.564,0.204817,
2,1,0,1,0,1187.73,0.206547,0.206263,3.14026,1,0.0171993,11,0.00064772,-2.50303,-0.306009,-0.192805,-23.6955,0.206263,
2,1,0,1,0,1187.76,0.208048,0.207733,3.10757,1,0.0172778,11,0.000645546,-2.50758,-0.256011,-0.230459,-27.9303,0.207733,
2,1,0,1,0,1187.78,0.209549,0.209243,3.07384,1,0.0173551,11,0.00064318,-2.51232,-0.222448,-0.26523,-31.7917,0.209243,
2,1,0,1,0,1187.81,0.211043,0.210803,3.03431,1,0.0174311,11,0.000639642,-2.51794,-0.286227,-0.20613,-24.376,0.210803,
2,1,0,1,0,1187.83,0.212543,0.212273,2.99996,1,0.0175065,11,0.00063681,-2.52288,-0.390008,-0.151279,-17.7106,0.212273,
2,1,0,1,0,1187.86,0.214042,0.213763,2.96317,1,0.0175812,11,0.000633415,-2.52824,-0.365665,-0.16135,-18.7508,0.213763,
2,1,0,1,0,1187.88,0.215536,0.21524,2.94117,1,0.0176549,11,0.000633056,-2.53148,-0.317982,-0.185545,-21.3102,0.21524,
2,1,0,1,0,1187.91,0.217036,0.216746,2.91174,1,0.0177281,11,0.000631107,-2.53585,-0.395521,-0.14917,-16.9569,0.216746,
2,1,0,1,0,1187.93,0.218537,0.218316,2.88348,1,0.0178007,11,0.00062951,-2.54008,-0.635924,-0.0927784,-10.4703,0.218316,
2,1,0,1,0,1187.96,0.220031,0.219755,2.86838,1,0.0178724,11,0.000630339,-2.54236,-0.501306,-0.117693,-13.1756,0.219755,
2,1,0,1,0,1187.98,0.22153,0.221279,2.84485,1,0.017944,11,0.000629507,-2.54594,-0.356531,-0.165483,-18.3408,0.221279,
2,1,0,1,0,1188.01,0.22303,0.222774,2.81684,1,0.018015,11,0.00062752,-2.55024,-0.485614,-0.121496,-13.37,0.222774,
2,1,0,1,0,1188.03,0.224529,0.224268,2.80264,1,0.0180853,11,0.000628544,-2.55243,-0.557014,-0.105922,-11.6102,0.224268,
2,1,0,1,0,1188.06,0.226024,0.22573,2.78238,1,0.0181549,11,0.000628065,-2.55558,-0.528521,-0.111632,-12.1423,0.22573,
2,1,0,1,0,1188.08,0.227525,0.227248,2.76877,1,0.0182245,11,0.000629196,-2.55771,-0.385519,-0.15304,-16.4926,0.227248,
2,1,0,1,0,1188.11,0.229025,0.228748,2.75296,1,0.0182935,11,0.000629732,-2.5602,-0.537414,-0.109785,-11.7799,0.228748,
2,1,0,1,0,1188.13,0.23052,0.230247,2.73312,1,0.0183618,11,0.000629293,-2.56334,-0.845661,-0.0697679,-7.45423,0.230247,
2,1,0,1,0,1188.16,0.232019,0.23171,2.71555,1,0.01843,11,0.00062922,-2.56614,-0.792028,-0.0744923,-7.91531,0.23171,
2,1,0,1,0,1188.18,0.233519,0.233274,2.7105,1,0.018498,11,0.000632288,-2.56695,-0.488831,-0.120696,-12.7374,0.233274,
2,1,0,1,0,1188.21,0.235018,0.234741,2.70212,1,0.0185657,11,0.0006343,-2.5683,-0.689397,-0.085582,-8.99418,0.234741,
2,1,0,1,0,1188.23,0.236511,0.236252,2.67106,1,0.0186325,11,0.000631044,-2.57332,-1.1825,-0.0498944,-5.21786,0.236252,
2,1,0,1,0,1188.26,0.238012,0.237796,2.66237,1,0.0186994,11,0.000633101,-2.57473,-1.10853,-0.0532236,-5.53211,0.237796,
2,1,0,1,0,1188.28,0.239513,0.239238,2.65558,1,0.018766,11,0.000635317,-2.57584,-0.761432,-0.0774856,-8.02435,0.239238,
2,1,0,1,0,1188.31,0.241007,0.240761,2.65206,1,0.0188322,11,0.000638511,-2.57642,-0.793822,-0.0743239,-7.6679,0.240761,
2,1,0,1,0,1188.33,0.242506,0.24226,2.62316,1,0.0188982,11,0.000635488,-2.58117,-1.01255,-0.0582687,-6.00014,0.24226,
2,1,0,1,0,1188.36,0.244006,0.243726,2.61762,1,0.0189639,11,0.000637982,-2.58209,-2.06593,-0.0285585,-2.9283,0.243726,
2,1,0,1,0,1188.38,0.2455,0.245247,2.61773,1,0.0190293,11,0.000641989,-2.58208,-0.668811,-0.0882163,-8.99532,0.245247,
2,1,0,1,0,1188.41,0.247001,0.246724,2.61339,1,0.0190946,11,0.000644786,-2.5828,-0.811709,-0.0726862,-7.366,0.246724,
2,1,0,1,0,1188.43,0.248502,0.248206,2.58974,1,0.0191597,11,0.000642788,-2.58674,-2.43537,-0.0242263,-2.45029,0.248206,
2,1,0,1,0,1188.46,0.249995,0.249688,2.57584,1,0.0192242,11,0.000643155,-2.58908,-1.05258,-0.0560527,-5.66714,0.249688,
2,1,0,1,0,1188.48,0.251494,0.251269,2.57189,1,0.0192888,11,0.000646235,-2.58975,-0.920541,-0.0640928,-6.44879,0.251269,
2,1,0,1,0,1188.51,0.252994,0.252726,2.56977,1,0.0193532,11,0.000649447,-2.59011,-0.733589,-0.0804265,-8.03994,0.252726,
2,1,0,1,0,1188.53,0.254493,0.254258,2.55751,1,0.0194174,11,0.000650269,-2.59218,-1.83412,-0.032168,-3.21346,0.254258,
2,1,0,1,0,1188.56,0.255988,0.255738,2.54438,1,0.019481,11,0.000650696,-2.59442,-0.914106,-0.0645439,-6.43855,0.255738,
2,1,0,1,0,1188.58,0.257488,0.257249,2.54255,1,0.0195448,11,0.000654068,-2.59473,-0.962954,-0.0612698,-6.07487,0.257249,
2,1,0,1,0,1188.61,0.258989,0.258782,2.5503,1,0.0196085,11,0.000659972,-2.59341,-1.06965,-0.0551582,-5.44591,0.258782,
2,1,0,1,0,1188.63,0.260483,0.260261,2.53267,1,0.0196717,11,0.000659155,-2.59642,-1.20301,-0.0490438,-4.84266,0.260261,
2,1,0,1,0,1188.66,0.261983,0.261694,2.51103,1,0.0197348,11,0.000657123,-2.60015,-1.21882,-0.0484074,-4.76745,0.261694,
2,1,0,1,0,1188.68,0.263482,0.263186,2.50842,1,0.0197977,11,0.000660181,-2.6006,-1.30871,-0.0450825,-4.42098,0.263186,
2,1,0,1,0,1188.71,0.264982,0.264701,2.51064,1,0.0198606,11,0.00066457,-2.60021,-1.20448,-0.0489837,-4.78414,0.264701,
2,1,0,1,0,1188.73,0.266476,0.266221,2.50133,1,0.019923,11,0.000665906,-2.60183,-2.09111,-0.0282147,-2.75094,0.266221,
2,1,0,1,0,1188.76,0.267976,0.267708,2.48158,1,0.0199855,11,0.000664339,-2.60527,-1.24546,-0.0473719,-4.61462,0.267708,
2,1,0,1,0,1188.78,0.269477,0.269206,2.48487,1,0.0200477,11,0.000668942,-2.6047,-1.07972,-0.054644,-5.30642,0.269206,
2,1,0,1,0,1188.81,0.270971,0.27069,2.49043,1,0.0201096,11,0.000674134,-2.60373,-1.70456,-0.034613,-3.33936,0.27069,
2,1,0,1,0,1188.83,0.27247,0.272203,2.47252,1,0.0201718,11,0.000673027,-2.60686,-1.46126,-0.0403762,-3.88851,0.272203,
2,1,0,1,0,1188.86,0.27397,0.273704,2.45735,1,0.0202336,11,0.000672587,-2.60953,-0.901848,-0.0654213,-6.30399,0.273704,
2,1,0,1,0,1188.88,0.275464,0.275212,2.45678,1,0.0202949,11,0.000676137,-2.60963,-0.738786,-0.0798607,-7.6754,0.275212,
2,1,0,1,0,1188.91,0.276965,0.276684,2.45813,1,0.0203564,11,0.000680126,-2.6094,-1.08561,-0.0543475,-5.19411,0.276684,
2,1,0,1,0,1188.93,0.278466,0.278203,2.45285,1,0.0204177,11,0.00068239,-2.61033,-1.52423,-0.038708,-3.68842,0.278203,
2,1,0,1,0,1188.96,0.27996,0.279734,2.43843,1,0.0204787,11,0.000682113,-2.61289,-1.87222,-0.0315134,-3.00421,0.279734,
2,1,0,1,0,1188.98,0.281458,0.28113,2.43128,1,0.0205396,11,0.000683506,-2.61416,-1.12727,-0.0523387,-4.97637,0.28113,
2,1,0,1,0,1189.01,0.282958,0.282671,2.43235,1,0.0206005,11,0.000687557,-2.61397,-4.21406,-0.0140008,-1.32539,0.282671,
2,1,0,1,0,1189.03,0.284457,0.284197,2.42157,1,0.0206613,11,0.000688203,-2.6159,-6.07445,-0.00971282,-0.917892,0.284197,
2,1,0,1,0,1189.05,0.285951,0.285715,2.41211,1,0.0207216,11,0.000689177,-2.6176,-1.02435,-0.0575975,-5.4367,0.285715,
2,1,0,1,0,1189.08,0.287452,0.287203,2.40329,1,0.020782,11,0.000690232,-2.61919,-0.971349,-0.0607402,-5.71609,0.287203,
2,1,0,1,0,1189.1,0.288953,0.288685,2.40781,1,0.0208422,11,0.000695099,-2.61838,-2.66082,-0.0221736,-2.07435,0.288685,
2,1,0,1,0,1189.13,0.290447,0.290162,2.39943,1,0.0209021,11,0.000696223,-2.61989,-3.23618,-0.0182314,-1.70639,0.290162,
2,1,0,1,0,1189.15,0.291947,0.291684,2.38784,1,0.0209621,11,0.000696497,-2.62199,-1.54301,-0.0382368,-3.56882,0.291684,
2,1,0,1,0,1189.18,0.293446,0.293197,2.37737,1,0.021022,11,0.000697037,-2.6239,-0.709973,-0.0831018,-7.75588,0.2931971,
2,1,0,1,0,1189.2,0.29494,0.294688,2.39078,1,0.0210814,11,0.000704535,-2.62146,-1.69661,-0.0347751,-3.23505,0.294688,
2,1,0,1,0,1189.23,0.29644,0.296186,2.38274,1,0.021141,11,0.000705734,-2.62292,-7.56353,-0.00780059,-0.7229,0.296186,
2,1,0,1,0,1189.25,0.297941,0.297676,2.36977,1,0.0212005,11,0.000705425,-2.62529,-2.09735,-0.0281307,-2.60223,0.297676,
2,1,0,1,0,1189.28,0.29944,0.299185,2.36073,1,0.0212598,11,0.000706297,-2.62695,-0.00242088,-24.3713,-1086.52,0.299185,
2,1,0,1,0,1189.29,0.299736,0.299501,1.5403,1,0.0212891,11,0.000461321,-2.81239,0.00220303,26.7813,2500.8,0.299501,
2,0,0,1,0,1189.32,0.298238,0.297941,-0.495601,1,0.021295,11,-0.00014766,-3.30487,0.00877972,6.72003,844.536,0.297941,
2,0,0,1,0,1189.34,0.296744,0.29645,-0.817069,1,0.0212774,11,-0.00024222,-3.08774,-0.00549291,-10.7411,186.465,0.29645,
2,0,0,1,0,1189.37,0.295243,0.294941,-0.902004,1,0.0212556,11,-0.000266038,-3.04479,-0.0431423,-1.36757,46.1261,0.2949414,
2,0,0,1,0,1189.39,0.293742,0.293415,-0.957175,1,0.0212323,11,-0.00028085,-3.01901,-0.0759973,-0.776344,28.5769,0.293415,
2,0,0,1,0,1189.42,0.292248,0.291946,-0.999567,1,0.021208,11,-0.00029182,-3.00019,-0.0764898,-0.771345,29.7698,0.291946,
2,0,0,1,0,1189.44,0.290748,0.290409,-1.03527,1,0.0211825,11,-0.000300652,-2.98494,-0.0772964,-0.763295,30.8101,0.290409,
2,0,0,1,0,1189.47,0.289249,0.288938,-1.07758,1,0.0211559,11,-0.000311355,-2.96755,-0.100631,-0.586302,24.7555,0.288938,
2,0,0,1,0,1189.49,0.287754,0.287431,-1.12223,1,0.0211284,11,-0.000322562,-2.94992,-0.117913,-0.500367,21.7252,0.287431,
2,0,0,1,0,1189.52,0.286254,0.285918,-1.15319,1,0.0211,11,-0.000329719,-2.9381,-0.109734,-0.537662,24.09,0.285918,
2,0,0,1,0,1189.54,0.284754,0.284506,-1.18313,1,0.0210707,11,-0.000336608,-2.92697,-0.106474,-0.554127,25.5901,0.284506,
2,0,0,1,0,1189.57,0.28326,0.282959,-1.21608,1,0.0210407,11,-0.000344101,-2.91504,-0.13869,-0.425409,20.1655,0.282959,
2,0,0,1,0,1189.59,0.28176,0.281484,-1.24839,1,0.0210098,11,-0.000351402,-2.90365,-0.185974,-0.317249,15.3658,0.281484,
2,0,0,1,0,1189.62,0.280261,0.279933,-1.2692,1,0.0209782,11,-0.000355292,-2.89647,-0.155818,-0.378646,18.7588,0.279933,
2,0,0,1,0,1189.64,0.278761,0.278496,-1.29398,1,0.020946,11,-0.000360368,-2.88807,-0.159468,-0.36998,18.8308,0.2784965,
2,0,0,1,0,1189.67,0.277267,0.276991,-1.32049,1,0.0209133,11,-0.000365763,-2.87927,-0.192108,-0.307119,15.9056,0.276991,
2,0,0,1,0,1189.69,0.275766,0.275457,-1.35743,1,0.0208797,11,-0.000373912,-2.86728,-0.27028,-0.218292,11.4372,0.275457,
2,0,0,1,0,1189.72,0.274265,0.273956,-1.37753,1,0.0208455,11,-0.000377382,-2.8609,-0.194757,-0.302942,16.1868,0.273956,
2,0,0,1,0,1189.74,0.272771,0.272451,-1.39149,1,0.0208111,11,-0.000379111,-2.85652,-0.180713,-0.326485,17.8317,0.272451,
2,0,0,1,0,1189.77,0.271272,0.27098,-1.41229,1,0.0207759,11,-0.000382703,-2.85008,-0.214112,-0.275557,15.2592,0.27098,
2,0,0,1,0,1189.79,0.269772,0.269483,-1.44763,1,0.02074,11,-0.000390112,-2.83934,-0.265189,-0.222483,12.4884,0.269483,
2,0,0,1,0,1189.82,0.268273,0.267983,-1.46575,1,0.0207036,11,-0.000392796,-2.83394,-0.267204,-0.220805,12.5438,0.267983,
2,0,0,1,0,1189.84,0.26678,0.266464,-1.46946,1,0.020667,11,-0.000391558,-2.83284,-0.214026,-0.275667,15.9545,0.266464,
2,0,0,1,0,1189.87,0.265279,0.264975,-1.49611,1,0.0206297,11,-0.000396432,-2.82504,-0.218901,-0.269528,15.7334,0.264975,
2,0,0,1,0,1189.89,0.263778,0.263465,-1.5215,1,0.0205919,11,-0.000400863,-2.81773,-0.341113,-0.172963,10.2431,0.2634654,
2,0,0,1,0,1189.92,0.262284,0.26197,-1.53909,1,0.0205536,11,-0.000403194,-2.81274,-0.303155,-0.19462,11.6524,0.26197,
2,0,0,1,0,1189.94,0.260784,0.260497,-1.54798,1,0.0205149,11,-0.000403246,-2.81023,-0.258157,-0.228543,13.9188,0.260497,
2,0,0,1,0,1189.97,0.259285,0.258981,-1.56843,1,0.0204758,11,-0.000406193,-2.80453,-0.268425,-0.219801,13.5388,0.258981,
2,0,0,1,0,1189.99,0.257791,0.257506,-1.60059,1,0.0204363,11,-0.000412162,-2.79572,-0.390293,-0.151168,9.37948,0.257506,
2,0,0,1,0,1190.02,0.25629,0.25599,-1.61844,1,0.020396,11,-0.000414306,-2.7909,-0.296361,-0.199081,12.4697,0.25599,
2,0,0,1,0,1190.04,0.254789,0.254515,-1.62551,1,0.0203554,11,-0.000413718,-2.78901,-0.276382,-0.213472,13.5838,0.254515,
2,0,0,1,0,1190.07,0.253296,0.252998,-1.63954,1,0.0203146,11,-0.000414801,-2.78528,-0.321658,-0.183425,11.8146,0.252998,
2,0,0,1,0,1190.09,0.251797,0.251505,-1.66226,1,0.0202732,11,-0.000418067,-2.7793,-0.353794,-0.166764,10.8248,0.251505,
2,0,0,1,0,1190.12,0.250297,0.250003,-1.68644,1,0.0202312,11,-0.000421614,-2.77303,-0.383298,-0.153927,10.0664,0.2500025,
2,0,0,1,0,1190.14,0.248797,0.248477,-1.69745,1,0.0201888,11,-0.000421778,-2.7702,-0.303328,-0.194509,12.9102,0.248477,
2,0,0,1,0,1190.17,0.247303,0.246941,-1.70648,1,0.0201464,11,-0.000421398,-2.7679,-0.344438,-0.171294,11.5019,0.246941,
2,0,0,1,0,1190.19,0.245802,0.245529,-1.73717,1,0.0201032,11,-0.000426526,-2.76016,-0.404727,-0.145777,9.81821,0.245529,
2,0,0,1,0,1190.22,0.244302,0.243992,-1.76344,1,0.0200594,11,-0.000430264,-2.75364,-0.326279,-0.180827,12.3306,0.243992,
2,0,0,1,0,1190.24,0.242807,0.242505,-1.76998,1,0.0200155,11,-0.000429229,-2.75203,-0.35949,-0.164121,11.3414,0.242505,
2,0,0,1,0,1190.27,0.241308,0.241024,-1.77483,1,0.0199711,11,-0.000427775,-2.75084,-0.366003,-0.161201,11.2739,0.241024,
2,0,0,1,0,1190.29,0.239808,0.239509,-1.80382,1,0.0199262,11,-0.000432031,-2.74381,-0.316689,-0.186303,13.1,0.2395089,
2,0,0,1,0,1190.32,0.238309,0.237987,-1.82608,1,0.0198807,11,-0.000434583,-2.73848,-0.315554,-0.186973,13.2639,0.237987,
2,0,0,1,0,1190.34,0.236815,0.236507,-1.8354,1,0.0198351,11,-0.000434086,-2.73627,-0.312189,-0.188988,13.5488,0.236507,
2,0,0,1,0,1190.37,0.235315,0.235035,-1.84012,1,0.0197889,11,-0.000432493,-2.73515,-0.355026,-0.166185,12.0497,0.235035,
2,0,0,1,0,1190.39,0.233814,0.233534,-1.87768,1,0.0197422,11,-0.000438503,-2.72638,-0.375345,-0.157189,11.4984,0.233534,
2,0,0,1,0,1190.42,0.23232,0.232001,-1.89971,1,0.0196952,11,-0.000440733,-2.72131,-0.313645,-0.188111,13.8704,0.232001,
2,0,0,1,0,1190.44,0.230821,0.230527,-1.91576,1,0.0196475,11,-0.000441635,-2.71766,-0.341735,-0.172648,12.8606,0.230527,
2,0,0,1,0,1190.47,0.229321,0.229001,-1.91776,1,0.0195993,11,-0.000439169,-2.71721,-0.403362,-0.14627,11.057,0.229001,
2,0,0,1,0,1190.49,0.227827,0.227528,-1.94866,1,0.019551,11,-0.000443374,-2.71026,-0.475748,-0.124015,9.45573,0.227528,
2,0,0,1,0,1190.52,0.226326,0.226029,-1.97658,1,0.0195019,11,-0.000446764,-2.70409,-0.329502,-0.179058,13.7578,0.226029,
2,0,0,1,0,1190.54,0.224825,0.224513,-1.9961,1,0.0194523,11,-0.000448152,-2.69982,-0.340349,-0.173352,13.4532,0.224513,
2,0,0,1,0,1190.57,0.223331,0.223056,-2.01103,1,0.0194023,11,-0.000448572,-2.69658,-0.35697,-0.16528,12.9683,0.223056,
2,0,0,1,0,1190.59,0.221831,0.221559,-2.03533,1,0.0193518,11,-0.000450946,-2.69136,-0.347611,-0.16973,13.4849,0.221559,
2,0,0,1,0,1190.62,0.220333,0.220042,-2.05723,1,0.0193006,11,-0.000452677,-2.68672,-0.249622,-0.236357,18.9516,0.220042,
2,0,0,1,0,1190.64,0.218834,0.218516,-2.08112,1,0.0192487,11,-0.000454759,-2.6817,-0.249102,-0.23685,19.24,0.218516,
2,0,0,1,0,1190.67,0.217339,0.21703,-2.09706,1,0.0191965,11,-0.000455125,-2.67839,-0.348401,-0.169345,13.9527,0.21703,
2,0,0,1,0,1190.69,0.215839,0.21548,-2.12033,1,0.0191436,11,-0.00045689,-2.6736,-0.383609,-0.153802,12.7661,0.21548,
2,0,0,1,0,1190.72,0.214338,0.214,-2.15551,1,0.01909,11,-0.00046128,-2.66645,-0.245148,-0.240671,20.1672,0.214,
2,0,0,1,0,1190.74,0.212844,0.212549,-2.18117,1,0.0190361,11,-0.000463605,-2.66131,-0.23512,-0.250936,21.347,0.212549,
2,0,0,1,0,1190.77,0.211344,0.21107,-2.20158,1,0.0189811,11,-0.000464686,-2.65727,-0.301754,-0.195524,16.8408,0.21107,
2,0,0,1,0,1190.79,0.209845,0.209549,-2.22726,1,0.0189255,11,-0.00046672,-2.65223,-0.306123,-0.192733,16.8222,0.209549,
2,0,0,1,0,1190.82,0.20835,0.208038,-2.26629,1,0.0188695,11,-0.000471474,-2.64469,-0.230525,-0.255938,22.7233,0.208038,
2,0,0,1,0,1190.84,0.206851,0.20654,-2.30779,1,0.0188124,11,-0.000476651,-2.6368,-0.200167,-0.294753,26.4152,0.20654,
2,0,0,1,0,1190.87,0.20535,0.205012,-2.33091,1,0.0187542,11,-0.000477864,-2.63247,-0.265189,-0.222483,20.2151,0.205012,
2,0,0,1,0,1190.89,0.203856,0.203562,-2.36598,1,0.0186955,11,-0.000481623,-2.62599,-0.286516,-0.205922,19.0454,0.203562,
2,0,0,1,0,1190.92,0.202356,0.20206,-2.39925,1,0.018636,11,-0.000484791,-2.61992,-0.239752,-0.246087,23.0437,0.20206,
2,0,0,1,0,1190.94,0.200857,0.200551,-2.43706,1,0.0185755,11,-0.000488754,-2.61313,-0.190575,-0.30959,29.4409,0.200551,
2,0,0,1,0,1190.97,0.199357,0.199038,-2.47481,1,0.0185139,11,-0.000492582,-2.60646,-0.211749,-0.278632,26.9606,0.199038,
2,0,0,1,0,1190.99,0.197863,0.197553,-2.51811,1,0.0184516,11,-0.000497461,-2.59892,-0.235013,-0.251049,24.7304,0.197553,
2,0,0,1,0,1191.02,0.196362,0.19608,-2.56686,1,0.0183881,11,-0.000503311,-2.5906,-0.194605,-0.303178,30.3235,0.19608,
2,0,0,1,0,1191.04,0.194861,0.194574,-2.61071,1,0.0183233,11,-0.000507977,-2.58324,-0.155057,-0.380505,38.7807,0.194574,
2,0,0,1,0,1191.07,0.193367,0.19305,-2.66192,1,0.0182575,11,-0.000513882,-2.57481,-0.167643,-0.351938,36.651,0.19305,
2,0,0,1,0,1191.09,0.191868,0.191557,-2.71763,1,0.0181901,11,-0.000520581,-2.56581,-0.19047,-0.309759,32.9159,0.191557,
2,0,0,1,0,1191.12,0.190368,0.190088,-2.76784,1,0.0181214,11,-0.000526133,-2.55786,-0.173977,-0.339124,36.6916,0.190088,
2,0,0,1,0,1191.14,0.18887,0.188577,-2.83137,1,0.0180513,11,-0.000533932,-2.548,-0.145422,-0.405715,44.8904,0.188577,
2,0,0,1,0,1191.17,0.187376,0.187103,-2.89441,1,0.01798,11,-0.000541553,-2.53844,-0.143344,-0.411598,46.5882,0.187103,
2,0,0,1,0,1191.19,0.185875,0.185563,-2.96579,1,0.0179066,11,-0.000550339,-2.52786,-0.159689,-0.369467,42.7131,0.185563,
2,0,0,1,0,1191.22,0.184374,0.184052,-3.03458,1,0.0178314,11,-0.00055852,-2.5179,-0.144728,-0.407662,48.2982,0.184052,
2,0,0,1,0,1191.24,0.18288,0.182614,-3.11787,1,0.0177549,11,-0.000569366,-2.50614,-0.127917,-0.461236,56.2073,0.1826137,
2,0,0,1,0,1191.27,0.18138,0.181097,-3.19352,1,0.0176759,11,-0.000578337,-2.49573,-0.122754,-0.480635,60.1618,0.181097,
2,0,0,1,0,1191.29,0.179881,0.179594,-3.28872,1,0.0175946,11,-0.000590635,-2.48297,-0.130995,-0.450398,57.9019,0.179594,
2,0,0,1,0,1191.32,0.178387,0.178133,-3.39015,1,0.0175113,11,-0.000603897,-2.46978,-0.121683,-0.484866,64.1637,0.1781328,
2,0,0,1,0,1191.34,0.176886,0.176584,-3.49223,1,0.0174254,11,-0.000616672,-2.4569,-0.108642,-0.543067,74.019,0.176584,
2,0,0,1,0,1191.37,0.175385,0.175071,-3.59971,1,0.0173368,11,-0.000630206,-2.44373,-0.10229,-0.576792,81.1356,0.175071,
2,0,0,1,0,1191.39,0.173892,0.173602,-3.72147,1,0.0172455,11,-0.000646055,-2.42929,-0.103496,-0.570071,82.8656,0.173602,
2,0,0,1,0,1191.42,0.172392,0.172075,-3.85504,1,0.0171507,11,-0.000663358,-2.41397,-0.101782,-0.579673,87.1313,0.172075,
2,0,0,1,0,1191.44,0.170893,0.170638,-3.98452,1,0.0170527,11,-0.000679909,-2.39962,-0.0940018,-0.627647,97.8399,0.1706377,
2,0,0,1,0,1191.47,0.169393,0.169072,-4.12849,1,0.0169512,11,-0.000698012,-2.38421,-0.0869444,-0.678594,109.839,0.169072,
2,0,0,1,0,1191.49,0.167899,0.167547,-4.30686,1,0.016846,11,-0.000721603,-2.36584,-0.0882125,-0.668839,112.597,0.167547,
2,0,0,1,0,1191.52,0.166398,0.166098,-4.48134,1,0.016736,11,-0.000744342,-2.34859,-0.0866734,-0.680716,119.128,0.166098,
2,0,0,1,0,1191.54,0.164898,0.164582,-4.66357,1,0.0166216,11,-0.000767538,-2.33128,-0.0811832,-0.726751,132.526,0.164582,
2,0,0,1,0,1191.57,0.163403,0.163096,-4.86614,1,0.0165029,11,-0.000793649,-2.31282,-0.0811661,-0.726905,138.217,0.163096,
2,0,0,1,0,1191.59,0.161904,0.161644,-5.07328,1,0.0163784,11,-0.000820063,-2.29471,-0.0780934,-0.755506,150.24,0.161644,
2,0,0,1,0,1191.62,0.160404,0.160124,-5.32186,1,0.0162485,11,-0.000852157,-2.27394,-0.076967,-0.766562,159.208,0.160124,
2,0,0,1,0,1191.64,0.158905,0.158593,-5.56836,1,0.0161123,11,-0.000883105,-2.25427,-0.0732089,-0.805913,175.238,0.158593,
2,0,0,1,0,1191.67,0.157411,0.157096,-5.83043,1,0.0159703,11,-0.000915936,-2.2343,-0.0733614,-0.804238,183.358,0.1570958,
2,0,0,1,0,1191.69,0.155911,0.15565,-6.10501,1,0.0158209,11,-0.000950244,-2.21431,-0.0743802,-0.793222,189.242,0.15565,
2,0,0,1,0,1191.72,0.15441,0.154093,-6.40304,1,0.0156644,11,-0.000986665,-2.19361,-0.0774881,-0.761407,189.967,0.154093,
2,0,0,1,0,1191.74,0.152916,0.152611,-6.70037,1,0.0155012,11,-0.00102255,-2.1739,-0.0780987,-0.755454,197.111,0.1526105,
2,0,0,1,0,1191.77,0.151417,0.151103,-6.98285,1,0.0153301,11,-0.00105513,-2.15597,-0.0804784,-0.733116,200.035,0.1511026,
2,0,0,1,0,1191.79,0.149917,0.149578,-7.288,1,0.0151515,11,-0.00109013,-2.13739,-0.0829867,-0.710957,202.293,0.149578,
2,0,0,1,0,1191.82,0.148423,0.148136,-7.60415,1,0.014966,11,-0.00112645,-2.11895,-0.0861181,-0.685105,202.93,0.148136,
2,0,0,1,0,1191.84,0.146922,0.146603,-7.9091,1,0.014772,11,-0.00115949,-2.10187,-0.0892199,-0.661287,203.517,0.146603,
2,0,0,1,0,1191.87,0.145421,0.145137,-8.18783,1,0.0145707,11,-0.00118836,-2.08683,-0.0958723,-0.615402,196.689,0.1451371,
2,0,0,1,0,1191.89,0.143927,0.143624,-8.4833,1,0.0143629,11,-0.0012184,-2.07144,-0.100053,-0.589686,195.207,0.143624,
2,0,0,1,0,1191.92,0.142429,0.142165,-8.78533,1,0.0141469,11,-0.00124896,-2.05624,-0.109264,-0.539975,184.591,0.142165,
2,0,0,1,0,1191.94,0.140929,0.140643,-9.05031,1,0.0139237,11,-0.00127286,-2.04334,-0.121145,-0.487021,171.484,0.140643,
2,0,0,1,0,1191.97,0.13943,0.139161,-9.28095,1,0.0136942,11,-0.00129155,-2.03241,-0.135194,-0.436411,158.034,0.139161,
2,0,0,1,0,1191.99,0.137935,0.137634,-9.51484,1,0.01346,11,-0.00130956,-2.0216,-0.152382,-0.387185,143.627,0.137634,
2,0,0,1,0,1192.02,0.136435,0.136151,-9.73379,1,0.0132192,11,-0.00132527,-2.01172,-0.172038,-0.342948,129.811,0.136151,
2,0,0,1,0,1192.04,0.134934,0.134615,-9.92562,1,0.0129734,11,-0.00133614,-2.00324,-0.199694,-0.295452,113.95,0.134615,
2,0,0,1,0,1192.07,0.13344,0.133121,-10.0683,1,0.0127244,11,-0.0013403,-1.99704,-0.240598,-0.245223,96.1826,0.133121,
2,0,0,1,0,1192.09,0.13194,0.131673,-10.1941,1,0.0124709,11,-0.00134229,-1.99165,-0.307032,-0.192162,76.3792,0.131673,
2,0,0,1,0,1192.12,0.13044,0.130142,-10.3122,1,0.0122144,11,-0.00134205,-1.98665,-0.399699,-0.147611,59.2201,0.1301419,
2,0,0,1,0,1192.14,0.128941,0.128651,-10.3864,1,0.0119555,11,-0.00133622,-1.98353,-0.619944,-0.09517,38.4068,0.128651,
2,0,0,1,0,1192.16,0.127447,0.127138,-10.4202,1,0.0116964,11,-0.00132481,-1.98212,-1.79236,-0.0329176,13.3423,0.127138,
2,0,0,1,0,1192.19,0.125946,0.125655,-10.413,1,0.0114359,11,-0.00130845,-1.98242,1.60317,0.0368022,-14.9155,0.125655,
2,0,0,1,0,1192.21,0.124446,0.124134,-10.3844,1,0.0111758,11,-0.00128905,-1.98362,0.629713,0.0936935,-37.8007,0.124134,
2,0,0,1,0,1192.24,0.122952,0.12266,-10.3078,1,0.0109181,11,-0.00126436,-1.98683,0.373145,0.158115,-63.3305,0.1226602,
2,0,0,1,0,1192.26,0.121453,0.121153,-10.1764,1,0.0106618,11,-0.00123291,-1.9924,0.245015,0.240802,-95.3314,0.121153,
2,0,0,1,0,1192.29,0.119953,0.119669,-10.0032,1,0.0104092,11,-0.00119707,-1.99986,0.184407,0.319945,-124.727,0.119669,
2,0,0,1,0,1192.31,0.118459,0.118179,-9.81812,1,0.0101623,11,-0.00116029,-2.00797,0.158465,0.372322,-142.149,0.118179,
2,0,0,1,0,1192.34,0.116958,0.116595,-9.59257,1,0.00991963,11,-0.00111845,-2.01806,0.132749,0.444447,-165.607,0.116595,
2,0,0,1,0,1192.36,0.115457,0.115116,-9.31093,1,0.00968324,11,-0.00107183,-2.03101,0.114212,0.516583,-187.106,0.115116,
2,0,0,1,0,1192.39,0.113963,0.113659,-9.00708,1,0.00945489,11,-0.00102374,-2.04542,0.10188,0.579114,-203.352,0.113659,
2,0,0,1,0,1192.41,0.112464,0.11219,-8.70621,1,0.0092334,11,-0.000976748,-2.06017,0.0950976,0.620415,-210.53,0.11219,
2,0,0,1,0,1192.44,0.110965,0.110647,-8.38376,1,0.00901974,11,-0.000927636,-2.07656,0.0920705,0.640813,-209.526,0.110647,
2,0,0,1,0,1192.46,0.109466,0.109126,-8.06783,1,0.00881398,11,-0.00088041,-2.09324,0.0891387,0.66189,-208.391,0.109126,
2,0,0,1,0,1192.49,0.107972,0.107641,-7.76083,1,0.00861685,11,-0.000835384,-2.11009,0.0884893,0.666747,-202.194,0.107641,
2,0,0,1,0,1192.51,0.106471,0.106182,-7.46942,1,0.00842657,11,-0.000793118,-2.12671,0.0909768,0.648517,-189.372,0.1061819,
2,0,0,1,0,1192.54,0.10497,0.104664,-7.2025,1,0.00824326,11,-0.000753844,-2.14252,0.0988378,0.596938,-168.018,0.104664,
2,0,0,1,0,1192.56,0.103476,0.103157,-6.96131,1,0.00806692,11,-0.000718108,-2.15731,0.10502,0.561796,-152.935,0.103157,
2,0,0,1,0,1192.59,0.101976,0.101667,-6.73477,1,0.00789564,11,-0.000684705,-2.17168,0.109921,0.536747,-141.533,0.101667,
2,0,0,1,0,1192.61,0.100477,0.10018,-6.53553,1,0.00772974,11,-0.000654731,-2.18472,0.117435,0.502405,-128.583,0.10018,
2,0,0,1,0,1192.64,0.0989825,0.0986776,-6.36892,1,0.00756914,11,-0.00062847,-2.19593,0.13945,0.423092,-105.291,0.0986776,
2,0,0,1,0,1192.66,0.0974817,0.0971664,-6.21478,1,0.00741189,11,-0.000603868,-2.20657,0.155832,0.378613,-91.9486,0.0971664,
2,0,0,1,0,1192.69,0.0959822,0.0956316,-6.06953,1,0.00725819,11,-0.000580439,-2.21684,0.158685,0.371805,-88.3108,0.0956316,
2,0,0,1,0,1192.71,0.094488,0.0942319,-5.94519,1,0.00710849,11,-0.000560227,-2.22583,0.173318,0.340415,-79.2307,0.0942319,
2,0,0,1,0,1192.74,0.0929884,0.092714,-5.8428,1,0.00696104,11,-0.000541709,-2.23338,0.205871,0.286588,-65.437,0.092714,
2,0,0,1,0,1192.76,0.0914889,0.0911692,-5.7484,1,0.00681608,11,-0.000524077,-2.24045,0.219557,0.268723,-60.3599,0.0911692,
2,0,0,1,0,1192.79,0.0899894,0.0896701,-5.65345,1,0.00667337,11,-0.000506945,-2.24769,0.211705,0.278689,-61.5624,0.0896701,
2,0,0,1,0,1192.81,0.0884951,0.0882077,-5.56759,1,0.00653348,11,-0.000491104,-2.25433,0.21733,0.271477,-59.0672,0.0882077,
2,0,0,1,0,1192.84,0.0869943,0.0866654,-5.49471,1,0.00639521,11,-0.000476201,-2.26006,0.247778,0.238116,-51.0705,0.08666537,
2,0,0,1,0,1192.86,0.0854935,0.0851617,-5.41705,1,0.0062588,11,-0.000461325,-2.26624,0.260315,0.226648,-47.9116,0.0851617,
2,0,0,1,0,1192.89,0.0839993,0.0836808,-5.34122,1,0.00612469,11,-0.000446957,-2.27236,0.248967,0.23698,-49.4378,0.0836808,
2,0,0,1,0,1192.91,0.0824998,0.0821889,-5.27873,1,0.00599188,11,-0.000433853,-2.27747,0.236853,0.249099,-51.2776,0.0821889,
2,0,0,1,0,1192.94,0.0810002,0.0806813,-5.2044,1,0.0058609,11,-0.000419897,-2.28363,0.266785,0.221152,-44.9348,0.0806813,
2,0,0,1,0,1192.96,0.0795007,0.0791909,-5.13277,1,0.00573163,11,-0.000406469,-2.28965,0.30007,0.196621,-39.4315,0.0791909,
2,0,0,1,0,1192.99,0.0780078,0.0777202,-5.0672,1,0.00560445,11,-0.000393823,-2.29523,0.264735,0.222865,-44.0949,0.07772021,
2,0,0,1,0,1193.01,0.076507,0.0761744,-5.00487,1,0.00547838,11,-0.000381243,-2.30061,0.233453,0.252728,-49.2951,0.0761744,
2,0,0,1,0,1193.04,0.0750062,0.074724,-4.93015,1,0.0053542,11,-0.000368401,-2.30714,0.243855,0.241947,-46.5496,0.074724,
2,0,0,1,0,1193.06,0.073512,0.073239,-4.86226,1,0.00523221,11,-0.000356107,-2.31316,0.279399,0.211168,-40.0836,0.073239,
2,0,0,1,0,1193.09,0.0720124,0.0717128,-4.79771,1,0.00511134,11,-0.000344057,-2.31897,0.250924,0.235131,-44.0764,0.0717128,
2,0,0,1,0,1193.11,0.0705129,0.0702131,-4.73558,1,0.00499202,11,-0.0003325,-2.32463,0.223041,0.264526,-48.8365,0.0702131,
2,0,0,1,0,1193.14,0.0690187,0.0687145,-4.66493,1,0.00487496,11,-0.000320548,-2.33115,0.240928,0.244886,-44.6116,0.0687145,
2,0,0,1,0,1193.16,0.0675179,0.0672121,-4.60093,1,0.00475917,11,-0.000309238,-2.33715,0.276695,0.213231,-38.2899,0.0672121,
2,0,0,1,0,1193.19,0.066017,0.0657301,-4.54191,1,0.00464488,11,-0.00029854,-2.34276,0.257816,0.228845,-40.5255,0.0657301,
2,0,0,1,0,1193.21,0.0645242,0.0642012,-4.47793,1,0.00453251,11,-0.000287488,-2.34892,0.233872,0.252274,-43.9885,0.0642012,
2,0,0,1,0,1193.24,0.0630246,0.0627116,-4.41427,1,0.00442126,11,-0.000276826,-2.35514,0.251781,0.234331,-40.3663,0.0627116,
2,0,0,1,0,1193.26,0.0615251,0.0612398,-4.34675,1,0.00431169,11,-0.000266194,-2.36184,0.280739,0.21016,-35.7834,0.0612398,
2,0,0,1,0,1193.29,0.0600256,0.0597427,-4.29123,1,0.00420349,11,-0.00025637,-2.36742,0.280582,0.210277,-35.3493,0.0597427,
2,0,0,1,0,1193.31,0.0585314,0.0582225,-4.25182,1,0.00409693,11,-0.000247552,-2.37142,0.26302,0.224317,-37.1716,0.05822251,
2,0,0,1,0,1193.34,0.0570305,0.0567335,-4.20577,1,0.00399122,11,-0.000238608,-2.37615,0.283727,0.207946,-34.0654,0.0567335,
2,0,0,1,0,1193.36,0.0555297,0.0552291,-4.15102,1,0.00388683,11,-0.000229257,-2.38184,0.34816,0.169462,-27.4778,0.0552291,
2,0,0,1,0,1193.39,0.0540355,0.0537699,-4.10496,1,0.00378397,11,-0.000220723,-2.38669,0.377127,0.156446,-25.1302,0.0537699,
2,0,0,1,0,1193.41,0.052536,0.0522424,-4.0799,1,0.00368153,11,-0.000213144,-2.38935,0.350966,0.168107,-26.7167,0.0522424,
2,0,0,1,0,1193.44,0.0510364,0.0507263,-4.04539,1,0.00357996,11,-0.000205207,-2.39304,0.373516,0.157959,-24.8983,0.0507263,
2,0,0,1,0,1193.46,0.0495369,0.0492189,-3.99519,1,0.00347944,11,-0.000196639,-2.39846,0.464476,0.127025,-19.8796,0.0492189,
2,0,0,1,0,1193.49,0.0480427,0.0477433,-3.96698,1,0.00338015,11,-0.000189397,-2.40154,0.563359,0.104729,-16.2592,0.04774332,
2,0,0,1,0,1193.51,0.0465432,0.046247,-3.95211,1,0.00328104,11,-0.000182773,-2.40317,0.497776,0.118527,-18.2629,0.046247,
2,0,0,1,0,1193.54,0.0450424,0.0447451,-3.93068,1,0.0031825,11,-0.000175879,-2.40553,0.569648,0.103573,-15.8473,0.0447451,
2,0,0,1,0,1193.56,0.0435482,0.0432593,-3.89567,1,0.003085,11,-0.000168524,-2.40942,0.780519,0.0755907,-11.5176,0.04325927,
2,0,0,1,0,1193.59,0.0420486,0.0417279,-3.87412,1,0.00298772,11,-0.000161659,-2.41183,0.839819,0.0702532,-10.6711,0.0417279,
2,0,0,1,0,1193.61,0.0405491,0.0402257,-3.87633,1,0.00289072,11,-0.000155928,-2.41158,0.937314,0.0629458,-9.50615,0.0402257,
2,0,0,1,0,1193.64,0.0390549,0.0387429,-3.86377,1,0.0027943,11,-0.000149694,-2.41299,0.850747,0.0693508,-10.423,0.0387429,
2,0,0,1,0,1193.66,0.0375541,0.0372486,-3.84899,1,0.00269786,11,-0.000143369,-2.41465,1.20675,0.0488916,-7.34814,0.0372486,
2,0,0,1,0,1193.69,0.0360532,0.0358142,-3.82883,1,0.00260191,11,-0.000137127,-2.41693,1.34651,0.0438171,-6.5743,0.0358142,
2,0,0,1,0,1193.71,0.034559,0.0342756,-3.83215,1,0.00250644,11,-0.000131349,-2.41656,2.42952,0.0242846,-3.62852,0.0342756,
2,0,0,1,0,1193.74,0.0330595,0.0327569,-3.8344,1,0.00241061,11,-0.000125603,-2.4163,2.59016,0.0227785,-3.39475,0.0327569,
2,0,0,1,0,1193.76,0.0315613,0.0312693,-3.82413,1,0.00231491,11,-0.000119578,-2.41747,14.3496,0.00411161,-0.613395,0.0312693,
2,0,0,1,0,1193.79,0.0300618,0.0297478,-3.81053,1,0.00221944,11,-0.000113355,-2.41901,11.652,0.00506352,-0.755312,0.0297478,
2,0,0,1,0,1193.81,0.0285676,0.0282567,-3.817,1,0.00212435,11,-0.000107856,-2.41828,-12.3202,-0.00478888,0.71337,0.0282567,
2,0,0,1,0,1193.84,0.0270667,0.0267591,-3.82854,1,0.00202876,11,-0.000102448,-2.41697,-2.81896,-0.0209297,3.11805,0.0267591,
2,0,0,1,0,1193.86,0.0255659,0.0252836,-3.82251,1,0.00193306,11,-9.66468e-05,-2.41765,-3.67989,-0.0160331,2.39142,0.0252836,
2,0,0,1,0,1193.89,0.0240717,0.0237809,-3.8112,1,0.00183783,11,-9.06338e-05,-2.41894,-2.93315,-0.0201149,3.01029,0.0237809,
2,0,0,1,0,1193.91,0.0225722,0.022264,-3.83006,1,0.00174212,11,-8.52725e-05,-2.41679,-3.14501,-0.0187599,2.804,0.022264,
2,0,0,1,0,1193.94,0.0210726,0.020776,-3.84265,1,0.00164612,11,-7.98348e-05,-2.41537,-1.75253,-0.0336657,5.04072,0.020776,
2,0,0,1,0,1193.96,0.0195784,0.0193065,-3.84523,1,0.00155039,11,-7.42378e-05,-2.41508,-1.37716,-0.0428416,6.4264,0.0193065,
2,0,0,1,0,1193.99,0.0180789,0.0177968,-3.8356,1,0.00145411,11,-6.82615e-05,-2.41617,-1.51619,-0.0389133,5.85418,0.0177968,
2,0,0,1,0,1194.01,0.0165781,0.0162508,-3.85878,1,0.00135773,11,-6.2708e-05,-2.41355,-1.2779,-0.0461695,6.97004,0.0162508,
2,0,0,1,0,1194.04,0.0150839,0.0147568,-3.88221,1,0.00126135,11,-5.72888e-05,-2.41092,-0.949979,-0.0621066,9.37704,0.0147568,
2,0,0,1,0,1194.06,0.0135844,0.0132463,-3.8901,1,0.00116409,11,-5.15293e-05,-2.41004,-0.949095,-0.0621645,9.41972,0.0132463,
2,0,0,1,0,1194.09,0.0120848,0.0117642,-3.89381,1,0.00106662,11,-4.58075e-05,-2.40962,-1.31776,-0.0447729,6.82406,0.0117642,
2,0,0,1,0,1194.11,0.0105853,0.0102689,-3.90259,1,0.000969069,11,-4.00754e-05,-2.40865,-1.63518,-0.0360817,5.5161,0.0102689,
2,0,0,1,0,1194.14,0.00909108,0.00879038,-3.93145,1,0.000871469,11,-3.45589e-05,-2.40545,-0.787035,-0.0749649,11.4614,0.00879038,
2,0,0,1,0,1194.16,0.00759027,0.00730157,-3.94551,1,0.000773027,11,-2.88084e-05,-2.4039,-0.757378,-0.0779004,11.9662,0.00730157,
2,0,0,1,0,1194.19,0.00608945,0.00582381,-3.95314,1,0.000674224,11,-2.30223e-05,-2.40306,-0.868301,-0.0679488,10.4919,0.00582381,
2,0,0,1,0,1194.21,0.00459524,0.0042853,-3.96686,1,0.000575567,11,-1.69992e-05,-2.40155,-0.985816,-0.0598489,9.28058,0.0042853,
2,0,0,1,0,1194.24,0.0030957,0.002789,-3.99533,1,0.000476029,11,-1.1143e-05,-2.39845,-0.36797,-0.160339,25.0724,0.002789,
2,0,0,1,0,1194.26,0.00159616,0.00121507,-4.06937,1,0.000375118,11,-4.94459e-06,-2.39047, , , ,0.00121507,
2,0,0,1,0,1194.29,0.000199195,-0.000153538,-4.0433,1,0.00028049,11,6.20798e-07,-2.39326, , , ,-0.000153538,