File: Figure_codes/Fig_3-5/rawdata_trumpetplot_data/before 10th/20221101_1-115_002_TrumpetPlot_ParaChange_11_CV_C01_6.csv
mode,ox/red,error,control changes,counter inc.,time/s,control/V,Ewe/V,<I>/mA,cycle number,(Q-Qo)/C,I Range,P/W,log(|I|),Tafel slope mV/dec,alpha_eff,dI/d(E-IR),E-IR/V,
2,0,0,1,0,8591.76,2.44065e-05,0.000609955,-7.47141,7,0.0000000E+000,11,-4.55723e-06,-2.1266, , , ,0.000609955,
2,0,0,1,0,8591.78,0.00179726,0.00137469,-2.99275,7,-9.47827e-05,11,-4.11411e-06,-2.52393, , , ,0.00137469,
2,0,0,1,0,8591.8,0.00379485,0.00345977,0.0620916,7,-0.000119999,11,2.14823e-07,-4.20697,-0.0159937,-3.68896,1129.46,0.00345977,
2,1,0,1,0,8591.82,0.00579244,0.00548967,1.65494,7,-0.000100973,11,9.08508e-06,-2.78122,0.00248254,23.766,623.211,0.00548967,
2,1,0,1,0,8591.84,0.00779002,0.00747018,2.56142,7,-5.78324e-05,11,1.91343e-05,-2.59152,0.0144788,4.07492,367.151,0.00747018,
2,1,0,1,0,8591.86,0.00978761,0.00946734,3.11534,7,-7.03955e-07,11,2.9494e-05,-2.50649,0.0310344,1.90111,221.493,0.00946734,
2,1,0,1,0,8591.88,0.0117852,0.011498,3.45355,7,6.5409e-05,11,3.97088e-05,-2.46173,0.0558762,1.05591,139.556,0.011498,
2,1,0,1,0,8591.9,0.0137828,0.013464,3.6731,7,0.000136929,11,4.94545e-05,-2.43497,0.0868529,0.67931,96.5553,0.013464,
2,1,0,1,0,8591.92,0.0157804,0.015472,3.83727,7,0.000212281,11,5.93703e-05,-2.41598,0.121259,0.486562,72.4681,0.015472,
2,1,0,1,0,8591.94,0.017778,0.0174674,3.96322,7,0.000290122,11,6.9227e-05,-2.40195,0.17781,0.331815,51.0109,0.0174674,
2,1,0,1,0,8591.96,0.0197755,0.0195022,4.04285,7,0.000370261,11,7.88447e-05,-2.39331,0.225824,0.261265,41.2508,0.0195022,
2,1,0,1,0,8591.98,0.0217731,0.0214906,4.12918,7,0.000452118,11,8.87388e-05,-2.38414,0.237842,0.248064,39.8908,0.0214906,
2,1,0,1,0,8592,0.0237707,0.023418,4.19905,7,0.000535485,11,9.83337e-05,-2.37685,0.272496,0.216517,35.4853,0.02341805,
2,1,0,1,0,8592.02,0.0257683,0.0254734,4.27051,7,0.0006199,11,0.000108784,-2.36952,0.278984,0.211482,35.2456,0.0254734,
2,1,0,1,0,8592.04,0.0277659,0.0274897,4.34256,7,0.000706116,11,0.000119376,-2.36225,0.286945,0.205614,34.8277,0.0274897,
2,1,0,1,0,8592.06,0.0297635,0.029496,4.41061,7,0.000793787,11,0.000130095,-2.3555,0.309162,0.190838,32.8305,0.029496,
2,1,0,1,0,8592.08,0.0317611,0.0315002,4.47423,7,0.000882773,11,0.000140939,-2.34928,0.264675,0.222915,39.0357,0.0315002,
2,1,0,1,0,8592.1,0.0337586,0.0334335,4.56431,7,0.000972787,11,0.000152601,-2.34062,0.249342,0.236622,42.0806,0.0334335,
2,1,0,1,0,8592.12,0.0357562,0.0354497,4.64043,7,0.00106496,11,0.000164502,-2.33344,0.288218,0.204706,37.0563,0.0354497,
2,1,0,1,0,8592.14,0.0377538,0.0374539,4.71329,7,0.00115866,11,0.000176531,-2.32668,0.271736,0.217122,39.9943,0.0374539,
2,1,0,1,0,8592.16,0.0397514,0.0394448,4.80021,7,0.00125396,11,0.000189343,-2.31874,0.216454,0.272575,51.23,0.0394448,
2,1,0,1,0,8592.18,0.041749,0.0414872,4.91992,7,0.00135071,11,0.000204114,-2.30804,0.226032,0.261025,49.9151,0.0414872,
2,1,0,1,0,8592.2,0.0437466,0.0434662,5.00094,7,0.00145003,11,0.000217372,-2.30095,0.261462,0.225654,44.0913,0.0434662,
2,1,0,1,0,8592.22,0.0457442,0.0454439,5.09437,7,0.00155105,11,0.000231508,-2.29291,0.228924,0.257727,51.3247,0.0454439,
2,1,0,1,0,8592.24,0.0477418,0.0474593,5.20588,7,0.00165416,11,0.000247068,-2.28351,0.203355,0.290133,59.0015,0.0474593,
2,1,0,1,0,8592.26,0.0497484,0.0494193,5.32893,7,0.00175955,11,0.000263352,-2.27336,0.214201,0.275443,57.1774,0.0494193,
2,1,0,1,0,8592.28,0.0517369,0.0514445,5.43374,7,0.00186673,11,0.000279536,-2.2649,0.215589,0.273669,58.1566,0.0514445,
2,1,0,1,0,8592.3,0.0537345,0.0534449,5.56304,7,0.00197677,11,0.000297316,-2.25469,0.203788,0.289517,62.7984,0.0534449,
2,1,0,1,0,8592.32,0.0557321,0.0554287,5.68395,7,0.00208934,11,0.000315054,-2.24535,0.210063,0.280869,62.3177,0.0554287,
2,1,0,1,0,8592.34,0.0577206,0.0573934,5.80911,7,0.00220377,11,0.000333404,-2.23589,0.202021,0.292048,66.2696,0.0573934,
2,1,0,1,0,8592.36,0.0597273,0.0593919,5.94659,7,0.00232157,11,0.00035318,-2.22573,0.205898,0.286549,66.4587,0.0593919,
2,1,0,1,0,8592.38,0.0617249,0.0614464,6.07847,7,0.00244199,11,0.0003735,-2.21621,0.212315,0.277889,65.906,0.0614464,
2,1,0,1,0,8592.4,0.0637224,0.0633782,6.2093,7,0.002565,11,0.000393534,-2.20696,0.208805,0.282561,68.5245,0.0633782,
2,1,0,1,0,8592.42,0.06572,0.0654309,6.3515,7,0.00269072,11,0.000415584,-2.19712,0.198671,0.296973,73.6776,0.0654309,
2,1,0,1,0,8592.44,0.0677176,0.0674201,6.50711,7,0.00281893,11,0.00043871,-2.18661,0.21262,0.277491,70.2918,0.0674201,
2,1,0,1,0,8592.46,0.0697152,0.0694206,6.63194,7,0.00295051,11,0.000460393,-2.17836,0.234222,0.251898,65.2495,0.0694206,
2,1,0,1,0,8592.48,0.0717128,0.0714359,6.76914,7,0.00308466,11,0.00048356,-2.16947,0.224177,0.263185,69.5326,0.0714359,
2,1,0,1,0,8592.5,0.0737104,0.0734077,6.90918,7,0.00322157,11,0.000507187,-2.16057,0.224415,0.262906,70.8753,0.0734077,
2,1,0,1,0,8592.52,0.075708,0.0753711,7.04804,7,0.00336066,11,0.000531218,-2.15193,0.245751,0.240081,65.9678,0.0753711,
2,1,0,1,0,8592.54,0.0777056,0.0774182,7.17374,7,0.00350297,11,0.000555378,-2.14425,0.261021,0.226036,63.2948,0.0774182,
2,1,0,1,0,8592.56,0.0797031,0.0794098,7.30367,7,0.00364788,11,0.000579983,-2.13646,0.259078,0.227731,64.9078,0.0794098,
2,1,0,1,0,8592.58,0.0817007,0.0814304,7.43416,7,0.00379542,11,0.000605367,-2.12877,0.267193,0.220814,64.0371,0.0814304,
2,1,0,1,0,8592.6,0.0836983,0.0834066,7.55961,7,0.00394468,11,0.000630522,-2.1215,0.280668,0.210213,62.0028,0.0834066,
2,1,0,1,0,8592.62,0.0856959,0.0854369,7.68258,7,0.00409726,11,0.000656375,-2.11449,0.299208,0.197187,59.0768,0.0854369,
2,1,0,1,0,8592.64,0.0876935,0.0873908,7.79499,7,0.00425215,11,0.000681211,-2.10818,0.316443,0.186448,56.7148,0.0873908,
2,1,0,1,0,8592.66,0.0896911,0.089395,7.90706,7,0.00440928,11,0.000706852,-2.10198,0.304923,0.193491,59.763,0.089395,
2,1,0,1,0,8592.68,0.0916887,0.0914005,8.03462,7,0.004568,11,0.000734368,-2.09503,0.305062,0.193404,60.579,0.0914005,
2,1,0,1,0,8592.7,0.0936862,0.0933383,8.14594,7,0.00473002,11,0.000760328,-2.08906,0.336856,0.175149,55.6706,0.0933383,
2,1,0,1,0,8592.72,0.0956838,0.095359,8.25499,7,0.00489418,11,0.000787187,-2.08328,0.332579,0.177402,57.191,0.095359,
2,1,0,1,0,8592.74,0.0976814,0.0973631,8.37613,7,0.00506054,11,0.000815526,-2.07696,0.297871,0.198072,64.8138,0.0973631,
2,1,0,1,0,8592.76,0.099679,0.0993777,8.51546,7,0.00522859,11,0.000846246,-2.06979,0.307569,0.191827,63.659,0.0993777,
2,1,0,1,0,8592.78,0.101677,0.101378,8.63172,7,0.00540024,11,0.000875067,-2.0639,0.307813,0.191675,64.657,0.101378,
2,1,0,1,0,8592.8,0.103674,0.103357,8.77272,7,0.00557438,11,0.000906718,-2.05687,0.279214,0.211308,72.3762,0.103357,
2,1,0,1,0,8592.82,0.105672,0.105398,8.92269,7,0.00575144,11,0.000940438,-2.0495,0.263948,0.223529,77.8942,0.105398,
2,1,0,1,0,8592.84,0.107667,0.107395,9.08731,7,0.00593067,11,0.000975934,-2.04156,0.252013,0.234115,83.0232,0.107395,
2,1,0,1,0,8592.86,0.109667,0.109373,9.2527,7,0.00611405,11,0.001012,-2.03373,0.232392,0.253881,91.8224,0.109373,
2,1,0,1,0,8592.88,0.111665,0.111342,9.44971,7,0.00630117,11,0.00105215,-2.02458,0.211176,0.279388,103.105,0.111342,
2,1,0,1,0,8592.9,0.113662,0.113347,9.66241,7,0.00649243,11,0.0010952,-2.01491,0.213654,0.276147,104.089,0.113347,
2,1,0,1,0,8592.92,0.11566,0.11538,9.87005,7,0.00668778,11,0.00113881,-2.00568,0.200716,0.293947,113.434,0.11538,
2,1,0,1,0,8592.94,0.117657,0.117356,10.1172,7,0.00688686,11,0.00118732,-1.99494,0.191694,0.307781,121.457,0.117356,
2,1,0,1,0,8592.96,0.119655,0.119388,10.3568,7,0.00709171,11,0.00123649,-1.98477,0.201011,0.293517,118.615,0.119388,
2,1,0,1,0,8592.98,0.121652,0.121394,10.5961,7,0.00730136,11,0.00128631,-1.97485,0.196096,0.300873,124.496,0.121394,
2,1,0,1,0,8593,0.12365,0.123366,10.852,7,0.00751599,11,0.00133877,-1.96449,0.186508,0.316339,134.046,0.123366,
2,1,0,1,0,8593.02,0.125648,0.125328,11.1235,7,0.00773485,11,0.00139409,-1.95376,0.198012,0.297962,129.15,0.125328,
2,1,0,1,0,8593.04,0.127645,0.127334,11.3645,7,0.0079599,11,0.00144708,-1.94445,0.211406,0.279084,123.854,0.127334,
2,1,0,1,0,8593.06,0.129643,0.12936,11.6228,7,0.00818994,11,0.00150352,-1.93469,0.210058,0.280875,127.311,0.12936,
2,1,0,1,0,8593.08,0.13164,0.131285,11.8676,7,0.00842499,11,0.00155803,-1.92564,0.22308,0.264479,122.476,0.131285,
2,1,0,1,0,8593.1,0.133638,0.133356,12.1122,7,0.00866386,11,0.00161523,-1.91678,0.239275,0.246578,116.454,0.1333556,
2,1,0,1,0,8593.12,0.135636,0.135327,12.3383,7,0.00890854,11,0.00166971,-1.90874,0.252113,0.234022,112.657,0.1353274,
2,1,0,1,0,8593.14,0.137633,0.137334,12.5605,7,0.0091577,11,0.00172498,-1.90099,0.274368,0.21504,105.312,0.137334,
2,1,0,1,0,8593.16,0.139631,0.139344,12.7613,7,0.00941109,11,0.00177821,-1.89411,0.293717,0.200873,100.031,0.139344,
2,1,0,1,0,8593.18,0.141628,0.141344,12.9615,7,0.00966713,11,0.00183203,-1.88734,0.309582,0.19058,96.3305,0.141344,
2,1,0,1,0,8593.2,0.143626,0.143315,13.1438,7,0.00992837,11,0.00188371,-1.88128,0.347862,0.169608,86.9237,0.143315,
2,1,0,1,0,8593.22,0.145624,0.145282,13.3039,7,0.0101931,11,0.00193281,-1.87602,0.442744,0.13326,69.0786,0.145282,
2,1,0,1,0,8593.24,0.147621,0.147345,13.4222,7,0.0104605,11,0.00197769,-1.87218,0.537792,0.109708,57.4537,0.147345,
2,1,0,1,0,8593.26,0.149619,0.149298,13.5346,7,0.0107289,11,0.00202069,-1.86856,0.737512,0.0799987,42.1661,0.149298,
2,1,0,1,0,8593.28,0.151616,0.151312,13.5895,7,0.0110004,11,0.00205625,-1.8668,2.57752,0.0228902,12.1127,0.1513122,
2,1,0,1,0,8593.3,0.153614,0.153335,13.5835,7,0.0112724,11,0.00208282,-1.86699,-1.76905,-0.0333512,-17.6416,0.153335,
2,1,0,1,0,8593.32,0.155611,0.155345,13.5183,7,0.0115436,11,0.00210001,-1.86908,-0.676176,-0.0872554,-45.9439,0.155345,
2,1,0,1,0,8593.34,0.157609,0.157314,13.4007,7,0.0118117,11,0.00210811,-1.87287,-0.337472,-0.174829,-90.9969,0.157314,
2,1,0,1,0,8593.36,0.159607,0.159319,13.1567,7,0.0120776,11,0.00209612,-1.88085,-0.207949,-0.283723,-145.151,0.159319,
2,1,0,1,0,8593.38,0.161604,0.161306,12.8212,7,0.0123376,11,0.00206814,-1.89207,-0.151293,-0.389971,-194.254,0.1613065,
2,1,0,1,0,8593.4,0.163602,0.163325,12.3784,7,0.0125899,11,0.00202171,-1.90733,-0.1157,-0.509941,-245.199,0.163325,
2,1,0,1,0,8593.42,0.165606,0.165335,11.8334,7,0.0128322,11,0.00195648,-1.92689,-0.0931912,-0.633107,-291.204,0.165335,
2,1,0,1,0,8593.44,0.167597,0.16733,11.2122,7,0.0130618,11,0.00187615,-1.95031,-0.0790883,-0.746002,-325.199,0.16733,
2,1,0,1,0,8593.46,0.169595,0.169338,10.5314,7,0.0132793,11,0.00178338,-1.97751,-0.0693166,-0.851167,-348.676,0.169338,
2,1,0,1,0,8593.48,0.171592,0.171346,9.81187,7,0.0134828,11,0.00168123,-2.00825,-0.0629735,-0.936902,-358.625,0.1713464,
2,1,0,1,0,8593.5,0.173581,0.173278,9.11858,7,0.0136711,11,0.00158005,-2.04007,-0.0614877,-0.959542,-341.814,0.173278,
2,1,0,1,0,8593.52,0.175587,0.175254,8.47615,7,0.0138471,11,0.00148548,-2.0718,-0.0653273,-0.903145,-299.415,0.175254,
2,1,0,1,0,8593.54,0.177585,0.177348,7.90011,7,0.0140108,11,0.00140107,-2.10237,-0.067904,-0.868874,-268.547,0.177348,
2,1,0,1,0,8593.56,0.179582,0.179307,7.38784,7,0.0141636,11,0.00132469,-2.13148,-0.0735487,-0.80219,-232.591,0.179307,
2,1,0,1,0,8593.58,0.18158,0.181313,6.9777,7,0.0143073,11,0.00126515,-2.15629,-0.0853344,-0.691397,-189.02,0.181313,
2,1,0,1,0,8593.6,0.183578,0.183285,6.63585,7,0.0144427,11,0.00121625,-2.1781,-0.0951049,-0.620367,-161.002,0.1832851,
2,1,0,1,0,8593.62,0.185575,0.18532,6.33264,7,0.0145724,11,0.00117357,-2.19842,-0.106763,-0.552624,-137.097,0.18532,
2,1,0,1,0,8593.64,0.187573,0.187299,6.08553,7,0.0146966,11,0.00113981,-2.2157,-0.122193,-0.482844,-114.991,0.187299,
2,1,0,1,0,8593.66,0.18957,0.189277,5.87764,7,0.0148163,11,0.0011125,-2.2308,-0.138048,-0.427388,-98.2088,0.189277,
2,1,0,1,0,8593.68,0.191568,0.191279,5.6947,7,0.0149315,11,0.00108928,-2.24453,-0.153362,-0.38471,-85.6572,0.1912788,
2,1,0,1,0,8593.7,0.193566,0.193265,5.53604,7,0.0150439,11,0.00106992,-2.2568,-0.171538,-0.343947,-74.4277,0.193265,
2,1,0,1,0,8593.72,0.195563,0.195273,5.3974,7,0.0151533,11,0.00105397,-2.26782,-0.17586,-0.335494,-70.6283,0.195273,
2,1,0,1,0,8593.74,0.197561,0.197246,5.25487,7,0.0152599,11,0.0010365,-2.27944,-0.198399,-0.297381,-61.2139,0.197246,
2,1,0,1,0,8593.76,0.199558,0.199261,5.15328,7,0.0153636,11,0.00102685,-2.28792,-0.23782,-0.248087,-49.8951,0.199261,
2,1,0,1,0,8593.78,0.201556,0.201288,5.05318,7,0.0154658,11,0.00101714,-2.29644,-0.234194,-0.251928,-49.6842,0.201288,
2,1,0,1,0,8593.8,0.203553,0.203258,4.95469,7,0.0155659,11,0.00100708,-2.30498,-0.244537,-0.241272,-46.6995,0.203258,
2,1,0,1,0,8593.82,0.205551,0.205273,4.86707,7,0.0156641,11,0.00099908,-2.31273,-0.321177,-0.183699,-35.0151,0.2052733,
2,1,0,1,0,8593.84,0.207549,0.207271,4.81417,7,0.0157605,11,0.00099784,-2.31748,-0.325645,-0.181179,-33.9338,0.207271,
2,1,0,1,0,8593.86,0.209546,0.20926,4.73179,7,0.015856,11,0.000990174,-2.32497,-0.270299,-0.218277,-40.3208,0.20926,
2,1,0,1,0,8593.88,0.211544,0.211264,4.6532,7,0.0159499,11,0.000983052,-2.33225,-0.328459,-0.179627,-32.7102,0.211264,
2,1,0,1,0,8593.9,0.213541,0.213261,4.6009,7,0.0160426,11,0.000981195,-2.33716,-0.482029,-0.122399,-22.0152,0.213261,
2,1,0,1,0,8593.92,0.215539,0.215292,4.56452,7,0.0161338,11,0.000982704,-2.3406,-0.405715,-0.145422,-25.8196,0.215292,
2,1,0,1,0,8593.94,0.217537,0.217236,4.49829,7,0.0162245,11,0.000977189,-2.34695,-0.382184,-0.154376,-27.1774,0.217236,
2,1,0,1,0,8593.96,0.219534,0.219222,4.45772,7,0.0163141,11,0.000977228,-2.35089,-0.515678,-0.114413,-19.9071,0.219222,
2,1,0,1,0,8593.98,0.221532,0.22124,4.41857,7,0.016403,11,0.000977565,-2.35472,-0.494715,-0.119261,-20.5549,0.22124,
2,1,0,1,0,8594,0.223525,0.223242,4.37507,7,0.0164905,11,0.000976701,-2.35901,-0.562699,-0.104852,-17.9329,0.223242,
2,1,0,1,0,8594.02,0.225527,0.225263,4.34642,7,0.0165779,11,0.00097909,-2.36187,-0.649719,-0.0908085,-15.3952,0.225263,
2,1,0,1,0,8594.04,0.227525,0.227261,4.3132,7,0.0166646,11,0.000980223,-2.3652,-0.521587,-0.113116,-19.0213,0.227261,
2,1,0,1,0,8594.06,0.229522,0.229214,4.27129,7,0.0167507,11,0.000979036,-2.36944,-0.655557,-0.0899998,-15.0437,0.229214,
2,1,0,1,0,8594.08,0.23152,0.231267,4.25294,7,0.016836,11,0.000983564,-2.37131,-1.16084,-0.0508254,-8.43849,0.231267,
2,1,0,1,0,8594.1,0.233517,0.233251,4.23721,7,0.0169207,11,0.000988335,-2.37292,-0.760633,-0.0775669,-12.7966,0.233251,
2,1,0,1,0,8594.12,0.235515,0.235282,4.20156,7,0.0170052,11,0.000988552,-2.37659,-0.657369,-0.0897517,-14.7379,0.235282,
2,1,0,1,0,8594.14,0.237512,0.237268,4.17802,7,0.017089,11,0.000991309,-2.37903,-0.910098,-0.0648282,-10.5773,0.237268,
2,1,0,1,0,8594.16,0.23951,0.23922,4.15991,7,0.0171725,11,0.000995133,-2.38092,-1.2893,-0.0457614,-7.43527,0.23922,
2,1,0,1,0,8594.18,0.241508,0.241232,4.14854,7,0.0172553,11,0.00100076,-2.3821,-0.897619,-0.0657294,-10.6168,0.241232,
2,1,0,1,0,8594.2,0.243505,0.2432,4.11765,7,0.017338,11,0.00100141,-2.38535,-0.887988,-0.0664424,-10.7021,0.2432,
2,1,0,1,0,8594.22,0.245503,0.245206,4.10601,7,0.0174202,11,0.00100682,-2.38658,-1.12123,-0.0526207,-8.42173,0.2452061,
2,1,0,1,0,8594.24,0.2475,0.247169,4.08422,7,0.0175022,11,0.0010095,-2.38889,-1.13759,-0.0518638,-8.2772,0.247169,
2,1,0,1,0,8594.26,0.249498,0.249224,4.07275,7,0.0175835,11,0.00101503,-2.39011,-1.09394,-0.0539336,-8.56037,0.249224,
2,1,0,1,0,8594.28,0.251496,0.251197,4.04974,7,0.0176648,11,0.00101728,-2.39257,-0.985339,-0.0598779,-9.4735,0.251197,
2,1,0,1,0,8594.3,0.253493,0.253183,4.03525,7,0.0177458,11,0.00102166,-2.39413,-0.990536,-0.0595637,-9.37001,0.253183,
2,1,0,1,0,8594.32,0.255491,0.255227,4.01198,7,0.0178264,11,0.00102397,-2.39664,-1.60268,-0.0368133,-5.78093,0.255227,
2,1,0,1,0,8594.34,0.257488,0.257161,4.01225,7,0.0179064,11,0.0010318,-2.39661,-2.59428,-0.0227423,-3.55456,0.257161,
2,1,0,1,0,8594.36,0.259486,0.259227,3.99776,7,0.0179866,11,0.00103633,-2.39818,-0.905319,-0.0651704,-10.152,0.259227,
2,1,0,1,0,8594.38,0.261484,0.261236,3.97089,7,0.0180664,11,0.00103734,-2.40111,-0.99461,-0.0593197,-9.21272,0.261236,
2,1,0,1,0,8594.4,0.263481,0.263193,3.96123,7,0.0181459,11,0.00104257,-2.40217,-3.38814,-0.0174137,-2.69499,0.263193,
2,1,0,1,0,8594.42,0.265479,0.2652,3.9602,7,0.0182248,11,0.00105025,-2.40228,-1.40885,-0.0418781,-6.45298,0.2652,
2,1,0,1,0,8594.44,0.267476,0.267196,3.9354,7,0.0183038,11,0.00105152,-2.40501,-0.938135,-0.0628908,-9.67301,0.267196,
2,1,0,1,0,8594.46,0.269474,0.269155,3.92195,7,0.0183825,11,0.00105561,-2.4065,-1.73762,-0.0339544,-5.20114,0.269155,
2,1,0,1,0,8594.48,0.271471,0.271196,3.91459,7,0.0184609,11,0.00106162,-2.40731,-4.60482,-0.0128127,-1.95914,0.271196,
2,1,0,1,0,8594.5,0.273469,0.273197,3.91403,7,0.0185388,11,0.0010693,-2.40738,-1.25763,-0.0469137,-7.1408,0.273197,
2,1,0,1,0,8594.52,0.275467,0.275231,3.88578,7,0.0186169,11,0.00106949,-2.41052,-0.937411,-0.0629393,-9.56663,0.275231,
2,1,0,1,0,8594.54,0.277464,0.277232,3.87542,7,0.0186946,11,0.00107439,-2.41168,-1.45546,-0.040537,-6.12842,0.277232,
2,1,0,1,0,8594.56,0.279462,0.279148,3.86178,7,0.018772,11,0.00107801,-2.41321,-1.18566,-0.0497615,-7.49744,0.279148,
2,1,0,1,0,8594.58,0.281464,0.281179,3.84583,7,0.0188491,11,0.00108137,-2.41501,-1.59102,-0.0370831,-5.57264,0.281179,
2,1,0,1,0,8594.6,0.283457,0.283178,3.83932,7,0.0189259,11,0.00108721,-2.41575,-2.01283,-0.029312,-4.38949,0.2831777,
2,1,0,1,0,8594.62,0.285455,0.285146,3.82842,7,0.0190027,11,0.00109166,-2.41698,-1.12025,-0.0526669,-7.85932,0.285146,
2,1,0,1,0,8594.64,0.287452,0.287148,3.80812,7,0.0190792,11,0.00109349,-2.41929,-1.23592,-0.0477377,-7.10613,0.287148,
2,1,0,1,0,8594.66,0.28945,0.289131,3.8001,7,0.0191554,11,0.00109873,-2.42021,-2.36212,-0.0249775,-3.70482,0.289131,
2,1,0,1,0,8594.68,0.291447,0.291193,3.79313,7,0.0192312,11,0.00110453,-2.421,-1.154,-0.0511264,-7.55185,0.291193,
2,1,0,1,0,8594.7,0.293445,0.293176,3.76956,7,0.019307,11,0.00110514,-2.42371,-1.15307,-0.0511678,-7.5446,0.293176,
2,1,0,1,0,8594.72,0.295442,0.295167,3.76315,7,0.0193825,11,0.00111076,-2.42445,-2.93175,-0.0201245,-2.95595,0.295167,
2,1,0,1,0,8594.74,0.29744,0.297178,3.75773,7,0.0194579,11,0.00111671,-2.42507,-1.63067,-0.0361814,-5.29866,0.297178,
2,1,0,1,0,8594.75,0.299438,0.299193,3.74181,7,0.0195328,11,0.00111953,-2.42692,-0.026375,-2.23697,-296.767,0.299193,
2,1,0,1,0,8594.76,0.299737,0.299514,3.06446,7,0.019563,11,0.000917849,-2.51365,0.000953943,61.8486,2158.85,0.299514,
2,1,0,1,0,8594.78,0.29774,0.297488,0.0610669,7,0.0195879,11,1.81667e-05,-4.21419,0.00760185,7.76127,978.512,0.297488,
2,0,0,1,0,8594.8,0.295742,0.295464,-0.898618,7,0.0195778,11,-0.000265509,-3.04642,-0.00302612,-19.4969,334.92,0.295464,
2,0,0,1,0,8594.82,0.293745,0.293492,-1.27724,7,0.0195554,11,-0.000374859,-2.89373,-0.0191414,-3.08232,139.055,0.293492,
2,0,0,1,0,8594.84,0.291747,0.291439,-1.45831,7,0.0195277,11,-0.000425008,-2.83615,-0.0417209,-1.41416,78.9593,0.291439,
2,0,0,1,0,8594.86,0.289754,0.289456,-1.59594,7,0.0194972,11,-0.000461954,-2.79698,-0.0627035,-0.940937,57.6939,0.289456,
2,0,0,1,0,8594.88,0.287752,0.28743,-1.68958,7,0.0194642,11,-0.000485636,-2.77222,-0.0937287,-0.629476,41.1952,0.28743,
2,0,0,1,0,8594.9,0.285754,0.285461,-1.76052,7,0.0194296,11,-0.000502561,-2.75436,-0.109657,-0.538041,36.9996,0.285461,
2,0,0,1,0,8594.92,0.283757,0.283458,-1.83657,7,0.0193934,11,-0.000520589,-2.73599,-0.114823,-0.513833,36.761,0.283458,
2,0,0,1,0,8594.94,0.281759,0.281455,-1.90778,7,0.0193558,11,-0.000536954,-2.71947,-0.13613,-0.43341,32.1322,0.2814551,
2,0,0,1,0,8594.96,0.279761,0.279486,-1.96419,7,0.0193171,11,-0.000548964,-2.70682,-0.150213,-0.392774,30.1561,0.279486,
2,0,0,1,0,8594.98,0.277764,0.277468,-2.02802,7,0.019277,11,-0.000562711,-2.69293,-0.167636,-0.351954,27.7382,0.277468,
2,0,0,1,0,8595,0.275766,0.275466,-2.07569,7,0.0192359,11,-0.000571782,-2.68284,-0.206576,-0.285609,23.114,0.275466,
2,0,0,1,0,8595.02,0.273769,0.273489,-2.11999,7,0.0191937,11,-0.000579793,-2.67367,-0.19099,-0.308917,25.6361,0.273489,
2,0,0,1,0,8595.04,0.271771,0.271478,-2.17794,7,0.0191507,11,-0.000591261,-2.66195,-0.185638,-0.317822,26.9638,0.271478,
2,0,0,1,0,8595.06,0.269774,0.269459,-2.22865,7,0.0191066,11,-0.000600529,-2.65196,-0.231874,-0.254449,22.0637,0.269459,
2,0,0,1,0,8595.08,0.267776,0.267471,-2.26634,7,0.0190615,11,-0.00060618,-2.64468,-0.269337,-0.219057,19.3805,0.267471,
2,0,0,1,0,8595.1,0.265778,0.265482,-2.30573,7,0.0190158,11,-0.000612129,-2.63719,-0.253149,-0.233065,20.9945,0.265482,
2,0,0,1,0,8595.12,0.263781,0.263463,-2.35049,7,0.0189693,11,-0.000619267,-2.62884,-0.262332,-0.224906,20.5994,0.263463,
2,0,0,1,0,8595.14,0.261783,0.261463,-2.3885,7,0.0189217,11,-0.000624506,-2.62187,-0.31277,-0.188637,17.5565,0.261463,
2,0,0,1,0,8595.16,0.259786,0.259538,-2.4194,7,0.0188736,11,-0.000627925,-2.61629,-0.296905,-0.198717,18.8137,0.2595377,
2,0,0,1,0,8595.18,0.257788,0.257465,-2.46372,7,0.0188247,11,-0.000634323,-2.60841,-0.262883,-0.224435,21.5719,0.257465,
2,0,0,1,0,8595.2,0.25579,0.255487,-2.50678,7,0.0187751,11,-0.000640449,-2.60088,-0.345682,-0.170677,16.6288,0.255487,
2,0,0,1,0,8595.22,0.253793,0.253512,-2.52946,7,0.0187247,11,-0.000641249,-2.59697,-0.408361,-0.14448,14.2937,0.253512,
2,0,0,1,0,8595.24,0.251795,0.251526,-2.56339,7,0.0186737,11,-0.000644761,-2.59118,-0.332716,-0.177329,17.7511,0.251526,
2,0,0,1,0,8595.26,0.249798,0.249492,-2.60082,7,0.018622,11,-0.000648884,-2.58489,-0.347924,-0.169577,17.1929,0.249492,
2,0,0,1,0,8595.28,0.2478,0.247497,-2.63267,7,0.0185698,11,-0.000651578,-2.5796,-0.377199,-0.156416,16.0705,0.2474969,
2,0,0,1,0,8595.3,0.245802,0.245521,-2.66463,7,0.0185168,11,-0.000654224,-2.57436,-0.389397,-0.151516,15.7514,0.245521,
2,0,0,1,0,8595.32,0.243805,0.243533,-2.6951,7,0.018463,11,-0.000656347,-2.56943,-0.450476,-0.130972,13.7616,0.2435334,
2,0,0,1,0,8595.34,0.241807,0.241484,-2.72019,7,0.0184087,11,-0.000656883,-2.5654,-0.350058,-0.168544,17.9636,0.2414844,
2,0,0,1,0,8595.36,0.23981,0.239521,-2.76717,7,0.0183541,11,-0.000662797,-2.55796,-0.327696,-0.180045,19.3853,0.239521,
2,0,0,1,0,8595.38,0.237812,0.237478,-2.79786,7,0.0182984,11,-0.000664429,-2.55317,-0.486533,-0.121266,13.2211,0.2374775,
2,0,0,1,0,8595.4,0.235815,0.235512,-2.82018,7,0.0182421,11,-0.000664186,-2.54972,-0.548784,-0.10751,11.8369,0.235512,
2,0,0,1,0,8595.42,0.233817,0.233534,-2.84454,7,0.0181855,11,-0.000664297,-2.54599,-0.404817,-0.145745,16.2239,0.233534,
2,0,0,1,0,8595.44,0.231815,0.231535,-2.8847,7,0.0181281,11,-0.00066791,-2.5399,-0.369207,-0.159802,17.9641,0.231535,
2,0,0,1,0,8595.46,0.229822,0.22952,-2.91664,7,0.0180702,11,-0.000669429,-2.53512,-0.530233,-0.111272,12.6366,0.22952,
2,0,0,1,0,8595.48,0.227824,0.227532,-2.93529,7,0.0180115,11,-0.000667872,-2.53235,-0.47807,-0.123413,14.1838,0.227532,
2,0,0,1,0,8595.5,0.225827,0.225524,-2.97333,7,0.0179523,11,-0.000670557,-2.52676,-0.389212,-0.151588,17.5732,0.225524,
2,0,0,1,0,8595.52,0.223829,0.223515,-3.00588,7,0.0178924,11,-0.000671859,-2.52203,-0.419616,-0.140605,16.4951,0.223515,
2,0,0,1,0,8595.54,0.221831,0.221545,-3.03896,7,0.0178321,11,-0.000673267,-2.51728,-0.450636,-0.130926,15.5163,0.221545,
2,0,0,1,0,8595.56,0.219834,0.219532,-3.06769,7,0.0177709,11,-0.000673454,-2.51319,-0.43391,-0.135973,16.2982,0.219532,
2,0,0,1,0,8595.58,0.217836,0.217562,-3.10388,7,0.017709,11,-0.000675286,-2.50809,-0.434924,-0.135656,16.4142,0.217562,
2,0,0,1,0,8595.6,0.215839,0.215531,-3.13336,7,0.0176465,11,-0.000675334,-2.50399,-0.400806,-0.147203,18.0387,0.215531,
2,0,0,1,0,8595.62,0.213841,0.213547,-3.17631,7,0.0175835,11,-0.00067829,-2.49808,-0.362048,-0.162962,20.1805,0.213547,
2,0,0,1,0,8595.64,0.211843,0.211576,-3.21317,7,0.0175195,11,-0.000679828,-2.49307,-0.50437,-0.116978,14.6359,0.211576,
2,0,0,1,0,8595.66,0.209846,0.209488,-3.23571,7,0.0174548,11,-0.000677842,-2.49003,-0.4616,-0.127816,16.19,0.209488,
2,0,0,1,0,8595.68,0.207848,0.207555,-3.27827,7,0.0173895,11,-0.00068042,-2.48436,-0.279194,-0.211323,27.1275,0.207555,
2,0,0,1,0,8595.7,0.205851,0.205518,-3.34341,7,0.0173235,11,-0.00068713,-2.47581,-0.335244,-0.175991,22.8325,0.205518,
2,0,0,1,0,8595.72,0.203853,0.203506,-3.37072,7,0.0172562,11,-0.00068596,-2.47228,-0.488859,-0.120689,15.8968,0.203506,
2,0,0,1,0,8595.74,0.201856,0.201525,-3.40688,7,0.0171884,11,-0.000686572,-2.46764,-0.370187,-0.159379,21.2271,0.201525,
2,0,0,1,0,8595.76,0.199858,0.199535,-3.455,7,0.0171196,11,-0.000689394,-2.46155,-0.297241,-0.198492,26.8031,0.199535,
2,0,0,1,0,8595.78,0.19786,0.19754,-3.5137,7,0.0170502,11,-0.000694096,-2.45423,-0.34419,-0.171417,23.4245,0.1975396,
2,0,0,1,0,8595.8,0.195863,0.195548,-3.5484,7,0.0169795,11,-0.000693882,-2.44997,-0.329079,-0.179288,24.9327,0.195548,
2,0,0,1,0,8595.82,0.193865,0.193542,-3.61338,7,0.0169078,11,-0.00069934,-2.44209,-0.278832,-0.211597,29.7926,0.193542,
2,0,0,1,0,8595.84,0.191868,0.191543,-3.66772,7,0.0168348,11,-0.000702526,-2.4356,-0.271072,-0.217655,31.216,0.191543,
2,0,0,1,0,8595.86,0.18987,0.189578,-3.7371,7,0.0167611,11,-0.000708474,-2.42746,-0.264087,-0.223411,32.5429,0.189578,
2,0,0,1,0,8595.88,0.187872,0.187545,-3.79783,7,0.0166857,11,-0.000712263,-2.42046,-0.263067,-0.224277,33.2912,0.187545,
2,0,0,1,0,8595.9,0.185875,0.185567,-3.87063,7,0.016609,11,-0.000718263,-2.41222,-0.25438,-0.231936,34.9988,0.185567,
2,0,0,1,0,8595.92,0.183877,0.183596,-3.93604,7,0.0165308,11,-0.00072264,-2.40494,-0.213773,-0.275994,42.6039,0.183596,
2,0,0,1,0,8595.94,0.18188,0.181561,-4.04132,7,0.0164515,11,-0.000733746,-2.39348,-0.196886,-0.299666,47.1261,0.181561,
2,0,0,1,0,8595.96,0.179882,0.179595,-4.1246,7,0.0163697,11,-0.000740756,-2.38462,-0.221186,-0.266744,42.9518,0.179595,
2,0,0,1,0,8595.98,0.177885,0.177593,-4.21174,7,0.0162862,11,-0.000747976,-2.37554,-0.196524,-0.300217,49.479,0.177593,
2,0,0,1,0,8596,0.175887,0.175585,-4.32297,7,0.0162007,11,-0.00075905,-2.36422,-0.167219,-0.35283,59.6227,0.175585,
2,0,0,1,0,8596.02,0.173896,0.173591,-4.45035,7,0.0161133,11,-0.000772542,-2.35161,-0.157298,-0.375084,65.1614,0.173591,
2,0,0,1,0,8596.04,0.171892,0.171604,-4.5824,7,0.0160229,11,-0.000786358,-2.33891,-0.156535,-0.376912,67.4145,0.171604,
2,0,0,1,0,8596.06,0.169894,0.169617,-4.71826,7,0.0159298,11,-0.000800298,-2.32622,-0.144289,-0.408901,75.5234,0.1696173,
2,0,0,1,0,8596.08,0.167897,0.167584,-4.88604,7,0.0158337,11,-0.00081882,-2.31104,-0.13192,-0.44724,85.3453,0.167584,
2,0,0,1,0,8596.1,0.165899,0.165553,-5.06509,7,0.0157341,11,-0.000838543,-2.29541,-0.125244,-0.47108,93.1955,0.165553,
2,0,0,1,0,8596.12,0.163901,0.163605,-5.25681,7,0.0156312,11,-0.000860041,-2.27928,-0.115728,-0.509818,104.857,0.163605,
2,0,0,1,0,8596.14,0.161904,0.161591,-5.48061,7,0.0155238,11,-0.000885615,-2.26117,-0.109248,-0.540055,115.592,0.161591,
2,0,0,1,0,8596.16,0.159906,0.159612,-5.71836,7,0.0154117,11,-0.000912721,-2.24273,-0.104068,-0.566938,126.778,0.159612,
2,0,0,1,0,8596.18,0.157909,0.157599,-5.98662,7,0.0152946,11,-0.000943488,-2.22282,-0.0971753,-0.60715,142.163,0.157599,
2,0,0,1,0,8596.2,0.155911,0.155591,-6.29001,7,0.0151723,11,-0.00097867,-2.20135,-0.0920498,-0.640957,157.481,0.155591,
2,0,0,1,0,8596.22,0.153913,0.15361,-6.61495,7,0.0150431,11,-0.00101612,-2.17947,-0.0904464,-0.65232,168.456,0.15361,
2,0,0,1,0,8596.24,0.151916,0.151643,-6.95515,7,0.0149073,11,-0.0010547,-2.15769,-0.0889333,-0.663418,180.466,0.1516427,
2,0,0,1,0,8596.26,0.149918,0.149603,-7.33792,7,0.0147643,11,-0.00109778,-2.13443,-0.0853426,-0.691331,198.229,0.149603,
2,0,0,1,0,8596.28,0.147921,0.147615,-7.75354,7,0.014614,11,-0.00114454,-2.1105,-0.0846521,-0.69697,210.751,0.147615,
2,0,0,1,0,8596.3,0.145923,0.14564,-8.17314,7,0.0144546,11,-0.00119034,-2.08761,-0.0876434,-0.673183,214.684,0.14564,
2,0,0,1,0,8596.32,0.143926,0.143652,-8.60428,7,0.0142866,11,-0.00123602,-2.06529,-0.0877685,-0.672223,225.956,0.143652,
2,0,0,1,0,8596.34,0.141928,0.14168,-9.06806,7,0.01411,11,-0.00128476,-2.04249,-0.0879665,-0.67071,237.407,0.14168,
2,0,0,1,0,8596.36,0.13993,0.139662,-9.55174,7,0.0139246,11,-0.00133401,-2.01992,-0.094797,-0.622382,231.394,0.139662,
2,0,0,1,0,8596.38,0.137933,0.137652,-10,7,0.013729,11,-0.00137652,-2,-0.102264,-0.576937,225.13,0.137652,
2,0,0,1,0,8596.4,0.135935,0.13563,-10.4593,7,0.0135242,11,-0.0014186,-1.9805,-0.107395,-0.549372,223.917,0.13563,
2,0,0,1,0,8596.42,0.133938,0.133631,-10.9005,7,0.0133104,11,-0.00145664,-1.96255,-0.116127,-0.508066,215.845,0.133631,
2,0,0,1,0,8596.44,0.13194,0.131626,-11.3237,7,0.0130892,11,-0.00149048,-1.94601,-0.126049,-0.46807,206.5,0.131626,
2,0,0,1,0,8596.46,0.129942,0.129671,-11.7181,7,0.0128587,11,-0.0015195,-1.93114,-0.14101,-0.418409,191.017,0.129671,
2,0,0,1,0,8596.48,0.127945,0.127665,-12.0803,7,0.0126205,11,-0.00154223,-1.91792,-0.161461,-0.365414,171.988,0.127665,
2,0,0,1,0,8596.5,0.125947,0.125656,-12.4086,7,0.0123754,11,-0.00155922,-1.90628,-0.176996,-0.333341,161.299,0.125656,
2,0,0,1,0,8596.52,0.12395,0.123681,-12.7229,7,0.0121253,11,-0.00157358,-1.89541,-0.202943,-0.290721,144.029,0.123681,
2,0,0,1,0,8596.54,0.121952,0.121659,-12.9844,7,0.011868,11,-0.00157967,-1.88658,-0.253817,-0.232451,117.533,0.121659,
2,0,0,1,0,8596.56,0.119955,0.119692,-13.1917,7,0.0116059,11,-0.00157894,-1.8797,-0.311734,-0.189264,97.3385,0.119692,
2,0,0,1,0,8596.58,0.117957,0.117659,-13.3737,7,0.0113401,11,-0.00157354,-1.87375,-0.384356,-0.153504,79.9956,0.117659,
2,0,0,1,0,8596.6,0.115955,0.115639,-13.5159,7,0.0110709,11,-0.00156297,-1.86915,-0.53698,-0.109874,57.8411,0.115639,
2,0,0,1,0,8596.62,0.113962,0.113662,-13.6049,7,0.0108007,11,-0.00154636,-1.8663,-0.97039,-0.0608003,32.2255,0.113662,
2,0,0,1,0,8596.64,0.111964,0.111597,-13.6462,7,0.010528,11,-0.00152288,-1.86499,-2.56012,-0.0230458,12.2584,0.1115973,
2,0,0,1,0,8596.66,0.109967,0.109656,-13.654,7,0.0102548,11,-0.00149725,-1.86474,4.13081,0.0142829,-7.59825,0.1096562,
2,0,0,1,0,8596.68,0.107969,0.107647,-13.6162,7,0.00998199,11,-0.00146573,-1.86595,1.05127,0.0561226,-29.7763,0.107647,
2,0,0,1,0,8596.7,0.105971,0.105677,-13.5355,7,0.0097117,11,-0.00143039,-1.86852,0.599969,0.0983384,-51.8629,0.105677,
2,0,0,1,0,8596.72,0.103974,0.103701,-13.4115,7,0.00944207,11,-0.00139079,-1.87252,0.436392,0.1352,-70.6677,0.103701,
2,0,0,1,0,8596.74,0.101976,0.10166,-13.2517,7,0.00917529,11,-0.00134717,-1.87773,0.325738,0.181127,-93.464,0.10166,
2,0,0,1,0,8596.76,0.0999786,0.0996649,-13.0343,7,0.00891231,11,-0.00129906,-1.88491,0.276867,0.213099,-108.404,0.0996649,
2,0,0,1,0,8596.78,0.0979811,0.0976777,-12.82,7,0.00865486,11,-0.00125223,-1.89211,0.244805,0.241008,-120.317,0.09767767,
2,0,0,1,0,8596.8,0.0959835,0.0956586,-12.5523,7,0.00840107,11,-0.00120073,-1.90128,0.207117,0.284863,-139.408,0.0956586,
2,0,0,1,0,8596.82,0.0939859,0.0936863,-12.2636,7,0.00815283,11,-0.00114893,-1.91138,0.19311,0.305526,-146.191,0.0936863,
2,0,0,1,0,8596.84,0.0919883,0.0916984,-11.9733,7,0.00791033,11,-0.00109793,-1.92179,0.200897,0.293683,-137.365,0.0916984,
2,0,0,1,0,8596.86,0.0899907,0.0896601,-11.7105,7,0.00767448,11,-0.00104996,-1.93143,0.19553,0.301745,-137.681,0.0896601,
2,0,0,1,0,8596.88,0.0879931,0.0876377,-11.4142,7,0.00744306,11,-0.00100032,-1.94255,0.188656,0.312739,-139.523,0.0876377,
2,0,0,1,0,8596.9,0.0859955,0.0856921,-11.1569,7,0.00721723,11,-0.000956055,-1.95246,0.207284,0.284633,-124.019,0.0856921,
2,0,0,1,0,8596.92,0.083998,0.0836393,-10.9184,7,0.00699641,11,-0.000913205,-1.96184,0.223805,0.263622,-112.427,0.0836393,
2,0,0,1,0,8596.94,0.0820004,0.0816414,-10.7015,7,0.00678121,11,-0.000873682,-1.97056,0.228915,0.257738,-107.686,0.0816414,
2,0,0,1,0,8596.96,0.0800028,0.0797157,-10.4958,7,0.00656919,11,-0.000836683,-1.97898,0.252481,0.233681,-95.8611,0.0797157,
2,0,0,1,0,8596.98,0.0780052,0.0776974,-10.3234,7,0.00636094,11,-0.000802099,-1.98618,0.280248,0.210528,-84.8208,0.0776974,
2,0,0,1,0,8597,0.0760076,0.0756758,-10.1532,7,0.00615614,11,-0.00076835,-1.9934,0.302122,0.195286,-77.4874,0.0756758,
2,0,0,1,0,8597.02,0.07401,0.0736844,-10.0124,7,0.00595553,11,-0.00073776,-1.99946,0.327889,0.179939,-70.3112,0.0736844,
2,0,0,1,0,8597.04,0.0720124,0.0716885,-9.87283,7,0.00575665,11,-0.000707768,-2.00556,0.338998,0.174042,-67.0962,0.0716885,
2,0,0,1,0,8597.06,0.0700148,0.0697026,-9.74525,7,0.00556038,11,-0.000679269,-2.01121,0.34258,0.172222,-65.4798,0.0697026,
2,0,0,1,0,8597.08,0.0680173,0.0677145,-9.61261,7,0.00536675,11,-0.000650912,-2.01716,0.394186,0.149676,-56.2616,0.0677145,
2,0,0,1,0,8597.1,0.0660106,0.0656773,-9.51879,7,0.00517545,11,-0.000625168,-2.02142,0.419915,0.140505,-52.1361,0.0656773,
2,0,0,1,0,8597.12,0.0640221,0.0637118,-9.40392,7,0.00498704,11,-0.000599141,-2.02669,0.365803,0.161289,-59.1694,0.0637118,
2,0,0,1,0,8597.14,0.0620245,0.061679,-9.28221,7,0.00480011,11,-0.000572517,-2.03235,0.364497,0.161867,-58.6543,0.061679,
2,0,0,1,0,8597.16,0.0600269,0.0596711,-9.16692,7,0.00461551,11,-0.000547,-2.03778,0.376472,0.156718,-56.0843,0.0596711,
2,0,0,1,0,8597.18,0.0580361,0.0576854,-9.05823,7,0.00443408,11,-0.000522527,-2.04296,0.357782,0.164905,-58.2458,0.0576854,
2,0,0,1,0,8597.2,0.0560317,0.0556868,-8.93485,7,0.00425394,11,-0.000497554,-2.04891,0.326446,0.180734,-63.007,0.0556868,
2,0,0,1,0,8597.22,0.0540342,0.0537204,-8.80841,7,0.00407643,11,-0.000473191,-2.0551,0.316528,0.186397,-64.0718,0.0537204,
2,0,0,1,0,8597.24,0.0520366,0.0517371,-8.68178,7,0.00390139,11,-0.00044917,-2.06139,0.290496,0.203101,-68.7275,0.0517371,
2,0,0,1,0,8597.26,0.050039,0.0497346,-8.53448,7,0.0037291,11,-0.000424459,-2.06882,0.286854,0.205679,-68.5716,0.0497346,
2,0,0,1,0,8597.28,0.0480414,0.0476992,-8.4049,7,0.00356042,11,-0.000400907,-2.07547,0.27521,0.214381,-70.2233,0.0476992,
2,0,0,1,0,8597.3,0.0460438,0.0457349,-8.2536,7,0.00339374,11,-0.000377477,-2.08336,0.241429,0.244378,-78.6711,0.04573486,
2,0,0,1,0,8597.32,0.0440462,0.0437548,-8.09459,7,0.00323019,11,-0.000354177,-2.09181,0.2357,0.250318,-79.0661,0.04375476,
2,0,0,1,0,8597.34,0.0420486,0.0417108,-7.93543,7,0.00306992,11,-0.000330993,-2.10043,0.24312,0.242679,-75.2143,0.0417108,
2,0,0,1,0,8597.36,0.040051,0.0397108,-7.79042,7,0.00291337,11,-0.000309364,-2.10844,0.236312,0.24967,-75.834,0.03971076,
2,0,0,1,0,8597.38,0.0380535,0.0377101,-7.63204,7,0.0027591,11,-0.000287805,-2.11736,0.2141,0.275572,-82.0135,0.0377101,
2,0,0,1,0,8597.4,0.0360559,0.035725,-7.46353,7,0.00260813,11,-0.000266635,-2.12706,0.22316,0.264384,-77.1487,0.035725,
2,0,0,1,0,8597.42,0.0340583,0.0337191,-7.32414,7,0.00246018,11,-0.000246963,-2.13524,0.254584,0.231751,-66.3017,0.0337191,
2,0,0,1,0,8597.44,0.0320607,0.0317389,-7.19925,7,0.00231562,11,-0.000228496,-2.14271,0.249929,0.236067,-66.2621,0.0317389,
2,0,0,1,0,8597.46,0.0300631,0.0297633,-7.06202,7,0.00217298,11,-0.000210189,-2.15107,0.256044,0.230429,-63.5967,0.0297633,
2,0,0,1,0,8597.48,0.0280655,0.0277563,-6.94597,7,0.00203285,11,-0.000192794,-2.15827,0.303231,0.194571,-52.8098,0.0277563,
2,0,0,1,0,8597.5,0.0260679,0.0257156,-6.84826,7,0.00189484,11,-0.000176107,-2.16442,0.33114,0.178172,-47.6296,0.0257156,
2,0,0,1,0,8597.52,0.0240704,0.0237338,-6.75438,7,0.00175947,11,-0.000160307,-2.17041,0.359754,0.164001,-43.2778,0.0237338,
2,0,0,1,0,8597.54,0.0220728,0.0217318,-6.67585,7,0.00162515,11,-0.000145078,-2.17549,0.4035,0.146221,-38.1104,0.0217318,
2,0,0,1,0,8597.56,0.0200752,0.0197606,-6.60296,7,0.00149233,11,-0.000130478,-2.18026,0.433093,0.136229,-35.121,0.0197606,
2,0,0,1,0,8597.58,0.0180776,0.0177629,-6.53646,7,0.00136082,11,-0.000116107,-2.18466,0.589936,0.100011,-25.5709,0.0177629,
2,0,0,1,0,8597.6,0.01608,0.0157404,-6.50016,7,0.00123112,11,-0.000102315,-2.18708,0.795885,0.0741313,-18.8013,0.0157404,
2,0,0,1,0,8597.62,0.0140824,0.0137478,-6.46097,7,0.00110147,11,-8.88244e-05,-2.1897,0.754004,0.0782489,-19.7305,0.0137478,
2,0,0,1,0,8597.64,0.0120848,0.0117731,-6.42188,7,0.00097257,11,-7.56057e-05,-2.19234,0.897005,0.0657744,-16.5011,0.0117731,
2,0,0,1,0,8597.66,0.0100872,0.00978722,-6.39562,7,0.000844425,11,-6.25953e-05,-2.19412,1.56978,0.0375849,-9.39238,0.00978722,
2,0,0,1,0,8597.68,0.00809193,0.00780154,-6.38458,7,0.000717305,11,-4.98095e-05,-2.19487,2.77382,0.0212703,-5.30035,0.00780154,
2,0,0,1,0,8597.7,0.00609208,0.00581342,-6.37456,7,0.000589621,11,-3.7058e-05,-2.19555,2.30627,0.0255825,-6.36165,0.005813418,
2,0,0,1,0,8597.72,0.00409449,0.00379233,-6.35907,7,0.000462281,11,-2.41157e-05,-2.19661,-1.38893,-0.0424786,10.6038,0.00379233,
2,0,0,1,0,8597.74,0.0020969,0.00171268,-6.41804,7,0.000334912,11,-1.09921e-05,-2.1926,-1.41973,-0.0415571,10.3474,0.00171268,
2,0,0,1,0,8597.76,9.14991e-05,-0.000261121,-6.40102,7,0.000206657,11,1.67144e-06,-2.19375,2.62737,0.0224559,-5.61487,-0.000261121,
2,0,0,1,0,8597.78,-0.00189827,-0.00226808,-6.39569,7,7.91966e-05,11,1.45059e-05,-2.19411,-14.2829,-0.00413082,1.03226,-0.00226808,
2,0,0,1,0,8597.8,-0.00389586,-0.0042569,-6.40514,7,-4.88524e-05,11,2.7266e-05,-2.19347,-2.89901,-0.0203518,5.08789,-0.0042569,
2,0,0,1,0,8597.82,-0.00589345,-0.00623327,-6.41586,7,-0.000177125,11,3.99918e-05,-2.19274,-2.53431,-0.0232805,5.82997,-0.00623327,
2,0,0,1,0,8597.84,-0.00789103,-0.00821378,-6.42821,7,-0.000305689,11,5.27999e-05,-2.19191,-1.07789,-0.0547364,13.7644,-0.00821378,
2,0,0,1,0,8597.86,-0.00988862,-0.010246,-6.4711,7,-0.000434184,11,6.63026e-05,-2.18902,-0.873689,-0.0675297,17.0317,-0.010246,
2,0,0,1,0,8597.88,-0.0118862,-0.0122432,-6.49684,7,-0.000563944,11,7.9542e-05,-2.1873,-1.20423,-0.0489938,12.4205,-0.0122432,
2,0,0,1,0,8597.9,-0.0138838,-0.01423,-6.52058,7,-0.000694261,11,9.27879e-05,-2.18571,-1.08363,-0.0544468,13.8637,-0.01423,
2,0,0,1,0,8597.92,-0.0158814,-0.016232,-6.55214,7,-0.000825043,11,0.000106354,-2.18362,-0.720793,-0.0818543,20.9642,-0.016232,
2,0,0,1,0,8597.94,-0.017879,-0.0182438,-6.60472,7,-0.00095608,11,0.000120495,-2.18015,-0.708231,-0.0833062,21.4406,-0.0182438,
2,0,0,1,0,8597.96,-0.0198766,-0.0202135,-6.6375,7,-0.00108855,11,0.000134167,-2.178,-0.897699,-0.0657236,17.0278,-0.0202135,
2,0,0,1,0,8597.98,-0.0218741,-0.0222226,-6.67248,7,-0.00122164,11,0.00014828,-2.17571,-0.764193,-0.0772056,20.1197,-0.0222226,
2,0,0,1,0,8598,-0.0238717,-0.0241907,-6.71752,7,-0.00135564,11,0.000162502,-2.17279,-0.614533,-0.0960079,25.1894,-0.0241907,
2,0,0,1,0,8598.02,-0.0258693,-0.0262238,-6.77326,7,-0.00149003,11,0.000177621,-2.1692,-0.670294,-0.0880211,23.2358,-0.0262238,
2,0,0,1,0,8598.04,-0.0278669,-0.0282054,-6.81081,7,-0.001626,11,0.000192102,-2.1668,-0.70436,-0.083764,22.2872,-0.0282054,
2,0,0,1,0,8598.06,-0.0298645,-0.0302161,-6.86224,7,-0.00176283,11,0.00020735,-2.16353,-0.633143,-0.0931859,24.9529,-0.0302161,
2,0,0,1,0,8598.08,-0.0318621,-0.0322628,-6.91205,7,-0.00190072,11,0.000223002,-2.16039,-0.600065,-0.0983227,26.5358,-0.0322628,
2,0,0,1,0,8598.1,-0.0338597,-0.0342302,-6.96876,7,-0.00203894,11,0.000238542,-2.15684,-0.589754,-0.100042,27.1963,-0.0342302,
2,0,0,1,0,8598.12,-0.0358573,-0.0362199,-7.01967,7,-0.00217895,11,0.000254251,-2.15368,-0.557009,-0.105923,29.0452,-0.0362199,
2,0,0,1,0,8598.14,-0.0378548,-0.0381962,-7.08395,7,-0.00232017,11,0.00027058,-2.14972,-0.609056,-0.0968712,26.737,-0.0381962,
2,0,0,1,0,8598.16,-0.0398524,-0.0401585,-7.12498,7,-0.00246243,11,0.000286128,-2.14722,-0.549059,-0.107457,29.9589,-0.0401585,
2,0,0,1,0,8598.18,-0.04185,-0.042202,-7.20396,7,-0.00260508,11,0.000304022,-2.14243,-0.489302,-0.12058,33.8495,-0.042202,
2,0,0,1,0,8598.2,-0.0438476,-0.0441941,-7.26158,7,-0.00274985,11,0.000320919,-2.13897,-0.611164,-0.0965372,27.3482,-0.0441941,
2,0,0,1,0,8598.22,-0.0458452,-0.0462286,-7.31408,7,-0.0028958,11,0.00033812,-2.13584,-0.575973,-0.102435,29.2637,-0.0462286,
2,0,0,1,0,8598.24,-0.0478428,-0.0482033,-7.3789,7,-0.00304287,11,0.000355687,-2.13201,-0.436503,-0.135165,38.9917,-0.0482033,
2,0,0,1,0,8598.26,-0.0498495,-0.0502235,-7.46985,7,-0.00319145,11,0.000375162,-2.12669,-0.441852,-0.133529,38.8516,-0.0502235,
2,0,0,1,0,8598.28,-0.051838,-0.052154,-7.5324,7,-0.00334088,11,0.000392845,-2.12307,-0.53845,-0.109574,32.2158,-0.052154,
2,0,0,1,0,8598.3,-0.0538355,-0.0541881,-7.59757,7,-0.00349223,11,0.000411698,-2.11933,-0.49574,-0.119014,35.315,-0.0541881,
2,0,0,1,0,8598.32,-0.0558331,-0.0561773,-7.67448,7,-0.00364508,11,0.000431132,-2.11495,-0.458016,-0.128817,38.5807,-0.0561773,
2,0,0,1,0,8598.34,-0.0578216,-0.0581755,-7.75141,7,-0.00379863,11,0.000450942,-2.11062,-0.441952,-0.133499,40.404,-0.0581755,
2,0,0,1,0,8598.36,-0.0598283,-0.0601784,-7.83614,7,-0.00395471,11,0.000471566,-2.1059,-0.404855,-0.145731,44.5954,-0.0601784,
2,0,0,1,0,8598.38,-0.0618259,-0.0622112,-7.93138,7,-0.00411245,11,0.000493421,-2.10065,-0.422799,-0.139546,43.1482,-0.0622112,
2,0,0,1,0,8598.4,-0.0638235,-0.0642123,-8.0102,7,-0.00427198,11,0.000514353,-2.09636,-0.438101,-0.134672,42.1189,-0.0642123,
2,0,0,1,0,8598.42,-0.0658211,-0.0661358,-8.09668,7,-0.00443314,11,0.000535481,-2.09169,-0.379718,-0.155378,49.1609,-0.0661358,
2,0,0,1,0,8598.44,-0.0678187,-0.0681708,-8.2048,7,-0.00459555,11,0.000559328,-2.08593,-0.365842,-0.161272,51.6153,-0.0681708,
2,0,0,1,0,8598.46,-0.0698162,-0.0701874,-8.30581,7,-0.0047608,11,0.000582963,-2.08062,-0.389196,-0.151594,49.1188,-0.0701874,
2,0,0,1,0,8598.48,-0.0718138,-0.0721584,-8.40066,7,-0.00492805,11,0.000606178,-2.07569,-0.368559,-0.160083,52.5437,-0.0721584,
2,0,0,1,0,8598.5,-0.0738114,-0.0741821,-8.5157,7,-0.00509734,11,0.000631712,-2.06978,-0.330864,-0.178321,59.2921,-0.0741821,
2,0,0,1,0,8598.52,-0.075809,-0.076197,-8.64012,7,-0.00526824,11,0.000658351,-2.06348,-0.337206,-0.174967,58.9464,-0.076197,
2,0,0,1,0,8598.54,-0.0778066,-0.0781634,-8.75039,7,-0.00544233,11,0.000683961,-2.05797,-0.347378,-0.169844,58.0394,-0.0781634,
2,0,0,1,0,8598.56,-0.0798042,-0.0802101,-8.87304,7,-0.0056187,11,0.000711708,-2.05193,-0.320064,-0.184338,63.8517,-0.0802101,
2,0,0,1,0,8598.58,-0.0818018,-0.0821015,-9.00184,7,-0.00579758,11,0.000739065,-2.04567,-0.305846,-0.192908,67.8101,-0.0821015,
2,0,0,1,0,8598.6,-0.0837994,-0.0841813,-9.14233,7,-0.00597822,11,0.000769613,-2.03894,-0.326853,-0.180509,64.332,-0.0841813,
2,0,0,1,0,8598.62,-0.0857969,-0.0861664,-9.26334,7,-0.00616232,11,0.000798189,-2.03323,-0.331265,-0.178105,64.4345,-0.0861664,
2,0,0,1,0,8598.64,-0.0877945,-0.0881619,-9.39881,7,-0.00634906,11,0.000828617,-2.02693,-0.323679,-0.18228,66.8479,-0.0881619,
2,0,0,1,0,8598.66,-0.0897921,-0.0901822,-9.53179,7,-0.00653851,11,0.000859598,-2.02083,-0.322609,-0.182884,68.0447,-0.0901822,
2,0,0,1,0,8598.68,-0.0917897,-0.0921419,-9.66963,7,-0.00672963,11,0.000890978,-2.01459,-0.331656,-0.177895,67.0949,-0.0921419,
2,0,0,1,0,8598.7,-0.0937873,-0.0941447,-9.79766,7,-0.00692439,11,0.000922398,-2.00888,-0.357294,-0.16513,63.1239,-0.0941447,
2,0,0,1,0,8598.72,-0.0957849,-0.0961307,-9.92142,7,-0.00712172,11,0.000953753,-2.00343,-0.379832,-0.155332,60.1182,-0.0961307,
2,0,0,1,0,8598.74,-0.0977825,-0.0981323,-10.0374,7,-0.00732142,11,0.000984991,-1.99838,-0.373952,-0.157774,61.8532,-0.0981323,
2,0,0,1,0,8598.76,-0.0997501,-0.100152,-10.1702,7,-0.00751948,11,0.00101856,-1.99267,0.00652454,9.04278,-2991.66,-0.100152,
2,0,0,1,1,8598.77,-0.0987313,-0.0991183,-7.08753,7,-0.00765283,11,0.000702504,-2.14951,-0.00714643,-8.25587,2094.97,-0.0991183,
2,0,0,1,1,8598.79,-0.0967337,-0.0971323,-3.84399,7,-0.00775928,11,0.000373376,-2.41522,-0.00641743,-9.19372,1348.83,-0.09713234,
2,0,0,1,1,8598.81,-0.0947361,-0.0951117,-1.68331,7,-0.00781295,11,0.000160102,-2.77384,-0.00289139,-20.4054,915.487,-0.0951117,
2,0,0,1,1,8598.83,-0.0927386,-0.0931032,-0.155338,7,-0.00783028,11,1.44625e-05,-3.80872,-0.0165432,-3.56643,661.334,-0.09310317,
2,1,0,1,1,8598.85,-0.090741,-0.0911084,0.964211,7,-0.00782159,11,-8.78477e-05,-3.01583,0.00373562,15.7939,490.504,-0.0911084,
2,1,0,1,1,8598.87,-0.0887434,-0.0891378,1.78968,7,-0.00779356,11,-0.000159529,-2.74722,0.00993816,5.93671,367.642,-0.0891378,
2,1,0,1,1,8598.89,-0.0867458,-0.0871141,2.43266,7,-0.00775101,11,-0.000211919,-2.61392,0.0187194,3.15181,284.924,-0.0871141,
2,1,0,1,1,8598.91,-0.0847482,-0.0851096,2.93743,7,-0.00769708,11,-0.000250003,-2.53203,0.0286439,2.05978,230.285,-0.0851096,
2,1,0,1,1,8598.93,-0.0827529,-0.0831517,3.34515,7,-0.00763447,11,-0.000278155,-2.47558,0.0407938,1.4463,185.955,-0.0831517,
2,1,0,1,1,8598.95,-0.080753,-0.0811198,3.67934,7,-0.00756401,11,-0.000298468,-2.43423,0.0562843,1.04825,148.971,-0.0811198,
2,1,0,1,1,8598.97,-0.0787554,-0.0790597,3.95474,7,-0.00748752,11,-0.000312661,-2.40288,0.0732822,0.805107,123.179,-0.0790597,
2,1,0,1,1,8598.99,-0.0767579,-0.0771236,4.17159,7,-0.00740613,11,-0.000321728,-2.3797,0.0913538,0.64584,104.866,-0.07712362,
2,1,0,1,1,8599.01,-0.0747603,-0.0750687,4.37326,7,-0.0073206,11,-0.000328295,-2.35919,0.106892,0.551957,93.8595,-0.0750687,
2,1,0,1,1,8599.03,-0.0727627,-0.0731103,4.54828,7,-0.00723164,11,-0.000332526,-2.34215,0.136605,0.431902,76.2412,-0.0731103,
2,1,0,1,1,8599.05,-0.0707651,-0.0710924,4.67642,7,-0.00713933,11,-0.000332458,-2.33009,0.170891,0.34525,62.9574,-0.0710924,
2,1,0,1,1,8599.07,-0.0687675,-0.0691285,4.79896,7,-0.00704448,11,-0.000331745,-2.31885,0.1896,0.311181,58.1899,-0.0691285,
2,1,0,1,1,8599.09,-0.0667699,-0.0671052,4.90843,7,-0.00694732,11,-0.000329381,-2.30906,0.214516,0.275038,52.6307,-0.0671052,
2,1,0,1,1,8599.11,-0.0647723,-0.0651372,5.00903,7,-0.00684845,11,-0.000326274,-2.30025,0.257376,0.229237,44.7067,-0.0651372,
2,1,0,1,1,8599.13,-0.0627748,-0.0631113,5.08698,7,-0.00674747,11,-0.000321046,-2.29354,0.296229,0.199171,39.5449,-0.06311135,
2,1,0,1,1,8599.15,-0.0607772,-0.0611493,5.16673,7,-0.00664486,11,-0.000315942,-2.28678,0.325201,0.181426,36.5365,-0.0611493,
2,1,0,1,1,8599.17,-0.0587796,-0.0590865,5.23404,7,-0.0065408,11,-0.000309261,-2.28116,0.396439,0.148825,30.3641,-0.05908652,
2,1,0,1,1,8599.19,-0.056782,-0.0571093,5.2894,7,-0.00643606,11,-0.000302074,-2.27659,0.463677,0.127244,26.2489,-0.0571093,
2,1,0,1,1,8599.21,-0.0547844,-0.0551288,5.33792,7,-0.0063297,11,-0.000294273,-2.27263,0.529924,0.111337,23.1852,-0.0551288,
2,1,0,1,1,8599.23,-0.0527868,-0.0530864,5.38267,7,-0.00622241,11,-0.000285747,-2.269,0.60463,0.0975803,20.4834,-0.0530864,
2,1,0,1,1,8599.25,-0.0507892,-0.0511387,5.41965,7,-0.00611443,11,-0.000277154,-2.26603,0.624156,0.0945276,20.0027,-0.0511387,
2,1,0,1,1,8599.27,-0.0487916,-0.0491373,5.46167,7,-0.00600619,11,-0.000268371,-2.26267,0.735476,0.0802201,17.0737,-0.0491373,
2,1,0,1,1,8599.29,-0.046794,-0.0471595,5.48759,7,-0.00589663,11,-0.000258792,-2.26062,1.31265,0.0449472,9.61393,-0.0471595,
2,1,0,1,1,8599.31,-0.0447965,-0.0451771,5.49974,7,-0.0057867,11,-0.000248462,-2.25966,1.31966,0.0447086,9.60853,-0.0451771,
2,1,0,1,1,8599.33,-0.0427989,-0.0431495,5.52612,7,-0.00567644,11,-0.000238449,-2.25758,1.01939,0.0578779,12.4792,-0.0431495,
2,1,0,1,1,8599.35,-0.0408013,-0.0411681,5.54977,7,-0.00556622,11,-0.000228473,-2.25573,2.05536,0.0287054,6.20464,-0.0411681,
2,1,0,1,1,8599.37,-0.0388037,-0.0391689,5.55082,7,-0.00545516,11,-0.000217419,-2.25564,5.36966,0.0109877,2.38187,-0.0391689,
2,1,0,1,1,8599.39,-0.0368061,-0.0371439,5.55935,7,-0.005344,11,-0.000206496,-2.25498,2.38556,0.0247322,5.36826,-0.0371439,
2,1,0,1,1,8599.41,-0.0348085,-0.0351161,5.57258,7,-0.00523262,11,-0.000195687,-2.25394,1.71446,0.0344132,7.48654,-0.0351161,
2,1,0,1,1,8599.43,-0.0328109,-0.0331399,5.58933,7,-0.00512161,11,-0.00018523,-2.25264,8.30709,0.00710237,1.54547,-0.0331399,
2,1,0,1,1,8599.45,-0.0308134,-0.0311687,5.57868,7,-0.00500996,11,-0.00017388,-2.25347,-5.91376,-0.00997673,-2.17458,-0.03116871,
2,1,0,1,1,8599.47,-0.0288158,-0.029168,5.58069,7,-0.00489834,11,-0.000162778,-2.25331,-9.795,-0.00602348,-1.31081,-0.029168,
2,1,0,1,1,8599.49,-0.0268182,-0.0271864,5.57346,7,-0.00478677,11,-0.000151522,-2.25388,-5.72653,-0.0103029,-2.24212,-0.0271864,
2,1,0,1,1,8599.51,-0.0248138,-0.0251302,5.57164,7,-0.00467537,11,-0.000140016,-2.25402,43.484,0.00135682,0.29516,-0.0251302,
2,1,0,1,1,8599.53,-0.022823,-0.0231592,5.57465,7,-0.0045644,11,-0.000129104,-2.25378,-6.01914,-0.00980207,-2.12977,-0.0231592,
2,1,0,1,1,8599.55,-0.0208254,-0.0211405,5.56314,7,-0.00445299,11,-0.000117607,-2.25468,-2.09235,-0.0281979,-6.12141,-0.0211405,
2,1,0,1,1,8599.57,-0.0188278,-0.019196,5.55039,7,-0.00434187,11,-0.000106546,-2.25568,-2.17806,-0.0270883,-5.86883,-0.019196,
2,1,0,1,1,8599.59,-0.0168393,-0.0171599,5.53978,7,-0.00423148,11,-9.50621e-05,-2.25651,-6.49463,-0.00908442,-1.9664,-0.0171599,
2,1,0,1,1,8599.61,-0.0148327,-0.0151327,5.5424,7,-0.0041205,11,-8.38717e-05,-2.2563,-2.94343,-0.0200446,-4.32693,-0.0151327,
2,1,0,1,1,8599.63,-0.0128351,-0.0131889,5.5226,7,-0.00400983,11,-7.28369e-05,-2.25786,-1.79897,-0.0327965,-7.07627,-0.0131889,
2,1,0,1,1,8599.65,-0.0108375,-0.0112268,5.51476,7,-0.00389947,11,-6.1913e-05,-2.25847,-2.83854,-0.0207853,-4.47253,-0.01122679,
2,1,0,1,1,8599.67,-0.00883989,-0.00915451,5.50455,7,-0.00378921,11,-5.03915e-05,-2.25928,-2.57947,-0.0228729,-4.91396,-0.00915451,
2,1,0,1,1,8599.69,-0.0068423,-0.00719801,5.49496,7,-0.00367958,11,-3.95528e-05,-2.26004,-2.93158,-0.0201257,-4.31678,-0.007198005,
2,1,0,1,1,8599.71,-0.00484471,-0.00518429,5.48742,7,-0.00356973,11,-2.84484e-05,-2.26063,-2.45218,-0.0240602,-5.15005,-0.00518429,
2,1,0,1,1,8599.73,-0.00284713,-0.00318925,5.47432,7,-0.00346008,11,-1.7459e-05,-2.26167,-2.0435,-0.028872,-6.1692,-0.00318925,
2,1,0,1,1,8599.75,-0.000849538,-0.00118176,5.46272,7,-0.00335067,11,-6.45565e-06,-2.26259, , , ,-0.00118176,
2,1,0,0,1,8599.76,-2.55332e-05,-0.000363498,5.47001,7,-0.00330643,11,-1.98834e-06,-2.26201, , , ,-0.000363498,