File: Figure_codes/Fig_3-5/rawdata_trumpetplot_data/before 10th/20221101_1-115_002_TrumpetPlot_ParaChange_06_CV_C01_0.csv
mode,ox/red,error,control changes,counter inc.,time/s,control/V,Ewe/V,<I>/mA,cycle number,(Q-Qo)/C,I Range,P/W,log(|I|),Tafel slope mV/dec,alpha_eff,dI/d(E-IR),E-IR/V,
2,0,0,0,0,1078.99,2.44065e-05,-0.000325324,-0.487102,1,0.0000000E+000,11,1.58466e-07,-3.31238, , , ,-0.000325324,
2,1,0,1,0,1079.11,0.00129787,0.000965191,0.324008,1,2.23435e-05,11,3.1273e-07,-3.48944, , , ,0.000965191,
2,1,0,1,0,1079.26,0.00279606,0.00249642,0.367851,1,7.76607e-05,11,9.18311e-07,-3.43433,0.0277818,2.12369,26.9863,0.00249642,
2,1,0,1,0,1079.41,0.00429425,0.00403825,0.376926,1,0.000135296,11,1.52212e-06,-3.42374,0.163589,0.36066,5.45993,0.00403825,
2,1,0,1,0,1079.56,0.00579244,0.00552812,0.389088,1,0.0001951,11,2.15092e-06,-3.40995,0.0899035,0.656259,9.99246,0.00552812,
2,1,0,1,0,1079.71,0.00729063,0.00699466,0.407675,1,0.000257127,11,2.85155e-06,-3.38969,0.125473,0.470222,7.41225,0.00699466,
2,1,0,1,0,1079.86,0.00878882,0.00851316,0.418939,1,0.000321168,11,3.56649e-06,-3.37785,0.158548,0.372127,6.02659,0.00851316,
2,1,0,1,0,1080.01,0.010287,0.010037,0.427454,1,0.000386629,11,4.29035e-06,-3.36911,0.214647,0.27487,4.5644,0.010037,
2,1,0,1,0,1080.16,0.0117852,0.01146,0.431529,1,0.000453231,11,4.94534e-06,-3.36499,0.200757,0.293888,4.97864,0.01146,
2,1,0,1,0,1080.31,0.0132838,0.0130224,0.443016,1,0.000520863,11,5.76912e-06,-3.35358,0.202837,0.290874,5.05185,0.0130224,
2,1,0,1,0,1080.46,0.0147814,0.0145187,0.449033,1,0.000589635,11,6.51939e-06,-3.34772,0.279306,0.211238,3.68318,0.0145187,
2,1,0,1,0,1080.61,0.0162789,0.0160169,0.45244,1,0.000659406,11,7.24668e-06,-3.34444,0.341807,0.172612,3.04451,0.0160169,
2,1,0,1,0,1080.76,0.017778,0.0174937,0.457497,1,0.000729747,11,8.00334e-06,-3.33961,0.267652,0.220436,3.94249,0.0174937,
2,1,0,1,0,1080.91,0.0192761,0.0189677,0.461826,1,0.00080048,11,8.75979e-06,-3.33552,0.306765,0.192329,3.47171,0.0189677,
2,1,0,1,0,1081.06,0.0207743,0.0204714,0.46586,1,0.000872194,11,9.53679e-06,-3.33174,0.327776,0.180001,3.25687,0.0204714,
2,1,0,1,0,1081.21,0.0222725,0.0219952,0.471284,1,0.000944514,11,1.0366e-05,-3.32672,0.444377,0.13277,2.43051,0.02199517,
2,1,0,1,0,1081.36,0.0237707,0.0235338,0.475679,1,0.0010174,11,1.11945e-05,-3.32269,0.576676,0.10231,1.89317,0.0235338,
2,1,0,1,0,1081.51,0.0252689,0.0249898,0.476528,1,0.00109042,11,1.19083e-05,-3.32191,0.431839,0.136625,2.55438,0.02498976,
2,1,0,1,0,1081.66,0.0267671,0.0265263,0.481052,1,0.00116426,11,1.27605e-05,-3.31781,0.343792,0.171615,3.20841,0.0265263,
2,1,0,1,0,1081.81,0.0282662,0.0280119,0.4865,1,0.00123874,11,1.36278e-05,-3.31292,0.444326,0.132785,2.51007,0.0280119,
2,1,0,1,0,1081.96,0.0297635,0.0294743,0.48778,1,0.00131367,11,1.4377e-05,-3.31178,0.502377,0.117442,2.22679,0.0294743,
2,1,0,1,0,1082.11,0.031261,0.0309518,0.486746,1,0.00138882,11,1.50657e-05,-3.3127,0.484272,0.121832,2.32577,0.0309518,
2,1,0,1,0,1082.26,0.0327598,0.0325197,0.493724,1,0.00146456,11,1.60557e-05,-3.30652,0.385728,0.152957,2.94683,0.0325197,
2,1,0,1,0,1082.41,0.034258,0.0339534,0.496703,1,0.00154076,11,1.68647e-05,-3.3039,0.479347,0.123084,2.38875,0.0339534,
2,1,0,1,0,1082.56,0.0357562,0.0354592,0.499376,1,0.00161758,11,1.77075e-05,-3.30157,0.905306,0.0651714,1.26731,0.0354592,
2,1,0,1,0,1082.71,0.0372544,0.0369458,0.500618,1,0.00169476,11,1.84957e-05,-3.30049,0.511782,0.115283,2.26335,0.0369458,
2,1,0,1,0,1082.86,0.0387526,0.0384877,0.506412,1,0.0017723,11,1.94906e-05,-3.2955,0.331458,0.178001,3.54808,0.0384877,
2,1,0,1,0,1083.01,0.0402508,0.0399341,0.507799,1,0.00185048,11,2.02785e-05,-3.29431,0.587751,0.100383,2.00149,0.0399341,
2,1,0,1,0,1083.16,0.041749,0.0414886,0.514427,1,0.00192962,11,2.13429e-05,-3.28868,0.701932,0.0840537,1.68345,0.0414886,
2,1,0,1,0,1083.31,0.0432472,0.0429743,0.520721,1,0.00200891,11,2.23776e-05,-3.2834,0.47388,0.124504,2.51017,0.0429743,
2,1,0,1,0,1083.46,0.0447458,0.0444962,0.524006,1,0.00208872,11,2.33163e-05,-3.28066,0.391064,0.150871,3.07281,0.0444962,
2,1,0,1,0,1083.61,0.0462433,0.0459685,0.526063,1,0.00216927,11,2.41824e-05,-3.27896,0.321532,0.183496,3.75623,0.0459685,
2,1,0,1,0,1083.76,0.0477409,0.0474314,0.530746,1,0.00225067,11,2.5174e-05,-3.27511,0.329438,0.179093,3.71779,0.0474314,
2,1,0,1,0,1083.91,0.0492399,0.0489624,0.53177,1,0.00233263,11,2.60367e-05,-3.27428,0.357146,0.165199,3.47093,0.0489624,
2,1,0,1,0,1084.06,0.0507381,0.0504597,0.536982,1,0.00241517,11,2.70959e-05,-3.27004,0.363737,0.162205,3.42952,0.0504597,
2,1,0,1,0,1084.21,0.0522363,0.0519357,0.544647,1,0.00249868,11,2.82866e-05,-3.26389,0.262306,0.224928,4.78629,0.0519357,
2,1,0,1,0,1084.36,0.0537345,0.0534034,0.554197,1,0.00258321,11,2.9596e-05,-3.25634,0.295606,0.19959,4.313,0.0534034,
2,1,0,1,0,1084.51,0.0552327,0.0549431,0.559436,1,0.0026686,11,3.07371e-05,-3.25225,0.481235,0.122601,2.66974,0.0549431,
2,1,0,1,0,1084.66,0.0567309,0.0563873,0.560968,1,0.00275489,11,3.16315e-05,-3.25106,0.319509,0.184658,4.07719,0.0563873,
2,1,0,1,0,1084.81,0.0582291,0.0579355,0.573865,1,0.00284191,11,3.32472e-05,-3.24119,0.277725,0.21244,4.75274,0.0579355,
2,1,0,1,0,1084.96,0.0597282,0.0594465,0.582057,1,0.00293037,11,3.46013e-05,-3.23503,0.270892,0.217799,4.94451,0.05944648,
2,1,0,1,0,1085.11,0.0612255,0.0609152,0.587897,1,0.00302,11,3.58119e-05,-3.2307,0.343365,0.171829,3.92955,0.0609152,
2,1,0,1,0,1085.26,0.062723,0.0624364,0.595356,1,0.00311084,11,3.71719e-05,-3.22522,0.241269,0.244541,5.71106,0.0624364,
2,1,0,1,0,1085.41,0.0642218,0.0639459,0.604618,1,0.00320265,11,3.86628e-05,-3.21852,0.184462,0.319849,7.58476,0.0639459,
2,1,0,1,0,1085.56,0.06572,0.065423,0.614516,1,0.00329617,11,4.02035e-05,-3.21147,0.214353,0.275247,6.59769,0.065423,
2,1,0,1,0,1085.71,0.0672182,0.0669299,0.626131,1,0.00339123,11,4.19069e-05,-3.20334,0.212237,0.277991,6.77055,0.0669299,
2,1,0,1,0,1085.86,0.0687164,0.0684357,0.636198,1,0.00348766,11,4.35387e-05,-3.19641,0.223362,0.264145,6.53313,0.0684357,
2,1,0,1,0,1086.01,0.0702146,0.0699605,0.645052,1,0.00358541,11,4.51282e-05,-3.19041,0.209774,0.281255,7.07868,0.0699605,
2,1,0,1,0,1086.16,0.0717128,0.0714419,0.657053,1,0.00368498,11,4.69411e-05,-3.1824,0.192289,0.30683,7.8407,0.0714419,
2,1,0,1,0,1086.31,0.073211,0.0729233,0.667146,1,0.00378626,11,4.86505e-05,-3.17578,0.196276,0.300597,7.84429,0.07292331,
2,1,0,1,0,1086.46,0.0747092,0.0744121,0.679842,1,0.00388924,11,5.05885e-05,-3.16759,0.208189,0.283396,7.52878,0.0744121,
2,1,0,1,0,1086.61,0.0762078,0.0758898,0.687012,1,0.00399388,11,5.21372e-05,-3.16304,0.189172,0.311885,8.40711,0.0758898,
2,1,0,1,0,1086.76,0.0777053,0.0774427,0.704103,1,0.00410038,11,5.45276e-05,-3.15236,0.175504,0.336175,9.22633,0.0774427,
2,1,0,1,0,1086.91,0.0792029,0.0789115,0.7181,1,0.00420884,11,5.66663e-05,-3.14382,0.187139,0.315273,8.80127,0.0789115,
2,1,0,1,0,1087.06,0.0807019,0.0804246,0.728148,1,0.00431943,11,5.8561e-05,-3.13778,0.208943,0.282374,8.01526,0.0804246,
2,1,0,1,0,1087.21,0.0822001,0.0819293,0.736456,1,0.00443157,11,6.03374e-05,-3.13285,0.213252,0.276668,7.99795,0.0819293,
2,1,0,1,0,1087.35,0.0836983,0.0834235,0.753482,1,0.00454553,11,6.28581e-05,-3.12293,0.209061,0.282215,8.31714,0.0834235,
2,1,0,1,0,1087.5,0.0851965,0.0848889,0.766395,1,0.00466169,11,6.50585e-05,-3.11555,0.208235,0.283333,8.49275,0.0848889,
2,1,0,1,0,1087.65,0.0866947,0.0863915,0.782429,1,0.00477988,11,6.75953e-05,-3.10655,0.286279,0.206093,6.27341,0.0863915,
2,1,0,1,0,1087.8,0.0881929,0.0879026,0.794327,1,0.00489992,11,6.98234e-05,-3.1,0.220356,0.267749,8.30374,0.0879026,
2,1,0,1,0,1087.95,0.0896911,0.089402,0.809595,1,0.00502154,11,7.23795e-05,-3.09173,0.200168,0.294753,9.29596,0.08940202,
2,1,0,1,0,1088.1,0.0911902,0.090895,0.824212,1,0.0051456,11,7.49167e-05,-3.08396,0.182234,0.323759,10.3455,0.090895,
2,1,0,1,0,1088.25,0.0926875,0.0924073,0.837631,1,0.00527203,11,7.74032e-05,-3.07695,0.192425,0.306613,9.98245,0.0924073,
2,1,0,1,0,1088.4,0.094185,0.093957,0.847989,1,0.00540026,11,7.96745e-05,-3.07161,0.230045,0.256472,8.5118,0.093957,
2,1,0,1,0,1088.55,0.0956838,0.0953965,0.860722,1,0.0055303,11,8.21099e-05,-3.06514,0.199697,0.295448,9.95621,0.0953965,
2,1,0,1,0,1088.7,0.097182,0.0969277,0.875324,1,0.00566261,11,8.48431e-05,-3.05783,0.175572,0.336045,11.4684,0.09692774,
2,1,0,1,0,1088.85,0.0986802,0.0984059,0.890693,1,0.00579723,11,8.76495e-05,-3.05027,0.208299,0.283247,9.86127,0.0984059,
2,1,0,1,0,1089,0.100178,0.0998417,0.906875,1,0.00593416,11,9.05439e-05,-3.04245,0.221725,0.266095,9.41877,0.0998417,
2,1,0,1,0,1089.15,0.101677,0.101409,0.917953,1,0.00607318,11,9.30887e-05,-3.03718,0.196183,0.300739,10.8562,0.101409,
2,1,0,1,0,1089.3,0.103175,0.102902,0.940951,1,0.00621468,11,9.68258e-05,-3.02643,0.187649,0.314417,11.5611,0.102902,
2,1,0,1,0,1089.45,0.104673,0.104388,0.965139,1,0.00635925,11,0.000100749,-3.01541,0.179799,0.328145,12.2917,0.104388,
2,1,0,1,0,1089.6,0.106171,0.10584,0.981086,1,0.00650694,11,0.000103839,-3.00829,0.183782,0.321033,12.2612,0.10584,
2,1,0,1,0,1089.75,0.10767,0.107414,1.0002,1,0.00665741,11,0.000107436,-2.99991,0.159165,0.370685,14.5219,0.107414,
2,1,0,1,0,1089.9,0.109167,0.108877,1.02243,1,0.00681106,11,0.000111319,-2.99037,0.136422,0.432483,17.3827,0.108877,
2,1,0,1,0,1090.05,0.110665,0.110364,1.05006,1,0.00696868,11,0.000115888,-2.97879,0.133542,0.441808,18.1808,0.110364,
2,1,0,1,0,1090.2,0.112164,0.111847,1.08101,1,0.00713082,11,0.000120907,-2.96617,0.133071,0.443373,18.6959,0.111847,
2,1,0,1,0,1090.35,0.113662,0.11336,1.1101,1,0.00729709,11,0.000125841,-2.95464,0.121184,0.486861,21.1453,0.11336,
2,1,0,1,0,1090.5,0.11516,0.114875,1.14408,1,0.00746777,11,0.000131426,-2.94154,0.111265,0.530265,23.7283,0.1148751,
2,1,0,1,0,1090.65,0.116658,0.116388,1.18463,1,0.00764421,11,0.000137877,-2.92642,0.102584,0.575141,26.5526,0.116388,
2,1,0,1,0,1090.8,0.118157,0.117881,1.22772,1,0.00782693,11,0.000144725,-2.9109,0.0999069,0.59055,28.2407,0.117881,
2,1,0,1,0,1090.95,0.119655,0.119383,1.26611,1,0.00801561,11,0.000151152,-2.89753,0.104322,0.565556,28.0449,0.1193829,
2,1,0,1,0,1091.1,0.121153,0.120912,1.31086,1,0.00821058,11,0.000158499,-2.88244,0.095954,0.614878,31.5857,0.120912,
2,1,0,1,0,1091.25,0.122652,0.12237,1.3616,1,0.00841299,11,0.000166619,-2.86595,0.086952,0.678535,36.0578,0.1223699,
2,1,0,1,0,1091.4,0.124149,0.123871,1.41886,1,0.00862303,11,0.000175756,-2.84806,0.089775,0.657198,36.3018,0.123871,
2,1,0,1,0,1091.55,0.125647,0.125353,1.46769,1,0.00884117,11,0.000183978,-2.83337,0.0930194,0.634276,36.2774,0.1253525,
2,1,0,1,0,1091.7,0.127146,0.126884,1.51389,1,0.00906738,11,0.000192089,-2.81991,0.0962089,0.613249,36.4269,0.126884,
2,1,0,1,0,1091.85,0.128644,0.128371,1.57614,1,0.00930133,11,0.00020233,-2.80241,0.0998804,0.590707,36.3301,0.128371,
2,1,0,1,0,1092,0.130142,0.129843,1.6337,1,0.00954393,11,0.000212124,-2.78683,0.107851,0.54705,34.7675,0.129843,
2,1,0,1,0,1092.15,0.13164,0.131386,1.68419,1,0.00979477,11,0.000221278,-2.77361,0.124257,0.474822,31.072,0.131386,
2,1,0,1,0,1092.3,0.133139,0.132863,1.73545,1,0.010053,11,0.000230577,-2.76059,0.134155,0.439789,29.7084,0.132863,
2,1,0,1,0,1092.45,0.134637,0.134331,1.77574,1,0.0103176,11,0.000238538,-2.75062,0.143493,0.411169,28.5039,0.134331,
2,1,0,1,0,1092.6,0.136135,0.135865,1.82046,1,0.010589,11,0.000247336,-2.73982,0.160536,0.367519,26.0105,0.135865,
2,1,0,1,0,1092.75,0.137633,0.137363,1.85834,1,0.0108666,11,0.000255268,-2.73087,0.196863,0.2997,21.5929,0.137363,
2,1,0,1,0,1092.9,0.139132,0.138849,1.8855,1,0.0111491,11,0.0002618,-2.72457,0.256588,0.229941,16.8471,0.138849,
2,1,0,1,0,1093.05,0.140629,0.140341,1.9044,1,0.0114347,11,0.000267264,-2.72024,0.318011,0.185528,13.758,0.140341,
2,1,0,1,0,1093.2,0.142127,0.141851,1.92065,1,0.0117233,11,0.000272447,-2.71655,0.423108,0.139444,10.4072,0.141851,
2,1,0,1,0,1093.35,0.143626,0.143384,1.93024,1,0.0120146,11,0.000276766,-2.71439,1.07453,0.0549076,4.12059,0.143384,
2,1,0,1,0,1093.5,0.145124,0.144868,1.92896,1,0.012306,11,0.000279444,-2.71468,-0.951863,-0.0619837,-4.65748,0.144868,
2,1,0,1,0,1093.65,0.146622,0.146335,1.91241,1,0.0125962,11,0.000279852,-2.71842,-0.525408,-0.112294,-8.39395,0.146335,
2,1,0,1,0,1093.8,0.14812,0.147851,1.90281,1,0.0128846,11,0.000281331,-2.72061,-0.339147,-0.173966,-12.8739,0.147851,
2,1,0,1,0,1093.95,0.149619,0.149295,1.87874,1,0.0131702,11,0.000280486,-2.72613,-0.212724,-0.277355,-20.2518,0.149295,
2,1,0,1,0,1094.1,0.151117,0.150843,1.84779,1,0.0134513,11,0.000278727,-2.73335,-0.151228,-0.39014,-27.9096,0.150843,
2,1,0,1,0,1094.25,0.152615,0.152323,1.79474,1,0.0137264,11,0.00027338,-2.746,-0.128175,-0.460307,-32.1612,0.152323,
2,1,0,1,0,1094.4,0.154114,0.153814,1.74698,1,0.0139938,11,0.00026871,-2.75771,-0.110788,-0.532549,-36.2585,0.153814,
2,1,0,1,0,1094.55,0.155612,0.155343,1.68902,1,0.014253,11,0.000262377,-2.77236,-0.0941784,-0.626471,-41.085,0.155343,
2,1,0,1,0,1094.7,0.157109,0.15683,1.62041,1,0.0145033,11,0.000254128,-2.79038,-0.0790235,-0.746613,-46.9425,0.15683,
2,1,0,1,0,1094.85,0.158608,0.158363,1.54775,1,0.0147431,11,0.000245107,-2.8103,-0.0718426,-0.82124,-49.5521,0.158363,
2,1,0,1,0,1095,0.160106,0.159819,1.47093,1,0.0149709,11,0.000235083,-2.83241,-0.0685626,-0.860528,-49.5081,0.159819,
2,1,0,1,0,1095.15,0.161604,0.161302,1.40252,1,0.0151882,11,0.000226229,-2.85309,-0.0678642,-0.869383,-47.3658,0.161302,
2,1,0,1,0,1095.3,0.163102,0.162799,1.32791,1,0.0153947,11,0.000216182,-2.87683,-0.0633777,-0.930927,-48.2325,0.162799,
2,1,0,1,0,1095.45,0.164601,0.164322,1.25955,1,0.0155904,11,0.000206972,-2.89978,-0.0627695,-0.939947,-46.2037,0.164322,
2,1,0,1,0,1095.59,0.166099,0.165769,1.19226,1,0.0157755,11,0.00019764,-2.92363,-0.0653133,-0.903338,-42.1778,0.165769,
2,1,0,1,0,1095.74,0.167597,0.167295,1.13356,1,0.0159515,11,0.00018964,-2.94555,-0.0712646,-0.8279,-36.6473,0.167295,
2,1,0,1,0,1095.89,0.169095,0.168758,1.0798,1,0.0161193,11,0.000182224,-2.96666,-0.0716071,-0.823941,-34.7541,0.168758,
2,1,0,1,0,1096.04,0.170594,0.17029,1.03095,1,0.0162794,11,0.000175561,-2.98676,-0.0744931,-0.79202,-31.9532,0.17029,
2,1,0,1,0,1096.19,0.172091,0.171819,0.980334,1,0.0164317,11,0.00016844,-3.00863,-0.08226,-0.717238,-27.6116,0.171819,
2,1,0,1,0,1096.34,0.173589,0.173303,0.943981,1,0.016578,11,0.000163594,-3.02504,-0.0919672,-0.641533,-23.6606,0.173303,
2,1,0,1,0,1096.49,0.175088,0.17473,0.909129,1,0.0167187,11,0.000158852,-3.04137,-0.0926986,-0.636471,-22.5949,0.17473,
2,1,0,1,0,1096.64,0.176586,0.176295,0.875955,1,0.0168545,11,0.000154426,-3.05752,-0.0964244,-0.611878,-20.9108,0.176295,
2,1,0,1,0,1096.79,0.178084,0.177797,0.843278,1,0.0169854,11,0.000149933,-3.07403,-0.107162,-0.550566,-18.2317,0.1777975,
2,1,0,1,0,1096.94,0.179582,0.179317,0.819088,1,0.0171122,11,0.000146877,-3.08667,-0.118333,-0.498595,-16.053,0.179317,
2,1,0,1,0,1097.09,0.181081,0.180802,0.794998,1,0.0172354,11,0.000143737,-3.09963,-0.119089,-0.495428,-15.4587,0.180802,
2,1,0,1,0,1097.24,0.182579,0.182308,0.774203,1,0.0173554,11,0.000141144,-3.11115,-0.119227,-0.494855,-15.0046,0.182308,
2,1,0,1,0,1097.39,0.184077,0.183809,0.756502,1,0.0174721,11,0.000139052,-3.12119,-0.128914,-0.457668,-13.5316,0.183809,
2,1,0,1,0,1097.54,0.185576,0.185271,0.740874,1,0.017586,11,0.000137262,-3.13026,-0.1596,-0.369673,-10.6851,0.185271,
2,1,0,1,0,1097.69,0.187074,0.186806,0.722808,1,0.0176974,11,0.000135025,-3.14098,-0.170321,-0.346404,-9.78415,0.186806,
2,1,0,1,0,1097.84,0.188571,0.188295,0.708436,1,0.0178067,11,0.000133395,-3.1497,-0.169357,-0.348377,-9.62289,0.188295,
2,1,0,1,0,1097.99,0.19007,0.189776,0.693585,1,0.0179138,11,0.000131626,-3.1589,-0.187384,-0.314862,-8.54562,0.189776,
2,1,0,1,0,1098.14,0.191568,0.19128,0.679312,1,0.0180186,11,0.000129938,-3.16793,-0.198163,-0.297735,-7.9364,0.19128,
2,1,0,1,0,1098.29,0.193066,0.192752,0.667527,1,0.0181218,11,0.000128667,-3.17553,-0.241139,-0.244672,-6.37966,0.192752,
2,1,0,1,0,1098.44,0.194564,0.194287,0.659687,1,0.0182235,11,0.000128169,-3.18066,-0.24056,-0.245262,-6.32073,0.194287,
2,1,0,1,0,1098.59,0.196063,0.195784,0.648228,1,0.0183235,11,0.000126913,-3.18827,-0.20059,-0.294132,-7.47042,0.195784,
2,1,0,1,0,1098.74,0.197561,0.197251,0.635351,1,0.0184219,11,0.000125323,-3.19699,-0.220334,-0.267775,-6.68373,0.197251,
2,1,0,1,0,1098.89,0.199059,0.198792,0.631176,1,0.018519,11,0.000125473,-3.19985,-0.254431,-0.23189,-5.69734,0.198792,
2,1,0,1,0,1099.04,0.200557,0.200268,0.624364,1,0.0186149,11,0.00012504,-3.20456,-0.273757,-0.215519,-5.23892,0.200268,
2,1,0,1,0,1099.19,0.202056,0.201778,0.6141,1,0.0187098,11,0.000123912,-3.21176,-0.256665,-0.229872,-5.50193,0.201778,
2,1,0,1,0,1099.34,0.203553,0.203276,0.606989,1,0.0188034,11,0.000123386,-3.21682,-0.305277,-0.193267,-4.59167,0.203276,
2,1,0,1,0,1099.49,0.205051,0.204784,0.599479,1,0.0188959,11,0.000122764,-3.22223,-0.777371,-0.0758968,-1.79563,0.204784,
2,1,0,1,0,1099.64,0.20655,0.206244,0.595184,1,0.0189877,11,0.000122753,-3.22535,-0.350093,-0.168527,-3.92471,0.206244,
2,1,0,1,0,1099.79,0.208048,0.207764,0.587779,1,0.0190789,11,0.000122119,-3.23079,-0.30953,-0.190612,-4.3749,0.207764,
2,1,0,1,0,1099.94,0.209546,0.20923,0.583298,1,0.019169,11,0.000122043,-3.23411,-0.397111,-0.148573,-3.39267,0.20923,
2,1,0,1,0,1100.09,0.211044,0.210778,0.579234,1,0.0192579,11,0.00012209,-3.23715,-0.383013,-0.154042,-3.48017,0.210778,
2,1,0,1,0,1100.24,0.212543,0.212272,0.577169,1,0.0193465,11,0.000122517,-3.2387,-0.460207,-0.128203,-2.86957,0.212272,
2,1,0,1,0,1100.39,0.214041,0.213796,0.569931,1,0.0194343,11,0.000121849,-3.24418,-0.476484,-0.123824,-2.74874,0.213796,
2,1,0,1,0,1100.54,0.215539,0.21526,0.565856,1,0.0195213,11,0.000121806,-3.24729,-0.464035,-0.127146,-2.80779,0.21526,
2,1,0,1,0,1100.69,0.217038,0.216751,0.56114,1,0.0196077,11,0.000121628,-3.25093,-0.536428,-0.109987,-2.40952,0.216751,
2,1,0,1,0,1100.84,0.218535,0.218251,0.561309,1,0.0196936,11,0.000122506,-3.2508,-0.850818,-0.069345,-1.50806,0.218251,
2,1,0,1,0,1100.99,0.220033,0.219798,0.554442,1,0.019779,11,0.000121865,-3.25614,-0.695226,-0.0848645,-1.83616,0.219798,
2,1,0,1,0,1101.14,0.221532,0.2213,0.55025,1,0.0198639,11,0.00012177,-3.25944,-0.591502,-0.0997461,-2.14871,0.2212996,
2,1,0,1,0,1101.29,0.22303,0.222758,0.542521,1,0.0199481,11,0.000120851,-3.26558,-0.63112,-0.0934846,-1.99414,0.222758,
2,1,0,1,0,1101.44,0.224528,0.224243,0.545367,1,0.0200319,11,0.000122295,-3.26331,-0.585227,-0.100816,-2.13899,0.224243,
2,1,0,1,0,1101.59,0.226026,0.225792,0.541617,1,0.0201153,11,0.000122293,-3.26631,-0.626234,-0.094214,-1.98471,0.2257915,
2,1,0,1,0,1101.74,0.227525,0.227226,0.539361,1,0.0201983,11,0.000122557,-3.26812,-0.47176,-0.125064,-2.62262,0.227226,
2,1,0,1,0,1101.89,0.229023,0.228742,0.532729,1,0.0202808,11,0.000121857,-3.27349,-0.476586,-0.123797,-2.58879,0.228742,
2,1,0,1,0,1102.04,0.230521,0.230224,0.533889,1,0.0203627,11,0.000122914,-3.27255,-0.66185,-0.0891441,-1.86018,0.230224,
2,1,0,1,0,1102.19,0.232019,0.231729,0.530686,1,0.0204445,11,0.000122975,-3.27516,-0.761128,-0.0775165,-1.60645,0.2317287,
2,1,0,1,0,1102.34,0.233518,0.233225,0.529369,1,0.0205261,11,0.000123462,-3.27624,-0.482974,-0.12216,-2.51322,0.233225,
2,1,0,1,0,1102.49,0.235015,0.234757,0.527992,1,0.0206071,11,0.00012395,-3.27737,-1.09153,-0.0540527,-1.11014,0.234757,
2,1,0,1,0,1102.64,0.236513,0.23624,0.523541,1,0.0206876,11,0.000123682,-3.28105,-0.878869,-0.0671318,-1.36963,0.23624,
2,1,0,1,0,1102.79,0.238012,0.237774,0.521303,1,0.0207681,11,0.000123952,-3.28291,-1.53635,-0.0384026,-0.780482,0.237774,
2,1,0,1,0,1102.94,0.23951,0.23924,0.519408,1,0.0208483,11,0.000124263,-3.28449,-0.823386,-0.0716553,-1.45365,0.23924,
2,1,0,1,0,1103.09,0.241008,0.240723,0.515961,1,0.0209282,11,0.000124204,-3.28738,-0.812896,-0.07258,-1.46807,0.240723,
2,1,0,1,0,1103.24,0.242506,0.242213,0.513011,1,0.0210075,11,0.000124258,-3.28987,-0.683923,-0.086267,-1.7394,0.242213,
2,1,0,1,0,1103.39,0.244005,0.243727,0.513038,1,0.0210868,11,0.000125041,-3.28985,-6.48227,-0.00910175,-0.181947,0.243727,
2,1,0,1,0,1103.54,0.245503,0.245231,0.513959,1,0.0211659,11,0.000126039,-3.28907,-1.0969,-0.0537878,-1.07612,0.245231,
2,1,0,1,0,1103.69,0.247001,0.246695,0.511682,1,0.0212447,11,0.000126229,-3.291,-0.935448,-0.0630714,-1.25964,0.246695,
2,1,0,1,0,1103.83,0.2485,0.248222,0.506204,1,0.0213232,11,0.000125651,-3.29567,-1.13913,-0.0517938,-1.02851,0.248222,
2,1,0,1,0,1103.98,0.249997,0.249725,0.507515,1,0.0214014,11,0.000126739,-3.29455,-1.24426,-0.0474176,-0.93916,0.249725,
2,1,0,1,0,1104.13,0.251495,0.25123,0.506792,1,0.0214795,11,0.000127321,-3.29517,-1.78221,-0.0331049,-0.653877,0.25123,
2,1,0,1,0,1104.28,0.252994,0.252711,0.504325,1,0.0215574,11,0.000127449,-3.29729,-0.699453,-0.0843516,-1.65527,0.252711,
2,1,0,1,0,1104.43,0.254492,0.254205,0.50206,1,0.021635,11,0.000127626,-3.29924,-1.14893,-0.051352,-1.01092,0.254205,
2,1,0,1,0,1104.58,0.25599,0.255732,0.501395,1,0.0217122,11,0.000128223,-3.29982,-2.0304,-0.0290584,-0.571168,0.255732,
2,1,0,1,0,1104.73,0.257488,0.257216,0.49998,1,0.0217894,11,0.000128603,-3.30105,-0.875091,-0.0674215,-1.31729,0.257216,
2,1,0,1,0,1104.88,0.258987,0.25871,0.500024,1,0.0218666,11,0.000129361,-3.30101,-1.11339,-0.0529913,-1.03069,0.25871,
2,1,0,1,0,1105.03,0.260485,0.260241,0.4981,1,0.0219433,11,0.000129626,-3.30268,-0.813837,-0.0724961,-1.40827,0.260241,
2,1,0,1,0,1105.18,0.261983,0.261704,0.497939,1,0.0220198,11,0.000130313,-3.30282,-1.12741,-0.0523322,-1.01452,0.261704,
2,1,0,1,0,1105.33,0.263481,0.26325,0.49733,1,0.0220962,11,0.000130922,-3.30336,3.56519,0.0165489,0.319581,0.26325,
2,1,0,1,0,1105.48,0.26498,0.264744,0.493953,1,0.0221725,11,0.000130771,-3.30631,-1.76197,-0.0334852,-0.645996,0.264744,
2,1,0,1,0,1105.63,0.266477,0.266194,0.492567,1,0.0222485,11,0.000131118,-3.30753,-2.31081,-0.0255322,-0.491312,0.266194,
2,1,0,1,0,1105.78,0.267976,0.267698,0.489955,1,0.0223242,11,0.00013116,-3.30984,-2.9721,-0.0198513,-0.38083,0.267698,
2,1,0,1,0,1105.93,0.269474,0.269177,0.489733,1,0.0223999,11,0.000131825,-3.31004,-4.15711,-0.0141926,-0.270507,0.269177,
2,1,0,1,0,1106.08,0.270972,0.270663,0.492817,1,0.0224755,11,0.000133387,-3.30731,-1.92565,-0.0306389,-0.585216,0.270663,
2,1,0,1,0,1106.23,0.27247,0.272199,0.488008,1,0.0225509,11,0.000132835,-3.31157,-1.26051,-0.0468064,-0.889394,0.272199,
2,1,0,1,0,1106.38,0.273968,0.273678,0.484314,1,0.0226261,11,0.000132546,-3.31487,-1.03816,-0.0568311,-1.07876,0.273678,
2,1,0,1,0,1106.53,0.275467,0.275198,0.485544,1,0.022701,11,0.000133621,-3.31377,-1.10467,-0.0534095,-1.01368,0.275198,
2,1,0,1,0,1106.68,0.276965,0.276681,0.485292,1,0.0227759,11,0.000134271,-3.314,-0.919045,-0.0641971,-1.21875,0.276681,
2,1,0,1,0,1106.83,0.278463,0.278201,0.483614,1,0.0228506,11,0.000134542,-3.3155,-0.614541,-0.0960066,-1.80899,0.278201,
2,1,0,1,0,1106.98,0.279962,0.279667,0.483981,1,0.0229253,11,0.000135353,-3.31517,-1.41309,-0.0417525,-0.789209,0.279667,
2,1,0,1,0,1107.13,0.281459,0.281191,0.481192,1,0.0229995,11,0.000135307,-3.31768,-3.7416,-0.0157687,-0.296747,0.281191,
2,1,0,1,0,1107.28,0.282957,0.282657,0.482247,1,0.0230737,11,0.000136311,-3.31673,-1.78596,-0.0330355,-0.621068,0.282657,
2,1,0,1,0,1107.43,0.284456,0.284155,0.480228,1,0.023148,11,0.000136459,-3.31855,-5.24539,-0.011248,-0.21045,0.284155,
2,1,0,1,0,1107.58,0.285954,0.285663,0.480649,1,0.023222,11,0.000137304,-3.31817,-5.67598,-0.0103947,-0.194517,0.285663,
2,1,0,1,0,1107.73,0.287452,0.287117,0.476922,1,0.0232957,11,0.000136932,-3.32155,-1.28005,-0.0460919,-0.858708,0.287117,
2,1,0,1,0,1107.88,0.28895,0.28867,0.478101,1,0.0233694,11,0.000138014,-3.32048,2.88734,0.020434,0.380963,0.28867,
2,1,0,1,0,1108.03,0.290449,0.290161,0.475365,1,0.023443,11,0.000137932,-3.32297,-1.93657,-0.0304662,-0.567002,0.290161,
2,1,0,1,0,1108.18,0.291947,0.291669,0.476891,1,0.0235164,11,0.000139095,-3.32158,-2.16622,-0.0272364,-0.508073,0.291669,
2,1,0,1,0,1108.33,0.293445,0.293207,0.472112,1,0.0235896,11,0.000138426,-3.32596,-2.08549,-0.0282907,-0.525118,0.293207,
2,1,0,1,0,1108.48,0.294943,0.294665,0.476616,1,0.0236628,11,0.000140442,-3.32183,-1.5953,-0.0369837,-0.683661,0.294665,
2,1,0,1,0,1108.63,0.296442,0.296191,0.477118,1,0.023736,11,0.000141318,-3.32137,-1.47426,-0.04002,-0.736455,0.296191,
2,1,0,1,0,1108.78,0.297939,0.297692,0.475035,1,0.023809,11,0.000141414,-3.32327,-2.60686,-0.0226326,-0.415627,0.297692,
2,1,0,1,0,1108.93,0.299437,0.29924,0.468294,1,0.0238818,11,0.000140132,-3.32948,-0.00147275,-40.0612,-283.832,0.2992397,
2,1,0,1,0,1109.01,0.299738,0.299449,0.0644225,1,0.0239123,11,1.92912e-05,-4.19096,0.00147915,39.8879,438.837,0.299449,
2,0,0,1,0,1109.16,0.29824,0.297966,-0.0558594,1,0.0239063,11,-1.66442e-05,-4.2529,0.00546419,10.7976,147.534,0.297966,
2,0,0,1,0,1109.31,0.296741,0.296453,-0.0829041,1,0.0238934,11,-2.45772e-05,-4.08142,-0.0102856,-5.7362,16.133,0.296453,
2,0,0,1,0,1109.46,0.295243,0.294897,-0.103188,1,0.0238771,11,-3.04299e-05,-3.98637,-0.0200107,-2.94842,10.9271,0.294897,
2,0,0,1,0,1109.61,0.293745,0.293483,-0.118233,1,0.0238585,11,-3.46992e-05,-3.92726,-0.0265975,-2.21825,9.75845,0.293483,
2,0,0,1,0,1109.76,0.292246,0.291967,-0.129234,1,0.023838,11,-3.77321e-05,-3.88862,-0.0381961,-1.54466,7.60041,0.291967,
2,0,0,1,0,1109.91,0.290748,0.290461,-0.141229,1,0.0238156,11,-4.10216e-05,-3.85008,-0.0442211,-1.33421,7.212,0.290461,
2,0,0,1,0,1110.06,0.28925,0.288928,-0.149943,1,0.0237917,11,-4.33228e-05,-3.82407,-0.056024,-1.05312,6.13415,0.288928,
2,0,0,1,0,1110.21,0.287752,0.287447,-0.15887,1,0.0237664,11,-4.56667e-05,-3.79896,-0.0653606,-0.902685,5.63796,0.287447,
2,0,0,1,0,1110.36,0.286253,0.285962,-0.164189,1,0.0237401,11,-4.69517e-05,-3.78466,-0.0741012,-0.796208,5.20187,0.285962,
2,0,0,1,0,1110.51,0.284755,0.28448,-0.173396,1,0.0237125,11,-4.93276e-05,-3.76096,-0.0708516,-0.832727,5.65653,0.28448,
2,0,0,1,0,1110.66,0.283258,0.28297,-0.181726,1,0.0236838,11,-5.14229e-05,-3.74058,-0.0802041,-0.735623,5.14641,0.28297,
2,0,0,1,0,1110.81,0.281759,0.2815,-0.186935,1,0.023654,11,-5.26221e-05,-3.72831,-0.100206,-0.588789,4.31317,0.2815,
2,0,0,1,0,1110.96,0.280261,0.280004,-0.189045,1,0.0236234,11,-5.29333e-05,-3.72344,-0.102428,-0.576012,4.31667,0.280004,
2,0,0,1,0,1111.11,0.278763,0.278495,-0.20056,1,0.0235919,11,-5.58549e-05,-3.69776,-0.117627,-0.501586,3.89214,0.278495,
2,0,0,1,0,1111.26,0.277264,0.276986,-0.204037,1,0.0235594,11,-5.65154e-05,-3.69029,-0.11223,-0.525705,4.18052,0.276986,
2,0,0,1,0,1111.41,0.275766,0.275466,-0.209823,1,0.0235262,11,-5.77991e-05,-3.67815,-0.18167,-0.324764,2.66263,0.275466,
2,0,0,1,0,1111.56,0.274268,0.27404,-0.214207,1,0.0234921,11,-5.87013e-05,-3.66917,-0.139361,-0.423362,3.56454,0.27404,
2,0,0,1,0,1111.71,0.27277,0.272502,-0.222058,1,0.0234574,11,-6.05113e-05,-3.65353,-0.151936,-0.388321,3.37295,0.272502,
2,0,0,1,0,1111.86,0.271272,0.27097,-0.226726,1,0.0234218,11,-6.14361e-05,-3.6445,-0.173628,-0.339806,2.97775,0.27097,
2,0,0,1,0,1112.01,0.269773,0.269481,-0.232844,1,0.0233854,11,-6.2747e-05,-3.63293,-0.176931,-0.333463,2.98944,0.269481,
2,0,0,1,0,1112.16,0.268275,0.268017,-0.2354,1,0.0233483,11,-6.30913e-05,-3.62819,-0.196064,-0.300922,2.7626,0.268017,
2,0,0,1,0,1112.31,0.266778,0.266495,-0.240822,1,0.0233108,11,-6.41779e-05,-3.6183,-0.187701,-0.31433,2.94617,0.266495,
2,0,0,1,0,1112.46,0.265279,0.265024,-0.244282,1,0.0232724,11,-6.47407e-05,-3.61211,-0.164705,-0.358216,3.4033,0.265024,
2,0,0,1,0,1112.61,0.263781,0.26351,-0.249078,1,0.0232333,11,-6.56346e-05,-3.60366,-0.212595,-0.277523,2.70236,0.26351,
2,0,0,1,0,1112.76,0.262283,0.261982,-0.251598,1,0.0231936,11,-6.59141e-05,-3.59929,-0.20844,-0.283055,2.79241,0.261982,
2,0,0,1,0,1112.91,0.260784,0.2605,-0.25536,1,0.0231534,11,-6.65212e-05,-3.59285,-0.241489,-0.244317,2.45966,0.2605,
2,0,0,1,0,1113.06,0.259286,0.258998,-0.260847,1,0.0231125,11,-6.7559e-05,-3.58361,-0.187064,-0.3154,3.20565,0.258998,
2,0,0,1,0,1113.21,0.257788,0.257539,-0.268117,1,0.0230709,11,-6.90507e-05,-3.57167,-0.261518,-0.225606,2.33929,0.257539,
2,0,0,1,0,1113.36,0.25629,0.255996,-0.269864,1,0.0230285,11,-6.9084e-05,-3.56886,-0.240709,-0.245109,2.56645,0.255996,
2,0,0,1,0,1113.51,0.254791,0.254508,-0.27062,1,0.0229858,11,-6.8875e-05,-3.56764,-0.296722,-0.198839,2.12156,0.254508,
2,0,0,1,0,1113.66,0.253293,0.253029,-0.278869,1,0.0229425,11,-7.05618e-05,-3.5546,-0.224812,-0.262442,2.84676,0.253029,
2,0,0,1,0,1113.81,0.251796,0.251485,-0.281251,1,0.0228986,11,-7.07304e-05,-3.55091,-0.24955,-0.236426,2.6023,0.251485,
2,0,0,1,0,1113.96,0.250297,0.250005,-0.283892,1,0.022854,11,-7.09743e-05,-3.54685,-0.305857,-0.192901,2.13809,0.2500048,
2,0,0,1,0,1114.11,0.248799,0.24848,-0.289377,1,0.0228089,11,-7.19043e-05,-3.53854,-0.295569,-0.199615,2.25513,0.24848,
2,0,0,1,0,1114.26,0.247301,0.246989,-0.293737,1,0.0227633,11,-7.25499e-05,-3.53204,-0.251608,-0.234492,2.68244,0.246989,
2,0,0,1,0,1114.41,0.245802,0.245522,-0.296924,1,0.022717,11,-7.29015e-05,-3.52735,-0.28517,-0.206894,2.38585,0.245522,
2,0,0,1,0,1114.56,0.244304,0.24402,-0.301045,1,0.0226699,11,-7.34609e-05,-3.52137,-0.362226,-0.162882,1.90608,0.2440199,
2,0,0,1,0,1114.71,0.242806,0.242498,-0.30469,1,0.0226225,11,-7.38868e-05,-3.51614,-0.320723,-0.183959,2.19463,0.242498,
2,0,0,1,0,1114.86,0.241308,0.24103,-0.309226,1,0.0225746,11,-7.45327e-05,-3.50972,-0.3091,-0.190877,2.30572,0.24103,
2,0,0,1,0,1115.01,0.23981,0.239472,-0.311604,1,0.022526,11,-7.46203e-05,-3.5064,-0.197004,-0.299486,3.64329,0.239472,
2,0,0,1,0,1115.16,0.238311,0.238071,-0.316275,1,0.0224768,11,-7.52961e-05,-3.49993,-0.255105,-0.231278,2.8589,0.238071,
2,0,0,1,0,1115.31,0.236814,0.236534,-0.319621,1,0.022427,11,-7.56011e-05,-3.49536,-0.305917,-0.192863,2.4063,0.236534,
2,0,0,1,0,1115.46,0.235316,0.235013,-0.32212,1,0.0223767,11,-7.57023e-05,-3.49198,-0.211272,-0.279261,3.53039,0.2350127,
2,0,0,1,0,1115.61,0.233817,0.23352,-0.32747,1,0.0223259,11,-7.64706e-05,-3.48483,-0.284838,-0.207135,2.64571,0.23352,
2,0,0,1,0,1115.76,0.232319,0.232053,-0.334279,1,0.0222742,11,-7.75705e-05,-3.47589,-0.260643,-0.226363,2.9322,0.232053,
2,0,0,1,0,1115.91,0.230821,0.230537,-0.334797,1,0.022222,11,-7.71829e-05,-3.47522,-0.337972,-0.174571,2.27554,0.230537,
2,0,0,1,0,1116.06,0.229322,0.22904,-0.338557,1,0.0221692,11,-7.7543e-05,-3.47037,-0.260355,-0.226613,3.00798,0.22904,
2,0,0,1,0,1116.21,0.227824,0.227569,-0.341481,1,0.022116,11,-7.77104e-05,-3.46663,-0.264699,-0.222895,3.004,0.227569,
2,0,0,1,0,1116.36,0.226326,0.226033,-0.346528,1,0.0220619,11,-7.83269e-05,-3.46026,-0.349914,-0.168613,2.30547,0.226033,
2,0,0,1,0,1116.51,0.224828,0.224483,-0.353623,1,0.0220071,11,-7.93823e-05,-3.45146,-0.468764,-0.125863,1.72626,0.224483,
2,0,0,1,0,1116.65,0.223329,0.223035,-0.359419,1,0.0219517,11,-8.01629e-05,-3.4444,-0.300097,-0.196603,2.74161,0.223035,
2,0,0,1,0,1116.8,0.221831,0.221554,-0.363955,1,0.0218958,11,-8.06357e-05,-3.43895,-0.243176,-0.242622,3.41358,0.221554,
2,0,0,1,0,1116.95,0.220334,0.220087,-0.368605,1,0.0218391,11,-8.11253e-05,-3.43344,-0.22953,-0.257047,3.68765,0.220087,
2,0,0,1,0,1117.1,0.218835,0.218582,-0.371451,1,0.0217815,11,-8.11925e-05,-3.4301,-0.262416,-0.224834,3.25962,0.218582,
2,0,0,1,0,1117.25,0.217337,0.217044,-0.377826,1,0.0217232,11,-8.2005e-05,-3.42271,-0.269269,-0.219112,3.24926,0.2170442,
2,0,0,1,0,1117.4,0.215839,0.215585,-0.378549,1,0.0216645,11,-8.16095e-05,-3.42188,-0.262502,-0.22476,3.34943,0.2155851,
2,0,0,1,0,1117.55,0.21434,0.214013,-0.386368,1,0.0216048,11,-8.26876e-05,-3.413,-0.200945,-0.293613,4.41797,0.214013,
2,0,0,1,0,1117.7,0.212842,0.21254,-0.391775,1,0.0215442,11,-8.32677e-05,-3.40696,-0.226248,-0.260775,3.99456,0.21254,
2,0,0,1,0,1117.85,0.211344,0.211104,-0.398374,1,0.0214828,11,-8.40983e-05,-3.39971,-0.310655,-0.189921,2.96579,0.211104,
2,0,0,1,0,1118,0.209846,0.209547,-0.399101,1,0.0214207,11,-8.36304e-05,-3.39892,-0.27092,-0.217776,3.43159,0.209547,
2,0,0,1,0,1118.15,0.208348,0.208066,-0.411929,1,0.0213577,11,-8.57084e-05,-3.38518,-0.197764,-0.298335,4.79965,0.208066,
2,0,0,1,0,1118.3,0.206849,0.206596,-0.424075,1,0.0212934,11,-8.76123e-05,-3.37256,-0.250312,-0.235706,3.83194,0.206596,
2,0,0,1,0,1118.45,0.205352,0.205036,-0.426551,1,0.021228,11,-8.74583e-05,-3.37003,-0.241135,-0.244677,4.04405,0.205036,
2,0,0,1,0,1118.6,0.203854,0.203505,-0.426765,1,0.021162,11,-8.68488e-05,-3.36981,-0.210043,-0.280895,4.72267,0.203505,
2,0,0,1,0,1118.75,0.202355,0.202089,-0.437318,1,0.0210949,11,-8.83772e-05,-3.3592,-0.198861,-0.29669,5.08834,0.202089,
2,0,0,1,0,1118.9,0.200857,0.200546,-0.444903,1,0.0210266,11,-8.92237e-05,-3.35173,-0.217749,-0.270955,4.72623,0.200546,
2,0,0,1,0,1119.05,0.199359,0.199074,-0.45492,1,0.0209572,11,-9.05625e-05,-3.34206,-0.216083,-0.273043,4.83464,0.199074,
2,0,0,1,0,1119.2,0.19786,0.197532,-0.462022,1,0.0208865,11,-9.1264e-05,-3.33534,-0.188319,-0.313298,5.62576,0.197532,
2,0,0,1,0,1119.35,0.196362,0.196081,-0.472821,1,0.0208147,11,-9.27113e-05,-3.3253,-0.16705,-0.353187,6.50287,0.196081,
2,0,0,1,0,1119.5,0.194864,0.194529,-0.480824,1,0.0207414,11,-9.3534e-05,-3.31801,-0.177814,-0.331808,6.19824,0.194529,
2,0,0,1,0,1119.65,0.193366,0.193049,-0.492375,1,0.0206662,11,-9.50528e-05,-3.3077,-0.167055,-0.353177,6.77875,0.193049,
2,0,0,1,0,1119.8,0.191867,0.191566,-0.502549,1,0.0205897,11,-9.62712e-05,-3.29882,-0.201852,-0.292294,5.7449,0.191566,
2,0,0,1,0,1119.95,0.190369,0.190045,-0.511421,1,0.0205119,11,-9.71931e-05,-3.29122,-0.164562,-0.358528,7.19385,0.190045,
2,0,0,1,0,1120.1,0.188872,0.18855,-0.525352,1,0.0204321,11,-9.90553e-05,-3.27955,-0.117099,-0.503849,10.3154,0.18855,
2,0,0,1,0,1120.25,0.187373,0.187097,-0.538993,1,0.0203502,11,-0.000100844,-3.26842,-0.136576,-0.431993,9.08505,0.187097,
2,0,0,1,0,1120.4,0.185875,0.185572,-0.552308,1,0.0202665,11,-0.000102493,-3.25782,-0.130159,-0.453293,9.75767,0.1855724,
2,0,0,1,0,1120.55,0.184377,0.184071,-0.561325,1,0.0201807,11,-0.000103324,-3.25079,-0.123694,-0.476984,10.5259,0.184071,
2,0,0,1,0,1120.7,0.182878,0.182559,-0.584153,1,0.0200926,11,-0.000106642,-3.23347,-0.118364,-0.49846,11.3786,0.182559,
2,0,0,1,0,1120.85,0.18138,0.181077,-0.601372,1,0.0200019,11,-0.000108895,-3.22086,-0.117458,-0.502308,11.7898,0.181077,
2,0,0,1,0,1121,0.179882,0.179569,-0.616862,1,0.0199084,11,-0.00011077,-3.20981,-0.134629,-0.43824,10.5735,0.179569,
2,0,0,1,0,1121.15,0.178384,0.178092,-0.638162,1,0.0198122,11,-0.000113652,-3.19507,-0.107181,-0.55047,13.7666,0.1780923,
2,0,0,1,0,1121.3,0.176886,0.176568,-0.661234,1,0.0197131,11,-0.000116753,-3.17965,-0.10198,-0.578545,14.9589,0.176568,
2,0,0,1,0,1121.45,0.175387,0.175066,-0.686787,1,0.0196104,11,-0.000120233,-3.16318,-0.0978477,-0.602978,16.1215,0.175066,
2,0,0,1,0,1121.6,0.17389,0.173553,-0.711602,1,0.019504,11,-0.000123501,-3.14776,-0.087658,-0.67307,18.6277,0.173553,
2,0,0,1,0,1121.75,0.172392,0.172091,-0.740115,1,0.0193935,11,-0.000127367,-3.1307,-0.0837481,-0.704494,20.3256,0.172091,
2,0,0,1,0,1121.9,0.170893,0.17061,-0.767186,1,0.019279,11,-0.00013089,-3.1151,-0.080341,-0.73437,22.0856,0.17061,
2,0,0,1,0,1122.05,0.169395,0.169116,-0.800311,1,0.0191595,11,-0.000135345,-3.09674,-0.0726533,-0.812076,25.3675,0.169116,
2,0,0,1,0,1122.2,0.167897,0.167612,-0.839487,1,0.0190343,11,-0.000140708,-3.07599,-0.0758819,-0.777524,25.5466,0.167612,
2,0,0,1,0,1122.35,0.166398,0.166098,-0.877786,1,0.0189036,11,-0.000145799,-3.05661,-0.0775541,-0.760759,26.1935,0.166098,
2,0,0,1,0,1122.5,0.1649,0.164612,-0.918659,1,0.0187667,11,-0.000151223,-3.03685,-0.0694168,-0.849938,30.7064,0.164612,
2,0,0,1,0,1122.65,0.163402,0.163091,-0.971981,1,0.0186231,11,-0.000158521,-3.01234,-0.0677078,-0.871391,33.045,0.163091,
2,0,0,1,0,1122.8,0.161904,0.161601,-1.024,1,0.0184716,11,-0.00016548,-2.9897,-0.0650268,-0.907318,36.2698,0.161601,
2,0,0,1,0,1122.95,0.160405,0.160067,-1.08338,1,0.018312,11,-0.000173413,-2.96522,-0.0665843,-0.886094,37.2761,0.160067,
2,0,0,1,0,1123.1,0.158907,0.158616,-1.13644,1,0.0181437,11,-0.000180257,-2.94445,-0.0630621,-0.935586,41.6332,0.158616,
2,0,0,1,0,1123.25,0.15741,0.157137,-1.20115,1,0.0179666,11,-0.000188745,-2.9204,-0.0624535,-0.944702,44.4997,0.157137,
2,0,0,1,0,1123.4,0.155911,0.155628,-1.26783,1,0.0177792,11,-0.000197309,-2.89694,-0.0660044,-0.89388,44.2846,0.155628,
2,0,0,1,0,1123.55,0.154413,0.154106,-1.33635,1,0.0175816,11,-0.00020594,-2.87408,-0.070236,-0.840025,43.666,0.1541059,
2,0,0,1,0,1123.7,0.152915,0.152604,-1.40552,1,0.017374,11,-0.000214489,-2.85216,-0.0703827,-0.838275,45.9252,0.152604,
2,0,0,1,0,1123.85,0.151417,0.151112,-1.4733,1,0.0171568,11,-0.000222634,-2.83171,-0.0762159,-0.774117,44.4013,0.151112,
2,0,0,1,0,1124,0.149918,0.149597,-1.54157,1,0.0169288,11,-0.000230614,-2.81204,-0.0777579,-0.758766,45.4332,0.149597,
2,0,0,1,0,1124.15,0.14842,0.148166,-1.60603,1,0.016691,11,-0.000237959,-2.79425,-0.087769,-0.672219,41.9621,0.148166,
2,0,0,1,0,1124.3,0.146922,0.146649,-1.66673,1,0.0164437,11,-0.000244425,-2.77813,-0.101027,-0.584004,37.8152,0.146649,
2,0,0,1,0,1124.45,0.145424,0.145125,-1.71615,1,0.0161884,11,-0.000249056,-2.76545,-0.110191,-0.535434,35.855,0.145125,
2,0,0,1,0,1124.6,0.143925,0.143649,-1.76799,1,0.015925,11,-0.00025397,-2.75252,-0.1202,-0.490849,33.7892,0.143649,
2,0,0,1,0,1124.75,0.142428,0.142116,-1.81924,1,0.0156539,11,-0.000258543,-2.74011,-0.147582,-0.399777,28.1879,0.142116,
2,0,0,1,0,1124.89,0.14093,0.140639,-1.85185,1,0.0153767,11,-0.000260441,-2.7324,-0.202254,-0.291712,21.0089,0.140639,
2,0,0,1,0,1125.04,0.139431,0.13913,-1.87165,1,0.0150949,11,-0.000260403,-2.72777,-0.260645,-0.226361,16.5717,0.13913,
2,0,0,1,0,1125.19,0.137933,0.137618,-1.90358,1,0.0148097,11,-0.000261966,-2.72043,-0.388988,-0.151675,11.2187,0.137618,
2,0,0,1,0,1125.34,0.136435,0.136138,-1.91903,1,0.0145213,11,-0.000261253,-2.71692,-0.60314,-0.0978214,7.28858,0.136138,
2,0,0,1,0,1125.49,0.134936,0.134628,-1.9274,1,0.0142313,11,-0.000259483,-2.71503,10.2725,0.00574347,-0.428606,0.134628,
2,0,0,1,0,1125.64,0.133438,0.133176,-1.91781,1,0.013941,11,-0.000255405,-2.71719,0.831635,0.0709446,-5.30596,0.133176,
2,0,0,1,0,1125.79,0.13194,0.131649,-1.91059,1,0.0136524,11,-0.000251526,-2.71883,0.511202,0.115414,-8.60218,0.131649,
2,0,0,1,0,1125.94,0.130442,0.130106,-1.8936,1,0.0133653,11,-0.000246369,-2.72271,0.32583,0.181076,-13.322,0.130106,
2,0,0,1,0,1126.09,0.128943,0.128634,-1.86796,1,0.013081,11,-0.000240284,-2.72863,0.202072,0.291975,-21.1756,0.128634,
2,0,0,1,0,1126.24,0.127445,0.127128,-1.83468,1,0.0128018,11,-0.000233239,-2.73644,0.166156,0.355088,-25.2964,0.127128,
2,0,0,1,0,1126.39,0.125948,0.12567,-1.79146,1,0.0125289,11,-0.000225134,-2.74679,0.143369,0.411525,-28.6754,0.12567,
2,0,0,1,0,1126.54,0.124449,0.124116,-1.74635,1,0.0122619,11,-0.000216749,-2.75787,0.137559,0.428906,-29.1025,0.1241155,
2,0,0,1,0,1126.69,0.122951,0.122626,-1.69771,1,0.012002,11,-0.000208183,-2.77014,0.11982,0.492404,-32.5448,0.122626,
2,0,0,1,0,1126.84,0.121453,0.121158,-1.64328,1,0.0117496,11,-0.000199096,-2.78429,0.107445,0.549119,-35.2055,0.121158,
2,0,0,1,0,1126.99,0.119955,0.119689,-1.58656,1,0.0115055,11,-0.000189895,-2.79954,0.103076,0.572392,-35.6068,0.119689,
2,0,0,1,0,1127.14,0.118456,0.118161,-1.53988,1,0.011269,11,-0.000181954,-2.81251,0.111019,0.53144,-31.9399,0.118161,
2,0,0,1,0,1127.29,0.116958,0.116638,-1.49735,1,0.0110395,11,-0.000174648,-2.82468,0.105058,0.561595,-32.7085,0.116638,
2,0,0,1,0,1127.44,0.11546,0.115129,-1.44469,1,0.0108176,11,-0.000166325,-2.84023,0.0987364,0.597551,-33.6703,0.115129,
2,0,0,1,0,1127.59,0.113962,0.11367,-1.39302,1,0.010603,11,-0.000158345,-2.85604,0.1087,0.542781,-29.6181,0.11367,
2,0,0,1,0,1127.74,0.112463,0.112177,-1.35468,1,0.010395,11,-0.000151963,-2.86816,0.116732,0.505431,-26.7808,0.112177,
2,0,0,1,0,1127.89,0.110966,0.11064,-1.31675,1,0.010193,11,-0.000145686,-2.8805,0.121305,0.486379,-25.0476,0.11064,
2,0,0,1,0,1128.04,0.109468,0.109176,-1.28018,1,0.00999636,11,-0.000139765,-2.89273,0.1192,0.494968,-24.7252,0.109176,
2,0,0,1,0,1128.19,0.107969,0.107668,-1.24718,1,0.00980466,11,-0.000134281,-2.90407,0.139476,0.423013,-20.6636,0.107668,
2,0,0,1,0,1128.34,0.106471,0.106172,-1.21921,1,0.00961833,11,-0.000129446,-2.91392,0.158999,0.371071,-17.7343,0.106172,
2,0,0,1,0,1128.49,0.104973,0.104685,-1.19423,1,0.00943561,11,-0.000125017,-2.92291,0.170097,0.34686,-16.1599,0.104685,
2,0,0,1,0,1128.64,0.103474,0.103176,-1.17009,1,0.00925632,11,-0.000120724,-2.93178,0.164675,0.358281,-16.3524,0.103176,
2,0,0,1,0,1128.79,0.101976,0.101638,-1.14806,1,0.00908077,11,-0.000116686,-2.94004,0.174693,0.337735,-15.1349,0.101638,
2,0,0,1,0,1128.94,0.100478,0.100184,-1.12529,1,0.00890897,11,-0.000112736,-2.94873,0.195087,0.302429,-13.3135,0.100184,
2,0,0,1,0,1129.09,0.0989798,0.0987135,-1.11028,1,0.00873956,11,-0.000109599,-2.95457,0.264765,0.222839,-9.61098,0.0987135,
2,0,0,1,0,1129.24,0.0974808,0.0971803,-1.09288,1,0.00857268,11,-0.000106206,-2.96143,0.240252,0.245575,-10.4853,0.0971803,
2,0,0,1,0,1129.39,0.0959833,0.0956531,-1.07402,1,0.00840846,11,-0.000102733,-2.96899,0.234387,0.251721,-10.5696,0.0956531,
2,0,0,1,0,1129.54,0.0944857,0.0941764,-1.0564,1,0.00824676,11,-9.94879e-05,-2.97617,0.266343,0.221519,-9.1786,0.0941764,
2,0,0,1,0,1129.69,0.0929871,0.092684,-1.04463,1,0.00808712,11,-9.68208e-05,-2.98104,0.345104,0.170963,-6.9802,0.092684,
2,0,0,1,0,1129.84,0.0914889,0.0911771,-1.03604,1,0.00792923,11,-9.4463e-05,-2.98462,0.267255,0.220763,-8.8811,0.0911771,
2,0,0,1,0,1129.99,0.0899907,0.0896682,-1.02196,1,0.00777333,11,-9.16377e-05,-2.99056,0.23761,0.248306,-9.85883,0.0896682,
2,0,0,1,0,1130.14,0.0884925,0.0882101,-1.00115,1,0.00761968,11,-8.83118e-05,-2.9995,0.290024,0.203431,-7.98329,0.0882101,
2,0,0,1,0,1130.29,0.0869943,0.0867001,-0.992584,1,0.00746821,11,-8.60572e-05,-3.00323,0.254628,0.231711,-8.9833,0.0867001,
2,0,0,1,0,1130.44,0.0854961,0.0851795,-0.980257,1,0.00731818,11,-8.34978e-05,-3.00866,0.245965,0.239871,-9.18995,0.0851795,
2,0,0,1,0,1130.59,0.083998,0.0836875,-0.968155,1,0.00717008,11,-8.10225e-05,-3.01406,0.218369,0.270185,-10.1982,0.0836875,
2,0,0,1,0,1130.74,0.0824998,0.0821955,-0.957375,1,0.0070238,11,-7.86919e-05,-3.01892,0.248536,0.23739,-8.87918,0.0821955,
2,0,0,1,0,1130.89,0.0810011,0.0807324,-0.943958,1,0.00687962,11,-7.62079e-05,-3.02505,0.291963,0.20208,-7.46177,0.0807324,
2,0,0,1,0,1131.04,0.0795036,0.0792096,-0.933824,1,0.00673702,11,-7.39678e-05,-3.02974,0.289168,0.204034,-7.42308,0.0792096,
2,0,0,1,0,1131.19,0.0780061,0.0776703,-0.919988,1,0.00659607,11,-7.14557e-05,-3.03622,0.272027,0.216891,-7.78083,0.0776703,
2,0,0,1,0,1131.34,0.076507,0.0761851,-0.908116,1,0.00645686,11,-6.91849e-05,-3.04186,0.264219,0.2233,-7.91509,0.0761851,
2,0,0,1,0,1131.49,0.0750088,0.0746783,-0.894173,1,0.00631997,11,-6.67753e-05,-3.04858,0.267972,0.220172,-7.69417,0.0746783,
2,0,0,1,0,1131.64,0.0735106,0.0732086,-0.882218,1,0.00618454,11,-6.45859e-05,-3.05442,0.287463,0.205244,-7.07264,0.0732086,
2,0,0,1,0,1131.79,0.0720124,0.0717049,-0.873054,1,0.00605071,11,-6.26023e-05,-3.05896,0.273627,0.215622,-7.35491,0.0717049,
2,0,0,1,0,1131.94,0.0705142,0.0702543,-0.863906,1,0.00591852,11,-6.06931e-05,-3.06353,0.241637,0.244167,-8.23305,0.0702543,
2,0,0,1,0,1132.09,0.069016,0.0687071,-0.848161,1,0.00578822,11,-5.82747e-05,-3.07152,0.266592,0.221312,-7.36685,0.0687071,
2,0,0,1,0,1132.24,0.0675179,0.0672067,-0.842903,1,0.00565945,11,-5.66487e-05,-3.07422,0.307157,0.192084,-6.30217,0.0672067,
2,0,0,1,0,1132.39,0.0660188,0.0656819,-0.838689,1,0.00553186,11,-5.50866e-05,-3.0764,0.301664,0.195582,-6.33758,0.0656819,
2,0,0,1,0,1132.54,0.0645213,0.0642045,-0.823437,1,0.00540567,11,-5.28684e-05,-3.08437,0.287973,0.20488,-6.57304,0.0642045,
2,0,0,1,0,1132.69,0.0630237,0.0627056,-0.810072,1,0.00528118,11,-5.0796e-05,-3.09148,0.344681,0.171173,-5.44348,0.0627056,
2,0,0,1,0,1132.84,0.0615251,0.0612408,-0.805567,1,0.00515795,11,-4.93336e-05,-3.0939,0.41347,0.142695,-4.49593,0.0612408,
2,0,0,1,0,1132.99,0.0600269,0.0597213,-0.797214,1,0.00503582,11,-4.76106e-05,-3.09843,0.367828,0.160401,-4.99606,0.0597213,
2,0,0,1,0,1133.14,0.0585287,0.0582377,-0.788848,1,0.00491472,11,-4.59407e-05,-3.10301,0.297413,0.198377,-6.10353,0.0582377,
2,0,0,1,0,1133.28,0.0570305,0.0567033,-0.783969,1,0.00479477,11,-4.44537e-05,-3.1057,0.380496,0.155061,-4.73801,0.0567033,
2,0,0,1,0,1133.43,0.0555323,0.0552336,-0.779345,1,0.0046761,11,-4.3046e-05,-3.10827,0.438223,0.134635,-4.0953,0.0552336,
2,0,0,1,0,1133.58,0.0540341,0.0537565,-0.772877,1,0.00455807,11,-4.15471e-05,-3.11189,0.456155,0.129342,-3.89117,0.0537565,
2,0,0,1,0,1133.73,0.052536,0.0522443,-0.769036,1,0.00444055,11,-4.01778e-05,-3.11405,0.44938,0.131292,-3.93369,0.0522443,
2,0,0,1,0,1133.88,0.0510378,0.0507375,-0.764258,1,0.00432403,11,-3.87765e-05,-3.11676,0.440374,0.133977,-3.98952,0.0507375,
2,0,0,1,0,1134.03,0.0495391,0.049256,-0.757505,1,0.0042084,11,-3.73117e-05,-3.12061,0.742926,0.0794158,-2.35255,0.049256,
2,0,0,1,0,1134.18,0.0480416,0.0477682,-0.752661,1,0.00409325,11,-3.59532e-05,-3.1234,-15.1969,-0.00388236,0.114022,0.0477682,
2,0,0,1,0,1134.33,0.0465441,0.0462488,-0.75028,1,0.00397845,11,-3.46996e-05,-3.12478,1.03521,0.056993,-1.6723,0.0462488,
2,0,0,1,0,1134.48,0.045045,0.0447462,-0.746723,1,0.003864,11,-3.3413e-05,-3.12684,1.2314,0.047913,-1.40013,0.04474619,
2,0,0,1,0,1134.63,0.0435468,0.0432797,-0.741892,1,0.00375027,11,-3.21088e-05,-3.12966,0.902706,0.065359,-1.89957,0.0432797,
2,0,0,1,0,1134.78,0.0420486,0.0417293,-0.743446,1,0.00363673,11,-3.10235e-05,-3.12875,4.20974,0.0140151,-0.406494,0.0417293,
2,0,0,1,0,1134.93,0.0405504,0.0402511,-0.74392,1,0.00352333,11,-2.99436e-05,-3.12847,1.42096,0.0415214,-1.20027,0.0402511,
2,0,0,1,0,1135.08,0.0390523,0.0387432,-0.740791,1,0.00340996,11,-2.87006e-05,-3.1303,0.728374,0.0810024,-2.3385,0.0387432,
2,0,0,1,0,1135.23,0.0375541,0.0372481,-0.737904,1,0.00329705,11,-2.74855e-05,-3.132,1.95583,0.0301662,-0.873334,0.0372481,
2,0,0,1,0,1135.38,0.0360559,0.0357444,-0.73816,1,0.00318448,11,-2.63851e-05,-3.13185,3.75456,0.0157142,-0.454346,0.0357444,
2,0,0,1,0,1135.53,0.0345568,0.0342473,-0.73766,1,0.00307159,11,-2.52629e-05,-3.13214,-3.14974,-0.0187317,0.54081,0.0342473,
2,0,0,1,0,1135.68,0.0330593,0.0327145,-0.739738,1,0.00295869,11,-2.42002e-05,-3.13092,5.49735,0.0107324,-0.30931,0.0327145,
2,0,0,1,0,1135.83,0.0315618,0.0312316,-0.741072,1,0.00284577,11,-2.31449e-05,-3.13014,-1.63845,-0.0360096,1.04065,0.0312316,
2,0,0,1,0,1135.98,0.0300631,0.0297637,-0.740127,1,0.00273299,11,-2.20289e-05,-3.13069,-4.08456,-0.0144446,0.41748,0.02976371,
2,0,0,1,0,1136.13,0.0285649,0.0282834,-0.74164,1,0.00261996,11,-2.09761e-05,-3.12981,-1.05294,-0.0560333,1.62002,0.02828338,
2,0,0,1,0,1136.28,0.0270667,0.0267765,-0.743764,1,0.00250649,11,-1.99154e-05,-3.12856,-1.52952,-0.0385742,1.11688,0.0267765,
2,0,0,1,0,1136.43,0.0255685,0.0252771,-0.74427,1,0.00239294,11,-1.8813e-05,-3.12827,-25.1556,-0.0023454,0.0682043,0.0252771,
2,0,0,1,0,1136.58,0.0240704,0.0237851,-0.744852,1,0.00227944,11,-1.77164e-05,-3.12793,-1.17435,-0.0502407,1.46683,0.0237851,
2,0,0,1,0,1136.73,0.0225722,0.0222582,-0.746228,1,0.00216563,11,-1.66097e-05,-3.12713,-0.729543,-0.0808726,2.35766,0.0222582,
2,0,0,1,0,1136.88,0.021074,0.0207651,-0.750489,1,0.00205122,11,-1.5584e-05,-3.12466,-1.21562,-0.0485348,1.42266,0.0207651,
2,0,0,1,0,1137.03,0.0195758,0.0192774,-0.75337,1,0.0019366,11,-1.4523e-05,-3.12299,-1.36303,-0.0432861,1.27239,0.0192774,
2,0,0,1,0,1137.18,0.0180771,0.0177637,-0.751726,1,0.00182166,11,-1.33534e-05,-3.12394,-0.844572,-0.0698579,2.05726,0.0177637,
2,0,0,1,0,1137.33,0.0165796,0.0163021,-0.759092,1,0.00170645,11,-1.23748e-05,-3.11971,-0.61135,-0.0965078,2.85468,0.0163021,
2,0,0,1,0,1137.48,0.0150821,0.0147822,-0.764321,1,0.00159043,11,-1.12983e-05,-3.11672,-0.626169,-0.0942238,2.79718,0.0147822,
2,0,0,1,0,1137.63,0.013583,0.0132574,-0.764154,1,0.00147389,11,-1.01307e-05,-3.11682,-1.50392,-0.0392308,1.1682,0.0132574,
2,0,0,1,0,1137.78,0.0120848,0.0117654,-0.767195,1,0.00135704,11,-9.02638e-06,-3.11509,-0.748627,-0.078811,2.36458,0.0117654,
2,0,0,1,0,1137.93,0.0105866,0.010265,-0.769594,1,0.00123992,11,-7.89985e-06,-3.11374,-0.568166,-0.103843,3.12627,0.010265,
2,0,0,1,0,1138.08,0.00908845,0.00878145,-0.77316,1,0.00112204,11,-6.78946e-06,-3.11173,-0.782408,-0.0754083,2.28595,0.00878145,
2,0,0,1,0,1138.23,0.00759027,0.00730218,-0.777957,1,0.00100357,11,-5.68078e-06,-3.10904,-1.68837,-0.0349449,1.05843,0.00730218,
2,0,0,1,0,1138.38,0.00609208,0.00577095,-0.786576,1,0.000884443,11,-4.5393e-06,-3.10426,-0.888528,-0.066402,2.02817,0.00577095,
2,0,0,1,0,1138.53,0.00459389,0.00428744,-0.786394,1,0.000765241,11,-3.37162e-06,-3.10436,-0.74725,-0.0789561,2.42409,0.00428744,
2,0,0,1,0,1138.68,0.0030948,0.00277577,-0.794727,1,0.00064488,11,-2.20598e-06,-3.09978,-0.412445,-0.143049,4.4153,0.00277577,
2,0,0,1,0,1138.83,0.00159728,0.0012461,-0.801843,1,0.000521814,11,-9.99176e-07,-3.09591, , , ,0.0012461,
2,0,0,1,0,1138.97,0.000199195,-0.000157355,-0.800073,1,0.000408016,11,1.25896e-07,-3.09687, , , ,-0.000157355,