File: Figure_codes/Fig_3-5/rawdata_trumpetplot_data/before 10th/20221101_1-115_002_TrumpetPlot_ParaChange_08_CV_C01_2.csv
mode,ox/red,error,control changes,counter inc.,time/s,control/V,Ewe/V,<I>/mA,cycle number,(Q-Qo)/C,I Range,P/W,log(|I|),Tafel slope mV/dec,alpha_eff,dI/d(E-IR),E-IR/V,
2,0,0,0,0,3632.45,2.44065e-05,-0.000344411,-2.26478,3,0.0000000E+000,11,7.80016e-07,-2.64497, , , ,-0.000344411,
2,0,0,1,0,3632.48,0.00129787,0.000972955,0.239382,3,-2.40202e-05,11,2.32908e-07,-3.62091, , , ,0.000972955,
2,1,0,1,0,3632.52,0.00279427,0.00248426,1.22593,3,7.00768e-06,11,3.04554e-06,-2.91153,0.00747472,7.89327,485.134,0.00248426,
2,1,0,1,0,3632.55,0.00429425,0.0040013,1.48531,3,5.90169e-05,11,5.94316e-06,-2.82818,0.0204356,2.88713,145.821,0.0040013,
2,1,0,1,0,3632.59,0.00579422,0.00549938,1.58291,3,0.000117183,11,8.70504e-06,-2.80054,0.0638052,0.92469,55.4666,0.005499376,
2,1,0,1,0,3632.63,0.00729063,0.00704221,1.63869,3,0.000177687,11,1.154e-05,-2.7855,0.129141,0.456865,28.91,0.00704221,
2,1,0,1,0,3632.67,0.00878703,0.00848023,1.67676,3,0.000239807,11,1.42193e-05,-2.77553,0.190716,0.309361,20.046,0.00848023,
2,1,0,1,0,3632.7,0.010287,0.0100162,1.7007,3,0.000303249,11,1.70344e-05,-2.76937,0.276416,0.213446,14.059,0.0100162,
2,1,0,1,0,3632.74,0.011787,0.0115366,1.72085,3,0.000367532,11,1.98527e-05,-2.76426,0.274449,0.214976,14.4336,0.0115366,
2,1,0,1,0,3632.78,0.0132825,0.0130172,1.73921,3,0.000432296,11,2.26397e-05,-2.75965,0.251819,0.234296,15.9932,0.0130172,
2,1,0,1,0,3632.82,0.014778,0.0145258,1.75986,3,0.000497987,11,2.55634e-05,-2.75452,0.293145,0.201266,13.8445,0.0145258,
2,1,0,1,0,3632.85,0.0162816,0.0160574,1.77684,3,0.000564957,11,2.85313e-05,-2.75035,0.367998,0.160327,11.1317,0.0160574,
2,1,0,1,0,3632.89,0.017778,0.0174908,1.79323,3,0.000632031,11,3.1365e-05,-2.74636,0.496898,0.118737,8.32337,0.0174908,
2,1,0,1,0,3632.93,0.0192744,0.0189467,1.80866,3,0.000699463,11,3.42681e-05,-2.74264,0.538574,0.109549,7.72249,0.0189467,
2,1,0,1,0,3632.97,0.0207743,0.0204911,1.83039,3,0.000767738,11,3.75067e-05,-2.73746,0.380839,0.154921,10.9741,0.0204911,
2,1,0,1,0,3633,0.0222743,0.0220447,1.84232,3,0.000836614,11,4.06134e-05,-2.73463,0.449939,0.131129,9.38233,0.0220447,
2,1,0,1,0,3633.04,0.0237707,0.0234938,1.8528,3,0.000905817,11,4.35294e-05,-2.73217,0.577816,0.102109,7.37603,0.0234938,
2,1,0,1,0,3633.08,0.0252671,0.025024,1.85205,3,0.000975348,11,4.63456e-05,-2.73235,0.567082,0.104041,7.58165,0.025024,
2,1,0,1,0,3633.11,0.0267671,0.026482,1.87374,3,0.00104557,11,4.96204e-05,-2.72729,0.400254,0.147406,10.8099,0.026482,
2,1,0,1,0,3633.15,0.0282671,0.0280313,1.89119,3,0.00111636,11,5.30124e-05,-2.72327,0.437728,0.134787,9.95938,0.0280313,
2,1,0,1,0,3633.19,0.0297626,0.0294649,1.90546,3,0.00118755,11,5.61442e-05,-2.72,0.528993,0.111533,8.27413,0.0294649,
2,1,0,1,0,3633.23,0.0312581,0.0309256,1.90908,3,0.00125913,11,5.90394e-05,-2.71918,0.519703,0.113526,8.47567,0.0309256,
2,1,0,1,0,3633.26,0.0327616,0.0324617,1.92929,3,0.00133144,11,6.26282e-05,-2.7146,0.436331,0.135219,10.1665,0.0324617,
2,1,0,1,0,3633.3,0.034258,0.0339771,1.94745,3,0.00140401,11,6.61689e-05,-2.71053,0.414645,0.14229,10.776,0.03397714,
2,1,0,1,0,3633.34,0.0357545,0.0354753,1.96017,3,0.00147724,11,6.95376e-05,-2.70771,0.563614,0.104682,7.98698,0.0354753,
2,1,0,1,0,3633.38,0.0372544,0.0370029,1.96715,3,0.00155117,11,7.27904e-05,-2.70616,0.501282,0.117698,9.08318,0.03700294,
2,1,0,1,0,3633.41,0.0387544,0.0384131,1.98392,3,0.00162549,11,7.62085e-05,-2.70248,0.391409,0.150737,11.7576,0.03841307,
2,1,0,1,0,3633.45,0.0402508,0.0399914,2.00711,3,0.00170036,11,8.0267e-05,-2.69743,0.324954,0.181564,14.2553,0.0399914,
2,1,0,1,0,3633.49,0.0417472,0.0414718,2.03203,3,0.00177615,11,8.42719e-05,-2.69207,0.351863,0.167679,13.252,0.0414718,
2,1,0,1,0,3633.53,0.0432472,0.0429672,2.05472,3,0.00185278,11,8.82857e-05,-2.68725,0.411844,0.143258,11.4354,0.0429672,
2,1,0,1,0,3633.56,0.0447472,0.0444946,2.06589,3,0.00192998,11,9.1921e-05,-2.68489,0.322115,0.183165,14.7441,0.0444946,
2,1,0,1,0,3633.6,0.0462427,0.0459972,2.09279,3,0.00200784,11,9.62627e-05,-2.67927,0.274198,0.215173,17.523,0.0459972,
2,1,0,1,0,3633.64,0.0477382,0.0474466,2.11193,3,0.00208664,11,0.000100204,-2.67532,0.281699,0.209444,17.3044,0.04744665,
2,1,0,1,0,3633.68,0.0492417,0.0489592,2.13657,3,0.0021668,11,0.000104605,-2.67028,0.291177,0.202626,16.9377,0.0489592,
2,1,0,1,0,3633.71,0.0507381,0.0504664,2.15499,3,0.00224742,11,0.000108755,-2.66655,0.268076,0.220087,18.659,0.0504664,
2,1,0,1,0,3633.75,0.0522345,0.0519584,2.19174,3,0.00232903,11,0.000113879,-2.65921,0.230519,0.255944,21.96,0.0519584,
2,1,0,1,0,3633.79,0.0537345,0.0534535,2.23415,3,0.00241217,11,0.000119423,-2.65089,0.237484,0.248438,21.5809,0.0534535,
2,1,0,1,0,3633.83,0.0552345,0.054935,2.26399,3,0.00249657,11,0.000124372,-2.64513,0.261857,0.225314,19.82,0.054935,
2,1,0,1,0,3633.86,0.0567309,0.0564622,2.29163,3,0.00258191,11,0.00012939,-2.63986,0.235402,0.250635,22.4009,0.0564622,
2,1,0,1,0,3633.9,0.0582273,0.0578813,2.32902,3,0.00266833,11,0.000134807,-2.63283,0.222022,0.265739,24.1889,0.0578813,
2,1,0,1,0,3633.94,0.0597309,0.0594543,2.36537,3,0.00275674,11,0.000140631,-2.6261,0.202628,0.291174,26.9139,0.0594543,
2,1,0,1,0,3633.98,0.0612264,0.0609247,2.40354,3,0.00284623,11,0.000146435,-2.61915,0.219695,0.268555,25.2313,0.0609247,
2,1,0,1,0,3634.01,0.0627219,0.0624558,2.44282,3,0.0029372,11,0.000152568,-2.61211,0.203494,0.289935,27.7604,0.0624558,
2,1,0,1,0,3634.05,0.0642219,0.0639609,2.48549,3,0.00302976,11,0.000158974,-2.60459,0.192543,0.306426,29.8508,0.0639609,
2,1,0,1,0,3634.09,0.0657218,0.0654588,2.53692,3,0.00312414,11,0.000166064,-2.59569,0.181324,0.325384,32.1322,0.0654588,
2,1,0,1,0,3634.13,0.0672182,0.0669697,2.58949,3,0.00322011,11,0.000173418,-2.58679,0.193854,0.304353,30.5795,0.0669697,
2,1,0,1,0,3634.16,0.0687146,0.0684591,2.63004,3,0.00331778,11,0.00018005,-2.58004,0.204192,0.288944,29.5759,0.0684591,
2,1,0,1,0,3634.2,0.0702146,0.069913,2.66833,3,0.00341718,11,0.000186551,-2.57376,0.198561,0.297138,31.0076,0.069913,
2,1,0,1,0,3634.24,0.0717146,0.0714314,2.71915,3,0.00351843,11,0.000194233,-2.56557,0.178358,0.330795,35.1174,0.0714314,
2,1,0,1,0,3634.28,0.073211,0.0728924,2.76575,3,0.00362132,11,0.000201603,-2.55819,0.194607,0.303175,32.8316,0.0728924,
2,1,0,1,0,3634.31,0.0747074,0.0744353,2.81686,3,0.00372604,11,0.000209673,-2.55024,0.211701,0.278695,30.6756,0.0744353,
2,1,0,1,0,3634.35,0.0762109,0.0758816,2.86054,3,0.0038331,11,0.000217063,-2.54355,0.20514,0.287608,32.1703,0.0758816,
2,1,0,1,0,3634.39,0.0777064,0.0774148,2.91873,3,0.00394129,11,0.000225953,-2.53481,0.19556,0.301698,34.3172,0.0774148,
2,1,0,1,0,3634.43,0.079202,0.0788905,2.97063,3,0.00405147,11,0.000234355,-2.52715,0.203484,0.289949,33.4892,0.0788905,
2,1,0,1,0,3634.46,0.0807019,0.0804122,3.0171,3,0.00416387,11,0.000242612,-2.52041,0.241878,0.243925,28.6153,0.0804122,
2,1,0,1,0,3634.5,0.0822019,0.0819218,3.05484,3,0.00427795,11,0.000250258,-2.51501,0.24254,0.243259,29.0195,0.0819218,
2,1,0,1,0,3634.54,0.0836983,0.0833612,3.10109,3,0.00439324,11,0.000258511,-2.50849,0.23542,0.250616,30.4008,0.0833612,
2,1,0,1,0,3634.58,0.0851947,0.0849125,3.14512,3,0.00451033,11,0.00026706,-2.50236,0.227251,0.259625,31.9731,0.0849125,
2,1,0,1,0,3634.61,0.0866947,0.0864377,3.19581,3,0.00462963,11,0.000276239,-2.49542,0.249331,0.236634,29.5322,0.0864377,
2,1,0,1,0,3634.65,0.0881947,0.0879591,3.24208,3,0.00475065,11,0.00028517,-2.48918,0.265164,0.222503,28.1691,0.0879591,
2,1,0,1,0,3634.69,0.0896911,0.0893992,3.28664,3,0.00487281,11,0.000293823,-2.48325,0.255801,0.230648,29.5961,0.0893992,
2,1,0,1,0,3634.73,0.0911875,0.0909254,3.34032,3,0.00499674,11,0.00030372,-2.47621,0.241937,0.243865,31.6606,0.0909254,
2,1,0,1,0,3634.76,0.0926901,0.0924317,3.38507,3,0.00512319,11,0.000312888,-2.47043,0.262689,0.2246,29.5486,0.0924317,
2,1,0,1,0,3634.8,0.0941856,0.0939101,3.41791,3,0.00525053,11,0.000320976,-2.46624,0.302278,0.195185,26.0301,0.0939101,
2,1,0,1,0,3634.84,0.0956821,0.0953827,3.45148,3,0.00537922,11,0.000329211,-2.462,0.270843,0.217838,29.4627,0.0953827,
2,1,0,1,0,3634.88,0.097182,0.0968963,3.49684,3,0.00550982,11,0.000338831,-2.45632,0.243469,0.242331,33.1827,0.0968963,
2,1,0,1,0,3634.91,0.098682,0.0984018,3.55088,3,0.00564238,11,0.000349413,-2.44966,0.246633,0.239222,33.185,0.0984018,
2,1,0,1,0,3634.95,0.100178,0.0998882,3.60126,3,0.0057764,11,0.000359723,-2.44355,0.273226,0.215939,30.3473,0.0998882,
2,1,0,1,0,3634.99,0.101675,0.101433,3.64254,3,0.00591214,11,0.000369475,-2.4386,0.265564,0.222169,31.6363,0.101433,
2,1,0,1,0,3635.03,0.103175,0.102878,3.70145,3,0.00604995,11,0.000380798,-2.43163,0.236042,0.249955,36.1138,0.102878,
2,1,0,1,0,3635.06,0.104675,0.104357,3.76093,3,0.00618987,11,0.000392478,-2.4247,0.221539,0.266318,39.0007,0.1043565,
2,1,0,1,0,3635.1,0.106171,0.105912,3.81904,3,0.00633171,11,0.000404481,-2.41805,0.222885,0.26471,39.3797,0.105912,
2,1,0,1,0,3635.14,0.107667,0.107379,3.87209,3,0.00647573,11,0.000415783,-2.41205,0.208109,0.283505,42.9806,0.107379,
2,1,0,1,0,3635.17,0.10917,0.10888,3.93709,3,0.00662275,11,0.000428672,-2.40482,0.191661,0.307835,47.5044,0.10888,
2,1,0,1,0,3635.21,0.110666,0.11037,4.01214,3,0.00677181,11,0.000442819,-2.39662,0.173687,0.339692,53.3508,0.11037,
2,1,0,1,0,3635.25,0.112162,0.11185,4.10037,3,0.00692382,11,0.000458626,-2.38718,0.173605,0.339853,54.4112,0.11185,
2,1,0,1,0,3635.29,0.113662,0.113386,4.18968,3,0.0070794,11,0.00047505,-2.37782,0.164864,0.357871,58.4541,0.113386,
2,1,0,1,0,3635.32,0.115162,0.114896,4.28232,3,0.00723821,11,0.000492023,-2.36832,0.149634,0.394295,65.8851,0.114896,
2,1,0,1,0,3635.36,0.116658,0.116388,4.38624,3,0.00740026,11,0.000510507,-2.35791,0.138031,0.427439,73.1375,0.116388,
2,1,0,1,0,3635.4,0.118155,0.117897,4.4953,3,0.00756651,11,0.000529982,-2.34724,0.13383,0.440859,77.3769,0.117897,
2,1,0,1,0,3635.44,0.119655,0.119386,4.61267,3,0.00773749,11,0.000550691,-2.33605,0.137529,0.429001,77.3285,0.119386,
2,1,0,1,0,3635.47,0.121155,0.120902,4.7236,3,0.00791284,11,0.000571092,-2.32573,0.13227,0.446058,82.5283,0.120902,
2,1,0,1,0,3635.51,0.122651,0.122386,4.85194,3,0.00809225,11,0.000593807,-2.31408,0.127906,0.461277,87.5533,0.122386,
2,1,0,1,0,3635.55,0.124147,0.123858,4.99596,3,0.00827667,11,0.000618788,-2.30138,0.125597,0.469757,91.521,0.123858,
2,1,0,1,0,3635.59,0.12565,0.125406,5.13412,3,0.00846723,11,0.000643847,-2.28953,0.12901,0.457329,91.4681,0.125406,
2,1,0,1,0,3635.62,0.127146,0.126887,5.26308,3,0.00866191,11,0.000667815,-2.27876,0.131274,0.44944,92.3275,0.126887,
2,1,0,1,0,3635.66,0.128642,0.128357,5.40776,3,0.00886162,11,0.000694127,-2.26698,0.130907,0.450701,95.1572,0.128357,
2,1,0,1,0,3635.7,0.130142,0.129797,5.55438,3,0.00906734,11,0.000720941,-2.25536,0.133367,0.442387,95.7787,0.129797,
2,1,0,1,0,3635.74,0.131642,0.13136,5.69418,3,0.00927855,11,0.000747987,-2.24457,0.144176,0.409221,90.7847,0.13136,
2,1,0,1,0,3635.77,0.133139,0.132864,5.82847,3,0.00949431,11,0.000774393,-2.23445,0.153847,0.383498,87.2015,0.132864,
2,1,0,1,0,3635.81,0.134635,0.134376,5.95284,3,0.00971473,11,0.000799919,-2.22528,0.159857,0.369079,85.7934,0.134376,
2,1,0,1,0,3635.85,0.136135,0.135834,6.08638,3,0.00994069,11,0.000826738,-2.21564,0.168964,0.349188,82.7572,0.135834,
2,1,0,1,0,3635.89,0.137635,0.137326,6.21068,3,0.0101714,11,0.000852886,-2.20686,0.182776,0.3228,77.9766,0.137326,
2,1,0,1,0,3635.92,0.13913,0.138865,6.32319,3,0.0104058,11,0.00087807,-2.19906,0.214865,0.274592,67.5014,0.138865,
2,1,0,1,0,3635.96,0.140626,0.140333,6.40719,3,0.0106438,11,0.000899142,-2.19333,0.240734,0.245084,61.1919,0.140333,
2,1,0,1,0,3636,0.14213,0.141846,6.49576,3,0.0108866,11,0.000921396,-2.18737,0.262792,0.224513,56.8082,0.141846,
2,1,0,1,0,3636.04,0.143626,0.143357,6.57411,3,0.0111314,11,0.000942441,-2.18216,0.33364,0.176837,45.2825,0.143357,
2,1,0,1,0,3636.07,0.145122,0.144864,6.62783,3,0.0113786,11,0.000960135,-2.17863,0.527828,0.111779,28.8762,0.144864,
2,1,0,1,0,3636.11,0.146622,0.14634,6.6615,3,0.0116283,11,0.000974843,-2.17643,0.78929,0.0747507,19.4191,0.14634,
2,1,0,1,0,3636.15,0.148122,0.147868,6.68802,3,0.0118789,11,0.000988942,-2.1747,2.04459,0.0288567,7.51802,0.147868,
2,1,0,1,0,3636.19,0.149619,0.149374,6.69609,3,0.0121293,11,0.00100022,-2.17418,-2.16855,-0.0272072,-7.07945,0.149374,
2,1,0,1,0,3636.22,0.151115,0.15084,6.67691,3,0.0123795,11,0.00100714,-2.17542,-0.565887,-0.104261,-27.0024,0.15084,
2,1,0,1,0,3636.26,0.152615,0.152337,6.6165,3,0.0126289,11,0.00100794,-2.17937,-0.345734,-0.170651,-43.8852,0.152337,
2,1,0,1,0,3636.3,0.154115,0.153813,6.53658,3,0.0128757,11,0.00100541,-2.18465,-0.239947,-0.245888,-62.5163,0.153813,
2,1,0,1,0,3636.34,0.155611,0.155328,6.42817,3,0.0131184,11,0.000998474,-2.19191,-0.179288,-0.329079,-82.2318,0.155328,
2,1,0,1,0,3636.37,0.157106,0.156858,6.28355,3,0.0133566,11,0.000985627,-2.20179,-0.132665,-0.44473,-108.572,0.156858,
2,1,0,1,0,3636.41,0.15861,0.158334,6.11063,3,0.0135901,11,0.000967518,-2.21391,-0.108296,-0.544804,-129.315,0.158334,
2,1,0,1,0,3636.45,0.160106,0.159843,5.90261,3,0.0138148,11,0.000943489,-2.22896,-0.0900331,-0.655314,-150.228,0.159843,
2,1,0,1,0,3636.49,0.161602,0.161323,5.67276,3,0.0140313,11,0.000915144,-2.24621,-0.0797411,-0.739895,-162.755,0.161323,
2,1,0,1,0,3636.52,0.163102,0.162862,5.42017,3,0.0142393,11,0.000882737,-2.26599,-0.0712504,-0.828066,-174.167,0.162862,
2,1,0,1,0,3636.56,0.164602,0.164325,5.1466,3,0.0144374,11,0.000845717,-2.28848,-0.063544,-0.92849,-185.777,0.164325,
2,1,0,1,0,3636.6,0.166099,0.16579,4.85753,3,0.0146246,11,0.000805329,-2.31358,-0.0606684,-0.972499,-184.551,0.16579,
2,1,0,1,0,3636.64,0.167595,0.167337,4.58742,3,0.0148014,11,0.000767647,-2.33843,-0.062057,-0.950739,-170.64,0.167337,
2,1,0,1,0,3636.67,0.169095,0.168835,4.33368,3,0.0149689,11,0.000731677,-2.36314,-0.0614797,-0.959667,-162.74,0.168835,
2,1,0,1,0,3636.71,0.170595,0.170316,4.09302,3,0.0151271,11,0.000697108,-2.38796,-0.0606564,-0.972692,-155.876,0.170316,
2,1,0,1,0,3636.75,0.172091,0.171838,3.87108,3,0.0152762,11,0.000665197,-2.41217,-0.0643706,-0.916567,-139.062,0.171838,
2,1,0,1,0,3636.79,0.173586,0.173316,3.67911,3,0.0154173,11,0.000637647,-2.43426,-0.0685061,-0.861238,-123.95,0.173316,
2,1,0,1,0,3636.82,0.17509,0.174815,3.50844,3,0.0155524,11,0.00061333,-2.45489,-0.0738521,-0.798894,-109.452,0.174815,
2,1,0,1,0,3636.86,0.176586,0.176324,3.35228,3,0.0156807,11,0.000591087,-2.47466,-0.0775017,-0.761274,-99.7051,0.1763242,
2,1,0,1,0,3636.9,0.178083,0.177853,3.2072,3,0.0158036,11,0.000570409,-2.49387,-0.0840527,-0.701941,-88.317,0.177853,
2,1,0,1,0,3636.94,0.179582,0.179311,3.08517,3,0.0159217,11,0.000553204,-2.51072,-0.0950646,-0.62063,-75.267,0.179311,
2,1,0,1,0,3636.97,0.181082,0.180808,2.98204,3,0.0160357,11,0.000539178,-2.52549,-0.100513,-0.586989,-68.5641,0.180808,
2,1,0,1,0,3637.01,0.182579,0.182317,2.8872,3,0.0161457,11,0.000526385,-2.53952,-0.101092,-0.583625,-65.786,0.182317,
2,1,0,1,0,3637.05,0.184075,0.183793,2.79809,3,0.0162521,11,0.000514269,-2.55314,-0.10837,-0.544433,-59.5022,0.183793,
2,1,0,1,0,3637.09,0.185579,0.185318,2.71571,3,0.0163556,11,0.000503272,-2.56612,-0.124062,-0.475569,-50.4405,0.185318,
2,1,0,1,0,3637.12,0.187074,0.186811,2.64497,3,0.0164559,11,0.000494109,-2.57758,-0.133161,-0.443074,-45.6532,0.186811,
2,1,0,1,0,3637.16,0.18857,0.18832,2.57755,3,0.0165536,11,0.000485404,-2.58879,-0.141268,-0.417645,-42.0024,0.18832,
2,1,0,1,0,3637.2,0.19007,0.189786,2.51341,3,0.0166493,11,0.000477009,-2.59974,-0.147024,-0.401295,-39.4984,0.189786,
2,1,0,1,0,3637.23,0.19157,0.191284,2.44845,3,0.0167425,11,0.00046835,-2.61111,-0.15979,-0.369236,-35.5602,0.191284,
2,1,0,1,0,3637.27,0.193066,0.19277,2.40395,3,0.0168336,11,0.00046341,-2.61908,-0.188923,-0.312297,-29.4032,0.19277,
2,1,0,1,0,3637.31,0.194563,0.194297,2.36861,3,0.0169231,11,0.000460214,-2.62551,-0.190099,-0.310365,-28.6644,0.194297,
2,1,0,1,0,3637.35,0.196063,0.195808,2.32358,3,0.0170112,11,0.000454976,-2.63384,-0.183643,-0.321276,-29.0896,0.195808,
2,1,0,1,0,3637.38,0.197563,0.197272,2.27906,3,0.0170976,11,0.000449595,-2.64224,-0.205063,-0.287716,-25.6422,0.197272,
2,1,0,1,0,3637.42,0.199059,0.198743,2.25002,3,0.0171823,11,0.000447175,-2.64781,-0.219333,-0.268998,-23.5652,0.198743,
2,1,0,1,0,3637.46,0.200555,0.200274,2.21879,3,0.0172659,11,0.000444365,-2.65388,-0.258745,-0.228024,-19.7052,0.200274,
2,1,0,1,0,3637.5,0.202059,0.201774,2.18287,3,0.0173488,11,0.000440446,-2.66097,-0.246204,-0.239638,-20.4315,0.201774,
2,1,0,1,0,3637.53,0.203554,0.203303,2.14909,3,0.0174301,11,0.000436916,-2.66775,-0.279768,-0.210889,-17.8026,0.203303,
2,1,0,1,0,3637.57,0.20505,0.204733,2.12284,3,0.0175103,11,0.000434615,-2.67308,-0.378752,-0.155775,-13.035,0.204733,
2,1,0,1,0,3637.61,0.20655,0.206302,2.10467,3,0.0175899,11,0.000434196,-2.67682,-0.334882,-0.176181,-14.5099,0.206302,
2,1,0,1,0,3637.65,0.20805,0.207788,2.091,3,0.017669,11,0.000434484,-2.67965,-0.318833,-0.18505,-15.0348,0.207788,
2,1,0,1,0,3637.68,0.209546,0.209278,2.071,3,0.0177468,11,0.000433415,-2.68382,-0.31244,-0.188836,-15.2236,0.209278,
2,1,0,1,0,3637.72,0.211043,0.210783,2.04674,3,0.0178237,11,0.000431419,-2.68894,-0.366541,-0.160964,-12.8218,0.210783,
2,1,0,1,0,3637.76,0.212543,0.212241,2.02894,3,0.0179002,11,0.000430624,-2.69273,-0.497045,-0.118702,-9.39327,0.212241,
2,1,0,1,0,3637.8,0.214043,0.213772,2.01076,3,0.0179761,11,0.000429845,-2.69664,-0.413139,-0.142809,-11.2228,0.213772,
2,1,0,1,0,3637.83,0.215539,0.215264,1.99119,3,0.0180512,11,0.00042863,-2.70089,-0.470839,-0.125308,-9.77853,0.215264,
2,1,0,1,0,3637.87,0.217035,0.21673,1.97318,3,0.0181256,11,0.000427646,-2.70483,-0.492269,-0.119853,-9.28883,0.21673,
2,1,0,1,0,3637.91,0.218538,0.218229,1.96663,3,0.0181999,11,0.000429175,-2.70628,-0.859118,-0.0686751,-5.27167,0.218229,
2,1,0,1,0,3637.95,0.220034,0.219699,1.95916,3,0.0182735,11,0.000430427,-2.70793,-0.579805,-0.101758,-7.75273,0.219699,
2,1,0,1,0,3637.98,0.22153,0.221278,1.94361,3,0.0183466,11,0.000430078,-2.71139,-0.49212,-0.11989,-9.06864,0.2212781,
2,1,0,1,0,3638.02,0.22303,0.22277,1.9215,3,0.0184193,11,0.000428053,-2.71636,-0.512165,-0.115197,-8.65624,0.22277,
2,1,0,1,0,3638.06,0.22453,0.224285,1.91739,3,0.0184915,11,0.000430043,-2.71729,-0.594825,-0.0991888,-7.42797,0.2242852,
2,1,0,1,0,3638.1,0.226026,0.225752,1.90679,3,0.0185632,11,0.000430461,-2.7197,-0.581375,-0.101483,-7.55966,0.225752,
2,1,0,1,0,3638.13,0.227523,0.227267,1.89203,3,0.0186345,11,0.000429994,-2.72307,-0.514797,-0.114608,-8.4983,0.227267,
2,1,0,1,0,3638.17,0.229023,0.22873,1.88462,3,0.0187057,11,0.000431068,-2.72478,-0.642255,-0.0918639,-6.78781,0.22873,
2,1,0,1,0,3638.21,0.230523,0.23028,1.876,3,0.0187763,11,0.000432004,-2.72677,-0.721006,-0.0818301,-6.00943,0.2302798,
2,1,0,1,0,3638.25,0.232019,0.231747,1.8726,3,0.0188466,11,0.000433971,-2.72755,-0.87172,-0.0676823,-4.93346,0.231747,
2,1,0,1,0,3638.28,0.233515,0.233231,1.86926,3,0.0189166,11,0.00043597,-2.72833,-0.71323,-0.0827223,-5.99154,0.233231,
2,1,0,1,0,3638.32,0.235018,0.234791,1.85979,3,0.0189868,11,0.000436662,-2.73054,-0.900519,-0.0655178,-4.73446,0.234791,
2,1,0,1,0,3638.36,0.236514,0.236223,1.84411,3,0.019056,11,0.00043562,-2.73421,-0.744755,-0.0792207,-5.71376,0.236223,
2,1,0,1,0,3638.4,0.23801,0.237727,1.83476,3,0.019125,11,0.000436172,-2.73642,-1.79301,-0.0329056,-2.36164,0.237727,
2,1,0,1,0,3638.43,0.23951,0.239287,1.82791,3,0.0191941,11,0.000437395,-2.73804,-1.10107,-0.0535841,-3.84017,0.239287,
2,1,0,1,0,3638.47,0.24101,0.240737,1.82231,3,0.0192628,11,0.000438698,-2.73938,-0.67623,-0.0872484,-6.22361,0.240737,
2,1,0,1,0,3638.51,0.242506,0.242239,1.81125,3,0.019331,11,0.000438755,-2.74202,-0.816091,-0.0722959,-5.13013,0.242239,
2,1,0,1,0,3638.55,0.244003,0.243708,1.8151,3,0.019399,11,0.000442356,-2.7411,-1.66935,-0.035343,-2.49574,0.243708,
2,1,0,1,0,3638.58,0.245503,0.245276,1.8166,3,0.0194671,11,0.000445568,-2.74074,-1.13877,-0.0518105,-3.64353,0.245276,
2,1,0,1,0,3638.62,0.247003,0.246765,1.80562,3,0.019535,11,0.000445562,-2.74337,-0.865098,-0.0682004,-4.77711,0.246765,
2,1,0,1,0,3638.66,0.248499,0.248215,1.78928,3,0.0196024,11,0.000444126,-2.74732,-0.870254,-0.0677963,-4.74763,0.248215,
2,1,0,1,0,3638.7,0.249995,0.249731,1.78382,3,0.0196694,11,0.000445476,-2.74865,-0.905315,-0.0651707,-4.55689,0.249731,
2,1,0,1,0,3638.73,0.251498,0.251239,1.77943,3,0.0197367,11,0.000447061,-2.74972,-2.66515,-0.0221376,-1.5433,0.2512387,
2,1,0,1,0,3638.77,0.252994,0.252786,1.77342,3,0.0198035,11,0.000448296,-2.75119,-0.772743,-0.0763514,-5.29817,0.252786,
2,1,0,1,0,3638.81,0.25449,0.254207,1.77116,3,0.01987,11,0.00045024,-2.75174,-0.912843,-0.0646333,-4.47274,0.2542066,
2,1,0,1,0,3638.85,0.25599,0.25573,1.76785,3,0.0199365,11,0.00045209,-2.75256,-1.33452,-0.0442105,-3.04511,0.25573,
2,1,0,1,0,3638.88,0.25749,0.257276,1.76491,3,0.0200028,11,0.000454069,-2.75328,-1.61905,-0.0364411,-2.49796,0.257276,
2,1,0,1,0,3638.92,0.258987,0.258732,1.76092,3,0.0200689,11,0.000455606,-2.75426,-1.2343,-0.0478004,-3.2746,0.258732,
2,1,0,1,0,3638.96,0.260483,0.26023,1.75233,3,0.0201347,11,0.000456008,-2.75638,-0.811021,-0.0727478,-4.98109,0.26023,
2,1,0,1,0,3639,0.261983,0.261719,1.74451,3,0.0202004,11,0.000456574,-2.75833,-1.00219,-0.0588709,-4.02627,0.261719,
2,1,0,1,0,3639.03,0.263483,0.263211,1.7388,3,0.020266,11,0.000457671,-2.75975,-3.11016,-0.0189701,-1.29101,0.263211,
2,1,0,1,0,3639.07,0.264978,0.264736,1.73676,3,0.0203313,11,0.000459783,-2.76026,-2.02128,-0.0291894,-1.98214,0.264736,
2,1,0,1,0,3639.11,0.266474,0.266198,1.73467,3,0.0203964,11,0.000461765,-2.76078,-1.20161,-0.0491009,-3.32223,0.266198,
2,1,0,1,0,3639.15,0.267977,0.267696,1.72449,3,0.0204616,11,0.000461638,-2.76334,-1.46999,-0.0401363,-2.7029,0.267696,
2,1,0,1,0,3639.18,0.269474,0.269257,1.72402,3,0.0205263,11,0.000464204,-2.76346,-1.50374,-0.0392355,-2.63405,0.2692568,
2,1,0,1,0,3639.22,0.27097,0.270708,1.72719,3,0.0205909,11,0.000467564,-2.76266,-1.66714,-0.0353899,-2.37283,0.270708,
2,1,0,1,0,3639.26,0.27247,0.272222,1.71685,3,0.0206556,11,0.000467365,-2.76527,-0.85734,-0.0688175,-4.606,0.272222,
2,1,0,1,0,3639.29,0.27397,0.273697,1.70179,3,0.0207201,11,0.000465775,-2.76909,-1.2091,-0.0487966,-3.26982,0.273697,
2,1,0,1,0,3639.33,0.275467,0.275184,1.70134,3,0.020784,11,0.000468182,-2.76921,-1.38824,-0.0424999,-2.84255,0.275184,
2,1,0,1,0,3639.37,0.276963,0.276727,1.70116,3,0.020848,11,0.000470757,-2.76926,-1.52056,-0.0388014,-2.58216,0.276727,
2,1,0,1,0,3639.41,0.278463,0.278164,1.7003,3,0.020912,11,0.000472963,-2.76947,-0.966828,-0.0610243,-4.03814,0.278164,
2,1,0,1,0,3639.44,0.279963,0.27971,1.70023,3,0.0209758,11,0.000475572,-2.76949,-1.63411,-0.0361054,-2.38403,0.27971,
2,1,0,1,0,3639.48,0.281459,0.281182,1.69303,3,0.0210392,11,0.000476049,-2.77134,-1.43336,-0.0411622,-2.71205,0.281182,
2,1,0,1,0,3639.52,0.282954,0.282655,1.6882,3,0.0211025,11,0.000477179,-2.77257,-21.4245,-0.00275385,-0.181057,0.282655,
2,1,0,1,0,3639.56,0.284458,0.284167,1.68337,3,0.0211661,11,0.000478359,-2.77382,-2.01743,-0.0292452,-1.92281,0.284167,
2,1,0,1,0,3639.59,0.285954,0.285646,1.67356,3,0.0212292,11,0.000478045,-2.77636,-1.41509,-0.0416936,-2.74178,0.285646,
2,1,0,1,0,3639.63,0.28745,0.287238,1.66956,3,0.021292,11,0.000479561,-2.7774,-1.55357,-0.037977,-2.48676,0.287238,
2,1,0,1,0,3639.67,0.28895,0.288659,1.66701,3,0.0213549,11,0.000481197,-2.77806,-8.58079,-0.00687583,-0.447911,0.288659,
2,1,0,1,0,3639.71,0.29045,0.290186,1.66809,3,0.0214177,11,0.000484056,-2.77778,-1.86618,-0.0316154,-2.05535,0.290186,
2,1,0,1,0,3639.74,0.291947,0.291668,1.66631,3,0.0214802,11,0.00048601,-2.77824,-1.2272,-0.0480771,-3.11459,0.291668,
2,1,0,1,0,3639.78,0.293443,0.293219,1.65716,3,0.0215425,11,0.00048591,-2.78064,-1.00829,-0.058515,-3.78143,0.293219,
2,1,0,1,0,3639.82,0.294943,0.294651,1.65678,3,0.0216048,11,0.000488171,-2.78074,-2.06889,-0.0285177,-1.84455,0.294651,
2,1,0,1,0,3639.86,0.296443,0.296176,1.6575,3,0.021667,11,0.000490911,-2.78055,-2.26439,-0.0260556,-1.68028,0.296176,
2,1,0,1,0,3639.89,0.297939,0.297658,1.64712,3,0.021729,11,0.000490277,-2.78328,-0.925301,-0.0637631,-4.10018,0.297658,
2,1,0,1,0,3639.93,0.299434,0.299175,1.63823,3,0.0217908,11,0.000490118,-2.78562,-0.00739658,-7.97666,-371.81,0.299175,
2,1,0,0,0,3639.95,0.299962,0.299632,1.55723,3,0.021815,11,0.000466595,-2.80765,0.00106581,55.3572,2643.1,0.299632,
2,0,0,1,0,3639.98,0.298689,0.298433,-0.187869,3,0.0218266,11,-5.60661e-05,-3.72615,0.0059989,9.83514,645.264,0.298433,
2,0,0,1,0,3640.02,0.297189,0.296872,-0.445308,3,0.0218133,11,-0.000132199,-3.35134,-0.00648193,-9.10223,162.006,0.296872,
2,0,0,1,0,3640.05,0.295692,0.2954,-0.516822,3,0.0217951,11,-0.000152669,-3.28666,-0.025135,-2.34732,43.967,0.2954,
2,0,0,1,0,3640.09,0.294196,0.293913,-0.560009,3,0.0217749,11,-0.000164594,-3.25181,-0.0440598,-1.33909,28.7837,0.293913,
2,0,0,1,0,3640.13,0.292696,0.292416,-0.595115,3,0.021753,11,-0.000174021,-3.2254,-0.0514478,-1.14679,26.6366,0.292416,
2,0,0,1,0,3640.17,0.291196,0.290917,-0.635898,3,0.0217297,11,-0.000184993,-3.19661,-0.0577088,-1.02237,25.2205,0.290917,
2,0,0,1,0,3640.2,0.2897,0.289415,-0.672126,3,0.021705,11,-0.000194523,-3.17255,-0.0756252,-0.780164,20.4354,0.289415,
2,0,0,1,0,3640.24,0.288205,0.287903,-0.69734,3,0.0216792,11,-0.000200766,-3.15656,-0.0925149,-0.637735,17.316,0.287903,
2,0,0,1,0,3640.28,0.286701,0.286369,-0.722397,3,0.0216522,11,-0.000206872,-3.14122,-0.0898605,-0.656574,18.519,0.286369,
2,0,0,1,0,3640.32,0.285205,0.284908,-0.753615,3,0.0216245,11,-0.000214711,-3.12285,-0.107253,-0.550099,16.0887,0.284908,
2,0,0,1,0,3640.35,0.283708,0.283415,-0.779611,3,0.0215958,11,-0.000220953,-3.10812,-0.126375,-0.466863,14.0276,0.283415,
2,0,0,1,0,3640.39,0.282208,0.281918,-0.796277,3,0.0215661,11,-0.000224485,-3.09894,-0.146042,-0.403992,12.4669,0.281918,
2,0,0,1,0,3640.43,0.280709,0.280425,-0.813707,3,0.0215356,11,-0.000228184,-3.08953,-0.152743,-0.386271,12.3432,0.280425,
2,0,0,1,0,3640.47,0.279212,0.278901,-0.833892,3,0.0215047,11,-0.000232573,-3.07889,-0.158762,-0.371625,12.1797,0.278901,
2,0,0,1,0,3640.5,0.277716,0.277409,-0.855458,3,0.0214729,11,-0.000237312,-3.0678,-0.155189,-0.38018,12.6746,0.277409,
2,0,0,1,0,3640.54,0.276216,0.275976,-0.872814,3,0.0214403,11,-0.000240876,-3.05908,-0.166639,-0.354058,12.0587,0.275976,
2,0,0,1,0,3640.58,0.274716,0.274416,-0.892258,3,0.0214072,11,-0.00024485,-3.04951,-0.210138,-0.280768,9.71528,0.2744163,
2,0,0,1,0,3640.61,0.27322,0.272915,-0.905704,3,0.0213735,11,-0.00024718,-3.04301,-0.171664,-0.343695,12.0945,0.272915,
2,0,0,1,0,3640.65,0.271725,0.271419,-0.923905,3,0.0213393,11,-0.000250765,-3.03437,-0.147977,-0.39871,14.2369,0.2714186,
2,0,0,1,0,3640.69,0.270221,0.269955,-0.939907,3,0.0213041,11,-0.000253733,-3.02692,-0.205975,-0.286443,10.4586,0.269955,
2,0,0,1,0,3640.73,0.268725,0.26846,-0.948699,3,0.0212685,11,-0.000254688,-3.02287,-0.274557,-0.214892,8.00071,0.26846,
2,0,0,1,0,3640.76,0.267228,0.266925,-0.956741,3,0.0212326,11,-0.000255378,-3.01921,-0.260582,-0.226416,8.553,0.266925,
2,0,0,1,0,3640.8,0.265728,0.265429,-0.976252,3,0.021196,11,-0.000259126,-3.01044,-0.201486,-0.292824,11.2208,0.265429,
2,0,0,1,0,3640.84,0.264228,0.263962,-0.99351,3,0.0211588,11,-0.000262249,-3.00283,-0.272702,-0.216354,8.38735,0.263962,
2,0,0,1,0,3640.88,0.262732,0.262447,-1.01083,3,0.0211212,11,-0.000265288,-2.99532,-0.370453,-0.159264,6.23626,0.262447,
2,0,0,1,0,3640.91,0.261236,0.260904,-1.02113,3,0.0210831,11,-0.000266415,-2.99092,-0.314143,-0.187812,7.45894,0.260904,
2,0,0,1,0,3640.95,0.259736,0.259483,-1.03516,3,0.0210446,11,-0.000268607,-2.98499,-0.241671,-0.244134,9.84768,0.259483,
2,0,0,1,0,3640.99,0.258236,0.257927,-1.04414,3,0.0210055,11,-0.000269311,-2.98124,-0.245755,-0.240076,9.80151,0.257927,
2,0,0,1,0,3641.03,0.256741,0.256425,-1.05525,3,0.0209659,11,-0.000270591,-2.97665,-0.382603,-0.154207,6.3649,0.256425,
2,0,0,1,0,3641.06,0.255241,0.254927,-1.06777,3,0.0209257,11,-0.000272204,-2.97152,-0.302824,-0.194833,8.16304,0.254927,
2,0,0,1,0,3641.1,0.253741,0.253446,-1.07665,3,0.0208854,11,-0.000272872,-2.96793,-0.32085,-0.183887,7.79908,0.253446,
2,0,0,1,0,3641.14,0.252245,0.251959,-1.0948,3,0.0208445,11,-0.000275846,-2.96066,-0.279329,-0.21122,9.0066,0.251959,
2,0,0,1,0,3641.18,0.250748,0.250475,-1.1113,3,0.0208031,11,-0.000278354,-2.95417,-0.325617,-0.181194,7.80451,0.250475,
2,0,0,1,0,3641.21,0.249248,0.248961,-1.12114,3,0.0207612,11,-0.00027912,-2.95034,-0.39013,-0.151232,6.59156,0.248961,
2,0,0,1,0,3641.25,0.247748,0.247453,-1.12868,3,0.020719,11,-0.000279297,-2.94743,-0.361787,-0.16308,7.18249,0.247453,
2,0,0,1,0,3641.29,0.246252,0.245968,-1.14191,3,0.0206764,11,-0.000280873,-2.94237,-0.256975,-0.229594,10.2153,0.245968,
2,0,0,1,0,3641.33,0.244756,0.244435,-1.15849,3,0.0206332,11,-0.000283175,-2.93611,-0.313563,-0.18816,8.48237,0.244435,
2,0,0,1,0,3641.36,0.243252,0.242964,-1.16548,3,0.0205894,11,-0.00028317,-2.93349,-0.403888,-0.14608,6.66171,0.242964,
2,0,0,1,0,3641.4,0.241756,0.241456,-1.1665,3,0.0205455,11,-0.000281659,-2.93311,-0.3338,-0.176753,8.13366,0.241456,
2,0,0,1,0,3641.44,0.240261,0.239924,-1.18646,3,0.0205012,11,-0.00028466,-2.92575,-0.311492,-0.189411,8.79034,0.239924,
2,0,0,1,0,3641.48,0.238761,0.238469,-1.20434,3,0.0204562,11,-0.000287197,-2.91925,-0.312049,-0.189073,8.81397,0.238469,
2,0,0,1,0,3641.51,0.237261,0.236938,-1.2145,3,0.0204108,11,-0.000287761,-2.9156,-0.480893,-0.122688,5.77546,0.236938,
2,0,0,1,0,3641.55,0.235765,0.235433,-1.22493,3,0.0203651,11,-0.000288389,-2.91189,-0.411313,-0.143443,6.83044,0.235433,
2,0,0,1,0,3641.59,0.234268,0.233981,-1.23394,3,0.0203191,11,-0.00028872,-2.90871,-0.339076,-0.174002,8.39761,0.233981,
2,0,0,1,0,3641.63,0.232768,0.232472,-1.24712,3,0.0202724,11,-0.000289921,-2.90409,-0.343748,-0.171637,8.36472,0.2324723,
2,0,0,1,0,3641.66,0.231268,0.231015,-1.25792,3,0.0202251,11,-0.000290598,-2.90035,-0.417739,-0.141237,6.95862,0.231015,
2,0,0,1,0,3641.7,0.229772,0.229492,-1.27345,3,0.0201776,11,-0.000292246,-2.89502,-0.434514,-0.135784,6.75909,0.229492,
2,0,0,1,0,3641.74,0.228275,0.22797,-1.2837,3,0.0201297,11,-0.000292646,-2.89154,-0.336831,-0.175162,8.77241,0.22797,
2,0,0,1,0,3641.78,0.226772,0.226465,-1.30234,3,0.0200811,11,-0.000294934,-2.88528,-0.269311,-0.219078,11.052,0.226465,
2,0,0,1,0,3641.81,0.225276,0.224986,-1.3137,3,0.0200322,11,-0.000295564,-2.8815,-0.327211,-0.180312,9.18165,0.224986,
2,0,0,1,0,3641.85,0.223781,0.223492,-1.3258,3,0.0199828,11,-0.000296304,-2.87752,-0.329777,-0.178909,9.21594,0.223492,
2,0,0,1,0,3641.89,0.222281,0.222,-1.32664,3,0.0199329,11,-0.000294513,-2.87725,-0.311859,-0.189188,9.87649,0.222,
2,0,0,1,0,3641.93,0.220781,0.220506,-1.3465,3,0.0198824,11,-0.000296911,-2.87079,-0.282028,-0.209199,11.021,0.220506,
2,0,0,1,0,3641.96,0.219284,0.218997,-1.36615,3,0.0198314,11,-0.000299183,-2.8645,-0.330793,-0.178359,9.51442,0.218997,
2,0,0,1,0,3642,0.217788,0.21745,-1.37823,3,0.0197799,11,-0.000299696,-2.86068,-0.405516,-0.145494,7.82675,0.2174504,
2,0,0,1,0,3642.04,0.216288,0.216005,-1.38899,3,0.0197278,11,-0.000300029,-2.8573,-0.349233,-0.168942,9.18632,0.2160055,
2,0,0,1,0,3642.08,0.214788,0.214471,-1.40822,3,0.0196752,11,-0.000302022,-2.85133,-0.324754,-0.181676,9.97144,0.2144714,
2,0,0,1,0,3642.11,0.213292,0.212988,-1.43215,3,0.0196221,11,-0.000305029,-2.84401,-0.287407,-0.205284,11.3846,0.212988,
2,0,0,1,0,3642.15,0.211796,0.211523,-1.44233,3,0.0195684,11,-0.000305087,-2.84093,-0.345141,-0.170945,9.5789,0.211523,
2,0,0,1,0,3642.19,0.210293,0.209996,-1.45687,3,0.0195137,11,-0.000305938,-2.83658,-0.281621,-0.209501,11.9144,0.209996,
2,0,0,1,0,3642.23,0.208797,0.20848,-1.46911,3,0.0194589,11,-0.000306281,-2.83294,-0.244804,-0.241009,13.9686,0.2084797,
2,0,0,1,0,3642.26,0.207301,0.207007,-1.48981,3,0.0194033,11,-0.000308402,-2.82687,-0.242669,-0.24313,14.1903,0.2070069,
2,0,0,1,0,3642.3,0.205801,0.205471,-1.5151,3,0.0193465,11,-0.000311308,-2.81956,-0.259092,-0.227718,13.4367,0.205471,
2,0,0,1,0,3642.34,0.204301,0.20398,-1.53069,3,0.0192892,11,-0.000312231,-2.81511,-0.338698,-0.174197,10.4255,0.20398,
2,0,0,1,0,3642.38,0.202804,0.202535,-1.55137,3,0.0192315,11,-0.000314206,-2.80929,-0.256569,-0.229957,13.9115,0.202535,
2,0,0,1,0,3642.41,0.201308,0.201065,-1.57679,3,0.0191729,11,-0.000317036,-2.80223,-0.228807,-0.257859,15.7891,0.2010648,
2,0,0,1,0,3642.45,0.199808,0.199475,-1.60123,3,0.0191132,11,-0.000319405,-2.79555,-0.243397,-0.242403,15.1017,0.199475,
2,0,0,1,0,3642.49,0.198308,0.197989,-1.62081,3,0.0190527,11,-0.000320903,-2.79027,-0.253679,-0.232578,14.7273,0.197989,
2,0,0,1,0,3642.53,0.196812,0.196526,-1.6397,3,0.0189916,11,-0.000322244,-2.78524,-0.222098,-0.265648,17.1189,0.196526,
2,0,0,1,0,3642.56,0.195316,0.194972,-1.6682,3,0.0189295,11,-0.000325252,-2.77775,-0.188714,-0.312643,20.4733,0.1949717,
2,0,0,1,0,3642.6,0.193813,0.19346,-1.70583,3,0.0188658,11,-0.000330011,-2.76806,-0.189988,-0.310546,20.6252,0.19346,
2,0,0,1,0,3642.64,0.192317,0.191982,-1.73154,3,0.0188013,11,-0.000332425,-2.76157,-0.200808,-0.293814,19.854,0.191982,
2,0,0,1,0,3642.67,0.190821,0.19051,-1.75716,3,0.0187358,11,-0.000334758,-2.75519,-0.19886,-0.296692,20.3921,0.19051,
2,0,0,1,0,3642.71,0.189321,0.189005,-1.79801,3,0.0186691,11,-0.000339833,-2.74521,-0.181154,-0.32569,22.8374,0.189005,
2,0,0,1,0,3642.75,0.187821,0.187503,-1.83402,3,0.0186009,11,-0.000343885,-2.7366,-0.163326,-0.361242,25.8249,0.187503,
2,0,0,1,0,3642.79,0.186324,0.186031,-1.87101,3,0.0185314,11,-0.000348067,-2.72792,-0.17552,-0.336143,24.5518,0.186031,
2,0,0,1,0,3642.82,0.184828,0.184523,-1.911,3,0.0184604,11,-0.000352624,-2.71874,-0.162798,-0.362412,27.1331,0.184523,
2,0,0,1,0,3642.86,0.183328,0.183005,-1.95104,3,0.0183879,11,-0.000357051,-2.70973,-0.146791,-0.401931,30.821,0.183005,
2,0,0,1,0,3642.9,0.181828,0.181562,-2.00634,3,0.0183135,11,-0.000364274,-2.6976,-0.130703,-0.451404,35.3761,0.181562,
2,0,0,1,0,3642.94,0.180332,0.180032,-2.06239,3,0.0182373,11,-0.000371295,-2.68563,-0.129338,-0.45617,36.6455,0.180032,
2,0,0,1,0,3642.97,0.178836,0.178544,-2.11711,3,0.0181591,11,-0.000377998,-2.67426,-0.128588,-0.458831,37.7598,0.178544,
2,0,0,1,0,3643.01,0.177333,0.177053,-2.16889,3,0.0180786,11,-0.000384008,-2.66376,-0.12095,-0.487804,41.3124,0.177053,
2,0,0,1,0,3643.05,0.175837,0.175554,-2.23296,3,0.0179961,11,-0.000392003,-2.65112,-0.107807,-0.547274,47.7001,0.175554,
2,0,0,1,0,3643.09,0.174341,0.174082,-2.30246,3,0.0179111,11,-0.000400816,-2.63781,-0.109366,-0.539471,48.6022,0.174082,
2,0,0,1,0,3643.12,0.172841,0.172522,-2.37557,3,0.0178231,11,-0.000409838,-2.62423,-0.106544,-0.553763,51.5377,0.172522,
2,0,0,1,0,3643.16,0.171341,0.171042,-2.44982,3,0.0177322,11,-0.000419021,-2.61087,-0.102004,-0.578411,55.7664,0.171042,
2,0,0,1,0,3643.2,0.169844,0.169575,-2.54785,3,0.0176385,11,-0.000432052,-2.59383,-0.0935943,-0.63038,62.9656,0.169575,
2,0,0,1,0,3643.24,0.168348,0.168026,-2.65606,3,0.0175411,11,-0.000446288,-2.57576,-0.0888345,-0.664157,68.6777,0.168026,
2,0,0,1,0,3643.27,0.166848,0.166541,-2.76094,3,0.0174395,11,-0.000459809,-2.55894,-0.0884915,-0.66673,71.6136,0.166541,
2,0,0,1,0,3643.31,0.165348,0.165056,-2.86893,3,0.0173339,11,-0.000473535,-2.54228,-0.0820297,-0.719252,80.6351,0.165056,
2,0,0,1,0,3643.35,0.163852,0.163544,-2.99074,3,0.0172243,11,-0.000489118,-2.52422,-0.080621,-0.731819,85.7018,0.163544,
2,0,0,1,0,3643.39,0.162357,0.162094,-3.12486,3,0.0171097,11,-0.000506521,-2.50517,-0.0747893,-0.788883,96.4903,0.162094,
2,0,0,1,0,3643.42,0.160853,0.160541,-3.27543,3,0.0169891,11,-0.00052584,-2.48473,-0.0755807,-0.780622,100,0.160541,
2,0,0,1,0,3643.46,0.159357,0.159021,-3.43094,3,0.0168634,11,-0.000545592,-2.46459,-0.0739039,-0.798334,107.138,0.159021,
2,0,0,1,0,3643.5,0.157861,0.157609,-3.59755,3,0.0167319,11,-0.000567007,-2.44399,-0.0731444,-0.806624,113.489,0.157609,
2,0,0,1,0,3643.54,0.156361,0.156042,-3.78033,3,0.0165935,11,-0.000589889,-2.42247,-0.0706225,-0.835428,123.04,0.156042,
2,0,0,1,0,3643.57,0.154861,0.15453,-3.97296,3,0.0164481,11,-0.000613942,-2.40089,-0.0706056,-0.835628,129.268,0.15453,
2,0,0,1,0,3643.61,0.153364,0.153059,-4.16858,3,0.0162958,11,-0.000638038,-2.38001,-0.0753307,-0.783213,126.965,0.153059,
2,0,0,1,0,3643.65,0.151868,0.151551,-4.35573,3,0.0161363,11,-0.000660117,-2.36094,-0.0748547,-0.788194,134.022,0.151551,
2,0,0,1,0,3643.69,0.150368,0.150103,-4.54993,3,0.0159692,11,-0.000682959,-2.342,-0.0753627,-0.78288,139.361,0.150103,
2,0,0,1,0,3643.72,0.148868,0.148571,-4.76482,3,0.0157942,11,-0.000707914,-2.32195,-0.0767621,-0.768609,142.803,0.148571,
2,0,0,1,0,3643.76,0.147372,0.147086,-4.977,3,0.0156118,11,-0.000732046,-2.30303,-0.0836928,-0.704959,136.581,0.147086,
2,0,0,1,0,3643.8,0.145877,0.145578,-5.16365,3,0.0154217,11,-0.000751712,-2.28704,-0.0896567,-0.658066,132.718,0.1455778,
2,0,0,1,0,3643.84,0.144373,0.144074,-5.37237,3,0.0152233,11,-0.000774017,-2.26983,-0.0970557,-0.607898,127.248,0.144074,
2,0,0,1,0,3643.87,0.142877,0.142574,-5.56857,3,0.0150186,11,-0.000793932,-2.25426,-0.102855,-0.573625,124.157,0.142574,
2,0,0,1,0,3643.91,0.14138,0.141088,-5.7461,3,0.0148069,11,-0.000810707,-2.24063,-0.116778,-0.505233,112.773,0.141088,
2,0,0,1,0,3643.95,0.13988,0.139571,-5.90548,3,0.0145881,11,-0.000824236,-2.22874,-0.127818,-0.461594,106.198,0.139571,
2,0,0,1,0,3643.99,0.13838,0.138085,-6.05687,3,0.0143637,11,-0.000836365,-2.21775,-0.139744,-0.4222,99.7325,0.138085,
2,0,0,1,0,3644.02,0.136884,0.136586,-6.19909,3,0.0141341,11,-0.000846708,-2.20767,-0.15959,-0.369696,89.3395,0.136586,
2,0,0,1,0,3644.06,0.135388,0.13509,-6.32828,3,0.0138995,11,-0.000854886,-2.19871,-0.187337,-0.314941,77.6092,0.13509,
2,0,0,1,0,3644.1,0.133888,0.133565,-6.44141,3,0.0136599,11,-0.000860348,-2.19102,-0.227999,-0.258773,64.8206,0.133565,
2,0,0,1,0,3644.14,0.132389,0.132068,-6.52366,3,0.0134167,11,-0.000861569,-2.18551,-0.284251,-0.207563,52.6872,0.1320684,
2,0,0,1,0,3644.17,0.130893,0.130608,-6.59481,3,0.0131713,11,-0.000861332,-2.1808,-0.352733,-0.167265,42.8863,0.130608,
2,0,0,1,0,3644.21,0.129393,0.12906,-6.6479,3,0.0129227,11,-0.000857977,-2.17732,-0.55195,-0.106894,27.617,0.1290599,
2,0,0,1,0,3644.25,0.127893,0.127593,-6.67106,3,0.0126728,11,-0.000851178,-2.17581,-1.95532,-0.0301741,7.8333,0.127593,
2,0,0,1,0,3644.29,0.126397,0.126089,-6.66711,3,0.012423,11,-0.000840652,-2.17606,3.67628,0.0160488,-4.17308,0.126089,
2,0,0,1,0,3644.32,0.1249,0.124607,-6.65655,3,0.0121735,11,-0.000829452,-2.17675,0.968732,0.0609044,-15.7999,0.1246068,
2,0,0,1,0,3644.36,0.1234,0.12315,-6.62671,3,0.0119242,11,-0.000816077,-2.1787,0.501416,0.117667,-30.3371,0.12315,
2,0,0,1,0,3644.4,0.1219,0.121576,-6.57276,3,0.0116765,11,-0.000799092,-2.18225,0.321737,0.18338,-46.8509,0.121576,
2,0,0,1,0,3644.44,0.120404,0.120097,-6.48863,3,0.011432,11,-0.000779265,-2.18785,0.251364,0.234719,-59.2638,0.120097,
2,0,0,1,0,3644.47,0.118908,0.118599,-6.3946,3,0.0111911,11,-0.00075839,-2.19419,0.210492,0.280296,-69.7695,0.118599,
2,0,0,1,0,3644.51,0.117404,0.117091,-6.28269,3,0.0109528,11,-0.000735644,-2.20185,0.182762,0.322824,-78.8886,0.117091,
2,0,0,1,0,3644.55,0.115909,0.115598,-6.14777,3,0.0107201,11,-0.000710672,-2.21128,0.15311,0.385345,-92.208,0.115598,
2,0,0,1,0,3644.59,0.114413,0.114103,-6.00502,3,0.0104925,11,-0.000685193,-2.22149,0.137986,0.427579,-100.136,0.114103,
2,0,0,1,0,3644.62,0.112913,0.112624,-5.84418,3,0.0102702,11,-0.000658195,-2.23328,0.129818,0.454481,-103.822,0.112624,
2,0,0,1,0,3644.66,0.111413,0.111133,-5.69212,3,0.0100535,11,-0.000632583,-2.24473,0.127505,0.462726,-102.844,0.111133,
2,0,0,1,0,3644.7,0.109917,0.109634,-5.53893,3,0.0098433,11,-0.000607257,-2.25657,0.119727,0.492786,-106.492,0.109634,
2,0,0,1,0,3644.73,0.10842,0.108106,-5.39049,3,0.00963886,11,-0.000582747,-2.26837,0.119647,0.493116,-103.521,0.108106,
2,0,0,1,0,3644.77,0.10692,0.106609,-5.23224,3,0.00943981,11,-0.000557805,-2.28131,0.124152,0.475224,-97.1195,0.1066092,
2,0,0,1,0,3644.81,0.10542,0.105102,-5.0926,3,0.00924624,11,-0.000535242,-2.29306,0.131833,0.447537,-89.0251,0.105102,
2,0,0,1,0,3644.85,0.103924,0.103614,-4.96519,3,0.00905807,11,-0.000514463,-2.30406,0.137344,0.429579,-83.3124,0.103614,
2,0,0,1,0,3644.88,0.102427,0.102128,-4.84137,3,0.00887452,11,-0.000494439,-2.31503,0.141396,0.417269,-78.9407,0.102128,
2,0,0,1,0,3644.92,0.100924,0.100615,-4.71688,3,0.00869457,11,-0.00047459,-2.32635,0.147846,0.399065,-73.8072,0.1006154,
2,0,0,1,0,3644.96,0.0994284,0.0991075,-4.62188,3,0.00851972,11,-0.000458063,-2.33518,0.168337,0.350488,-63.3819,0.0991075,
2,0,0,1,0,3645,0.0979329,0.0976139,-4.53399,3,0.00834841,11,-0.00044258,-2.34352,0.179812,0.32812,-58.1369,0.0976139,
2,0,0,1,0,3645.03,0.0964329,0.0961277,-4.45419,3,0.00817983,11,-0.000428171,-2.35123,0.190823,0.309187,-53.686,0.0961277,
2,0,0,1,0,3645.07,0.094933,0.0946244,-4.37428,3,0.00801417,11,-0.000413913,-2.35909,0.206324,0.285958,-48.8431,0.09462437,
2,0,0,1,0,3645.11,0.0934366,0.0931109,-4.30577,3,0.00785178,11,-0.000400914,-2.36595,0.227744,0.259063,-43.6221,0.0931109,
2,0,0,1,0,3645.15,0.0919401,0.0916367,-4.24432,3,0.00769173,11,-0.000388935,-2.37219,0.25551,0.230911,-38.3285,0.0916367,
2,0,0,1,0,3645.18,0.0904402,0.0901579,-4.1924,3,0.0075333,11,-0.000377978,-2.37754,0.250615,0.235421,-38.5103,0.0901579,
2,0,0,1,0,3645.22,0.0889402,0.0886028,-4.13579,3,0.00737691,11,-0.000366442,-2.38344,0.268866,0.21944,-35.4824,0.0886028,
2,0,0,1,0,3645.26,0.0874438,0.0871433,-4.08406,3,0.00722312,11,-0.000355899,-2.38891,0.297566,0.198275,-31.6802,0.0871433,
2,0,0,1,0,3645.3,0.0859483,0.0856165,-4.04348,3,0.00707106,11,-0.000346189,-2.39324,0.341498,0.172768,-27.2612,0.0856165,
2,0,0,1,0,3645.33,0.0844447,0.0841299,-4.00209,3,0.00691973,11,-0.000336696,-2.39771,0.350849,0.168163,-26.2327,0.0841299,
2,0,0,1,0,3645.37,0.0829492,0.0826856,-3.9613,3,0.00677071,11,-0.000327542,-2.40216,0.317676,0.185724,-28.6366,0.0826856,
2,0,0,1,0,3645.41,0.0814528,0.0811516,-3.91144,3,0.00662343,11,-0.000317419,-2.40766,0.318059,0.1855,-28.3357,0.08115162,
2,0,0,1,0,3645.45,0.0799528,0.0796345,-3.87216,3,0.00647735,11,-0.000308357,-2.41205,0.352866,0.167202,-25.2641,0.0796345,
2,0,0,1,0,3645.48,0.0784529,0.0781416,-3.83063,3,0.00633269,11,-0.000299332,-2.41673,0.343736,0.171644,-25.6918,0.0781416,
2,0,0,1,0,3645.52,0.0769565,0.0766209,-3.78792,3,0.00618991,11,-0.000290234,-2.4216,0.293446,0.201059,-29.7575,0.0766209,
2,0,0,1,0,3645.56,0.0754601,0.0751539,-3.74056,3,0.00604874,11,-0.000281118,-2.42706,0.296144,0.199228,-29.1649,0.0751539,
2,0,0,1,0,3645.6,0.0739601,0.0736688,-3.70676,3,0.00590891,11,-0.000273073,-2.43101,0.294592,0.200277,-28.9569,0.0736688,
2,0,0,1,0,3645.63,0.0724601,0.0721939,-3.66841,3,0.00577055,11,-0.000264837,-2.43552,0.296297,0.199125,-28.4295,0.0721939,
2,0,0,1,0,3645.67,0.0709637,0.0706391,-3.62687,3,0.00563421,11,-0.000256199,-2.44047,0.253801,0.232466,-32.7534,0.0706391,
2,0,0,1,0,3645.71,0.0694682,0.069144,-3.56951,3,0.00549953,11,-0.00024681,-2.44739,0.265182,0.222489,-30.9853,0.069144,
2,0,0,1,0,3645.75,0.0679646,0.0676409,-3.52222,3,0.00536615,11,-0.000238246,-2.45318,0.278395,0.211929,-29.2198,0.0676409,
2,0,0,1,0,3645.78,0.0664691,0.066171,-3.47363,3,0.00523508,11,-0.000229853,-2.45922,0.268086,0.220079,-29.8652,0.066171,
2,0,0,1,0,3645.82,0.0649727,0.0646791,-3.42521,3,0.0051056,11,-0.00022154,-2.46531,0.237121,0.248819,-33.3011,0.0646791,
2,0,0,1,0,3645.86,0.0634727,0.0631363,-3.38124,3,0.00497775,11,-0.000213479,-2.47092,0.227125,0.259769,-34.2685,0.0631363,
2,0,0,1,0,3645.9,0.0619728,0.0616452,-3.32648,3,0.00485195,11,-0.000205062,-2.47801,0.222508,0.265159,-34.4368,0.0616452,
2,0,0,1,0,3645.93,0.0604764,0.0601317,-3.28276,3,0.00472832,11,-0.000197398,-2.48376,0.239484,0.246363,-31.4758,0.0601317,
2,0,0,1,0,3645.97,0.05898,0.0586731,-3.23493,3,0.00460641,11,-0.000189803,-2.49014,0.231777,0.254555,-32.0415,0.0586731,
2,0,0,1,0,3646.01,0.05748,0.0571555,-3.1862,3,0.0044859,11,-0.000182109,-2.49673,0.22572,0.261386,-32.4603,0.0571555,
2,0,0,1,0,3646.05,0.05598,0.055684,-3.12932,3,0.00436738,11,-0.000174253,-2.50455,0.233459,0.252721,-31.0061,0.055684,
2,0,0,1,0,3646.08,0.0544836,0.0541586,-3.08746,3,0.00425087,11,-0.000167212,-2.5104,0.27262,0.216418,-26.1568,0.0541586,
2,0,0,1,0,3646.12,0.0529881,0.052697,-3.05096,3,0.0041358,11,-0.000160777,-2.51556,0.26136,0.225742,-26.9191,0.052697,
2,0,0,1,0,3646.16,0.0514846,0.0511651,-3.00797,3,0.00402161,11,-0.000153903,-2.52173,0.245912,0.239924,-28.1995,0.0511651,
2,0,0,1,0,3646.2,0.049989,0.0496881,-2.96383,3,0.00390964,11,-0.000147267,-2.52815,0.26397,0.22351,-25.9364,0.0496881,
2,0,0,1,0,3646.23,0.0484926,0.048203,-2.93762,3,0.00379916,11,-0.000141602,-2.532,0.288876,0.20424,-23.3934,0.048203,
2,0,0,1,0,3646.27,0.0469927,0.0466968,-2.90811,3,0.00368951,11,-0.0001358,-2.53639,0.309747,0.190478,-21.5576,0.0466968,
2,0,0,1,0,3646.31,0.0454927,0.0452177,-2.87406,3,0.00358103,11,-0.000129958,-2.5415,0.309126,0.190861,-21.3815,0.0452177,
2,0,0,1,0,3646.35,0.0439963,0.0437129,-2.84183,3,0.00347403,11,-0.000124225,-2.5464,0.348535,0.16928,-18.8236,0.0437129,
2,0,0,1,0,3646.38,0.0424999,0.042168,-2.81564,3,0.00336807,11,-0.00011873,-2.55042,0.452634,0.130348,-14.3818,0.042168,
2,0,0,1,0,3646.42,0.0409999,0.0406704,-2.79612,3,0.00326268,11,-0.000113719,-2.55344,0.479922,0.122937,-13.4446,0.0406704,
2,0,0,1,0,3646.46,0.0394999,0.0391674,-2.78109,3,0.00315794,11,-0.000108928,-2.55578,0.499703,0.11807,-12.7937,0.0391674,
2,0,0,1,0,3646.5,0.0380044,0.0376608,-2.76632,3,0.0030542,11,-0.000104182,-2.5581,0.50252,0.117408,-12.6313,0.0376608,
2,0,0,1,0,3646.53,0.0365089,0.0362185,-2.74243,3,0.00295128,11,-9.93268e-05,-2.56186,0.630485,0.0935787,-10.0086,0.0362185,
2,0,0,1,0,3646.57,0.0350054,0.0346527,-2.7309,3,0.00284837,11,-9.4633e-05,-2.56369,0.90678,0.0650654,-6.919,0.0346527,
2,0,0,1,0,3646.61,0.033509,0.0331777,-2.71531,3,0.0027464,11,-9.00877e-05,-2.56618,0.843519,0.0699451,-7.4139,0.0331777,
2,0,0,1,0,3646.65,0.0320125,0.0316902,-2.70154,3,0.00264482,11,-8.56124e-05,-2.56839,0.874477,0.0674689,-7.13097,0.0316902,
2,0,0,1,0,3646.68,0.0305126,0.0301983,-2.68708,3,0.00254351,11,-8.11454e-05,-2.57072,0.945076,0.0624288,-6.58208,0.0301983,
2,0,0,1,0,3646.72,0.0290126,0.0286971,-2.68385,3,0.00244251,11,-7.70186e-05,-2.57124,3.20256,0.0184228,-1.93531,0.0286971,
2,0,0,1,0,3646.76,0.0275162,0.0272325,-2.68913,3,0.00234187,11,-7.32318e-05,-2.57039,4.19915,0.0140505,-1.47196,0.0272325,
2,0,0,1,0,3646.79,0.0260198,0.0257145,-2.68441,3,0.00224128,11,-6.90284e-05,-2.57115,1.68601,0.0349939,-3.65637,0.02571455,
2,0,0,1,0,3646.83,0.0245198,0.0241893,-2.6765,3,0.00214065,11,-6.47428e-05,-2.57243,1.96295,0.0300569,-3.13569,0.0241893,
2,0,0,1,0,3646.87,0.0230198,0.0227197,-2.67657,3,0.0020403,11,-6.08109e-05,-2.57242,-195.866,-0.000301227,0.0314458,0.0227197,
2,0,0,1,0,3646.91,0.0215243,0.0211921,-2.67634,3,0.0019401,11,-5.67171e-05,-2.57246,-4.75786,-0.0124005,1.29402,0.02119205,
2,0,0,1,0,3646.94,0.0200288,0.0197008,-2.67524,3,0.00183981,11,-5.27045e-05,-2.57264,5.52673,0.0106754,-1.11589,0.0197008,
2,0,0,1,0,3646.98,0.0185253,0.018203,-2.67377,3,0.00173897,11,-4.86707e-05,-2.57288,-6.29465,-0.00937304,0.981351,0.018203,
2,0,0,1,0,3647.02,0.0170289,0.0167147,-2.6737,3,0.00163879,11,-4.46901e-05,-2.57289,-1.67661,-0.0351901,3.69168,0.0167147,
2,0,0,1,0,3647.06,0.0155325,0.0152187,-2.68592,3,0.00153833,11,-4.08763e-05,-2.57091,-1.32737,-0.0444487,4.65337,0.0152187,
2,0,0,1,0,3647.09,0.0140325,0.0137169,-2.6958,3,0.0014372,11,-3.6978e-05,-2.56931,-1.87119,-0.0315307,3.30576,0.0137169,
2,0,0,1,0,3647.13,0.0125325,0.0122038,-2.70158,3,0.00133599,11,-3.29696e-05,-2.56838,-5.33172,-0.0110658,1.16271,0.0122038,
2,0,0,1,0,3647.17,0.0110361,0.0107157,-2.70376,3,0.00123501,11,-2.89726e-05,-2.56803,-1.99878,-0.0295179,3.10955,0.0107157,
2,0,0,1,0,3647.21,0.0095397,0.00924339,-2.70828,3,0.00113374,11,-2.50337e-05,-2.56731,-0.990969,-0.0595377,6.28806,0.00924339,
2,0,0,1,0,3647.24,0.00803616,0.00775628,-2.71369,3,0.00103157,11,-2.10482e-05,-2.56644,-1.08865,-0.0541958,5.75615,0.00775628,
2,0,0,1,0,3647.28,0.00654064,0.00624753,-2.71901,3,0.000929693,11,-1.69871e-05,-2.56559,-1.21369,-0.048612,5.18219,0.00624753,
2,0,0,1,0,3647.32,0.00504513,0.00475565,-2.72314,3,0.000827534,11,-1.29503e-05,-2.56493,-0.875627,-0.0673803,7.19954,0.00475565,
2,0,0,1,0,3647.36,0.00354515,0.00323747,-2.74256,3,0.000724728,11,-8.87898e-06,-2.56184,-0.350853,-0.168161,18.1374,0.00323747,
2,0,0,1,0,3647.39,0.00204518,0.00170032,-2.82287,3,0.000621015,11,-4.79977e-06,-2.54931,-0.594391,-0.0992613,10.6796,0.00170032,
2,0,0,1,0,3647.43,0.000548773,0.000183217,-2.78634,3,0.000516223,11,-5.10506e-07,-2.55497, , , ,0.000183217,
2,0,0,1,0,3647.44,0.000177222,-0.000181023,-2.77784,3,0.000490294,11,5.02853e-07,-2.55629, , , ,-0.0001810234,