File: Figure_codes/Fig_3-5/rawdata_trumpetplot_data/before 10th/20221101_1-115_002_TrumpetPlot_ParaChange_09_CV_C01_3.csv
mode,ox/red,error,control changes,counter inc.,time/s,control/V,Ewe/V,<I>/mA,cycle number,(Q-Qo)/C,I Range,P/W,log(|I|),Tafel slope mV/dec,alpha_eff,dI/d(E-IR),E-IR/V,
2,0,0,1,0,4879.17,2.44065e-05,-0.000153538,-4.22197,4,0.0000000E+000,11,6.48231e-07,-2.37448, , , ,-0.000153538,
2,0,0,1,0,4879.2,0.0013005,0.000919622,-0.974472,4,-5.16256e-05,11,-8.96146e-07,-3.01123, , , ,0.000919622,
2,1,0,1,0,4879.22,0.00279471,0.00245472,0.899297,4,-4.96092e-05,11,2.20752e-06,-3.0461,-0.0812388,-0.726254,941.974,0.00245472,
2,1,0,1,0,4879.25,0.00429425,0.00399666,1.66727,4,-1.62506e-05,11,6.6635e-06,-2.778,0.00580429,10.1649,414.543,0.00399666,
2,1,0,1,0,4879.27,0.00579379,0.00552159,2.01216,4,3.0522e-05,11,1.11103e-05,-2.69634,0.0212192,2.7805,199.593,0.00552159,
2,1,0,1,0,4879.3,0.007288,0.00698587,2.21372,4,8.35411e-05,11,1.54647e-05,-2.65488,0.0479192,1.23124,102.579,0.00698587,
2,1,0,1,0,4879.32,0.00878882,0.00850482,2.33246,4,0.000140497,11,1.98372e-05,-2.63219,0.0873891,0.675142,60.0478,0.008504821,
2,1,0,1,0,4879.35,0.0102896,0.0100157,2.39746,4,0.000199581,11,2.40123e-05,-2.62025,0.141117,0.418094,38.5769,0.0100157,
2,1,0,1,0,4879.37,0.0117838,0.0114709,2.43005,4,0.000259761,11,2.78748e-05,-2.61439,0.185846,0.317466,30.0806,0.0114709,
2,1,0,1,0,4879.4,0.0132834,0.0129427,2.46661,4,0.00032107,11,3.19245e-05,-2.6079,0.22968,0.25688,24.7873,0.0129427,
2,1,0,1,0,4879.42,0.0147816,0.0145078,2.507,4,0.000383388,11,3.63712e-05,-2.60085,0.248249,0.237665,23.197,0.0145078,
2,1,0,1,0,4879.45,0.0162811,0.0160276,2.53811,4,0.000446638,11,4.06798e-05,-2.59549,0.275277,0.21433,21.1891,0.0160276,
2,1,0,1,0,4879.47,0.0177753,0.0175296,2.56182,4,0.000510278,11,4.49077e-05,-2.59145,0.36,0.163889,16.3933,0.0175296,
2,1,0,1,0,4879.5,0.0192761,0.0189865,2.58483,4,0.000574737,11,4.90769e-05,-2.58757,0.415171,0.14211,14.3384,0.0189865,
2,1,0,1,0,4879.52,0.020777,0.0205431,2.61822,4,0.00063982,11,5.37866e-05,-2.58199,0.368047,0.160305,16.2941,0.0205431,
2,1,0,1,0,4879.55,0.0222712,0.0219926,2.64331,4,0.000705353,11,5.81334e-05,-2.57785,0.350047,0.168549,17.3341,0.02199265,
2,1,0,1,0,4879.57,0.0237707,0.0235194,2.65346,4,0.0007717,11,6.24077e-05,-2.57619,0.444422,0.132757,13.8081,0.0235194,
2,1,0,1,0,4879.6,0.0252703,0.0250084,2.67553,4,0.000838482,11,6.69108e-05,-2.57259,0.478678,0.123256,12.9337,0.0250084,
2,1,0,1,0,4879.62,0.0267645,0.0264652,2.71017,4,0.000905637,11,7.17254e-05,-2.567,0.345718,0.170659,17.9989,0.0264652,
2,1,0,1,0,4879.65,0.0282653,0.0279867,2.74046,4,0.000973755,11,7.66963e-05,-2.56218,0.328134,0.179805,19.1532,0.0279867,
2,1,0,1,0,4879.67,0.0297648,0.0294569,2.75329,4,0.0010425,11,8.11035e-05,-2.56015,0.395103,0.149328,16.038,0.0294569,
2,1,0,1,0,4879.7,0.031259,0.0309284,2.76555,4,0.00111148,11,8.55338e-05,-2.55822,0.478026,0.123424,13.3801,0.0309284,
2,1,0,1,0,4879.72,0.0327585,0.032494,2.80562,4,0.00118123,11,9.1166e-05,-2.55197,0.41894,0.140832,15.4047,0.032494,
2,1,0,1,0,4879.75,0.034258,0.0339929,2.82946,4,0.00125169,11,9.61817e-05,-2.5483,0.325017,0.181529,20.03,0.0339929,
2,1,0,1,0,4879.77,0.0357576,0.0354771,2.84836,4,0.00132284,11,0.000101051,-2.54541,0.390003,0.151281,16.849,0.0354771,
2,1,0,1,0,4879.8,0.0372518,0.0369891,2.87736,4,0.00139439,11,0.000106431,-2.54101,0.425474,0.138669,15.6156,0.0369891,
2,1,0,1,0,4879.82,0.0387526,0.0385214,2.91216,4,0.0014668,11,0.000112181,-2.53578,0.351565,0.167821,19.0912,0.0385214,
2,1,0,1,0,4879.85,0.0402534,0.039976,2.94217,4,0.00153999,11,0.000117616,-2.53133,0.281396,0.209669,24.0786,0.039976,
2,1,0,1,0,4879.87,0.0417476,0.0415014,2.97775,4,0.00161385,11,0.000123581,-2.52611,0.265748,0.222015,25.7959,0.0415014,
2,1,0,1,0,4879.89,0.0432472,0.0429776,3.01189,4,0.00168884,11,0.000129444,-2.52116,0.337297,0.17492,20.5802,0.0429776,
2,1,0,1,0,4879.92,0.0447467,0.0444902,3.04501,4,0.00176458,11,0.000135473,-2.51641,0.311219,0.189577,22.5508,0.0444902,
2,1,0,1,0,4879.94,0.0462463,0.0459648,3.08496,4,0.0018413,11,0.0001418,-2.51075,0.234781,0.251298,30.2141,0.04596477,
2,1,0,1,0,4879.97,0.0477391,0.0474656,3.11765,4,0.00191867,11,0.000147981,-2.50617,0.251843,0.234273,28.5988,0.0474656,
2,1,0,1,0,4879.99,0.0492399,0.0489448,3.15889,4,0.00199741,11,0.000154612,-2.50046,0.276683,0.21324,26.3496,0.04894482,
2,1,0,1,0,4880.02,0.0507408,0.0504756,3.20599,4,0.00207713,11,0.000161824,-2.49404,0.266967,0.221001,27.6918,0.0504756,
2,1,0,1,0,4880.04,0.052235,0.0519806,3.26041,4,0.00215768,11,0.000169478,-2.48673,0.211364,0.279139,35.4765,0.05198063,
2,1,0,1,0,4880.07,0.0537345,0.0534403,3.30937,4,0.00223986,11,0.000176854,-2.48025,0.206594,0.285584,36.9256,0.0534403,
2,1,0,1,0,4880.09,0.0552341,0.054959,3.36413,4,0.00232341,11,0.000184889,-2.47313,0.240542,0.24528,32.1686,0.054959,
2,1,0,1,0,4880.12,0.0567283,0.0564105,3.41477,4,0.00240795,11,0.000192629,-2.46664,0.230459,0.256011,34.148,0.0564105,
2,1,0,1,0,4880.14,0.0582291,0.05794,3.47279,4,0.00249401,11,0.000201214,-2.45932,0.207169,0.284791,38.5893,0.05794,
2,1,0,1,0,4880.17,0.0597299,0.0594534,3.53224,4,0.00258164,11,0.000210004,-2.45195,0.185928,0.317327,43.7205,0.0594534,
2,1,0,1,0,4880.19,0.0612228,0.0609341,3.5885,4,0.00267042,11,0.000218662,-2.44509,0.213017,0.276973,38.8189,0.0609341,
2,1,0,1,0,4880.22,0.0627223,0.0624583,3.66204,4,0.00276114,11,0.000228724,-2.43628,0.208338,0.283194,40.395,0.0624583,
2,1,0,1,0,4880.24,0.0642218,0.0639037,3.71906,4,0.00285336,11,0.000237662,-2.42957,0.191004,0.308895,44.8413,0.0639037,
2,1,0,1,0,4880.27,0.0657214,0.0654454,3.78292,4,0.00294724,11,0.000247575,-2.42217,0.180358,0.327127,48.3812,0.0654454,
2,1,0,1,0,4880.29,0.0672156,0.0669416,3.85764,4,0.00304251,11,0.000258237,-2.41368,0.191175,0.308619,46.4112,0.0669416,
2,1,0,1,0,4880.32,0.0687164,0.0684568,3.92936,4,0.00313994,11,0.000268992,-2.40568,0.216707,0.272257,41.6449,0.0684568,
2,1,0,1,0,4880.34,0.0702172,0.06996,3.9898,4,0.00323894,11,0.000279126,-2.39905,0.196508,0.300243,46.7345,0.06996,
2,1,0,1,0,4880.37,0.0717114,0.0714365,4.05976,4,0.00333922,11,0.000290015,-2.3915,0.185692,0.317731,50.3587,0.0714365,
2,1,0,1,0,4880.39,0.073211,0.072956,4.13319,4,0.00344176,11,0.000301541,-2.38371,0.206107,0.28626,46.1818,0.072956,
2,1,0,1,0,4880.42,0.0747105,0.0744351,4.20456,4,0.00354611,11,0.000312966,-2.37628,0.221338,0.26656,43.7036,0.0744351,
2,1,0,1,0,4880.44,0.0762101,0.075913,4.26876,4,0.00365214,11,0.000324054,-2.3697,0.213071,0.276903,46.1311,0.075913,
2,1,0,1,0,4880.47,0.0777042,0.0774213,4.33803,4,0.00375941,11,0.000335856,-2.36271,0.202876,0.290819,49.3057,0.07742133,
2,1,0,1,0,4880.49,0.0792037,0.0789443,4.41182,4,0.00386889,11,0.000348288,-2.35538,0.220797,0.267214,45.9909,0.0789443,
2,1,0,1,0,4880.52,0.0807046,0.0804261,4.48584,4,0.00398023,11,0.000360779,-2.34816,0.243061,0.242737,42.3668,0.0804261,
2,1,0,1,0,4880.54,0.0821988,0.0819482,4.55049,4,0.00409276,11,0.000372904,-2.34194,0.249151,0.236804,41.9769,0.0819482,
2,1,0,1,0,4880.57,0.0836983,0.0834076,4.60671,4,0.0042073,11,0.000384235,-2.33661,0.234308,0.251805,45.3407,0.0834076,
2,1,0,1,0,4880.59,0.0851979,0.084914,4.66871,4,0.00432346,11,0.000396439,-2.3308,0.254592,0.231743,42.3273,0.084914,
2,1,0,1,0,4880.62,0.0866921,0.0864398,4.74359,4,0.00444082,11,0.000410035,-2.32389,0.287129,0.205482,37.9795,0.0864398,
2,1,0,1,0,4880.64,0.0881929,0.0879236,4.81185,4,0.00456029,11,0.000423076,-2.31769,0.274115,0.215238,40.279,0.0879236,
2,1,0,1,0,4880.67,0.0896937,0.0893941,4.85932,4,0.00468111,11,0.000434395,-2.31342,0.261909,0.225269,42.7624,0.0893941,
2,1,0,1,0,4880.69,0.0911879,0.0909151,4.91921,4,0.00480299,11,0.00044723,-2.30811,0.258521,0.228222,43.8475,0.0909151,
2,1,0,1,0,4880.72,0.0926861,0.0923978,4.98899,4,0.00492706,11,0.000460972,-2.30199,0.289359,0.203899,39.6754,0.0923978,
2,1,0,1,0,4880.74,0.0941856,0.0938897,5.05138,4,0.00505268,11,0.000474272,-2.29659,0.299859,0.196759,38.7567,0.0938897,
2,1,0,1,0,4880.77,0.0956852,0.0953958,5.09946,4,0.00517969,11,0.000486467,-2.29248,0.276911,0.213065,42.5199,0.0953958,
2,1,0,1,0,4880.79,0.0971794,0.0968907,5.16414,4,0.00530767,11,0.000500357,-2.287,0.266873,0.221079,44.6366,0.0968907,
2,1,0,1,0,4880.82,0.0986802,0.098382,5.23913,4,0.00543789,11,0.000515436,-2.28074,0.284466,0.207406,42.366,0.098382,
2,1,0,1,0,4880.84,0.100181,0.0999167,5.31164,4,0.00556978,11,0.000530721,-2.27477,0.287025,0.205557,42.4871,0.0999167,
2,1,0,1,0,4880.87,0.101675,0.101396,5.35786,4,0.0057027,11,0.000543268,-2.27101,0.261909,0.225269,47.1908,0.1013964,
2,1,0,1,0,4880.89,0.103175,0.102903,5.42697,4,0.00583769,11,0.00055845,-2.26544,0.266391,0.221479,47.0401,0.102903,
2,1,0,1,0,4880.92,0.104674,0.104376,5.51005,4,0.00597453,11,0.000575117,-2.25884,0.241473,0.244333,52.5956,0.104376,
2,1,0,1,0,4880.94,0.106169,0.105888,5.60162,4,0.00611288,11,0.000593143,-2.25169,0.221548,0.266308,58.1086,0.105888,
2,1,0,1,0,4880.97,0.107668,0.107413,5.6836,4,0.00625402,11,0.000610494,-2.24538,0.209027,0.28226,62.6529,0.107413,
2,1,0,1,0,4880.99,0.109169,0.108864,5.76525,4,0.00639726,11,0.000627626,-2.23918,0.210006,0.280945,63.4364,0.108864,
2,1,0,1,0,4881.02,0.110663,0.110372,5.87333,4,0.00654237,11,0.000648248,-2.23112,0.197816,0.298257,68.4492,0.110372,
2,1,0,1,0,4881.04,0.112163,0.111883,5.98694,4,0.00669072,11,0.000669839,-2.22279,0.187708,0.314318,73.3866,0.111883,
2,1,0,1,0,4881.07,0.113662,0.113389,6.10011,4,0.00684189,11,0.000691688,-2.21466,0.175944,0.335335,79.8532,0.113389,
2,1,0,1,0,4881.09,0.115162,0.114827,6.20981,4,0.00699584,11,0.000713054,-2.20692,0.173089,0.340864,82.8498,0.114827,
2,1,0,1,0,4881.12,0.116656,0.116341,6.34771,4,0.00715236,11,0.000738501,-2.19738,0.162511,0.363053,90.0359,0.116341,
2,1,0,1,0,4881.14,0.118157,0.117896,6.50139,4,0.00731304,11,0.000766488,-2.18699,0.156738,0.376425,95.3886,0.117896,
2,1,0,1,0,4881.17,0.119657,0.119392,6.64357,4,0.00747736,11,0.000793187,-2.1776,0.154349,0.38225,99.1298,0.119392,
2,1,0,1,0,4881.19,0.121152,0.120866,6.77912,4,0.0076446,11,0.000819365,-2.16883,0.151033,0.390643,103.662,0.120866,
2,1,0,1,0,4881.22,0.122651,0.122365,6.95013,4,0.0078164,11,0.00085045,-2.15801,0.146978,0.401421,108.912,0.1223646,
2,1,0,1,0,4881.24,0.124151,0.123871,7.12047,4,0.00799234,11,0.000882017,-2.14749,0.145352,0.405911,112.706,0.123871,
2,1,0,1,0,4881.27,0.125649,0.125358,7.28262,4,0.00817249,11,0.000912933,-2.13771,0.145961,0.404217,114.842,0.125358,
2,1,0,1,0,4881.29,0.127143,0.126855,7.43739,4,0.00835609,11,0.000943469,-2.12858,0.151168,0.390293,113.532,0.126855,
2,1,0,1,0,4881.32,0.128644,0.128386,7.62073,4,0.00854457,11,0.000978397,-2.118,0.160495,0.367613,109.379,0.128386,
2,1,0,1,0,4881.34,0.130145,0.129854,7.79996,4,0.00873739,11,0.00101286,-2.10791,0.15998,0.368796,112.099,0.129854,
2,1,0,1,0,4881.37,0.131639,0.131364,7.9703,4,0.0089338,11,0.00104701,-2.09853,0.162442,0.363207,112.745,0.131364,
2,1,0,1,0,4881.39,0.133139,0.132894,8.1275,4,0.0091352,11,0.0010801,-2.09004,0.174462,0.338183,107.294,0.132894,
2,1,0,1,0,4881.42,0.134638,0.134368,8.28321,4,0.00934046,11,0.001113,-2.0818,0.185589,0.317908,102.861,0.134368,
2,1,0,1,0,4881.44,0.136132,0.135796,8.44894,4,0.00954891,11,0.00114733,-2.0732,0.189797,0.310858,102.321,0.135796,
2,1,0,1,0,4881.47,0.137633,0.137388,8.60421,4,0.0097621,11,0.00118212,-2.06529,0.195035,0.302511,101.361,0.137388,
2,1,0,1,0,4881.49,0.139133,0.138833,8.73998,4,0.00997898,11,0.0012134,-2.05849,0.223151,0.264395,90.0382,0.138833,
2,1,0,1,0,4881.52,0.140627,0.140332,8.86098,4,0.0101983,11,0.00124348,-2.05252,0.252005,0.234122,80.9401,0.140332,
2,1,0,1,0,4881.54,0.142126,0.141845,8.98877,4,0.0104215,11,0.00127501,-2.0463,0.262437,0.224815,78.7308,0.141845,
2,1,0,1,0,4881.57,0.143626,0.143344,9.0986,4,0.0106478,11,0.00130423,-2.04103,0.29865,0.197556,70.042,0.143344,
2,1,0,1,0,4881.59,0.145125,0.144858,9.18846,4,0.0108766,11,0.00133102,-2.03676,0.393583,0.149905,53.6933,0.144858,
2,1,0,1,0,4881.62,0.14662,0.146324,9.25357,4,0.0111065,11,0.00135402,-2.03369,0.541492,0.108958,39.308,0.146324,
2,1,0,1,0,4881.64,0.14812,0.14783,9.32439,4,0.0113388,11,0.00137842,-2.03038,0.784706,0.0751874,27.2723,0.14783,
2,1,0,1,0,4881.67,0.149621,0.149313,9.35023,4,0.0115723,11,0.00139611,-2.02918,1.50621,0.0391711,14.2495,0.1493127,
2,1,0,1,0,4881.69,0.151116,0.150807,9.34698,4,0.0118053,11,0.00140959,-2.02933,-2.50548,-0.0235484,-8.56617,0.150807,
2,1,0,1,0,4881.72,0.152615,0.152319,9.31776,4,0.0120389,11,0.00141927,-2.03069,-0.638801,-0.0923605,-33.5051,0.1523193,
2,1,0,1,0,4881.74,0.154115,0.153841,9.26566,4,0.0122713,11,0.00142543,-2.03312,-0.407554,-0.144766,-52.1738,0.1538406,
2,1,0,1,0,4881.77,0.155614,0.155308,9.17228,4,0.0125018,11,0.00142453,-2.03752,-0.28566,-0.20654,-73.6191,0.155308,
2,1,0,1,0,4881.79,0.157107,0.156798,9.03183,4,0.0127287,11,0.00141617,-2.04422,-0.20158,-0.292687,-102.71,0.156798,
2,1,0,1,0,4881.82,0.158608,0.158329,8.85662,4,0.0129526,11,0.00140226,-2.05273,-0.148828,-0.396431,-136.419,0.158329,
2,1,0,1,0,4881.84,0.160109,0.159809,8.63268,4,0.0131712,11,0.00137958,-2.06385,-0.119498,-0.493732,-165.506,0.159809,
2,1,0,1,0,4881.87,0.161603,0.161319,8.36866,4,0.013383,11,0.00135003,-2.07734,-0.10501,-0.561854,-182.528,0.161319,
2,1,0,1,0,4881.89,0.163102,0.162854,8.06302,4,0.0135886,11,0.0013131,-2.0935,-0.0863663,-0.683137,-214.145,0.162854,
2,1,0,1,0,4881.92,0.164602,0.164314,7.73027,4,0.0137861,11,0.00127019,-2.11181,-0.0760379,-0.775929,-233.083,0.164314,
2,1,0,1,0,4881.94,0.166096,0.165818,7.36922,4,0.0139741,11,0.00122195,-2.13258,-0.0687589,-0.858071,-245.952,0.165818,
2,1,0,1,0,4881.97,0.167597,0.167329,6.99676,4,0.0141537,11,0.00117076,-2.1551,-0.0661459,-0.891968,-243.016,0.167329,
2,1,0,1,0,4881.99,0.169098,0.168843,6.62523,4,0.014324,11,0.00111863,-2.1788,-0.062515,-0.943774,-244.059,0.1688433,
2,1,0,1,0,4882.02,0.170592,0.170307,6.26383,4,0.0144846,11,0.00106677,-2.20316,-0.060493,-0.975319,-238.697,0.170307,
2,1,0,1,0,4882.04,0.17209,0.17183,5.92195,4,0.014637,11,0.00101757,-2.22754,-0.063029,-0.936078,-217.024,0.17183,
2,1,0,1,0,4882.07,0.17359,0.173333,5.61802,4,0.0147812,11,0.000973786,-2.25042,-0.0657797,-0.896933,-197.106,0.173333,
2,1,0,1,0,4882.09,0.175089,0.174831,5.32972,4,0.014918,11,0.000931801,-2.2733,-0.0709164,-0.831965,-173.868,0.174831,
2,1,0,1,0,4882.12,0.176583,0.176308,5.08361,4,0.0150478,11,0.000896283,-2.29383,-0.0724776,-0.814045,-162.085,0.176308,
2,1,0,1,0,4882.14,0.178084,0.177837,4.86869,4,0.0151722,11,0.000865836,-2.31259,-0.0797894,-0.739446,-140.898,0.177837,
2,1,0,1,0,4882.17,0.179585,0.179317,4.67721,4,0.0152914,11,0.000838706,-2.33001,-0.0916673,-0.643632,-117.858,0.179317,
2,1,0,1,0,4882.19,0.181079,0.180841,4.50257,4,0.0154058,11,0.000814252,-2.34654,-0.099343,-0.593902,-104.792,0.1808414,
2,1,0,1,0,4882.22,0.182579,0.182337,4.3519,4,0.0155166,11,0.000793512,-2.36132,-0.1025,-0.575609,-98.0699,0.182337,
2,1,0,1,0,4882.24,0.184078,0.183805,4.22909,4,0.0156239,11,0.000777329,-2.37375,-0.109971,-0.536507,-88.517,0.183805,
2,1,0,1,0,4882.27,0.185578,0.185319,4.09482,4,0.0157278,11,0.000758847,-2.38776,-0.122452,-0.48182,-77.1579,0.185319,
2,1,0,1,0,4882.29,0.187072,0.186762,3.98378,4,0.0158284,11,0.000744019,-2.39971,-0.132916,-0.443888,-69.0769,0.186762,
2,1,0,1,0,4882.32,0.188573,0.188296,3.88205,4,0.0159268,11,0.000730976,-2.41094,-0.132203,-0.446285,-67.6582,0.188296,
2,1,0,1,0,4882.34,0.190072,0.189797,3.7864,4,0.0160227,11,0.000718647,-2.42177,-0.138735,-0.425271,-62.8464,0.189797,
2,1,0,1,0,4882.37,0.191567,0.191305,3.69032,4,0.0161159,11,0.000705978,-2.43294,-0.152831,-0.386048,-55.7601,0.191305,
2,1,0,1,0,4882.39,0.193066,0.192786,3.60917,4,0.0162073,11,0.000695796,-2.44259,-0.175703,-0.335794,-47.4503,0.192786,
2,1,0,1,0,4882.42,0.194566,0.194295,3.53645,4,0.0162968,11,0.000687116,-2.45143,-0.162819,-0.362365,-50.1283,0.194295,
2,1,0,1,0,4882.44,0.19606,0.195785,3.47656,4,0.0163842,11,0.000680657,-2.45885,-0.161631,-0.365029,-49.412,0.195785,
2,1,0,1,0,4882.47,0.197561,0.197275,3.40458,4,0.0164702,11,0.00067164,-2.46794,-0.189766,-0.31091,-41.2981,0.197275,
2,1,0,1,0,4882.49,0.199062,0.198774,3.34065,4,0.0165545,11,0.000664035,-2.47617,-0.201148,-0.293316,-38.3065,0.198774,
2,1,0,1,0,4882.52,0.200556,0.200275,3.28346,4,0.0166371,11,0.000657594,-2.48367,-0.209484,-0.281644,-36.1396,0.200275,
2,1,0,1,0,4882.54,0.202055,0.201744,3.23951,4,0.0167187,11,0.000653552,-2.48952,-0.202092,-0.291946,-36.792,0.201744,
2,1,0,1,0,4882.57,0.203553,0.2033,3.18418,4,0.016799,11,0.000647346,-2.497,-0.253419,-0.232816,-28.9527,0.2033,
2,1,0,1,0,4882.59,0.205053,0.204757,3.13115,4,0.016878,11,0.000641124,-2.5043,-0.31664,-0.186331,-22.9565,0.204757,
2,1,0,1,0,4882.62,0.206547,0.206256,3.09369,4,0.0169557,11,0.000638091,-2.50952,-0.280632,-0.210239,-25.4631,0.206256,
2,1,0,1,0,4882.64,0.208048,0.20777,3.0716,4,0.0170331,11,0.000638186,-2.51264,-0.25666,-0.229876,-27.4278,0.20777,
2,1,0,1,0,4882.67,0.209549,0.2093,3.03325,4,0.0171094,11,0.000634859,-2.51809,-0.265886,-0.2219,-26.2302,0.2093,
2,1,0,1,0,4882.69,0.211043,0.21081,2.98714,4,0.0171844,11,0.000629719,-2.52474,-0.30764,-0.191782,-22.4156,0.2108103,
2,1,0,1,0,4882.72,0.212543,0.212236,2.95732,4,0.0172588,11,0.00062765,-2.5291,-0.340233,-0.173411,-20.0605,0.212236,
2,1,0,1,0,4882.74,0.214042,0.213738,2.93582,4,0.0173325,11,0.000627498,-2.53227,-0.352978,-0.167149,-19.1306,0.213738,
2,1,0,1,0,4882.77,0.215536,0.215297,2.91199,4,0.0174053,11,0.000626941,-2.53581,-0.37301,-0.158173,-17.9272,0.215297,
2,1,0,1,0,4882.79,0.217036,0.216756,2.87175,4,0.0174777,11,0.000622469,-2.54185,-0.447596,-0.131815,-14.8236,0.216756,
2,1,0,1,0,4882.82,0.218537,0.218254,2.84945,4,0.0175494,11,0.000621902,-2.54524,-0.515412,-0.114472,-12.7656,0.218254,
2,1,0,1,0,4882.84,0.220031,0.219773,2.84132,4,0.0176204,11,0.000624444,-2.54648,-0.412512,-0.143026,-15.8211,0.219773,
2,1,0,1,0,4882.87,0.22153,0.221271,2.82013,4,0.0176912,11,0.000624014,-2.54973,-0.529608,-0.111403,-12.2341,0.2212712,
2,1,0,1,0,4882.89,0.22303,0.222775,2.78816,4,0.0177614,11,0.000621135,-2.55468,-0.593294,-0.0994449,-10.8588,0.222775,
2,1,0,1,0,4882.92,0.224529,0.224241,2.76895,4,0.0178311,11,0.000620913,-2.55768,-0.505939,-0.116615,-12.6617,0.224241,
2,1,0,1,0,4882.94,0.226024,0.225779,2.76076,4,0.0179001,11,0.000623322,-2.55897,-0.510286,-0.115621,-12.4457,0.225779,
2,1,0,1,0,4882.97,0.227525,0.227242,2.74856,4,0.0179691,11,0.000624588,-2.5609,-0.521184,-0.113204,-12.1072,0.227242,
2,1,0,1,0,4882.99,0.229025,0.228735,2.73154,4,0.0180376,11,0.000624798,-2.56359,-0.71703,-0.0822839,-8.76226,0.228735,
2,1,0,1,0,4883.02,0.23052,0.230243,2.70915,4,0.0181054,11,0.000623762,-2.56717,-0.580701,-0.101601,-10.7837,0.230243,
2,1,0,1,0,4883.04,0.232019,0.231735,2.70202,4,0.0181731,11,0.000626151,-2.56831,-0.690678,-0.0854233,-8.99638,0.231735,
2,1,0,1,0,4883.07,0.233519,0.23328,2.69787,4,0.0182406,11,0.000629359,-2.56898,-0.849162,-0.0694803,-7.2821,0.23328,
2,1,0,1,0,4883.09,0.235018,0.23475,2.67302,4,0.0183078,11,0.000627493,-2.573,-0.950011,-0.0621046,-6.49495,0.2347502,
2,1,0,1,0,4883.12,0.236511,0.236228,2.65551,4,0.0183743,11,0.000627307,-2.57585,-0.734924,-0.0802804,-8.35305,0.236228,
2,1,0,1,0,4883.14,0.238012,0.237775,2.65524,4,0.0184408,11,0.00063135,-2.5759,-0.886892,-0.0665245,-6.8704,0.237775,
2,1,0,1,0,4883.17,0.239513,0.239252,2.64813,4,0.0185071,11,0.000633571,-2.57706,-0.896146,-0.0658375,-6.78302,0.239252,
2,1,0,1,0,4883.19,0.241007,0.240743,2.62958,4,0.0185729,11,0.000633052,-2.58011,-0.981679,-0.0601011,-6.17001,0.240743,
2,1,0,1,0,4883.22,0.242506,0.242235,2.6088,4,0.0186386,11,0.000631943,-2.58356,-0.708575,-0.0832657,-8.53127,0.242235,
2,1,0,1,0,4883.24,0.244006,0.243733,2.61129,4,0.018704,11,0.000636457,-2.58314,-0.965925,-0.0610813,-6.22632,0.243733,
2,1,0,1,0,4883.27,0.2455,0.245225,2.61284,4,0.018769,11,0.000640736,-2.58289,-0.987186,-0.0597658,-6.06236,0.245225,
2,1,0,1,0,4883.29,0.247001,0.246704,2.59745,4,0.0188342,11,0.000640801,-2.58545,-1.10291,-0.0534951,-5.40979,0.246704,
2,1,0,1,0,4883.32,0.248502,0.248215,2.5739,4,0.018899,11,0.00063888,-2.58941,-0.847773,-0.0695941,-7.02904,0.2482149,
2,1,0,1,0,4883.34,0.249995,0.249705,2.57451,4,0.0189632,11,0.000642868,-2.5893,-0.820438,-0.0719128,-7.23043,0.249705,
2,1,0,1,0,4883.37,0.251494,0.251211,2.57168,4,0.0190276,11,0.000646035,-2.58978,-1.47822,-0.039913,-3.99134,0.251211,
2,1,0,1,0,4883.39,0.252994,0.252732,2.55665,4,0.0190919,11,0.000646147,-2.59233,-1.10729,-0.0532833,-5.319,0.252732,
2,1,0,1,0,4883.42,0.254493,0.254193,2.54351,4,0.0191558,11,0.000646545,-2.59457,-0.956636,-0.0616745,-6.14949,0.254193,
2,1,0,1,0,4883.44,0.255988,0.255668,2.54255,4,0.0192192,11,0.000650049,-2.59473,-0.890966,-0.0662203,-6.58352,0.255668,
2,1,0,1,0,4883.47,0.257488,0.25727,2.54372,4,0.0192828,11,0.000654423,-2.59453,-2.1779,-0.0270903,-2.6758,0.25727,
2,1,0,1,0,4883.49,0.258989,0.258766,2.53456,4,0.0193464,11,0.000655858,-2.5961,-2.98109,-0.0197914,-1.95207,0.258766,
2,1,0,1,0,4883.52,0.260483,0.260227,2.5205,4,0.0194095,11,0.000655904,-2.59851,-0.8356,-0.0706079,-6.95897,0.260227,
2,1,0,1,0,4883.54,0.261983,0.261706,2.50618,4,0.0194724,11,0.000655883,-2.60099,-0.847166,-0.0696439,-6.84469,0.261706,
2,1,0,1,0,4883.57,0.263482,0.26321,2.51026,4,0.0195353,11,0.000660727,-2.60028,-2.24337,-0.0262997,-2.56904,0.26321,
2,1,0,1,0,4883.59,0.264982,0.264719,2.49951,4,0.019598,11,0.000661668,-2.60214,-3.1623,-0.0186573,-1.82266,0.264719,
2,1,0,1,0,4883.62,0.266476,0.266246,2.48759,4,0.0196603,11,0.000662312,-2.60422,-0.847308,-0.0696323,-6.78698,0.266246,
2,1,0,1,0,4883.64,0.267976,0.267708,2.48223,4,0.0197227,11,0.000664513,-2.60516,-0.873487,-0.0675454,-6.55432,0.267708,
2,1,0,1,0,4883.67,0.269477,0.269205,2.48685,4,0.0197848,11,0.000669471,-2.60435,-2.18684,-0.0269796,-2.61306,0.269205,
2,1,0,1,0,4883.69,0.270971,0.270703,2.48121,4,0.0198466,11,0.000671671,-2.60534,-3.78984,-0.0155679,-1.50249,0.2707032,
2,1,0,1,0,4883.72,0.27247,0.272165,2.4646,4,0.0199087,11,0.000670778,-2.60825,-0.948048,-0.0622331,-5.99391,0.272165,
2,1,0,1,0,4883.74,0.27397,0.27371,2.45576,4,0.0199704,11,0.000672167,-2.60981,-0.681471,-0.0865774,-8.3231,0.27371,
2,1,0,1,0,4883.77,0.275464,0.275144,2.46004,4,0.0200316,11,0.000676866,-2.60906,-1.53372,-0.0384685,-3.68717,0.275144,
2,1,0,1,0,4883.79,0.276965,0.276665,2.44974,4,0.0200931,11,0.000677758,-2.61088,-3.18492,-0.0185248,-1.77197,0.2766653,
2,1,0,1,0,4883.82,0.278466,0.278198,2.43995,4,0.0201543,11,0.000678789,-2.61262,-0.853652,-0.0691148,-6.59244,0.278198,
2,1,0,1,0,4883.84,0.27996,0.279689,2.44123,4,0.0202152,11,0.000682784,-2.61239,-0.98001,-0.0602035,-5.72641,0.279689,
2,1,0,1,0,4883.87,0.281458,0.281186,2.43708,4,0.0202761,11,0.000685274,-2.61313,-1.39128,-0.0424071,-4.02064,0.281186,
2,1,0,1,0,4883.89,0.282958,0.282655,2.42454,4,0.0203369,11,0.00068531,-2.61537,2.88749,0.0204329,1.93292,0.282655,
2,1,0,1,0,4883.92,0.284457,0.284158,2.41546,4,0.0203976,11,0.000686371,-2.617,-1.26086,-0.0467934,-4.42574,0.284158,
2,1,0,1,0,4883.94,0.285951,0.285663,2.41468,4,0.020458,11,0.000689786,-2.61714,-0.781927,-0.0754546,-7.10842,0.285663,
2,1,0,1,0,4883.97,0.287452,0.287201,2.40853,4,0.0205183,11,0.000691732,-2.61825,-1.27189,-0.0463878,-4.35609,0.287201,
2,1,0,1,0,4883.99,0.288953,0.288705,2.40047,4,0.0205785,11,0.000693029,-2.6197,-12.7481,-0.00462812,-0.433611,0.288705,
2,1,0,1,0,4884.01,0.290447,0.290198,2.3913,4,0.0206384,11,0.00069395,-2.62137,-1.5034,-0.0392443,-3.67587,0.290198,
2,1,0,1,0,4884.04,0.291947,0.291675,2.38923,4,0.0206984,11,0.00069688,-2.62174,-0.660964,-0.0892635,-8.33095,0.291675,
2,1,0,1,0,4884.06,0.293446,0.293206,2.38406,4,0.0207582,11,0.000699019,-2.62268,-1.39213,-0.0423811,-3.94531,0.293206,
2,1,0,1,0,4884.09,0.29494,0.294717,2.38133,4,0.0208175,11,0.000701818,-2.62318,-23.8041,-0.00247856,-0.230445,0.2947166,
2,1,0,1,0,4884.11,0.29644,0.296195,2.37638,4,0.0208771,11,0.000703872,-2.62408,-2.40144,-0.0245686,-2.27789,0.296195,
2,1,0,1,0,4884.14,0.297941,0.297707,2.37112,4,0.0209366,11,0.0007059,-2.62505,-0.807692,-0.0730477,-6.74956,0.297707,
2,1,0,1,0,4884.16,0.29944,0.299201,2.36876,4,0.0209959,11,0.000708737,-2.62548,-0.00314561,-18.7563,-971.173,0.2992014,
2,1,0,1,0,4884.18,0.299736,0.299526,1.62822,4,0.0210255,11,0.000487696,-2.78829,0.00171168,34.4691,2356.51,0.299526,
2,0,0,1,0,4884.2,0.298238,0.297931,-0.25786,4,0.0210366,11,-7.68245e-05,-3.58862,0.00734221,8.03573,834.049,0.297931,
2,0,0,1,0,4884.23,0.296744,0.296436,-0.667463,4,0.0210238,11,-0.00019786,-3.17557,-0.00369327,-15.975,220.343,0.296436,
2,0,0,1,0,4884.25,0.295243,0.294906,-0.803051,4,0.0210051,11,-0.000236825,-3.09526,-0.022885,-2.57811,72.9407,0.294906,
2,0,0,1,0,4884.28,0.293742,0.293431,-0.872738,4,0.020984,11,-0.000256088,-3.05912,-0.044184,-1.33533,44.2029,0.293431,
2,0,0,1,0,4884.3,0.292248,0.291938,-0.921394,4,0.0209616,11,-0.00026899,-3.03555,-0.0572379,-1.03079,37.0962,0.2919381,
2,0,0,1,0,4884.33,0.290748,0.290456,-0.976574,4,0.0209378,11,-0.000283652,-3.01029,-0.0704979,-0.836904,31.7123,0.290456,
2,0,0,1,0,4884.35,0.289249,0.288931,-1.02747,4,0.0209126,11,-0.000296868,-2.98823,-0.0820154,-0.719377,28.6372,0.288931,
2,0,0,1,0,4884.38,0.287754,0.287459,-1.07151,4,0.0208865,11,-0.000308013,-2.97001,-0.0879756,-0.67064,27.7307,0.287459,
2,0,0,1,0,4884.4,0.286254,0.285901,-1.09473,4,0.0208593,11,-0.000312985,-2.96069,-0.0955599,-0.617414,26.6322,0.2859008,
2,0,0,1,0,4884.43,0.284754,0.284455,-1.13652,4,0.0208312,11,-0.000323288,-2.94442,-0.115367,-0.51141,22.6932,0.284455,
2,0,0,1,0,4884.45,0.28326,0.282999,-1.18136,4,0.0208022,11,-0.000334324,-2.92762,-0.130517,-0.452048,20.6079,0.2829988,
2,0,0,1,0,4884.48,0.28176,0.281433,-1.20643,4,0.0207724,11,-0.000339529,-2.9185,-0.131969,-0.447076,20.8918,0.2814326,
2,0,0,1,0,4884.5,0.280261,0.279986,-1.2231,4,0.0207418,11,-0.00034245,-2.91254,-0.14665,-0.402318,19.3495,0.279986,
2,0,0,1,0,4884.53,0.278761,0.278483,-1.25392,4,0.0207106,11,-0.000349195,-2.90173,-0.176229,-0.334792,16.4908,0.278483,
2,0,0,1,0,4884.55,0.277267,0.276956,-1.28908,4,0.0206788,11,-0.000357018,-2.88972,-0.18935,-0.311592,15.6133,0.276956,
2,0,0,1,0,4884.58,0.275766,0.275454,-1.31621,4,0.0206462,11,-0.000362554,-2.88068,-0.195835,-0.301273,15.3403,0.275454,
2,0,0,1,0,4884.6,0.274265,0.273954,-1.33526,4,0.020613,11,-0.000365798,-2.87444,-0.19213,-0.307084,16.0174,0.273954,
2,0,0,1,0,4884.63,0.272771,0.272502,-1.35316,4,0.0205795,11,-0.00036874,-2.86865,-0.218539,-0.269974,14.3669,0.272502,
2,0,0,1,0,4884.65,0.271272,0.270963,-1.38403,4,0.0205452,11,-0.000375021,-2.85885,-0.200152,-0.294776,15.8601,0.270963,
2,0,0,1,0,4884.68,0.269772,0.269492,-1.40841,4,0.0205102,11,-0.000379557,-2.85127,-0.195034,-0.302511,16.5128,0.269492,
2,0,0,1,0,4884.7,0.268273,0.267958,-1.4194,4,0.0204748,11,-0.00038034,-2.84789,-0.23565,-0.250372,13.9122,0.267958,
2,0,0,1,0,4884.73,0.26678,0.266501,-1.43611,4,0.0204391,11,-0.000382725,-2.84281,-0.287165,-0.205457,11.5947,0.266501,
2,0,0,1,0,4884.75,0.265279,0.265022,-1.4668,4,0.0204027,11,-0.000388735,-2.83363,-0.226943,-0.259977,14.7799,0.265022,
2,0,0,1,0,4884.78,0.263778,0.263492,-1.48475,4,0.0203658,11,-0.000391219,-2.82835,-0.218154,-0.270451,15.5865,0.263492,
2,0,0,1,0,4884.8,0.262284,0.261978,-1.49345,4,0.0203286,11,-0.00039125,-2.82581,-0.259947,-0.226969,13.2949,0.261978,
2,0,0,1,0,4884.83,0.260784,0.260485,-1.50852,4,0.0202908,11,-0.000392946,-2.82145,-0.331447,-0.178007,10.5583,0.260485,
2,0,0,1,0,4884.85,0.259285,0.259,-1.54114,4,0.0202526,11,-0.000399154,-2.81216,-0.329597,-0.179006,10.7241,0.259,
2,0,0,1,0,4884.88,0.257791,0.257492,-1.56417,4,0.020214,11,-0.000402761,-2.80572,-0.295068,-0.199954,12.1152,0.257492,
2,0,0,1,0,4884.9,0.25629,0.255948,-1.57227,4,0.0201747,11,-0.00040242,-2.80347,-0.325517,-0.18125,11.0857,0.255948,
2,0,0,1,0,4884.93,0.254789,0.254464,-1.58109,4,0.0201351,11,-0.000402331,-2.80104,-0.3915,-0.150702,9.3561,0.254464,
2,0,0,1,0,4884.95,0.253296,0.252955,-1.60603,4,0.0200954,11,-0.000406255,-2.79425,-0.360218,-0.16379,10.2588,0.252955,
2,0,0,1,0,4884.98,0.251797,0.251504,-1.62292,4,0.020055,11,-0.000408171,-2.7897,-0.257992,-0.22869,14.4693,0.251504,
2,0,0,1,0,4885,0.250297,0.249978,-1.63427,4,0.0200141,11,-0.000408532,-2.78668,-0.341531,-0.172752,11.0526,0.249978,
2,0,0,1,0,4885.03,0.248797,0.248508,-1.65227,4,0.0199728,11,-0.000410602,-2.78192,-0.425109,-0.138788,8.99319,0.248508,
2,0,0,1,0,4885.05,0.247303,0.246978,-1.66975,4,0.0199314,11,-0.000412391,-2.77735,-0.43619,-0.135262,8.80667,0.246978,
2,0,0,1,0,4885.08,0.245802,0.245508,-1.69233,4,0.0198893,11,-0.00041548,-2.77152,-0.261267,-0.225822,14.8212,0.245508,
2,0,0,1,0,4885.1,0.244302,0.244019,-1.70501,4,0.0198467,11,-0.000416055,-2.76827,-0.311866,-0.189184,12.58,0.2440192,
2,0,0,1,0,4885.13,0.242807,0.242517,-1.71543,4,0.019804,11,-0.000416022,-2.76563,-0.654677,-0.0901207,6.06406,0.242517,
2,0,0,1,0,4885.15,0.241308,0.241021,-1.73183,4,0.0197608,11,-0.000417408,-2.76149,-0.457442,-0.128978,8.73567,0.241021,
2,0,0,1,0,4885.18,0.239808,0.23951,-1.75325,4,0.0197172,11,-0.000419919,-2.75616,-0.265542,-0.222187,15.1195,0.23951,
2,0,0,1,0,4885.2,0.238309,0.237998,-1.76413,4,0.0196731,11,-0.000419861,-2.75347,-0.302056,-0.195328,13.5014,0.2379984,
2,0,0,1,0,4885.23,0.236815,0.236494,-1.7774,4,0.0196289,11,-0.000420344,-2.75022,-0.46892,-0.125821,8.75899,0.236494,
2,0,0,1,0,4885.25,0.235315,0.235038,-1.79318,4,0.019584,11,-0.000421465,-2.74638,-0.454402,-0.129841,9.09158,0.235038,
2,0,0,1,0,4885.28,0.233814,0.233543,-1.82007,4,0.0195388,11,-0.000425065,-2.73991,-0.312417,-0.18885,13.3466,0.233543,
2,0,0,1,0,4885.3,0.23232,0.23201,-1.83255,4,0.0194933,11,-0.00042517,-2.73694,-0.32602,-0.180971,12.9441,0.23201,
2,0,0,1,0,4885.33,0.230821,0.230514,-1.84429,4,0.0194472,11,-0.000425133,-2.73417,-0.528272,-0.111685,8.05579,0.230514,
2,0,0,1,0,4885.35,0.229321,0.228995,-1.86363,4,0.0194007,11,-0.000426763,-2.72964,-0.566841,-0.104086,7.56864,0.228995,
2,0,0,1,0,4885.38,0.227827,0.227522,-1.88498,4,0.0193541,11,-0.000428873,-2.72469,-0.387829,-0.152129,11.1618,0.227522,
2,0,0,1,0,4885.4,0.226326,0.226034,-1.89678,4,0.0193068,11,-0.000428738,-2.72198,-0.309549,-0.1906,14.1205,0.226034,
2,0,0,1,0,4885.43,0.224825,0.224566,-1.91172,4,0.019259,11,-0.000429309,-2.71858,-0.413595,-0.142652,10.6654,0.224566,
2,0,0,1,0,4885.45,0.223331,0.223063,-1.93632,4,0.019211,11,-0.00043192,-2.71302,-0.421379,-0.140016,10.5457,0.223063,
2,0,0,1,0,4885.48,0.221831,0.221544,-1.95077,4,0.0191625,11,-0.00043218,-2.70979,-0.35413,-0.166605,12.6774,0.221544,
2,0,0,1,0,4885.5,0.220333,0.220057,-1.96428,4,0.0191134,11,-0.000432255,-2.7068,-0.259922,-0.226991,17.436,0.220057,
2,0,0,1,0,4885.53,0.218834,0.218558,-1.98503,4,0.0190638,11,-0.000433844,-2.70223,-0.35061,-0.168278,13.0894,0.2185577,
2,0,0,1,0,4885.55,0.217339,0.217034,-2.00818,4,0.0190139,11,-0.000435843,-2.6972,-0.619397,-0.095254,7.46836,0.217034,
2,0,0,1,0,4885.58,0.215839,0.215546,-2.02693,4,0.0189634,11,-0.000436898,-2.69316,-0.349955,-0.168593,13.3243,0.215546,
2,0,0,1,0,4885.6,0.214338,0.213994,-2.04029,4,0.0189125,11,-0.00043661,-2.69031,-0.25842,-0.228311,18.2205,0.213994,
2,0,0,1,0,4885.63,0.212844,0.21251,-2.06453,4,0.0188612,11,-0.000438734,-2.68518,-0.324849,-0.181623,14.6657,0.21251,
2,0,0,1,0,4885.65,0.211344,0.211043,-2.09193,4,0.0188091,11,-0.000441488,-2.67945,-0.45115,-0.130777,10.6598,0.211043,
2,0,0,1,0,4885.68,0.209845,0.209529,-2.11334,4,0.0187565,11,-0.000442804,-2.67503,-0.339225,-0.173926,14.3164,0.209529,
2,0,0,1,0,4885.7,0.20835,0.208026,-2.13417,4,0.0187036,11,-0.000443963,-2.67077,-0.237487,-0.248435,20.7617,0.208026,
2,0,0,1,0,4885.73,0.206851,0.20659,-2.16014,4,0.0186499,11,-0.000446263,-2.66552,-0.280456,-0.210372,17.7538,0.20659,
2,0,0,1,0,4885.75,0.20535,0.205044,-2.18995,4,0.0185953,11,-0.000449035,-2.65957,-0.409088,-0.144223,12.2603,0.205044,
2,0,0,1,0,4885.78,0.203856,0.20357,-2.21523,4,0.0185404,11,-0.000450954,-2.65458,-0.307337,-0.191972,16.5594,0.20357,
2,0,0,1,0,4885.8,0.202356,0.202043,-2.23294,4,0.0184849,11,-0.00045115,-2.65112,-0.253284,-0.23294,20.3818,0.202043,
2,0,0,1,0,4885.83,0.200857,0.200543,-2.25639,4,0.0184286,11,-0.000452502,-2.64659,-0.251288,-0.23479,20.7661,0.200543,
2,0,0,1,0,4885.85,0.199357,0.199063,-2.29643,4,0.0183715,11,-0.000457134,-2.63895,-0.295077,-0.199948,17.8719,0.199063,
2,0,0,1,0,4885.88,0.197863,0.19754,-2.33193,4,0.0183138,11,-0.00046065,-2.63228,-0.268756,-0.21953,19.9047,0.19754,
2,0,0,1,0,4885.9,0.196362,0.196011,-2.35675,4,0.0182553,11,-0.000461947,-2.62769,-0.223912,-0.263497,24.2522,0.196011,
2,0,0,1,0,4885.93,0.194861,0.194553,-2.38555,4,0.0181959,11,-0.000464116,-2.62241,-0.205344,-0.287323,26.8546,0.194553,
2,0,0,1,0,4885.95,0.193367,0.193077,-2.43881,4,0.0181358,11,-0.000470879,-2.61282,-0.217515,-0.271245,25.7215,0.193077,
2,0,0,1,0,4885.98,0.191868,0.191577,-2.47392,4,0.0180744,11,-0.000473947,-2.60661,-0.236662,-0.249301,24.001,0.191577,
2,0,0,1,0,4886,0.190368,0.190055,-2.49943,4,0.0180121,11,-0.000475029,-2.60216,-0.18931,-0.311658,30.5712,0.190055,
2,0,0,1,0,4886.03,0.18887,0.188586,-2.54587,4,0.0179488,11,-0.000480117,-2.59416,-0.186462,-0.316419,31.5738,0.188586,
2,0,0,1,0,4886.05,0.187376,0.187106,-2.59894,4,0.0178846,11,-0.000486278,-2.5852,-0.194817,-0.302848,30.7105,0.1871061,
2,0,0,1,0,4886.08,0.185875,0.185591,-2.65349,4,0.0178189,11,-0.000492465,-2.57618,-0.18205,-0.324086,33.4279,0.185591,
2,0,0,1,0,4886.1,0.184374,0.184054,-2.69493,4,0.017752,11,-0.000496014,-2.56945,-0.164999,-0.357578,37.7211,0.184054,
2,0,0,1,0,4886.13,0.18288,0.182576,-2.75134,4,0.0176841,11,-0.000502327,-2.56046,-0.158723,-0.371716,40.0928,0.182576,
2,0,0,1,0,4886.15,0.18138,0.181106,-2.81645,4,0.0176143,11,-0.000510075,-2.5503,-0.162114,-0.36394,40.0899,0.181106,
2,0,0,1,0,4886.18,0.179881,0.179605,-2.89161,4,0.0175429,11,-0.000519349,-2.53886,-0.159847,-0.369103,41.4984,0.179605,
2,0,0,1,0,4886.2,0.178387,0.178085,-2.9538,4,0.0174701,11,-0.000526027,-2.52962,-0.137407,-0.429381,49.5216,0.178085,
2,0,0,1,0,4886.23,0.176886,0.176593,-3.02061,4,0.0173954,11,-0.000533418,-2.51991,-0.13265,-0.44478,52.6059,0.176593,
2,0,0,1,0,4886.25,0.175385,0.175098,-3.10995,4,0.0173187,11,-0.000544547,-2.50725,-0.129337,-0.456171,55.3388,0.1750984,
2,0,0,1,0,4886.28,0.173892,0.173618,-3.2023,4,0.0172402,11,-0.000555976,-2.49454,-0.118419,-0.49823,62.1074,0.1736179,
2,0,0,1,0,4886.3,0.172392,0.172116,-3.29684,4,0.017159,11,-0.00056744,-2.4819,-0.112435,-0.524746,67.4121,0.172116,
2,0,0,1,0,4886.33,0.170893,0.170593,-3.37603,4,0.0170755,11,-0.000575929,-2.47159,-0.110319,-0.534812,70.9512,0.170593,
2,0,0,1,0,4886.35,0.169393,0.169032,-3.495,4,0.0169894,11,-0.000590765,-2.45655,-0.103621,-0.569381,77.9221,0.169032,
2,0,0,1,0,4886.38,0.167899,0.167621,-3.62738,4,0.0169006,11,-0.000608024,-2.44041,-0.0983145,-0.600115,84.8833,0.167621,
2,0,0,1,0,4886.4,0.166398,0.166075,-3.75112,4,0.0168083,11,-0.000622967,-2.42584,-0.0950321,-0.620843,91.0277,0.166075,
2,0,0,1,0,4886.43,0.164898,0.16461,-3.88127,4,0.0167127,11,-0.000638895,-2.41103,-0.0925767,-0.637309,97.0493,0.1646097,
2,0,0,1,0,4886.45,0.163403,0.163098,-4.04232,4,0.0166139,11,-0.000659294,-2.39337,-0.0896813,-0.657885,104.033,0.163098,
2,0,0,1,0,4886.48,0.161904,0.161593,-4.21718,4,0.0165106,11,-0.000681468,-2.37498,-0.0843895,-0.699139,114.993,0.161593,
2,0,0,1,0,4886.5,0.160404,0.160101,-4.39135,4,0.016403,11,-0.000703059,-2.3574,-0.082435,-0.715716,122.753,0.160101,
2,0,0,1,0,4886.53,0.158905,0.158633,-4.5683,4,0.0162908,11,-0.000724682,-2.34025,-0.0799732,-0.737747,132.122,0.158633,
2,0,0,1,0,4886.55,0.157411,0.157135,-4.77983,4,0.0161742,11,-0.000751077,-2.32059,-0.0785904,-0.750728,140.574,0.157135,
2,0,0,1,0,4886.58,0.155911,0.155627,-5.00429,4,0.0160518,11,-0.000778805,-2.30066,-0.0772402,-0.763851,149.278,0.155627,
2,0,0,1,0,4886.6,0.15441,0.154135,-5.23605,4,0.0159236,11,-0.000807058,-2.281,-0.0763338,-0.772921,157.875,0.154135,
2,0,0,1,0,4886.63,0.152916,0.152563,-5.47396,4,0.0157901,11,-0.000835124,-2.2617,-0.0770122,-0.766112,163.855,0.152563,
2,0,0,1,0,4886.65,0.151417,0.151063,-5.72207,4,0.0156501,11,-0.000864395,-2.24245,-0.0803771,-0.73404,163.942,0.151063,
2,0,0,1,0,4886.68,0.149917,0.149607,-5.97544,4,0.0155037,11,-0.00089397,-2.22363,-0.0785726,-0.750898,175.246,0.149607,
2,0,0,1,0,4886.7,0.148423,0.148156,-6.25149,4,0.0153515,11,-0.000926193,-2.20402,-0.0788647,-0.748117,182.318,0.148156,
2,0,0,1,0,4886.73,0.146922,0.146643,-6.51781,4,0.0151918,11,-0.000955793,-2.1859,-0.083107,-0.709929,180.359,0.146643,
2,0,0,1,0,4886.75,0.145421,0.145149,-6.78418,4,0.0150254,11,-0.000984715,-2.1685,-0.0870358,-0.677882,179.357,0.145149,
2,0,0,1,0,4886.78,0.143927,0.14364,-7.05912,4,0.014853,11,-0.00101397,-2.15125,-0.0908869,-0.649159,178.505,0.14364,
2,0,0,1,0,4886.8,0.142429,0.142112,-7.325,4,0.014673,11,-0.00104097,-2.13519,-0.0952488,-0.61943,176.734,0.142112,
2,0,0,1,0,4886.83,0.140929,0.140653,-7.57233,4,0.0144866,11,-0.00106507,-2.12077,-0.105131,-0.561204,165.712,0.140653,
2,0,0,1,0,4886.85,0.13943,0.139151,-7.81027,4,0.0142939,11,-0.0010868,-2.10733,-0.115252,-0.511924,156.009,0.139151,
2,0,0,1,0,4886.88,0.137935,0.137677,-8.05364,4,0.0140963,11,-0.0011088,-2.09401,-0.124667,-0.473262,148.413,0.137677,
2,0,0,1,0,4886.9,0.136435,0.136127,-8.27654,4,0.0138921,11,-0.00112666,-2.08215,-0.130937,-0.4506,145.128,0.136127,
2,0,0,1,0,4886.93,0.134934,0.13463,-8.48008,4,0.0136825,11,-0.00114167,-2.0716,-0.148998,-0.395977,130.717,0.1346298,
2,0,0,1,0,4886.95,0.13344,0.133158,-8.66428,4,0.0134688,11,-0.00115372,-2.06227,-0.169754,-0.347561,117.366,0.133158,
2,0,0,1,0,4886.98,0.13194,0.131653,-8.83553,4,0.01325,11,-0.00116322,-2.05377,-0.190853,-0.309138,106.444,0.131653,
2,0,0,1,0,4887,0.13044,0.130178,-8.99137,4,0.013027,11,-0.00117048,-2.04617,-0.216807,-0.272131,95.2311,0.130178,
2,0,0,1,0,4887.03,0.128941,0.128625,-9.1187,4,0.0128004,11,-0.00117289,-2.04007,-0.264392,-0.223154,79.2212,0.128625,
2,0,0,1,0,4887.05,0.127447,0.127179,-9.22327,4,0.0125719,11,-0.00117301,-2.03512,-0.362981,-0.162543,58.3569,0.127179,
2,0,0,1,0,4887.08,0.125946,0.125655,-9.30109,4,0.0123403,11,-0.00116873,-2.03147,-0.482471,-0.122287,44.2818,0.125655,
2,0,0,1,0,4887.1,0.124446,0.124154,-9.36108,4,0.012107,11,-0.00116222,-2.02867,-0.621392,-0.0949482,34.565,0.124154,
2,0,0,1,0,4887.12,0.122952,0.122622,-9.38503,4,0.0118735,11,-0.00115081,-2.02756,-1.32351,-0.0445784,16.2994,0.122622,
2,0,0,1,0,4887.15,0.121453,0.121146,-9.39172,4,0.0116385,11,-0.00113777,-2.02725,3.09804,0.0190443,-6.96688,0.121146,
2,0,0,1,0,4887.17,0.119953,0.119671,-9.37278,4,0.0114037,11,-0.00112165,-2.02813,0.906395,0.065093,-23.7663,0.119671,
2,0,0,1,0,4887.2,0.118459,0.118165,-9.33544,4,0.0111707,11,-0.00110312,-2.02987,0.638519,0.0924013,-33.5763,0.118165,
2,0,0,1,0,4887.22,0.116958,0.116594,-9.27215,4,0.0109381,11,-0.00108108,-2.03282,0.425342,0.138712,-50.0621,0.116594,
2,0,0,1,0,4887.25,0.115457,0.115141,-9.17628,4,0.0107073,11,-0.00105657,-2.03733,0.287316,0.205348,-73.3546,0.115141,
2,0,0,1,0,4887.27,0.113963,0.113657,-9.06402,4,0.0104801,11,-0.00103019,-2.04268,0.242371,0.243428,-85.8882,0.113657,
2,0,0,1,0,4887.3,0.112464,0.112183,-8.92634,4,0.0102552,11,-0.00100138,-2.04933,0.21345,0.276412,-96.1106,0.1121828,
2,0,0,1,0,4887.32,0.110965,0.110642,-8.76452,4,0.0100339,11,-0.000969723,-2.05727,0.191778,0.307647,-105.1,0.110642,
2,0,0,1,0,4887.35,0.109466,0.10917,-8.59433,4,0.00981669,11,-0.000938246,-2.06579,0.162802,0.362404,-121.394,0.10917,
2,0,0,1,0,4887.37,0.107972,0.107658,-8.42121,4,0.00960479,11,-0.00090661,-2.07463,0.146234,0.403464,-132.274,0.107658,
2,0,0,1,0,4887.4,0.106471,0.106146,-8.21952,4,0.00939689,11,-0.000872473,-2.08515,0.145864,0.404486,-129.677,0.106146,
2,0,0,1,0,4887.42,0.10497,0.104672,-8.01575,4,0.00919383,11,-0.000839027,-2.09606,0.144811,0.407429,-127.53,0.104672,
2,0,0,1,0,4887.45,0.103476,0.103192,-7.82758,4,0.00899637,11,-0.00080774,-2.10637,0.135947,0.433992,-132.61,0.103192,
2,0,0,1,0,4887.47,0.101976,0.101631,-7.64191,4,0.00880295,11,-0.000776658,-2.1168,0.135453,0.435576,-129.813,0.1016314,
2,0,0,1,0,4887.5,0.100477,0.100146,-7.44406,4,0.00861446,11,-0.000745496,-2.12819,0.14322,0.411953,-119.827,0.100146,
2,0,0,1,0,4887.52,0.0989825,0.0986909,-7.26643,4,0.00843124,11,-0.00071713,-2.13868,0.152044,0.388045,-110.226,0.09869089,
2,0,0,1,0,4887.55,0.0974817,0.0972094,-7.10485,4,0.00825152,11,-0.000690658,-2.14844,0.154665,0.381469,-105.955,0.0972094,
2,0,0,1,0,4887.57,0.0959822,0.0956761,-6.95817,4,0.00807568,11,-0.00066573,-2.15751,0.161284,0.365815,-99.3347,0.0956761,
2,0,0,1,0,4887.6,0.094488,0.0941891,-6.81062,4,0.00790425,11,-0.000641486,-2.16681,0.183131,0.322173,-85.8065,0.0941891,
2,0,0,1,0,4887.62,0.0929884,0.0927044,-6.67932,4,0.00773553,11,-0.000619202,-2.17527,0.203195,0.290361,-75.9156,0.0927044,
2,0,0,1,0,4887.65,0.0914889,0.0911772,-6.577,4,0.00756968,11,-0.000599672,-2.18197,0.211022,0.279591,-71.8415,0.0911772,
2,0,0,1,0,4887.67,0.0899894,0.0896711,-6.47889,4,0.00740644,11,-0.00058097,-2.1885,0.214632,0.274889,-69.4442,0.0896711,
2,0,0,1,0,4887.7,0.0884951,0.0881534,-6.37849,4,0.00724637,11,-0.000562286,-2.19528,0.243228,0.24257,-60.4115,0.0881534,
2,0,0,1,0,4887.72,0.0869943,0.0866593,-6.28034,4,0.00708809,11,-0.00054425,-2.20202,0.262406,0.224842,-55.2597,0.0866593,
2,0,0,1,0,4887.75,0.0854935,0.0852235,-6.20487,4,0.00693184,11,-0.000528801,-2.20727,0.277667,0.212484,-51.5506,0.0852235,
2,0,0,1,0,4887.77,0.0839993,0.0836839,-6.13844,4,0.00677807,11,-0.000513689,-2.21194,0.282521,0.208834,-50.0137,0.0836839,
2,0,0,1,0,4887.8,0.0824998,0.0822299,-6.0745,4,0.00662537,11,-0.000499505,-2.21649,0.3185,0.185244,-43.8774,0.0822299,
2,0,0,1,0,4887.82,0.0810002,0.0807011,-5.99621,4,0.00647448,11,-0.000483901,-2.22212,0.346422,0.170313,-39.9521,0.0807011,
2,0,0,1,0,4887.85,0.0795007,0.0791666,-5.93717,4,0.00632516,11,-0.000470026,-2.22642,0.353185,0.167051,-38.7551,0.0791666,
2,0,0,1,0,4887.87,0.0780078,0.0776973,-5.88867,4,0.00617782,11,-0.000457534,-2.22998,0.347037,0.170011,-39.0201,0.0776973,
2,0,0,1,0,4887.9,0.076507,0.0761877,-5.83251,4,0.00603132,11,-0.000444366,-2.23414,0.349161,0.168976,-38.3826,0.0761877,
2,0,0,1,0,4887.92,0.0750062,0.0746984,-5.75956,4,0.00588642,11,-0.00043023,-2.23961,0.353266,0.167013,-37.5934,0.0746984,
2,0,0,1,0,4887.95,0.073512,0.0732003,-5.70184,4,0.00574358,11,-0.000417377,-2.24398,0.349696,0.168718,-37.5704,0.0732003,
2,0,0,1,0,4887.97,0.0720124,0.0717208,-5.6522,4,0.00560152,11,-0.00040538,-2.24778,0.328241,0.179746,-39.623,0.0717208,
2,0,0,1,0,4888,0.0705129,0.0701574,-5.59298,4,0.0054609,11,-0.000392389,-2.25236,0.318756,0.185095,-40.3378,0.0701574,
2,0,0,1,0,4888.02,0.0690187,0.0687381,-5.51854,4,0.00532239,11,-0.000379334,-2.25818,0.316307,0.186528,-40.2412,0.06873811,
2,0,0,1,0,4888.05,0.0675179,0.0672197,-5.46232,4,0.00518502,11,-0.000367175,-2.26262,0.300965,0.196036,-41.8357,0.0672197,
2,0,0,1,0,4888.07,0.066017,0.0656892,-5.41499,4,0.00504909,11,-0.000355706,-2.2664,0.290783,0.2029,-42.7328,0.0656892,
2,0,0,1,0,4888.1,0.0645242,0.0642084,-5.3443,4,0.00491517,11,-0.000343149,-2.27211,0.276977,0.213014,-44.2861,0.0642084,
2,0,0,1,0,4888.12,0.0630246,0.0627178,-5.25941,4,0.00478248,11,-0.000329859,-2.27906,0.267161,0.220841,-45.3956,0.0627178,
2,0,0,1,0,4888.15,0.0615251,0.0612117,-5.18773,4,0.00465172,11,-0.00031755,-2.28502,0.241786,0.244017,-49.5154,0.0612117,
2,0,0,1,0,4888.17,0.0600256,0.059728,-5.12583,4,0.00452268,11,-0.000306156,-2.29024,0.237413,0.248513,-49.6448,0.059728,
2,0,0,1,0,4888.2,0.0585314,0.0582072,-5.05396,4,0.00439588,11,-0.000294177,-2.29637,0.229608,0.25696,-50.5772,0.0582072,
2,0,0,1,0,4888.22,0.0570305,0.0566953,-4.97369,4,0.00427045,11,-0.000281985,-2.30332,0.227146,0.259745,-50.4473,0.0566953,
2,0,0,1,0,4888.25,0.0555297,0.055218,-4.89173,4,0.00414706,11,-0.000270112,-2.31054,0.214115,0.275553,-52.7029,0.055218,
2,0,0,1,0,4888.27,0.0540355,0.0537413,-4.82761,4,0.00402595,11,-0.000259442,-2.31627,0.223523,0.263956,-49.6512,0.0537413,
2,0,0,1,0,4888.3,0.052536,0.0522169,-4.76209,4,0.00390611,11,-0.000248662,-2.3222,0.231923,0.254395,-47.1668,0.0522169,
2,0,0,1,0,4888.32,0.0510364,0.0507085,-4.6747,4,0.00378811,11,-0.000237047,-2.33025,0.227775,0.259028,-47.3301,0.0507085,
2,0,0,1,0,4888.35,0.0495369,0.0492132,-4.59684,4,0.00367203,11,-0.000226225,-2.33754,0.221488,0.26638,-47.9569,0.0492132,
2,0,0,1,0,4888.37,0.0480427,0.0476893,-4.53954,4,0.00355817,11,-0.000216487,-2.34299,0.241668,0.244137,-43.2445,0.0476893,
2,0,0,1,0,4888.4,0.0465432,0.0462,-4.47919,4,0.00344543,11,-0.000206939,-2.3488,0.270984,0.217725,-38.0423,0.0462,
2,0,0,1,0,4888.42,0.0450424,0.0447423,-4.41151,4,0.00333423,11,-0.000197381,-2.35541,0.262197,0.225021,-38.7479,0.0447423,
2,0,0,1,0,4888.45,0.0435482,0.043227,-4.34195,4,0.00322498,11,-0.00018769,-2.36232,0.256995,0.229576,-39.0589,0.043227,
2,0,0,1,0,4888.47,0.0420486,0.0417537,-4.3018,4,0.00311684,11,-0.000179616,-2.36635,0.2808,0.210114,-35.3081,0.0417537,
2,0,0,1,0,4888.5,0.0405491,0.0402466,-4.26021,4,0.00300984,11,-0.000171459,-2.37057,0.342161,0.172434,-28.6184,0.0402466,
2,0,0,1,0,4888.52,0.0390549,0.0387384,-4.20977,4,0.00290431,11,-0.00016308,-2.37574,0.331123,0.178182,-29.2613,0.0387384,
2,0,0,1,0,4888.55,0.0375541,0.0372702,-4.15955,4,0.00279954,11,-0.000155027,-2.38095,0.319354,0.184748,-30.0909,0.0372702,
2,0,0,1,0,4888.57,0.0360532,0.0357557,-4.12684,4,0.00269595,11,-0.000147558,-2.38438,0.372039,0.158586,-25.5672,0.0357557,
2,0,0,1,0,4888.6,0.034559,0.0342021,-4.10227,4,0.00259355,11,-0.000140306,-2.38698,0.522779,0.112858,-18.0251,0.0342021,
2,0,0,1,0,4888.62,0.0330595,0.032745,-4.06302,4,0.00249144,11,-0.000133043,-2.39115,0.574514,0.102695,-16.2963,0.032745,
2,0,0,1,0,4888.65,0.0315613,0.0312193,-4.03461,4,0.00239008,11,-0.000125958,-2.3942,0.47281,0.124786,-19.6827,0.0312193,
2,0,0,1,0,4888.67,0.0300618,0.0297643,-4.00895,4,0.00228946,11,-0.000119324,-2.39697,0.517039,0.114111,-17.869,0.0297643,
2,0,0,1,0,4888.7,0.0285676,0.0282609,-3.99533,4,0.00218981,11,-0.000112912,-2.39845,0.888462,0.0664069,-10.3391,0.0282609,
2,0,0,1,0,4888.72,0.0270667,0.0267877,-3.97705,4,0.00209012,11,-0.000106536,-2.40044,1.30669,0.0451522,-7.0062,0.0267877,
2,0,0,1,0,4888.75,0.0255659,0.0252806,-3.9579,4,0.00199077,11,-0.000100058,-2.40254,0.694091,0.0850032,-13.1433,0.0252806,
2,0,0,1,0,4888.77,0.0240717,0.0237575,-3.94068,4,0.00189228,11,-9.36206e-05,-2.40443,0.829014,0.0711688,-10.9778,0.0237575,
2,0,0,1,0,4888.8,0.0225722,0.0222532,-3.942,4,0.00179375,11,-8.7722e-05,-2.40428,2.60417,0.022656,-3.48103,0.0222532,
2,0,0,1,0,4888.82,0.0210726,0.0207509,-3.92698,4,0.00169531,11,-8.14885e-05,-2.40594,8.78926,0.00671274,-1.03029,0.0207509,
2,0,0,1,0,4888.85,0.0195784,0.0192849,-3.92091,4,0.00159742,11,-7.56143e-05,-2.40661,2.08543,0.0282915,-4.33506,0.0192849,
2,0,0,1,0,4888.87,0.0180789,0.0177951,-3.91597,4,0.00149928,11,-6.9685e-05,-2.40716,1.70694,0.0345647,-5.28603,0.0177951,
2,0,0,1,0,4888.9,0.0165781,0.0162716,-3.92593,4,0.00140127,11,-6.38812e-05,-2.40606,-3.64409,-0.0161906,2.47879,0.0162716,
2,0,0,1,0,4888.92,0.0150839,0.0147805,-3.92219,4,0.00130361,11,-5.79719e-05,-2.40647,-1.78691,-0.033018,5.05262,0.0147805,
2,0,0,1,0,4888.95,0.0135844,0.0132558,-3.92149,4,0.00120535,11,-5.19826e-05,-2.40655,8.50784,0.00693478,-1.06112,0.0132558,
2,0,0,1,0,4888.97,0.0120848,0.0117727,-3.92817,4,0.00110706,11,-4.62451e-05,-2.40581,19.86,0.0029708,-0.455644,0.0117727,
2,0,0,1,0,4889,0.0105853,0.0102609,-3.92883,4,0.00100887,11,-4.03134e-05,-2.40574,-2.74721,-0.0214763,3.29633,0.0102609,
2,0,0,1,0,4889.02,0.00909108,0.0087954,-3.93132,4,0.00091087,11,-3.45776e-05,-2.40546,-1.18839,-0.0496468,7.63337,0.0087954,
2,0,0,1,0,4889.05,0.00759027,0.00726917,-3.94182,4,0.000812238,11,-2.86538e-05,-2.4043,-1.78717,-0.033013,5.08482,0.00726917,
2,0,0,1,0,4889.07,0.00608945,0.00579543,-3.9609,4,0.000713367,11,-2.29551e-05,-2.40221,-4.61446,-0.0127859,1.97298,0.00579543,
2,0,0,1,0,4889.1,0.00459524,0.00424918,-3.96409,4,0.000614795,11,-1.68442e-05,-2.40186,-1.35572,-0.0435192,6.72872,0.00424918,
2,0,0,1,0,4889.12,0.0030957,0.00278178,-3.97327,4,0.000515574,11,-1.10528e-05,-2.40085,-0.398391,-0.148096,23.0776,0.00278178,
2,0,0,1,0,4889.15,0.00159616,0.00120759,-4.0347,4,0.000415254,11,-4.87228e-06,-2.39419, , , ,0.00120759,
2,0,0,0,0,4889.17,0.000199195,-0.000142085,-4.01894,4,0.000321245,11,5.71032e-07,-2.39589, , , ,-0.000142085,