File: Figure_codes/Fig_3-5/rawdata_trumpetplot_data/before 10th/20221101_1-115_002_TrumpetPlot_ParaChange_05_CV_C01_4.csv
mode,ox/red,error,control changes,counter inc.,time/s,control/V,Ewe/V,<I>/mA,cycle number,(Q-Qo)/C,I Range,P/W,log(|I|),Tafel slope mV/dec,alpha_eff,dI/d(E-IR),E-IR/V,
2,0,0,1,0,5885.4,2.44065e-05,-0.000287149,-0.0211506,5,0.0000000E+000,11,6.07338e-09,-4.67468, , , ,-0.0002871489,
2,1,0,0,0,5885.65,0.00129787,0.000925956,0.161358,5,3.80687e-05,11,1.49411e-07,-3.79221, , , ,0.000925956,
2,1,0,0,0,5885.95,0.00279606,0.00248581,0.186593,5,9.80017e-05,11,4.63836e-07,-3.7291,0.0343589,1.71717,11.722,0.00248581,
2,1,0,1,0,5886.25,0.00429469,0.00402495,0.194921,5,0.000160761,11,7.84548e-07,-3.71014,0.169642,0.347791,2.73455,0.00402495,
2,1,0,1,0,5886.55,0.00579255,0.00548381,0.20252,5,0.00022601,11,1.11058e-06,-3.69353,0.0894035,0.659929,5.21895,0.00548381,
2,1,0,1,0,5886.85,0.00729041,0.00699747,0.210683,5,0.0002936,11,1.47425e-06,-3.67637,0.112557,0.524177,4.26282,0.00699747,
2,1,0,1,0,5887.15,0.00878882,0.00845696,0.215794,5,0.00036309,11,1.82496e-06,-3.66596,0.144579,0.40808,3.42847,0.008456964,
2,1,0,1,0,5887.45,0.010287,0.00999455,0.220416,5,0.000434063,11,2.20296e-06,-3.65676,0.195756,0.301396,2.58402,0.00999455,
2,1,0,1,0,5887.75,0.0117852,0.0114887,0.222351,5,0.000506214,11,2.55451e-06,-3.65296,0.226951,0.259968,2.27834,0.0114887,
2,1,0,1,0,5888.05,0.0132836,0.0129681,0.228715,5,0.000579469,11,2.96601e-06,-3.6407,0.197892,0.298142,2.66094,0.0129681,
2,1,0,1,0,5888.35,0.0147815,0.0144829,0.231808,5,0.000653934,11,3.35726e-06,-3.63487,0.218747,0.269718,2.44496,0.0144829,
2,1,0,1,0,5888.65,0.0162793,0.0159822,0.234611,5,0.000729541,11,3.7496e-06,-3.62965,0.401762,0.146853,1.34248,0.0159822,
2,1,0,0,0,5888.95,0.017778,0.0174715,0.23693,5,0.00080598,11,4.13952e-06,-3.62538,0.287602,0.205144,1.90578,0.0174715,
2,1,0,0,0,5889.25,0.0192761,0.0189709,0.241862,5,0.000882853,11,4.58834e-06,-3.61643,0.328736,0.179475,1.68498,0.0189709,
2,1,0,1,0,5889.55,0.0207747,0.0205056,0.245197,5,0.000960935,11,5.02791e-06,-3.61048,0.302919,0.194771,1.84395,0.02050557,
2,1,0,1,0,5889.85,0.0222725,0.0219783,0.248129,5,0.00103988,11,5.45346e-06,-3.60532,0.271701,0.21715,2.08018,0.0219783,
2,1,0,1,0,5890.15,0.0237704,0.0234994,0.248631,5,0.00111952,11,5.84269e-06,-3.60444,0.34032,0.173366,1.68803,0.0234994,
2,1,0,1,0,5890.45,0.0252689,0.0249728,0.250693,5,0.00119966,11,6.26052e-06,-3.60086,0.320694,0.183976,1.81947,0.0249728,
2,1,0,1,0,5890.75,0.0267671,0.0264605,0.253652,5,0.00128082,11,6.71178e-06,-3.59576,0.218169,0.270433,2.6743,0.0264605,
2,1,0,1,0,5891.05,0.0282657,0.0279402,0.256684,5,0.00136296,11,7.1718e-06,-3.5906,0.261633,0.225506,2.26354,0.0279402,
2,1,0,1,0,5891.35,0.0297635,0.0294732,0.259786,5,0.00144575,11,7.65673e-06,-3.58538,0.420364,0.140354,1.42142,0.0294732,
2,1,0,1,0,5891.65,0.0312613,0.0309649,0.260036,5,0.00152925,11,8.05198e-06,-3.58497,0.265361,0.222339,2.27457,0.0309649,
2,1,0,0,0,5891.95,0.0327599,0.0324487,0.264694,5,0.00161358,11,8.58895e-06,-3.57726,0.306712,0.192363,1.98392,0.0324487,
2,1,0,0,0,5892.25,0.034258,0.0339375,0.268376,5,0.00169898,11,9.10801e-06,-3.57126,0.35094,0.16812,1.76003,0.0339375,
2,1,0,1,0,5892.55,0.0357567,0.0354628,0.27275,5,0.0017853,11,9.67248e-06,-3.56424,0.43538,0.135514,1.42937,0.0354628,
2,1,0,1,0,5892.85,0.0372545,0.0369237,0.273786,5,0.00187266,11,1.01092e-05,-3.56259,0.282244,0.209039,2.24452,0.03692368,
2,1,0,1,0,5893.15,0.0387524,0.0384398,0.278327,5,0.0019606,11,1.06988e-05,-3.55545,0.229399,0.257194,2.81312,0.0384398,
2,1,0,1,0,5893.45,0.0402508,0.0399394,0.282823,5,0.0020501,11,1.12958e-05,-3.54848,0.237356,0.248572,2.73244,0.0399394,
2,1,0,1,0,5893.74,0.041749,0.0414176,0.28628,5,0.0021409,11,1.1857e-05,-3.54321,0.270653,0.217991,2.4277,0.04141758,
2,1,0,1,0,5894.04,0.0432472,0.0429424,0.291119,5,0.00223267,11,1.25014e-05,-3.53593,0.269651,0.218801,2.47555,0.0429424,
2,1,0,1,0,5894.34,0.0447456,0.044493,0.295284,5,0.00232547,11,1.31381e-05,-3.52976,0.212643,0.277461,3.18479,0.044493,
2,1,0,1,0,5894.64,0.0462435,0.0459815,0.300785,5,0.00241988,11,1.38306e-05,-3.52174,0.170387,0.34627,4.03016,0.0459815,
2,1,0,1,0,5894.94,0.0477413,0.0474466,0.303203,5,0.00251577,11,1.4386e-05,-3.51827,0.2112,0.279356,3.31769,0.0474466,
2,1,0,0,0,5895.24,0.0492399,0.0488998,0.308647,5,0.00261314,11,1.50928e-05,-3.51054,0.221362,0.266532,3.21752,0.0488998,
2,1,0,0,0,5895.54,0.0507381,0.0504247,0.313085,5,0.00271169,11,1.57872e-05,-3.50434,0.187192,0.315185,3.88174,0.0504247,
2,1,0,1,0,5895.84,0.0522367,0.0519497,0.319899,5,0.00281215,11,1.66186e-05,-3.49499,0.167038,0.353213,4.40759,0.0519497,
2,1,0,1,0,5896.14,0.0537345,0.0534278,0.328001,5,0.00291457,11,1.75244e-05,-3.48412,0.186267,0.316749,4.03602,0.0534278,
2,1,0,1,0,5896.44,0.0552323,0.0549415,0.332464,5,0.00301881,11,1.82661e-05,-3.47826,0.18458,0.319644,4.13427,0.0549415,
2,1,0,1,0,5896.74,0.0567309,0.0564043,0.335181,5,0.00312469,11,1.89056e-05,-3.47472,0.183114,0.322204,4.26416,0.0564043,
2,1,0,1,0,5897.04,0.0582291,0.0579196,0.346033,5,0.0032324,11,2.00421e-05,-3.46088,0.191215,0.308554,4.15022,0.0579196,
2,1,0,1,0,5897.34,0.0597277,0.0594269,0.352285,5,0.00334242,11,2.09352e-05,-3.45311,0.198222,0.297646,4.08033,0.0594269,
2,1,0,1,0,5897.64,0.0612255,0.0609365,0.357954,5,0.00345432,11,2.18124e-05,-3.44617,0.213154,0.276796,3.86534,0.0609365,
2,1,0,1,0,5897.94,0.0627233,0.0624536,0.36536,5,0.00356831,11,2.28181e-05,-3.43728,0.182542,0.323214,4.62028,0.06245365,
2,1,0,0,0,5898.24,0.0642218,0.0639533,0.371955,5,0.00368408,11,2.37877e-05,-3.42951,0.163911,0.359952,5.25561,0.0639533,
2,1,0,0,0,5898.54,0.06572,0.06544,0.379443,5,0.00380228,11,2.48308e-05,-3.42085,0.179488,0.328713,4.86105,0.06544,
2,1,0,1,0,5898.84,0.0672187,0.066928,0.388243,5,0.00392298,11,2.59843e-05,-3.4109,0.200992,0.293543,4.42467,0.066928,
2,1,0,1,0,5899.14,0.0687165,0.0684347,0.394765,5,0.00404546,11,2.70157e-05,-3.40366,0.210329,0.280513,4.31002,0.0684347,
2,1,0,1,0,5899.44,0.0702144,0.0698861,0.401315,5,0.00416971,11,2.80463e-05,-3.39652,0.186888,0.315697,4.94064,0.0698861,
2,1,0,1,0,5899.74,0.0717128,0.0714239,0.407876,5,0.00429646,11,2.91321e-05,-3.38947,0.187704,0.314324,4.98707,0.0714239,
2,1,0,1,0,5900.04,0.073211,0.0729095,0.413877,5,0.00442529,11,3.01756e-05,-3.38313,0.211663,0.278745,4.52677,0.0729095,
2,1,0,1,0,5900.34,0.0747092,0.0744386,0.421122,5,0.00455606,11,3.13477e-05,-3.37559,0.229773,0.256775,4.22129,0.0744386,
2,1,0,1,0,5900.64,0.0762076,0.0758936,0.424454,5,0.00468855,11,3.22134e-05,-3.37217,0.218561,0.269948,4.50833,0.0758936,
2,1,0,1,0,5900.94,0.0777054,0.0774419,0.433472,5,0.00482294,11,3.35688e-05,-3.36304,0.199441,0.295826,4.99838,0.0774419,
2,1,0,1,0,5901.24,0.0792033,0.078895,0.442769,5,0.00495954,11,3.49322e-05,-3.35382,0.226047,0.261008,4.47853,0.078895,
2,1,0,0,0,5901.54,0.0807019,0.0803896,0.445493,5,0.00509809,11,3.5813e-05,-3.35116,0.267905,0.220227,3.82366,0.0803896,
2,1,0,0,0,5901.84,0.0822001,0.0819092,0.448991,5,0.0052381,11,3.67765e-05,-3.34776,0.262058,0.225141,3.96344,0.0819092,
2,1,0,1,0,5902.13,0.0836986,0.0834311,0.458373,5,0.00537968,11,3.82426e-05,-3.33878,0.287805,0.205,3.66604,0.0834311,
2,1,0,1,0,5902.43,0.0851965,0.0849218,0.464227,5,0.00552339,11,3.9423e-05,-3.33327,0.285431,0.206705,3.73682,0.0849218,
2,1,0,1,0,5902.73,0.0866944,0.0864187,0.469442,5,0.00566878,11,4.05686e-05,-3.32842,0.364744,0.161757,2.95314,0.0864187,
2,1,0,1,0,5903.03,0.0881929,0.0879419,0.473662,5,0.00581574,11,4.16547e-05,-3.32453,0.312588,0.188747,3.49962,0.0879419,
2,1,0,1,0,5903.33,0.0896911,0.0894179,0.481038,5,0.00596391,11,4.30134e-05,-3.31782,0.275099,0.214468,4.01921,0.0894179,
2,1,0,1,0,5903.63,0.0911897,0.0908362,0.487304,5,0.00611415,11,4.42648e-05,-3.3122,0.280573,0.210284,3.97026,0.09083616,
2,1,0,1,0,5903.93,0.0926875,0.0924073,0.493563,5,0.00626658,11,4.56088e-05,-3.30666,0.25237,0.233784,4.47809,0.0924073,
2,1,0,1,0,5904.23,0.0941853,0.0939231,0.497415,5,0.00642031,11,4.67187e-05,-3.30328,0.297768,0.198141,3.85719,0.0939231,
2,1,0,0,0,5904.53,0.0956838,0.0954145,0.501194,5,0.00657558,11,4.78212e-05,-3.29999,0.258875,0.227909,4.48762,0.0954145,
2,1,0,0,0,5904.83,0.097182,0.0968662,0.508946,5,0.00673286,11,4.92996e-05,-3.29333,0.211937,0.278384,5.54111,0.0968662,
2,1,0,1,0,5905.13,0.0986807,0.0984075,0.516148,5,0.00689258,11,5.07928e-05,-3.28723,0.212066,0.278216,5.62323,0.09840747,
2,1,0,1,0,5905.43,0.100179,0.0998981,0.523545,5,0.00705435,11,5.23011e-05,-3.28105,0.24581,0.240023,4.92428,0.0998981,
2,1,0,1,0,5905.73,0.101676,0.101374,0.530553,5,0.00721818,11,5.37841e-05,-3.27527,0.209608,0.281478,5.87799,0.101374,
2,1,0,1,0,5906.03,0.103175,0.102872,0.542426,5,0.00738468,11,5.58007e-05,-3.26566,0.174893,0.337349,7.1459,0.102872,
2,1,0,1,0,5906.33,0.104673,0.104397,0.554396,5,0.00755435,11,5.78774e-05,-3.25618,0.183971,0.320703,6.91936,0.104397,
2,1,0,1,0,5906.63,0.106171,0.105899,0.565264,5,0.00772733,11,5.98608e-05,-3.24775,0.183923,0.320787,7.02876,0.105899,
2,1,0,1,0,5906.93,0.10767,0.107363,0.57258,5,0.00790334,11,6.14742e-05,-3.24216,0.166629,0.354081,7.95112,0.1073634,
2,1,0,1,0,5907.23,0.109167,0.10884,0.586704,5,0.00808251,11,6.3857e-05,-3.23158,0.147343,0.400426,9.20463,0.10884,
2,1,0,1,0,5907.53,0.110665,0.110357,0.598281,5,0.00826612,11,6.60248e-05,-3.22309,0.147945,0.398796,9.37484,0.110357,
2,1,0,0,0,5907.83,0.112164,0.111883,0.617341,5,0.00845418,11,6.90697e-05,-3.20948,0.15941,0.370114,8.90322,0.111883,
2,1,0,0,0,5908.13,0.113662,0.113364,0.632459,5,0.00864667,11,7.16981e-05,-3.19897,0.141976,0.415564,10.2518,0.113364,
2,1,0,1,0,5908.43,0.115161,0.114836,0.649322,5,0.00884339,11,7.45655e-05,-3.18754,0.12967,0.455003,11.4984,0.114836,
2,1,0,1,0,5908.73,0.116658,0.116348,0.666571,5,0.00904569,11,7.75542e-05,-3.17615,0.12437,0.474392,12.2852,0.116348,
2,1,0,1,0,5909.03,0.118156,0.117856,0.683469,5,0.00925353,11,8.05512e-05,-3.16528,0.129778,0.454623,12.1215,0.117856,
2,1,0,1,0,5909.33,0.119655,0.119364,0.699956,5,0.00946642,11,8.35495e-05,-3.15493,0.148341,0.397733,10.9001,0.119364,
2,1,0,1,0,5909.63,0.121153,0.120858,0.716864,5,0.00968403,11,8.66388e-05,-3.14456,0.137055,0.430483,12.0916,0.120858,
2,1,0,1,0,5909.93,0.122652,0.122355,0.736056,5,0.00990736,11,9.00599e-05,-3.13309,0.129112,0.456966,13.1,0.1223546,
2,1,0,1,0,5910.22,0.124149,0.123824,0.755884,5,0.0101364,11,9.35966e-05,-3.12154,0.140172,0.42091,12.3994,0.123824,
2,1,0,1,0,5910.52,0.125647,0.125364,0.771989,5,0.0103706,11,9.67798e-05,-3.11239,0.162251,0.363633,10.9386,0.125364,
2,1,0,0,0,5910.82,0.127146,0.126833,0.78293,5,0.0106099,11,9.93016e-05,-3.10628,0.170608,0.345823,10.6284,0.126833,
2,1,0,0,0,5911.12,0.128644,0.128343,0.805558,5,0.0108535,11,0.000103388,-3.0939,0.171724,0.343575,10.7814,0.128343,
2,1,0,1,0,5911.42,0.130143,0.129843,0.823366,5,0.0111025,11,0.000106909,-3.08441,0.187976,0.31387,10.0198,0.129843,
2,1,0,1,0,5911.72,0.131641,0.131353,0.834141,5,0.0113563,11,0.000109567,-3.07876,0.243545,0.242255,7.85748,0.131353,
2,1,0,1,0,5912.02,0.133138,0.132878,0.845023,5,0.0116137,11,0.000112285,-3.07313,0.239465,0.246383,8.15347,0.132878,
2,1,0,1,0,5912.32,0.134637,0.134316,0.857486,5,0.0118742,11,0.000115174,-3.06677,0.27275,0.216315,7.25683,0.134316,
2,1,0,1,0,5912.62,0.136135,0.13585,0.869408,5,0.0121385,11,0.000118109,-3.06078,0.333621,0.176848,5.98085,0.13585,
2,1,0,1,0,5912.92,0.137633,0.137308,0.876413,5,0.0124056,11,0.000120339,-3.05729,0.526434,0.112075,3.8153,0.137308,
2,1,0,1,0,5913.22,0.139132,0.138841,0.883641,5,0.0126745,11,0.000122686,-3.05372,0.960552,0.061423,2.10424,0.138841,
2,1,0,1,0,5913.52,0.140629,0.140348,0.882526,5,0.0129437,11,0.000123861,-3.05427,2.60684,0.0226328,0.777031,0.140348,
2,1,0,1,0,5913.82,0.142127,0.141827,0.882762,5,0.0132137,11,0.0001252,-3.05416,-1.86785,-0.0315871,-1.08075,0.141827,
2,1,0,0,0,5914.12,0.143626,0.143368,0.877539,5,0.0134835,11,0.000125811,-3.05673,-0.466607,-0.126445,-4.3185,0.143368,
2,1,0,0,0,5914.42,0.145124,0.144852,0.867624,5,0.0137506,11,0.000125677,-3.06167,-0.241028,-0.244785,-8.28725,0.144852,
2,1,0,1,0,5914.72,0.146623,0.146339,0.852846,5,0.0140141,11,0.000124804,-3.06913,-0.196744,-0.299883,-9.97281,0.146339,
2,1,0,1,0,5915.02,0.14812,0.14783,0.837656,5,0.0142735,11,0.00012383,-3.07693,-0.167775,-0.351661,-11.4364,0.14783,
2,1,0,1,0,5915.32,0.149618,0.149313,0.818184,5,0.0145274,11,0.000122165,-3.08715,-0.122712,-0.480799,-15.2763,0.149313,
2,1,0,1,0,5915.62,0.151117,0.15081,0.793477,5,0.0147745,11,0.000119664,-3.10047,-0.10186,-0.579228,-17.8346,0.1508102,
2,1,0,1,0,5915.92,0.152615,0.152281,0.762969,5,0.0150134,11,0.000116186,-3.11749,-0.0904658,-0.65218,-19.4221,0.152281,
2,1,0,1,0,5916.22,0.154114,0.153864,0.735895,5,0.0152437,11,0.000113227,-3.13318,-0.0845182,-0.698074,-20.01,0.153864,
2,1,0,1,0,5916.52,0.155612,0.155284,0.707627,5,0.0154652,11,0.000109883,-3.1502,-0.0764916,-0.771326,-21.1726,0.155284,
2,1,0,1,0,5916.82,0.157109,0.156857,0.672363,5,0.0156775,11,0.000105465,-3.1724,-0.0671694,-0.878376,-22.9817,0.1568571,
2,1,0,0,0,5917.12,0.158608,0.158319,0.640441,5,0.0158797,11,0.000101394,-3.19352,-0.0702332,-0.840058,-21.0276,0.158319,
2,1,0,0,0,5917.42,0.160106,0.159847,0.608146,5,0.0160718,11,9.72103e-05,-3.21599,-0.0678109,-0.870067,-20.7257,0.159847,
2,1,0,1,0,5917.72,0.161605,0.161299,0.580384,5,0.0162554,11,9.36154e-05,-3.23628,-0.0707089,-0.834407,-18.8412,0.161299,
2,1,0,1,0,5918.02,0.163102,0.162837,0.552648,5,0.0164303,11,8.99917e-05,-3.25755,-0.0701644,-0.840882,-18.1077,0.162837,
2,1,0,1,0,5918.32,0.1646,0.164307,0.52545,5,0.016597,11,8.63349e-05,-3.27947,-0.0736968,-0.800577,-16.448,0.164307,
2,1,0,1,0,5918.61,0.166099,0.165829,0.501338,5,0.0167561,11,8.31362e-05,-3.29987,-0.0822594,-0.717244,-14.0951,0.165829,
2,1,0,1,0,5918.91,0.167597,0.167302,0.479834,5,0.0169087,11,8.0277e-05,-3.31891,-0.0900883,-0.654913,-12.3071,0.167302,
2,1,0,1,0,5919.21,0.169095,0.168824,0.461602,5,0.0170556,11,7.79296e-05,-3.33573,-0.0901082,-0.654769,-11.8486,0.168824,
2,1,0,1,0,5919.51,0.170594,0.170271,0.444551,5,0.0171971,11,7.56941e-05,-3.35208,-0.0919273,-0.641812,-11.2057,0.170271,
2,1,0,1,0,5919.81,0.172091,0.171781,0.429006,5,0.0173335,11,7.3695e-05,-3.36754,-0.105365,-0.559958,-9.43497,0.171781,
2,1,0,1,0,5920.11,0.173589,0.173284,0.417246,5,0.0174658,11,7.2302e-05,-3.37961,-0.11857,-0.497595,-8.10091,0.173284,
2,1,0,0,0,5920.41,0.175088,0.174757,0.404825,5,0.0175945,11,7.07461e-05,-3.39273,-0.120739,-0.488657,-7.73286,0.174757,
2,1,0,0,0,5920.71,0.176586,0.176246,0.395207,5,0.0177198,11,6.96537e-05,-3.40318,-0.129618,-0.455182,-7.01202,0.176246,
2,1,0,1,0,5921.01,0.178085,0.177771,0.38268,5,0.0178419,11,6.80294e-05,-3.41716,-0.141417,-0.417206,-6.27244,0.1777713,
2,1,0,1,0,5921.31,0.179582,0.179341,0.376345,5,0.0179612,11,6.74943e-05,-3.42441,-0.154817,-0.381094,-5.6224,0.179341,
2,1,0,1,0,5921.61,0.18108,0.180764,0.36741,5,0.0180781,11,6.64146e-05,-3.43485,-0.155937,-0.378357,-5.45711,0.180764,
2,1,0,1,0,5921.91,0.182579,0.18228,0.360297,5,0.018193,11,6.5675e-05,-3.44334,-0.159996,-0.368758,-5.19561,0.18228,
2,1,0,1,0,5922.21,0.184077,0.183764,0.353916,5,0.0183057,11,6.50372e-05,-3.4511,-0.183033,-0.322346,-4.47888,0.183764,
2,1,0,1,0,5922.51,0.185576,0.185299,0.349214,5,0.0184164,11,6.47091e-05,-3.45691,-0.216735,-0.272221,-3.71937,0.185299,
2,1,0,1,0,5922.81,0.187074,0.186774,0.343375,5,0.0185256,11,6.41334e-05,-3.46423,-0.231905,-0.254414,-3.40898,0.186774,
2,1,0,1,0,5923.11,0.188571,0.188225,0.338948,5,0.0186333,11,6.37986e-05,-3.46987,-0.255393,-0.231016,-3.05348,0.188225,
2,1,0,0,0,5923.41,0.19007,0.189764,0.33433,5,0.0187396,11,6.34438e-05,-3.47583,-0.263452,-0.22395,-2.92156,0.189764,
2,1,0,0,0,5923.71,0.191568,0.191268,0.330028,5,0.0188444,11,6.31237e-05,-3.48145,-0.291745,-0.202231,-2.60481,0.191268,
2,1,0,1,0,5924.01,0.193067,0.19279,0.326473,5,0.0189481,11,6.29408e-05,-3.48615,-0.360829,-0.163512,-2.07399,0.19279,
2,1,0,1,0,5924.31,0.194564,0.194249,0.321845,5,0.0190509,11,6.2518e-05,-3.49235,-0.377985,-0.156091,-1.96241,0.194249,
2,1,0,1,0,5924.61,0.196062,0.195763,0.31869,5,0.0191525,11,6.23876e-05,-3.49663,-0.282193,-0.209077,-2.60732,0.195763,
2,1,0,1,0,5924.91,0.197561,0.197242,0.314295,5,0.019253,11,6.19922e-05,-3.50266,-0.320806,-0.183912,-2.2662,0.1972422,
2,1,0,1,0,5925.21,0.199059,0.19879,0.312044,5,0.0193526,11,6.20313e-05,-3.50578,-0.432889,-0.136294,-1.66105,0.19879,
2,1,0,1,0,5925.51,0.200557,0.20025,0.310088,5,0.0194515,11,6.2095e-05,-3.50851,-0.362128,-0.162926,-1.96491,0.20025,
2,1,0,1,0,5925.81,0.202056,0.201781,0.308151,5,0.0195497,11,6.2179e-05,-3.51124,-0.381223,-0.154765,-1.8521,0.201781,
2,1,0,1,0,5926.11,0.203553,0.203258,0.304844,5,0.0196471,11,6.19618e-05,-3.51592,-0.46356,-0.127276,-1.51307,0.203258,
2,1,0,1,0,5926.41,0.205051,0.204778,0.302214,5,0.0197436,11,6.18869e-05,-3.51968,-0.898797,-0.0656433,-0.782057,0.204778,
2,1,0,0,0,5926.71,0.20655,0.206228,0.300597,5,0.0198397,11,6.19915e-05,-3.52202,-0.452666,-0.130339,-1.53512,0.206228,
2,1,0,0,0,5927,0.208048,0.20775,0.298913,5,0.0199355,11,6.20991e-05,-3.52446,-0.406946,-0.144982,-1.68995,0.20775,
2,1,0,1,0,5927.3,0.209547,0.209274,0.297772,5,0.0200305,11,6.23159e-05,-3.52612,-0.56658,-0.104134,-1.20788,0.209274,
2,1,0,1,0,5927.6,0.211044,0.210758,0.29563,5,0.0201246,11,6.23065e-05,-3.52925,-0.684695,-0.0861698,-0.994093,0.210758,
2,1,0,1,0,5927.9,0.212542,0.212247,0.294626,5,0.0202184,11,6.25334e-05,-3.53073,-0.750736,-0.0785895,-0.901821,0.212247,
2,1,0,1,0,5928.2,0.214041,0.213736,0.292746,5,0.0203119,11,6.25704e-05,-3.53351,-0.83696,-0.0704932,-0.803263,0.213736,
2,1,0,1,0,5928.5,0.215539,0.215303,0.291441,5,0.0204048,11,6.27481e-05,-3.53545,-0.488483,-0.120782,-1.37241,0.215303,
2,1,0,1,0,5928.8,0.217038,0.216754,0.289209,5,0.020497,11,6.26872e-05,-3.53879,-0.8098,-0.0728575,-0.823912,0.216754,
2,1,0,1,0,5929.1,0.218535,0.218201,0.287815,5,0.0205891,11,6.28016e-05,-3.54089,-2.42133,-0.0243668,-0.273205,0.2182011,
2,1,0,1,0,5929.4,0.220033,0.219739,0.286983,5,0.0206809,11,6.30615e-05,-3.54214,-0.780829,-0.0755608,-0.848175,0.219739,
2,1,0,0,0,5929.7,0.221532,0.221274,0.285211,5,0.0207722,11,6.31098e-05,-3.54483,-0.802221,-0.0735458,-0.822056,0.2212742,
2,1,0,0,0,5930,0.22303,0.222751,0.282382,5,0.020863,11,6.2901e-05,-3.54916,-0.897513,-0.0657372,-0.73052,0.222751,
2,1,0,1,0,5930.3,0.224529,0.224234,0.283267,5,0.0209535,11,6.35181e-05,-3.5478,-0.667234,-0.0884247,-0.97601,0.224234,
2,1,0,1,0,5930.6,0.226026,0.225747,0.283179,5,0.0210438,11,6.39269e-05,-3.54794,-1.09184,-0.054037,-0.594243,0.225747,
2,1,0,1,0,5930.9,0.227524,0.227246,0.280687,5,0.0211338,11,6.37851e-05,-3.55178,-0.893794,-0.0660107,-0.723248,0.227246,
2,1,0,1,0,5931.2,0.229023,0.228726,0.278773,5,0.0212234,11,6.37625e-05,-3.55475,-0.72835,-0.0810051,-0.887137,0.228726,
2,1,0,1,0,5931.5,0.230521,0.230247,0.278251,5,0.0213126,11,6.40665e-05,-3.55556,-1.9274,-0.0306112,-0.334863,0.230247,
2,1,0,1,0,5931.8,0.232019,0.231714,0.278527,5,0.0214017,11,6.45386e-05,-3.55513,-0.967135,-0.0610049,-0.662648,0.231714,
2,1,0,1,0,5932.1,0.233518,0.233219,0.277622,5,0.0214906,11,6.47466e-05,-3.55655,-0.61696,-0.0956302,-1.03337,0.233219,
2,1,0,1,0,5932.4,0.235015,0.234716,0.276823,5,0.0215791,11,6.49747e-05,-3.5578,-1.89874,-0.0310733,-0.334445,0.234716,
2,1,0,1,0,5932.7,0.236513,0.236226,0.276271,5,0.0216673,11,6.52622e-05,-3.55867,-1.01406,-0.0581821,-0.625178,0.236226,
2,1,0,0,0,5933,0.238012,0.237758,0.275396,5,0.0217553,11,6.54776e-05,-3.56004,-0.771423,-0.076482,-0.818167,0.237758,
2,1,0,0,0,5933.3,0.23951,0.239167,0.274689,5,0.0218432,11,6.56966e-05,-3.56116,-1.5764,-0.0374271,-0.400466,0.239167,
2,1,0,1,0,5933.6,0.241009,0.240724,0.273539,5,0.0219309,11,6.58476e-05,-3.56298,-1.29209,-0.0456626,-0.488729,0.240724,
2,1,0,1,0,5933.9,0.242506,0.242231,0.27214,5,0.0220181,11,6.59206e-05,-3.56521,-1.39196,-0.0423863,-0.451705,0.242231,
2,1,0,1,0,5934.2,0.244004,0.243736,0.273068,5,0.0221054,11,6.65565e-05,-3.56373,1.78678,0.0330202,0.350767,0.243736,
2,1,0,1,0,5934.5,0.245503,0.245242,0.272736,5,0.0221925,11,6.68863e-05,-3.56426,-41.1092,-0.0014352,-0.0152593,0.245242,
2,1,0,1,0,5934.8,0.247001,0.246701,0.271638,5,0.0222794,11,6.70134e-05,-3.56601,-1.12742,-0.052332,-0.55332,0.246701,
2,1,0,1,0,5935.09,0.2485,0.248199,0.269263,5,0.022366,11,6.68308e-05,-3.56982,-1.62385,-0.0363335,-0.383023,0.248199,
2,1,0,1,0,5935.39,0.249997,0.249706,0.270301,5,0.0224524,11,6.74957e-05,-3.56815,-1.61737,-0.036479,-0.384125,0.2497059,
2,1,0,1,0,5935.69,0.251495,0.251218,0.2693,5,0.0225387,11,6.76531e-05,-3.56976,-1.69825,-0.0347417,-0.365746,0.251218,
2,1,0,0,0,5935.99,0.252994,0.252668,0.268096,5,0.0226249,11,6.77391e-05,-3.57171,-0.80335,-0.0734425,-0.769475,0.252668,
2,1,0,0,0,5936.29,0.254492,0.254208,0.267957,5,0.0227109,11,6.81168e-05,-3.57194,-0.809652,-0.0728708,-0.763369,0.254208,
2,1,0,1,0,5936.59,0.255991,0.255705,0.268397,5,0.0227965,11,6.86305e-05,-3.57122,-2.55627,-0.0230805,-0.242087,0.255705,
2,1,0,1,0,5936.89,0.257488,0.257251,0.267638,5,0.0228822,11,6.88502e-05,-3.57245,-2.64853,-0.0222765,-0.232332,0.257251,
2,1,0,1,0,5937.19,0.258986,0.258688,0.266472,5,0.0229677,11,6.89333e-05,-3.57435,-1.13926,-0.0517881,-0.536788,0.258688,
2,1,0,1,0,5937.49,0.260485,0.26024,0.266144,5,0.0230532,11,6.92612e-05,-3.57488,-6.18727,-0.0095357,-0.098896,0.2602399,
2,1,0,1,0,5937.79,0.261983,0.261683,0.264861,5,0.0231382,11,6.93096e-05,-3.57698,-1.12374,-0.0525031,-0.542843,0.261683,
2,1,0,1,0,5938.09,0.263481,0.263221,0.265447,5,0.0232232,11,6.98712e-05,-3.57602,-1.91946,-0.0307378,-0.317283,0.2632207,
2,1,0,1,0,5938.39,0.26498,0.264659,0.263429,5,0.0233082,11,6.97187e-05,-3.57934,-8.48628,-0.0069524,-0.0717661,0.264659,
2,1,0,1,0,5938.69,0.266477,0.266237,0.263433,5,0.023393,11,7.01355e-05,-3.57933,-5.10018,-0.0115682,-0.11927,0.266237,
2,1,0,0,0,5938.99,0.267976,0.267709,0.262587,5,0.0234775,11,7.02969e-05,-3.58073,-1.34142,-0.0439832,-0.452655,0.267709,
2,1,0,0,0,5939.29,0.269474,0.269224,0.262889,5,0.023562,11,7.07759e-05,-3.58023,71.9203,0.000820352,0.00841828,0.269224,
2,1,0,0,0,5939.59,0.270972,0.270653,0.263872,5,0.0236464,11,7.14178e-05,-3.57861,27.0533,0.00218088,0.0223199,0.270653,
2,1,0,1,0,5939.89,0.27247,0.272149,0.263453,5,0.0237308,11,7.16984e-05,-3.5793,-2.2192,-0.0265862,-0.27173,0.272149,
2,1,0,1,0,5940.19,0.273968,0.273687,0.260248,5,0.0238148,11,7.12265e-05,-3.58461,-2.25702,-0.0261407,-0.266986,0.273687,
2,1,0,1,0,5940.49,0.275466,0.275221,0.261412,5,0.0238987,11,7.19461e-05,-3.58267,3.25009,0.0181533,0.185598,0.275221,
2,1,0,1,0,5940.79,0.276965,0.27671,0.261033,5,0.0239826,11,7.22304e-05,-3.5833,27.5744,0.00213967,0.0218514,0.27671,
2,1,0,1,0,5941.09,0.278463,0.278182,0.260509,5,0.0240664,11,7.2469e-05,-3.58418,-0.651185,-0.0906041,-0.919866,0.278182,
2,1,0,1,0,5941.39,0.279962,0.279691,0.26001,5,0.0241501,11,7.27226e-05,-3.58501,-0.966287,-0.0610584,-0.620149,0.279691,
2,1,0,1,0,5941.69,0.281459,0.281187,0.260637,5,0.0242334,11,7.32878e-05,-3.58396,1.83892,0.032084,0.326021,0.281187,
2,1,0,1,0,5941.99,0.282957,0.282684,0.26064,5,0.0243167,11,7.36788e-05,-3.58396,-52.1214,-0.00113197,-0.0114736,0.282684,
2,1,0,0,0,5942.29,0.284456,0.284174,0.258519,5,0.0244001,11,7.34645e-05,-3.58751,-1.3143,-0.0448908,-0.453801,0.284174,
2,1,0,0,0,5942.59,0.285954,0.285657,0.258648,5,0.0244833,11,7.38847e-05,-3.58729,-2.37739,-0.0248171,-0.25113,0.285657,
2,1,0,0,0,5942.89,0.287452,0.287169,0.259262,5,0.0245662,11,7.4452e-05,-3.58626,-1.70184,-0.0346684,-0.349198,0.287169,
2,1,0,1,0,5943.19,0.28895,0.288687,0.259074,5,0.0246492,11,7.47914e-05,-3.58658,4.69042,0.0125788,0.126385,0.288687,
2,1,0,1,0,5943.48,0.290448,0.29016,0.257359,5,0.024732,11,7.46753e-05,-3.58946,-1.61144,-0.0366131,-0.368786,0.29016,
2,1,0,1,0,5943.78,0.291947,0.291697,0.257048,5,0.0248148,11,7.49802e-05,-3.58999,-1.18778,-0.0496725,-0.499254,0.291697,
2,1,0,1,0,5944.08,0.293445,0.293126,0.256605,5,0.0248972,11,7.52177e-05,-3.59073,-1.32036,-0.0446849,-0.448982,0.293126,
2,1,0,1,0,5944.38,0.294943,0.294619,0.255957,5,0.0249797,11,7.54098e-05,-3.59183,-2.26504,-0.0260481,-0.259864,0.294619,
2,1,0,1,0,5944.68,0.296442,0.296136,0.2579,5,0.0250622,11,7.63735e-05,-3.58855,-2.02868,-0.0290829,-0.290005,0.296136,
2,1,0,1,0,5944.98,0.297939,0.297659,0.256555,5,0.0251445,11,7.63661e-05,-3.59082,-2.70593,-0.021804,-0.217644,0.297659,
2,1,0,1,0,5945.28,0.299437,0.299166,0.253452,5,0.0252266,11,7.58241e-05,-3.5961,-0.00175337,-33.6495,-127.726,0.2991659,
2,1,0,1,0,5945.45,0.299737,0.29946,0.0580315,5,0.0252613,11,1.73781e-05,-4.23634,0.000667735,88.3584,215.877,0.29946,
2,1,0,1,0,5945.75,0.29824,0.297954,0.00511295,5,0.0252622,11,1.52342e-06,-5.29133,0.00325213,18.142,71.6005,0.297954,
2,0,0,0,0,5946.05,0.296741,0.296487,-0.0123947,5,0.0252552,11,-3.67488e-06,-4.90676,-0.0108655,-5.43002,9.64592,0.296487,
2,0,0,0,0,5946.35,0.295243,0.294963,-0.0231518,5,0.0252442,11,-6.82892e-06,-4.63542,-0.00641567,-9.19624,6.16977,0.294963,
2,0,0,1,0,5946.65,0.293744,0.293451,-0.0321535,5,0.0252305,11,-9.43547e-06,-4.49277,-0.0127399,-4.63112,5.1091,0.2934505,
2,0,0,1,0,5946.95,0.292246,0.291929,-0.0397162,5,0.0252146,11,-1.15943e-05,-4.40103,-0.0174245,-3.38604,4.7429,0.291929,
2,0,0,1,0,5947.25,0.290749,0.290447,-0.0444831,5,0.0251967,11,-1.292e-05,-4.35181,-0.0249948,-2.36049,3.9389,0.290447,
2,0,0,1,0,5947.55,0.28925,0.288919,-0.0505106,5,0.0251769,11,-1.45934e-05,-4.29662,-0.0330335,-1.78607,3.39964,0.288919,
2,0,0,1,0,5947.85,0.287752,0.287456,-0.05507,5,0.0251557,11,-1.58302e-05,-4.25908,-0.0403173,-1.46339,3.11392,0.287456,
2,0,0,1,0,5948.15,0.286253,0.28591,-0.0593019,5,0.0251332,11,-1.6955e-05,-4.22693,-0.0490973,-1.20169,2.78492,0.28591,
2,0,0,1,0,5948.45,0.284755,0.284454,-0.063162,5,0.0251093,11,-1.79667e-05,-4.19954,-0.0462866,-1.27467,3.12482,0.284454,
2,0,0,1,0,5948.75,0.283257,0.28293,-0.0672204,5,0.0250839,11,-1.90187e-05,-4.1725,-0.0482022,-1.22401,3.18419,0.28293,
2,0,0,0,0,5949.05,0.281759,0.281486,-0.0715374,5,0.0250575,11,-2.01368e-05,-4.14547,-0.0723001,-0.816043,2.26095,0.281486,
2,0,0,0,0,5949.35,0.280261,0.279989,-0.0736573,5,0.0250301,11,-2.06232e-05,-4.13278,-0.0703916,-0.838168,2.42214,0.279989,
2,0,0,0,0,5949.65,0.278763,0.278424,-0.0786647,5,0.0250017,11,-2.19021e-05,-4.10422,-0.0833158,-0.708149,2.16028,0.2784237,
2,0,0,1,0,5949.95,0.277264,0.277007,-0.0818694,5,0.0249721,11,-2.26784e-05,-4.08688,-0.0778144,-0.758214,2.41321,0.2770068,
2,0,0,1,0,5950.25,0.275766,0.275444,-0.0851797,5,0.0249416,11,-2.34622e-05,-4.06966,-0.11141,-0.529574,1.7284,0.275444,
2,0,0,1,0,5950.55,0.274269,0.273986,-0.0878705,5,0.0249101,11,-2.40753e-05,-4.05616,-0.0924432,-0.63823,2.17545,0.273986,
2,0,0,1,0,5950.85,0.27277,0.272469,-0.0895067,5,0.024878,11,-2.43878e-05,-4.04814,-0.111957,-0.52699,1.8891,0.272469,
2,0,0,1,0,5951.15,0.271272,0.270962,-0.0939291,5,0.0248448,11,-2.54512e-05,-4.0272,-0.10377,-0.568564,2.07289,0.270962,
2,0,0,1,0,5951.45,0.269773,0.269451,-0.0967012,5,0.0248107,11,-2.60562e-05,-4.01457,-0.122982,-0.479745,1.79122,0.2694512,
2,0,0,1,0,5951.75,0.268275,0.267962,-0.0983134,5,0.0247758,11,-2.63442e-05,-4.00739,-0.116592,-0.506037,1.95258,0.267962,
2,0,0,1,0,5952.04,0.266778,0.266471,-0.10249,5,0.0247403,11,-2.73107e-05,-3.98932,-0.132811,-0.444241,1.7711,0.266471,
2,0,0,0,0,5952.34,0.265279,0.264986,-0.103207,5,0.0247039,11,-2.73486e-05,-3.98629,-0.133638,-0.441492,1.77523,0.264986,
2,0,0,0,0,5952.64,0.263781,0.263477,-0.105929,5,0.0246667,11,-2.79098e-05,-3.97499,-0.138002,-0.427531,1.7879,0.2634773,
2,0,0,1,0,5952.94,0.262282,0.262009,-0.108457,5,0.0246287,11,-2.84167e-05,-3.96474,-0.166439,-0.354483,1.50956,0.262009,
2,0,0,1,0,5953.24,0.260784,0.260516,-0.110897,5,0.0245903,11,-2.88905e-05,-3.95508,-0.140375,-0.420301,1.84279,0.260516,
2,0,0,1,0,5953.54,0.259286,0.25897,-0.113752,5,0.024551,11,-2.94583e-05,-3.94404,-0.126126,-0.467786,2.06433,0.2589699,
2,0,0,1,0,5953.84,0.257788,0.257535,-0.11756,5,0.0245109,11,-3.02757e-05,-3.92974,-0.194586,-0.303208,1.37462,0.257535,
2,0,0,1,0,5954.14,0.25629,0.255983,-0.119235,5,0.02447,11,-3.05223e-05,-3.9236,-0.191912,-0.307433,1.41223,0.255983,
2,0,0,1,0,5954.44,0.254791,0.254458,-0.119816,5,0.0244287,11,-3.04882e-05,-3.92148,-0.185352,-0.318314,1.49814,0.2544578,
2,0,0,1,0,5954.74,0.253293,0.253001,-0.123414,5,0.0243867,11,-3.12239e-05,-3.90864,-0.184967,-0.318976,1.52956,0.253001,
2,0,0,1,0,5955.04,0.251795,0.251494,-0.12382,5,0.024344,11,-3.11399e-05,-3.90721,-0.203433,-0.290021,1.42472,0.251494,
2,0,0,0,0,5955.34,0.250297,0.250028,-0.12748,5,0.0243005,11,-3.18736e-05,-3.89456,-0.296115,-0.199247,0.985362,0.250028,
2,0,0,0,0,5955.64,0.248799,0.248494,-0.129572,5,0.0242565,11,-3.21979e-05,-3.88749,-0.215795,-0.273408,1.38182,0.248494,
2,0,0,0,0,5955.94,0.247301,0.247038,-0.131386,5,0.0242119,11,-3.24573e-05,-3.88145,-0.213874,-0.275864,1.42593,0.247038,
2,0,0,1,0,5956.24,0.245802,0.245521,-0.134497,5,0.0241666,11,-3.30219e-05,-3.87129,-0.251659,-0.234444,1.22492,0.245521,
2,0,0,1,0,5956.54,0.244304,0.244056,-0.136025,5,0.0241205,11,-3.31978e-05,-3.86638,-0.274144,-0.215216,1.14009,0.244056,
2,0,0,1,0,5956.84,0.242806,0.24253,-0.137003,5,0.0240739,11,-3.32274e-05,-3.86327,-0.213587,-0.276235,1.47702,0.24253,
2,0,0,1,0,5957.14,0.241308,0.241008,-0.139756,5,0.0240269,11,-3.36824e-05,-3.85463,-0.250416,-0.235608,1.28916,0.241008,
2,0,0,1,0,5957.44,0.23981,0.23949,-0.142146,5,0.023979,11,-3.40425e-05,-3.84727,-0.170053,-0.346951,1.91921,0.23949,
2,0,0,1,0,5957.74,0.238311,0.238003,-0.143593,5,0.0239305,11,-3.41756e-05,-3.84287,-0.189469,-0.311397,1.74709,0.238003,
2,0,0,1,0,5958.04,0.236813,0.236498,-0.145452,5,0.0238814,11,-3.43992e-05,-3.83728,-0.203776,-0.289533,1.6505,0.236498,
2,0,0,1,0,5958.34,0.235316,0.235059,-0.146942,5,0.0238318,11,-3.45399e-05,-3.83286,-0.228026,-0.258742,1.49738,0.235059,
2,0,0,0,0,5958.64,0.233817,0.233508,-0.150848,5,0.0237814,11,-3.52243e-05,-3.82146,-0.221186,-0.266744,1.55882,0.2335081,
2,0,0,0,0,5958.94,0.232319,0.232056,-0.154228,5,0.0237304,11,-3.57895e-05,-3.81184,-0.26217,-0.225045,1.34327,0.232056,
2,0,0,1,0,5959.24,0.23082,0.230542,-0.155477,5,0.0236787,11,-3.5844e-05,-3.80833,-0.287804,-0.205001,1.23218,0.230542,
2,0,0,1,0,5959.54,0.229322,0.229082,-0.155978,5,0.0236266,11,-3.57317e-05,-3.80694,-0.261966,-0.22522,1.37786,0.229082,
2,0,0,1,0,5959.84,0.227825,0.2275,-0.158204,5,0.0235738,11,-3.59914e-05,-3.80078,-0.23816,-0.247732,1.54033,0.2275,
2,0,0,1,0,5960.14,0.226326,0.225998,-0.160309,5,0.0235203,11,-3.62295e-05,-3.79504,-0.219684,-0.268568,1.69763,0.2259983,
2,0,0,1,0,5960.43,0.224828,0.224529,-0.163375,5,0.0234661,11,-3.66823e-05,-3.78682,-0.337646,-0.174739,1.11178,0.2245286,
2,0,0,1,0,5960.73,0.223329,0.223065,-0.165521,5,0.0234112,11,-3.69219e-05,-3.78115,-0.275802,-0.213921,1.38409,0.223065,
2,0,0,1,0,5961.03,0.221831,0.22152,-0.169088,5,0.0233559,11,-3.74564e-05,-3.77189,-0.220557,-0.267505,1.75494,0.22152,
2,0,0,1,0,5961.33,0.220333,0.22002,-0.170034,5,0.0232998,11,-3.74109e-05,-3.76946,-0.217327,-0.27148,1.79411,0.22002,
2,0,0,0,0,5961.63,0.218835,0.218519,-0.172846,5,0.0232427,11,-3.77701e-05,-3.76234,-0.220146,-0.268003,1.80394,0.218519,
2,0,0,0,0,5961.93,0.217337,0.217078,-0.174186,5,0.0231852,11,-3.7812e-05,-3.75899,-0.271037,-0.217682,1.48258,0.217078,
2,0,0,0,0,5962.23,0.215839,0.215519,-0.177336,5,0.0231272,11,-3.82194e-05,-3.7512,-0.254268,-0.232038,1.60311,0.215519,
2,0,0,1,0,5962.53,0.21434,0.21405,-0.178499,5,0.0230682,11,-3.82079e-05,-3.74836,-0.18426,-0.320199,2.2311,0.21405,
2,0,0,1,0,5962.83,0.212842,0.212507,-0.182083,5,0.0230085,11,-3.86939e-05,-3.73973,-0.254038,-0.232249,1.65426,0.212507,
2,0,0,1,0,5963.13,0.211344,0.211046,-0.184032,5,0.022948,11,-3.8839e-05,-3.73511,-0.255821,-0.23063,1.66237,0.211046,
2,0,0,1,0,5963.43,0.209846,0.20955,-0.18425,5,0.0228868,11,-3.86097e-05,-3.73459,-0.286713,-0.205781,1.49483,0.20955,
2,0,0,1,0,5963.73,0.208348,0.208062,-0.190857,5,0.022825,11,-3.97101e-05,-3.71929,-0.231817,-0.254511,1.88127,0.208062,
2,0,0,1,0,5964.03,0.206849,0.206551,-0.195827,5,0.0227619,11,-4.04484e-05,-3.70813,-0.237162,-0.248775,1.86293,0.206551,
2,0,0,1,0,5964.33,0.205351,0.205028,-0.195558,5,0.0226979,11,-4.00949e-05,-3.70872,-0.247465,-0.238417,1.81067,0.205028,
2,0,0,1,0,5964.63,0.203854,0.203525,-0.196708,5,0.0226334,11,-4.00351e-05,-3.70618,-0.248547,-0.23738,1.84566,0.203525,
2,0,0,0,0,5964.93,0.202355,0.202046,-0.200281,5,0.0225682,11,-4.04659e-05,-3.69836,-0.244292,-0.241514,1.89961,0.202046,
2,0,0,0,0,5965.23,0.200857,0.200544,-0.203956,5,0.0225018,11,-4.09022e-05,-3.69046,-0.229539,-0.257036,2.05281,0.2005443,
2,0,0,1,0,5965.53,0.199358,0.199067,-0.208174,5,0.0224344,11,-4.14405e-05,-3.68157,-0.238264,-0.247624,2.00702,0.199067,
2,0,0,1,0,5965.83,0.19786,0.197573,-0.211543,5,0.022366,11,-4.17952e-05,-3.6746,-0.204251,-0.288861,2.37654,0.197573,
2,0,0,1,0,5966.13,0.196363,0.196054,-0.215759,5,0.0222968,11,-4.23003e-05,-3.66603,-0.1878,-0.314164,2.63497,0.196054,
2,0,0,1,0,5966.43,0.194864,0.194572,-0.218409,5,0.0222262,11,-4.24963e-05,-3.66073,-0.188631,-0.31278,2.65899,0.194572,
2,0,0,1,0,5966.73,0.193366,0.19308,-0.223027,5,0.0221543,11,-4.30621e-05,-3.65164,-0.197142,-0.299276,2.61339,0.1930801,
2,0,0,1,0,5967.03,0.191867,0.191588,-0.226117,5,0.0220813,11,-4.33213e-05,-3.64567,-0.192457,-0.306562,2.74126,0.191588,
2,0,0,1,0,5967.33,0.190369,0.190127,-0.230732,5,0.0220072,11,-4.38684e-05,-3.63689,-0.177179,-0.332996,3.01896,0.190127,
2,0,0,1,0,5967.63,0.188871,0.188583,-0.236404,5,0.0219316,11,-4.45818e-05,-3.62635,-0.146111,-0.403803,3.71371,0.188583,
2,0,0,0,0,5967.93,0.187373,0.187064,-0.241958,5,0.0218544,11,-4.52618e-05,-3.61626,-0.17398,-0.339119,3.19548,0.187064,
2,0,0,0,0,5968.23,0.185875,0.185559,-0.246446,5,0.0217757,11,-4.57301e-05,-3.60828,-0.155552,-0.379294,3.64669,0.185559,
2,0,0,0,0,5968.53,0.184377,0.184115,-0.250728,5,0.0216956,11,-4.61629e-05,-3.6008,-0.153814,-0.38358,3.77677,0.184115,
2,0,0,1,0,5968.82,0.182878,0.182598,-0.25903,5,0.0216137,11,-4.72982e-05,-3.58665,-0.139881,-0.421788,4.24933,0.182598,
2,0,0,1,0,5969.12,0.181381,0.181083,-0.265481,5,0.0215297,11,-4.80741e-05,-3.57597,-0.140381,-0.420284,4.33867,0.181083,
2,0,0,1,0,5969.42,0.179882,0.179609,-0.271549,5,0.0214436,11,-4.87725e-05,-3.56615,-0.145712,-0.404908,4.29344,0.1796087,
2,0,0,1,0,5969.72,0.178384,0.178057,-0.278405,5,0.0213554,11,-4.95721e-05,-3.55532,-0.122072,-0.48332,5.27584,0.178057,
2,0,0,1,0,5970.02,0.176886,0.176585,-0.286874,5,0.0212652,11,-5.06578e-05,-3.54231,-0.126059,-0.468034,5.26637,0.176585,
2,0,0,1,0,5970.32,0.175387,0.175075,-0.296213,5,0.0211721,11,-5.18595e-05,-3.5284,-0.10763,-0.548172,6.34124,0.175075,
2,0,0,1,0,5970.62,0.173889,0.173565,-0.306965,5,0.0210763,11,-5.32783e-05,-3.51291,-0.0951612,-0.620001,7.39403,0.173565,
2,0,0,1,0,5970.92,0.172392,0.172076,-0.315958,5,0.0209774,11,-5.43689e-05,-3.50037,-0.0952227,-0.6196,7.65508,0.172076,
2,0,0,0,0,5971.22,0.170893,0.170604,-0.329854,5,0.0208755,11,-5.62743e-05,-3.48168,-0.0940419,-0.62738,8.04722,0.170604,
2,0,0,0,0,5971.52,0.169395,0.16911,-0.342402,5,0.0207697,11,-5.79035e-05,-3.46546,-0.0769988,-0.766245,10.195,0.16911,
2,0,0,1,0,5971.82,0.167896,0.167603,-0.354013,5,0.0206595,11,-5.93334e-05,-3.45098,-0.0815306,-0.723655,10.0596,0.167603,
2,0,0,1,0,5972.12,0.166398,0.166113,-0.368587,5,0.0205453,11,-6.12271e-05,-3.43346,-0.0807458,-0.730688,10.6457,0.166113,
2,0,0,1,0,5972.42,0.164901,0.1646,-0.386474,5,0.0204265,11,-6.36136e-05,-3.41288,-0.0730155,-0.808047,12.2544,0.1645999,
2,0,0,1,0,5972.72,0.163402,0.16308,-0.405524,5,0.0203021,11,-6.6133e-05,-3.39198,-0.0701681,-0.840838,13.3243,0.16308,
2,0,0,1,0,5973.02,0.161904,0.161574,-0.428371,5,0.0201717,11,-6.92137e-05,-3.36818,-0.0683149,-0.863648,14.4177,0.161574,
2,0,0,1,0,5973.32,0.160405,0.160102,-0.448514,5,0.0200349,11,-7.18081e-05,-3.34822,-0.0675096,-0.87395,15.3358,0.160102,
2,0,0,1,0,5973.62,0.158907,0.158596,-0.471808,5,0.0198911,11,-7.48267e-05,-3.32624,-0.0627808,-0.939778,17.3981,0.158596,
2,0,0,1,0,5973.92,0.157409,0.157118,-0.500717,5,0.01974,11,-7.86715e-05,-3.30041,-0.0613963,-0.960969,18.865,0.157118,
2,0,0,0,0,5974.22,0.155911,0.15564,-0.52739,5,0.0195801,11,-8.20832e-05,-3.27787,-0.0631354,-0.9345,19.3375,0.15564,
2,0,0,0,0,5974.52,0.154413,0.154067,-0.558068,5,0.0194112,11,-8.59796e-05,-3.25331,-0.067436,-0.874904,19.0419,0.154067,
2,0,0,0,0,5974.82,0.152915,0.152573,-0.591311,5,0.0192333,11,-9.02178e-05,-3.22818,-0.0663876,-0.88872,20.4648,0.152573,
2,0,0,1,0,5975.12,0.151416,0.151141,-0.62318,5,0.0190464,11,-9.41879e-05,-3.20539,-0.0667027,-0.884522,21.4728,0.151141,
2,0,0,1,0,5975.42,0.149919,0.149623,-0.656581,5,0.0188494,11,-9.82394e-05,-3.18271,-0.0660835,-0.89281,22.7978,0.149623,
2,0,0,1,0,5975.72,0.14842,0.148151,-0.687998,5,0.0186423,11,-0.000101927,-3.16241,-0.074013,-0.797157,21.3118,0.148151,
2,0,0,1,0,5976.02,0.146922,0.146629,-0.719036,5,0.0184257,11,-0.000105432,-3.14325,-0.0824451,-0.715628,20.016,0.146629,
2,0,0,1,0,5976.32,0.145424,0.145121,-0.747559,5,0.0182007,11,-0.000108487,-3.12635,-0.089228,-0.661228,19.276,0.1451211,
2,0,0,1,0,5976.62,0.143925,0.1436,-0.776837,5,0.0179665,11,-0.000111554,-3.10967,-0.0893216,-0.660534,19.917,0.1436,
2,0,0,1,0,5976.91,0.142427,0.142127,-0.80464,5,0.0177235,11,-0.000114361,-3.0944,-0.111118,-0.530968,16.5878,0.142127,
2,0,0,1,0,5977.21,0.14093,0.140659,-0.824569,5,0.0174735,11,-0.000115983,-3.08377,-0.139107,-0.424134,13.6564,0.140659,
2,0,0,0,0,5977.51,0.139431,0.139128,-0.840077,5,0.0172177,11,-0.000116878,-3.07568,-0.165062,-0.357442,11.7612,0.139128,
2,0,0,0,0,5977.81,0.137933,0.137636,-0.863045,5,0.0169564,11,-0.000118786,-3.06397,-0.205692,-0.286836,9.60331,0.137636,
2,0,0,1,0,5978.11,0.136434,0.136094,-0.877057,5,0.0166904,11,-0.000119362,-3.05697,-0.273171,-0.215982,7.34579,0.136094,
2,0,0,1,0,5978.41,0.134936,0.134609,-0.883738,5,0.0164212,11,-0.000118959,-3.05368,-0.49732,-0.118636,4.07058,0.134609,
2,0,0,1,0,5978.71,0.133439,0.133127,-0.88968,5,0.0161497,11,-0.000118441,-3.05077,-0.894995,-0.0659222,2.28616,0.133127,
2,0,0,1,0,5979.01,0.13194,0.131642,-0.891201,5,0.0158775,11,-0.00011732,-3.05002,-1.74878,-0.0337378,1.176,0.131642,
2,0,0,1,0,5979.31,0.130442,0.130138,-0.891861,5,0.0156046,11,-0.000116065,-3.0497,3.33966,0.0176665,-0.613355,0.130138,
2,0,0,1,0,5979.61,0.128943,0.128611,-0.890699,5,0.0153315,11,-0.000114554,-3.05027,0.581831,0.101404,-3.5027,0.128611,
2,0,0,1,0,5979.91,0.127445,0.127137,-0.885411,5,0.01506,11,-0.000112568,-3.05286,0.41992,0.140503,-4.83616,0.127137,
2,0,0,1,0,5980.21,0.125947,0.125672,-0.875206,5,0.0147914,11,-0.000109989,-3.05789,0.3386,0.174247,-5.93871,0.125672,
2,0,0,0,0,5980.51,0.124449,0.124141,-0.8662,5,0.0145249,11,-0.000107531,-3.06238,0.309183,0.190825,-6.42129,0.124141,
2,0,0,0,0,5980.81,0.122951,0.122671,-0.855102,5,0.0142615,11,-0.000104896,-3.06798,0.250681,0.235358,-7.8342,0.122671,
2,0,0,0,0,5981.11,0.121453,0.121182,-0.841252,5,0.0140018,11,-0.000101945,-3.07507,0.208061,0.283571,-9.29385,0.121182,
2,0,0,1,0,5981.41,0.119954,0.119685,-0.825829,5,0.0137467,11,-9.88393e-05,-3.08311,0.202016,0.292056,-9.43106,0.1196849,
2,0,0,1,0,5981.71,0.118456,0.118131,-0.810808,5,0.0134958,11,-9.57812e-05,-3.09108,0.224764,0.262497,-8.29976,0.118131,
2,0,0,1,0,5982.01,0.116958,0.116679,-0.798435,5,0.0132489,11,-9.31605e-05,-3.09776,0.191238,0.308516,-9.59967,0.116679,
2,0,0,1,0,5982.31,0.11546,0.115182,-0.779754,5,0.0130068,11,-8.98133e-05,-3.10804,0.156859,0.376134,-11.4602,0.115182,
2,0,0,1,0,5982.61,0.113962,0.113643,-0.759295,5,0.0127701,11,-8.62885e-05,-3.11959,0.162098,0.363976,-10.8601,0.113643,
2,0,0,1,0,5982.91,0.112463,0.112129,-0.750071,5,0.0125382,11,-8.41051e-05,-3.1249,0.167718,0.351781,-10.2756,0.112129,
2,0,0,1,0,5983.21,0.110965,0.110674,-0.733522,5,0.0123108,11,-8.11818e-05,-3.13459,0.163495,0.360867,-10.3183,0.110674,
2,0,0,1,0,5983.51,0.109468,0.109172,-0.718026,5,0.012088,11,-7.8388e-05,-3.14386,0.148421,0.397517,-11.1032,0.1091716,
2,0,0,0,0,5983.81,0.107969,0.107663,-0.700446,5,0.0118699,11,-7.54123e-05,-3.15463,0.172204,0.342617,-9.41648,0.107663,
2,0,0,0,0,5984.11,0.106471,0.106202,-0.688437,5,0.0116566,11,-7.31134e-05,-3.16214,0.183613,0.321328,-8.67821,0.106202,
2,0,0,1,0,5984.41,0.104972,0.104682,-0.676371,5,0.0114467,11,-7.08039e-05,-3.16982,0.183268,0.321933,-8.49462,0.104682,
2,0,0,1,0,5984.71,0.103474,0.103165,-0.664559,5,0.0112403,11,-6.85593e-05,-3.17747,0.185521,0.318024,-8.23756,0.103165,
2,0,0,1,0,5985.01,0.101977,0.101662,-0.653553,5,0.0110377,11,-6.64412e-05,-3.18472,0.209315,0.281871,-7.19029,0.101662,
2,0,0,1,0,5985.3,0.100478,0.100199,-0.642015,5,0.0108386,11,-6.43293e-05,-3.19246,0.230585,0.255871,-6.41615,0.100199,
2,0,0,1,0,5985.6,0.0989799,0.0986817,-0.634185,5,0.0106419,11,-6.25825e-05,-3.19778,0.279174,0.211338,-5.21442,0.0986817,
2,0,0,1,0,5985.9,0.0974812,0.0971415,-0.625353,5,0.010448,11,-6.07477e-05,-3.20387,0.265363,0.222337,-5.4309,0.0971415,
2,0,0,1,0,5986.2,0.0959834,0.0956817,-0.615691,5,0.0102565,11,-5.89104e-05,-3.21064,0.277926,0.212287,-5.11282,0.0956817,
2,0,0,1,0,5986.5,0.0944855,0.0941868,-0.607532,5,0.0100677,11,-5.72215e-05,-3.21643,0.319043,0.184928,-4.40796,0.0941868,
2,0,0,0,0,5986.8,0.0929871,0.0926999,-0.601997,5,0.00988066,11,-5.58051e-05,-3.22041,0.383248,0.153947,-3.61897,0.0926999,
2,0,0,0,0,5987.1,0.0914889,0.0911803,-0.599327,5,0.00969528,11,-5.46468e-05,-3.22234,0.345831,0.170604,-3.97983,0.0911803,
2,0,0,0,0,5987.4,0.0899907,0.0896693,-0.591207,5,0.00951171,11,-5.30131e-05,-3.22826,0.332882,0.17724,-4.08262,0.08966925,
2,0,0,1,0,5987.7,0.0884923,0.0881801,-0.582639,5,0.0093301,11,-5.13771e-05,-3.2346,0.325858,0.18106,-4.13248,0.0881801,
2,0,0,1,0,5988,0.0869946,0.0866974,-0.579299,5,0.00915028,11,-5.02237e-05,-3.2371,0.410355,0.143778,-3.25578,0.0866974,
2,0,0,1,0,5988.3,0.0854962,0.0851381,-0.575063,5,0.00897179,11,-4.89598e-05,-3.24028,0.326876,0.180496,-4.06226,0.08513815,
2,0,0,1,0,5988.6,0.083998,0.0837108,-0.569371,5,0.00879486,11,-4.76625e-05,-3.2446,0.291981,0.202068,-4.48603,0.0837108,
2,0,0,1,0,5988.9,0.0824998,0.0821838,-0.565267,5,0.00861943,11,-4.64558e-05,-3.24775,0.38842,0.151897,-3.34826,0.0821838,
2,0,0,1,0,5989.2,0.0810014,0.0807075,-0.559257,5,0.00844604,11,-4.51362e-05,-3.25239,0.453947,0.129971,-2.84448,0.0807075,
2,0,0,1,0,5989.5,0.0795035,0.0792159,-0.556445,5,0.00827365,11,-4.40793e-05,-3.25458,0.437711,0.134792,-2.9166,0.0792159,
2,0,0,1,0,5989.8,0.0780056,0.0777231,-0.550362,5,0.00810267,11,-4.27759e-05,-3.25935,0.340901,0.173071,-3.7085,0.0777231,
2,0,0,0,0,5990.1,0.076507,0.0762042,-0.54562,5,0.00793329,11,-4.15785e-05,-3.26311,0.353592,0.166859,-3.53717,0.0762042,
2,0,0,0,0,5990.4,0.0750088,0.0746762,-0.538808,5,0.00776603,11,-4.02361e-05,-3.26857,0.357039,0.165248,-3.46949,0.0746762,
2,0,0,1,0,5990.7,0.0735103,0.0731808,-0.532849,5,0.00760012,11,-3.89943e-05,-3.2734,0.364472,0.161878,-3.36157,0.0731808,
2,0,0,1,0,5991,0.0720124,0.0716572,-0.526534,5,0.00743579,11,-3.773e-05,-3.27857,0.352422,0.167413,-3.45021,0.0716572,
2,0,0,1,0,5991.3,0.0705146,0.0701952,-0.519956,5,0.00727331,11,-3.64984e-05,-3.28403,0.272113,0.216822,-4.4108,0.0701952,
2,0,0,1,0,5991.6,0.0690161,0.0687432,-0.512786,5,0.00711295,11,-3.52505e-05,-3.29006,0.269278,0.219104,-4.4074,0.0687432,
2,0,0,1,0,5991.9,0.0675179,0.0672226,-0.508856,5,0.00695426,11,-3.42066e-05,-3.29341,0.306166,0.192706,-3.81553,0.0672226,
2,0,0,1,0,5992.2,0.0660192,0.0657377,-0.506124,5,0.00679712,11,-3.32714e-05,-3.29574,0.277438,0.212661,-4.16055,0.0657377,
2,0,0,1,0,5992.5,0.0645214,0.0642311,-0.496274,5,0.006642,11,-3.18762e-05,-3.30428,0.236883,0.249068,-4.81962,0.0642311,
2,0,0,1,0,5992.8,0.0630235,0.0627318,-0.486444,5,0.00648904,11,-3.05155e-05,-3.31297,0.255731,0.230711,-4.40401,0.06273184,
2,0,0,0,0,5993.1,0.0615251,0.0612482,-0.482732,5,0.00633817,11,-2.95665e-05,-3.31629,0.246097,0.239743,-4.52708,0.0612482,
2,0,0,0,0,5993.4,0.0600269,0.0597329,-0.475213,5,0.00618896,11,-2.83858e-05,-3.32311,0.253527,0.232717,-4.33054,0.0597329,
2,0,0,0,0,5993.69,0.0585287,0.0582081,-0.468483,5,0.00604173,11,-2.72695e-05,-3.32931,0.215748,0.273467,-5.01184,0.0582081,
2,0,0,1,0,5993.99,0.0570303,0.0567263,-0.463591,5,0.00589641,11,-2.62978e-05,-3.33387,0.258503,0.228237,-4.13589,0.0567263,
2,0,0,1,0,5994.29,0.0555325,0.055219,-0.458175,5,0.0057532,11,-2.53e-05,-3.33897,0.28278,0.208643,-3.73145,0.05521898,
2,0,0,1,0,5994.59,0.0540342,0.0537098,-0.452966,5,0.00561141,11,-2.43287e-05,-3.34393,0.272093,0.216838,-3.82274,0.0537098,
2,0,0,1,0,5994.89,0.052536,0.0522146,-0.447135,5,0.00547103,11,-2.3347e-05,-3.34956,0.282711,0.208693,-3.64358,0.0522146,
2,0,0,1,0,5995.19,0.0510378,0.0507089,-0.44199,5,0.00533259,11,-2.24128e-05,-3.35459,0.274098,0.215251,-3.7153,0.05070886,
2,0,0,1,0,5995.49,0.0495394,0.0492242,-0.436959,5,0.00519588,11,-2.15089e-05,-3.35956,0.290292,0.203243,-3.46315,0.0492242,
2,0,0,1,0,5995.79,0.0480415,0.0477261,-0.432111,5,0.00506036,11,-2.0623e-05,-3.3644,0.525197,0.112339,-1.89174,0.0477261,
2,0,0,1,0,5996.09,0.0465436,0.0462258,-0.427404,5,0.0049262,11,-1.97571e-05,-3.36916,0.392827,0.150193,-2.51326,0.0462258,
2,0,0,0,0,5996.39,0.045045,0.0447568,-0.424231,5,0.00479313,11,-1.89872e-05,-3.3724,0.362128,0.162926,-2.70009,0.0447568,
2,0,0,0,0,5996.69,0.0435468,0.0432351,-0.418315,5,0.00466146,11,-1.80859e-05,-3.3785,0.392231,0.150421,-2.4642,0.0432351,
2,0,0,1,0,5996.99,0.0420483,0.0417726,-0.417373,5,0.00453073,11,-1.74347e-05,-3.37948,0.516214,0.114294,-1.85843,0.0417726,
2,0,0,1,0,5997.29,0.0405504,0.0402321,-0.415998,5,0.00440072,11,-1.67364e-05,-3.38091,0.61241,0.0963407,-1.5555,0.0402321,
2,0,0,1,0,5997.59,0.0390526,0.0387564,-0.411703,5,0.00427153,11,-1.59561e-05,-3.38542,0.501338,0.117685,-1.88878,0.0387564,
2,0,0,1,0,5997.89,0.0375541,0.0372417,-0.407925,5,0.00414316,11,-1.51918e-05,-3.38942,0.56536,0.104358,-1.66713,0.0372417,
2,0,0,1,0,5998.19,0.0360559,0.035738,-0.40725,5,0.00401567,11,-1.45543e-05,-3.39014,0.680419,0.0867113,-1.37887,0.035738,
2,0,0,1,0,5998.49,0.0345572,0.0342764,-0.405667,5,0.00388846,11,-1.39048e-05,-3.39183,0.835838,0.0705878,-1.11973,0.0342764,
2,0,0,1,0,5998.79,0.0330594,0.032736,-0.404472,5,0.00376171,11,-1.32408e-05,-3.39311,0.618006,0.0954683,-1.50259,0.032736,
2,0,0,1,0,5999.09,0.0315615,0.0312295,-0.403093,5,0.00363532,11,-1.25884e-05,-3.39459,1.24082,0.0475492,-0.748785,0.0312295,
2,0,0,0,0,5999.39,0.0300631,0.0297817,-0.402425,5,0.00350957,11,-1.19849e-05,-3.39532,2.30402,0.0256074,-0.401829,0.0297817,
2,0,0,0,0,5999.69,0.0285649,0.0282749,-0.40115,5,0.00338374,11,-1.13425e-05,-3.39669,30.8802,0.00191061,-0.0299262,0.0282749,
2,0,0,0,0,5999.99,0.0270667,0.0267946,-0.402486,5,0.00325792,11,-1.07844e-05,-3.39525,-4.89359,-0.0120566,0.188772,0.0267946,
2,0,0,1,0,6000.29,0.0255683,0.025264,-0.401831,5,0.0031322,11,-1.01519e-05,-3.39596,2.90484,0.020311,-0.318711,0.025264,
2,0,0,1,0,6000.59,0.0240706,0.0237759,-0.400432,5,0.0030069,11,-9.52065e-06,-3.39747,12.7502,0.00462739,-0.0726084,0.02377592,
2,0,0,1,0,6000.89,0.0225722,0.0222974,-0.400383,5,0.00288125,11,-8.9275e-06,-3.39752,-0.72739,-0.0811119,1.26848,0.0222974,
2,0,0,1,0,6001.19,0.021074,0.0207524,-0.401101,5,0.00275548,11,-8.3238e-06,-3.39675,-2.26093,-0.0260954,0.410211,0.0207524,
2,0,0,1,0,6001.49,0.0195758,0.0192848,-0.403189,5,0.00262953,11,-7.77542e-06,-3.39449,-1.41885,-0.0415831,0.654353,0.0192848,
2,0,0,1,0,6001.78,0.0180774,0.0177989,-0.4006,5,0.00250354,11,-7.13026e-06,-3.39729,-1.7145,-0.0344123,0.541047,0.0177989,
2,0,0,1,0,6002.08,0.0165795,0.0163094,-0.404751,5,0.00237727,11,-6.60125e-06,-3.39281,-1.27699,-0.0462023,0.727934,0.0163094,
2,0,0,1,0,6002.38,0.0150817,0.0147724,-0.408047,5,0.00225041,11,-6.02783e-06,-3.38929,-1.19786,-0.0492546,0.779446,0.0147724,
2,0,0,0,0,6002.68,0.013583,0.0132786,-0.405349,5,0.00212314,11,-5.38248e-06,-3.39217,-4.00115,-0.0147458,0.233834,0.0132786,
2,0,0,0,0,6002.98,0.0120848,0.0118057,-0.406975,5,0.00199569,11,-4.80464e-06,-3.39043,-1.19735,-0.0492756,0.785823,0.0118057,
2,0,0,1,0,6003.28,0.0105863,0.010269,-0.409857,5,0.00186804,11,-4.20882e-06,-3.38737,-0.879213,-0.0671054,1.07472,0.010269,
2,0,0,1,0,6003.58,0.00908846,0.00879204,-0.410634,5,0.00173962,11,-3.61031e-06,-3.38654,-0.708014,-0.0833317,1.33809,0.00879204,
2,0,0,1,0,6003.88,0.0075906,0.0072717,-0.412924,5,0.0016106,11,-3.00266e-06,-3.38413,-1.76809,-0.0333693,0.53728,0.0072717,
2,0,0,1,0,6004.18,0.00609208,0.00579852,-0.415351,5,0.00148102,11,-2.40842e-06,-3.38158,-0.817182,-0.0721993,1.16686,0.00579852,
2,0,0,1,0,6004.48,0.00459389,0.00431608,-0.417749,5,0.00135119,11,-1.80304e-06,-3.37908,-0.962192,-0.0613183,0.995021,0.00431608,
2,0,0,1,0,6004.78,0.00309525,0.00280782,-0.420531,5,0.00122043,11,-1.18078e-06,-3.3762,-0.481358,-0.12257,2.00078,0.00280782,
2,0,0,1,0,6005.08,0.00159739,0.00124169,-0.424052,5,0.00108676,11,-5.26539e-07,-3.37258, , , ,0.00124169,
2,0,0,0,0,6005.36,0.000199195,-0.000151629,-0.42265,5,0.000963149,11,6.40859e-08,-3.37402, , , ,-0.000151629,