File: Figure_codes/Fig_3-5/rawdata_trumpetplot_data/before 10th/20221101_1-115_002_TrumpetPlot_ParaChange_13_CV_C01_0.csv
mode,ox/red,error,control changes,counter inc.,time/s,control/V,Ewe/V,<I>/mA,cycle number,(Q-Qo)/C,I Range,P/W,log(|I|),Tafel slope mV/dec,alpha_eff,dI/d(E-IR),E-IR/V,
2,1,0,1,0,1214.19,2.44065e-05,-0.000687983,11.7849,1,0.0000000E+000,10,-8.10778e-06,-1.92868, , , ,-0.0006879826,
2,1,0,1,0,1214.2,0.00206084,0.00167991,13.36,1,6.492e-05,10,2.24435e-05,-1.87419, , , ,0.00167991,
2,1,0,1,0,1214.2,0.00446904,0.00414429,14.9124,1,0.000150103,10,6.18015e-05,-1.82645,0.0595177,0.991301,563.9,0.00414429,
2,1,0,1,0,1214.21,0.00686614,0.00652278,16.1198,1,0.000243399,10,0.000105146,-1.79264,0.0785512,0.751103,465.685,0.00652278,
2,1,0,1,0,1214.22,0.00926324,0.00895429,17.1354,1,0.000343384,10,0.000153435,-1.76611,0.101725,0.579993,383.153,0.008954294,
2,1,0,1,0,1214.22,0.0116603,0.0113964,17.9489,1,0.000448843,10,0.000204553,-1.74596,0.133127,0.443185,307.733,0.01139641,
2,1,0,1,0,1214.23,0.0140685,0.0137601,18.6073,1,0.000558642,10,0.000256037,-1.73032,0.17236,0.342306,246.956,0.0137601,
2,1,0,1,0,1214.23,0.0164657,0.0161343,19.1425,1,0.000672006,10,0.000308851,-1.718,0.228976,0.257669,191.238,0.0161343,
2,1,0,1,0,1214.24,0.0188628,0.0185489,19.5363,1,0.000788166,10,0.000362376,-1.70916,0.299898,0.196734,149.401,0.0185489,
2,1,0,1,0,1214.25,0.0212682,0.0209549,19.8644,1,0.000906382,10,0.000416258,-1.70192,0.393748,0.149842,115.786,0.0209549,
2,1,0,1,0,1214.25,0.0236653,0.0233705,20.1077,1,0.00102635,10,0.000469927,-1.69664,0.505043,0.116822,91.3465,0.0233705,
2,1,0,1,0,1214.26,0.0260624,0.0257776,20.279,1,0.00114754,10,0.000522744,-1.69295,0.699443,0.0843528,66.6611,0.0257776,
2,1,0,1,0,1214.26,0.0284595,0.0281455,20.4057,1,0.00126965,10,0.000574329,-1.69025,0.970534,0.0607913,48.3444,0.0281455,
2,1,0,1,0,1214.27,0.0308677,0.030577,20.5154,1,0.00139249,10,0.000627301,-1.68792,1.28109,0.0460545,36.8201,0.030577,
2,1,0,1,0,1214.28,0.0332648,0.0329577,20.5872,1,0.00151579,10,0.000678504,-1.6864,2.14478,0.0275087,22.0746,0.0329577,
2,1,0,1,0,1214.28,0.0356619,0.0353372,20.6174,1,0.00163944,10,0.000728561,-1.68577,3.14351,0.0187688,15.098,0.0353372,
2,1,0,1,0,1214.29,0.0380673,0.0377475,20.6479,1,0.00176326,10,0.000779408,-1.68512,4.10018,0.0143896,11.5986,0.0377475,
2,1,0,1,0,1214.29,0.0404644,0.0401281,20.6821,1,0.00188726,10,0.000829932,-1.68441,6.76064,0.00872699,7.0393,0.0401281,
2,1,0,1,0,1214.3,0.0428615,0.0426021,20.6959,1,0.00201142,10,0.00088169,-1.68411,8.39015,0.00703206,5.67844,0.0426021,
2,1,0,1,0,1214.31,0.0452586,0.0449169,20.6867,1,0.00213554,10,0.000929184,-1.68431,6.77706,0.00870584,7.04009,0.0449169,
2,1,0,1,0,1214.31,0.0476668,0.0473813,20.7338,1,0.00225983,10,0.000982394,-1.68332,4.88233,0.0120844,9.76876,0.0473813,
2,1,0,1,0,1214.32,0.0500639,0.0497481,20.7511,1,0.0023843,10,0.00103233,-1.68296,5.84734,0.0100901,8.16894,0.04974813,
2,1,0,1,0,1214.32,0.0524611,0.0521309,20.7583,1,0.00250879,10,0.00108215,-1.68281,2.85615,0.0206572,16.7685,0.0521309,
2,1,0,1,0,1214.33,0.0548692,0.0545634,20.8313,1,0.00263354,10,0.00113663,-1.68128,1.98705,0.0296922,24.1251,0.0545634,
2,1,0,1,0,1214.34,0.0572664,0.0569515,20.8815,1,0.0027587,10,0.00118923,-1.68024,1.99012,0.0296464,24.1655,0.0569515,
2,1,0,1,0,1214.34,0.0596635,0.0593522,20.9418,1,0.00288416,10,0.00124294,-1.67899,1.42258,0.0414738,33.9508,0.0593522,
2,1,0,1,0,1214.35,0.0620633,0.0617413,21.0364,1,0.00301007,10,0.00129882,-1.67703,1.11725,0.0528084,43.4105,0.06174133,
2,1,0,1,0,1214.35,0.064466,0.0641622,21.1611,1,0.00313669,10,0.00135775,-1.67446,0.867806,0.0679876,56.1917,0.0641622,
2,1,0,1,0,1214.36,0.0668631,0.0665884,21.3077,1,0.00326411,10,0.00141885,-1.67146,0.801459,0.0736158,61.2292,0.0665884,
2,1,0,1,0,1214.37,0.0692602,0.0689478,21.4641,1,0.00339241,10,0.0014799,-1.66829,0.663038,0.0889843,74.6525,0.0689478,
2,1,0,1,0,1214.37,0.0716684,0.0713295,21.656,1,0.00352176,10,0.00154471,-1.66442,0.587474,0.10043,84.9255,0.0713295,
2,1,0,1,0,1214.38,0.0740655,0.07376,21.8697,1,0.00365237,10,0.00161311,-1.66016,0.57444,0.102709,87.6723,0.07376,
2,1,0,1,0,1214.38,0.0764626,0.0761173,22.0735,1,0.00378424,10,0.00168017,-1.65613,0.496576,0.118814,102.598,0.0761173,
2,1,0,1,0,1214.39,0.0788653,0.0785244,22.3409,1,0.00391745,10,0.00175431,-1.6509,0.452797,0.130301,113.757,0.0785244,
2,1,0,1,0,1214.4,0.0812651,0.0809347,22.6388,1,0.00405246,10,0.00183227,-1.64515,0.430896,0.136924,120.864,0.0809347,
2,1,0,1,0,1214.4,0.0836622,0.0832718,22.9032,1,0.00418911,10,0.00190719,-1.6401,0.416243,0.141744,126.921,0.0832718,
2,1,0,1,0,1214.41,0.0860593,0.0856991,23.2195,1,0.00432751,10,0.00198989,-1.63415,0.361799,0.163074,148.132,0.0856991,
2,1,0,1,0,1214.41,0.0884675,0.0881211,23.6274,1,0.00446811,10,0.00208207,-1.62658,0.333907,0.176696,162.949,0.0881211,
2,1,0,1,0,1214.42,0.0908647,0.0905441,24.0164,1,0.00461106,10,0.00217455,-1.61949,0.328893,0.17939,168.284,0.09054409,
2,1,0,1,0,1214.43,0.0932618,0.0929512,24.4351,1,0.00475647,10,0.00227127,-1.61199,0.31391,0.187952,179.382,0.0929512,
2,1,0,1,0,1214.43,0.09567,0.0953074,24.8879,1,0.00490445,10,0.002372,-1.60401,0.305858,0.1929,187.38,0.0953074,
2,1,0,1,0,1214.44,0.0980671,0.0977474,25.3448,1,0.00505517,10,0.00247739,-1.59611,0.303715,0.194261,192.089,0.09774743,
2,1,0,1,0,1214.44,0.100464,0.100144,25.7933,1,0.00520861,10,0.00258304,-1.58849,0.299797,0.1968,198.299,0.100144,
2,1,0,1,0,1214.45,0.102861,0.102533,26.2774,1,0.00536485,10,0.0026943,-1.58042,0.287338,0.205333,210.825,0.102533,
2,1,0,1,0,1214.46,0.105267,0.104956,26.8125,1,0.0055242,10,0.00281414,-1.57166,0.286542,0.205904,215.28,0.104956,
2,1,0,1,0,1214.46,0.107664,0.107315,27.3198,1,0.00568668,10,0.00293184,-1.56352,0.285589,0.206591,220.41,0.107315,
2,1,0,1,0,1214.47,0.110061,0.109716,27.8571,1,0.00585222,10,0.00305638,-1.55506,0.277449,0.212652,231.521,0.109716,
2,1,0,1,0,1214.47,0.112469,0.112141,28.4498,1,0.00602118,10,0.0031904,-1.54592,0.27073,0.217929,241.871,0.112141,
2,1,0,1,0,1214.48,0.114866,0.114537,29.0278,1,0.00619369,10,0.00332475,-1.53719,0.271893,0.216997,245.892,0.114537,
2,1,0,1,0,1214.49,0.117263,0.116946,29.6224,1,0.00636968,10,0.00346422,-1.52838,0.26235,0.22489,260.369,0.116946,
2,1,0,1,0,1214.49,0.11966,0.11936,30.2699,1,0.00654943,10,0.003613,-1.51899,0.255112,0.231271,273.369,0.11936,
2,1,0,1,0,1214.5,0.122066,0.121751,30.9442,1,0.00673319,10,0.00376748,-1.50942,0.251619,0.234482,283.283,0.121751,
2,1,0,1,0,1214.5,0.124463,0.124165,31.6258,1,0.00692096,10,0.00392683,-1.49996,0.246199,0.239643,296.047,0.124165,
2,1,0,1,0,1214.51,0.12686,0.126524,32.3483,1,0.00711297,10,0.00409283,-1.49015,0.237686,0.248226,313.822,0.126524,
2,1,0,1,0,1214.52,0.129268,0.128989,33.1398,1,0.00730949,10,0.00427468,-1.47965,0.23188,0.254442,329.224,0.128989,
2,1,0,1,0,1214.52,0.131665,0.131336,33.9456,1,0.00751084,10,0.00445827,-1.46922,0.225171,0.262023,347.305,0.131336,
2,1,0,1,0,1214.53,0.134062,0.133745,34.7747,1,0.00771709,10,0.00465094,-1.45874,0.218948,0.269471,366.403,0.133745,
2,1,0,1,0,1214.53,0.13646,0.136176,35.7043,1,0.0079286,10,0.00486205,-1.44728,0.208595,0.282845,394.449,0.1361755,
2,1,0,1,0,1214.54,0.138868,0.138577,36.6756,1,0.00814585,10,0.00508241,-1.43562,0.206624,0.285543,408.67,0.138577,
2,1,0,1,0,1214.55,0.141265,0.140964,37.6483,1,0.00836886,10,0.00530707,-1.42425,0.203935,0.289308,425.686,0.1409643,
2,1,0,1,0,1214.55,0.143662,0.143344,38.715,1,0.008598,10,0.00554956,-1.41212,0.197579,0.298614,451.364,0.143344,
2,1,0,1,0,1214.56,0.146067,0.145737,39.8317,1,0.00883373,10,0.00580497,-1.39977,0.198229,0.297636,462.525,0.145737,
2,1,0,1,0,1214.56,0.148465,0.148134,40.9396,1,0.00907612,10,0.00606453,-1.38786,0.195945,0.301105,481.414,0.1481337,
2,1,0,1,0,1214.57,0.150862,0.150558,42.1135,1,0.00932539,10,0.00634052,-1.37558,0.19507,0.302456,497.291,0.150558,
2,1,0,1,0,1214.58,0.153264,0.152947,43.3217,1,0.00958181,10,0.00662592,-1.36329,0.197982,0.298008,503.73,0.152947,
2,1,0,1,0,1214.58,0.155667,0.155357,44.5395,1,0.00984555,10,0.00691953,-1.35125,0.201753,0.292437,508.137,0.1553572,
2,1,0,1,0,1214.59,0.158064,0.157769,45.761,1,0.0101166,10,0.00721964,-1.3395,0.205888,0.286564,511.669,0.157769,
2,1,0,1,0,1214.59,0.160461,0.160109,46.9975,1,0.010395,10,0.00752471,-1.32793,0.212065,0.278217,510.029,0.160109,
2,1,0,1,0,1214.6,0.162867,0.162563,48.2335,1,0.0106808,10,0.00784097,-1.31665,0.219262,0.269084,505.876,0.162563,
2,1,0,1,0,1214.61,0.165264,0.164946,49.4207,1,0.0109739,10,0.00815176,-1.30609,0.231582,0.25477,491.051,0.164946,
2,1,0,1,0,1214.61,0.167661,0.167338,50.5819,1,0.011274,10,0.00846426,-1.296,0.242389,0.24341,480.184,0.167338,
2,1,0,1,0,1214.62,0.170069,0.169756,51.7419,1,0.0115811,10,0.00878353,-1.28616,0.257574,0.22906,461.657,0.169756,
2,1,0,1,0,1214.62,0.172466,0.17215,52.7804,1,0.0118948,10,0.00908613,-1.27753,0.286947,0.205613,422.929,0.17215,
2,1,0,1,0,1214.63,0.174863,0.174536,53.7526,1,0.0122146,10,0.00938175,-1.2696,0.314741,0.187455,392.719,0.174536,
2,1,0,1,0,1214.64,0.17726,0.176916,54.6575,1,0.01254,10,0.0096698,-1.26235,0.362659,0.162687,346.282,0.1769163,
2,1,0,1,0,1214.64,0.179668,0.179318,55.4235,1,0.0128704,10,0.00993844,-1.25631,0.448742,0.131479,283.706,0.179318,
2,1,0,1,0,1214.65,0.182066,0.18174,56.0417,1,0.0132049,10,0.010185,-1.25149,0.59359,0.0993951,216.761,0.18174,
2,1,0,1,0,1214.65,0.184463,0.184119,56.4922,1,0.0135426,10,0.0104013,-1.24801,0.940112,0.0627585,137.876,0.1841186,
2,1,0,1,0,1214.66,0.186868,0.186602,56.713,1,0.0138824,10,0.0105828,-1.24632,3.50514,0.0168324,37.1058,0.186602,
2,1,0,1,0,1214.67,0.189265,0.188967,56.679,1,0.0142227,10,0.0107104,-1.24658,-1.74846,-0.0337439,-74.306,0.188967,
2,1,0,1,0,1214.67,0.191662,0.19134,56.3494,1,0.0145619,10,0.0107819,-1.24911,-0.652919,-0.0903634,-197.762,0.19134,
2,1,0,1,0,1214.68,0.194059,0.193764,55.7224,1,0.0148982,10,0.010797,-1.25397,-0.370846,-0.159096,-343.956,0.193764,
2,1,0,1,0,1214.68,0.196468,0.19616,54.7288,1,0.0152297,10,0.0107356,-1.26178,-0.256639,-0.229895,-487.863,0.19616,
2,1,0,1,0,1214.69,0.198865,0.198587,53.3393,1,0.0155539,10,0.0105925,-1.27295,-0.188807,-0.312488,-646.457,0.198587,
2,1,0,1,0,1214.7,0.201262,0.200937,51.6144,1,0.0158688,10,0.0103712,-1.28723,-0.149678,-0.39418,-788.513,0.200937,
2,1,0,1,0,1214.7,0.203667,0.203382,49.5294,1,0.0161722,10,0.0100734,-1.30514,-0.121596,-0.485212,-931.316,0.203382,
2,1,0,1,0,1214.71,0.206064,0.205805,47.0975,1,0.016462,10,0.00969291,-1.327,-0.102714,-0.574409,-1049.41,0.205805,
2,1,0,1,0,1214.71,0.208461,0.208216,44.4539,1,0.0167365,10,0.00925603,-1.35209,-0.0894534,-0.659561,-1136.87,0.208216,
2,1,0,1,0,1214.72,0.210859,0.21062,41.5706,1,0.0169943,10,0.00875561,-1.38121,-0.0787655,-0.749059,-1209.16,0.21062,
2,1,0,1,0,1214.73,0.213267,0.213001,38.6036,1,0.0172346,10,0.0082226,-1.41337,-0.0715297,-0.824832,-1237.67,0.213001,
2,1,0,1,0,1214.73,0.215664,0.215377,35.611,1,0.017457,10,0.00766981,-1.44842,-0.0664273,-0.88819,-1231.16,0.215377,
2,1,0,1,0,1214.74,0.218061,0.217777,32.6742,1,0.0176615,10,0.00711569,-1.4858,-0.0632023,-0.933511,-1190.02,0.217777,
2,1,0,1,0,1214.74,0.220469,0.22021,29.9087,1,0.0178488,10,0.00658617,-1.5242,-0.0618659,-0.953676,-1114.09,0.22021,
2,1,0,1,0,1214.75,0.222866,0.222569,27.3174,1,0.0180201,10,0.00608001,-1.56356,-0.0623497,-0.946276,-1012.62,0.222569,
2,1,0,1,0,1214.76,0.225263,0.224971,24.9996,1,0.0181767,10,0.00562418,-1.60207,-0.063958,-0.922481,-905.333,0.224971,
2,1,0,1,0,1214.76,0.227663,0.22741,22.9593,1,0.0183202,10,0.00522117,-1.63904,-0.0682668,-0.864256,-780.214,0.22741,
2,1,0,1,0,1214.77,0.230066,0.229797,21.2222,1,0.0184525,10,0.00487678,-1.67321,-0.0739067,-0.798304,-667.414,0.229797,
2,1,0,1,0,1214.77,0.232463,0.232174,19.7865,1,0.0185753,10,0.00459392,-1.70363,-0.0841284,-0.701309,-546.601,0.2321741,
2,1,0,1,0,1214.78,0.23486,0.234588,18.6244,1,0.0186903,10,0.00436905,-1.72992,-0.0990622,-0.595586,-436.851,0.234588,
2,1,0,1,0,1214.79,0.237268,0.236995,17.6894,1,0.018799,10,0.0041923,-1.75229,-0.120172,-0.490962,-342.282,0.2369947,
2,1,0,1,0,1214.79,0.239665,0.239353,16.9798,1,0.0189029,10,0.00406417,-1.77007,-0.148822,-0.396446,-264.837,0.239353,
2,1,0,1,0,1214.8,0.242063,0.24181,16.4359,1,0.019003,10,0.00397437,-1.78421,-0.19444,-0.303435,-196.041,0.24181,
2,1,0,1,0,1214.8,0.244465,0.244162,16.0329,1,0.0191003,10,0.00391462,-1.79499,-0.255093,-0.231288,-145.655,0.244162,
2,1,0,1,0,1214.81,0.246865,0.246597,15.7414,1,0.0191956,10,0.00388179,-1.80296,-0.344098,-0.171463,-105.811,0.246597,
2,1,0,1,0,1214.82,0.249262,0.248978,15.5284,1,0.0192894,10,0.00386625,-1.80887,-0.456535,-0.129234,-78.6053,0.248978,
2,1,0,1,0,1214.82,0.251659,0.25138,15.3719,1,0.0193821,10,0.0038642,-1.81327,-0.62832,-0.0939011,-56.4921,0.25138,
2,1,0,1,0,1214.83,0.254067,0.253748,15.2614,1,0.019474,10,0.00387256,-1.8164,-0.883356,-0.0667907,-39.8708,0.253748,
2,1,0,1,0,1214.83,0.256465,0.256183,15.1876,1,0.0195653,10,0.00389079,-1.81851,-1.09083,-0.0540873,-32.1066,0.256183,
2,1,0,1,0,1214.84,0.258862,0.258589,15.1312,1,0.0196563,10,0.00391276,-1.82013,-1.51721,-0.0388871,-22.9649,0.258589,
2,1,0,1,0,1214.85,0.26127,0.260973,15.0821,1,0.0197469,10,0.00393602,-1.82154,-1.8638,-0.0316557,-18.6373,0.260973,
2,1,0,1,0,1214.85,0.263667,0.263364,15.0286,1,0.0198372,10,0.003958,-1.82308,-2.30786,-0.0255648,-14.9998,0.263364,
2,1,0,1,0,1214.86,0.266064,0.265738,15.0119,1,0.0199273,10,0.00398924,-1.82356,-2.12683,-0.0277408,-16.2371,0.265738,
2,1,0,1,0,1214.86,0.268461,0.268189,14.9495,1,0.0200171,10,0.0040093,-1.82537,-2.08452,-0.0283039,-16.5306,0.268189,
2,1,0,1,0,1214.87,0.270867,0.270571,14.9295,1,0.0201068,10,0.00403951,-1.82595,-2.51678,-0.0234427,-13.6482,0.270571,
2,1,0,1,0,1214.88,0.273264,0.272982,14.893,1,0.0201963,10,0.00406553,-1.82702,-1.67402,-0.0352446,-20.4628,0.2729817,
2,1,0,1,0,1214.88,0.275661,0.275375,14.8333,1,0.0202855,10,0.00408473,-1.82876,-1.87181,-0.0315203,-18.2675,0.275375,
2,1,0,1,0,1214.89,0.278069,0.277786,14.8059,1,0.0203744,10,0.00411288,-1.82957,-2.15448,-0.0273848,-15.8237,0.2777864,
2,1,0,1,0,1214.89,0.280466,0.280163,14.7739,1,0.0204631,10,0.00413908,-1.83051,-1.82802,-0.0322754,-18.5892,0.280163,
2,1,0,1,0,1214.9,0.282863,0.282547,14.7199,1,0.0205516,10,0.00415906,-1.8321,-1.83885,-0.0320853,-18.4462,0.282547,
2,1,0,1,0,1214.91,0.28526,0.284976,14.6646,1,0.0206397,10,0.00417906,-1.83373,-1.80246,-0.0327331,-18.7488,0.284976,
2,1,0,1,0,1214.91,0.287666,0.287367,14.6257,1,0.0207276,10,0.00420295,-1.83488,-1.7868,-0.03302,-18.8458,0.287367,
2,1,0,1,0,1214.92,0.290063,0.289773,14.5895,1,0.0208153,10,0.00422764,-1.83596,-1.51367,-0.0389781,-22.1671,0.289773,
2,1,0,1,0,1214.92,0.29246,0.292128,14.5213,1,0.0209026,10,0.00424209,-1.83799,-1.55421,-0.0379614,-21.5223,0.292128,
2,1,0,1,0,1214.93,0.294868,0.294589,14.4781,1,0.0209896,10,0.00426509,-1.83929,-1.95233,-0.0302203,-17.0888,0.294589,
2,1,0,1,0,1214.94,0.297265,0.296986,14.44,1,0.0210763,10,0.00428847,-1.84043,-1.80523,-0.0326827,-18.4038,0.296986,
2,1,0,1,0,1214.94,0.29958,0.299294,14.3837,1,0.0211599,10,0.00430496,-1.84213,-0.0531641,-1.10977,-585.533,0.299294,
2,1,0,0,0,1214.94,0.299962,0.299708,14.2374,1,0.0211786,10,0.00426707,-1.84657,0.0040506,14.5657,5242.67,0.299708,
2,1,0,1,0,1214.95,0.297903,0.297743,7.50221,1,0.021232,10,0.00223373,-2.12481,0.00410446,14.3746,2622.89,0.297743,
2,1,0,1,0,1214.95,0.295506,0.295279,2.13877,1,0.0212594,10,0.000631533,-2.66984,0.0103098,5.72272,1867.67,0.295279,
2,0,0,1,0,1214.96,0.293101,0.29281,-1.41517,1,0.0212605,10,-0.000414376,-2.84919,-0.0878689,-0.671455,1246.92,0.29281,
2,0,0,1,0,1214.97,0.290704,0.290481,-3.76742,1,0.0212443,10,-0.00109436,-2.42396,-0.00553856,-10.6526,832.256,0.290481,
2,0,0,1,0,1214.97,0.288307,0.288014,-5.34871,1,0.0212165,10,-0.0015405,-2.27175,-0.0188842,-3.12431,569.444,0.288014,
2,0,0,1,0,1214.98,0.28591,0.285688,-6.42007,1,0.0211809,10,-0.00183413,-2.19246,-0.0355753,-1.65845,392.441,0.285688,
2,0,0,1,0,1214.98,0.283501,0.283207,-7.2002,1,0.0211398,10,-0.00203915,-2.14266,-0.0577894,-1.02095,276.779,0.283207,
2,0,0,1,0,1214.99,0.281104,0.28081,-7.73029,1,0.0210949,10,-0.00217074,-2.1118,-0.0898191,-0.656876,194.324,0.28081,
2,0,0,1,0,1215,0.278707,0.278438,-8.11057,1,0.0210473,10,-0.00225829,-2.09095,-0.127485,-0.4628,145.134,0.278438,
2,0,0,1,0,1215,0.276302,0.27603,-8.43219,1,0.0209976,10,-0.00232754,-2.07406,-0.16449,-0.358686,116.816,0.27603,
2,0,0,1,0,1215.01,0.273905,0.273641,-8.66483,1,0.0209463,10,-0.00237106,-2.06224,-0.21616,-0.272945,91.8056,0.273641,
2,0,0,1,0,1215.01,0.271508,0.271246,-8.84268,1,0.0208937,10,-0.00239854,-2.05342,-0.253352,-0.232878,80.427,0.271246,
2,0,0,1,0,1215.02,0.269105,0.26882,-9.04398,1,0.02084,10,-0.0024312,-2.04364,-0.284404,-0.207452,73.0284,0.26882,
2,0,0,1,0,1215.03,0.266702,0.266435,-9.20203,1,0.0207853,10,-0.00245174,-2.03612,-0.330507,-0.178514,63.9768,0.266435,
2,0,0,1,0,1215.03,0.264305,0.264009,-9.33726,1,0.0207296,10,-0.00246512,-2.02978,-0.366887,-0.160812,58.6164,0.264009,
2,0,0,1,0,1215.04,0.261908,0.261593,-9.48744,1,0.0206731,10,-0.00248185,-2.02285,-0.36006,-0.163862,60.714,0.261593,
2,0,0,1,0,1215.04,0.2595,0.259189,-9.64733,1,0.0206157,10,-0.00250048,-2.01559,-0.363143,-0.162471,61.065,0.259189,
2,0,0,1,0,1215.05,0.257103,0.256824,-9.78669,1,0.0205574,10,-0.00251346,-2.00936,-0.420294,-0.140378,53.515,0.256824,
2,0,0,1,0,1215.06,0.254706,0.254408,-9.90425,1,0.0204983,10,-0.00251972,-2.00418,-0.398343,-0.148114,57.3808,0.254408,
2,0,0,1,0,1215.06,0.2523,0.252028,-10.056,1,0.0204385,10,-0.00253441,-1.99757,-0.394597,-0.14952,58.6579,0.252028,
2,0,0,1,0,1215.07,0.249903,0.249633,-10.1925,1,0.0203777,10,-0.00254437,-1.99172,-0.399533,-0.147672,58.5869,0.249633,
2,0,0,1,0,1215.07,0.247506,0.247211,-10.3119,1,0.0203162,10,-0.00254921,-1.98666,-0.4019,-0.146803,59.2075,0.247211,
2,0,0,1,0,1215.08,0.245109,0.24483,-10.4554,1,0.0202539,10,-0.0025598,-1.98066,-0.383482,-0.153853,62.8377,0.24483,
2,0,0,1,0,1215.09,0.242701,0.242412,-10.6219,1,0.0201906,10,-0.00257489,-1.9738,-0.395525,-0.149169,61.6431,0.242412,
2,0,0,1,0,1215.09,0.240304,0.240008,-10.7371,1,0.0201265,10,-0.002577,-1.96911,-0.433243,-0.136182,57.1601,0.240008,
2,0,0,1,0,1215.1,0.237906,0.237565,-10.8882,1,0.0200616,10,-0.00258666,-1.96304,-0.406905,-0.144997,61.6573,0.2375652,
2,0,0,1,0,1215.1,0.235501,0.235198,-11.0487,1,0.0199958,10,-0.00259863,-1.95669,-0.406015,-0.145315,62.5944,0.235198,
2,0,0,1,0,1215.11,0.233104,0.232835,-11.192,1,0.0199291,10,-0.00260589,-1.95109,-0.416788,-0.141559,61.8219,0.232835,
2,0,0,1,0,1215.12,0.230707,0.230405,-11.3401,1,0.0198615,10,-0.00261283,-1.94538,-0.392776,-0.150213,66.6225,0.230405,
2,0,0,1,0,1215.12,0.22831,0.228026,-11.4959,1,0.019793,10,-0.00262136,-1.93946,-0.385138,-0.153192,68.7958,0.228026,
2,0,0,1,0,1215.13,0.225902,0.225588,-11.6822,1,0.0197234,10,-0.00263536,-1.93248,-0.376865,-0.156555,71.2296,0.2255879,
2,0,0,1,0,1215.13,0.223504,0.223232,-11.8446,1,0.0196528,10,-0.00264408,-1.92648,-0.390417,-0.151121,69.8496,0.223232,
2,0,0,1,0,1215.14,0.221107,0.220824,-12.002,1,0.0195813,10,-0.00265031,-1.92075,-0.354807,-0.166287,78.0772,0.220824,
2,0,0,1,0,1215.15,0.218699,0.218441,-12.2245,1,0.0195086,10,-0.00267032,-1.91277,-0.352736,-0.167264,79.5873,0.218441,
2,0,0,1,0,1215.15,0.216302,0.216002,-12.398,1,0.0194347,10,-0.00267798,-1.90665,-0.364455,-0.161885,78.3307,0.216002,
2,0,0,1,0,1215.16,0.213905,0.213621,-12.5864,1,0.0193598,10,-0.00268873,-1.9001,-0.342366,-0.17233,84.8161,0.213621,
2,0,0,1,0,1215.16,0.211505,0.211205,-12.8047,1,0.0192837,10,-0.00270441,-1.89263,-0.323746,-0.182242,91.0618,0.211205,
2,0,0,1,0,1215.17,0.209102,0.208824,-13.0286,1,0.0192061,10,-0.00272069,-1.8851,-0.311354,-0.189495,96.4186,0.208824,
2,0,0,1,0,1215.18,0.206705,0.20637,-13.2661,1,0.0191272,10,-0.00273773,-1.87726,-0.303683,-0.194282,100.715,0.20637,
2,0,0,1,0,1215.18,0.204308,0.203999,-13.5267,1,0.0190468,10,-0.00275944,-1.86881,-0.27816,-0.212108,112.003,0.203999,
2,0,0,1,0,1215.19,0.2019,0.201599,-13.8058,1,0.0189648,10,-0.00278324,-1.85994,-0.279578,-0.211032,113.684,0.2015994,
2,0,0,1,0,1215.19,0.199503,0.199206,-14.0719,1,0.0188812,10,-0.0028032,-1.85165,-0.267963,-0.22018,121.001,0.199206,
2,0,0,1,0,1215.2,0.197106,0.196818,-14.3598,1,0.0187959,10,-0.00282626,-1.84285,-0.249638,-0.236342,132.82,0.196818,
2,0,0,1,0,1215.21,0.194709,0.194432,-14.6928,1,0.0187087,10,-0.00285674,-1.8329,-0.236021,-0.249977,143.616,0.194432,
2,0,0,1,0,1215.21,0.192303,0.191966,-15.0623,1,0.0186193,10,-0.00289144,-1.82211,-0.228604,-0.258088,151.738,0.191966,
2,0,0,1,0,1215.22,0.189906,0.189649,-15.4145,1,0.0185278,10,-0.00292333,-1.81207,-0.222234,-0.265485,160.143,0.189649,
2,0,0,1,0,1215.22,0.187509,0.187229,-15.8301,1,0.0184341,10,-0.00296385,-1.80052,-0.204621,-0.288338,178.345,0.187229,
2,0,0,1,0,1215.23,0.185101,0.184817,-16.2923,1,0.0183377,10,-0.00301111,-1.78802,-0.198102,-0.297826,189.288,0.184817,
2,0,0,1,0,1215.24,0.182704,0.182455,-16.722,1,0.0182387,10,-0.00305101,-1.77671,-0.193218,-0.305355,199.895,0.182455,
2,0,0,1,0,1215.24,0.180307,0.180014,-17.2408,1,0.0181367,10,-0.00310359,-1.76344,-0.178962,-0.329678,222.143,0.180014,
2,0,0,1,0,1215.25,0.177904,0.177616,-17.7919,1,0.0180316,10,-0.00316013,-1.74978,-0.174112,-0.338862,235.511,0.177616,
2,0,0,1,0,1215.25,0.175501,0.175185,-18.3761,1,0.0179231,10,-0.00321921,-1.73575,-0.166913,-0.353478,253.868,0.175185,
2,0,0,1,0,1215.26,0.173104,0.172854,-19.0025,1,0.0178109,10,-0.00328465,-1.72119,-0.159018,-0.371028,275.579,0.1728539,
2,0,0,1,0,1215.27,0.170707,0.170443,-19.6783,1,0.0176949,10,-0.00335401,-1.70601,-0.15326,-0.384967,296.217,0.170443,
2,0,0,1,0,1215.27,0.168302,0.168033,-20.4267,1,0.0175745,10,-0.00343237,-1.6898,-0.148707,-0.396754,316.544,0.168033,
2,0,0,1,0,1215.28,0.165905,0.165623,-21.2065,1,0.0174495,10,-0.00351228,-1.67353,-0.145104,-0.406605,337.012,0.165623,
2,0,0,1,0,1215.28,0.163507,0.163268,-22.0338,1,0.0173197,10,-0.00359742,-1.65691,-0.138996,-0.424473,366.032,0.163268,
2,0,0,1,0,1215.29,0.161099,0.160826,-22.9811,1,0.0171847,10,-0.00369596,-1.63863,-0.134037,-0.440177,394.991,0.160826,
2,0,0,1,0,1215.3,0.158702,0.158509,-23.9415,1,0.0170438,10,-0.00379494,-1.62085,-0.129401,-0.455946,426.643,0.158509,
2,0,0,1,0,1215.3,0.156305,0.156058,-24.9982,1,0.016897,10,-0.00390117,-1.60209,-0.129115,-0.456958,446.373,0.1560581,
2,0,0,1,0,1215.31,0.153908,0.153634,-26.1062,1,0.0167436,10,-0.00401081,-1.58326,-0.126403,-0.466759,475.816,0.153634,
2,0,0,1,0,1215.31,0.151503,0.151292,-27.269,1,0.0165833,10,-0.00412557,-1.56433,-0.126843,-0.465143,495.541,0.151292,
2,0,0,1,0,1215.32,0.149105,0.148872,-28.4983,1,0.0164159,10,-0.00424259,-1.54518,-0.125582,-0.469813,522.956,0.148872,
2,0,0,1,0,1215.33,0.146708,0.146454,-29.7918,1,0.016241,10,-0.00436312,-1.5259,-0.125247,-0.47107,547.647,0.146454,
2,0,0,1,0,1215.33,0.1443,0.144035,-31.1261,1,0.0160581,10,-0.00448325,-1.50688,-0.129363,-0.456083,553.082,0.144035,
2,0,0,1,0,1215.34,0.141903,0.141691,-32.4041,1,0.0158673,10,-0.00459136,-1.4894,-0.130972,-0.450478,570.849,0.141691,
2,0,0,1,0,1215.34,0.139506,0.139313,-33.8318,1,0.0156685,10,-0.00471321,-1.47068,-0.130113,-0.453453,599.295,0.139313,
2,0,0,1,0,1215.35,0.137109,0.136881,-35.3199,1,0.0154609,10,-0.00483462,-1.45198,-0.132273,-0.446047,614.083,0.136881,
2,0,0,1,0,1215.36,0.134701,0.134444,-36.7877,1,0.0152444,10,-0.00494587,-1.4343,-0.138063,-0.42734,613.132,0.134444,
2,0,0,1,0,1215.36,0.132303,0.13207,-38.2628,1,0.0150192,10,-0.00505336,-1.41722,-0.144071,-0.40952,610.723,0.1320696,
2,0,0,1,0,1215.37,0.129906,0.129721,-39.7228,1,0.0147851,10,-0.00515288,-1.40096,-0.151707,-0.388908,602.051,0.129721,
2,0,0,1,0,1215.37,0.127501,0.127267,-41.1633,1,0.0145422,10,-0.00523873,-1.38549,-0.158368,-0.37255,597.776,0.127267,
2,0,0,1,0,1215.38,0.125104,0.124872,-42.5713,1,0.0142909,10,-0.00531595,-1.37088,-0.165872,-0.355696,590.495,0.124872,
2,0,0,1,0,1215.39,0.122707,0.122505,-43.9751,1,0.0140311,10,-0.00538715,-1.35679,-0.17491,-0.337317,578.2,0.122505,
2,0,0,1,0,1215.39,0.12031,0.120105,-45.3447,1,0.013763,10,-0.00544613,-1.34347,-0.186896,-0.315684,558.029,0.120105,
2,0,0,1,0,1215.4,0.117901,0.117661,-46.6864,1,0.0134867,10,-0.00549315,-1.33081,-0.19875,-0.296855,539.987,0.1176608,
2,0,0,1,0,1215.4,0.115504,0.115245,-47.9613,1,0.0132026,10,-0.00552731,-1.31911,-0.221179,-0.266753,498.221,0.1152452,
2,0,0,1,0,1215.41,0.113107,0.112845,-49.1264,1,0.0129111,10,-0.00554369,-1.30869,-0.241851,-0.243952,466.943,0.112845,
2,0,0,1,0,1215.42,0.110702,0.110453,-50.2264,1,0.012613,10,-0.00554767,-1.29907,-0.266012,-0.221795,433.86,0.110453,
2,0,0,1,0,1215.42,0.108305,0.108033,-51.2219,1,0.0123085,10,-0.00553368,-1.29054,-0.304145,-0.193987,386.829,0.108033,
2,0,0,1,0,1215.43,0.105908,0.105621,-52.0911,1,0.0119984,10,-0.00550191,-1.28324,-0.357636,-0.164972,334.628,0.105621,
2,0,0,1,0,1215.43,0.103505,0.103188,-52.8372,1,0.0116836,10,-0.00545219,-1.27706,-0.435183,-0.135575,278.851,0.103188,
2,0,0,1,0,1215.44,0.101102,0.100808,-53.4392,1,0.0113646,10,-0.00538709,-1.27214,-0.560391,-0.105284,218.958,0.100808,
2,0,0,1,0,1215.45,0.0987052,0.0984494,-53.8835,1,0.0110425,10,-0.0053048,-1.26854,-0.853945,-0.0690911,144.867,0.0984494,
2,0,0,1,0,1215.45,0.0963081,0.0960338,-54.1467,1,0.0107182,10,-0.00519992,-1.26643,-1.78249,-0.0330997,69.7343,0.0960338,
2,0,0,1,0,1215.46,0.0938999,0.0936299,-54.2232,1,0.010393,10,-0.00507691,-1.26581,17.7011,0.00333312,-7.03239,0.0936299,
2,0,0,1,0,1215.46,0.0915028,0.0912026,-54.1291,1,0.0100679,10,-0.00493672,-1.26657,1.3135,0.044918,-94.5202,0.0912026,
2,0,0,1,0,1215.47,0.0891057,0.0888464,-53.7869,1,0.00974412,10,-0.00477877,-1.26932,0.679883,0.0867796,-181.496,0.0888464,
2,0,0,1,0,1215.48,0.0867002,0.0864127,-53.2381,1,0.00942308,10,-0.00460045,-1.27378,0.451113,0.130788,-270.837,0.0864127,
2,0,0,1,0,1215.48,0.0843031,0.0839781,-52.4964,1,0.00910587,10,-0.00440855,-1.27987,0.342874,0.172075,-351.201,0.0839781,
2,0,0,1,0,1215.49,0.081906,0.0816314,-51.5504,1,0.00879372,10,-0.00420813,-1.28777,0.275724,0.213982,-429.002,0.0816314,
2,0,0,1,0,1215.49,0.0795089,0.0791893,-50.4007,1,0.00848792,10,-0.0039912,-1.29756,0.232552,0.253707,-497.819,0.0791893,
2,0,0,1,0,1215.5,0.0771007,0.0767959,-49.1468,1,0.00818929,10,-0.00377427,-1.3085,0.203676,0.289676,-554.019,0.0767959,
2,0,0,1,0,1215.51,0.0747036,0.0743824,-47.7431,1,0.00789871,10,-0.00355125,-1.32109,0.182149,0.323911,-602.148,0.0743824,
2,0,0,1,0,1215.51,0.0723065,0.072022,-46.2471,1,0.00761685,10,-0.00333081,-1.33492,0.168212,0.350749,-632.072,0.072022,
2,0,0,1,0,1215.52,0.0699011,0.0695852,-44.7155,1,0.00734417,10,-0.00311154,-1.34954,0.160019,0.368705,-642.668,0.0695852,
2,0,0,1,0,1215.52,0.067504,0.0672183,-43.1604,1,0.00708075,10,-0.00290117,-1.36491,0.154864,0.380981,-641.215,0.0672183,
2,0,0,1,0,1215.53,0.0651069,0.0647656,-41.6199,1,0.00682659,10,-0.00269554,-1.3807,0.151923,0.388354,-630.698,0.06476561,
2,0,0,1,0,1215.54,0.0627098,0.0624338,-40.0928,1,0.00658161,10,-0.00250314,-1.39693,0.151682,0.388973,-609.383,0.0624338,
2,0,0,1,0,1215.54,0.0603016,0.0599811,-38.6683,1,0.00634546,10,-0.00231936,-1.41264,0.151927,0.388345,-586.538,0.0599811,
2,0,0,1,0,1215.55,0.0579045,0.0576195,-37.3046,1,0.00611768,10,-0.00214947,-1.42824,0.154105,0.382857,-557.691,0.0576195,
2,0,0,1,0,1215.55,0.0555074,0.0552113,-35.979,1,0.00589799,10,-0.00198645,-1.44395,0.158003,0.373411,-525.264,0.0552113,
2,0,0,1,0,1215.56,0.0530992,0.0527957,-34.7762,1,0.00568592,10,-0.00183604,-1.45872,0.161788,0.364676,-495.253,0.0527957,
2,0,0,1,0,1215.57,0.0507021,0.050377,-33.6254,1,0.00548088,10,-0.00169395,-1.47333,0.164033,0.359683,-472.059,0.050377,
2,0,0,1,0,1215.57,0.048305,0.0480366,-32.5031,1,0.00528267,10,-0.00156134,-1.48808,0.16634,0.354694,-450.611,0.0480366,
2,0,0,1,0,1215.58,0.0459051,0.0455988,-31.459,1,0.00509093,10,-0.00143449,-1.50225,0.169758,0.347555,-427.24,0.04559876,
2,0,0,1,0,1215.58,0.0435024,0.0431938,-30.4902,1,0.00490515,10,-0.00131698,-1.51584,0.176758,0.33379,-397.418,0.0431938,
2,0,0,1,0,1215.59,0.0411053,0.0407951,-29.5549,1,0.00472514,10,-0.00120569,-1.52937,0.179141,0.32935,-380.18,0.0407951,
2,0,0,1,0,1215.6,0.0387082,0.0383975,-28.6558,1,0.0045506,10,-0.00110031,-1.54279,0.186657,0.316087,-354.14,0.0383975,
2,0,0,1,0,1215.6,0.0363,0.0359883,-27.8497,1,0.00438122,10,-0.00100226,-1.55518,0.193,0.305699,-332.599,0.0359883,
2,0,0,1,0,1215.61,0.0339029,0.0335716,-27.0697,1,0.00421655,10,-0.000908775,-1.56752,0.197371,0.29893,-315.969,0.0335716,
2,0,0,1,0,1215.61,0.0315058,0.0311581,-26.3267,1,0.00405643,10,-0.000820291,-1.5796,0.208912,0.282416,-290.861,0.0311581,
2,0,0,1,0,1215.62,0.0291087,0.0288284,-25.6522,1,0.00390059,10,-0.000739511,-1.59088,0.225775,0.261322,-262.417,0.0288284,
2,0,0,1,0,1215.63,0.0267033,0.0264107,-25.0858,1,0.00374842,10,-0.000662533,-1.60057,0.243873,0.241929,-237.07,0.0264107,
2,0,0,1,0,1215.63,0.0243062,0.0240195,-24.5261,1,0.00359962,10,-0.000589103,-1.61037,0.265045,0.222604,-213.646,0.0240195,
2,0,0,1,0,1215.64,0.0219091,0.0216155,-24.0526,1,0.00345395,10,-0.000519911,-1.61884,0.306282,0.192633,-181.451,0.0216155,
2,0,0,1,0,1215.64,0.0195009,0.0191755,-23.6834,1,0.00331079,10,-0.000454143,-1.62556,0.360866,0.163496,-151.377,0.01917555,
2,0,0,1,0,1215.65,0.0171038,0.0167992,-23.3462,1,0.0031698,10,-0.000392197,-1.63178,0.418444,0.140999,-128.763,0.0167992,
2,0,0,1,0,1215.66,0.0147067,0.0144122,-23.0612,1,0.00303064,10,-0.000332363,-1.63712,0.548734,0.10752,-97.023,0.0144122,
2,0,0,1,0,1215.66,0.012304,0.0119743,-22.8709,1,0.00289291,10,-0.000273863,-1.64072,0.719696,0.0819791,-73.3001,0.01197433,
2,0,0,1,0,1215.67,0.00990136,0.00958311,-22.7194,1,0.00275621,10,-0.000217723,-1.6436,0.961646,0.0613531,-54.464,0.00958311,
2,0,0,1,0,1215.67,0.00750426,0.00720568,-22.5991,1,0.00262027,10,-0.000162842,-1.64591,1.34009,0.0440269,-38.8879,0.00720568,
2,0,0,1,0,1215.68,0.00510715,0.00481129,-22.5079,1,0.00248496,10,-0.000108292,-1.64767,6.54151,0.00901933,-7.9611,0.00481129,
2,0,0,1,0,1215.69,0.00270173,0.00241477,-22.5052,1,0.0023499,10,-5.43448e-05,-1.64772,-10.1408,-0.00581809,5.12206,0.00241477,
2,0,0,1,0,1215.69,0.000304623,-4.7497e-05,-22.5744,1,0.00221445,10,1.07222e-06,-1.64638,-5.38538,-0.0109556,9.639,-4.7497e-05,
2,0,0,1,0,1215.7,-0.00209248,-0.00247053,-22.5685,1,0.00207904,10,5.57562e-05,-1.6465,-5.11341,-0.0115383,10.1873,-0.00247053,
2,0,0,1,0,1215.7,-0.00450068,-0.00486174,-22.6337,1,0.00194349,10,0.000110039,-1.64525,-2.35297,-0.0250747,22.1464,-0.00486174,
2,0,0,1,0,1215.71,-0.00689779,-0.00724978,-22.6962,1,0.0018075,10,0.000164542,-1.64405,-1.72061,-0.0342901,30.3658,-0.00724978,
2,0,0,1,0,1215.72,-0.00929489,-0.0095848,-22.752,1,0.00167119,10,0.000218074,-1.64298,-1.41766,-0.0416178,37.0212,-0.0095848,
2,0,0,1,0,1215.72,-0.011692,-0.0120206,-22.8704,1,0.00153433,10,0.000274914,-1.64073,-1.1335,-0.052051,46.4667,-0.0120206,
2,0,0,1,0,1215.73,-0.0140974,-0.0144287,-22.9836,1,0.00139673,10,0.000331624,-1.63858,-1.07992,-0.0546337,49.0058,-0.0144287,
2,0,0,1,0,1215.73,-0.0164945,-0.0168147,-23.1056,1,0.00125847,10,0.000388512,-1.63628,-1.05452,-0.0559496,50.4756,-0.0168147,
2,0,0,1,0,1215.74,-0.0188916,-0.019261,-23.2375,1,0.00111945,10,0.000447577,-1.63381,-0.906388,-0.0650935,59.0657,-0.01926101,
2,0,0,1,0,1215.75,-0.0212998,-0.0217031,-23.3846,1,0.000979593,10,0.000507519,-1.63107,-0.877115,-0.067266,61.3895,-0.02170313,
2,0,0,1,0,1215.75,-0.0236969,-0.0239904,-23.5334,1,0.000838812,10,0.000564575,-1.62832,-0.888723,-0.0663874,60.9509,-0.0239904,
2,0,0,1,0,1215.76,-0.026094,-0.0264325,-23.6844,1,0.000697136,10,0.000626038,-1.62554,-0.800899,-0.0736672,68.1417,-0.02643254,
2,0,0,1,0,1215.76,-0.0284912,-0.0287919,-23.8368,1,0.00055459,10,0.000686307,-1.62275,-0.794825,-0.0742302,69.122,-0.0287919,
2,0,0,1,0,1215.77,-0.0308994,-0.0312171,-24.0317,1,0.000410923,10,0.000750199,-1.61922,-0.788087,-0.0748648,70.1389,-0.0312171,
2,0,0,1,0,1215.78,-0.0332965,-0.0335966,-24.1727,1,0.000266289,10,0.000812123,-1.61667,-0.799103,-0.0738328,69.7196,-0.03359665,
2,0,0,1,0,1215.78,-0.0356936,-0.0360483,-24.3556,1,0.000120712,10,0.000877977,-1.6134,-0.740432,-0.0796832,75.7925,-0.0360483,
2,0,0,1,0,1215.79,-0.038099,-0.0384194,-24.5676,1,-2.60573e-05,10,0.000943874,-1.60964,-0.73975,-0.0797567,76.3698,-0.0384194,
2,0,0,1,0,1215.79,-0.0404961,-0.0408042,-24.7126,1,-0.000173897,10,0.00100838,-1.60708,-0.789725,-0.0747096,72.0854,-0.0408042,
2,0,0,1,0,1215.8,-0.0428932,-0.0432283,-24.8884,1,-0.00032273,10,0.00107588,-1.604,-0.746859,-0.0789975,76.7716,-0.0432283,
2,0,0,1,0,1215.81,-0.0452903,-0.045592,-25.0779,1,-0.000472668,10,0.00114335,-1.60071,-0.761981,-0.0774298,75.7468,-0.045592,
2,0,0,1,0,1215.81,-0.0476985,-0.0480203,-25.2684,1,-0.000623742,10,0.0012134,-1.59742,-0.760066,-0.0776248,76.5327,-0.0480203,
2,0,0,1,0,1215.82,-0.0500956,-0.0504359,-25.4425,1,-0.000775866,10,0.00128322,-1.59444,-0.774598,-0.0761686,75.6544,-0.0504359,
2,0,0,1,0,1215.82,-0.0524927,-0.0527996,-25.6297,1,-0.000929121,10,0.00135324,-1.59126,-0.753972,-0.0782523,78.2969,-0.05279956,
2,0,0,1,0,1215.83,-0.0548981,-0.0552364,-25.8373,1,-0.00108353,10,0.00142716,-1.58775,-0.758101,-0.0778261,78.4383,-0.0552364,
2,0,0,1,0,1215.84,-0.0572953,-0.05767,-26.0123,1,-0.00123908,10,0.00150013,-1.58482,-0.776852,-0.0759475,77.1102,-0.05767,
2,0,0,1,0,1215.84,-0.0596924,-0.0600146,-26.1986,1,-0.00139571,10,0.0015723,-1.58172,-0.716639,-0.0823287,84.245,-0.0600146,
2,0,0,1,0,1215.85,-0.062095,-0.0624387,-26.4115,1,-0.00155353,10,0.0016491,-1.57821,-0.733646,-0.0804203,82.8309,-0.0624387,
2,0,0,1,0,1215.85,-0.0644977,-0.0648479,-26.6095,1,-0.00171265,10,0.00172557,-1.57496,-0.7294,-0.0808884,83.9605,-0.0648479,
2,0,0,1,0,1215.86,-0.0668948,-0.0672222,-26.7945,1,-0.00187285,10,0.00180118,-1.57195,-0.744065,-0.0792942,82.9662,-0.0672222,
2,0,0,1,0,1215.87,-0.0692919,-0.0695954,-27.004,1,-0.00203427,10,0.00187935,-1.56857,-0.722978,-0.0816069,85.9986,-0.0695954,
2,0,0,1,0,1215.87,-0.0717001,-0.0720566,-27.2136,1,-0.00219698,10,0.00196092,-1.56521,-0.710233,-0.0830713,88.2338,-0.0720566,
2,0,0,1,0,1215.88,-0.0740972,-0.0743873,-27.4207,1,-0.00236089,10,0.00203975,-1.56192,-0.72513,-0.0813647,87.1455,-0.0743873,
2,0,0,1,0,1215.88,-0.0764943,-0.0768347,-27.6497,1,-0.00252611,10,0.00212446,-1.55831,-0.674186,-0.0875129,94.4385,-0.0768347,
2,0,0,1,0,1215.89,-0.0788997,-0.0792111,-27.8851,1,-0.00269268,10,0.00220881,-1.55463,-0.674868,-0.0874245,95.1125,-0.0792111,
2,0,0,1,0,1215.9,-0.0812968,-0.0816363,-28.1081,1,-0.00286066,10,0.00229464,-1.55117,-0.650751,-0.0906645,99.4406,-0.0816363,
2,0,0,1,0,1215.9,-0.0836939,-0.0840455,-28.3414,1,-0.00303003,10,0.00238197,-1.54758,-0.629643,-0.0937039,103.691,-0.0840455,
2,0,0,1,0,1215.91,-0.086091,-0.086441,-28.5935,1,-0.00320085,10,0.00247165,-1.54373,-0.622143,-0.0948335,105.859,-0.086441,
2,0,0,1,0,1215.91,-0.0884992,-0.0888831,-28.8535,1,-0.00337326,10,0.00256459,-1.5398,-0.612238,-0.0963678,108.512,-0.0888831,
2,0,0,1,0,1215.92,-0.0908963,-0.0912033,-29.1052,1,-0.00354718,10,0.00265449,-1.53603,-0.600833,-0.098197,111.653,-0.0912033,
2,0,0,1,0,1215.93,-0.0932934,-0.0936093,-29.3921,1,-0.00372271,10,0.00275137,-1.53177,-0.564316,-0.104551,119.983,-0.0936093,
2,0,0,1,0,1215.93,-0.0956989,-0.0960228,-29.7082,1,-0.00390002,10,0.00285266,-1.52712,-0.563194,-0.10476,121.382,-0.0960228,
2,0,0,1,0,1215.94,-0.098096,-0.0984204,-29.973,1,-0.00407906,10,0.00294995,-1.52327,-0.614812,-0.0959643,111.937,-0.0984204,
2,0,0,1,0,1215.94,-0.0999548,-0.100286,-30.2104,1,-0.00422051,10,0.00302967,-1.51984,0.0208745,2.82642,-3039.42,-0.100286,
2,0,0,1,1,1215.94,-0.0994555,-0.0999177,-28.2047,1,-0.00426975,10,0.00281815,-1.54968,-0.0144294,-4.08888,3756.89,-0.0999177,
2,0,0,1,1,1215.95,-0.0970583,-0.0974978,-20.2654,1,-0.00441357,10,0.00197583,-1.69325,-0.0149091,-3.9573,3014.98,-0.0974978,
2,0,0,1,1,1215.96,-0.0946501,-0.0950907,-13.7307,1,-0.00451441,10,0.00130566,-1.86231,-0.0119436,-4.9399,2517.88,-0.0950907,
2,0,0,1,1,1215.96,-0.092253,-0.0926306,-8.24951,1,-0.00457934,10,0.000764156,-2.08357,-0.00758036,-7.78327,2107.02,-0.0926306,
2,0,0,1,1,1215.97,-0.0898559,-0.0902797,-3.63248,1,-0.00461415,10,0.000327939,-2.4398,-0.00780934,-7.55505,1804.55,-0.0902797,
2,0,0,1,1,1215.97,-0.0874588,-0.0879086,0.32392,1,-0.00462337,10,-2.84754e-05,-3.48956,-0.229033,-0.257605,1539.53,-0.0879086,
2,1,0,1,1,1215.98,-0.0850534,-0.085493,3.73634,1,-0.00461059,10,-0.000319431,-2.42755,0.0069768,8.45659,1323.68,-0.085493,
2,1,0,1,1,1215.99,-0.0826563,-0.083106,6.63919,1,-0.00457894,10,-0.000551756,-2.17789,0.0110774,5.32614,1144.72,-0.083106,
2,1,0,1,1,1215.99,-0.0802592,-0.0806957,9.14236,1,-0.00453116,10,-0.000737749,-2.03894,0.0200129,2.94809,973.154,-0.0806957,
2,1,0,1,1,1216,-0.077851,-0.0783024,11.3005,1,-0.0044695,10,-0.000884858,-1.9469,0.0295523,1.99646,844.302,-0.0783024,
2,1,0,1,1,1216,-0.0754539,-0.075891,13.193,1,-0.00439575,10,-0.00100123,-1.87966,0.0401765,1.46852,735.668,-0.075891,
2,1,0,1,1,1216.01,-0.0730568,-0.073451,14.8493,1,-0.00431134,10,-0.0010907,-1.82829,0.0522864,1.1284,640.818,-0.07345099,
2,1,0,1,1,1216.02,-0.0706597,-0.071064,16.2674,1,-0.00421771,10,-0.00115603,-1.78868,0.0674158,0.875165,547.316,-0.071064,
2,1,0,1,1,1216.02,-0.0682542,-0.0686092,17.4989,1,-0.00411615,10,-0.00120058,-1.75699,0.0851629,0.69279,467.538,-0.0686092,
2,1,0,1,1,1216.03,-0.0658571,-0.0662498,18.532,1,-0.00400787,10,-0.00122774,-1.73208,0.106409,0.554466,397.357,-0.0662498,
2,1,0,1,1,1216.03,-0.06346,-0.0637949,19.412,1,-0.00389387,10,-0.00123839,-1.71193,0.130403,0.452445,340.451,-0.0637949,
2,1,0,1,1,1216.04,-0.0610518,-0.061427,20.1746,1,-0.00377498,10,-0.00123927,-1.69519,0.159135,0.370754,289.947,-0.061427,
2,1,0,1,1,1216.05,-0.0586547,-0.0590082,20.7951,1,-0.00365196,10,-0.00122708,-1.68204,0.197621,0.298551,241.3,-0.0590082,
2,1,0,1,1,1216.05,-0.0562576,-0.0566001,21.3302,1,-0.00352553,10,-0.00120729,-1.671,0.235268,0.250777,208.066,-0.0566001,
2,1,0,1,1,1216.06,-0.053855,-0.0542216,21.793,1,-0.00339607,10,-0.00118165,-1.66168,0.290059,0.203407,172.27,-0.0542216,
2,1,0,1,1,1216.06,-0.0514523,-0.0518134,22.1468,1,-0.00326416,10,-0.0011475,-1.65469,0.354472,0.166445,143.562,-0.0518134,
2,1,0,1,1,1216.07,-0.0490552,-0.0494031,22.4697,1,-0.00313027,10,-0.00111007,-1.6484,0.431095,0.136861,119.761,-0.0494031,
2,1,0,1,1,1216.08,-0.0466581,-0.0470172,22.7266,1,-0.00299463,10,-0.00106854,-1.64347,0.547356,0.107791,95.3552,-0.0470172,
2,1,0,1,1,1216.08,-0.0442527,-0.0445867,22.924,1,-0.00285761,10,-0.00102211,-1.63971,0.712533,0.0828032,73.9493,-0.0445867,
2,1,0,1,1,1216.09,-0.0418556,-0.042205,23.0743,1,-0.00271957,10,-0.000973851,-1.63687,0.964842,0.0611499,54.9905,-0.042205,
2,1,0,1,1,1216.09,-0.0394585,-0.0398212,23.2,1,-0.0025807,10,-0.000923852,-1.63451,1.22641,0.048108,43.5064,-0.0398212,
2,1,0,1,1,1216.1,-0.0370558,-0.0374268,23.2851,1,-0.00244128,10,-0.000871488,-1.63292,1.75788,0.0335631,30.4678,-0.0374268,
2,1,0,1,1,1216.11,-0.0346532,-0.0350155,23.3427,1,-0.00230135,10,-0.000817357,-1.63185,2.51994,0.0234133,21.3028,-0.0350155,
2,1,0,1,1,1216.11,-0.0322561,-0.0325946,23.3757,1,-0.00216118,10,-0.000761919,-1.63124,6.63274,0.00889527,8.10857,-0.0325946,
2,1,0,1,1,1216.12,-0.0298589,-0.0301673,23.3859,1,-0.00202088,10,-0.000705489,-1.63105,39.115,0.00150837,1.3758,-0.0301673,
2,1,0,1,1,1216.12,-0.0274535,-0.0278111,23.3793,1,-0.00188057,10,-0.000650203,-1.63117,-6.36691,-0.00926666,-8.44778,-0.0278111,
2,1,0,1,1,1216.13,-0.0250564,-0.0253912,23.3413,1,-0.0017404,10,-0.000592664,-1.63187,-3.81055,-0.0154833,-14.1061,-0.0253912,
2,1,0,1,1,1216.14,-0.0226593,-0.0230233,23.3171,1,-0.00160042,10,-0.000536838,-1.63232,-2.94114,-0.0200603,-18.2354,-0.0230233,
2,1,0,1,1,1216.14,-0.0202511,-0.0205897,23.2709,1,-0.00146069,10,-0.000479141,-1.63319,-2.12374,-0.0277812,-25.2009,-0.0205897,
2,1,0,1,1,1216.15,-0.017854,-0.0181847,23.1853,1,-0.00132136,10,-0.000421617,-1.63479,-1.87035,-0.031545,-28.5446,-0.0181847,
2,1,0,1,1,1216.15,-0.0154569,-0.015837,23.1223,1,-0.00118243,10,-0.000366187,-1.63597,-1.68796,-0.0349534,-31.5172,-0.015837,
2,1,0,1,1,1216.16,-0.0130598,-0.0134404,23.0262,1,-0.00104396,10,-0.000309482,-1.63778,-1.51269,-0.0390033,-35.0632,-0.0134404,
2,1,0,1,1,1216.17,-0.0106516,-0.0110004,22.9476,1,-0.000906045,10,-0.000252433,-1.63926,-1.43847,-0.0410158,-36.7378,-0.01100044,
2,1,0,1,1,1216.17,-0.00825448,-0.00858271,22.863,1,-0.000768615,10,-0.000196227,-1.64087,-1.32382,-0.0445678,-39.7353,-0.00858271,
2,1,0,1,1,1216.18,-0.00585738,-0.00619362,22.7537,1,-0.000631776,10,-0.000140928,-1.64295,-1.16984,-0.0504342,-44.7793,-0.00619362,
2,1,0,1,1,1216.18,-0.00345195,-0.00382785,22.6476,1,-0.000495604,10,-8.66916e-05,-1.64498,-1.16152,-0.0507956,-44.8963,-0.00382785,
2,1,0,1,1,1216.19,-0.00105485,-0.00141224,22.5334,1,-0.000360055,10,-3.18226e-05,-1.64717, , , ,-0.00141224,
2,1,0,1,1,1216.19,-7.54729e-05,-0.000229887,22.4867,1,-0.000303768,10,-5.16941e-06,-1.64807, , , ,-0.000229887,