File: Figure_codes/Fig_3-5/rawdata_trumpetplot_data/before 10th/20221101_1-115_002_TrumpetPlot_ParaChange_10_CV_C01.mpt
EC-Lab ASCII FILE
Nb header lines : 68

Cyclic Voltammetry

Run on channel : 1 (SN 65296)
User :
CE vs. WE compliance from -10 V to 10 V
Electrode connection : standard
Potential control : Ewe
Ewe ctrl range : min = -1.00 V, max = 1.00 V
Safety Limits :
	Do not start on E overload
Acquisition started on : 11/08/2022 17:30:03.488
Loaded Setting File :  NONE
Saved on :
	File : 20221101_1-115_002_TrumpetPlot_ParaChange_10_CV_C01.mpr
	Directory : C:\Users\NakamuraT\Documents\EC-Lab\Data\Yatsuzuka\20221108_1-115_001_TrumpetPlot\
	Host : 192.109.209.100
Device : SP-50e (SN .003219)
Address : 192.109.209.128
EC-Lab for windows v11.43 (software)
Internet server v11.40 (firmware)
Command interpretor v11.40 (firmware)
Electrode material : Au/Pd
Initial state :
Electrolyte : NaCl (0.2M)
Comments : Fe(CN)63-/Fe(CN)64- 5.10-3 M
Reference electrode : SCE Saturated Calomel Electrode (0.241 V)
Electrode surface area : 0.001 cm2
Characteristic mass : 0.001 g
Equivalent Weight : 0.000 g/eq.
Density : 0.000 g/cm3
Volume (V) : 0.001 cm3
Cycle Definition : Charge/Discharge alternance
Ei (V)              0.000
vs.                 Ref
dE/dt               80.000
dE/dt unit          mV/s
E1 (V)              0.300
vs.                 Ref
Step percent        50
N                   10
E range min (V)     -1.000
E range max (V)     1.000
I Range             10 mA
I Range min         Unset
I Range max         Unset
I Range init        Unset
Bandwidth           5
E2 (V)              0.000
vs.                 Ref
nc cycles           0
Reverse Scan        0
Ef (V)              0.000
vs.                 Eoc

Number of loops : 8
Loop 0 from point number 0 to 1205
Loop 1 from point number 1206 to 2411
Loop 2 from point number 2412 to 3617
Loop 3 from point number 3618 to 4823
Loop 4 from point number 4824 to 6029
Loop 5 from point number 6030 to 7235
Loop 6 from point number 7236 to 8441
Loop 7 from point number 8442 to 9647

mode	ox/red	error	control changes	counter inc.	time/s	control/V	Ewe/V	<I>/mA	cycle number	(Q-Qo)/C	I Range	P/W
2	0	0	1	0	1194.39	2.44065e-05	0.000247296	-5.24515	1	0.0000000E+000	11	-1.29711e-06
2	1	0	1	0	1194.47	0.00679123	0.00646449	2.95471	1	4.23771e-05	11	1.91007e-05
2	1	0	1	0	1194.56	0.0137828	0.0134784	3.42805	1	0.00033024	11	4.62048e-05
2	1	0	1	0	1194.65	0.0207743	0.0204697	3.51033	1	0.000633725	11	7.18551e-05
2	1	0	1	0	1194.74	0.0277659	0.0274675	3.56251	1	0.000942758	11	9.7853e-05
2	1	0	1	0	1194.82	0.0347503	0.0344521	3.63948	1	0.00125741	11	0.000125388
2	1	0	1	0	1194.91	0.0417437	0.0414555	3.73593	1	0.00157919	11	0.000154875
2	1	0	1	0	1195	0.0487352	0.0484946	3.83144	1	0.0019095	11	0.000185804
2	1	0	1	0	1195.09	0.0557268	0.0554335	4.00367	1	0.00225158	11	0.000221938
2	1	0	1	0	1195.17	0.0627183	0.0624324	4.21103	1	0.00260962	11	0.000262905
2	1	0	1	0	1195.26	0.0697116	0.0694272	4.47599	1	0.00298926	11	0.000310755
2	1	0	1	0	1195.35	0.0767032	0.0764105	4.82535	1	0.00339588	11	0.000368707
2	1	0	1	0	1195.44	0.0836947	0.0834128	5.20296	1	0.00383463	11	0.000433994
2	1	0	1	0	1195.52	0.0906863	0.0904195	5.62587	1	0.00430853	11	0.000508688
2	1	0	1	0	1195.61	0.0976779	0.097412	6.0793	1	0.00482023	11	0.000592196
2	1	0	1	0	1195.7	0.104671	0.104406	6.55091	1	0.00537174	11	0.000683955
2	1	0	1	0	1195.79	0.111663	0.111352	7.15017	1	0.00596938	11	0.000796184
2	1	0	1	0	1195.87	0.118654	0.118401	7.95263	1	0.00662746	11	0.000941601
2	1	0	1	0	1195.96	0.125646	0.12534	9.04336	1	0.00736792	11	0.00113349
2	1	0	1	0	1196.05	0.132639	0.13233	10.4098	1	0.00821646	11	0.00137753
2	1	0	1	0	1196.13	0.139631	0.139358	11.8269	1	0.0091886	11	0.00164817
2	1	0	1	0	1196.22	0.146622	0.146346	13.0368	1	0.0102787	11	0.00190788
2	1	0	1	0	1196.31	0.153614	0.153341	13.7392	1	0.0114544	11	0.00210678
2	1	0	1	0	1196.4	0.160607	0.160354	13.5217	1	0.0126544	11	0.00216826
2	1	0	1	0	1196.48	0.167599	0.167265	11.8442	1	0.013775	11	0.00198113
2	1	0	1	0	1196.57	0.17459	0.174295	8.9067	1	0.0146858	11	0.00155239
2	1	0	1	0	1196.66	0.181582	0.181356	6.44855	1	0.015347	11	0.00116949
2	1	0	1	0	1196.75	0.188573	0.188281	5.27885	1	0.0158523	11	0.000993908
2	1	0	1	0	1196.83	0.195567	0.195264	4.69466	1	0.0162857	11	0.000916699
2	1	0	1	0	1196.92	0.202558	0.202352	4.2948	1	0.0166777	11	0.00086906
2	1	0	1	0	1197.01	0.20955	0.209269	4.03187	1	0.0170411	11	0.000843747
2	1	0	1	0	1197.1	0.216541	0.216287	3.80547	1	0.0173832	11	0.000823073
2	1	0	1	0	1197.18	0.223535	0.223272	3.66264	1	0.0177102	11	0.000817764
2	1	0	1	0	1197.27	0.230526	0.230271	3.55685	1	0.018026	11	0.00081904
2	1	0	1	0	1197.36	0.237518	0.237303	3.46679	1	0.0183331	11	0.000822679
2	1	0	1	0	1197.45	0.244509	0.244264	3.40643	1	0.0186335	11	0.000832069
2	1	0	1	0	1197.53	0.251503	0.251222	3.34811	1	0.0189284	11	0.00084112
2	1	0	1	0	1197.62	0.258494	0.258215	3.29279	1	0.0192185	11	0.000850249
2	1	0	1	0	1197.71	0.265479	0.265252	3.25855	1	0.0195041	11	0.000864336
2	1	0	1	0	1197.8	0.27247	0.272197	3.21306	1	0.0197864	11	0.000874585
2	1	0	1	0	1197.88	0.279462	0.279188	3.16801	1	0.0200651	11	0.000884471
2	1	0	1	0	1197.97	0.286446	0.286177	3.14055	1	0.0203404	11	0.000898754
2	1	0	1	0	1198.06	0.29344	0.293166	3.08994	1	0.0206128	11	0.000905865
2	1	0	1	0	1198.14	0.299962	0.299766	3.05222	1	0.0208645	11	0.00091495
2	0	0	1	0	1198.22	0.293745	0.293426	-1.32307	1	0.0208247	11	-0.000388222
2	0	0	1	0	1198.31	0.286753	0.286421	-1.52794	1	0.0206998	11	-0.000437634
2	0	0	1	0	1198.39	0.27976	0.279519	-1.70064	1	0.0205577	11	-0.000475363
2	0	0	1	0	1198.48	0.272768	0.272462	-1.8574	1	0.0204017	11	-0.000506071
2	0	0	1	0	1198.57	0.265777	0.265497	-1.97037	1	0.0202341	11	-0.000523126
2	0	0	1	0	1198.65	0.258785	0.258503	-2.09093	1	0.0200562	11	-0.000540512
2	0	0	1	0	1198.74	0.251793	0.251446	-2.19787	1	0.0198686	11	-0.000552647
2	0	0	1	0	1198.83	0.2448	0.244494	-2.30446	1	0.019672	11	-0.000563426
2	0	0	1	0	1198.92	0.237809	0.237482	-2.41362	1	0.0194663	11	-0.00057319
2	0	0	1	0	1199	0.230817	0.230538	-2.51373	1	0.0192512	11	-0.00057951
2	0	0	1	0	1199.09	0.223825	0.223552	-2.62842	1	0.0190263	11	-0.000587589
2	0	0	1	0	1199.18	0.216832	0.216566	-2.77881	1	0.01879	11	-0.000601795
2	0	0	1	0	1199.27	0.209841	0.209545	-2.91967	1	0.0185411	11	-0.000611801
2	0	0	1	0	1199.35	0.202849	0.202549	-3.11665	1	0.0182764	11	-0.000631273
2	0	0	1	0	1199.44	0.195857	0.195559	-3.3736	1	0.0179929	11	-0.000659737
2	0	0	1	0	1199.53	0.188864	0.18855	-3.68502	1	0.0176846	11	-0.000694809
2	0	0	1	0	1199.62	0.18188	0.181617	-4.12785	1	0.0173444	11	-0.000749687
2	0	0	1	0	1199.7	0.174888	0.174585	-4.71792	1	0.0169596	11	-0.000823676
2	0	0	1	0	1199.79	0.167897	0.167619	-5.52666	1	0.0165143	11	-0.000926371
2	0	0	1	0	1199.88	0.160905	0.160656	-6.65081	1	0.0159845	11	-0.00106849
2	0	0	1	0	1199.97	0.153921	0.153644	-8.16765	1	0.0153397	11	-0.00125491
2	0	0	1	0	1200.05	0.146927	0.146637	-9.87718	1	0.0145519	11	-0.00144836
2	0	0	1	0	1200.14	0.139936	0.13968	-11.5709	1	0.0136133	11	-0.00161622
2	0	0	1	0	1200.23	0.132944	0.132655	-12.8529	1	0.012542	11	-0.00170499
2	0	0	1	0	1200.32	0.125953	0.125677	-13.533	1	0.0113825	11	-0.00170078
2	0	0	1	0	1200.4	0.118959	0.118666	-13.3146	1	0.0102014	11	-0.00158
2	0	0	1	0	1200.49	0.111968	0.111695	-12.0097	1	0.00908725	11	-0.00134142
2	0	0	1	0	1200.58	0.104976	0.104649	-10.1354	1	0.00811872	11	-0.00106066
2	0	0	1	0	1200.66	0.0979846	0.0976543	-8.58963	1	0.00730525	11	-0.000838814
2	0	0	1	0	1200.75	0.0909931	0.0906591	-7.65339	1	0.00659957	11	-0.00069385
2	0	0	1	0	1200.84	0.0839997	0.0837216	-7.10432	1	0.00595672	11	-0.000594785
2	0	0	1	0	1200.93	0.0770082	0.0767414	-6.66458	1	0.00535589	11	-0.000511449
2	0	0	1	0	1201.01	0.0700166	0.0696563	-6.25411	1	0.00479162	11	-0.000435638
2	0	0	1	0	1201.1	0.0630251	0.0627375	-5.85471	1	0.00426291	11	-0.00036731
2	0	0	1	0	1201.19	0.0560317	0.0557536	-5.48944	1	0.00376728	11	-0.000306056
2	0	0	1	0	1201.28	0.0490402	0.048725	-5.24314	1	0.00329797	11	-0.000255472
2	0	0	1	0	1201.36	0.0420486	0.0417489	-5.08837	1	0.00284693	11	-0.000212434
2	0	0	1	0	1201.45	0.0350571	0.0347432	-4.99277	1	0.00240632	11	-0.000173465
2	0	0	1	0	1201.54	0.0280637	0.0277784	-4.98211	1	0.00197064	11	-0.000138395
2	0	0	1	0	1201.63	0.0210722	0.0208173	-4.99357	1	0.00153501	11	-0.000103953
2	0	0	1	0	1201.71	0.0140806	0.0137574	-5.04585	1	0.00109635	11	-6.94177e-05
2	0	0	1	0	1201.8	0.00708909	0.00681879	-5.13476	1	0.000651823	11	-3.50128e-05
2	0	0	1	0	1201.89	0.000199195	-0.000128724	-5.25391	1	0.000204856	11	6.76306e-07
2	1	0	1	0	2426.09	0.00579065	0.00550108	2.8237	2	1.54244e-05	11	1.55334e-05
2	1	0	1	0	2426.18	0.0127822	0.0124468	3.45409	2	0.000303065	11	4.29924e-05
2	1	0	1	0	2426.27	0.0197738	0.0194883	3.52615	2	0.000609511	11	6.87188e-05
2	1	0	1	0	2426.35	0.0267671	0.0264566	3.61266	2	0.000921764	11	9.55785e-05
2	1	0	1	0	2426.44	0.0337587	0.0334729	3.68853	2	0.00124103	11	0.000123466
2	1	0	1	0	2426.53	0.0407502	0.0404888	3.80743	2	0.00156862	11	0.000154159
2	1	0	1	0	2426.61	0.0477418	0.047469	3.95079	2	0.00190746	11	0.00018754
2	1	0	1	0	2426.7	0.0547351	0.0544287	4.14796	2	0.00226125	11	0.000225768
2	1	0	1	0	2426.79	0.0617266	0.0614457	4.42223	2	0.00263554	11	0.000271727
2	1	0	1	0	2426.88	0.0687182	0.0684323	4.76425	2	0.00303634	11	0.000326029
2	1	0	1	0	2426.96	0.0757098	0.0754213	5.13819	2	0.00346914	11	0.000387529
2	1	0	1	0	2427.05	0.0827031	0.0824332	5.57288	2	0.00393788	11	0.000459391
2	1	0	1	0	2427.14	0.0896946	0.0893789	5.99761	2	0.00444411	11	0.00053606
2	1	0	1	0	2427.23	0.0966862	0.0963911	6.42863	2	0.00498771	11	0.000619663
2	1	0	1	0	2427.31	0.103678	0.103379	6.87985	2	0.00556925	11	0.00071123
2	1	0	1	0	2427.4	0.110669	0.110435	7.42341	2	0.00619429	11	0.000819801
2	1	0	1	0	2427.49	0.117663	0.117358	8.2074	2	0.006875	11	0.000963206
2	1	0	1	0	2427.58	0.124654	0.124389	9.22729	2	0.00763449	11	0.00114777
2	1	0	1	0	2427.66	0.131646	0.131413	10.4794	2	0.00849455	11	0.00137712
2	1	0	1	0	2427.75	0.138637	0.138358	11.7945	2	0.00946852	11	0.00163186
2	1	0	1	0	2427.84	0.145631	0.145324	12.8821	2	0.0105494	11	0.00187208
2	1	0	1	0	2427.93	0.152615	0.152342	13.4499	2	0.011704	11	0.00204898
2	1	0	1	0	2428.01	0.159607	0.159309	13.1342	2	0.0128747	11	0.0020924
2	1	0	1	0	2428.1	0.166598	0.166306	11.3726	2	0.0139576	11	0.00189133
2	1	0	1	0	2428.19	0.173583	0.173337	8.49585	2	0.0148279	11	0.00147264
2	1	0	1	0	2428.28	0.180574	0.180269	6.19551	2	0.0154599	11	0.00111686
2	1	0	1	0	2428.36	0.187567	0.187333	5.1193	2	0.0159478	11	0.000959013
2	1	0	1	0	2428.45	0.194559	0.194256	4.61772	2	0.016371	11	0.000897019
2	1	0	1	0	2428.54	0.201551	0.201248	4.24585	2	0.016757	11	0.000854467
2	1	0	1	0	2428.62	0.208542	0.208274	3.98875	2	0.0171167	11	0.000830751
2	1	0	1	0	2428.71	0.215535	0.215247	3.81178	2	0.017457	11	0.000820474
2	1	0	1	0	2428.8	0.222527	0.222258	3.66252	2	0.0177832	11	0.000814023
2	1	0	1	0	2428.89	0.229519	0.22923	3.54695	2	0.0180986	11	0.000813066
2	1	0	1	0	2428.97	0.23651	0.23624	3.47376	2	0.0184059	11	0.00082064
2	1	0	1	0	2429.06	0.243503	0.243226	3.40102	2	0.0187067	11	0.000827216
2	1	0	1	0	2429.15	0.250495	0.250233	3.35466	2	0.0190021	11	0.000839444
2	1	0	1	0	2429.24	0.257487	0.257218	3.30631	2	0.0192928	11	0.000850442
2	1	0	1	0	2429.32	0.264478	0.264232	3.25377	2	0.0195795	11	0.000859751
2	1	0	1	0	2429.41	0.27147	0.271173	3.22864	2	0.0198624	11	0.000875519
2	1	0	1	0	2429.5	0.278463	0.278174	3.17341	2	0.0201418	11	0.000882759
2	1	0	1	0	2429.59	0.285455	0.285195	3.13954	2	0.0204179	11	0.000895381
2	1	0	1	0	2429.67	0.292446	0.292134	3.11186	2	0.0206908	11	0.000909079
2	1	0	1	0	2429.76	0.299438	0.299178	3.06323	2	0.0209608	11	0.000916452
2	0	0	1	0	2429.83	0.294736	0.294432	-1.31297	2	0.0209529	11	-0.00038658
2	0	0	1	0	2429.92	0.287752	0.287448	-1.53429	2	0.0208286	11	-0.000441029
2	0	0	1	0	2430.01	0.28076	0.280471	-1.70014	2	0.0206874	11	-0.000476838
2	0	0	1	0	2430.1	0.273769	0.273475	-1.83106	2	0.0205323	11	-0.00050075
2	0	0	1	0	2430.18	0.266784	0.266486	-1.97261	2	0.0203656	11	-0.000525674
2	0	0	1	0	2430.27	0.259791	0.259476	-2.07366	2	0.0201886	11	-0.000538064
2	0	0	1	0	2430.36	0.252799	0.252522	-2.18854	2	0.020002	11	-0.000552655
2	0	0	1	0	2430.45	0.245808	0.245544	-2.29117	2	0.0198065	11	-0.000562582
2	0	0	1	0	2430.53	0.238816	0.238516	-2.38181	2	0.0196022	11	-0.000568099
2	0	0	1	0	2430.62	0.231825	0.231509	-2.50075	2	0.019389	11	-0.000578947
2	0	0	1	0	2430.71	0.224831	0.224546	-2.60526	2	0.0191663	11	-0.000584999
2	0	0	1	0	2430.8	0.21784	0.217529	-2.73051	2	0.0189333	11	-0.000593966
2	0	0	1	0	2430.88	0.210848	0.210506	-2.88231	2	0.0186886	11	-0.000606743
2	0	0	1	0	2430.97	0.203857	0.203571	-3.04011	2	0.0184296	11	-0.000618877
2	0	0	1	0	2431.06	0.196863	0.196532	-3.26215	2	0.0181538	11	-0.000641115
2	0	0	1	0	2431.14	0.189872	0.18957	-3.56067	2	0.0178558	11	-0.000674996
2	0	0	1	0	2431.23	0.18288	0.182572	-3.93124	2	0.0175291	11	-0.000717734
2	0	0	1	0	2431.32	0.175889	0.175609	-4.4672	2	0.017163	11	-0.00078448
2	0	0	1	0	2431.41	0.168897	0.168588	-5.20751	2	0.016742	11	-0.000877925
2	0	0	1	0	2431.49	0.161904	0.161598	-6.25744	2	0.0162431	11	-0.00101119
2	0	0	1	0	2431.58	0.154912	0.154633	-7.67865	2	0.0156369	11	-0.00118737
2	0	0	1	0	2431.67	0.147921	0.147621	-9.37685	2	0.0148922	11	-0.00138422
2	0	0	1	0	2431.76	0.140929	0.140651	-11.0806	2	0.0139969	11	-0.00155849
2	0	0	1	0	2431.84	0.133936	0.133633	-12.4841	2	0.012964	11	-0.00166828
2	0	0	1	0	2431.93	0.126944	0.126649	-13.2606	2	0.011834	11	-0.00167943
2	0	0	1	0	2432.02	0.119953	0.119652	-13.2383	2	0.0106684	11	-0.00158399
2	0	0	1	0	2432.11	0.112961	0.112648	-12.2594	2	0.00954634	11	-0.00138099
2	0	0	1	0	2432.19	0.105968	0.105657	-10.5925	2	0.00854453	11	-0.00111917
2	0	0	1	0	2432.28	0.0989763	0.0986915	-9.07373	2	0.00768812	11	-0.0008955
2	0	0	1	0	2432.37	0.0919847	0.0916476	-8.08195	2	0.00694259	11	-0.000740692
2	0	0	1	0	2432.46	0.0849932	0.0846671	-7.51635	2	0.00626242	11	-0.000636387
2	0	0	1	0	2432.54	0.0780016	0.0776781	-7.12393	2	0.00562363	11	-0.000553373
2	0	0	1	0	2432.63	0.0710083	0.0706948	-6.71978	2	0.00501886	11	-0.000475054
2	0	0	1	0	2432.72	0.0640167	0.0636523	-6.30475	2	0.00444963	11	-0.000401312
2	0	0	1	0	2432.81	0.0570252	0.0567168	-5.87809	2	0.0039178	11	-0.000333386
2	0	0	1	0	2432.89	0.0500336	0.0497267	-5.5081	2	0.00342043	11	-0.0002739
2	0	0	1	0	2432.98	0.0430403	0.0427732	-5.27292	2	0.00294939	11	-0.00022554
2	0	0	1	0	2433.07	0.0360559	0.0357319	-5.12701	2	0.00249575	11	-0.000183198
2	0	0	1	0	2433.15	0.0290643	0.0287206	-5.05268	2	0.00205107	11	-0.000145116
2	0	0	1	0	2433.24	0.0220728	0.0217653	-5.05333	2	0.00160964	11	-0.000109987
2	0	0	1	0	2433.33	0.0150884	0.0147635	-5.07732	2	0.001168	11	-7.49592e-05
2	0	0	1	0	2433.42	0.0080968	0.00778849	-5.13971	2	0.000721438	11	-4.00305e-05
2	0	0	1	0	2433.5	0.00110346	0.000768789	-5.29449	2	0.00026728	11	-4.07035e-06
2	1	0	1	0	3657.71	0.004799	0.00450854	1.92576	3	-4.89214e-05	11	8.68236e-06
2	1	0	1	0	3657.79	0.0117905	0.0115262	3.21093	3	0.000196262	11	3.70098e-05
2	1	0	1	0	3657.88	0.0187821	0.0184801	3.38282	3	0.000486204	11	6.2515e-05
2	1	0	1	0	3657.97	0.0257737	0.025508	3.50239	3	0.000787897	11	8.93389e-05
2	1	0	1	0	3658.06	0.0327652	0.0324691	3.62034	3	0.00109961	11	0.000117549
2	1	0	1	0	3658.14	0.0397585	0.0394595	3.74821	3	0.00142198	11	0.000147902
2	1	0	1	0	3658.23	0.046743	0.0464534	3.93608	3	0.00175765	11	0.000182844
2	1	0	1	0	3658.32	0.0537345	0.053467	4.17384	3	0.00211112	11	0.000223163
2	1	0	1	0	3658.41	0.0607261	0.0604181	4.45876	3	0.00248775	11	0.00026939
2	1	0	1	0	3658.49	0.0677105	0.0674394	4.83066	3	0.0028927	11	0.000325777
2	1	0	1	0	3658.58	0.0747038	0.0744411	5.22813	3	0.00333191	11	0.000389188
2	1	0	1	0	3658.67	0.0816954	0.0814355	5.65876	3	0.00380781	11	0.000460824
2	1	0	1	0	3658.75	0.0886869	0.0884539	6.07092	3	0.00432055	11	0.000536996
2	1	0	1	0	3658.84	0.0956785	0.0953935	6.4573	3	0.00486874	11	0.000615984
2	1	0	1	0	3658.93	0.10267	0.102366	6.86865	3	0.0054514	11	0.000703115
2	1	0	1	0	3659.02	0.109663	0.109411	7.35414	3	0.00607239	11	0.000804625
2	1	0	1	0	3659.1	0.116655	0.116361	7.99227	3	0.00674134	11	0.000929985
2	1	0	1	0	3659.19	0.123646	0.123393	8.87723	3	0.00747712	11	0.00109539
2	1	0	1	0	3659.28	0.130638	0.130325	9.93453	3	0.00829799	11	0.00129472
2	1	0	1	0	3659.37	0.137631	0.137365	11.0453	3	0.00921537	11	0.00151723
2	1	0	1	0	3659.45	0.144623	0.144302	12.0299	3	0.0102255	11	0.00173593
2	1	0	1	0	3659.54	0.151614	0.151328	12.6256	3	0.0113062	11	0.00191061
2	1	0	1	0	3659.63	0.158606	0.158354	12.5763	3	0.0124141	11	0.00199151
2	1	0	1	0	3659.72	0.165599	0.165327	11.3704	3	0.0134703	11	0.00187983
2	1	0	1	0	3659.8	0.172591	0.172311	8.99619	3	0.0143664	11	0.00155014
2	1	0	1	0	3659.89	0.179582	0.179316	6.70306	3	0.0150465	11	0.00120197
2	1	0	1	0	3659.98	0.186574	0.186288	5.41124	3	0.0155696	11	0.00100805
2	1	0	1	0	3660.07	0.193566	0.193283	4.7419	3	0.016011	11	0.000916531
2	1	0	1	0	3660.15	0.200559	0.200298	4.32533	3	0.0164062	11	0.000866357
2	1	0	1	0	3660.24	0.20755	0.207247	4.03293	3	0.0167703	11	0.00083581
2	1	0	1	0	3660.33	0.214542	0.214239	3.82066	3	0.017113	11	0.000818532
2	1	0	1	0	3660.42	0.221534	0.221258	3.67754	3	0.0174403	11	0.000813685
2	1	0	1	0	3660.5	0.228527	0.228275	3.55789	3	0.0177564	11	0.000812179
2	1	0	1	0	3660.59	0.235518	0.23526	3.4785	3	0.018064	11	0.000818351
2	1	0	1	0	3660.68	0.24251	0.242201	3.39773	3	0.0183648	11	0.000822932
2	1	0	1	0	3660.77	0.249502	0.249259	3.34548	3	0.0186603	11	0.00083389
2	1	0	1	0	3660.85	0.256495	0.256201	3.30426	3	0.018951	11	0.000846554
2	1	0	1	0	3660.94	0.263486	0.263189	3.25601	3	0.0192378	11	0.000856947
2	1	0	1	0	3661.03	0.270478	0.270224	3.2198	3	0.0195207	11	0.000870068
2	1	0	1	0	3661.11	0.27747	0.277197	3.18296	3	0.0198002	11	0.000882306
2	1	0	1	0	3661.2	0.284461	0.284209	3.13853	3	0.0200764	11	0.000892
2	1	0	1	0	3661.29	0.291454	0.291211	3.11063	3	0.0203494	11	0.000905851
2	1	0	1	0	3661.38	0.298439	0.298181	3.07201	3	0.0206193	11	0.000916015
2	0	0	1	0	3661.45	0.295744	0.295422	-1.03941	3	0.0206804	11	-0.000307065
2	0	0	1	0	3661.54	0.288752	0.288473	-1.41247	3	0.0205697	11	-0.00040746
2	0	0	1	0	3661.62	0.281761	0.281428	-1.61789	3	0.0204373	11	-0.000455318
2	0	0	1	0	3661.71	0.274767	0.274458	-1.76168	3	0.0202896	11	-0.000483508
2	0	0	1	0	3661.8	0.267776	0.267502	-1.89877	3	0.0201294	11	-0.000507924
2	0	0	1	0	3661.89	0.260784	0.260503	-1.99803	3	0.0199588	11	-0.000520493
2	0	0	1	0	3661.97	0.253793	0.253503	-2.10732	3	0.0197785	11	-0.000534211
2	0	0	1	0	3662.06	0.246801	0.246459	-2.21672	3	0.0195894	11	-0.00054633
2	0	0	1	0	3662.15	0.239808	0.239503	-2.30768	3	0.0193916	11	-0.000552697
2	0	0	1	0	3662.24	0.232816	0.232445	-2.41205	3	0.0191853	11	-0.000560668
2	0	0	1	0	3662.32	0.225825	0.225533	-2.51844	3	0.01897	11	-0.000567991
2	0	0	1	0	3662.41	0.218833	0.218517	-2.62724	3	0.0187452	11	-0.000574097
2	0	0	1	0	3662.5	0.21184	0.211519	-2.76293	3	0.0185099	11	-0.000584413
2	0	0	1	0	3662.59	0.204848	0.204552	-2.91386	3	0.018262	11	-0.000596037
2	0	0	1	0	3662.67	0.197857	0.19755	-3.0962	3	0.0179996	11	-0.000611657
2	0	0	1	0	3662.76	0.190865	0.190514	-3.3413	3	0.0177186	11	-0.000636565
2	0	0	1	0	3662.85	0.183872	0.183576	-3.64549	3	0.0174136	11	-0.000669224
2	0	0	1	0	3662.94	0.17688	0.176557	-4.08385	3	0.0170762	11	-0.000721032
2	0	0	1	0	3663.02	0.169889	0.169589	-4.69317	3	0.0166942	11	-0.00079591
2	0	0	1	0	3663.11	0.162897	0.162606	-5.54654	3	0.0162484	11	-0.000901901
2	0	0	1	0	3663.2	0.155906	0.155642	-6.73915	3	0.0157137	11	-0.00104889
2	0	0	1	0	3663.29	0.148912	0.148569	-8.22586	3	0.0150617	11	-0.00122211
2	0	0	1	0	3663.37	0.141928	0.141655	-9.81156	3	0.014274	11	-0.00138986
2	0	0	1	0	3663.46	0.134936	0.134643	-11.2281	3	0.0133529	11	-0.00151179
2	0	0	1	0	3663.55	0.127945	0.12761	-12.2253	3	0.0123241	11	-0.00156008
2	0	0	1	0	3663.63	0.12096	0.12069	-12.628	3	0.0112345	11	-0.00152407
2	0	0	1	0	3663.72	0.113967	0.113677	-12.2914	3	0.01014	11	-0.00139724
2	0	0	1	0	3663.81	0.106976	0.10671	-11.227	3	0.00910779	11	-0.00119803
2	0	0	1	0	3663.9	0.099984	0.0996673	-9.88224	3	0.00818499	11	-0.000984937
2	0	0	1	0	3663.98	0.0929924	0.0926718	-8.78605	3	0.00737205	11	-0.000814219
2	0	0	1	0	3664.07	0.0860009	0.0856658	-8.07898	3	0.00663694	11	-0.000692092
2	0	0	1	0	3664.16	0.0790076	0.0786665	-7.63052	3	0.00595162	11	-0.000600266
2	0	0	1	0	3664.25	0.072016	0.071701	-7.23416	3	0.00530246	11	-0.000518697
2	0	0	1	0	3664.33	0.0650244	0.0647675	-6.83612	3	0.00468746	11	-0.000442758
2	0	0	1	0	3664.42	0.0580329	0.0577124	-6.38715	3	0.00410978	11	-0.000368618
2	0	0	1	0	3664.51	0.0510396	0.0507077	-5.93575	3	0.00357184	11	-0.000300988
2	0	0	1	0	3664.6	0.044048	0.0437657	-5.56954	3	0.00307011	11	-0.000243755
2	0	0	1	0	3664.68	0.0370565	0.0367194	-5.30422	3	0.0025956	11	-0.000194768
2	0	0	1	0	3664.77	0.0300649	0.0297904	-5.14691	3	0.0021388	11	-0.000153328
2	0	0	1	0	3664.86	0.0230716	0.0227318	-5.09281	3	0.00169145	11	-0.000115769
2	0	0	1	0	3664.95	0.01608	0.0158062	-5.06952	3	0.00124759	11	-8.01297e-05
2	0	0	1	0	3665.03	0.00908846	0.00879023	-5.10877	3	0.00080252	11	-4.49073e-05
2	0	0	1	0	3665.12	0.0020969	0.00172554	-5.24417	3	0.000353047	11	-9.04903e-06
2	1	0	1	0	4889.32	0.00379128	0.00352725	1.15968	4	-7.42433e-05	11	4.09048e-06
2	1	0	1	0	4889.41	0.0107828	0.0104839	3.08301	4	0.000142387	11	3.2322e-05
2	1	0	1	0	4889.5	0.0177744	0.0175053	3.33578	4	0.00042492	11	5.83939e-05
2	1	0	1	0	4889.58	0.0247659	0.0244875	3.47657	4	0.000723089	11	8.51325e-05
2	1	0	1	0	4889.67	0.0317593	0.0314714	3.61636	4	0.00103344	11	0.000113812
2	1	0	1	0	4889.76	0.0387508	0.0384625	3.77381	4	0.00135682	11	0.00014515
2	1	0	1	0	4889.85	0.0457424	0.0454767	3.98947	4	0.0016961	11	0.000181428
2	1	0	1	0	4889.93	0.0527339	0.052461	4.236	4	0.00205535	11	0.000222225
2	1	0	1	0	4890.02	0.0597273	0.0594633	4.56701	4	0.00244004	11	0.00027157
2	1	0	1	0	4890.11	0.0667188	0.0664322	4.95226	4	0.00285547	11	0.00032899
2	1	0	1	0	4890.2	0.0737104	0.0734001	5.35569	4	0.0033059	11	0.000393108
2	1	0	1	0	4890.28	0.0807019	0.0804219	5.7861	4	0.00379293	11	0.000465329
2	1	0	1	0	4890.37	0.0876953	0.0873676	6.18508	4	0.00431602	11	0.000540376
2	1	0	1	0	4890.46	0.0946868	0.0943679	6.55557	4	0.00487304	11	0.000618635
2	1	0	1	0	4890.55	0.101678	0.101344	6.94066	4	0.00546275	11	0.000703394
2	1	0	1	0	4890.63	0.10867	0.108377	7.39103	4	0.00608915	11	0.000801017
2	1	0	1	0	4890.72	0.115661	0.115373	8.01589	4	0.0067617	11	0.000924818
2	1	0	1	0	4890.81	0.122655	0.122364	8.84449	4	0.00749765	11	0.00108225
2	1	0	1	0	4890.9	0.129646	0.129373	9.79613	4	0.00831196	11	0.00126736
2	1	0	1	0	4890.98	0.136638	0.136366	10.7747	4	0.00921193	11	0.0014693
2	1	0	1	0	4891.07	0.143629	0.143362	11.6159	4	0.0101919	11	0.00166528
2	1	0	1	0	4891.16	0.150623	0.150318	12.1221	4	0.0112327	11	0.00182216
2	1	0	1	0	4891.24	0.157614	0.157353	12.0202	4	0.0122935	11	0.00189141
2	1	0	1	0	4891.33	0.164606	0.164356	10.853	4	0.013301	11	0.00178376
2	1	0	1	0	4891.42	0.171597	0.171321	8.70405	4	0.0141595	11	0.00149118
2	1	0	1	0	4891.51	0.178589	0.178272	6.69318	4	0.0148272	11	0.00119321
2	1	0	1	0	4891.59	0.185582	0.18533	5.52931	4	0.0153563	11	0.00102475
2	1	0	1	0	4891.68	0.192567	0.192308	4.88605	4	0.0158089	11	0.000939627
2	1	0	1	0	4891.77	0.199558	0.199262	4.44654	4	0.0162158	11	0.000886023
2	1	0	1	0	4891.86	0.20655	0.206281	4.12273	4	0.0165899	11	0.000850439
2	1	0	1	0	4891.94	0.213534	0.213304	3.90043	4	0.0169401	11	0.000831976
2	1	0	1	0	4892.03	0.220528	0.220243	3.73313	4	0.0172731	11	0.000822197
2	1	0	1	0	4892.12	0.227519	0.227258	3.59666	4	0.0175933	11	0.000817367
2	1	0	1	0	4892.21	0.234511	0.234256	3.51028	4	0.0179038	11	0.000822307
2	1	0	1	0	4892.29	0.241502	0.241256	3.42793	4	0.0182068	11	0.00082701
2	1	0	1	0	4892.38	0.248496	0.248241	3.36577	4	0.018504	11	0.000835521
2	1	0	1	0	4892.47	0.255487	0.255243	3.31523	4	0.0187961	11	0.00084619
2	1	0	1	0	4892.56	0.262479	0.262217	3.25976	4	0.019084	11	0.000854764
2	1	0	1	0	4892.64	0.26947	0.269157	3.22774	4	0.019368	11	0.000868766
2	1	0	1	0	4892.73	0.276462	0.276232	3.18648	4	0.0196486	11	0.000880206
2	1	0	1	0	4892.82	0.283455	0.283235	3.15065	4	0.0199257	11	0.000892373
2	1	0	1	0	4892.91	0.290447	0.290187	3.12095	4	0.0201998	11	0.000905659
2	1	0	1	0	4892.99	0.297438	0.297173	3.0821	4	0.0204708	11	0.000915916
2	0	0	1	0	4893.07	0.296737	0.296442	-0.786698	4	0.0205851	11	-0.00023321
2	0	0	1	0	4893.15	0.289744	0.289442	-1.35431	4	0.0204833	11	-0.000391993
2	0	0	1	0	4893.24	0.282752	0.282435	-1.57523	4	0.0203551	11	-0.0004449
2	0	0	1	0	4893.33	0.275761	0.275462	-1.72842	4	0.0202103	11	-0.000476113
2	0	0	1	0	4893.42	0.268769	0.268467	-1.87578	4	0.0200525	11	-0.000503586
2	0	0	1	0	4893.5	0.261776	0.26145	-1.98419	4	0.0198839	11	-0.000518767
2	0	0	1	0	4893.59	0.254784	0.254478	-2.08552	4	0.0197055	11	-0.00053072
2	0	0	1	0	4893.68	0.2478	0.247497	-2.1911	4	0.0195184	11	-0.000542291
2	0	0	1	0	4893.76	0.240808	0.240514	-2.27657	4	0.0193227	11	-0.000547546
2	0	0	1	0	4893.85	0.233817	0.233537	-2.38355	4	0.0191186	11	-0.000556648
2	0	0	1	0	4893.94	0.226833	0.226509	-2.4835	4	0.0189062	11	-0.000562537
2	0	0	1	0	4894.03	0.219839	0.219553	-2.58315	4	0.0186847	11	-0.000567139
2	0	0	1	0	4894.11	0.212848	0.212525	-2.71311	4	0.0184534	11	-0.000576605
2	0	0	1	0	4894.2	0.205856	0.205537	-2.84664	4	0.0182108	11	-0.00058509
2	0	0	1	0	4894.29	0.198865	0.19851	-3.00398	4	0.0179553	11	-0.000596321
2	0	0	1	0	4894.38	0.191871	0.19156	-3.22416	4	0.0176837	11	-0.000617622
2	0	0	1	0	4894.46	0.18488	0.184586	-3.48295	4	0.0173914	11	-0.000642905
2	0	0	1	0	4894.55	0.177888	0.177558	-3.84588	4	0.0170715	11	-0.000682866
2	0	0	1	0	4894.64	0.170897	0.170562	-4.35934	4	0.0167139	11	-0.000743539
2	0	0	1	0	4894.73	0.163905	0.163618	-5.08298	4	0.0163025	11	-0.000831668
2	0	0	1	0	4894.81	0.156912	0.156623	-6.12952	4	0.0158144	11	-0.000960023
2	0	0	1	0	4894.9	0.14992	0.149655	-7.4517	4	0.0152223	11	-0.00111519
2	0	0	1	0	4894.99	0.142929	0.142648	-8.99374	4	0.0145032	11	-0.00128294
2	0	0	1	0	4895.08	0.135937	0.135629	-10.4366	4	0.0136523	11	-0.00141551
2	0	0	1	0	4895.16	0.128944	0.128701	-11.5476	4	0.0126885	11	-0.00148619
2	0	0	1	0	4895.25	0.121952	0.121677	-12.136	4	0.0116492	11	-0.00147667
2	0	0	1	0	4895.34	0.114961	0.11465	-12.1153	4	0.0105851	11	-0.00138902
2	0	0	1	0	4895.43	0.107969	0.107661	-11.4294	4	0.00955197	11	-0.0012305
2	0	0	1	0	4895.51	0.100976	0.100689	-10.3206	4	0.00859955	11	-0.00103917
2	0	0	1	0	4895.6	0.0939841	0.0937084	-9.23398	4	0.00774668	11	-0.000865301
2	0	0	1	0	4895.69	0.0869926	0.0866723	-8.45418	4	0.00697586	11	-0.000732743
2	0	0	1	0	4895.77	0.080001	0.0796747	-7.95812	4	0.00625979	11	-0.000634061
2	0	0	1	0	4895.86	0.0730094	0.072715	-7.57872	4	0.00558107	11	-0.000551087
2	0	0	1	0	4895.95	0.0660161	0.0657441	-7.22307	4	0.00493444	11	-0.000474874
2	0	0	1	0	4896.04	0.0590246	0.058691	-6.80266	4	0.00432153	11	-0.000399255
2	0	0	1	0	4896.12	0.052033	0.0517227	-6.33717	4	0.00374712	11	-0.000327776
2	0	0	1	0	4896.21	0.0450414	0.044717	-5.90527	4	0.00321268	11	-0.000264066
2	0	0	1	0	4896.3	0.0380481	0.0377477	-5.56141	4	0.0027129	11	-0.00020993
2	0	0	1	0	4896.39	0.0310566	0.0307355	-5.30817	4	0.00223852	11	-0.000163149
2	0	0	1	0	4896.47	0.024065	0.0237625	-5.18044	4	0.00178004	11	-0.0001231
2	0	0	1	0	4896.56	0.0170735	0.0167694	-5.1243	4	0.00132972	11	-8.59315e-05
2	0	0	1	0	4896.65	0.0100801	0.00979539	-5.12462	4	0.000881423	11	-5.01977e-05
2	0	0	1	0	4896.74	0.00308856	0.00277364	-5.17695	4	0.000431186	11	-1.4359e-05
2	0	0	1	0	6120.94	0.00279784	0.00247233	0.0245028	5	-8.81601e-05	11	6.0579e-08
2	1	0	1	0	6121.03	0.00978939	0.00949033	2.91295	5	8.71007e-05	11	2.76448e-05
2	1	0	1	0	6121.11	0.0167827	0.0164817	3.30448	5	0.000362324	11	5.44637e-05
2	1	0	1	0	6121.2	0.0237743	0.0234929	3.48604	5	0.000659476	11	8.18973e-05
2	1	0	1	0	6121.29	0.0307658	0.0305252	3.6526	5	0.000971278	11	0.000111497
2	1	0	1	0	6121.38	0.0377574	0.0374911	3.8156	5	0.00129778	11	0.000143051
2	1	0	1	0	6121.46	0.0447507	0.0444239	4.04983	5	0.00164191	11	0.000179909
2	1	0	1	0	6121.55	0.0517423	0.0513948	4.32765	5	0.00200769	11	0.000222419
2	1	0	1	0	6121.64	0.0587338	0.0584571	4.65853	5	0.00240052	11	0.000272324
2	1	0	1	0	6121.72	0.0657254	0.0654247	5.06001	5	0.00282516	11	0.00033105
2	1	0	1	0	6121.81	0.0727187	0.0724325	5.46555	5	0.00328535	11	0.000395883
2	1	0	1	0	6121.9	0.0797031	0.0794327	5.88532	5	0.00378096	11	0.000467486
2	1	0	1	0	6121.99	0.0866947	0.0863986	6.27455	5	0.00431226	11	0.000542112
2	1	0	1	0	6122.07	0.0936862	0.0933756	6.62574	5	0.00487613	11	0.000618683
2	1	0	1	0	6122.16	0.100678	0.100424	6.9983	5	0.005471	11	0.000702798
2	1	0	1	0	6122.25	0.107662	0.107368	7.42789	5	0.00610007	11	0.000797519
2	1	0	1	0	6122.34	0.114656	0.114341	8.00698	5	0.00677351	11	0.000915524
2	1	0	1	0	6122.42	0.121647	0.121334	8.78891	5	0.00750674	11	0.00106639
2	1	0	1	0	6122.51	0.128639	0.128332	9.65828	5	0.00831279	11	0.00123947
2	1	0	1	0	6122.6	0.13563	0.135326	10.5379	5	0.00919686	11	0.00142605
2	1	0	1	0	6122.69	0.142624	0.142409	11.3103	5	0.0101532	11	0.00161069
2	1	0	1	0	6122.77	0.149615	0.149351	11.7886	5	0.0111654	11	0.00176063
2	1	0	1	0	6122.86	0.156607	0.156327	11.7375	5	0.0121986	11	0.00183488
2	1	0	1	0	6122.95	0.163598	0.163341	10.7016	5	0.0131872	11	0.001748
2	1	0	1	0	6123.04	0.170592	0.170315	8.71321	5	0.01404	11	0.00148399
2	1	0	1	0	6123.12	0.177583	0.177323	6.78179	5	0.0147121	11	0.00120257
2	1	0	1	0	6123.21	0.184575	0.184278	5.56655	5	0.0152465	11	0.00102579
2	1	0	1	0	6123.3	0.191566	0.191304	4.87795	5	0.0157013	11	0.00093317
2	1	0	1	0	6123.39	0.198558	0.19826	4.42997	5	0.0161075	11	0.000878286
2	1	0	1	0	6123.47	0.205551	0.205283	4.10084	5	0.0164798	11	0.000841831
2	1	0	1	0	6123.56	0.212543	0.212259	3.87675	5	0.0168284	11	0.000822873
2	1	0	1	0	6123.65	0.219534	0.219263	3.70837	5	0.0171596	11	0.000813108
2	1	0	1	0	6123.73	0.226526	0.226242	3.57929	5	0.0174784	11	0.000809785
2	1	0	1	0	6123.82	0.233519	0.233217	3.50546	5	0.0177879	11	0.000817531
2	1	0	1	0	6123.91	0.240511	0.240266	3.41989	5	0.0180903	11	0.000821685
2	1	0	1	0	6124	0.247502	0.247234	3.36567	5	0.018387	11	0.000832108
2	1	0	1	0	6124.08	0.254494	0.25421	3.31764	5	0.0186789	11	0.000843377
2	1	0	1	0	6124.17	0.261485	0.261185	3.25601	5	0.0189667	11	0.00085042
2	1	0	1	0	6124.26	0.268479	0.268247	3.2302	5	0.0192506	11	0.000866493
2	1	0	1	0	6124.35	0.27547	0.275143	3.18551	5	0.0195312	11	0.00087647
2	1	0	1	0	6124.43	0.282462	0.282176	3.14826	5	0.0198084	11	0.000888363
2	1	0	1	0	6124.52	0.289453	0.289188	3.11999	5	0.0200826	11	0.000902265
2	1	0	1	0	6124.61	0.296447	0.296169	3.08206	5	0.0203537	11	0.000912811
2	0	0	1	0	6124.68	0.297743	0.297524	-0.30368	5	0.020516	11	-9.03521e-05
2	0	0	1	0	6124.77	0.290752	0.29047	-1.31163	5	0.0204265	11	-0.000380989
2	0	0	1	0	6124.86	0.28376	0.283456	-1.55249	5	0.0203006	11	-0.000440062
2	0	0	1	0	6124.94	0.276769	0.276443	-1.72306	5	0.0201569	11	-0.000476326
2	0	0	1	0	6125.03	0.269775	0.269462	-1.87672	5	0.0199996	11	-0.000505706
2	0	0	1	0	6125.12	0.262784	0.262469	-1.98072	5	0.0198312	11	-0.000519878
2	0	0	1	0	6125.21	0.255792	0.255447	-2.0911	5	0.0196532	11	-0.000534166
2	0	0	1	0	6125.29	0.248801	0.248464	-2.19112	5	0.0194663	11	-0.000544413
2	0	0	1	0	6125.38	0.241809	0.241514	-2.2626	5	0.0192709	11	-0.00054645
2	0	0	1	0	6125.47	0.234816	0.234527	-2.37212	5	0.0190676	11	-0.000556326
2	0	0	1	0	6125.56	0.227824	0.22752	-2.4637	5	0.0188561	11	-0.00056054
2	0	0	1	0	6125.64	0.220833	0.220523	-2.56208	5	0.0186361	11	-0.000564998
2	0	0	1	0	6125.73	0.213841	0.213519	-2.678	5	0.018407	11	-0.000571805
2	0	0	1	0	6125.82	0.206848	0.206559	-2.80333	5	0.0181678	11	-0.000579053
2	0	0	1	0	6125.91	0.199856	0.199519	-2.95	5	0.0179167	11	-0.00058858
2	0	0	1	0	6125.99	0.192865	0.192492	-3.13447	5	0.0176515	11	-0.000603361
2	0	0	1	0	6126.08	0.185873	0.185652	-3.3576	5	0.0173682	11	-0.000623345
2	0	0	1	0	6126.17	0.17888	0.178546	-3.68515	5	0.0170612	11	-0.000657967
2	0	0	1	0	6126.25	0.171888	0.171593	-4.11449	5	0.0167216	11	-0.00070602
2	0	0	1	0	6126.34	0.164897	0.164563	-4.73353	5	0.0163362	11	-0.000778963
2	0	0	1	0	6126.43	0.157905	0.157621	-5.63694	5	0.0158847	11	-0.000888498
2	0	0	1	0	6126.52	0.150914	0.150648	-6.83935	5	0.0153409	11	-0.00103033
2	0	0	1	0	6126.6	0.14392	0.143607	-8.28863	5	0.0146805	11	-0.00119031
2	0	0	1	0	6126.69	0.136929	0.13662	-9.73852	5	0.0138913	11	-0.00133048
2	0	0	1	0	6126.78	0.129937	0.129675	-10.9217	5	0.012986	11	-0.00141628
2	0	0	1	0	6126.87	0.122946	0.122645	-11.6796	5	0.0119944	11	-0.00143244
2	0	0	1	0	6126.95	0.115952	0.115628	-11.8814	5	0.0109611	11	-0.00137382
2	0	0	1	0	6127.04	0.108968	0.108653	-11.5197	5	0.00993582	11	-0.00125164
2	0	0	1	0	6127.13	0.101976	0.101669	-10.6962	5	0.00896315	11	-0.00108747
2	0	0	1	0	6127.22	0.0949847	0.0946811	-9.65625	5	0.00807444	11	-0.000914265
2	0	0	1	0	6127.3	0.0879931	0.0876942	-8.82241	5	0.00726855	11	-0.000773674
2	0	0	1	0	6127.39	0.0810087	0.0806945	-8.25613	5	0.00652462	11	-0.000666225
2	0	0	1	0	6127.48	0.0740154	0.0736994	-7.84591	5	0.00582166	11	-0.000578239
2	0	0	1	0	6127.57	0.0670238	0.0667339	-7.49517	5	0.00515124	11	-0.000500182
2	0	0	1	0	6127.65	0.0600323	0.0597251	-7.11635	5	0.00451213	11	-0.000425024
2	0	0	1	0	6127.74	0.0530407	0.0527272	-6.68374	5	0.00390871	11	-0.000352415
2	0	0	1	0	6127.83	0.0460474	0.0457314	-6.2196	5	0.00334524	11	-0.000284431
2	0	0	1	0	6127.92	0.0390558	0.0387243	-5.79545	5	0.0028212	11	-0.000224425
2	0	0	1	0	6128	0.0320643	0.0317468	-5.4853	5	0.00232929	11	-0.000174141
2	0	0	1	0	6128.09	0.0250727	0.0247629	-5.29603	5	0.00185922	11	-0.000131145
2	0	0	1	0	6128.18	0.0180794	0.0177732	-5.17724	5	0.00140211	11	-9.20162e-05
2	0	0	1	0	6128.26	0.0110878	0.0107889	-5.15642	5	0.000950475	11	-5.56323e-05
2	0	0	1	0	6128.35	0.00409627	0.00378765	-5.17044	5	0.000499326	11	-1.95838e-05
2	0	0	1	0	7352.55	0.00179191	0.0014014	-1.3991	6	-7.66409e-05	11	-1.9607e-06
2	1	0	1	0	7352.64	0.00878347	0.00847495	2.88267	6	6.25921e-05	11	2.44305e-05
2	1	0	1	0	7352.73	0.015775	0.015451	3.34449	6	0.000339752	11	5.16757e-05
2	1	0	1	0	7352.82	0.0227666	0.0224683	3.5135	6	0.000640123	11	7.89426e-05
2	1	0	1	0	7352.9	0.0297581	0.0294761	3.68949	6	0.000954924	11	0.000108752
2	1	0	1	0	7352.99	0.0367515	0.0364996	3.87954	6	0.00128513	11	0.000141601
2	1	0	1	0	7353.08	0.043743	0.0434535	4.11442	6	0.00163414	11	0.000178786
2	1	0	1	0	7353.17	0.0507346	0.0504173	4.40763	6	0.00200666	11	0.000222221
2	1	0	1	0	7353.25	0.0577261	0.0573855	4.75983	6	0.00240782	11	0.000273145
2	1	0	1	0	7353.34	0.0647195	0.0644209	5.17073	6	0.00284204	11	0.000333103
2	1	0	1	0	7353.43	0.071711	0.0713953	5.58172	6	0.0033122	11	0.000398508
2	1	0	1	0	7353.52	0.0787026	0.0783986	5.97492	6	0.00381803	11	0.000468426
2	1	0	1	0	7353.6	0.0856941	0.0853972	6.36217	6	0.00435785	11	0.000543311
2	1	0	1	0	7353.69	0.0926857	0.0923763	6.70309	6	0.0049286	11	0.000619207
2	1	0	1	0	7353.78	0.099679	0.0994008	7.05853	6	0.00552983	11	0.000701624
2	1	0	1	0	7353.86	0.106671	0.106387	7.50746	6	0.00616491	11	0.000798697
2	1	0	1	0	7353.95	0.113662	0.113368	8.08662	6	0.00684501	11	0.000916766
2	1	0	1	0	7354.04	0.120654	0.120325	8.84606	6	0.00758436	11	0.0010644
2	1	0	1	0	7354.13	0.127647	0.127347	9.68845	6	0.0083945	11	0.0012338
2	1	0	1	0	7354.21	0.134639	0.134308	10.4808	6	0.00927724	11	0.00140766
2	1	0	1	0	7354.3	0.14163	0.141381	11.1613	6	0.0102249	11	0.001578
2	1	0	1	0	7354.39	0.148622	0.148325	11.5738	6	0.0112213	11	0.00171669
2	1	0	1	0	7354.48	0.155615	0.155352	11.4269	6	0.0122322	11	0.0017752
2	1	0	1	0	7354.56	0.162607	0.162337	10.3083	6	0.0131904	11	0.00167342
2	1	0	1	0	7354.65	0.169598	0.169354	8.247	6	0.0140046	11	0.00139666
2	1	0	1	0	7354.74	0.17659	0.176288	6.33933	6	0.0146366	11	0.00111755
2	1	0	1	0	7354.83	0.183581	0.183319	5.23685	6	0.0151371	11	0.000960015
2	1	0	1	0	7354.91	0.190575	0.190301	4.618	6	0.0155657	11	0.00087881
2	1	0	1	0	7355	0.197566	0.197295	4.22862	6	0.0159516	11	0.000834284
2	1	0	1	0	7355.09	0.204558	0.204291	3.95091	6	0.0163086	11	0.000807136
2	1	0	1	0	7355.18	0.211549	0.211274	3.75503	6	0.0166459	11	0.000793341
2	1	0	1	0	7355.26	0.218543	0.21824	3.6314	6	0.0169685	11	0.000792516
2	1	0	1	0	7355.35	0.225527	0.225258	3.52167	6	0.0172805	11	0.000793286
2	1	0	1	0	7355.44	0.232518	0.232198	3.44965	6	0.0175848	11	0.000801004
2	1	0	1	0	7355.53	0.23951	0.239247	3.387	6	0.0178831	11	0.000810331
2	1	0	1	0	7355.61	0.246495	0.246254	3.32296	6	0.018176	11	0.000818292
2	1	0	1	0	7355.7	0.253488	0.253195	3.2878	6	0.0184649	11	0.000832457
2	1	0	1	0	7355.79	0.260479	0.260198	3.24399	6	0.0187501	11	0.000844081
2	1	0	1	0	7355.87	0.267471	0.267178	3.19257	6	0.0190316	11	0.000852985
2	1	0	1	0	7355.96	0.274462	0.274188	3.16522	6	0.0193101	11	0.000867868
2	1	0	1	0	7356.05	0.281454	0.281172	3.12738	6	0.0195852	11	0.000879333
2	1	0	1	0	7356.14	0.288447	0.288204	3.09066	6	0.0198574	11	0.000890738
2	1	0	1	0	7356.22	0.295439	0.295139	3.07041	6	0.0201267	11	0.000906199
2	1	0	1	0	7356.3	0.298737	0.298477	0.459018	6	0.0203252	11	0.000137006
2	0	0	1	0	7356.38	0.291745	0.291436	-1.30993	6	0.0202461	11	-0.000381761
2	0	0	1	0	7356.47	0.284752	0.284483	-1.55333	6	0.02012	11	-0.000441895
2	0	0	1	0	7356.56	0.27776	0.277479	-1.71723	6	0.0199767	11	-0.000476496
2	0	0	1	0	7356.65	0.270769	0.270458	-1.8559	6	0.0198202	11	-0.000501942
2	0	0	1	0	7356.73	0.263777	0.263466	-1.9772	6	0.0196527	11	-0.000520925
2	0	0	1	0	7356.82	0.256786	0.256503	-2.07064	6	0.0194758	11	-0.000531126
2	0	0	1	0	7356.91	0.249792	0.249459	-2.1719	6	0.0192902	11	-0.000541799
2	0	0	1	0	7357	0.242801	0.24249	-2.27035	6	0.0190963	11	-0.000550537
2	0	0	1	0	7357.08	0.235809	0.235476	-2.34361	6	0.0188948	11	-0.000551864
2	0	0	1	0	7357.17	0.228818	0.228541	-2.43346	6	0.0186854	11	-0.000556146
2	0	0	1	0	7357.26	0.221824	0.221569	-2.53008	6	0.018468	11	-0.000560587
2	0	0	1	0	7357.35	0.21484	0.214543	-2.63193	6	0.0182424	11	-0.000564664
2	0	0	1	0	7357.43	0.207848	0.207534	-2.75151	6	0.0180072	11	-0.000571032
2	0	0	1	0	7357.52	0.200857	0.200533	-2.87858	6	0.017761	11	-0.00057725
2	0	0	1	0	7357.61	0.193872	0.193548	-3.05139	6	0.0175025	11	-0.000590591
2	0	0	1	0	7357.7	0.186879	0.186592	-3.2556	6	0.0172276	11	-0.000607469
2	0	0	1	0	7357.78	0.179887	0.179607	-3.52552	6	0.016932	11	-0.000633207
2	0	0	1	0	7357.87	0.172896	0.17254	-3.91106	6	0.0166079	11	-0.000674816
2	0	0	1	0	7357.96	0.165904	0.165588	-4.45725	6	0.0162438	11	-0.000738066
2	0	0	1	0	7358.05	0.158913	0.158619	-5.2336	6	0.0158221	11	-0.00083015
2	0	0	1	0	7358.13	0.151919	0.151611	-6.35088	6	0.0153176	11	-0.000962862
2	0	0	1	0	7358.22	0.144928	0.144663	-7.7136	6	0.0147039	11	-0.00111588
2	0	0	1	0	7358.31	0.137936	0.137647	-9.19704	6	0.0139635	11	-0.00126594
2	0	0	1	0	7358.39	0.130945	0.130634	-10.4722	6	0.0131017	11	-0.00136803
2	0	0	1	0	7358.48	0.123951	0.123604	-11.3479	6	0.0121445	11	-0.00140264
2	0	0	1	0	7358.57	0.11696	0.116626	-11.7019	6	0.0111335	11	-0.00136475
2	0	0	1	0	7358.66	0.109968	0.109669	-11.5171	6	0.0101153	11	-0.00126307
2	0	0	1	0	7358.74	0.102977	0.102657	-10.832	6	0.0091359	11	-0.00111199
2	0	0	1	0	7358.83	0.0959835	0.0956771	-9.87072	6	0.00823057	11	-0.000944402
2	0	0	1	0	7358.92	0.0889919	0.0886829	-8.97872	6	0.00740901	11	-0.000796259
2	0	0	1	0	7359.01	0.0820004	0.0816731	-8.32581	6	0.00665468	11	-0.000679995
2	0	0	1	0	7359.09	0.0750088	0.0746749	-7.90966	6	0.0059457	11	-0.000590653
2	0	0	1	0	7359.18	0.0680173	0.067755	-7.56949	6	0.00526927	11	-0.000512871
2	0	0	1	0	7359.27	0.0610239	0.0606917	-7.23489	6	0.00462179	11	-0.000439098
2	0	0	1	0	7359.36	0.0540324	0.0536962	-6.84898	6	0.00400597	11	-0.000367764
2	0	0	1	0	7359.44	0.0470408	0.046728	-6.38554	6	0.00342719	11	-0.000298383
2	0	0	1	0	7359.53	0.0400493	0.0397526	-5.94967	6	0.00288849	11	-0.000236515
2	0	0	1	0	7359.62	0.0330559	0.0327158	-5.58836	6	0.00238553	11	-0.000182828
2	0	0	1	0	7359.71	0.0260644	0.0257749	-5.33497	6	0.00190907	11	-0.000137508
2	0	0	1	0	7359.79	0.0190728	0.0187456	-5.20443	6	0.00144918	11	-9.75603e-05
2	0	0	1	0	7359.88	0.0120813	0.0117467	-5.14564	6	0.000997451	11	-6.04444e-05
2	0	0	1	0	7359.97	0.00508972	0.00474066	-5.13834	6	0.000548116	11	-2.43591e-05
2	0	0	1	0	8584.17	0.000798471	0.000420104	-3.88393	7	-4.87447e-05	11	-1.63165e-06
2	1	0	1	0	8584.26	0.00779002	0.00748207	2.44099	7	3.57791e-07	11	1.82636e-05
2	1	0	1	0	8584.34	0.0147816	0.0144636	3.13248	7	0.000252144	11	4.53069e-05
2	1	0	1	0	8584.43	0.0217749	0.0214871	3.39009	7	0.000538236	11	7.28429e-05
2	1	0	1	0	8584.52	0.0287665	0.0284935	3.58177	7	0.000842484	11	0.000102057
2	1	0	1	0	8584.61	0.035758	0.0354753	3.7987	7	0.00116492	11	0.00013476
2	1	0	1	0	8584.69	0.0427496	0.0424596	4.06772	7	0.00150829	11	0.000172714
2	1	0	1	0	8584.78	0.0497429	0.0494834	4.37098	7	0.00187667	11	0.000216291
2	1	0	1	0	8584.87	0.0567345	0.0564383	4.73324	7	0.00227459	11	0.000267136
2	1	0	1	0	8584.96	0.063726	0.0634226	5.12073	7	0.00270549	11	0.00032477
2	1	0	1	0	8585.04	0.0707176	0.0704293	5.52129	7	0.00317153	11	0.000388861
2	1	0	1	0	8585.13	0.0777109	0.0774068	5.9184	7	0.00367207	11	0.000458124
2	1	0	1	0	8585.22	0.0847025	0.0844455	6.26556	7	0.00420486	11	0.000529099
2	1	0	1	0	8585.31	0.091694	0.0913814	6.59075	7	0.00476715	11	0.000602272
2	1	0	1	0	8585.39	0.0986856	0.0983663	6.94545	7	0.00535862	11	0.000683199
2	1	0	1	0	8585.48	0.105677	0.105384	7.34996	7	0.00598216	11	0.000774571
2	1	0	1	0	8585.57	0.11267	0.112373	7.91321	7	0.00664819	11	0.000889228
2	1	0	1	0	8585.66	0.119655	0.11938	8.62111	7	0.00736879	11	0.00102919
2	1	0	1	0	8585.74	0.126646	0.126345	9.36854	7	0.00815494	11	0.00118367
2	1	0	1	0	8585.83	0.133638	0.133334	10.0816	7	0.00900573	11	0.00134421
2	1	0	1	0	8585.92	0.140622	0.140369	10.6662	7	0.00991284	11	0.00149721
2	1	0	1	0	8586.01	0.147616	0.147339	11.0557	7	0.010865	11	0.00162893
2	1	0	1	0	8586.09	0.154607	0.154341	10.974	7	0.0118328	11	0.00169375
2	1	0	1	0	8586.18	0.161599	0.161326	9.97887	7	0.0127563	11	0.00160985
2	1	0	1	0	8586.27	0.16859	0.16835	8.10755	7	0.0135504	11	0.00136491
2	1	0	1	0	8586.35	0.175582	0.175273	6.32468	7	0.0141761	11	0.00110855
2	1	0	1	0	8586.44	0.182575	0.182294	5.25087	7	0.0146772	11	0.0009572
2	1	0	1	0	8586.53	0.189567	0.189289	4.64724	7	0.0151076	11	0.000879673
2	1	0	1	0	8586.62	0.196558	0.196277	4.23811	7	0.0154946	11	0.000831842
2	1	0	1	0	8586.7	0.20355	0.203242	3.96044	7	0.0158524	11	0.000804928
2	1	0	1	0	8586.79	0.210543	0.210258	3.77234	7	0.0161904	11	0.000793165
2	1	0	1	0	8586.88	0.217535	0.217259	3.62857	7	0.016514	11	0.00078834
2	1	0	1	0	8586.97	0.224526	0.224287	3.53946	7	0.0168274	11	0.000793856
2	1	0	1	0	8587.05	0.231518	0.231278	3.45757	7	0.0171329	11	0.000799659
2	1	0	1	0	8587.14	0.238511	0.238271	3.39248	7	0.0174325	11	0.000808331
2	1	0	1	0	8587.23	0.245503	0.245252	3.3554	7	0.0177271	11	0.000822918
2	1	0	1	0	8587.32	0.252494	0.252195	3.29967	7	0.0180176	11	0.000832159
2	1	0	1	0	8587.4	0.259486	0.259223	3.2556	7	0.0183041	11	0.000843927
2	1	0	1	0	8587.49	0.266477	0.266229	3.22352	7	0.0185872	11	0.000858195
2	1	0	1	0	8587.58	0.273471	0.273179	3.1818	7	0.0188672	11	0.000869202
2	1	0	1	0	8587.67	0.280462	0.280206	3.14253	7	0.0191439	11	0.000880555
2	1	0	1	0	8587.75	0.287454	0.287162	3.10578	7	0.0194175	11	0.000891861
2	1	0	1	0	8587.84	0.294445	0.294132	3.06452	7	0.0196881	11	0.000901371
2	1	0	1	0	8587.91	0.299744	0.299539	2.37889	7	0.0199094	11	0.000712571
2	0	0	1	0	8588	0.292751	0.292449	-1.14335	7	0.0198763	11	-0.00033437
2	0	0	1	0	8588.09	0.28576	0.285429	-1.42629	7	0.0197623	11	-0.000407104
2	0	0	1	0	8588.18	0.278768	0.278446	-1.62286	7	0.0196283	11	-0.00045188
2	0	0	1	0	8588.26	0.271776	0.271444	-1.76886	7	0.0194799	11	-0.000480147
2	0	0	1	0	8588.35	0.264783	0.264526	-1.88482	7	0.0193197	11	-0.000498584
2	0	0	1	0	8588.44	0.257792	0.257475	-2.01176	7	0.0191494	11	-0.000517978
2	0	0	1	0	8588.53	0.2508	0.250455	-2.0994	7	0.01897	11	-0.000525805
2	0	0	1	0	8588.61	0.243808	0.243446	-2.19265	7	0.0187824	11	-0.000533793
2	0	0	1	0	8588.7	0.236817	0.236489	-2.28684	7	0.0185868	11	-0.000540812
2	0	0	1	0	8588.79	0.229824	0.229478	-2.36728	7	0.0183835	11	-0.000543237
2	0	0	1	0	8588.87	0.222832	0.222537	-2.45937	7	0.0181724	11	-0.000547301
2	0	0	1	0	8588.96	0.21584	0.21554	-2.55001	7	0.0179531	11	-0.000549629
2	0	0	1	0	8589.05	0.208849	0.208543	-2.65137	7	0.0177251	11	-0.000552924
2	0	0	1	0	8589.14	0.201856	0.201569	-2.78692	7	0.017487	11	-0.000561757
2	0	0	1	0	8589.22	0.194864	0.194532	-2.9236	7	0.0172377	11	-0.000568734
2	0	0	1	0	8589.31	0.187872	0.187521	-3.0969	7	0.0169744	11	-0.000580735
2	0	0	1	0	8589.4	0.180881	0.180573	-3.34392	7	0.0166932	11	-0.000603823
2	0	0	1	0	8589.49	0.173889	0.173587	-3.65053	7	0.0163881	11	-0.000633685
2	0	0	1	0	8589.57	0.166896	0.166561	-4.11614	7	0.0160498	11	-0.000685586
2	0	0	1	0	8589.66	0.159904	0.159601	-4.76631	7	0.0156638	11	-0.000760706
2	0	0	1	0	8589.75	0.152913	0.1526	-5.6994	7	0.0152084	11	-0.000869729
2	0	0	1	0	8589.84	0.145921	0.145602	-6.93679	7	0.0146576	11	-0.00101001
2	0	0	1	0	8589.92	0.138928	0.13863	-8.32317	7	0.0139911	11	-0.00115384
2	0	0	1	0	8590.01	0.131936	0.131636	-9.60311	7	0.0132053	11	-0.00126412
2	0	0	1	0	8590.1	0.124945	0.124614	-10.5841	7	0.0123201	11	-0.00131893
2	0	0	1	0	8590.19	0.117953	0.117652	-11.097	7	0.0113688	11	-0.00130559
2	0	0	1	0	8590.27	0.11096	0.110648	-11.1537	7	0.0103926	11	-0.00123413
2	0	0	1	0	8590.36	0.103968	0.103671	-10.7505	7	0.00943269	11	-0.00111451
2	0	0	1	0	8590.45	0.0969769	0.0966918	-9.9992	7	0.00852433	11	-0.000966841
2	0	0	1	0	8590.54	0.0899854	0.0896652	-9.18152	7	0.00768698	11	-0.000823263
2	0	0	1	0	8590.62	0.0829938	0.0827055	-8.51651	7	0.00691542	11	-0.000704362
2	0	0	1	0	8590.71	0.0760005	0.0756797	-8.0625	7	0.00619207	11	-0.000610167
2	0	0	1	0	8590.8	0.069016	0.0686885	-7.72443	7	0.0055035	11	-0.000530579
2	0	0	1	0	8590.88	0.0620245	0.0616838	-7.40742	7	0.0048418	11	-0.000456918
2	0	0	1	0	8590.97	0.0550329	0.0547057	-7.07061	7	0.00420842	11	-0.000386803
2	0	0	1	0	8591.06	0.0480485	0.0477147	-6.67532	7	0.00360785	11	-0.000318511
2	0	0	1	0	8591.15	0.0410552	0.0407288	-6.22478	7	0.00304397	11	-0.000253528
2	0	0	1	0	8591.23	0.0340636	0.0337677	-5.83028	7	0.00251765	11	-0.000196875
2	0	0	1	0	8591.32	0.0270721	0.0267483	-5.51337	7	0.00202302	11	-0.000147473
2	0	0	1	0	8591.41	0.0200805	0.0197109	-5.30619	7	0.00155078	11	-0.00010459
2	0	0	1	0	8591.5	0.0130872	0.0127532	-5.21758	7	0.00109184	11	-6.65411e-05
2	0	0	1	0	8591.58	0.00609564	0.00578194	-5.16912	7	0.000638935	11	-2.98875e-05
2	0	0	0	0	9815.79	2.44065e-05	0.000113685	-6.01047	8	0.0000000E+000	11	-6.833e-07
2	1	0	1	0	9815.87	0.00679123	0.00646811	2.33379	8	-1.73745e-05	11	1.50952e-05
2	1	0	1	0	9815.96	0.0137828	0.0134524	3.24786	8	0.000237994	11	4.36916e-05
2	1	0	1	0	9816.05	0.0207743	0.0204641	3.49452	8	0.000534057	11	7.15121e-05
2	1	0	1	0	9816.14	0.0277659	0.0274763	3.69864	8	0.000848628	11	0.000101625
2	1	0	1	0	9816.22	0.0347503	0.0344109	3.92599	8	0.00118118	11	0.000135097
2	1	0	1	0	9816.31	0.0417437	0.041435	4.18997	8	0.00153545	11	0.000173611
2	1	0	1	0	9816.4	0.0487352	0.0484189	4.51531	8	0.00191539	11	0.000218626
2	1	0	1	0	9816.48	0.0557268	0.0554434	4.86636	8	0.00232511	11	0.000269807
2	1	0	1	0	9816.57	0.0627183	0.0624222	5.25946	8	0.00276767	11	0.000328307
2	1	0	1	0	9816.66	0.0697116	0.0694259	5.6487	8	0.00324455	11	0.000392166
2	1	0	1	0	9816.75	0.0767032	0.0764132	6.01507	8	0.00375473	11	0.000459631
2	1	0	1	0	9816.83	0.0836947	0.0833903	6.36018	8	0.00429619	11	0.000530377
2	1	0	1	0	9816.92	0.0906863	0.0904062	6.68376	8	0.00486657	11	0.000604253
2	1	0	1	0	9817.01	0.0976779	0.0974065	7.01751	8	0.00546555	11	0.000683551
2	1	0	1	0	9817.1	0.104671	0.104357	7.44064	8	0.00609658	11	0.000776483
2	1	0	1	0	9817.18	0.111663	0.111379	8.00783	8	0.00677083	11	0.000891903
2	1	0	1	0	9817.27	0.118654	0.118359	8.69971	8	0.00750025	11	0.00102969
2	1	0	1	0	9817.36	0.125646	0.125379	9.43668	8	0.008293	11	0.00118316
2	1	0	1	0	9817.45	0.132639	0.132312	10.0994	8	0.00914727	11	0.00133627
2	1	0	1	0	9817.53	0.139631	0.139311	10.6484	8	0.0100553	11	0.00148345
2	1	0	1	0	9817.62	0.146622	0.146344	11.0071	8	0.0110044	11	0.00161083
2	1	0	1	0	9817.71	0.153614	0.153323	10.8702	8	0.0119661	11	0.00166666
2	1	0	1	0	9817.8	0.160607	0.160317	9.84301	8	0.0128795	11	0.001578
2	1	0	1	0	9817.88	0.167599	0.167291	7.94301	8	0.0136599	11	0.00132879
2	1	0	1	0	9817.97	0.17459	0.17429	6.18241	8	0.0142731	11	0.00107753
2	1	0	1	0	9818.06	0.181582	0.181291	5.14987	8	0.0147638	11	0.000933624
2	1	0	1	0	9818.15	0.188573	0.18828	4.53681	8	0.0151848	11	0.00085419
2	1	0	1	0	9818.23	0.195567	0.195302	4.15488	8	0.0155636	11	0.000811458
2	1	0	1	0	9818.32	0.202558	0.202289	3.89842	8	0.0159146	11	0.000788608
2	1	0	1	0	9818.41	0.20955	0.209287	3.7173	8	0.016247	11	0.000777982
2	1	0	1	0	9818.5	0.216541	0.216261	3.58695	8	0.0165662	11	0.000775717
2	1	0	1	0	9818.58	0.223535	0.223262	3.49789	8	0.0168761	11	0.000780948
2	1	0	1	0	9818.67	0.230526	0.230266	3.42029	8	0.0171787	11	0.000787575
2	1	0	1	0	9818.76	0.237518	0.237235	3.37423	8	0.0174759	11	0.000800486
2	1	0	1	0	9818.84	0.244509	0.244242	3.31923	8	0.0177685	11	0.000810695
2	1	0	1	0	9818.93	0.251503	0.251205	3.27887	8	0.0180571	11	0.000823669
2	1	0	1	0	9819.02	0.258494	0.25821	3.25259	8	0.0183423	11	0.000839849
2	1	0	1	0	9819.11	0.265479	0.265196	3.20375	8	0.0186239	11	0.000849622
2	1	0	1	0	9819.19	0.27247	0.272169	3.17454	8	0.0189027	11	0.000864013
2	1	0	1	0	9819.28	0.279462	0.279182	3.14085	8	0.0191786	11	0.000876871
2	1	0	1	0	9819.37	0.286446	0.286145	3.09744	8	0.0194513	11	0.000886318
2	1	0	1	0	9819.46	0.29344	0.293173	3.07165	8	0.0197213	11	0.000900526
2	1	0	0	0	9819.54	0.299962	0.299766	3.03567	8	0.019971	11	0.000909989
2	0	0	1	0	9819.62	0.293745	0.29339	-1.1795	8	0.0199547	11	-0.000346055
2	0	0	1	0	9819.7	0.286753	0.28648	-1.4794	8	0.0198362	11	-0.00042382
2	0	0	1	0	9819.79	0.27976	0.279443	-1.66285	8	0.0196983	11	-0.000464673
2	0	0	1	0	9819.88	0.272768	0.272476	-1.79719	8	0.0195464	11	-0.000489692
2	0	0	1	0	9819.97	0.265777	0.26547	-1.92609	8	0.019383	11	-0.00051132
2	0	0	1	0	9820.05	0.258785	0.258499	-2.03267	8	0.0192099	11	-0.000525441
2	0	0	1	0	9820.14	0.251793	0.251444	-2.12289	8	0.0190278	11	-0.000533787
2	0	0	1	0	9820.23	0.2448	0.244506	-2.23247	8	0.0188377	11	-0.000545853
2	0	0	1	0	9820.32	0.237809	0.237516	-2.30463	8	0.0186398	11	-0.000547387
2	0	0	1	0	9820.4	0.230817	0.230483	-2.39121	8	0.0184344	11	-0.000551134
2	0	0	1	0	9820.49	0.223825	0.22351	-2.48213	8	0.0182215	11	-0.000554781
2	0	0	1	0	9820.58	0.216832	0.216529	-2.57013	8	0.0180007	11	-0.000556508
2	0	0	1	0	9820.67	0.209841	0.20952	-2.671	8	0.0177717	11	-0.000559627
2	0	0	1	0	9820.75	0.202849	0.202504	-2.78371	8	0.0175331	11	-0.000563713
2	0	0	1	0	9820.84	0.195857	0.195502	-2.9052	8	0.0172842	11	-0.000567973
2	0	0	1	0	9820.93	0.188864	0.188518	-3.08168	8	0.0170222	11	-0.000580951
2	0	0	1	0	9821.01	0.18188	0.181556	-3.28901	8	0.0167445	11	-0.000597141
2	0	0	1	0	9821.1	0.174888	0.174553	-3.57591	8	0.0164449	11	-0.000624186
2	0	0	1	0	9821.19	0.167897	0.167531	-3.9904	8	0.0161156	11	-0.000668513
2	0	0	1	0	9821.28	0.160905	0.160615	-4.56112	8	0.0157437	11	-0.000732585
2	0	0	1	0	9821.36	0.153921	0.153613	-5.41547	8	0.0153103	11	-0.000831885
2	0	0	1	0	9821.45	0.146927	0.146635	-6.58051	8	0.0147886	11	-0.000964936
2	0	0	1	0	9821.54	0.139936	0.139619	-7.95498	8	0.014155	11	-0.00111067
2	0	0	1	0	9821.63	0.132944	0.132655	-9.30309	8	0.0133993	11	-0.0012341
2	0	0	1	0	9821.71	0.125953	0.125687	-10.3816	8	0.012536	11	-0.00130484
2	0	0	1	0	9821.8	0.118959	0.118694	-11.0295	8	0.011596	11	-0.00130914
2	0	0	1	0	9821.89	0.111968	0.111623	-11.2097	8	0.0106204	11	-0.00125126
2	0	0	1	0	9821.98	0.104976	0.104658	-10.9158	8	0.0096505	11	-0.00114243
2	0	0	1	0	9822.06	0.0979846	0.0976768	-10.2628	8	0.00872257	11	-0.00100243
2	0	0	1	0	9822.15	0.0909931	0.0907311	-9.43942	8	0.00786164	11	-0.000856448
2	0	0	1	0	9822.24	0.0839997	0.0836892	-8.70122	8	0.00707058	11	-0.000728198
2	0	0	1	0	9822.33	0.0770082	0.0766613	-8.1911	8	0.0063342	11	-0.000627941
2	0	0	1	0	9822.41	0.0700166	0.0696835	-7.82086	8	0.00563566	11	-0.000544985
2	0	0	1	0	9822.5	0.0630251	0.0627078	-7.50221	8	0.00496617	11	-0.000470447
2	0	0	1	0	9822.59	0.0560317	0.0556942	-7.18771	8	0.00432385	11	-0.000400314
2	0	0	1	0	9822.68	0.0490402	0.0486964	-6.81703	8	0.00371115	11	-0.000331965
2	0	0	1	0	9822.76	0.0420486	0.0417026	-6.39276	8	0.00313325	11	-0.000266594
2	0	0	1	0	9822.85	0.0350571	0.0347374	-5.97203	8	0.00259295	11	-0.000207453
2	0	0	1	0	9822.94	0.0280637	0.0277511	-5.61547	8	0.00208724	11	-0.000155835
2	0	0	1	0	9823.03	0.0210722	0.0207808	-5.38072	8	0.00160738	11	-0.000111816
2	0	0	1	0	9823.11	0.0140806	0.0137499	-5.25145	8	0.00114381	11	-7.22068e-05
2	0	0	1	0	9823.2	0.00708909	0.00677277	-5.18399	8	0.000688343	11	-3.511e-05
2	0	0	1	0	9823.29	0.000199195	-0.000166899	-5.23428	8	0.000240316	11	8.73595e-07
2	0	0	1	0	9823.29	-2.44065e-05	-0.000268062	-5.23166	8	0.000228272	11	1.40241e-06