File: Figure_codes/Fig_3-5/rawdata_trumpetplot_data/before 10th/20221101_1-115_002_TrumpetPlot_ParaChange_09_CV_C01_4.csv
mode,ox/red,error,control changes,counter inc.,time/s,control/V,Ewe/V,<I>/mA,cycle number,(Q-Qo)/C,I Range,P/W,log(|I|),Tafel slope mV/dec,alpha_eff,dI/d(E-IR),E-IR/V,
2,0,0,1,0,6110.8,2.44065e-05,-9.62757e-05,-4.37901,5,0.0000000E+000,11,4.21592e-07,-2.35862, , , ,-9.62757e-05,
2,0,0,1,0,6110.82,0.0013005,0.000887475,-1.09247,5,-5.38469e-05,11,-9.6954e-07,-2.96159, , , ,0.000887475,
2,1,0,1,0,6110.85,0.00279471,0.00247071,0.753414,5,-5.51252e-05,11,1.86147e-06,-3.12297,-0.042043,-1.40333,943.111,0.00247071,
2,1,0,1,0,6110.87,0.00429425,0.00394533,1.55145,5,-2.50003e-05,11,6.12099e-06,-2.80926,0.00486093,12.1376,423,0.00394533,
2,1,0,1,0,6110.9,0.00579379,0.00547928,1.934,5,1.92051e-05,11,1.05969e-05,-2.71354,0.0185624,3.17847,215.379,0.00547928,
2,1,0,1,0,6110.92,0.007288,0.00701576,2.14859,5,7.03823e-05,11,1.5074e-05,-2.66785,0.039036,1.51143,121.841,0.00701576,
2,1,0,1,0,6110.95,0.00878882,0.00852315,2.27802,5,0.000125983,11,1.94159e-05,-2.64244,0.073118,0.806914,70.4526,0.008523155,
2,1,0,1,0,6110.97,0.0102896,0.00998258,2.36787,5,0.00018421,11,2.36375e-05,-2.62564,0.121092,0.487235,44.3313,0.00998258,
2,1,0,1,0,6111,0.0117838,0.0115109,2.42457,5,0.000243914,11,2.79089e-05,-2.61537,0.151382,0.389743,36.5803,0.0115109,
2,1,0,1,0,6111.02,0.0132834,0.0129478,2.45926,5,0.000304964,11,3.18422e-05,-2.60919,0.176505,0.334269,32.1618,0.0129478,
2,1,0,1,0,6111.05,0.0147816,0.0144725,2.50005,5,0.000367207,11,3.6182e-05,-2.60205,0.214856,0.274603,26.8409,0.0144725,
2,1,0,1,0,6111.07,0.0162811,0.0160126,2.54823,5,0.000430555,11,4.08039e-05,-2.59376,0.284721,0.20722,20.5335,0.0160126,
2,1,0,1,0,6111.1,0.0177753,0.0174801,2.58242,5,0.000494463,11,4.5141e-05,-2.58797,0.305277,0.193267,19.3873,0.0174801,
2,1,0,1,0,6111.12,0.0192761,0.0190016,2.60109,5,0.000559266,11,4.94248e-05,-2.58485,0.307261,0.192019,19.4909,0.01900159,
2,1,0,1,0,6111.15,0.020777,0.0205138,2.62728,5,0.000624748,11,5.38953e-05,-2.58049,0.32304,0.18264,18.746,0.0205138,
2,1,0,1,0,6111.17,0.0222712,0.0220107,2.66472,5,0.000690714,11,5.86524e-05,-2.57435,0.37364,0.157906,16.3637,0.0220107,
2,1,0,1,0,6111.2,0.0237707,0.0235078,2.68847,5,0.000757698,11,6.31999e-05,-2.57049,0.353738,0.16679,17.468,0.0235078,
2,1,0,1,0,6111.22,0.0252703,0.0249901,2.70259,5,0.000825199,11,6.75381e-05,-2.56822,0.327297,0.180265,19.1186,0.0249901,
2,1,0,1,0,6111.25,0.0267645,0.0264451,2.73557,5,0.000893063,11,7.23425e-05,-2.56295,0.327635,0.180079,19.2465,0.0264451,
2,1,0,1,0,6111.27,0.0282653,0.027988,2.77139,5,0.000961987,11,7.75654e-05,-2.5573,0.362679,0.162678,17.5338,0.02798795,
2,1,0,1,0,6111.3,0.0297648,0.029529,2.79966,5,0.00103164,11,8.26711e-05,-2.55289,0.35561,0.165912,18.0327,0.029529,
2,1,0,1,0,6111.32,0.031259,0.0309294,2.81077,5,0.00110158,11,8.69353e-05,-2.55117,0.335978,0.175607,19.333,0.0309294,
2,1,0,1,0,6111.35,0.0327585,0.0324566,2.83859,5,0.00117235,11,9.21312e-05,-2.5469,0.345453,0.17079,18.9964,0.0324566,
2,1,0,1,0,6111.37,0.034258,0.0339369,2.87704,5,0.00124398,11,9.76379e-05,-2.54105,0.332301,0.17755,19.9194,0.0339369,
2,1,0,1,0,6111.4,0.0357576,0.0354889,2.9105,5,0.00131644,11,0.000103291,-2.53603,0.350118,0.168515,19.0969,0.03548893,
2,1,0,1,0,6111.42,0.0372518,0.036965,2.93747,5,0.00138937,11,0.000108583,-2.53203,0.310111,0.190254,21.8474,0.036965,
2,1,0,1,0,6111.45,0.0387526,0.0384739,2.96517,5,0.00146321,11,0.000114082,-2.52795,0.315056,0.187268,21.7797,0.0384739,
2,1,0,1,0,6111.47,0.0402534,0.0399238,3.00847,5,0.00153801,11,0.00012011,-2.52165,0.290528,0.203079,23.8094,0.0399238,
2,1,0,1,0,6111.5,0.0417476,0.0414816,3.05473,5,0.00161356,11,0.000126715,-2.51503,0.257357,0.229253,27.2289,0.0414816,
2,1,0,1,0,6111.52,0.0432472,0.0429655,3.08231,5,0.00169032,11,0.000132433,-2.51112,0.258883,0.227902,27.4611,0.0429655,
2,1,0,1,0,6111.55,0.0447467,0.0444667,3.11654,5,0.00176793,11,0.000138582,-2.50633,0.266641,0.221272,27.0309,0.0444667,
2,1,0,1,0,6111.57,0.0462463,0.0459557,3.1692,5,0.00184662,11,0.000145643,-2.49905,0.234723,0.25136,31.0448,0.0459557,
2,1,0,1,0,6111.6,0.0477391,0.0474372,3.21776,5,0.00192617,11,0.000152641,-2.49245,0.217179,0.271665,34.0513,0.0474372,
2,1,0,1,0,6111.62,0.0492399,0.0489491,3.25435,5,0.00200722,11,0.000159298,-2.48754,0.22667,0.26029,33.1234,0.0489491,
2,1,0,1,0,6111.65,0.0507408,0.0504572,3.29887,5,0.00208937,11,0.000166452,-2.48163,0.237454,0.248469,32.1148,0.0504572,
2,1,0,1,0,6111.67,0.052235,0.0519352,3.3591,5,0.00217241,11,0.000174456,-2.47378,0.218305,0.270264,35.4473,0.0519352,
2,1,0,1,0,6111.7,0.0537345,0.0534932,3.42889,5,0.00225726,11,0.000183422,-2.46485,0.202175,0.291826,38.8753,0.0534932,
2,1,0,1,0,6111.72,0.0552341,0.0549583,3.47453,5,0.00234361,11,0.000190954,-2.4591,0.206929,0.285122,38.6655,0.05495825,
2,1,0,1,0,6111.75,0.0567283,0.0564323,3.52435,5,0.00243091,11,0.000198887,-2.45292,0.22176,0.266053,36.7302,0.0564323,
2,1,0,1,0,6111.77,0.0582291,0.057948,3.59292,5,0.00251996,11,0.000208202,-2.44455,0.213924,0.275799,38.6499,0.057948,
2,1,0,1,0,6111.8,0.0597299,0.0594745,3.66068,5,0.00261063,11,0.000217717,-2.43644,0.188693,0.312677,44.551,0.0594745,
2,1,0,1,0,6111.82,0.0612228,0.0609586,3.71216,5,0.00270249,11,0.000226288,-2.43037,0.193726,0.304554,44.1532,0.0609586,
2,1,0,1,0,6111.85,0.0627223,0.0624361,3.77965,5,0.00279638,11,0.000235986,-2.42255,0.201631,0.292614,43.2097,0.0624361,
2,1,0,1,0,6111.87,0.0642218,0.0639494,3.84553,5,0.0028918,11,0.000245919,-2.41504,0.206223,0.286098,43.0272,0.0639494,
2,1,0,1,0,6111.9,0.0657214,0.0654111,3.9199,5,0.00298897,11,0.000256405,-2.40673,0.186104,0.317026,48.452,0.0654111,
2,1,0,1,0,6111.92,0.0672156,0.0669389,3.99237,5,0.0030876,11,0.000267245,-2.39877,0.180816,0.326298,50.8129,0.0669389,
2,1,0,1,0,6111.95,0.0687164,0.068441,4.05838,5,0.00318839,11,0.00027776,-2.39165,0.215668,0.273569,43.3375,0.068441,
2,1,0,1,0,6111.97,0.0702172,0.0699145,4.12667,5,0.00329083,11,0.000288514,-2.3844,0.219976,0.268211,43.1749,0.0699145,
2,1,0,1,0,6112,0.0717114,0.0714499,4.20164,5,0.00339451,11,0.000300207,-2.37658,0.19975,0.295369,48.3299,0.07144995,
2,1,0,1,0,6112.02,0.073211,0.0729483,4.26263,5,0.00350039,11,0.000310951,-2.37032,0.200856,0.293742,48.8987,0.0729483,
2,1,0,1,0,6112.05,0.0747105,0.0744567,4.33093,5,0.00360803,11,0.000322467,-2.36342,0.228629,0.258059,43.6673,0.0744567,
2,1,0,1,0,6112.07,0.0762101,0.0759112,4.39883,5,0.00371735,11,0.00033392,-2.35666,0.237519,0.248402,42.656,0.0759112,
2,1,0,1,0,6112.1,0.0777042,0.0774469,4.47606,5,0.00382787,11,0.000346658,-2.3491,0.220246,0.267882,46.721,0.0774469,
2,1,0,1,0,6112.12,0.0792037,0.0789214,4.53709,5,0.00394056,11,0.000358074,-2.34322,0.227197,0.259686,45.9562,0.0789214,
2,1,0,1,0,6112.15,0.0807046,0.0804278,4.60024,5,0.00405497,11,0.000369987,-2.33722,0.257605,0.229033,41.0973,0.0804278,
2,1,0,1,0,6112.17,0.0821988,0.0819059,4.66426,5,0.0041705,11,0.00038203,-2.33122,0.27689,0.213081,38.7677,0.0819059,
2,1,0,1,0,6112.2,0.0836983,0.0834154,4.72565,5,0.00428791,11,0.000394191,-2.32554,0.262129,0.22508,41.5209,0.0834154,
2,1,0,1,0,6112.22,0.0851979,0.084897,4.78448,5,0.00440696,11,0.000406188,-2.32017,0.254726,0.231622,43.2738,0.084897,
2,1,0,1,0,6112.25,0.0866921,0.0863992,4.84626,5,0.00452706,11,0.000418713,-2.31459,0.311529,0.189389,35.8378,0.08639916,
2,1,0,1,0,6112.27,0.0881929,0.0879131,4.91201,5,0.00464913,11,0.00043183,-2.30874,0.318831,0.185051,35.4064,0.0879131,
2,1,0,1,0,6112.3,0.0896937,0.0893914,4.96815,5,0.00477252,11,0.00044411,-2.30381,0.28756,0.205175,39.7219,0.0893914,
2,1,0,1,0,6112.32,0.0911879,0.0909144,5.01941,5,0.00489688,11,0.000456336,-2.29935,0.253844,0.232426,45.5467,0.0909144,
2,1,0,1,0,6112.35,0.0926861,0.0923511,5.08356,5,0.00502331,11,0.000469472,-2.29383,0.280635,0.210237,41.717,0.0923511,
2,1,0,1,0,6112.37,0.0941856,0.0938517,5.14546,5,0.0051513,11,0.00048291,-2.28858,0.322978,0.182675,36.656,0.0938517,
2,1,0,1,0,6112.4,0.0956852,0.0953896,5.1987,5,0.0052807,11,0.000495902,-2.2841,0.302641,0.19495,39.563,0.0953896,
2,1,0,1,0,6112.42,0.0971794,0.0968691,5.25362,5,0.005411,11,0.000508913,-2.27954,0.277798,0.212384,43.5995,0.0968691,
2,1,0,1,0,6112.45,0.0986802,0.0983717,5.31681,5,0.00554335,11,0.000523024,-2.27435,0.299475,0.197011,40.9347,0.0983717,
2,1,0,1,0,6112.47,0.100181,0.0998848,5.39272,5,0.00567733,11,0.000538651,-2.26819,0.328919,0.179376,37.6596,0.0998848,
2,1,0,1,0,6112.5,0.101675,0.101384,5.44562,5,0.00581233,11,0.0005521,-2.26395,0.28899,0.204159,43.3992,0.101384,
2,1,0,1,0,6112.52,0.103175,0.102912,5.51237,5,0.00594934,11,0.000567287,-2.25866,0.250073,0.235931,50.8931,0.102912,
2,1,0,1,0,6112.55,0.104674,0.104359,5.59185,5,0.00608822,11,0.00058356,-2.25244,0.232303,0.253979,55.5296,0.104359,
2,1,0,1,0,6112.57,0.106169,0.105917,5.68408,5,0.00622874,11,0.000602043,-2.24534,0.240527,0.245294,54.3352,0.105917,
2,1,0,1,0,6112.6,0.107668,0.107371,5.76915,5,0.006372,11,0.000619437,-2.23889,0.221232,0.266689,60.0095,0.1073706,
2,1,0,1,0,6112.62,0.109169,0.108892,5.85235,5,0.00651728,11,0.000637275,-2.23267,0.212683,0.277409,63.5082,0.108892,
2,1,0,1,0,6112.65,0.110663,0.110398,5.95094,5,0.00666439,11,0.00065697,-2.22541,0.194925,0.302681,70.4296,0.110398,
2,1,0,1,0,6112.67,0.112163,0.111834,6.06805,5,0.00681475,11,0.000678613,-2.21695,0.194456,0.30341,71.8454,0.111834,
2,1,0,1,0,6112.7,0.113662,0.113377,6.18679,5,0.00696796,11,0.000701437,-2.20853,0.182156,0.323899,78.0916,0.113377,
2,1,0,1,0,6112.72,0.115162,0.114851,6.29162,5,0.00712398,11,0.0007226,-2.20124,0.172533,0.341964,84.1749,0.114851,
2,1,0,1,0,6112.75,0.116656,0.116351,6.42187,5,0.00728243,11,0.000747194,-2.19234,0.16781,0.351588,88.2809,0.116351,
2,1,0,1,0,6112.77,0.118157,0.11785,6.57444,5,0.00744499,11,0.000774797,-2.18214,0.165831,0.355785,91.1874,0.11785,
2,1,0,1,0,6112.8,0.119657,0.119351,6.7145,5,0.00761109,11,0.00080138,-2.17299,0.164087,0.359565,94.1412,0.119351,
2,1,0,1,0,6112.82,0.121152,0.12085,6.84818,5,0.00778001,11,0.000827602,-2.16442,0.155727,0.378868,101.398,0.12085,
2,1,0,1,0,6112.85,0.122651,0.122392,6.99711,5,0.00795325,11,0.000856394,-2.15508,0.156952,0.37591,102.77,0.122392,
2,1,0,1,0,6112.87,0.124151,0.123885,7.15997,5,0.00813038,11,0.000887012,-2.14509,0.159786,0.369245,103.137,0.123885,
2,1,0,1,0,6112.9,0.125649,0.125337,7.3135,5,0.00831139,11,0.00091665,-2.13587,0.162875,0.362242,103.281,0.1253368,
2,1,0,1,0,6112.92,0.127143,0.126854,7.46002,5,0.00849556,11,0.000946337,-2.12726,0.164458,0.358755,104.497,0.126854,
2,1,0,1,0,6112.95,0.128644,0.128361,7.61347,5,0.00868415,11,0.000977274,-2.11842,0.17328,0.34049,101.274,0.128361,
2,1,0,1,0,6112.97,0.130145,0.129868,7.77676,5,0.00887667,11,0.00100995,-2.1092,0.178413,0.330693,100.244,0.129868,
2,1,0,1,0,6113,0.131639,0.131378,7.93322,5,0.00907233,11,0.00104225,-2.10055,0.185162,0.31864,98.4056,0.131378,
2,1,0,1,0,6113.02,0.133139,0.132866,8.07029,5,0.0092725,11,0.00107226,-2.09311,0.193638,0.304693,95.9702,0.132866,
2,1,0,1,0,6113.05,0.134638,0.134348,8.19984,5,0.00947605,11,0.00110163,-2.08619,0.205845,0.286623,91.8992,0.134348,
2,1,0,1,0,6113.07,0.136132,0.135852,8.35229,5,0.00968233,11,0.00113467,-2.07819,0.218341,0.270219,87.9581,0.135852,
2,1,0,1,0,6113.1,0.137633,0.137373,8.49033,5,0.00989289,11,0.00116634,-2.07108,0.229581,0.25699,84.9267,0.137373,
2,1,0,1,0,6113.12,0.139133,0.138897,8.60918,5,0.0101067,11,0.00119579,-2.06504,0.248317,0.2376,79.6543,0.1388973,
2,1,0,1,0,6113.15,0.140627,0.140341,8.70865,5,0.0103223,11,0.00122218,-2.06005,0.281788,0.209377,71.1657,0.140341,
2,1,0,1,0,6113.17,0.142126,0.141841,8.81403,5,0.0105415,11,0.00125019,-2.05483,0.303145,0.194626,66.8822,0.1418414,
2,1,0,1,0,6113.2,0.143626,0.143359,8.91853,5,0.0107633,11,0.00127855,-2.04971,0.338735,0.174177,60.4707,0.143359,
2,1,0,1,0,6113.22,0.145125,0.144839,8.98839,5,0.0109874,11,0.00130187,-2.04632,0.453691,0.130045,45.5695,0.144839,
2,1,0,1,0,6113.25,0.14662,0.146327,9.03807,5,0.0112121,11,0.00132251,-2.04392,0.708316,0.0832962,29.3811,0.1463268,
2,1,0,1,0,6113.27,0.14812,0.14782,9.0896,5,0.0114389,11,0.00134363,-2.04146,1.14448,0.0515519,18.2431,0.14782,
2,1,0,1,0,6113.3,0.149621,0.149317,9.11692,5,0.0116666,11,0.00136131,-2.04015,4.09558,0.0144058,5.1068,0.149317,
2,1,0,1,0,6113.32,0.151116,0.150806,9.10378,5,0.0118935,11,0.0013729,-2.04078,-1.58406,-0.037246,-13.1888,0.150806,
2,1,0,1,0,6113.35,0.152615,0.152323,9.05842,5,0.0121208,11,0.0013798,-2.04295,-0.554672,-0.106369,-37.5308,0.152323,
2,1,0,1,0,6113.37,0.154115,0.153811,8.99533,5,0.0123466,11,0.00138358,-2.04598,-0.349384,-0.168869,-59.1167,0.1538112,
2,1,0,1,0,6113.4,0.155614,0.15533,8.89641,5,0.0125704,11,0.00138188,-2.05079,-0.258419,-0.228311,-78.9167,0.15533,
2,1,0,1,0,6113.42,0.157107,0.156789,8.74915,5,0.0127904,11,0.00137177,-2.05803,-0.186298,-0.316696,-107.649,0.1567889,
2,1,0,1,0,6113.45,0.158608,0.158358,8.5622,5,0.013007,11,0.00135589,-2.06741,-0.14039,-0.420258,-139.876,0.158358,
2,1,0,1,0,6113.47,0.160109,0.159821,8.33296,5,0.0132183,11,0.00133178,-2.0792,-0.114197,-0.51665,-167.261,0.159821,
2,1,0,1,0,6113.5,0.161603,0.161358,8.07466,5,0.0134227,11,0.00130291,-2.09288,-0.097733,-0.603686,-189.149,0.161358,
2,1,0,1,0,6113.52,0.163102,0.162832,7.76806,5,0.0136208,11,0.00126489,-2.10969,-0.0860088,-0.685976,-207.116,0.162832,
2,1,0,1,0,6113.55,0.164602,0.164316,7.43197,5,0.013811,11,0.00122119,-2.1289,-0.0741926,-0.795228,-230.049,0.164316,
2,1,0,1,0,6113.57,0.166096,0.165878,7.08763,5,0.0139918,11,0.00117568,-2.1495,-0.0698006,-0.845265,-233.333,0.165878,
2,1,0,1,0,6113.6,0.167597,0.167318,6.73738,5,0.0141646,11,0.00112729,-2.17151,-0.0671027,-0.879249,-230.664,0.167318,
2,1,0,1,0,6113.62,0.169098,0.168843,6.38673,5,0.0143286,11,0.00107836,-2.19472,-0.0662131,-0.891063,-221.968,0.168843,
2,1,0,1,0,6113.65,0.170592,0.17033,6.04905,5,0.0144835,11,0.00103033,-2.21831,-0.0637292,-0.925792,-218.801,0.17033,
2,1,0,1,0,6113.67,0.17209,0.171811,5.72327,5,0.0146307,11,0.000983321,-2.24236,-0.064767,-0.910957,-204.216,0.171811,
2,1,0,1,0,6113.7,0.17359,0.173293,5.44323,5,0.0147703,11,0.000943272,-2.26414,-0.0687362,-0.858355,-182.747,0.173293,
2,1,0,1,0,6113.72,0.175089,0.174787,5.17702,5,0.014903,11,0.000904875,-2.28592,-0.0756195,-0.780222,-158.309,0.174787,
2,1,0,1,0,6113.75,0.176583,0.176302,4.94646,5,0.0150291,11,0.000872071,-2.30571,-0.0771155,-0.765086,-148.207,0.176302,
2,1,0,1,0,6113.77,0.178084,0.177809,4.7407,5,0.0151504,11,0.00084294,-2.32416,-0.0838631,-0.703527,-130.639,0.177809,
2,1,0,1,0,6113.8,0.179585,0.179313,4.56403,5,0.0152666,11,0.00081839,-2.34065,-0.0935698,-0.630545,-112.674,0.179313,
2,1,0,1,0,6113.82,0.181079,0.18081,4.40229,5,0.0153783,11,0.000795978,-2.35632,-0.103248,-0.571439,-98.4731,0.18081,
2,1,0,1,0,6113.85,0.182579,0.182305,4.25647,5,0.0154866,11,0.000775978,-2.37095,-0.103836,-0.568203,-94.6028,0.182305,
2,1,0,1,0,6113.87,0.184078,0.183807,4.1269,5,0.0155916,11,0.000758554,-2.38438,-0.10917,-0.540442,-87.1422,0.183807,
2,1,0,1,0,6113.9,0.185578,0.185333,4.00594,5,0.0156931,11,0.000742432,-2.3973,-0.120824,-0.488314,-76.4492,0.185333,
2,1,0,1,0,6113.92,0.187072,0.186807,3.89522,5,0.0157915,11,0.000727654,-2.40947,-0.138654,-0.425519,-64.7848,0.186807,
2,1,0,1,0,6113.95,0.188573,0.188274,3.79349,5,0.0158877,11,0.000714215,-2.42096,-0.133741,-0.441152,-65.4274,0.1882737,
2,1,0,1,0,6113.97,0.190072,0.189796,3.70619,5,0.0159816,11,0.00070342,-2.43107,-0.138504,-0.425982,-61.6046,0.189796,
2,1,0,1,0,6114,0.191567,0.191269,3.6141,5,0.0160727,11,0.000691265,-2.442,-0.153711,-0.383837,-54.2228,0.191269,
2,1,0,1,0,6114.02,0.193066,0.1928,3.53204,5,0.0161621,11,0.000680978,-2.45197,-0.180977,-0.326008,-45.0555,0.1928,
2,1,0,1,0,6114.05,0.194566,0.19426,3.46754,5,0.0162498,11,0.000673604,-2.45998,-0.172935,-0.341169,-46.2157,0.19426,
2,1,0,1,0,6114.07,0.19606,0.195763,3.39841,5,0.0163354,11,0.000665285,-2.46872,-0.162595,-0.362864,-48.1328,0.195763,
2,1,0,1,0,6114.1,0.197561,0.197291,3.33027,5,0.0164196,11,0.000657031,-2.47752,-0.19173,-0.307724,-40.0434,0.197291,
2,1,0,1,0,6114.12,0.199062,0.198795,3.27716,5,0.0165022,11,0.000651482,-2.4845,-0.214295,-0.275322,-35.2555,0.198795,
2,1,0,1,0,6114.15,0.200556,0.200277,3.22081,5,0.0165832,11,0.000645056,-2.49203,-0.221276,-0.266636,-33.5916,0.200277,
2,1,0,1,0,6114.17,0.202055,0.201827,3.17851,5,0.0166633,11,0.000641508,-2.49778,-0.21351,-0.276334,-34.2318,0.201827,
2,1,0,1,0,6114.2,0.203553,0.203264,3.13115,5,0.0167422,11,0.000636448,-2.5043,-0.250453,-0.235573,-28.7928,0.203264,
2,1,0,1,0,6114.22,0.205053,0.204774,3.08519,5,0.01682,11,0.000631767,-2.51072,-0.341711,-0.17266,-20.8929,0.204774,
2,1,0,1,0,6114.25,0.206547,0.206249,3.04409,5,0.0168964,11,0.000627842,-2.51654,-0.316905,-0.186176,-22.198,0.2062494,
2,1,0,1,0,6114.27,0.208048,0.207762,3.02239,5,0.0169726,11,0.000627939,-2.51965,-0.27162,-0.217215,-25.5146,0.207762,
2,1,0,1,0,6114.3,0.209549,0.20926,2.99085,5,0.0170478,11,0.000625867,-2.5242,-0.282283,-0.20901,-24.3358,0.2092602,
2,1,0,1,0,6114.32,0.211043,0.210741,2.94766,5,0.0171216,11,0.000621194,-2.53052,-0.365496,-0.161425,-18.621,0.210741,
2,1,0,1,0,6114.34,0.212543,0.21229,2.91859,5,0.0171951,11,0.000619588,-2.53483,-0.367179,-0.160684,-18.3275,0.21229,
2,1,0,1,0,6114.37,0.214042,0.213767,2.89694,5,0.0172679,11,0.00061927,-2.53806,-0.351582,-0.167813,-18.9654,0.213767,
2,1,0,1,0,6114.39,0.215536,0.215267,2.8783,5,0.0173398,11,0.000619602,-2.54086,-0.394301,-0.149632,-16.7583,0.215267,
2,1,0,1,0,6114.42,0.217036,0.216737,2.8442,5,0.0174113,11,0.000616444,-2.54604,-0.480473,-0.122796,-13.6649,0.216737,
2,1,0,1,0,6114.44,0.218537,0.218249,2.82313,5,0.0174823,11,0.000616146,-2.54927,-0.591814,-0.0996934,-11.0053,0.218249,
2,1,0,1,0,6114.47,0.220031,0.219796,2.81471,5,0.0175526,11,0.000618661,-2.55057,-0.457176,-0.129053,-14.1311,0.219796,
2,1,0,1,0,6114.49,0.22153,0.221265,2.79728,5,0.0176227,11,0.000618939,-2.55326,-0.466256,-0.12654,-13.7568,0.2212645,
2,1,0,1,0,6114.52,0.22303,0.222771,2.76042,5,0.0176924,11,0.000614941,-2.55903,-0.630194,-0.093622,-10.1349,0.222771,
2,1,0,1,0,6114.54,0.224529,0.224239,2.74618,5,0.0177614,11,0.000615802,-2.56127,-0.521556,-0.113123,-12.191,0.224239,
2,1,0,1,0,6114.57,0.226024,0.22574,2.74136,5,0.0178299,11,0.000618834,-2.56203,-0.545765,-0.108105,-11.5445,0.22574,
2,1,0,1,0,6114.59,0.227525,0.227265,2.72957,5,0.0178983,11,0.000620338,-2.56391,-0.551687,-0.106945,-11.3406,0.227265,
2,1,0,1,0,6114.62,0.229025,0.228722,2.70978,5,0.0179663,11,0.000619786,-2.56707,-0.831425,-0.0709625,-7.50812,0.228722,
2,1,0,1,0,6114.64,0.23052,0.230227,2.69372,5,0.0180336,11,0.000620166,-2.56965,-0.782229,-0.0754255,-7.95179,0.230227,
2,1,0,1,0,6114.67,0.232019,0.231733,2.68692,5,0.0181009,11,0.000622649,-2.57074,-0.783273,-0.0753249,-7.88763,0.231733,
2,1,0,1,0,6114.69,0.233519,0.233203,2.6778,5,0.0181681,11,0.000624471,-2.57222,-0.829333,-0.0711415,-7.40847,0.233203,
2,1,0,1,0,6114.72,0.235018,0.234743,2.65905,5,0.0182349,11,0.000624195,-2.57527,-1.04713,-0.0563446,-5.85403,0.234743,
2,1,0,1,0,6114.74,0.236511,0.236204,2.63966,5,0.018301,11,0.000623498,-2.57845,-0.838381,-0.0703738,-7.28701,0.236204,
2,1,0,1,0,6114.77,0.238012,0.237714,2.63934,5,0.0183671,11,0.000627409,-2.5785,-0.786781,-0.0749891,-7.70673,0.237714,
2,1,0,1,0,6114.79,0.239513,0.239224,2.63644,5,0.0184331,11,0.000630701,-2.57898,-1.13951,-0.0517766,-5.30196,0.239224,
2,1,0,1,0,6114.82,0.241007,0.240751,2.61554,5,0.0184985,11,0.000629693,-2.58244,-0.984458,-0.0599315,-6.12683,0.240751,
2,1,0,1,0,6114.84,0.242506,0.242211,2.59651,5,0.0185639,11,0.000628902,-2.58561,-0.812764,-0.0725918,-7.40068,0.242211,
2,1,0,1,0,6114.87,0.244006,0.243714,2.60082,5,0.0186291,11,0.000633855,-2.58489,-0.992983,-0.0594169,-6.02698,0.243714,
2,1,0,1,0,6114.89,0.2455,0.24524,2.60315,5,0.0186938,11,0.000638396,-2.5845,-1.17984,-0.0500068,-5.05541,0.24524,
2,1,0,1,0,6114.92,0.247001,0.2467,2.58497,5,0.0187587,11,0.000637713,-2.58754,-1.07339,-0.054966,-5.5366,0.2467,
2,1,0,1,0,6114.94,0.248502,0.248232,2.56652,5,0.0188233,11,0.000637092,-2.59066,-0.88633,-0.0665666,-6.69286,0.248232,
2,1,0,1,0,6114.97,0.249995,0.249715,2.56522,5,0.0188873,11,0.000640574,-2.59087,-0.944788,-0.0624479,-6.25403,0.249715,
2,1,0,1,0,6114.99,0.251494,0.251213,2.56144,5,0.0189514,11,0.000643467,-2.59152,-1.92242,-0.0306905,-3.06252,0.251213,
2,1,0,1,0,6115.02,0.252994,0.252721,2.54955,5,0.0190154,11,0.000644323,-2.59354,-1.35754,-0.0434609,-4.326,0.252721,
2,1,0,1,0,6115.04,0.254493,0.254222,2.53614,5,0.0190792,11,0.000644742,-2.59583,-0.845295,-0.0697982,-6.93803,0.254222,
2,1,0,1,0,6115.07,0.255988,0.25573,2.53266,5,0.0191424,11,0.000647676,-2.59642,-0.855232,-0.0689872,-6.82972,0.25573,
2,1,0,1,0,6115.09,0.257488,0.257228,2.53356,5,0.0192058,11,0.000651702,-2.59627,-2.82705,-0.0208698,-2.05441,0.2572279,
2,1,0,1,0,6115.12,0.258989,0.258685,2.52629,5,0.0192691,11,0.000653511,-2.59752,-3.33455,-0.0176935,-1.74076,0.258685,
2,1,0,1,0,6115.14,0.260483,0.260201,2.51311,5,0.019332,11,0.000653915,-2.59979,-0.819995,-0.0719516,-7.07221,0.260201,
2,1,0,1,0,6115.17,0.261983,0.261721,2.5058,5,0.0193948,11,0.000655821,-2.60105,-0.974323,-0.0605549,-5.93071,0.261721,
2,1,0,1,0,6115.19,0.263482,0.263189,2.50411,5,0.0194575,11,0.000659054,-2.60135,-4.03485,-0.0146226,-1.42579,0.263189,
2,1,0,1,0,6115.22,0.264982,0.264691,2.4912,5,0.0195201,11,0.000659398,-2.60359,-4.38921,-0.013442,-1.30925,0.264691,
2,1,0,1,0,6115.24,0.266476,0.266172,2.48067,5,0.0195822,11,0.000660284,-2.60543,-0.976419,-0.0604249,-5.87643,0.266172,
2,1,0,1,0,6115.27,0.267976,0.267707,2.47818,5,0.0196444,11,0.000663425,-2.60587,-1.0695,-0.055166,-5.33774,0.267707,
2,1,0,1,0,6115.29,0.269477,0.269202,2.48186,5,0.0197064,11,0.000668122,-2.60522,-2.71909,-0.0216984,-2.09331,0.269202,
2,1,0,1,0,6115.32,0.270971,0.270714,2.47057,5,0.019768,11,0.000668818,-2.6072,-5.30235,-0.0111271,-1.07136,0.270714,
2,1,0,1,0,6115.34,0.27247,0.272223,2.45659,5,0.0198299,11,0.000668739,-2.60967,-0.887812,-0.0664555,-6.38526,0.272223,
2,1,0,1,0,6115.37,0.27397,0.273666,2.45146,5,0.0198915,11,0.00067088,-2.61058,-0.713446,-0.0826972,-7.93402,0.273666,
2,1,0,1,0,6115.39,0.275464,0.27517,2.45318,5,0.0199526,11,0.00067504,-2.61027,-1.16971,-0.0504397,-4.82483,0.2751697,
2,1,0,1,0,6115.42,0.276965,0.276672,2.44468,5,0.0200139,11,0.000676373,-2.61178,-3.85636,-0.0152994,-1.46141,0.276672,
2,1,0,1,0,6115.44,0.278466,0.278211,2.43589,5,0.020075,11,0.000677689,-2.61334,-0.965995,-0.0610769,-5.8122,0.278211,
2,1,0,1,0,6115.47,0.27996,0.279679,2.43507,5,0.0201358,11,0.000681037,-2.61349,-0.835511,-0.0706155,-6.69645,0.279679,
2,1,0,1,0,6115.49,0.281458,0.281196,2.43068,5,0.0201966,11,0.000683497,-2.61427,-2.21015,-0.026695,-2.52696,0.281196,
2,1,0,1,0,6115.52,0.282958,0.282698,2.41594,5,0.0202572,11,0.000682981,-2.61691,17.895,0.00329701,0.311398,0.282698,
2,1,0,1,0,6115.54,0.284457,0.284177,2.41113,5,0.0203178,11,0.000685187,-2.61778,-1.4771,-0.0399432,-3.76726,0.2841773,
2,1,0,1,0,6115.57,0.285951,0.285673,2.41159,5,0.020378,11,0.000688926,-2.6177,-0.70296,-0.0839308,-7.88777,0.285673,
2,1,0,1,0,6115.59,0.287452,0.287175,2.40255,5,0.0204382,11,0.000689952,-2.61933,-1.73482,-0.0340093,-3.18919,0.287175,
2,1,0,1,0,6115.62,0.288953,0.28862,2.3954,5,0.0204983,11,0.000691359,-2.62062,4.88746,0.0120717,1.1292,0.28862,
2,1,0,1,0,6115.64,0.290447,0.290166,2.38877,5,0.020558,11,0.00069314,-2.62183,-1.26173,-0.0467614,-4.36982,0.290166,
2,1,0,1,0,6115.67,0.291947,0.291703,2.38881,5,0.0206179,11,0.000696823,-2.62182,-0.693976,-0.0850173,-7.90979,0.291703,
2,1,0,1,0,6115.69,0.293446,0.293143,2.37932,5,0.0206776,11,0.000697482,-2.62355,-1.43624,-0.0410796,-3.81632,0.293143,
2,1,0,1,0,6115.72,0.29494,0.294658,2.37517,5,0.0207368,11,0.000699863,-2.6243,-49.427,-0.00119368,-0.110736,0.294658,
2,1,0,1,0,6115.74,0.29644,0.296205,2.36984,5,0.0207962,11,0.000701958,-2.62528,-1.38027,-0.0427453,-3.95733,0.296205,
2,1,0,1,0,6115.77,0.297941,0.297687,2.36954,5,0.0208556,11,0.000705381,-2.62534,-0.808871,-0.0729411,-6.71634,0.297687,
2,1,0,1,0,6115.79,0.29944,0.29916,2.36133,5,0.0209148,11,0.000706416,-2.62684,-0.00352244,-16.7497,-897.564,0.29916,
2,1,0,1,0,6115.81,0.299736,0.299465,1.65046,5,0.0209443,11,0.000494256,-2.78239,0.00158086,37.3216,2309.31,0.2994647,
2,0,0,1,0,6115.83,0.298238,0.29796,-0.188433,5,0.0209569,11,-5.61454e-05,-3.72484,0.00703317,8.38882,832.92,0.29796,
2,0,0,1,0,6115.86,0.296744,0.296413,-0.62744,5,0.0209455,11,-0.000185981,-3.20243,-0.00518584,-11.3771,237.312,0.296413,
2,0,0,1,0,6115.88,0.295243,0.294895,-0.794715,5,0.0209274,11,-0.000234357,-3.09979,-0.0187007,-3.15496,85.4017,0.2948947,
2,0,0,1,0,6115.91,0.293742,0.293429,-0.872683,5,0.0209065,11,-0.00025607,-3.05914,-0.0374941,-1.57358,51.6388,0.293429,
2,0,0,1,0,6115.93,0.292248,0.291946,-0.924067,5,0.0208841,11,-0.000269778,-3.0343,-0.0522478,-1.12923,40.6303,0.291946,
2,0,0,1,0,6115.96,0.290748,0.290481,-0.985438,5,0.0208601,11,-0.000286251,-3.00637,-0.0666081,-0.885778,33.835,0.290481,
2,0,0,1,0,6115.98,0.289249,0.288939,-1.04096,5,0.0208347,11,-0.000300775,-2.98256,-0.0780349,-0.756072,30.3739,0.288939,
2,0,0,1,0,6116.01,0.287754,0.287471,-1.07833,5,0.0208083,11,-0.000309988,-2.96725,-0.0861698,-0.684694,28.62,0.287471,
2,0,0,1,0,6116.03,0.286254,0.285951,-1.10737,5,0.0207808,11,-0.000316653,-2.95571,-0.0977756,-0.603423,26.2853,0.285951,
2,0,0,1,0,6116.06,0.284754,0.284453,-1.15111,5,0.0207524,11,-0.000327435,-2.93888,-0.113669,-0.519052,23.2736,0.284453,
2,0,0,1,0,6116.08,0.28326,0.282972,-1.19449,5,0.0207231,11,-0.000338007,-2.92282,-0.119495,-0.493743,22.7292,0.282972,
2,0,0,1,0,6116.11,0.28176,0.281458,-1.21769,5,0.020693,11,-0.000342729,-2.91446,-0.132169,-0.446397,21.1089,0.281458,
2,0,0,1,0,6116.13,0.280261,0.27993,-1.23628,5,0.0206621,11,-0.000346072,-2.90788,-0.155271,-0.37998,18.4632,0.27993,
2,0,0,1,0,6116.16,0.278761,0.27847,-1.27095,5,0.0206305,11,-0.000353921,-2.89587,-0.187025,-0.315466,15.6874,0.27847,
2,0,0,1,0,6116.18,0.277267,0.276931,-1.30252,5,0.0205984,11,-0.000360709,-2.88521,-0.184299,-0.320132,16.1888,0.276931,
2,0,0,1,0,6116.21,0.275766,0.275447,-1.32512,5,0.0205655,11,-0.000365,-2.87774,-0.201274,-0.293132,15.0691,0.275447,
2,0,0,1,0,6116.23,0.274265,0.273931,-1.34787,5,0.020532,11,-0.000369224,-2.87035,-0.200404,-0.294405,15.5006,0.273931,
2,0,0,1,0,6116.26,0.272771,0.2725,-1.36926,5,0.0204982,11,-0.000373123,-2.86351,-0.226912,-0.260013,13.9316,0.2724995,
2,0,0,1,0,6116.28,0.271272,0.270943,-1.39986,5,0.0204635,11,-0.000379283,-2.85391,-0.202935,-0.290733,15.7647,0.270943,
2,0,0,1,0,6116.31,0.269772,0.269489,-1.4213,5,0.0204283,11,-0.000383025,-2.84731,-0.183395,-0.321709,17.7335,0.269489,
2,0,0,1,0,6116.33,0.268273,0.267948,-1.43562,5,0.0203925,11,-0.000384672,-2.84296,-0.254984,-0.231387,12.9927,0.267948,
2,0,0,1,0,6116.36,0.26678,0.266499,-1.4475,5,0.0203565,11,-0.000385757,-2.83938,-0.322778,-0.182788,10.3789,0.266499,
2,0,0,1,0,6116.38,0.265279,0.264965,-1.47856,5,0.0203198,11,-0.000391766,-2.83016,-0.230498,-0.255968,14.6605,0.264965,
2,0,0,1,0,6116.41,0.263778,0.263454,-1.49788,5,0.0202826,11,-0.000394623,-2.82452,-0.216089,-0.273035,15.8753,0.263454,
2,0,0,1,0,6116.43,0.262284,0.261972,-1.50653,5,0.0202451,11,-0.000394668,-2.82202,-0.284595,-0.207312,12.2381,0.261972,
2,0,0,1,0,6116.46,0.260784,0.260527,-1.51862,5,0.020207,11,-0.000395643,-2.81855,-0.36214,-0.16292,9.72678,0.2605271,
2,0,0,1,0,6116.48,0.259285,0.259002,-1.54957,5,0.0201685,11,-0.000401341,-2.80979,-0.278145,-0.21212,12.7882,0.259002,
2,0,0,1,0,6116.51,0.257791,0.257498,-1.57178,5,0.0201297,11,-0.00040473,-2.80361,-0.237639,-0.248276,15.1608,0.257498,
2,0,0,1,0,6116.53,0.25629,0.256045,-1.57953,5,0.0200902,11,-0.000404431,-2.80147,-0.347081,-0.169989,10.486,0.256045,
2,0,0,1,0,6116.56,0.254789,0.254477,-1.59622,5,0.0200503,11,-0.000406202,-2.79691,-0.428473,-0.137698,8.59716,0.254477,
2,0,0,1,0,6116.58,0.253296,0.252986,-1.61635,5,0.0200103,11,-0.000408914,-2.79146,-0.346204,-0.17042,10.731,0.252986,
2,0,0,1,0,6116.61,0.251797,0.251459,-1.63399,5,0.0199697,11,-0.00041088,-2.78675,-0.265548,-0.222182,14.1356,0.251459,
2,0,0,1,0,6116.63,0.250297,0.249979,-1.63921,5,0.0199286,11,-0.000409769,-2.78537,-0.384929,-0.153275,9.85639,0.249979,
2,0,0,1,0,6116.66,0.248797,0.248504,-1.65823,5,0.0198871,11,-0.000412077,-2.78036,-0.5106,-0.11555,7.48923,0.248504,
2,0,0,1,0,6116.68,0.247303,0.246984,-1.67937,5,0.0198455,11,-0.000414779,-2.77485,-0.397548,-0.14841,9.71887,0.246984,
2,0,0,1,0,6116.71,0.245802,0.245521,-1.69924,5,0.0198033,11,-0.0004172,-2.76974,-0.283334,-0.208235,13.7524,0.245521,
2,0,0,1,0,6116.73,0.244302,0.244022,-1.71065,5,0.0197605,11,-0.000417435,-2.76684,-0.347662,-0.169705,11.3151,0.244022,
2,0,0,1,0,6116.76,0.242807,0.242534,-1.72516,5,0.0197176,11,-0.000418411,-2.76317,-0.774859,-0.0761429,5.13202,0.242534,
2,0,0,1,0,6116.78,0.241308,0.241017,-1.74107,5,0.0196743,11,-0.000419629,-2.75918,-0.40763,-0.144739,9.83511,0.241017,
2,0,0,1,0,6116.81,0.239808,0.239495,-1.75322,5,0.0196306,11,-0.000419888,-2.75616,-0.259717,-0.22717,15.5363,0.239495,
2,0,0,1,0,6116.83,0.238309,0.237995,-1.76721,5,0.0195864,11,-0.000420588,-2.75271,-0.353536,-0.166885,11.5672,0.237995,
2,0,0,1,0,6116.86,0.236815,0.236532,-1.78768,5,0.019542,11,-0.000422845,-2.74771,-0.586552,-0.100588,7.01369,0.236532,
2,0,0,1,0,6116.88,0.235315,0.235034,-1.79781,5,0.019497,11,-0.000422548,-2.74526,-0.398071,-0.148215,10.4001,0.235034,
2,0,0,1,0,6116.91,0.233814,0.233508,-1.81847,5,0.0194517,11,-0.000424628,-2.74029,-0.315718,-0.186875,13.2484,0.233508,
2,0,0,1,0,6116.93,0.23232,0.231987,-1.8314,5,0.0194062,11,-0.000424861,-2.73722,-0.383096,-0.154008,11.0319,0.231987,
2,0,0,1,0,6116.96,0.230821,0.230536,-1.84596,5,0.01936,11,-0.000425561,-2.73378,-0.674301,-0.087498,6.30413,0.230536,
2,0,0,1,0,6116.98,0.229321,0.228983,-1.86948,5,0.0193135,11,-0.00042808,-2.72828,-0.528326,-0.111673,8.12567,0.228983,
2,0,0,1,0,6117.01,0.227827,0.227519,-1.87831,5,0.0192669,11,-0.000427351,-2.72623,-0.374681,-0.157467,11.5567,0.227519,
2,0,0,1,0,6117.03,0.226326,0.226044,-1.89468,5,0.0192196,11,-0.000428281,-2.72246,-0.368466,-0.160124,11.8618,0.226044,
2,0,0,1,0,6117.06,0.224825,0.224534,-1.91672,5,0.0191719,11,-0.000430369,-2.71744,-0.533621,-0.110565,8.25557,0.224534,
2,0,0,1,0,6117.08,0.223331,0.223005,-1.93648,5,0.0191239,11,-0.000431843,-2.71299,-0.436173,-0.135267,10.1682,0.223005,
2,0,0,1,0,6117.11,0.221831,0.221524,-1.94722,5,0.0190754,11,-0.000431356,-2.71058,-0.326169,-0.180888,13.7439,0.221524,
2,0,0,1,0,6117.13,0.220333,0.220053,-1.95699,5,0.0190265,11,-0.000430642,-2.70841,-0.303088,-0.194663,14.9349,0.220053,
2,0,0,1,0,6117.16,0.218834,0.218542,-1.98407,5,0.018977,11,-0.000433603,-2.70244,-0.418486,-0.140985,10.909,0.218542,
2,0,0,1,0,6117.18,0.217339,0.217018,-2.00498,5,0.0189272,11,-0.000435117,-2.69789,-0.527096,-0.111934,8.73395,0.217018,
2,0,0,1,0,6117.21,0.215839,0.215542,-2.01464,5,0.0188769,11,-0.00043424,-2.6958,-0.359696,-0.164027,12.9194,0.215542,
2,0,0,1,0,6117.23,0.214338,0.214023,-2.03348,5,0.0188262,11,-0.000435211,-2.69176,-0.317414,-0.185877,14.7762,0.214023,
2,0,0,1,0,6117.26,0.212844,0.21249,-2.0576,5,0.0187752,11,-0.00043722,-2.68664,-0.36937,-0.159731,12.8134,0.21249,
2,0,0,1,0,6117.28,0.211344,0.21105,-2.08217,5,0.0187234,11,-0.000439442,-2.68148,-0.417245,-0.141404,11.4486,0.21105,
2,0,0,1,0,6117.31,0.209845,0.209483,-2.09171,5,0.0186711,11,-0.000438178,-2.6795,-0.333843,-0.17673,14.4623,0.209483,
2,0,0,1,0,6117.33,0.20835,0.208052,-2.11164,5,0.0186186,11,-0.00043933,-2.67538,-0.265951,-0.221846,18.4017,0.208052,
2,0,0,1,0,6117.36,0.206851,0.206494,-2.14953,5,0.0185653,11,-0.000443866,-2.66766,-0.370119,-0.159408,13.3259,0.206494,
2,0,0,1,0,6117.38,0.20535,0.204985,-2.17665,5,0.0185112,11,-0.00044618,-2.66221,-0.3487,-0.1692,14.2502,0.204985,
2,0,0,1,0,6117.4,0.203856,0.203498,-2.18938,5,0.0184568,11,-0.000445533,-2.65968,-0.311267,-0.189548,16.2026,0.2034978,
2,0,0,1,0,6117.43,0.202356,0.202024,-2.20334,5,0.0184018,11,-0.000445129,-2.65692,-0.317356,-0.185911,16.0902,0.202024,
2,0,0,1,0,6117.45,0.200857,0.20054,-2.23651,5,0.0183461,11,-0.000448508,-2.65043,-0.28702,-0.205561,17.9683,0.2005395,
2,0,0,1,0,6117.48,0.199357,0.199017,-2.27186,5,0.0182897,11,-0.000452139,-2.64362,-0.308888,-0.191007,16.8787,0.199017,
2,0,0,1,0,6117.5,0.197863,0.197519,-2.29529,5,0.0182329,11,-0.000453364,-2.63916,-0.256576,-0.229951,20.5701,0.1975195,
2,0,0,1,0,6117.53,0.196362,0.196092,-2.31715,5,0.0181751,11,-0.000454375,-2.63505,-0.253108,-0.233102,21.1619,0.196092,
2,0,0,1,0,6117.55,0.194861,0.194539,-2.35371,5,0.0181166,11,-0.000457888,-2.62825,-0.240487,-0.245336,22.5499,0.194539,
2,0,0,1,0,6117.58,0.193367,0.19308,-2.40013,5,0.0180574,11,-0.000463416,-2.61977,-0.246402,-0.239446,22.2942,0.19308,
2,0,0,1,0,6117.6,0.191868,0.191559,-2.42753,5,0.0179971,11,-0.000465016,-2.61484,-0.223574,-0.263895,24.9967,0.191559,
2,0,0,1,0,6117.63,0.190368,0.190083,-2.44505,5,0.017936,11,-0.000464763,-2.61171,-0.22378,-0.263652,25.3815,0.190083,
2,0,0,1,0,6117.65,0.18887,0.188553,-2.49285,5,0.0178739,11,-0.000470034,-2.6033,-0.215329,-0.273999,26.7658,0.188553,
2,0,0,1,0,6117.68,0.187376,0.187091,-2.54849,5,0.0178111,11,-0.0004768,-2.59372,-0.206467,-0.28576,28.3513,0.187091,
2,0,0,1,0,6117.7,0.185875,0.185528,-2.58624,5,0.0177468,11,-0.000479821,-2.58733,-0.195027,-0.302522,30.4795,0.1855284,
2,0,0,1,0,6117.73,0.184374,0.184021,-2.623,5,0.0176815,11,-0.000482686,-2.5812,-0.190549,-0.309632,31.8818,0.184021,
2,0,0,1,0,6117.75,0.18288,0.182574,-2.68026,5,0.0176153,11,-0.000489345,-2.57182,-0.183876,-0.320868,33.6744,0.182574,
2,0,0,1,0,6117.78,0.18138,0.181121,-2.74375,5,0.0175474,11,-0.000496952,-2.56165,-0.166233,-0.354924,37.9409,0.181121,
2,0,0,1,0,6117.8,0.179881,0.179546,-2.80122,5,0.017478,11,-0.000502947,-2.55265,-0.161982,-0.364238,39.8033,0.179546,
2,0,0,1,0,6117.83,0.178387,0.178076,-2.85981,5,0.0174075,11,-0.000509262,-2.54366,-0.160044,-0.368649,41.2715,0.178076,
2,0,0,1,0,6117.85,0.176886,0.176591,-2.92408,5,0.0173352,11,-0.000516365,-2.53401,-0.147673,-0.399531,45.7071,0.1765905,
2,0,0,1,0,6117.88,0.175385,0.175048,-3.00968,5,0.017261,11,-0.00052684,-2.52148,-0.132783,-0.444333,51.9583,0.175048,
2,0,0,1,0,6117.9,0.173892,0.1736,-3.08445,5,0.0171852,11,-0.000535461,-2.51082,-0.123259,-0.478666,57.5392,0.1736,
2,0,0,1,0,6117.93,0.172392,0.172117,-3.16016,5,0.0171071,11,-0.000543918,-2.50029,-0.12477,-0.472869,58.4892,0.172117,
2,0,0,1,0,6117.95,0.170893,0.17058,-3.24504,5,0.0170269,11,-0.000553539,-2.48878,-0.121573,-0.485307,61.7566,0.17058,
2,0,0,1,0,6117.98,0.169393,0.169076,-3.35771,5,0.0169443,11,-0.000567709,-2.47396,-0.107426,-0.549217,71.9562,0.169076,
2,0,0,1,0,6118,0.167899,0.16756,-3.46877,5,0.0168593,11,-0.000581228,-2.45982,-0.099667,-0.591971,80.1303,0.16756,
2,0,0,1,0,6118.03,0.166398,0.166047,-3.57573,5,0.016771,11,-0.000593741,-2.44663,-0.101699,-0.580145,81.2801,0.166047,
2,0,0,1,0,6118.05,0.164898,0.164609,-3.69944,5,0.0166798,11,-0.000608962,-2.43186,-0.0997966,-0.591203,85.7595,0.164609,
2,0,0,1,0,6118.08,0.163403,0.16306,-3.85205,5,0.0165857,11,-0.000628116,-2.41431,-0.0921288,-0.640408,96.2951,0.16306,
2,0,0,1,0,6118.1,0.161904,0.1616,-3.99884,5,0.0164876,11,-0.000646213,-2.39807,-0.0866325,-0.681038,106.485,0.1616,
2,0,0,1,0,6118.13,0.160404,0.160084,-4.15632,5,0.0163855,11,-0.000665359,-2.38129,-0.0865329,-0.681821,110.779,0.160084,
2,0,0,1,0,6118.15,0.158905,0.158629,-4.32983,5,0.0162792,11,-0.000686836,-2.36353,-0.0848543,-0.69531,117.9,0.158629,
2,0,0,1,0,6118.18,0.157411,0.157123,-4.52552,5,0.016169,11,-0.000711065,-2.34433,-0.0799918,-0.737575,130.437,0.157123,
2,0,0,1,0,6118.2,0.155911,0.155617,-4.7221,5,0.0160533,11,-0.00073484,-2.32586,-0.0771576,-0.764669,141.111,0.155617,
2,0,0,1,0,6118.23,0.15441,0.154092,-4.9348,5,0.0159323,11,-0.000760413,-2.30673,-0.0776124,-0.760188,146.623,0.154092,
2,0,0,1,0,6118.25,0.152916,0.152628,-5.16083,5,0.0158065,11,-0.000787686,-2.28728,-0.0781108,-0.755338,152.427,0.152628,
2,0,0,1,0,6118.28,0.151417,0.15113,-5.40379,5,0.0156744,11,-0.000816675,-2.2673,-0.0784631,-0.751946,158.365,0.15113,
2,0,0,1,0,6118.3,0.149917,0.149587,-5.64465,5,0.0155362,11,-0.000844364,-2.24836,-0.0779134,-0.757251,166.701,0.149587,
2,0,0,1,0,6118.33,0.148423,0.148114,-5.88152,5,0.0153926,11,-0.000871136,-2.23051,-0.0806001,-0.732009,168.487,0.148114,
2,0,0,1,0,6118.35,0.146922,0.146651,-6.15082,5,0.015242,11,-0.000902022,-2.21107,-0.0818439,-0.720885,172.833,0.146651,
2,0,0,1,0,6118.38,0.145421,0.145088,-6.42037,5,0.0150848,11,-0.000931517,-2.19244,-0.0854221,-0.690688,172.643,0.145088,
2,0,0,1,0,6118.4,0.143927,0.143647,-6.67131,5,0.0149218,11,-0.000958311,-2.17579,-0.0857603,-0.687964,178.931,0.143647,
2,0,0,1,0,6118.43,0.142429,0.142126,-6.93303,5,0.0147516,11,-0.000985361,-2.15908,-0.0907131,-0.650402,175.812,0.142126,
2,0,0,1,0,6118.45,0.140929,0.140638,-7.18829,5,0.0145748,11,-0.00101095,-2.14337,-0.102096,-0.57789,161.809,0.140638,
2,0,0,1,0,6118.48,0.13943,0.139157,-7.42722,5,0.0143919,11,-0.00103355,-2.12917,-0.110037,-0.536183,155.197,0.139157,
2,0,0,1,0,6118.5,0.137935,0.137626,-7.662,5,0.0142039,11,-0.00105449,-2.11566,-0.114195,-0.516662,154.227,0.137626,
2,0,0,1,0,6118.53,0.136435,0.136129,-7.88014,5,0.0140094,11,-0.00107271,-2.10347,-0.125311,-0.470828,144.645,0.1361289,
2,0,0,1,0,6118.55,0.134934,0.134623,-8.09741,5,0.0138095,11,-0.0010901,-2.09165,-0.140981,-0.418495,131.91,0.134623,
2,0,0,1,0,6118.58,0.13344,0.133149,-8.2971,5,0.0136053,11,-0.00110475,-2.08107,-0.153265,-0.384954,124.235,0.133149,
2,0,0,1,0,6118.6,0.13194,0.131639,-8.46754,5,0.0133958,11,-0.00111466,-2.07224,-0.172107,-0.342809,113.132,0.131639,
2,0,0,1,0,6118.63,0.13044,0.130116,-8.62452,5,0.013182,11,-0.00112219,-2.06426,-0.18801,-0.313813,105.496,0.130116,
2,0,0,1,0,6118.65,0.128941,0.128634,-8.77318,5,0.0129643,11,-0.00112853,-2.05684,-0.236317,-0.249665,85.2466,0.1286335,
2,0,0,1,0,6118.68,0.127447,0.127164,-8.89957,5,0.0127441,11,-0.00113171,-2.05063,-0.287769,-0.205025,70.9311,0.127164,
2,0,0,1,0,6118.7,0.125946,0.125609,-8.98917,5,0.0125206,11,-0.00112912,-2.04628,-0.357692,-0.164946,57.7276,0.125609,
2,0,0,1,0,6118.73,0.124446,0.124155,-9.05453,5,0.0122949,11,-0.00112416,-2.04313,-0.453237,-0.130175,45.9351,0.124155,
2,0,0,1,0,6118.75,0.122952,0.12264,-9.11574,5,0.0120684,11,-0.00111796,-2.04021,-0.741307,-0.0795892,28.2535,0.12264,
2,0,0,1,0,6118.78,0.121453,0.121136,-9.15169,5,0.01184,11,-0.00110859,-2.0385,-2.09194,-0.0282035,10.0424,0.121136,
2,0,0,1,0,6118.8,0.119953,0.119634,-9.14906,5,0.0116111,11,-0.00109454,-2.03862,-2004.12,-2.94393e-05,0.0104989,0.119634,
2,0,0,1,0,6118.83,0.118459,0.118128,-9.13295,5,0.0113833,11,-0.00107885,-2.03939,1.71313,0.0344399,-12.2648,0.118128,
2,0,0,1,0,6118.85,0.116958,0.116636,-9.11126,5,0.011155,11,-0.0010627,-2.04042,0.718306,0.0821377,-29.1474,0.116636,
2,0,0,1,0,6118.88,0.115457,0.11515,-9.0662,5,0.0109278,11,-0.00104397,-2.04257,0.465419,0.126767,-44.6774,0.11515,
2,0,0,1,0,6118.9,0.113963,0.113628,-8.97939,5,0.010703,11,-0.00102031,-2.04675,0.372067,0.158573,-55.4532,0.113628,
2,0,0,1,0,6118.93,0.112464,0.112196,-8.87903,5,0.0104797,11,-0.000996189,-2.05163,0.294268,0.200498,-69.4095,0.1121957,
2,0,0,1,0,6118.95,0.110965,0.110609,-8.76381,5,0.010259,11,-0.000969359,-2.05731,0.243754,0.242047,-82.7113,0.110609,
2,0,0,1,0,6118.98,0.109466,0.109159,-8.64197,5,0.0100413,11,-0.000943351,-2.06339,0.211994,0.27831,-93.6245,0.109159,
2,0,0,1,0,6119,0.107972,0.107642,-8.49534,5,0.00982782,11,-0.000914458,-2.07082,0.193745,0.304524,-100.737,0.107642,
2,0,0,1,0,6119.03,0.106471,0.106206,-8.322,5,0.00961751,11,-0.000883842,-2.07977,0.178801,0.329976,-107.244,0.106206,
2,0,0,1,0,6119.05,0.10497,0.104661,-8.16481,5,0.00941124,11,-0.000854535,-2.08805,0.165521,0.35645,-113.513,0.1046607,
2,0,0,1,0,6119.08,0.103476,0.103164,-8.00659,5,0.00920985,11,-0.000825994,-2.09655,0.158588,0.372032,-115.98,0.103164,
2,0,0,1,0,6119.1,0.101976,0.101678,-7.82823,5,0.00901193,11,-0.000795955,-2.10634,0.151728,0.388855,-118.697,0.101678,
2,0,0,1,0,6119.13,0.100477,0.100139,-7.64098,5,0.00881855,11,-0.000765158,-2.11685,0.15444,0.382025,-114.136,0.1001387,
2,0,0,1,0,6119.15,0.0989825,0.0986698,-7.47652,5,0.00863024,11,-0.000737707,-2.1263,0.15818,0.372993,-108.943,0.09866979,
2,0,0,1,0,6119.18,0.0974817,0.0971498,-7.32462,5,0.0084452,11,-0.000711586,-2.13521,0.162499,0.36308,-103.718,0.0971498,
2,0,0,1,0,6119.2,0.0959822,0.0956296,-7.1686,5,0.00826407,11,-0.000685531,-2.14457,0.165538,0.356414,-99.7203,0.0956296,
2,0,0,1,0,6119.23,0.094488,0.094185,-7.00926,5,0.00808746,11,-0.000660168,-2.15433,0.175235,0.33669,-92.3781,0.09418501,
2,0,0,1,0,6119.25,0.0929884,0.0926967,-6.87988,5,0.0079137,11,-0.000637742,-2.16242,0.184857,0.319165,-85.8942,0.0926967,
2,0,0,1,0,6119.28,0.0914889,0.0911953,-6.77658,5,0.00774299,11,-0.000617992,-2.16899,0.203528,0.289887,-76.5877,0.0911953,
2,0,0,1,0,6119.3,0.0899894,0.0896734,-6.65935,5,0.00757506,11,-0.000597167,-2.17657,0.219365,0.268959,-69.8859,0.0896734,
2,0,0,1,0,6119.33,0.0884951,0.0881718,-6.54231,5,0.00741052,11,-0.000576847,-2.18427,0.224167,0.263196,-67.4032,0.0881718,
2,0,0,1,0,6119.35,0.0869943,0.0866852,-6.45491,5,0.00724792,11,-0.000559546,-2.19011,0.233525,0.25265,-63.7716,0.08668521,
2,0,0,1,0,6119.38,0.0854935,0.0851741,-6.37763,5,0.00708751,11,-0.000543209,-2.19534,0.265823,0.221952,-55.2131,0.0851741,
2,0,0,1,0,6119.4,0.0839993,0.0836571,-6.29884,5,0.00692971,11,-0.000526942,-2.20074,0.291431,0.202449,-49.7333,0.0836571,
2,0,0,1,0,6119.43,0.0824998,0.0821845,-6.22308,5,0.00677315,11,-0.000511441,-2.20599,0.308193,0.191438,-46.529,0.0821845,
2,0,0,1,0,6119.45,0.0810002,0.0807168,-6.14953,5,0.00661848,11,-0.000496371,-2.21116,0.316788,0.186245,-44.7761,0.0807168,
2,0,0,1,0,6119.48,0.0795007,0.0791873,-6.09442,5,0.00646541,11,-0.0004826,-2.21507,0.3585,0.164574,-39.1085,0.0791873,
2,0,0,1,0,6119.5,0.0780078,0.0777021,-6.03622,5,0.00631437,11,-0.000469027,-2.21923,0.392292,0.150398,-35.4017,0.0777021,
2,0,0,1,0,6119.53,0.076507,0.0761912,-5.96862,5,0.00616423,11,-0.000454757,-2.22413,0.354481,0.166441,-38.801,0.0761912,
2,0,0,1,0,6119.55,0.0750062,0.074721,-5.9093,5,0.00601562,11,-0.000441549,-2.22846,0.338272,0.174416,-40.246,0.074721,
2,0,0,1,0,6119.58,0.073512,0.0732266,-5.86137,5,0.00586905,11,-0.000429208,-2.232,0.374649,0.157481,-35.9696,0.0732266,
2,0,0,1,0,6119.6,0.0720124,0.071679,-5.80128,5,0.00572323,11,-0.00041583,-2.23648,0.379076,0.155642,-35.2292,0.071679,
2,0,0,1,0,6119.63,0.0705129,0.0701922,-5.74259,5,0.00557877,11,-0.000403085,-2.24089,0.328513,0.179597,-40.2709,0.0701922,
2,0,0,1,0,6119.65,0.0690187,0.0686876,-5.68042,5,0.00543638,11,-0.000390175,-2.24562,0.315625,0.186931,-41.4999,0.0686876,
2,0,0,1,0,6119.68,0.0675179,0.0672357,-5.63261,5,0.00529493,11,-0.000378713,-2.24929,0.331163,0.17816,-39.1184,0.0672357,
2,0,0,1,0,6119.7,0.066017,0.0657321,-5.58385,5,0.00515484,11,-0.000367038,-2.25307,0.345567,0.170734,-37.0755,0.0657321,
2,0,0,1,0,6119.73,0.0645242,0.0642174,-5.50794,5,0.00501672,11,-0.000353706,-2.25901,0.299151,0.197225,-42.3586,0.0642174,
2,0,0,1,0,6119.75,0.0630246,0.0627446,-5.44211,5,0.00487968,11,-0.000341463,-2.26423,0.27094,0.21776,-46.2691,0.0627446,
2,0,0,1,0,6119.78,0.0615251,0.0611807,-5.37748,5,0.0047444,11,-0.000328998,-2.26942,0.277823,0.212365,-44.5771,0.0611807,
2,0,0,1,0,6119.8,0.0600256,0.0596496,-5.3089,5,0.00461074,11,-0.000316674,-2.275,0.287021,0.20556,-42.5901,0.0596496,
2,0,0,1,0,6119.83,0.0585314,0.0581763,-5.23379,5,0.00447926,11,-0.000304483,-2.28118,0.25035,0.23567,-48.1586,0.0581763,
2,0,0,1,0,6119.85,0.0570305,0.0567061,-5.17289,5,0.00434901,11,-0.000293334,-2.28627,0.222912,0.264678,-53.3392,0.0567061,
2,0,0,1,0,6119.88,0.0555297,0.0552356,-5.09293,5,0.00422078,11,-0.000281311,-2.29303,0.222633,0.265011,-52.6268,0.0552356,
2,0,0,1,0,6119.9,0.0540355,0.0537408,-5.01758,5,0.00409492,11,-0.000269648,-2.29951,0.245478,0.240348,-47.0298,0.0537408,
2,0,0,1,0,6119.93,0.052536,0.0522123,-4.94037,5,0.00397033,11,-0.000257948,-2.30624,0.234937,0.251131,-48.4382,0.0522123,
2,0,0,1,0,6119.95,0.0510364,0.0507374,-4.86718,5,0.0038476,11,-0.000246948,-2.31272,0.206413,0.285835,-54.2962,0.0507374,
2,0,0,1,0,6119.98,0.0495369,0.0492194,-4.78851,5,0.00372687,11,-0.000235688,-2.3198,0.218263,0.270316,-50.5401,0.0492194,
2,0,0,1,0,6120,0.0480427,0.0477433,-4.71351,5,0.00360848,11,-0.000225039,-2.32666,0.2417,0.244104,-44.9078,0.04774332,
2,0,0,1,0,6120.03,0.0465432,0.0462085,-4.63778,5,0.00349143,11,-0.000214305,-2.33369,0.225681,0.261431,-47.4317,0.0462085,
2,0,0,1,0,6120.05,0.0450424,0.0447197,-4.57448,5,0.00337611,11,-0.000204569,-2.33966,0.215626,0.273621,-48.8473,0.0447197,
2,0,0,1,0,6120.08,0.0435482,0.0432711,-4.50591,5,0.00326297,11,-0.000194976,-2.34622,0.233451,0.25273,-44.456,0.0432711,
2,0,0,1,0,6120.1,0.0420486,0.0417276,-4.44094,5,0.00315108,11,-0.00018531,-2.35252,0.268131,0.220042,-38.2165,0.0417276,
2,0,0,1,0,6120.13,0.0405491,0.0402027,-4.38674,5,0.00304065,11,-0.000176359,-2.35786,0.281761,0.209397,-35.8976,0.0402027,
2,0,0,1,0,6120.15,0.0390549,0.0387303,-4.33477,5,0.00293193,11,-0.000167887,-2.36303,0.254085,0.232206,-39.2468,0.0387303,
2,0,0,1,0,6120.18,0.0375541,0.037244,-4.28727,5,0.0028241,11,-0.000159675,-2.36782,0.281279,0.209756,-35.0544,0.037244,
2,0,0,1,0,6120.2,0.0360532,0.0357361,-4.23373,5,0.00271772,11,-0.000151297,-2.37328,0.34696,0.170048,-28.1425,0.0357361,
2,0,0,1,0,6120.23,0.034559,0.0342237,-4.18853,5,0.00261281,11,-0.000143347,-2.37794,0.387804,0.152139,-24.8894,0.03422375,
2,0,0,1,0,6120.25,0.0330595,0.0327275,-4.15333,5,0.00250839,11,-0.000135928,-2.3816,0.360486,0.163668,-26.5261,0.0327275,
2,0,0,1,0,6120.28,0.0315613,0.0312229,-4.12125,5,0.00240494,11,-0.000128678,-2.38497,0.413956,0.142527,-22.9105,0.0312229,
2,0,0,1,0,6120.3,0.0300618,0.029748,-4.08268,5,0.00230242,11,-0.000121452,-2.38905,0.523783,0.112642,-17.9688,0.029748,
2,0,0,1,0,6120.33,0.0285676,0.0282424,-4.04933,5,0.00220097,11,-0.000114363,-2.39262,0.676847,0.0871689,-13.8205,0.0282424,
2,0,0,1,0,6120.35,0.0270667,0.0267536,-4.03342,5,0.00209968,11,-0.000107908,-2.39433,0.54594,0.108071,-17.0326,0.0267536,
2,0,0,1,0,6120.38,0.0255659,0.0252652,-4.01825,5,0.00199892,11,-0.000101522,-2.39596,0.545812,0.108096,-16.9404,0.0252652,
2,0,0,1,0,6120.4,0.0240717,0.0237624,-3.98859,5,0.00189918,11,-9.47784e-05,-2.39918,0.937613,0.0629257,-9.82377,0.0237624,
2,0,0,1,0,6120.43,0.0225722,0.0222795,-3.97293,5,0.00179949,11,-8.85148e-05,-2.40089,1.21131,0.0487078,-7.57282,0.0222795,
2,0,0,1,0,6120.45,0.0210726,0.02077,-3.96527,5,0.0017001,11,-8.23587e-05,-2.40173,0.973887,0.060582,-9.38825,0.02077003,
2,0,0,1,0,6120.48,0.0195784,0.0192648,-3.96561,5,0.00160131,11,-7.63967e-05,-2.40169,1.3996,0.042155,-6.50517,0.0192648,
2,0,0,1,0,6120.5,0.0180789,0.0177388,-3.9454,5,0.00150238,11,-6.99867e-05,-2.40391,2.71299,0.0217472,-3.35207,0.0177388,
2,0,0,1,0,6120.53,0.0165781,0.0162887,-3.94183,5,0.00140372,11,-6.42073e-05,-2.4043,17.1617,0.00343789,-0.530336,0.0162887,
2,0,0,1,0,6120.55,0.0150839,0.0147725,-3.94417,5,0.00130547,11,-5.82651e-05,-2.40404,4.87747,0.0120964,-1.86005,0.0147725,
2,0,0,1,0,6120.58,0.0135844,0.013262,-3.94901,5,0.0012067,11,-5.23718e-05,-2.40351,2.87365,0.0205314,-3.15262,0.013262,
2,0,0,1,0,6120.6,0.0120848,0.0117337,-3.93882,5,0.00110805,11,-4.6217e-05,-2.40463,-21.1034,-0.00279576,0.430366,0.0117337,
2,0,0,1,0,6120.63,0.0105853,0.0102743,-3.93306,5,0.00100958,11,-4.04096e-05,-2.40527,-8.26402,-0.00713938,1.10052,0.0102743,
2,0,0,1,0,6120.65,0.00909108,0.00875873,-3.94332,5,0.000911337,11,-3.45385e-05,-2.40414,-2.85042,-0.0206987,3.18904,0.00875873,
2,0,0,1,0,6120.68,0.00759027,0.0072752,-3.96222,5,0.000812483,11,-2.88259e-05,-2.40206,-3.13432,-0.0188239,2.90122,0.0072752,
2,0,0,1,0,6120.7,0.00608945,0.00581652,-3.95806,5,0.000713468,11,-2.30222e-05,-2.40252,-1.73778,-0.0339514,5.24479,0.005816523,
2,0,0,1,0,6120.73,0.00459524,0.00430026,-3.96178,5,0.000614849,11,-1.70367e-05,-2.40211,-1.55034,-0.0380562,5.89509,0.00430026,
2,0,0,1,0,6120.75,0.0030957,0.00280629,-3.97311,5,0.000515559,11,-1.11497e-05,-2.40087,-0.560036,-0.10535,16.4067,0.00280629,
2,0,0,1,0,6120.78,0.00159616,0.0012842,-4.03798,5,0.000415234,11,-5.18558e-06,-2.39384, , , ,0.0012842,
2,0,0,0,0,6120.8,0.000199195,-0.000178351,-4.02571,5,0.000321338,11,7.17991e-07,-2.39516, , , ,-0.0001783512,