File: Figure_codes/Fig_3-5/rawdata_trumpetplot_data/before 10th/20221101_1-115_002_TrumpetPlot_ParaChange_06_CV_C01.mpt
EC-Lab ASCII FILE
Nb header lines : 68

Cyclic Voltammetry

Run on channel : 1 (SN 65296)
User :
CE vs. WE compliance from -10 V to 10 V
Electrode connection : standard
Potential control : Ewe
Ewe ctrl range : min = -1.00 V, max = 1.00 V
Safety Limits :
	Do not start on E overload
Acquisition started on : 11/08/2022 17:30:03.488
Loaded Setting File :  NONE
Saved on :
	File : 20221101_1-115_002_TrumpetPlot_ParaChange_06_CV_C01.mpr
	Directory : C:\Users\NakamuraT\Documents\EC-Lab\Data\Yatsuzuka\20221108_1-115_001_TrumpetPlot\
	Host : 192.109.209.100
Device : SP-50e (SN .003219)
Address : 192.109.209.128
EC-Lab for windows v11.43 (software)
Internet server v11.40 (firmware)
Command interpretor v11.40 (firmware)
Electrode material : Au/Pd
Initial state :
Electrolyte : NaCl (0.2M)
Comments : Fe(CN)63-/Fe(CN)64- 5.10-3 M
Reference electrode : SCE Saturated Calomel Electrode (0.241 V)
Electrode surface area : 0.001 cm2
Characteristic mass : 0.001 g
Equivalent Weight : 0.000 g/eq.
Density : 0.000 g/cm3
Volume (V) : 0.001 cm3
Cycle Definition : Charge/Discharge alternance
Ei (V)              0.000
vs.                 Ref
dE/dt               10.000
dE/dt unit          mV/s
E1 (V)              0.300
vs.                 Ref
Step percent        50
N                   10
E range min (V)     -1.000
E range max (V)     1.000
I Range             10 mA
I Range min         Unset
I Range max         Unset
I Range init        Unset
Bandwidth           5
E2 (V)              0.000
vs.                 Ref
nc cycles           0
Reverse Scan        0
Ef (V)              0.000
vs.                 Eoc

Number of loops : 8
Loop 0 from point number 0 to 1204
Loop 1 from point number 1205 to 2409
Loop 2 from point number 2410 to 3614
Loop 3 from point number 3615 to 4819
Loop 4 from point number 4820 to 6024
Loop 5 from point number 6025 to 7229
Loop 6 from point number 7230 to 8434
Loop 7 from point number 8435 to 9639

mode	ox/red	error	control changes	counter inc.	time/s	control/V	Ewe/V	<I>/mA	cycle number	(Q-Qo)/C	I Range	P/W
2	0	0	0	0	1078.99	2.44065e-05	-0.000325324	-0.487102	1	0.0000000E+000	11	1.58466e-07
2	1	0	1	0	1079.71	0.00729063	0.00699466	0.407675	1	0.000257127	11	2.85155e-06
2	1	0	1	0	1080.46	0.0147814	0.0145187	0.449033	1	0.000589635	11	6.51939e-06
2	1	0	1	0	1081.21	0.0222725	0.0219952	0.471284	1	0.000944514	11	1.0366e-05
2	1	0	1	0	1081.96	0.0297635	0.0294743	0.48778	1	0.00131367	11	1.4377e-05
2	1	0	1	0	1082.71	0.0372544	0.0369458	0.500618	1	0.00169476	11	1.84957e-05
2	1	0	1	0	1083.46	0.0447458	0.0444962	0.524006	1	0.00208872	11	2.33163e-05
2	1	0	1	0	1084.21	0.0522363	0.0519357	0.544647	1	0.00249868	11	2.82866e-05
2	1	0	1	0	1084.96	0.0597282	0.0594465	0.582057	1	0.00293037	11	3.46013e-05
2	1	0	1	0	1085.71	0.0672182	0.0669299	0.626131	1	0.00339123	11	4.19069e-05
2	1	0	1	0	1086.46	0.0747092	0.0744121	0.679842	1	0.00388924	11	5.05885e-05
2	1	0	1	0	1087.21	0.0822001	0.0819293	0.736456	1	0.00443157	11	6.03374e-05
2	1	0	1	0	1087.95	0.0896911	0.089402	0.809595	1	0.00502154	11	7.23795e-05
2	1	0	1	0	1088.7	0.097182	0.0969277	0.875324	1	0.00566261	11	8.48431e-05
2	1	0	1	0	1089.45	0.104673	0.104388	0.965139	1	0.00635925	11	0.000100749
2	1	0	1	0	1090.2	0.112164	0.111847	1.08101	1	0.00713082	11	0.000120907
2	1	0	1	0	1090.95	0.119655	0.119383	1.26611	1	0.00801561	11	0.000151152
2	1	0	1	0	1091.7	0.127146	0.126884	1.51389	1	0.00906738	11	0.000192089
2	1	0	1	0	1092.45	0.134637	0.134331	1.77574	1	0.0103176	11	0.000238538
2	1	0	1	0	1093.2	0.142127	0.141851	1.92065	1	0.0117233	11	0.000272447
2	1	0	1	0	1093.95	0.149619	0.149295	1.87874	1	0.0131702	11	0.000280486
2	1	0	1	0	1094.7	0.157109	0.15683	1.62041	1	0.0145033	11	0.000254128
2	1	0	1	0	1095.45	0.164601	0.164322	1.25955	1	0.0155904	11	0.000206972
2	1	0	1	0	1096.19	0.172091	0.171819	0.980334	1	0.0164317	11	0.00016844
2	1	0	1	0	1096.94	0.179582	0.179317	0.819088	1	0.0171122	11	0.000146877
2	1	0	1	0	1097.69	0.187074	0.186806	0.722808	1	0.0176974	11	0.000135025
2	1	0	1	0	1098.44	0.194564	0.194287	0.659687	1	0.0182235	11	0.000128169
2	1	0	1	0	1099.19	0.202056	0.201778	0.6141	1	0.0187098	11	0.000123912
2	1	0	1	0	1099.94	0.209546	0.20923	0.583298	1	0.019169	11	0.000122043
2	1	0	1	0	1100.69	0.217038	0.216751	0.56114	1	0.0196077	11	0.000121628
2	1	0	1	0	1101.44	0.224528	0.224243	0.545367	1	0.0200319	11	0.000122295
2	1	0	1	0	1102.19	0.232019	0.231729	0.530686	1	0.0204445	11	0.000122975
2	1	0	1	0	1102.94	0.23951	0.23924	0.519408	1	0.0208483	11	0.000124263
2	1	0	1	0	1103.69	0.247001	0.246695	0.511682	1	0.0212447	11	0.000126229
2	1	0	1	0	1104.43	0.254492	0.254205	0.50206	1	0.021635	11	0.000127626
2	1	0	1	0	1105.18	0.261983	0.261704	0.497939	1	0.0220198	11	0.000130313
2	1	0	1	0	1105.93	0.269474	0.269177	0.489733	1	0.0223999	11	0.000131825
2	1	0	1	0	1106.68	0.276965	0.276681	0.485292	1	0.0227759	11	0.000134271
2	1	0	1	0	1107.43	0.284456	0.284155	0.480228	1	0.023148	11	0.000136459
2	1	0	1	0	1108.18	0.291947	0.291669	0.476891	1	0.0235164	11	0.000139095
2	1	0	1	0	1108.93	0.299437	0.29924	0.468294	1	0.0238818	11	0.000140132
2	0	0	1	0	1109.61	0.293745	0.293483	-0.118233	1	0.0238585	11	-3.46992e-05
2	0	0	1	0	1110.36	0.286253	0.285962	-0.164189	1	0.0237401	11	-4.69517e-05
2	0	0	1	0	1111.11	0.278763	0.278495	-0.20056	1	0.0235919	11	-5.58549e-05
2	0	0	1	0	1111.86	0.271272	0.27097	-0.226726	1	0.0234218	11	-6.14361e-05
2	0	0	1	0	1112.61	0.263781	0.26351	-0.249078	1	0.0232333	11	-6.56346e-05
2	0	0	1	0	1113.36	0.25629	0.255996	-0.269864	1	0.0230285	11	-6.9084e-05
2	0	0	1	0	1114.11	0.248799	0.24848	-0.289377	1	0.0228089	11	-7.19043e-05
2	0	0	1	0	1114.86	0.241308	0.24103	-0.309226	1	0.0225746	11	-7.45327e-05
2	0	0	1	0	1115.61	0.233817	0.23352	-0.32747	1	0.0223259	11	-7.64706e-05
2	0	0	1	0	1116.36	0.226326	0.226033	-0.346528	1	0.0220619	11	-7.83269e-05
2	0	0	1	0	1117.1	0.218835	0.218582	-0.371451	1	0.0217815	11	-8.11925e-05
2	0	0	1	0	1117.85	0.211344	0.211104	-0.398374	1	0.0214828	11	-8.40983e-05
2	0	0	1	0	1118.6	0.203854	0.203505	-0.426765	1	0.021162	11	-8.68488e-05
2	0	0	1	0	1119.35	0.196362	0.196081	-0.472821	1	0.0208147	11	-9.27113e-05
2	0	0	1	0	1120.1	0.188872	0.18855	-0.525352	1	0.0204321	11	-9.90553e-05
2	0	0	1	0	1120.85	0.18138	0.181077	-0.601372	1	0.0200019	11	-0.000108895
2	0	0	1	0	1121.6	0.17389	0.173553	-0.711602	1	0.019504	11	-0.000123501
2	0	0	1	0	1122.35	0.166398	0.166098	-0.877786	1	0.0189036	11	-0.000145799
2	0	0	1	0	1123.1	0.158907	0.158616	-1.13644	1	0.0181437	11	-0.000180257
2	0	0	1	0	1123.85	0.151417	0.151112	-1.4733	1	0.0171568	11	-0.000222634
2	0	0	1	0	1124.6	0.143925	0.143649	-1.76799	1	0.015925	11	-0.00025397
2	0	0	1	0	1125.34	0.136435	0.136138	-1.91903	1	0.0145213	11	-0.000261253
2	0	0	1	0	1126.09	0.128943	0.128634	-1.86796	1	0.013081	11	-0.000240284
2	0	0	1	0	1126.84	0.121453	0.121158	-1.64328	1	0.0117496	11	-0.000199096
2	0	0	1	0	1127.59	0.113962	0.11367	-1.39302	1	0.010603	11	-0.000158345
2	0	0	1	0	1128.34	0.106471	0.106172	-1.21921	1	0.00961833	11	-0.000129446
2	0	0	1	0	1129.09	0.0989798	0.0987135	-1.11028	1	0.00873956	11	-0.000109599
2	0	0	1	0	1129.84	0.0914889	0.0911771	-1.03604	1	0.00792923	11	-9.4463e-05
2	0	0	1	0	1130.59	0.083998	0.0836875	-0.968155	1	0.00717008	11	-8.10225e-05
2	0	0	1	0	1131.34	0.076507	0.0761851	-0.908116	1	0.00645686	11	-6.91849e-05
2	0	0	1	0	1132.09	0.069016	0.0687071	-0.848161	1	0.00578822	11	-5.82747e-05
2	0	0	1	0	1132.84	0.0615251	0.0612408	-0.805567	1	0.00515795	11	-4.93336e-05
2	0	0	1	0	1133.58	0.0540341	0.0537565	-0.772877	1	0.00455807	11	-4.15471e-05
2	0	0	1	0	1134.33	0.0465441	0.0462488	-0.75028	1	0.00397845	11	-3.46996e-05
2	0	0	1	0	1135.08	0.0390523	0.0387432	-0.740791	1	0.00340996	11	-2.87006e-05
2	0	0	1	0	1135.83	0.0315618	0.0312316	-0.741072	1	0.00284577	11	-2.31449e-05
2	0	0	1	0	1136.58	0.0240704	0.0237851	-0.744852	1	0.00227944	11	-1.77164e-05
2	0	0	1	0	1137.33	0.0165796	0.0163021	-0.759092	1	0.00170645	11	-1.23748e-05
2	0	0	1	0	1138.08	0.00908845	0.00878145	-0.77316	1	0.00112204	11	-6.78946e-06
2	0	0	1	0	1138.83	0.00159728	0.0012461	-0.801843	1	0.000521814	11	-9.99176e-07
2	1	0	1	0	2311.09	0.0047932	0.0045678	0.388921	2	0.000158959	11	1.77651e-06
2	1	0	1	0	2311.84	0.0122846	0.0119627	0.435394	2	0.000482007	11	5.20848e-06
2	1	0	1	0	2312.59	0.0197753	0.0194975	0.470412	2	0.000834026	11	9.17188e-06
2	1	0	1	0	2313.34	0.0272665	0.0269558	0.487675	2	0.00120319	11	1.31457e-05
2	1	0	1	0	2314.09	0.0347577	0.0344426	0.509627	2	0.00158654	11	1.75529e-05
2	1	0	1	0	2314.84	0.0422484	0.0419531	0.527925	2	0.00198512	11	2.21481e-05
2	1	0	1	0	2315.59	0.04974	0.0494572	0.559078	2	0.00240182	11	2.76504e-05
2	1	0	1	0	2316.34	0.0572303	0.0569483	0.592187	2	0.00284333	11	3.3724e-05
2	1	0	1	0	2317.09	0.0647221	0.0644634	0.647581	2	0.00331833	11	4.17453e-05
2	1	0	1	0	2317.83	0.0722122	0.0719265	0.707499	2	0.00383592	11	5.08879e-05
2	1	0	1	0	2318.58	0.0797031	0.079413	0.775093	2	0.0044017	11	6.15525e-05
2	1	0	1	0	2319.33	0.0871941	0.086927	0.842986	2	0.0050174	11	7.32783e-05
2	1	0	1	0	2320.08	0.094685	0.0944082	0.905905	2	0.00568126	11	8.55249e-05
2	1	0	1	0	2320.83	0.102176	0.101887	0.973784	2	0.00639467	11	9.92162e-05
2	1	0	1	0	2321.58	0.109667	0.109365	1.07971	2	0.00717186	11	0.000118083
2	1	0	1	0	2322.33	0.117158	0.116862	1.23557	2	0.00804488	11	0.000144391
2	1	0	1	0	2323.08	0.124649	0.124352	1.46089	2	0.0090614	11	0.000181665
2	1	0	1	0	2323.83	0.13214	0.131845	1.69616	2	0.0102551	11	0.000223629
2	1	0	1	0	2324.58	0.139631	0.139359	1.85249	2	0.0116025	11	0.00025816
2	1	0	1	0	2325.33	0.147121	0.146844	1.85805	2	0.0130147	11	0.000272844
2	1	0	1	0	2326.07	0.154613	0.154303	1.65578	2	0.014355	11	0.000255492
2	1	0	1	0	2326.82	0.162103	0.161824	1.31741	2	0.0154821	11	0.000213189
2	1	0	1	0	2327.57	0.169595	0.169311	1.01823	2	0.0163594	11	0.000172398
2	1	0	1	0	2328.32	0.177085	0.176815	0.835782	2	0.0170582	11	0.000147779
2	1	0	1	0	2329.07	0.184576	0.184269	0.723661	2	0.0176516	11	0.000133348
2	1	0	1	0	2329.82	0.192068	0.191761	0.663618	2	0.0181811	11	0.000127256
2	1	0	1	0	2330.57	0.199558	0.199271	0.616866	2	0.0186696	11	0.000122923
2	1	0	1	0	2331.32	0.20705	0.20677	0.595604	2	0.0191299	11	0.000123153
2	1	0	1	0	2332.07	0.21454	0.214226	0.561251	2	0.0195702	11	0.000120234
2	1	0	1	0	2332.82	0.222032	0.221768	0.546963	2	0.0199954	11	0.000121299
2	1	0	1	0	2333.57	0.229522	0.229204	0.527767	2	0.020409	11	0.000120966
2	1	0	1	0	2334.31	0.237013	0.236738	0.520143	2	0.0208135	11	0.000123138
2	1	0	1	0	2335.06	0.244504	0.24424	0.511767	2	0.021211	11	0.000124994
2	1	0	1	0	2335.81	0.251995	0.251714	0.505093	2	0.0216023	11	0.000127139
2	1	0	1	0	2336.56	0.259486	0.259224	0.497719	2	0.0219886	11	0.000129021
2	1	0	1	0	2337.31	0.266977	0.2667	0.493295	2	0.0223699	11	0.000131562
2	1	0	1	0	2338.06	0.274468	0.274194	0.484928	2	0.022747	11	0.000132964
2	1	0	1	0	2338.81	0.281959	0.281691	0.479915	2	0.0231203	11	0.000135188
2	1	0	1	0	2339.56	0.28945	0.289173	0.475894	2	0.0234901	11	0.000137616
2	1	0	1	0	2340.31	0.296941	0.296672	0.47267	2	0.0238567	11	0.000140228
2	0	0	1	0	2340.99	0.296241	0.295962	-0.0948201	2	0.0239837	11	-2.80631e-05
2	0	0	1	0	2341.74	0.288751	0.288495	-0.152899	2	0.0238782	11	-4.41106e-05
2	0	0	1	0	2342.49	0.28126	0.280995	-0.189193	2	0.0237382	11	-5.31623e-05
2	0	0	1	0	2343.24	0.273769	0.273477	-0.214164	2	0.0235749	11	-5.85688e-05
2	0	0	1	0	2343.99	0.266278	0.26602	-0.240628	2	0.0233924	11	-6.40118e-05
2	0	0	1	0	2344.74	0.258787	0.258542	-0.263841	2	0.0231934	11	-6.82141e-05
2	0	0	1	0	2345.49	0.251296	0.251029	-0.280067	2	0.0229791	11	-7.0305e-05
2	0	0	1	0	2346.24	0.243805	0.243496	-0.299735	2	0.0227505	11	-7.29843e-05
2	0	0	1	0	2346.98	0.236314	0.236007	-0.318816	2	0.0225079	11	-7.52429e-05
2	0	0	1	0	2347.73	0.228823	0.228558	-0.338021	2	0.0222511	11	-7.72574e-05
2	0	0	1	0	2348.48	0.221332	0.221058	-0.360273	2	0.021979	11	-7.96413e-05
2	0	0	1	0	2349.23	0.213841	0.213545	-0.385367	2	0.0216901	11	-8.22932e-05
2	0	0	1	0	2349.98	0.20635	0.206009	-0.412582	2	0.0213816	11	-8.49955e-05
2	0	0	1	0	2350.73	0.19886	0.198526	-0.445329	2	0.0210501	11	-8.84091e-05
2	0	0	1	0	2351.48	0.191368	0.191045	-0.491153	2	0.0206889	11	-9.38324e-05
2	0	0	1	0	2352.23	0.183878	0.183582	-0.553645	2	0.0202884	11	-0.000101639
2	0	0	1	0	2352.98	0.176386	0.176121	-0.644043	2	0.0198318	11	-0.00011343
2	0	0	1	0	2353.73	0.168895	0.168616	-0.780865	2	0.0192926	11	-0.000131667
2	0	0	1	0	2354.48	0.161404	0.161154	-0.995292	2	0.0186227	11	-0.000160396
2	0	0	1	0	2355.22	0.153913	0.153623	-1.30707	2	0.0177542	11	-0.000200796
2	0	0	1	0	2355.97	0.146423	0.14618	-1.6248	2	0.0166425	11	-0.000237514
2	0	0	1	0	2356.72	0.138931	0.138623	-1.83473	2	0.0153251	11	-0.000254336
2	0	0	1	0	2357.47	0.131441	0.131126	-1.87015	2	0.0139138	11	-0.000245225
2	0	0	1	0	2358.22	0.12395	0.12367	-1.7305	2	0.0125453	11	-0.000214011
2	0	0	1	0	2358.97	0.116459	0.116153	-1.50603	2	0.0113233	11	-0.00017493
2	0	0	1	0	2359.72	0.108968	0.108691	-1.30964	2	0.010264	11	-0.000142346
2	0	0	1	0	2360.47	0.101477	0.101185	-1.17842	2	0.0093237	11	-0.000119238
2	0	0	1	0	2361.22	0.0939859	0.0937306	-1.10203	2	0.00846007	11	-0.000103294
2	0	0	1	0	2361.97	0.0864949	0.0861954	-1.04138	2	0.00764761	11	-8.97623e-05
2	0	0	1	0	2362.72	0.079004	0.0786983	-0.983891	2	0.00687993	11	-7.74305e-05
2	0	0	1	0	2363.47	0.071513	0.0712001	-0.920307	2	0.00615767	11	-6.5526e-05
2	0	0	1	0	2364.21	0.0640221	0.0637519	-0.858907	2	0.0054816	11	-5.47569e-05
2	0	0	1	0	2364.96	0.0565311	0.0562049	-0.803933	2	0.00484711	11	-4.5185e-05
2	0	0	1	0	2365.71	0.0490402	0.0487238	-0.774302	2	0.00424413	11	-3.77269e-05
2	0	0	1	0	2366.46	0.0415499	0.041299	-0.754732	2	0.00366172	11	-3.11696e-05
2	0	0	1	0	2367.21	0.0340583	0.0337392	-0.746657	2	0.00308964	11	-2.51916e-05
2	0	0	1	0	2367.96	0.0265678	0.0263159	-0.747772	2	0.00252041	11	-1.96783e-05
2	0	0	1	0	2368.71	0.0190764	0.0187927	-0.755013	2	0.00194779	11	-1.41888e-05
2	0	0	1	0	2369.46	0.0115854	0.0113041	-0.765884	2	0.00136715	11	-8.65766e-06
2	0	0	1	0	2370.21	0.00409449	0.00381768	-0.785637	2	0.000774659	11	-2.99932e-06
2	1	0	1	0	3542.47	0.00229666	0.00196621	0.36069	3	5.07959e-05	11	7.09194e-07
2	1	0	1	0	3543.22	0.00978716	0.00947086	0.420114	3	0.000351278	11	3.97884e-06
2	1	0	1	0	3543.97	0.0172786	0.0169901	0.454461	3	0.000690544	11	7.72132e-06
2	1	0	1	0	3544.72	0.0247695	0.0244732	0.474635	3	0.00105076	11	1.16159e-05
2	1	0	1	0	3545.47	0.0322605	0.031963	0.500447	3	0.00142805	11	1.59958e-05
2	1	0	1	0	3546.22	0.0397519	0.03941	0.527547	3	0.00182226	11	2.07906e-05
2	1	0	1	0	3546.97	0.0472424	0.0469423	0.559131	3	0.00223768	11	2.62469e-05
2	1	0	1	0	3547.72	0.054734	0.0544454	0.600677	3	0.0026806	11	3.27041e-05
2	1	0	1	0	3548.46	0.0622243	0.0619396	0.654655	3	0.00315995	11	4.05491e-05
2	1	0	1	0	3549.21	0.0697152	0.0694197	0.715212	3	0.00368418	11	4.96498e-05
2	1	0	1	0	3549.96	0.0772062	0.0769285	0.785393	3	0.00425863	11	6.04191e-05
2	1	0	1	0	3550.71	0.0846971	0.0844457	0.853837	3	0.00488318	11	7.21028e-05
2	1	0	1	0	3551.46	0.0921881	0.0918972	0.915593	3	0.00555417	11	8.41404e-05
2	1	0	1	0	3552.21	0.099679	0.0994282	0.976897	3	0.0062703	11	9.71311e-05
2	1	0	1	0	3552.96	0.10717	0.106909	1.06345	3	0.00704083	11	0.000113692
2	1	0	1	0	3553.71	0.114661	0.114392	1.18707	3	0.00789099	11	0.000135791
2	1	0	1	0	3554.46	0.122152	0.121875	1.37982	3	0.0088619	11	0.000168165
2	1	0	1	0	3555.21	0.129643	0.12934	1.58854	3	0.00998477	11	0.000205462
2	1	0	1	0	3555.96	0.137134	0.136877	1.7534	3	0.0112527	11	0.000240001
2	1	0	1	0	3556.7	0.144625	0.144357	1.80609	3	0.0126057	11	0.000260721
2	1	0	1	0	3557.45	0.152115	0.1518	1.67754	3	0.0139323	11	0.000254651
2	1	0	1	0	3558.2	0.159607	0.159319	1.37408	3	0.0150932	11	0.000218916
2	1	0	1	0	3558.95	0.167097	0.166842	1.0669	3	0.0160124	11	0.000178004
2	1	0	1	0	3559.7	0.174588	0.174311	0.86136	3	0.0167372	11	0.000150145
2	1	0	1	0	3560.45	0.182079	0.181779	0.74273	3	0.0173431	11	0.000135013
2	1	0	1	0	3561.2	0.18957	0.189301	0.669908	3	0.0178794	11	0.000126814
2	1	0	1	0	3561.95	0.197062	0.196777	0.622803	3	0.0183722	11	0.000122553
2	1	0	1	0	3562.7	0.204552	0.204289	0.589806	3	0.0188355	11	0.000120491
2	1	0	1	0	3563.45	0.212044	0.211756	0.567725	3	0.019279	11	0.000120219
2	1	0	1	0	3564.2	0.219534	0.219254	0.551032	3	0.0197072	11	0.000120816
2	1	0	1	0	3564.94	0.227025	0.226789	0.536518	3	0.020124	11	0.000121676
2	1	0	1	0	3565.69	0.234516	0.234232	0.523267	3	0.0205319	11	0.000122566
2	1	0	1	0	3566.44	0.242007	0.241733	0.514709	3	0.0209322	11	0.000124422
2	1	0	1	0	3567.19	0.249498	0.249211	0.508584	3	0.0213263	11	0.000126744
2	1	0	1	0	3567.94	0.256989	0.256678	0.500567	3	0.021715	11	0.000128485
2	1	0	1	0	3568.69	0.26448	0.264192	0.495234	3	0.0220991	11	0.000130837
2	1	0	1	0	3569.44	0.271971	0.271687	0.4892	3	0.0224787	11	0.000132909
2	1	0	1	0	3570.19	0.279462	0.279225	0.484144	3	0.0228542	11	0.000135185
2	1	0	1	0	3570.94	0.286953	0.286655	0.477854	3	0.023226	11	0.000136979
2	1	0	1	0	3571.69	0.294444	0.29413	0.473949	3	0.0235944	11	0.000139403
2	0	0	1	0	3572.37	0.298739	0.298468	-0.0358171	3	0.0238684	11	-1.06902e-05
2	0	0	1	0	3573.12	0.291247	0.290965	-0.131204	3	0.023787	11	-3.81758e-05
2	0	0	1	0	3573.87	0.283757	0.283465	-0.173523	3	0.0236611	11	-4.91877e-05
2	0	0	1	0	3574.62	0.276266	0.275962	-0.205515	3	0.0235088	11	-5.67143e-05
2	0	0	1	0	3575.37	0.268775	0.2685	-0.229547	3	0.0233361	11	-6.16334e-05
2	0	0	1	0	3576.12	0.261284	0.260978	-0.247943	3	0.0231461	11	-6.47077e-05
2	0	0	1	0	3576.87	0.253793	0.253468	-0.271222	3	0.0229407	11	-6.87462e-05
2	0	0	1	0	3577.61	0.246302	0.246001	-0.290411	3	0.0227208	11	-7.14412e-05
2	0	0	1	0	3578.36	0.238811	0.238471	-0.307858	3	0.0224867	11	-7.34151e-05
2	0	0	1	0	3579.11	0.23132	0.231018	-0.327943	3	0.022239	11	-7.57608e-05
2	0	0	1	0	3579.86	0.223829	0.223544	-0.345249	3	0.0219768	11	-7.71785e-05
2	0	0	1	0	3580.61	0.216338	0.216047	-0.363589	3	0.0216993	11	-7.85525e-05
2	0	0	1	0	3581.36	0.208848	0.208543	-0.392438	3	0.0214047	11	-8.18402e-05
2	0	0	1	0	3582.11	0.201356	0.201076	-0.422081	3	0.0210893	11	-8.48703e-05
2	0	0	1	0	3582.86	0.193866	0.193587	-0.46603	3	0.0207492	11	-9.02172e-05
2	0	0	1	0	3583.61	0.186374	0.1861	-0.508823	3	0.0203764	11	-9.46922e-05
2	0	0	1	0	3584.36	0.178884	0.178571	-0.58206	3	0.0199589	11	-0.000103939
2	0	0	1	0	3585.11	0.171392	0.171063	-0.682478	3	0.0194766	11	-0.000116747
2	0	0	1	0	3585.85	0.163901	0.163614	-0.854298	3	0.0188936	11	-0.000139775
2	0	0	1	0	3586.6	0.15641	0.156127	-1.11382	3	0.0181522	11	-0.000173898
2	0	0	1	0	3587.35	0.148919	0.148629	-1.42859	3	0.0171912	11	-0.000212329
2	0	0	1	0	3588.1	0.141429	0.141127	-1.69198	3	0.0160065	11	-0.000238783
2	0	0	1	0	3588.85	0.133937	0.133636	-1.81577	3	0.014674	11	-0.000242653
2	0	0	1	0	3589.6	0.126447	0.126103	-1.76421	3	0.0133135	11	-0.000222472
2	0	0	1	0	3590.35	0.118956	0.118628	-1.60094	3	0.0120379	11	-0.000189916
2	0	0	1	0	3591.1	0.111465	0.111133	-1.40535	3	0.0109033	11	-0.000156181
2	0	0	1	0	3591.85	0.103974	0.103705	-1.26076	3	0.00989999	11	-0.000130747
2	0	0	1	0	3592.6	0.0964829	0.0961536	-1.16291	3	0.00898659	11	-0.000111818
2	0	0	1	0	3593.35	0.0889919	0.0887096	-1.09957	3	0.00813108	11	-9.75422e-05
2	0	0	1	0	3594.09	0.081501	0.0811955	-1.04157	3	0.00731911	11	-8.45705e-05
2	0	0	1	0	3594.84	0.07401	0.0737229	-0.987125	3	0.0065485	11	-7.27737e-05
2	0	0	1	0	3595.59	0.0665191	0.0662406	-0.920212	3	0.00582366	11	-6.09554e-05
2	0	0	1	0	3596.34	0.0590281	0.0587213	-0.862235	3	0.00514622	11	-5.06315e-05
2	0	0	1	0	3597.09	0.0515381	0.0512272	-0.811241	3	0.00451097	11	-4.15576e-05
2	0	0	1	0	3597.84	0.0440462	0.0437706	-0.774861	3	0.0039072	11	-3.39162e-05
2	0	0	1	0	3598.59	0.0365559	0.0362308	-0.757404	3	0.00332334	11	-2.74413e-05
2	0	0	1	0	3599.34	0.0290643	0.0287606	-0.750429	3	0.00274914	11	-2.15828e-05
2	0	0	1	0	3600.09	0.0215736	0.0212598	-0.75266	3	0.0021765	11	-1.60014e-05
2	0	0	1	0	3600.84	0.0140824	0.0138184	-0.762932	3	0.00159952	11	-1.05425e-05
2	0	0	1	0	3601.59	0.00659147	0.006333	-0.776196	3	0.00101373	11	-4.91565e-06
2	0	0	1	0	4773.87	2.44065e-05	-0.000344411	-0.524722	4	0.0000000E+000	11	1.8072e-07
2	1	0	1	0	4774.6	0.00729063	0.00698618	0.399462	4	0.000241949	11	2.79071e-06
2	1	0	1	0	4775.35	0.0147814	0.0144872	0.446147	4	0.000570654	11	6.46343e-06
2	1	0	1	0	4776.1	0.0222725	0.0219782	0.473085	4	0.000926192	11	1.03976e-05
2	1	0	1	0	4776.85	0.0297635	0.0294657	0.498102	4	0.00130063	11	1.46769e-05
2	1	0	1	0	4777.6	0.0372544	0.0369533	0.523031	4	0.00169387	11	1.93277e-05
2	1	0	1	0	4778.34	0.0447458	0.0444517	0.55852	4	0.00210942	11	2.48271e-05
2	1	0	1	0	4779.09	0.0522363	0.0518997	0.602206	4	0.00255411	11	3.12543e-05
2	1	0	1	0	4779.84	0.0597282	0.0594134	0.660937	4	0.00303716	11	3.92685e-05
2	1	0	1	0	4780.59	0.0672182	0.0669564	0.728406	4	0.00356642	11	4.87714e-05
2	1	0	1	0	4781.34	0.0747092	0.0744196	0.794569	4	0.00414639	11	5.91314e-05
2	1	0	1	0	4782.09	0.0822001	0.0818944	0.853964	4	0.00477606	11	6.99348e-05
2	1	0	1	0	4782.84	0.0896911	0.0894126	0.914557	4	0.00544998	11	8.1773e-05
2	1	0	1	0	4783.59	0.097182	0.0968917	0.971293	4	0.00616725	11	9.41102e-05
2	1	0	1	0	4784.34	0.104673	0.104373	1.05482	4	0.00693353	11	0.000110094
2	1	0	1	0	4785.09	0.112164	0.111907	1.16647	4	0.00777103	11	0.000130537
2	1	0	1	0	4785.84	0.119655	0.119367	1.33125	4	0.00871364	11	0.000158907
2	1	0	1	0	4786.58	0.127146	0.126841	1.50925	4	0.00978946	11	0.000191435
2	1	0	1	0	4787.33	0.134637	0.134356	1.67195	4	0.0109964	11	0.000224636
2	1	0	1	0	4788.08	0.142127	0.141818	1.74969	4	0.0122946	11	0.000248137
2	1	0	1	0	4788.83	0.149619	0.149374	1.67033	4	0.0135961	11	0.000249504
2	1	0	1	0	4789.58	0.157109	0.156852	1.41577	4	0.0147706	11	0.000222065
2	1	0	1	0	4790.33	0.164601	0.164347	1.1104	4	0.0157245	11	0.000182491
2	1	0	1	0	4791.08	0.172091	0.171792	0.882006	4	0.0164756	11	0.000151522
2	1	0	1	0	4791.83	0.179582	0.179304	0.751817	4	0.0170946	11	0.000134804
2	1	0	1	0	4792.58	0.187074	0.186769	0.677928	4	0.0176368	11	0.000126616
2	1	0	1	0	4793.33	0.194564	0.194297	0.624476	4	0.0181324	11	0.000121334
2	1	0	1	0	4794.08	0.202056	0.201754	0.592492	4	0.0185974	11	0.000119538
2	1	0	1	0	4794.82	0.209546	0.20927	0.568407	4	0.0190419	11	0.000118951
2	1	0	1	0	4795.57	0.217038	0.216738	0.551359	4	0.0194704	11	0.000119501
2	1	0	1	0	4796.32	0.224528	0.224217	0.536051	4	0.0198879	11	0.000120192
2	1	0	1	0	4797.07	0.232019	0.231724	0.526638	4	0.0202961	11	0.000122035
2	1	0	1	0	4797.82	0.23951	0.239213	0.517586	4	0.0206971	11	0.000123813
2	1	0	1	0	4798.57	0.247001	0.246722	0.509674	4	0.0210917	11	0.000125748
2	1	0	1	0	4799.32	0.254492	0.254227	0.503325	4	0.0214811	11	0.000127959
2	1	0	1	0	4800.07	0.261983	0.261689	0.497282	4	0.0218657	11	0.000130133
2	1	0	1	0	4800.82	0.269474	0.269183	0.491121	4	0.022246	11	0.000132202
2	1	0	1	0	4801.57	0.276965	0.276697	0.486481	4	0.0226225	11	0.000134608
2	1	0	1	0	4802.32	0.284456	0.28419	0.482409	4	0.0229954	11	0.000137096
2	1	0	1	0	4803.06	0.291947	0.29166	0.477354	4	0.0233647	11	0.000139225
2	1	0	1	0	4803.81	0.299437	0.299154	0.470848	4	0.0237308	11	0.000140856
2	0	0	1	0	4804.5	0.293745	0.293461	-0.111889	4	0.0237143	11	-3.28352e-05
2	0	0	1	0	4805.25	0.286253	0.285966	-0.161187	4	0.0235999	11	-4.60939e-05
2	0	0	1	0	4806	0.278763	0.278482	-0.194765	4	0.0234555	11	-5.42385e-05
2	0	0	1	0	4806.75	0.271272	0.270987	-0.22082	4	0.0232894	11	-5.98395e-05
2	0	0	1	0	4807.49	0.263781	0.263455	-0.242403	4	0.0231052	11	-6.38624e-05
2	0	0	1	0	4808.24	0.25629	0.256012	-0.262709	4	0.0229054	11	-6.72566e-05
2	0	0	1	0	4808.99	0.248799	0.248496	-0.281664	4	0.0226911	11	-6.99924e-05
2	0	0	1	0	4809.74	0.241308	0.241054	-0.301049	4	0.022463	11	-7.2569e-05
2	0	0	1	0	4810.49	0.233817	0.233488	-0.31868	4	0.0222214	11	-7.44078e-05
2	0	0	1	0	4811.24	0.226326	0.226057	-0.336172	4	0.0219661	11	-7.5994e-05
2	0	0	1	0	4811.99	0.218835	0.218585	-0.356909	4	0.0216962	11	-7.8015e-05
2	0	0	1	0	4812.74	0.211344	0.21106	-0.37888	4	0.0214108	11	-7.99666e-05
2	0	0	1	0	4813.49	0.203854	0.203558	-0.404685	4	0.0211071	11	-8.23769e-05
2	0	0	1	0	4814.24	0.196362	0.196039	-0.437618	4	0.0207824	11	-8.579e-05
2	0	0	1	0	4814.99	0.188872	0.188583	-0.478757	4	0.0204302	11	-9.02854e-05
2	0	0	1	0	4815.73	0.18138	0.181089	-0.538356	4	0.0200416	11	-9.74904e-05
2	0	0	1	0	4816.48	0.17389	0.173583	-0.62051	4	0.019601	11	-0.00010771
2	0	0	1	0	4817.23	0.166398	0.166115	-0.747719	4	0.0190819	11	-0.000124207
2	0	0	1	0	4817.98	0.158907	0.158602	-0.949964	4	0.018439	11	-0.000150666
2	0	0	1	0	4818.73	0.151417	0.151107	-1.24367	4	0.0176087	11	-0.000187928
2	0	0	1	0	4819.48	0.143925	0.143614	-1.5359	4	0.0165536	11	-0.000220576
2	0	0	1	0	4820.23	0.136435	0.136152	-1.72812	4	0.0153113	11	-0.000235287
2	0	0	1	0	4820.98	0.128943	0.128668	-1.76668	4	0.0139842	11	-0.000227315
2	0	0	1	0	4821.73	0.121453	0.121098	-1.66204	4	0.012684	11	-0.000201269
2	0	0	1	0	4822.48	0.113962	0.113636	-1.48769	4	0.0114897	11	-0.000169055
2	0	0	1	0	4823.23	0.106471	0.106174	-1.32655	4	0.0104257	11	-0.000140845
2	0	0	1	0	4823.97	0.0989799	0.0986795	-1.21596	4	0.00946631	11	-0.00011999
2	0	0	1	0	4824.72	0.0914889	0.0911697	-1.14537	4	0.00857578	11	-0.000104423
2	0	0	1	0	4825.47	0.083998	0.0836971	-1.08745	4	0.00773153	11	-9.10166e-05
2	0	0	1	0	4826.22	0.076507	0.0761841	-1.03598	4	0.00692605	11	-7.89252e-05
2	0	0	1	0	4826.97	0.0690161	0.0687146	-0.972164	4	0.00616259	11	-6.68018e-05
2	0	0	1	0	4827.72	0.0615251	0.0612111	-0.911098	4	0.00544548	11	-5.57693e-05
2	0	0	1	0	4828.47	0.0540342	0.0537162	-0.85154	4	0.0047763	11	-4.57415e-05
2	0	0	1	0	4829.22	0.0465441	0.0462478	-0.803109	4	0.00414725	11	-3.71421e-05
2	0	0	1	0	4829.97	0.0390523	0.0387454	-0.773955	4	0.00354724	11	-2.99871e-05
2	0	0	1	0	4830.72	0.0315618	0.0312561	-0.758057	4	0.00296481	11	-2.36939e-05
2	0	0	1	0	4831.47	0.0240704	0.0238339	-0.749767	4	0.0023899	11	-1.78699e-05
2	0	0	1	0	4832.22	0.0165796	0.0162414	-0.757977	4	0.00181471	11	-1.23106e-05
2	0	0	1	0	4832.96	0.00908846	0.00874539	-0.769534	4	0.00123299	11	-6.72988e-06
2	0	0	1	0	4833.71	0.00159728	0.00127158	-0.793503	4	0.0006389	11	-1.009e-06
2	1	0	1	0	6005.98	0.0047932	0.00449486	0.37462	5	0.000139306	11	1.68387e-06
2	1	0	1	0	6006.73	0.0122846	0.0119987	0.432218	5	0.000456058	11	5.18607e-06
2	1	0	1	0	6007.48	0.0197753	0.0194658	0.468645	5	0.000805722	11	9.12252e-06
2	1	0	1	0	6008.23	0.0272665	0.0269727	0.495908	5	0.00117731	11	1.3376e-05
2	1	0	1	0	6008.97	0.0347577	0.0344561	0.522905	5	0.00156903	11	1.80173e-05
2	1	0	1	0	6009.72	0.0422484	0.0419446	0.559526	5	0.00198473	11	2.34691e-05
2	1	0	1	0	6010.47	0.04974	0.0494658	0.606537	5	0.00243057	11	3.00028e-05
2	1	0	1	0	6011.22	0.0572303	0.056908	0.659287	5	0.00291517	11	3.75187e-05
2	1	0	1	0	6011.97	0.0647221	0.0643921	0.732389	5	0.0034464	11	4.71601e-05
2	1	0	1	0	6012.72	0.0722122	0.0719488	0.797595	5	0.0040288	11	5.7386e-05
2	1	0	1	0	6013.47	0.0797031	0.0794204	0.861484	5	0.00466016	11	6.84194e-05
2	1	0	1	0	6014.22	0.0871941	0.0868963	0.916266	5	0.00533549	11	7.96201e-05
2	1	0	1	0	6014.97	0.0946851	0.094387	0.970541	5	0.00605136	11	9.16064e-05
2	1	0	1	0	6015.72	0.102176	0.101846	1.03528	5	0.00681226	11	0.000105439
2	1	0	1	0	6016.47	0.109667	0.10936	1.14267	5	0.00763691	11	0.000124962
2	1	0	1	0	6017.21	0.117158	0.116861	1.2885	5	0.00855605	11	0.000150576
2	1	0	1	0	6017.96	0.124649	0.124334	1.46015	5	0.00959552	11	0.000181547
2	1	0	1	0	6018.71	0.13214	0.131824	1.60752	5	0.0107555	11	0.000211908
2	1	0	1	0	6019.46	0.139631	0.139354	1.69432	5	0.0120085	11	0.000236109
2	1	0	1	0	6020.21	0.147121	0.14683	1.65868	5	0.0132872	11	0.000243544
2	1	0	1	0	6020.96	0.154613	0.154321	1.44678	5	0.014472	11	0.000223268
2	1	0	1	0	6021.71	0.162103	0.161846	1.14577	5	0.0154535	11	0.000185438
2	1	0	1	0	6022.46	0.169595	0.169304	0.908372	5	0.0162252	11	0.000153791
2	1	0	1	0	6023.21	0.177085	0.176786	0.7602	5	0.0168537	11	0.000134393
2	1	0	1	0	6023.96	0.184576	0.184318	0.672811	5	0.0173988	11	0.000124011
2	1	0	1	0	6024.71	0.192068	0.19177	0.623656	5	0.0178944	11	0.000119598
2	1	0	1	0	6025.45	0.199558	0.19923	0.590827	5	0.0183592	11	0.000117711
2	1	0	1	0	6026.2	0.20705	0.206735	0.574233	5	0.0188026	11	0.000118714
2	1	0	1	0	6026.95	0.21454	0.214208	0.549371	5	0.019231	11	0.00011768
2	1	0	1	0	6027.7	0.222032	0.221742	0.53762	5	0.0196477	11	0.000119213
2	1	0	1	0	6028.45	0.229522	0.229241	0.521467	5	0.020055	11	0.000119542
2	1	0	1	0	6029.2	0.237013	0.236766	0.516511	5	0.0204552	11	0.000122292
2	1	0	1	0	6029.95	0.244504	0.244218	0.509151	5	0.0208494	11	0.000124344
2	1	0	1	0	6030.7	0.251995	0.251723	0.503415	5	0.0212386	11	0.000126721
2	1	0	1	0	6031.45	0.259486	0.259253	0.495011	5	0.0216232	11	0.000128333
2	1	0	1	0	6032.2	0.266977	0.26668	0.491666	5	0.0220034	11	0.000131117
2	1	0	1	0	6032.95	0.274468	0.274158	0.48524	5	0.0223799	11	0.000133032
2	1	0	1	0	6033.69	0.281959	0.281694	0.482081	5	0.0227529	11	0.000135799
2	1	0	1	0	6034.44	0.28945	0.289178	0.477592	5	0.0231227	11	0.000138109
2	1	0	1	0	6035.19	0.296941	0.296693	0.473258	5	0.0234892	11	0.000140412
2	0	0	1	0	6035.88	0.296241	0.295949	-0.0896421	5	0.0236223	11	-2.65295e-05
2	0	0	1	0	6036.63	0.288751	0.288444	-0.148651	5	0.0235204	11	-4.28775e-05
2	0	0	1	0	6037.38	0.28126	0.280961	-0.186672	5	0.0233838	11	-5.24477e-05
2	0	0	1	0	6038.12	0.273769	0.27348	-0.209296	5	0.023224	11	-5.72383e-05
2	0	0	1	0	6038.87	0.266278	0.265975	-0.236513	5	0.0230454	11	-6.29065e-05
2	0	0	1	0	6039.62	0.258787	0.258507	-0.255902	5	0.0228506	11	-6.61525e-05
2	0	0	1	0	6040.37	0.251296	0.250958	-0.276198	5	0.0226411	11	-6.93142e-05
2	0	0	1	0	6041.12	0.243805	0.24348	-0.291259	5	0.0224178	11	-7.09158e-05
2	0	0	1	0	6041.87	0.236314	0.235989	-0.312672	5	0.0221814	11	-7.37872e-05
2	0	0	1	0	6042.62	0.228823	0.228523	-0.325273	5	0.0219318	11	-7.43323e-05
2	0	0	1	0	6043.37	0.221332	0.221058	-0.348161	5	0.0216685	11	-7.69637e-05
2	0	0	1	0	6044.12	0.213841	0.213497	-0.368568	5	0.0213904	11	-7.86883e-05
2	0	0	1	0	6044.87	0.20635	0.206046	-0.392251	5	0.021096	11	-8.08216e-05
2	0	0	1	0	6045.62	0.19886	0.198561	-0.418649	5	0.0207829	11	-8.31274e-05
2	0	0	1	0	6046.36	0.191368	0.191116	-0.453094	5	0.0204465	11	-8.65937e-05
2	0	0	1	0	6047.11	0.183878	0.183618	-0.498468	5	0.0200802	11	-9.15276e-05
2	0	0	1	0	6047.86	0.176386	0.176083	-0.565438	5	0.0196717	11	-9.9564e-05
2	0	0	1	0	6048.61	0.168895	0.168598	-0.670816	5	0.0192014	11	-0.000113098
2	0	0	1	0	6049.36	0.161404	0.16109	-0.83002	5	0.018634	11	-0.000133708
2	0	0	1	0	6050.11	0.153913	0.153629	-1.08168	5	0.017913	11	-0.000166178
2	0	0	1	0	6050.86	0.146423	0.146106	-1.37719	5	0.0169828	11	-0.000201216
2	0	0	1	0	6051.61	0.138931	0.138651	-1.61747	5	0.0158439	11	-0.000224263
2	0	0	1	0	6052.36	0.131441	0.131115	-1.72273	5	0.0145724	11	-0.000225877
2	0	0	1	0	6053.11	0.12395	0.123635	-1.6896	5	0.013277	11	-0.000208894
2	0	0	1	0	6053.86	0.116459	0.116136	-1.56202	5	0.012046	11	-0.000181407
2	0	0	1	0	6054.6	0.108968	0.108665	-1.40276	5	0.0109277	11	-0.000152431
2	0	0	1	0	6055.35	0.101477	0.101145	-1.2648	5	0.00992007	11	-0.000127928
2	0	0	1	0	6056.1	0.0939859	0.0936702	-1.18174	5	0.00899582	11	-0.000110694
2	0	0	1	0	6056.85	0.0864949	0.0861678	-1.12087	5	0.00812465	11	-9.65826e-05
2	0	0	1	0	6057.6	0.079004	0.0786612	-1.07376	5	0.00729368	11	-8.44632e-05
2	0	0	1	0	6058.35	0.071513	0.0711726	-1.02004	5	0.00650007	11	-7.2599e-05
2	0	0	1	0	6059.1	0.0640221	0.0637444	-0.956898	5	0.00574895	11	-6.09969e-05
2	0	0	1	0	6059.85	0.0565311	0.056224	-0.888149	5	0.00504538	11	-4.99353e-05
2	0	0	1	0	6060.6	0.0490402	0.0487089	-0.836188	5	0.00438784	11	-4.07298e-05
2	0	0	1	0	6061.35	0.0415499	0.0412219	-0.794941	5	0.00376735	11	-3.2769e-05
2	0	0	1	0	6062.1	0.0340583	0.0337583	-0.771417	5	0.003172	11	-2.60417e-05
2	0	0	1	0	6062.84	0.0265678	0.0262426	-0.757911	5	0.00259055	11	-1.98896e-05
2	0	0	1	0	6063.59	0.0190764	0.0187079	-0.759265	5	0.00201358	11	-1.42043e-05
2	0	0	1	0	6064.34	0.0115854	0.0113094	-0.760203	5	0.00143425	11	-8.59742e-06
2	0	0	1	0	6065.09	0.00409449	0.00379436	-0.777115	5	0.000846741	11	-2.94865e-06
2	1	0	1	0	7237.36	0.00229666	0.00200227	0.355176	6	4.78927e-05	11	7.11159e-07
2	1	0	1	0	7238.11	0.00978717	0.00951572	0.419852	6	0.000347066	11	3.99519e-06
2	1	0	1	0	7238.85	0.0172786	0.017006	0.45875	6	0.000687048	11	7.80148e-06
2	1	0	1	0	7239.6	0.0247695	0.0244818	0.484724	6	0.00105172	11	1.18669e-05
2	1	0	1	0	7240.35	0.0322605	0.0319757	0.517475	6	0.00143876	11	1.65466e-05
2	1	0	1	0	7241.1	0.0397519	0.0394544	0.555061	6	0.00185112	11	2.18996e-05
2	1	0	1	0	7241.85	0.0472424	0.046919	0.60438	6	0.00229519	11	2.83569e-05
2	1	0	1	0	7242.6	0.054734	0.054437	0.662804	6	0.00277867	11	3.60811e-05
2	1	0	1	0	7243.35	0.0622243	0.061928	0.731	6	0.00330912	11	4.52693e-05
2	1	0	1	0	7244.1	0.0697152	0.0694409	0.790482	6	0.00388998	11	5.48918e-05
2	1	0	1	0	7244.85	0.0772062	0.0769465	0.854288	6	0.00451871	11	6.57344e-05
2	1	0	1	0	7245.6	0.0846971	0.0844372	0.91201	6	0.00519061	11	7.70076e-05
2	1	0	1	0	7246.35	0.0921881	0.0919088	0.964445	6	0.00590168	11	8.8641e-05
2	1	0	1	0	7247.09	0.099679	0.0994038	1.02571	6	0.00665467	11	0.00010196
2	1	0	1	0	7247.84	0.10717	0.106913	1.12055	6	0.00746616	11	0.000119801
2	1	0	1	0	7248.59	0.114661	0.114354	1.24967	6	0.00836326	11	0.000142905
2	1	0	1	0	7249.34	0.122152	0.121884	1.40456	6	0.00937021	11	0.000171194
2	1	0	1	0	7250.09	0.129643	0.129349	1.54488	6	0.0104863	11	0.000199828
2	1	0	1	0	7250.84	0.137134	0.13685	1.63979	6	0.0116924	11	0.000224405
2	1	0	1	0	7251.59	0.144625	0.144318	1.63525	6	0.0129367	11	0.000235996
2	1	0	1	0	7252.34	0.152115	0.151812	1.45206	6	0.0141132	11	0.00022044
2	1	0	1	0	7253.09	0.159607	0.159279	1.1581	6	0.015103	11	0.00018446
2	1	0	1	0	7253.84	0.167097	0.166784	0.912091	6	0.0158829	11	0.000152122
2	1	0	1	0	7254.59	0.174589	0.174284	0.760033	6	0.0165145	11	0.000132462
2	1	0	1	0	7255.33	0.182079	0.18176	0.675438	6	0.0170592	11	0.000122768
2	1	0	1	0	7256.08	0.18957	0.189239	0.621426	6	0.0175533	11	0.000117598
2	1	0	1	0	7256.83	0.197062	0.196754	0.587407	6	0.0180159	11	0.000115575
2	1	0	1	0	7257.58	0.204552	0.204257	0.565508	6	0.0184571	11	0.000115509
2	1	0	1	0	7258.33	0.212044	0.211792	0.547155	6	0.0188839	11	0.000115883
2	1	0	1	0	7259.08	0.219534	0.219263	0.536422	6	0.0192992	11	0.000117617
2	1	0	1	0	7259.83	0.227025	0.226763	0.525828	6	0.0197059	11	0.000119238
2	1	0	1	0	7260.58	0.234516	0.234227	0.51451	6	0.0201054	11	0.000120512
2	1	0	1	0	7261.33	0.242007	0.241707	0.505241	6	0.0204991	11	0.00012212
2	1	0	1	0	7262.08	0.249498	0.249193	0.501349	6	0.0208878	11	0.000124933
2	1	0	1	0	7262.83	0.256989	0.256703	0.496912	6	0.021272	11	0.000127559
2	1	0	1	0	7263.57	0.26448	0.26422	0.491476	6	0.0216524	11	0.000129858
2	1	0	1	0	7264.32	0.271971	0.271716	0.486732	6	0.022029	11	0.000132253
2	1	0	1	0	7265.07	0.279462	0.2792	0.481629	6	0.0224021	11	0.000134471
2	1	0	1	0	7265.82	0.286953	0.286656	0.47442	6	0.0227719	11	0.000135995
2	1	0	1	0	7266.57	0.294444	0.294138	0.472743	6	0.0231384	11	0.000139052
2	0	0	1	0	7267.26	0.298739	0.298493	-0.0375909	6	0.0234117	11	-1.12206e-05
2	0	0	1	0	7268.01	0.291247	0.290946	-0.13305	6	0.0233293	11	-3.87105e-05
2	0	0	1	0	7268.75	0.283757	0.283454	-0.171885	6	0.0232034	11	-4.87215e-05
2	0	0	1	0	7269.5	0.276266	0.275947	-0.204394	6	0.0230517	11	-5.64018e-05
2	0	0	1	0	7270.25	0.268775	0.26848	-0.22431	6	0.0228799	11	-6.02227e-05
2	0	0	1	0	7271	0.261284	0.261012	-0.245683	6	0.0226916	11	-6.41263e-05
2	0	0	1	0	7271.75	0.253793	0.25349	-0.268998	6	0.0224883	11	-6.81883e-05
2	0	0	1	0	7272.5	0.246302	0.246013	-0.284113	6	0.0222711	11	-6.98957e-05
2	0	0	1	0	7273.25	0.238811	0.238529	-0.30287	6	0.0220406	11	-7.22433e-05
2	0	0	1	0	7274	0.23132	0.231016	-0.319112	6	0.0217973	11	-7.37201e-05
2	0	0	1	0	7274.75	0.223829	0.223553	-0.337359	6	0.0215409	11	-7.54176e-05
2	0	0	1	0	7275.5	0.216338	0.216037	-0.353426	6	0.0212707	11	-7.63531e-05
2	0	0	1	0	7276.25	0.208848	0.208525	-0.3758	6	0.020986	11	-7.83636e-05
2	0	0	1	0	7276.99	0.201356	0.201037	-0.403108	6	0.0206839	11	-8.10397e-05
2	0	0	1	0	7277.74	0.193866	0.193537	-0.434434	6	0.020362	11	-8.40789e-05
2	0	0	1	0	7278.49	0.186374	0.186066	-0.471579	6	0.0200147	11	-8.77445e-05
2	0	0	1	0	7279.24	0.178884	0.178577	-0.524493	6	0.0196334	11	-9.36624e-05
2	0	0	1	0	7279.99	0.171392	0.171096	-0.597947	6	0.0192037	11	-0.000102306
2	0	0	1	0	7280.74	0.163901	0.163596	-0.727233	6	0.0186989	11	-0.000118972
2	0	0	1	0	7281.49	0.15641	0.156097	-0.928761	6	0.0180742	11	-0.000144977
2	0	0	1	0	7282.24	0.148919	0.148618	-1.20908	6	0.0172677	11	-0.000179692
2	0	0	1	0	7282.99	0.141429	0.141159	-1.48254	6	0.0162469	11	-0.000209275
2	0	0	1	0	7283.74	0.133937	0.133677	-1.65009	6	0.015055	11	-0.000220578
2	0	0	1	0	7284.49	0.126447	0.126154	-1.66577	6	0.0137924	11	-0.000210143
2	0	0	1	0	7285.23	0.118956	0.118649	-1.59157	6	0.0125556	11	-0.000188838
2	0	0	1	0	7285.98	0.111465	0.111168	-1.45815	6	0.0114021	11	-0.0001621
2	0	0	1	0	7286.73	0.103974	0.103689	-1.31938	6	0.0103545	11	-0.000136805
2	0	0	1	0	7287.48	0.0964829	0.0961727	-1.21636	6	0.0093982	11	-0.00011698
2	0	0	1	0	7288.23	0.0889919	0.0886597	-1.14683	6	0.00850522	11	-0.000101678
2	0	0	1	0	7288.98	0.081501	0.0811765	-1.09332	6	0.00765588	11	-8.87521e-05
2	0	0	1	0	7289.73	0.07401	0.0737218	-1.05244	6	0.00684154	11	-7.75877e-05
2	0	0	1	0	7290.48	0.0665191	0.0662226	-0.995902	6	0.00606434	11	-6.59513e-05
2	0	0	1	0	7291.23	0.0590281	0.0587139	-0.936581	6	0.00533013	11	-5.49903e-05
2	0	0	1	0	7291.98	0.0515381	0.0512272	-0.871066	6	0.00464277	11	-4.46223e-05
2	0	0	1	0	7292.73	0.0440462	0.0437356	-0.821927	6	0.00399849	11	-3.59475e-05
2	0	0	1	0	7293.47	0.0365559	0.0362603	-0.78549	6	0.00338734	11	-2.84821e-05
2	0	0	1	0	7294.22	0.0290643	0.0287627	-0.766823	6	0.00279718	11	-2.20559e-05
2	0	0	1	0	7294.97	0.0215736	0.0212689	-0.757954	6	0.00221725	11	-1.61208e-05
2	0	0	1	0	7295.72	0.0140824	0.0137802	-0.761708	6	0.00163894	11	-1.04965e-05
2	0	0	1	0	7296.47	0.00659147	0.00625452	-0.769046	6	0.00105568	11	-4.81002e-06
2	0	0	1	0	8468.76	2.44065e-05	-0.000268062	-0.553494	7	0.0000000E+000	11	1.4837e-07
2	1	0	1	0	8469.48	0.00729063	0.00698194	0.390033	7	0.000228627	11	2.72319e-06
2	1	0	1	0	8470.23	0.0147814	0.014482	0.441443	7	0.000552177	11	6.39299e-06
2	1	0	1	0	8470.98	0.0222725	0.0219973	0.476401	7	0.00090659	11	1.04795e-05
2	1	0	1	0	8471.73	0.0297635	0.0294596	0.511642	7	0.00128599	11	1.50728e-05
2	1	0	1	0	8472.48	0.0372544	0.036931	0.546315	7	0.00169212	11	2.0176e-05
2	1	0	1	0	8473.23	0.0447458	0.0444559	0.59732	7	0.00213026	11	2.65544e-05
2	1	0	1	0	8473.98	0.0522363	0.0519347	0.6527	7	0.00260803	11	3.38978e-05
2	1	0	1	0	8474.73	0.0597282	0.0594505	0.721137	7	0.0031326	11	4.2872e-05
2	1	0	1	0	8475.48	0.0672182	0.0669193	0.785818	7	0.00370685	11	5.25864e-05
2	1	0	1	0	8476.23	0.0747092	0.0744005	0.845211	7	0.0043276	11	6.28841e-05
2	1	0	1	0	8476.98	0.0822001	0.0819018	0.89112	7	0.00499021	11	7.29843e-05
2	1	0	1	0	8477.72	0.0896911	0.0893723	0.947053	7	0.00568999	11	8.46403e-05
2	1	0	1	0	8478.47	0.097182	0.0968673	1.00215	7	0.00642957	11	9.70755e-05
2	1	0	1	0	8479.22	0.104673	0.10441	1.09235	7	0.00722118	11	0.000114052
2	1	0	1	0	8479.97	0.112164	0.111866	1.20976	7	0.00808997	11	0.000135331
2	1	0	1	0	8480.72	0.119655	0.119369	1.34693	7	0.00905674	11	0.000160781
2	1	0	1	0	8481.47	0.127146	0.126852	1.46108	7	0.0101219	11	0.000185342
2	1	0	1	0	8482.22	0.134637	0.134346	1.56194	7	0.0112703	11	0.000209841
2	1	0	1	0	8482.97	0.142127	0.141802	1.58974	7	0.0124687	11	0.000225429
2	1	0	1	0	8483.72	0.149619	0.149361	1.46027	7	0.013632	11	0.000218107
2	1	0	1	0	8484.47	0.157109	0.1568	1.18855	7	0.0146371	11	0.000186364
2	1	0	1	0	8485.22	0.164601	0.164304	0.937746	7	0.015437	11	0.000154075
2	1	0	1	0	8485.96	0.172091	0.171803	0.773404	7	0.0160829	11	0.000132873
2	1	0	1	0	8486.71	0.179582	0.179315	0.684257	7	0.0166374	11	0.000122698
2	1	0	1	0	8487.46	0.187074	0.186802	0.632654	7	0.0171389	11	0.000118181
2	1	0	1	0	8488.21	0.194564	0.19428	0.595429	7	0.0176074	11	0.00011568
2	1	0	1	0	8488.96	0.202056	0.201779	0.571556	7	0.0180541	11	0.000115328
2	1	0	1	0	8489.71	0.209546	0.209256	0.553426	7	0.0184854	11	0.000115807
2	1	0	1	0	8490.46	0.217038	0.21673	0.538692	7	0.0189046	11	0.000116751
2	1	0	1	0	8491.21	0.224528	0.224233	0.530122	7	0.019315	11	0.000118871
2	1	0	1	0	8491.96	0.232019	0.231758	0.520596	7	0.0197178	11	0.000120652
2	1	0	1	0	8492.71	0.23951	0.239214	0.512839	7	0.0201146	11	0.000122678
2	1	0	1	0	8493.46	0.247001	0.246708	0.506739	7	0.0205059	11	0.000125017
2	1	0	1	0	8494.2	0.254492	0.254238	0.499584	7	0.0208925	11	0.000127013
2	1	0	1	0	8494.95	0.261983	0.261704	0.49394	7	0.0212747	11	0.000129266
2	1	0	1	0	8495.7	0.269474	0.269152	0.489711	7	0.0216533	11	0.000131807
2	1	0	1	0	8496.45	0.276965	0.276666	0.48347	7	0.0220281	11	0.00013376
2	1	0	1	0	8497.2	0.284456	0.284145	0.481015	7	0.0223996	11	0.000136678
2	1	0	1	0	8497.95	0.291947	0.291652	0.474136	7	0.0227676	11	0.000138283
2	1	0	1	0	8498.7	0.299437	0.299161	0.47064	7	0.0231324	11	0.000140797
2	0	0	1	0	8499.38	0.293745	0.293455	-0.107838	7	0.0231206	11	-3.16456e-05
2	0	0	1	0	8500.13	0.286253	0.285936	-0.155727	7	0.0230099	11	-4.45278e-05
2	0	0	1	0	8500.88	0.278763	0.278496	-0.189141	7	0.022869	11	-5.26749e-05
2	0	0	1	0	8501.63	0.271272	0.270973	-0.217699	7	0.0227064	11	-5.89907e-05
2	0	0	1	0	8502.38	0.263781	0.26347	-0.237704	7	0.0225258	11	-6.2628e-05
2	0	0	1	0	8503.13	0.25629	0.255974	-0.258549	7	0.0223296	11	-6.61819e-05
2	0	0	1	0	8503.88	0.248799	0.248503	-0.276226	7	0.0221193	11	-6.86432e-05
2	0	0	1	0	8504.63	0.241308	0.241	-0.292646	7	0.0218959	11	-7.05277e-05
2	0	0	1	0	8505.38	0.233817	0.233514	-0.310651	7	0.0216596	11	-7.25416e-05
2	0	0	1	0	8506.13	0.226326	0.226016	-0.329885	7	0.0214103	11	-7.45594e-05
2	0	0	1	0	8506.87	0.218835	0.218548	-0.345862	7	0.0211479	11	-7.55875e-05
2	0	0	1	0	8507.62	0.211344	0.21106	-0.365687	7	0.0208716	11	-7.71821e-05
2	0	0	1	0	8508.37	0.203854	0.20354	-0.38625	7	0.0205797	11	-7.86173e-05
2	0	0	1	0	8509.12	0.196362	0.196062	-0.412422	7	0.0202705	11	-8.08602e-05
2	0	0	1	0	8509.87	0.188872	0.188527	-0.445134	7	0.0199394	11	-8.39198e-05
2	0	0	1	0	8510.62	0.18138	0.181047	-0.487439	7	0.0195803	11	-8.82491e-05
2	0	0	1	0	8511.37	0.17389	0.173607	-0.551837	7	0.0191825	11	-9.58026e-05
2	0	0	1	0	8512.12	0.166398	0.166075	-0.643453	7	0.0187272	11	-0.000106861
2	0	0	1	0	8512.87	0.158907	0.158578	-0.796598	7	0.0181815	11	-0.000126323
2	0	0	1	0	8513.62	0.151417	0.151123	-1.0299	7	0.0174914	11	-0.000155641
2	0	0	1	0	8514.37	0.143925	0.143615	-1.31106	7	0.0166043	11	-0.000188287
2	0	0	1	0	8515.11	0.136435	0.13612	-1.53273	7	0.0155222	11	-0.000208636
2	0	0	1	0	8515.86	0.128943	0.128639	-1.62482	7	0.0143225	11	-0.000209016
2	0	0	1	0	8516.61	0.121453	0.121181	-1.59467	7	0.0131017	11	-0.000193244
2	0	0	1	0	8517.36	0.113962	0.11367	-1.49325	7	0.0119307	11	-0.000169738
2	0	0	1	0	8518.11	0.106471	0.106166	-1.3724	7	0.0108445	11	-0.000145702
2	0	0	1	0	8518.86	0.0989799	0.0986785	-1.26222	7	0.00984934	11	-0.000124554
2	0	0	1	0	8519.61	0.0914889	0.0911761	-1.18453	7	0.0089267	11	-0.000108001
2	0	0	1	0	8520.36	0.083998	0.0837098	-1.12506	7	0.00805415	11	-9.41787e-05
2	0	0	1	0	8521.11	0.076507	0.0761894	-1.0805	7	0.00721833	11	-8.23225e-05
2	0	0	1	0	8521.86	0.0690161	0.068704	-1.02879	7	0.00641723	11	-7.06817e-05
2	0	0	1	0	8522.61	0.0615251	0.0612504	-0.976267	7	0.00565338	11	-5.97967e-05
2	0	0	1	0	8523.35	0.0540342	0.0537596	-0.918623	7	0.00493349	11	-4.93849e-05
2	0	0	1	0	8524.1	0.0465441	0.0462253	-0.856758	7	0.00425879	11	-3.96039e-05
2	0	0	1	0	8524.85	0.0390523	0.0387507	-0.814301	7	0.00362341	11	-3.15547e-05
2	0	0	1	0	8525.6	0.0315618	0.0312465	-0.782743	7	0.00301763	11	-2.4458e-05
2	0	0	1	0	8526.35	0.0240704	0.0238435	-0.761866	7	0.00242981	11	-1.81655e-05
2	0	0	1	0	8527.1	0.0165796	0.0162673	-0.760869	7	0.00184955	11	-1.23773e-05
2	0	0	1	0	8527.85	0.00908846	0.00880796	-0.765122	7	0.00126861	11	-6.73917e-06
2	0	0	1	0	8528.6	0.00159728	0.00122062	-0.788368	7	0.000678947	11	-9.62299e-07
2	1	0	1	0	9700.86	0.0047932	0.00450978	0.373436	8	0.000137229	11	1.68411e-06
2	1	0	1	0	9701.61	0.0122846	0.0119754	0.431034	8	0.000452256	11	5.16181e-06
2	1	0	1	0	9702.36	0.0197753	0.0194436	0.474559	8	0.000803613	11	9.22714e-06
2	1	0	1	0	9703.11	0.0272665	0.0269823	0.510092	8	0.00118199	11	1.37634e-05
2	1	0	1	0	9703.86	0.0347577	0.0344508	0.548955	8	0.00158832	11	1.89119e-05
2	1	0	1	0	9704.61	0.0422484	0.041951	0.597395	8	0.00202741	11	2.50613e-05
2	1	0	1	0	9705.36	0.04974	0.0494488	0.656299	8	0.00250547	11	3.24532e-05
2	1	0	1	0	9706.11	0.0572303	0.0569144	0.713806	8	0.00302869	11	4.06258e-05
2	1	0	1	0	9706.86	0.0647221	0.0644505	0.781954	8	0.00360002	11	5.03973e-05
2	1	0	1	0	9707.6	0.0722122	0.0718947	0.839933	8	0.00421797	11	6.03867e-05
2	1	0	1	0	9708.35	0.0797031	0.0793621	0.893377	8	0.00487716	11	7.09003e-05
2	1	0	1	0	9709.1	0.0871941	0.0868995	0.940425	8	0.00557387	11	8.17225e-05
2	1	0	1	0	9709.85	0.0946851	0.0943658	0.994384	8	0.00630806	11	9.38358e-05
2	1	0	1	0	9710.6	0.102176	0.10187	1.07107	8	0.00709029	11	0.00010911
2	1	0	1	0	9711.35	0.109667	0.109357	1.1846	8	0.00794401	11	0.000129544
2	1	0	1	0	9712.1	0.117158	0.116844	1.31226	8	0.00888922	11	0.00015333
2	1	0	1	0	9712.85	0.124649	0.124338	1.43298	8	0.00992789	11	0.000178175
2	1	0	1	0	9713.6	0.13214	0.131813	1.53101	8	0.0110486	11	0.000201807
2	1	0	1	0	9714.35	0.139631	0.139319	1.57049	8	0.0122263	11	0.000218799
2	1	0	1	0	9715.1	0.147121	0.146844	1.48045	8	0.0133913	11	0.000217395
2	1	0	1	0	9715.84	0.154613	0.154321	1.22501	8	0.0144221	11	0.000189046
2	1	0	1	0	9716.59	0.162103	0.161808	0.964057	8	0.0152483	11	0.000155993
2	1	0	1	0	9717.34	0.169595	0.169333	0.789612	8	0.0159083	11	0.000133708
2	1	0	1	0	9718.09	0.177085	0.176805	0.688186	8	0.0164677	11	0.000121675
2	1	0	1	0	9718.84	0.184576	0.184295	0.626288	8	0.0169697	11	0.000115421
2	1	0	1	0	9719.59	0.192068	0.19178	0.594585	8	0.0174369	11	0.00011403
2	1	0	1	0	9720.34	0.199558	0.199273	0.568317	8	0.0178819	11	0.00011325
2	1	0	1	0	9721.09	0.20705	0.206761	0.559893	8	0.0183113	11	0.000115764
2	1	0	1	0	9721.84	0.21454	0.214227	0.537012	8	0.0187294	11	0.000115042
2	1	0	1	0	9722.59	0.222032	0.22174	0.529235	8	0.0191383	11	0.000117352
2	1	0	1	0	9723.34	0.229522	0.229241	0.516297	8	0.0195398	11	0.000118357
2	1	0	1	0	9724.08	0.237013	0.236734	0.509658	8	0.0199354	11	0.000120653
2	1	0	1	0	9724.83	0.244504	0.244211	0.505384	8	0.0203259	11	0.00012342
2	1	0	1	0	9725.58	0.251995	0.251707	0.49816	8	0.020712	11	0.00012539
2	1	0	1	0	9726.33	0.259486	0.2592	0.493875	8	0.0210942	11	0.000128012
2	1	0	1	0	9727.08	0.266977	0.26668	0.490336	8	0.0214725	11	0.000130763
2	1	0	1	0	9727.83	0.274468	0.274163	0.482728	8	0.0218474	11	0.000132346
2	1	0	1	0	9728.58	0.281959	0.281697	0.480909	8	0.0222189	11	0.000135471
2	1	0	1	0	9729.33	0.28945	0.289132	0.475527	8	0.0225874	11	0.00013749
2	1	0	1	0	9730.08	0.296941	0.296696	0.471467	8	0.0229528	11	0.000139882
2	0	0	1	0	9730.76	0.296241	0.295949	-0.0876155	8	0.0230855	11	-2.59298e-05
2	0	0	1	0	9731.51	0.288751	0.288436	-0.14701	8	0.022985	11	-4.24031e-05
2	0	0	1	0	9732.26	0.28126	0.280971	-0.18513	8	0.02285	11	-5.20161e-05
2	0	0	1	0	9733.01	0.273769	0.273441	-0.205312	8	0.0226916	11	-5.61407e-05
2	0	0	1	0	9733.76	0.266278	0.265983	-0.233601	8	0.0225146	11	-6.2134e-05
2	0	0	1	0	9734.51	0.258787	0.258511	-0.253477	8	0.0223218	11	-6.55266e-05
2	0	0	1	0	9735.26	0.251296	0.250993	-0.27344	8	0.0221144	11	-6.86316e-05
2	0	0	1	0	9736.01	0.243805	0.243542	-0.287373	8	0.0218936	11	-6.99873e-05
2	0	0	1	0	9736.76	0.236314	0.236045	-0.308086	8	0.0216603	11	-7.27221e-05
2	0	0	1	0	9737.5	0.228823	0.228554	-0.319195	8	0.0214146	11	-7.29532e-05
2	0	0	1	0	9738.25	0.221332	0.221021	-0.340646	8	0.0211562	11	-7.52898e-05
2	0	0	1	0	9739	0.213841	0.213496	-0.358195	8	0.0208844	11	-7.64733e-05
2	0	0	1	0	9739.75	0.20635	0.206053	-0.380632	8	0.0205981	11	-7.84305e-05
2	0	0	1	0	9740.5	0.19886	0.198562	-0.400841	8	0.0202958	11	-7.95918e-05
2	0	0	1	0	9741.25	0.191368	0.191081	-0.431473	8	0.0199744	11	-8.24463e-05
2	0	0	1	0	9742	0.183878	0.183539	-0.464423	8	0.0196291	11	-8.52397e-05
2	0	0	1	0	9742.75	0.176386	0.176054	-0.517936	8	0.0192515	11	-9.11848e-05
2	0	0	1	0	9743.5	0.168895	0.168603	-0.592914	8	0.0188275	11	-9.99669e-05
2	0	0	1	0	9744.25	0.161404	0.161079	-0.713775	8	0.0183311	11	-0.000114974
2	0	0	1	0	9745	0.153913	0.15355	-0.908514	8	0.0177188	11	-0.000139502
2	0	0	1	0	9745.74	0.146423	0.1461	-1.17324	8	0.0169318	11	-0.00017141
2	0	0	1	0	9746.49	0.138931	0.138606	-1.43297	8	0.0159404	11	-0.000198619
2	0	0	1	0	9747.24	0.131441	0.1311	-1.58255	8	0.0147918	11	-0.000207473
2	0	0	1	0	9747.99	0.12395	0.123672	-1.60089	8	0.0135826	11	-0.000197986
2	0	0	1	0	9748.74	0.116459	0.116123	-1.53228	8	0.0123971	11	-0.000177934
2	0	0	1	0	9749.49	0.108968	0.108673	-1.41999	8	0.0112812	11	-0.000154314
2	0	0	1	0	9750.24	0.101477	0.101138	-1.30085	8	0.0102508	11	-0.000131565
2	0	0	1	0	9750.99	0.0939859	0.0937031	-1.2136	8	0.00930069	11	-0.000113718
2	0	0	1	0	9751.74	0.0864949	0.0861466	-1.14544	8	0.0084082	11	-9.86755e-05
2	0	0	1	0	9752.49	0.079004	0.0787121	-1.10232	8	0.00755713	11	-8.67663e-05
2	0	0	1	0	9753.24	0.071513	0.0712129	-1.05656	8	0.00673954	11	-7.52408e-05
2	0	0	1	0	9753.98	0.0640221	0.0636564	-1.00933	8	0.00595639	11	-6.42506e-05
2	0	0	1	0	9754.73	0.0565311	0.0561827	-0.945197	8	0.00521268	11	-5.31037e-05
2	0	0	1	0	9755.48	0.0490402	0.0487471	-0.89277	8	0.00451254	11	-4.35199e-05
2	0	0	1	0	9756.23	0.0415499	0.0412445	-0.838964	8	0.00385426	11	-3.46026e-05
2	0	0	1	0	9756.98	0.0340583	0.0337445	-0.802734	8	0.00323	11	-2.70878e-05
2	0	0	1	0	9757.73	0.0265678	0.0262648	-0.778361	8	0.00262959	11	-2.04435e-05
2	0	0	1	0	9758.48	0.0190764	0.0187503	-0.766567	8	0.0020425	11	-1.43734e-05
2	0	0	1	0	9759.23	0.0115854	0.0112756	-0.764058	8	0.00145919	11	-8.61521e-06
2	0	0	1	0	9759.98	0.00409449	0.00381556	-0.773905	8	0.000872051	11	-2.95288e-06
2	0	0	0	0	9760.38	-2.44065e-05	-0.000306236	-0.789435	8	0.000546661	11	2.41754e-07