File: Figure_codes/Fig_3-5/rawdata_trumpetplot_data/before 10th/20221101_1-115_002_TrumpetPlot_ParaChange_09_CV_C01_5.csv
mode,ox/red,error,control changes,counter inc.,time/s,control/V,Ewe/V,<I>/mA,cycle number,(Q-Qo)/C,I Range,P/W,log(|I|),Tafel slope mV/dec,alpha_eff,dI/d(E-IR),E-IR/V,
2,0,0,1,0,7342.43,2.44065e-05,-0.000153538,-4.20803,6,0.0000000E+000,11,6.46091e-07,-2.37592, , , ,-0.000153538,
2,0,0,1,0,7342.45,0.0013005,0.00095855,-0.983571,6,-5.09509e-05,11,-9.42802e-07,-3.00719, , , ,0.00095855,
2,1,0,1,0,7342.48,0.00279471,0.00245988,0.825733,6,-5.0047e-05,11,2.0312e-06,-3.08316,-0.0785305,-0.751301,932.537,0.00245988,
2,1,0,1,0,7342.5,0.00429425,0.00398918,1.61774,6,-1.80684e-05,11,6.45345e-06,-2.79109,0.00538998,10.9462,427.478,0.00398918,
2,1,0,1,0,7342.53,0.00579379,0.00545942,2.00414,6,2.79258e-05,11,1.09414e-05,-2.69807,0.0197152,2.99262,211.425,0.00545942,
2,1,0,1,0,7342.55,0.007288,0.0069914,2.2208,6,8.084e-05,11,1.55265e-05,-2.65349,0.0418673,1.40921,116.972,0.0069914,
2,1,0,1,0,7342.58,0.00878882,0.00848649,2.33893,6,0.000138057,11,1.98493e-05,-2.63098,0.0775908,0.760399,68.1404,0.008486487,
2,1,0,1,0,7342.6,0.0102896,0.010018,2.41668,6,0.000197642,11,2.42103e-05,-2.61678,0.135637,0.434983,40.568,0.010018,
2,1,0,1,0,7342.63,0.0117838,0.0114712,2.47275,6,0.000258562,11,2.83652e-05,-2.60682,0.183004,0.322397,30.8508,0.0114712,
2,1,0,1,0,7342.65,0.0132834,0.0129894,2.50745,6,0.000320779,11,3.25702e-05,-2.60077,0.187596,0.314506,30.756,0.0129894,
2,1,0,1,0,7342.68,0.0147816,0.0144743,2.53522,6,0.000383995,11,3.66955e-05,-2.59599,0.222538,0.265123,26.3303,0.01447431,
2,1,0,1,0,7342.7,0.0162811,0.0159887,2.57409,6,0.000448196,11,4.11563e-05,-2.58938,0.342443,0.172291,17.2967,0.0159887,
2,1,0,1,0,7342.73,0.0177753,0.0174869,2.6122,6,0.000512901,11,4.56792e-05,-2.58299,0.353547,0.16688,16.9437,0.0174869,
2,1,0,1,0,7342.75,0.0192761,0.018974,2.63343,6,0.000578379,11,4.99665e-05,-2.57948,0.304162,0.193976,19.9226,0.018974,
2,1,0,1,0,7342.78,0.020777,0.020463,2.65695,6,0.000644608,11,5.43692e-05,-2.57562,0.287441,0.205259,21.2904,0.020463,
2,1,0,1,0,7342.8,0.0222712,0.0219947,2.68695,6,0.000711301,11,5.90987e-05,-2.57074,0.374732,0.157446,16.5158,0.0219947,
2,1,0,1,0,7342.83,0.0237707,0.02345,2.7177,6,0.000778953,11,6.373e-05,-2.5658,0.391787,0.150592,15.9311,0.02345,
2,1,0,1,0,7342.85,0.0252703,0.0250059,2.73513,6,0.000847172,11,6.83942e-05,-2.56302,0.314139,0.187815,20.1014,0.0250059,
2,1,0,1,0,7342.88,0.0267645,0.0264755,2.76432,6,0.000915784,11,7.31869e-05,-2.55841,0.28651,0.205927,22.2482,0.02647553,
2,1,0,1,0,7342.9,0.0282653,0.0279648,2.80006,6,0.000985474,11,7.83032e-05,-2.55283,0.352247,0.167496,18.2963,0.0279648,
2,1,0,1,0,7342.93,0.0297648,0.0294408,2.83145,6,0.00105592,11,8.33604e-05,-2.54799,0.339599,0.173734,19.1403,0.0294408,
2,1,0,1,0,7342.95,0.031259,0.0309647,2.85617,6,0.0011268,11,8.84405e-05,-2.54422,0.302123,0.195285,21.754,0.0309647,
2,1,0,1,0,7342.98,0.0327585,0.0324734,2.87725,6,0.00119862,11,9.34342e-05,-2.54102,0.291645,0.202301,22.8304,0.0324734,
2,1,0,1,0,7343,0.034258,0.033981,2.91749,6,0.0012713,11,9.91393e-05,-2.53499,0.304572,0.193715,22.1117,0.033981,
2,1,0,1,0,7343.03,0.0357576,0.035468,2.96042,6,0.00134489,11,0.000105,-2.52865,0.334009,0.176642,20.3458,0.035468,
2,1,0,1,0,7343.05,0.0372518,0.036954,2.99109,6,0.00141912,11,0.000110533,-2.52417,0.273588,0.215653,25.1765,0.036954,
2,1,0,1,0,7343.08,0.0387526,0.0384882,3.02113,6,0.00149429,11,0.000116278,-2.51983,0.258124,0.228573,27.0956,0.0384882,
2,1,0,1,0,7343.1,0.0402534,0.0399225,3.06544,6,0.00157053,11,0.00012238,-2.51351,0.254263,0.232043,27.7524,0.0399225,
2,1,0,1,0,7343.13,0.0417476,0.0414491,3.12056,6,0.00164766,11,0.000129344,-2.50577,0.241854,0.243948,29.5837,0.0414491,
2,1,0,1,0,7343.15,0.0432472,0.0430227,3.16091,6,0.00172611,11,0.000135991,-2.50019,0.246515,0.239337,29.4687,0.0430227,
2,1,0,1,0,7343.18,0.0447467,0.044436,3.19216,6,0.00180561,11,0.000141847,-2.49592,0.229814,0.25673,32.1024,0.044436,
2,1,0,1,0,7343.2,0.0462463,0.0459341,3.24332,6,0.00188622,11,0.000148979,-2.48901,0.231054,0.255351,32.388,0.0459341,
2,1,0,1,0,7343.23,0.0477391,0.0474535,3.30308,6,0.00196785,11,0.000156743,-2.48108,0.220671,0.267366,34.396,0.0474535,
2,1,0,1,0,7343.25,0.0492399,0.0489029,3.35303,6,0.00205111,11,0.000163973,-2.47456,0.213932,0.275789,36.0605,0.0489029,
2,1,0,1,0,7343.28,0.0507408,0.0504911,3.39382,6,0.00213562,11,0.000171358,-2.46931,0.208509,0.282962,37.6476,0.0504911,
2,1,0,1,0,7343.3,0.052235,0.0519257,3.45988,6,0.00222115,11,0.000179656,-2.46094,0.208807,0.282557,38.2195,0.0519257,
2,1,0,1,0,7343.33,0.0537345,0.0534565,3.52986,6,0.00230855,11,0.000188694,-2.45224,0.198219,0.297651,40.911,0.0534565,
2,1,0,1,0,7343.35,0.0552341,0.0549639,3.58825,6,0.00239757,11,0.000197224,-2.44512,0.191499,0.308095,43.0236,0.0549639,
2,1,0,1,0,7343.38,0.0567283,0.0564529,3.63624,6,0.00248773,11,0.000205277,-2.43935,0.199284,0.296059,42.1664,0.0564529,
2,1,0,1,0,7343.4,0.0582291,0.0579726,3.70836,6,0.00257966,11,0.000214984,-2.43082,0.212756,0.277313,40.1846,0.0579726,
2,1,0,1,0,7343.43,0.0597299,0.0593878,3.78388,6,0.00267331,11,0.000224716,-2.42206,0.195561,0.301696,44.4045,0.0593878,
2,1,0,1,0,7343.45,0.0612228,0.0609426,3.84267,6,0.00276826,11,0.000234183,-2.41537,0.196829,0.299752,44.8597,0.0609426,
2,1,0,1,0,7343.48,0.0627223,0.0624557,3.90922,6,0.00286529,11,0.000244153,-2.40791,0.19017,0.31025,47.3616,0.0624557,
2,1,0,1,0,7343.5,0.0642218,0.0639502,3.96925,6,0.00296385,11,0.000253834,-2.40129,0.203584,0.289807,45.0327,0.0639502,
2,1,0,1,0,7343.53,0.0657214,0.0654362,4.05035,6,0.00306421,11,0.000265039,-2.39251,0.198826,0.296741,46.8235,0.0654362,
2,1,0,1,0,7343.55,0.0672156,0.0669419,4.12472,6,0.00316606,11,0.000276116,-2.38461,0.189372,0.311557,49.9921,0.0669419,
2,1,0,1,0,7343.58,0.0687164,0.0684292,4.18971,6,0.00327006,11,0.000286699,-2.37782,0.212878,0.277154,45.296,0.0684292,
2,1,0,1,0,7343.6,0.0702172,0.0698866,4.2484,6,0.00337565,11,0.000296906,-2.37177,0.229784,0.256763,42.6429,0.0698866,
2,1,0,1,0,7343.63,0.0717114,0.0714267,4.323,6,0.00348246,11,0.000308778,-2.36421,0.214902,0.274543,46.2636,0.0714267,
2,1,0,1,0,7343.65,0.073211,0.0729019,4.39288,6,0.00359146,11,0.000320249,-2.35725,0.204144,0.289011,49.4806,0.0729019,
2,1,0,1,0,7343.68,0.0747105,0.0743904,4.45718,6,0.00370222,11,0.000331571,-2.35094,0.225409,0.261746,45.5093,0.0743904,
2,1,0,1,0,7343.7,0.0762101,0.0759205,4.51152,6,0.00381458,11,0.000342517,-2.34568,0.255828,0.230624,40.7075,0.0759205,
2,1,0,1,0,7343.73,0.0777042,0.0774253,4.58628,6,0.00392796,11,0.000355094,-2.33854,0.24811,0.237797,42.5436,0.0774253,
2,1,0,1,0,7343.75,0.0792037,0.0788767,4.65225,6,0.00404345,11,0.000366955,-2.33234,0.236605,0.249361,45.1852,0.0788767,
2,1,0,1,0,7343.78,0.0807046,0.0804766,4.71011,6,0.00416063,11,0.000379054,-2.32697,0.260128,0.226811,41.6386,0.08047656,
2,1,0,1,0,7343.8,0.0821988,0.0818904,4.76357,6,0.00427881,11,0.000390091,-2.32207,0.303236,0.194568,36.2245,0.0818904,
2,1,0,1,0,7343.83,0.0836983,0.0834118,4.82592,6,0.00439882,11,0.000402538,-2.31642,0.306178,0.192698,36.3076,0.0834118,
2,1,0,1,0,7343.85,0.0851979,0.0849032,4.88572,6,0.00452034,11,0.000414813,-2.31107,0.273188,0.215968,41.1849,0.0849032,
2,1,0,1,0,7343.88,0.0866921,0.0864125,4.93818,6,0.00464283,11,0.00042672,-2.30643,0.305139,0.193355,37.2933,0.0864125,
2,1,0,1,0,7343.9,0.0881929,0.0879018,4.99971,6,0.00476724,11,0.000439483,-2.30106,0.335467,0.175874,34.3268,0.0879018,
2,1,0,1,0,7343.93,0.0896937,0.0894328,5.05907,6,0.00489292,11,0.000452447,-2.29593,0.307594,0.191812,37.8388,0.0894328,
2,1,0,1,0,7343.95,0.0911879,0.090911,5.1155,6,0.00501958,11,0.000465055,-2.29111,0.269057,0.219284,43.7278,0.090911,
2,1,0,1,0,7343.98,0.0926861,0.092412,5.16999,6,0.00514833,11,0.000477769,-2.28651,0.285254,0.206833,41.7369,0.092412,
2,1,0,1,0,7344,0.0941856,0.0939469,5.22253,6,0.00527851,11,0.000490641,-2.28212,0.351266,0.167964,34.2908,0.0939469,
2,1,0,1,0,7344.03,0.0956852,0.0953909,5.28176,6,0.00540995,11,0.000503832,-2.27722,0.34146,0.172787,35.636,0.0953909,
2,1,0,1,0,7344.05,0.0971794,0.09692,5.33442,6,0.00554224,11,0.000517012,-2.27291,0.288619,0.204422,42.5781,0.09692,
2,1,0,1,0,7344.08,0.0986802,0.0983503,5.39628,6,0.00567655,11,0.000530726,-2.26791,0.277615,0.212524,44.8318,0.0983503,
2,1,0,1,0,7344.1,0.100181,0.0999155,5.4694,6,0.0058125,11,0.000546477,-2.26206,0.287693,0.20508,43.7703,0.0999155,
2,1,0,1,0,7344.13,0.101675,0.101374,5.53926,6,0.00594967,11,0.000561536,-2.25655,0.26655,0.221347,47.8443,0.101374,
2,1,0,1,0,7344.15,0.103175,0.102873,5.61453,6,0.00608911,11,0.000577584,-2.25069,0.243603,0.242197,53.1185,0.102873,
2,1,0,1,0,7344.18,0.104674,0.104352,5.68978,6,0.00623054,11,0.000593738,-2.2449,0.22894,0.25771,57.3154,0.104352,
2,1,0,1,0,7344.2,0.106169,0.105898,5.77925,6,0.00637353,11,0.000612013,-2.23813,0.238654,0.24722,55.8038,0.105898,
2,1,0,1,0,7344.23,0.107668,0.107376,5.87409,6,0.00651928,11,0.000630737,-2.23106,0.224893,0.262347,60.1298,0.107376,
2,1,0,1,0,7344.25,0.109169,0.108905,5.96725,6,0.00666724,11,0.000649866,-2.22423,0.197907,0.29812,69.4934,0.108905,
2,1,0,1,0,7344.28,0.110663,0.110386,6.07094,6,0.00681721,11,0.000670147,-2.21674,0.187447,0.314755,74.6392,0.110386,
2,1,0,1,0,7344.3,0.112163,0.111854,6.18135,6,0.00697055,11,0.00069141,-2.20892,0.188512,0.312977,75.6201,0.111854,
2,1,0,1,0,7344.33,0.113662,0.11336,6.30958,6,0.0071268,11,0.000715254,-2.2,0.18345,0.321613,79.1386,0.11336,
2,1,0,1,0,7344.35,0.115162,0.114841,6.42721,6,0.00728602,11,0.000738109,-2.19198,0.167595,0.352039,88.3847,0.114841,
2,1,0,1,0,7344.38,0.116656,0.116355,6.55583,6,0.00744782,11,0.000762804,-2.18337,0.161056,0.366333,93.8613,0.116355,
2,1,0,1,0,7344.4,0.118157,0.117886,6.7004,6,0.00761375,11,0.000789887,-2.1739,0.170022,0.347015,90.7838,0.117886,
2,1,0,1,0,7344.43,0.119657,0.119354,6.84957,6,0.0077832,11,0.000817526,-2.16434,0.174826,0.337479,90.0791,0.119354,
2,1,0,1,0,7344.45,0.121152,0.120856,6.98088,6,0.00795537,11,0.000843682,-2.15609,0.167465,0.352313,96.01,0.120856,
2,1,0,1,0,7344.48,0.122651,0.122364,7.12132,6,0.00813176,11,0.000871395,-2.14744,0.165104,0.357351,99.379,0.122364,
2,1,0,1,0,7344.5,0.124151,0.123848,7.27116,6,0.00831189,11,0.00090052,-2.1384,0.170429,0.346185,98.2547,0.123848,
2,1,0,1,0,7344.53,0.125649,0.125364,7.42521,6,0.00849567,11,0.000930852,-2.12929,0.183732,0.32112,92.8791,0.125364,
2,1,0,1,0,7344.55,0.127143,0.126875,7.55536,6,0.0086823,11,0.000958588,-2.12175,0.183017,0.322374,95.0034,0.126875,
2,1,0,1,0,7344.58,0.128644,0.128383,7.69105,6,0.00887305,11,0.000987404,-2.11401,0.191117,0.308711,92.7484,0.128383,
2,1,0,1,0,7344.6,0.130145,0.129859,7.83667,6,0.00906739,11,0.00101766,-2.10587,0.200666,0.29402,89.8865,0.129859,
2,1,0,1,0,7344.62,0.131639,0.131352,7.97441,6,0.00926436,11,0.00104745,-2.0983,0.221621,0.266221,82.7206,0.131352,
2,1,0,1,0,7344.65,0.133139,0.132812,8.10524,6,0.00946547,11,0.00107648,-2.09123,0.223804,0.263623,83.2588,0.132812,
2,1,0,1,0,7344.67,0.134638,0.134329,8.2141,6,0.00966949,11,0.0011034,-2.08544,0.236021,0.249978,80.2031,0.134329,
2,1,0,1,0,7344.7,0.136132,0.135877,8.33425,6,0.00987573,11,0.00113243,-2.07913,0.248651,0.237281,77.1463,0.135877,
2,1,0,1,0,7344.72,0.137633,0.137356,8.45244,6,0.0100857,11,0.00116099,-2.07302,0.273858,0.21544,70.9379,0.137356,
2,1,0,1,0,7344.75,0.139133,0.138899,8.5582,6,0.0102983,11,0.00118873,-2.06762,0.297051,0.198619,66.1635,0.138899,
2,1,0,1,0,7344.77,0.140627,0.140328,8.63179,6,0.0105124,11,0.00121129,-2.0639,0.334201,0.17654,59.4762,0.140328,
2,1,0,1,0,7344.8,0.142126,0.141851,8.71797,6,0.0107295,11,0.00123666,-2.05958,0.371362,0.158875,54.0185,0.141851,
2,1,0,1,0,7344.82,0.143626,0.143324,8.80442,6,0.0109486,11,0.00126189,-2.0553,0.487856,0.120937,41.4382,0.143324,
2,1,0,1,0,7344.85,0.145125,0.144836,8.85428,6,0.0111695,11,0.00128242,-2.05285,0.678632,0.0869396,29.9702,0.144836,
2,1,0,1,0,7344.87,0.14662,0.146309,8.87517,6,0.0113904,11,0.00129852,-2.05182,1.31392,0.0449038,15.5422,0.146309,
2,1,0,1,0,7344.9,0.14812,0.147853,8.89532,6,0.0116128,11,0.00131519,-2.05084,529.926,0.000111336,0.038587,0.147853,
2,1,0,1,0,7344.92,0.149621,0.149349,8.8997,6,0.0118353,11,0.00132916,-2.05062,-1.29166,-0.0456777,-15.804,0.149349,
2,1,0,1,0,7344.95,0.151116,0.150844,8.86177,6,0.0120565,11,0.00133675,-2.05248,-0.572664,-0.103027,-35.4602,0.150844,
2,1,0,1,0,7344.97,0.152615,0.152324,8.78074,6,0.0122772,11,0.00133752,-2.05647,-0.344383,-0.171321,-58.5195,0.152324,
2,1,0,1,0,7345,0.154115,0.153799,8.67346,6,0.0124956,11,0.00133397,-2.06181,-0.237458,-0.248465,-83.9009,0.1537988,
2,1,0,1,0,7345.02,0.155614,0.155358,8.5371,6,0.0127109,11,0.00132631,-2.06869,-0.17688,-0.333559,-110.6,0.155358,
2,1,0,1,0,7345.05,0.157107,0.156835,8.35522,6,0.0129214,11,0.00131039,-2.07804,-0.142927,-0.412798,-133.79,0.156835,
2,1,0,1,0,7345.07,0.158608,0.15834,8.11887,6,0.0131275,11,0.00128554,-2.0905,-0.113793,-0.518483,-163.592,0.15834,
2,1,0,1,0,7345.1,0.160109,0.159813,7.84486,6,0.0133272,11,0.00125371,-2.10541,-0.0917048,-0.643369,-196.21,0.159813,
2,1,0,1,0,7345.12,0.161603,0.161315,7.54882,6,0.0135189,11,0.00121774,-2.12212,-0.0798049,-0.739303,-216.697,0.161315,
2,1,0,1,0,7345.15,0.163102,0.162824,7.22014,6,0.0137036,11,0.00117561,-2.14145,-0.0738128,-0.79932,-224.131,0.162824,
2,1,0,1,0,7345.17,0.164602,0.164281,6.86308,6,0.0138797,11,0.00112748,-2.16348,-0.0671388,-0.878776,-234.759,0.164281,
2,1,0,1,0,7345.2,0.166096,0.165828,6.49688,6,0.0140461,11,0.00107737,-2.1873,-0.0626176,-0.942228,-238.988,0.165828,
2,1,0,1,0,7345.22,0.167597,0.167306,6.15402,6,0.0142042,11,0.00102961,-2.21084,-0.0619326,-0.952649,-228.624,0.167306,
2,1,0,1,0,7345.25,0.169098,0.16885,5.82171,6,0.0143538,11,0.000982996,-2.23495,-0.0627648,-0.940017,-213.378,0.16885,
2,1,0,1,0,7345.27,0.170592,0.170329,5.49766,6,0.0144947,11,0.00093641,-2.25982,-0.0632558,-0.93272,-200.611,0.170329,
2,1,0,1,0,7345.3,0.17209,0.171821,5.19496,6,0.0146285,11,0.000892601,-2.28442,-0.0643705,-0.916568,-187.183,0.171821,
2,1,0,1,0,7345.32,0.17359,0.173306,4.95204,6,0.0147553,11,0.000858216,-2.30522,-0.0714429,-0.825834,-160.135,0.173306,
2,1,0,1,0,7345.35,0.175089,0.17485,4.7297,6,0.0148763,11,0.000826986,-2.32517,-0.0786345,-0.750307,-138.802,0.17485,
2,1,0,1,0,7345.37,0.176583,0.176336,4.52764,6,0.0149916,11,0.000798385,-2.34413,-0.0827755,-0.712772,-126.277,0.176336,
2,1,0,1,0,7345.4,0.178084,0.177797,4.3464,6,0.0151026,11,0.000772776,-2.36187,-0.0889487,-0.663304,-113.028,0.177797,
2,1,0,1,0,7345.42,0.179585,0.17929,4.19836,6,0.0152094,11,0.000752723,-2.37692,-0.0974014,-0.605741,-99.5273,0.17929,
2,1,0,1,0,7345.45,0.181079,0.18085,4.06428,6,0.0153123,11,0.000735025,-2.39102,-0.113549,-0.519601,-82.5472,0.18085,
2,1,0,1,0,7345.47,0.182579,0.182335,3.94052,6,0.0154125,11,0.000718496,-2.40445,-0.116009,-0.508582,-78.3903,0.182335,
2,1,0,1,0,7345.5,0.184078,0.183821,3.82253,6,0.0155097,11,0.000702662,-2.41765,-0.120016,-0.491602,-73.708,0.183821,
2,1,0,1,0,7345.52,0.185578,0.185298,3.72866,6,0.0156041,11,0.000690914,-2.42845,-0.131838,-0.447517,-65.2308,0.185298,
2,1,0,1,0,7345.55,0.187072,0.186803,3.63949,6,0.0156959,11,0.00067987,-2.43896,-0.150315,-0.392508,-55.7422,0.186803,
2,1,0,1,0,7345.57,0.188573,0.188287,3.55439,6,0.0157859,11,0.000669247,-2.44923,-0.160269,-0.368131,-51.1198,0.188287,
2,1,0,1,0,7345.6,0.190072,0.189754,3.47136,6,0.0158738,11,0.000658705,-2.4595,-0.15682,-0.376227,-51.1395,0.1897542,
2,1,0,1,0,7345.62,0.191567,0.191251,3.40361,6,0.0159595,11,0.000650945,-2.46806,-0.167173,-0.352927,-46.9483,0.191251,
2,1,0,1,0,7345.65,0.193066,0.192753,3.34295,6,0.0160439,11,0.000644365,-2.47587,-0.204267,-0.288838,-37.6715,0.192753,
2,1,0,1,0,7345.67,0.194566,0.194301,3.28247,6,0.0161269,11,0.000637786,-2.4838,-0.210443,-0.280361,-35.9831,0.194301,
2,1,0,1,0,7345.7,0.19606,0.195781,3.2236,6,0.016208,11,0.000631118,-2.49166,-0.192289,-0.30683,-38.6886,0.195781,
2,1,0,1,0,7345.72,0.197561,0.197237,3.1738,6,0.0162882,11,0.00062599,-2.49842,-0.206505,-0.285708,-35.4374,0.1972367,
2,1,0,1,0,7345.75,0.199062,0.19877,3.13522,6,0.016367,11,0.000623187,-2.50373,-0.245566,-0.240261,-29.3337,0.19877,
2,1,0,1,0,7345.77,0.200556,0.200247,3.08565,6,0.0164445,11,0.000617891,-2.51065,-0.29336,-0.201118,-24.2347,0.200247,
2,1,0,1,0,7345.8,0.202055,0.201763,3.04647,6,0.0165213,11,0.000614663,-2.5162,-0.254835,-0.231523,-27.5579,0.201763,
2,1,0,1,0,7345.82,0.203553,0.203251,3.00839,6,0.0165971,11,0.000611459,-2.52167,-0.267202,-0.220806,-25.9607,0.2032512,
2,1,0,1,0,7345.85,0.205053,0.204781,2.97715,6,0.0166719,11,0.000609662,-2.5262,-0.398243,-0.148151,-17.2725,0.204781,
2,1,0,1,0,7345.87,0.206547,0.206286,2.94066,6,0.0167457,11,0.000606616,-2.53156,-0.415992,-0.14183,-16.3152,0.206286,
2,1,0,1,0,7345.9,0.208048,0.207729,2.92193,6,0.0168193,11,0.00060697,-2.53433,-0.343252,-0.171885,-19.5654,0.207729,
2,1,0,1,0,7345.92,0.209549,0.209299,2.89774,6,0.0168921,11,0.000606495,-2.53794,-0.306123,-0.192733,-21.7593,0.209299,
2,1,0,1,0,7345.95,0.211043,0.210783,2.86798,6,0.0169638,11,0.000604522,-2.54242,-0.397625,-0.148381,-16.5885,0.210783,
2,1,0,1,0,7345.97,0.212543,0.212291,2.83961,6,0.0170352,11,0.000602823,-2.54674,-0.549341,-0.107401,-11.9215,0.212291,
2,1,0,1,0,7346,0.214042,0.213781,2.81959,6,0.0171061,11,0.000602777,-2.54981,-0.429082,-0.137503,-15.1633,0.213781,
2,1,0,1,0,7346.02,0.215536,0.215232,2.80486,6,0.0171762,11,0.000603696,-2.55209,-0.435991,-0.135324,-14.8027,0.215232,
2,1,0,1,0,7346.05,0.217036,0.216766,2.77844,6,0.017246,11,0.000602271,-2.5562,-0.581736,-0.101421,-11.0126,0.216766,
2,1,0,1,0,7346.07,0.218537,0.218273,2.75951,6,0.0173154,11,0.000602327,-2.55917,-0.937909,-0.0629059,-6.78782,0.218273,
2,1,0,1,0,7346.1,0.220031,0.219768,2.74741,6,0.0173842,11,0.000603792,-2.56108,-0.571584,-0.103222,-11.0813,0.219768,
2,1,0,1,0,7346.12,0.22153,0.221296,2.73706,6,0.0174528,11,0.000605701,-2.56272,-0.497349,-0.118629,-12.6371,0.221296,
2,1,0,1,0,7346.15,0.22303,0.22275,2.71381,6,0.0175211,11,0.000604503,-2.56642,-0.73229,-0.0805692,-8.53594,0.22275,
2,1,0,1,0,7346.17,0.224529,0.224232,2.70007,6,0.0175889,11,0.000605444,-2.56862,-0.737573,-0.0799921,-8.45103,0.224232,
2,1,0,1,0,7346.2,0.226024,0.225753,2.68714,6,0.0176561,11,0.000606631,-2.57071,-0.632142,-0.0933335,-9.80135,0.225753,
2,1,0,1,0,7346.22,0.227525,0.227237,2.6815,6,0.0177234,11,0.000609336,-2.57162,-0.475839,-0.123992,-12.9296,0.227237,
2,1,0,1,0,7346.25,0.229025,0.228767,2.67222,6,0.0177903,11,0.000611316,-2.57313,-0.78508,-0.0751516,-7.81265,0.228767,
2,1,0,1,0,7346.27,0.23052,0.230234,2.65129,6,0.0178565,11,0.000610417,-2.57654,-1.21523,-0.0485506,-5.03812,0.230234,
2,1,0,1,0,7346.3,0.232019,0.231679,2.63668,6,0.0179228,11,0.000610864,-2.57894,-1.00628,-0.0586315,-6.05158,0.231679,
2,1,0,1,0,7346.32,0.233519,0.233273,2.64038,6,0.0179889,11,0.000615929,-2.57833,-0.735648,-0.0802014,-8.23011,0.233273,
2,1,0,1,0,7346.35,0.235018,0.234758,2.62651,6,0.0180547,11,0.000616593,-2.58062,-0.873039,-0.06758,-6.90967,0.234758,
2,1,0,1,0,7346.37,0.236511,0.23626,2.60716,6,0.0181199,11,0.000615968,-2.58383,-1.4593,-0.0404304,-4.12759,0.23626,
2,1,0,1,0,7346.4,0.238012,0.237701,2.59742,6,0.0181851,11,0.000617409,-2.58546,-0.998646,-0.05908,-5.99869,0.237701,
2,1,0,1,0,7346.42,0.239513,0.239263,2.5975,6,0.0182502,11,0.000621487,-2.58544,-0.814716,-0.0724179,-7.32297,0.239263,
2,1,0,1,0,7346.45,0.241007,0.240718,2.58856,6,0.0183149,11,0.000623115,-2.58694,-0.854978,-0.0690076,-6.95769,0.240718,
2,1,0,1,0,7346.47,0.242506,0.242256,2.565,6,0.0183795,11,0.000621388,-2.59091,-1.07735,-0.0547638,-5.51494,0.242256,
2,1,0,1,0,7346.5,0.244006,0.243719,2.5641,6,0.0184438,11,0.000624919,-2.59106,-1.13391,-0.0520322,-5.22848,0.243719,
2,1,0,1,0,7346.52,0.2455,0.245254,2.57127,6,0.0185078,11,0.000630613,-2.58985,-0.872643,-0.0676107,-6.75553,0.245254,
2,1,0,1,0,7346.55,0.247001,0.246692,2.56213,6,0.0185719,11,0.000632058,-2.5914,-1.04092,-0.0566807,-5.63212,0.246692,
2,1,0,1,0,7346.57,0.248502,0.248217,2.5393,6,0.0186358,11,0.000630297,-2.59529,-1.59207,-0.0370588,-3.68465,0.248217,
2,1,0,1,0,7346.6,0.249995,0.249708,2.53568,6,0.0186991,11,0.000633182,-2.5959,-0.9104,-0.0648066,-6.42924,0.249708,
2,1,0,1,0,7346.62,0.251494,0.251203,2.53239,6,0.0187625,11,0.000636145,-2.59647,-1.0266,-0.057471,-5.67594,0.251203,
2,1,0,1,0,7346.65,0.252994,0.252727,2.52438,6,0.0188259,11,0.000637978,-2.59785,-1.21476,-0.0485691,-4.77629,0.252727,
2,1,0,1,0,7346.67,0.254493,0.25417,2.5129,6,0.018889,11,0.000638705,-2.59982,-1.47575,-0.0399798,-3.93265,0.25417,
2,1,0,1,0,7346.7,0.255988,0.255745,2.50425,6,0.0189516,11,0.000640451,-2.60132,-1.17102,-0.0503833,-4.94369,0.255745,
2,1,0,1,0,7346.72,0.257488,0.257196,2.50545,6,0.0190143,11,0.00064439,-2.60112,-1.00676,-0.0586036,-5.71838,0.257196,
2,1,0,1,0,7346.75,0.258989,0.258746,2.50827,6,0.019077,11,0.000649004,-2.60063,-2.29937,-0.0256592,-2.49507,0.258746,
2,1,0,1,0,7346.77,0.260483,0.260185,2.49177,6,0.0191393,11,0.000648321,-2.60349,-1.6384,-0.0360108,-3.50138,0.260185,
2,1,0,1,0,7346.8,0.261983,0.261707,2.47648,6,0.0192015,11,0.000648112,-2.60616,-1.06334,-0.0554857,-5.38613,0.261707,
2,1,0,1,0,7346.82,0.263482,0.263214,2.47902,6,0.0192635,11,0.000652514,-2.60572,-1.41708,-0.0416349,-4.01969,0.263214,
2,1,0,1,0,7346.85,0.264982,0.264757,2.47683,6,0.0193256,11,0.000655759,-2.6061,-1.94304,-0.0303648,-2.92899,0.264757,
2,1,0,1,0,7346.87,0.266476,0.266217,2.4657,6,0.0193872,11,0.000656411,-2.60806,-1.50339,-0.0392446,-3.77787,0.266217,
2,1,0,1,0,7346.9,0.267976,0.267709,2.44793,6,0.0194488,11,0.000655331,-2.6112,-0.96114,-0.0613855,-5.89673,0.267709,
2,1,0,1,0,7346.92,0.269477,0.26915,2.45507,6,0.0195102,11,0.000660781,-2.60994,-1.52342,-0.0387286,-3.70746,0.26915,
2,1,0,1,0,7346.95,0.270971,0.27068,2.4593,6,0.0195714,11,0.000665683,-2.60919,-2.03663,-0.0289694,-2.76215,0.27068,
2,1,0,1,0,7346.97,0.27247,0.272187,2.44038,6,0.0196327,11,0.000664241,-2.61254,-1.42285,-0.0414659,-3.94909,0.272187,
2,1,0,1,0,7347,0.27397,0.273709,2.4237,6,0.0196937,11,0.000663388,-2.61552,-1.10023,-0.0536253,-5.10594,0.273709,
2,1,0,1,0,7347.02,0.275464,0.275156,2.43057,6,0.0197543,11,0.000668785,-2.61429,-0.749853,-0.0786821,-7.46734,0.275156,
2,1,0,1,0,7347.05,0.276965,0.276701,2.42834,6,0.0198151,11,0.000671927,-2.61469,-3.30837,-0.0178335,-1.68703,0.276701,
2,1,0,1,0,7347.07,0.278466,0.278183,2.42131,6,0.0198757,11,0.000673568,-2.61595,-2.1523,-0.0274125,-2.58214,0.278183,
2,1,0,1,0,7347.1,0.27996,0.279649,2.4101,6,0.019936,11,0.000673983,-2.61796,-1.33698,-0.0441294,-4.15593,0.279649,
2,1,0,1,0,7347.12,0.281458,0.281186,2.40512,6,0.0199963,11,0.000676286,-2.61886,-1.12123,-0.0526208,-4.94851,0.281186,
2,1,0,1,0,7347.15,0.282958,0.282692,2.40418,6,0.0200564,11,0.000679643,-2.61903,-232.63,-0.000253622,-0.0237339,0.282692,
2,1,0,1,0,7347.17,0.284457,0.28418,2.39695,6,0.0201165,11,0.000681165,-2.62034,-3.25652,-0.0181175,-1.69366,0.28418,
2,1,0,1,0,7347.2,0.285951,0.285683,2.38705,6,0.0201763,11,0.00068194,-2.62214,-0.98484,-0.0599082,-5.59139,0.285683,
2,1,0,1,0,7347.22,0.287452,0.287171,2.3828,6,0.020236,11,0.000684272,-2.62291,-0.877309,-0.0672511,-6.25758,0.287171,
2,1,0,1,0,7347.25,0.288953,0.288672,2.38365,6,0.0202956,11,0.000688092,-2.62276,-4.33416,-0.0136128,-1.26063,0.288672,
2,1,0,1,0,7347.27,0.290447,0.29018,2.37324,6,0.0203549,11,0.000688666,-2.62466,-81.8692,-0.000720662,-0.0668027,0.29018,
2,1,0,1,0,7347.3,0.291947,0.291657,2.36275,6,0.0204143,11,0.000689111,-2.62658,-0.94704,-0.0622994,-5.76425,0.2916567,
2,1,0,1,0,7347.32,0.293446,0.293191,2.35939,6,0.0204735,11,0.00069175,-2.6272,-1.04466,-0.0564779,-5.21044,0.293191,
2,1,0,1,0,7347.35,0.29494,0.294627,2.36042,6,0.0205323,11,0.000695445,-2.62701,-2.14784,-0.0274695,-2.52549,0.294627,
2,1,0,1,0,7347.37,0.29644,0.296174,2.35691,6,0.0205913,11,0.000698055,-2.62766,-4.72357,-0.0124905,-1.14586,0.296174,
2,1,0,1,0,7347.4,0.297941,0.297688,2.34549,6,0.0206503,11,0.000698226,-2.62977,-0.99534,-0.0592762,-5.42607,0.297688,
2,1,0,1,0,7347.42,0.29944,0.299155,2.34199,6,0.020709,11,0.000700618,-2.63042,-0.00329897,-17.8844,-937.25,0.299155,
2,1,0,1,0,7347.44,0.299736,0.299515,1.62087,6,0.0207383,11,0.000485473,-2.79025,0.00180489,32.6889,2207.72,0.299515,
2,0,0,1,0,7347.46,0.298238,0.297952,-0.245207,6,0.0207499,11,-7.30602e-05,-3.61047,0.00768124,7.68105,829.693,0.297952,
2,0,0,1,0,7347.49,0.296744,0.296424,-0.686947,6,0.020737,11,-0.000203628,-3.16308,-0.00420252,-14.0392,238.48,0.296424,
2,0,0,1,0,7347.51,0.295243,0.294947,-0.834107,6,0.0207175,11,-0.000246017,-3.07878,-0.0221373,-2.66518,78.0415,0.294947,
2,0,0,1,0,7347.54,0.293742,0.293462,-0.916115,6,0.0206956,11,-0.000268845,-3.03805,-0.0468326,-1.25981,43.3123,0.2934624,
2,0,0,1,0,7347.56,0.292248,0.291902,-0.96224,6,0.0206722,11,-0.00028088,-3.01672,-0.060364,-0.977404,36.3585,0.291902,
2,0,0,1,0,7347.59,0.290748,0.290439,-1.00395,6,0.0206475,11,-0.000291588,-2.99829,-0.0685738,-0.860387,33.8734,0.290439,
2,0,0,1,0,7347.61,0.289249,0.288937,-1.05408,6,0.0206215,11,-0.000304563,-2.97713,-0.0974384,-0.605511,24.8478,0.288937,
2,0,0,1,0,7347.64,0.287754,0.287418,-1.09798,6,0.0205946,11,-0.000315579,-2.95941,-0.107263,-0.550049,23.3471,0.287418,
2,0,0,1,0,7347.66,0.286254,0.285978,-1.12824,6,0.0205668,11,-0.000322653,-2.9476,-0.0984003,-0.599591,26.3767,0.285978,
2,0,0,1,0,7347.69,0.284754,0.284477,-1.15849,6,0.0205381,11,-0.000329564,-2.93611,-0.113316,-0.520669,23.6735,0.284477,
2,0,0,1,0,7347.71,0.28326,0.282932,-1.20299,6,0.0205086,11,-0.000340365,-2.91974,-0.139675,-0.422409,19.6609,0.282932,
2,0,0,1,0,7347.73,0.28176,0.281469,-1.23039,6,0.0204781,11,-0.000346318,-2.90996,-0.152341,-0.387289,18.3903,0.281469,
2,0,0,1,0,7347.76,0.280261,0.279953,-1.24915,6,0.020447,11,-0.000349702,-2.90339,-0.157525,-0.374543,18.3276,0.279953,
2,0,0,1,0,7347.78,0.278761,0.278461,-1.27051,6,0.0204154,11,-0.000353788,-2.89602,-0.166988,-0.353318,17.6936,0.278461,
2,0,0,1,0,7347.81,0.277267,0.276949,-1.30384,6,0.0203831,11,-0.000361098,-2.88477,-0.197537,-0.298678,15.1756,0.276949,
2,0,0,1,0,7347.83,0.275766,0.275427,-1.33444,6,0.0203501,11,-0.000367541,-2.8747,-0.216732,-0.272225,14.0444,0.275427,
2,0,0,1,0,7347.86,0.274265,0.273933,-1.35432,6,0.0203165,11,-0.000370993,-2.86828,-0.189093,-0.312016,16.4464,0.273933,
2,0,0,1,0,7347.88,0.272771,0.272466,-1.36431,6,0.0202825,11,-0.000371729,-2.86509,-0.196985,-0.299516,16.1173,0.272466,
2,0,0,1,0,7347.91,0.271272,0.270918,-1.39507,6,0.0202479,11,-0.00037795,-2.8554,-0.231736,-0.2546,13.856,0.2709178,
2,0,0,1,0,7347.93,0.269772,0.269432,-1.42623,6,0.0202125,11,-0.000384272,-2.84581,-0.224208,-0.263148,14.5016,0.269432,
2,0,0,1,0,7347.96,0.268273,0.267967,-1.43636,6,0.0201767,11,-0.000384898,-2.84274,-0.225374,-0.261787,14.6941,0.267967,
2,0,0,1,0,7347.98,0.26678,0.266451,-1.44487,6,0.0201408,11,-0.000384986,-2.84017,-0.237659,-0.248255,14.1104,0.266451,
2,0,0,1,0,7348.01,0.265279,0.264955,-1.47284,6,0.0201041,11,-0.000390235,-2.83185,-0.2453,-0.240522,13.7754,0.264955,
2,0,0,1,0,7348.03,0.263778,0.263519,-1.49705,6,0.0200669,11,-0.000394501,-2.82476,-0.301369,-0.195774,11.377,0.2635189,
2,0,0,1,0,7348.06,0.262284,0.261987,-1.51029,6,0.0200294,11,-0.000395676,-2.82094,-0.262877,-0.224439,13.2174,0.261987,
2,0,0,1,0,7348.08,0.260784,0.260522,-1.51249,6,0.0199914,11,-0.000394037,-2.82031,-0.289739,-0.203632,12.145,0.260522,
2,0,0,1,0,7348.11,0.259285,0.258997,-1.54301,6,0.019953,11,-0.000399634,-2.81163,-0.38127,-0.154746,9.33825,0.258997,
2,0,0,1,0,7348.13,0.257791,0.257504,-1.575,6,0.0199142,11,-0.000405567,-2.80272,-0.318352,-0.185329,11.2696,0.257504,
2,0,0,1,0,7348.16,0.25629,0.255979,-1.58259,6,0.0198748,11,-0.000405109,-2.80063,-0.349787,-0.168674,10.346,0.255979,
2,0,0,1,0,7348.18,0.254789,0.254475,-1.59028,6,0.019835,11,-0.000404687,-2.79853,-0.352297,-0.167472,10.4305,0.254475,
2,0,0,1,0,7348.21,0.253296,0.25294,-1.60464,6,0.0197952,11,-0.000405876,-2.79462,-0.419333,-0.1407,8.84617,0.25294,
2,0,0,1,0,7348.23,0.251797,0.251485,-1.62902,6,0.0197546,11,-0.000409675,-2.78807,-0.324958,-0.181562,11.503,0.251485,
2,0,0,1,0,7348.26,0.250297,0.250031,-1.64381,6,0.0197137,11,-0.000411003,-2.78415,-0.338039,-0.174536,11.1655,0.250031,
2,0,0,1,0,7348.28,0.248797,0.248471,-1.65061,6,0.0196723,11,-0.00041013,-2.78235,-0.37433,-0.157615,10.2077,0.248471,
2,0,0,1,0,7348.31,0.247303,0.246993,-1.66749,6,0.0196309,11,-0.000411859,-2.77794,-0.460744,-0.128054,8.36199,0.246993,
2,0,0,1,0,7348.33,0.245802,0.245498,-1.69609,6,0.0195889,11,-0.000416387,-2.77055,-0.332751,-0.17731,11.6323,0.245498,
2,0,0,1,0,7348.36,0.244302,0.243984,-1.70604,6,0.0195463,11,-0.000416245,-2.76801,-0.304841,-0.193544,12.8389,0.243984,
2,0,0,1,0,7348.38,0.242807,0.242478,-1.71303,6,0.0195036,11,-0.000415371,-2.76624,-0.465948,-0.126624,8.50877,0.242478,
2,0,0,1,0,7348.41,0.241308,0.241013,-1.72754,6,0.0194605,11,-0.00041636,-2.76257,-0.520536,-0.113345,7.6751,0.241013,
2,0,0,1,0,7348.43,0.239808,0.239505,-1.74927,6,0.0194169,11,-0.000418958,-2.75714,-0.336094,-0.175546,11.932,0.239505,
2,0,0,1,0,7348.46,0.238309,0.238006,-1.76444,6,0.0193729,11,-0.000419948,-2.75339,-0.323571,-0.18234,12.5105,0.238006,
2,0,0,1,0,7348.48,0.236815,0.236535,-1.77307,6,0.0193288,11,-0.000419392,-2.75127,-0.432359,-0.136461,9.47444,0.2365347,
2,0,0,1,0,7348.51,0.235315,0.235015,-1.78178,6,0.0192842,11,-0.000418744,-2.74915,-0.477111,-0.123661,8.63944,0.235015,
2,0,0,1,0,7348.53,0.233814,0.233521,-1.80948,6,0.0192392,11,-0.000422552,-2.74245,-0.430518,-0.137044,9.65624,0.233521,
2,0,0,1,0,7348.56,0.23232,0.23196,-1.82362,6,0.0191939,11,-0.000423006,-2.73907,-0.341263,-0.172887,12.279,0.23196,
2,0,0,1,0,7348.58,0.230821,0.230498,-1.83258,6,0.019148,11,-0.000422405,-2.73694,-0.439736,-0.134172,9.60983,0.230498,
2,0,0,1,0,7348.61,0.229321,0.229008,-1.84565,6,0.0191018,11,-0.000422668,-2.73385,-0.732758,-0.0805177,5.82805,0.229008,
2,0,0,1,0,7348.63,0.227827,0.227524,-1.86794,6,0.0190555,11,-0.000425002,-2.72864,-0.466923,-0.126359,9.21993,0.227524,
2,0,0,1,0,7348.66,0.226326,0.226005,-1.88656,6,0.0190086,11,-0.000426371,-2.72433,-0.310212,-0.190193,13.9672,0.226005,
2,0,0,1,0,7348.68,0.224825,0.224522,-1.89483,6,0.0189612,11,-0.00042543,-2.72243,-0.394172,-0.149681,11.085,0.224522,
2,0,0,1,0,7348.71,0.223331,0.223035,-1.91428,6,0.0189136,11,-0.000426951,-2.71799,-0.518387,-0.113815,8.49486,0.223035,
2,0,0,1,0,7348.73,0.221831,0.221528,-1.93367,6,0.0188656,11,-0.000428362,-2.71362,-0.466202,-0.126555,9.51684,0.221528,
2,0,0,1,0,7348.76,0.220333,0.220043,-1.95036,6,0.0188171,11,-0.000429163,-2.70989,-0.270253,-0.218314,16.5642,0.220043,
2,0,0,1,0,7348.78,0.218834,0.218557,-1.96002,6,0.018768,11,-0.000428377,-2.70774,-0.342253,-0.172387,13.2394,0.218557,
2,0,0,1,0,7348.81,0.217339,0.217044,-1.97984,6,0.0187188,11,-0.000429713,-2.70337,-0.735873,-0.0801768,6.20295,0.217044,
2,0,0,1,0,7348.83,0.215839,0.215498,-1.9962,6,0.018669,11,-0.000430177,-2.6998,-0.474426,-0.124361,9.69216,0.215498,
2,0,0,1,0,7348.86,0.214338,0.213994,-2.01624,6,0.0186188,11,-0.000431462,-2.69546,-0.297945,-0.198023,15.5372,0.213994,
2,0,0,1,0,7348.88,0.212844,0.212506,-2.03036,6,0.0185683,11,-0.000431462,-2.69243,-0.353005,-0.167136,13.2775,0.212506,
2,0,0,1,0,7348.91,0.211344,0.21104,-2.05091,6,0.0185171,11,-0.000432825,-2.68805,-0.521345,-0.113169,9.07635,0.21104,
2,0,0,1,0,7348.93,0.209845,0.209534,-2.07098,6,0.0184654,11,-0.000433941,-2.68382,-0.433953,-0.13596,10.9944,0.209534,
2,0,0,1,0,7348.96,0.20835,0.208038,-2.09101,6,0.0184136,11,-0.00043501,-2.67964,-0.265445,-0.222268,18.196,0.208038,
2,0,0,1,0,7348.98,0.206851,0.20656,-2.11724,6,0.0183609,11,-0.000437336,-2.67423,-0.28174,-0.209413,17.2943,0.2065596,
2,0,0,1,0,7349.01,0.20535,0.205026,-2.13832,6,0.0183075,11,-0.00043841,-2.66993,-0.452445,-0.130402,10.861,0.205026,
2,0,0,1,0,7349.03,0.203856,0.203533,-2.16275,6,0.0182539,11,-0.000440191,-2.66499,-0.429112,-0.137493,11.5797,0.203533,
2,0,0,1,0,7349.06,0.202356,0.202037,-2.17657,6,0.0181997,11,-0.000439749,-2.66223,-0.27736,-0.21272,18.118,0.202037,
2,0,0,1,0,7349.08,0.200857,0.200501,-2.19983,6,0.0181449,11,-0.000441068,-2.65761,-0.259931,-0.226983,19.5393,0.200501,
2,0,0,1,0,7349.11,0.199357,0.199085,-2.2276,6,0.0180893,11,-0.00044348,-2.65216,-0.332183,-0.177613,15.4643,0.199085,
2,0,0,1,0,7349.13,0.197863,0.197545,-2.25884,6,0.0180334,11,-0.000446224,-2.64611,-0.300682,-0.196221,17.2431,0.197545,
2,0,0,1,0,7349.16,0.196362,0.196049,-2.28531,6,0.0179767,11,-0.000448032,-2.64105,-0.248882,-0.23706,21.0822,0.196049,
2,0,0,1,0,7349.18,0.194861,0.194554,-2.30681,6,0.0179192,11,-0.000448799,-2.63699,-0.228149,-0.258603,23.3413,0.194554,
2,0,0,1,0,7349.21,0.193367,0.193025,-2.3461,6,0.0178612,11,-0.000452855,-2.62965,-0.251647,-0.234455,21.4596,0.193025,
2,0,0,1,0,7349.23,0.191868,0.191549,-2.37941,6,0.017802,11,-0.000455774,-2.62353,-0.275732,-0.213976,19.8354,0.191549,
2,0,0,1,0,7349.26,0.190368,0.190084,-2.40328,6,0.0177422,11,-0.000456825,-2.6192,-0.222474,-0.2652,24.9323,0.190084,
2,0,0,1,0,7349.28,0.18887,0.188561,-2.4343,6,0.0176815,11,-0.000459013,-2.61363,-0.199843,-0.295232,28.2137,0.188561,
2,0,0,1,0,7349.31,0.187376,0.187091,-2.48308,6,0.0176201,11,-0.000464563,-2.60501,-0.232385,-0.25389,24.6188,0.187091,
2,0,0,1,0,7349.33,0.185875,0.185553,-2.52952,6,0.0175574,11,-0.000469361,-2.59696,-0.236853,-0.2491,24.4898,0.185553,
2,0,0,1,0,7349.36,0.184374,0.18404,-2.56579,6,0.0174936,11,-0.000472209,-2.59078,-0.196685,-0.299973,30.0222,0.18404,
2,0,0,1,0,7349.38,0.18288,0.18257,-2.60482,6,0.0174292,11,-0.00047556,-2.58422,-0.177577,-0.33225,33.9666,0.18257,
2,0,0,1,0,7349.41,0.18138,0.181058,-2.66138,6,0.0173632,11,-0.000481864,-2.57489,-0.178554,-0.330433,34.4156,0.181058,
2,0,0,1,0,7349.43,0.179881,0.179591,-2.72166,6,0.0172958,11,-0.000488786,-2.56517,-0.189521,-0.311311,33.0129,0.179591,
2,0,0,1,0,7349.46,0.178387,0.178074,-2.77706,6,0.0172273,11,-0.000494522,-2.55642,-0.158773,-0.3716,40.2658,0.1780743,
2,0,0,1,0,7349.48,0.176886,0.176566,-2.82867,6,0.0171572,11,-0.000499446,-2.54842,-0.148404,-0.397564,44.0405,0.176566,
2,0,0,1,0,7349.51,0.175385,0.175073,-2.90287,6,0.0170854,11,-0.000508215,-2.53717,-0.145798,-0.40467,45.8733,0.1750733,
2,0,0,1,0,7349.53,0.173892,0.173611,-2.97642,6,0.0170122,11,-0.00051674,-2.52631,-0.139246,-0.42371,49.1906,0.173611,
2,0,0,1,0,7349.56,0.172392,0.172074,-3.05698,6,0.0169368,11,-0.000526026,-2.51471,-0.126695,-0.465687,55.4265,0.172074,
2,0,0,1,0,7349.58,0.170893,0.170582,-3.12076,6,0.0168595,11,-0.000532347,-2.50574,-0.122567,-0.481368,59.0026,0.170582,
2,0,0,1,0,7349.61,0.169393,0.16907,-3.21639,6,0.01678,11,-0.000543797,-2.49263,-0.114547,-0.515073,64.9798,0.16907,
2,0,0,1,0,7349.63,0.167899,0.16758,-3.32934,6,0.0166984,11,-0.000557931,-2.47764,-0.109925,-0.536729,69.7321,0.16758,
2,0,0,1,0,7349.66,0.166398,0.166128,-3.4404,6,0.0166137,11,-0.000571548,-2.46339,-0.106651,-0.553206,74.175,0.166128,
2,0,0,1,0,7349.68,0.164898,0.164579,-3.53557,6,0.0165264,11,-0.000581878,-2.45154,-0.0992101,-0.594698,82.522,0.164579,
2,0,0,1,0,7349.71,0.163403,0.163122,-3.67065,6,0.0164365,11,-0.000598763,-2.43526,-0.0969213,-0.608741,87.5095,0.163122,
2,0,0,1,0,7349.73,0.161904,0.161577,-3.81982,6,0.0163428,11,-0.000617195,-2.41796,-0.0909165,-0.648947,96.7166,0.1615769,
2,0,0,1,0,7349.76,0.160404,0.160141,-3.96895,6,0.0162455,11,-0.000635592,-2.40132,-0.0876288,-0.673294,104.272,0.160141,
2,0,0,1,0,7349.78,0.158905,0.158589,-4.12125,6,0.0161442,11,-0.000653585,-2.38497,-0.0828906,-0.711781,114.899,0.158589,
2,0,0,1,0,7349.81,0.157411,0.157113,-4.29879,6,0.0160393,11,-0.000675394,-2.36665,-0.0815493,-0.723488,121.904,0.157113,
2,0,0,1,0,7349.83,0.155911,0.155587,-4.49761,6,0.0159293,11,-0.000699767,-2.34702,-0.0785895,-0.750736,131.77,0.155587,
2,0,0,1,0,7349.86,0.15441,0.154115,-4.70474,6,0.0158142,11,-0.000725072,-2.32746,-0.0771591,-0.764654,140.123,0.154115,
2,0,0,1,0,7349.88,0.152916,0.152594,-4.90952,6,0.0156944,11,-0.000749163,-2.30896,-0.0770343,-0.765893,146.949,0.152594,
2,0,0,1,0,7349.91,0.151417,0.151104,-5.12679,6,0.0155688,11,-0.000774679,-2.29015,-0.0786765,-0.749906,150.534,0.151104,
2,0,0,1,0,7349.93,0.149917,0.149623,-5.37323,6,0.0154374,11,-0.000803961,-2.26976,-0.0758917,-0.777424,162.976,0.149623,
2,0,0,1,0,7349.96,0.148423,0.148087,-5.62419,6,0.0153005,11,-0.000832872,-2.24994,-0.0761679,-0.774605,169.713,0.148087,
2,0,0,1,0,7349.98,0.146922,0.146621,-5.87601,6,0.0151567,11,-0.000861549,-2.23092,-0.0811548,-0.727006,166.205,0.146621,
2,0,0,1,0,7350.01,0.145421,0.145134,-6.11365,6,0.0150067,11,-0.000887298,-2.2137,-0.0829902,-0.710927,169.891,0.145134,
2,0,0,1,0,7350.03,0.143927,0.143645,-6.37953,6,0.0148512,11,-0.000916389,-2.19521,-0.0840383,-0.702061,174.725,0.143645,
2,0,0,1,0,7350.06,0.142429,0.142116,-6.65102,6,0.0146883,11,-0.000945218,-2.17711,-0.0842955,-0.699919,181.047,0.142116,
2,0,0,1,0,7350.08,0.140929,0.140616,-6.90103,6,0.0145187,11,-0.000970395,-2.16109,-0.0935709,-0.630538,169.458,0.140616,
2,0,0,1,0,7350.11,0.13943,0.139148,-7.14066,6,0.0143429,11,-0.000993607,-2.14626,-0.102105,-0.577835,161.017,0.139148,
2,0,0,1,0,7350.13,0.137935,0.137668,-7.38883,6,0.0141619,11,-0.0010172,-2.13142,-0.109537,-0.538632,154.987,0.137668,
2,0,0,1,0,7350.16,0.136435,0.136097,-7.62395,6,0.0139742,11,-0.0010376,-2.11782,-0.118028,-0.49988,148.263,0.136097,
2,0,0,1,0,7350.18,0.134934,0.134596,-7.83698,6,0.0137807,11,-0.00105482,-2.10585,-0.128926,-0.457627,139.551,0.134596,
2,0,0,1,0,7350.21,0.13344,0.133137,-8.03226,6,0.013583,11,-0.00106939,-2.09516,-0.148444,-0.397456,124.439,0.133137,
2,0,0,1,0,7350.23,0.13194,0.131646,-8.21761,6,0.0133798,11,-0.00108181,-2.08525,-0.162988,-0.361989,115.95,0.131646,
2,0,0,1,0,7350.26,0.13044,0.130127,-8.39123,6,0.0131721,11,-0.00109192,-2.07617,-0.175057,-0.337033,110.054,0.130127,
2,0,0,1,0,7350.28,0.128941,0.128659,-8.53961,6,0.0129603,11,-0.0010987,-2.06856,-0.207346,-0.284549,94.5904,0.128659,
2,0,0,1,0,7350.31,0.127447,0.12716,-8.66851,6,0.0127459,11,-0.00110229,-2.06206,-0.25733,-0.229278,77.4143,0.12716,
2,0,0,1,0,7350.33,0.125946,0.125655,-8.78072,6,0.0125277,11,-0.00110335,-2.05647,-0.317915,-0.185584,63.426,0.125655,
2,0,0,1,0,7350.36,0.124446,0.124166,-8.86916,6,0.012307,11,-0.00110125,-2.05212,-0.377455,-0.15631,53.9189,0.124166,
2,0,0,1,0,7350.38,0.122952,0.122643,-8.92885,6,0.0120853,11,-0.00109506,-2.0492,-0.516122,-0.114314,39.7606,0.122643,
2,0,0,1,0,7350.41,0.121453,0.121215,-8.96927,6,0.0118614,11,-0.00108721,-2.04724,-1.10166,-0.0535553,18.721,0.121215,
2,0,0,1,0,7350.43,0.119953,0.119681,-8.98754,6,0.0116367,11,-0.00107564,-2.04636,-4.53486,-0.0130103,4.55765,0.119681,
2,0,0,1,0,7350.46,0.118459,0.118187,-8.99733,6,0.0114126,11,-0.00106336,-2.04589,7.7587,0.00760436,-2.6641,0.118187,
2,0,0,1,0,7350.48,0.116958,0.116624,-8.97976,6,0.0111879,11,-0.00104725,-2.04674,1.22141,0.0483048,-16.8945,0.116624,
2,0,0,1,0,7350.51,0.115457,0.115124,-8.94104,6,0.0109637,11,-0.00102933,-2.04861,0.595769,0.0990317,-34.465,0.115124,
2,0,0,1,0,7350.53,0.113963,0.113644,-8.87455,6,0.0107417,11,-0.00100854,-2.05185,0.413404,0.142718,-49.3494,0.113644,
2,0,0,1,0,7350.56,0.112464,0.112148,-8.80534,6,0.0105207,11,-0.000987499,-2.05525,0.362583,0.162721,-55.7956,0.112148,
2,0,0,1,0,7350.58,0.110965,0.110645,-8.70098,6,0.0103018,11,-0.000962722,-2.06043,0.305315,0.193243,-65.5533,0.110645,
2,0,0,1,0,7350.61,0.109466,0.109147,-8.58968,6,0.0100854,11,-0.000937539,-2.06602,0.236272,0.249712,-83.5768,0.109147,
2,0,0,1,0,7350.63,0.107972,0.107688,-8.46809,6,0.00987288,11,-0.00091191,-2.07221,0.205057,0.287725,-94.8912,0.107688,
2,0,0,1,0,7350.66,0.106471,0.106163,-8.32279,6,0.00966303,11,-0.000883571,-2.07973,0.202766,0.290976,-94.4024,0.106163,
2,0,0,1,0,7350.68,0.10497,0.104683,-8.16992,6,0.00945683,11,-0.000855252,-2.08778,0.189125,0.311963,-99.4086,0.104683,
2,0,0,1,0,7350.71,0.103476,0.103196,-8.01457,6,0.00925513,11,-0.000827074,-2.09612,0.171544,0.343935,-107.516,0.103196,
2,0,0,1,0,7350.73,0.101976,0.101645,-7.85749,6,0.00905664,11,-0.000798675,-2.10472,0.159216,0.370567,-113.5,0.101645,
2,0,0,1,0,7350.76,0.100477,0.100163,-7.68048,6,0.00886244,11,-0.000769301,-2.11461,0.155434,0.379581,-113.781,0.100163,
2,0,0,1,0,7350.78,0.0989825,0.0987072,-7.51522,6,0.00867318,11,-0.000741806,-2.12406,0.164081,0.359578,-105.473,0.0987072,
2,0,0,1,0,7350.81,0.0974817,0.0971978,-7.35213,6,0.00848724,11,-0.000714611,-2.13359,0.158932,0.371229,-106.627,0.0971978,
2,0,0,1,0,7350.83,0.0959822,0.0956547,-7.2013,6,0.00830527,11,-0.000688839,-2.14259,0.158562,0.372095,-104.557,0.0956547,
2,0,0,1,0,7350.86,0.094488,0.0941507,-7.04842,6,0.00812785,11,-0.000663614,-2.15191,0.17193,0.343163,-94.5006,0.0941507,
2,0,0,1,0,7350.88,0.0929884,0.0926781,-6.90801,6,0.0079533,11,-0.000640221,-2.16065,0.193866,0.304334,-82.2389,0.0926781,
2,0,0,1,0,7350.91,0.0914889,0.0911824,-6.78553,6,0.007782,11,-0.000618721,-2.16842,0.198452,0.2973,-78.9117,0.0911824,
2,0,0,1,0,7350.93,0.0899894,0.0896796,-6.67716,6,0.00761359,11,-0.000598805,-2.17541,0.19888,0.296661,-77.2583,0.0896796,
2,0,0,1,0,7350.96,0.0884951,0.0881898,-6.57052,6,0.0074486,11,-0.000579453,-2.1824,0.219884,0.268324,-68.8211,0.08818984,
2,0,0,1,0,7350.98,0.0869943,0.0866875,-6.4688,6,0.00728566,11,-0.000560764,-2.18918,0.243957,0.241845,-61.1598,0.0866875,
2,0,0,1,0,7351.01,0.0854935,0.0851881,-6.37882,6,0.00712501,11,-0.0005434,-2.19526,0.258287,0.228428,-56.9638,0.0851881,
2,0,0,1,0,7351.03,0.0839993,0.0836914,-6.3055,6,0.00696702,11,-0.000527716,-2.20028,0.262076,0.225126,-55.3746,0.0836914,
2,0,0,1,0,7351.06,0.0824998,0.0822201,-6.2366,6,0.00681029,11,-0.000512774,-2.20505,0.308177,0.191449,-46.5534,0.0822201,
2,0,0,1,0,7351.08,0.0810002,0.0806972,-6.15654,6,0.00665543,11,-0.000496816,-2.21066,0.349523,0.168802,-40.6335,0.0806972,
2,0,0,1,0,7351.11,0.0795007,0.0792087,-6.09306,6,0.00650221,11,-0.000482623,-2.21516,0.361471,0.163222,-38.893,0.0792087,
2,0,0,1,0,7351.13,0.0780078,0.0776845,-6.04538,6,0.00635099,11,-0.000469633,-2.21858,0.364175,0.16201,-38.1814,0.0776845,
2,0,0,1,0,7351.16,0.076507,0.076207,-5.99481,6,0.00620047,11,-0.000456847,-2.22222,0.384217,0.153559,-35.844,0.076207,
2,0,0,1,0,7351.18,0.0750062,0.0747212,-5.9191,6,0.00605152,11,-0.000442282,-2.22774,0.376164,0.156847,-36.3003,0.0747212,
2,0,0,1,0,7351.21,0.073512,0.073197,-5.8649,6,0.00590454,11,-0.000429293,-2.23174,0.388844,0.151732,-34.7938,0.073197,
2,0,0,1,0,7351.23,0.0720124,0.0717071,-5.82552,6,0.00575823,11,-0.000417732,-2.23466,0.368109,0.160279,-36.4378,0.0717071,
2,0,0,1,0,7351.26,0.0705129,0.0702382,-5.77845,6,0.00561314,11,-0.000405867,-2.23819,0.381735,0.154557,-34.8091,0.0702382,
2,0,0,1,0,7351.28,0.0690187,0.0687359,-5.71425,6,0.00546998,11,-0.000392774,-2.24304,0.37432,0.157619,-35.1939,0.0687359,
2,0,0,1,0,7351.31,0.0675179,0.0671699,-5.66455,6,0.00532767,11,-0.000380487,-2.24683,0.383444,0.153869,-34.0586,0.0671699,
2,0,0,1,0,7351.33,0.066017,0.0657088,-5.62628,6,0.00518657,11,-0.000369696,-2.24978,0.367771,0.160426,-35.0982,0.0657088,
2,0,0,1,0,7351.36,0.0645242,0.0642156,-5.56525,6,0.00504721,11,-0.000357376,-2.25452,0.330451,0.178544,-38.6693,0.0642156,
2,0,0,1,0,7351.38,0.0630246,0.062735,-5.49756,6,0.00490882,11,-0.00034489,-2.25983,0.320463,0.184109,-39.5373,0.062735,
2,0,0,1,0,7351.41,0.0615251,0.0612393,-5.43183,6,0.00477206,11,-0.000332641,-2.26505,0.305572,0.19308,-41.0266,0.0612393,
2,0,0,1,0,7351.43,0.0600256,0.0597141,-5.37813,6,0.00463679,11,-0.00032115,-2.26937,0.288043,0.20483,-42.9826,0.0597141,
2,0,0,1,0,7351.46,0.0585314,0.0582142,-5.32037,6,0.00450355,11,-0.000309721,-2.27406,0.280471,0.210361,-43.5422,0.0582142,
2,0,0,1,0,7351.48,0.0570305,0.0567078,-5.25182,6,0.00437134,11,-0.000297819,-2.27969,0.272465,0.216542,-44.3014,0.0567078,
2,0,0,1,0,7351.51,0.0555297,0.0552195,-5.17357,6,0.00424102,11,-0.000285682,-2.28621,0.240507,0.245315,-49.5786,0.05521952,
2,0,0,1,0,7351.53,0.0540355,0.0537488,-5.10887,6,0.00411299,11,-0.000274596,-2.29167,0.248954,0.236991,-47.1862,0.0537488,
2,0,0,1,0,7351.56,0.052536,0.0522442,-5.04595,6,0.00398606,11,-0.000263622,-2.29706,0.24713,0.23874,-46.8569,0.0522442,
2,0,0,1,0,7351.58,0.0510364,0.0507152,-4.96071,6,0.00386092,11,-0.000251583,-2.30446,0.234905,0.251165,-48.6344,0.0507152,
2,0,0,1,0,7351.61,0.0495369,0.049229,-4.87344,6,0.00373784,11,-0.000239914,-2.31216,0.214984,0.274439,-52.3863,0.049229,
2,0,0,1,0,7351.63,0.0480427,0.047736,-4.80832,6,0.00361712,11,-0.00022953,-2.31801,0.223631,0.263827,-49.4909,0.047736,
2,0,0,1,0,7351.66,0.0465432,0.0461993,-4.73762,6,0.00349773,11,-0.000218875,-2.32444,0.231286,0.255095,-47.1197,0.0461993,
2,0,0,1,0,7351.68,0.0450424,0.0447283,-4.66494,6,0.00338015,11,-0.000208655,-2.33115,0.230535,0.255926,-46.5711,0.0447283,
2,0,0,1,0,7351.71,0.0435482,0.0432146,-4.5799,6,0.00326485,11,-0.000197919,-2.33914,0.217147,0.271705,-48.7181,0.0432146,
2,0,0,1,0,7351.73,0.0420486,0.0417452,-4.52261,6,0.00315089,11,-0.000188797,-2.34461,0.228328,0.2584,-45.6738,0.0417452,
2,0,0,1,0,7351.76,0.0405491,0.040244,-4.46974,6,0.00303853,11,-0.00017988,-2.34972,0.259593,0.227279,-39.5805,0.040244,
2,0,0,1,0,7351.78,0.0390549,0.0387025,-4.40185,6,0.00292803,11,-0.000170362,-2.35636,0.268034,0.220122,-37.8028,0.0387025,
2,0,0,1,0,7351.81,0.0375541,0.0372172,-4.33817,6,0.00281858,11,-0.000161454,-2.36269,0.262083,0.225119,-38.2392,0.0372172,
2,0,0,1,0,7351.83,0.0360532,0.0357299,-4.2933,6,0.00271066,11,-0.000153399,-2.36721,0.261312,0.225784,-37.8557,0.0357299,
2,0,0,1,0,7351.85,0.034559,0.0342722,-4.24801,6,0.00260433,11,-0.000145589,-2.37181,0.328425,0.179645,-29.7309,0.0342722,
2,0,0,1,0,7351.88,0.0330595,0.0327071,-4.19735,6,0.00249872,11,-0.000137283,-2.37702,0.370761,0.159132,-26.0939,0.0327071,
2,0,0,1,0,7351.9,0.0315613,0.0312528,-4.1526,6,0.0023942,11,-0.00012978,-2.38168,0.352174,0.167531,-27.2238,0.0312528,
2,0,0,1,0,7351.93,0.0300618,0.0297589,-4.11482,6,0.00229075,11,-0.000122452,-2.38565,0.362131,0.162924,-26.2218,0.0297589,
2,0,0,1,0,7351.95,0.0285676,0.0282549,-4.08971,6,0.00218854,11,-0.000115554,-2.38831,0.526569,0.112046,-17.8676,0.0282549,
2,0,0,1,0,7351.98,0.0270667,0.0267591,-4.05924,6,0.00208661,11,-0.000108621,-2.39156,0.626154,0.094226,-14.9356,0.0267591,
2,0,0,1,0,7352,0.0255659,0.0252833,-4.03211,6,0.00198532,11,-0.000101945,-2.39447,0.511633,0.115317,-18.1658,0.0252833,
2,0,0,1,0,7352.03,0.0240717,0.023751,-4.0025,6,0.00188515,11,-9.50633e-05,-2.39767,0.540888,0.10908,-17.0916,0.023751,
2,0,0,1,0,7352.05,0.0225722,0.0222534,-3.99195,6,0.00178514,11,-8.88346e-05,-2.39881,0.959226,0.0615079,-9.58125,0.0222534,
2,0,0,1,0,7352.08,0.0210726,0.020713,-3.97257,6,0.00168548,11,-8.2284e-05,-2.40093,1.44147,0.0409303,-6.35382,0.020713,
2,0,0,1,0,7352.1,0.0195784,0.019248,-3.95938,6,0.00158656,11,-7.621e-05,-2.40237,0.901075,0.0654773,-10.1253,0.019248,
2,0,0,1,0,7352.13,0.0180789,0.017778,-3.94799,6,0.00148756,11,-7.01874e-05,-2.40362,1.03903,0.0567837,-8.75684,0.017778,
2,0,0,1,0,7352.15,0.0165781,0.016302,-3.94563,6,0.00138894,11,-6.43215e-05,-2.40388,3.06888,0.0192252,-2.96036,0.01630199,
2,0,0,1,0,7352.18,0.0150839,0.0147521,-3.93559,6,0.00129077,11,-5.80582e-05,-2.40499,-4.457,-0.0132376,2.03405,0.0147521,
2,0,0,1,0,7352.2,0.0135844,0.0132192,-3.93097,6,0.0011922,11,-5.19643e-05,-2.4055,2.23913,0.0263495,-4.04478,0.0132192,
2,0,0,1,0,7352.23,0.0120848,0.0117698,-3.93215,6,0.00109372,11,-4.62808e-05,-2.40537,1.63095,0.0361753,-5.55566,0.0117698,
2,0,0,1,0,7352.25,0.0105853,0.0102408,-3.93354,6,0.000995448,11,-4.02826e-05,-2.40522,30.422,0.00193938,-0.297516,0.0102408,
2,0,0,1,0,7352.28,0.00909108,0.00879088,-3.93262,6,0.00089749,11,-3.45712e-05,-2.40532,-2.00589,-0.0294134,4.51295,0.00879088,
2,0,0,1,0,7352.3,0.00759027,0.00728599,-3.93326,6,0.00079906,11,-2.86577e-05,-2.40525,-2.39022,-0.0246839,3.79641,0.00728599,
2,0,0,1,0,7352.33,0.00608945,0.00577835,-3.94663,6,0.000700517,11,-2.2805e-05,-2.40377,-10.5125,-0.00561238,0.862851,0.00577835,
2,0,0,1,0,7352.35,0.00459524,0.00431986,-3.95405,6,0.000602232,11,-1.70809e-05,-2.40296,-1.93211,-0.0305365,4.70168,0.00431986,
2,0,0,1,0,7352.38,0.0030957,0.00279081,-3.958,6,0.000503391,11,-1.1046e-05,-2.40252,-0.462828,-0.127477,19.772,0.00279081,
2,0,0,1,0,7352.4,0.00159616,0.00126589,-4.01007,6,0.000403585,11,-5.0763e-06,-2.39685, , , ,0.001265888,
2,0,0,0,0,7352.43,0.000199195,-0.000176442,-3.99486,6,0.000310163,11,7.04863e-07,-2.3985, , , ,-0.000176442,