File: Figure_codes/Fig_3-5/rawdata_trumpetplot_data/before 10th/20221101_1-115_002_TrumpetPlot_ParaChange_15_CV_C01_0.csv
mode,ox/red,error,control changes,counter inc.,time/s,control/V,Ewe/V,<I>/mA,cycle number,(Q-Qo)/C,I Range,P/W,log(|I|),Tafel slope mV/dec,alpha_eff,dI/d(E-IR),E-IR/V,
2,1,0,1,0,1217.73,2.44065e-05,-0.00116517,32.7288,1,0.0000000E+000,10,-3.81344e-05,-1.48507, , , ,-0.00116517,
2,1,0,1,0,1217.73,0.00250197,0.00214012,33.9543,1,0.000104718,10,7.26663e-05,-1.46911, , , ,0.00214012,
2,1,0,1,0,1217.73,0.00570921,0.00537966,34.8736,1,0.00024248,10,0.000187608,-1.4575, , , ,0.00537966,
2,1,0,1,0,1217.74,0.00890534,0.00859164,35.7961,1,0.000383905,10,0.000307547,-1.44616,0.302424,0.19509,271.53,0.00859164,
2,1,0,1,0,1217.74,0.0121015,0.0117697,36.6453,1,0.000528896,10,0.000431303,-1.43598,0.332311,0.177545,252.673,0.0117697,
2,1,0,1,0,1217.75,0.0153059,0.0149339,37.4282,1,0.000677155,10,0.00055895,-1.4268,0.3781,0.156043,226.707,0.0149339,
2,1,0,1,0,1217.75,0.0185021,0.0181724,38.106,1,0.000828318,10,0.000692478,-1.41901,0.444627,0.132695,196.233,0.0181724,
2,1,0,1,0,1217.75,0.0217065,0.0213791,38.6951,1,0.000981984,10,0.000827266,-1.41234,0.539161,0.109429,164.319,0.0213791,
2,1,0,1,0,1217.76,0.0249027,0.0246229,39.1675,1,0.0011378,10,0.000964416,-1.40707,0.653629,0.0902653,137.32,0.0246229,
2,1,0,1,0,1217.76,0.0280988,0.0278051,39.5432,1,0.00129528,10,0.0010995,-1.40293,0.820045,0.0719473,110.626,0.0278051,
2,1,0,1,0,1217.77,0.0313061,0.0310065,39.8684,1,0.00145417,10,0.00123618,-1.39937,1.00696,0.058592,90.8853,0.0310065,
2,1,0,1,0,1217.77,0.0345022,0.0341739,40.1106,1,0.00161417,10,0.00137074,-1.39674,1.27393,0.0463133,72.3039,0.0341739,
2,1,0,1,0,1217.77,0.0377094,0.0374124,40.3299,1,0.00177508,10,0.00150884,-1.39437,1.74843,0.0337446,52.9488,0.03741242,
2,1,0,1,0,1217.78,0.0409056,0.0405735,40.4664,1,0.00193668,10,0.00164186,-1.39291,2.29291,0.0257315,40.5388,0.0405735,
2,1,0,1,0,1217.78,0.0441017,0.0437855,40.545,1,0.00209873,10,0.00177528,-1.39206,3.49569,0.0168779,26.6772,0.0437855,
2,1,0,1,0,1217.79,0.0473089,0.0469243,40.6275,1,0.00226108,10,0.00190641,-1.39118,4.67243,0.0126273,20.0048,0.0469243,
2,1,0,1,0,1217.79,0.0505051,0.0501956,40.6709,1,0.00242369,10,0.0020415,-1.39072,5.10366,0.0115603,18.3454,0.0501956,
2,1,0,1,0,1217.79,0.0537012,0.0533387,40.7217,1,0.00258648,10,0.00217204,-1.39017,7.20886,0.00818437,13.0035,0.0533387,
2,1,0,1,0,1217.8,0.0569057,0.0565846,40.7798,1,0.00274951,10,0.00230751,-1.38955,6.58519,0.0089595,14.2529,0.0565846,
2,1,0,1,0,1217.8,0.0601018,0.0598018,40.7949,1,0.00291264,10,0.00243961,-1.38939,6.05316,0.00974697,15.5282,0.0598018,
2,1,0,1,0,1217.81,0.0633063,0.0629905,40.8533,1,0.00307594,10,0.00257337,-1.38877,4.76655,0.0123779,19.7606,0.0629905,
2,1,0,1,0,1217.81,0.0665024,0.0661749,40.9211,1,0.00323948,10,0.00270795,-1.38805,3.012,0.0195883,31.3387,0.0661749,
2,1,0,1,0,1217.81,0.0696986,0.0693752,41.0326,1,0.00340342,10,0.00284664,-1.38687,2.40514,0.0245308,39.3513,0.0693752,
2,1,0,1,0,1217.82,0.0729058,0.0725214,41.1935,1,0.00356789,10,0.00298741,-1.38517,1.73036,0.034097,54.92,0.0725214,
2,1,0,1,0,1217.82,0.0761019,0.075761,41.3558,1,0.00373301,10,0.00313316,-1.38346,1.39587,0.0422675,68.4057,0.075761,
2,1,0,1,0,1217.83,0.0793092,0.0789772,41.6242,1,0.00389895,10,0.00328736,-1.38065,1.14343,0.0515993,84.0335,0.0789772,
2,1,0,1,0,1217.83,0.0825053,0.0821764,41.9082,1,0.00406602,10,0.00344387,-1.3777,0.934258,0.0631517,103.555,0.0821764,
2,1,0,1,0,1217.83,0.0857014,0.0853375,42.2705,1,0.00423439,10,0.00360726,-1.37396,0.827426,0.0713054,117.918,0.0853375,
2,1,0,1,0,1217.84,0.0889087,0.0885929,42.6846,1,0.00440433,10,0.00378156,-1.36973,0.725542,0.0813185,135.728,0.0885929,
2,1,0,1,0,1217.84,0.0921048,0.0917635,43.1319,1,0.00457597,10,0.00395794,-1.3652,0.660087,0.0893821,150.783,0.0917635,
2,1,0,1,0,1217.85,0.0953065,0.0949267,43.6388,1,0.00474954,10,0.00414249,-1.36013,0.584423,0.100954,172.462,0.0949267,
2,1,0,1,0,1217.85,0.0985054,0.0980984,44.1946,1,0.00492525,10,0.00433542,-1.35463,0.514336,0.114711,198.725,0.0980984,
2,1,0,1,0,1217.85,0.101702,0.101318,44.8792,1,0.00510343,10,0.00454706,-1.34796,0.467208,0.126282,222.035,0.101318,
2,1,0,1,0,1217.86,0.104906,0.104547,45.6722,1,0.00528458,10,0.00477488,-1.34035,0.428928,0.137552,245.649,0.104547,
2,1,0,1,0,1217.86,0.108102,0.107795,46.496,1,0.00546902,10,0.00501202,-1.33258,0.403271,0.146303,265.871,0.107795,
2,1,0,1,0,1217.87,0.111304,0.110991,47.3617,1,0.0056568,10,0.00525671,-1.32457,0.388593,0.15183,281.163,0.110991,
2,1,0,1,0,1217.87,0.114506,0.11415,48.2908,1,0.00584822,10,0.00551239,-1.31614,0.370329,0.159318,300.877,0.11415,
2,1,0,1,0,1217.87,0.117702,0.117355,49.2736,1,0.00604343,10,0.00578252,-1.30739,0.357972,0.164817,317.493,0.117355,
2,1,0,1,0,1217.88,0.120909,0.120558,50.3361,1,0.00624275,10,0.00606841,-1.29812,0.347333,0.169866,334.103,0.120558,
2,1,0,1,0,1217.88,0.124105,0.123749,51.4122,1,0.00644634,10,0.00636218,-1.28893,0.337669,0.174727,351.153,0.1237486,
2,1,0,1,0,1217.89,0.127301,0.126943,52.5649,1,0.00665439,10,0.00667273,-1.2793,0.328808,0.179436,368.802,0.126943,
2,1,0,1,0,1217.89,0.130508,0.1302,53.784,1,0.00686719,10,0.00700268,-1.26935,0.317543,0.185802,390.69,0.1302001,
2,1,0,1,0,1217.89,0.133705,0.133378,55.0642,1,0.00708502,10,0.00734437,-1.25913,0.310043,0.190296,409.581,0.133378,
2,1,0,1,0,1217.9,0.136906,0.136575,56.4234,1,0.00730808,10,0.00770604,-1.24854,0.301657,0.195587,431.243,0.136575,
2,1,0,1,0,1217.9,0.140105,0.139769,57.8185,1,0.0075367,10,0.00808124,-1.23793,0.292565,0.201664,455.827,0.139769,
2,1,0,1,0,1217.91,0.143301,0.142986,59.2981,1,0.00777103,10,0.00847882,-1.22696,0.287408,0.205283,476.008,0.142986,
2,1,0,1,0,1217.91,0.146506,0.146108,60.867,1,0.00801148,10,0.00889318,-1.21562,0.279365,0.211193,502.534,0.146108,
2,1,0,1,0,1217.91,0.149702,0.149364,62.5108,1,0.00825839,10,0.00933686,-1.20404,0.273559,0.215675,526.954,0.149364,
2,1,0,1,0,1217.92,0.152904,0.152539,64.2355,1,0.00851203,10,0.0097984,-1.19222,0.270688,0.217963,547.098,0.152539,
2,1,0,1,0,1217.92,0.156105,0.155767,66.0325,1,0.00877273,10,0.0102857,-1.18024,0.264792,0.222816,574.925,0.1557665,
2,1,0,1,0,1217.93,0.159301,0.15895,67.8926,1,0.00904076,10,0.0107915,-1.16818,0.262328,0.22491,596.675,0.15895,
2,1,0,1,0,1217.93,0.162509,0.162138,69.8553,1,0.00931639,10,0.0113262,-1.1558,0.259767,0.227126,619.708,0.162138,
2,1,0,1,0,1217.93,0.165705,0.165321,71.8623,1,0.00960001,10,0.0118803,-1.1435,0.260362,0.226608,635.814,0.165321,
2,1,0,1,0,1217.94,0.168901,0.16853,73.9419,1,0.0098918,10,0.0124614,-1.13111,0.262505,0.224758,648.492,0.16853,
2,1,0,1,0,1217.94,0.172108,0.171779,76.0493,1,0.010192,10,0.0130636,-1.1189,0.265918,0.221873,658.087,0.171779,
2,1,0,1,0,1217.95,0.175304,0.174948,78.1623,1,0.0105006,10,0.0136744,-1.107,0.271932,0.216966,661.454,0.174948,
2,1,0,1,0,1217.95,0.178506,0.178134,80.2943,1,0.0108178,10,0.0143031,-1.09532,0.277499,0.212613,665.658,0.178134,
2,1,0,1,0,1217.95,0.181705,0.181386,82.4458,1,0.0111435,10,0.0149545,-1.08383,0.288767,0.204317,656.262,0.181386,
2,1,0,1,0,1217.96,0.184901,0.184543,84.5458,1,0.0114777,10,0.0156023,-1.07291,0.302711,0.194905,641.547,0.184543,
2,1,0,1,0,1217.96,0.188105,0.187782,86.5849,1,0.0118202,10,0.0162591,-1.06256,0.318709,0.185122,623.87,0.1877823,
2,1,0,1,0,1217.97,0.191302,0.190959,88.5226,1,0.0121706,10,0.0169042,-1.05295,0.344953,0.171038,589.18,0.190959,
2,1,0,1,0,1217.97,0.194503,0.194103,90.3798,1,0.0125286,10,0.017543,-1.04393,0.3767,0.156623,550.463,0.194103,
2,1,0,1,0,1217.97,0.197705,0.197352,92.0931,1,0.0128938,10,0.0181748,-1.03577,0.424213,0.139081,497.588,0.197352,
2,1,0,1,0,1217.98,0.200901,0.200557,93.6169,1,0.0132654,10,0.0187755,-1.02865,0.502159,0.117493,426.97,0.200557,
2,1,0,1,0,1217.98,0.204108,0.203768,94.896,1,0.0136427,10,0.0193368,-1.02275,0.62549,0.0943261,347.154,0.203768,
2,1,0,1,0,1217.99,0.207305,0.207047,95.9063,1,0.0140245,10,0.0198571,-1.01815,0.877236,0.0672567,249.932,0.207047,
2,1,0,1,0,1217.99,0.210501,0.210187,96.5485,1,0.0144095,10,0.0202932,-1.01525,1.61645,0.0364998,136.422,0.210187,
2,1,0,1,0,1217.99,0.213708,0.213448,96.8389,1,0.0147965,10,0.0206701,-1.01395,70.4876,0.000837027,3.13358,0.213448,
2,1,0,1,0,1218,0.216904,0.216624,96.6499,1,0.0151836,10,0.0209367,-1.0148,-1.51492,-0.038946,-145.321,0.216624,
2,1,0,1,0,1218,0.220106,0.219857,95.9464,1,0.0155688,10,0.0210945,-1.01797,-0.698294,-0.0844917,-312.655,0.219857,
2,1,0,1,0,1218.01,0.223305,0.223061,94.6775,1,0.0159501,10,0.0211189,-1.02375,-0.443261,-0.133104,-485.631,0.223061,
2,1,0,1,0,1218.01,0.226501,0.22629,92.8239,1,0.0163251,10,0.0210051,-1.03234,-0.315311,-0.187117,-668.868,0.22629,
2,1,0,1,0,1218.01,0.229705,0.229507,90.3935,1,0.0166914,10,0.020746,-1.04386,-0.241857,-0.243946,-848.536,0.229507,
2,1,0,1,0,1218.02,0.232901,0.232674,87.3741,1,0.0170468,10,0.0203296,-1.05862,-0.194625,-0.303147,-1019.06,0.232674,
2,1,0,1,0,1218.02,0.236103,0.235881,83.799,1,0.017389,10,0.0197666,-1.07676,-0.162317,-0.363486,-1172.4,0.2358813,
2,1,0,1,0,1218.03,0.239305,0.239092,79.7775,1,0.0177159,10,0.0190742,-1.09812,-0.139821,-0.421969,-1296.97,0.239092,
2,1,0,1,0,1218.03,0.242501,0.242334,75.3555,1,0.0180258,10,0.0182612,-1.12289,-0.123008,-0.479642,-1394.31,0.242334,
2,1,0,1,0,1218.03,0.245708,0.245511,70.7246,1,0.0183175,10,0.0173637,-1.15043,-0.110383,-0.534503,-1459.95,0.245511,
2,1,0,1,0,1218.04,0.248904,0.248725,65.8911,1,0.0185903,10,0.0163888,-1.18117,-0.101163,-0.583216,-1487.69,0.248725,
2,1,0,1,0,1218.04,0.2521,0.251931,61.0342,1,0.0188437,10,0.0153764,-1.21443,-0.0944871,-0.624424,-1480.13,0.251931,
2,1,0,1,0,1218.05,0.255308,0.255148,56.2923,1,0.0190778,10,0.0143629,-1.24955,-0.0902333,-0.653861,-1434.03,0.255148,
2,1,0,1,0,1218.05,0.258504,0.258339,51.7379,1,0.0192934,10,0.0133659,-1.28619,-0.087954,-0.670806,-1357.31,0.258339,
2,1,0,1,0,1218.05,0.261708,0.261547,47.5032,1,0.0194913,10,0.0124243,-1.32328,-0.0870999,-0.677383,-1262.98,0.261547,
2,1,0,1,0,1218.06,0.264904,0.264753,43.6302,1,0.0196731,10,0.0115512,-1.36021,-0.0888262,-0.664219,-1142.04,0.264753,
2,1,0,1,0,1218.06,0.268101,0.267918,40.1634,1,0.0198402,10,0.0107605,-1.39617,-0.0924081,-0.638472,-1014.56,0.267918,
2,1,0,1,0,1218.07,0.271305,0.27109,37.1753,1,0.0199944,10,0.0100778,-1.42975,-0.0997926,-0.591226,-872.281,0.27109,
2,1,0,1,0,1218.07,0.274501,0.274256,34.6092,1,0.0201377,10,0.00949181,-1.46081,-0.110292,-0.534945,-736.215,0.274256,
2,1,0,1,0,1218.07,0.277708,0.277488,32.5213,1,0.0202716,10,0.00902429,-1.48783,-0.125365,-0.470626,-608.576,0.277488,
2,1,0,1,0,1218.08,0.280905,0.280663,30.7803,1,0.020398,10,0.0086389,-1.51173,-0.147071,-0.401167,-490.995,0.280663,
2,1,0,1,0,1218.08,0.284101,0.283871,29.397,1,0.0205181,10,0.00834496,-1.5317,-0.174079,-0.338926,-395.873,0.283871,
2,1,0,1,0,1218.09,0.287308,0.287061,28.3224,1,0.0206334,10,0.00813024,-1.54787,-0.213739,-0.276038,-309.832,0.287061,
2,1,0,1,0,1218.09,0.290504,0.290229,27.4776,1,0.0207448,10,0.00797479,-1.56102,-0.271598,-0.217233,-236.172,0.290229,
2,1,0,1,0,1218.09,0.2937,0.29341,26.8308,1,0.0208533,10,0.00787245,-1.57137,-0.33712,-0.175012,-185.618,0.29341,
2,1,0,1,0,1218.1,0.296907,0.296678,26.3725,1,0.0209597,10,0.00782412,-1.57885,-0.395993,-0.148993,-155.434,0.296678,
2,1,0,1,0,1218.1,0.29955,0.299241,26.0615,1,0.0210462,10,0.00779867,-1.584,-0.071882,-0.82079,-787.063,0.299241,
2,1,0,0,0,1218.1,0.300012,0.299746,25.9983,1,0.0210618,10,0.00779289,-1.58506,0.00280112,21.063,15011.6,0.299746,
2,1,0,1,0,1218.1,0.298983,0.298988,22.4408,1,0.0210919,10,0.00670953,-1.64896,0.00849154,6.94809,3244.96,0.298988,
2,1,0,1,0,1218.11,0.295787,0.295721,12.0137,1,0.0211589,10,0.0035527,-1.92032,0.00888656,6.63924,2648.96,0.295721,
2,1,0,1,0,1218.11,0.292579,0.292501,4.19053,1,0.02119,10,0.00122573,-2.37773,0.0231628,2.54719,2207.99,0.292501,
2,0,0,1,0,1218.12,0.289383,0.28928,-1.72654,1,0.0211939,10,-0.000499454,-2.76282,0.13341,0.442245,1673.4,0.28928,
2,0,0,1,0,1218.12,0.286187,0.286024,-6.18477,1,0.0211773,10,-0.00176899,-2.20868,-0.0278411,-2.11917,1268.84,0.286024,
2,0,0,1,0,1218.12,0.282983,0.282798,-9.61189,1,0.0211451,10,-0.00271822,-2.01719,-0.0141481,-4.17018,962.041,0.2827979,
2,0,0,1,0,1218.13,0.279786,0.279594,-12.1853,1,0.021101,10,-0.00340695,-1.91416,-0.0319526,-1.84649,735.935,0.279594,
2,0,0,1,0,1218.13,0.276582,0.276346,-14.1694,1,0.021048,10,-0.00391565,-1.84865,-0.052403,-1.12589,567.438,0.276346,
2,0,0,1,0,1218.14,0.273386,0.2731,-15.6954,1,0.020988,10,-0.00428642,-1.80423,-0.0775666,-0.760637,440.305,0.2731,
2,0,0,1,0,1218.14,0.27019,0.269958,-16.8975,1,0.0209226,10,-0.00456161,-1.77218,-0.108695,-0.542804,344.753,0.2699585,
2,0,0,1,0,1218.14,0.266982,0.266757,-17.8377,1,0.0208529,10,-0.00475832,-1.74866,-0.146278,-0.403341,273.585,0.266757,
2,0,0,1,0,1218.15,0.263786,0.263559,-18.5779,1,0.02078,10,-0.00489637,-1.731,-0.191583,-0.307961,219.541,0.263559,
2,0,0,1,0,1218.15,0.260585,0.260358,-19.1817,1,0.0207043,10,-0.00499409,-1.71711,-0.244479,-0.24133,178.567,0.260358,
2,0,0,1,0,1218.16,0.257383,0.257158,-19.7076,1,0.0206265,10,-0.00506798,-1.70537,-0.295416,-0.199719,152.295,0.257158,
2,0,0,1,0,1218.16,0.254187,0.253934,-20.1275,1,0.0205467,10,-0.00511105,-1.69621,-0.354301,-0.166525,130,0.253934,
2,0,0,1,0,1218.16,0.25098,0.250722,-20.5329,1,0.0204654,10,-0.00514805,-1.68755,-0.413752,-0.142597,113.689,0.250722,
2,0,0,1,0,1218.17,0.247783,0.247539,-20.848,1,0.0203826,10,-0.00516071,-1.68094,-0.455847,-0.129429,105.026,0.247539,
2,0,0,1,0,1218.17,0.244587,0.244319,-21.1673,1,0.0202985,10,-0.00517158,-1.67433,-0.504296,-0.116995,96.5433,0.244319,
2,0,0,1,0,1218.18,0.241383,0.241139,-21.4713,1,0.0202132,10,-0.00517756,-1.66814,-0.517987,-0.113902,95.3542,0.241139,
2,0,0,1,0,1218.18,0.238187,0.237933,-21.7676,1,0.0201267,10,-0.00517923,-1.66219,-0.539622,-0.109336,92.8323,0.237933,
2,0,0,1,0,1218.18,0.234982,0.234776,-22.065,1,0.020039,10,-0.00518035,-1.6563,-0.555321,-0.106245,91.4303,0.234776,
2,0,0,1,0,1218.19,0.231786,0.231526,-22.3549,1,0.0199501,10,-0.00517574,-1.65063,-0.553356,-0.106622,93.0371,0.2315262,
2,0,0,1,0,1218.19,0.22859,0.228357,-22.64,1,0.0198601,10,-0.00516999,-1.64512,-0.560315,-0.105298,93.1091,0.228357,
2,0,0,1,0,1218.2,0.225383,0.225114,-22.9603,1,0.0197688,10,-0.00516867,-1.63902,-0.527617,-0.111824,100.331,0.2251139,
2,0,0,1,0,1218.2,0.222187,0.221941,-23.2601,1,0.0196764,10,-0.00516238,-1.63339,-0.519863,-0.113491,103.188,0.221941,
2,0,0,1,0,1218.2,0.218979,0.218746,-23.6371,1,0.0195826,10,-0.00517053,-1.62641,-0.502799,-0.117343,108.278,0.218746,
2,0,0,1,0,1218.21,0.215783,0.215499,-23.9667,1,0.0194873,10,-0.00516481,-1.62039,-0.476967,-0.123698,115.835,0.215499,
2,0,0,1,0,1218.21,0.212587,0.212364,-24.3408,1,0.0193906,10,-0.00516911,-1.61366,-0.458355,-0.128721,122.654,0.212364,
2,0,0,1,0,1218.22,0.20938,0.209128,-24.7443,1,0.0192924,10,-0.00517473,-1.60653,-0.428094,-0.13782,133.444,0.209128,
2,0,0,1,0,1218.22,0.206184,0.205914,-25.211,1,0.0191925,10,-0.00519131,-1.59841,-0.402969,-0.146413,144.317,0.205914,
2,0,0,1,0,1218.22,0.202988,0.202718,-25.6723,1,0.0190906,10,-0.00520423,-1.59054,-0.380205,-0.155179,155.802,0.202718,
2,0,0,1,0,1218.23,0.199783,0.199518,-26.1947,1,0.0189869,10,-0.00522631,-1.58179,-0.362636,-0.162698,166.749,0.199518,
2,0,0,1,0,1218.23,0.196587,0.19636,-26.7336,1,0.0188809,10,-0.00524941,-1.57294,-0.342719,-0.172153,180.093,0.19636,
2,0,0,1,0,1218.24,0.193382,0.193143,-27.3407,1,0.0187728,10,-0.00528065,-1.56319,-0.322434,-0.182983,195.872,0.193143,
2,0,0,1,0,1218.24,0.190186,0.189954,-27.971,1,0.0186621,10,-0.0053132,-1.55329,-0.301821,-0.19548,214.243,0.189954,
2,0,0,1,0,1218.24,0.18699,0.186728,-28.6998,1,0.0185487,10,-0.00535906,-1.54212,-0.286067,-0.206246,231.779,0.186728,
2,0,0,1,0,1218.25,0.183783,0.183557,-29.4766,1,0.0184323,10,-0.00541063,-1.53052,-0.268588,-0.219668,253.452,0.183557,
2,0,0,1,0,1218.25,0.180587,0.18037,-30.3011,1,0.0183126,10,-0.00546541,-1.51854,-0.253789,-0.232476,276.051,0.18037,
2,0,0,1,0,1218.26,0.17738,0.177147,-31.2168,1,0.0181895,10,-0.00552998,-1.50561,-0.240796,-0.245021,299.782,0.177147,
2,0,0,1,0,1218.26,0.174183,0.173975,-32.2204,1,0.0180626,10,-0.00560554,-1.49187,-0.227652,-0.259168,327.273,0.173975,
2,0,0,1,0,1218.26,0.170987,0.170799,-33.3012,1,0.0179314,10,-0.0056878,-1.47754,-0.216234,-0.272852,356.054,0.170799,
2,0,0,1,0,1218.27,0.16778,0.16753,-34.5034,1,0.0177957,10,-0.00578034,-1.46214,-0.207433,-0.284429,384.354,0.1675296,
2,0,0,1,0,1218.27,0.164584,0.164389,-35.7597,1,0.0176551,10,-0.00587848,-1.44661,-0.199371,-0.29593,414.579,0.164389,
2,0,0,1,0,1218.28,0.161382,0.161157,-37.1472,1,0.0175092,10,-0.00598651,-1.43007,-0.191459,-0.30816,448.462,0.161157,
2,0,0,1,0,1218.28,0.158183,0.15796,-38.6237,1,0.0173575,10,-0.00610102,-1.41315,-0.184318,-0.320099,484.238,0.15796,
2,0,0,1,0,1218.28,0.154987,0.154779,-40.2215,1,0.0171997,10,-0.00622545,-1.39554,-0.178424,-0.330672,521.054,0.154779,
2,0,0,1,0,1218.29,0.151783,0.151649,-41.9287,1,0.0170352,10,-0.00635844,-1.37749,-0.17374,-0.339588,557.674,0.151649,
2,0,0,1,0,1218.29,0.148587,0.148415,-43.7863,1,0.0168636,10,-0.00649854,-1.35866,-0.170066,-0.346925,594.506,0.148415,
2,0,0,1,0,1218.3,0.145385,0.14521,-45.7342,1,0.0166844,10,-0.00664107,-1.33976,-0.168179,-0.350816,627.628,0.14521,
2,0,0,1,0,1218.3,0.142183,0.142005,-47.8161,1,0.0164971,10,-0.0067901,-1.32043,-0.167074,-0.353136,660.198,0.142005,
2,0,0,1,0,1218.3,0.138987,0.138804,-49.9904,1,0.0163013,10,-0.00693888,-1.30111,-0.167166,-0.352944,689.101,0.138804,
2,0,0,1,0,1218.31,0.13578,0.135563,-52.2713,1,0.0160966,10,-0.00708603,-1.28174,-0.169703,-0.347665,708.236,0.1355626,
2,0,0,1,0,1218.31,0.132584,0.13237,-54.5826,1,0.0158826,10,-0.00722508,-1.26295,-0.171191,-0.344644,733.408,0.1323697,
2,0,0,1,0,1218.32,0.129388,0.129264,-56.8396,1,0.0156595,10,-0.0073473,-1.24535,-0.173519,-0.340021,755.581,0.129264,
2,0,0,1,0,1218.32,0.12618,0.12607,-59.3299,1,0.015427,10,-0.00747971,-1.22673,-0.176491,-0.334295,774.513,0.12607,
2,0,0,1,0,1218.32,0.122984,0.122849,-61.8772,1,0.0151842,10,-0.00760157,-1.20847,-0.180334,-0.327171,788.567,0.122849,
2,0,0,1,0,1218.33,0.119782,0.119668,-64.4201,1,0.0149314,10,-0.00770903,-1.19098,-0.187966,-0.313886,786.902,0.119668,
2,0,0,1,0,1218.33,0.116584,0.116437,-66.9543,1,0.0146684,10,-0.00779596,-1.17422,-0.195996,-0.301027,784.264,0.116437,
2,0,0,1,0,1218.34,0.113387,0.113263,-69.4074,1,0.0143954,10,-0.00786131,-1.15859,-0.205625,-0.286931,775.586,0.113263,
2,0,0,1,0,1218.34,0.110183,0.110087,-71.8859,1,0.0141126,10,-0.00791373,-1.14336,-0.21444,-0.275135,770.562,0.110087,
2,0,0,1,0,1218.34,0.106987,0.10688,-74.3387,1,0.0138198,10,-0.00794529,-1.12879,-0.226031,-0.261026,755.529,0.10688,
2,0,0,1,0,1218.35,0.103785,0.103666,-76.7955,1,0.0135173,10,-0.00796105,-1.11466,-0.238783,-0.247087,737.941,0.103666,
2,0,0,1,0,1218.35,0.100583,0.100386,-79.1368,1,0.0132052,10,-0.0079442,-1.10162,-0.25609,-0.230388,708.649,0.100386,
2,0,0,1,0,1218.36,0.0973873,0.0972469,-81.3614,1,0.0128839,10,-0.00791215,-1.08958,-0.278256,-0.212035,670.649,0.0972469,
2,0,0,1,0,1218.36,0.0941801,0.0939978,-83.4674,1,0.012554,10,-0.00784575,-1.07848,-0.302408,-0.195101,632.877,0.0939978,
2,0,0,1,0,1218.36,0.0909839,0.0907646,-85.4475,1,0.012216,10,-0.00775561,-1.0683,-0.336864,-0.175145,581.338,0.0907646,
2,0,0,1,0,1218.37,0.0877878,0.0875962,-87.231,1,0.0118703,10,-0.0076411,-1.05933,-0.381081,-0.154823,524.418,0.0875962,
2,0,0,1,0,1218.37,0.0845806,0.0843725,-88.8458,1,0.011518,10,-0.00749615,-1.05136,-0.43699,-0.135015,465.698,0.0843725,
2,0,0,1,0,1218.38,0.0813844,0.0811531,-90.2034,1,0.0111597,10,-0.00732029,-1.04478,-0.525358,-0.112304,393.287,0.0811531,
2,0,0,1,0,1218.38,0.0781828,0.0780228,-91.3814,1,0.0107963,10,-0.00712983,-1.03914,-0.665162,-0.0887002,314.507,0.0780228,
2,0,0,1,0,1218.38,0.0749839,0.0747557,-92.281,1,0.0104288,10,-0.00689853,-1.03489,-0.909418,-0.0648767,232.125,0.0747557,
2,0,0,1,0,1218.39,0.0717877,0.0715087,-92.8916,1,0.0100584,10,-0.00664256,-1.03202,-1.56233,-0.0377641,135.963,0.0715087,
2,0,0,1,0,1218.39,0.0685832,0.0683699,-93.1707,1,0.00968608,10,-0.00637007,-1.03072,-5.89554,-0.0100076,36.132,0.0683699,
2,0,0,1,0,1218.4,0.0653871,0.0651664,-93.1294,1,0.00931343,10,-0.00606891,-1.03091,3.34326,0.0176475,-63.6956,0.0651664,
2,0,0,1,0,1218.4,0.0621854,0.061929,-92.7444,1,0.00894162,10,-0.00574357,-1.03271,1.27832,0.0461544,-165.9,0.061929,
2,0,0,1,0,1218.4,0.0589837,0.0587096,-92.0763,1,0.00857195,10,-0.00540577,-1.03585,0.800674,0.0736879,-262.917,0.0587096,
2,0,0,1,0,1218.41,0.0557876,0.0555369,-91.0417,1,0.00820571,10,-0.00505617,-1.04076,0.577191,0.102219,-360.679,0.0555369,
2,0,0,1,0,1218.41,0.0525804,0.0522708,-89.7389,1,0.00784419,10,-0.00469073,-1.04702,0.45612,0.129352,-450.097,0.0522708,
2,0,0,1,0,1218.42,0.0493842,0.0491034,-88.1185,1,0.00748856,10,-0.00432692,-1.05493,0.386534,0.152639,-522.095,0.0491034,
2,0,0,1,0,1218.42,0.0461881,0.0458882,-86.3055,1,0.00713984,10,-0.00396041,-1.06396,0.33591,0.175642,-588.966,0.0458882,
2,0,0,1,0,1218.42,0.0429808,0.0426848,-84.3316,1,0.00679869,10,-0.00359968,-1.07401,0.304619,0.193685,-634.806,0.0426848,
2,0,0,1,0,1218.43,0.0397847,0.0394919,-82.2125,1,0.00646582,10,-0.00324673,-1.08506,0.280731,0.210166,-671.971,0.0394919,
2,0,0,1,0,1218.43,0.036583,0.0362757,-79.9754,1,0.00614165,10,-0.00290116,-1.09704,0.262813,0.224494,-699.031,0.0362757,
2,0,0,1,0,1218.44,0.0333841,0.0330796,-77.6984,1,0.00582653,10,-0.00257023,-1.10959,0.254062,0.232226,-703.387,0.0330796,
2,0,0,1,0,1218.44,0.030188,0.0299175,-75.4069,1,0.00552053,10,-0.00225598,-1.12259,0.245786,0.240047,-706.075,0.0299175,
2,0,0,1,0,1218.44,0.0269835,0.0266546,-73.183,1,0.00522357,10,-0.00195066,-1.13559,0.241385,0.244423,-697.731,0.0266546,
2,0,0,1,0,1218.45,0.0237874,0.0234829,-70.9427,1,0.00493554,10,-0.00166594,-1.14909,0.238725,0.247146,-684.181,0.0234829,
2,0,0,1,0,1218.45,0.0205857,0.0202869,-68.7725,1,0.00465632,10,-0.00139518,-1.16259,0.23502,0.251042,-674.075,0.0202869,
2,0,0,1,0,1218.46,0.017384,0.0171056,-66.6413,1,0.00438569,10,-0.00113994,-1.17626,0.236688,0.249273,-648.833,0.0171056,
2,0,0,1,0,1218.46,0.0141879,0.0139191,-64.5983,1,0.00412345,10,-0.000899151,-1.18978,0.235128,0.250927,-633.058,0.0139191,
2,0,0,1,0,1218.46,0.0109806,0.0106562,-62.6204,1,0.00386922,10,-0.000667298,-1.20328,0.236069,0.249927,-611.111,0.0106562,
2,0,0,1,0,1218.47,0.00778448,0.00751214,-60.6854,1,0.0036228,10,-0.000455877,-1.21692,0.242554,0.243245,-577.23,0.007512141,
2,0,0,1,0,1218.47,0.00458834,0.00431926,-58.8274,1,0.00338396,10,-0.000254091,-1.23042,0.244185,0.24162,-556.177,0.00431926,
2,0,0,1,0,1218.48,0.0013811,0.00103942,-57.1638,1,0.00315224,10,-5.94171e-05,-1.24288,0.252149,0.233988,-522.893,0.00103942,
2,0,0,1,0,1218.48,-0.00181504,-0.00217043,-55.4865,1,0.00292714,10,0.00012043,-1.25581,0.262452,0.224803,-488.107,-0.00217043,
2,0,0,1,0,1218.48,-0.0050195,-0.00533681,-53.9668,1,0.00270846,10,0.00028801,-1.26787,0.273051,0.216077,-456.975,-0.00533681,
2,0,0,1,0,1218.49,-0.00821564,-0.00852015,-52.5604,1,0.00249558,10,0.000447822,-1.27934,0.295329,0.199777,-411.769,-0.00852015,
2,0,0,1,0,1218.49,-0.0114118,-0.0117448,-51.3217,1,0.002288,10,0.000602765,-1.2897,0.326141,0.180904,-364.322,-0.0117448,
2,0,0,1,0,1218.5,-0.0146162,-0.014942,-50.2275,1,0.00208503,10,0.000750499,-1.29906,0.372093,0.158562,-312.71,-0.014942,
2,0,0,1,0,1218.5,-0.0178124,-0.0181211,-49.3092,1,0.00188609,10,0.000893535,-1.30707,0.433923,0.135969,-263.294,-0.0181211,
2,0,0,1,0,1218.5,-0.0210196,-0.0213161,-48.559,1,0.00169047,10,0.00103509,-1.31373,0.517329,0.114047,-217.336,-0.0213161,
2,0,0,1,0,1218.51,-0.0242158,-0.0245418,-47.9523,1,0.00149754,10,0.00117684,-1.31919,0.649755,0.0908034,-170.829,-0.0245418,
2,0,0,1,0,1218.51,-0.0274119,-0.027687,-47.4576,1,0.00130677,10,0.00131396,-1.32369,0.821293,0.0718379,-133.728,-0.027687,
2,0,0,1,0,1218.52,-0.0306191,-0.0309467,-47.1182,1,0.0011177,10,0.00145815,-1.32681,1.14147,0.0516875,-95.492,-0.0309467,
2,0,0,1,0,1218.52,-0.0338153,-0.0341078,-46.8484,1,0.000929811,10,0.00159789,-1.32931,1.74112,0.0338862,-62.2329,-0.0341078,
2,0,0,1,0,1218.52,-0.037017,-0.0373346,-46.7307,1,0.000742698,10,0.00174467,-1.3304,3.00756,0.0196172,-35.8975,-0.0373346,
2,0,0,1,0,1218.53,-0.0402187,-0.0404946,-46.6605,1,0.00055594,10,0.0018895,-1.33105,11.7146,0.00503644,-9.19674,-0.0404946,
2,0,0,1,0,1218.53,-0.0434148,-0.043749,-46.6586,1,0.00036931,10,0.00204127,-1.33107,-10.9522,-0.00538704,9.83782,-0.043749,
2,0,0,1,0,1218.54,-0.0466193,-0.0469557,-46.7302,1,0.000182549,10,0.00219425,-1.3304,-3.77127,-0.0156446,28.6005,-0.0469557,
2,0,0,1,0,1218.54,-0.0498154,-0.0500998,-46.8563,1,-4.6107e-06,10,0.00234749,-1.32923,-2.28778,-0.0257892,47.2641,-0.0500998,
2,0,0,1,0,1218.54,-0.0530115,-0.0532767,-47.0261,1,-0.000192387,10,0.0025054,-1.32766,-1.82018,-0.0324144,59.5955,-0.05327674,
2,0,0,1,0,1218.55,-0.056216,-0.0565354,-47.263,1,-0.000381007,10,0.00267203,-1.32548,-1.4849,-0.0397334,73.386,-0.0565354,
2,0,0,1,0,1218.55,-0.0594121,-0.0597336,-47.4917,1,-0.000570546,10,0.00283685,-1.32338,-1.32884,-0.0443995,82.3976,-0.0597336,
2,0,0,1,0,1218.56,-0.0626194,-0.0629254,-47.7975,1,-0.000761123,10,0.00300767,-1.3206,-1.19742,-0.0492726,92.0089,-0.0629254,
2,0,0,1,0,1218.56,-0.0658155,-0.0661002,-48.0827,1,-0.000952925,10,0.00317828,-1.31801,-1.08865,-0.0541955,101.822,-0.0661002,
2,0,0,1,0,1218.56,-0.0690117,-0.0692974,-48.4372,1,-0.00114598,10,0.00335657,-1.31482,-1.04423,-0.0565011,106.895,-0.0692974,
2,0,0,1,0,1218.57,-0.0722189,-0.0725465,-48.7964,1,-0.00134049,10,0.00354,-1.31161,-0.972199,-0.0606871,115.624,-0.0725465,
2,0,0,1,0,1218.57,-0.075415,-0.0757054,-49.1636,1,-0.00153645,10,0.00372195,-1.30836,-0.948415,-0.062209,119.445,-0.0757054,
2,0,0,1,0,1218.58,-0.0786167,-0.0788983,-49.5625,1,-0.00173393,10,0.0039104,-1.30485,-0.916845,-0.0643511,124.53,-0.0788983,
2,0,0,1,0,1218.58,-0.0818184,-0.0821103,-49.9676,1,-0.00193301,10,0.00410285,-1.30131,-0.86975,-0.0678356,132.39,-0.0821103,
2,0,0,1,0,1218.58,-0.0850146,-0.0852862,-50.3828,1,-0.00213375,10,0.00429696,-1.29772,-0.860127,-0.0685945,134.98,-0.0852862,
2,0,0,1,0,1218.59,-0.088219,-0.0885257,-50.8609,1,-0.00233624,10,0.0045025,-1.29362,-0.843562,-0.0699415,138.809,-0.0885257,
2,0,0,1,0,1218.59,-0.0914152,-0.0917027,-51.2908,1,-0.00254059,10,0.00470351,-1.28996,-0.817106,-0.072206,144.57,-0.0917027,
2,0,0,1,0,1218.6,-0.0946141,-0.0949444,-51.7491,1,-0.00274672,10,0.00491329,-1.2861,-0.80936,-0.0728971,147.355,-0.09494438,
2,0,0,1,0,1218.6,-0.0978158,-0.0980906,-52.234,1,-0.00295477,10,0.00512366,-1.28205,-0.778846,-0.0757531,154.542,-0.0980906,
2,0,0,1,0,1218.6,-0.101012,-0.101285,-52.741,1,-0.00316476,10,0.00534184,-1.27785,-0.756314,-0.0780099,160.653,-0.101285,
2,0,0,1,0,1218.61,-0.104219,-0.104503,-53.269,1,-0.00337682,10,0.00556677,-1.27353,-0.748287,-0.0788468,163.938,-0.104503,
2,0,0,1,0,1218.61,-0.107415,-0.107719,-53.8014,1,-0.00359102,10,0.00579544,-1.26921,-0.723478,-0.0815505,171.329,-0.1077191,
2,0,0,1,0,1218.62,-0.110611,-0.110887,-54.3317,1,-0.00380737,10,0.00602466,-1.26495,-0.708276,-0.0833009,176.827,-0.110887,
2,0,0,1,0,1218.62,-0.113819,-0.114108,-54.938,1,-0.00402598,10,0.00626887,-1.26013,-0.688212,-0.0857294,183.91,-0.114108,
2,0,0,1,0,1218.62,-0.117015,-0.117294,-55.5307,1,-0.00424697,10,0.0065134,-1.25547,-0.670894,-0.0879424,190.637,-0.117294,
2,0,0,1,0,1218.63,-0.120216,-0.120498,-56.1516,1,-0.00447037,10,0.00676616,-1.25064,-0.663344,-0.0889433,194.996,-0.120498,
2,0,0,1,0,1218.63,-0.123418,-0.123711,-56.7765,1,-0.00469631,10,0.00702389,-1.24583,-0.648832,-0.0909326,201.614,-0.123711,
2,0,0,1,0,1218.64,-0.126614,-0.126898,-57.4319,1,-0.00492478,10,0.00728797,-1.24085,-0.636321,-0.0927205,207.965,-0.126898,
2,0,0,1,0,1218.64,-0.129819,-0.130097,-58.1121,1,-0.00515594,10,0.0075602,-1.23573,-0.621595,-0.0949171,215.383,-0.130097,
2,0,0,1,0,1218.64,-0.133015,-0.133288,-58.8114,1,-0.00538985,10,0.00783883,-1.23054,-0.608767,-0.0969172,222.586,-0.133288,
2,0,0,1,0,1218.65,-0.136214,-0.136509,-59.533,1,-0.00562661,10,0.0081268,-1.22524,-0.601391,-0.0981059,228.01,-0.136509,
2,0,0,1,0,1218.65,-0.139416,-0.139727,-60.2877,1,-0.00586634,10,0.00842384,-1.21977,-0.595852,-0.0990179,233,-0.139727,
2,0,0,1,0,1218.66,-0.142612,-0.14283,-61.0154,1,-0.00610904,10,0.00871485,-1.21456,-0.589176,-0.10014,238.572,-0.14283,
2,0,0,1,0,1218.66,-0.145819,-0.146125,-61.8024,1,-0.00635474,10,0.00903087,-1.20899,-0.585565,-0.100757,243.118,-0.1461249,
2,0,0,1,0,1218.66,-0.149015,-0.149289,-62.582,1,-0.0066036,10,0.00934281,-1.20355,-0.580648,-0.101611,248.237,-0.149289,
2,0,0,1,0,1218.67,-0.152211,-0.152496,-63.3919,1,-0.00685563,10,0.009667,-1.19797,-0.577767,-0.102117,252.684,-0.152496,
2,0,0,1,0,1218.67,-0.155418,-0.155694,-64.2087,1,-0.00711095,10,0.00999691,-1.19241,-0.580792,-0.101585,254.528,-0.155694,
2,0,0,1,0,1218.68,-0.158615,-0.158908,-65.0326,1,-0.00736951,10,0.0103342,-1.18687,-0.572718,-0.103018,261.522,-0.158908,
2,0,0,1,0,1218.68,-0.161816,-0.162118,-65.8473,1,-0.00763136,10,0.010675,-1.18146,-0.574982,-0.102612,263.823,-0.162118,
2,0,0,1,0,1218.68,-0.165018,-0.165269,-66.7325,1,-0.0078966,10,0.0110288,-1.17566,-0.569813,-0.103543,269.691,-0.165269,
2,0,0,1,0,1218.69,-0.168214,-0.168471,-67.5795,1,-0.00816532,10,0.0113852,-1.17018,-0.567024,-0.104052,274.429,-0.168471,
2,0,0,1,0,1218.69,-0.171419,-0.171676,-68.4761,1,-0.00843752,10,0.0117557,-1.16446,-0.57483,-0.102639,274.276,-0.171676,
2,0,0,1,0,1218.7,-0.174615,-0.174853,-69.3423,1,-0.00871323,10,0.0121247,-1.159,-0.566594,-0.104131,281.874,-0.174853,
2,0,0,1,0,1218.7,-0.177814,-0.178061,-70.2409,1,-0.00899247,10,0.0125072,-1.15341,-0.566196,-0.104204,285.829,-0.1780612,
2,0,0,1,0,1218.7,-0.181015,-0.181216,-71.172,1,-0.00927543,10,0.0128975,-1.14769,-0.56076,-0.105214,292.349,-0.181216,
2,0,0,1,0,1218.71,-0.184211,-0.184437,-72.1235,1,-0.00956212,10,0.0133023,-1.14192,-0.555209,-0.106266,299.176,-0.184437,
2,0,0,1,0,1218.71,-0.187419,-0.187655,-73.0847,1,-0.00985266,10,0.0137147,-1.13617,-0.55856,-0.105629,301.305,-0.187655,
2,0,0,1,0,1218.72,-0.190615,-0.190861,-74.0704,1,-0.0101471,10,0.0141372,-1.13036,-0.551974,-0.106889,309.081,-0.190861,
2,0,0,1,0,1218.72,-0.193811,-0.194064,-75.0431,1,-0.0104454,10,0.0145632,-1.12469,-0.550634,-0.107149,313.586,-0.1940638,
2,0,0,1,0,1218.72,-0.197018,-0.197295,-76.0975,1,-0.0107478,10,0.0150136,-1.11863,-0.562047,-0.104973,309.505,-0.197295,
2,0,0,1,0,1218.73,-0.199647,-0.199912,-76.9284,1,-0.0110003,10,0.0153789,-1.11391,0.519971,0.113468,-328.419,-0.199912,
2,0,0,0,0,1218.73,-0.200134,-0.200475,-77.0459,1,-0.0110465,10,0.0154458,-1.11325,-0.0133905,-4.4061,11917.5,-0.200475,
2,0,0,1,1,1218.73,-0.198935,-0.199398,-73.2914,1,-0.0111582,10,0.0146141,-1.13495,-0.0443608,-1.33,3355.18,-0.199398,
2,0,0,1,1,1218.73,-0.195739,-0.19619,-62.9297,1,-0.0114292,10,0.0123462,-1.20114,-0.0466562,-1.26457,2954.18,-0.19619,
2,0,0,1,1,1218.74,-0.192535,-0.192999,-53.7349,1,-0.0116613,10,0.0103708,-1.26974,-0.0447983,-1.31701,2756.69,-0.192999,
2,0,0,1,1,1218.74,-0.189339,-0.189777,-45.4409,1,-0.0118587,10,0.00862361,-1.34255,-0.0415091,-1.42138,2496.96,-0.189777,
2,0,0,1,1,1218.75,-0.186137,-0.186541,-37.8503,1,-0.0120243,10,0.00706065,-1.42193,-0.0373878,-1.57806,2289.09,-0.186541,
2,0,0,1,1,1218.75,-0.182935,-0.183351,-30.8702,1,-0.0121609,10,0.00566007,-1.51046,-0.0326735,-1.80574,2108.12,-0.183351,
2,0,0,1,1,1218.75,-0.179739,-0.180192,-24.4172,1,-0.0122707,10,0.00439976,-1.6123,-0.0273482,-2.15736,1949.45,-0.180192,
2,0,0,1,1,1218.76,-0.176532,-0.176952,-18.4052,1,-0.0123556,10,0.00325684,-1.73506,-0.0212448,-2.77715,1807.79,-0.176952,
2,0,0,1,1,1218.76,-0.173336,-0.173725,-12.866,1,-0.0124175,10,0.00223515,-1.89056,-0.013798,-4.27597,1679.26,-0.173725,
2,0,0,1,1,1218.77,-0.17014,-0.170529,-7.69188,1,-0.012458,10,0.00131169,-2.11397,-0.0120991,-4.87641,1567.28,-0.170529,
2,0,0,1,1,1218.77,-0.166932,-0.16736,-2.86885,1,-0.0124785,10,0.00048013,-2.54229,-0.0370009,-1.59456,1468.19,-0.16736,
2,1,0,1,1,1218.77,-0.163736,-0.164176,1.6181,1,-0.0124805,10,-0.000265654,-2.79099,0.123276,0.478603,1372.62,-0.164176,
2,1,0,1,1,1218.78,-0.160532,-0.160994,5.82591,1,-0.0124651,10,-0.000937937,-2.23464,0.0190547,3.09634,1275.48,-0.160994,
2,1,0,1,1,1218.78,-0.157336,-0.15782,9.75274,1,-0.0124335,10,-0.00153918,-2.01087,0.0125268,4.7099,1192.7,-0.15782,
2,1,0,1,1,1218.79,-0.154139,-0.154604,13.4007,1,-0.0123867,10,-0.00207181,-1.87287,0.0237316,2.48614,1117.76,-0.154604,
2,1,0,1,1,1218.79,-0.150935,-0.151444,16.8039,1,-0.0123259,10,-0.00254485,-1.77459,0.0342674,1.72175,1041.26,-0.151444,
2,1,0,1,1,1218.79,-0.147739,-0.148239,20.0825,1,-0.0122518,10,-0.00297701,-1.69718,0.0445537,1.32425,981.748,-0.148239,
2,1,0,1,1,1218.8,-0.144532,-0.144958,23.1451,1,-0.012165,10,-0.00335508,-1.63554,0.055884,1.05576,914.069,-0.144958,
2,1,0,1,1,1218.8,-0.141335,-0.141804,25.9673,1,-0.0120664,10,-0.00368226,-1.58557,0.0682671,0.864252,849.011,-0.141804,
2,1,0,1,1,1218.81,-0.138139,-0.138531,28.6069,1,-0.0119569,10,-0.00396295,-1.54353,0.0812303,0.72633,791.552,-0.138531,
2,1,0,1,1,1218.81,-0.134932,-0.135315,31.0553,1,-0.0118373,10,-0.00420225,-1.50786,0.0961084,0.61389,729.053,-0.135315,
2,1,0,1,1,1218.81,-0.131736,-0.132104,33.3199,1,-0.0117082,10,-0.0044017,-1.4773,0.111379,0.529722,677.298,-0.132104,
2,1,0,1,1,1218.82,-0.12854,-0.128896,35.3774,1,-0.0115706,10,-0.00456002,-1.45127,0.12882,0.458002,623.832,-0.128896,
2,1,0,1,1,1218.82,-0.125333,-0.125695,37.3009,1,-0.011425,10,-0.00468854,-1.42828,0.147378,0.400332,576.203,-0.125695,
2,1,0,1,1,1218.83,-0.122136,-0.122497,39.0517,1,-0.0112721,10,-0.00478371,-1.40836,0.168007,0.351177,530.119,-0.122497,
2,1,0,1,1,1218.83,-0.118932,-0.119322,40.6851,1,-0.0111124,10,-0.00485462,-1.39057,0.191394,0.308265,485.35,-0.119322,
2,1,0,1,1,1218.83,-0.115736,-0.116061,42.1815,1,-0.0109465,10,-0.00489564,-1.37488,0.214672,0.274838,448.962,-0.116061,
2,1,0,1,1,1218.84,-0.11254,-0.112828,43.5459,1,-0.0107749,10,-0.0049132,-1.36105,0.244933,0.240882,406.517,-0.112828,
2,1,0,1,1,1218.84,-0.109335,-0.109707,44.7937,1,-0.010598,10,-0.0049142,-1.34878,0.274924,0.214605,372.889,-0.109707,
2,1,0,1,1,1218.85,-0.106139,-0.106482,45.9049,1,-0.0104165,10,-0.00488803,-1.33814,0.30811,0.19149,341.42,-0.1064816,
2,1,0,1,1,1218.85,-0.102932,-0.103279,46.9478,1,-0.0102307,10,-0.00484873,-1.32838,0.351928,0.167648,305.752,-0.103279,
2,1,0,1,1,1218.85,-0.0997357,-0.100092,47.8944,1,-0.0100409,10,-0.00479382,-1.31972,0.392539,0.150304,279.639,-0.100092,
2,1,0,1,1,1218.86,-0.0965395,-0.0968531,48.7239,1,-0.00984747,10,-0.00471906,-1.31226,0.448267,0.131618,249.261,-0.0968531,
2,1,0,1,1,1218.86,-0.0933323,-0.0936825,49.4841,1,-0.00965094,10,-0.00463579,-1.30553,0.507222,0.11632,223.865,-0.09368249,
2,1,0,1,1,1218.87,-0.0901362,-0.0904748,50.1395,1,-0.0094516,10,-0.00453636,-1.29982,0.566718,0.104108,203.192,-0.0904748,
2,1,0,1,1,1218.87,-0.0869345,-0.0872872,50.7608,1,-0.00924974,10,-0.00443077,-1.29447,0.64578,0.0913624,180.534,-0.0872872,
2,1,0,1,1,1218.87,-0.0837328,-0.0840816,51.319,1,-0.00904548,10,-0.00431498,-1.28972,0.726903,0.0811663,162.089,-0.0840816,
2,1,0,1,1,1218.88,-0.0805366,-0.0808654,51.798,1,-0.00883921,10,-0.00418866,-1.28569,0.838317,0.0703791,141.91,-0.0808654,
2,1,0,1,1,1218.88,-0.0773322,-0.0776746,52.2143,1,-0.00863112,10,-0.00405572,-1.28221,0.969133,0.0608792,123.811,-0.07767459,
2,1,0,1,1,1218.89,-0.074136,-0.0744541,52.582,1,-0.00842149,10,-0.00391494,-1.27916,1.08504,0.0543759,111.428,-0.0744541,
2,1,0,1,1,1218.89,-0.0709371,-0.0712263,52.9106,1,-0.00821046,10,-0.00376863,-1.27646,1.24594,0.0473537,97.6436,-0.0712263,
2,1,0,1,1,1218.89,-0.0677354,-0.0680652,53.2243,1,-0.00799813,10,-0.00362272,-1.27389,1.4024,0.0420707,87.246,-0.0680652,
2,1,0,1,1,1218.9,-0.0645393,-0.0648988,53.4617,1,-0.00778471,10,-0.0034696,-1.27196,1.65602,0.0356276,74.2243,-0.0648988,
2,1,0,1,1,1218.9,-0.0613321,-0.0616709,53.6972,1,-0.00757038,10,-0.00331156,-1.27005,2.02194,0.0291798,61.0547,-0.0616709,
2,1,0,1,1,1218.91,-0.0581359,-0.0584855,53.8563,1,-0.00735524,10,-0.00314981,-1.26876,2.29938,0.0256591,53.881,-0.0584855,
2,1,0,1,1,1218.91,-0.0549398,-0.0552894,54.0043,1,-0.00713949,10,-0.00298587,-1.26757,2.88832,0.0204271,43.0271,-0.0552894,
2,1,0,1,1,1218.91,-0.0517325,-0.0520944,54.1516,1,-0.00692312,10,-0.002821,-1.26639,3.41734,0.0172649,36.4453,-0.0520944,
2,1,0,1,1,1218.92,-0.0485364,-0.0488548,54.2487,1,-0.00670631,10,-0.00265031,-1.26561,4.56871,0.0129139,27.3059,-0.0488548,
2,1,0,1,1,1218.92,-0.0453347,-0.0456662,54.3235,1,-0.00648914,10,-0.00248075,-1.26501,6.97185,0.00846261,17.9226,-0.0456662,
2,1,0,1,1,1218.93,-0.042133,-0.0424447,54.355,1,-0.00627178,10,-0.00230708,-1.26476,9.92149,0.00594669,12.6087,-0.0424447,
2,1,0,1,1,1218.93,-0.0389369,-0.0392518,54.3818,1,-0.00605428,10,-0.00213458,-1.26455,23.7845,0.00248061,5.26234,-0.0392518,
2,1,0,1,1,1218.93,-0.0357324,-0.0360844,54.4097,1,-0.00583675,10,-0.00196334,-1.26432,-77.0526,-0.00076571,-1.624,-0.0360844,
2,1,0,1,1,1218.94,-0.0325363,-0.0328682,54.3909,1,-0.00561912,10,-0.00178773,-1.26447,-14.1784,-0.00416125,-8.8225,-0.0328682,
2,1,0,1,1,1218.94,-0.0293374,-0.0296944,54.3343,1,-0.00540168,10,-0.00161342,-1.26493,-7.0835,-0.00832922,-17.6498,-0.0296944,
2,1,0,1,1,1218.95,-0.0261357,-0.0264919,54.2692,1,-0.00518445,10,-0.0014377,-1.26545,-5.51674,-0.0106947,-22.6411,-0.0264919,
2,1,0,1,1,1218.95,-0.0229395,-0.0232715,54.1836,1,-0.00496756,10,-0.00126093,-1.26613,-4.5576,-0.0129454,-27.362,-0.0232715,
2,1,0,1,1,1218.95,-0.0197323,-0.0200489,54.1006,1,-0.00475098,10,-0.00108466,-1.2668,-3.62019,-0.0162975,-34.3769,-0.0200489,
2,1,0,1,1,1218.96,-0.0165361,-0.0168709,53.9835,1,-0.00453482,10,-0.000910747,-1.26774,-3.15014,-0.0187293,-39.4206,-0.0168709,
2,1,0,1,1,1218.96,-0.01334,-0.0136589,53.8281,1,-0.0043192,10,-0.000735231,-1.26899,-2.6061,-0.0226392,-47.5318,-0.0136589,
2,1,0,1,1,1218.97,-0.0101328,-0.0104671,53.6788,1,-0.00410419,10,-0.000561859,-1.2702,-2.39007,-0.0246855,-51.6882,-0.0104671,
2,1,0,1,1,1218.97,-0.00693663,-0.00730704,53.495,1,-0.00388982,10,-0.00039089,-1.27169,-2.23011,-0.026456,-55.2185,-0.00730704,
2,1,0,1,1,1218.97,-0.00373494,-0.0040728,53.3219,1,-0.00367621,10,-0.00021717,-1.27309, , , ,-0.0040728,
2,1,0,1,1,1218.98,-0.000774628,-0.00109836,53.1345,1,-0.00347925,10,-5.83608e-05,-1.27462, , , ,-0.00109836,
2,1,0,1,1,1218.98,-0.000125413,-0.000478022,53.0983,1,-0.00343676,10,-2.53822e-05,-1.27492, , , ,-0.000478022,