File: Figure_codes/Fig_3-5/rawdata_trumpetplot_data/before 10th/20221101_1-115_002_TrumpetPlot_ParaChange_07_CV_C01.mpt
EC-Lab ASCII FILE
Nb header lines : 68

Cyclic Voltammetry

Run on channel : 1 (SN 65296)
User :
CE vs. WE compliance from -10 V to 10 V
Electrode connection : standard
Potential control : Ewe
Ewe ctrl range : min = -1.00 V, max = 1.00 V
Safety Limits :
	Do not start on E overload
Acquisition started on : 11/08/2022 17:30:03.488
Loaded Setting File :  NONE
Saved on :
	File : 20221101_1-115_002_TrumpetPlot_ParaChange_07_CV_C01.mpr
	Directory : C:\Users\NakamuraT\Documents\EC-Lab\Data\Yatsuzuka\20221108_1-115_001_TrumpetPlot\
	Host : 192.109.209.100
Device : SP-50e (SN .003219)
Address : 192.109.209.128
EC-Lab for windows v11.43 (software)
Internet server v11.40 (firmware)
Command interpretor v11.40 (firmware)
Electrode material : Au/Pd
Initial state :
Electrolyte : NaCl (0.2M)
Comments : Fe(CN)63-/Fe(CN)64- 5.10-3 M
Reference electrode : SCE Saturated Calomel Electrode (0.241 V)
Electrode surface area : 0.001 cm2
Characteristic mass : 0.001 g
Equivalent Weight : 0.000 g/eq.
Density : 0.000 g/cm3
Volume (V) : 0.001 cm3
Cycle Definition : Charge/Discharge alternance
Ei (V)              0.000
vs.                 Ref
dE/dt               20.000
dE/dt unit          mV/s
E1 (V)              0.300
vs.                 Ref
Step percent        50
N                   10
E range min (V)     -1.000
E range max (V)     1.000
I Range             10 mA
I Range min         Unset
I Range max         Unset
I Range init        Unset
Bandwidth           5
E2 (V)              0.000
vs.                 Ref
nc cycles           0
Reverse Scan        0
Ef (V)              0.000
vs.                 Eoc

Number of loops : 8
Loop 0 from point number 0 to 1204
Loop 1 from point number 1205 to 2409
Loop 2 from point number 2410 to 3614
Loop 3 from point number 3615 to 4819
Loop 4 from point number 4820 to 6024
Loop 5 from point number 6025 to 7229
Loop 6 from point number 7230 to 8434
Loop 7 from point number 8435 to 9639

mode	ox/red	error	control changes	counter inc.	time/s	control/V	Ewe/V	<I>/mA	cycle number	(Q-Qo)/C	I Range	P/W
2	0	0	1	0	1139.09	2.44065e-05	-0.000248974	-1.13351	1	0.0000000E+000	11	2.82216e-07
2	1	0	1	0	1139.45	0.00729063	0.00701806	0.840662	1	0.000242218	11	5.89981e-06
2	1	0	1	0	1139.83	0.0147802	0.014498	0.906791	1	0.000573564	11	1.31467e-05
2	1	0	1	0	1140.2	0.0222725	0.0219953	0.944804	1	0.000923344	11	2.07813e-05
2	1	0	1	0	1140.58	0.0297644	0.0293897	0.970523	1	0.00128449	11	2.85234e-05
2	1	0	1	0	1140.95	0.0372544	0.0369748	0.992551	1	0.00165525	11	3.66993e-05
2	1	0	1	0	1141.32	0.0447449	0.0444488	1.02666	1	0.00203677	11	4.56337e-05
2	1	0	1	0	1141.7	0.0522363	0.0519226	1.07129	1	0.00243248	11	5.5624e-05
2	1	0	1	0	1142.07	0.0597291	0.0594484	1.13668	1	0.00284789	11	6.75739e-05
2	1	0	1	0	1142.45	0.0672182	0.0669616	1.21941	1	0.00329015	11	8.16533e-05
2	1	0	1	0	1142.82	0.0747092	0.0744175	1.32187	1	0.00376732	11	9.83706e-05
2	1	0	1	0	1143.2	0.0822001	0.0819527	1.43139	1	0.00428627	11	0.000117306
2	1	0	1	0	1143.57	0.0896911	0.0893884	1.56234	1	0.00485029	11	0.000139655
2	1	0	1	0	1143.95	0.097182	0.0968789	1.68895	1	0.00546278	11	0.000163624
2	1	0	1	0	1144.32	0.104673	0.104422	1.85475	1	0.00612781	11	0.000193676
2	1	0	1	0	1144.7	0.112164	0.111889	2.06933	1	0.00686155	11	0.000231534
2	1	0	1	0	1145.07	0.119655	0.119405	2.40488	1	0.0076972	11	0.000287155
2	1	0	1	0	1145.44	0.127146	0.12684	2.85733	1	0.00868342	11	0.000362422
2	1	0	1	0	1145.82	0.134637	0.134337	3.35542	1	0.00985335	11	0.000450756
2	1	0	1	0	1146.19	0.142128	0.14185	3.68448	1	0.0111833	11	0.000522643
2	1	0	1	0	1146.57	0.149619	0.149363	3.70636	1	0.0125818	11	0.000553591
2	1	0	1	0	1146.94	0.157108	0.156809	3.30373	1	0.0139105	11	0.000518055
2	1	0	1	0	1147.32	0.164601	0.16437	2.58103	1	0.0150182	11	0.000424243
2	1	0	1	0	1147.69	0.172092	0.171812	1.96894	1	0.0158656	11	0.000338289
2	1	0	1	0	1148.07	0.179582	0.179313	1.6171	1	0.0165351	11	0.000289966
2	1	0	1	0	1148.44	0.187073	0.186822	1.4022	1	0.0171002	11	0.000261962
2	1	0	1	0	1148.82	0.194564	0.194305	1.2673	1	0.0176009	11	0.000246242
2	1	0	1	0	1149.19	0.202057	0.201822	1.17437	1	0.0180597	11	0.000237013
2	1	0	1	0	1149.56	0.209546	0.209295	1.11176	1	0.0184902	11	0.000232685
2	1	0	1	0	1149.94	0.217037	0.216762	1.0658	1	0.0188998	11	0.000231024
2	1	0	1	0	1150.31	0.224528	0.224295	1.03097	1	0.0192949	11	0.000231241
2	1	0	1	0	1150.69	0.232019	0.231745	1.00325	1	0.0196784	11	0.000232497
2	1	0	1	0	1151.06	0.23951	0.239284	0.982591	1	0.020053	11	0.000235119
2	1	0	1	0	1151.44	0.247001	0.246725	0.965988	1	0.0204201	11	0.000238333
2	1	0	1	0	1151.81	0.254492	0.254228	0.945927	1	0.0207809	11	0.000240481
2	1	0	1	0	1152.19	0.261983	0.261709	0.936214	1	0.0211362	11	0.000245015
2	1	0	1	0	1152.56	0.269474	0.269202	0.922649	1	0.0214867	11	0.000248378
2	1	0	1	0	1152.94	0.276965	0.276716	0.909697	1	0.0218327	11	0.000251728
2	1	0	1	0	1153.31	0.284456	0.284238	0.898602	1	0.0221746	11	0.000255417
2	1	0	1	0	1153.68	0.291947	0.291678	0.889387	1	0.0225124	11	0.000259414
2	1	0	1	0	1154.06	0.299436	0.299171	0.876425	1	0.0228467	11	0.000262201
2	0	0	1	0	1154.4	0.293745	0.293406	-0.281112	1	0.0228142	11	-8.24801e-05
2	0	0	1	0	1154.78	0.286254	0.285944	-0.366592	1	0.022688	11	-0.000104825
2	0	0	1	0	1155.15	0.278763	0.278464	-0.427984	1	0.0225353	11	-0.000119178
2	0	0	1	0	1155.53	0.271272	0.27096	-0.47422	1	0.0223633	11	-0.000128495
2	0	0	1	0	1155.9	0.263781	0.263473	-0.514577	1	0.022175	11	-0.000135577
2	0	0	1	0	1156.27	0.25629	0.255993	-0.554356	1	0.0219726	11	-0.000141911
2	0	0	1	0	1156.65	0.248799	0.248489	-0.584502	1	0.021757	11	-0.000145243
2	0	0	1	0	1157.02	0.241308	0.241048	-0.617648	1	0.0215287	11	-0.000148883
2	0	0	1	0	1157.4	0.233817	0.233521	-0.65436	1	0.0212874	11	-0.000152807
2	0	0	1	0	1157.77	0.226326	0.226015	-0.69153	1	0.0210327	11	-0.000156296
2	0	0	1	0	1158.15	0.218835	0.218548	-0.735721	1	0.0207632	11	-0.000160791
2	0	0	1	0	1158.52	0.211344	0.211063	-0.78019	1	0.0204771	11	-0.00016467
2	0	0	1	0	1158.9	0.203855	0.203535	-0.840908	1	0.0201707	11	-0.000171154
2	0	0	1	0	1159.27	0.196362	0.19605	-0.916189	1	0.0198398	11	-0.000179619
2	0	0	1	0	1159.65	0.188871	0.188507	-1.01389	1	0.0194756	11	-0.000191126
2	0	0	1	0	1160.02	0.18138	0.181087	-1.15982	1	0.019067	11	-0.000210028
2	0	0	1	0	1160.39	0.173891	0.173613	-1.36626	1	0.0185947	11	-0.000237201
2	0	0	1	0	1160.77	0.166398	0.166089	-1.67158	1	0.018027	11	-0.000277632
2	0	0	1	0	1161.14	0.158906	0.158637	-2.14472	1	0.0173134	11	-0.000340231
2	0	0	1	0	1161.52	0.151417	0.151084	-2.7581	1	0.0163934	11	-0.000416705
2	0	0	1	0	1161.89	0.143926	0.143631	-3.33086	1	0.0152449	11	-0.000478415
2	0	0	1	0	1162.27	0.136435	0.136148	-3.67397	1	0.0139194	11	-0.000500204
2	0	0	1	0	1162.64	0.128942	0.128613	-3.66683	1	0.0125305	11	-0.000471602
2	0	0	1	0	1163.02	0.121453	0.121105	-3.28769	1	0.0112168	11	-0.000398156
2	0	0	1	0	1163.39	0.113962	0.113671	-2.77072	1	0.0100803	11	-0.00031495
2	0	0	1	0	1163.77	0.106471	0.106137	-2.38478	1	0.00911646	11	-0.000253114
2	0	0	1	0	1164.14	0.0989799	0.0986629	-2.14731	1	0.00826844	11	-0.00021186
2	0	0	1	0	1164.51	0.0914889	0.0911667	-1.99748	1	0.00749307	11	-0.000182104
2	0	0	1	0	1164.89	0.083998	0.0837322	-1.86084	1	0.00676956	11	-0.000155812
2	0	0	1	0	1165.26	0.076507	0.0761691	-1.74527	1	0.00609132	11	-0.000132936
2	0	0	1	0	1165.64	0.0690161	0.0686829	-1.62676	1	0.00545685	11	-0.00011173
2	0	0	1	0	1166.01	0.0615251	0.0612304	-1.53599	1	0.00486096	11	-9.40492e-05
2	0	0	1	0	1166.39	0.0540342	0.0537015	-1.46893	1	0.00429636	11	-7.8884e-05
2	0	0	1	0	1166.76	0.0465432	0.046231	-1.42318	1	0.00375292	11	-6.57951e-05
2	0	0	1	0	1167.14	0.0390523	0.0387504	-1.40099	1	0.00322212	11	-5.4289e-05
2	0	0	1	0	1167.51	0.0315626	0.0312452	-1.39801	1	0.00269671	11	-4.3681e-05
2	0	0	1	0	1167.89	0.0240704	0.0237855	-1.39968	1	0.0021708	11	-3.32922e-05
2	0	0	1	0	1168.26	0.0165785	0.0162781	-1.42126	1	0.00163992	11	-2.31355e-05
2	0	0	1	0	1168.63	0.00908846	0.00882375	-1.44689	1	0.00110017	11	-1.2767e-05
2	0	0	1	0	1169.01	0.0015984	0.00123967	-1.50859	1	0.00054715	11	-1.87015e-06
2	1	0	1	0	2370.96	0.00479231	0.00452601	0.81726	2	0.000143467	11	3.69892e-06
2	1	0	1	0	2371.33	0.0122846	0.0120259	0.886545	2	0.000467786	11	1.06615e-05
2	1	0	1	0	2371.7	0.0197764	0.0194951	0.939114	2	0.00081528	11	1.83082e-05
2	1	0	1	0	2372.08	0.0272665	0.0269848	0.978299	2	0.00117691	11	2.63992e-05
2	1	0	1	0	2372.45	0.0347566	0.034506	1.00724	2	0.00155035	11	3.47558e-05
2	1	0	1	0	2372.83	0.0422484	0.0420051	1.04202	2	0.00193687	11	4.37701e-05
2	1	0	1	0	2373.2	0.0497411	0.0494559	1.09836	2	0.00233982	11	5.43202e-05
2	1	0	1	0	2373.58	0.0572303	0.0569164	1.16255	2	0.00276554	11	6.61682e-05
2	1	0	1	0	2373.95	0.0647212	0.0644431	1.26394	2	0.00322236	11	8.14522e-05
2	1	0	1	0	2374.33	0.0722122	0.0719689	1.37591	2	0.00371914	11	9.90228e-05
2	1	0	1	0	2374.7	0.0797031	0.0794543	1.50943	2	0.00426144	11	0.00011993
2	1	0	1	0	2375.08	0.0871941	0.0869282	1.62771	2	0.00485126	11	0.000141494
2	1	0	1	0	2375.45	0.094685	0.0943934	1.75558	2	0.0054877	11	0.000165716
2	1	0	1	0	2375.82	0.102176	0.101951	1.8796	2	0.00617098	11	0.000191628
2	1	0	1	0	2376.2	0.109667	0.109426	2.07286	2	0.00691298	11	0.000226826
2	1	0	1	0	2376.57	0.117158	0.116853	2.3577	2	0.00774197	11	0.000275505
2	1	0	1	0	2376.95	0.124649	0.124416	2.76507	2	0.00870094	11	0.000344018
2	1	0	1	0	2377.32	0.13214	0.131868	3.21046	2	0.00982339	11	0.000423356
2	1	0	1	0	2377.7	0.139631	0.139379	3.54845	2	0.011098	11	0.000494579
2	1	0	1	0	2378.07	0.14712	0.146827	3.62897	2	0.0124557	11	0.000532832
2	1	0	1	0	2378.45	0.154613	0.154313	3.34103	2	0.0137776	11	0.000515565
2	1	0	1	0	2378.82	0.162104	0.161842	2.68704	2	0.0149163	11	0.000434876
2	1	0	1	0	2379.2	0.169595	0.169312	2.05615	2	0.0157989	11	0.000348131
2	1	0	1	0	2379.57	0.177084	0.176843	1.65145	2	0.0164884	11	0.000292046
2	1	0	1	0	2379.94	0.184576	0.184301	1.4133	2	0.017063	11	0.000260472
2	1	0	1	0	2380.32	0.192069	0.191775	1.27469	2	0.017568	11	0.000244453
2	1	0	1	0	2380.69	0.199558	0.199292	1.1791	2	0.0180291	11	0.000234985
2	1	0	1	0	2381.07	0.207049	0.206787	1.12736	2	0.0184607	11	0.000233125
2	1	0	1	0	2381.44	0.21454	0.214255	1.06725	2	0.0188719	11	0.000228664
2	1	0	1	0	2381.82	0.222033	0.221757	1.03699	2	0.0192678	11	0.00022996
2	1	0	1	0	2382.19	0.229522	0.229254	0.997696	2	0.0196518	11	0.000228726
2	1	0	1	0	2382.57	0.237013	0.236768	0.985671	2	0.0200269	11	0.000233375
2	1	0	1	0	2382.94	0.244504	0.244255	0.966376	2	0.0203948	11	0.000236043
2	1	0	1	0	2383.32	0.251995	0.251728	0.950138	2	0.0207563	11	0.000239176
2	1	0	1	0	2383.69	0.259486	0.259203	0.935591	2	0.0211125	11	0.000242508
2	1	0	1	0	2384.06	0.266977	0.266704	0.925962	2	0.0214637	11	0.000246958
2	1	0	1	0	2384.44	0.274468	0.274227	0.911163	2	0.0218104	11	0.000249865
2	1	0	1	0	2384.81	0.281959	0.281705	0.901869	2	0.0221528	11	0.000254061
2	1	0	1	0	2385.19	0.28945	0.28921	0.890977	2	0.0224917	11	0.00025768
2	1	0	1	0	2385.56	0.296941	0.296689	0.884977	2	0.0228269	11	0.000262563
2	0	0	1	0	2385.91	0.296242	0.295949	-0.244791	2	0.0229368	11	-7.24456e-05
2	0	0	1	0	2386.28	0.288751	0.288433	-0.34876	2	0.0228213	11	-0.000100594
2	0	0	1	0	2386.65	0.28126	0.280948	-0.416531	2	0.0226751	11	-0.000117024
2	0	0	1	0	2387.03	0.273769	0.273467	-0.456333	2	0.0225083	11	-0.000124792
2	0	0	1	0	2387.4	0.266278	0.265985	-0.500327	2	0.0223247	11	-0.00013308
2	0	0	1	0	2387.78	0.258787	0.258477	-0.539464	2	0.0221266	11	-0.000139439
2	0	0	1	0	2388.15	0.251296	0.251011	-0.576013	2	0.0219152	11	-0.000144586
2	0	0	1	0	2388.53	0.243805	0.243505	-0.606973	2	0.0216913	11	-0.000147801
2	0	0	1	0	2388.9	0.236314	0.236039	-0.641907	2	0.0214551	11	-0.000151515
2	0	0	1	0	2389.28	0.228823	0.228562	-0.66941	2	0.0212063	11	-0.000153001
2	0	0	1	0	2389.65	0.221332	0.22106	-0.712282	2	0.020944	11	-0.000157457
2	0	0	1	0	2390.03	0.213841	0.213576	-0.755569	2	0.0206665	11	-0.000161372
2	0	0	1	0	2390.4	0.20635	0.206093	-0.811711	2	0.0203713	11	-0.000167288
2	0	0	1	0	2390.77	0.198859	0.198563	-0.871532	2	0.0200547	11	-0.000173054
2	0	0	1	0	2391.15	0.191368	0.191069	-0.954663	2	0.0197107	11	-0.000182406
2	0	0	1	0	2391.52	0.183879	0.183588	-1.06681	2	0.01933	11	-0.000195854
2	0	0	1	0	2391.9	0.176386	0.176089	-1.23667	2	0.0188965	11	-0.000217765
2	0	0	1	0	2392.27	0.168895	0.16862	-1.49219	2	0.0183857	11	-0.000251613
2	0	0	1	0	2392.65	0.161404	0.161107	-1.89256	2	0.0177544	11	-0.000304903
2	0	0	1	0	2393.02	0.153914	0.153571	-2.45155	2	0.0169427	11	-0.000376487
2	0	0	1	0	2393.4	0.146423	0.146152	-3.05979	2	0.0159069	11	-0.000447195
2	0	0	1	0	2393.77	0.13893	0.13866	-3.49237	2	0.0146688	11	-0.00048425
2	0	0	1	0	2394.15	0.131441	0.131129	-3.63806	2	0.0133191	11	-0.000477055
2	0	0	1	0	2394.52	0.12395	0.123662	-3.43071	2	0.0119823	11	-0.000424247
2	0	0	1	0	2394.89	0.116459	0.116129	-2.99463	2	0.010774	11	-0.000347762
2	0	0	1	0	2395.27	0.108968	0.108677	-2.57759	2	0.00973362	11	-0.000280126
2	0	0	1	0	2395.64	0.101477	0.101218	-2.29462	2	0.00882202	11	-0.000232257
2	0	0	1	0	2396.02	0.0939859	0.0936956	-2.12996	2	0.00799311	11	-0.000199568
2	0	0	1	0	2396.39	0.0864949	0.0862328	-2.00462	2	0.00721673	11	-0.000172864
2	0	0	1	0	2396.77	0.079004	0.0786961	-1.8946	2	0.00648416	11	-0.000149098
2	0	0	1	0	2397.14	0.071513	0.0711998	-1.77196	2	0.00579477	11	-0.000126164
2	0	0	1	0	2397.52	0.0640221	0.0637306	-1.65232	2	0.00515083	11	-0.000105303
2	0	0	1	0	2397.89	0.0565311	0.05622	-1.54503	2	0.0045486	11	-8.68618e-05
2	0	0	1	0	2398.27	0.0490402	0.0487474	-1.47651	2	0.0039794	11	-7.1976e-05
2	0	0	1	0	2398.64	0.041551	0.0412501	-1.43219	2	0.00343217	11	-5.90781e-05
2	0	0	1	0	2399.01	0.0340583	0.0337415	-1.41514	2	0.0028969	11	-4.77491e-05
2	0	0	1	0	2399.39	0.0265669	0.0262728	-1.40716	2	0.00236641	11	-3.69699e-05
2	0	0	1	0	2399.76	0.0190764	0.0187918	-1.41914	2	0.00183458	11	-2.66682e-05
2	0	0	1	0	2400.14	0.0115863	0.0112869	-1.43586	2	0.00129676	11	-1.62065e-05
2	0	0	1	0	2400.51	0.00409449	0.00379353	-1.46855	2	0.000749513	11	-5.57099e-06
2	1	0	1	0	3602.46	0.00229666	0.00197129	0.714	3	2.9246e-05	11	1.4075e-06
2	1	0	1	0	3602.83	0.00978806	0.00949536	0.85168	3	0.00033094	11	8.087e-06
2	1	0	1	0	3603.21	0.0172786	0.0169966	0.911796	3	0.000665377	11	1.54974e-05
2	1	0	1	0	3603.58	0.0247686	0.0244901	0.950014	3	0.00101771	11	2.32659e-05
2	1	0	1	0	3603.96	0.0322605	0.0319667	0.991437	3	0.00138461	11	3.16929e-05
2	1	0	1	0	3604.33	0.0397527	0.0394743	1.03374	3	0.00176654	11	4.08063e-05
2	1	0	1	0	3604.71	0.0472424	0.0469802	1.09602	3	0.00216732	11	5.14911e-05
2	1	0	1	0	3605.08	0.0547329	0.0544499	1.17319	3	0.00259327	11	6.38803e-05
2	1	0	1	0	3605.46	0.0622243	0.0619926	1.27254	3	0.00305313	11	7.88879e-05
2	1	0	1	0	3605.83	0.0697152	0.0694495	1.38887	3	0.00355506	11	9.64564e-05
2	1	0	1	0	3606.2	0.0772062	0.0768842	1.52021	3	0.00410395	11	0.000116881
2	1	0	1	0	3606.58	0.0846971	0.084435	1.64464	3	0.00470072	11	0.000138865
2	1	0	1	0	3606.95	0.0921881	0.0919154	1.76828	3	0.00534234	11	0.000162532
2	1	0	1	0	3607.33	0.099679	0.0994061	1.88245	3	0.0060268	11	0.000187127
2	1	0	1	0	3607.7	0.10717	0.106917	2.03703	3	0.00676126	11	0.000217794
2	1	0	1	0	3608.08	0.114661	0.114369	2.26614	3	0.00756704	11	0.000259177
2	1	0	1	0	3608.45	0.122152	0.121842	2.60099	3	0.00848057	11	0.00031691
2	1	0	1	0	3608.83	0.129643	0.129323	2.9936	3	0.00953194	11	0.000387141
2	1	0	1	0	3609.2	0.137134	0.136851	3.32684	3	0.0107224	11	0.00045528
2	1	0	1	0	3609.58	0.144625	0.144373	3.48776	3	0.0120084	11	0.000503537
2	1	0	1	0	3609.95	0.152116	0.151851	3.34289	3	0.0133015	11	0.000507622
2	1	0	1	0	3610.32	0.159607	0.159295	2.82094	3	0.014469	11	0.00044936
2	1	0	1	0	3610.7	0.167096	0.166839	2.18265	3	0.0154059	11	0.000364151
2	1	0	1	0	3611.07	0.174589	0.174292	1.72374	3	0.0161331	11	0.000300434
2	1	0	1	0	3611.45	0.18208	0.181795	1.45698	3	0.0167262	11	0.000264872
2	1	0	1	0	3611.82	0.18957	0.18933	1.29044	3	0.0172402	11	0.000244318
2	1	0	1	0	3612.2	0.197061	0.196815	1.18695	3	0.0177059	11	0.00023361
2	1	0	1	0	3612.57	0.204552	0.204238	1.1211	3	0.0181401	11	0.00022897
2	1	0	1	0	3612.95	0.212045	0.211797	1.07416	3	0.0185534	11	0.000227505
2	1	0	1	0	3613.32	0.219534	0.219288	1.03694	3	0.018951	11	0.000227389
2	1	0	1	0	3613.7	0.227025	0.226789	1.01181	3	0.0193371	11	0.000229467
2	1	0	1	0	3614.07	0.234516	0.234223	0.986996	3	0.0197142	11	0.000231177
2	1	0	1	0	3614.44	0.242007	0.241723	0.968293	3	0.0200838	11	0.000234059
2	1	0	1	0	3614.82	0.249498	0.249232	0.955831	3	0.0204475	11	0.000238224
2	1	0	1	0	3615.19	0.256989	0.256768	0.940939	3	0.0208056	11	0.000241603
2	1	0	1	0	3615.57	0.26448	0.264215	0.931798	3	0.0211592	11	0.000246195
2	1	0	1	0	3615.94	0.271971	0.27168	0.920089	3	0.0215082	11	0.000249969
2	1	0	1	0	3616.32	0.279462	0.279206	0.908031	3	0.021853	11	0.000253528
2	1	0	1	0	3616.69	0.286953	0.286668	0.893906	3	0.0221938	11	0.000256255
2	1	0	1	0	3617.07	0.294444	0.294167	0.887492	3	0.0225308	11	0.000261071
2	0	0	1	0	3617.41	0.298739	0.298458	-0.130909	3	0.0227843	11	-3.90708e-05
2	0	0	1	0	3617.78	0.291246	0.290918	-0.305698	3	0.022692	11	-8.89332e-05
2	0	0	1	0	3618.16	0.283757	0.283473	-0.379533	3	0.0225599	11	-0.000107587
2	0	0	1	0	3618.53	0.276266	0.275937	-0.436777	3	0.022404	11	-0.000120523
2	0	0	1	0	3618.91	0.268775	0.268422	-0.476862	3	0.0222301	11	-0.000128
2	0	0	1	0	3619.28	0.261284	0.261019	-0.514296	3	0.0220411	11	-0.000134241
2	0	0	1	0	3619.66	0.253793	0.2535	-0.550621	3	0.0218386	11	-0.000139582
2	0	0	1	0	3620.03	0.246302	0.246033	-0.583935	3	0.0216233	11	-0.000143667
2	0	0	1	0	3620.41	0.238811	0.238514	-0.615611	3	0.0213956	11	-0.000146832
2	0	0	1	0	3620.78	0.23132	0.23102	-0.650525	3	0.0211559	11	-0.000150285
2	0	0	1	0	3621.15	0.223829	0.223536	-0.682658	3	0.0209035	11	-0.000152599
2	0	0	1	0	3621.53	0.216338	0.216039	-0.716389	3	0.0206373	11	-0.000154768
2	0	0	1	0	3621.9	0.208847	0.208593	-0.766265	3	0.0203558	11	-0.000159837
2	0	0	1	0	3622.28	0.201356	0.201058	-0.822218	3	0.0200555	11	-0.000165314
2	0	0	1	0	3622.65	0.193867	0.193508	-0.896551	3	0.0197327	11	-0.00017349
2	0	0	1	0	3623.03	0.186374	0.186076	-0.983442	3	0.0193796	11	-0.000182995
2	0	0	1	0	3623.4	0.178882	0.178577	-1.11903	3	0.0189851	11	-0.000199832
2	0	0	1	0	3623.78	0.171392	0.171121	-1.30347	3	0.0185308	11	-0.000223051
2	0	0	1	0	3624.15	0.163902	0.163569	-1.61154	3	0.0179844	11	-0.000263598
2	0	0	1	0	3624.53	0.15641	0.156114	-2.07714	3	0.0172956	11	-0.000324271
2	0	0	1	0	3624.9	0.148918	0.148628	-2.64925	3	0.0164095	11	-0.000393753
2	0	0	1	0	3625.27	0.141429	0.141134	-3.16388	3	0.0153145	11	-0.000446531
2	0	0	1	0	3625.65	0.133938	0.133633	-3.45968	3	0.0140643	11	-0.000462327
2	0	0	1	0	3626.02	0.126447	0.126146	-3.44921	3	0.0127574	11	-0.000435105
2	0	0	1	0	3626.4	0.118956	0.118643	-3.18268	3	0.0115057	11	-0.000377601
2	0	0	1	0	3626.77	0.111465	0.111174	-2.79128	3	0.0103843	11	-0.000310318
2	0	0	1	0	3627.15	0.103974	0.103693	-2.47143	3	0.00940087	11	-0.00025627
2	0	0	1	0	3627.52	0.0964829	0.0961595	-2.25616	3	0.0085166	11	-0.000216951
2	0	0	1	0	3627.9	0.0889919	0.0886906	-2.1257	3	0.00769529	11	-0.00018853
2	0	0	1	0	3628.27	0.081501	0.0812252	-2.00756	3	0.00691846	11	-0.000163065
2	0	0	1	0	3628.65	0.07401	0.0737111	-1.90472	3	0.00618141	11	-0.000140399
2	0	0	1	0	3629.02	0.0665191	0.0662383	-1.78211	3	0.00548767	11	-0.000118044
2	0	0	1	0	3629.39	0.0590281	0.0587243	-1.66135	3	0.00484036	11	-9.75618e-05
2	0	0	1	0	3629.77	0.051539	0.0512322	-1.55561	3	0.00423599	11	-7.96976e-05
2	0	0	1	0	3630.14	0.0440462	0.0437621	-1.48389	3	0.00366487	11	-6.4938e-05
2	0	0	1	0	3630.52	0.0365548	0.0362308	-1.43682	3	0.00311577	11	-5.20573e-05
2	0	0	1	0	3630.89	0.0290643	0.0287488	-1.41925	3	0.00257857	11	-4.08018e-05
2	0	0	1	0	3631.27	0.0215747	0.021271	-1.4162	3	0.00204516	11	-3.0124e-05
2	0	0	1	0	3631.64	0.0140824	0.0137984	-1.43498	3	0.00150938	11	-1.98004e-05
2	0	0	1	0	3632.02	0.00659058	0.00629423	-1.45138	3	0.000967143	11	-9.13529e-06
2	0	0	0	0	4833.97	2.44065e-05	-0.000306236	-1.18145	4	0.0000000E+000	11	3.61802e-07
2	1	0	1	0	4834.34	0.00729063	0.00699905	0.812669	4	0.000219396	11	5.68792e-06
2	1	0	1	0	4834.71	0.0147802	0.0145081	0.895583	4	0.000544027	11	1.29932e-05
2	1	0	1	0	4835.09	0.0222725	0.0219879	0.944455	4	0.000892363	11	2.07666e-05
2	1	0	1	0	4835.46	0.0297644	0.0295064	0.989258	4	0.00125723	11	2.91894e-05
2	1	0	1	0	4835.84	0.0372544	0.0369498	1.03311	4	0.00163849	11	3.81733e-05
2	1	0	1	0	4836.21	0.0447449	0.0444898	1.09622	4	0.00204005	11	4.87708e-05
2	1	0	1	0	4836.58	0.0522363	0.0519155	1.17931	4	0.00246844	11	6.12245e-05
2	1	0	1	0	4836.96	0.0597291	0.0594499	1.28438	4	0.00293231	11	7.63565e-05
2	1	0	1	0	4837.33	0.0672182	0.066949	1.40997	4	0.00343932	11	9.4396e-05
2	1	0	1	0	4837.71	0.0747092	0.0744354	1.53957	4	0.0039937	11	0.000114599
2	1	0	1	0	4838.08	0.0822001	0.0819252	1.65631	4	0.00459576	11	0.000135693
2	1	0	1	0	4838.46	0.0896911	0.0894158	1.76839	4	0.00524057	11	0.000158122
2	1	0	1	0	4838.83	0.097182	0.096845	1.87682	4	0.00592643	11	0.00018176
2	1	0	1	0	4839.21	0.104673	0.104364	2.02404	4	0.00665761	11	0.000211237
2	1	0	1	0	4839.58	0.112164	0.111845	2.22619	4	0.00745306	11	0.000248989
2	1	0	1	0	4839.96	0.119655	0.11942	2.5233	4	0.00834255	11	0.000301332
2	1	0	1	0	4840.33	0.127146	0.126877	2.85343	4	0.00935315	11	0.000362034
2	1	0	1	0	4840.7	0.134637	0.134375	3.16569	4	0.0104871	11	0.000425389
2	1	0	1	0	4841.08	0.142128	0.141859	3.34343	4	0.0117153	11	0.000474297
2	1	0	1	0	4841.45	0.149619	0.149343	3.28487	4	0.01297	11	0.000490571
2	1	0	1	0	4841.83	0.157108	0.156789	2.8759	4	0.0141362	11	0.000450911
2	1	0	1	0	4842.2	0.164601	0.164332	2.28046	4	0.0151038	11	0.000374752
2	1	0	1	0	4842.58	0.172092	0.171768	1.79408	4	0.0158644	11	0.000308165
2	1	0	1	0	4842.95	0.179582	0.179268	1.49535	4	0.0164793	11	0.000268069
2	1	0	1	0	4843.33	0.187073	0.186785	1.31457	4	0.017005	11	0.000245542
2	1	0	1	0	4843.7	0.194564	0.194285	1.20056	4	0.0174766	11	0.000233251
2	1	0	1	0	4844.08	0.202057	0.201788	1.12667	4	0.017914	11	0.000227348
2	1	0	1	0	4844.45	0.209546	0.209245	1.07579	4	0.018329	11	0.000225104
2	1	0	1	0	4844.82	0.217037	0.216734	1.03781	4	0.0187275	11	0.00022493
2	1	0	1	0	4845.2	0.224528	0.22424	1.0107	4	0.0191146	11	0.000226639
2	1	0	1	0	4845.57	0.232019	0.231753	0.991253	4	0.0194924	11	0.000229726
2	1	0	1	0	4845.95	0.23951	0.239244	0.972797	4	0.0198627	11	0.000232736
2	1	0	1	0	4846.32	0.247001	0.246706	0.957719	4	0.0202268	11	0.000236275
2	1	0	1	0	4846.7	0.254492	0.254178	0.942192	4	0.0205855	11	0.000239485
2	1	0	1	0	4847.07	0.261983	0.261704	0.931819	4	0.0209391	11	0.000243861
2	1	0	1	0	4847.45	0.269474	0.269205	0.918515	4	0.0212884	11	0.000247269
2	1	0	1	0	4847.82	0.276965	0.276684	0.907847	4	0.0216336	11	0.000251186
2	1	0	1	0	4848.2	0.284456	0.284196	0.900575	4	0.021975	11	0.00025594
2	1	0	1	0	4848.57	0.291947	0.291659	0.888185	4	0.0223125	11	0.000259047
2	1	0	1	0	4848.94	0.299436	0.299146	0.875634	4	0.0226465	11	0.000261942
2	0	0	1	0	4849.29	0.293745	0.293414	-0.266987	4	0.0226227	11	-7.83376e-05
2	0	0	1	0	4849.66	0.286254	0.285977	-0.356867	4	0.0225006	11	-0.000102056
2	0	0	1	0	4850.04	0.278763	0.278478	-0.419343	4	0.0223512	11	-0.000116778
2	0	0	1	0	4850.41	0.271272	0.270958	-0.464542	4	0.0221827	11	-0.000125871
2	0	0	1	0	4850.78	0.263781	0.263486	-0.503141	4	0.0219981	11	-0.00013257
2	0	0	1	0	4851.16	0.25629	0.255973	-0.540414	4	0.0217999	11	-0.000138331
2	0	0	1	0	4851.53	0.248799	0.248513	-0.56976	4	0.0215891	11	-0.000141593
2	0	0	1	0	4851.91	0.241308	0.241004	-0.602364	4	0.0213664	11	-0.000145172
2	0	0	1	0	4852.28	0.233817	0.233529	-0.635884	4	0.0211318	11	-0.000148497
2	0	0	1	0	4852.66	0.226326	0.226003	-0.666017	4	0.0208852	11	-0.000150522
2	0	0	1	0	4853.03	0.218835	0.218506	-0.703816	4	0.0206257	11	-0.000153788
2	0	0	1	0	4853.41	0.211344	0.211049	-0.743594	4	0.0203525	11	-0.000156935
2	0	0	1	0	4853.78	0.203855	0.203599	-0.787877	4	0.020063	11	-0.000160411
2	0	0	1	0	4854.16	0.196362	0.196016	-0.845587	4	0.0197543	11	-0.000165749
2	0	0	1	0	4854.53	0.188871	0.18858	-0.92277	4	0.0194205	11	-0.000174016
2	0	0	1	0	4854.9	0.18138	0.18107	-1.03141	4	0.0190534	11	-0.000186757
2	0	0	1	0	4855.28	0.173891	0.173563	-1.18269	4	0.0186387	11	-0.000205272
2	0	0	1	0	4855.65	0.166398	0.166113	-1.41517	4	0.0181523	11	-0.000235078
2	0	0	1	0	4856.03	0.158906	0.158613	-1.7824	4	0.0175546	11	-0.000282712
2	0	0	1	0	4856.4	0.151417	0.151117	-2.29869	4	0.0167903	11	-0.000347371
2	0	0	1	0	4856.78	0.143926	0.143625	-2.84488	4	0.0158223	11	-0.000408595
2	0	0	1	0	4857.15	0.136435	0.136086	-3.24915	4	0.0146705	11	-0.000442165
2	0	0	1	0	4857.53	0.128942	0.128662	-3.40315	4	0.0134142	11	-0.000437855
2	0	0	1	0	4857.9	0.121453	0.121151	-3.27554	4	0.0121546	11	-0.000396836
2	0	0	1	0	4858.28	0.113962	0.113651	-2.96375	4	0.0109787	11	-0.000336833
2	0	0	1	0	4858.65	0.106471	0.106186	-2.62956	4	0.00992868	11	-0.000279223
2	0	0	1	0	4859.02	0.0989799	0.0986514	-2.37926	4	0.00899145	11	-0.000234717
2	0	0	1	0	4859.4	0.0914889	0.0911887	-2.2186	4	0.00813086	11	-0.000202311
2	0	0	1	0	4859.77	0.083998	0.0836957	-2.10635	4	0.00732038	11	-0.000176292
2	0	0	1	0	4860.15	0.076507	0.0761737	-2.00499	4	0.00654833	11	-0.000152727
2	0	0	1	0	4860.52	0.0690161	0.0686987	-1.88867	4	0.00581562	11	-0.000129749
2	0	0	1	0	4860.9	0.0615251	0.0612398	-1.76514	4	0.00512673	11	-0.000108097
2	0	0	1	0	4861.27	0.0540342	0.0537248	-1.64775	4	0.00448518	11	-8.85252e-05
2	0	0	1	0	4861.65	0.0465432	0.0462703	-1.54541	4	0.00388551	11	-7.15065e-05
2	0	0	1	0	4862.02	0.0390523	0.038739	-1.47645	4	0.00331752	11	-5.71961e-05
2	0	0	1	0	4862.4	0.0315626	0.0312837	-1.44078	4	0.00276973	11	-4.50729e-05
2	0	0	1	0	4862.77	0.0240704	0.0237647	-1.41874	4	0.00223179	11	-3.37159e-05
2	0	0	1	0	4863.15	0.0165785	0.0162543	-1.42338	4	0.00169613	11	-2.3136e-05
2	0	0	1	0	4863.52	0.00908846	0.00878803	-1.43969	4	0.00115675	11	-1.26521e-05
2	0	0	1	0	4863.89	0.0015984	0.0012504	-1.49298	4	0.000607985	11	-1.86683e-06
2	1	0	1	0	6065.84	0.00479231	0.00450462	0.76741	5	0.000116599	11	3.45689e-06
2	1	0	1	0	6066.22	0.0122846	0.0119814	0.872849	5	0.000430503	11	1.0458e-05
2	1	0	1	0	6066.59	0.0197764	0.0194972	0.937413	5	0.000774137	11	1.82769e-05
2	1	0	1	0	6066.96	0.0272665	0.0269993	0.98514	5	0.00113682	11	2.65981e-05
2	1	0	1	0	6067.34	0.0347566	0.0344617	1.03341	5	0.00151771	11	3.56131e-05
2	1	0	1	0	6067.71	0.0422484	0.0419422	1.09967	5	0.00192032	11	4.61227e-05
2	1	0	1	0	6068.09	0.0497411	0.049446	1.18778	5	0.00235041	11	5.87312e-05
2	1	0	1	0	6068.46	0.0572303	0.056928	1.28825	5	0.0028165	11	7.33375e-05
2	1	0	1	0	6068.84	0.0647212	0.0644518	1.41681	5	0.00332605	11	9.13158e-05
2	1	0	1	0	6069.21	0.0722122	0.0719117	1.54377	5	0.00388357	11	0.000111015
2	1	0	1	0	6069.59	0.0797031	0.0793927	1.66724	5	0.00448763	11	0.000132367
2	1	0	1	0	6069.96	0.0871941	0.0869229	1.77251	5	0.00513403	11	0.000154071
2	1	0	1	0	6070.34	0.094685	0.0943947	1.86993	5	0.00581808	11	0.000176511
2	1	0	1	0	6070.71	0.102176	0.101901	1.99811	5	0.00654449	11	0.000203609
2	1	0	1	0	6071.08	0.109667	0.109372	2.185	5	0.00732834	11	0.000238977
2	1	0	1	0	6071.46	0.117158	0.116854	2.44655	5	0.0081965	11	0.000285889
2	1	0	1	0	6071.83	0.124649	0.12437	2.75758	5	0.00917406	11	0.000342961
2	1	0	1	0	6072.21	0.13214	0.13183	3.04388	5	0.0102645	11	0.000401276
2	1	0	1	0	6072.58	0.139631	0.139368	3.2381	5	0.0114475	11	0.000451288
2	1	0	1	0	6072.96	0.14712	0.146836	3.24634	5	0.0126739	11	0.00047668
2	1	0	1	0	6073.33	0.154613	0.154292	2.92778	5	0.0138453	11	0.000451734
2	1	0	1	0	6073.71	0.162104	0.161827	2.36155	5	0.0148421	11	0.000382162
2	1	0	1	0	6074.08	0.169595	0.16931	1.85442	5	0.0156278	11	0.000313971
2	1	0	1	0	6074.46	0.177084	0.176815	1.51904	5	0.0162571	11	0.00026859
2	1	0	1	0	6074.83	0.184576	0.184292	1.31597	5	0.016789	11	0.000242524
2	1	0	1	0	6075.2	0.192069	0.191775	1.20161	5	0.0172623	11	0.000230439
2	1	0	1	0	6075.58	0.199558	0.199262	1.12498	5	0.0177002	11	0.000224166
2	1	0	1	0	6075.95	0.207049	0.206777	1.08855	5	0.0181148	11	0.000225087
2	1	0	1	0	6076.33	0.21454	0.214238	1.03879	5	0.0185135	11	0.000222548
2	1	0	1	0	6076.7	0.222033	0.221764	1.01159	5	0.0189001	11	0.000224334
2	1	0	1	0	6077.08	0.229522	0.229225	0.981908	5	0.0192771	11	0.000225078
2	1	0	1	0	6077.45	0.237013	0.236741	0.970205	5	0.0196468	11	0.000229688
2	1	0	1	0	6077.83	0.244504	0.24423	0.955339	5	0.0200103	11	0.000233322
2	1	0	1	0	6078.2	0.251995	0.251665	0.942632	5	0.0203685	11	0.000237227
2	1	0	1	0	6078.58	0.259486	0.259178	0.929302	5	0.0207219	11	0.000240855
2	1	0	1	0	6078.95	0.266977	0.266716	0.921435	5	0.0210708	11	0.000245761
2	1	0	1	0	6079.32	0.274468	0.274151	0.901832	5	0.0214158	11	0.000247238
2	1	0	1	0	6079.7	0.281959	0.281654	0.898731	5	0.0217568	11	0.000253131
2	1	0	1	0	6080.07	0.28945	0.289145	0.888645	5	0.0220944	11	0.000256948
2	1	0	1	0	6080.45	0.296941	0.296679	0.880895	5	0.0224285	11	0.000261343
2	0	0	1	0	6080.79	0.296242	0.2959	-0.227709	5	0.0225476	11	-6.73789e-05
2	0	0	1	0	6081.16	0.288751	0.288462	-0.339106	5	0.0224361	11	-9.78191e-05
2	0	0	1	0	6081.54	0.28126	0.280967	-0.405823	5	0.0222928	11	-0.000114023
2	0	0	1	0	6081.91	0.273769	0.273474	-0.450107	5	0.0221288	11	-0.000123092
2	0	0	1	0	6082.29	0.266278	0.265949	-0.493762	5	0.0219484	11	-0.000131315
2	0	0	1	0	6082.66	0.258787	0.25847	-0.528719	5	0.0217539	11	-0.000136658
2	0	0	1	0	6083.04	0.251296	0.25097	-0.564454	5	0.0215465	11	-0.000141661
2	0	0	1	0	6083.41	0.243805	0.243519	-0.591206	5	0.0213273	11	-0.00014397
2	0	0	1	0	6083.79	0.236314	0.236003	-0.623436	5	0.0210968	11	-0.000147133
2	0	0	1	0	6084.16	0.228823	0.228541	-0.648605	5	0.0208547	11	-0.000148233
2	0	0	1	0	6084.54	0.221332	0.221046	-0.686058	5	0.0206009	11	-0.00015165
2	0	0	1	0	6084.91	0.213841	0.213533	-0.723817	5	0.020334	11	-0.000154559
2	0	0	1	0	6085.28	0.20635	0.206023	-0.768017	5	0.0200526	11	-0.000158229
2	0	0	1	0	6085.66	0.198859	0.19853	-0.814071	5	0.0197543	11	-0.000161618
2	0	0	1	0	6086.03	0.191368	0.191027	-0.879241	5	0.0194351	11	-0.000167959
2	0	0	1	0	6086.41	0.183879	0.183533	-0.957853	5	0.0190887	11	-0.000175798
2	0	0	1	0	6086.78	0.176386	0.176091	-1.08431	5	0.0187037	11	-0.000190938
2	0	0	1	0	6087.16	0.168895	0.168584	-1.27032	5	0.0182623	11	-0.000214156
2	0	0	1	0	6087.53	0.161404	0.161112	-1.56069	5	0.0177338	11	-0.000251446
2	0	0	1	0	6087.91	0.153914	0.153583	-2.00259	5	0.0170694	11	-0.000307565
2	0	0	1	0	6088.28	0.146423	0.146121	-2.53652	5	0.0162179	11	-0.00037064
2	0	0	1	0	6088.66	0.13893	0.138638	-3.01165	5	0.0151709	11	-0.00041753
2	0	0	1	0	6089.03	0.131441	0.131153	-3.27236	5	0.0139826	11	-0.000429181
2	0	0	1	0	6089.4	0.12395	0.123675	-3.28965	5	0.0127423	11	-0.000406846
2	0	0	1	0	6089.78	0.116459	0.116135	-3.09552	5	0.0115393	11	-0.000359498
2	0	0	1	0	6090.15	0.108968	0.108655	-2.78784	5	0.010435	11	-0.000302912
2	0	0	1	0	6090.53	0.101477	0.101158	-2.49891	5	0.00944439	11	-0.000252784
2	0	0	1	0	6090.9	0.0939859	0.0936681	-2.29987	5	0.00854503	11	-0.000215424
2	0	0	1	0	6091.28	0.0864949	0.086174	-2.17233	5	0.00770489	11	-0.000187198
2	0	0	1	0	6091.65	0.079004	0.0787027	-2.07939	5	0.00690656	11	-0.000163654
2	0	0	1	0	6092.03	0.071513	0.0711999	-1.97869	5	0.00614403	11	-0.000140882
2	0	0	1	0	6092.4	0.0640221	0.0637199	-1.86481	5	0.00542113	11	-0.000118826
2	0	0	1	0	6092.78	0.0565311	0.05616	-1.73183	5	0.00474393	11	-9.72598e-05
2	0	0	1	0	6093.15	0.0490402	0.0487102	-1.6174	5	0.00411373	11	-7.8784e-05
2	0	0	1	0	6093.52	0.041551	0.0412473	-1.52828	5	0.00352319	11	-6.30372e-05
2	0	0	1	0	6093.9	0.0340583	0.0337146	-1.46807	5	0.00296045	11	-4.94953e-05
2	0	0	1	0	6094.27	0.0265669	0.0262102	-1.43705	5	0.00241457	11	-3.76653e-05
2	0	0	1	0	6094.65	0.0190764	0.0187271	-1.43052	5	0.00187622	11	-2.67895e-05
2	0	0	1	0	6095.02	0.0115863	0.0112974	-1.42756	5	0.00133806	11	-1.61277e-05
2	0	0	1	0	6095.4	0.00409449	0.00380478	-1.45143	5	0.000794411	11	-5.52239e-06
2	1	0	1	0	7297.34	0.00229666	0.00198066	0.684415	6	2.36638e-05	11	1.35559e-06
2	1	0	1	0	7297.72	0.00978806	0.00950286	0.853183	6	0.000322985	11	8.10768e-06
2	1	0	1	0	7298.09	0.0172786	0.0170113	0.919739	6	0.000658229	11	1.56459e-05
2	1	0	1	0	7298.47	0.0247686	0.0245149	0.96778	6	0.00101529	11	2.3725e-05
2	1	0	1	0	7298.84	0.0322605	0.0319873	1.02657	6	0.00139232	11	3.28372e-05
2	1	0	1	0	7299.22	0.0397527	0.039505	1.09597	6	0.00179211	11	4.32962e-05
2	1	0	1	0	7299.59	0.0472424	0.046896	1.18203	6	0.00222111	11	5.54326e-05
2	1	0	1	0	7299.97	0.0547329	0.0544523	1.29322	6	0.00268663	11	7.04187e-05
2	1	0	1	0	7300.34	0.0622243	0.0619799	1.41603	6	0.00319594	11	8.77655e-05
2	1	0	1	0	7300.71	0.0697152	0.0694616	1.53784	6	0.00375253	11	0.000106821
2	1	0	1	0	7301.09	0.0772062	0.0768915	1.65546	6	0.00435504	11	0.000127291
2	1	0	1	0	7301.46	0.0846971	0.0844524	1.76522	6	0.00499915	11	0.000149077
2	1	0	1	0	7301.84	0.0921881	0.0919354	1.86358	6	0.00568085	11	0.000171329
2	1	0	1	0	7302.21	0.099679	0.0993761	1.97952	6	0.00640178	11	0.000196717
2	1	0	1	0	7302.59	0.10717	0.106912	2.15214	6	0.00717572	11	0.000230089
2	1	0	1	0	7302.96	0.114661	0.114365	2.38665	6	0.00802688	11	0.000272949
2	1	0	1	0	7303.34	0.122152	0.121831	2.67198	6	0.00897881	11	0.000325532
2	1	0	1	0	7303.71	0.129643	0.129321	2.93671	6	0.0100335	11	0.000379778
2	1	0	1	0	7304.09	0.137134	0.136869	3.13112	6	0.0111756	11	0.000428553
2	1	0	1	0	7304.46	0.144625	0.144334	3.17857	6	0.0123663	11	0.000458776
2	1	0	1	0	7304.84	0.152116	0.151834	2.91815	6	0.0135219	11	0.000443074
2	1	0	1	0	7305.21	0.159607	0.15928	2.36848	6	0.014521	11	0.000377253
2	1	0	1	0	7305.58	0.167096	0.166818	1.85467	6	0.0153102	11	0.000309392
2	1	0	1	0	7305.96	0.174589	0.174287	1.51747	6	0.0159392	11	0.000264475
2	1	0	1	0	7306.33	0.18208	0.181833	1.3156	6	0.0164687	11	0.000239219
2	1	0	1	0	7306.71	0.18957	0.189255	1.1944	6	0.0169391	11	0.000226047
2	1	0	1	0	7307.08	0.197061	0.196757	1.11897	6	0.0173741	11	0.000220165
2	1	0	1	0	7307.46	0.204552	0.204268	1.07082	6	0.017786	11	0.000218734
2	1	0	1	0	7307.83	0.212045	0.211752	1.0342	6	0.0181825	11	0.000218995
2	1	0	1	0	7308.21	0.219534	0.219261	1.00798	6	0.0185669	11	0.000221011
2	1	0	1	0	7308.58	0.227025	0.226759	0.989827	6	0.0189425	11	0.000224452
2	1	0	1	0	7308.96	0.234516	0.234229	0.964868	6	0.0193108	11	0.000226
2	1	0	1	0	7309.33	0.242007	0.241736	0.948324	6	0.019673	11	0.000229244
2	1	0	1	0	7309.7	0.249498	0.249185	0.940639	6	0.0200302	11	0.000234393
2	1	0	1	0	7310.08	0.256989	0.256739	0.92649	6	0.0203826	11	0.000237866
2	1	0	1	0	7310.45	0.26448	0.264219	0.918159	6	0.0207311	11	0.000242595
2	1	0	1	0	7310.83	0.271971	0.271674	0.907113	6	0.0210759	11	0.000246439
2	1	0	1	0	7311.2	0.279462	0.279164	0.896308	6	0.0214169	11	0.000250216
2	1	0	1	0	7311.58	0.286953	0.286683	0.884398	6	0.0217542	11	0.000253542
2	1	0	1	0	7311.95	0.294444	0.294152	0.877488	6	0.0220882	11	0.000258114
2	0	0	1	0	7312.29	0.298739	0.298465	-0.131994	6	0.0223403	11	-3.93958e-05
2	0	0	1	0	7312.67	0.291246	0.29094	-0.312223	6	0.0222457	11	-9.08383e-05
2	0	0	1	0	7313.04	0.283757	0.283477	-0.382728	6	0.0221118	11	-0.000108495
2	0	0	1	0	7313.42	0.276266	0.27598	-0.438314	6	0.0219549	11	-0.000120966
2	0	0	1	0	7313.79	0.268775	0.268474	-0.477173	6	0.0217804	11	-0.000128108
2	0	0	1	0	7314.17	0.261284	0.261016	-0.510742	6	0.0215916	11	-0.000133312
2	0	0	1	0	7314.54	0.253793	0.253486	-0.54755	6	0.0213898	11	-0.000138796
2	0	0	1	0	7314.92	0.246302	0.245976	-0.57748	6	0.0211761	11	-0.000142046
2	0	0	1	0	7315.29	0.238811	0.238526	-0.60801	6	0.0209508	11	-0.000145026
2	0	0	1	0	7315.66	0.23132	0.231017	-0.63955	6	0.0207145	11	-0.000147747
2	0	0	1	0	7316.04	0.223829	0.223557	-0.666939	6	0.0204667	11	-0.000149099
2	0	0	1	0	7316.41	0.216338	0.216027	-0.698525	6	0.0202069	11	-0.000150901
2	0	0	1	0	7316.79	0.208847	0.208568	-0.739816	6	0.0199343	11	-0.000154302
2	0	0	1	0	7317.16	0.201356	0.201038	-0.78272	6	0.0196463	11	-0.000157357
2	0	0	1	0	7317.54	0.193867	0.193552	-0.841533	6	0.0193405	11	-0.00016288
2	0	0	1	0	7317.91	0.186374	0.186097	-0.908066	6	0.0190116	11	-0.000168988
2	0	0	1	0	7318.29	0.178882	0.178592	-1.0058	6	0.0186517	11	-0.000179627
2	0	0	1	0	7318.66	0.171392	0.171112	-1.14471	6	0.0182474	11	-0.000195873
2	0	0	1	0	7319.04	0.163902	0.163617	-1.37289	6	0.0177752	11	-0.000224628
2	0	0	1	0	7319.41	0.15641	0.156098	-1.73161	6	0.0171954	11	-0.000270301
2	0	0	1	0	7319.78	0.148918	0.148629	-2.23173	6	0.0164543	11	-0.0003317
2	0	0	1	0	7320.16	0.141429	0.141124	-2.75006	6	0.0155172	11	-0.000388099
2	0	0	1	0	7320.53	0.133938	0.13363	-3.11401	6	0.01441	11	-0.000416126
2	0	0	1	0	7320.91	0.126447	0.126111	-3.22601	6	0.0132107	11	-0.000406836
2	0	0	1	0	7321.28	0.118956	0.11865	-3.13106	6	0.0120106	11	-0.000371501
2	0	0	1	0	7321.66	0.111465	0.111141	-2.88431	6	0.010878	11	-0.000320564
2	0	0	1	0	7322.03	0.103974	0.103672	-2.60614	6	0.00984869	11	-0.000270183
2	0	0	1	0	7322.41	0.0964829	0.0962027	-2.37503	6	0.00891672	11	-0.000228485
2	0	0	1	0	7322.78	0.0889919	0.0886758	-2.22568	6	0.00805506	11	-0.000197364
2	0	0	1	0	7323.16	0.081501	0.0812241	-2.11771	6	0.00723926	11	-0.000172009
2	0	0	1	0	7323.53	0.07401	0.0736955	-2.03137	6	0.00645852	11	-0.000149703
2	0	0	1	0	7323.9	0.0665191	0.0662058	-1.93377	6	0.00571259	11	-0.000128027
2	0	0	1	0	7324.28	0.0590281	0.0587433	-1.81915	6	0.00500673	11	-0.000106863
2	0	0	1	0	7324.65	0.051539	0.0512037	-1.69393	6	0.00434692	11	-8.67354e-05
2	0	0	1	0	7325.03	0.0440462	0.0437665	-1.58173	6	0.0037316	11	-6.92267e-05
2	0	0	1	0	7325.4	0.0365548	0.0362741	-1.50115	6	0.00315207	11	-5.4453e-05
2	0	0	1	0	7325.78	0.0290643	0.0287679	-1.45172	6	0.00259685	11	-4.17631e-05
2	0	0	1	0	7326.15	0.0215747	0.0212761	-1.42885	6	0.0020547	11	-3.04003e-05
2	0	0	1	0	7326.53	0.0140824	0.0137887	-1.43137	6	0.00151677	11	-1.97368e-05
2	0	0	1	0	7326.9	0.00659058	0.00627088	-1.44391	6	0.000976511	11	-9.05457e-06
2	0	0	0	0	8528.86	2.44065e-05	-0.000268062	-1.25083	7	0.0000000E+000	11	3.35299e-07
2	1	0	1	0	8529.22	0.00729063	0.00698411	0.79131	7	0.000202429	11	5.52659e-06
2	1	0	1	0	8529.6	0.0147802	0.0145169	0.884556	7	0.000520642	11	1.2841e-05
2	1	0	1	0	8529.97	0.0222725	0.0219879	0.945206	7	0.000866937	11	2.07831e-05
2	1	0	1	0	8530.35	0.0297644	0.0294327	1.00683	7	0.00123574	11	2.96335e-05
2	1	0	1	0	8530.72	0.0372544	0.0369353	1.07702	7	0.00162882	11	3.97802e-05
2	1	0	1	0	8531.09	0.0447449	0.0444645	1.16609	7	0.00205121	11	5.18495e-05
2	1	0	1	0	8531.47	0.0522363	0.0519465	1.27237	7	0.00251064	11	6.60952e-05
2	1	0	1	0	8531.84	0.0597291	0.05945	1.39867	7	0.00301347	11	8.31511e-05
2	1	0	1	0	8532.22	0.0672182	0.0669532	1.52415	7	0.00356234	11	0.000102047
2	1	0	1	0	8532.59	0.0747092	0.0744324	1.63213	7	0.00415594	11	0.000121484
2	1	0	1	0	8532.97	0.0822001	0.0819294	1.72946	7	0.00479028	11	0.000141694
2	1	0	1	0	8533.34	0.0896911	0.0893471	1.82815	7	0.00546026	11	0.00016334
2	1	0	1	0	8533.72	0.097182	0.0968626	1.93346	7	0.00616734	11	0.00018728
2	1	0	1	0	8534.09	0.104673	0.104357	2.09108	7	0.0069213	11	0.00021822
2	1	0	1	0	8534.47	0.112164	0.111861	2.30574	7	0.00774473	11	0.000257922
2	1	0	1	0	8534.84	0.119655	0.119382	2.56171	7	0.00865773	11	0.000305822
2	1	0	1	0	8535.21	0.127146	0.126848	2.78549	7	0.00966367	11	0.000353334
2	1	0	1	0	8535.59	0.134637	0.134321	2.97889	7	0.0107494	11	0.000400126
2	1	0	1	0	8535.96	0.142128	0.141826	3.06715	7	0.01189	11	0.000435
2	1	0	1	0	8536.34	0.149619	0.149304	2.90839	7	0.0130217	11	0.000434235
2	1	0	1	0	8536.71	0.157108	0.156837	2.4317	7	0.0140315	11	0.000381381
2	1	0	1	0	8537.09	0.164601	0.16435	1.90631	7	0.0148425	11	0.000313302
2	1	0	1	0	8537.46	0.172092	0.17179	1.54593	7	0.0154868	11	0.000265576
2	1	0	1	0	8537.84	0.179582	0.179298	1.33578	7	0.0160265	11	0.000239502
2	1	0	1	0	8538.21	0.187073	0.186799	1.21152	7	0.0165046	11	0.000226311
2	1	0	1	0	8538.59	0.194564	0.194278	1.13505	7	0.0169456	11	0.000220516
2	1	0	1	0	8538.96	0.202057	0.201772	1.08369	7	0.0173625	11	0.000218659
2	1	0	1	0	8539.33	0.209546	0.209281	1.04485	7	0.0177633	11	0.000218666
2	1	0	1	0	8539.71	0.217037	0.216767	1.01418	7	0.0181515	11	0.000219841
2	1	0	1	0	8540.08	0.224528	0.224246	0.995511	7	0.0185309	11	0.00022324
2	1	0	1	0	8540.46	0.232019	0.231754	0.977261	7	0.0189025	11	0.000226484
2	1	0	1	0	8540.83	0.23951	0.239234	0.961603	7	0.0192681	11	0.000230048
2	1	0	1	0	8541.21	0.247001	0.246721	0.947565	7	0.0196282	11	0.000233784
2	1	0	1	0	8541.58	0.254492	0.254182	0.933764	7	0.0199836	11	0.000237346
2	1	0	1	0	8541.96	0.261983	0.261712	0.923739	7	0.0203344	11	0.000241753
2	1	0	1	0	8542.33	0.269474	0.269208	0.913398	7	0.0206815	11	0.000245894
2	1	0	1	0	8542.71	0.276965	0.276677	0.904191	7	0.0210248	11	0.000250169
2	1	0	1	0	8543.08	0.284456	0.284166	0.895564	7	0.0213645	11	0.000254489
2	1	0	1	0	8543.45	0.291947	0.29173	0.884955	7	0.0217005	11	0.000258168
2	1	0	1	0	8543.83	0.299436	0.29916	0.872318	7	0.022033	11	0.000260963
2	0	0	1	0	8544.17	0.293745	0.29338	-0.258323	7	0.0220152	11	-7.57867e-05
2	0	0	1	0	8544.55	0.286254	0.28596	-0.349376	7	0.021897	11	-9.99076e-05
2	0	0	1	0	8544.92	0.278763	0.278469	-0.406721	7	0.0217512	11	-0.000113259
2	0	0	1	0	8545.3	0.271272	0.270961	-0.457917	7	0.0215862	11	-0.000124078
2	0	0	1	0	8545.67	0.263781	0.263517	-0.4928	7	0.0214054	11	-0.000129862
2	0	0	1	0	8546.04	0.25629	0.255992	-0.529651	7	0.021211	11	-0.000135586
2	0	0	1	0	8546.42	0.248799	0.248467	-0.557342	7	0.0210043	11	-0.000138481
2	0	0	1	0	8546.79	0.241308	0.241005	-0.589319	7	0.0207862	11	-0.000142029
2	0	0	1	0	8547.17	0.233817	0.233465	-0.619685	7	0.0205569	11	-0.000144675
2	0	0	1	0	8547.54	0.226326	0.226024	-0.648035	7	0.0203165	11	-0.000146471
2	0	0	1	0	8547.92	0.218835	0.218526	-0.681545	7	0.0200645	11	-0.000148936
2	0	0	1	0	8548.29	0.211344	0.211091	-0.715854	7	0.0198004	11	-0.00015111
2	0	0	1	0	8548.67	0.203855	0.203525	-0.752128	7	0.0195226	11	-0.000153077
2	0	0	1	0	8549.04	0.196362	0.196047	-0.79737	7	0.0192294	11	-0.000156322
2	0	0	1	0	8549.42	0.188871	0.188556	-0.85614	7	0.0189165	11	-0.00016143
2	0	0	1	0	8549.79	0.18138	0.181087	-0.936609	7	0.0185786	11	-0.000169608
2	0	0	1	0	8550.16	0.173891	0.173592	-1.04729	7	0.0182056	11	-0.0001818
2	0	0	1	0	8550.54	0.166398	0.166089	-1.21633	7	0.0177806	11	-0.00020202
2	0	0	1	0	8550.91	0.158906	0.158636	-1.48768	7	0.0172747	11	-0.000236001
2	0	0	1	0	8551.29	0.151417	0.151099	-1.89853	7	0.0166416	11	-0.000286865
2	0	0	1	0	8551.66	0.143926	0.143597	-2.4076	7	0.0158326	11	-0.000345726
2	0	0	1	0	8552.04	0.136435	0.13613	-2.85029	7	0.0148402	11	-0.00038801
2	0	0	1	0	8552.41	0.128942	0.128652	-3.08821	7	0.0137186	11	-0.000397305
2	0	0	1	0	8552.79	0.121453	0.121154	-3.1001	7	0.0125519	11	-0.000375589
2	0	0	1	0	8553.16	0.113962	0.113695	-2.94295	7	0.0114132	11	-0.000334599
2	0	0	1	0	8553.54	0.106471	0.106136	-2.70631	7	0.0103501	11	-0.000287238
2	0	0	1	0	8553.91	0.0989799	0.0987101	-2.47067	7	0.00937881	11	-0.00024388
2	0	0	1	0	8554.28	0.0914889	0.0911593	-2.29942	7	0.00848561	11	-0.000209614
2	0	0	1	0	8554.66	0.083998	0.083697	-2.17948	7	0.0076464	11	-0.000182416
2	0	0	1	0	8555.03	0.076507	0.0761879	-2.08951	7	0.00684452	11	-0.000159195
2	0	0	1	0	8555.41	0.0690161	0.0687431	-1.99885	7	0.00607545	11	-0.000137407
2	0	0	1	0	8555.78	0.0615251	0.0612112	-1.89801	7	0.00534081	11	-0.000116179
2	0	0	1	0	8556.16	0.0540342	0.0536685	-1.78475	7	0.00464762	11	-9.57849e-05
2	0	0	1	0	8556.53	0.0465432	0.0461958	-1.66478	7	0.00399907	11	-7.69059e-05
2	0	0	1	0	8556.91	0.0390523	0.0387202	-1.56769	7	0.00339231	11	-6.0701e-05
2	0	0	1	0	8557.28	0.0315626	0.031246	-1.4935	7	0.00281812	11	-4.6666e-05
2	0	0	1	0	8557.66	0.0240704	0.0237489	-1.44636	7	0.00226455	11	-3.43494e-05
2	0	0	1	0	8558.03	0.0165785	0.0162875	-1.43475	7	0.00172189	11	-2.33685e-05
2	0	0	1	0	8558.4	0.00908846	0.00876429	-1.43711	7	0.00118174	11	-1.25953e-05
2	0	0	1	0	8558.78	0.0015984	0.00123566	-1.4786	7	0.000636422	11	-1.82705e-06
2	1	0	1	0	9760.73	0.00479231	0.00451314	0.768308	8	0.000111977	11	3.46748e-06
2	1	0	1	0	9761.1	0.0122846	0.0119846	0.8735	8	0.000425699	11	1.04686e-05
2	1	0	1	0	9761.47	0.0197764	0.0195027	0.948314	8	0.000771134	11	1.84946e-05
2	1	0	1	0	9761.85	0.0272665	0.0269928	1.01167	8	0.00114062	11	2.73078e-05
2	1	0	1	0	9762.22	0.0347566	0.0344709	1.08338	8	0.00153514	11	3.7345e-05
2	1	0	1	0	9762.6	0.0422484	0.0419416	1.17289	8	0.00196	11	4.91927e-05
2	1	0	1	0	9762.97	0.0497411	0.0494399	1.28014	8	0.00242103	11	6.329e-05
2	1	0	1	0	9763.35	0.0572303	0.0569599	1.39023	8	0.00292437	11	7.91874e-05
2	1	0	1	0	9763.72	0.0647212	0.0644252	1.51778	8	0.00347229	11	9.77833e-05
2	1	0	1	0	9764.1	0.0722122	0.0719255	1.62959	8	0.00406468	11	0.000117209
2	1	0	1	0	9764.47	0.0797031	0.0794216	1.73095	8	0.00469685	11	0.000137475
2	1	0	1	0	9764.85	0.0871941	0.0868973	1.82164	8	0.00536513	11	0.000158296
2	1	0	1	0	9765.22	0.094685	0.0944126	1.92513	8	0.00606866	11	0.000181757
2	1	0	1	0	9765.59	0.102176	0.101891	2.05705	8	0.00681608	11	0.000209596
2	1	0	1	0	9765.97	0.109667	0.109381	2.26327	8	0.00762776	11	0.000247558
2	1	0	1	0	9766.34	0.117158	0.116861	2.50369	8	0.00852401	11	0.000292584
2	1	0	1	0	9766.72	0.124649	0.124368	2.73329	8	0.00950874	11	0.000339933
2	1	0	1	0	9767.09	0.13214	0.13186	2.91964	8	0.0105711	11	0.000384984
2	1	0	1	0	9767.47	0.139631	0.139316	3.02874	8	0.0116917	11	0.000421953
2	1	0	1	0	9767.84	0.14712	0.14681	2.92743	8	0.0128201	11	0.000429775
2	1	0	1	0	9768.22	0.154613	0.154333	2.50452	8	0.0138501	11	0.00038653
2	1	0	1	0	9768.59	0.162104	0.161799	1.96385	8	0.0146879	11	0.00031775
2	1	0	1	0	9768.97	0.169595	0.169266	1.5805	8	0.0153487	11	0.000267524
2	1	0	1	0	9769.34	0.177084	0.176806	1.34641	8	0.0158952	11	0.000238053
2	1	0	1	0	9769.71	0.184576	0.18431	1.20611	8	0.0163748	11	0.000222297
2	1	0	1	0	9770.09	0.192069	0.191722	1.13031	8	0.016815	11	0.000216706
2	1	0	1	0	9770.46	0.199558	0.1993	1.07789	8	0.0172306	11	0.000214824
2	1	0	1	0	9770.84	0.207049	0.206761	1.05214	8	0.0176297	11	0.000217541
2	1	0	1	0	9771.21	0.21454	0.21426	1.01085	8	0.0180171	11	0.000216584
2	1	0	1	0	9771.59	0.222033	0.221758	0.99308	8	0.0183952	11	0.000220224
2	1	0	1	0	9771.96	0.229522	0.22925	0.968043	8	0.0187656	11	0.000221924
2	1	0	1	0	9772.34	0.237013	0.236702	0.958029	8	0.0191301	11	0.000226768
2	1	0	1	0	9772.71	0.244504	0.244221	0.944326	8	0.0194893	11	0.000230625
2	1	0	1	0	9773.09	0.251995	0.251725	0.934477	8	0.0198439	11	0.000235231
2	1	0	1	0	9773.46	0.259486	0.259224	0.923979	8	0.0201945	11	0.000239518
2	1	0	1	0	9773.83	0.266977	0.266673	0.913837	8	0.020541	11	0.000243696
2	1	0	1	0	9774.21	0.274468	0.274188	0.897759	8	0.020884	11	0.000246154
2	1	0	1	0	9774.58	0.281959	0.281694	0.893199	8	0.0212233	11	0.000251609
2	1	0	1	0	9774.96	0.28945	0.289191	0.885718	8	0.0215592	11	0.000256142
2	1	0	1	0	9775.33	0.296941	0.296645	0.875987	8	0.0218917	11	0.000259857
2	0	0	1	0	9775.68	0.296242	0.295906	-0.2267	8	0.0220098	11	-6.70818e-05
2	0	0	1	0	9776.05	0.288751	0.288436	-0.336295	8	0.0218988	11	-9.69996e-05
2	0	0	1	0	9776.42	0.28126	0.280945	-0.403716	8	0.0217567	11	-0.000113422
2	0	0	1	0	9776.8	0.273769	0.27347	-0.443274	8	0.0215939	11	-0.000121222
2	0	0	1	0	9777.17	0.266278	0.26594	-0.490364	8	0.0214148	11	-0.000130408
2	0	0	1	0	9777.55	0.258787	0.258511	-0.525408	8	0.0212218	11	-0.000135824
2	0	0	1	0	9777.92	0.251296	0.250989	-0.556741	8	0.0210164	11	-0.000139736
2	0	0	1	0	9778.3	0.243805	0.243528	-0.584781	8	0.0207994	11	-0.00014241
2	0	0	1	0	9778.67	0.236314	0.235994	-0.615594	8	0.0205716	11	-0.000145277
2	0	0	1	0	9779.05	0.228823	0.228529	-0.637453	8	0.0203332	11	-0.000145677
2	0	0	1	0	9779.42	0.221332	0.22101	-0.670898	8	0.0200837	11	-0.000148275
2	0	0	1	0	9779.8	0.213841	0.213537	-0.706867	8	0.0198226	11	-0.000150942
2	0	0	1	0	9780.17	0.20635	0.206041	-0.745071	8	0.0195489	11	-0.000153515
2	0	0	1	0	9780.54	0.198859	0.198576	-0.781556	8	0.019261	11	-0.000155198
2	0	0	1	0	9780.92	0.191368	0.19106	-0.833045	8	0.0189562	11	-0.000159162
2	0	0	1	0	9781.29	0.183879	0.183522	-0.896263	8	0.0186299	11	-0.000164484
2	0	0	1	0	9781.67	0.176386	0.176066	-0.989007	8	0.0182742	11	-0.00017413
2	0	0	1	0	9782.04	0.168895	0.16861	-1.12686	8	0.0178764	11	-0.000189999
2	0	0	1	0	9782.42	0.161404	0.161087	-1.34396	8	0.0174138	11	-0.000216495
2	0	0	1	0	9782.79	0.153914	0.153572	-1.68915	8	0.0168483	11	-0.000259406
2	0	0	1	0	9783.17	0.146423	0.146122	-2.16293	8	0.0161275	11	-0.000316051
2	0	0	1	0	9783.54	0.13893	0.13865	-2.65591	8	0.0152192	11	-0.000368242
2	0	0	1	0	9783.92	0.131441	0.131094	-2.99103	8	0.014152	11	-0.000392106
2	0	0	1	0	9784.29	0.12395	0.123651	-3.09511	8	0.0130028	11	-0.000382715
2	0	0	1	0	9784.66	0.116459	0.116102	-3.00741	8	0.0118533	11	-0.000349167
2	0	0	1	0	9785.04	0.108968	0.108662	-2.80423	8	0.0107615	11	-0.000304712
2	0	0	1	0	9785.41	0.101477	0.101191	-2.56201	8	0.00975404	11	-0.000259251
2	0	0	1	0	9785.79	0.0939859	0.0936624	-2.35937	8	0.0088316	11	-0.000220984
2	0	0	1	0	9786.16	0.0864949	0.0861729	-2.22269	8	0.00797161	11	-0.000191536
2	0	0	1	0	9786.54	0.079004	0.0787278	-2.13151	8	0.00715505	11	-0.000167809
2	0	0	1	0	9786.91	0.071513	0.0712083	-2.04515	8	0.00637103	11	-0.000145632
2	0	0	1	0	9787.29	0.0640221	0.0637211	-1.95642	8	0.00561912	11	-0.000124665
2	0	0	1	0	9787.66	0.0565311	0.0562367	-1.84149	8	0.00490373	11	-0.000103559
2	0	0	1	0	9788.04	0.0490402	0.0487334	-1.72939	8	0.0042306	11	-8.42791e-05
2	0	0	1	0	9788.41	0.041551	0.0412087	-1.61763	8	0.00360053	11	-6.66604e-05
2	0	0	1	0	9788.78	0.0340583	0.0337306	-1.53671	8	0.00300698	11	-5.18343e-05
2	0	0	1	0	9789.16	0.0265669	0.026243	-1.47855	8	0.00244041	11	-3.88015e-05
2	0	0	1	0	9789.53	0.0190764	0.0187334	-1.44875	8	0.00189014	11	-2.71401e-05
2	0	0	1	0	9789.91	0.0115863	0.0112782	-1.43626	8	0.00134657	11	-1.61985e-05
2	0	0	1	0	9790.28	0.00409449	0.00380802	-1.44765	8	0.000802226	11	-5.51268e-06
2	0	0	0	0	9790.49	-2.44065e-05	-0.000248974	-1.47154	8	0.00050149	11	3.66376e-07