File: Figure_codes/Fig_3-5/rawdata_trumpetplot_data/before 10th/20221101_1-115_002_TrumpetPlot_ParaChange_04_CV_C01_2.csv
mode,ox/red,error,control changes,counter inc.,time/s,control/V,Ewe/V,<I>/mA,cycle number,(Q-Qo)/C,I Range,P/W,log(|I|),Tafel slope mV/dec,alpha_eff,dI/d(E-IR),E-IR/V,
2,0,0,1,0,2822.06,2.44065e-05,-0.000325324,-0.391047,3,0.0000000E+000,11,1.27217e-07,-3.40777, , , ,-0.000325324,
2,0,0,1,0,2823.33,0.00129791,0.000927096,-0.168064,3,-0.000225307,11,-1.55812e-07,-3.77453, , , ,0.000927096,
2,0,0,1,0,2824.83,0.00279612,0.00250712,-0.13702,3,-0.000419113,11,-3.43526e-07,-3.86322,-0.0192028,-3.07246,17.4892,0.00250712,
2,0,0,1,0,2826.33,0.00429431,0.00398955,-0.117926,3,-0.00057933,11,-4.7047e-07,-3.92839,-0.026714,-2.20858,10.3472,0.00398955,
2,0,0,1,0,2827.83,0.00579242,0.00547722,-0.10446,3,-0.00071598,11,-5.72152e-07,-3.98105,-0.0303398,-1.94464,8.08601,0.00547722,
2,0,0,1,0,2829.32,0.00729061,0.00697982,-0.0937498,3,-0.000834807,11,-6.54357e-07,-4.02803,-0.0339593,-1.73737,6.45822,0.00697982,
2,0,0,1,0,2830.82,0.00878882,0.0084941,-0.0853024,3,-0.000939365,11,-7.24567e-07,-4.06904,-0.0378434,-1.55905,5.24375,0.0084941,
2,0,0,1,0,2832.32,0.010287,0.0100274,-0.0783673,3,-0.00103217,11,-7.85819e-07,-4.10587,-0.0412796,-1.42928,4.40617,0.0100274,
2,0,0,1,0,2833.82,0.0117852,0.0115396,-0.0725938,3,-0.00111544,11,-8.37703e-07,-4.1391,-0.0434138,-1.35902,3.87475,0.0115396,
2,0,0,1,0,2835.32,0.0132834,0.0129659,-0.0666982,3,-0.0011902,11,-8.64801e-07,-4.17589,-0.0472896,-1.24763,3.26795,0.0129659,
2,0,0,1,0,2836.82,0.0147815,0.0145108,-0.0624415,3,-0.00125724,11,-9.06074e-07,-4.20453,-0.0458649,-1.28639,3.12466,0.0145108,
2,0,0,1,0,2838.31,0.0162797,0.0159434,-0.058019,3,-0.00131736,11,-9.25018e-07,-4.23643,-0.0502852,-1.17331,2.65709,0.01594336,
2,0,0,1,0,2839.81,0.0177779,0.017481,-0.0539946,3,-0.00137169,11,-9.43877e-07,-4.26765,-0.0497215,-1.18661,2.49961,0.017481,
2,0,0,1,0,2841.31,0.0192761,0.0190101,-0.0502896,3,-0.00142119,11,-9.56007e-07,-4.29852,-0.05254,-1.12295,2.23091,0.0190101,
2,0,0,1,0,2842.81,0.0207743,0.0204882,-0.0466072,3,-0.00146508,11,-9.549e-07,-4.33155,-0.0556548,-1.06011,1.98072,0.02048824,
2,0,0,1,0,2844.31,0.0222725,0.0219909,-0.0440302,3,-0.00150446,11,-9.68264e-07,-4.35625,-0.0509369,-1.1583,2.01635,0.0219909,
2,0,0,1,0,2845.8,0.0237707,0.0234479,-0.0412886,3,-0.00153981,11,-9.68133e-07,-4.38417,-0.0619339,-0.952629,1.55675,0.0234479,
2,0,0,1,0,2847.3,0.0252689,0.0249749,-0.0396132,3,-0.00157141,11,-9.89337e-07,-4.40216,-0.0560168,-1.05326,1.60936,0.02497492,
2,0,0,1,0,2848.8,0.0267671,0.0264807,-0.0363082,3,-0.00159911,11,-9.61466e-07,-4.44,-0.0503664,-1.17142,1.69143,0.0264807,
2,0,0,1,0,2850.3,0.0282653,0.027978,-0.0342012,3,-0.00162305,11,-9.56882e-07,-4.46596,-0.048009,-1.22894,1.65455,0.027978,
2,0,0,1,0,2851.8,0.0297635,0.0294976,-0.0322986,3,-0.00164373,11,-9.52731e-07,-4.49082,-0.0508856,-1.15946,1.46139,0.0294976,
2,0,0,1,0,2853.3,0.0312617,0.0309642,-0.0307838,3,-0.00166134,11,-9.53196e-07,-4.51168,-0.0458663,-1.28635,1.50825,0.0309642,
2,0,0,1,0,2854.79,0.0327599,0.0324667,-0.0279988,3,-0.00167601,11,-9.0903e-07,-4.55286,-0.0495414,-1.19092,1.30896,0.0324667,
2,0,0,1,0,2856.29,0.0342581,0.0339959,-0.0257548,3,-0.00168731,11,-8.75556e-07,-4.58914,-0.0438775,-1.34465,1.37669,0.0339959,
2,0,0,1,0,2857.79,0.0357563,0.0354899,-0.0240051,3,-0.00169572,11,-8.51939e-07,-4.6197,-0.042374,-1.39236,1.3225,0.0354899,
2,0,0,1,0,2859.29,0.0372544,0.0368896,-0.0228311,3,-0.00170164,11,-8.4223e-07,-4.64147,-0.0339023,-1.74029,1.50529,0.03688959,
2,0,0,1,0,2860.79,0.0387526,0.0384421,-0.0202562,3,-0.00170495,11,-7.7869e-07,-4.69344,-0.037356,-1.5794,1.24879,0.0384421,
2,0,0,1,0,2862.28,0.0402508,0.0399086,-0.0189169,3,-0.00170526,11,-7.54948e-07,-4.72315,-0.0351657,-1.67777,1.22638,0.0399086,
2,0,0,1,0,2863.78,0.041749,0.0414568,-0.0164376,3,-0.00170276,11,-6.81449e-07,-4.78416,-0.0416304,-1.41723,0.953794,0.0414568,
2,0,0,1,0,2865.28,0.0432472,0.0429552,-0.0147262,3,-0.00169779,11,-6.32568e-07,-4.83191,-0.0320166,-1.84279,1.06824,0.0429552,
2,0,0,1,0,2866.78,0.0447454,0.044444,-0.0133857,3,-0.00169049,11,-5.94913e-07,-4.87336,-0.026,-2.26923,1.19786,0.044444,
2,0,0,1,0,2868.28,0.0462435,0.045955,-0.0115014,3,-0.00168016,11,-5.28549e-07,-4.93925,-0.0237057,-2.48886,1.13367,0.045955,
2,0,0,1,0,2869.78,0.0477417,0.0474661,-0.00983519,3,-0.00166706,11,-4.66838e-07,-5.00722,-0.0213569,-2.76257,1.05402,0.0474661,
2,0,0,1,0,2871.27,0.0492399,0.0489835,-0.00844782,3,-0.00165138,11,-4.13804e-07,-5.07326,-0.0124524,-4.73804,1.38662,0.0489835,
2,0,0,1,0,2872.77,0.0507381,0.0504543,-0.00662445,3,-0.00163349,11,-3.34232e-07,-5.17885,-0.0123151,-4.79086,1.15927,0.0504543,
2,0,0,1,0,2874.27,0.0522363,0.051924,-0.00491497,3,-0.00161252,11,-2.55205e-07,-5.30848,-0.00799385,-7.38068,1.26317,0.051924,
2,0,0,1,0,2875.77,0.0537345,0.0534723,-0.00265766,3,-0.00158846,11,-1.42111e-07,-5.5755,-0.00183505,-32.1517,1.24604,0.05347231,
2,0,0,1,0,2877.27,0.0552327,0.0549654,-0.000963906,3,-0.00156187,11,-5.29815e-08,-6.01597,-0.0116956,-5.04462,1.31157,0.0549654,
2,0,0,1,0,2878.76,0.0567309,0.0564499,0.000558431,3,-0.00153253,11,3.15234e-08,-6.25303,0.0148525,3.9724,1.30406,0.05644992,
2,0,0,1,0,2880.26,0.0582291,0.0579217,0.00291898,3,-0.0015004,11,1.69072e-07,-5.53477,0.00353959,16.6686,1.36275,0.0579217,
2,0,0,1,0,2881.76,0.0597273,0.059452,0.00468146,3,-0.00146504,11,2.78322e-07,-5.32962,0.00683226,8.63551,1.3904,0.059452,
2,0,0,1,0,2883.26,0.0612255,0.0609164,0.00694263,3,-0.00142662,11,4.2292e-07,-5.15848,0.0122353,4.82212,1.18098,0.0609164,
2,0,0,1,0,2884.76,0.0627237,0.0624996,0.00891377,3,-0.00138493,11,5.57107e-07,-5.04994,0.0155561,3.79273,1.29262,0.06249956,
2,0,0,1,0,2886.26,0.0642219,0.063911,0.0109603,3,-0.00134062,11,7.0048e-07,-4.96018,0.0170102,3.46851,1.51889,0.063911,
2,1,0,1,0,2887.75,0.0657201,0.0654412,0.0130468,3,-0.00129276,11,8.538e-07,-4.88449,0.0234451,2.51652,1.26063,0.0654412,
2,1,0,1,0,2889.25,0.0672183,0.0669226,0.0148348,3,-0.00124169,11,9.92782e-07,-4.82872,0.0261021,2.26036,1.29786,0.0669226,
2,0,0,1,0,2890.75,0.0687164,0.0684442,0.0172611,3,-0.00118747,11,1.18142e-06,-4.76293,0.0284654,2.07269,1.36091,0.0684442,
2,1,0,1,0,2892.25,0.0702146,0.0699574,0.0195405,3,-0.00113058,11,1.367e-06,-4.70906,0.0320443,1.8412,1.37866,0.0699574,
2,1,0,1,0,2893.75,0.0717128,0.0713518,0.0218514,3,-0.00106983,11,1.55914e-06,-4.66052,0.031041,1.90071,1.56375,0.0713518,
2,1,0,1,0,2895.24,0.073211,0.0729021,0.0238236,3,-0.00100583,11,1.73679e-06,-4.62299,0.0447415,1.31868,1.21967,0.0729021,
2,1,0,1,0,2896.74,0.0747092,0.0744015,0.0264388,3,-0.000938624,11,1.96709e-06,-4.57776,0.0466527,1.26466,1.3083,0.0744015,
2,1,0,1,0,2898.24,0.0762074,0.0759094,0.0276267,3,-0.00086848,11,2.09713e-06,-4.55867,0.0486073,1.21381,1.34189,0.0759094,
2,1,0,1,0,2899.74,0.0777055,0.0774332,0.0299952,3,-0.00079477,11,2.32262e-06,-4.52295,0.041191,1.43235,1.66714,0.0774332,
2,1,0,1,0,2901.24,0.0792037,0.0788976,0.0329863,3,-0.000717942,11,2.60254e-06,-4.48167,0.0525268,1.12324,1.41449,0.0788976,
2,1,0,1,0,2902.74,0.0807019,0.0803832,0.0346171,3,-0.000637729,11,2.78263e-06,-4.46071,0.0713798,0.826564,1.11015,0.0803832,
2,1,0,1,0,2904.23,0.0822001,0.0819124,0.0360897,3,-0.000554993,11,2.9562e-06,-4.44262,0.0625614,0.943073,1.33948,0.0819124,
2,1,0,1,0,2905.73,0.0836983,0.0834255,0.0384481,3,-0.000469263,11,3.20755e-06,-4.41513,0.0556714,1.05979,1.59185,0.0834255,
2,1,0,1,0,2907.23,0.0851965,0.0849261,0.0403961,3,-0.000380418,11,3.43069e-06,-4.39366,0.0717942,0.821793,1.28662,0.0849261,
2,1,0,1,0,2908.73,0.0866947,0.0864106,0.0418074,3,-0.000288602,11,3.6126e-06,-4.37875,0.0954119,0.618371,1.01474,0.0864106,
2,1,0,1,0,2910.23,0.0881929,0.0878581,0.0439745,3,-0.000193914,11,3.86352e-06,-4.3568,0.0799422,0.738033,1.26533,0.0878581,
2,1,0,1,0,2911.72,0.0896911,0.0893787,0.0454646,3,-9.70208e-05,11,4.06356e-06,-4.34233,0.0739044,0.798329,1.45018,0.0893787,
2,1,0,1,0,2913.22,0.0911893,0.0909195,0.0486726,3,3.31764e-06,11,4.42529e-06,-4.31272,0.0967283,0.609956,1.13609,0.0909195,
2,1,0,1,0,2914.72,0.0926875,0.0923967,0.0503742,3,0.000107287,11,4.65441e-06,-4.29779,0.0971652,0.607213,1.17599,0.0923967,
2,1,0,1,0,2916.22,0.0941857,0.0939226,0.0517811,3,0.000213547,11,4.86342e-06,-4.28583,0.107187,0.550439,1.10781,0.0939226,
2,1,0,1,0,2917.72,0.0956839,0.0953828,0.0538566,3,0.0003222,11,5.13699e-06,-4.26876,0.105163,0.561034,1.17157,0.0953828,
2,1,0,1,0,2919.22,0.0971821,0.0968992,0.0558344,3,0.000434273,11,5.41031e-06,-4.2531,0.0873949,0.675097,1.46241,0.0968992,
2,1,0,1,0,2920.71,0.0986803,0.098352,0.0573082,3,0.00054948,11,5.63638e-06,-4.24178,0.115478,0.51092,1.15271,0.098352,
2,1,0,1,0,2922.21,0.100178,0.0999001,0.0591304,3,0.000667598,11,5.90713e-06,-4.22819,0.0964943,0.611435,1.42198,0.0999001,
2,1,0,1,0,2923.71,0.101677,0.101411,0.0617559,3,0.000788621,11,6.26273e-06,-4.20932,0.0993264,0.594001,1.43296,0.101411,
2,1,0,1,0,2925.21,0.103175,0.102902,0.0645566,3,0.000913553,11,6.643e-06,-4.19006,0.0817465,0.721743,1.81078,0.102902,
2,1,0,1,0,2926.71,0.104673,0.104397,0.0675197,3,0.00104246,11,7.04887e-06,-4.17057,0.0876719,0.672963,1.763,0.104397,
2,1,0,1,0,2928.2,0.106171,0.105892,0.0694239,3,0.0011756,11,7.35146e-06,-4.15849,0.0889363,0.663396,1.80068,0.105892,
2,1,0,1,0,2929.7,0.107669,0.107396,0.072042,3,0.00131272,11,7.73703e-06,-4.14241,0.0755827,0.780602,2.20982,0.107396,
2,1,0,1,0,2931.2,0.109167,0.108857,0.0748356,3,0.001454,11,8.1464e-06,-4.12589,0.071173,0.828967,2.45554,0.108857,
2,1,0,1,0,2932.7,0.110666,0.110375,0.0789431,3,0.00160097,11,8.71332e-06,-4.10269,0.0828279,0.71232,2.21821,0.110375,
2,1,0,1,0,2934.2,0.112164,0.111861,0.0832643,3,0.00175345,11,9.31406e-06,-4.07954,0.0750152,0.786507,2.52939,0.111861,
2,1,0,1,0,2935.7,0.113662,0.113358,0.0870183,3,0.00191147,11,9.86419e-06,-4.06039,0.0725403,0.813341,2.77123,0.113358,
2,1,0,1,0,2937.19,0.11516,0.114857,0.0912602,3,0.0020749,11,1.04819e-05,-4.03972,0.0726175,0.812476,2.89107,0.114857,
2,1,0,1,0,2938.69,0.116658,0.116313,0.0962185,3,0.00224604,11,1.11915e-05,-4.01674,0.0673695,0.875768,3.27066,0.116313,
2,1,0,1,0,2940.19,0.118157,0.117886,0.101548,3,0.00242481,11,1.19711e-05,-3.99333,0.0664379,0.888048,3.49873,0.117886,
2,1,0,1,0,2941.69,0.119655,0.119363,0.105929,3,0.0026107,11,1.2644e-05,-3.97498,0.0746233,0.790638,3.27099,0.119363,
2,1,0,1,0,2943.19,0.121153,0.120829,0.11123,3,0.00280374,11,1.34398e-05,-3.95378,0.0704812,0.837102,3.62643,0.1208293,
2,1,0,1,0,2944.69,0.122651,0.122372,0.116244,3,0.00300523,11,1.4225e-05,-3.93463,0.0632549,0.932734,4.20147,0.1223722,
2,1,0,1,0,2946.18,0.124149,0.123872,0.121828,3,0.00321562,11,1.5091e-05,-3.91425,0.0712224,0.828391,3.9378,0.123872,
2,1,0,1,0,2947.68,0.125648,0.125371,0.127557,3,0.00343435,11,1.5992e-05,-3.89429,0.0809016,0.729281,3.63691,0.125371,
2,1,0,1,0,2949.18,0.127146,0.126833,0.131666,3,0.0036606,11,1.66997e-05,-3.88052,0.0820316,0.719235,3.72335,0.126833,
2,1,0,1,0,2950.68,0.128644,0.128357,0.138643,3,0.00389486,11,1.77958e-05,-3.8581,0.094775,0.622527,3.33506,0.128357,
2,1,0,1,0,2952.18,0.130142,0.129839,0.14504,3,0.00413759,11,1.88318e-05,-3.83851,0.0989434,0.5963,3.31894,0.129839,
2,1,0,1,0,2953.67,0.13164,0.131357,0.148187,3,0.00438774,11,1.94654e-05,-3.82919,0.12474,0.472982,2.72676,0.131357,
2,1,0,1,0,2955.17,0.133139,0.132847,0.15131,3,0.00464427,11,2.01011e-05,-3.82013,0.13026,0.452939,2.69362,0.132847,
2,1,0,1,0,2956.67,0.134637,0.134365,0.155637,3,0.00490589,11,2.09122e-05,-3.80789,0.144334,0.408775,2.48994,0.134365,
2,1,0,1,0,2958.17,0.136135,0.13581,0.159522,3,0.00517383,11,2.16646e-05,-3.79718,0.191785,0.307637,1.90479,0.13581,
2,1,0,1,0,2959.67,0.137633,0.137332,0.161567,3,0.00544626,11,2.21884e-05,-3.79165,0.307553,0.191837,1.20493,0.137332,
2,1,0,1,0,2961.17,0.139131,0.13884,0.164154,3,0.00572145,11,2.27912e-05,-3.78475,0.434147,0.135899,0.862401,0.1388403,
2,1,0,1,0,2962.66,0.14063,0.140376,0.164809,3,0.00599793,11,2.31353e-05,-3.78302,0.722536,0.0816568,0.521577,0.140376,
2,1,0,1,0,2964.16,0.142128,0.141809,0.164465,3,0.00627651,11,2.33227e-05,-3.78393,6.54553,0.00901379,0.0576104,0.141809,
2,1,0,1,0,2965.66,0.143626,0.143335,0.164113,3,0.00655481,11,2.35232e-05,-3.78486,-0.389966,-0.151295,-0.961364,0.143335,
2,1,0,1,0,2967.16,0.145124,0.144836,0.162438,3,0.00683069,11,2.35269e-05,-3.78931,-0.21983,-0.268389,-1.69987,0.144836,
2,1,0,1,0,2968.66,0.146622,0.146374,0.15844,3,0.00710204,11,2.31915e-05,-3.80014,-0.173954,-0.339171,-2.10414,0.146374,
2,1,0,1,0,2970.15,0.14812,0.147838,0.154706,3,0.0073697,11,2.28714e-05,-3.81049,-0.154964,-0.380734,-2.2961,0.147838,
2,1,0,1,0,2971.65,0.149619,0.149322,0.151048,3,0.00763096,11,2.25549e-05,-3.82088,-0.100428,-0.587486,-3.45876,0.149322,
2,1,0,1,0,2973.15,0.151117,0.150784,0.145891,3,0.00788434,11,2.19981e-05,-3.83597,-0.0896884,-0.657833,-3.70969,0.1507837,
2,1,0,1,0,2974.65,0.152615,0.152348,0.13814,3,0.00812903,11,2.10453e-05,-3.85968,-0.0750024,-0.786642,-4.25667,0.152348,
2,1,0,1,0,2976.15,0.154113,0.153774,0.133184,3,0.0083638,11,2.04802e-05,-3.87555,-0.0676017,-0.872759,-4.50922,0.153774,
2,1,0,1,0,2977.65,0.155611,0.155287,0.127079,3,0.00858944,11,1.97337e-05,-3.89593,-0.0648614,-0.909632,-4.46274,0.155287,
2,1,0,1,0,2979.14,0.15711,0.156798,0.119028,3,0.00880444,11,1.86633e-05,-3.92435,-0.056031,-1.05299,-4.88468,0.156798,
2,1,0,1,0,2980.64,0.158608,0.158324,0.111628,3,0.00900879,11,1.76735e-05,-3.95223,-0.0582198,-1.0134,-4.44584,0.158324,
2,1,0,1,0,2982.14,0.160106,0.15981,0.105094,3,0.00920189,11,1.67951e-05,-3.97842,-0.0555968,-1.06121,-4.39252,0.15981,
2,1,0,1,0,2983.64,0.161604,0.161313,0.0989494,3,0.00938618,11,1.59618e-05,-4.00459,-0.0584218,-1.0099,-3.92474,0.161313,
2,1,0,1,0,2985.14,0.163102,0.162783,0.0938482,3,0.0095611,11,1.52769e-05,-4.02757,-0.0569875,-1.03531,-3.79324,0.162783,
2,1,0,1,0,2986.63,0.164601,0.164341,0.088474,3,0.00972776,11,1.45399e-05,-4.05318,-0.0612438,-0.963363,-3.31061,0.164341,
2,1,0,1,0,2988.13,0.166099,0.16578,0.0835479,3,0.00988629,11,1.38506e-05,-4.07806,-0.0637502,-0.925487,-3.02247,0.16578,
2,1,0,1,0,2989.63,0.167597,0.167296,0.0793374,3,0.0100387,11,1.32729e-05,-4.10052,-0.0709884,-0.831122,-2.58016,0.167296,
2,1,0,1,0,2991.13,0.169095,0.168816,0.074767,3,0.0101853,11,1.26219e-05,-4.12629,-0.0777962,-0.758391,-2.24946,0.168816,
2,1,0,1,0,2992.63,0.170593,0.170295,0.071916,3,0.010326,11,1.22469e-05,-4.14317,-0.0786999,-0.749683,-2.12986,0.170295,
2,1,0,1,0,2994.13,0.172091,0.171805,0.0688305,3,0.0104616,11,1.18254e-05,-4.16222,-0.086763,-0.680014,-1.83613,0.171805,
2,1,0,1,0,2995.62,0.17359,0.17326,0.0664825,3,0.0105934,11,1.15188e-05,-4.17729,-0.0972313,-0.6068,-1.56683,0.17326,
2,1,0,1,0,2997.12,0.175088,0.174824,0.0641142,3,0.0107212,11,1.12087e-05,-4.19305,-0.109592,-0.538359,-1.35241,0.174824,
2,1,0,1,0,2998.62,0.176586,0.176307,0.0621062,3,0.0108456,11,1.09497e-05,-4.20686,-0.101624,-0.580573,-1.41639,0.176307,
2,1,0,1,0,3000.12,0.178084,0.177787,0.0589041,3,0.0109668,11,1.04724e-05,-4.22985,-0.118864,-0.496368,-1.1614,0.177787,
2,1,0,1,0,3001.62,0.179582,0.179292,0.0582105,3,0.0110853,11,1.04367e-05,-4.235,-0.13702,-0.430593,-0.983284,0.179292,
2,1,0,1,0,3003.11,0.181081,0.180802,0.0570405,3,0.0112016,11,1.0313e-05,-4.24382,-0.155556,-0.379284,-0.852157,0.180802,
2,1,0,1,0,3004.61,0.182579,0.182282,0.0554409,3,0.011316,11,1.01059e-05,-4.25617,-0.155361,-0.379762,-0.828874,0.182282,
2,1,0,1,0,3006.11,0.184077,0.183816,0.0546796,3,0.0114282,11,1.0051e-05,-4.26217,-0.143186,-0.41205,-0.881584,0.183816,
2,1,0,1,0,3007.61,0.185575,0.185264,0.0536578,3,0.0115383,11,9.94084e-06,-4.27037,-0.209301,-0.281891,-0.590358,0.185264,
2,1,0,1,0,3009.11,0.187073,0.186811,0.0524735,3,0.0116472,11,9.80264e-06,-4.28006,-0.262326,-0.224911,-0.457998,0.186811,
2,1,0,1,0,3010.61,0.188572,0.188301,0.0519607,3,0.0117547,11,9.78424e-06,-4.28433,-0.191474,-0.308135,-0.622247,0.188301,
2,1,0,1,0,3012.1,0.19007,0.1898,0.0510428,3,0.0118607,11,9.68794e-06,-4.29207,-0.265638,-0.222107,-0.438193,0.1898,
2,1,0,1,0,3013.6,0.191568,0.19126,0.0498864,3,0.0119652,11,9.5413e-06,-4.30202,-0.252526,-0.233639,-0.458463,0.19126,
2,1,0,1,0,3015.1,0.193066,0.192732,0.0495017,3,0.012069,11,9.54058e-06,-4.30538,-0.28966,-0.203687,-0.392187,0.192732,
2,1,0,1,0,3016.6,0.194564,0.194261,0.0487995,3,0.012172,11,9.47986e-06,-4.31158,-0.476891,-0.123718,-0.235207,0.194261,
2,1,0,1,0,3018.1,0.196063,0.195783,0.048289,3,0.012274,11,9.45417e-06,-4.31615,-0.279764,-0.210892,-0.403107,0.195783,
2,1,0,1,0,3019.59,0.197561,0.197237,0.0480439,3,0.0123751,11,9.47602e-06,-4.31836,-0.547833,-0.107697,-0.20318,0.1972369,
2,1,0,1,0,3021.09,0.199059,0.19874,0.048085,3,0.0124757,11,9.55643e-06,-4.31799,-1.2674,-0.0465519,-0.0871218,0.1987405,
2,1,0,1,0,3022.59,0.200557,0.200225,0.0475081,3,0.0125758,11,9.51232e-06,-4.32323,-0.533965,-0.110494,-0.20452,0.200225,
2,1,0,1,0,3024.09,0.202055,0.201783,0.0473833,3,0.0126754,11,9.56114e-06,-4.32437,-0.566754,-0.104102,-0.191958,0.201783,
2,1,0,1,0,3025.59,0.203554,0.203217,0.0464758,3,0.0127742,11,9.44466e-06,-4.33277,-0.374486,-0.157549,-0.288753,0.203217,
2,1,0,1,0,3027.09,0.205052,0.204736,0.046101,3,0.0128726,11,9.43853e-06,-4.33629,-1.30202,-0.0453141,-0.0823008,0.204736,
2,1,0,1,0,3028.58,0.20655,0.206253,0.0459407,3,0.0129706,11,9.47542e-06,-4.3378,-1.35582,-0.043516,-0.0788943,0.206253,
2,1,0,1,0,3030.08,0.208048,0.207781,0.046344,3,0.0130688,11,9.62943e-06,-4.33401,-1.48282,-0.0397892,-0.0715171,0.207781,
2,1,0,1,0,3031.58,0.209546,0.209247,0.045952,3,0.0131662,11,9.61532e-06,-4.3377,-0.760762,-0.0775538,-0.140232,0.209247,
2,1,0,1,0,3033.08,0.211044,0.210777,0.0461486,3,0.013263,11,9.72707e-06,-4.33584,-1.45521,-0.0405439,-0.072829,0.210777,
2,1,0,1,0,3034.58,0.212543,0.212292,0.0458323,3,0.0133599,11,9.72985e-06,-4.33883,-1.39032,-0.0424364,-0.0756588,0.212292,
2,1,0,1,0,3036.07,0.214041,0.213771,0.0457044,3,0.0134567,11,9.77026e-06,-4.34004,0.977093,0.0603832,0.108104,0.2137707,
2,1,0,1,0,3037.57,0.215539,0.215231,0.0459552,3,0.0135534,11,9.89099e-06,-4.33767,-16.5429,-0.00356647,-0.00637186,0.215231,
2,1,0,1,0,3039.07,0.217037,0.216714,0.045586,3,0.0136497,11,9.87914e-06,-4.34117,-3.80383,-0.0155107,-0.0276005,0.216714,
2,1,0,1,0,3040.57,0.218535,0.218265,0.0456011,3,0.013746,11,9.95311e-06,-4.34102,1.50076,0.0393133,0.0701687,0.218265,
2,1,0,1,0,3042.07,0.220034,0.219754,0.04603,3,0.0138424,11,1.01152e-05,-4.33696,0.817559,0.0721661,0.129399,0.219754,
2,1,0,1,0,3043.57,0.221532,0.221277,0.0454887,3,0.0139387,11,1.00656e-05,-4.3421,-0.943341,-0.0625436,-0.1116,0.221277,
2,1,0,1,0,3045.06,0.22303,0.222779,0.0453221,3,0.0140347,11,1.00968e-05,-4.34369,-0.794497,-0.0742608,-0.133105,0.222779,
2,1,0,1,0,3046.56,0.224528,0.224256,0.0454042,3,0.0141307,11,1.01822e-05,-4.3429,2.43677,0.0242124,0.0429991,0.224256,
2,1,0,1,0,3048.06,0.226026,0.225734,0.0457392,3,0.0142268,11,1.03249e-05,-4.33971,0.711075,0.082973,0.147896,0.225734,
2,1,0,1,0,3049.56,0.227525,0.227241,0.0459138,3,0.014323,11,1.04335e-05,-4.33806,2.26402,0.0260599,0.0464689,0.2272411,
2,1,0,1,0,3051.06,0.229023,0.228728,0.0456541,3,0.0144193,11,1.04424e-05,-4.34052,1.01801,0.0579564,0.104262,0.228728,
2,1,0,1,0,3052.55,0.230521,0.230245,0.0457417,3,0.0145154,11,1.05318e-05,-4.33969,-0.786566,-0.0750096,-0.134226,0.230245,
2,1,0,1,0,3054.05,0.232019,0.231731,0.0459316,3,0.0146117,11,1.06438e-05,-4.33789,0.73042,0.0807755,0.144532,0.231731,
2,1,0,1,0,3055.55,0.233517,0.233203,0.0456819,3,0.0147081,11,1.06532e-05,-4.34026,-6.48356,-0.00909993,-0.016239,0.233203,
2,1,0,1,0,3057.05,0.235016,0.234711,0.0461412,3,0.0148045,11,1.08298e-05,-4.33591,2.18457,0.0270076,0.0485907,0.234711,
2,1,0,1,0,3058.55,0.236514,0.236213,0.0459953,3,0.0149008,11,1.08647e-05,-4.33729,8.26817,0.0071358,0.0128805,0.236213,
2,1,0,1,0,3060.05,0.238012,0.237727,0.0460873,3,0.0149974,11,1.09562e-05,-4.33642,0.927116,0.0636382,0.115339,0.237727,
2,1,0,1,0,3061.54,0.23951,0.239208,0.0459174,3,0.0150942,11,1.09838e-05,-4.33802,8.29281,0.0071146,0.012894,0.2392077,
2,1,0,1,0,3063.04,0.241008,0.240691,0.0463764,3,0.0151911,11,1.11624e-05,-4.3337,1.36478,0.0432304,0.0782021,0.240691,
2,1,0,1,0,3064.54,0.242506,0.242231,0.0467242,3,0.0152879,11,1.1318e-05,-4.33046,3.51197,0.0167997,0.0308908,0.242231,
2,1,0,1,0,3066.04,0.244005,0.243719,0.0467856,3,0.015385,11,1.14025e-05,-4.32989,0.568487,0.103784,0.186764,0.243719,
2,1,0,1,0,3067.54,0.245503,0.245238,0.0469285,3,0.0154825,11,1.15087e-05,-4.32856,0.773122,0.076314,0.139303,0.245238,
2,1,0,1,0,3069.03,0.247001,0.246707,0.0472011,3,0.01558,11,1.16448e-05,-4.32605,0.612675,0.0962991,0.176352,0.246707,
2,1,0,1,0,3070.53,0.248499,0.248224,0.0469952,3,0.0156776,11,1.16654e-05,-4.32795,0.828819,0.0711856,0.129733,0.248224,
2,1,0,1,0,3072.03,0.249997,0.249671,0.0471609,3,0.0157752,11,1.17747e-05,-4.32642,1.70553,0.0345933,0.0637588,0.249671,
2,1,0,1,0,3073.53,0.251496,0.251204,0.0469643,3,0.0158731,11,1.17976e-05,-4.32823,1.05544,0.0559008,0.102737,0.251204,
2,1,0,1,0,3075.03,0.252994,0.252729,0.0472741,3,0.0159711,11,1.19475e-05,-4.32538,1.50941,0.039088,0.0721498,0.252729,
2,1,0,1,0,3076.53,0.254492,0.254195,0.0476072,3,0.0160692,11,1.21015e-05,-4.32233,-1.22663,-0.0480992,-0.0884978,0.254195,
2,1,0,1,0,3078.02,0.25599,0.255679,0.0469907,3,0.0161673,11,1.20145e-05,-4.32799,0.666471,0.088526,0.165021,0.255679,
2,1,0,1,0,3079.52,0.257488,0.25721,0.0477004,3,0.0162658,11,1.2269e-05,-4.32148,0.587111,0.100492,0.187962,0.2572104,
2,1,0,1,0,3081.02,0.258987,0.258725,0.0478399,3,0.0163646,11,1.23774e-05,-4.32021,2.0721,0.0284735,0.0530525,0.2587246,
2,1,0,1,0,3082.52,0.260485,0.260237,0.048137,3,0.0164635,11,1.2527e-05,-4.31752,-2.75432,-0.0214209,-0.0399649,0.260237,
2,1,0,1,0,3084.02,0.261983,0.261711,0.0481139,3,0.0165623,11,1.25919e-05,-4.31773,0.992947,0.0594191,0.11096,0.2617107,
2,1,0,1,0,3085.51,0.263481,0.263241,0.0482225,3,0.0166615,11,1.26941e-05,-4.31675,0.772285,0.0763967,0.143013,0.263241,
2,1,0,1,0,3087.01,0.264979,0.264667,0.0483455,3,0.0167609,11,1.27955e-05,-4.31564,-3.43836,-0.0171593,-0.0324756,0.264667,
2,1,0,1,0,3088.51,0.266477,0.266193,0.0488401,3,0.0168604,11,1.30009e-05,-4.31122,329.097,0.000179279,0.000338949,0.266193,
2,1,0,1,0,3090.01,0.267976,0.267661,0.0479702,3,0.0169598,11,1.28397e-05,-4.31903,1.56492,0.0377016,0.0712775,0.267661,
2,1,0,1,0,3091.51,0.269474,0.269211,0.0488098,3,0.0170597,11,1.31401e-05,-4.31149,0.990915,0.0595409,0.113373,0.269211,
2,1,0,1,0,3093.01,0.270972,0.270695,0.0492475,3,0.0171598,11,1.33311e-05,-4.30762,0.782338,0.075415,0.144185,0.270695,
2,1,0,1,0,3094.5,0.27247,0.272195,0.0490477,3,0.0172601,11,1.33505e-05,-4.30938,2.06785,0.028532,0.0546157,0.2721948,
2,1,0,1,0,3096,0.273968,0.27367,0.0487557,3,0.0173605,11,1.3343e-05,-4.31197,1.42735,0.0413354,0.0791096,0.27367,
2,1,0,1,0,3097.5,0.275467,0.275194,0.0492123,3,0.017461,11,1.35429e-05,-4.30793,0.580372,0.101659,0.195686,0.275194,
2,1,0,1,0,3099,0.276965,0.276654,0.049604,3,0.0175619,11,1.37231e-05,-4.30448,0.567455,0.103973,0.200611,0.276654,
2,1,0,1,0,3100.5,0.278463,0.278139,0.0496079,3,0.017663,11,1.37979e-05,-4.30445,0.906845,0.0650607,0.125636,0.278139,
2,1,0,1,0,3102,0.279961,0.279676,0.0497079,3,0.0177642,11,1.39021e-05,-4.30357,0.915955,0.0644137,0.123863,0.279676,
2,1,0,1,0,3103.49,0.281459,0.281148,0.0503325,3,0.0178653,11,1.41509e-05,-4.29815,0.992773,0.0594295,0.116454,0.281148,
2,1,0,1,0,3104.99,0.282958,0.282687,0.0500821,3,0.0179668,11,1.41575e-05,-4.30032,1.11847,0.0527508,0.103561,0.282687,
2,1,0,1,0,3106.49,0.284456,0.284178,0.0502763,3,0.0180687,11,1.42874e-05,-4.29864,4.05697,0.0145429,0.0284071,0.284178,
2,1,0,1,0,3107.99,0.285954,0.285671,0.0504313,3,0.0181705,11,1.44067e-05,-4.2973,2.30956,0.025546,0.0502314,0.285671,
2,1,0,1,0,3109.49,0.287452,0.287151,0.0501429,3,0.0182724,11,1.43986e-05,-4.29979,0.503552,0.117168,0.230125,0.287151,
2,1,0,1,0,3110.98,0.28895,0.288642,0.0509293,3,0.0183748,11,1.47003e-05,-4.29303,0.477213,0.123634,0.244845,0.2886419,
2,1,0,1,0,3112.48,0.290448,0.290172,0.0505285,3,0.0184772,11,1.4662e-05,-4.29646,-11.9462,-0.0049388,-0.00979084,0.290172,
2,1,0,1,0,3113.98,0.291947,0.291701,0.0512117,3,0.01858,11,1.49385e-05,-4.29063,-4.36014,-0.0135317,-0.0270535,0.291701,
2,1,0,1,0,3115.48,0.293445,0.293143,0.0508849,3,0.0186826,11,1.49166e-05,-4.29341,1.93991,0.0304138,0.0605935,0.293143,
2,1,0,1,0,3116.98,0.294943,0.294648,0.0512462,3,0.0187857,11,1.50996e-05,-4.29034,4.21538,0.0139963,0.027931,0.2946479,
2,1,0,1,0,3118.48,0.296441,0.296194,0.0515611,3,0.0188889,11,1.52721e-05,-4.28768,-11.6685,-0.00505635,-0.0101351,0.296194,
2,1,0,1,0,3119.97,0.297939,0.297645,0.0520877,3,0.0189923,11,1.55036e-05,-4.28326,-7.21369,-0.00817889,-0.0165529,0.297645,
2,1,0,1,0,3121.47,0.299438,0.299137,0.0518481,3,0.0190958,11,1.55097e-05,-4.28527,-0.00635172,-9.28882,-13.6552,0.299137,
2,1,0,1,0,3122.32,0.299737,0.299452,0.0317192,3,0.0191397,11,9.49836e-06,-4.49868,0.00293678,20.09,26.3284,0.299452,
2,1,0,1,0,3123.82,0.298239,0.297977,0.0219811,3,0.019152,11,6.54985e-06,-4.65795,0.00765164,7.71076,9.47144,0.297977,
2,1,0,1,0,3125.32,0.296741,0.29649,0.0174847,3,0.0191551,11,5.18404e-06,-4.75734,0.0154966,3.80729,2.68322,0.29649,
2,1,0,1,0,3126.82,0.295243,0.294944,0.0144951,3,0.0191527,11,4.27523e-06,-4.83878,0.0199501,2.95737,1.71197,0.294944,
2,1,0,1,0,3128.31,0.293745,0.293442,0.011315,3,0.0191465,11,3.3203e-06,-4.94635,0.0187571,3.14548,1.46469,0.293442,
2,1,0,1,0,3129.81,0.292246,0.291967,0.0100113,3,0.0191372,11,2.92298e-06,-4.99951,0.0189558,3.1125,1.20972,0.291967,
2,1,0,1,0,3131.31,0.290748,0.290467,0.00765494,3,0.0191248,11,2.22351e-06,-5.11606,0.0173422,3.40211,1.12389,0.290467,
2,1,0,1,0,3132.81,0.28925,0.288976,0.00674671,3,0.0191097,11,1.94964e-06,-5.17091,0.0148771,3.96582,1.0168,0.288976,
2,1,0,1,0,3134.31,0.287752,0.287434,0.00562713,3,0.0190923,11,1.61743e-06,-5.24971,0.011162,5.28581,0.959764,0.287434,
2,1,0,1,0,3135.8,0.286254,0.285975,0.00413005,3,0.0190729,11,1.18109e-06,-5.38404,0.0121278,4.86485,0.744303,0.285975,
2,1,0,1,0,3137.3,0.284755,0.284493,0.00236748,3,0.0190513,11,6.73533e-07,-5.62571,0.00423581,13.9288,1.01638,0.284493,
2,1,0,1,0,3138.8,0.283257,0.282964,0.00149277,3,0.0190277,11,4.224e-07,-5.82601,0.00216049,27.3087,0.832442,0.282964,
2,1,0,1,0,3140.3,0.281759,0.281458,0.000263733,3,0.0190024,11,7.42297e-08,-6.57884,0.0141929,4.15702,0.75225,0.2814576,
2,1,0,1,0,3141.8,0.280261,0.279969,-0.000490882,3,0.0189756,11,-1.37431e-07,-6.30902,-0.0101594,-5.80742,0.811054,0.279969,
2,1,0,1,0,3143.3,0.278763,0.278446,-0.00203344,3,0.018947,11,-5.66203e-07,-5.69177,-0.00498461,-11.8364,0.67345,0.278446,
2,1,0,1,0,3144.79,0.277264,0.276957,-0.00304409,3,0.0189167,11,-8.43082e-07,-5.51654,-0.00737168,-8.0036,0.749921,0.276957,
2,0,0,1,0,3146.29,0.275766,0.275461,-0.00386729,3,0.018885,11,-1.06529e-06,-5.41259,-0.014449,-4.08332,0.56143,0.275461,
2,0,0,1,0,3147.79,0.274268,0.273962,-0.00458031,3,0.0188518,11,-1.25483e-06,-5.33911,-0.0177405,-3.32573,0.613967,0.2739616,
2,0,0,1,0,3149.29,0.27277,0.272486,-0.00596361,3,0.0188174,11,-1.625e-06,-5.22449,-0.0220235,-2.67896,0.601552,0.272486,
2,0,0,1,0,3150.79,0.271272,0.27096,-0.0065882,3,0.0187815,11,-1.78513e-06,-5.18123,-0.0202029,-2.92038,0.73449,0.2709595,
2,0,0,1,0,3152.28,0.269774,0.269472,-0.00757443,3,0.0187442,11,-2.0411e-06,-5.12065,-0.0266769,-2.21165,0.638181,0.269472,
2,0,0,1,0,3153.78,0.268275,0.267983,-0.00826218,3,0.0187056,11,-2.21412e-06,-5.08291,-0.0453645,-1.30058,0.421053,0.267983,
2,1,0,1,0,3155.28,0.266777,0.266507,-0.0090824,3,0.018666,11,-2.42052e-06,-5.0418,-0.0412696,-1.42962,0.504055,0.266507,
2,1,0,1,0,3156.78,0.265279,0.264998,-0.00964483,3,0.0186249,11,-2.55586e-06,-5.01571,-0.0382586,-1.54214,0.596437,0.2649979,
2,0,0,1,0,3158.28,0.263781,0.263499,-0.010572,3,0.0185826,11,-2.78571e-06,-4.97584,-0.0412374,-1.43074,0.589638,0.2634995,
2,0,0,1,0,3159.78,0.262283,0.261996,-0.0112909,3,0.0185392,11,-2.95817e-06,-4.94727,-0.0442644,-1.3329,0.571033,0.261996,
2,0,0,1,0,3161.27,0.260784,0.260508,-0.0118013,3,0.0184948,11,-3.07435e-06,-4.92807,-0.0807525,-0.730628,0.347502,0.260508,
2,0,0,1,0,3162.77,0.259286,0.259035,-0.0127767,3,0.018449,11,-3.3096e-06,-4.89358,-0.0700485,-0.842273,0.425893,0.259035,
2,0,0,1,0,3164.27,0.257788,0.257515,-0.0138528,3,0.018402,11,-3.56731e-06,-4.85846,-0.08282,-0.712388,0.370889,0.2575146,
2,0,0,1,0,3165.77,0.25629,0.255957,-0.0138413,3,0.0183538,11,-3.54276e-06,-4.85882,-0.0964713,-0.611581,0.339184,0.2559568,
2,0,0,1,0,3167.27,0.254792,0.254487,-0.0149099,3,0.0183048,11,-3.79437e-06,-4.82653,-0.0620723,-0.950504,0.560824,0.254487,
2,0,0,1,0,3168.76,0.253293,0.253013,-0.0160521,3,0.0182547,11,-4.06139e-06,-4.79447,-0.113219,-0.521114,0.32405,0.253013,
2,0,0,1,0,3170.26,0.251795,0.251525,-0.0165184,3,0.0182033,11,-4.15479e-06,-4.78203,-0.0727733,-0.810737,0.522023,0.251525,
2,0,0,1,0,3171.76,0.250297,0.250008,-0.0168827,3,0.0181509,11,-4.2208e-06,-4.77256,-0.0907161,-0.650381,0.436534,0.250008,
2,0,0,1,0,3173.26,0.248799,0.248541,-0.0173092,3,0.0180975,11,-4.30206e-06,-4.76172,-0.0955072,-0.617754,0.431887,0.248541,
2,0,0,1,0,3174.76,0.247301,0.246982,-0.0187275,3,0.0180432,11,-4.62535e-06,-4.72752,-0.0973531,-0.606041,0.435916,0.246982,
2,0,0,1,0,3176.26,0.245802,0.24554,-0.0192468,3,0.0179877,11,-4.72587e-06,-4.71564,-0.108346,-0.544553,0.405705,0.2455405,
2,0,0,1,0,3177.75,0.244304,0.244046,-0.0197245,3,0.0179309,11,-4.81368e-06,-4.70499,-0.114866,-0.513643,0.394102,0.244046,
2,0,0,1,0,3179.25,0.242806,0.242499,-0.0204472,3,0.0178733,11,-4.95843e-06,-4.68937,-0.0920709,-0.640811,0.506393,0.242499,
2,0,0,1,0,3180.75,0.241308,0.241055,-0.0208614,3,0.0178149,11,-5.02875e-06,-4.68066,-0.118549,-0.497686,0.402631,0.241055,
2,0,0,1,0,3182.25,0.23981,0.239475,-0.0218655,3,0.0177551,11,-5.23625e-06,-4.66024,-0.0993094,-0.594103,0.501664,0.239475,
2,0,0,1,0,3183.75,0.238312,0.238008,-0.0224819,3,0.0176944,11,-5.35089e-06,-4.64817,-0.181615,-0.324863,0.284371,0.238008,
2,0,0,1,0,3185.25,0.236813,0.236525,-0.0229703,3,0.0176326,11,-5.43305e-06,-4.63883,-0.229669,-0.256891,0.228631,0.236525,
2,0,0,1,0,3186.74,0.235315,0.235003,-0.0230316,3,0.0175701,11,-5.4125e-06,-4.63768,-0.154446,-0.382011,0.35934,0.235003,
2,0,0,1,0,3188.24,0.233817,0.233492,-0.023937,3,0.0175064,11,-5.58911e-06,-4.62093,-0.129693,-0.454919,0.440115,0.233492,
2,0,0,1,0,3189.74,0.232319,0.231983,-0.0250011,3,0.0174415,11,-5.79984e-06,-4.60204,-0.105037,-0.561709,0.548396,0.231983,
2,0,0,1,0,3191.24,0.230821,0.230536,-0.0259944,3,0.0173756,11,-5.99263e-06,-4.58512,-0.172945,-0.341148,0.340751,0.230536,
2,0,0,1,0,3192.74,0.229322,0.229071,-0.0262481,3,0.0173088,11,-6.01269e-06,-4.5809,-0.130028,-0.45375,0.468655,0.229071,
2,0,0,1,0,3194.23,0.227824,0.227506,-0.026883,3,0.017241,11,-6.11606e-06,-4.57052,-0.153012,-0.38559,0.409988,0.227506,
2,0,0,1,0,3195.73,0.226326,0.226064,-0.0274229,3,0.0171721,11,-6.19933e-06,-4.56189,-0.13586,-0.43427,0.468191,0.226064,
2,0,0,1,0,3197.23,0.224828,0.224525,-0.0284228,3,0.017102,11,-6.38164e-06,-4.54633,-0.226255,-0.260768,0.285319,0.224525,
2,0,0,1,0,3198.73,0.22333,0.223039,-0.0289507,3,0.0170308,11,-6.45712e-06,-4.53834,-0.176349,-0.334564,0.374879,0.223039,
2,0,0,1,0,3200.23,0.221831,0.221587,-0.0296089,3,0.0169588,11,-6.56095e-06,-4.52858,-0.14448,-0.408361,0.478617,0.221587,
2,0,0,1,0,3201.73,0.220333,0.220041,-0.0309547,3,0.0168855,11,-6.8113e-06,-4.50927,-0.11946,-0.493888,0.58506,0.220041,
2,0,0,1,0,3203.22,0.218835,0.218555,-0.0313736,3,0.0168108,11,-6.85686e-06,-4.50344,-0.212579,-0.277544,0.339084,0.218555,
2,0,0,1,0,3204.72,0.217337,0.217015,-0.0319697,3,0.0167352,11,-6.9379e-06,-4.49526,-0.137322,-0.429647,0.535491,0.217015,
2,0,0,1,0,3206.22,0.215839,0.215544,-0.0327043,3,0.0166588,11,-7.04922e-06,-4.48539,-0.129013,-0.457317,0.584656,0.215544,
2,0,0,1,0,3207.72,0.21434,0.214067,-0.03371,3,0.0165809,11,-7.21618e-06,-4.47224,-0.13014,-0.453358,0.588854,0.214067,
2,0,0,1,0,3209.22,0.212842,0.212549,-0.0344479,3,0.0165019,11,-7.32187e-06,-4.46284,-0.142623,-0.413678,0.553486,0.212549,
2,0,0,1,0,3210.71,0.211344,0.21106,-0.0351015,3,0.0164216,11,-7.40855e-06,-4.45467,-0.125063,-0.471763,0.644022,0.21106,
2,0,0,1,0,3212.21,0.209846,0.20955,-0.035827,3,0.0163402,11,-7.50756e-06,-4.44579,-0.155745,-0.378825,0.529341,0.20955,
2,0,0,1,0,3213.71,0.208348,0.208054,-0.0365008,3,0.0162575,11,-7.59415e-06,-4.4377,-0.159791,-0.369233,0.52386,0.208054,
2,0,0,1,0,3215.21,0.20685,0.206534,-0.038049,3,0.0161733,11,-7.8584e-06,-4.41966,-0.139658,-0.422462,0.616299,0.206534,
2,0,0,1,0,3216.71,0.205351,0.205017,-0.0384025,3,0.0160876,11,-7.87318e-06,-4.41564,-0.154781,-0.381184,0.57013,0.205017,
2,0,0,1,0,3218.21,0.203853,0.203531,-0.0383976,3,0.0160009,11,-7.81512e-06,-4.4157,-0.162721,-0.362585,0.553053,0.203531,
2,0,0,1,0,3219.7,0.202355,0.202074,-0.0400112,3,0.0159129,11,-8.08524e-06,-4.39782,-0.159659,-0.369538,0.583389,0.2020745,
2,0,0,1,0,3221.2,0.200857,0.20058,-0.0409064,3,0.0158234,11,-8.20501e-06,-4.38821,-0.14544,-0.405666,0.649635,0.20058,
2,0,0,1,0,3222.7,0.199359,0.199037,-0.0417823,3,0.0157322,11,-8.31625e-06,-4.37901,-0.200739,-0.293914,0.480245,0.199037,
2,0,0,1,0,3224.2,0.19786,0.197536,-0.0430485,3,0.0156396,11,-8.50362e-06,-4.36604,-0.138514,-0.425951,0.713725,0.197536,
2,0,0,1,0,3225.7,0.196362,0.196058,-0.0440479,3,0.0155455,11,-8.63594e-06,-4.35607,-0.152079,-0.387956,0.66694,0.196058,
2,0,0,1,0,3227.19,0.194864,0.194548,-0.0449713,3,0.0154495,11,-8.74906e-06,-4.34706,-0.143968,-0.409815,0.720081,0.194548,
2,0,0,1,0,3228.69,0.193366,0.193032,-0.0467539,3,0.0153515,11,-9.02502e-06,-4.33018,-0.175049,-0.337049,0.610198,0.193032,
2,0,0,1,0,3230.19,0.191868,0.191566,-0.0477145,3,0.0152518,11,-9.14046e-06,-4.32135,-0.159486,-0.369939,0.687219,0.191566,
2,0,0,1,0,3231.69,0.190369,0.190095,-0.0490949,3,0.0151506,11,-9.33269e-06,-4.30896,-0.143776,-0.410361,0.782929,0.190095,
2,0,0,1,0,3233.19,0.188871,0.188566,-0.0500777,3,0.015047,11,-9.44294e-06,-4.30036,-0.101255,-0.58269,1.1367,0.188566,
2,0,0,1,0,3234.69,0.187373,0.187082,-0.0513867,3,0.0149412,11,-9.61354e-06,-4.28915,-0.115205,-0.512129,1.03753,0.187082,
2,0,0,1,0,3236.18,0.185875,0.185595,-0.0528193,3,0.0148333,11,-9.80299e-06,-4.27721,-0.134163,-0.439763,0.907613,0.185595,
2,0,0,1,0,3237.68,0.184377,0.184075,-0.0541233,3,0.014723,11,-9.96276e-06,-4.26662,-0.110235,-0.535219,1.13485,0.1840751,
2,0,0,1,0,3239.18,0.182878,0.182543,-0.0564253,3,0.0146105,11,-1.03e-05,-4.24853,-0.112619,-0.52389,1.14414,0.182543,
2,0,0,1,0,3240.68,0.18138,0.181099,-0.0573895,3,0.0144948,11,-1.03932e-05,-4.24117,-0.115322,-0.511609,1.15082,0.181099,
2,0,0,1,0,3242.18,0.179882,0.179603,-0.0593409,3,0.0143764,11,-1.06578e-05,-4.22665,-0.112206,-0.525819,1.23166,0.179603,
2,0,0,1,0,3243.67,0.178384,0.178086,-0.061509,3,0.0142548,11,-1.09539e-05,-4.21106,-0.108977,-0.541399,1.30556,0.178086,
2,0,0,1,0,3245.17,0.176886,0.176572,-0.0642678,3,0.0141303,11,-1.13479e-05,-4.19201,-0.105374,-0.559908,1.41176,0.176572,
2,0,0,1,0,3246.67,0.175388,0.17508,-0.0665252,3,0.0140019,11,-1.16472e-05,-4.17701,-0.0861335,-0.684983,1.78564,0.17508,
2,0,0,1,0,3248.17,0.173889,0.173599,-0.0690808,3,0.0138696,11,-1.19924e-05,-4.16064,-0.0960783,-0.614083,1.65461,0.173599,
2,0,0,1,0,3249.67,0.172391,0.172119,-0.0726497,3,0.0137332,11,-1.25044e-05,-4.13877,-0.0816227,-0.722839,2.03683,0.172119,
2,0,0,1,0,3251.17,0.170893,0.170601,-0.0749105,3,0.0135925,11,-1.27798e-05,-4.12546,-0.080794,-0.730252,2.13663,0.170601,
2,0,0,1,0,3252.66,0.169395,0.169117,-0.0783791,3,0.0134465,11,-1.32552e-05,-4.1058,-0.0754589,-0.781882,2.39655,0.169117,
2,0,0,1,0,3254.16,0.167897,0.167639,-0.0823567,3,0.0132948,11,-1.38062e-05,-4.0843,-0.0710165,-0.830793,2.67504,0.167639,
2,0,0,1,0,3255.66,0.166398,0.166075,-0.0859378,3,0.0131375,11,-1.42721e-05,-4.06582,-0.0728458,-0.809931,2.73944,0.166075,
2,0,0,1,0,3257.16,0.1649,0.164615,-0.09104,3,0.0129741,11,-1.49865e-05,-4.04077,-0.0649966,-0.90774,3.24499,0.164615,
2,0,0,1,0,3258.66,0.163402,0.163082,-0.0955392,3,0.012803,11,-1.55807e-05,-4.01982,-0.0592286,-0.996141,3.73614,0.163082,
2,0,0,1,0,3260.15,0.161904,0.161613,-0.100939,3,0.0126241,11,-1.6313e-05,-3.99594,-0.0601084,-0.98156,3.88402,0.161613,
2,0,0,1,0,3261.65,0.160406,0.160126,-0.107293,3,0.0124363,11,-1.71804e-05,-3.96943,-0.0597531,-0.987396,4.12724,0.160126,
2,0,0,1,0,3263.15,0.158907,0.158602,-0.112021,3,0.0122397,11,-1.77668e-05,-3.9507,-0.059885,-0.985221,4.36605,0.158602,
2,0,0,1,0,3264.65,0.157409,0.157101,-0.120649,3,0.0120331,11,-1.89541e-05,-3.91848,-0.0595002,-0.991593,4.66634,0.1571005,
2,0,0,1,0,3266.15,0.155911,0.155593,-0.127863,3,0.0118155,11,-1.98945e-05,-3.89326,-0.0597986,-0.986646,4.91007,0.155593,
2,0,0,1,0,3267.65,0.154413,0.1541,-0.135133,3,0.0115865,11,-2.08239e-05,-3.86924,-0.0669455,-0.881314,4.636,0.1541,
2,0,0,1,0,3269.14,0.152915,0.152604,-0.141995,3,0.0113462,11,-2.16691e-05,-3.84773,-0.0620387,-0.95102,5.30668,0.152604,
2,0,0,1,0,3270.64,0.151417,0.151092,-0.150324,3,0.0110952,11,-2.27128e-05,-3.82297,-0.0706714,-0.83485,4.91118,0.151092,
2,0,0,1,0,3272.14,0.149918,0.149616,-0.15805,3,0.0108318,11,-2.36468e-05,-3.80121,-0.0704957,-0.83693,5.15036,0.149616,
2,0,0,1,0,3273.64,0.14842,0.148159,-0.165979,3,0.0105569,11,-2.45914e-05,-3.77995,-0.0792285,-0.744681,4.79185,0.148159,
2,0,0,1,0,3275.14,0.146922,0.146643,-0.172706,3,0.0102713,11,-2.53261e-05,-3.76269,-0.0858013,-0.687635,4.59766,0.146643,
2,0,0,1,0,3276.63,0.145424,0.145127,-0.178497,3,0.00997698,11,-2.59048e-05,-3.74837,-0.098956,-0.596224,4.13763,0.145127,
2,0,0,1,0,3278.13,0.143926,0.143668,-0.18489,3,0.00967253,11,-2.65628e-05,-3.73309,-0.10093,-0.584562,4.18056,0.143668,
2,0,0,1,0,3279.63,0.142427,0.142148,-0.18899,3,0.00935963,11,-2.68644e-05,-3.72356,-0.143004,-0.412576,3.04027,0.142148,
2,0,0,1,0,3281.13,0.140929,0.140667,-0.19369,3,0.00904027,11,-2.72459e-05,-3.71289,-0.201339,-0.293038,2.21436,0.140667,
2,0,0,1,0,3282.63,0.139431,0.139141,-0.195317,3,0.0087162,11,-2.71767e-05,-3.70926,-0.252793,-0.233392,1.7913,0.139141,
2,0,0,1,0,3284.13,0.137933,0.137624,-0.199736,3,0.00838755,11,-2.74885e-05,-3.69954,-0.313097,-0.18844,1.45955,0.137624,
2,0,0,1,0,3285.62,0.136435,0.136131,-0.201091,3,0.00805518,11,-2.73747e-05,-3.69661,-0.521848,-0.11306,0.882763,0.136131,
2,0,0,1,0,3287.12,0.134936,0.13459,-0.201752,3,0.00772078,11,-2.71538e-05,-3.69518,12.4458,0.00474057,-0.0371632,0.13459,
2,0,0,1,0,3288.62,0.133438,0.133126,-0.201458,3,0.00738612,11,-2.68192e-05,-3.69582,75.9585,0.00077674,-0.00611085,0.133126,
2,0,0,1,0,3290.12,0.13194,0.131683,-0.200488,3,0.00705265,11,-2.64008e-05,-3.69791,0.918501,0.0642351,-0.505159,0.1316825,
2,0,0,1,0,3291.62,0.130442,0.130153,-0.200022,3,0.00671945,11,-2.60335e-05,-3.69892,0.42755,0.137996,-1.07574,0.130153,
2,0,0,1,0,3293.11,0.128944,0.128608,-0.198068,3,0.00638866,11,-2.54733e-05,-3.70318,0.226936,0.259985,-2.0012,0.128608,
2,0,0,1,0,3294.61,0.127445,0.127117,-0.195857,3,0.00606126,11,-2.48969e-05,-3.70806,0.243039,0.24276,-1.85357,0.127117,
2,0,0,1,0,3296.11,0.125947,0.125643,-0.192874,3,0.00573939,11,-2.42332e-05,-3.71473,0.2046,0.288368,-2.16604,0.125643,
2,0,0,1,0,3297.61,0.124449,0.124127,-0.190395,3,0.00542078,11,-2.36332e-05,-3.72034,0.203232,0.290309,-2.13316,0.124127,
2,0,0,1,0,3299.11,0.122951,0.12265,-0.186402,3,0.0051073,11,-2.28622e-05,-3.72955,0.177931,0.33159,-2.39991,0.12265,
2,0,0,1,0,3300.61,0.121453,0.12116,-0.18222,3,0.0047993,11,-2.20779e-05,-3.7394,0.168267,0.350633,-2.49399,0.12116,
2,0,0,1,0,3302.1,0.119955,0.119667,-0.178223,3,0.00449784,11,-2.13274e-05,-3.74904,0.170822,0.345389,-2.41372,0.119667,
2,0,0,1,0,3303.6,0.118456,0.118158,-0.174331,3,0.00420155,11,-2.05986e-05,-3.75863,0.177461,0.332468,-2.26337,0.118158,
2,0,0,1,0,3305.1,0.116958,0.116685,-0.170522,3,0.00391029,11,-1.98975e-05,-3.76822,0.164292,0.359116,-2.39865,0.116685,
2,0,0,1,0,3306.6,0.11546,0.115181,-0.167103,3,0.00362517,11,-1.9247e-05,-3.77702,0.15321,0.385093,-2.52114,0.115181,
2,0,0,1,0,3308.1,0.113962,0.113692,-0.162557,3,0.00334591,11,-1.84814e-05,-3.78899,0.167418,0.352412,-2.25622,0.113692,
2,0,0,1,0,3309.59,0.112464,0.1122,-0.160984,3,0.00307168,11,-1.80624e-05,-3.79322,0.178572,0.330398,-2.07201,0.1122,
2,0,0,1,0,3311.09,0.110965,0.110672,-0.157822,3,0.00280179,11,-1.74665e-05,-3.80183,0.184588,0.319631,-1.96234,0.110672,
2,0,0,1,0,3312.59,0.109467,0.109185,-0.154918,3,0.00253633,11,-1.69147e-05,-3.8099,0.176075,0.335084,-2.02158,0.109185,
2,0,0,1,0,3314.09,0.107969,0.107682,-0.151523,3,0.00227537,11,-1.63164e-05,-3.81952,0.199813,0.295275,-1.75237,0.1076824,
2,0,0,1,0,3315.59,0.106471,0.106187,-0.149325,3,0.00201855,11,-1.58564e-05,-3.82587,0.249491,0.236481,-1.38444,0.106187,
2,0,0,1,0,3317.09,0.104973,0.104685,-0.146778,3,0.0017648,11,-1.53654e-05,-3.83334,0.240836,0.24498,-1.41441,0.104685,
2,0,0,1,0,3318.58,0.103474,0.103203,-0.145326,3,0.00151391,11,-1.49981e-05,-3.83766,0.224647,0.262634,-1.49178,0.103203,
2,0,0,1,0,3320.08,0.101976,0.101662,-0.143871,3,0.00126633,11,-1.46262e-05,-3.84203,0.313912,0.187951,-1.05062,0.1016624,
2,0,0,1,0,3321.58,0.100478,0.10014,-0.141653,3,0.00102201,11,-1.41851e-05,-3.84877,0.327452,0.180179,-0.996624,0.10014,
2,0,0,1,0,3323.08,0.0989798,0.0987462,-0.139979,3,0.000779647,11,-1.38224e-05,-3.85394,0.347568,0.169751,-0.925708,0.0987462,
2,0,0,1,0,3324.58,0.0974816,0.097161,-0.139352,3,0.000539523,11,-1.35395e-05,-3.85589,0.357498,0.165036,-0.896601,0.097161,
2,0,0,1,0,3326.08,0.0959834,0.0957188,-0.136992,3,0.000301845,11,-1.31127e-05,-3.8633,0.339371,0.173851,-0.934254,0.0957188,
2,0,0,1,0,3327.57,0.0944852,0.0941971,-0.135558,3,6.66655e-05,11,-1.27692e-05,-3.86787,0.324702,0.181705,-0.96434,0.0941971,
2,0,0,1,0,3329.07,0.0929871,0.0926946,-0.134775,3,-0.000167005,11,-1.2493e-05,-3.87039,0.416317,0.141719,-0.744698,0.09269461,
2,0,0,1,0,3330.57,0.0914889,0.0911962,-0.134303,3,-0.000399225,11,-1.22479e-05,-3.87191,0.452618,0.130353,-0.680484,0.0911962,
2,0,0,1,0,3332.07,0.0899907,0.089718,-0.132251,3,-0.000629076,11,-1.18653e-05,-3.8786,0.430806,0.136952,-0.707555,0.089718,
2,0,0,1,0,3333.57,0.0884925,0.0881412,-0.129872,3,-0.000856933,11,-1.1447e-05,-3.88649,0.349348,0.168886,-0.862765,0.0881412,
2,0,0,1,0,3335.06,0.0869943,0.0866492,-0.129684,3,-0.00108272,11,-1.1237e-05,-3.88711,0.39131,0.150775,-0.76093,0.0866492,
2,0,0,1,0,3336.56,0.0854961,0.0851763,-0.128242,3,-0.00130701,11,-1.09232e-05,-3.89197,0.366255,0.16109,-0.805847,0.0851763,
2,0,0,1,0,3338.06,0.083998,0.0836737,-0.126936,3,-0.00152922,11,-1.06212e-05,-3.89641,0.264275,0.223252,-1.1038,0.08367373,
2,0,0,1,0,3339.56,0.0824998,0.08222,-0.125211,3,-0.00174953,11,-1.02948e-05,-3.90236,0.327047,0.180402,-0.887575,0.08222,
2,0,0,1,0,3341.06,0.0810016,0.0806983,-0.12387,3,-0.00196741,11,-9.99613e-06,-3.90703,0.343266,0.171878,-0.838477,0.0806983,
2,0,0,1,0,3342.56,0.0795034,0.0792041,-0.123405,3,-0.00218371,11,-9.77421e-06,-3.90867,0.355161,0.166122,-0.800167,0.0792041,
2,0,0,1,0,3344.05,0.0780052,0.0777238,-0.122022,3,-0.00239826,11,-9.48398e-06,-3.91356,0.457732,0.128896,-0.612295,0.0777238,
2,0,0,1,0,3345.55,0.076507,0.0761597,-0.121275,3,-0.00261059,11,-9.23629e-06,-3.91623,0.328908,0.179381,-0.845282,0.0761597,
2,0,0,1,0,3347.05,0.0750088,0.074691,-0.119629,3,-0.00282034,11,-8.93521e-06,-3.92216,0.310496,0.190019,-0.884967,0.07469099,
2,0,0,1,0,3348.55,0.0735106,0.073251,-0.118599,3,-0.00302857,11,-8.6875e-06,-3.92592,0.306451,0.192527,-0.884836,0.073251,
2,0,0,1,0,3350.05,0.0720124,0.071707,-0.117201,3,-0.00323495,11,-8.40414e-06,-3.93107,0.389273,0.151565,-0.69244,0.07170701,
2,0,0,1,0,3351.54,0.0705142,0.0702447,-0.115138,3,-0.00343906,11,-8.08786e-06,-3.93878,0.301708,0.195553,-0.880542,0.0702447,
2,0,0,1,0,3353.04,0.069016,0.0687411,-0.11448,3,-0.00364077,11,-7.86949e-06,-3.94127,0.45116,0.130774,-0.582209,0.0687411,
2,0,0,1,0,3354.54,0.0675178,0.0672183,-0.112357,3,-0.00384099,11,-7.55242e-06,-3.9494,0.425867,0.138541,-0.609213,0.0672183,
2,0,0,1,0,3356.04,0.0660196,0.0657464,-0.112096,3,-0.00403939,11,-7.36993e-06,-3.95041,0.37362,0.157914,-0.688436,0.0657464,
2,0,0,1,0,3357.54,0.0645214,0.0642289,-0.110959,3,-0.00423608,11,-7.12679e-06,-3.95484,0.447987,0.1317,-0.567487,0.0642289,
2,0,0,1,0,3359.04,0.0630233,0.0627265,-0.109159,3,-0.00443055,11,-6.84713e-06,-3.96194,0.32532,0.18136,-0.771756,0.0627265,
2,0,0,1,0,3360.53,0.0615251,0.0612302,-0.107959,3,-0.00462329,11,-6.61036e-06,-3.96674,0.336296,0.175441,-0.737073,0.0612302,
2,0,0,1,0,3362.03,0.0600269,0.0596852,-0.106651,3,-0.00481454,11,-6.36548e-06,-3.97204,0.458916,0.128564,-0.537867,0.0596852,
2,0,0,1,0,3363.53,0.0585287,0.0582176,-0.105699,3,-0.00500418,11,-6.15353e-06,-3.97593,0.278222,0.212061,-0.877867,0.0582176,
2,0,0,1,0,3365.03,0.0570305,0.0567097,-0.105051,3,-0.00519242,11,-5.95741e-06,-3.9786,0.372664,0.158319,-0.651268,0.0567097,
2,0,0,1,0,3366.53,0.0555323,0.055241,-0.104013,3,-0.00537881,11,-5.74581e-06,-3.98291,0.567816,0.103907,-0.423621,0.055241,
2,0,0,1,0,3368.02,0.0540342,0.0537427,-0.103507,3,-0.0055642,11,-5.56277e-06,-3.98503,0.503894,0.117088,-0.472242,0.0537427,
2,0,0,1,0,3369.52,0.052536,0.0522115,-0.10313,3,-0.00574896,11,-5.38455e-06,-3.98662,0.69438,0.0849679,-0.339865,0.0522115,
2,0,0,1,0,3371.02,0.0510378,0.0507227,-0.102413,3,-0.00593235,11,-5.19467e-06,-3.98964,0.459555,0.128385,-0.510061,0.0507227,
2,0,0,1,0,3372.52,0.0495396,0.0492328,-0.101595,3,-0.00611441,11,-5.00179e-06,-3.99313,1.20185,0.0490911,-0.193876,0.0492328,
2,0,0,1,0,3374.02,0.0480414,0.0477377,-0.101257,3,-0.00629596,11,-4.83379e-06,-3.99457,0.953449,0.0618806,-0.243894,0.0477377,
2,0,0,1,0,3375.52,0.0465432,0.0462467,-0.100875,3,-0.00647676,11,-4.66513e-06,-3.99622,0.815697,0.0723308,-0.284344,0.0462467,
2,0,0,1,0,3377.01,0.045045,0.0447844,-0.100019,3,-0.00665702,11,-4.47928e-06,-3.99992,2.45875,0.0239959,-0.0939104,0.0447844,
2,0,0,1,0,3378.51,0.0435468,0.0432606,-0.0994905,3,-0.00683636,11,-4.30402e-06,-4.00222,1.76176,0.0334892,-0.130678,0.0432606,
2,0,0,1,0,3380.01,0.0420486,0.0417569,-0.0997833,3,-0.00701555,11,-4.16664e-06,-4.00094,1.29529,0.0455496,-0.176656,0.0417569,
2,0,0,1,0,3381.51,0.0405504,0.0402734,-0.0996905,3,-0.00719459,11,-4.01487e-06,-4.00135,0.918717,0.06422,-0.250628,0.0402734,
2,0,0,1,0,3383.01,0.0390522,0.0387421,-0.0989766,3,-0.00737344,11,-3.83457e-06,-4.00447,1.21669,0.0484924,-0.1879,0.03874214,
2,0,0,1,0,3384.5,0.037554,0.0372236,-0.0992833,3,-0.00755185,11,-3.69569e-06,-4.00312,-6.96267,-0.00847376,0.0329012,0.0372236,
2,0,0,1,0,3386,0.0360558,0.0357719,-0.0988209,3,-0.00772999,11,-3.53501e-06,-4.00515,4.08643,0.014438,-0.056104,0.0357719,
2,0,0,1,0,3387.5,0.0345576,0.0342672,-0.0990806,3,-0.00790831,11,-3.39522e-06,-4.00401,-3.62248,-0.0162872,0.0631795,0.0342672,
2,0,0,1,0,3389,0.0330594,0.0327444,-0.0991985,3,-0.00808695,11,-3.2482e-06,-4.00349,-31.3413,-0.0018825,0.00726688,0.0327444,
2,0,0,1,0,3390.5,0.0315613,0.0312313,-0.0993811,3,-0.00826566,11,-3.10381e-06,-4.0027,-3.82114,-0.0154404,0.0599114,0.03123134,
2,0,0,1,0,3392,0.0300631,0.0297669,-0.0995729,3,-0.00844407,11,-2.96398e-06,-4.00186,17.3752,0.00339565,-0.0131678,0.0297669,
2,0,0,1,0,3393.49,0.0285649,0.028277,-0.10066,3,-0.00862326,11,-2.84635e-06,-3.99714,-1.74135,-0.0338817,0.131823,0.028277,
2,0,0,1,0,3394.99,0.0270667,0.0267617,-0.100172,3,-0.00880296,11,-2.68078e-06,-3.99925,-0.830045,-0.0710805,0.277278,0.0267617,
2,0,0,1,0,3396.49,0.0255685,0.0252941,-0.100627,3,-0.00898289,11,-2.54526e-06,-3.99729,-0.807298,-0.0730833,0.286027,0.02529409,
2,0,0,1,0,3397.99,0.0240703,0.0238053,-0.100483,3,-0.00916296,11,-2.39202e-06,-3.99791,-1.23796,-0.0476591,0.187428,0.0238053,
2,0,0,1,0,3399.49,0.0225722,0.0223133,-0.101198,3,-0.00934377,11,-2.25806e-06,-3.99483,-0.611621,-0.096465,0.379717,0.0223133,
2,0,0,1,0,3400.98,0.021074,0.0207938,-0.101723,3,-0.00952548,11,-2.11521e-06,-3.99258,-0.912478,-0.0646591,0.256083,0.0207938,
2,0,0,1,0,3402.48,0.0195758,0.019269,-0.102094,3,-0.00970774,11,-1.96724e-06,-3.991,-2.10789,-0.02799,0.111332,0.019269,
2,0,0,1,0,3403.98,0.0180776,0.0177631,-0.102037,3,-0.0098906,11,-1.8125e-06,-3.99124,-0.543391,-0.108578,0.433492,0.0177631,
2,0,0,1,0,3405.48,0.0165794,0.016285,-0.102881,3,-0.0100741,11,-1.67542e-06,-3.98766,-0.697255,-0.0846175,0.340109,0.016285,
2,0,0,1,0,3406.98,0.0150812,0.014759,-0.104339,3,-0.0102588,11,-1.53994e-06,-3.98155,-0.418755,-0.140894,0.570585,0.014759,
2,0,0,1,0,3408.48,0.013583,0.0132394,-0.10426,3,-0.0104444,11,-1.38035e-06,-3.98188,-0.589279,-0.100122,0.406208,0.0132394,
2,0,0,1,0,3409.97,0.0120848,0.0117909,-0.104771,3,-0.0106307,11,-1.23534e-06,-3.97976,-0.39918,-0.147803,0.605914,0.0117909,
2,0,0,1,0,3411.47,0.0105866,0.0103042,-0.105509,3,-0.0108178,11,-1.08718e-06,-3.97671,-0.485172,-0.121606,0.500649,0.0103042,
2,0,0,1,0,3412.97,0.00908843,0.00879311,-0.106665,3,-0.0110064,11,-9.37919e-07,-3.97198,-0.708084,-0.0833235,0.346215,0.00879311,
2,0,0,1,0,3414.47,0.00759024,0.00732552,-0.106849,3,-0.0111961,11,-7.82728e-07,-3.97123,-0.705566,-0.0836209,0.349117,0.00732552,
2,0,0,1,0,3415.97,0.00609203,0.00576241,-0.10765,3,-0.0113868,11,-6.20322e-07,-3.96799,-0.429621,-0.13733,0.577372,0.005762409,
2,0,0,1,0,3417.46,0.00459384,0.00429692,-0.108928,3,-0.0115786,11,-4.68055e-07,-3.96286,-0.430849,-0.136939,0.579223,0.00429692,
2,0,0,1,0,3418.96,0.00309563,0.00280816,-0.109413,3,-0.011772,11,-3.07251e-07,-3.96093,-0.393271,-0.150024,0.643148,0.00280816,
2,0,0,1,0,3420.46,0.00159744,0.00123763,-0.111077,3,-0.0119695,11,-1.37471e-07,-3.95438, , , ,0.00123763,
2,0,0,1,0,3421.86,0.000199235,-0.000187815,-0.111491,3,-0.012153,11,2.09398e-08,-3.95276, , , ,-0.000187815,