File: Figure_codes/Fig_3-5/rawdata_trumpetplot_data/before 10th/20221101_1-115_002_TrumpetPlot_ParaChange_10_CV_C01_1.csv
mode,ox/red,error,control changes,counter inc.,time/s,control/V,Ewe/V,<I>/mA,cycle number,(Q-Qo)/C,I Range,P/W,log(|I|),Tafel slope mV/dec,alpha_eff,dI/d(E-IR),E-IR/V,
2,0,0,0,0,2426.02,2.44065e-05,0.00015186,-5.21505,2,0.0000000E+000,11,-7.91954e-07,-2.28274, , , ,0.00015186,
2,0,0,1,0,2426.03,0.0012943,0.000915011,-1.7923,2,-5.85756e-05,11,-1.63998e-06,-2.74659, , , ,0.000915011,
2,1,0,1,0,2426.05,0.00279784,0.00247233,0.960074,2,-6.35423e-05,11,2.37362e-06,-3.0177,-0.0352339,-1.67453,1394.84,0.00247233,
2,1,0,1,0,2426.07,0.00429425,0.00399762,2.2198,2,-3.2424e-05,11,8.87392e-06,-2.65369,0.00367366,16.0603,677.125,0.00399762,
2,1,0,1,0,2426.09,0.00579065,0.00550108,2.8237,2,1.54244e-05,11,1.55334e-05,-2.54918,0.0171953,3.43118,333.747,0.00550108,
2,1,0,1,0,2426.11,0.0072942,0.00700216,3.15325,2,7.18758e-05,11,2.20795e-05,-2.50124,0.0388573,1.51838,177.829,0.00700216,
2,1,0,1,0,2426.13,0.00878347,0.008477,3.31824,2,0.000132245,11,2.81287e-05,-2.47909,0.0791158,0.745743,94.2867,0.008477,
2,1,0,1,0,2426.15,0.010287,0.0099958,3.40835,2,0.000195643,11,3.40692e-05,-2.46746,0.169725,0.34762,45.5881,0.0099958,
2,1,0,1,0,2426.17,0.0117905,0.0115115,3.44608,2,0.000260231,11,3.96697e-05,-2.46267,0.324378,0.181887,24.3563,0.01151154,
2,1,0,1,0,2426.18,0.013278,0.0129601,3.45546,2,0.000324501,11,4.47832e-05,-2.46149,0.438237,0.13463,18.2512,0.0129601,
2,1,0,1,0,2426.2,0.0147816,0.0144738,3.48157,2,0.000389935,11,5.03916e-05,-2.45823,0.506827,0.116411,15.8383,0.0144738,
2,1,0,1,0,2426.22,0.0162851,0.0159841,3.50869,2,0.000455924,11,5.60833e-05,-2.45485,1.03031,0.0572645,7.82299,0.0159841,
2,1,0,1,0,2426.24,0.0177744,0.0174958,3.52018,2,0.000521424,11,6.15881e-05,-2.45344,3.66296,0.0161072,2.21384,0.0174958,
2,1,0,1,0,2426.26,0.0192779,0.0190272,3.52054,2,0.00058765,11,6.69859e-05,-2.45339,2.43478,0.0242322,3.34089,0.0190272,
2,1,0,1,0,2426.28,0.0207743,0.0204815,3.54622,2,0.000653812,11,7.26319e-05,-2.45023,0.915619,0.0644373,8.90685,0.0204815,
2,1,0,1,0,2426.3,0.0222707,0.021997,3.56798,2,0.00072028,11,7.84846e-05,-2.44758,1.03166,0.0571893,7.94884,0.021997,
2,1,0,1,0,2426.32,0.0237743,0.0234851,3.58411,2,0.000787461,11,8.41731e-05,-2.44562,1.29922,0.045412,6.33422,0.0234851,
2,1,0,1,0,2426.33,0.0252636,0.0250029,3.592,2,0.000854124,11,8.98103e-05,-2.44466,0.934354,0.0631453,8.86226,0.0250029,
2,1,0,1,0,2426.35,0.0267671,0.0264566,3.61266,2,0.000921764,11,9.55785e-05,-2.44217,0.576109,0.102411,14.4214,0.0264566,
2,1,0,1,0,2426.37,0.0282706,0.0279699,3.63995,2,0.000989812,11,0.000101809,-2.43891,0.504362,0.11698,16.5692,0.0279699,
2,1,0,1,0,2426.39,0.0297581,0.0295,3.65001,2,0.00105753,11,0.000107675,-2.43771,0.617636,0.0955255,13.5646,0.0295,
2,1,0,1,0,2426.41,0.0312617,0.0309646,3.6586,2,0.00112632,11,0.000113287,-2.43669,0.572,0.103147,14.7496,0.0309646,
2,1,0,1,0,2426.43,0.0327652,0.0325001,3.67253,2,0.00119529,11,0.000119358,-2.43503,0.556879,0.105948,15.2333,0.0325001,
2,1,0,1,0,2426.45,0.0342545,0.0339964,3.69978,2,0.00126395,11,0.000125779,-2.43182,0.497402,0.118616,17.1298,0.0339964,
2,1,0,1,0,2426.46,0.035758,0.0355166,3.72216,2,0.00133382,11,0.000132198,-2.42921,0.577293,0.102201,14.8299,0.0355166,
2,1,0,1,0,2426.48,0.0372544,0.0369766,3.73984,2,0.00140372,11,0.000138287,-2.42715,0.527656,0.111815,16.3634,0.0369766,
2,1,0,1,0,2426.5,0.0387508,0.0384427,3.75992,2,0.00147393,11,0.000144542,-2.42482,0.516101,0.114319,16.8355,0.0384427,
2,1,0,1,0,2426.52,0.0402544,0.039966,3.7901,2,0.00154507,11,0.000151475,-2.42135,0.483416,0.122048,18.0779,0.039966,
2,1,0,1,0,2426.54,0.0417437,0.0414326,3.82793,2,0.00161603,11,0.000158601,-2.41704,0.503436,0.117195,17.4788,0.0414326,
2,1,0,1,0,2426.56,0.0432472,0.042961,3.85386,2,0.00168828,11,0.000165566,-2.4141,0.607079,0.0971867,14.6087,0.042961,
2,1,0,1,0,2426.58,0.0447507,0.0444525,3.87907,2,0.00176099,11,0.000172435,-2.41127,0.503367,0.117211,17.7763,0.0444525,
2,1,0,1,0,2426.6,0.0462382,0.0459597,3.91331,2,0.0018335,11,0.000179855,-2.40746,0.393024,0.150118,22.9413,0.0459597,
2,1,0,1,0,2426.61,0.0477418,0.047469,3.95079,2,0.00190746,11,0.00018754,-2.40332,0.393263,0.150027,23.1631,0.047469,
2,1,0,1,0,2426.63,0.0492453,0.0489987,3.99218,2,0.00198217,11,0.000195612,-2.39879,0.393771,0.149833,23.3254,0.0489987,
2,1,0,1,0,2426.65,0.0507346,0.0504691,4.02615,2,0.00205673,11,0.000203196,-2.39511,0.351739,0.167738,26.3971,0.0504691,
2,1,0,1,0,2426.67,0.0522381,0.05193,4.07139,2,0.00213283,11,0.000211427,-2.39026,0.282836,0.208601,33.175,0.05193,
2,1,0,1,0,2426.69,0.0537345,0.0534812,4.1342,2,0.00220946,11,0.000221102,-2.38361,0.264607,0.222972,35.8655,0.0534812,
2,1,0,1,0,2426.71,0.0552309,0.0549464,4.17666,2,0.00228707,11,0.000229493,-2.37917,0.272531,0.216489,35.1964,0.0549464,
2,1,0,1,0,2426.73,0.0567345,0.0564438,4.21361,2,0.00236603,11,0.000237832,-2.37535,0.254657,0.231684,38.2013,0.0564438,
2,1,0,1,0,2426.75,0.0582237,0.0579275,4.27413,2,0.00244499,11,0.000247589,-2.36915,0.243916,0.241887,40.4291,0.0579275,
2,1,0,1,0,2426.76,0.0597273,0.0594936,4.33442,2,0.00252601,11,0.00025787,-2.36307,0.230711,0.255731,43.2628,0.0594936,
2,1,0,1,0,2426.78,0.0612308,0.0609917,4.39443,2,0.00260819,11,0.000268023,-2.3571,0.237983,0.247917,42.5503,0.0609917,
2,1,0,1,0,2426.8,0.0627183,0.0624719,4.45888,2,0.00269063,11,0.000278555,-2.35077,0.233548,0.252624,44.0127,0.0624719,
2,1,0,1,0,2426.82,0.0642219,0.063927,4.51522,2,0.00277513,11,0.000288645,-2.34532,0.215044,0.274362,48.5705,0.063927,
2,1,0,1,0,2426.84,0.0657254,0.0654376,4.60068,2,0.00286101,11,0.000301058,-2.33718,0.212906,0.277117,49.7918,0.0654376,
2,1,0,1,0,2426.86,0.0672147,0.0669745,4.68043,2,0.00294749,11,0.000313469,-2.32971,0.213598,0.276219,50.4734,0.0669745,
2,1,0,1,0,2426.88,0.0687182,0.0684323,4.76425,2,0.00303634,11,0.000326029,-2.32201,0.23753,0.24839,46.1319,0.0684323,
2,1,0,1,0,2426.9,0.0702146,0.0699331,4.83641,2,0.00312609,11,0.000338225,-2.31548,0.222048,0.265708,50.2179,0.0699331,
2,1,0,1,0,2426.91,0.071711,0.0714205,4.92285,2,0.00321727,11,0.000351592,-2.30778,0.205696,0.286832,55.0463,0.0714205,
2,1,0,1,0,2426.93,0.0732146,0.0729338,5.01337,2,0.00331063,11,0.000365645,-2.29987,0.199569,0.295637,57.7491,0.0729338,
2,1,0,1,0,2426.95,0.0747038,0.0744431,5.09914,2,0.0034046,11,0.000379596,-2.2925,0.200579,0.294149,58.4526,0.0744431,
2,1,0,1,0,2426.97,0.0762074,0.075891,5.1718,2,0.00350112,11,0.000392493,-2.28636,0.194639,0.303126,61.2889,0.075891,
2,1,0,1,0,2426.99,0.0777109,0.0773989,5.27192,2,0.00359931,11,0.000408041,-2.27803,0.181744,0.324633,66.7801,0.0773989,
2,1,0,1,0,2427.01,0.0791984,0.0789048,5.36542,2,0.00369819,11,0.000423357,-2.2704,0.186905,0.315669,66.0448,0.0789048,
2,1,0,1,0,2427.03,0.0807019,0.0803857,5.452,2,0.00379994,11,0.000438263,-2.26344,0.197974,0.298019,63.3305,0.0803857,
2,1,0,1,0,2427.05,0.0822055,0.0819553,5.53692,2,0.00390343,11,0.00045378,-2.25673,0.202062,0.29199,63.1344,0.0819553,
2,1,0,1,0,2427.06,0.0836947,0.0834053,5.62948,2,0.00400738,11,0.000469529,-2.24953,0.210651,0.280084,61.6146,0.0834053,
2,1,0,1,0,2427.08,0.0851983,0.0849227,5.7176,2,0.00411421,11,0.000485554,-2.24279,0.211017,0.279598,62.5118,0.0849227,
2,1,0,1,0,2427.1,0.0866947,0.0864055,5.81864,2,0.00422229,11,0.000502762,-2.23518,0.219014,0.26939,61.1376,0.0864055,
2,1,0,1,0,2427.12,0.0881911,0.0879171,5.9132,2,0.00433212,11,0.000519872,-2.22818,0.236719,0.249241,57.5105,0.0879171,
2,1,0,1,0,2427.14,0.0896946,0.0893789,5.99761,2,0.00444411,11,0.00053606,-2.22202,0.238078,0.247818,58.0896,0.0893789,
2,1,0,1,0,2427.16,0.0911839,0.0909155,6.09216,2,0.00455665,11,0.000553871,-2.21523,0.224589,0.262702,62.4565,0.0909155,
2,1,0,1,0,2427.18,0.0926857,0.0923811,6.19297,2,0.0046722,11,0.000572114,-2.2081,0.243021,0.242777,58.6176,0.0923811,
2,1,0,1,0,2427.2,0.0941892,0.0939105,6.27961,2,0.00478949,11,0.000589721,-2.20207,0.257199,0.229395,56.2056,0.0939105,
2,1,0,1,0,2427.21,0.0956785,0.0953795,6.36633,2,0.00490711,11,0.000607217,-2.19611,0.251124,0.234943,58.4092,0.0953795,
2,1,0,1,0,2427.23,0.097182,0.0968455,6.4656,2,0.0050277,11,0.000626164,-2.18939,0.239733,0.246107,62.0428,0.0968455,
2,1,0,1,0,2427.25,0.0986856,0.0983922,6.56317,2,0.00515008,11,0.000645765,-2.18289,0.234689,0.251396,64.3309,0.0983922,
2,1,0,1,0,2427.27,0.100175,0.0998275,6.657,2,0.00527295,11,0.000664552,-2.17672,0.235875,0.250132,64.8634,0.0998275,
2,1,0,1,0,2427.29,0.101678,0.101383,6.74064,2,0.00539893,11,0.00068339,-2.1713,0.234729,0.251354,66.1829,0.101383,
2,1,0,1,0,2427.31,0.103175,0.102902,6.84712,2,0.00552599,11,0.000704583,-2.16449,0.21212,0.278144,74.4362,0.102902,
2,1,0,1,0,2427.33,0.104671,0.104394,6.96074,2,0.00565502,11,0.000726656,-2.15734,0.209819,0.281195,76.3675,0.1043935,
2,1,0,1,0,2427.35,0.106175,0.105856,7.06716,2,0.00578702,11,0.000748099,-2.15076,0.21231,0.277895,76.5905,0.105856,
2,1,0,1,0,2427.36,0.107662,0.107375,7.18053,2,0.00591969,11,0.000771006,-2.14384,0.210469,0.280326,78.6544,0.107375,
2,1,0,1,0,2427.38,0.109166,0.108832,7.28693,2,0.0060558,11,0.000793048,-2.13746,0.201215,0.293219,83.6837,0.108832,
2,1,0,1,0,2427.4,0.110669,0.110435,7.42341,2,0.00619429,11,0.000819801,-2.1294,0.192047,0.307216,89.1597,0.110435,
2,1,0,1,0,2427.42,0.112159,0.11187,7.56526,2,0.00633384,11,0.000846328,-2.12118,0.185436,0.31817,94.0324,0.11187,
2,1,0,1,0,2427.44,0.113662,0.113379,7.71863,2,0.00647757,11,0.000875129,-2.11246,0.175807,0.335596,101.23,0.113379,
2,1,0,1,0,2427.46,0.115166,0.114892,7.87833,2,0.00662421,11,0.000905158,-2.10357,0.1629,0.362186,111.57,0.114892,
2,1,0,1,0,2427.48,0.116655,0.116353,8.06899,2,0.00677253,11,0.000938852,-2.09318,0.148807,0.396487,124.922,0.116353,
2,1,0,1,0,2427.49,0.118158,0.117869,8.2736,2,0.00692611,11,0.000975202,-2.08231,0.14706,0.401196,129.413,0.117869,
2,1,0,1,0,2427.51,0.119655,0.119372,8.47237,2,0.0070826,11,0.00101137,-2.072,0.14469,0.40777,134.846,0.119372,
2,1,0,1,0,2427.53,0.121151,0.120889,8.67277,2,0.00724283,11,0.00104844,-2.06184,0.139312,0.423511,143.487,0.120889,
2,1,0,1,0,2427.55,0.122655,0.122377,8.89816,2,0.00740795,11,0.00108894,-2.0507,0.129782,0.454608,158.033,0.122377,
2,1,0,1,0,2427.57,0.124142,0.123856,9.14254,2,0.00757567,11,0.00113236,-2.03893,0.124411,0.474236,169.164,0.123856,
2,1,0,1,0,2427.59,0.125646,0.125349,9.38705,2,0.00774985,11,0.00117666,-2.02747,0.125265,0.471002,172.593,0.125349,
2,1,0,1,0,2427.61,0.127149,0.126864,9.63914,2,0.0079289,11,0.00122286,-2.01596,0.124472,0.474003,178.483,0.126864,
2,1,0,1,0,2427.63,0.128639,0.128319,9.90901,2,0.00811089,11,0.00127151,-2.00397,0.12398,0.475885,184.389,0.128319,
2,1,0,1,0,2427.64,0.130142,0.12986,10.1951,2,0.00829998,11,0.00132394,-1.99161,0.124721,0.473055,188.278,0.1298604,
2,1,0,1,0,2427.66,0.131646,0.131413,10.4794,2,0.00849455,11,0.00137712,-1.97966,0.128043,0.460783,188.346,0.131413,
2,1,0,1,0,2427.68,0.133135,0.132821,10.7607,2,0.00869226,11,0.00142924,-1.96816,0.133795,0.440974,185.192,0.132821,
2,1,0,1,0,2427.7,0.134639,0.134334,11.0371,2,0.00889729,11,0.00148266,-1.95714,0.136538,0.432113,186.271,0.134334,
2,1,0,1,0,2427.72,0.136135,0.135831,11.3265,2,0.00910655,11,0.0015385,-1.9459,0.139573,0.422717,186.77,0.135831,
2,1,0,1,0,2427.74,0.137631,0.137303,11.6034,2,0.00932105,11,0.00159319,-1.93541,0.147914,0.398881,180.494,0.137303,
2,1,0,1,0,2427.76,0.139135,0.138864,11.8808,2,0.00954193,11,0.00164981,-1.92516,0.158879,0.371352,171.844,0.138864,
2,1,0,1,0,2427.78,0.140622,0.140348,12.1285,2,0.00976524,11,0.0017022,-1.91619,0.170249,0.346552,163.887,0.140348,
2,1,0,1,0,2427.79,0.142126,0.141848,12.3763,2,0.0099956,11,0.00175555,-1.90741,0.177569,0.332266,160.272,0.141848,
2,1,0,1,0,2427.81,0.143629,0.143345,12.6126,2,0.0102305,11,0.00180795,-1.89919,0.1967,0.299949,147.332,0.143345,
2,1,0,1,0,2427.83,0.145119,0.144839,12.8244,2,0.0104671,11,0.00185747,-1.89196,0.225515,0.261624,130.61,0.144839,
2,1,0,1,0,2427.85,0.146622,0.146369,12.993,2,0.0107098,11,0.00190178,-1.88629,0.257643,0.228999,115.983,0.146369,
2,1,0,1,0,2427.87,0.148126,0.147813,13.1615,2,0.0109557,11,0.00194544,-1.88069,0.302799,0.194849,99.8702,0.147813,
2,1,0,1,0,2427.89,0.149615,0.149292,13.296,2,0.0112018,11,0.00198499,-1.87628,0.375449,0.157145,81.321,0.149292,
2,1,0,1,0,2427.91,0.151119,0.150799,13.3936,2,0.0114528,11,0.00201974,-1.8731,0.559042,0.105538,54.9949,0.150799,
2,1,0,1,0,2427.93,0.152615,0.152342,13.4499,2,0.011704,11,0.00204898,-1.87128,1.0333,0.0570985,29.9077,0.152342,
2,1,0,1,0,2427.94,0.154111,0.153808,13.4747,2,0.0119558,11,0.00207251,-1.87048,11.6952,0.00504483,2.64736,0.153808,
2,1,0,1,0,2427.96,0.155615,0.155303,13.4521,2,0.0122091,11,0.00208916,-1.87121,-1.13586,-0.0519429,-27.1948,0.155303,
2,1,0,1,0,2427.98,0.157103,0.156813,13.3878,2,0.012459,11,0.00209938,-1.87329,-0.446321,-0.132192,-68.8005,0.156813,
2,1,0,1,0,2428,0.158606,0.158332,13.2549,2,0.0127097,11,0.00209866,-1.87763,-0.266218,-0.221623,-114.18,0.158332,
2,1,0,1,0,2428.02,0.16011,0.15984,13.052,2,0.0129572,11,0.00208624,-1.88432,-0.191455,-0.308167,-156.347,0.15984,
2,1,0,1,0,2428.04,0.161599,0.161369,12.7988,2,0.0131978,11,0.00206533,-1.89283,-0.145525,-0.405429,-201.35,0.161369,
2,1,0,1,0,2428.06,0.163102,0.162855,12.4635,2,0.0134354,11,0.00202974,-1.90436,-0.112904,-0.522567,-252.544,0.162855,
2,1,0,1,0,2428.08,0.164606,0.164325,12.0504,2,0.0136658,11,0.00198018,-1.919,-0.0902423,-0.653795,-305.414,0.164325,
2,1,0,1,0,2428.09,0.166095,0.165806,11.5585,2,0.0138853,11,0.00191646,-1.9371,-0.0754576,-0.781896,-350.569,0.165806,
2,1,0,1,0,2428.11,0.167599,0.167297,11.007,2,0.0140975,11,0.00184143,-1.95833,-0.0661574,-0.891813,-380.859,0.167297,
2,1,0,1,0,2428.13,0.169095,0.168819,10.4187,2,0.0142977,11,0.00175887,-1.98219,-0.0590326,-0.999448,-404.079,0.168819,
2,1,0,1,0,2428.15,0.170592,0.170345,9.78942,2,0.0144865,11,0.00166758,-2.00924,-0.0526878,-1.1198,-425.565,0.170345,
2,1,0,1,0,2428.17,0.172095,0.17184,9.12067,2,0.0146642,11,0.0015673,-2.03997,-0.0494808,-1.19238,-424.237,0.17184,
2,1,0,1,0,2428.19,0.173583,0.173337,8.49585,2,0.0148279,11,0.00147264,-2.07079,-0.0475064,-1.24194,-411.745,0.173337,
2,1,0,1,0,2428.21,0.175086,0.174816,7.89175,2,0.0149819,11,0.0013796,-2.10283,-0.0483414,-1.22049,-376.685,0.1748158,
2,1,0,1,0,2428.23,0.17659,0.176343,7.33772,2,0.015125,11,0.00129396,-2.13444,-0.0485764,-1.21458,-349.334,0.176343,
2,1,0,1,0,2428.24,0.178079,0.177793,6.84765,2,0.0152569,11,0.00121746,-2.16446,-0.0530669,-1.1118,-299.218,0.177793,
2,1,0,1,0,2428.26,0.179582,0.179301,6.4215,2,0.0153817,11,0.00115138,-2.19236,-0.0577311,-1.02198,-258.614,0.179301,
2,1,0,1,0,2428.28,0.181086,0.180816,6.0672,2,0.0154991,11,0.00109705,-2.21701,-0.0647422,-0.911306,-217.696,0.180816,
2,1,0,1,0,2428.3,0.182575,0.182292,5.78819,2,0.0156095,11,0.00105514,-2.23746,-0.0736256,-0.801352,-182.045,0.182292,
2,1,0,1,0,2428.32,0.184079,0.183842,5.54008,2,0.015716,11,0.0010185,-2.25648,-0.0827916,-0.712633,-155.005,0.183842,
2,1,0,1,0,2428.34,0.185582,0.185319,5.336,2,0.0158181,11,0.000988861,-2.27278,-0.097577,-0.604651,-126.707,0.185319,
2,1,0,1,0,2428.36,0.18707,0.18677,5.17647,2,0.0159158,11,0.000966809,-2.28597,-0.111898,-0.527264,-106.797,0.18677,
2,1,0,1,0,2428.38,0.188573,0.188312,5.03544,2,0.0160118,11,0.000948233,-2.29796,-0.127193,-0.463861,-91.2884,0.188312,
2,1,0,1,0,2428.39,0.19007,0.189767,4.91618,2,0.0161047,11,0.000932929,-2.30837,-0.137012,-0.430618,-82.6157,0.189767,
2,1,0,1,0,2428.41,0.191566,0.191266,4.79088,2,0.0161954,11,0.000916333,-2.31958,-0.153542,-0.38426,-72.0204,0.191266,
2,1,0,1,0,2428.43,0.19307,0.192763,4.69679,2,0.0162845,11,0.000905367,-2.3282,-0.175287,-0.33659,-61.7033,0.192763,
2,1,0,1,0,2428.45,0.194559,0.194256,4.61772,2,0.016371,11,0.000897019,-2.33557,-0.187351,-0.314917,-56.6232,0.194256,
2,1,0,1,0,2428.47,0.196063,0.195774,4.52588,2,0.0164568,11,0.000886049,-2.3443,-0.184756,-0.31934,-56.2499,0.195774,
2,1,0,1,0,2428.49,0.197566,0.19727,4.42885,2,0.016541,11,0.000873679,-2.35371,-0.210932,-0.279711,-48.4573,0.19727,
2,1,0,1,0,2428.51,0.199055,0.198741,4.35888,2,0.0166227,11,0.000866288,-2.36062,-0.21416,-0.275495,-46.9276,0.198741,
2,1,0,1,0,2428.52,0.200559,0.200311,4.28585,2,0.016704,11,0.000858505,-2.36796,-0.245071,-0.240747,-40.3021,0.200311,
2,1,0,1,0,2428.54,0.202062,0.201798,4.2245,2,0.0167841,11,0.000852497,-2.37423,-0.233181,-0.253022,-41.7054,0.201798,
2,1,0,1,0,2428.56,0.20355,0.203273,4.15542,2,0.0168622,11,0.000844686,-2.38139,-0.248065,-0.237841,-38.683,0.2032733,
2,1,0,1,0,2428.58,0.205053,0.204804,4.09665,2,0.0169399,11,0.00083901,-2.38757,-0.270428,-0.218173,-35.0893,0.204804,
2,1,0,1,0,2428.6,0.20655,0.206275,4.05217,2,0.0170162,11,0.000835864,-2.39231,-0.282777,-0.208645,-33.0179,0.206275,
2,1,0,1,0,2428.62,0.208046,0.207808,4.01968,2,0.0170918,11,0.000835321,-2.39581,-0.255756,-0.230688,-36.0633,0.207808,
2,1,0,1,0,2428.64,0.20955,0.209295,3.96393,2,0.0171669,11,0.00082963,-2.40187,-0.249513,-0.236461,-36.6029,0.209295,
2,1,0,1,0,2428.66,0.211039,0.21077,3.91598,2,0.0172401,11,0.000825372,-2.40716,-0.277492,-0.212618,-32.5259,0.21077,
2,1,0,1,0,2428.67,0.212543,0.212284,3.87417,2,0.0173133,11,0.000822424,-2.41182,-0.338034,-0.174539,-26.3966,0.212284,
2,1,0,1,0,2428.69,0.214046,0.213792,3.84612,2,0.0173859,11,0.00082227,-2.41498,-0.358904,-0.164389,-24.6451,0.213792,
2,1,0,1,0,2428.71,0.215535,0.215247,3.81178,2,0.017457,11,0.000820474,-2.41887,-0.352505,-0.167374,-24.8606,0.215247,
2,1,0,1,0,2428.73,0.217039,0.216778,3.76674,2,0.0175281,11,0.000816544,-2.42403,-0.391035,-0.150882,-22.2107,0.216778,
2,1,0,1,0,2428.75,0.218543,0.218267,3.73941,2,0.0175987,11,0.000816191,-2.4272,-0.627762,-0.0939847,-13.707,0.218267,
2,1,0,1,0,2428.77,0.22003,0.219779,3.7186,2,0.017668,11,0.000817271,-2.42962,-0.574891,-0.102628,-14.8751,0.219779,
2,1,0,1,0,2428.79,0.221534,0.221255,3.67977,2,0.0177376,11,0.000814167,-2.43418,-0.500484,-0.117886,-16.9129,0.2212546,
2,1,0,1,0,2428.81,0.22303,0.222751,3.64338,2,0.0178062,11,0.000811567,-2.4385,-0.518692,-0.113748,-16.2332,0.222751,
2,1,0,1,0,2428.82,0.224526,0.224253,3.62361,2,0.0178742,11,0.000812605,-2.44086,-0.575267,-0.102561,-14.5418,0.224253,
2,1,0,1,0,2428.84,0.22603,0.225774,3.59636,2,0.0179423,11,0.000811966,-2.44414,-0.672781,-0.0876957,-12.3419,0.225774,
2,1,0,1,0,2428.86,0.227519,0.22723,3.57934,2,0.0180092,11,0.000813334,-2.4462,-0.443577,-0.13301,-18.6019,0.22723,
2,1,0,1,0,2428.88,0.229023,0.228748,3.56002,2,0.0180765,11,0.000814346,-2.44855,-0.487973,-0.120908,-16.8177,0.228748,
2,1,0,1,0,2428.9,0.230526,0.230242,3.53624,2,0.0181433,11,0.00081419,-2.45146,-0.513386,-0.114923,-15.9232,0.230242,
2,1,0,1,0,2428.92,0.232016,0.231746,3.52862,2,0.018209,11,0.000817745,-2.45239,-0.600982,-0.0981727,-13.4976,0.231746,
2,1,0,1,0,2428.94,0.233519,0.233243,3.51081,2,0.0182753,11,0.000818872,-2.45459,-0.545027,-0.108251,-14.8126,0.233243,
2,1,0,1,0,2428.96,0.235023,0.234765,3.49767,2,0.0183412,11,0.000821128,-2.45622,-0.516876,-0.114147,-15.5604,0.234765,
2,1,0,1,0,2428.97,0.23651,0.23624,3.47376,2,0.0184059,11,0.00082064,-2.4592,-0.630539,-0.0935707,-12.7058,0.23624,
2,1,0,1,0,2428.99,0.238014,0.237752,3.46134,2,0.018471,11,0.00082294,-2.46076,-0.939675,-0.0627876,-8.46609,0.237752,
2,1,0,1,0,2429.01,0.23951,0.239235,3.45508,2,0.0185357,11,0.000826575,-2.46154,-1.00266,-0.0588434,-7.90908,0.239235,
2,1,0,1,0,2429.03,0.241006,0.240729,3.43557,2,0.0186,11,0.000827041,-2.464,-0.812797,-0.0725889,-9.71684,0.240729,
2,1,0,1,0,2429.05,0.24251,0.242221,3.41149,2,0.0186644,11,0.000826334,-2.46706,-0.990773,-0.0595495,-7.94264,0.242221,
2,1,0,1,0,2429.07,0.243999,0.243729,3.40289,2,0.0187278,11,0.000829382,-2.46815,-1.8134,-0.0325356,-4.32204,0.243729,
2,1,0,1,0,2429.09,0.245503,0.245241,3.39811,2,0.0187917,11,0.000833355,-2.46876,-1.60074,-0.0368579,-4.87825,0.245241,
2,1,0,1,0,2429.11,0.247006,0.246718,3.3803,2,0.0188554,11,0.000833983,-2.47104,-1.27759,-0.0461806,-6.08025,0.246718,
2,1,0,1,0,2429.12,0.248496,0.248252,3.35602,2,0.0189182,11,0.000833139,-2.47417,-1.197,-0.0492899,-6.47775,0.2482519,
2,1,0,1,0,2429.14,0.249999,0.249751,3.34505,2,0.0189813,11,0.000835428,-2.4756,-1.14849,-0.0513718,-6.73098,0.249751,
2,1,0,1,0,2429.16,0.251503,0.251266,3.33413,2,0.0190443,11,0.000837753,-2.47702,-1.73112,-0.034082,-4.44144,0.251266,
2,1,0,1,0,2429.18,0.25299,0.252703,3.32707,2,0.0191065,11,0.000840762,-2.47794,-0.652771,-0.0903839,-11.7415,0.252703,
2,1,0,1,0,2429.2,0.254494,0.254247,3.317,2,0.0191691,11,0.000843335,-2.47926,-0.636783,-0.0926533,-12.019,0.254247,
2,1,0,1,0,2429.22,0.25599,0.255711,3.30156,2,0.019231,11,0.000844245,-2.48128,-0.803864,-0.0733955,-9.49644,0.255711,
2,1,0,1,0,2429.24,0.257487,0.257218,3.30631,2,0.0192928,11,0.000850442,-2.48066,-0.907524,-0.065012,-8.36469,0.257218,
2,1,0,1,0,2429.26,0.25899,0.258765,3.29816,2,0.019355,11,0.000853449,-2.48173,-0.954131,-0.0618364,-7.93807,0.258765,
2,1,0,1,0,2429.27,0.260479,0.260243,3.28862,2,0.0194161,11,0.000855839,-2.48299,-0.613844,-0.0961156,-12.3164,0.260243,
2,1,0,1,0,2429.29,0.261983,0.261689,3.27398,2,0.0194777,11,0.000856764,-2.48492,-1.11931,-0.052711,-6.733,0.261689,
2,1,0,1,0,2429.31,0.263486,0.263256,3.26892,2,0.0195391,11,0.000860562,-2.4856,-10.6697,-0.0055297,-0.703043,0.263256,
2,1,0,1,0,2429.33,0.264974,0.264714,3.25899,2,0.0195997,11,0.000862701,-2.48692,-3.4476,-0.0171134,-2.17476,0.264714,
2,1,0,1,0,2429.35,0.266477,0.266229,3.24489,2,0.0196609,11,0.000863883,-2.4888,-1.27259,-0.046362,-5.86593,0.266229,
2,1,0,1,0,2429.37,0.267981,0.267702,3.22964,2,0.0197218,11,0.000864582,-2.49085,-4.00433,-0.0147341,-1.85832,0.267702,
2,1,0,1,0,2429.39,0.26947,0.269219,3.22472,2,0.0197818,11,0.000868156,-2.49151,-23.239,-0.00253884,-0.319966,0.269219,
2,1,0,1,0,2429.41,0.270974,0.270687,3.21964,2,0.0198424,11,0.000871513,-2.49219,-3.00255,-0.01965,-2.46401,0.270687,
2,1,0,1,0,2429.42,0.27247,0.272224,3.20669,2,0.0199027,11,0.000872941,-2.49394,-1.12141,-0.0526123,-6.57538,0.272224,
2,1,0,1,0,2429.44,0.273967,0.273692,3.19101,2,0.0199627,11,0.000873354,-2.49607,-0.969008,-0.060887,-7.61093,0.273692,
2,1,0,1,0,2429.46,0.27547,0.275217,3.18316,2,0.0200227,11,0.00087606,-2.49714,-1.03724,-0.0568816,-7.09151,0.275217,
2,1,0,1,0,2429.48,0.276959,0.276667,3.18018,2,0.020082,11,0.000879852,-2.49755,-1.0954,-0.0538615,-6.68962,0.276667,
2,1,0,1,0,2429.5,0.278463,0.278174,3.17341,2,0.0201418,11,0.000882759,-2.49847,-0.84997,-0.0694142,-8.58681,0.278174,
2,1,0,1,0,2429.52,0.279967,0.279747,3.16805,2,0.0202015,11,0.000886252,-2.49921,-0.867158,-0.0680384,-8.41477,0.279747,
2,1,0,1,0,2429.54,0.281454,0.281178,3.15848,2,0.0202603,11,0.000888097,-2.50052,-1.01613,-0.0580632,-7.16827,0.2811785,
2,1,0,1,0,2429.55,0.282958,0.282704,3.15375,2,0.0203196,11,0.000891578,-2.50117,-1.70342,-0.0346363,-4.25299,0.282704,
2,1,0,1,0,2429.57,0.284461,0.284171,3.15556,2,0.0203789,11,0.00089672,-2.50092,-0.990746,-0.0595511,-7.29663,0.284171,
2,1,0,1,0,2429.59,0.28595,0.285705,3.14281,2,0.0204374,11,0.000897916,-2.50268,-0.873273,-0.0675619,-8.26851,0.285705,
2,1,0,1,0,2429.61,0.287454,0.287196,3.12655,2,0.0204962,11,0.000897933,-2.50494,-1.34715,-0.043796,-5.34803,0.287196,
2,1,0,1,0,2429.63,0.28895,0.288635,3.126,2,0.0205547,11,0.000902273,-2.50501,-11.3779,-0.00518549,-0.631273,0.288635,
2,1,0,1,0,2429.65,0.290447,0.290217,3.11504,2,0.020613,11,0.000904036,-2.50654,-3.98688,-0.0147985,-1.79927,0.290217,
2,1,0,1,0,2429.67,0.29195,0.291678,3.10946,2,0.0206715,11,0.000906959,-2.50732,-2.31514,-0.0254844,-3.08675,0.291678,
2,1,0,1,0,2429.69,0.29344,0.293135,3.08507,2,0.0207292,11,0.000904341,-2.51074,-4.51755,-0.0130602,-1.57994,0.293135,
2,1,0,1,0,2429.7,0.294943,0.294661,3.08933,2,0.0207874,11,0.000910303,-2.51014,-3.97639,-0.0148376,-1.7924,0.294661,
2,1,0,1,0,2429.72,0.296447,0.296206,3.08747,2,0.0208455,11,0.000914526,-2.5104,-10.145,-0.00581567,-0.699346,0.2962057,
2,1,0,1,0,2429.74,0.297934,0.297651,3.06892,2,0.020903,11,0.000913466,-2.51302,-1.28808,-0.0458046,-5.50339,0.2976509,
2,1,0,1,0,2429.76,0.299438,0.299178,3.06323,2,0.0209608,11,0.000916452,-2.51382,-0.016696,-3.53378,-362.874,0.299178,
2,1,0,1,0,2429.77,0.300012,0.299785,3.06686,2,0.0209823,11,0.000919398,-2.51331,0.00087257,67.6163,5073.65,0.299785,
2,1,0,1,0,2429.78,0.298737,0.298483,0.0134718,2,0.0210022,11,4.02109e-06,-4.87058,0.00764812,7.71431,1253.94,0.298483,
2,0,0,1,0,2429.8,0.29724,0.296956,-1.01043,2,0.0209909,11,-0.000300052,-2.9955,-0.0212766,-2.773,526.748,0.296956,
2,0,0,1,0,2429.82,0.295744,0.295468,-1.26698,2,0.0209692,11,-0.000374352,-2.89723,-0.0177388,-3.32603,137.282,0.295468,
2,0,0,1,0,2429.84,0.29424,0.293922,-1.34212,2,0.0209447,11,-0.000394478,-2.87221,-0.0633846,-0.930826,47.1861,0.293922,
2,0,0,1,0,2429.86,0.292751,0.292497,-1.37331,2,0.0209194,11,-0.000401688,-2.86223,-0.0964819,-0.611513,32.874,0.292497,
2,0,0,1,0,2429.88,0.291248,0.290947,-1.42552,2,0.0208932,11,-0.000414752,-2.84603,-0.0962849,-0.612765,33.9324,0.290947,
2,0,0,1,0,2429.9,0.289744,0.289445,-1.47188,2,0.0208659,11,-0.000426029,-2.83213,-0.0962744,-0.612832,35.0008,0.289445,
2,0,0,1,0,2429.91,0.288257,0.287919,-1.50626,2,0.0208382,11,-0.000433683,-2.8221,-0.121554,-0.485382,28.5052,0.2879194,
2,0,0,1,0,2429.93,0.286753,0.286512,-1.53955,2,0.0208094,11,-0.000441102,-2.8126,-0.12313,-0.479169,28.9745,0.2865124,
2,0,0,1,0,2429.95,0.285249,0.284938,-1.58258,2,0.0207799,11,-0.000450936,-2.80064,-0.130253,-0.452964,28.1523,0.284938,
2,0,0,1,0,2429.97,0.28376,0.283444,-1.6202,2,0.02075,11,-0.000459237,-2.79043,-0.148244,-0.397994,25.2535,0.283444,
2,0,0,1,0,2429.99,0.282257,0.281932,-1.6614,2,0.0207189,11,-0.000468402,-2.77953,-0.190469,-0.309762,20.0674,0.281932,
2,0,0,1,0,2430.01,0.28076,0.280471,-1.70014,2,0.0206874,11,-0.000476838,-2.76952,-0.205338,-0.287332,19.0852,0.280471,
2,0,0,1,0,2430.03,0.279264,0.278995,-1.7296,2,0.0206553,11,-0.000482551,-2.76205,-0.213054,-0.276926,18.7301,0.278995,
2,0,0,1,0,2430.05,0.27776,0.277421,-1.7665,2,0.0206224,11,-0.000490063,-2.75289,-0.213876,-0.275861,18.9135,0.277421,
2,0,0,1,0,2430.06,0.276271,0.275956,-1.80432,2,0.0205893,11,-0.000497913,-2.74369,-0.215614,-0.273637,19.1843,0.275956,
2,0,0,1,0,2430.08,0.274767,0.274456,-1.83589,2,0.0205552,11,-0.00050387,-2.73615,-0.254208,-0.232093,16.5183,0.274456,
2,0,0,1,0,2430.1,0.273264,0.272987,-1.85106,2,0.0205207,11,-0.000505314,-2.73258,-0.216274,-0.272802,19.7439,0.272987,
2,0,0,1,0,2430.12,0.271776,0.271457,-1.88639,2,0.020486,11,-0.000512074,-2.72437,-0.182041,-0.324103,23.7603,0.2714566,
2,0,0,1,0,2430.14,0.270273,0.269992,-1.91755,2,0.0204503,11,-0.000517722,-2.71725,-0.20243,-0.291459,21.6988,0.269992,
2,0,0,1,0,2430.16,0.268769,0.268476,-1.93838,2,0.020414,11,-0.00052041,-2.71256,-0.242207,-0.243593,18.4033,0.268476,
2,0,0,1,0,2430.18,0.26728,0.266982,-1.95526,2,0.0203778,11,-0.00052202,-2.70879,-0.220974,-0.267,20.4512,0.266982,
2,0,0,1,0,2430.2,0.265777,0.265492,-1.98085,2,0.0203407,11,-0.000525899,-2.70315,-0.254754,-0.231596,17.9317,0.265492,
2,0,0,1,0,2430.21,0.26428,0.263988,-2.01076,2,0.0203033,11,-0.000530817,-2.69664,-0.228405,-0.258313,20.2399,0.263988,
2,0,0,1,0,2430.23,0.262784,0.262457,-2.02708,2,0.0202655,11,-0.000532021,-2.69313,-0.296819,-0.198774,15.7441,0.262457,
2,0,0,1,0,2430.25,0.26128,0.260991,-2.04641,2,0.020227,11,-0.000534093,-2.68901,-0.321671,-0.183417,14.738,0.260991,
2,0,0,1,0,2430.27,0.259791,0.259476,-2.07366,2,0.0201886,11,-0.000538064,-2.68326,-0.301734,-0.195537,15.9217,0.259476,
2,0,0,1,0,2430.29,0.258287,0.257975,-2.10268,2,0.0201492,11,-0.000542438,-2.67723,-0.297611,-0.198246,16.2844,0.257975,
2,0,0,1,0,2430.31,0.256786,0.256527,-2.12137,2,0.0201093,11,-0.000544188,-2.67338,-0.420221,-0.140402,11.6375,0.256527,
2,0,0,1,0,2430.33,0.255296,0.255004,-2.15145,2,0.0200695,11,-0.00054863,-2.66727,-0.587213,-0.100475,8.42173,0.255004,
2,0,0,1,0,2430.35,0.253793,0.253508,-2.16869,2,0.0200289,11,-0.00054978,-2.6638,-0.52488,-0.112407,9.53088,0.253508,
2,0,0,1,0,2430.36,0.252289,0.251987,-2.19874,2,0.0199879,11,-0.000554056,-2.65783,-0.354871,-0.166258,14.1894,0.251987,
2,0,0,1,0,2430.38,0.2508,0.250494,-2.22074,2,0.0199469,11,-0.000556282,-2.6535,-0.380239,-0.155166,13.4157,0.250494,
2,0,0,1,0,2430.4,0.249296,0.248996,-2.24357,2,0.0199051,11,-0.00055864,-2.64906,-0.461761,-0.127772,11.1487,0.248996,
2,0,0,1,0,2430.42,0.2478,0.247488,-2.25513,2,0.0198631,11,-0.000558118,-2.64683,-0.333473,-0.176926,15.6057,0.247488,
2,0,0,1,0,2430.44,0.246304,0.246014,-2.28343,2,0.0198207,11,-0.000561755,-2.64141,-0.267942,-0.220197,19.5908,0.246014,
2,0,0,1,0,2430.46,0.2448,0.244477,-2.31455,2,0.0197776,11,-0.000565854,-2.63553,-0.275946,-0.21381,19.2004,0.244477,
2,0,0,1,0,2430.48,0.243313,0.243013,-2.32151,2,0.0197345,11,-0.000564157,-2.63423,-0.358139,-0.164741,14.9103,0.243013,
2,0,0,1,0,2430.5,0.241809,0.241552,-2.33267,2,0.0196906,11,-0.000563461,-2.63215,-0.344253,-0.171386,15.6887,0.241552,
2,0,0,1,0,2430.51,0.240306,0.240008,-2.36129,2,0.0196464,11,-0.000566729,-2.62685,-0.293996,-0.200683,18.5308,0.240008,
2,0,0,1,0,2430.53,0.238816,0.238516,-2.38181,2,0.0196022,11,-0.000568099,-2.62309,-0.370938,-0.159056,14.8039,0.238516,
2,0,0,1,0,2430.55,0.237313,0.237005,-2.40143,2,0.019557,11,-0.00056915,-2.61953,-0.493769,-0.119489,11.2185,0.237005,
2,0,0,1,0,2430.57,0.235809,0.235528,-2.4219,2,0.0195115,11,-0.000570425,-2.61584,-0.447959,-0.131709,12.5187,0.235528,
2,0,0,1,0,2430.59,0.23432,0.234052,-2.44481,2,0.0194662,11,-0.000572211,-2.61176,-0.434343,-0.135837,13.0282,0.234052,
2,0,0,1,0,2430.61,0.232816,0.232509,-2.47419,2,0.0194198,11,-0.000575271,-2.60657,-0.448509,-0.131547,12.7048,0.232509,
2,0,0,1,0,2430.63,0.23132,0.231002,-2.50715,2,0.0193732,11,-0.000579156,-2.60082,-0.495679,-0.119029,11.6076,0.231002,
2,0,0,1,0,2430.65,0.229824,0.229551,-2.52929,2,0.0193262,11,-0.000580601,-2.597,-0.554896,-0.106326,10.4633,0.229551,
2,0,0,1,0,2430.66,0.22832,0.228061,-2.54861,2,0.0192786,11,-0.00058124,-2.5937,-0.419715,-0.140572,13.9642,0.228061,
2,0,0,1,0,2430.68,0.226833,0.226563,-2.57576,2,0.019231,11,-0.000583571,-2.58909,-0.314499,-0.1876,18.8012,0.226563,
2,0,0,1,0,2430.7,0.225329,0.225057,-2.6028,2,0.0191825,11,-0.000585779,-2.58456,-0.32983,-0.17888,18.1351,0.225057,
2,0,0,1,0,2430.72,0.223825,0.223516,-2.6256,2,0.0191334,11,-0.000586864,-2.58077,-0.343404,-0.171809,17.5684,0.223516,
2,0,0,1,0,2430.74,0.222336,0.222035,-2.64285,2,0.0190844,11,-0.000586805,-2.57793,-0.310561,-0.189979,19.6282,0.222035,
2,0,0,1,0,2430.76,0.220833,0.220552,-2.67603,2,0.0190345,11,-0.000590206,-2.57251,-0.254225,-0.232078,24.2249,0.220552,
2,0,0,1,0,2430.78,0.219329,0.219063,-2.70991,2,0.0189839,11,-0.000593641,-2.56705,-0.261724,-0.225428,23.7347,0.219063,
2,0,0,1,0,2430.8,0.21784,0.217529,-2.73051,2,0.0189333,11,-0.000593966,-2.56376,-0.314758,-0.187446,19.9375,0.217529,
2,0,0,1,0,2430.81,0.216336,0.216066,-2.74373,2,0.0188817,11,-0.000592827,-2.56166,-0.336141,-0.175521,18.9204,0.216066,
2,0,0,1,0,2430.83,0.21484,0.214565,-2.77992,2,0.0188299,11,-0.000596473,-2.55597,-0.288997,-0.204154,22.2507,0.214565,
2,0,0,1,0,2430.85,0.213343,0.21303,-2.81703,2,0.0187774,11,-0.000600111,-2.55021,-0.299028,-0.197306,21.7067,0.21303,
2,0,0,1,0,2430.87,0.21184,0.211555,-2.84454,2,0.0187241,11,-0.000601777,-2.54599,-0.362001,-0.162983,18.1344,0.211555,
2,0,0,1,0,2430.89,0.210352,0.210023,-2.8828,2,0.0186707,11,-0.000605454,-2.54019,-0.315492,-0.187009,21.0693,0.210023,
2,0,0,1,0,2430.91,0.208849,0.208549,-2.91546,2,0.0186162,11,-0.000608014,-2.53529,-0.294466,-0.200363,22.8888,0.208549,
2,0,0,1,0,2430.93,0.207345,0.207042,-2.9562,2,0.0185609,11,-0.000612056,-2.52927,-0.255811,-0.230639,26.6333,0.207042,
2,0,0,1,0,2430.94,0.205856,0.205542,-3.01267,2,0.0185053,11,-0.000619232,-2.52105,-0.302659,-0.194939,22.7788,0.2055423,
2,0,0,1,0,2430.96,0.204353,0.204036,-3.04731,2,0.0184485,11,-0.000621763,-2.51608,-0.344344,-0.17134,20.3653,0.204036,
2,0,0,1,0,2430.98,0.202849,0.202564,-3.07828,2,0.018391,11,-0.00062355,-2.51169,-0.255194,-0.231196,27.8214,0.202564,
2,0,0,1,0,2431,0.20136,0.201067,-3.12712,2,0.0183334,11,-0.00062876,-2.50486,-0.21851,-0.270011,32.9169,0.201067,
2,0,0,1,0,2431.02,0.199856,0.199581,-3.17518,2,0.0182742,11,-0.000633706,-2.49823,-0.216659,-0.272317,33.6915,0.199581,
2,0,0,1,0,2431.04,0.19836,0.198072,-3.2267,2,0.0182144,11,-0.000639118,-2.49124,-0.212182,-0.278064,34.955,0.198072,
2,0,0,1,0,2431.06,0.196863,0.196532,-3.26215,2,0.0181538,11,-0.000641115,-2.4865,-0.191925,-0.307411,39.2362,0.196532,
2,0,0,1,0,2431.08,0.19536,0.195084,-3.32213,2,0.0180918,11,-0.000648096,-2.47858,-0.17755,-0.332301,43.1841,0.1950845,
2,0,0,1,0,2431.09,0.193872,0.193544,-3.39158,2,0.0180294,11,-0.00065642,-2.4696,-0.170378,-0.346289,45.7364,0.193544,
2,0,0,1,0,2431.11,0.192369,0.192051,-3.44469,2,0.0179651,11,-0.000661556,-2.46285,-0.185058,-0.318819,42.838,0.192051,
2,0,0,1,0,2431.13,0.190865,0.190522,-3.50075,2,0.0178996,11,-0.000666969,-2.45584,-0.182195,-0.323829,44.4161,0.190522,
2,0,0,1,0,2431.15,0.189376,0.189022,-3.57242,2,0.0178337,11,-0.000675265,-2.44704,-0.180453,-0.326955,45.7631,0.1890219,
2,0,0,1,0,2431.17,0.187872,0.187564,-3.64873,2,0.0177657,11,-0.000684371,-2.43786,-0.17255,-0.34193,48.8158,0.1875641,
2,0,0,1,0,2431.19,0.186369,0.186073,-3.73528,2,0.0176962,11,-0.000695033,-2.42768,-0.166601,-0.35414,51.5738,0.186073,
2,0,0,1,0,2431.21,0.18488,0.184579,-3.82168,2,0.0176259,11,-0.000705402,-2.41775,-0.166161,-0.355077,52.9859,0.184579,
2,0,0,1,0,2431.23,0.183376,0.183094,-3.90169,2,0.0175534,11,-0.000714376,-2.40875,-0.155858,-0.37855,57.8119,0.183094,
2,0,0,1,0,2431.24,0.18188,0.181575,-4.01585,2,0.0174794,11,-0.000729178,-2.39622,-0.136545,-0.432093,67.5766,0.181575,
2,0,0,1,0,2431.26,0.180383,0.180092,-4.11416,2,0.0174035,11,-0.000740929,-2.38572,-0.131846,-0.447491,71.8132,0.180092,
2,0,0,1,0,2431.28,0.17888,0.178584,-4.22933,2,0.0173252,11,-0.000755289,-2.37373,-0.130032,-0.453734,74.7791,0.178584,
2,0,0,1,0,2431.3,0.177392,0.177128,-4.33387,2,0.0172456,11,-0.000767649,-2.36312,-0.120767,-0.488546,82.9216,0.177128,
2,0,0,1,0,2431.32,0.175889,0.175609,-4.4672,2,0.017163,11,-0.00078448,-2.34996,-0.111114,-0.530986,92.546,0.175609,
2,0,0,1,0,2431.34,0.174385,0.174106,-4.60261,2,0.0170777,11,-0.000801339,-2.337,-0.106179,-0.555666,99.9884,0.174106,
2,0,0,1,0,2431.36,0.172896,0.172617,-4.75524,2,0.0169907,11,-0.000820834,-2.32283,-0.105102,-0.561362,104.197,0.172617,
2,0,0,1,0,2431.38,0.171392,0.171066,-4.90238,2,0.0168998,11,-0.00083863,-2.30959,-0.0997161,-0.59168,113.621,0.171066,
2,0,0,1,0,2431.39,0.169889,0.169584,-5.0788,2,0.0168058,11,-0.000861283,-2.29424,-0.0949146,-0.621611,123.705,0.169584,
2,0,0,1,0,2431.41,0.1684,0.168123,-5.2746,2,0.0167095,11,-0.000886781,-2.27781,-0.0917877,-0.642787,132.476,0.168123,
2,0,0,1,0,2431.43,0.166896,0.166571,-5.47131,2,0.0166084,11,-0.000911362,-2.26191,-0.0900893,-0.654905,140.076,0.166571,
2,0,0,1,0,2431.45,0.165392,0.165083,-5.68659,2,0.0165033,11,-0.00093876,-2.24515,-0.089048,-0.662564,147.455,0.165083,
2,0,0,1,0,2431.47,0.163905,0.163607,-5.9087,2,0.0163953,11,-0.000966704,-2.22851,-0.0863043,-0.683627,158.352,0.163607,
2,0,0,1,0,2431.49,0.162401,0.162138,-6.17541,2,0.0162816,11,-0.00100127,-2.20933,-0.0833551,-0.707815,170.77,0.162138,
2,0,0,1,0,2431.51,0.160905,0.160581,-6.43884,2,0.0161637,11,-0.00103395,-2.19119,-0.0827257,-0.7132,179.517,0.160581,
2,0,0,1,0,2431.53,0.159409,0.159128,-6.73499,2,0.0160405,11,-0.00107173,-2.17166,-0.0797344,-0.739957,194.258,0.159128,
2,0,0,1,0,2431.54,0.157905,0.157586,-7.02707,2,0.0159112,11,-0.00110737,-2.15323,-0.0812004,-0.726597,199.094,0.157586,
2,0,0,1,0,2431.56,0.156416,0.156128,-7.3319,2,0.0157777,11,-0.00114471,-2.13478,-0.0778495,-0.757873,217.384,0.156128,
2,0,0,1,0,2431.58,0.154912,0.154633,-7.67865,2,0.0156369,11,-0.00118737,-2.11472,-0.0752263,-0.7843,235.182,0.154633,
2,0,0,1,0,2431.6,0.153409,0.153139,-8.04044,2,0.0154891,11,-0.00123131,-2.09472,-0.0770488,-0.765749,239.705,0.153139,
2,0,0,1,0,2431.62,0.151919,0.151618,-8.39295,2,0.0153363,11,-0.00127252,-2.07609,-0.0788935,-0.747844,244.717,0.151618,
2,0,0,1,0,2431.64,0.150416,0.150132,-8.75531,2,0.0151752,11,-0.00131445,-2.05773,-0.0808214,-0.730005,249.416,0.150132,
2,0,0,1,0,2431.66,0.148912,0.148638,-9.13379,2,0.015007,11,-0.00135762,-2.03935,-0.0836555,-0.705273,251.057,0.148638,
2,0,0,1,0,2431.68,0.147425,0.147179,-9.50492,2,0.0148336,11,-0.00139893,-2.02205,-0.0858388,-0.687335,254.541,0.147179,
2,0,0,1,0,2431.69,0.145921,0.145654,-9.86462,2,0.0146513,11,-0.00143682,-2.00592,-0.0916334,-0.64387,247.804,0.145654,
2,0,0,1,0,2431.71,0.144425,0.144143,-10.237,2,0.0144631,11,-0.00147559,-1.98983,-0.0969799,-0.608373,243.089,0.144143,
2,0,0,1,0,2431.73,0.142929,0.142642,-10.602,2,0.0142681,11,-0.00151229,-1.97461,-0.10091,-0.58468,241.751,0.142642,
2,0,0,1,0,2431.75,0.141425,0.141145,-10.9569,2,0.0140652,11,-0.00154652,-1.96031,-0.111121,-0.530952,226.712,0.141145,
2,0,0,1,0,2431.77,0.139936,0.139627,-11.3028,2,0.013858,11,-0.00157818,-1.94681,-0.119974,-0.491775,216.615,0.139627,
2,0,0,1,0,2431.79,0.138432,0.138131,-11.6227,2,0.0136425,11,-0.00160545,-1.93469,-0.129839,-0.454407,205.857,0.138131,
2,0,0,1,0,2431.81,0.136929,0.136655,-11.9365,2,0.013421,11,-0.00163118,-1.92312,-0.140327,-0.420446,195.338,0.136655,
2,0,0,1,0,2431.83,0.135439,0.135125,-12.2266,2,0.0131962,11,-0.00165212,-1.91269,-0.160321,-0.368012,174.995,0.135125,
2,0,0,1,0,2431.84,0.133936,0.133633,-12.4841,2,0.012964,11,-0.00166828,-1.90364,-0.184154,-0.320384,155.544,0.133633,
2,0,0,1,0,2431.86,0.132432,0.132133,-12.7005,2,0.0127274,11,-0.00167816,-1.89618,-0.204597,-0.288372,142.603,0.132133,
2,0,0,1,0,2431.88,0.130945,0.130616,-12.8958,2,0.0124894,11,-0.0016844,-1.88955,-0.233803,-0.252349,126.748,0.130616,
2,0,0,1,0,2431.9,0.129441,0.129159,-13.0709,2,0.0122453,11,-0.00168823,-1.88369,-0.280136,-0.210612,107.15,0.129159,
2,0,0,1,0,2431.92,0.127945,0.127616,-13.2092,2,0.0119995,11,-0.00168571,-1.87912,-0.392083,-0.150478,77.3203,0.127616,
2,0,0,1,0,2431.94,0.126448,0.126199,-13.292,2,0.0117517,11,-0.00167743,-1.87641,-0.56929,-0.103638,53.6508,0.126199,
2,0,0,1,0,2431.96,0.124945,0.124642,-13.3527,2,0.0115011,11,-0.0016643,-1.87443,-1.03802,-0.0568391,29.5456,0.124642,
2,0,0,1,0,2431.97,0.123456,0.123141,-13.3737,2,0.0112525,11,-0.00164685,-1.87375,-15.4279,-0.00382425,1.99028,0.123141,
2,0,0,1,0,2431.99,0.121952,0.121644,-13.3502,2,0.0110011,11,-0.00162396,-1.87451,0.945879,0.0623758,-32.3846,0.121644,
2,0,0,1,0,2432.01,0.120449,0.120209,-13.271,2,0.0107506,11,-0.0015953,-1.8771,0.487869,0.120934,-62.5154,0.120209,
2,0,0,1,0,2432.03,0.118959,0.118667,-13.1588,2,0.0105046,11,-0.00156152,-1.88078,0.332822,0.177272,-90.8819,0.1186674,
2,0,0,1,0,2432.05,0.117456,0.117199,-13.0069,2,0.0102585,11,-0.0015244,-1.88582,0.24985,0.236142,-119.51,0.1171987,
2,0,0,1,0,2432.07,0.115952,0.11565,-12.81,2,0.0100156,11,-0.00148147,-1.89245,0.187927,0.313951,-156.392,0.11565,
2,0,0,1,0,2432.09,0.114465,0.114123,-12.5582,2,0.00977962,11,-0.00143319,-1.90107,0.155488,0.379451,-185.392,0.114123,
2,0,0,1,0,2432.11,0.112961,0.112648,-12.2594,2,0.00954634,11,-0.00138099,-1.91153,0.135111,0.436679,-208.546,0.112648,
2,0,0,1,0,2432.12,0.111465,0.111185,-11.9543,2,0.00931996,11,-0.00132914,-1.92248,0.124162,0.475186,-220.944,0.111185,
2,0,0,1,0,2432.14,0.109968,0.109676,-11.6053,2,0.00909977,11,-0.00127282,-1.93534,0.111211,0.530521,-239.682,0.109676,
2,0,0,1,0,2432.16,0.108465,0.108134,-11.2413,2,0.00888508,11,-0.00121556,-1.94918,0.103415,0.570514,-249.727,0.108134,
2,0,0,1,0,2432.18,0.106976,0.106701,-10.8652,2,0.00867969,11,-0.00115932,-1.96396,0.0989236,0.59642,-252.688,0.106701,
2,0,0,1,0,2432.2,0.105472,0.105129,-10.4871,2,0.00847919,11,-0.0011025,-1.97934,0.099447,0.593281,-242.838,0.105129,
2,0,0,1,0,2432.22,0.103968,0.103642,-10.1331,2,0.0082855,11,-0.00105022,-1.99426,0.102004,0.578406,-228.746,0.103642,
2,0,0,1,0,2432.24,0.102479,0.10215,-9.79192,2,0.00810033,11,-0.00100025,-2.00913,0.102687,0.574562,-219.543,0.10215,
2,0,0,1,0,2432.26,0.100976,0.100709,-9.45006,2,0.00791944,11,-0.000951709,-2.02457,0.105968,0.556772,-205.936,0.100709,
2,0,0,1,0,2432.27,0.0994721,0.0991595,-9.14875,2,0.0077446,11,-0.000907185,-2.03864,0.113162,0.521377,-186.846,0.0991595,
2,0,0,1,0,2432.29,0.0979846,0.0977184,-8.88404,2,0.0075768,11,-0.000868134,-2.05139,0.123537,0.477589,-166.13,0.09771838,
2,0,0,1,0,2432.31,0.0964811,0.0961907,-8.64253,2,0.00741189,11,-0.000831331,-2.06336,0.127454,0.462912,-156.546,0.0961907,
2,0,0,1,0,2432.33,0.0949847,0.0946561,-8.43053,2,0.00725207,11,-0.000798002,-2.07414,0.141846,0.415944,-137.347,0.0946561,
2,0,0,1,0,2432.35,0.0934883,0.0931838,-8.24308,2,0.00709616,11,-0.000768121,-2.08391,0.157032,0.37572,-121.355,0.0931838,
2,0,0,1,0,2432.37,0.0919847,0.0916476,-8.08195,2,0.00694259,11,-0.000740692,-2.09248,0.177744,0.331939,-104.978,0.0916476,
2,0,0,1,0,2432.39,0.0904955,0.090229,-7.94953,2,0.00679345,11,-0.000717278,-2.09966,0.18903,0.31212,-96.9316,0.090229,
2,0,0,1,0,2432.41,0.0889919,0.0886713,-7.82422,2,0.00664528,11,-0.000693784,-2.10656,0.200127,0.294813,-90.0029,0.0886713,
2,0,0,1,0,2432.42,0.0874884,0.0871743,-7.6978,2,0.00649957,11,-0.000671051,-2.11363,0.226271,0.260749,-78.3889,0.0871743,
2,0,0,1,0,2432.44,0.0860009,0.0856518,-7.59186,2,0.00635757,11,-0.000650257,-2.11965,0.259593,0.227278,-67.3303,0.0856518,
2,0,0,1,0,2432.46,0.0844973,0.0842039,-7.49036,2,0.0062159,11,-0.000630717,-2.1255,0.282139,0.209117,-61.1281,0.0842039,
2,0,0,1,0,2432.48,0.0829938,0.0827161,-7.4016,2,0.006076,11,-0.000612231,-2.13067,0.283767,0.207917,-60.0112,0.0827161,
2,0,0,1,0,2432.5,0.0815045,0.0811663,-7.30559,2,0.0059393,11,-0.000592968,-2.13634,0.300479,0.196353,-56.0013,0.0811663,
2,0,0,1,0,2432.52,0.080001,0.0797081,-7.21636,2,0.00580282,11,-0.000575203,-2.14168,0.333683,0.176814,-49.8524,0.0797081,
2,0,0,1,0,2432.54,0.0785046,0.078165,-7.14164,2,0.00566856,11,-0.000558226,-2.1462,0.334787,0.176231,-49.1016,0.078165,
2,0,0,1,0,2432.56,0.0770082,0.0766855,-7.06114,2,0.00553571,11,-0.000541487,-2.15113,0.30076,0.196169,-53.9956,0.0766855,
2,0,0,1,0,2432.57,0.0755046,0.0751974,-6.96052,2,0.00540376,11,-0.000523413,-2.15736,0.290651,0.202993,-55.2643,0.0751974,
2,0,0,1,0,2432.59,0.0740154,0.0736905,-6.88583,2,0.00527488,11,-0.000507421,-2.16204,0.288003,0.204859,-55.1211,0.0736905,
2,0,0,1,0,2432.61,0.0725118,0.0721724,-6.80166,2,0.00514613,11,-0.000490892,-2.16738,0.283253,0.208294,-55.3168,0.0721724,
2,0,0,1,0,2432.63,0.0710083,0.0706948,-6.71978,2,0.00501886,11,-0.000475054,-2.17264,0.254722,0.231625,-60.685,0.0706948,
2,0,0,1,0,2432.65,0.0695208,0.0692364,-6.6252,2,0.00489463,11,-0.000458705,-2.1788,0.238541,0.247336,-64.039,0.06923636,
2,0,0,1,0,2432.67,0.0680173,0.0676944,-6.53537,2,0.00477086,11,-0.000442408,-2.18473,0.24247,0.243329,-62.1669,0.0676944,
2,0,0,1,0,2432.69,0.0665137,0.0662543,-6.4506,2,0.00464872,11,-0.00042738,-2.1904,0.235731,0.250285,-63.0064,0.06625431,
2,0,0,1,0,2432.71,0.0650244,0.0647318,-6.37422,2,0.00452944,11,-0.000412615,-2.19557,0.224703,0.262568,-65.12,0.0647318,
2,0,0,1,0,2432.72,0.0635209,0.063215,-6.2775,2,0.00441063,11,-0.000396832,-2.20221,0.217821,0.270865,-66.2718,0.063215,
2,0,0,1,0,2432.74,0.0620245,0.0617562,-6.17789,2,0.00429435,11,-0.000381523,-2.20916,0.218797,0.269657,-65.0078,0.0617562,
2,0,0,1,0,2432.76,0.0605281,0.0601866,-6.08926,2,0.00417976,11,-0.000366492,-2.21544,0.240954,0.24486,-58.1237,0.0601866,
2,0,0,1,0,2432.78,0.0590246,0.0587036,-6.00019,2,0.00406624,11,-0.000352233,-2.22183,0.237158,0.248779,-58.2006,0.0587036,
2,0,0,1,0,2432.8,0.0575353,0.0572318,-5.91231,2,0.00395554,11,-0.000338372,-2.22824,0.236264,0.249721,-57.5415,0.0572318,
2,0,0,1,0,2432.82,0.0560317,0.0557471,-5.81051,2,0.00384544,11,-0.000323919,-2.23579,0.249834,0.236156,-53.6661,0.0557471,
2,0,0,1,0,2432.84,0.0545282,0.0542136,-5.73417,2,0.00373691,11,-0.00031087,-2.24153,0.296601,0.198921,-44.5654,0.0542136,
2,0,0,1,0,2432.86,0.0530407,0.0526969,-5.66609,2,0.00363087,11,-0.000298585,-2.24672,0.299482,0.197007,-43.5592,0.0526969,
2,0,0,1,0,2432.87,0.0515372,0.0512203,-5.58926,2,0.00352496,11,-0.000286284,-2.25265,0.266804,0.221136,-48.2299,0.0512203,
2,0,0,1,0,2432.89,0.0500336,0.0497267,-5.5081,2,0.00342043,11,-0.0002739,-2.259,0.291383,0.202483,-43.6835,0.04972674,
2,0,0,1,0,2432.91,0.0485444,0.0482485,-5.45479,2,0.00331837,11,-0.000263185,-2.26322,0.304896,0.193509,-41.2782,0.0482485,
2,0,0,1,0,2432.93,0.0470408,0.0467082,-5.39574,2,0.00321621,11,-0.000252025,-2.26795,0.322859,0.182742,-38.5791,0.0467082,
2,0,0,1,0,2432.95,0.0455444,0.045298,-5.34862,2,0.00311566,11,-0.000242282,-2.27176,0.321252,0.183657,-38.3751,0.045298,
2,0,0,1,0,2432.97,0.044048,0.0437497,-5.30665,2,0.00301597,11,-0.000232164,-2.27518,0.356975,0.165277,-34.2279,0.0437497,
2,0,0,1,0,2432.99,0.0425445,0.0422193,-5.26073,2,0.00291673,11,-0.000222104,-2.27895,0.410585,0.143698,-29.5591,0.0422193,
2,0,0,1,0,2433,0.0410552,0.0407318,-5.22884,2,0.00281925,11,-0.00021298,-2.28159,0.531582,0.110989,-22.6415,0.04073184,
2,0,0,1,0,2433.02,0.0395517,0.0392219,-5.20378,2,0.00272125,11,-0.000204102,-2.28368,0.585568,0.100757,-20.4299,0.0392219,
2,0,0,1,0,2433.04,0.0380481,0.0377358,-5.17678,2,0.00262384,11,-0.00019535,-2.28594,0.576671,0.102311,-20.6353,0.0377358,
2,0,0,1,0,2433.06,0.0365606,0.0362337,-5.1368,2,0.0025281,11,-0.000186125,-2.28931,0.779973,0.0756437,-15.1731,0.0362337,
2,0,0,1,0,2433.08,0.0350571,0.0347739,-5.11766,2,0.00243178,11,-0.000177961,-2.29093,1.61743,0.0364777,-7.28358,0.0347739,
2,0,0,1,0,2433.1,0.0335535,0.0332428,-5.1009,2,0.00233575,11,-0.000169568,-2.29235,1.9327,0.0305273,-6.07601,0.0332428,
2,0,0,1,0,2433.12,0.0320643,0.0317703,-5.07886,2,0.00224106,11,-0.000161357,-2.29423,1.27472,0.0462848,-9.18236,0.0317703,
2,0,0,1,0,2433.14,0.0305607,0.0302491,-5.05428,2,0.00214568,11,-0.000152888,-2.29634,2.2087,0.0267125,-5.2851,0.03024915,
2,0,0,1,0,2433.15,0.0290643,0.0287206,-5.05268,2,0.00205107,11,-0.000145116,-2.29648,7.40477,0.00796783,-1.57423,0.0287206,
2,0,0,1,0,2433.17,0.0275679,0.0272535,-5.05492,2,0.0019565,11,-0.000137764,-2.29629,12.1134,0.00487066,-0.9607,0.0272535,
2,0,0,1,0,2433.19,0.0260644,0.025764,-5.04677,2,0.00186145,11,-0.000130025,-2.29699,3.07387,0.019194,-3.78175,0.025764,
2,0,0,1,0,2433.21,0.0245751,0.0242656,-5.03649,2,0.00176752,11,-0.000122213,-2.29787,4.96221,0.0118899,-2.34277,0.0242656,
2,0,0,1,0,2433.23,0.0230716,0.0227881,-5.04009,2,0.00167272,11,-0.000114854,-2.29756,4.73103,0.0124709,-2.45678,0.0227881,
2,0,0,1,0,2433.25,0.021568,0.0212635,-5.04404,2,0.00157783,11,-0.000107254,-2.29722,-10.6122,-0.00555963,1.09544,0.0212635,
2,0,0,1,0,2433.27,0.0200805,0.0197879,-5.05233,2,0.0014839,11,-9.99752e-05,-2.29651,5.32477,0.0110803,-2.18332,0.0197879,
2,0,0,1,0,2433.29,0.018577,0.0183008,-5.05853,2,0.00138883,11,-9.25753e-05,-2.29598,-17.1584,-0.00343855,0.678708,0.0183008,
2,0,0,1,0,2433.3,0.0170735,0.0168182,-5.0645,2,0.00129376,11,-8.51755e-05,-2.29546,-3.20551,-0.0184058,3.64193,0.0168182,
2,0,0,1,0,2433.32,0.0155842,0.0152956,-5.08431,2,0.00119951,11,-7.77675e-05,-2.29377,-1.57115,-0.0375522,7.43674,0.0152956,
2,0,0,1,0,2433.34,0.0140806,0.0137887,-5.09966,2,0.00110387,11,-7.03178e-05,-2.29246,-1.3073,-0.0451311,8.95684,0.0137887,
2,0,0,1,0,2433.36,0.0125842,0.0122466,-5.10807,2,0.00100854,11,-6.25566e-05,-2.29174,-1.99499,-0.0295741,5.88799,0.0122466,
2,0,0,1,0,2433.38,0.0110878,0.0108121,-5.10761,2,0.000913119,11,-5.52241e-05,-2.29178,-1.22586,-0.0481296,9.61428,0.0108121,
2,0,0,1,0,2433.4,0.00958429,0.00930593,-5.12458,2,0.000816941,11,-4.7689e-05,-2.29034,-0.74884,-0.0787885,15.7665,0.00930593,
2,0,0,1,0,2433.42,0.0080968,0.00778849,-5.13971,2,0.000721438,11,-4.00305e-05,-2.28906,-0.787796,-0.0748925,15.0375,0.00778849,
2,0,0,1,0,2433.44,0.00659326,0.00622674,-5.15558,2,0.000624571,11,-3.21024e-05,-2.28772,-0.864957,-0.0682115,13.7288,0.00622674,
2,0,0,1,0,2433.45,0.00508972,0.00482859,-5.16249,2,0.000527353,11,-2.49276e-05,-2.28714,-0.855361,-0.0689767,13.9328,0.00482859,
2,0,0,1,0,2433.47,0.00360044,0.00331388,-5.18777,2,0.000430979,11,-1.71916e-05,-2.28502,-0.412798,-0.142927,29.1955,0.00331388,
2,0,0,1,0,2433.49,0.0020969,0.00174701,-5.28446,2,0.000332915,11,-9.23203e-06,-2.277,-0.529161,-0.111497,22.7384,0.00174701,
2,0,0,1,0,2433.51,0.000593362,0.000271496,-5.27446,2,0.00023345,11,-1.432e-06,-2.27782, , , ,0.000271496,
2,0,0,1,0,2433.52,0.000199195,-0.000157355,-5.27053,2,0.000207612,11,8.29346e-07,-2.27815, , , ,-0.000157355,