File: Figure_codes/Fig_3-5/rawdata_trumpetplot_data/before 10th/20221101_1-115_002_TrumpetPlot_ParaChange_09_CV_C01_7.csv
mode,ox/red,error,control changes,counter inc.,time/s,control/V,Ewe/V,<I>/mA,cycle number,(Q-Qo)/C,I Range,P/W,log(|I|),Tafel slope mV/dec,alpha_eff,dI/d(E-IR),E-IR/V,
2,0,0,1,0,9805.69,2.44065e-05,-0.00013445,-4.36666,8,0.0000000E+000,11,5.87099e-07,-2.35985, , , ,-0.00013445,
2,0,0,1,0,9805.71,0.0013005,0.000908069,-1.11113,8,-5.29777e-05,11,-1.00898e-06,-2.95424, , , ,0.000908069,
2,1,0,1,0,9805.73,0.00279471,0.00247664,0.681533,8,-5.56244e-05,11,1.68791e-06,-3.16651,-0.0397343,-1.48486,924.073,0.00247664,
2,1,0,1,0,9805.76,0.00429425,0.00399176,1.49928,8,-2.71429e-05,11,5.98477e-06,-2.82412,0.00419824,14.0535,442.559,0.00399176,
2,1,0,1,0,9805.78,0.00579379,0.00554041,1.90894,8,1.61316e-05,11,1.05763e-05,-2.71921,0.0169322,3.48449,232.335,0.00554041,
2,1,0,1,0,9805.81,0.007288,0.00697055,2.14802,8,6.70987e-05,11,1.49729e-05,-2.66796,0.035557,1.65931,133.259,0.00697055,
2,1,0,1,0,9805.83,0.00878882,0.00847092,2.30238,8,0.000123017,11,1.95033e-05,-2.63782,0.0656142,0.899196,78.7868,0.00847092,
2,1,0,1,0,9805.86,0.0102896,0.00999464,2.39509,8,0.000181814,11,2.39381e-05,-2.62068,0.103963,0.56751,52.2018,0.00999464,
2,1,0,1,0,9805.88,0.0117838,0.0114856,2.45625,8,0.000242271,11,2.82115e-05,-2.60973,0.135387,0.435789,41.4882,0.0114856,
2,1,0,1,0,9805.91,0.0132834,0.0129638,2.49549,8,0.000304264,11,3.23512e-05,-2.60284,0.176262,0.334728,32.7135,0.0129638,
2,1,0,1,0,9805.93,0.0147816,0.0144996,2.54557,8,0.000367479,11,3.69098e-05,-2.59421,0.207825,0.283893,28.1721,0.01449959,
2,1,0,1,0,9805.96,0.0162811,0.0159765,2.59254,8,0.000431842,11,4.14199e-05,-2.58627,0.240648,0.245171,24.6759,0.0159765,
2,1,0,1,0,9805.98,0.0177753,0.0174618,2.62091,8,0.000496837,11,4.57658e-05,-2.58155,0.254854,0.231505,23.656,0.0174618,
2,1,0,1,0,9806.01,0.0192761,0.018981,2.64677,8,0.000562814,11,5.02384e-05,-2.57728,0.281596,0.20952,21.7062,0.018981,
2,1,0,1,0,9806.03,0.020777,0.0205236,2.68584,8,0.000629589,11,5.51229e-05,-2.57092,0.311447,0.189439,19.8246,0.0205236,
2,1,0,1,0,9806.06,0.0222712,0.0219692,2.72161,8,0.000696975,11,5.97915e-05,-2.56517,0.275198,0.214391,22.7105,0.0219692,
2,1,0,1,0,9806.08,0.0237707,0.0234817,2.7471,8,0.00076542,11,6.45067e-05,-2.56113,0.288519,0.204493,21.945,0.0234817,
2,1,0,1,0,9806.11,0.0252703,0.0249698,2.76958,8,0.000834622,11,6.91559e-05,-2.55759,0.293885,0.200759,21.8459,0.0249698,
2,1,0,1,0,9806.13,0.0267645,0.0264871,2.81392,8,0.000904336,11,7.45325e-05,-2.55069,0.27642,0.213443,23.4682,0.0264871,
2,1,0,1,0,9806.16,0.0282653,0.0280274,2.864,8,0.000975332,11,8.02704e-05,-2.54303,0.259138,0.227677,25.3122,0.0280274,
2,1,0,1,0,9806.18,0.0297648,0.029473,2.8933,8,0.00104732,11,8.52741e-05,-2.53861,0.255217,0.231175,26.047,0.029473,
2,1,0,1,0,9806.21,0.031259,0.0309629,2.91538,8,0.0011198,11,9.02688e-05,-2.5353,0.283815,0.207882,23.7593,0.0309629,
2,1,0,1,0,9806.23,0.0327585,0.0324419,2.96173,8,0.00119343,11,9.60842e-05,-2.52845,0.291601,0.202331,23.4025,0.0324419,
2,1,0,1,0,9806.26,0.034258,0.0339748,3.00918,8,0.00126812,11,0.000102236,-2.52155,0.239358,0.246493,28.8937,0.0339748,
2,1,0,1,0,9806.28,0.0357576,0.03545,3.04504,8,0.00134388,11,0.000107946,-2.51641,0.241915,0.243887,28.9851,0.03545,
2,1,0,1,0,9806.31,0.0372518,0.0369191,3.08468,8,0.00142038,11,0.000113884,-2.51079,0.261065,0.225997,27.2925,0.0369191,
2,1,0,1,0,9806.33,0.0387526,0.0384249,3.1313,8,0.00149818,11,0.00012032,-2.50428,0.241792,0.244012,29.8856,0.0384249,
2,1,0,1,0,9806.36,0.0402534,0.0399479,3.18425,8,0.0015772,11,0.000127204,-2.49699,0.22049,0.267586,33.2025,0.0399479,
2,1,0,1,0,9806.38,0.0417476,0.0414591,3.24015,8,0.00165726,11,0.000134334,-2.48943,0.217349,0.271453,34.234,0.0414591,
2,1,0,1,0,9806.41,0.0432472,0.0429686,3.28024,8,0.00173885,11,0.000140947,-2.48409,0.238252,0.247637,31.7448,0.0429686,
2,1,0,1,0,9806.43,0.0447467,0.0444218,3.32871,8,0.00182154,11,0.000147867,-2.47772,0.230168,0.256334,33.394,0.0444218,
2,1,0,1,0,9806.46,0.0462463,0.0459609,3.39246,8,0.0019056,11,0.00015592,-2.46949,0.198329,0.297486,39.2956,0.0459609,
2,1,0,1,0,9806.48,0.0477391,0.0474542,3.44064,8,0.00199079,11,0.000163273,-2.46336,0.190638,0.309487,41.6135,0.0474542,
2,1,0,1,0,9806.51,0.0492399,0.0489061,3.49572,8,0.00207774,11,0.000170962,-2.45646,0.212944,0.277068,37.8736,0.0489061,
2,1,0,1,0,9806.53,0.0507408,0.0504314,3.55332,8,0.0021661,11,0.000179199,-2.44937,0.224748,0.262516,36.4791,0.0504314,
2,1,0,1,0,9806.56,0.052235,0.0519066,3.62571,8,0.00225553,11,0.000188198,-2.44061,0.195627,0.301594,42.6198,0.0519066,
2,1,0,1,0,9806.58,0.0537345,0.0534153,3.68918,8,0.00234697,11,0.000197059,-2.43307,0.188247,0.313419,45.0452,0.0534153,
2,1,0,1,0,9806.61,0.0552341,0.0549296,3.74473,8,0.00244008,11,0.000205697,-2.42658,0.210933,0.27971,40.9093,0.0549296,
2,1,0,1,0,9806.63,0.0567283,0.0564318,3.8083,8,0.00253432,11,0.000214909,-2.41927,0.228036,0.258732,38.5017,0.0564318,
2,1,0,1,0,9806.66,0.0582291,0.0579156,3.8794,8,0.00263044,11,0.000224678,-2.41124,0.208473,0.283011,42.8063,0.0579156,
2,1,0,1,0,9806.68,0.0597299,0.059426,3.94212,8,0.00272824,11,0.000234265,-2.40427,0.199344,0.29597,45.4832,0.05942601,
2,1,0,1,0,9806.71,0.0612228,0.0609171,4.00328,8,0.00282731,11,0.000243868,-2.39758,0.215523,0.273753,42.7782,0.0609171,
2,1,0,1,0,9806.73,0.0627223,0.0624356,4.07051,8,0.00292839,11,0.000254145,-2.39035,0.23106,0.255345,40.5714,0.0624356,
2,1,0,1,0,9806.76,0.0642218,0.0639257,4.14274,8,0.00303103,11,0.000264828,-2.38271,0.218703,0.269772,43.5619,0.0639257,
2,1,0,1,0,9806.78,0.0657214,0.0654147,4.20035,8,0.00313534,11,0.000274765,-2.37671,0.206205,0.286123,46.891,0.0654147,
2,1,0,1,0,9806.81,0.0672156,0.0669386,4.26795,8,0.00324098,11,0.000285691,-2.36978,0.221304,0.266601,44.3858,0.0669386,
2,1,0,1,0,9806.83,0.0687164,0.0683802,4.33803,8,0.00334868,11,0.000296636,-2.36271,0.260295,0.226666,38.3138,0.0683802,
2,1,0,1,0,9806.86,0.0702172,0.0699152,4.39765,8,0.00345784,11,0.000307463,-2.35678,0.253642,0.232612,39.8751,0.06991525,
2,1,0,1,0,9806.88,0.0717114,0.0714061,4.45956,8,0.00356812,11,0.00031844,-2.35071,0.22457,0.262724,45.6446,0.0714061,
2,1,0,1,0,9806.91,0.073211,0.0729068,4.51085,8,0.00368043,11,0.000328872,-2.34574,0.249303,0.236659,41.7418,0.07290677,
2,1,0,1,0,9806.93,0.0747105,0.0744335,4.5748,8,0.00379425,11,0.000340519,-2.33963,0.288444,0.204546,36.5388,0.0744335,
2,1,0,1,0,9806.96,0.0762101,0.0758952,4.63071,8,0.00390952,11,0.000351448,-2.33435,0.286061,0.20625,37.2874,0.0758952,
2,1,0,1,0,9806.98,0.0777042,0.0773879,4.69232,8,0.0040257,11,0.000363129,-2.32861,0.267632,0.220452,40.3834,0.0773879,
2,1,0,1,0,9807.01,0.0792037,0.078924,4.74601,8,0.0041438,11,0.000374574,-2.32367,0.277809,0.212376,39.3751,0.078924,
2,1,0,1,0,9807.03,0.0807046,0.0803957,4.80841,8,0.00426342,11,0.000386575,-2.318,0.339124,0.173978,32.5918,0.0803957,
2,1,0,1,0,9807.06,0.0821988,0.0819658,4.86087,8,0.00438394,11,0.000398425,-2.31329,0.338249,0.174428,33.0468,0.0819658,
2,1,0,1,0,9807.08,0.0836983,0.0834502,4.90929,8,0.0045061,11,0.000409681,-2.30898,0.304974,0.193459,37.0921,0.0834502,
2,1,0,1,0,9807.11,0.0851979,0.0849305,4.95975,8,0.0046296,11,0.000421234,-2.30454,0.310209,0.190194,36.8733,0.0849305,
2,1,0,1,0,9807.13,0.0866921,0.086419,5.01459,8,0.00475397,11,0.000433356,-2.29976,0.362005,0.162981,31.8983,0.086419,
2,1,0,1,0,9807.16,0.0881929,0.0879281,5.0784,8,0.00488021,11,0.000446534,-2.29427,0.33939,0.173841,34.3765,0.0879281,
2,1,0,1,0,9807.18,0.0896937,0.0894024,5.12269,8,0.00500765,11,0.00045798,-2.2905,0.316149,0.186621,37.3118,0.0894024,
2,1,0,1,0,9807.21,0.0911879,0.0908958,5.17501,8,0.00513598,11,0.000470386,-2.28609,0.303233,0.19457,39.3264,0.0908958,
2,1,0,1,0,9807.23,0.0926861,0.0923923,5.23247,8,0.00526623,11,0.000483441,-2.28129,0.337487,0.174821,35.7149,0.0923923,
2,1,0,1,0,9807.26,0.0941856,0.0938892,5.29182,8,0.00539791,11,0.000496844,-2.2764,0.350863,0.168157,34.6824,0.0938892,
2,1,0,1,0,9807.28,0.0956852,0.0953852,5.33336,8,0.00553084,11,0.000508724,-2.273,0.306823,0.192293,40.1203,0.0953852,
2,1,0,1,0,9807.31,0.0971794,0.0969072,5.39042,8,0.00566455,11,0.000522371,-2.26838,0.277824,0.212365,44.8147,0.0969072,
2,1,0,1,0,9807.33,0.0986802,0.0983925,5.46107,8,0.00580045,11,0.000537329,-2.26272,0.285643,0.206551,44.0845,0.0983925,
2,1,0,1,0,9807.36,0.100181,0.0998725,5.54282,8,0.00593813,11,0.000553575,-2.25627,0.286452,0.205968,44.4783,0.0998725,
2,1,0,1,0,9807.38,0.101675,0.101346,5.60741,8,0.00607702,11,0.000568289,-2.25124,0.256089,0.230389,50.4326,0.101346,
2,1,0,1,0,9807.41,0.103175,0.10286,5.68017,8,0.00621822,11,0.00058426,-2.24564,0.237952,0.247949,55.1321,0.10286,
2,1,0,1,0,9807.43,0.104674,0.104414,5.76993,8,0.0063615,11,0.000602462,-2.23883,0.233061,0.253153,57.0543,0.104414,
2,1,0,1,0,9807.46,0.106169,0.105896,5.86835,8,0.00650648,11,0.000621434,-2.23148,0.231021,0.255388,58.4058,0.105896,
2,1,0,1,0,9807.48,0.107668,0.107429,5.95639,8,0.00665432,11,0.000639888,-2.22502,0.20454,0.288452,67.0683,0.107429,
2,1,0,1,0,9807.51,0.109169,0.108854,6.04865,8,0.00680446,11,0.000658421,-2.21834,0.200701,0.293969,69.5765,0.108854,
2,1,0,1,0,9807.53,0.110663,0.110354,6.15922,8,0.00695665,11,0.000679692,-2.21047,0.193539,0.304848,73.3823,0.110354,
2,1,0,1,0,9807.56,0.112163,0.11183,6.28291,8,0.0071123,11,0.000702616,-2.20184,0.192081,0.307162,75.2482,0.11183,
2,1,0,1,0,9807.58,0.113662,0.113356,6.40017,8,0.00727086,11,0.000725497,-2.19381,0.183928,0.320778,80.0702,0.113356,
2,1,0,1,0,9807.61,0.115162,0.114857,6.50735,8,0.0074323,11,0.000747413,-2.1866,0.182494,0.323299,82.2538,0.114857,
2,1,0,1,0,9807.63,0.116656,0.116377,6.63529,8,0.0075961,11,0.000772197,-2.17814,0.183023,0.322364,83.5468,0.116377,
2,1,0,1,0,9807.66,0.118157,0.117858,6.77772,8,0.00776387,11,0.000798809,-2.16892,0.18458,0.319644,84.3492,0.117858,
2,1,0,1,0,9807.68,0.119657,0.119348,6.89976,8,0.00793487,11,0.00082347,-2.16117,0.190831,0.309174,83.1433,0.119348,
2,1,0,1,0,9807.71,0.121152,0.120858,7.01227,8,0.00810822,11,0.000847493,-2.15414,0.195355,0.302014,82.7666,0.120858,
2,1,0,1,0,9807.73,0.122651,0.122375,7.13641,8,0.00828527,11,0.000873316,-2.14652,0.203229,0.290313,80.9038,0.122375,
2,1,0,1,0,9807.76,0.124151,0.123827,7.26824,8,0.00846545,11,0.000900007,-2.13857,0.208096,0.283523,80.3127,0.123827,
2,1,0,1,0,9807.78,0.125649,0.125377,7.38407,8,0.00864867,11,0.000925792,-2.1317,0.217754,0.270948,77.9464,0.125377,
2,1,0,1,0,9807.81,0.127143,0.126801,7.48416,8,0.00883402,11,0.000948999,-2.12586,0.228441,0.258273,75.5079,0.126801,
2,1,0,1,0,9807.83,0.128644,0.128356,7.60344,8,0.00902278,11,0.000975948,-2.11899,0.243995,0.241809,71.7617,0.1283561,
2,1,0,1,0,9807.86,0.130145,0.12982,7.7221,8,0.00921439,11,0.00100248,-2.11226,0.251695,0.234411,70.491,0.12982,
2,1,0,1,0,9807.88,0.131639,0.131339,7.82348,8,0.00940799,11,0.00102753,-2.1066,0.269564,0.218872,66.6982,0.131339,
2,1,0,1,0,9807.91,0.133139,0.1329,7.91117,8,0.00960485,11,0.00105139,-2.10176,0.288003,0.204859,63.2969,0.1329,
2,1,0,1,0,9807.93,0.134638,0.134328,8.00603,8,0.00980393,11,0.00107544,-2.09658,0.314074,0.187854,58.7418,0.134328,
2,1,0,1,0,9807.96,0.136132,0.135842,8.10309,8,0.0100046,11,0.00110074,-2.09135,0.315536,0.186984,59.0386,0.135842,
2,1,0,1,0,9807.98,0.137633,0.137337,8.19478,8,0.0102083,11,0.00112544,-2.08646,0.340025,0.173517,55.3408,0.137337,
2,1,0,1,0,9808.01,0.139133,0.138822,8.26175,8,0.010414,11,0.00114691,-2.08293,0.383395,0.153888,49.554,0.138822,
2,1,0,1,0,9808.03,0.140627,0.140347,8.32013,8,0.0106205,11,0.0011677,-2.07987,0.48249,0.122282,39.7006,0.140347,
2,1,0,1,0,9808.06,0.142126,0.141834,8.38475,8,0.0108295,11,0.00118924,-2.07651,0.516896,0.114143,37.2732,0.1418339,
2,1,0,1,0,9808.08,0.143626,0.143354,8.4351,8,0.0110399,11,0.0012092,-2.07391,0.642953,0.0917641,30.1516,0.143354,
2,1,0,1,0,9808.11,0.145125,0.144868,8.46056,8,0.0112512,11,0.00122566,-2.0726,1.62112,0.0363946,11.9977,0.144868,
2,1,0,1,0,9808.13,0.14662,0.146293,8.46032,8,0.0114623,11,0.00123769,-2.07261,-3.3623,-0.0175475,-5.78872,0.146293,
2,1,0,1,0,9808.16,0.14812,0.147863,8.45593,8,0.0116739,11,0.00125032,-2.07284,-0.895771,-0.0658651,-21.6684,0.147863,
2,1,0,1,0,9808.18,0.149621,0.14935,8.41853,8,0.0118849,11,0.00125731,-2.07476,-0.528041,-0.111734,-36.5554,0.14935,
2,1,0,1,0,9808.21,0.151116,0.150826,8.33941,8,0.0120936,11,0.0012578,-2.07886,-0.317927,-0.185577,-60.1602,0.150826,
2,1,0,1,0,9808.23,0.152615,0.152308,8.22672,8,0.012301,11,0.00125299,-2.08477,-0.219492,-0.268803,-86.0213,0.152308,
2,1,0,1,0,9808.26,0.154115,0.153796,8.08817,8,0.0125051,11,0.00124393,-2.09215,-0.165661,-0.35615,-111.97,0.153796,
2,1,0,1,0,9808.28,0.155614,0.155323,7.90805,8,0.0127051,11,0.0012283,-2.10193,-0.137808,-0.428132,-131.45,0.155323,
2,1,0,1,0,9808.31,0.157107,0.156846,7.6798,8,0.0128994,11,0.00120455,-2.11465,-0.109005,-0.541258,-161.435,0.156846,
2,1,0,1,0,9808.33,0.158608,0.158298,7.42159,8,0.0130884,11,0.00117482,-2.1295,-0.0900887,-0.65491,-188.856,0.158298,
2,1,0,1,0,9808.36,0.160109,0.159785,7.13,8,0.0132703,11,0.00113927,-2.14691,-0.079923,-0.73821,-204.464,0.159785,
2,1,0,1,0,9808.38,0.161603,0.161315,6.81584,8,0.0134439,11,0.0010995,-2.16648,-0.0751404,-0.785196,-208.011,0.1613151,
2,1,0,1,0,9808.41,0.163102,0.162803,6.48172,8,0.0136102,11,0.00105524,-2.18831,-0.0682972,-0.863872,-218.194,0.162803,
2,1,0,1,0,9808.43,0.164602,0.164302,6.1495,8,0.0137682,11,0.00101037,-2.21116,-0.0636344,-0.927171,-222.463,0.164302,
2,1,0,1,0,9808.46,0.166096,0.165776,5.82395,8,0.0139173,11,0.00096547,-2.23478,-0.0632097,-0.933401,-212.501,0.165776,
2,1,0,1,0,9808.48,0.167597,0.167264,5.52205,8,0.0140591,11,0.000923643,-2.2579,-0.0667435,-0.883982,-190.735,0.167264,
2,1,0,1,0,9808.51,0.169098,0.168796,5.23763,8,0.0141936,11,0.000884092,-2.28087,-0.0684218,-0.862298,-176.779,0.168796,
2,1,0,1,0,9808.53,0.170592,0.170333,4.98151,8,0.0143209,11,0.000848513,-2.30264,-0.0692498,-0.851989,-166.163,0.170333,
2,1,0,1,0,9808.56,0.17209,0.171816,4.74555,8,0.0144426,11,0.000815363,-2.32371,-0.074077,-0.796469,-148.136,0.171816,
2,1,0,1,0,9808.58,0.17359,0.173328,4.54361,8,0.0145587,11,0.000787534,-2.3426,-0.081832,-0.72099,-128.28,0.173328,
2,1,0,1,0,9808.61,0.175089,0.174762,4.36081,8,0.01467,11,0.000762106,-2.36043,-0.0886059,-0.66587,-113.747,0.174762,
2,1,0,1,0,9808.63,0.176583,0.176296,4.19833,8,0.0147767,11,0.000740147,-2.37692,-0.0923082,-0.639163,-105.039,0.176296,
2,1,0,1,0,9808.66,0.178084,0.177775,4.05538,8,0.01488,11,0.000720947,-2.39197,-0.0999912,-0.590052,-93.6127,0.177775,
2,1,0,1,0,9808.68,0.179585,0.179287,3.93302,8,0.0149798,11,0.000705138,-2.40527,-0.113844,-0.518252,-79.6379,0.179287,
2,1,0,1,0,9808.71,0.181079,0.180777,3.81235,8,0.0150763,11,0.000689187,-2.41881,-0.124423,-0.47419,-70.752,0.180777,
2,1,0,1,0,9808.73,0.182579,0.182324,3.70557,8,0.0151704,11,0.000675612,-2.43115,-0.123893,-0.476217,-69.0762,0.182324,
2,1,0,1,0,9808.76,0.184078,0.183775,3.61606,8,0.0152621,11,0.000664541,-2.44176,-0.130193,-0.453173,-64.0481,0.183775,
2,1,0,1,0,9808.78,0.185578,0.185348,3.52659,8,0.0153514,11,0.000653647,-2.45264,-0.150808,-0.391226,-53.9484,0.185348,
2,1,0,1,0,9808.81,0.187072,0.186799,3.44361,8,0.0154382,11,0.000643261,-2.46299,-0.165778,-0.355897,-47.948,0.186799,
2,1,0,1,0,9808.83,0.188573,0.188291,3.37695,8,0.0155236,11,0.000635847,-2.47148,-0.16907,-0.348968,-46.0341,0.188291,
2,1,0,1,0,9808.86,0.190072,0.189751,3.31667,8,0.0156073,11,0.000629341,-2.4793,-0.176232,-0.334786,-43.2517,0.189751,
2,1,0,1,0,9808.88,0.191567,0.191316,3.24948,8,0.0156891,11,0.000621679,-2.48819,-0.200035,-0.294948,-37.46,0.191316,
2,1,0,1,0,9808.91,0.193066,0.192749,3.19166,8,0.0157697,11,0.000615191,-2.49598,-0.232975,-0.253246,-31.6544,0.192749,
2,1,0,1,0,9808.93,0.194566,0.194269,3.14767,8,0.0158491,11,0.000611493,-2.50201,-0.230371,-0.256108,-31.5115,0.194269,
2,1,0,1,0,9808.96,0.19606,0.195768,3.10634,8,0.0159271,11,0.000608121,-2.50775,-0.222872,-0.264726,-32.0475,0.195768,
2,1,0,1,0,9808.98,0.197561,0.197221,3.06054,8,0.0160042,11,0.000603602,-2.5142,-0.259765,-0.227129,-27.1652,0.197221,
2,1,0,1,0,9809.01,0.199062,0.198779,3.01891,8,0.0160803,11,0.000600097,-2.52015,-0.301342,-0.195791,-23.1245,0.198779,
2,1,0,1,0,9809.03,0.200556,0.200255,2.98785,8,0.0161552,11,0.000598333,-2.52464,-0.294147,-0.20058,-23.4073,0.200255,
2,1,0,1,0,9809.06,0.202055,0.201739,2.95908,8,0.0162296,11,0.000596962,-2.52884,-0.29283,-0.201482,-23.2347,0.201739,
2,1,0,1,0,9809.08,0.203553,0.203267,2.92625,8,0.0163032,11,0.000594809,-2.53369,-0.381998,-0.154451,-17.6399,0.203267,
2,1,0,1,0,9809.11,0.205053,0.204774,2.88997,8,0.0163761,11,0.000591791,-2.53911,-0.539531,-0.109354,-12.4313,0.204774,
2,1,0,1,0,9809.13,0.206547,0.206223,2.86933,8,0.016448,11,0.00059172,-2.54222,-0.425279,-0.138732,-15.5913,0.206223,
2,1,0,1,0,9809.16,0.208048,0.207776,2.85964,8,0.0165199,11,0.000594166,-2.54369,-0.374405,-0.157584,-17.5061,0.207776,
2,1,0,1,0,9809.18,0.209549,0.20924,2.8361,8,0.0165911,11,0.000593427,-2.54728,-0.409992,-0.143905,-15.8969,0.20924,
2,1,0,1,0,9809.21,0.211043,0.210768,2.80413,8,0.0166613,11,0.000591023,-2.5522,-0.521071,-0.113228,-12.4327,0.2107683,
2,1,0,1,0,9809.23,0.212543,0.212272,2.79038,8,0.0167314,11,0.000592321,-2.55434,-0.485598,-0.1215,-13.2371,0.212272,
2,1,0,1,0,9809.26,0.214042,0.213768,2.77524,8,0.0168011,11,0.000593256,-2.5567,-0.483632,-0.121994,-13.2095,0.213768,
2,1,0,1,0,9809.28,0.215536,0.215248,2.76124,8,0.01687,11,0.00059435,-2.5589,-0.607909,-0.097054,-10.4376,0.215248,
2,1,0,1,0,9809.31,0.217036,0.216758,2.73045,8,0.0169388,11,0.000591846,-2.56377,-0.877209,-0.0672588,-7.20542,0.216758,
2,1,0,1,0,9809.33,0.218537,0.218251,2.72171,8,0.0170071,11,0.000594016,-2.56516,-0.756351,-0.0780061,-8.29924,0.218251,
2,1,0,1,0,9809.35,0.220031,0.219789,2.721,8,0.017075,11,0.000598046,-2.56527,-0.684883,-0.0861461,-9.11575,0.219789,
2,1,0,1,0,9809.38,0.22153,0.22125,2.70582,8,0.0171428,11,0.000598662,-2.5677,-0.692076,-0.0852507,-8.97371,0.22125,
2,1,0,1,0,9809.4,0.22303,0.222806,2.67626,8,0.0172103,11,0.000596287,-2.57247,-1.01018,-0.0584054,-6.13426,0.222806,
2,1,0,1,0,9809.43,0.224529,0.224207,2.66794,8,0.0172773,11,0.000598171,-2.57382,-0.645706,-0.0913729,-9.55411,0.224207,
2,1,0,1,0,9809.45,0.226024,0.225741,2.66606,8,0.0173439,11,0.000601838,-2.57413,-0.796041,-0.0741168,-7.70578,0.225741,
2,1,0,1,0,9809.48,0.227525,0.227251,2.65538,8,0.0174105,11,0.000603438,-2.57587,-0.749183,-0.0787524,-8.13822,0.2272515,
2,1,0,1,0,9809.5,0.229025,0.228725,2.64095,8,0.0174768,11,0.000604051,-2.57824,-0.967085,-0.0610081,-6.29154,0.228725,
2,1,0,1,0,9809.53,0.23052,0.230201,2.62694,8,0.0175425,11,0.000604726,-2.58055,-0.921278,-0.0640415,-6.59533,0.230201,
2,1,0,1,0,9809.55,0.232019,0.231772,2.62552,8,0.0176082,11,0.00060852,-2.58079,-0.900315,-0.0655326,-6.70751,0.231772,
2,1,0,1,0,9809.58,0.233519,0.233244,2.62051,8,0.0176739,11,0.000611216,-2.58161,-1.215,-0.0485596,-4.94752,0.233244,
2,1,0,1,0,9809.6,0.235018,0.234724,2.6059,8,0.0177393,11,0.000611667,-2.58404,-1.25388,-0.047054,-4.78631,0.234724,
2,1,0,1,0,9809.63,0.236511,0.236261,2.58396,8,0.0178041,11,0.000610489,-2.58771,-0.953,-0.0619097,-6.27948,0.236261,
2,1,0,1,0,9809.65,0.238012,0.237733,2.5917,8,0.0178689,11,0.000616134,-2.58641,-0.942669,-0.0625883,-6.31326,0.237733,
2,1,0,1,0,9809.68,0.239513,0.239234,2.58632,8,0.0179337,11,0.000618735,-2.58732,-1.11311,-0.0530046,-5.32873,0.239234,
2,1,0,1,0,9809.7,0.241007,0.240718,2.57177,8,0.017998,11,0.00061907,-2.58977,-1.32268,-0.0446063,-4.48174,0.2407178,
2,1,0,1,0,9809.73,0.242506,0.242243,2.55557,8,0.0180623,11,0.00061907,-2.59251,-0.896018,-0.0658469,-6.60643,0.242243,
2,1,0,1,0,9809.75,0.244006,0.243682,2.55762,8,0.0181263,11,0.000623246,-2.59216,-1.24373,-0.0474378,-4.73806,0.243682,
2,1,0,1,0,9809.78,0.2455,0.245203,2.56156,8,0.0181901,11,0.000628102,-2.59149,-1.70265,-0.0346519,-3.44869,0.2452026,
2,1,0,1,0,9809.8,0.247001,0.246713,2.54602,8,0.0182539,11,0.000628134,-2.59414,-2.01329,-0.0293052,-2.9069,0.246713,
2,1,0,1,0,9809.83,0.248502,0.248193,2.52826,8,0.0183176,11,0.000627497,-2.59718,-1.07867,-0.0546971,-5.41925,0.248193,
2,1,0,1,0,9809.85,0.249995,0.249707,2.52803,8,0.0183806,11,0.000631268,-2.59722,-1.19397,-0.0494151,-4.87915,0.249707,
2,1,0,1,0,9809.88,0.251494,0.251203,2.52774,8,0.0184439,11,0.000634977,-2.59727,-4.56863,-0.0129141,-1.27096,0.251203,
2,1,0,1,0,9809.9,0.252994,0.252696,2.5136,8,0.0185071,11,0.000635178,-2.5997,-1.39414,-0.0423201,-4.15652,0.252696,
2,1,0,1,0,9809.93,0.254493,0.254213,2.50328,8,0.01857,11,0.000636364,-2.60149,-1.07693,-0.0547856,-5.37265,0.254213,
2,1,0,1,0,9809.95,0.255988,0.255696,2.50553,8,0.0186324,11,0.000640654,-2.6011,-1.01871,-0.0579162,-5.66286,0.255696,
2,1,0,1,0,9809.98,0.257488,0.25725,2.50384,8,0.0186951,11,0.000644113,-2.60139,-2.50907,-0.0235147,-2.28702,0.25725,
2,1,0,1,0,9810,0.258989,0.258734,2.49659,8,0.0187577,11,0.000645953,-2.60265,-3.07157,-0.0192084,-1.86716,0.258734,
2,1,0,1,0,9810.03,0.260483,0.260207,2.48508,8,0.0188198,11,0.000646638,-2.60466,-0.899861,-0.0655657,-6.36711,0.2602075,
2,1,0,1,0,9810.05,0.261983,0.261665,2.47672,8,0.0188819,11,0.000648072,-2.60612,-0.896788,-0.0657904,-6.37007,0.261665,
2,1,0,1,0,9810.08,0.263482,0.26316,2.48044,8,0.0189439,11,0.000652752,-2.60547,-5.5244,-0.0106799,-1.02891,0.2631596,
2,1,0,1,0,9810.1,0.264982,0.264718,2.4669,8,0.0190058,11,0.000653033,-2.60785,-4.71394,-0.0125161,-1.20697,0.264718,
2,1,0,1,0,9810.13,0.266476,0.266191,2.45538,8,0.0190673,11,0.000653599,-2.60988,-0.97098,-0.0607633,-5.84347,0.266191,
2,1,0,1,0,9810.15,0.267976,0.26769,2.45151,8,0.0191288,11,0.000656244,-2.61057,-1.07008,-0.055136,-5.28757,0.26769,
2,1,0,1,0,9810.18,0.269477,0.269216,2.45495,8,0.0191902,11,0.000660911,-2.60996,-3.0323,-0.0194572,-1.85879,0.269216,
2,1,0,1,0,9810.2,0.270971,0.270688,2.45217,8,0.0192513,11,0.000663774,-2.61045,-3.19102,-0.0184894,-1.76359,0.2706885,
2,1,0,1,0,9810.23,0.27247,0.272178,2.4373,8,0.0193126,11,0.000663379,-2.61309,-0.856784,-0.0688622,-6.55406,0.272178,
2,1,0,1,0,9810.25,0.27397,0.273676,2.43102,8,0.0193736,11,0.000665314,-2.61421,-0.86412,-0.0682776,-6.48857,0.273676,
2,1,0,1,0,9810.28,0.275464,0.275179,2.43087,8,0.0194342,11,0.000668926,-2.61424,-1.0969,-0.0537879,-5.09978,0.275179,
2,1,0,1,0,9810.3,0.276965,0.276699,2.423,8,0.0194949,11,0.000670441,-2.61565,-4.63162,-0.0127385,-1.20455,0.276699,
2,1,0,1,0,9810.33,0.278466,0.278175,2.41573,8,0.0195555,11,0.000671997,-2.61695,-0.950149,-0.0620956,-5.85636,0.2781752,
2,1,0,1,0,9810.35,0.27996,0.279666,2.41521,8,0.0196158,11,0.00067545,-2.61705,-0.998772,-0.0590726,-5.55421,0.2796655,
2,1,0,1,0,9810.38,0.281458,0.281182,2.40684,8,0.019676,11,0.000676759,-2.61855,-1.6411,-0.0359516,-3.37462,0.281182,
2,1,0,1,0,9810.4,0.282958,0.282696,2.40253,8,0.0197362,11,0.000679185,-2.61933,6.20106,0.0095145,0.891989,0.282696,
2,1,0,1,0,9810.43,0.284457,0.284152,2.39101,8,0.0197963,11,0.000679411,-2.62142,-1.54228,-0.0382551,-3.5787,0.284152,
2,1,0,1,0,9810.45,0.285951,0.285655,2.39121,8,0.0198561,11,0.00068306,-2.62138,-0.705679,-0.0836074,-7.80205,0.2856549,
2,1,0,1,0,9810.48,0.287452,0.287158,2.38486,8,0.0199158,11,0.000684831,-2.62254,-1.34737,-0.043789,-4.06789,0.287158,
2,1,0,1,0,9810.5,0.288953,0.28864,2.37908,8,0.0199754,11,0.000686697,-2.62359,12.488,0.00472454,0.438103,0.28864,
2,1,0,1,0,9810.53,0.290447,0.290162,2.3703,8,0.0200347,11,0.000687771,-2.6252,-1.37631,-0.0428682,-3.9776,0.290162,
2,1,0,1,0,9810.55,0.291947,0.291668,2.36898,8,0.0200941,11,0.000690956,-2.62544,-0.821679,-0.0718042,-6.64008,0.291668,
2,1,0,1,0,9810.58,0.293446,0.293108,2.36126,8,0.0201533,11,0.000692104,-2.62686,-1.30635,-0.0451639,-4.16192,0.2931076,
2,1,0,1,0,9810.6,0.29494,0.294672,2.3583,8,0.0202122,11,0.000694926,-2.6274,-7.12554,-0.00828007,-0.762226,0.294672,
2,1,0,1,0,9810.63,0.29644,0.296175,2.35376,8,0.0202711,11,0.000697125,-2.62824,-2.40803,-0.0245014,-2.25007,0.2961753,
2,1,0,1,0,9810.65,0.297941,0.297714,2.35102,8,0.0203301,11,0.000699931,-2.62874,-0.792138,-0.074482,-6.81407,0.297714,
2,1,0,1,0,9810.68,0.29944,0.299154,2.34409,8,0.0203888,11,0.000701246,-2.63002,-0.00354726,-16.6326,-906.534,0.299154,
2,1,0,1,0,9810.69,0.299736,0.299469,1.65276,8,0.0204182,11,0.000494951,-2.78179,0.00156821,37.6225,2283.35,0.299469,
2,0,0,1,0,9810.72,0.298238,0.297969,-0.161972,8,0.0204316,11,-4.82626e-05,-3.79056,0.00741157,7.96053,817.81,0.297969,
2,0,0,1,0,9810.74,0.296744,0.296466,-0.645255,8,0.0204202,11,-0.000191296,-3.19027,-0.00596766,-9.88662,252.148,0.296466,
2,0,0,1,0,9810.77,0.295243,0.294898,-0.81891,8,0.0204015,11,-0.000241495,-3.08676,-0.0179948,-3.27872,90.8479,0.294898,
2,0,0,1,0,9810.79,0.293742,0.293387,-0.901392,8,0.02038,11,-0.000264457,-3.04509,-0.0387845,-1.52123,51.3671,0.293387,
2,0,0,1,0,9810.82,0.292248,0.291933,-0.948836,8,0.0203569,11,-0.000276997,-3.02281,-0.0596861,-0.988505,36.5223,0.291933,
2,0,0,1,0,9810.84,0.290748,0.290441,-1.00212,8,0.0203323,11,-0.000291056,-2.99908,-0.0734841,-0.802894,31.1883,0.2904413,
2,0,0,1,0,9810.87,0.289249,0.288908,-1.05084,8,0.0203066,11,-0.000303596,-2.97846,-0.0879032,-0.671193,27.3468,0.288908,
2,0,0,1,0,9810.89,0.287754,0.287403,-1.08961,8,0.0202799,11,-0.000313156,-2.96273,-0.0957952,-0.615897,25.9778,0.2874034,
2,0,0,1,0,9810.92,0.286254,0.285923,-1.11383,8,0.0202522,11,-0.00031847,-2.95318,-0.10768,-0.547918,24.0155,0.285923,
2,0,0,1,0,9810.94,0.284754,0.28442,-1.15646,8,0.0202237,11,-0.000328919,-2.93687,-0.121808,-0.48437,21.7965,0.28442,
2,0,0,1,0,9810.97,0.28326,0.282929,-1.19507,8,0.0201943,11,-0.000338119,-2.92261,-0.130742,-0.45127,20.833,0.282929,
2,0,0,1,0,9810.99,0.28176,0.281436,-1.21942,8,0.0201641,11,-0.000343188,-2.91385,-0.137745,-0.428327,20.2443,0.281436,
2,0,0,1,0,9811.02,0.280261,0.279947,-1.2348,8,0.0201332,11,-0.000345679,-2.9084,-0.163632,-0.360566,17.5301,0.279947,
2,0,0,1,0,9811.04,0.278761,0.278538,-1.26598,8,0.0201018,11,-0.000352622,-2.89757,-0.20418,-0.288961,14.3398,0.278538,
2,0,0,1,0,9811.07,0.277267,0.276951,-1.30149,8,0.0200697,11,-0.00036045,-2.88556,-0.190152,-0.310278,15.6686,0.276951,
2,0,0,1,0,9811.09,0.275766,0.275495,-1.3234,8,0.0200369,11,-0.000364589,-2.87831,-0.200816,-0.293801,15.0883,0.2754952,
2,0,0,1,0,9811.12,0.274265,0.273963,-1.33975,8,0.0200035,11,-0.000367042,-2.87298,-0.20837,-0.28315,14.8546,0.273963,
2,0,0,1,0,9811.14,0.272771,0.272497,-1.36038,8,0.0199698,11,-0.0003707,-2.86634,-0.23935,-0.246501,13.1498,0.272497,
2,0,0,1,0,9811.17,0.271272,0.270953,-1.39139,8,0.0199353,11,-0.000377001,-2.85655,-0.220191,-0.267949,14.4614,0.270953,
2,0,0,1,0,9811.19,0.269772,0.269444,-1.41425,8,0.0199002,11,-0.00038106,-2.84948,-0.199153,-0.296254,16.2468,0.269444,
2,0,0,1,0,9811.22,0.268273,0.267959,-1.42468,8,0.0198646,11,-0.000381756,-2.84628,-0.263311,-0.224069,12.5082,0.267959,
2,0,0,1,0,9811.24,0.26678,0.266441,-1.44083,8,0.0198288,11,-0.000383896,-2.84139,-0.303125,-0.194639,11.0098,0.266441,
2,0,0,1,0,9811.27,0.265279,0.264971,-1.46831,8,0.0197923,11,-0.000389059,-2.83318,-0.282734,-0.208677,11.8943,0.264971,
2,0,0,1,0,9811.29,0.263778,0.263453,-1.48654,8,0.0197553,11,-0.000391632,-2.82782,-0.230178,-0.256323,14.8113,0.263453,
2,0,0,1,0,9811.32,0.262284,0.261966,-1.49572,8,0.0197181,11,-0.000391827,-2.82515,-0.30267,-0.194932,11.4412,0.261966,
2,0,0,1,0,9811.34,0.260784,0.260541,-1.50917,8,0.0196803,11,-0.000393199,-2.82126,-0.413095,-0.142824,8.47441,0.260541,
2,0,0,1,0,9811.37,0.259285,0.259014,-1.53599,8,0.019642,11,-0.000397843,-2.81361,-0.304956,-0.19347,11.6013,0.259014,
2,0,0,1,0,9811.39,0.257791,0.257512,-1.55941,8,0.0196035,11,-0.000401567,-2.80704,-0.286975,-0.205593,12.448,0.257512,
2,0,0,1,0,9811.42,0.25629,0.255988,-1.57069,8,0.0195643,11,-0.000402076,-2.80391,-0.366309,-0.161066,9.84976,0.2559877,
2,0,0,1,0,9811.44,0.254789,0.254468,-1.5818,8,0.0195247,11,-0.000402518,-2.80085,-0.469481,-0.125671,7.76839,0.254468,
2,0,0,1,0,9811.47,0.253296,0.252962,-1.60137,8,0.0194851,11,-0.000405086,-2.79551,-0.370555,-0.15922,9.95065,0.252962,
2,0,0,1,0,9811.49,0.251797,0.251417,-1.61556,8,0.0194448,11,-0.000406179,-2.79168,-0.273017,-0.216103,13.6222,0.251417,
2,0,0,1,0,9811.52,0.250297,0.249993,-1.62616,8,0.0194041,11,-0.000406528,-2.78884,-0.352827,-0.167221,10.6451,0.249993,
2,0,0,1,0,9811.54,0.248797,0.24847,-1.64436,8,0.019363,11,-0.000408574,-2.784,-0.487898,-0.120927,7.78523,0.24847,
2,0,0,1,0,9811.57,0.247303,0.246984,-1.66044,8,0.0193218,11,-0.000410102,-2.77978,-0.426683,-0.138276,8.96454,0.246984,
2,0,0,1,0,9811.59,0.245802,0.245483,-1.68282,8,0.01928,11,-0.000413104,-2.77396,-0.312484,-0.18881,12.304,0.245483,
2,0,0,1,0,9811.62,0.244302,0.243999,-1.69212,8,0.0192377,11,-0.000412875,-2.77157,-0.314162,-0.187801,12.3914,0.243999,
2,0,0,1,0,9811.64,0.242807,0.242495,-1.7063,8,0.0191953,11,-0.00041377,-2.76794,-0.7055,-0.0836286,5.57494,0.242495,
2,0,0,1,0,9811.67,0.241308,0.241015,-1.71908,8,0.0191524,11,-0.000414322,-2.76471,-0.448983,-0.131408,8.82809,0.241015,
2,0,0,1,0,9811.69,0.239808,0.239496,-1.73651,8,0.0191092,11,-0.000415887,-2.76032,-0.297958,-0.198014,13.3764,0.239496,
2,0,0,1,0,9811.72,0.238309,0.237984,-1.74751,8,0.0190655,11,-0.000415881,-2.75758,-0.340522,-0.173264,11.8483,0.237984,
2,0,0,1,0,9811.74,0.236815,0.236515,-1.75905,8,0.0190217,11,-0.000416042,-2.75472,-0.592819,-0.0995245,6.84769,0.236515,
2,0,0,1,0,9811.77,0.235315,0.235012,-1.77567,8,0.0189773,11,-0.000417302,-2.75064,-0.4441,-0.132853,9.2014,0.2350115,
2,0,0,1,0,9811.79,0.233814,0.233496,-1.79608,8,0.0189327,11,-0.000419377,-2.74568,-0.367558,-0.160519,11.2273,0.233496,
2,0,0,1,0,9811.82,0.23232,0.231963,-1.80673,8,0.0188878,11,-0.000419095,-2.74311,-0.358288,-0.164672,11.6163,0.231963,
2,0,0,1,0,9811.84,0.230821,0.230516,-1.81499,8,0.0188423,11,-0.000418385,-2.74112,-0.743255,-0.0793805,5.63746,0.230516,
2,0,0,1,0,9811.87,0.229321,0.228998,-1.83765,8,0.0187964,11,-0.000420818,-2.73574,-0.63586,-0.0927877,6.65035,0.228998,
2,0,0,1,0,9811.89,0.227827,0.2275,-1.85167,8,0.0187506,11,-0.000421255,-2.73244,-0.41341,-0.142716,10.3093,0.2275,
2,0,0,1,0,9811.92,0.226326,0.226001,-1.8614,8,0.018704,11,-0.000420678,-2.73016,-0.337969,-0.174572,12.718,0.226001,
2,0,0,1,0,9811.94,0.224825,0.224509,-1.87671,8,0.0186571,11,-0.000421339,-2.7266,-0.562336,-0.104919,7.69766,0.224509,
2,0,0,1,0,9811.97,0.223331,0.223002,-1.89993,8,0.01861,11,-0.000423689,-2.72126,-0.570886,-0.103348,7.62498,0.2230022,
2,0,0,1,0,9811.99,0.221831,0.221536,-1.91252,8,0.0185625,11,-0.000423692,-2.71839,-0.351845,-0.167688,12.5015,0.221536,
2,0,0,1,0,9812.02,0.220333,0.220041,-1.92084,8,0.0185145,11,-0.000422664,-2.71651,-0.297381,-0.198399,14.9134,0.220041,
2,0,0,1,0,9812.04,0.218834,0.218521,-1.93862,8,0.018466,11,-0.00042363,-2.71251,-0.420486,-0.140314,10.6343,0.218521,
2,0,0,1,0,9812.07,0.217339,0.216964,-1.95966,8,0.0184173,11,-0.000425176,-2.70782,-0.778267,-0.0758094,5.79092,0.216964,
2,0,0,1,0,9812.09,0.215839,0.215562,-1.97189,8,0.0183681,11,-0.000425065,-2.70512,-0.409706,-0.144006,11.0854,0.215562,
2,0,0,1,0,9812.12,0.214338,0.214005,-1.9853,8,0.0183186,11,-0.000424865,-2.70217,-0.308685,-0.191134,14.8312,0.214005,
2,0,0,1,0,9812.14,0.212844,0.212527,-2.00071,8,0.0182688,11,-0.000425204,-2.69882,-0.410102,-0.143867,11.2673,0.212527,
2,0,0,1,0,9812.17,0.211344,0.211024,-2.02901,8,0.0182183,11,-0.000428169,-2.69272,-0.552711,-0.106747,8.4235,0.211024,
2,0,0,1,0,9812.19,0.209845,0.20953,-2.0386,8,0.0181674,11,-0.000427147,-2.69067,-0.375054,-0.157311,12.5189,0.20953,
2,0,0,1,0,9812.22,0.20835,0.208056,-2.05266,8,0.0181164,11,-0.000427069,-2.68768,-0.291788,-0.202201,16.2845,0.208056,
2,0,0,1,0,9812.24,0.206851,0.206576,-2.0772,8,0.0180646,11,-0.000429099,-2.68252,-0.353995,-0.166669,13.5228,0.206576,
2,0,0,1,0,9812.27,0.20535,0.204995,-2.10352,8,0.0180122,11,-0.000431212,-2.67705,-0.481598,-0.122509,9.99975,0.204995,
2,0,0,1,0,9812.29,0.203856,0.203511,-2.12377,8,0.0179595,11,-0.000432211,-2.67289,-0.414889,-0.142207,11.7489,0.203511,
2,0,0,1,0,9812.32,0.202356,0.202045,-2.12976,8,0.0179064,11,-0.000430307,-2.67167,-0.315296,-0.187126,15.6429,0.202045,
2,0,0,1,0,9812.34,0.200857,0.20057,-2.15228,8,0.0178527,11,-0.000431683,-2.6671,-0.335132,-0.17605,14.8376,0.20057,
2,0,0,1,0,9812.37,0.199357,0.199062,-2.17966,8,0.0177983,11,-0.000433889,-2.66161,-0.436807,-0.135071,11.4757,0.199062,
2,0,0,1,0,9812.39,0.197863,0.197523,-2.20832,8,0.0177437,11,-0.000436193,-2.65594,-0.328318,-0.179704,15.4113,0.197523,
2,0,0,1,0,9812.42,0.196362,0.196018,-2.2239,8,0.0176883,11,-0.000435926,-2.65288,-0.294443,-0.200378,17.4106,0.196018,
2,0,0,1,0,9812.44,0.194861,0.19456,-2.24733,8,0.0176323,11,-0.000437241,-2.64833,-0.29631,-0.199116,17.486,0.19456,
2,0,0,1,0,9812.46,0.193367,0.193042,-2.28312,8,0.0175758,11,-0.000440739,-2.64147,-0.302602,-0.194975,17.3249,0.193042,
2,0,0,1,0,9812.49,0.191868,0.19155,-2.31006,8,0.0175185,11,-0.000442492,-2.63638,-0.290489,-0.203106,18.2699,0.19155,
2,0,0,1,0,9812.51,0.190368,0.190061,-2.32545,8,0.0174604,11,-0.000441977,-2.63349,-0.247231,-0.238643,21.762,0.1900606,
2,0,0,1,0,9812.54,0.18887,0.188541,-2.35675,8,0.0174017,11,-0.000444344,-2.62769,-0.256206,-0.230284,21.2681,0.188541,
2,0,0,1,0,9812.56,0.187376,0.187051,-2.39791,8,0.0173424,11,-0.000448532,-2.62017,-0.267766,-0.220341,20.5993,0.187051,
2,0,0,1,0,9812.59,0.185875,0.185557,-2.43615,8,0.0172819,11,-0.000452046,-2.6133,-0.244467,-0.241341,22.8196,0.185557,
2,0,0,1,0,9812.61,0.184374,0.184069,-2.45689,8,0.0172206,11,-0.000452237,-2.60961,-0.208569,-0.282879,27.2213,0.1840692,
2,0,0,1,0,9812.64,0.18288,0.182578,-2.49554,8,0.0171588,11,-0.00045563,-2.60283,-0.223132,-0.264418,25.9206,0.182578,
2,0,0,1,0,9812.66,0.18138,0.181074,-2.55009,8,0.0170956,11,-0.000461755,-2.59344,-0.21913,-0.269246,26.7847,0.1810741,
2,0,0,1,0,9812.69,0.179881,0.179569,-2.59693,8,0.0170312,11,-0.000466328,-2.58554,-0.205207,-0.287514,29.0449,0.179569,
2,0,0,1,0,9812.71,0.178387,0.177987,-2.63832,8,0.016966,11,-0.000469588,-2.57867,-0.181684,-0.32474,33.477,0.177987,
2,0,0,1,0,9812.74,0.176886,0.176559,-2.68252,8,0.0168994,11,-0.000473624,-2.57146,-0.181399,-0.32525,34.1947,0.176559,
2,0,0,1,0,9812.76,0.175385,0.175022,-2.747,8,0.0168315,11,-0.000480786,-2.56114,-0.170349,-0.346348,37.0457,0.175022,
2,0,0,1,0,9812.79,0.173892,0.173561,-2.80774,8,0.0167623,11,-0.000487314,-2.55164,-0.149888,-0.393628,43.0254,0.173561,
2,0,0,1,0,9812.81,0.172392,0.172089,-2.86414,8,0.0166914,11,-0.000492888,-2.54301,-0.144311,-0.408839,45.7855,0.172089,
2,0,0,1,0,9812.84,0.170893,0.170605,-2.92026,8,0.016619,11,-0.00049821,-2.53458,-0.140979,-0.418503,48.0389,0.170605,
2,0,0,1,0,9812.86,0.169393,0.169028,-3.00582,8,0.0165447,11,-0.000508066,-2.52204,-0.133201,-0.442941,52.0412,0.169028,
2,0,0,1,0,9812.89,0.167899,0.167543,-3.09799,8,0.0164686,11,-0.000519046,-2.50892,-0.124685,-0.473192,57.0873,0.1675431,
2,0,0,1,0,9812.91,0.166398,0.16601,-3.17979,8,0.0163901,11,-0.000527876,-2.4976,-0.121067,-0.487332,60.5,0.16601,
2,0,0,1,0,9812.94,0.164898,0.164565,-3.26346,8,0.0163094,11,-0.000537052,-2.48632,-0.118746,-0.496859,63.6566,0.164565,
2,0,0,1,0,9812.96,0.163403,0.16309,-3.37659,8,0.0162266,11,-0.00055069,-2.47152,-0.109956,-0.536576,70.7751,0.16309,
2,0,0,1,0,9812.99,0.161904,0.1616,-3.49403,8,0.0161407,11,-0.000564633,-2.45667,-0.101629,-0.580545,79.1482,0.1616,
2,0,0,1,0,9813.01,0.160404,0.160119,-3.61194,8,0.0160518,11,-0.000578341,-2.44226,-0.0953691,-0.618649,87.3809,0.160119,
2,0,0,1,0,9813.04,0.158905,0.158652,-3.73617,8,0.0159597,11,-0.00059275,-2.42757,-0.0919925,-0.641356,94.0963,0.158652,
2,0,0,1,0,9813.06,0.157411,0.157098,-3.89256,8,0.0158646,11,-0.000611514,-2.40976,-0.0885563,-0.666243,101.568,0.157098,
2,0,0,1,0,9813.09,0.155911,0.155609,-4.05618,8,0.0157652,11,-0.000631177,-2.39188,-0.0831158,-0.709853,112.371,0.155609,
2,0,0,1,0,9813.11,0.15441,0.154065,-4.22973,8,0.0156615,11,-0.000651655,-2.37369,-0.0817218,-0.721962,119.198,0.154065,
2,0,0,1,0,9813.14,0.152916,0.152601,-4.40897,8,0.0155538,11,-0.000672815,-2.35566,-0.0802071,-0.735596,126.869,0.152601,
2,0,0,1,0,9813.16,0.151417,0.151086,-4.60337,8,0.0154411,11,-0.000695504,-2.33692,-0.0807874,-0.730312,131.484,0.151086,
2,0,0,1,0,9813.19,0.149917,0.14962,-4.8191,8,0.0153233,11,-0.000721035,-2.31703,-0.0756033,-0.78039,146.565,0.14962,
2,0,0,1,0,9813.21,0.148423,0.148128,-5.03431,8,0.0152006,11,-0.00074572,-2.29806,-0.0751131,-0.785482,154.369,0.148128,
2,0,0,1,0,9813.24,0.146922,0.146566,-5.26173,8,0.0150718,11,-0.000771193,-2.27887,-0.078834,-0.748408,153.849,0.146566,
2,0,0,1,0,9813.26,0.145421,0.14509,-5.50249,8,0.0149371,11,-0.000798354,-2.25944,-0.0802575,-0.735134,157.578,0.14509,
2,0,0,1,0,9813.29,0.143927,0.143608,-5.74932,8,0.0147971,11,-0.00082565,-2.24038,-0.0798866,-0.738547,165.365,0.143608,
2,0,0,1,0,9813.31,0.142429,0.142151,-5.9855,8,0.0146505,11,-0.000850846,-2.2229,-0.0815898,-0.723129,168.934,0.142151,
2,0,0,1,0,9813.34,0.140929,0.140581,-6.23099,8,0.0144976,11,-0.000875959,-2.20544,-0.0848604,-0.695259,168.944,0.140581,
2,0,0,1,0,9813.36,0.13943,0.139112,-6.47866,8,0.0143383,11,-0.000901258,-2.18852,-0.0932287,-0.632852,159.93,0.139112,
2,0,0,1,0,9813.39,0.137935,0.137605,-6.73132,8,0.0141738,11,-0.000926266,-2.1719,-0.0993908,-0.593616,155.563,0.137605,
2,0,0,1,0,9813.41,0.136435,0.136095,-6.96619,8,0.0140025,11,-0.000948063,-2.157,-0.102734,-0.574299,155.687,0.136095,
2,0,0,1,0,9813.44,0.134934,0.134637,-7.18573,8,0.0138255,11,-0.000967464,-2.14353,-0.115321,-0.511615,143.137,0.134637,
2,0,0,1,0,9813.46,0.13344,0.133111,-7.39557,8,0.0136437,11,-0.000984432,-2.13103,-0.12718,-0.463909,133.709,0.133111,
2,0,0,1,0,9813.49,0.13194,0.131627,-7.5978,8,0.0134563,11,-0.00100007,-2.11931,-0.136537,-0.432116,127.865,0.131627,
2,0,0,1,0,9813.51,0.13044,0.130131,-7.77957,8,0.0132639,11,-0.00101236,-2.10904,-0.148179,-0.398166,120.671,0.130131,
2,0,0,1,0,9813.54,0.128941,0.128605,-7.94147,8,0.0130672,11,-0.00102131,-2.1001,-0.168124,-0.350932,108.657,0.128605,
2,0,0,1,0,9813.56,0.127447,0.127181,-8.09781,8,0.0128672,11,-0.00102988,-2.09163,-0.205746,-0.286762,90.4217,0.127181,
2,0,0,1,0,9813.59,0.125946,0.125631,-8.2314,8,0.012663,11,-0.00103412,-2.08453,-0.235687,-0.250332,80.1952,0.125631,
2,0,0,1,0,9813.61,0.124446,0.124158,-8.34532,8,0.0124558,11,-0.00103614,-2.07856,-0.253368,-0.232863,75.6239,0.124158,
2,0,0,1,0,9813.64,0.122952,0.122649,-8.43644,8,0.0122467,11,-0.00103472,-2.07384,-0.328026,-0.179864,59.1209,0.122649,
2,0,0,1,0,9813.66,0.121453,0.121138,-8.50962,8,0.0120346,11,-0.00103084,-2.07009,-0.513898,-0.114809,38.0567,0.121138,
2,0,0,1,0,9813.69,0.119953,0.119606,-8.56262,8,0.011821,11,-0.00102414,-2.06739,-0.71932,-0.082022,27.3634,0.119606,
2,0,0,1,0,9813.71,0.118459,0.11817,-8.59854,8,0.0116073,11,-0.00101609,-2.06558,-0.897143,-0.0657643,22.032,0.11817,
2,0,0,1,0,9813.74,0.116958,0.116677,-8.62072,8,0.0113919,11,-0.00100584,-2.06446,-2.83449,-0.020815,6.99028,0.116677,
2,0,0,1,0,9813.76,0.115457,0.115097,-8.62021,8,0.0111762,11,-0.000992162,-2.06448,1.96597,0.0300107,-10.0678,0.1150972,
2,0,0,1,0,9813.79,0.113963,0.113636,-8.59738,8,0.0109618,11,-0.00097697,-2.06563,0.988598,0.0596805,-19.9881,0.113636,
2,0,0,1,0,9813.81,0.112464,0.112143,-8.56066,8,0.0107473,11,-0.000960017,-2.06749,0.718997,0.0820588,-27.3763,0.112143,
2,0,0,1,0,9813.84,0.110965,0.110689,-8.50334,8,0.0105338,11,-0.000941229,-2.07041,0.526349,0.112093,-37.1742,0.110689,
2,0,0,1,0,9813.86,0.109466,0.109178,-8.44291,8,0.0103217,11,-0.000921779,-2.07351,0.363266,0.162416,-53.4102,0.109178,
2,0,0,1,0,9813.89,0.107972,0.107689,-8.36736,8,0.0101124,11,-0.000901069,-2.07741,0.30959,0.190575,-62.0734,0.107689,
2,0,0,1,0,9813.91,0.106471,0.106184,-8.26256,8,0.00990455,11,-0.000877349,-2.08289,0.290601,0.203027,-65.4152,0.106184,
2,0,0,1,0,9813.94,0.10497,0.104648,-8.15544,8,0.00969923,11,-0.000853454,-2.08855,0.265361,0.222339,-70.7169,0.1046484,
2,0,0,1,0,9813.96,0.103476,0.103176,-8.04796,8,0.00949733,11,-0.000830353,-2.09431,0.228845,0.257816,-80.8329,0.103176,
2,0,0,1,0,9813.99,0.101976,0.101697,-7.92697,8,0.00929761,11,-0.000806152,-2.10089,0.204092,0.289086,-89.242,0.101697,
2,0,0,1,0,9814.01,0.100477,0.100152,-7.78331,8,0.00910131,11,-0.000779511,-2.10884,0.198685,0.296952,-90.1619,0.1001516,
2,0,0,1,0,9814.04,0.0989825,0.0986761,-7.64121,8,0.0089092,11,-0.000754004,-2.11684,0.191194,0.308586,-92.0204,0.0986761,
2,0,0,1,0,9814.06,0.0974817,0.0971529,-7.50447,8,0.00871978,11,-0.000729081,-2.12468,0.182471,0.323339,-94.645,0.0971529,
2,0,0,1,0,9814.09,0.0959822,0.0956442,-7.3658,8,0.00853388,11,-0.000704496,-2.13278,0.176914,0.333495,-95.7366,0.0956442,
2,0,0,1,0,9814.11,0.094488,0.0942077,-7.21307,8,0.0083523,11,-0.000679527,-2.14188,0.183349,0.321791,-90.6849,0.0942077,
2,0,0,1,0,9814.14,0.0929884,0.0926756,-7.07389,8,0.00817355,11,-0.000655577,-2.15034,0.193593,0.304762,-84.3751,0.0926756,
2,0,0,1,0,9814.16,0.0914889,0.0911553,-6.9598,8,0.00799796,11,-0.000634423,-2.1574,0.191386,0.308278,-83.7549,0.0911553,
2,0,0,1,0,9814.19,0.0899894,0.089642,-6.84192,8,0.00782537,11,-0.000613323,-2.16482,0.193567,0.304804,-81.3225,0.089642,
2,0,0,1,0,9814.21,0.0884951,0.0881796,-6.72042,8,0.00765644,11,-0.000592604,-2.1726,0.212479,0.277674,-72.9135,0.0881796,
2,0,0,1,0,9814.24,0.0869943,0.0866681,-6.60827,8,0.00748977,11,-0.000572727,-2.17991,0.221514,0.266349,-68.8863,0.0866681,
2,0,0,1,0,9814.26,0.0854935,0.0851723,-6.51843,8,0.00732555,11,-0.00055519,-2.18586,0.238562,0.247315,-62.9921,0.0851723,
2,0,0,1,0,9814.29,0.0839993,0.0836697,-6.43588,8,0.0071642,11,-0.000538488,-2.19139,0.248598,0.237331,-59.5828,0.0836697,
2,0,0,1,0,9814.31,0.0824998,0.0821811,-6.35569,8,0.00700431,11,-0.000522318,-2.19684,0.290918,0.202806,-50.3206,0.0821811,
2,0,0,1,0,9814.34,0.0810002,0.0806591,-6.26589,8,0.00684652,11,-0.000505401,-2.20302,0.31279,0.188625,-46.2697,0.0806591,
2,0,0,1,0,9814.36,0.0795007,0.0791764,-6.20607,8,0.00669045,11,-0.000491375,-2.20718,0.331137,0.178174,-43.1985,0.0791764,
2,0,0,1,0,9814.39,0.0780078,0.0776519,-6.15426,8,0.00653654,11,-0.00047789,-2.21082,0.350405,0.168377,-40.372,0.0776519,
2,0,0,1,0,9814.41,0.076507,0.0761925,-6.0911,8,0.00638348,11,-0.000464096,-2.2153,0.377142,0.15644,-37.1638,0.0761925,
2,0,0,1,0,9814.44,0.0750062,0.0747298,-6.0204,8,0.00623201,11,-0.000449903,-2.22037,0.38264,0.154192,-36.3121,0.0747298,
2,0,0,1,0,9814.46,0.073512,0.0731861,-5.97158,8,0.00608251,11,-0.000437037,-2.22391,0.391891,0.150552,-35.1214,0.0731861,
2,0,0,1,0,9814.49,0.0720124,0.0716785,-5.92496,8,0.00593366,11,-0.000424692,-2.22731,0.417925,0.141174,-32.6574,0.0716785,
2,0,0,1,0,9814.51,0.0705129,0.0701541,-5.87837,8,0.00578602,11,-0.000412392,-2.23074,0.412731,0.14295,-32.787,0.0701541,
2,0,0,1,0,9814.54,0.0690187,0.0687112,-5.8186,8,0.00564022,11,-0.000399803,-2.23518,0.424943,0.138842,-31.6001,0.0687112,
2,0,0,1,0,9814.56,0.0675179,0.0672048,-5.77613,8,0.00549517,11,-0.000388184,-2.23836,0.393311,0.150008,-33.8354,0.0672048,
2,0,0,1,0,9814.59,0.066017,0.0657005,-5.74358,8,0.00535118,11,-0.000377356,-2.24082,0.445728,0.132368,-29.584,0.0657005,
2,0,0,1,0,9814.61,0.0645242,0.0642228,-5.69328,8,0.00520888,11,-0.000365639,-2.24464,0.429176,0.137473,-30.4712,0.06422282,
2,0,0,1,0,9814.64,0.0630246,0.06271,-5.62751,8,0.00506718,11,-0.000352901,-2.24968,0.399123,0.147824,-32.5174,0.06271,
2,0,0,1,0,9814.66,0.0615251,0.0612114,-5.57622,8,0.00492693,11,-0.000341328,-2.25366,0.355879,0.165787,-36.1802,0.0612114,
2,0,0,1,0,9814.69,0.0600256,0.0596842,-5.53621,8,0.00478792,11,-0.000330424,-2.25679,0.357485,0.165042,-35.6072,0.0596842,
2,0,0,1,0,9814.71,0.0585314,0.058175,-5.48338,8,0.00465065,11,-0.000318996,-2.26095,0.357712,0.164937,-35.2215,0.058175,
2,0,0,1,0,9814.74,0.0570305,0.0567221,-5.42172,8,0.00451423,11,-0.000307532,-2.26586,0.316586,0.186363,-39.4365,0.0567221,
2,0,0,1,0,9814.76,0.0555297,0.0552065,-5.36028,8,0.00437936,11,-0.000295922,-2.27081,0.299611,0.196922,-41.2375,0.0552065,
2,0,0,1,0,9814.79,0.0540355,0.0537183,-5.30915,8,0.0042465,11,-0.000285199,-2.27498,0.303993,0.194084,-40.1601,0.0537183,
2,0,0,1,0,9814.81,0.052536,0.0522393,-5.25543,8,0.00411445,11,-0.00027454,-2.27939,0.317553,0.185796,-38.009,0.0522393,
2,0,0,1,0,9814.84,0.0510364,0.0507559,-5.17953,8,0.00398395,11,-0.000262892,-2.28571,0.275222,0.214372,-43.3543,0.0507559,
2,0,0,1,0,9814.86,0.0495369,0.0492246,-5.10554,8,0.0038552,11,-0.000251318,-2.29196,0.253941,0.232337,-46.3955,0.0492246,
2,0,0,1,0,9814.89,0.0480427,0.0477077,-5.05129,8,0.00372866,11,-0.000240985,-2.2966,0.258214,0.228493,-44.9724,0.0477077,
2,0,0,1,0,9814.91,0.0465432,0.0462339,-4.98122,8,0.00360321,11,-0.000230301,-2.30266,0.263601,0.223823,-43.4515,0.0462339,
2,0,0,1,0,9814.94,0.0450424,0.0446974,-4.90588,8,0.00347951,11,-0.00021928,-2.30928,0.235056,0.251004,-48.0614,0.0446974,
2,0,0,1,0,9814.96,0.0435482,0.0432257,-4.82709,8,0.00335812,11,-0.000208655,-2.31631,0.225038,0.262178,-49.4853,0.0432257,
2,0,0,1,0,9814.99,0.0420486,0.0417367,-4.76567,8,0.0032381,11,-0.000198903,-2.32188,0.234596,0.251496,-46.8072,0.04173667,
2,0,0,1,0,9815.01,0.0405491,0.040228,-4.70597,8,0.00311974,11,-0.000189312,-2.32735,0.257434,0.229185,-42.0195,0.040228,
2,0,0,1,0,9815.04,0.0390549,0.0387115,-4.63055,8,0.00300337,11,-0.000179256,-2.33437,0.242372,0.243428,-43.9894,0.0387115,
2,0,0,1,0,9815.06,0.0375541,0.0372046,-4.56503,8,0.00288828,11,-0.00016984,-2.34056,0.226964,0.259953,-46.3865,0.0372046,
2,0,0,1,0,9815.09,0.0360532,0.0357221,-4.50875,8,0.00277495,11,-0.000161062,-2.34594,0.24445,0.241358,-42.4399,0.0357221,
2,0,0,1,0,9815.11,0.034559,0.0342524,-4.44738,8,0.00266348,11,-0.000152333,-2.3519,0.295512,0.199654,-34.6178,0.0342524,
2,0,0,1,0,9815.14,0.0330595,0.0327316,-4.38673,8,0.00255298,11,-0.000143585,-2.35786,0.300983,0.196024,-33.6046,0.0327316,
2,0,0,1,0,9815.16,0.0315613,0.0312111,-4.33604,8,0.00244381,11,-0.000135332,-2.36291,0.276227,0.213592,-36.1629,0.03121105,
2,0,0,1,0,9815.19,0.0300618,0.0297509,-4.28862,8,0.002336,11,-0.00012759,-2.36768,0.29944,0.197034,-32.9795,0.0297509,
2,0,0,1,0,9815.21,0.0285676,0.028277,-4.24216,8,0.00222981,11,-0.000119956,-2.37241,0.389439,0.1515,-25.076,0.028277,
2,0,0,1,0,9815.24,0.0270667,0.0267566,-4.20235,8,0.00212414,11,-0.00011244,-2.37651,0.419419,0.140671,-23.0915,0.0267566,
2,0,0,1,0,9815.26,0.0255659,0.0252665,-4.16416,8,0.00201943,11,-0.000105214,-2.38047,0.343086,0.171969,-27.9665,0.0252665,
2,0,0,1,0,9815.29,0.0240717,0.0237667,-4.12729,8,0.0019161,11,-9.80921e-05,-2.38434,0.426582,0.138309,-22.3196,0.0237667,
2,0,0,1,0,9815.31,0.0225722,0.022263,-4.10244,8,0.0018132,11,-9.13324e-05,-2.38696,0.628525,0.0938705,-15.0328,0.022263,
2,0,0,1,0,9815.34,0.0210726,0.0207324,-4.07505,8,0.00171086,11,-8.44853e-05,-2.38987,0.635728,0.0928069,-14.7721,0.0207324,
2,0,0,1,0,9815.36,0.0195784,0.0192241,-4.05018,8,0.00160954,11,-7.78611e-05,-2.39253,0.53294,0.110707,-17.5196,0.0192241,
2,0,0,1,0,9815.39,0.0180789,0.0177534,-4.02859,8,0.00150843,11,-7.15211e-05,-2.39485,0.656063,0.0899304,-14.1507,0.0177534,
2,0,0,1,0,9815.41,0.0165781,0.0162736,-4.0168,8,0.00140784,11,-6.53678e-05,-2.39612,1.23642,0.0477186,-7.48165,0.0162736,
2,0,0,1,0,9815.44,0.0150839,0.0146899,-4.00099,8,0.00130795,11,-5.87743e-05,-2.39783,1.7256,0.034191,-5.34554,0.0146899,
2,0,0,1,0,9815.46,0.0135844,0.0132648,-3.98788,8,0.00120788,11,-5.28986e-05,-2.39926,0.916447,0.0643791,-10.0317,0.0132648,
2,0,0,1,0,9815.49,0.0120848,0.0117402,-3.98481,8,0.00110809,11,-4.67824e-05,-2.39959,1.23512,0.0477685,-7.42945,0.0117402,
2,0,0,1,0,9815.51,0.0105853,0.0102377,-3.97529,8,0.00100861,11,-4.06978e-05,-2.40063,4.39241,0.0134323,-2.08582,0.0102377,
2,0,0,1,0,9815.54,0.00909108,0.00876853,-3.96795,8,0.000909609,11,-3.4793e-05,-2.40143,-35.7908,-0.00164847,0.255684,0.00876853,
2,0,0,1,0,9815.56,0.00759027,0.00724029,-3.96689,8,0.000810246,11,-2.87214e-05,-2.40155,4.99797,0.0118048,-1.82965,0.00724029,
2,0,0,1,0,9815.59,0.00608945,0.00576253,-3.97349,8,0.000710911,11,-2.28973e-05,-2.40083,5.61339,0.0105106,-1.6279,0.00576253,
2,0,0,1,0,9815.61,0.00459524,0.00429639,-3.97353,8,0.00061204,11,-1.70718e-05,-2.40082,-3.88859,-0.0151726,2.35019,0.00429639,
2,0,0,1,0,9815.64,0.0030957,0.00275341,-3.97229,8,0.000512667,11,-1.09373e-05,-2.40096,-0.542367,-0.108782,16.9578,0.00275341,
2,0,0,1,0,9815.66,0.00159616,0.00125377,-4.02582,8,0.000412506,11,-5.04743e-06,-2.39515, , , ,0.00125377,
2,0,0,0,0,9815.68,0.000199195,-0.000182169,-4.01167,8,0.000318768,11,7.308e-07,-2.39668, , , ,-0.000182169,