File: Figure_codes/Fig_3-5/rawdata_trumpetplot_data/before 10th/20221101_1-115_002_TrumpetPlot_ParaChange_13_CV_C01_2.csv
mode,ox/red,error,control changes,counter inc.,time/s,control/V,Ewe/V,<I>/mA,cycle number,(Q-Qo)/C,I Range,P/W,log(|I|),Tafel slope mV/dec,alpha_eff,dI/d(E-IR),E-IR/V,
2,1,0,0,0,3677.45,2.44065e-05,-0.000516197,12.6359,3,0.0000000E+000,10,-6.5226e-06,-1.89839, , , ,-0.000516197,
2,1,0,1,0,3677.45,0.00206084,0.00167672,13.3853,3,6.6346e-05,10,2.24435e-05,-1.87337, , , ,0.00167672,
2,1,0,1,0,3677.46,0.00446904,0.00413581,14.5792,3,0.000150501,10,6.02966e-05,-1.83627,0.0755373,0.781071,438.744,0.00413581,
2,1,0,1,0,3677.47,0.00686614,0.00654611,15.5628,3,0.00024109,10,0.000101876,-1.80791,0.0918609,0.642275,386.19,0.00654611,
2,1,0,1,0,3677.47,0.00926324,0.0089246,16.4298,3,0.000337212,10,0.000146629,-1.78437,0.114347,0.515975,327.718,0.0089246,
2,1,0,1,0,3677.48,0.0116603,0.0113551,17.1471,3,0.000438083,10,0.000194706,-1.76581,0.142225,0.414835,275.528,0.0113551,
2,1,0,1,0,3677.48,0.0140685,0.0137972,17.7346,3,0.000542818,10,0.000244688,-1.75118,0.178041,0.331385,228.294,0.01379717,
2,1,0,1,0,3677.49,0.0164657,0.0161735,18.241,3,0.000650832,10,0.000295022,-1.73895,0.223958,0.263442,186.545,0.0161735,
2,1,0,1,0,3677.5,0.0188628,0.0185287,18.6417,3,0.000761589,10,0.000345406,-1.72952,0.278138,0.212125,153.718,0.0185287,
2,1,0,1,0,3677.5,0.0212682,0.0209411,18.9654,3,0.000874433,10,0.000397158,-1.72204,0.353767,0.166776,123.125,0.0209411,
2,1,0,1,0,3677.51,0.0236653,0.0233599,19.2325,3,0.000989096,10,0.000449269,-1.71596,0.422293,0.139714,104.598,0.0233599,
2,1,0,1,0,3677.51,0.0260624,0.0257225,19.4461,3,0.0011052,10,0.000500202,-1.71117,0.517389,0.114034,86.4405,0.0257225,
2,1,0,1,0,3677.52,0.0284595,0.0281264,19.6261,3,0.00122249,10,0.000552012,-1.70717,0.665894,0.0886027,67.7765,0.0281264,
2,1,0,1,0,3677.53,0.0308677,0.0305919,19.7864,3,0.0013408,10,0.000605304,-1.70363,0.762828,0.0773438,59.6596,0.0305919,
2,1,0,1,0,3677.53,0.0332648,0.0329311,19.9089,3,0.00145988,10,0.000655624,-1.70095,0.985377,0.0598756,46.4861,0.0329311,
2,1,0,1,0,3677.54,0.0356619,0.0353414,20.0238,3,0.00157972,10,0.000707672,-1.69845,1.08967,0.054145,42.2685,0.0353414,
2,1,0,1,0,3677.54,0.0380673,0.0377369,20.1078,3,0.00170011,10,0.000758807,-1.69663,1.16689,0.0505619,39.6886,0.0377369,
2,1,0,1,0,3677.55,0.0404644,0.0401461,20.2063,3,0.00182104,10,0.000811206,-1.69451,1.2336,0.0478277,37.7138,0.04014615,
2,1,0,1,0,3677.56,0.0428615,0.0425872,20.3087,3,0.0019426,10,0.00086489,-1.69232,1.18935,0.0496069,39.283,0.0425872,
2,1,0,1,0,3677.56,0.0452586,0.044936,20.3708,3,0.00206462,10,0.000915384,-1.69099,1.21941,0.0483842,38.5152,0.044936,
2,1,0,1,0,3677.57,0.0476668,0.0473612,20.4843,3,0.00218722,10,0.000970158,-1.68858,1.0952,0.0538716,43.0594,0.0473612,
2,1,0,1,0,3677.57,0.0500639,0.0498096,20.5933,3,0.00231046,10,0.00102575,-1.68627,1.0757,0.0548478,44.0596,0.0498096,
2,1,0,1,0,3677.58,0.0524611,0.0521362,20.6794,3,0.00243429,10,0.00107814,-1.68446,0.95203,0.0619729,50.1051,0.0521362,
2,1,0,1,0,3677.59,0.0548692,0.054539,20.8309,3,0.00255884,10,0.0011361,-1.68129,0.818453,0.0720872,58.6289,0.054539,
2,1,0,1,0,3677.59,0.0572664,0.0569345,20.9815,3,0.00268428,10,0.00119457,-1.67816,0.775592,0.0760709,62.2996,0.0569345,
2,1,0,1,0,3677.6,0.0596635,0.059349,21.1345,3,0.00281062,10,0.00125431,-1.67501,0.686311,0.0859669,71.001,0.059349,
2,1,0,1,0,3677.6,0.0620633,0.0617244,21.3106,3,0.00293793,10,0.00131539,-1.6714,0.6143,0.0960443,79.9824,0.0617244,
2,1,0,1,0,3677.61,0.064466,0.064141,21.5291,3,0.00306649,10,0.0013809,-1.66697,0.51754,0.114001,95.8535,0.064141,
2,1,0,1,0,3677.62,0.0668631,0.0665503,21.7707,3,0.00319639,10,0.00144885,-1.66213,0.502069,0.117514,99.8563,0.06655027,
2,1,0,1,0,3677.62,0.0692602,0.0689881,22.0145,3,0.00332777,10,0.00151874,-1.65729,0.459047,0.128527,110.531,0.0689881,
2,1,0,1,0,3677.63,0.0716684,0.0713422,22.2949,3,0.0034607,10,0.00159057,-1.6518,0.430499,0.13705,119.356,0.0713422,
2,1,0,1,0,3677.63,0.0740655,0.0737557,22.6007,3,0.00359541,10,0.00166693,-1.64588,0.411967,0.143215,126.312,0.0737557,
2,1,0,1,0,3677.64,0.0764626,0.0761374,22.8986,3,0.00373195,10,0.00174344,-1.64019,0.38909,0.151636,135.688,0.0761374,
2,1,0,1,0,3677.65,0.0788653,0.078535,23.2454,3,0.00387038,10,0.00182558,-1.63366,0.369574,0.159643,144.93,0.078535,
2,1,0,1,0,3677.65,0.0812651,0.0809336,23.6038,3,0.00401099,10,0.00191034,-1.62702,0.365609,0.161375,148.63,0.08093363,
2,1,0,1,0,3677.66,0.0836622,0.0833397,23.9582,3,0.00415373,10,0.00199667,-1.62055,0.344192,0.171416,160.548,0.0833397,
2,1,0,1,0,3677.66,0.0860593,0.085733,24.3722,3,0.00429871,10,0.00208951,-1.6131,0.319392,0.184726,175.921,0.085733,
2,1,0,1,0,3677.67,0.0884675,0.0881327,24.8297,3,0.00444635,10,0.00218831,-1.60503,0.301986,0.195373,189.289,0.0881327,
2,1,0,1,0,3677.68,0.0908647,0.0905398,25.2856,3,0.00459671,10,0.00228935,-1.59713,0.306281,0.192633,190.072,0.0905398,
2,1,0,1,0,3677.68,0.0932618,0.092913,25.7392,3,0.00474985,10,0.00239151,-1.5894,0.306289,0.192629,193.558,0.092913,
2,1,0,1,0,3677.69,0.09567,0.0953583,26.2104,3,0.00490572,10,0.00249938,-1.58153,0.306885,0.192255,196.706,0.0953583,
2,1,0,1,0,3677.69,0.0980671,0.0977644,26.6901,3,0.00506447,10,0.00260934,-1.57365,0.308424,0.191295,199.154,0.0977644,
2,1,0,1,0,3677.7,0.100464,0.100181,27.1643,3,0.00522608,10,0.00272134,-1.566,0.309256,0.190781,202.31,0.100181,
2,1,0,1,0,3677.71,0.102861,0.102546,27.6464,3,0.00539054,10,0.00283502,-1.55836,0.303915,0.194133,209.649,0.102546,
2,1,0,1,0,3677.71,0.105267,0.104949,28.1784,3,0.00555808,10,0.00295728,-1.55008,0.30523,0.193297,212.378,0.104949,
2,1,0,1,0,3677.72,0.107664,0.107365,28.6795,3,0.00572873,10,0.00307918,-1.54243,0.31371,0.188072,210.436,0.107365,
2,1,0,1,0,3677.72,0.110061,0.109776,29.1811,3,0.00590234,10,0.00320337,-1.5349,0.306323,0.192607,219.558,0.109776,
2,1,0,1,0,3677.73,0.112469,0.112177,29.7274,3,0.00607907,10,0.00333474,-1.52684,0.310377,0.190091,220.437,0.112177,
2,1,0,1,0,3677.74,0.114866,0.114543,30.2557,3,0.00625909,10,0.00346558,-1.51919,0.308935,0.190979,225.469,0.114543,
2,1,0,1,0,3677.74,0.117263,0.116947,30.7871,3,0.00644224,10,0.00360046,-1.51163,0.305996,0.192813,231.88,0.116947,
2,1,0,1,0,3677.75,0.11966,0.119326,31.3465,3,0.00662869,10,0.00374044,-1.50381,0.304802,0.193569,236.931,0.119326,
2,1,0,1,0,3677.75,0.122066,0.12178,31.9395,3,0.00681865,10,0.00388961,-1.49567,0.302951,0.194751,242.65,0.12178,
2,1,0,1,0,3677.76,0.124463,0.124162,32.5208,3,0.00701209,10,0.00403785,-1.48784,0.301337,0.195794,248.614,0.124162,
2,1,0,1,0,3677.77,0.12686,0.126552,33.1221,3,0.00720906,10,0.00419167,-1.47988,0.287164,0.205458,265.904,0.1265523,
2,1,0,1,0,3677.77,0.129268,0.128962,33.7894,3,0.00740983,10,0.00435753,-1.47122,0.279158,0.21135,278.761,0.128962,
2,1,0,1,0,3677.78,0.131665,0.131336,34.4666,3,0.00761466,10,0.0045267,-1.4626,0.276303,0.213534,287.237,0.131336,
2,1,0,1,0,3677.78,0.134062,0.133701,35.1571,3,0.00782358,10,0.00470052,-1.45399,0.267494,0.220566,303.066,0.133701,
2,1,0,1,0,3677.79,0.13646,0.136098,35.9082,3,0.00803681,10,0.00488704,-1.44481,0.257292,0.229311,321.604,0.136098,
2,1,0,1,0,3677.8,0.138868,0.138577,36.7155,3,0.00825479,10,0.00508794,-1.43515,0.253828,0.232441,332.986,0.138577,
2,1,0,1,0,3677.8,0.141265,0.140987,37.5079,3,0.00847748,10,0.00528811,-1.42588,0.249523,0.236451,346.476,0.140987,
2,1,0,1,0,3677.81,0.143662,0.143315,38.3712,3,0.00870516,10,0.00549918,-1.41599,0.240604,0.245217,367.4,0.143315,
2,1,0,1,0,3677.81,0.146067,0.145705,39.2797,3,0.0089382,10,0.00572326,-1.40583,0.238797,0.247071,378.674,0.145705,
2,1,0,1,0,3677.82,0.148465,0.148149,40.1868,3,0.00917669,10,0.00595362,-1.39592,0.238198,0.247693,388.573,0.148149,
2,1,0,1,0,3677.83,0.150862,0.150514,41.1155,3,0.00942067,10,0.00618847,-1.38599,0.237315,0.248615,399.207,0.150514,
2,1,0,1,0,3677.83,0.153264,0.152933,42.093,3,0.0096704,10,0.00643741,-1.37579,0.237352,0.248576,408.31,0.152933,
2,1,0,1,0,3677.84,0.155667,0.155383,43.0791,3,0.00992605,10,0.00669375,-1.36573,0.243978,0.241825,406.322,0.155383,
2,1,0,1,0,3677.84,0.158064,0.157735,44.0502,3,0.0101875,10,0.00694823,-1.35605,0.251714,0.234393,402.873,0.157735,
2,1,0,1,0,3677.85,0.160461,0.160125,45.0214,3,0.0104548,10,0.00720905,-1.34658,0.253348,0.232881,409.156,0.160125,
2,1,0,1,0,3677.86,0.162867,0.16254,46.0295,3,0.0107281,10,0.00748165,-1.33696,0.262112,0.225095,403.826,0.16254,
2,1,0,1,0,3677.86,0.165264,0.164956,46.9641,3,0.0110071,10,0.00774701,-1.32823,0.27634,0.213505,391.087,0.164956,
2,1,0,1,0,3677.87,0.167661,0.167321,47.8849,3,0.0112918,10,0.00801213,-1.3198,0.286226,0.206131,385.1,0.167321,
2,1,0,1,0,3677.87,0.170069,0.169759,48.8213,3,0.011582,10,0.00828783,-1.31139,0.30513,0.19336,367.766,0.169759,
2,1,0,1,0,3677.88,0.172466,0.172173,49.6489,3,0.0118775,10,0.0085482,-1.30409,0.337323,0.174907,338.467,0.172173,
2,1,0,1,0,3677.89,0.174863,0.174559,50.4292,3,0.0121779,10,0.00880287,-1.29732,0.366055,0.161178,316.889,0.174559,
2,1,0,1,0,3677.89,0.17726,0.176935,51.1571,3,0.0124827,10,0.0090515,-1.29109,0.422287,0.139715,278.446,0.1769354,
2,1,0,1,0,3677.9,0.179668,0.17933,51.7812,3,0.0127917,10,0.00928592,-1.28583,0.518695,0.113747,229.303,0.1793298,
2,1,0,1,0,3677.9,0.182066,0.181797,52.2638,3,0.0131039,10,0.00950142,-1.2818,0.702583,0.0839759,170.864,0.181797,
2,1,0,1,0,3677.91,0.184463,0.184153,52.6084,3,0.0134187,10,0.00968797,-1.27894,1.1583,0.0509368,104.268,0.184153,
2,1,0,1,0,3677.92,0.186868,0.186579,52.7862,3,0.0137349,10,0.00984879,-1.27748,6.23181,0.00946755,19.4267,0.186579,
2,1,0,1,0,3677.92,0.189265,0.188991,52.709,3,0.0140515,10,0.00996153,-1.27812,-1.44462,-0.0408413,-83.6368,0.188991,
2,1,0,1,0,3677.93,0.191662,0.191377,52.3709,3,0.0143669,10,0.0100226,-1.28091,-0.62371,-0.0945952,-192.508,0.191377,
2,1,0,1,0,3677.93,0.194059,0.193776,51.7734,3,0.0146794,10,0.0100324,-1.28589,-0.372416,-0.158425,-318.347,0.193776,
2,1,0,1,0,3677.94,0.196468,0.196175,50.868,3,0.0149875,10,0.00997904,-1.29356,-0.257407,-0.229209,-452.056,0.196175,
2,1,0,1,0,3677.95,0.198865,0.198544,49.5854,3,0.0152888,10,0.00984489,-1.30465,-0.192107,-0.30712,-590.762,0.198544,
2,1,0,1,0,3677.95,0.201262,0.200964,48.0025,3,0.0155816,10,0.00964678,-1.31874,-0.15109,-0.390495,-726.846,0.200964,
2,1,0,1,0,3677.96,0.203667,0.203389,46.1252,3,0.0158639,10,0.00938138,-1.33606,-0.125842,-0.46884,-838.33,0.203389,
2,1,0,1,0,3677.96,0.206064,0.205774,43.9391,3,0.016134,10,0.00904153,-1.35715,-0.107162,-0.550568,-939.113,0.205774,
2,1,0,1,0,3677.97,0.208461,0.208151,41.5839,3,0.0163904,10,0.00865571,-1.38107,-0.0933797,-0.631829,-1019.78,0.208151,
2,1,0,1,0,3677.98,0.210859,0.210586,39.0449,3,0.0166321,10,0.00822233,-1.40844,-0.082986,-0.710964,-1079.07,0.210586,
2,1,0,1,0,3677.98,0.213267,0.213005,36.4483,3,0.0168584,10,0.00776367,-1.43832,-0.0783676,-0.752862,-1068.07,0.213005,
2,1,0,1,0,3677.99,0.215664,0.215414,33.8709,3,0.0170691,10,0.00729628,-1.47017,-0.073341,-0.804461,-1061.9,0.215414,
2,1,0,1,0,3677.99,0.218061,0.217758,31.3609,3,0.0172644,10,0.00682908,-1.50361,-0.0717049,-0.822817,-1007.91,0.217758,
2,1,0,1,0,3678,0.220469,0.220212,29.0268,3,0.0174452,10,0.00639204,-1.5372,-0.0718465,-0.821195,-931.867,0.220212,
2,1,0,1,0,3678.01,0.222866,0.222647,26.8538,3,0.0176126,10,0.00597894,-1.57099,-0.0734952,-0.802774,-844.964,0.2226474,
2,1,0,1,0,3678.01,0.225263,0.225005,24.9243,3,0.0177676,10,0.00560808,-1.60338,-0.076099,-0.775306,-758.739,0.225005,
2,1,0,1,0,3678.02,0.227663,0.227392,23.2418,3,0.0179118,10,0.00528499,-1.63373,-0.0825451,-0.71476,-652.767,0.227392,
2,1,0,1,0,3678.02,0.230066,0.229802,21.8016,3,0.0180468,10,0.00501005,-1.66151,-0.0916909,-0.643466,-551.707,0.229802,
2,1,0,1,0,3678.03,0.232463,0.232155,20.6069,3,0.0181738,10,0.004784,-1.68599,-0.103074,-0.572404,-463.587,0.232155,
2,1,0,1,0,3678.04,0.23486,0.234553,19.6144,3,0.0182943,10,0.00460062,-1.70742,-0.120439,-0.489873,-377.645,0.234553,
2,1,0,1,0,3678.04,0.237268,0.236998,18.8111,3,0.0184093,10,0.0044582,-1.72558,-0.141787,-0.416116,-307.5,0.236998,
2,1,0,1,0,3678.05,0.239665,0.239387,18.1578,3,0.0185201,10,0.00434675,-1.74094,-0.170582,-0.345875,-246.494,0.239387,
2,1,0,1,0,3678.05,0.242063,0.241782,17.6372,3,0.0186274,10,0.00426437,-1.75357,-0.21016,-0.280739,-194.17,0.241782,
2,1,0,1,0,3678.06,0.244465,0.244201,17.2241,3,0.0187319,10,0.00420614,-1.76386,-0.255867,-0.230588,-155.674,0.244201,
2,1,0,1,0,3678.07,0.246865,0.246605,16.8965,3,0.0188342,10,0.00416677,-1.7722,-0.314903,-0.187359,-123.912,0.246605,
2,1,0,1,0,3678.07,0.249262,0.248966,16.6221,3,0.0189347,10,0.00413834,-1.77931,-0.364137,-0.162027,-105.416,0.248966,
2,1,0,1,0,3678.08,0.251659,0.25133,16.4039,3,0.0190338,10,0.00412281,-1.78505,-0.44382,-0.132937,-85.2695,0.25133,
2,1,0,1,0,3678.08,0.254067,0.253763,16.2345,3,0.0191317,10,0.00411972,-1.78956,-0.529828,-0.111357,-70.6201,0.253763,
2,1,0,1,0,3678.09,0.256465,0.256171,16.0743,3,0.0192285,10,0.00411777,-1.79387,-0.617348,-0.09557,-60.0439,0.256171,
2,1,0,1,0,3678.1,0.258862,0.258621,15.9524,3,0.0193246,10,0.00412562,-1.79717,-0.748675,-0.0788059,-49.0499,0.258621,
2,1,0,1,0,3678.1,0.26127,0.260985,15.8303,3,0.0194199,10,0.00413148,-1.80051,-0.808412,-0.0729826,-45.1319,0.260985,
2,1,0,1,0,3678.11,0.263667,0.26335,15.7238,3,0.0195145,10,0.00414086,-1.80344,-0.897309,-0.0657522,-40.3705,0.26335,
2,1,0,1,0,3678.11,0.266064,0.265764,15.6358,3,0.0196086,10,0.00415543,-1.80588,-0.973481,-0.0606073,-36.9879,0.265764,
2,1,0,1,0,3678.12,0.268461,0.268158,15.5233,3,0.019702,10,0.0041627,-1.80902,-0.975419,-0.0604868,-36.7083,0.268158,
2,1,0,1,0,3678.13,0.270867,0.270564,15.456,3,0.019795,10,0.00418185,-1.8109,-1.10084,-0.0535953,-32.3309,0.270564,
2,1,0,1,0,3678.13,0.273264,0.272963,15.3851,3,0.0198876,10,0.00419955,-1.8129,-1.0386,-0.0568074,-34.0875,0.272963,
2,1,0,1,0,3678.14,0.275661,0.275374,15.2902,3,0.0199796,10,0.00421052,-1.81559,-1.04112,-0.0566697,-33.8429,0.275374,
2,1,0,1,0,3678.14,0.278069,0.277739,15.2323,3,0.0200711,10,0.00423059,-1.81724,-1.18392,-0.0498344,-29.6073,0.277739,
2,1,0,1,0,3678.15,0.280466,0.280143,15.1513,3,0.0201623,10,0.00424453,-1.81955,-1.10781,-0.053258,-31.4889,0.280143,
2,1,0,1,0,3678.16,0.282863,0.282564,15.0767,3,0.0202529,10,0.00426013,-1.82169,-1.18161,-0.0499317,-29.4006,0.282564,
2,1,0,1,0,3678.16,0.28526,0.284962,14.9981,3,0.0203432,10,0.0042739,-1.82396,-1.13801,-0.0518449,-30.3687,0.284962,
2,1,0,1,0,3678.17,0.287666,0.287353,14.9333,3,0.020433,10,0.00429112,-1.82585,-1.21846,-0.0484216,-28.2363,0.2873534,
2,1,0,1,0,3678.17,0.290063,0.289763,14.8736,3,0.0205224,10,0.00430982,-1.82758,-1.14685,-0.0514453,-29.8403,0.289763,
2,1,0,1,0,3678.18,0.29246,0.292173,14.803,3,0.0206115,10,0.00432503,-1.82965,-1.2803,-0.046083,-26.6324,0.292173,
2,1,0,1,0,3678.19,0.294868,0.294569,14.7309,3,0.0207,10,0.00433926,-1.83177,-1.28965,-0.0457487,-26.3283,0.294569,
2,1,0,1,0,3678.19,0.297265,0.296976,14.6834,3,0.0207883,10,0.0043606,-1.83317,-1.5769,-0.0374153,-21.4399,0.296976,
2,1,0,1,0,3678.2,0.29958,0.299286,14.6067,3,0.0208733,10,0.00437158,-1.83545,-0.0582226,-1.01335,-546.963,0.299286,
2,1,0,1,0,3678.2,0.299962,0.299632,14.467,3,0.0208922,10,0.00433478,-1.83962,0.00469834,12.5576,4916.77,0.299632,
2,1,0,1,0,3678.2,0.297903,0.297725,8.38174,3,0.0209486,10,0.00249545,-2.07667,0.00640234,9.21538,2344.66,0.2977252,
2,1,0,1,0,3678.21,0.295506,0.295311,3.42843,3,0.0209827,10,0.00101245,-2.46491,0.00586641,10.0573,1744.58,0.295311,
2,1,0,1,0,3678.22,0.293101,0.29288,0.0586952,3,0.0209922,10,1.71907e-05,-4.2314,0.0285139,2.06917,1201.13,0.29288,
2,0,0,1,0,3678.22,0.290704,0.290436,-2.28028,3,0.0209849,10,-0.000662274,-2.64201,-0.0103772,-5.68553,834.992,0.290436,
2,0,0,1,0,3678.23,0.288307,0.288046,-3.91583,3,0.0209659,10,-0.00112794,-2.40718,-0.0120189,-4.90892,597.193,0.288046,
2,0,0,1,0,3678.23,0.28591,0.285639,-5.07391,3,0.0209386,10,-0.0014493,-2.29466,-0.0252563,-2.33605,426.757,0.285639,
2,0,0,1,0,3678.24,0.283501,0.283211,-5.95781,3,0.0209053,10,-0.00168732,-2.22491,-0.0413439,-1.42706,316.32,0.283211,
2,0,0,1,0,3678.25,0.281104,0.280779,-6.58787,3,0.0208675,10,-0.00184974,-2.18125,-0.0627427,-0.940348,235.45,0.280779,
2,0,0,1,0,3678.25,0.278707,0.278433,-7.06387,3,0.0208265,10,-0.00196682,-2.15096,-0.088018,-0.670318,182.359,0.278433,
2,0,0,1,0,3678.26,0.276302,0.276045,-7.46871,3,0.0207829,10,-0.0020617,-2.12675,-0.116299,-0.507312,146.004,0.276045,
2,0,0,1,0,3678.26,0.273905,0.273599,-7.77036,3,0.0207371,10,-0.00212596,-2.10956,-0.148247,-0.397985,119.686,0.273599,
2,0,0,1,0,3678.27,0.271508,0.271193,-8.0147,3,0.0206897,10,-0.00217353,-2.09611,-0.177078,-0.333186,104.078,0.271193,
2,0,0,1,0,3678.28,0.269105,0.268804,-8.25435,3,0.0206409,10,-0.0022188,-2.08332,-0.210226,-0.280651,90.1056,0.268804,
2,0,0,1,0,3678.28,0.266702,0.266425,-8.46017,3,0.0205906,10,-0.002254,-2.07262,-0.239792,-0.246047,80.9394,0.266425,
2,0,0,1,0,3678.29,0.264305,0.264029,-8.63731,3,0.0205393,10,-0.0022805,-2.06362,-0.278737,-0.211669,71.2463,0.264029,
2,0,0,1,0,3678.29,0.261908,0.261608,-8.80508,3,0.020487,10,-0.00230348,-2.05527,-0.292729,-0.201551,69.273,0.2616078,
2,0,0,1,0,3678.3,0.2595,0.259216,-8.97822,3,0.0204336,10,-0.00232729,-2.04681,-0.298399,-0.197722,69.2165,0.259216,
2,0,0,1,0,3678.31,0.257103,0.256812,-9.14847,3,0.0203792,10,-0.00234943,-2.03865,-0.342976,-0.172024,61.252,0.256812,
2,0,0,1,0,3678.31,0.254706,0.254417,-9.27465,3,0.020324,10,-0.00235963,-2.0327,-0.341176,-0.172931,62.6862,0.254417,
2,0,0,1,0,3678.32,0.2523,0.252022,-9.43663,3,0.0202679,10,-0.00237823,-2.02518,-0.344822,-0.171103,62.9679,0.252022,
2,0,0,1,0,3678.32,0.249903,0.249582,-9.58846,3,0.0202107,10,-0.0023931,-2.01825,-0.375738,-0.157024,58.5829,0.249582,
2,0,0,1,0,3678.33,0.247506,0.247197,-9.70259,3,0.0201528,10,-0.00239845,-2.01311,-0.391741,-0.15061,57.1887,0.247197,
2,0,0,1,0,3678.34,0.245109,0.244824,-9.84754,3,0.0200942,10,-0.00241091,-2.00667,-0.374997,-0.157335,60.5294,0.244824,
2,0,0,1,0,3678.34,0.242701,0.242383,-10.0164,3,0.0200345,10,-0.00242781,-1.99929,-0.378844,-0.155737,60.7001,0.242383,
2,0,0,1,0,3678.35,0.240304,0.239999,-10.1415,3,0.019974,10,-0.00243394,-1.9939,-0.437371,-0.134897,53.4046,0.239999,
2,0,0,1,0,3678.35,0.237906,0.237589,-10.2686,3,0.0199128,10,-0.0024397,-1.98849,-0.402949,-0.146421,58.7738,0.237589,
2,0,0,1,0,3678.36,0.235501,0.235166,-10.4348,3,0.0198507,10,-0.00245391,-1.98152,-0.396948,-0.148634,60.4594,0.235166,
2,0,0,1,0,3678.37,0.233104,0.232738,-10.5749,3,0.0197877,10,-0.00246119,-1.97572,-0.41447,-0.142351,58.6898,0.232738,
2,0,0,1,0,3678.37,0.230707,0.230402,-10.7049,3,0.0197238,10,-0.00246643,-1.97042,-0.402218,-0.146687,61.3472,0.230402,
2,0,0,1,0,3678.38,0.22831,0.22806,-10.8436,3,0.0196592,10,-0.00247299,-1.96483,-0.387689,-0.152184,64.5248,0.22806,
2,0,0,1,0,3678.38,0.225902,0.225638,-11.0125,3,0.0195935,10,-0.00248483,-1.95812,-0.411521,-0.143371,61.5181,0.225638,
2,0,0,1,0,3678.39,0.223504,0.223217,-11.1571,3,0.019527,10,-0.00249044,-1.95245,-0.420236,-0.140397,61.1576,0.223217,
2,0,0,1,0,3678.4,0.221107,0.220829,-11.297,3,0.0194596,10,-0.00249471,-1.94704,-0.38305,-0.154027,68.073,0.220829,
2,0,0,1,0,3678.4,0.218699,0.218404,-11.4859,3,0.0193913,10,-0.00250857,-1.93983,-0.382479,-0.154257,69.0323,0.218404,
2,0,0,1,0,3678.41,0.216302,0.215988,-11.6483,3,0.0193218,10,-0.00251589,-1.93374,-0.399135,-0.14782,67.2182,0.215988,
2,0,0,1,0,3678.41,0.213905,0.213673,-11.8017,3,0.0192515,10,-0.00252171,-1.92806,-0.369437,-0.159702,73.7865,0.213673,
2,0,0,1,0,3678.42,0.211505,0.211193,-12.0004,3,0.0191801,10,-0.00253441,-1.9208,-0.35382,-0.166752,78.0681,0.211193,
2,0,0,1,0,3678.43,0.209102,0.208849,-12.1793,3,0.0191075,10,-0.00254365,-1.91438,-0.350789,-0.168192,80.0316,0.2088494,
2,0,0,1,0,3678.43,0.206705,0.206435,-12.3751,3,0.0190338,10,-0.00255464,-1.90745,-0.34303,-0.171996,83.1824,0.206435,
2,0,0,1,0,3678.44,0.204308,0.203987,-12.5912,3,0.0189588,10,-0.00256845,-1.89993,-0.313324,-0.188304,92.5621,0.203987,
2,0,0,1,0,3678.44,0.2019,0.201619,-12.8202,3,0.0188826,10,-0.00258479,-1.8921,-0.309871,-0.190402,95.2369,0.201619,
2,0,0,1,0,3678.45,0.199503,0.199171,-13.0378,3,0.018805,10,-0.00259676,-1.88479,-0.311196,-0.189591,96.5275,0.199171,
2,0,0,1,0,3678.46,0.197106,0.19683,-13.2722,3,0.0187261,10,-0.00261237,-1.87706,-0.290825,-0.202871,105.339,0.19683,
2,0,0,1,0,3678.46,0.194709,0.194418,-13.5374,3,0.0186456,10,-0.00263191,-1.86847,-0.275817,-0.21391,113.179,0.194418,
2,0,0,1,0,3678.47,0.192303,0.191976,-13.8336,3,0.0185634,10,-0.00265572,-1.85907,-0.264217,-0.223301,120.499,0.1919762,
2,0,0,1,0,3678.47,0.189906,0.189631,-14.1076,3,0.0184796,10,-0.00267523,-1.85055,-0.25695,-0.229616,126.811,0.189631,
2,0,0,1,0,3678.48,0.187509,0.187215,-14.4484,3,0.0183939,10,-0.00270497,-1.84018,-0.237084,-0.248857,140.426,0.187215,
2,0,0,1,0,3678.49,0.185101,0.184793,-14.8056,3,0.0183061,10,-0.00273597,-1.82957,-0.228792,-0.257877,148.938,0.184793,
2,0,0,1,0,3678.49,0.182704,0.182403,-15.1605,3,0.0182162,10,-0.00276532,-1.81929,-0.219262,-0.269084,159.531,0.182403,
2,0,0,1,0,3678.5,0.180307,0.179977,-15.5658,3,0.0181241,10,-0.00280148,-1.80783,-0.204469,-0.288552,175.557,0.179977,
2,0,0,1,0,3678.5,0.177904,0.177611,-16.0037,3,0.0180293,10,-0.00284243,-1.79578,-0.194303,-0.30365,189.778,0.177611,
2,0,0,1,0,3678.51,0.175501,0.175198,-16.4628,3,0.0179319,10,-0.00288426,-1.7835,-0.185674,-0.31776,204.523,0.175198,
2,0,0,1,0,3678.52,0.173104,0.172826,-16.9724,3,0.0178316,10,-0.00293327,-1.77026,-0.177795,-0.331843,220.165,0.172826,
2,0,0,1,0,3678.52,0.170707,0.170431,-17.5152,3,0.0177281,10,-0.00298513,-1.75658,-0.167799,-0.351611,240.927,0.170431,
2,0,0,1,0,3678.53,0.168302,0.168013,-18.1267,3,0.0176211,10,-0.00304552,-1.74168,-0.160509,-0.367581,260.309,0.168013,
2,0,0,1,0,3678.53,0.165905,0.165623,-18.768,3,0.0175104,10,-0.00310842,-1.72658,-0.156084,-0.378002,277.357,0.165623,
2,0,0,1,0,3678.54,0.163507,0.163204,-19.4586,3,0.0173956,10,-0.00317573,-1.71089,-0.149027,-0.3959,301.29,0.163204,
2,0,0,1,0,3678.55,0.161099,0.160833,-20.2294,3,0.0172766,10,-0.00325357,-1.69402,-0.142613,-0.413707,326.674,0.160833,
2,0,0,1,0,3678.55,0.158702,0.158445,-21.0096,3,0.0171528,10,-0.00332887,-1.67758,-0.139899,-0.421732,346.378,0.158445,
2,0,0,1,0,3678.56,0.156305,0.155992,-21.8762,3,0.0170241,10,-0.00341253,-1.66003,-0.134928,-0.43727,374.114,0.155992,
2,0,0,1,0,3678.56,0.153908,0.153661,-22.8016,3,0.01689,10,-0.0035037,-1.64204,-0.130005,-0.453829,404.515,0.153661,
2,0,0,1,0,3678.57,0.151503,0.151243,-23.8042,3,0.0167501,10,-0.00360021,-1.62335,-0.12697,-0.464678,432.25,0.151243,
2,0,0,1,0,3678.58,0.149105,0.148823,-24.8655,3,0.016604,10,-0.00370055,-1.6044,-0.127794,-0.461682,448.417,0.148823,
2,0,0,1,0,3678.58,0.146708,0.146414,-25.9891,3,0.0164513,10,-0.00380516,-1.58521,-0.126299,-0.467144,473.93,0.146414,
2,0,0,1,0,3678.59,0.1443,0.144016,-27.1515,3,0.0162918,10,-0.00391025,-1.56621,-0.12689,-0.464969,492.882,0.144016,
2,0,0,1,0,3678.59,0.141903,0.14166,-28.3523,3,0.0161252,10,-0.00401638,-1.54741,-0.128041,-0.460789,509.905,0.14166,
2,0,0,1,0,3678.6,0.139506,0.13926,-29.5934,3,0.0159513,10,-0.00412118,-1.52881,-0.129019,-0.457298,528.395,0.13926,
2,0,0,1,0,3678.61,0.137109,0.136865,-30.8841,3,0.0157697,10,-0.00422695,-1.51026,-0.133937,-0.440507,530.152,0.136865,
2,0,0,1,0,3678.61,0.134701,0.134477,-32.1674,3,0.0155804,10,-0.00432577,-1.49258,-0.13952,-0.422878,530.108,0.134477,
2,0,0,1,0,3678.62,0.132303,0.132108,-33.3972,3,0.0153837,10,-0.00441203,-1.47629,-0.141041,-0.418318,546.306,0.132108,
2,0,0,1,0,3678.62,0.129906,0.129665,-34.7838,3,0.0151791,10,-0.00451022,-1.45862,-0.143422,-0.411372,557.151,0.1296646,
2,0,0,1,0,3678.63,0.127501,0.127248,-36.101,3,0.0149663,10,-0.00459378,-1.44248,-0.150265,-0.39264,552.274,0.127248,
2,0,0,1,0,3678.64,0.125104,0.124884,-37.395,3,0.0147457,10,-0.00467005,-1.42719,-0.157735,-0.374045,545.47,0.124884,
2,0,0,1,0,3678.64,0.122707,0.12246,-38.6981,3,0.0145172,10,-0.00473897,-1.41231,-0.168535,-0.350075,527.717,0.12246,
2,0,0,1,0,3678.65,0.12031,0.120122,-39.9228,3,0.0142812,10,-0.0047956,-1.39878,-0.180289,-0.327253,509.324,0.120122,
2,0,0,1,0,3678.65,0.117901,0.117676,-41.1215,3,0.0140379,10,-0.004839,-1.38593,-0.190225,-0.310159,497.405,0.117676,
2,0,0,1,0,3678.66,0.115504,0.115254,-42.3123,3,0.0137874,10,-0.00487665,-1.37353,-0.20217,-0.291833,481.191,0.115254,
2,0,0,1,0,3678.67,0.113107,0.112871,-43.4465,3,0.01353,10,-0.00490384,-1.36205,-0.217622,-0.271112,459.054,0.112871,
2,0,0,1,0,3678.67,0.110702,0.110461,-44.5431,3,0.0132659,10,-0.00492026,-1.35122,-0.236164,-0.249827,433.464,0.110461,
2,0,0,1,0,3678.68,0.108305,0.108021,-45.5656,3,0.0129955,10,-0.00492203,-1.34136,-0.261293,-0.2258,400.673,0.108021,
2,0,0,1,0,3678.68,0.105908,0.105632,-46.4856,3,0.0127193,10,-0.00491035,-1.33268,-0.288469,-0.204528,370.344,0.105632,
2,0,0,1,0,3678.69,0.103505,0.103256,-47.327,3,0.0124377,10,-0.0048868,-1.32489,-0.33408,-0.176605,325.53,0.103256,
2,0,0,1,0,3678.7,0.101102,0.100792,-48.0669,3,0.0121514,10,-0.00484476,-1.31815,-0.382837,-0.154113,288.523,0.100792,
2,0,0,1,0,3678.7,0.0987052,0.0984006,-48.7127,3,0.0118609,10,-0.00479336,-1.31236,-0.469911,-0.125556,238.137,0.0984006,
2,0,0,1,0,3678.71,0.0963081,0.0960539,-49.226,3,0.011567,10,-0.00472835,-1.30781,-0.590042,-0.0999929,191.659,0.09605395,
2,0,0,1,0,3678.71,0.0938999,0.0936065,-49.6212,3,0.0112704,10,-0.00464486,-1.30433,-0.826363,-0.0713972,137.972,0.0936065,
2,0,0,1,0,3678.72,0.0915028,0.0911729,-49.8953,3,0.0109717,10,-0.0045491,-1.30194,-1.46349,-0.0403145,78.2884,0.0911729,
2,0,0,1,0,3678.73,0.0891057,0.0887891,-50.0235,3,0.0106719,10,-0.00444155,-1.30083,-6.22866,-0.00947235,18.4365,0.0887891,
2,0,0,1,0,3678.73,0.0867002,0.0864032,-49.9737,3,0.0103719,10,-0.00431788,-1.30126,2.44269,0.0241537,-46.9875,0.0864032,
2,0,0,1,0,3678.74,0.0843031,0.0839929,-49.7901,3,0.0100726,10,-0.00418202,-1.30286,1.07607,0.0548291,-106.243,0.0839929,
2,0,0,1,0,3678.74,0.081906,0.0816038,-49.4546,3,0.00977476,10,-0.00403568,-1.30579,0.667243,0.0884236,-170.205,0.0816038,
2,0,0,1,0,3678.75,0.0795089,0.0792009,-48.9599,3,0.00947947,10,-0.00387767,-1.31016,0.492852,0.119711,-228.276,0.0792009,
2,0,0,1,0,3678.76,0.0771007,0.0768182,-48.3509,3,0.00918752,10,-0.00371423,-1.3156,0.395176,0.149301,-281.081,0.0768182,
2,0,0,1,0,3678.76,0.0747036,0.0743994,-47.6115,3,0.00889963,10,-0.00354227,-1.32229,0.335456,0.17588,-326.15,0.0743994,
2,0,0,1,0,3678.77,0.0723065,0.0719668,-46.7718,3,0.00861651,10,-0.00336602,-1.33002,0.295553,0.199626,-363.803,0.0719668,
2,0,0,1,0,3678.77,0.0699011,0.0696382,-45.8734,3,0.00833866,10,-0.00319454,-1.33844,0.26971,0.218754,-391.092,0.0696382,
2,0,0,1,0,3678.78,0.067504,0.0671929,-44.897,3,0.00806646,10,-0.00301676,-1.34778,0.254968,0.231402,-405.176,0.0671929,
2,0,0,1,0,3678.79,0.0651069,0.0647911,-43.9256,3,0.00780007,10,-0.00284599,-1.35728,0.246516,0.239336,-410.035,0.0647911,
2,0,0,1,0,3678.79,0.0627098,0.0624136,-42.9175,3,0.00753965,10,-0.00267864,-1.36737,0.243419,0.242381,-406.096,0.0624136,
2,0,0,1,0,3678.8,0.0603016,0.0600033,-41.9562,3,0.00728514,10,-0.00251751,-1.3772,0.24025,0.245577,-402.162,0.0600033,
2,0,0,1,0,3678.8,0.0579045,0.0576185,-41.0024,3,0.00703637,10,-0.0023625,-1.38719,0.240412,0.245412,-392.66,0.0576185,
2,0,0,1,0,3678.81,0.0555074,0.055206,-40.0541,3,0.0067933,10,-0.00221123,-1.39735,0.242294,0.243506,-381.063,0.055206,
2,0,0,1,0,3678.82,0.0530992,0.052782,-39.1868,3,0.00655572,10,-0.00206836,-1.40686,0.24486,0.240954,-368.447,0.052782,
2,0,0,1,0,3678.82,0.0507021,0.0503812,-38.3187,3,0.0063233,10,-0.00193054,-1.41659,0.245045,0.240772,-359.914,0.0503812,
2,0,0,1,0,3678.83,0.048305,0.0479995,-37.4434,3,0.00609613,10,-0.00179726,-1.42663,0.24547,0.240355,-351.459,0.0479995,
2,0,0,1,0,3678.83,0.0459051,0.0456104,-36.6015,3,0.00587408,10,-0.00166941,-1.4365,0.24284,0.242958,-347.085,0.0456104,
2,0,0,1,0,3678.84,0.0435024,0.0431842,-35.7845,3,0.00565693,10,-0.00154532,-1.44631,0.24035,0.245476,-342.635,0.0431842,
2,0,0,1,0,3678.85,0.0411053,0.0407739,-34.9509,3,0.00544483,10,-0.00142508,-1.45654,0.226919,0.260005,-354.486,0.04077391,
2,0,0,1,0,3678.85,0.0387082,0.0383827,-34.1081,3,0.00523774,10,-0.00130916,-1.46714,0.225636,0.261484,-347.902,0.03838269,
2,0,0,1,0,3678.86,0.0363,0.0360031,-33.2702,3,0.0050357,10,-0.00119783,-1.47794,0.218626,0.269867,-350.202,0.0360031,
2,0,0,1,0,3678.86,0.0339029,0.0335886,-32.4207,3,0.00483873,10,-0.00108897,-1.48918,0.208361,0.283162,-357.869,0.0335886,
2,0,0,1,0,3678.87,0.0315058,0.0311974,-31.5479,3,0.00464689,10,-0.000984212,-1.50103,0.205479,0.287134,-353.523,0.0311974,
2,0,0,1,0,3678.88,0.0291087,0.0288062,-30.6815,3,0.00446033,10,-0.000883816,-1.51312,0.201783,0.292393,-350.317,0.0288062,
2,0,0,1,0,3678.88,0.0267033,0.0264033,-29.8641,3,0.00427873,10,-0.000788511,-1.52485,0.198494,0.297238,-346.215,0.0264033,
2,0,0,1,0,3678.89,0.0243062,0.0240131,-29.0138,3,0.00410214,10,-0.000696712,-1.5374,0.197921,0.298098,-337.966,0.0240131,
2,0,0,1,0,3678.89,0.0219091,0.0216102,-28.2254,3,0.0039305,10,-0.000609958,-1.54936,0.206543,0.285655,-315.331,0.0216102,
2,0,0,1,0,3678.9,0.0195009,0.0191798,-27.5188,3,0.00376335,10,-0.000527804,-1.56037,0.213494,0.276354,-296.95,0.0191798,
2,0,0,1,0,3678.91,0.0171038,0.0167578,-26.823,3,0.00360042,10,-0.000449495,-1.57149,0.226461,0.260531,-273.237,0.0167578,
2,0,0,1,0,3678.91,0.0147067,0.0143984,-26.1977,3,0.00344147,10,-0.000377206,-1.58174,0.251104,0.234962,-240.854,0.01439842,
2,0,0,1,0,3678.92,0.012304,0.0120157,-25.6669,3,0.003286,10,-0.000308405,-1.59063,0.278705,0.211694,-212.384,0.0120157,
2,0,0,1,0,3678.92,0.00990136,0.0096128,-25.1768,3,0.00313355,10,-0.00024202,-1.599,0.312192,0.188986,-186.023,0.0096128,
2,0,0,1,0,3678.93,0.00750426,0.00722583,-24.7526,3,0.00298382,10,-0.000178858,-1.60638,0.358185,0.164719,-159.541,0.007225831,
2,0,0,1,0,3678.94,0.00510715,0.00479538,-24.3927,3,0.00283642,10,-0.000116972,-1.61274,0.472072,0.124981,-119.516,0.004795379,
2,0,0,1,0,3678.94,0.00270173,0.0023872,-24.124,3,0.00269087,10,-5.75888e-05,-1.61755,0.555189,0.10627,-100.337,0.0023872,
2,0,0,1,0,3678.95,0.000304623,-5.49198e-05,-23.9454,3,0.00254652,10,1.31508e-06,-1.62078,0.648854,0.0909296,-84.972,-5.49198e-05,
2,0,0,1,0,3678.95,-0.00209248,-0.00243872,-23.7259,3,0.00240354,10,5.78608e-05,-1.62478,0.759476,0.0776851,-72.1565,-0.002438715,
2,0,0,1,0,3678.96,-0.00450068,-0.00489462,-23.607,3,0.00226161,10,0.000115547,-1.62696,1.01478,0.0581407,-53.5839,-0.004894617,
2,0,0,1,0,3678.97,-0.00689779,-0.00721585,-23.4961,3,0.00212032,10,0.000169544,-1.629,1.36978,0.0430727,-39.5174,-0.00721585,
2,0,0,1,0,3678.97,-0.00929489,-0.00967493,-23.3944,3,0.00197971,10,0.000226339,-1.63089,2.14495,0.0275065,-25.1712,-0.00967493,
2,0,0,1,0,3678.98,-0.011692,-0.0120555,-23.3656,3,0.00183947,10,0.000281685,-1.63142,4.99362,0.0118151,-10.7846,-0.0120555,
2,0,0,1,0,3678.98,-0.0140974,-0.0144372,-23.3627,3,0.00169925,10,0.000337293,-1.63148,-68.6467,-0.000859473,0.78378,-0.01443722,
2,0,0,1,0,3678.99,-0.0164945,-0.016856,-23.3619,3,0.00155912,10,0.000393789,-1.63149,-8.27302,-0.00713162,6.51224,-0.016856,
2,0,0,1,0,3679,-0.0188916,-0.0192154,-23.385,3,0.00141889,10,0.000449352,-1.63106,-2.68004,-0.0220146,20.1156,-0.0192154,
2,0,0,1,0,3679,-0.0212998,-0.0216342,-23.4551,3,0.00127836,10,0.000507431,-1.62976,-2.05087,-0.0287683,26.3342,-0.0216342,
2,0,0,1,0,3679.01,-0.0236969,-0.0240636,-23.5196,3,0.00113744,10,0.000565967,-1.62857,-1.89343,-0.0311603,28.5993,-0.0240636,
2,0,0,1,0,3679.01,-0.026094,-0.026423,-23.5906,3,0.000996121,10,0.000623334,-1.62726,-1.39238,-0.0423734,39.0512,-0.026423,
2,0,0,1,0,3679.02,-0.0284912,-0.0288174,-23.6836,3,0.000854309,10,0.000682499,-1.62555,-1.25934,-0.0468499,43.3337,-0.0288174,
2,0,0,1,0,3679.03,-0.0308994,-0.031251,-23.8082,3,0.000711779,10,0.000744029,-1.62327,-1.21996,-0.0483621,44.9138,-0.031251,
2,0,0,1,0,3679.03,-0.0332965,-0.0336157,-23.9057,3,0.000568637,10,0.000803609,-1.6215,-1.14956,-0.0513239,47.9369,-0.0336157,
2,0,0,1,0,3679.04,-0.0356936,-0.0360207,-24.0337,3,0.000424849,10,0.000865713,-1.61918,-0.984719,-0.0599156,56.2427,-0.0360207,
2,0,0,1,0,3679.04,-0.038099,-0.0384904,-24.1836,3,0.000280167,10,0.000930835,-1.61648,-0.974611,-0.060537,57.094,-0.03849043,
2,0,0,1,0,3679.05,-0.0404961,-0.0408594,-24.2992,3,0.000134684,10,0.000992852,-1.61441,-1.00057,-0.0589662,55.962,-0.0408594,
2,0,0,1,0,3679.06,-0.0428932,-0.0432103,-24.4428,3,-1.15491e-05,10,0.00105618,-1.61185,-0.906848,-0.0650605,62.099,-0.0432103,
2,0,0,1,0,3679.06,-0.0452903,-0.0456227,-24.603,3,-0.000158718,10,0.00112246,-1.60901,-0.881898,-0.0669012,64.2052,-0.0456227,
2,0,0,1,0,3679.07,-0.0476985,-0.0480373,-24.7503,3,-0.000306795,10,0.00118894,-1.60642,-0.905797,-0.065136,62.9222,-0.0480373,
2,0,0,1,0,3679.07,-0.0500956,-0.050402,-24.9042,3,-0.000455756,10,0.00125522,-1.60373,-0.884521,-0.0667028,64.8333,-0.050402,
2,0,0,1,0,3679.08,-0.0524927,-0.0528218,-25.0607,3,-0.00060566,10,0.00132375,-1.60101,-0.844064,-0.0699,68.3823,-0.0528218,
2,0,0,1,0,3679.09,-0.0548981,-0.0552576,-25.2402,3,-0.000756552,10,0.00139471,-1.59791,-0.871299,-0.067715,66.6609,-0.0552576,
2,0,0,1,0,3679.09,-0.0572953,-0.0576361,-25.3852,3,-0.000908425,10,0.0014631,-1.59542,-0.84589,-0.0697491,69.128,-0.0576361,
2,0,0,1,0,3679.1,-0.0596924,-0.0600559,-25.5519,3,-0.00106124,10,0.00153455,-1.59258,-0.802709,-0.0735011,73.3384,-0.06005593,
2,0,0,1,0,3679.1,-0.062095,-0.062444,-25.7402,3,-0.00121512,10,0.00160732,-1.58939,-0.811425,-0.0727116,72.9919,-0.062444,
2,0,0,1,0,3679.11,-0.0644977,-0.0648246,-25.9089,3,-0.0013701,10,0.00167954,-1.58655,-0.821733,-0.0717995,72.5874,-0.0648246,
2,0,0,1,0,3679.12,-0.0668948,-0.0672455,-26.0717,3,-0.00152604,10,0.0017532,-1.58383,-0.791347,-0.0745564,75.915,-0.0672455,
2,0,0,1,0,3679.12,-0.0692919,-0.0696568,-26.2574,3,-0.00168307,10,0.00182901,-1.58075,-0.785629,-0.0750991,76.9696,-0.0696568,
2,0,0,1,0,3679.13,-0.0717001,-0.071994,-26.4502,3,-0.00184126,10,0.00190425,-1.57757,-0.765592,-0.0770645,79.5684,-0.071994,
2,0,0,1,0,3679.13,-0.0740972,-0.074416,-26.6384,3,-0.00200052,10,0.00198232,-1.57449,-0.779625,-0.0756774,78.7212,-0.074416,
2,0,0,1,0,3679.14,-0.0764943,-0.0768114,-26.8446,3,-0.00216099,10,0.00206197,-1.57114,-0.733199,-0.0804693,84.279,-0.07681141,
2,0,0,1,0,3679.15,-0.0788997,-0.0792599,-27.0458,3,-0.00232264,10,0.00214365,-1.5679,-0.754493,-0.0781982,82.5252,-0.0792599,
2,0,0,1,0,3679.15,-0.0812968,-0.0816755,-27.2453,3,-0.00248552,10,0.00222527,-1.56471,-0.727141,-0.0811397,86.2707,-0.0816755,
2,0,0,1,0,3679.16,-0.0836939,-0.0840211,-27.4615,3,-0.00264966,10,0.00230734,-1.56128,-0.707386,-0.0834057,89.3817,-0.0840211,
2,0,0,1,0,3679.16,-0.086091,-0.0864049,-27.6754,3,-0.00281506,10,0.00239129,-1.55791,-0.682823,-0.086406,93.3792,-0.08640492,
2,0,0,1,0,3679.17,-0.0884992,-0.0888375,-27.9184,3,-0.00298186,10,0.0024802,-1.55411,-0.655452,-0.0900142,98.0546,-0.0888375,
2,0,0,1,0,3679.18,-0.0908963,-0.0912287,-28.1363,3,-0.00315006,10,0.00256684,-1.55073,-0.649759,-0.0908029,99.7946,-0.0912287,
2,0,0,1,0,3679.18,-0.0932934,-0.0936305,-28.3854,3,-0.00331967,10,0.00265774,-1.5469,-0.626042,-0.0942429,104.474,-0.09363053,
2,0,0,1,0,3679.19,-0.0956989,-0.0960196,-28.6567,3,-0.00349083,10,0.00275161,-1.54277,-0.615177,-0.0959074,107.238,-0.0960196,
2,0,0,1,0,3679.19,-0.098096,-0.098449,-28.8993,3,-0.00366351,10,0.00284511,-1.53911,-0.648121,-0.0910323,102.409,-0.098449,
2,0,0,0,0,3679.2,-0.0999548,-0.1004,-29.1037,3,-0.00379985,10,0.00292202,-1.53605,0.0223566,2.63904,-2751.1,-0.1004,
2,0,0,1,1,3679.2,-0.0994555,-0.0999431,-27.2685,3,-0.00384739,10,0.0027253,-1.56434,-0.0157922,-3.73603,3379.04,-0.0999431,
2,0,0,1,1,3679.21,-0.0970583,-0.0974607,-20.1846,3,-0.0039883,10,0.00196721,-1.69498,-0.0170086,-3.46884,2663.45,-0.0974607,
2,0,0,1,1,3679.21,-0.0946501,-0.095025,-14.3441,3,-0.00409087,10,0.00136305,-1.84333,-0.0143367,-4.11531,2238.45,-0.095025,
2,0,0,1,1,3679.22,-0.092253,-0.0926581,-9.41765,3,-0.00416131,10,0.000872622,-2.02606,-0.0103612,-5.69434,1928.56,-0.0926581,
2,0,0,1,1,3679.22,-0.0898559,-0.0902627,-5.22546,3,-0.00420453,10,0.000471664,-2.28188,-0.00468107,-12.604,1634.74,-0.0902627,
2,0,0,1,1,3679.23,-0.0874588,-0.087898,-1.58336,3,-0.00422435,10,0.000139174,-2.80042,-0.0154327,-3.82305,1410.21,-0.087898,
2,1,0,1,1,3679.24,-0.0850534,-0.0854972,1.55796,3,-0.00422384,10,-0.000133202,-2.80744,0.0235221,2.50828,1230.46,-0.0854972,
2,1,0,1,1,3679.24,-0.0826563,-0.0831187,4.28378,3,-0.00420587,10,-0.000356063,-2.36817,0.00571147,10.3301,1073.29,-0.0831187,
2,1,0,1,1,3679.25,-0.0802592,-0.0806946,6.67526,3,-0.00417262,10,-0.000538658,-2.17553,0.0145145,4.06491,935.199,-0.0806946,
2,1,0,1,1,3679.25,-0.077851,-0.0782896,8.76859,3,-0.00412597,10,-0.000686489,-2.05707,0.0231429,2.54938,820.691,-0.0782896,
2,1,0,1,1,3679.26,-0.0754539,-0.0758719,10.5648,3,-0.00406777,10,-0.00080157,-1.97614,0.0326319,1.80805,721.395,-0.0758719,
2,1,0,1,1,3679.27,-0.0730568,-0.0735295,12.199,3,-0.00399924,10,-0.000896982,-1.91368,0.0429591,1.3734,638.279,-0.0735295,
2,1,0,1,1,3679.27,-0.0706597,-0.0710587,13.6246,3,-0.00392154,10,-0.000968148,-1.86568,0.0556662,1.05989,553.609,-0.0710587,
2,1,0,1,1,3679.28,-0.0682542,-0.0686876,14.8831,3,-0.00383575,10,-0.00102229,-1.82731,0.0697432,0.845961,484.778,-0.0686876,
2,1,0,1,1,3679.28,-0.0658571,-0.0662254,15.9654,3,-0.00374303,10,-0.00105731,-1.79682,0.0869226,0.678765,418.827,-0.0662254,
2,1,0,1,1,3679.29,-0.06346,-0.0638469,16.9155,3,-0.00364422,10,-0.00108,-1.77171,0.10446,0.564809,369.889,-0.0638469,
2,1,0,1,1,3679.3,-0.0610518,-0.0613984,17.761,3,-0.00354004,10,-0.0010905,-1.75053,0.12765,0.4622,317.694,-0.0613984,
2,1,0,1,1,3679.3,-0.0586547,-0.0589945,18.4588,3,-0.00343129,10,-0.00108897,-1.7338,0.156662,0.376608,269.873,-0.0589945,
2,1,0,1,1,3679.31,-0.0562576,-0.0566351,19.061,3,-0.00331866,10,-0.00107952,-1.71986,0.184679,0.319472,236.725,-0.0566351,
2,1,0,1,1,3679.31,-0.053855,-0.054194,19.6068,3,-0.00320259,10,-0.00106257,-1.70759,0.217292,0.271524,206.833,-0.054194,
2,1,0,1,1,3679.32,-0.0514523,-0.0517858,20.0513,3,-0.00308353,10,-0.00103837,-1.69786,0.256824,0.229729,179.25,-0.0517858,
2,1,0,1,1,3679.33,-0.0490552,-0.04942,20.4493,3,-0.00296199,10,-0.0010106,-1.68932,0.307913,0.191612,152.567,-0.04942,
2,1,0,1,1,3679.33,-0.0466581,-0.0470341,20.7944,3,-0.00283819,10,-0.000978046,-1.68205,0.365652,0.161355,130.555,-0.0470341,
2,1,0,1,1,3679.34,-0.0442527,-0.0446058,21.0747,3,-0.00271252,10,-0.000940054,-1.67624,0.439397,0.134275,110.225,-0.0446058,
2,1,0,1,1,3679.34,-0.0418556,-0.0421764,21.3083,3,-0.00258532,10,-0.000898709,-1.67145,0.54519,0.108219,89.8511,-0.0421764,
2,1,0,1,1,3679.35,-0.0394585,-0.0398128,21.5146,3,-0.0024568,10,-0.000856554,-1.66727,0.64282,0.091783,76.9595,-0.0398128,
2,1,0,1,1,3679.36,-0.0370558,-0.0374353,21.6672,3,-0.00232722,10,-0.000811119,-1.6642,0.795733,0.0741454,62.6463,-0.0374353,
2,1,0,1,1,3679.36,-0.0346532,-0.0350187,21.8196,3,-0.0021967,10,-0.000764095,-1.66115,0.998995,0.0590593,50.2116,-0.03501866,
2,1,0,1,1,3679.37,-0.0322561,-0.0326306,21.9099,3,-0.00206548,10,-0.000714933,-1.65936,1.33782,0.0441018,37.6887,-0.0326306,
2,1,0,1,1,3679.37,-0.0298589,-0.0302214,21.9991,3,-0.00193373,10,-0.000664844,-1.65759,1.81673,0.032476,27.8551,-0.0302214,
2,1,0,1,1,3679.38,-0.0274535,-0.0278015,22.0558,3,-0.00180154,10,-0.000613186,-1.65648,2.54955,0.0231414,19.9002,-0.0278015,
2,1,0,1,1,3679.39,-0.0250564,-0.0253955,22.0852,3,-0.00166914,10,-0.000560864,-1.6559,4.51724,0.0130611,11.2554,-0.0253955,
2,1,0,1,1,3679.39,-0.0226593,-0.0229958,22.1122,3,-0.00153653,10,-0.000508487,-1.65537,7.82387,0.00754103,6.49863,-0.0229958,
2,1,0,1,1,3679.4,-0.0202511,-0.0206236,22.1217,3,-0.00140384,10,-0.000456229,-1.65518,-96.2259,-0.00061314,-0.528837,-0.0206236,
2,1,0,1,1,3679.4,-0.017854,-0.0181773,22.0962,3,-0.0012712,10,-0.000401648,-1.65568,-8.51881,-0.00692585,-5.97123,-0.0181773,
2,1,0,1,1,3679.41,-0.0154569,-0.0158083,22.0861,3,-0.00113864,10,-0.000349144,-1.65588,-4.13172,-0.0142798,-12.298,-0.0158083,
2,1,0,1,1,3679.42,-0.0130598,-0.0134553,22.0335,3,-0.00100625,10,-0.000296466,-1.65692,-3.18827,-0.0185053,-15.9157,-0.0134553,
2,1,0,1,1,3679.42,-0.0106516,-0.0110195,22.0091,3,-0.000874112,10,-0.00024253,-1.6574,-2.66541,-0.0221355,-19.006,-0.0110195,
2,1,0,1,1,3679.43,-0.00825448,-0.00859226,21.9606,3,-0.000742232,10,-0.000188691,-1.65836,-2.05085,-0.0287686,-24.6369,-0.00859226,
2,1,0,1,1,3679.43,-0.00585738,-0.00622013,21.8881,3,-0.000610699,10,-0.000136147,-1.65979,-1.93644,-0.0304683,-26.027,-0.00622013,
2,1,0,1,1,3679.44,-0.00345195,-0.00378437,21.8305,3,-0.000479563,10,-8.26148e-05,-1.66094,-1.7442,-0.0338265,-28.8049,-0.00378437,
2,1,0,1,1,3679.45,-0.00105485,-0.00142072,21.7591,3,-0.000348796,10,-3.09136e-05,-1.66236, , , ,-0.00142072,
2,1,0,0,1,3679.45,-7.54729e-05,-0.000439847,21.712,3,-0.000294449,10,-9.54999e-06,-1.6633, , , ,-0.000439847,