File: Figure_codes/Fig_3-5/rawdata_trumpetplot_data/before 10th/20221101_1-115_002_TrumpetPlot_ParaChange_13_CV_C01.mpt
EC-Lab ASCII FILE
Nb header lines : 68

Cyclic Voltammetry

Run on channel : 1 (SN 65296)
User :
CE vs. WE compliance from -10 V to 10 V
Electrode connection : standard
Potential control : Ewe
Ewe ctrl range : min = -1.00 V, max = 1.00 V
Safety Limits :
	Do not start on E overload
Acquisition started on : 11/08/2022 17:30:03.488
Loaded Setting File :  NONE
Saved on :
	File : 20221101_1-115_002_TrumpetPlot_ParaChange_13_CV_C01.mpr
	Directory : C:\Users\NakamuraT\Documents\EC-Lab\Data\Yatsuzuka\20221108_1-115_001_TrumpetPlot\
	Host : 192.109.209.100
Device : SP-50e (SN .003219)
Address : 192.109.209.128
EC-Lab for windows v11.43 (software)
Internet server v11.40 (firmware)
Command interpretor v11.40 (firmware)
Electrode material : Au/Pd
Initial state :
Electrolyte : NaCl (0.2M)
Comments : Fe(CN)63-/Fe(CN)64- 5.10-3 M
Reference electrode : SCE Saturated Calomel Electrode (0.241 V)
Electrode surface area : 0.001 cm2
Characteristic mass : 0.001 g
Equivalent Weight : 0.000 g/eq.
Density : 0.000 g/cm3
Volume (V) : 0.001 cm3
Cycle Definition : Charge/Discharge alternance
Ei (V)              0.000
vs.                 Ref
dE/dt               400.000
dE/dt unit          mV/s
E1 (V)              0.300
vs.                 Ref
Step percent        50
N                   10
E range min (V)     -1.000
E range max (V)     1.000
I Range             100 mA
I Range min         Unset
I Range max         Unset
I Range init        Unset
Bandwidth           5
E2 (V)              -0.100
vs.                 Ref
nc cycles           0
Reverse Scan        1
Ef (V)              0.000
vs.                 Ref

Number of loops : 8
Loop 0 from point number 0 to 1008
Loop 1 from point number 1009 to 2017
Loop 2 from point number 2018 to 3026
Loop 3 from point number 3027 to 4035
Loop 4 from point number 4036 to 5044
Loop 5 from point number 5045 to 6053
Loop 6 from point number 6054 to 7062
Loop 7 from point number 7063 to 8071

mode	ox/red	error	control changes	counter inc.	time/s	control/V	Ewe/V	<I>/mA	cycle number	(Q-Qo)/C	I Range	P/W
2	1	0	1	0	1214.19	2.44065e-05	-0.000687983	11.7849	1	0.0000000E+000	10	-8.10778e-06
2	1	0	1	0	1214.22	0.00926324	0.00895429	17.1354	1	0.000343384	10	0.000153435
2	1	0	1	0	1214.24	0.0188628	0.0185489	19.5363	1	0.000788166	10	0.000362376
2	1	0	1	0	1214.26	0.0284595	0.0281455	20.4057	1	0.00126965	10	0.000574329
2	1	0	1	0	1214.29	0.0380673	0.0377475	20.6479	1	0.00176326	10	0.000779408
2	1	0	1	0	1214.31	0.0476668	0.0473813	20.7338	1	0.00225983	10	0.000982394
2	1	0	1	0	1214.34	0.0572664	0.0569515	20.8815	1	0.0027587	10	0.00118923
2	1	0	1	0	1214.36	0.0668631	0.0665884	21.3077	1	0.00326411	10	0.00141885
2	1	0	1	0	1214.38	0.0764626	0.0761173	22.0735	1	0.00378424	10	0.00168017
2	1	0	1	0	1214.41	0.0860593	0.0856991	23.2195	1	0.00432751	10	0.00198989
2	1	0	1	0	1214.43	0.09567	0.0953074	24.8879	1	0.00490445	10	0.002372
2	1	0	1	0	1214.46	0.105267	0.104956	26.8125	1	0.0055242	10	0.00281414
2	1	0	1	0	1214.48	0.114866	0.114537	29.0278	1	0.00619369	10	0.00332475
2	1	0	1	0	1214.5	0.124463	0.124165	31.6258	1	0.00692096	10	0.00392683
2	1	0	1	0	1214.53	0.134062	0.133745	34.7747	1	0.00771709	10	0.00465094
2	1	0	1	0	1214.55	0.143662	0.143344	38.715	1	0.008598	10	0.00554956
2	1	0	1	0	1214.58	0.153264	0.152947	43.3217	1	0.00958181	10	0.00662592
2	1	0	1	0	1214.6	0.162867	0.162563	48.2335	1	0.0106808	10	0.00784097
2	1	0	1	0	1214.62	0.172466	0.17215	52.7804	1	0.0118948	10	0.00908613
2	1	0	1	0	1214.65	0.182066	0.18174	56.0417	1	0.0132049	10	0.010185
2	1	0	1	0	1214.67	0.191662	0.19134	56.3494	1	0.0145619	10	0.0107819
2	1	0	1	0	1214.7	0.201262	0.200937	51.6144	1	0.0158688	10	0.0103712
2	1	0	1	0	1214.72	0.210859	0.21062	41.5706	1	0.0169943	10	0.00875561
2	1	0	1	0	1214.74	0.220469	0.22021	29.9087	1	0.0178488	10	0.00658617
2	1	0	1	0	1214.77	0.230066	0.229797	21.2222	1	0.0184525	10	0.00487678
2	1	0	1	0	1214.79	0.239665	0.239353	16.9798	1	0.0189029	10	0.00406417
2	1	0	1	0	1214.82	0.249262	0.248978	15.5284	1	0.0192894	10	0.00386625
2	1	0	1	0	1214.84	0.258862	0.258589	15.1312	1	0.0196563	10	0.00391276
2	1	0	1	0	1214.86	0.268461	0.268189	14.9495	1	0.0200171	10	0.0040093
2	1	0	1	0	1214.89	0.278069	0.277786	14.8059	1	0.0203744	10	0.00411288
2	1	0	1	0	1214.91	0.287666	0.287367	14.6257	1	0.0207276	10	0.00420295
2	1	0	1	0	1214.94	0.297265	0.296986	14.44	1	0.0210763	10	0.00428847
2	1	0	1	0	1214.95	0.295506	0.295279	2.13877	1	0.0212594	10	0.000631533
2	0	0	1	0	1214.98	0.28591	0.285688	-6.42007	1	0.0211809	10	-0.00183413
2	0	0	1	0	1215	0.276302	0.27603	-8.43219	1	0.0209976	10	-0.00232754
2	0	0	1	0	1215.03	0.266702	0.266435	-9.20203	1	0.0207853	10	-0.00245174
2	0	0	1	0	1215.05	0.257103	0.256824	-9.78669	1	0.0205574	10	-0.00251346
2	0	0	1	0	1215.07	0.247506	0.247211	-10.3119	1	0.0203162	10	-0.00254921
2	0	0	1	0	1215.1	0.237906	0.237565	-10.8882	1	0.0200616	10	-0.00258666
2	0	0	1	0	1215.12	0.22831	0.228026	-11.4959	1	0.019793	10	-0.00262136
2	0	0	1	0	1215.15	0.218699	0.218441	-12.2245	1	0.0195086	10	-0.00267032
2	0	0	1	0	1215.17	0.209102	0.208824	-13.0286	1	0.0192061	10	-0.00272069
2	0	0	1	0	1215.19	0.199503	0.199206	-14.0719	1	0.0188812	10	-0.0028032
2	0	0	1	0	1215.22	0.189906	0.189649	-15.4145	1	0.0185278	10	-0.00292333
2	0	0	1	0	1215.24	0.180307	0.180014	-17.2408	1	0.0181367	10	-0.00310359
2	0	0	1	0	1215.27	0.170707	0.170443	-19.6783	1	0.0176949	10	-0.00335401
2	0	0	1	0	1215.29	0.161099	0.160826	-22.9811	1	0.0171847	10	-0.00369596
2	0	0	1	0	1215.31	0.151503	0.151292	-27.269	1	0.0165833	10	-0.00412557
2	0	0	1	0	1215.34	0.141903	0.141691	-32.4041	1	0.0158673	10	-0.00459136
2	0	0	1	0	1215.36	0.132303	0.13207	-38.2628	1	0.0150192	10	-0.00505336
2	0	0	1	0	1215.39	0.122707	0.122505	-43.9751	1	0.0140311	10	-0.00538715
2	0	0	1	0	1215.41	0.113107	0.112845	-49.1264	1	0.0129111	10	-0.00554369
2	0	0	1	0	1215.43	0.103505	0.103188	-52.8372	1	0.0116836	10	-0.00545219
2	0	0	1	0	1215.46	0.0938999	0.0936299	-54.2232	1	0.010393	10	-0.00507691
2	0	0	1	0	1215.48	0.0843031	0.0839781	-52.4964	1	0.00910587	10	-0.00440855
2	0	0	1	0	1215.51	0.0747036	0.0743824	-47.7431	1	0.00789871	10	-0.00355125
2	0	0	1	0	1215.53	0.0651069	0.0647656	-41.6199	1	0.00682659	10	-0.00269554
2	0	0	1	0	1215.55	0.0555074	0.0552113	-35.979	1	0.00589799	10	-0.00198645
2	0	0	1	0	1215.58	0.0459051	0.0455988	-31.459	1	0.00509093	10	-0.00143449
2	0	0	1	0	1215.6	0.0363	0.0359883	-27.8497	1	0.00438122	10	-0.00100226
2	0	0	1	0	1215.63	0.0267033	0.0264107	-25.0858	1	0.00374842	10	-0.000662533
2	0	0	1	0	1215.65	0.0171038	0.0167992	-23.3462	1	0.0031698	10	-0.000392197
2	0	0	1	0	1215.67	0.00750426	0.00720568	-22.5991	1	0.00262027	10	-0.000162842
2	0	0	1	0	1215.7	-0.00209248	-0.00247053	-22.5685	1	0.00207904	10	5.57562e-05
2	0	0	1	0	1215.72	-0.011692	-0.0120206	-22.8704	1	0.00153433	10	0.000274914
2	0	0	1	0	1215.75	-0.0212998	-0.0217031	-23.3846	1	0.000979593	10	0.000507519
2	0	0	1	0	1215.77	-0.0308994	-0.0312171	-24.0317	1	0.000410923	10	0.000750199
2	0	0	1	0	1215.79	-0.0404961	-0.0408042	-24.7126	1	-0.000173897	10	0.00100838
2	0	0	1	0	1215.82	-0.0500956	-0.0504359	-25.4425	1	-0.000775866	10	0.00128322
2	0	0	1	0	1215.84	-0.0596924	-0.0600146	-26.1986	1	-0.00139571	10	0.0015723
2	0	0	1	0	1215.87	-0.0692919	-0.0695954	-27.004	1	-0.00203427	10	0.00187935
2	0	0	1	0	1215.89	-0.0788997	-0.0792111	-27.8851	1	-0.00269268	10	0.00220881
2	0	0	1	0	1215.91	-0.0884992	-0.0888831	-28.8535	1	-0.00337326	10	0.00256459
2	0	0	1	0	1215.94	-0.098096	-0.0984204	-29.973	1	-0.00407906	10	0.00294995
2	0	0	1	1	1215.96	-0.0946501	-0.0950907	-13.7307	1	-0.00451441	10	0.00130566
2	1	0	1	1	1215.98	-0.0850534	-0.085493	3.73634	1	-0.00461059	10	-0.000319431
2	1	0	1	1	1216	-0.0754539	-0.075891	13.193	1	-0.00439575	10	-0.00100123
2	1	0	1	1	1216.03	-0.0658571	-0.0662498	18.532	1	-0.00400787	10	-0.00122774
2	1	0	1	1	1216.05	-0.0562576	-0.0566001	21.3302	1	-0.00352553	10	-0.00120729
2	1	0	1	1	1216.08	-0.0466581	-0.0470172	22.7266	1	-0.00299463	10	-0.00106854
2	1	0	1	1	1216.1	-0.0370558	-0.0374268	23.2851	1	-0.00244128	10	-0.000871488
2	1	0	1	1	1216.12	-0.0274535	-0.0278111	23.3793	1	-0.00188057	10	-0.000650203
2	1	0	1	1	1216.15	-0.017854	-0.0181847	23.1853	1	-0.00132136	10	-0.000421617
2	1	0	1	1	1216.17	-0.00825448	-0.00858271	22.863	1	-0.000768615	10	-0.000196227
2	1	0	0	1	1216.19	2.44065e-05	-0.000191712	22.4594	1	-0.000299276	10	-4.30574e-06
2	1	0	1	0	2445.84	0.00846421	0.00811127	16.8744	2	0.000308417	10	0.000136873
2	1	0	1	0	2445.87	0.0180637	0.017727	19.5782	2	0.000751065	10	0.000347063
2	1	0	1	0	2445.89	0.0276605	0.027329	20.5626	2	0.00123485	10	0.000561956
2	1	0	1	0	2445.91	0.0372655	0.0369914	20.8977	2	0.00173293	10	0.000773035
2	1	0	1	0	2445.94	0.0468678	0.0465669	21.0511	2	0.00223601	10	0.000980286
2	1	0	1	0	2445.96	0.0564673	0.056153	21.3596	2	0.00274432	10	0.0011994
2	1	0	1	0	2445.99	0.0660641	0.065721	21.9992	2	0.00326378	10	0.00144581
2	1	0	1	0	2446.01	0.0756636	0.0753167	23.0412	2	0.00380371	10	0.00173539
2	1	0	1	0	2446.03	0.0852603	0.0849345	24.4966	2	0.00437289	10	0.00208061
2	1	0	1	0	2446.06	0.0948598	0.0945747	26.3325	2	0.00498266	10	0.00249038
2	1	0	1	0	2446.08	0.104468	0.104161	28.4208	2	0.00563946	10	0.00296033
2	1	0	1	0	2446.11	0.114067	0.113734	30.7364	2	0.00634908	10	0.00349578
2	1	0	1	0	2446.13	0.123664	0.12333	33.3317	2	0.00711729	10	0.0041108
2	1	0	1	0	2446.15	0.133263	0.132991	36.4247	2	0.00795339	10	0.00484416
2	1	0	1	0	2446.18	0.142863	0.142536	40.2095	2	0.00887197	10	0.0057313
2	1	0	1	0	2446.2	0.15246	0.15212	44.6376	2	0.0098899	10	0.00679027
2	1	0	1	0	2446.23	0.162068	0.161751	49.293	2	0.0110177	10	0.00797322
2	1	0	1	0	2446.25	0.171667	0.17134	53.4799	2	0.0122531	10	0.00916323
2	1	0	1	0	2446.27	0.181267	0.180985	56.1095	2	0.0135729	10	0.010155
2	1	0	1	0	2446.3	0.190863	0.190584	55.234	2	0.0149184	10	0.0105267
2	1	0	1	0	2446.32	0.200463	0.200153	48.8762	2	0.0161791	10	0.00978272
2	1	0	1	0	2446.35	0.21006	0.209785	37.8439	2	0.0172245	10	0.00793907
2	1	0	1	0	2446.37	0.219665	0.219399	26.5408	2	0.0179911	10	0.00582304
2	1	0	1	0	2446.39	0.229267	0.228945	19.0917	2	0.0185283	10	0.00437094
2	1	0	1	0	2446.42	0.238866	0.238581	15.904	2	0.0189411	10	0.0037944
2	1	0	1	0	2446.44	0.248463	0.2482	15.0503	2	0.01931	10	0.00373548
2	1	0	1	0	2446.47	0.258063	0.257761	14.9132	2	0.0196691	10	0.00384403
2	1	0	1	0	2446.49	0.267662	0.267366	14.8524	2	0.0200263	10	0.00397102
2	1	0	1	0	2446.51	0.277264	0.276947	14.7708	2	0.0203818	10	0.00409073
2	1	0	1	0	2446.54	0.286867	0.286536	14.6145	2	0.0207342	10	0.00418757
2	1	0	1	0	2446.56	0.296466	0.29619	14.4297	2	0.0210826	10	0.00427394
2	1	0	1	0	2446.58	0.296305	0.296077	3.28278	2	0.0212864	10	0.000971956
2	0	0	1	0	2446.6	0.286709	0.286421	-6.48604	2	0.0212159	10	-0.00185774
2	0	0	1	0	2446.63	0.277104	0.276808	-8.55088	2	0.0210299	10	-0.00236695
2	0	0	1	0	2446.65	0.267501	0.267246	-9.25815	2	0.0208153	10	-0.0024742
2	0	0	1	0	2446.68	0.257902	0.257652	-9.79796	2	0.0205866	10	-0.00252447
2	0	0	1	0	2446.7	0.248305	0.248023	-10.2864	2	0.0203455	10	-0.00255126
2	0	0	1	0	2446.72	0.238705	0.238436	-10.841	2	0.020092	10	-0.00258488
2	0	0	1	0	2446.75	0.229109	0.228818	-11.3984	2	0.0198252	10	-0.00260815
2	0	0	1	0	2446.77	0.219504	0.219229	-12.0621	2	0.0195438	10	-0.00264436
2	0	0	1	0	2446.8	0.209901	0.209653	-12.8317	2	0.0192454	10	-0.00269021
2	0	0	1	0	2446.82	0.200302	0.200009	-13.8087	2	0.0189261	10	-0.00276186
2	0	0	1	0	2446.84	0.190705	0.19045	-15.0652	2	0.0185803	10	-0.00286918
2	0	0	1	0	2446.87	0.181106	0.180775	-16.7358	2	0.0181995	10	-0.00302542
2	0	0	1	0	2446.89	0.171506	0.171262	-19.0624	2	0.0177709	10	-0.00326466
2	0	0	1	0	2446.92	0.161909	0.16162	-22.2214	2	0.0172769	10	-0.00359142
2	0	0	1	0	2446.94	0.152302	0.152	-26.4786	2	0.0166944	10	-0.00402475
2	0	0	1	0	2446.96	0.142702	0.142414	-31.7302	2	0.0159975	10	-0.00451882
2	0	0	1	0	2446.99	0.133103	0.132901	-37.5081	2	0.0151674	10	-0.00498486
2	0	0	1	0	2447.01	0.123506	0.123332	-43.3427	2	0.0141953	10	-0.00534554
2	0	0	1	0	2447.04	0.113906	0.113646	-48.59	2	0.0130897	10	-0.00552207
2	0	0	1	0	2447.06	0.10431	0.104032	-52.3858	2	0.0118741	10	-0.00544982
2	0	0	1	0	2447.08	0.0946989	0.094422	-53.9872	2	0.0105925	10	-0.00509758
2	0	0	1	0	2447.11	0.0851022	0.0847967	-52.6222	2	0.0093074	10	-0.00446218
2	0	0	1	0	2447.13	0.0755027	0.0752286	-48.4586	2	0.0080901	10	-0.00364548
2	0	0	1	0	2447.16	0.0659059	0.06558	-42.9648	2	0.0069929	10	-0.00281763
2	0	0	1	0	2447.18	0.0563064	0.0559833	-37.8175	2	0.00602563	10	-0.00211715
2	0	0	1	0	2447.2	0.0467069	0.0463771	-33.5235	2	0.00517134	10	-0.00155472
2	0	0	1	0	2447.23	0.0371046	0.0367963	-29.7298	2	0.00441331	10	-0.00109395
2	0	0	1	0	2447.25	0.0275023	0.0272071	-26.4538	2	0.0037407	10	-0.00071973
2	0	0	1	0	2447.28	0.0179028	0.0176051	-24.1058	2	0.00313651	10	-0.000424385
2	0	0	1	0	2447.3	0.00830329	0.00801689	-22.9388	2	0.00257428	10	-0.000183898
2	0	0	1	0	2447.32	-0.00129345	-0.00162326	-22.6917	2	0.00202826	10	3.68346e-05
2	0	0	1	0	2447.35	-0.010893	-0.0112613	-22.8532	2	0.00148264	10	0.000257356
2	0	0	1	0	2447.37	-0.0204953	-0.0208495	-23.3099	2	0.000928892	10	0.000485999
2	0	0	1	0	2447.4	-0.0301003	-0.030461	-23.9584	2	0.000361779	10	0.000729796
2	0	0	1	0	2447.42	-0.0396971	-0.0400704	-24.6561	2	-0.000221484	10	0.000987979
2	0	0	1	0	2447.44	-0.0492966	-0.0496258	-25.4083	2	-0.000822104	10	0.00126091
2	0	0	1	0	2447.47	-0.0588933	-0.0591991	-26.1472	2	-0.00144082	10	0.00154789
2	0	0	1	0	2447.49	-0.0684928	-0.068781	-26.9468	2	-0.0020782	10	0.00185343
2	0	0	1	0	2447.52	-0.0780924	-0.0784402	-27.7983	2	-0.00273539	10	0.0021805
2	0	0	1	0	2447.54	-0.0877002	-0.0880295	-28.805	2	-0.0034145	10	0.00253569
2	0	0	1	0	2447.56	-0.0972969	-0.0976336	-29.8987	2	-0.00411855	10	0.00291911
2	0	0	1	1	2447.58	-0.0954603	-0.0959178	-15.2377	2	-0.00458066	10	0.00146156
2	1	0	1	1	2447.61	-0.0858524	-0.086249	3.55108	2	-0.00469386	10	-0.000306277
2	1	0	1	1	2447.63	-0.0762529	-0.0767298	13.487	2	-0.00447672	10	-0.00103485
2	1	0	1	1	2447.65	-0.0666562	-0.066973	18.9777	2	-0.00407979	10	-0.001271
2	1	0	1	1	2447.68	-0.0570567	-0.0573805	21.747	2	-0.00358695	10	-0.00124786
2	1	0	1	1	2447.7	-0.0474571	-0.0477775	23.0943	2	-0.00304637	10	-0.00110339
2	1	0	1	1	2447.73	-0.0378604	-0.0381893	23.5899	2	-0.0024847	10	-0.00090088
2	1	0	1	1	2447.75	-0.0282526	-0.028617	23.6474	2	-0.00191721	10	-0.000676717
2	1	0	1	1	2447.77	-0.018653	-0.0190436	23.3986	2	-0.00135256	10	-0.000445594
2	1	0	1	1	2447.8	-0.00905352	-0.00943104	23.0007	2	-0.00079578	10	-0.00021692
2	1	0	0	1	2447.82	-7.54729e-05	-0.000478022	22.5599	2	-0.000283143	10	-1.07841e-05
2	1	0	1	0	3677.47	0.00766518	0.00733505	15.859	3	0.000272546	10	0.000116327
2	1	0	1	0	3677.49	0.0172647	0.016989	18.3949	3	0.000687483	10	0.000312511
2	1	0	1	0	3677.52	0.0268614	0.0265083	19.5175	3	0.00114418	10	0.000517376
2	1	0	1	0	3677.54	0.0364609	0.0361527	20.042	3	0.00161978	10	0.00072457
2	1	0	1	0	3677.56	0.0460688	0.0457239	20.4163	3	0.00210541	10	0.000933514
2	1	0	1	0	3677.59	0.0556683	0.0553471	20.877	3	0.00260055	10	0.00115548
2	1	0	1	0	3677.61	0.065265	0.0649533	21.5976	3	0.00310963	10	0.00140284
2	1	0	1	0	3677.64	0.0748645	0.0745574	22.7008	3	0.00364072	10	0.00169251
2	1	0	1	0	3677.66	0.0844613	0.084135	24.0806	3	0.00420178	10	0.00202602
2	1	0	1	0	3677.68	0.0940608	0.0937052	25.8957	3	0.0048015	10	0.00242656
2	1	0	1	0	3677.71	0.103669	0.103327	27.8267	3	0.00544603	10	0.00287526
2	1	0	1	0	3677.73	0.113268	0.112936	29.9101	3	0.00613872	10	0.00337791
2	1	0	1	0	3677.76	0.122865	0.12259	32.136	3	0.00688275	10	0.00393954
2	1	0	1	0	3677.78	0.132464	0.132124	34.6904	3	0.00768384	10	0.00458342
2	1	0	1	0	3677.8	0.142064	0.141745	37.7869	3	0.0085528	10	0.0053561
2	1	0	1	0	3677.83	0.151661	0.151298	41.4422	3	0.00950327	10	0.00627012
2	1	0	1	0	3677.85	0.16126	0.160971	45.3481	3	0.0105452	10	0.00729973
2	1	0	1	0	3677.88	0.170868	0.170521	49.1073	3	0.0116799	10	0.00837383
2	1	0	1	0	3677.9	0.180468	0.180164	51.9614	3	0.0128954	10	0.00936158
2	1	0	1	0	3677.92	0.190064	0.189749	52.6394	3	0.0141569	10	0.00998829
2	1	0	1	0	3677.95	0.199664	0.199368	49.0916	3	0.0153875	10	0.00978731
2	1	0	1	0	3677.97	0.20926	0.209022	40.7563	3	0.0164727	10	0.00851897
2	1	0	1	0	3678	0.21886	0.218572	30.55	3	0.0173263	10	0.00667738
2	1	0	1	0	3678.02	0.228468	0.228185	22.7493	3	0.0179578	10	0.00519105
2	1	0	1	0	3678.04	0.238067	0.237754	18.5771	3	0.0184467	10	0.00441677
2	1	0	1	0	3678.07	0.247664	0.247391	16.8034	3	0.0188679	10	0.00415701
2	1	0	1	0	3678.09	0.257264	0.256937	16.0264	3	0.0192606	10	0.00411777
2	1	0	1	0	3678.12	0.266863	0.266577	15.6029	3	0.0196398	10	0.00415936
2	1	0	1	0	3678.14	0.27646	0.276201	15.2663	3	0.0200101	10	0.00421657
2	1	0	1	0	3678.16	0.286068	0.285787	14.9934	3	0.0203732	10	0.00428491
2	1	0	1	0	3678.19	0.295667	0.295359	14.7228	3	0.0207295	10	0.00434852
2	1	0	1	0	3678.21	0.297104	0.296901	6.50926	3	0.0209633	10	0.00193261
2	0	0	1	0	3678.23	0.287508	0.287227	-4.35346	3	0.0209576	10	-0.00125043
2	0	0	1	0	3678.25	0.277908	0.277624	-7.19712	3	0.0208122	10	-0.00199809
2	0	0	1	0	3678.28	0.2683	0.268018	-8.34145	3	0.0206243	10	-0.00223566
2	0	0	1	0	3678.3	0.258701	0.258411	-9.0302	3	0.0204156	10	-0.0023335
2	0	0	1	0	3678.33	0.249104	0.248835	-9.63206	3	0.0201915	10	-0.0023968
2	0	0	1	0	3678.35	0.239505	0.239206	-10.1831	3	0.0199537	10	-0.00243585
2	0	0	1	0	3678.37	0.229908	0.229594	-10.7537	3	0.0197024	10	-0.002469
2	0	0	1	0	3678.4	0.220308	0.220008	-11.3591	3	0.019437	10	-0.0024991
2	0	0	1	0	3678.42	0.2107	0.210425	-12.0764	3	0.019156	10	-0.00254118
2	0	0	1	0	3678.45	0.201101	0.200815	-12.8943	3	0.0188569	10	-0.00258937
2	0	0	1	0	3678.47	0.191504	0.191182	-13.9269	3	0.0185357	10	-0.00266258
2	0	0	1	0	3678.49	0.181905	0.18164	-15.2785	3	0.0181858	10	-0.00277519
2	0	0	1	0	3678.52	0.172305	0.172046	-17.1495	3	0.0177974	10	-0.00295051
2	0	0	1	0	3678.54	0.162708	0.162412	-19.7057	3	0.0173565	10	-0.00320045
2	0	0	1	0	3678.57	0.153103	0.152838	-23.14	3	0.016844	10	-0.00353666
2	0	0	1	0	3678.59	0.143501	0.143204	-27.5444	3	0.0162371	10	-0.00394446
2	0	0	1	0	3678.61	0.133902	0.133658	-32.556	3	0.0155156	10	-0.00435137
2	0	0	1	0	3678.64	0.124305	0.124084	-37.8352	3	0.0146704	10	-0.00469473
2	0	0	1	0	3678.66	0.114705	0.114487	-42.7006	3	0.0137024	10	-0.00488866
2	0	0	1	0	3678.69	0.105109	0.104804	-46.7787	3	0.012626	10	-0.00490262
2	0	0	1	0	3678.71	0.095509	0.0952046	-49.3684	3	0.0114684	10	-0.0047001
2	0	0	1	0	3678.73	0.0859012	0.0855941	-49.9313	3	0.010272	10	-0.00427382
2	0	0	1	0	3678.76	0.0763017	0.0759964	-48.1299	3	0.00909106	10	-0.0036577
2	0	0	1	0	3678.78	0.066705	0.0664315	-44.5756	3	0.00797702	10	-0.00296123
2	0	0	1	0	3678.81	0.0571054	0.0567807	-40.69	3	0.0069547	10	-0.00231041
2	0	0	1	0	3678.83	0.0475059	0.0471724	-37.1624	3	0.00602155	10	-0.00175304
2	0	0	1	0	3678.85	0.0379092	0.037634	-33.8266	3	0.00516983	10	-0.00127303
2	0	0	1	0	3678.88	0.0283014	0.0279515	-30.4228	3	0.00439925	10	-0.000850363
2	0	0	1	0	3678.9	0.0187018	0.0183856	-27.283	3	0.00370857	10	-0.000501612
2	0	0	1	0	3678.93	0.00910233	0.00879841	-25.0334	3	0.00308335	10	-0.000220254
2	0	0	1	0	3678.95	-0.000494411	-0.000878856	-23.8684	3	0.00249871	10	2.09769e-05
2	0	0	1	0	3678.97	-0.0100939	-0.0104109	-23.3827	3	0.00193294	10	0.000243434
2	0	0	1	0	3679	-0.0196907	-0.0200627	-23.4188	3	0.00137209	10	0.000469844
2	0	0	1	0	3679.02	-0.0293013	-0.0296424	-23.7393	3	0.000806883	10	0.000703689
2	0	0	1	0	3679.05	-0.038898	-0.0392507	-24.2334	3	0.000231745	10	0.000951178
2	0	0	1	0	3679.07	-0.0484976	-0.0488103	-24.7964	3	-0.000356347	10	0.00121032
2	0	0	1	0	3679.09	-0.0580943	-0.058459	-25.4393	3	-0.000959256	10	0.00148715
2	0	0	1	0	3679.12	-0.0676938	-0.0680472	-26.1381	3	-0.00157826	10	0.00177862
2	0	0	1	0	3679.14	-0.0772933	-0.0776269	-26.9069	3	-0.00221474	10	0.0020887
2	0	0	1	0	3679.17	-0.0868956	-0.0872267	-27.7455	3	-0.00287049	10	0.00242015
2	0	0	1	0	3679.19	-0.0964979	-0.0968627	-28.7396	3	-0.00354823	10	0.00278379
2	0	0	1	1	3679.21	-0.0962593	-0.0966898	-18.1303	3	-0.0040264	10	0.00175301
2	0	0	1	1	3679.23	-0.0866515	-0.087039	-0.464264	3	-0.00422629	10	4.04091e-05
2	1	0	1	1	3679.26	-0.077052	-0.0775261	9.37154	3	-0.00410777	10	-0.00072654
2	1	0	1	1	3679.28	-0.0674552	-0.0678276	15.2576	3	-0.00380557	10	-0.00103488
2	1	0	1	1	3679.3	-0.0578557	-0.0582098	18.6576	3	-0.00339415	10	-0.00108605
2	1	0	1	1	3679.33	-0.0482562	-0.0485993	20.5734	3	-0.00292095	10	-0.000999851
2	1	0	1	1	3679.35	-0.0386594	-0.0390164	21.5631	3	-0.00241372	10	-0.000841315
2	1	0	1	1	3679.38	-0.0290599	-0.0293815	22.0188	3	-0.00188971	10	-0.000646947
2	1	0	1	1	3679.4	-0.0194521	-0.0198198	22.1024	3	-0.00135961	10	-0.000438066
2	1	0	1	1	3679.42	-0.00985255	-0.0102147	21.9869	3	-0.000830117	10	-0.000224589
2	1	0	1	1	3679.45	-0.000375111	-0.000740473	21.729	3	-0.000311827	10	-1.60897e-05
2	1	0	1	0	4909.09	0.00686614	0.00656944	15.4219	4	0.000240864	10	0.000101313
2	1	0	1	0	4909.12	0.0164657	0.0161216	17.9889	4	0.000645375	10	0.00029001
2	1	0	1	0	4909.14	0.0260624	0.0257745	19.2118	4	0.00109361	10	0.000495175
2	1	0	1	0	4909.17	0.0356619	0.0353425	19.8501	4	0.00156324	10	0.000701552
2	1	0	1	0	4909.19	0.0452586	0.0449445	20.3344	4	0.00204572	10	0.000913919
2	1	0	1	0	4909.21	0.0548693	0.0545783	20.9414	4	0.00254064	10	0.00114294
2	1	0	1	0	4909.24	0.064466	0.0641241	21.7733	4	0.00305249	10	0.00139619
2	1	0	1	0	4909.26	0.0740655	0.0737928	22.9792	4	0.00358892	10	0.0016957
2	1	0	1	0	4909.29	0.0836622	0.0833344	24.4157	4	0.00415738	10	0.00203467
2	1	0	1	0	4909.31	0.0932618	0.0929745	26.2511	4	0.00476514	10	0.00244068
2	1	0	1	0	4909.33	0.102861	0.102553	28.1402	4	0.00541794	10	0.00288587
2	1	0	1	0	4909.36	0.112469	0.112128	30.1653	4	0.00611769	10	0.00338236
2	1	0	1	0	4909.38	0.122066	0.121742	32.3018	4	0.00686702	10	0.0039325
2	1	0	1	0	4909.41	0.131665	0.13134	34.7384	4	0.00767086	10	0.00456254
2	1	0	1	0	4909.43	0.141265	0.140953	37.6446	4	0.00853878	10	0.0053061
2	1	0	1	0	4909.45	0.150862	0.150507	41.004	4	0.0094824	10	0.00617138
2	1	0	1	0	4909.48	0.160461	0.160145	44.5337	4	0.0105094	10	0.00713184
2	1	0	1	0	4909.5	0.170069	0.169746	47.8457	4	0.011619	10	0.00812162
2	1	0	1	0	4909.53	0.179668	0.179369	50.1636	4	0.012798	10	0.0089978
2	1	0	1	0	4909.55	0.189265	0.188984	50.2736	4	0.0140095	10	0.00950089
2	1	0	1	0	4909.57	0.198865	0.198539	46.4348	4	0.0151786	10	0.00921912
2	1	0	1	0	4909.6	0.208461	0.208195	38.5939	4	0.016204	10	0.00803506
2	1	0	1	0	4909.62	0.218061	0.217832	29.5813	4	0.0170195	10	0.00644377
2	1	0	1	0	4909.65	0.227663	0.22741	22.8156	4	0.0176412	10	0.00518848
2	1	0	1	0	4909.67	0.237268	0.236985	19.1744	4	0.0181393	10	0.00454405
2	1	0	1	0	4909.69	0.246865	0.246561	17.5379	4	0.018577	10	0.00432416
2	1	0	1	0	4909.72	0.256465	0.256159	16.7539	4	0.0189874	10	0.00429167
2	1	0	1	0	4909.74	0.266064	0.265766	16.2738	4	0.0193833	10	0.00432502
2	1	0	1	0	4909.77	0.275661	0.27537	15.8643	4	0.019769	10	0.00436854
2	1	0	1	0	4909.79	0.28526	0.284976	15.5318	4	0.0201458	10	0.0044262
2	1	0	1	0	4909.81	0.294868	0.294573	15.2093	4	0.0205146	10	0.00448024
2	1	0	1	0	4909.83	0.297903	0.297698	8.97745	4	0.0207718	10	0.00267257
2	0	0	1	0	4909.86	0.288307	0.288028	-3.16404	4	0.0208069	10	-0.000911332
2	0	0	1	0	4909.88	0.278707	0.278462	-6.44346	4	0.0206839	10	-0.00179426
2	0	0	1	0	4909.9	0.269105	0.268844	-7.76457	4	0.0205114	10	-0.00208746
2	0	0	1	0	4909.93	0.2595	0.259265	-8.57968	4	0.0203149	10	-0.00222441
2	0	0	1	0	4909.95	0.249903	0.249611	-9.22981	4	0.0201012	10	-0.00230387
2	0	0	1	0	4909.98	0.240304	0.240051	-9.81153	4	0.0198726	10	-0.00235527
2	0	0	1	0	4910	0.230707	0.230431	-10.3954	4	0.0196299	10	-0.00239542
2	0	0	1	0	4910.02	0.221107	0.22082	-10.9888	4	0.0193731	10	-0.00242654
2	0	0	1	0	4910.05	0.211505	0.211163	-11.6704	4	0.0191012	10	-0.00246435
2	0	0	1	0	4910.07	0.2019	0.201582	-12.4449	4	0.0188122	10	-0.00250868
2	0	0	1	0	4910.1	0.192303	0.192021	-13.3694	4	0.0185031	10	-0.0025672
2	0	0	1	0	4910.12	0.182704	0.182382	-14.5641	4	0.0181685	10	-0.00265623
2	0	0	1	0	4910.14	0.173104	0.172786	-16.2062	4	0.0178	10	-0.0028002
2	0	0	1	0	4910.17	0.163507	0.163236	-18.4473	4	0.0173853	10	-0.00301127
2	0	0	1	0	4910.19	0.153908	0.153604	-21.5194	4	0.0169072	10	-0.00330547
2	0	0	1	0	4910.22	0.1443	0.144059	-25.532	4	0.0163443	10	-0.00367811
2	0	0	1	0	4910.24	0.134701	0.134435	-30.3099	4	0.0156749	10	-0.00407472
2	0	0	1	0	4910.26	0.125104	0.124872	-35.3157	4	0.0148875	10	-0.00440993
2	0	0	1	0	4910.29	0.115504	0.115308	-40.1144	4	0.0139806	10	-0.0046255
2	0	0	1	0	4910.31	0.105908	0.105688	-44.1997	4	0.012967	10	-0.00467136
2	0	0	1	0	4910.34	0.0963081	0.0959766	-47.0577	4	0.0118685	10	-0.00451644
2	0	0	1	0	4910.36	0.0867002	0.0864234	-48.2356	4	0.0107211	10	-0.00416868
2	0	0	1	0	4910.38	0.0771007	0.0767864	-47.3676	4	0.00956989	10	-0.00363719
2	0	0	1	0	4910.41	0.067504	0.067195	-44.6814	4	0.00846302	10	-0.00300237
2	0	0	1	0	4910.43	0.0579045	0.0576397	-41.3447	4	0.00743101	10	-0.00238309
2	0	0	1	0	4910.46	0.048305	0.0479698	-38.2177	4	0.00647743	10	-0.0018333
2	0	0	1	0	4910.48	0.0387082	0.0384378	-35.3304	4	0.00559513	10	-0.00135802
2	0	0	1	0	4910.5	0.0291087	0.0287807	-32.3143	4	0.00478303	10	-0.000930028
2	0	0	1	0	4910.53	0.0195009	0.0191596	-29.2006	4	0.00404536	10	-0.000559473
2	0	0	1	0	4910.55	0.00990136	0.00959372	-26.5631	4	0.00337835	10	-0.000254839
2	0	0	1	0	4910.58	0.000304623	-5.91615e-05	-24.9261	4	0.0027632	10	1.47467e-06
2	0	0	1	0	4910.6	-0.00929489	-0.00961555	-24.0477	4	0.00217706	10	0.000231232
2	0	0	1	0	4910.62	-0.0188916	-0.0192207	-23.8149	4	0.00160341	10	0.000457739
2	0	0	1	0	4910.65	-0.0284912	-0.028811	-23.957	4	0.00103068	10	0.000690225
2	0	0	1	0	4910.67	-0.038099	-0.038466	-24.3475	4	0.000451514	10	0.000936551
2	0	0	1	0	4910.7	-0.0476985	-0.0480606	-24.831	4	-0.000138175	10	0.00119339
2	0	0	1	0	4910.72	-0.0572953	-0.0576191	-25.4194	4	-0.000741097	10	0.00146464
2	0	0	1	0	4910.74	-0.0668948	-0.0671967	-26.0672	4	-0.00135894	10	0.00175163
2	0	0	1	0	4910.77	-0.0764943	-0.0768316	-26.81	4	-0.00199342	10	0.00205986
2	0	0	1	0	4910.79	-0.086091	-0.086407	-27.6155	4	-0.00264632	10	0.00238617
2	0	0	1	0	4910.82	-0.0956989	-0.096062	-28.5545	4	-0.00332021	10	0.002743
2	0	0	1	1	4910.83	-0.0970583	-0.0974936	-20.3203	4	-0.00381653	10	0.0019811
2	0	0	1	1	4910.86	-0.0874588	-0.0878768	-2.27431	4	-0.00406362	10	0.000199859
2	1	0	1	1	4910.88	-0.077851	-0.0782684	7.89655	4	-0.00398432	10	-0.000618051
2	1	0	1	1	4910.91	-0.0682542	-0.0686633	14.003	4	-0.00371514	10	-0.000961493
2	1	0	1	1	4910.93	-0.0586547	-0.0590507	17.6652	4	-0.00333077	10	-0.00104314
2	1	0	1	1	4910.95	-0.0490552	-0.0494275	19.7518	4	-0.00287921	10	-0.000976281
2	1	0	1	1	4910.98	-0.0394585	-0.0398128	20.9238	4	-0.00238936	10	-0.000833035
2	1	0	1	1	4911	-0.0298589	-0.0302521	21.4838	4	-0.00187951	10	-0.00064993
2	1	0	1	1	4911.03	-0.0202511	-0.0206247	21.6775	4	-0.00136104	10	-0.000447091
2	1	0	1	1	4911.05	-0.0106516	-0.0110397	21.6122	4	-0.00084132	10	-0.000238592
2	1	0	1	1	4911.07	-0.00105485	-0.00140164	21.4177	4	-0.000324792	10	-3.00198e-05
2	1	0	1	0	6140.72	0.00606711	0.00574338	15.206	5	0.000215411	10	8.73339e-05
2	1	0	1	0	6140.74	0.0156666	0.0153698	17.6443	5	0.000612418	10	0.000271188
2	1	0	1	0	6140.77	0.0252634	0.0249304	18.9223	5	0.00105288	10	0.00047174
2	1	0	1	0	6140.79	0.0348629	0.0345599	19.686	5	0.00151701	10	0.000680348
2	1	0	1	0	6140.82	0.0444596	0.044129	20.2786	5	0.00199686	10	0.000894875
2	1	0	1	0	6140.84	0.0540647	0.0537225	20.9973	5	0.00249185	10	0.00112803
2	1	0	1	0	6140.86	0.063667	0.0633733	21.9219	5	0.00300622	10	0.00138927
2	1	0	1	0	6140.89	0.0732665	0.0729604	23.1739	5	0.00354681	10	0.00169078
2	1	0	1	0	6140.91	0.0828632	0.082555	24.6613	5	0.00412072	10	0.00203592
2	1	0	1	0	6140.94	0.0924627	0.0921209	26.4543	5	0.00473374	10	0.00243699
2	1	0	1	0	6140.96	0.102062	0.101758	28.3185	5	0.00539126	10	0.00288164
2	1	0	1	0	6140.98	0.111665	0.111328	30.2635	5	0.00609426	10	0.00336918
2	1	0	1	0	6141.01	0.121267	0.120981	32.2798	5	0.00684456	10	0.00390524
2	1	0	1	0	6141.03	0.130866	0.130538	34.5725	5	0.00764616	10	0.00451304
2	1	0	1	0	6141.06	0.140466	0.140158	37.2792	5	0.00850782	10	0.005225
2	1	0	1	0	6141.08	0.150063	0.149717	40.4088	5	0.00943994	10	0.00604988
2	1	0	1	0	6141.1	0.159662	0.159355	43.6481	5	0.0104491	10	0.00695555
2	1	0	1	0	6141.13	0.169259	0.168981	46.6575	5	0.011534	10	0.00788425
2	1	0	1	0	6141.15	0.178869	0.178584	48.841	5	0.0126827	10	0.00872224
2	1	0	1	0	6141.18	0.188466	0.188155	49.0288	5	0.0138627	10	0.00922498
2	1	0	1	0	6141.2	0.198066	0.197748	45.6801	5	0.0150072	10	0.00903315
2	1	0	1	0	6141.22	0.207662	0.207395	38.5973	5	0.0160235	10	0.00800486
2	1	0	1	0	6141.25	0.217262	0.217027	30.2552	5	0.0168478	10	0.00656621
2	1	0	1	0	6141.27	0.226861	0.226572	23.8617	5	0.0174912	10	0.0054064
2	1	0	1	0	6141.3	0.236469	0.236205	20.1883	5	0.0180147	10	0.00476856
2	1	0	1	0	6141.32	0.246066	0.245764	18.3139	5	0.0184737	10	0.00450091
2	1	0	1	0	6141.34	0.255666	0.255365	17.2611	5	0.0188993	10	0.00440787
2	1	0	1	0	6141.37	0.265265	0.264953	16.6021	5	0.0193053	10	0.00439877
2	1	0	1	0	6141.39	0.274862	0.274559	16.0991	5	0.0196975	10	0.00442016
2	1	0	1	0	6141.42	0.284461	0.284234	15.6832	5	0.0200788	10	0.00445771
2	1	0	1	0	6141.44	0.294064	0.293778	15.3101	5	0.0204507	10	0.00449777
2	1	0	1	0	6141.46	0.298702	0.298557	11.2606	5	0.0207199	10	0.00336192
2	0	0	1	0	6141.48	0.289106	0.288807	-2.11286	5	0.020792	10	-0.000610209
2	0	0	1	0	6141.51	0.279506	0.279244	-5.92781	5	0.020687	10	-0.00165531
2	0	0	1	0	6141.53	0.269909	0.269576	-7.49122	5	0.0205239	10	-0.00201945
2	0	0	1	0	6141.55	0.260299	0.260033	-8.40777	5	0.0203325	10	-0.0021863
2	0	0	1	0	6141.58	0.250702	0.250389	-9.09607	5	0.0201223	10	-0.00227755
2	0	0	1	0	6141.6	0.241103	0.240804	-9.70591	5	0.0198964	10	-0.00233722
2	0	0	1	0	6141.63	0.231506	0.231185	-10.3	5	0.0196562	10	-0.00238121
2	0	0	1	0	6141.65	0.221906	0.221611	-10.8746	5	0.0194021	10	-0.00240993
2	0	0	1	0	6141.67	0.212307	0.211998	-11.4966	5	0.0191337	10	-0.00243726
2	0	0	1	0	6141.7	0.202705	0.202373	-12.189	5	0.0188495	10	-0.00246673
2	0	0	1	0	6141.72	0.193102	0.192784	-13.0397	5	0.018547	10	-0.00251385
2	0	0	1	0	6141.75	0.183503	0.183188	-14.1011	5	0.0182219	10	-0.00258315
2	0	0	1	0	6141.77	0.173903	0.173636	-15.5431	5	0.0178669	10	-0.00269885
2	0	0	1	0	6141.79	0.164306	0.164029	-17.5075	5	0.0174714	10	-0.00287174
2	0	0	1	0	6141.82	0.154707	0.154448	-20.2315	5	0.0170199	10	-0.00312472
2	0	0	1	0	6141.84	0.145105	0.144841	-23.8521	5	0.0164925	10	-0.00345477
2	0	0	1	0	6141.87	0.1355	0.135211	-28.3242	5	0.0158671	10	-0.00382973
2	0	0	1	0	6141.89	0.125903	0.125677	-33.0857	5	0.0151298	10	-0.00415812
2	0	0	1	0	6141.91	0.116303	0.116061	-37.8238	5	0.0142773	10	-0.00438986
2	0	0	1	0	6141.94	0.106707	0.106477	-41.8633	5	0.0133193	10	-0.00445747
2	0	0	1	0	6141.96	0.0971071	0.0968143	-44.9447	5	0.0122745	10	-0.00435129
2	0	0	1	0	6141.99	0.0875076	0.0872059	-46.5902	5	0.0111726	10	-0.00406294
2	0	0	1	0	6142.01	0.0778998	0.0776071	-46.5362	5	0.0100515	10	-0.00361154
2	0	0	1	0	6142.03	0.068303	0.0679882	-44.7224	5	0.00895387	10	-0.0030406
2	0	0	1	0	6142.06	0.0587035	0.0584053	-41.9901	5	0.00791282	10	-0.00245245
2	0	0	1	0	6142.08	0.049104	0.0488097	-39.2744	5	0.00693832	10	-0.00191697
2	0	0	1	0	6142.11	0.0395073	0.0391854	-36.7909	5	0.0060259	10	-0.00144167
2	0	0	1	0	6142.13	0.0299077	0.0296184	-34.2087	5	0.00517357	10	-0.00101321
2	0	0	1	0	6142.15	0.0202999	0.0200101	-31.3261	5	0.00438684	10	-0.000626839
2	0	0	1	0	6142.18	0.0107004	0.0103646	-28.4421	5	0.00367068	10	-0.000294792
2	0	0	1	0	6142.2	0.00110366	0.000743566	-26.3031	5	0.00301626	10	-1.95581e-05
2	0	0	1	0	6142.23	-0.00849586	-0.00879479	-24.9506	5	0.00240306	10	0.000219435
2	0	0	1	0	6142.25	-0.0180926	-0.018454	-24.3341	5	0.00181286	10	0.000449062
2	0	0	1	0	6142.27	-0.0276921	-0.02802	-24.2062	5	0.00123111	10	0.000678257
2	0	0	1	0	6142.3	-0.0373	-0.0376485	-24.4059	5	0.000648294	10	0.000918845
2	0	0	1	0	6142.32	-0.0468995	-0.0472303	-24.7832	5	5.83604e-05	10	0.00117052
2	0	0	1	0	6142.35	-0.0564962	-0.0568471	-25.3084	5	-0.000542535	10	0.00143871
2	0	0	1	0	6142.37	-0.0660957	-0.066429	-25.9072	5	-0.00115691	10	0.00172099
2	0	0	1	0	6142.39	-0.0756953	-0.0760384	-26.6049	5	-0.00178682	10	0.002023
2	0	0	1	0	6142.42	-0.085292	-0.0856319	-27.3648	5	-0.00243437	10	0.0023433
2	0	0	1	0	6142.44	-0.0948915	-0.0952233	-28.2727	5	-0.00310214	10	0.00269222
2	0	0	1	1	6142.46	-0.0978574	-0.0982295	-22.4737	5	-0.00361008	10	0.00220758
2	0	0	1	1	6142.49	-0.0882579	-0.0886848	-4.32127	5	-0.00390712	10	0.000383231
2	1	0	1	1	6142.51	-0.0786556	-0.0790913	5.99775	5	-0.00387539	10	-0.00047437
2	1	0	1	1	6142.53	-0.0690533	-0.0694596	12.3291	5	-0.00364925	10	-0.000856372
2	1	0	1	1	6142.56	-0.0594538	-0.0598332	16.3093	5	-0.00330136	10	-0.000975841
2	1	0	1	1	6142.58	-0.0498542	-0.0501878	18.6985	5	-0.00287872	10	-0.000938434
2	1	0	1	1	6142.61	-0.0402575	-0.0406272	20.1219	5	-0.00241116	10	-0.000817497
2	1	0	1	1	6142.63	-0.030658	-0.0310432	20.9006	5	-0.00191763	10	-0.000648822
2	1	0	1	1	6142.65	-0.0210612	-0.0213924	21.268	5	-0.00141063	10	-0.000454974
2	1	0	1	1	6142.68	-0.0114506	-0.011782	21.3759	5	-0.000898472	10	-0.00025185
2	1	0	1	1	6142.7	-0.00185388	-0.00222239	21.2869	5	-0.000386451	10	-4.73079e-05
2	1	0	1	0	7372.35	0.00526807	0.00496292	14.7791	6	0.000182201	10	7.33477e-05
2	1	0	1	0	7372.37	0.0148676	0.0145257	17.4965	6	0.000572564	10	0.000254149
2	1	0	1	0	7372.39	0.0244643	0.0241361	18.9824	6	0.00101226	10	0.000458161
2	1	0	1	0	7372.42	0.0340638	0.0337455	19.843	6	0.00147903	10	0.000669614
2	1	0	1	0	7372.44	0.0436606	0.0433507	20.5396	6	0.0019639	10	0.000890407
2	1	0	1	0	7372.47	0.0532601	0.0529198	21.3207	6	0.00246606	10	0.00112829
2	1	0	1	0	7372.49	0.0628679	0.0625621	22.3652	6	0.00298975	10	0.00139922
2	1	0	1	0	7372.51	0.0724674	0.0721482	23.7115	6	0.00354216	10	0.00171074
2	1	0	1	0	7372.54	0.0820642	0.0817257	25.2727	6	0.00412944	10	0.00206543
2	1	0	1	0	7372.56	0.0916637	0.0913245	27.0936	6	0.00475799	10	0.00247431
2	1	0	1	0	7372.59	0.101263	0.100946	28.9722	6	0.00543107	10	0.00292462
2	1	0	1	0	7372.61	0.11086	0.11052	30.8852	6	0.00614961	10	0.00341343
2	1	0	1	0	7372.63	0.120468	0.12019	32.9255	6	0.00691511	10	0.00395731
2	1	0	1	0	7372.66	0.130067	0.129749	35.2153	6	0.0077321	10	0.00456917
2	1	0	1	0	7372.68	0.139667	0.139364	37.9382	6	0.00860936	10	0.00528722
2	1	0	1	0	7372.71	0.149264	0.148914	40.9938	6	0.00955637	10	0.00610456
2	1	0	1	0	7372.73	0.158863	0.158524	44.0852	6	0.0105778	10	0.00698854
2	1	0	1	0	7372.75	0.16846	0.168131	46.8558	6	0.0116704	10	0.0078779
2	1	0	1	0	7372.78	0.178065	0.177753	48.7118	6	0.0128203	10	0.00865867
2	1	0	1	0	7372.8	0.187667	0.187348	48.3599	6	0.0139913	10	0.0090601
2	1	0	1	0	7372.83	0.197267	0.196981	44.2859	6	0.0151108	10	0.00872349
2	1	0	1	0	7372.85	0.206863	0.206538	36.6721	6	0.0160862	10	0.00757417
2	1	0	1	0	7372.87	0.216463	0.216157	28.3709	6	0.0168638	10	0.00613257
2	1	0	1	0	7372.9	0.226062	0.225813	22.2507	6	0.0174649	10	0.0050245
2	1	0	1	0	7372.92	0.235659	0.235402	18.8682	6	0.0179535	10	0.00444161
2	1	0	1	0	7372.95	0.245267	0.244976	17.2495	6	0.0183844	10	0.00422572
2	1	0	1	0	7372.97	0.254867	0.254593	16.4161	6	0.0187873	10	0.00417942
2	1	0	1	0	7372.99	0.264466	0.264165	15.9005	6	0.0191745	10	0.00420036
2	1	0	1	0	7373.02	0.274063	0.273782	15.5044	6	0.0195512	10	0.00424484
2	1	0	1	0	7373.04	0.283662	0.283358	15.1754	6	0.0199195	10	0.00430007
2	1	0	1	0	7373.07	0.293259	0.292923	14.889	6	0.0202804	10	0.00436132
2	1	0	1	0	7373.09	0.299501	0.29934	13.1474	6	0.0205479	10	0.00393554
2	0	0	1	0	7373.11	0.289905	0.289646	-2.10113	6	0.0206367	10	-0.000608583
2	0	0	1	0	7373.13	0.280305	0.279988	-6.28806	6	0.0205262	10	-0.00176058
2	0	0	1	0	7373.16	0.270708	0.270409	-7.86223	6	0.0203538	10	-0.00212602
2	0	0	1	0	7373.18	0.261109	0.260829	-8.70922	6	0.020154	10	-0.00227162
2	0	0	1	0	7373.21	0.251501	0.25122	-9.34981	6	0.019937	10	-0.00234886
2	0	0	1	0	7373.23	0.241902	0.241624	-9.8999	6	0.0197059	10	-0.00239206
2	0	0	1	0	7373.25	0.232305	0.232027	-10.4293	6	0.019462	10	-0.00241988
2	0	0	1	0	7373.28	0.222705	0.222402	-10.9489	6	0.0192055	10	-0.00243506
2	0	0	1	0	7373.3	0.213106	0.212805	-11.519	6	0.0189358	10	-0.0024513
2	0	0	1	0	7373.33	0.203509	0.203141	-12.1573	6	0.0186518	10	-0.00246964
2	0	0	1	0	7373.35	0.193901	0.193627	-12.9252	6	0.0183511	10	-0.00250267
2	0	0	1	0	7373.37	0.184302	0.183976	-13.8804	6	0.0180298	10	-0.00255367
2	0	0	1	0	7373.4	0.174702	0.174389	-15.1908	6	0.0176817	10	-0.00264912
2	0	0	1	0	7373.42	0.165106	0.164801	-16.986	6	0.0172967	10	-0.00279931
2	0	0	1	0	7373.45	0.155506	0.155253	-19.4924	6	0.0168605	10	-0.00302626
2	0	0	1	0	7373.47	0.145909	0.145667	-22.8771	6	0.0163536	10	-0.00333245
2	0	0	1	0	7373.49	0.136299	0.136011	-27.2165	6	0.0157534	10	-0.00370175
2	0	0	1	0	7373.52	0.126702	0.126455	-31.9335	6	0.015043	10	-0.00403814
2	0	0	1	0	7373.54	0.117102	0.11687	-36.7497	6	0.0142177	10	-0.00429492
2	0	0	1	0	7373.57	0.107506	0.107279	-40.9101	6	0.0132839	10	-0.00438881
2	0	0	1	0	7373.59	0.0979061	0.0976265	-44.1985	6	0.0122597	10	-0.00431494
2	0	0	1	0	7373.61	0.0883066	0.0880055	-46.1369	6	0.0111723	10	-0.0040603
2	0	0	1	0	7373.64	0.0787044	0.0783823	-46.4976	6	0.0100572	10	-0.00364459
2	0	0	1	0	7373.66	0.0691021	0.068828	-45.1558	6	0.0089544	10	-0.00310798
2	0	0	1	0	7373.69	0.0595025	0.0591603	-42.6767	6	0.00789958	10	-0.00252476
2	0	0	1	0	7373.71	0.049903	0.0495933	-39.9942	6	0.00690819	10	-0.00198344
2	0	0	1	0	7373.73	0.0403063	0.0399871	-37.5157	6	0.00597865	10	-0.00150014
2	0	0	1	0	7373.76	0.0307068	0.0303819	-35.0161	6	0.005108	10	-0.00106386
2	0	0	1	0	7373.78	0.02111	0.0208065	-32.2347	6	0.00430047	10	-0.00067069
2	0	0	1	0	7373.81	0.0114994	0.0111992	-29.2697	6	0.00356297	10	-0.000327796
2	0	0	1	0	7373.83	0.00190269	0.00154523	-26.8078	6	0.0028928	10	-4.14243e-05
2	0	0	1	0	7373.85	-0.00769682	-0.00804191	-25.1099	6	0.00227179	10	0.000201931
2	0	0	1	0	7373.88	-0.0172936	-0.017664	-24.2927	6	0.00168047	10	0.000429107
2	0	0	1	0	7373.9	-0.0268931	-0.0272522	-24.0325	6	0.00110157	10	0.000654939
2	0	0	1	0	7373.93	-0.0364926	-0.0368542	-24.1915	6	0.000523657	10	0.000891558
2	0	0	1	0	7373.95	-0.0461004	-0.0464286	-24.5444	6	-6.07654e-05	10	0.00113956
2	0	0	1	0	7373.97	-0.0556972	-0.0560465	-25.0788	6	-0.000656079	10	0.00140558
2	0	0	1	0	7374	-0.0652967	-0.0655976	-25.7094	6	-0.00126543	10	0.00168647
2	0	0	1	0	7374.02	-0.0748962	-0.0752516	-26.4387	6	-0.00189099	10	0.00198955
2	0	0	1	0	7374.05	-0.084493	-0.084791	-27.2434	6	-0.00253504	10	0.00231
2	0	0	1	0	7374.07	-0.0940925	-0.0944152	-28.1724	6	-0.00319999	10	0.00265991
2	0	0	1	1	7374.09	-0.0986564	-0.0991171	-24.6216	6	-0.00371736	10	0.00244042
2	0	0	1	1	7374.11	-0.0890569	-0.0895013	-5.30871	6	-0.0040495	10	0.000475136
2	1	0	1	1	7374.14	-0.0794602	-0.0798824	5.60811	6	-0.00403376	10	-0.000447989
2	1	0	1	1	7374.16	-0.0698523	-0.0702772	12.3275	6	-0.00381207	10	-0.00086634
2	1	0	1	1	7374.18	-0.0602528	-0.0606328	16.5624	6	-0.00346103	10	-0.00100422
2	1	0	1	1	7374.21	-0.0506533	-0.0510181	19.1177	6	-0.00303006	10	-0.00097535
2	1	0	1	1	7374.23	-0.0410565	-0.0414532	20.6318	6	-0.00255117	10	-0.000855255
2	1	0	1	1	7374.26	-0.031457	-0.0318109	21.4439	6	-0.00204504	10	-0.000682149
2	1	0	1	1	7374.28	-0.0218603	-0.0222333	21.7915	6	-0.00152534	10	-0.000484497
2	1	0	1	1	7374.3	-0.0122552	-0.0126292	21.8439	6	-0.00100106	10	-0.000275872
2	1	0	1	1	7374.33	-0.00265292	-0.00303572	21.707	6	-0.000478038	10	-6.58964e-05
2	1	0	1	0	8603.97	0.00446904	0.00414005	14.2199	7	0.000152255	10	5.8871e-05
2	1	0	1	0	8604	0.0140686	0.0137367	16.7243	7	0.00052572	10	0.000229737
2	1	0	1	0	8604.02	0.0236653	0.0233578	18.2263	7	0.000946864	10	0.000425726
2	1	0	1	0	8604.05	0.0332648	0.032963	19.1842	7	0.00139662	10	0.000632367
2	1	0	1	0	8604.07	0.0428615	0.0425459	19.9832	7	0.00186676	10	0.000850201
2	1	0	1	0	8604.09	0.0524611	0.052116	20.8384	7	0.00235642	10	0.00108602
2	1	0	1	0	8604.12	0.0620633	0.0617445	21.9147	7	0.00286919	10	0.00135311
2	1	0	1	0	8604.14	0.0716684	0.0713295	23.2774	7	0.00341114	10	0.00166036
2	1	0	1	0	8604.17	0.0812651	0.0809145	24.7998	7	0.00398796	10	0.00200666
2	1	0	1	0	8604.19	0.0908647	0.0905483	26.554	7	0.00460397	10	0.00240442
2	1	0	1	0	8604.21	0.100464	0.100155	28.3299	7	0.00526269	10	0.00283737
2	1	0	1	0	8604.24	0.110061	0.10971	30.1055	7	0.00596405	10	0.00330287
2	1	0	1	0	8604.26	0.11966	0.119334	31.9954	7	0.00670919	10	0.00381815
2	1	0	1	0	8604.29	0.129268	0.128985	34.125	7	0.00750209	10	0.00440161
2	1	0	1	0	8604.31	0.138868	0.138586	36.6384	7	0.00835065	10	0.00507757
2	1	0	1	0	8604.33	0.148465	0.148158	39.4251	7	0.00926327	10	0.00584114
2	1	0	1	0	8604.36	0.158064	0.157763	42.2244	7	0.0102436	10	0.00666146
2	1	0	1	0	8604.38	0.167661	0.167327	44.743	7	0.0112885	10	0.00748672
2	1	0	1	0	8604.41	0.17726	0.176939	46.4881	7	0.0123859	10	0.00822554
2	1	0	1	0	8604.43	0.186868	0.186571	46.3199	7	0.0135049	10	0.00864196
2	1	0	1	0	8604.45	0.196468	0.196186	42.7609	7	0.014581	10	0.00838909
2	1	0	1	0	8604.48	0.206064	0.205781	35.8264	7	0.015528	10	0.00737237
2	1	0	1	0	8604.5	0.215664	0.215387	28.2587	7	0.0162944	10	0.00608655
2	1	0	1	0	8604.53	0.225263	0.224963	22.7123	7	0.0169003	10	0.00510943
2	1	0	1	0	8604.55	0.23486	0.234596	19.5628	7	0.0174033	10	0.00458935
2	1	0	1	0	8604.57	0.244465	0.24418	17.9015	7	0.0178505	10	0.00437119
2	1	0	1	0	8604.6	0.254067	0.253753	16.9409	7	0.0182675	10	0.00429882
2	1	0	1	0	8604.62	0.263667	0.26339	16.3	7	0.0186658	10	0.00429326
2	1	0	1	0	8604.65	0.273264	0.272917	15.8247	7	0.0190511	10	0.00431883
2	1	0	1	0	8604.67	0.282863	0.282579	15.429	7	0.0194259	10	0.00435991
2	1	0	1	0	8604.69	0.29246	0.292141	15.0889	7	0.0197919	10	0.00440809
2	1	0	1	0	8604.71	0.299962	0.299689	14.7189	7	0.0200775	10	0.00441109
2	0	0	1	0	8604.74	0.290704	0.290455	-0.494759	7	0.0202008	10	-0.000143705
2	0	0	1	0	8604.76	0.281104	0.280798	-5.16571	7	0.0201227	10	-0.00145052
2	0	0	1	0	8604.78	0.271508	0.271192	-6.99578	7	0.019974	10	-0.0018972
2	0	0	1	0	8604.81	0.261908	0.261601	-7.99912	7	0.0197931	10	-0.00209258
2	0	0	1	0	8604.83	0.2523	0.251986	-8.72155	7	0.0195921	10	-0.0021977
2	0	0	1	0	8604.86	0.242701	0.242396	-9.32719	7	0.0193755	10	-0.00226088
2	0	0	1	0	8604.88	0.233104	0.23279	-9.87892	7	0.019145	10	-0.00229971
2	0	0	1	0	8604.9	0.223504	0.223221	-10.4207	7	0.0189015	10	-0.00232611
2	0	0	1	0	8604.93	0.213905	0.213592	-10.9633	7	0.018645	10	-0.00234167
2	0	0	1	0	8604.95	0.204308	0.203999	-11.5744	7	0.0183747	10	-0.00236116
2	0	0	1	0	8604.98	0.194709	0.194392	-12.2566	7	0.018089	10	-0.00238259
2	0	0	1	0	8605	0.185101	0.184791	-13.1327	7	0.0177846	10	-0.00242681
2	0	0	1	0	8605.02	0.175501	0.175249	-14.2504	7	0.0174568	10	-0.00249738
2	0	0	1	0	8605.05	0.165905	0.165586	-15.7996	7	0.0170971	10	-0.00261618
2	0	0	1	0	8605.07	0.156305	0.155996	-17.9468	7	0.0166934	10	-0.00279963
2	0	0	1	0	8605.1	0.146708	0.146391	-20.9197	7	0.0162283	10	-0.00306246
2	0	0	1	0	8605.12	0.137109	0.136817	-24.7855	7	0.0156811	10	-0.00339108
2	0	0	1	0	8605.14	0.127501	0.127208	-29.2524	7	0.015033	10	-0.00372113
2	0	0	1	0	8605.17	0.117901	0.117647	-33.7094	7	0.0142772	10	-0.00396581
2	0	0	1	0	8605.19	0.108305	0.108046	-37.7909	7	0.0134173	10	-0.00408316
2	0	0	1	0	8605.22	0.0987052	0.0984505	-41.1092	7	0.0124688	10	-0.00404722
2	0	0	1	0	8605.24	0.0891057	0.0888156	-43.3441	7	0.0114528	10	-0.00384963
2	0	0	1	0	8605.26	0.0795089	0.0792794	-44.1726	7	0.0103996	10	-0.00350197
2	0	0	1	0	8605.29	0.0699011	0.0696265	-43.5279	7	0.00934425	10	-0.0030307
2	0	0	1	0	8605.31	0.0603016	0.0599853	-41.6976	7	0.00832014	10	-0.00250124
2	0	0	1	0	8605.34	0.0507021	0.0504066	-39.5347	7	0.00734575	10	-0.00199281
2	0	0	1	0	8605.36	0.0411053	0.0407612	-37.452	7	0.00642262	10	-0.00152659
2	0	0	1	0	8605.38	0.0315058	0.0312059	-35.384	7	0.00554867	10	-0.00110419
2	0	0	1	0	8605.41	0.0219091	0.0215551	-33.0302	7	0.0047271	10	-0.000711969
2	0	0	1	0	8605.43	0.012304	0.0119849	-30.3782	7	0.00396594	10	-0.000364081
2	0	0	1	0	8605.46	0.00270173	0.00238401	-27.8303	7	0.00326866	10	-6.63479e-05
2	0	0	1	0	8605.48	-0.00689779	-0.00730598	-25.9686	7	0.00262432	10	0.000189726
2	0	0	1	0	8605.5	-0.0164945	-0.0168634	-24.8095	7	0.00201675	10	0.000418374
2	0	0	1	0	8605.53	-0.026094	-0.0264569	-24.2722	7	0.00142891	10	0.000642169
2	0	0	1	0	8605.55	-0.0356936	-0.0360854	-24.1624	7	0.000848298	10	0.000871909
2	0	0	1	0	8605.58	-0.0452903	-0.0456461	-24.376	7	0.000266071	10	0.00111267
2	0	0	1	0	8605.6	-0.0548981	-0.0551918	-24.7756	7	-0.000323335	10	0.00136741
2	0	0	1	0	8605.62	-0.0644977	-0.0648225	-25.3028	7	-0.000923784	10	0.00164019
2	0	0	1	0	8605.65	-0.0740972	-0.0744764	-25.9203	7	-0.00153812	10	0.00193045
2	0	0	1	0	8605.67	-0.0836939	-0.0840688	-26.6502	7	-0.00216892	10	0.00224045
2	0	0	1	0	8605.7	-0.0932934	-0.0936295	-27.5141	7	-0.00281885	10	0.00257613
2	0	0	1	1	8605.71	-0.0994555	-0.0999092	-26.4665	7	-0.00332996	10	0.00264424
2	0	0	1	1	8605.74	-0.0898559	-0.0902447	-7.29136	7	-0.00370661	10	0.000658006
2	1	0	1	1	8605.76	-0.0802592	-0.0807084	3.46966	7	-0.00374065	10	-0.000280031
2	1	0	1	1	8605.79	-0.0706597	-0.0711022	10.2016	7	-0.00357001	10	-0.000725356
2	1	0	1	1	8605.81	-0.0610518	-0.0614599	14.6058	7	-0.00326817	10	-0.000897671
2	1	0	1	1	8605.83	-0.0514523	-0.0518134	17.3526	7	-0.00288189	10	-0.0008991
2	1	0	1	1	8605.86	-0.0418556	-0.0422411	19.0703	7	-0.00244286	10	-0.00080555
2	1	0	1	1	8605.88	-0.0322561	-0.032638	20.0817	7	-0.0019716	10	-0.000655427
2	1	0	1	1	8605.91	-0.0226593	-0.023018	20.6345	7	-0.00148202	10	-0.000474966
2	1	0	1	1	8605.93	-0.0130598	-0.0134394	20.8373	7	-0.000983717	10	-0.00028004
2	1	0	1	1	8605.95	-0.00345195	-0.00376953	20.8418	7	-0.000483174	10	-7.85636e-05
2	1	0	1	0	9835.6	0.0036589	0.00330339	14.1724	8	0.000126158	10	4.68169e-05
2	1	0	1	0	9835.62	0.0132695	0.0129117	16.8669	8	0.000500682	10	0.000217781
2	1	0	1	0	9835.65	0.0228663	0.0225572	18.5431	8	0.000927551	10	0.00041828
2	1	0	1	0	9835.67	0.0324658	0.0321263	19.6352	8	0.00138654	10	0.000630807
2	1	0	1	0	9835.7	0.0420625	0.0417452	20.5392	8	0.00186859	10	0.000857414
2	1	0	1	0	9835.72	0.051662	0.0513186	21.4576	8	0.00237239	10	0.00110117
2	1	0	1	0	9835.74	0.0612615	0.0608941	22.6042	8	0.00290102	10	0.00137646
2	1	0	1	0	9835.77	0.0708694	0.0705427	24.0106	8	0.00346027	10	0.00169377
2	1	0	1	0	9835.79	0.0804661	0.0800885	25.5552	8	0.00405506	10	0.00204667
2	1	0	1	0	9835.82	0.0900656	0.089788	27.3311	8	0.00468978	10	0.00245401
2	1	0	1	0	9835.84	0.0996651	0.099338	29.0817	8	0.00536682	10	0.00288892
2	1	0	1	0	9835.86	0.109262	0.108924	30.8509	8	0.00608624	10	0.00336041
2	1	0	1	0	9835.89	0.118861	0.118529	32.7434	8	0.00684936	10	0.00388106
2	1	0	1	0	9835.91	0.128464	0.128136	34.8911	8	0.00766063	10	0.00447079
2	1	0	1	0	9835.94	0.138069	0.1377	37.4295	8	0.00852782	10	0.00515405
2	1	0	1	0	9835.96	0.147665	0.147331	40.1485	8	0.00945868	10	0.00591512
2	1	0	1	0	9835.98	0.157265	0.156935	42.87	8	0.0104556	10	0.0067278
2	1	0	1	0	9836.01	0.166862	0.166474	45.2249	8	0.0115141	10	0.0075288
2	1	0	1	0	9836.03	0.176461	0.176127	46.7349	8	0.0126206	10	0.0082313
2	1	0	1	0	9836.06	0.186064	0.185726	46.1615	8	0.0137409	10	0.00857339
2	1	0	1	0	9836.08	0.195669	0.19535	42.1488	8	0.0148073	10	0.00823378
2	1	0	1	0	9836.1	0.205265	0.204948	35.1228	8	0.0157375	10	0.00719835
2	1	0	1	0	9836.13	0.214865	0.21458	27.7661	8	0.0164894	10	0.00595805
2	1	0	1	0	9836.15	0.224464	0.224178	22.3603	8	0.0170857	10	0.00501268
2	1	0	1	0	9836.18	0.234061	0.233773	19.2326	8	0.0175807	10	0.00449607
2	1	0	1	0	9836.2	0.243661	0.243353	17.554	8	0.0180199	10	0.00427182
2	1	0	1	0	9836.22	0.253268	0.252944	16.6266	8	0.0184291	10	0.0042056
2	1	0	1	0	9836.25	0.262868	0.262557	16.0126	8	0.0188201	10	0.00420422
2	1	0	1	0	9836.27	0.272465	0.272195	15.5794	8	0.0191988	10	0.00424063
2	1	0	1	0	9836.3	0.282064	0.281761	15.1998	8	0.0195678	10	0.00428271
2	1	0	1	0	9836.32	0.291661	0.291359	14.8848	8	0.0199288	10	0.00433683
2	1	0	0	0	9836.34	0.300012	0.299766	14.6368	8	0.0202373	10	0.00438762
2	1	0	1	0	9836.36	0.291503	0.29124	-0.276953	8	0.0203567	10	-8.06597e-05
2	0	0	1	0	9836.39	0.281903	0.281596	-5.52945	8	0.0202753	10	-0.00155707
2	0	0	1	0	9836.41	0.272307	0.272036	-7.49079	8	0.0201156	10	-0.00203776
2	0	0	1	0	9836.43	0.262707	0.262412	-8.50261	8	0.0199223	10	-0.00223118
2	0	0	1	0	9836.46	0.253108	0.252789	-9.19267	8	0.0197094	10	-0.00232381
2	0	0	1	0	9836.48	0.2435	0.243192	-9.78058	8	0.0194817	10	-0.00237856
2	0	0	1	0	9836.51	0.233903	0.233606	-10.2805	8	0.0192411	10	-0.00240157
2	0	0	1	0	9836.53	0.224303	0.224048	-10.7717	8	0.0189885	10	-0.00241337
2	0	0	1	0	9836.55	0.214704	0.214406	-11.2729	8	0.0187239	10	-0.00241697
2	0	0	1	0	9836.58	0.205107	0.204808	-11.8427	8	0.0184464	10	-0.00242547
2	0	0	1	0	9836.6	0.195508	0.195184	-12.4874	8	0.0181544	10	-0.00243734
2	0	0	1	0	9836.63	0.1859	0.185572	-13.3004	8	0.0178453	10	-0.0024682
2	0	0	1	0	9836.65	0.1763	0.175988	-14.3212	8	0.0175146	10	-0.00252036
2	0	0	1	0	9836.67	0.166704	0.166409	-15.7502	8	0.0171545	10	-0.00262098
2	0	0	1	0	9836.7	0.157104	0.156823	-17.7417	8	0.0167537	10	-0.0027823
2	0	0	1	0	9836.72	0.147507	0.147209	-20.5241	8	0.0162958	10	-0.00302134
2	0	0	1	0	9836.75	0.137908	0.137628	-24.2459	8	0.0157599	10	-0.00333692
2	0	0	1	0	9836.77	0.1283	0.127992	-28.6652	8	0.0151256	10	-0.00366892
2	0	0	1	0	9836.79	0.1187	0.118452	-33.2044	8	0.0143832	10	-0.00393312
2	0	0	1	0	9836.82	0.109104	0.108844	-37.4258	8	0.0135339	10	-0.00407355
2	0	0	1	0	9836.84	0.0995042	0.0992479	-40.9132	8	0.0125921	10	-0.00406055
2	0	0	1	0	9836.87	0.0899047	0.0895706	-43.3805	8	0.011578	10	-0.00388562
2	0	0	1	0	9836.89	0.080308	0.0800111	-44.5014	8	0.0105206	10	-0.0035606
2	0	0	1	0	9836.91	0.0707085	0.070407	-44.2008	8	0.00945313	10	-0.00311204
2	0	0	1	0	9836.94	0.0611006	0.0607647	-42.6523	8	0.00840901	10	-0.00259175
2	0	0	1	0	9836.96	0.0515011	0.0511606	-40.5569	8	0.00741042	10	-0.00207491
2	0	0	1	0	9836.99	0.0419044	0.0416042	-38.4492	8	0.00646293	10	-0.00159965
2	0	0	1	0	9837.01	0.0323048	0.0319768	-36.4039	8	0.00556481	10	-0.00116408
2	0	0	1	0	9837.03	0.0227081	0.0223854	-34.1844	8	0.00471727	10	-0.000765232
2	0	0	1	0	9837.06	0.0131086	0.012759	-31.6384	8	0.00392691	10	-0.000403676
2	0	0	1	0	9837.08	0.00350076	0.00315281	-28.9704	8	0.00320023	10	-9.13383e-05
2	0	0	1	0	9837.11	-0.00609875	-0.00648947	-26.7977	8	0.00253229	10	0.000173903
2	0	0	1	0	9837.13	-0.0156955	-0.0160628	-25.3149	8	0.00190875	10	0.000406628
2	0	0	1	0	9837.15	-0.025295	-0.0256553	-24.5769	8	0.00131128	10	0.000630526
2	0	0	1	0	9837.18	-0.0348945	-0.035253	-24.3592	8	0.000724845	10	0.000858735
2	0	0	1	0	9837.2	-0.0444913	-0.0448412	-24.5052	8	0.000138904	10	0.00109884
2	0	0	1	0	9837.23	-0.0540963	-0.0544156	-24.8843	8	-0.000453364	10	0.00135409
2	0	0	1	0	9837.25	-0.0636986	-0.0640696	-25.4135	8	-0.00105656	10	0.00162823
2	0	0	1	0	9837.27	-0.0732982	-0.0736366	-26.0443	8	-0.00167389	10	0.00191781
2	0	0	1	0	9837.3	-0.0828949	-0.0832544	-26.8133	8	-0.00230816	10	0.00223233
2	0	0	1	0	9837.32	-0.0924944	-0.0928564	-27.6869	8	-0.00296198	10	0.0025709
2	0	0	0	1	9837.34	-0.0999548	-0.100324	-28.2995	8	-0.0035037	10	0.00283911
2	0	0	1	1	9837.36	-0.090655	-0.0910824	-8.39618	8	-0.00389553	10	0.000764744
2	1	0	1	1	9837.39	-0.0810582	-0.0815281	3.03123	8	-0.00394738	10	-0.00024713
2	1	0	1	1	9837.41	-0.0714587	-0.0718901	10.2205	8	-0.00378152	10	-0.00073475
2	1	0	1	1	9837.44	-0.0618509	-0.0622425	14.9263	8	-0.00347564	10	-0.00092905
2	1	0	1	1	9837.46	-0.0522514	-0.0526426	17.8806	8	-0.00307908	10	-0.000941281
2	1	0	1	1	9837.48	-0.0426546	-0.0430385	19.7339	8	-0.00262563	10	-0.000849317
2	1	0	1	1	9837.51	-0.0330551	-0.0334312	20.8485	8	-0.00213718	10	-0.000696991
2	1	0	1	1	9837.53	-0.0234583	-0.0238345	21.4308	8	-0.00162895	10	-0.000510795
2	1	0	1	1	9837.56	-0.0138588	-0.014257	21.6481	8	-0.00111153	10	-0.000308635
2	1	0	1	1	9837.58	-0.00425653	-0.00463694	21.6134	8	-0.000591991	10	-0.00010022
2	1	0	1	1	9837.59	2.44065e-05	-0.000344411	21.5562	8	-0.000360918	10	-7.4242e-06