File: Figure_codes/Fig_3-5/rawdata_trumpetplot_data/before 10th/20221101_1-115_002_TrumpetPlot_ParaChange_04_CV_C01_3.csv
mode,ox/red,error,control changes,counter inc.,time/s,control/V,Ewe/V,<I>/mA,cycle number,(Q-Qo)/C,I Range,P/W,log(|I|),Tafel slope mV/dec,alpha_eff,dI/d(E-IR),E-IR/V,
2,0,0,1,0,4053.69,2.44065e-05,-0.000382585,-0.369723,4,0.0000000E+000,11,1.41451e-07,-3.43212, , , ,-0.000382585,
2,0,0,1,0,4054.96,0.00129791,0.00096846,-0.167249,4,-0.000223768,11,-1.61974e-07,-3.77664, , , ,0.00096846,
2,0,0,1,0,4056.46,0.00279612,0.0024901,-0.136043,4,-0.00041592,11,-3.38762e-07,-3.86632,-0.0192146,-3.07059,17.4009,0.0024901,
2,0,0,1,0,4057.96,0.00429431,0.00404042,-0.117318,4,-0.000574983,11,-4.74013e-07,-3.93064,-0.0273449,-2.15762,10.0607,0.00404042,
2,0,0,1,0,4059.45,0.00579242,0.00548148,-0.104025,4,-0.00071108,11,-5.70211e-07,-3.98286,-0.0303441,-1.94436,8.03043,0.00548148,
2,0,0,1,0,4060.95,0.00729061,0.00701479,-0.0934033,4,-0.000829291,11,-6.55205e-07,-4.02964,-0.0346694,-1.70179,6.3232,0.00701479,
2,0,0,1,0,4062.45,0.00878882,0.0084962,-0.0852449,4,-0.000933455,11,-7.24258e-07,-4.06933,-0.0386938,-1.52479,5.1358,0.0084962,
2,0,0,1,0,4063.95,0.010287,0.0100242,-0.0779899,4,-0.00102614,11,-7.81789e-07,-4.10796,-0.0422402,-1.39677,4.30465,0.0100242,
2,0,0,1,0,4065.45,0.0117852,0.0114526,-0.0718302,4,-0.00110903,11,-8.22644e-07,-4.14369,-0.0424383,-1.39025,3.9332,0.0114526,
2,0,0,1,0,4066.95,0.0132834,0.0130019,-0.0662261,4,-0.00118351,11,-8.61064e-07,-4.17897,-0.0428162,-1.37798,3.57301,0.0130019,
2,0,0,1,0,4068.44,0.0147815,0.0144598,-0.061801,4,-0.00125034,11,-8.93633e-07,-4.209,-0.0484693,-1.21727,2.9359,0.0144598,
2,0,0,1,0,4069.94,0.0162797,0.0160017,-0.0575438,4,-0.0013101,11,-9.20799e-07,-4.24,-0.0497842,-1.18512,2.68755,0.0160017,
2,0,0,1,0,4071.44,0.0177779,0.0174916,-0.05406,4,-0.00136422,11,-9.45596e-07,-4.26712,-0.0500759,-1.17821,2.48484,0.0174916,
2,0,0,1,0,4072.94,0.0192761,0.019044,-0.0499334,4,-0.00141342,11,-9.50933e-07,-4.30161,-0.0508045,-1.16131,2.27376,0.019044,
2,0,0,1,0,4074.44,0.0207743,0.0205021,-0.0475223,4,-0.00145731,11,-9.74305e-07,-4.3231,-0.0564758,-1.04469,1.93886,0.0205021,
2,0,0,1,0,4075.93,0.0222725,0.0220015,-0.0441665,4,-0.0014964,11,-9.71727e-07,-4.35491,-0.0583276,-1.01153,1.75407,0.0220015,
2,0,0,1,0,4077.43,0.0237707,0.0234956,-0.0416293,4,-0.00153139,11,-9.78108e-07,-4.3806,-0.0542025,-1.08851,1.76598,0.0234956,
2,0,0,1,0,4078.93,0.0252689,0.0249908,-0.0392265,4,-0.00156262,11,-9.80302e-07,-4.40642,-0.0538994,-1.09463,1.65584,0.0249908,
2,0,0,1,0,4080.43,0.0267671,0.0264563,-0.0365534,4,-0.00158993,11,-9.67069e-07,-4.43707,-0.0465264,-1.2681,1.8082,0.0264563,
2,0,0,1,0,4081.93,0.0282653,0.0279833,-0.0339664,4,-0.00161329,11,-9.50493e-07,-4.46895,-0.0527375,-1.11875,1.48818,0.0279833,
2,0,0,1,0,4083.43,0.0297635,0.0294923,-0.0313538,4,-0.00163319,11,-9.24693e-07,-4.50371,-0.0497109,-1.18686,1.46089,0.0294923,
2,0,0,1,0,4084.92,0.0312617,0.0309599,-0.0297561,4,-0.00165028,11,-9.21246e-07,-4.52642,-0.0483771,-1.21958,1.41371,0.0309599,
2,0,0,1,0,4086.42,0.0327599,0.0324869,-0.0279522,4,-0.001664,11,-9.08079e-07,-4.55358,-0.0436854,-1.35057,1.45641,0.0324869,
2,0,0,1,0,4087.92,0.0342581,0.0339884,-0.0252794,4,-0.0016745,11,-8.59206e-07,-4.59723,-0.0475007,-1.24209,1.24421,0.0339884,
2,0,0,1,0,4089.42,0.0357563,0.0354974,-0.0236641,4,-0.00168205,11,-8.40012e-07,-4.62591,-0.0486704,-1.21223,1.1301,0.03549739,
2,0,0,1,0,4090.92,0.0372544,0.0369543,-0.0217996,4,-0.00168689,11,-8.0559e-07,-4.66155,-0.0450697,-1.30908,1.11736,0.0369543,
2,0,0,1,0,4092.41,0.0387526,0.0384632,-0.0198394,4,-0.00168901,11,-7.63089e-07,-4.70247,-0.0335309,-1.75957,1.33277,0.0384632,
2,0,0,1,0,4093.91,0.0402508,0.0399532,-0.0181025,4,-0.00168809,11,-7.23251e-07,-4.74226,-0.0314275,-1.87734,1.30909,0.0399532,
2,0,0,1,0,4095.41,0.041749,0.0414748,-0.0154754,4,-0.00168408,11,-6.41841e-07,-4.81036,-0.0330303,-1.78624,1.1058,0.0414748,
2,0,0,1,0,4096.91,0.0432472,0.0429774,-0.0137469,4,-0.0016775,11,-5.90809e-07,-4.86179,-0.0280951,-2.10001,1.14819,0.0429774,
2,0,0,1,0,4098.41,0.0447454,0.0444387,-0.0123254,4,-0.00166844,11,-5.47724e-07,-4.9092,-0.0216458,-2.7257,1.31196,0.0444387,
2,0,0,1,0,4099.91,0.0462435,0.0459221,-0.0101679,4,-0.00165618,11,-4.66932e-07,-4.99277,-0.0174621,-3.37874,1.34363,0.0459221,
2,0,0,1,0,4101.4,0.0477417,0.0474502,-0.00808677,4,-0.00164093,11,-3.83718e-07,-5.09222,-0.0170465,-3.46113,1.12779,0.0474502,
2,0,0,1,0,4102.9,0.0492399,0.0489369,-0.00650724,4,-0.00162299,11,-3.18444e-07,-5.1866,-0.0111069,-5.312,1.27369,0.0489369,
2,0,0,1,0,4104.4,0.0507381,0.0504448,-0.00464007,4,-0.00160256,11,-2.34067e-07,-5.33348,-0.00864556,-6.82431,1.18215,0.0504448,
2,0,0,1,0,4105.9,0.0522363,0.0519612,-0.00307499,4,-0.00157885,11,-1.5978e-07,-5.51216,-0.00228429,-25.8286,1.49706,0.0519612,
2,0,0,1,0,4107.4,0.0537345,0.0534341,-0.000578476,4,-0.00155179,11,-3.09104e-08,-6.23771,-0.0183741,-3.21104,1.29275,0.0534341,
2,0,0,1,0,4108.89,0.0552327,0.0549504,0.00157077,4,-0.00152209,11,8.63147e-08,-5.80389,0.00765779,7.70458,1.16219,0.0549504,
2,0,0,1,0,4110.39,0.0567309,0.0564244,0.00255477,4,-0.00148946,11,1.44152e-07,-5.59265,0.0022471,26.256,1.60043,0.0564244,
2,1,0,1,0,4111.89,0.0582291,0.0579461,0.00537062,4,-0.00145362,11,3.11207e-07,-5.26998,0.00720054,8.19383,1.46744,0.0579461,
2,1,0,1,0,4113.39,0.0597273,0.0594265,0.0074397,4,-0.00141428,11,4.42116e-07,-5.12844,0.014248,4.14095,1.13812,0.0594265,
2,0,0,1,0,4114.89,0.0612255,0.060929,0.00961775,4,-0.00137165,11,5.86e-07,-5.01693,0.0179525,3.28645,1.1856,0.060929,
2,0,0,1,0,4116.39,0.0627237,0.0624529,0.0117564,4,-0.00132595,11,7.34221e-07,-4.92973,0.022398,2.63416,1.17368,0.0624529,
2,1,0,1,0,4117.88,0.0642219,0.0639354,0.0132941,4,-0.00127738,11,8.4996e-07,-4.87634,0.0194176,3.03847,1.61349,0.0639354,
2,1,0,1,0,4119.38,0.0657201,0.0654093,0.0158996,4,-0.00122519,11,1.03998e-06,-4.79862,0.0260811,2.26218,1.43072,0.06540934,
2,1,0,1,0,4120.88,0.0672183,0.0669395,0.0180569,4,-0.00116944,11,1.20872e-06,-4.74336,0.0292293,2.01852,1.39018,0.0669395,
2,1,0,1,0,4122.38,0.0687164,0.0684292,0.0205984,4,-0.00111034,11,1.40953e-06,-4.68617,0.02764,2.13459,1.66179,0.0684292,
2,1,0,1,0,4123.88,0.0702146,0.0699552,0.0226456,4,-0.00104869,11,1.58418e-06,-4.64502,0.0361898,1.63029,1.4072,0.0699552,
2,1,0,1,0,4125.37,0.0717128,0.0714843,0.024553,4,-0.000983234,11,1.75516e-06,-4.60989,0.0403491,1.46224,1.39724,0.0714843,
2,1,0,1,0,4126.87,0.073211,0.0729095,0.0263697,4,-0.00091462,11,1.9226e-06,-4.5789,0.0401859,1.46818,1.55277,0.0729095,
2,1,0,1,0,4128.37,0.0747092,0.074426,0.0290006,4,-0.000842618,11,2.1584e-06,-4.53759,0.0420989,1.40146,1.5879,0.074426,
2,1,0,1,0,4129.87,0.0762074,0.0758734,0.0312003,4,-0.000767836,11,2.36727e-06,-4.50584,0.0564739,1.04473,1.27869,0.0758734,
2,1,0,1,0,4131.37,0.0777055,0.0773547,0.03316,4,-0.000689544,11,2.56508e-06,-4.47939,0.0500985,1.17768,1.51409,0.0773547,
2,1,0,1,0,4132.87,0.0792037,0.0788828,0.0356627,4,-0.000608051,11,2.81317e-06,-4.44779,0.0601906,0.98022,1.33866,0.0788828,
2,1,0,1,0,4134.36,0.0807019,0.0803822,0.0371637,4,-0.000523687,11,2.9873e-06,-4.42988,0.0692277,0.852259,1.23556,0.0803822,
2,1,0,1,0,4135.86,0.0822001,0.0818826,0.0379991,4,-0.000436749,11,3.11147e-06,-4.42023,0.0679288,0.868557,1.30706,0.0818826,
2,1,0,1,0,4137.36,0.0836983,0.083433,0.0412814,4,-0.000346922,11,3.44423e-06,-4.38425,0.0758844,0.777498,1.2305,0.08343298,
2,1,0,1,0,4138.86,0.0851965,0.0848762,0.042888,4,-0.000253916,11,3.64017e-06,-4.36766,0.0863621,0.68317,1.15822,0.0848762,
2,1,0,1,0,4140.36,0.0866947,0.0864106,0.0446662,4,-0.00015818,11,3.85963e-06,-4.35002,0.111269,0.530245,0.926407,0.0864106,
2,1,0,1,0,4141.85,0.0881929,0.0878708,0.0467639,4,-5.95737e-05,11,4.10918e-06,-4.33009,0.0915521,0.644442,1.17076,0.0878708,
2,1,0,1,0,4143.35,0.0896911,0.0894095,0.0474851,4,4.11327e-05,11,4.24562e-06,-4.32344,0.084166,0.700996,1.33603,0.0894095,
2,1,0,1,0,4144.85,0.0911893,0.0908527,0.0504799,4,0.000145144,11,4.58623e-06,-4.29688,0.0902502,0.653738,1.29024,0.0908527,
2,1,0,1,0,4146.35,0.0926875,0.0923755,0.0529296,4,0.000252416,11,4.8894e-06,-4.2763,0.10212,0.57775,1.16449,0.0923755,
2,1,0,1,0,4147.85,0.0941857,0.0938728,0.0539799,4,0.00036208,11,5.06724e-06,-4.26777,0.0983418,0.599949,1.24748,0.0938728,
2,1,0,1,0,4149.35,0.0956839,0.0953658,0.0562985,4,0.000473801,11,5.36895e-06,-4.2495,0.104154,0.566468,1.22709,0.0953658,
2,1,0,1,0,4150.84,0.0971821,0.0969056,0.0576113,4,0.000589073,11,5.58285e-06,-4.23949,0.0795188,0.741963,1.65384,0.0969056,
2,1,0,1,0,4152.34,0.0986803,0.0983986,0.0597924,4,0.000707373,11,5.88348e-06,-4.22335,0.0929867,0.6345,1.47443,0.0983986,
2,1,0,1,0,4153.84,0.100178,0.0998491,0.0618571,4,0.000828997,11,6.17637e-06,-4.20861,0.102073,0.578017,1.40314,0.0998491,
2,1,0,1,0,4155.34,0.101677,0.101408,0.0631392,4,0.000953299,11,6.40281e-06,-4.1997,0.105928,0.556981,1.40204,0.101408,
2,1,0,1,0,4156.84,0.103175,0.10285,0.0665,4,0.00108146,11,6.83953e-06,-4.17718,0.0861814,0.684602,1.76537,0.10285,
2,1,0,1,0,4158.34,0.104673,0.104391,0.0700703,4,0.00121377,11,7.31469e-06,-4.15447,0.0830192,0.710679,1.90753,0.104391,
2,1,0,1,0,4159.83,0.106171,0.105873,0.0719772,4,0.00135023,11,7.62046e-06,-4.14281,0.0861548,0.684814,1.90932,0.105873,
2,1,0,1,0,4161.33,0.107669,0.107418,0.0734104,4,0.00149082,11,7.88563e-06,-4.13424,0.0840379,0.702064,2.04395,0.107418,
2,1,0,1,0,4162.83,0.109167,0.10891,0.0777856,4,0.00163565,11,8.47164e-06,-4.1091,0.0817869,0.721387,2.20893,0.10891,
2,1,0,1,0,4164.33,0.110666,0.110396,0.0815083,4,0.00178596,11,8.99818e-06,-4.0888,0.0760326,0.775983,2.48408,0.110396,
2,1,0,1,0,4165.83,0.112164,0.111879,0.0852937,4,0.00194184,11,9.54261e-06,-4.06908,0.085006,0.694068,2.29515,0.111879,
2,1,0,1,0,4167.32,0.113662,0.113332,0.0889837,4,0.00210337,11,1.00847e-05,-4.05069,0.0868176,0.679586,2.35795,0.113332,
2,1,0,1,0,4168.82,0.11516,0.114863,0.0933564,4,0.00227022,11,1.07232e-05,-4.02986,0.0758734,0.777611,2.84406,0.114863,
2,1,0,1,0,4170.32,0.116658,0.11639,0.0979165,4,0.00244437,11,1.13965e-05,-4.00914,0.0732073,0.805931,3.06462,0.11639,
2,1,0,1,0,4171.82,0.118157,0.11785,0.102567,4,0.00262588,11,1.20875e-05,-3.98899,0.0778504,0.757863,3.01823,0.11785,
2,1,0,1,0,4173.32,0.119655,0.119392,0.107835,4,0.00281402,11,1.28746e-05,-3.96724,0.08021,0.735569,3.08048,0.119392,
2,1,0,1,0,4174.82,0.121153,0.12087,0.110878,4,0.00300859,11,1.34018e-05,-3.95515,0.0784404,0.752163,3.2939,0.1208696,
2,1,0,1,0,4176.31,0.122651,0.122354,0.116402,4,0.00321138,11,1.42422e-05,-3.93404,0.0757195,0.779192,3.51844,0.122354,
2,1,0,1,0,4177.81,0.124149,0.123841,0.121611,4,0.00342199,11,1.50604e-05,-3.91503,0.0818914,0.720467,3.43057,0.123841,
2,1,0,1,0,4179.31,0.125648,0.125372,0.126188,4,0.00363965,11,1.58205e-05,-3.89898,0.0961927,0.613352,3.01697,0.125372,
2,1,0,1,0,4180.81,0.127146,0.126875,0.129381,4,0.00386431,11,1.64151e-05,-3.88813,0.099664,0.591989,3.03206,0.126875,
2,1,0,1,0,4182.31,0.128644,0.128382,0.136446,4,0.00409566,11,1.75172e-05,-3.86504,0.107051,0.551141,2.92467,0.128382,
2,1,0,1,0,4183.8,0.130142,0.129843,0.140953,4,0.00433445,11,1.83017e-05,-3.85093,0.113541,0.519635,2.82715,0.129843,
2,1,0,1,0,4185.3,0.13164,0.131331,0.14476,4,0.00457987,11,1.90114e-05,-3.83935,0.14466,0.407853,2.27576,0.131331,
2,1,0,1,0,4186.8,0.133139,0.132867,0.147074,4,0.00483032,11,1.95413e-05,-3.83246,0.155378,0.37972,2.19339,0.132867,
2,1,0,1,0,4188.3,0.134637,0.134316,0.15067,4,0.00508527,11,2.02374e-05,-3.82197,0.198068,0.297877,1.75545,0.134316,
2,1,0,1,0,4189.8,0.136135,0.135803,0.153593,4,0.0053458,11,2.08584e-05,-3.81363,0.213285,0.276625,1.65596,0.135803,
2,1,0,1,0,4191.3,0.137633,0.137333,0.155759,4,0.00561019,11,2.13909e-05,-3.80755,0.580691,0.101603,0.610691,0.137333,
2,1,0,1,0,4192.79,0.139131,0.138848,0.158266,4,0.00587671,11,2.19749e-05,-3.80061,0.995097,0.0592907,0.362144,0.138848,
2,1,0,1,0,4194.29,0.14063,0.140323,0.157911,4,0.00614378,11,2.21585e-05,-3.80159,1.43,0.0412589,0.252103,0.140323,
2,1,0,1,0,4195.79,0.142128,0.14182,0.157374,4,0.00641161,11,2.23187e-05,-3.80307,-0.857196,-0.0688291,-0.421393,0.14182,
2,1,0,1,0,4197.29,0.143626,0.143333,0.157046,4,0.00667969,11,2.251e-05,-3.80397,-0.340903,-0.17307,-1.04959,0.143333,
2,1,0,1,0,4198.79,0.145124,0.144892,0.154091,4,0.00694456,11,2.23265e-05,-3.81222,-0.173052,-0.340937,-2.05924,0.144892,
2,1,0,1,0,4200.28,0.146622,0.146329,0.150781,4,0.00720438,11,2.20636e-05,-3.82165,-0.137974,-0.427617,-2.51242,0.146329,
2,1,0,1,0,4201.78,0.14812,0.147839,0.146796,4,0.00745998,11,2.17022e-05,-3.83328,-0.134922,-0.437291,-2.48961,0.147839,
2,1,0,1,0,4203.28,0.149619,0.149321,0.143187,4,0.00770903,11,2.13809e-05,-3.8441,-0.098567,-0.598577,-3.32489,0.149321,
2,1,0,1,0,4204.78,0.151117,0.150858,0.137709,4,0.00795086,11,2.07745e-05,-3.86104,-0.0827346,-0.713124,-3.79501,0.150858,
2,1,0,1,0,4206.28,0.152615,0.152332,0.129956,4,0.0081834,11,1.97965e-05,-3.8862,-0.0698039,-0.845224,-4.31395,0.152332,
2,1,0,1,0,4207.78,0.154113,0.153825,0.124926,4,0.00840626,11,1.92168e-05,-3.90335,-0.0631096,-0.934881,-4.53216,0.153825,
2,1,0,1,0,4209.27,0.155611,0.155285,0.118346,4,0.00861991,11,1.83774e-05,-3.92685,-0.0622567,-0.947689,-4.33664,0.155285,
2,1,0,1,0,4210.77,0.15711,0.156829,0.111305,4,0.00882356,11,1.74559e-05,-3.95349,-0.0559823,-1.0539,-4.56227,0.156829,
2,1,0,1,0,4212.27,0.158608,0.158345,0.105063,4,0.00901679,11,1.66362e-05,-3.97855,-0.0539119,-1.09438,-4.4877,0.158345,
2,1,0,1,0,4213.77,0.160106,0.159791,0.0982148,4,0.00919986,11,1.56938e-05,-4.00782,-0.0600032,-0.983281,-3.81603,0.1597908,
2,1,0,1,0,4215.27,0.161604,0.161288,0.0932117,4,0.00937447,11,1.50339e-05,-4.03053,-0.0614137,-0.960698,-3.50561,0.161288,
2,1,0,1,0,4216.76,0.163102,0.162831,0.0876526,4,0.00954089,11,1.42725e-05,-4.05724,-0.0581233,-1.01508,-3.46841,0.162831,
2,1,0,1,0,4218.26,0.164601,0.164317,0.0832867,4,0.00969968,11,1.36854e-05,-4.07942,-0.0646413,-0.912729,-2.96909,0.164317,
2,1,0,1,0,4219.76,0.166099,0.165811,0.0786903,4,0.00985109,11,1.30477e-05,-4.10408,-0.068419,-0.862334,-2.6407,0.165811,
2,1,0,1,0,4221.26,0.167597,0.16729,0.0747433,4,0.00999687,11,1.25038e-05,-4.12643,-0.0741101,-0.796113,-2.33091,0.16729,
2,1,0,1,0,4222.76,0.169095,0.168783,0.0713946,4,0.0101375,11,1.20502e-05,-4.14633,-0.0812767,-0.725915,-2.02911,0.168783,
2,1,0,1,0,4224.26,0.170593,0.170332,0.0685086,4,0.0102728,11,1.16692e-05,-4.16425,-0.0760731,-0.775569,-2.09324,0.1703323,
2,1,0,1,0,4225.75,0.172091,0.171799,0.0653448,4,0.0104033,11,1.12262e-05,-4.18479,-0.088183,-0.669063,-1.72332,0.171799,
2,1,0,1,0,4227.25,0.17359,0.173294,0.0629943,4,0.0105303,11,1.09165e-05,-4.2007,-0.10591,-0.557075,-1.36887,0.173294,
2,1,0,1,0,4228.75,0.175088,0.174786,0.0619021,4,0.010654,11,1.08196e-05,-4.20829,-0.121636,-0.485054,-1.16315,0.174786,
2,1,0,1,0,4230.25,0.176586,0.17628,0.0595281,4,0.0107745,11,1.04936e-05,-4.22528,-0.107238,-0.550179,-1.27462,0.17628,
2,1,0,1,0,4231.75,0.178084,0.177819,0.0573039,4,0.0108921,11,1.01897e-05,-4.24182,-0.117823,-0.500753,-1.12597,0.177819,
2,1,0,1,0,4233.24,0.179582,0.179346,0.0566706,4,0.0110074,11,1.01636e-05,-4.24664,-0.126306,-0.46712,-1.02874,0.179346,
2,1,0,1,0,4234.74,0.181081,0.180864,0.0558172,4,0.0111207,11,1.00953e-05,-4.25323,-0.129905,-0.454177,-0.980408,0.180864,
2,1,0,1,0,4236.24,0.182579,0.182299,0.0538787,4,0.0112321,11,9.82202e-06,-4.26858,-0.138673,-0.425461,-0.888938,0.182299,
2,1,0,1,0,4237.74,0.184077,0.183801,0.0532638,4,0.0113416,11,9.78991e-06,-4.27357,-0.149925,-0.39353,-0.806417,0.183801,
2,1,0,1,0,4239.24,0.185575,0.185278,0.0514824,4,0.0114492,11,9.53855e-06,-4.28834,-0.22331,-0.264207,-0.534122,0.185278,
2,1,0,1,0,4240.74,0.187073,0.1868,0.0511982,4,0.0115555,11,9.56385e-06,-4.29075,-0.165011,-0.357551,-0.715323,0.1868,
2,1,0,1,0,4242.23,0.188572,0.188298,0.0505483,4,0.0116607,11,9.51813e-06,-4.29629,-0.328311,-0.179708,-0.352205,0.188298,
2,1,0,1,0,4243.73,0.19007,0.189758,0.0499142,4,0.0117647,11,9.47161e-06,-4.30178,-0.43406,-0.135926,-0.261857,0.189758,
2,1,0,1,0,4245.23,0.191568,0.191265,0.048832,4,0.0118674,11,9.33984e-06,-4.3113,-0.229256,-0.257354,-0.4899,0.191265,
2,1,0,1,0,4246.73,0.193066,0.192755,0.0485567,4,0.0119694,11,9.35952e-06,-4.31375,-0.30073,-0.19619,-0.371326,0.1927546,
2,1,0,1,0,4248.23,0.194564,0.194253,0.0474197,4,0.0120707,11,9.21141e-06,-4.32404,-0.331793,-0.177822,-0.333881,0.194253,
2,1,0,1,0,4249.72,0.196063,0.195801,0.0474258,4,0.0121713,11,9.28603e-06,-4.32398,-0.752179,-0.0784387,-0.146173,0.195801,
2,1,0,1,0,4251.22,0.197561,0.197271,0.0472119,4,0.0122708,11,9.31354e-06,-4.32595,-0.772648,-0.0763607,-0.14098,0.197271,
2,1,0,1,0,4252.72,0.199059,0.198759,0.0468292,4,0.0123701,11,9.30771e-06,-4.32948,-1.14677,-0.0514489,-0.0938842,0.198759,
2,1,0,1,0,4254.22,0.200557,0.200271,0.0463261,4,0.0124689,11,9.27777e-06,-4.33417,-0.505191,-0.116788,-0.212746,0.2002707,
2,1,0,1,0,4255.72,0.202055,0.201767,0.0462966,4,0.012567,11,9.34112e-06,-4.33445,-0.479806,-0.122966,-0.221816,0.201767,
2,1,0,1,0,4257.22,0.203554,0.203264,0.0460518,4,0.0126647,11,9.36069e-06,-4.33675,1.18324,0.0498633,0.0899464,0.203264,
2,1,0,1,0,4258.71,0.205052,0.204705,0.0458558,4,0.0127618,11,9.38693e-06,-4.33861,-1.2454,-0.0473743,-0.0848886,0.204705,
2,1,0,1,0,4260.21,0.20655,0.206255,0.0458028,4,0.0128587,11,9.44704e-06,-4.33911,-1.21411,-0.0485951,-0.0871535,0.206255,
2,1,0,1,0,4261.71,0.208048,0.207776,0.045818,4,0.0129558,11,9.51988e-06,-4.33896,-1.15968,-0.0508761,-0.0894311,0.2077762,
2,1,0,1,0,4263.21,0.209546,0.209311,0.0455375,4,0.0130523,11,9.53147e-06,-4.34163,0.60741,0.0971337,0.172102,0.209311,
2,1,0,1,0,4264.71,0.211044,0.210767,0.0453773,4,0.0131484,11,9.56402e-06,-4.34316,2.48939,0.0237006,0.0421268,0.2107666,
2,1,0,1,0,4266.2,0.212543,0.212244,0.0452514,4,0.0132445,11,9.60432e-06,-4.34437,1.1555,0.0510602,0.0909154,0.212244,
2,1,0,1,0,4267.7,0.214041,0.213747,0.0453046,4,0.0133407,11,9.68373e-06,-4.34386,-0.920623,-0.064087,-0.112599,0.2137474,
2,1,0,1,0,4269.2,0.215539,0.215307,0.0450848,4,0.0134365,11,9.70708e-06,-4.34597,-1.75398,-0.0336379,-0.0590029,0.215307,
2,1,0,1,0,4270.7,0.217037,0.216775,0.0452824,4,0.0135321,11,9.81609e-06,-4.34407,8.67773,0.00679901,0.0120192,0.2167749,
2,1,0,1,0,4272.2,0.218535,0.218277,0.0452207,4,0.0136277,11,9.87066e-06,-4.34466,2.07227,0.0284712,0.0499439,0.218277,
2,1,0,1,0,4273.7,0.220034,0.219785,0.0449612,4,0.0137235,11,9.88182e-06,-4.34716,2.00995,0.029354,0.0515445,0.219785,
2,1,0,1,0,4275.19,0.221532,0.221264,0.0453437,4,0.0138192,11,1.00329e-05,-4.34348,-0.742712,-0.0794386,-0.140449,0.221264,
2,1,0,1,0,4276.69,0.22303,0.22276,0.0448102,4,0.0139147,11,9.98191e-06,-4.34862,-3.50236,-0.0168458,-0.0298344,0.22276,
2,1,0,1,0,4278.19,0.224528,0.224221,0.0449878,4,0.0140103,11,1.00872e-05,-4.3469,1.11262,0.0530278,0.0940181,0.224221,
2,1,0,1,0,4279.69,0.226026,0.225756,0.0454751,4,0.0141062,11,1.02663e-05,-4.34223,2.73051,0.0216077,0.0385308,0.225756,
2,1,0,1,0,4281.19,0.227525,0.227244,0.0455768,4,0.0142021,11,1.03571e-05,-4.34126,9.07341,0.00650251,0.0116058,0.227244,
2,1,0,1,0,4282.68,0.229023,0.228745,0.0457042,4,0.014298,11,1.04546e-05,-4.34004,0.975741,0.0604669,0.107118,0.228745,
2,1,0,1,0,4284.18,0.230521,0.230213,0.0455332,4,0.0143939,11,1.04824e-05,-4.34167,-112.314,-0.000525313,-0.000933321,0.230213,
2,1,0,1,0,4285.68,0.232019,0.231727,0.045494,4,0.01449,11,1.05422e-05,-4.34205,3.65857,0.0161265,0.028775,0.231727,
2,1,0,1,0,4287.18,0.233517,0.233209,0.0454215,4,0.0145862,11,1.05927e-05,-4.34274,1.27111,0.046416,0.0831011,0.2332091,
2,1,0,1,0,4288.68,0.235016,0.234736,0.0457381,4,0.0146825,11,1.07364e-05,-4.33972,0.585252,0.100811,0.179234,0.234736,
2,1,0,1,0,4290.18,0.236514,0.236206,0.0466719,4,0.0147785,11,1.10242e-05,-4.33094,0.896622,0.0658025,0.118761,0.2362058,
2,1,0,1,0,4291.67,0.238012,0.237715,0.0464356,4,0.014875,11,1.10384e-05,-4.33315,1.13383,0.0520362,0.0930765,0.237715,
2,1,0,1,0,4293.17,0.23951,0.239193,0.0462075,4,0.0149715,11,1.10525e-05,-4.33529,-1.90032,-0.0310473,-0.0563465,0.239193,
2,1,0,1,0,4294.67,0.241008,0.240745,0.0468959,4,0.0150682,11,1.129e-05,-4.32887,4.20373,0.0140351,0.0253693,0.240745,
2,1,0,1,0,4296.17,0.242506,0.242189,0.0460633,4,0.0151649,11,1.1156e-05,-4.33665,0.792106,0.074485,0.13576,0.242189,
2,1,0,1,0,4297.67,0.244005,0.243749,0.0474534,4,0.0152619,11,1.15667e-05,-4.32373,1.96435,0.0300353,0.0543839,0.243749,
2,1,0,1,0,4299.16,0.245503,0.245201,0.0469437,4,0.0153593,11,1.15107e-05,-4.32842,0.768104,0.0768125,0.141467,0.245201,
2,1,0,1,0,4300.66,0.247001,0.246721,0.0465615,4,0.0154565,11,1.14877e-05,-4.33197,2.73184,0.0215971,0.0397486,0.246721,
2,1,0,1,0,4302.16,0.248499,0.248245,0.0470748,4,0.0155539,11,1.16861e-05,-4.32721,4.82726,0.0122223,0.0224526,0.248245,
2,1,0,1,0,4303.66,0.249997,0.24972,0.0472237,4,0.0156513,11,1.17927e-05,-4.32584,-2.79997,-0.0210716,-0.0386794,0.24972,
2,1,0,1,0,4305.16,0.251496,0.251205,0.0473699,4,0.015749,11,1.18996e-05,-4.3245,1.05931,0.0556967,0.10316,0.251205,
2,1,0,1,0,4306.66,0.252994,0.252718,0.046988,4,0.015847,11,1.18747e-05,-4.32801,-2.76093,-0.0213696,-0.0394029,0.252718,
2,1,0,1,0,4308.15,0.254492,0.254213,0.0477561,4,0.0159451,11,1.21402e-05,-4.32097,1.24771,0.0472865,0.0882071,0.254213,
2,1,0,1,0,4309.65,0.25599,0.255671,0.0481193,4,0.0160432,11,1.23027e-05,-4.31768,0.880288,0.0670236,0.124778,0.255671,
2,1,0,1,0,4311.15,0.257488,0.25719,0.0480874,4,0.0161417,11,1.23676e-05,-4.31797,0.848914,0.0695006,0.130488,0.25719,
2,1,0,1,0,4312.65,0.258987,0.258698,0.0482465,4,0.0162404,11,1.24813e-05,-4.31653,1.89455,0.031142,0.0587623,0.258698,
2,1,0,1,0,4314.15,0.260485,0.260222,0.0483903,4,0.0163392,11,1.25922e-05,-4.31524,0.465813,0.12666,0.238234,0.2602219,
2,1,0,1,0,4315.65,0.261983,0.261675,0.0485057,4,0.0164379,11,1.26927e-05,-4.31421,2.05699,0.0286827,0.0541404,0.261675,
2,1,0,1,0,4317.14,0.263481,0.263149,0.048573,4,0.016537,11,1.27819e-05,-4.31361,0.668738,0.0882258,0.164736,0.263149,
2,1,0,1,0,4318.64,0.264979,0.264704,0.0490061,4,0.0166363,11,1.29721e-05,-4.30975,1.0132,0.0582314,0.111302,0.264704,
2,1,0,1,0,4320.14,0.266477,0.266235,0.0487571,4,0.0167357,11,1.29809e-05,-4.31196,1.37948,0.0427697,0.0807664,0.266235,
2,1,0,1,0,4321.64,0.267976,0.267661,0.0488778,4,0.0168352,11,1.30827e-05,-4.31089,0.86128,0.0685027,0.130528,0.267661,
2,1,0,1,0,4323.14,0.269474,0.269187,0.0491683,4,0.016935,11,1.32354e-05,-4.30831,0.852809,0.0691831,0.132445,0.269187,
2,1,0,1,0,4324.63,0.270972,0.270672,0.0498179,4,0.0170351,11,1.34843e-05,-4.30261,1.97658,0.0298495,0.0570163,0.2706722,
2,1,0,1,0,4326.13,0.27247,0.272175,0.0500191,4,0.0171355,11,1.36139e-05,-4.30086,70.6585,0.000835003,0.00160962,0.272175,
2,1,0,1,0,4327.63,0.273968,0.273676,0.0494912,4,0.0172359,11,1.35446e-05,-4.30547,0.757419,0.0778961,0.149435,0.273676,
2,1,0,1,0,4329.13,0.275467,0.275158,0.0496586,4,0.0173365,11,1.3664e-05,-4.30401,0.345386,0.170823,0.329306,0.275158,
2,1,0,1,0,4330.63,0.276965,0.276678,0.0494479,4,0.0174374,11,1.36811e-05,-4.30585,1.4236,0.0414444,0.0806451,0.276678,
2,1,0,1,0,4332.13,0.278463,0.278181,0.0502174,4,0.0175384,11,1.39695e-05,-4.29915,2.06136,0.0286219,0.0555958,0.278181,
2,1,0,1,0,4333.62,0.279961,0.279684,0.0500279,4,0.0176395,11,1.3992e-05,-4.30079,1.17727,0.050116,0.0983339,0.279684,
2,1,0,1,0,4335.12,0.281459,0.281219,0.0500927,4,0.0177406,11,1.4087e-05,-4.30023,0.576813,0.102286,0.1999,0.281219,
2,1,0,1,0,4336.62,0.282958,0.282664,0.0498845,4,0.0178422,11,1.41006e-05,-4.30203,1.58163,0.0373032,0.0728818,0.282664,
2,1,0,1,0,4338.12,0.284456,0.284184,0.0501786,4,0.0179439,11,1.426e-05,-4.29948,0.415005,0.142167,0.2801,0.284184,
2,1,0,1,0,4339.62,0.285954,0.285662,0.0505357,4,0.0180458,11,1.44361e-05,-4.2964,0.738923,0.0798459,0.15673,0.285662,
2,1,0,1,0,4341.11,0.287452,0.28713,0.0507332,4,0.0181478,11,1.4567e-05,-4.29471,0.834591,0.0706933,0.139392,0.28713,
2,1,0,1,0,4342.61,0.28895,0.288614,0.0509079,4,0.0182501,11,1.46927e-05,-4.29321,-4.35662,-0.0135426,-0.0269036,0.288614,
2,1,0,1,0,4344.11,0.290448,0.290179,0.0513572,4,0.0183527,11,1.49028e-05,-4.2894,0.665843,0.0886095,0.176212,0.290179,
2,1,0,1,0,4345.61,0.291947,0.291625,0.0513108,4,0.0184554,11,1.49635e-05,-4.28979,34.8305,0.00169392,0.00339971,0.291625,
2,1,0,1,0,4347.11,0.293445,0.293191,0.0511923,4,0.018558,11,1.50091e-05,-4.2908,-9.86152,-0.00598285,-0.0119178,0.293191,
2,1,0,1,0,4348.61,0.294943,0.294645,0.0516817,4,0.0186609,11,1.52277e-05,-4.28666,0.596189,0.0989619,0.198091,0.2946448,
2,1,0,1,0,4350.1,0.296441,0.296165,0.0516551,4,0.0187641,11,1.52985e-05,-4.28689,1.1428,0.0516276,0.10418,0.296165,
2,1,0,1,0,4351.6,0.297939,0.297658,0.0516971,4,0.0188676,11,1.53881e-05,-4.28653,1.66115,0.0355176,0.0723168,0.297658,
2,1,0,1,0,4353.1,0.299438,0.299159,0.0519555,4,0.018971,11,1.5543e-05,-4.28437,-0.00605214,-9.74863,-14.2679,0.299159,
2,1,0,1,0,4353.95,0.299737,0.299415,0.0315733,4,0.0190149,11,9.45351e-06,-4.50068,0.00288508,20.4501,26.7971,0.299415,
2,1,0,1,0,4355.45,0.298239,0.297947,0.0215216,4,0.0190274,11,6.4123e-06,-4.66713,0.00744311,7.92679,9.6013,0.297947,
2,1,0,1,0,4356.95,0.296741,0.29644,0.0172021,4,0.0190305,11,5.0994e-06,-4.76442,0.016457,3.5851,2.52186,0.29644,
2,1,0,1,0,4358.44,0.295243,0.294966,0.0138922,4,0.0190283,11,4.09773e-06,-4.85723,0.0183627,3.21303,1.80295,0.2949661,
2,1,0,1,0,4359.94,0.293745,0.293438,0.011363,4,0.0190222,11,3.33435e-06,-4.94451,0.0171463,3.44097,1.57015,0.293438,
2,1,0,1,0,4361.44,0.292246,0.291943,0.00978787,4,0.019013,11,2.8575e-06,-5.00931,0.0181153,3.25692,1.27898,0.291943,
2,1,0,1,0,4362.94,0.290748,0.290451,0.00758458,4,0.0190006,11,2.20295e-06,-5.12007,0.0139916,4.21682,1.29522,0.290451,
2,1,0,1,0,4364.44,0.28925,0.288923,0.00624123,4,0.0189856,11,1.80323e-06,-5.20473,0.0142362,4.14436,1.01492,0.288923,
2,0,0,1,0,4365.93,0.287752,0.287403,0.00490485,4,0.0189683,11,1.40967e-06,-5.30937,0.0103486,5.70124,1.01992,0.2874032,
2,1,0,1,0,4367.43,0.286254,0.285953,0.00348495,4,0.018949,11,9.96529e-07,-5.4578,0.0084747,6.9619,0.901066,0.285953,
2,1,0,1,0,4368.93,0.284755,0.284503,0.00238065,4,0.0189275,11,6.77302e-07,-5.6233,0.00517648,11.3977,0.858879,0.284503,
2,1,0,1,0,4370.43,0.283257,0.282969,0.00142931,4,0.0189041,11,4.04451e-07,-5.84487,0.00332403,17.7496,0.715123,0.282969,
2,1,0,1,0,4371.93,0.281759,0.281465,1.63629e-05,4,0.0188789,11,4.60557e-09,-7.78614,-0.140884,-0.418783,0.712689,0.281465,
2,1,0,1,0,4373.43,0.280261,0.279984,-0.00065714,4,0.0188521,11,-1.83988e-07,-6.18234,-0.00646907,-9.12032,0.796362,0.279984,
2,1,0,1,0,4374.92,0.278763,0.278466,-0.00232225,4,0.0188238,11,-6.46667e-07,-5.63409,-0.00514754,-11.4618,0.841145,0.278466,
2,1,0,1,0,4376.42,0.277264,0.276978,-0.00318053,4,0.0187937,11,-8.80939e-07,-5.4975,-0.00900512,-6.55183,0.715715,0.276978,
2,1,0,1,0,4377.92,0.275766,0.275496,-0.00404234,4,0.018762,11,-1.11365e-06,-5.39337,-0.0162514,-3.63045,0.565217,0.275496,
2,1,0,1,0,4379.42,0.274268,0.274022,-0.00508563,4,0.018729,11,-1.39357e-06,-5.29366,-0.0194258,-3.0372,0.606087,0.274022,
2,1,0,1,0,4380.92,0.27277,0.272493,-0.00595586,4,0.0186947,11,-1.62293e-06,-5.22506,-0.022563,-2.6149,0.643329,0.272493,
2,1,0,1,0,4382.41,0.271272,0.270985,-0.00688405,4,0.0186588,11,-1.86547e-06,-5.16216,-0.0350657,-1.68256,0.45431,0.270985,
2,1,0,1,0,4383.91,0.269774,0.269488,-0.0082226,4,0.0186216,11,-2.21589e-06,-5.08499,-0.0492141,-1.19884,0.366688,0.269488,
2,0,0,1,0,4385.41,0.268275,0.267959,-0.00837324,4,0.0185831,11,-2.24368e-06,-5.07711,-0.0325514,-1.81252,0.612877,0.267959,
2,0,0,1,0,4386.91,0.266777,0.266528,-0.00949926,4,0.0185436,11,-2.53182e-06,-5.02231,-0.0606301,-0.973113,0.354666,0.266528,
2,0,0,1,0,4388.41,0.265279,0.265011,-0.0103812,4,0.0185026,11,-2.75114e-06,-4.98375,-0.0506122,-1.16573,0.473313,0.265011,
2,0,0,1,0,4389.91,0.263781,0.26349,-0.0108565,4,0.0184605,11,-2.86058e-06,-4.96431,-0.0527341,-1.11882,0.485583,0.26349,
2,0,0,1,0,4391.4,0.262283,0.261999,-0.0115948,4,0.0184172,11,-3.03783e-06,-4.93574,-0.0606791,-0.972328,0.440501,0.261999,
2,0,0,1,0,4392.9,0.260784,0.260523,-0.0125176,4,0.018373,11,-3.26112e-06,-4.90248,-0.0575061,-1.02598,0.505055,0.260523,
2,0,0,1,0,4394.4,0.259286,0.259025,-0.0130997,4,0.0183275,11,-3.39315e-06,-4.88274,-0.0475501,-1.2408,0.642637,0.259025,
2,0,0,1,0,4395.9,0.257788,0.257501,-0.0138077,4,0.0182807,11,-3.55549e-06,-4.85988,-0.0748926,-0.787795,0.429107,0.257501,
2,0,0,1,0,4397.4,0.25629,0.256031,-0.0151296,4,0.0182327,11,-3.87366e-06,-4.82017,-0.0643603,-0.916715,0.521537,0.256031,
2,0,0,1,0,4398.9,0.254792,0.254468,-0.0154947,4,0.0181839,11,-3.94291e-06,-4.80982,-0.0895487,-0.658859,0.39356,0.254468,
2,0,0,1,0,4400.39,0.253293,0.252984,-0.0163676,4,0.018134,11,-4.14074e-06,-4.78601,-0.0703725,-0.838395,0.534648,0.252984,
2,0,0,1,0,4401.89,0.251795,0.251507,-0.0170668,4,0.0180829,11,-4.29243e-06,-4.76785,-0.0854766,-0.690247,0.456982,0.251507,
2,0,0,1,0,4403.39,0.250297,0.249997,-0.0175951,4,0.0180307,11,-4.39874e-06,-4.75461,-0.211761,-0.278616,0.189619,0.249997,
2,0,0,1,0,4404.89,0.248799,0.24846,-0.0184855,4,0.0179774,11,-4.59291e-06,-4.73317,-0.102481,-0.575718,0.411709,0.24846,
2,0,0,1,0,4406.39,0.247301,0.247031,-0.0188366,4,0.0179232,11,-4.65324e-06,-4.725,-0.117232,-0.503277,0.377297,0.247031,
2,0,0,1,0,4407.88,0.245802,0.245523,-0.0197677,4,0.0178681,11,-4.85341e-06,-4.70404,-0.0802657,-0.735059,0.567213,0.2455225,
2,0,0,1,0,4409.38,0.244304,0.244029,-0.0206813,4,0.0178116,11,-5.04684e-06,-4.68442,-0.10196,-0.578659,0.453974,0.244029,
2,0,0,1,0,4410.88,0.242806,0.242456,-0.0210739,4,0.0177542,11,-5.10949e-06,-4.67626,-0.117165,-0.503562,0.413311,0.242456,
2,0,0,1,0,4412.38,0.241308,0.241011,-0.0216172,4,0.017696,11,-5.20998e-06,-4.6652,-0.124002,-0.475799,0.398104,0.241011,
2,0,0,1,0,4413.88,0.23981,0.239554,-0.0223998,4,0.0176367,11,-5.36595e-06,-4.64976,-0.120962,-0.487755,0.426358,0.239554,
2,0,0,1,0,4415.38,0.238312,0.238054,-0.0228701,4,0.0175763,11,-5.44432e-06,-4.64073,-0.137307,-0.429695,0.385719,0.238054,
2,0,0,1,0,4416.87,0.236813,0.236516,-0.0236441,4,0.0175149,11,-5.59223e-06,-4.62628,-0.127372,-0.46321,0.420237,0.236516,
2,0,0,1,0,4418.37,0.235315,0.235061,-0.0241698,4,0.0174526,11,-5.68136e-06,-4.61673,-0.129086,-0.457058,0.432905,0.235061,
2,0,0,1,0,4419.87,0.233817,0.233525,-0.0247005,4,0.0173892,11,-5.76818e-06,-4.60729,-0.146022,-0.40405,0.397877,0.233525,
2,0,0,1,0,4421.37,0.232319,0.232003,-0.025412,4,0.0173247,11,-5.89567e-06,-4.59496,-0.100378,-0.587777,0.57753,0.232003,
2,0,0,1,0,4422.87,0.230821,0.230526,-0.0265582,4,0.017259,11,-6.12237e-06,-4.5758,-0.117258,-0.503166,0.512349,0.230526,
2,0,0,1,0,4424.36,0.229322,0.229038,-0.0262167,4,0.0171924,11,-6.00463e-06,-4.58142,-0.140345,-0.420394,0.444487,0.229038,
2,0,0,1,0,4425.86,0.227824,0.227513,-0.027071,4,0.017125,11,-6.159e-06,-4.5675,-0.192493,-0.306505,0.331033,0.227513,
2,0,0,1,0,4427.36,0.226326,0.226051,-0.0276626,4,0.0170563,11,-6.25318e-06,-4.55811,-0.161251,-0.365889,0.400413,0.226051,
2,0,0,1,0,4428.86,0.224828,0.224533,-0.0290823,4,0.0169866,11,-6.52993e-06,-4.53637,-0.268449,-0.219781,0.246071,0.224533,
2,0,0,1,0,4430.36,0.22333,0.223024,-0.029024,4,0.0169157,11,-6.47305e-06,-4.53724,-0.165103,-0.357352,0.409635,0.223024,
2,0,0,1,0,4431.86,0.221831,0.221585,-0.030617,4,0.0168443,11,-6.78425e-06,-4.51404,-0.211166,-0.279401,0.329707,0.221585,
2,0,0,1,0,4433.35,0.220333,0.220116,-0.0310888,4,0.0167715,11,-6.84315e-06,-4.5074,-0.160539,-0.367511,0.442872,0.220116,
2,0,0,1,0,4434.85,0.218835,0.218541,-0.0318589,4,0.0166974,11,-6.9625e-06,-4.49677,-0.215796,-0.273406,0.333379,0.2185415,
2,0,0,1,0,4436.35,0.217337,0.217064,-0.0324627,4,0.0166224,11,-7.0465e-06,-4.48861,-0.183578,-0.32139,0.406245,0.217064,
2,0,0,1,0,4437.85,0.215839,0.215534,-0.0325134,4,0.0165465,11,-7.00775e-06,-4.48794,-0.154911,-0.380863,0.483974,0.215534,
2,0,0,1,0,4439.35,0.21434,0.214058,-0.0331519,4,0.0164694,11,-7.09643e-06,-4.47949,-0.126323,-0.467057,0.605148,0.214058,
2,0,0,1,0,4440.84,0.212842,0.212562,-0.0340914,4,0.016391,11,-7.24654e-06,-4.46735,-0.155736,-0.378846,0.510364,0.212562,
2,0,0,1,0,4442.34,0.211344,0.211025,-0.0349813,4,0.0163116,11,-7.38195e-06,-4.45616,-0.161952,-0.364304,0.496583,0.211025,
2,0,0,1,0,4443.84,0.209846,0.209549,-0.0360907,4,0.016231,11,-7.56278e-06,-4.4426,-0.172952,-0.341136,0.473794,0.209549,
2,0,0,1,0,4445.34,0.208348,0.208047,-0.0368581,4,0.0161491,11,-7.66821e-06,-4.43347,-0.16877,-0.349589,0.495701,0.208047,
2,0,0,1,0,4446.84,0.20685,0.206599,-0.0381932,4,0.0160659,11,-7.89068e-06,-4.41801,-0.176609,-0.334071,0.490045,0.206599,
2,0,0,1,0,4448.34,0.205351,0.205067,-0.0382731,4,0.0159812,11,-7.84854e-06,-4.41711,-0.138412,-0.426263,0.638309,0.205067,
2,0,0,1,0,4449.83,0.203853,0.203541,-0.0391026,4,0.0158954,11,-7.95899e-06,-4.40779,-0.148971,-0.396049,0.605229,0.203541,
2,0,0,1,0,4451.33,0.202355,0.202044,-0.0402409,4,0.0158085,11,-8.13043e-06,-4.39533,-0.148229,-0.398032,0.62578,0.2020437,
2,0,0,1,0,4452.83,0.200857,0.200571,-0.0409048,4,0.01572,11,-8.2043e-06,-4.38823,-0.175947,-0.335328,0.532471,0.200571,
2,0,0,1,0,4454.33,0.199359,0.19906,-0.0417392,4,0.0156302,11,-8.30859e-06,-4.37946,-0.18482,-0.31923,0.522635,0.19906,
2,0,0,1,0,4455.83,0.19786,0.197576,-0.0433795,4,0.0155388,11,-8.57076e-06,-4.36272,-0.177325,-0.332723,0.556112,0.197576,
2,0,0,1,0,4457.32,0.196362,0.196076,-0.0436825,4,0.0154461,11,-8.56509e-06,-4.35969,-0.119309,-0.494515,0.844748,0.196076,
2,0,0,1,0,4458.82,0.194864,0.194578,-0.0452163,4,0.0153517,11,-8.79812e-06,-4.3447,-0.119424,-0.494037,0.86415,0.194578,
2,0,0,1,0,4460.32,0.193366,0.193073,-0.0460312,4,0.0152553,11,-8.88737e-06,-4.33695,-0.152348,-0.387272,0.696901,0.193073,
2,0,0,1,0,4461.82,0.191868,0.191539,-0.0470868,4,0.0151574,11,-9.01896e-06,-4.3271,-0.122325,-0.48232,0.886118,0.191539,
2,0,0,1,0,4463.32,0.190369,0.190075,-0.0484323,4,0.0150579,11,-9.20575e-06,-4.31487,-0.132409,-0.44559,0.835783,0.190075,
2,0,0,1,0,4464.82,0.188871,0.188558,-0.0498666,4,0.0149561,11,-9.40278e-06,-4.30219,-0.113589,-0.519417,1.00277,0.188558,
2,0,0,1,0,4466.31,0.187373,0.187053,-0.0509651,4,0.0148524,11,-9.53316e-06,-4.29273,-0.132222,-0.44622,0.883716,0.187053,
2,0,0,1,0,4467.81,0.185875,0.18557,-0.0525291,4,0.0147466,11,-9.74785e-06,-4.2796,-0.130211,-0.453111,0.92087,0.18557,
2,0,0,1,0,4469.31,0.184377,0.184077,-0.0532828,4,0.0146386,11,-9.80814e-06,-4.27341,-0.145429,-0.405698,0.8505,0.184077,
2,0,0,1,0,4470.81,0.182878,0.182616,-0.0551369,4,0.0145284,11,-1.00689e-05,-4.25856,-0.116721,-0.505478,1.08723,0.182616,
2,0,0,1,0,4472.31,0.18138,0.18111,-0.0570387,4,0.0144154,11,-1.03303e-05,-4.24383,-0.134704,-0.437999,0.971548,0.18111,
2,0,0,1,0,4473.8,0.179882,0.17959,-0.0591628,4,0.0142998,11,-1.0625e-05,-4.22795,-0.105349,-0.560045,1.28598,0.17959,
2,0,0,1,0,4475.3,0.178384,0.178101,-0.0601567,4,0.0141812,11,-1.0714e-05,-4.22072,-0.105201,-0.560832,1.33071,0.178101,
2,0,0,1,0,4476.8,0.176886,0.176601,-0.0627329,4,0.01406,11,-1.10787e-05,-4.2025,-0.117832,-0.500711,1.22604,0.176601,
2,0,0,1,0,4478.3,0.175388,0.175068,-0.0648989,4,0.0139351,11,-1.13617e-05,-4.18776,-0.0947381,-0.62277,1.58775,0.175068,
2,0,0,1,0,4479.8,0.173889,0.173585,-0.067268,4,0.0138067,11,-1.16767e-05,-4.17219,-0.0870844,-0.677504,1.78544,0.173585,
2,0,0,1,0,4481.3,0.172391,0.172113,-0.069644,4,0.0136742,11,-1.19866e-05,-4.15712,-0.0912852,-0.646326,1.76707,0.172113,
2,0,0,1,0,4482.79,0.170893,0.170609,-0.072527,4,0.0135382,11,-1.23738e-05,-4.1395,-0.0887311,-0.66493,1.89419,0.170609,
2,0,0,1,0,4484.29,0.169395,0.169075,-0.0763338,4,0.0133969,11,-1.29061e-05,-4.11728,-0.07405,-0.796759,2.36315,0.169075,
2,0,0,1,0,4485.79,0.167897,0.167622,-0.079507,4,0.0132504,11,-1.33271e-05,-4.09959,-0.0740574,-0.79668,2.48197,0.167622,
2,0,0,1,0,4487.29,0.166398,0.166127,-0.0837556,4,0.0130987,11,-1.3914e-05,-4.07699,-0.0763772,-0.772482,2.52436,0.166127,
2,0,0,1,0,4488.79,0.1649,0.164584,-0.0871935,4,0.0129413,11,-1.43506e-05,-4.05952,-0.0687156,-0.858611,2.93951,0.1645838,
2,0,0,1,0,4490.28,0.163402,0.1631,-0.0912209,4,0.0127769,11,-1.48782e-05,-4.03991,-0.0634958,-0.929195,3.3393,0.1631,
2,0,0,1,0,4491.78,0.161904,0.161614,-0.0973837,4,0.0126053,11,-1.57385e-05,-4.01151,-0.0632177,-0.933283,3.53725,0.161614,
2,0,0,1,0,4493.28,0.160406,0.160136,-0.102262,4,0.0124254,11,-1.63758e-05,-3.99029,-0.0637636,-0.925293,3.70695,0.160136,
2,0,0,1,0,4494.78,0.158907,0.158658,-0.108579,4,0.012237,11,-1.7227e-05,-3.96425,-0.060498,-0.975239,4.1379,0.158658,
2,0,0,1,0,4496.28,0.157409,0.157125,-0.11518,4,0.0120392,11,-1.80976e-05,-3.93862,-0.0591391,-0.997648,4.49185,0.157125,
2,0,0,1,0,4497.78,0.155911,0.155636,-0.122089,4,0.011831,11,-1.90015e-05,-3.91332,-0.0619574,-0.952267,4.53837,0.1556361,
2,0,0,1,0,4499.27,0.154413,0.154124,-0.128612,4,0.0116118,11,-1.98222e-05,-3.89072,-0.0636972,-0.926257,4.66161,0.1541239,
2,0,0,1,0,4500.77,0.152915,0.152586,-0.136632,4,0.0113819,11,-2.08482e-05,-3.86445,-0.066079,-0.89287,4.76162,0.152586,
2,0,0,1,0,4502.27,0.151417,0.151091,-0.143956,4,0.0111414,11,-2.17505e-05,-3.84177,-0.0705536,-0.836243,4.70169,0.1510912,
2,0,0,1,0,4503.77,0.149918,0.149591,-0.152551,4,0.010889,11,-2.28202e-05,-3.81659,-0.0731121,-0.80698,4.76642,0.1495907,
2,0,0,1,0,4505.27,0.14842,0.148135,-0.159148,4,0.0106254,11,-2.35754e-05,-3.7982,-0.0778849,-0.757528,4.68314,0.148135,
2,0,0,1,0,4506.76,0.146922,0.146583,-0.166512,4,0.0103511,11,-2.44079e-05,-3.77855,-0.0845453,-0.697851,4.48589,0.146583,
2,0,0,1,0,4508.26,0.145424,0.14512,-0.172433,4,0.0100673,11,-2.50235e-05,-3.76338,-0.0928668,-0.635319,4.25874,0.14512,
2,0,0,1,0,4509.76,0.143926,0.143655,-0.178222,4,0.00977343,11,-2.56024e-05,-3.74904,-0.0952986,-0.619107,4.27848,0.143655,
2,0,0,1,0,4511.26,0.142427,0.142178,-0.183362,4,0.00947077,11,-2.60701e-05,-3.73669,-0.126274,-0.467239,3.34297,0.142178,
2,0,0,1,0,4512.76,0.140929,0.140658,-0.188183,4,0.00916116,11,-2.64694e-05,-3.72542,-0.174217,-0.338657,2.48737,0.140658,
2,0,0,1,0,4514.26,0.139431,0.139105,-0.190889,4,0.00884624,11,-2.65536e-05,-3.71922,-0.207422,-0.284444,2.12068,0.139105,
2,0,0,1,0,4515.75,0.137933,0.137641,-0.195032,4,0.00852589,11,-2.68444e-05,-3.70989,-0.301611,-0.195616,1.4772,0.137641,
2,0,0,1,0,4517.25,0.136435,0.136122,-0.197399,4,0.00820156,11,-2.68705e-05,-3.70465,-0.449996,-0.131112,1.00001,0.136122,
2,0,0,1,0,4518.75,0.134936,0.13463,-0.19822,4,0.00787465,11,-2.66864e-05,-3.70285,-0.777819,-0.0758531,0.582956,0.13463,
2,0,0,1,0,4520.25,0.133438,0.133148,-0.196986,4,0.00754721,11,-2.62284e-05,-3.70556,-2.77628,-0.0212514,0.164024,0.133148,
2,0,0,1,0,4521.75,0.13194,0.131637,-0.1981,4,0.00721958,11,-2.60773e-05,-3.70312,2.13216,0.0276715,-0.213897,0.131637,
2,0,0,1,0,4523.24,0.130442,0.130156,-0.196815,4,0.0068924,11,-2.56166e-05,-3.70594,0.935898,0.0630411,-0.48557,0.130156,
2,0,0,1,0,4524.74,0.128944,0.128625,-0.196449,4,0.00656636,11,-2.52683e-05,-3.70675,0.345509,0.170763,-1.30342,0.128625,
2,0,0,1,0,4526.24,0.127445,0.127156,-0.194286,4,0.00624317,11,-2.47045e-05,-3.71156,0.311059,0.189674,-1.43487,0.127156,
2,0,0,1,0,4527.74,0.125947,0.125602,-0.192449,4,0.00592397,11,-2.4172e-05,-3.71568,0.302116,0.195289,-1.45718,0.1256022,
2,0,0,1,0,4529.24,0.124449,0.124139,-0.189128,4,0.00560756,11,-2.34781e-05,-3.72324,0.255527,0.230895,-1.69805,0.124139,
2,0,0,1,0,4530.74,0.122951,0.12266,-0.186641,4,0.00529536,11,-2.28933e-05,-3.72899,0.195445,0.301875,-2.18862,0.12266,
2,0,0,1,0,4532.23,0.121453,0.121162,-0.183453,4,0.00498751,11,-2.22275e-05,-3.73648,0.198657,0.296995,-2.12177,0.121162,
2,0,0,1,0,4533.73,0.119955,0.119669,-0.180109,4,0.00468562,11,-2.15535e-05,-3.74446,0.178905,0.329783,-2.3188,0.119669,
2,0,0,1,0,4535.23,0.118456,0.118192,-0.176508,4,0.00438796,11,-2.08618e-05,-3.75324,0.208261,0.283298,-1.94908,0.118192,
2,0,0,1,0,4536.73,0.116958,0.116659,-0.173155,4,0.00409498,11,-2.02e-05,-3.76157,0.178934,0.329731,-2.22845,0.116659,
2,0,0,1,0,4538.23,0.11546,0.115132,-0.169703,4,0.00380732,11,-1.95382e-05,-3.77031,0.174976,0.337189,-2.24026,0.1151318,
2,0,0,1,0,4539.72,0.113962,0.11364,-0.165301,4,0.00352547,11,-1.87847e-05,-3.78173,0.180765,0.326392,-2.11826,0.11364,
2,0,0,1,0,4541.22,0.112464,0.112181,-0.163063,4,0.00324841,11,-1.82925e-05,-3.78765,0.177317,0.332738,-2.11585,0.112181,
2,0,0,1,0,4542.72,0.110965,0.110684,-0.160054,4,0.0029758,11,-1.77155e-05,-3.79573,0.199897,0.295153,-1.84413,0.110684,
2,0,0,1,0,4544.22,0.109467,0.109158,-0.157378,4,0.00270755,11,-1.71791e-05,-3.80306,0.184037,0.320587,-1.96624,0.109158,
2,0,0,1,0,4545.72,0.107969,0.107653,-0.153977,4,0.00244377,11,-1.65761e-05,-3.81254,0.197025,0.299454,-1.80991,0.107653,
2,0,0,1,0,4547.22,0.106471,0.106165,-0.151652,4,0.00218431,11,-1.61001e-05,-3.81915,0.246183,0.239659,-1.42619,0.106165,
2,0,0,1,0,4548.71,0.104973,0.104727,-0.14966,4,0.00192792,11,-1.56734e-05,-3.8249,0.231432,0.254934,-1.49687,0.104727,
2,0,0,1,0,4550.21,0.103474,0.103178,-0.147916,4,0.00167454,11,-1.52617e-05,-3.82998,0.229187,0.257432,-1.48022,0.103178,
2,0,0,1,0,4551.71,0.101976,0.101655,-0.146119,4,0.00142455,11,-1.48538e-05,-3.83529,0.289057,0.204112,-1.16082,0.101655,
2,0,0,1,0,4553.21,0.100478,0.100173,-0.144354,4,0.00117792,11,-1.44603e-05,-3.84057,0.315188,0.18719,-1.05228,0.100173,
2,0,0,1,0,4554.71,0.0989798,0.0986911,-0.141938,4,0.000933321,11,-1.4008e-05,-3.8479,0.34703,0.170014,-0.944335,0.0986911,
2,0,0,1,0,4556.21,0.0974816,0.0971641,-0.141133,4,0.000691014,11,-1.37131e-05,-3.85037,0.314956,0.187328,-1.02898,0.0971641,
2,0,0,1,0,4557.7,0.0959834,0.09567,-0.139375,4,0.000450929,11,-1.3334e-05,-3.85581,0.327797,0.17999,-0.985154,0.09567,
2,0,0,1,0,4559.2,0.0944852,0.0941876,-0.137584,4,0.000213542,11,-1.29587e-05,-3.86143,0.38599,0.152854,-0.826289,0.0941876,
2,0,0,1,0,4560.7,0.0929871,0.092684,-0.136297,4,-2.21849e-05,11,-1.26325e-05,-3.86551,0.46896,0.12581,-0.671049,0.092684,
2,0,0,1,0,4562.2,0.0914889,0.091174,-0.135681,4,-0.000256614,11,-1.23706e-05,-3.86748,0.447221,0.131926,-0.698336,0.091174,
2,0,0,1,0,4563.7,0.0899907,0.0896926,-0.134915,4,-0.000488795,11,-1.21009e-05,-3.86994,0.315721,0.186874,-0.981489,0.0896926,
2,0,0,1,0,4565.19,0.0884925,0.0882016,-0.132646,4,-0.000719067,11,-1.16996e-05,-3.87731,0.335179,0.176025,-0.915615,0.0882016,
2,0,0,1,0,4566.69,0.0869943,0.0867043,-0.13204,4,-0.000947388,11,-1.14484e-05,-3.87929,0.33384,0.176731,-0.910894,0.0867043,
2,0,0,1,0,4568.19,0.0854961,0.0852187,-0.131568,4,-0.00117434,11,-1.12121e-05,-3.88085,0.360448,0.163685,-0.836656,0.08521872,
2,0,0,1,0,4569.69,0.083998,0.0836737,-0.12984,4,-0.00139952,11,-1.08642e-05,-3.88659,0.294458,0.200368,-1.0154,0.0836737,
2,0,0,1,0,4571.19,0.0824998,0.0821998,-0.127979,4,-0.00162285,11,-1.05198e-05,-3.89286,0.418309,0.141044,-0.711233,0.0821998,
2,0,0,1,0,4572.69,0.0810016,0.0807089,-0.127588,4,-0.00184378,11,-1.02975e-05,-3.89419,0.421043,0.140128,-0.697958,0.0807089,
2,0,0,1,0,4574.18,0.0795034,0.0791988,-0.126579,4,-0.00206359,11,-1.00249e-05,-3.89764,0.389851,0.15134,-0.746239,0.0791988,
2,0,0,1,0,4575.68,0.0780052,0.077692,-0.125354,4,-0.00228145,11,-9.73898e-06,-3.90186,0.340313,0.17337,-0.845188,0.077692,
2,0,0,1,0,4577.18,0.076507,0.0761798,-0.124383,4,-0.00249761,11,-9.47545e-06,-3.90524,0.297983,0.197998,-0.954514,0.0761798,
2,0,0,1,0,4578.68,0.0750088,0.0747345,-0.123009,4,-0.00271127,11,-9.19302e-06,-3.91006,0.320271,0.184219,-0.880222,0.0747345,
2,0,0,1,0,4580.18,0.0735106,0.0731831,-0.12092,4,-0.0029234,11,-8.84928e-06,-3.9175,0.314007,0.187894,-0.887987,0.0731831,
2,0,0,1,0,4581.67,0.0720124,0.0716943,-0.119915,4,-0.00313366,11,-8.59718e-06,-3.92113,0.327676,0.180056,-0.847388,0.07169427,
2,0,0,1,0,4583.17,0.0705142,0.0702203,-0.118349,4,-0.00334185,11,-8.31053e-06,-3.92683,0.347724,0.169675,-0.790705,0.0702203,
2,0,0,1,0,4584.67,0.069016,0.068688,-0.117516,4,-0.00354775,11,-8.07192e-06,-3.9299,0.306933,0.192224,-0.881252,0.068688,
2,0,0,1,0,4586.17,0.0675178,0.0672374,-0.115881,4,-0.00375204,11,-7.79157e-06,-3.93599,0.284454,0.207415,-0.940741,0.0672374,
2,0,0,1,0,4587.67,0.0660196,0.0656977,-0.115329,4,-0.00395428,11,-7.57684e-06,-3.93806,0.259398,0.22745,-1.0215,0.0656977,
2,0,0,1,0,4589.17,0.0645214,0.0641929,-0.114023,4,-0.00415489,11,-7.31948e-06,-3.94301,0.270251,0.218315,-0.964879,0.0641929,
2,0,0,1,0,4590.66,0.0630233,0.0627402,-0.112143,4,-0.00435314,11,-7.03585e-06,-3.95023,0.248359,0.237559,-1.04014,0.0627402,
2,0,0,1,0,4592.16,0.0615251,0.0612207,-0.111413,4,-0.00454944,11,-6.82081e-06,-3.95306,0.266459,0.221423,-0.95935,0.0612207,
2,0,0,1,0,4593.66,0.0600269,0.0597276,-0.109446,4,-0.00474417,11,-6.53694e-06,-3.9608,0.335095,0.17607,-0.755521,0.0597276,
2,0,0,1,0,4595.16,0.0585287,0.058259,-0.109036,4,-0.00493712,11,-6.35235e-06,-3.96243,0.289966,0.203472,-0.862518,0.058259,
2,0,0,1,0,4596.66,0.0570305,0.0567373,-0.107515,4,-0.00512856,11,-6.1001e-06,-3.96853,0.412678,0.142968,-0.601591,0.0567373,
2,0,0,1,0,4598.15,0.0555323,0.0552102,-0.106704,4,-0.00531796,11,-5.89112e-06,-3.97182,0.461708,0.127786,-0.533317,0.0552102,
2,0,0,1,0,4599.65,0.0540342,0.053747,-0.106422,4,-0.0055063,11,-5.71987e-06,-3.97297,0.488007,0.1209,-0.498562,0.053747,
2,0,0,1,0,4601.15,0.052536,0.0522306,-0.105837,4,-0.00569364,11,-5.52794e-06,-3.97536,0.435273,0.135547,-0.555615,0.0522306,
2,0,0,1,0,4602.65,0.0510378,0.0507386,-0.104589,4,-0.00587936,11,-5.30672e-06,-3.98051,0.367943,0.160351,-0.651793,0.0507386,
2,0,0,1,0,4604.15,0.0495396,0.0492296,-0.103266,4,-0.00606343,11,-5.08374e-06,-3.98604,0.392416,0.150351,-0.606576,0.0492296,
2,0,0,1,0,4605.65,0.0480414,0.0477143,-0.102682,4,-0.00624692,11,-4.8994e-06,-3.98851,1.01844,0.0579318,-0.231538,0.0477143,
2,0,0,1,0,4607.14,0.0465432,0.0462605,-0.10229,4,-0.00642945,11,-4.73199e-06,-3.99017,0.603758,0.0977213,-0.390242,0.04626048,
2,0,0,1,0,4608.64,0.045045,0.0447335,-0.10169,4,-0.00661119,11,-4.54893e-06,-3.99272,2.32358,0.0253918,-0.100956,0.0447335,
2,0,0,1,0,4610.14,0.0435468,0.0432552,-0.101186,4,-0.00679188,11,-4.37682e-06,-3.99488,0.770748,0.076549,-0.304184,0.04325524,
2,0,0,1,0,4611.64,0.0420486,0.0417506,-0.101016,4,-0.00697223,11,-4.21748e-06,-3.99561,1.87384,0.0314861,-0.124113,0.0417506,
2,0,0,1,0,4613.14,0.0405504,0.0402119,-0.101248,4,-0.00715224,11,-4.07138e-06,-3.99461,1.79691,0.0328342,-0.129151,0.0402119,
2,0,0,1,0,4614.63,0.0390522,0.0387326,-0.100695,4,-0.00733196,11,-3.90018e-06,-3.99699,1.57774,0.0373953,-0.146261,0.0387326,
2,0,0,1,0,4616.13,0.037554,0.0372459,-0.0999746,4,-0.00751105,11,-3.72365e-06,-4.00011,1.33474,0.0442034,-0.173458,0.0372459,
2,0,0,1,0,4617.63,0.0360558,0.0357868,-0.100355,4,-0.00768978,11,-3.59138e-06,-3.99846,5.51023,0.0107073,-0.0418616,0.0357868,
2,0,0,1,0,4619.13,0.0345576,0.0342608,-0.100337,4,-0.00786873,11,-3.43764e-06,-3.99854,2.43252,0.0242547,-0.0947758,0.0342608,
2,0,0,1,0,4620.63,0.0330594,0.0327529,-0.0998634,4,-0.00804767,11,-3.27081e-06,-4.00059,-105.782,-0.000557749,0.00218334,0.0327529,
2,0,0,1,0,4622.13,0.0315613,0.0312144,-0.100201,4,-0.00822661,11,-3.1277e-06,-3.99913,6.55564,0.00899988,-0.0351907,0.0312144,
2,0,0,1,0,4623.62,0.0300631,0.0297616,-0.100166,4,-0.00840518,11,-2.9811e-06,-3.99928,-2.94567,-0.0200294,0.0784802,0.0297616,
2,0,0,1,0,4625.12,0.0285649,0.0282685,-0.100486,4,-0.00858434,11,-2.8406e-06,-3.99789,-1.52729,-0.0386306,0.151539,0.0282685,
2,0,0,1,0,4626.62,0.0270667,0.0267627,-0.0997428,4,-0.00876385,11,-2.66939e-06,-4.00112,-2.55213,-0.023118,0.0909026,0.0267627,
2,0,0,1,0,4628.12,0.0255685,0.0252866,-0.100847,4,-0.00894365,11,-2.55007e-06,-3.99634,-3.0948,-0.0190642,0.0751767,0.0252866,
2,0,0,1,0,4629.62,0.0240703,0.0237788,-0.101059,4,-0.00912346,11,-2.40307e-06,-3.99542,-1.56323,-0.0377424,0.148877,0.0237788,
2,0,0,1,0,4631.11,0.0225722,0.022289,-0.101498,4,-0.00930395,11,-2.26228e-06,-3.99354,-1.06423,-0.0554391,0.21979,0.022289,
2,0,0,1,0,4632.61,0.021074,0.020762,-0.101485,4,-0.00948507,11,-2.10704e-06,-3.9936,-0.616503,-0.0957011,0.380566,0.020762,
2,0,0,1,0,4634.11,0.0195758,0.0192785,-0.102118,4,-0.00966679,11,-1.96868e-06,-3.9909,-1.78168,-0.0331148,0.13247,0.0192785,
2,0,0,1,0,4635.61,0.0180776,0.0177971,-0.102243,4,-0.00984897,11,-1.81962e-06,-3.99037,-0.715147,-0.0825005,0.330329,0.0177971,
2,0,0,1,0,4637.11,0.0165794,0.0162998,-0.102917,4,-0.0100319,11,-1.67752e-06,-3.98751,-0.504234,-0.117009,0.470303,0.0162998,
2,0,0,1,0,4638.61,0.0150812,0.0147833,-0.104186,4,-0.0102159,11,-1.54021e-06,-3.98219,-0.449471,-0.131265,0.531131,0.0147833,
2,0,0,1,0,4640.1,0.013583,0.0132426,-0.104074,4,-0.0104008,11,-1.37821e-06,-3.98266,-0.7613,-0.077499,0.315522,0.01324259,
2,0,0,1,0,4641.6,0.0120848,0.0117781,-0.104804,4,-0.0105864,11,-1.2344e-06,-3.97962,-0.991941,-0.0594794,0.243817,0.0117781,
2,0,0,1,0,4643.1,0.0105866,0.0102989,-0.105308,4,-0.0107728,11,-1.08456e-06,-3.97754,-0.587837,-0.100368,0.415634,0.0102989,
2,0,0,1,0,4644.6,0.00908843,0.00880052,-0.106013,4,-0.0109604,11,-9.32972e-07,-3.97464,-0.46389,-0.127185,0.527165,0.00880052,
2,0,0,1,0,4646.1,0.00759024,0.00727354,-0.10691,4,-0.0111493,11,-7.77612e-07,-3.97098,-0.569544,-0.103592,0.432733,0.00727354,
2,0,0,1,0,4647.59,0.00609203,0.00582079,-0.108047,4,-0.0113393,11,-6.28919e-07,-3.96639,-0.437358,-0.134901,0.567061,0.00582079,
2,0,0,1,0,4649.09,0.00459384,0.00427044,-0.108919,4,-0.0115302,11,-4.65134e-07,-3.96289,-0.431645,-0.136686,0.581152,0.00427044,
2,0,0,1,0,4650.59,0.00309563,0.00280068,-0.109814,4,-0.0117228,11,-3.07555e-07,-3.95934,-0.310046,-0.190294,0.81411,0.00280068,
2,0,0,1,0,4652.09,0.00159744,0.00129278,-0.11085,4,-0.0119193,11,-1.43305e-07,-3.95526, , , ,0.00129278,
2,0,0,1,0,4653.49,0.000199235,-0.000159223,-0.11183,4,-0.0121018,11,1.78058e-08,-3.95144, , , ,-0.0001592226,