File: Figure_codes/Fig_3-5/rawdata_trumpetplot_data/before 10th/20221101_1-115_002_TrumpetPlot_ParaChange_03_CV_C01_0.csv
mode,ox/red,error,control changes,counter inc.,time/s,control/V,Ewe/V,<I>/mA,cycle number,(Q-Qo)/C,I Range,P/W,log(|I|),Tafel slope mV/dec,alpha_eff,dI/d(E-IR),E-IR/V,
2,1,0,0,0,18.6612,2.44065e-05,-0.000325324,0.772606,1,0.0000000E+000,10,-2.51347e-07,-3.11204, , , ,-0.000943408,
2,1,0,0,0,19.4154,0.00379485,0.00353137,0.210038,1,0.000185849,10,7.41724e-07,-3.6777,0.0925961,0.637176,5.12382,0.00336334,
2,1,0,1,0,20.2144,0.00779002,0.00747503,0.225285,1,0.000380285,10,1.68401e-06,-3.64727,0.143207,0.411991,3.5969,0.0072948,
2,1,0,0,0,21.0134,0.0117852,0.011547,0.230771,1,0.000584593,10,2.66471e-06,-3.63682,0.352884,0.167194,1.5275,0.0113624,
2,1,0,1,0,21.8125,0.0157806,0.0155057,0.239962,1,0.000795078,10,3.72078e-06,-3.61986,0.302077,0.195314,1.83546,0.0153137,
2,1,0,1,0,22.6115,0.0197754,0.0194533,0.245861,1,0.00101004,10,4.7828e-06,-3.60931,0.804728,0.0733167,0.703595,0.0192566,
2,1,0,1,0,23.4105,0.0237704,0.0235142,0.250636,1,0.00122887,10,5.89352e-06,-3.60096,0.464918,0.126904,1.23692,0.0233137,
2,1,0,1,0,24.2096,0.0277659,0.0275029,0.253824,1,0.00145084,10,6.98091e-06,-3.59547,0.636554,0.0926866,0.91886,0.0272999,
2,1,0,0,0,25.0086,0.0317611,0.0315261,0.257427,1,0.00167579,10,8.11567e-06,-3.58935,0.580168,0.101695,1.02347,0.0313202,
2,1,0,1,0,25.8077,0.0357567,0.0354213,0.260828,1,0.00190394,10,9.23887e-06,-3.58365,2.70422,0.0218178,0.22169,0.0352127,
2,1,0,1,0,26.6067,0.0397516,0.0394919,0.26542,1,0.00213465,10,1.04819e-05,-3.57607,0.46172,0.127783,1.31367,0.0392796,
2,1,0,1,0,27.4057,0.0437465,0.0434713,0.265541,1,0.00236884,10,1.15434e-05,-3.57587,0.583143,0.101176,1.05881,0.0432589,
2,1,0,1,0,28.2047,0.0477413,0.0474646,0.274468,1,0.0026063,10,1.30275e-05,-3.56151,0.358301,0.164666,1.75947,0.047245,
2,1,0,0,0,29.0038,0.0517369,0.0514437,0.278904,1,0.00284786,10,1.43478e-05,-3.55455,0.407019,0.144957,1.58676,0.0512206,
2,1,0,1,0,29.8028,0.0557321,0.0554616,0.285268,1,0.00309459,10,1.58214e-05,-3.54475,0.417561,0.141297,1.58154,0.0552334,
2,1,0,1,0,30.6019,0.0597277,0.0594268,0.294996,1,0.00334668,10,1.75306e-05,-3.53018,0.380075,0.155233,1.7782,0.0591908,
2,1,0,1,0,31.4009,0.0637226,0.0634169,0.30243,1,0.00360548,10,1.91792e-05,-3.51937,0.279331,0.211219,2.48962,0.063175,
2,1,0,1,0,32.1999,0.0677174,0.0674693,0.314907,1,0.00387258,10,2.12466e-05,-3.50182,0.261487,0.225633,2.7512,0.0672174,
2,1,0,0,0,32.999,0.0717128,0.0714557,0.325388,1,0.00414829,10,2.32509e-05,-3.4876,0.186316,0.316667,4.02767,0.0711954,
2,1,0,1,0,33.798,0.075708,0.0754163,0.337896,1,0.00443518,10,2.54828e-05,-3.47122,0.218859,0.26958,3.58834,0.075146,
2,1,0,0,0,34.597,0.0797031,0.0794331,0.35506,1,0.00473364,10,2.82035e-05,-3.4497,0.216162,0.272943,3.78967,0.0791491,
2,1,0,1,0,35.3961,0.0836986,0.0834123,0.371436,1,0.00504473,10,3.09823e-05,-3.43012,0.209652,0.281418,4.07939,0.0831152,
2,1,0,1,0,36.1951,0.0876935,0.0874244,0.388812,1,0.00536987,10,3.39917e-05,-3.41026,0.184524,0.319741,4.85557,0.0871133,
2,1,0,1,0,36.9941,0.0916883,0.0914103,0.410521,1,0.00570923,10,3.75258e-05,-3.38666,0.198529,0.297185,4.73421,0.0910819,
2,1,0,1,0,37.7932,0.0956838,0.0954283,0.426809,1,0.0060643,10,4.07297e-05,-3.36977,0.180482,0.326903,5.46865,0.0950869,
2,1,0,0,0,38.5922,0.099679,0.0994091,0.449454,1,0.00643604,10,4.46798e-05,-3.34731,0.213623,0.276187,4.84204,0.0990495,
2,1,0,1,0,39.3912,0.103674,0.103456,0.474257,1,0.00682545,10,4.90645e-05,-3.32399,0.144342,0.408752,7.55636,0.103076,
2,1,0,1,0,40.1903,0.10767,0.107387,0.502207,1,0.00723762,10,5.39303e-05,-3.29912,0.138887,0.424805,8.37824,0.106985,
2,1,0,1,0,40.9893,0.111664,0.111405,0.544178,1,0.00767607,10,6.06244e-05,-3.26426,0.110944,0.5318,11.2939,0.11097,
2,1,0,1,0,41.7883,0.115659,0.11537,0.590303,1,0.00814888,10,6.81032e-05,-3.22892,0.0957087,0.616454,14.311,0.114898,
2,1,0,0,0,42.5874,0.119655,0.119355,0.650716,1,0.00866686,10,7.76664e-05,-3.18661,0.089143,0.661858,16.9557,0.118835,
2,1,0,1,0,43.3864,0.12365,0.12339,0.729766,1,0.00923956,10,9.0046e-05,-3.13682,0.0822011,0.717752,20.4467,0.122806,
2,1,0,1,0,44.1855,0.127646,0.127311,0.812991,1,0.00987768,10,0.000103503,-3.08991,0.0821315,0.71836,22.845,0.126661,
2,1,0,1,0,44.9845,0.13164,0.131349,0.902059,1,0.0105866,10,0.000118484,-3.04477,0.108193,0.545322,19.0891,0.130627,
2,1,0,1,0,45.7835,0.135635,0.135363,0.973515,1,0.0113586,10,0.000131778,-3.01166,0.128234,0.460095,17.3967,0.134584,
2,1,0,0,0,46.5826,0.139631,0.139342,1.01784,1,0.0121802,10,0.000141827,-2.99232,0.259332,0.227508,9.07084,0.138528,
2,1,0,1,0,47.3816,0.143626,0.143348,1.04447,1,0.0130281,10,0.000149723,-2.9811,4.89807,0.0120456,0.489252,0.142513,
2,1,0,0,0,48.1806,0.147621,0.147346,1.02758,1,0.0138771,10,0.00015141,-2.98818,-0.293498,-0.201023,-8.04367,0.146524,
2,1,0,1,0,48.9797,0.151617,0.151316,0.979943,1,0.014703,10,0.000148281,-3.0088,-0.137162,-0.430148,-16.381,0.150532,
2,1,0,1,0,49.7787,0.155612,0.155331,0.902618,1,0.015476,10,0.000140204,-3.0445,-0.0898437,-0.656696,-22.9472,0.154609,
2,1,0,1,0,50.5777,0.159606,0.159355,0.794117,1,0.0161752,10,0.000126546,-3.10012,-0.0712536,-0.828029,-25.7246,0.158719,
2,1,0,1,0,51.3768,0.163602,0.163326,0.694029,1,0.0167913,10,0.000113353,-3.15862,-0.0615498,-0.958574,-25.8664,0.162771,
2,1,0,0,0,52.1758,0.167597,0.167327,0.604309,1,0.0173285,10,0.000101117,-3.21874,-0.0774114,-0.762162,-17.9384,0.166844,
2,1,0,1,0,52.9748,0.171592,0.171326,0.531418,1,0.0178024,10,9.10456e-05,-3.27456,-0.0780316,-0.756104,-15.7763,0.170901,
2,1,0,1,0,53.7739,0.175588,0.175327,0.481083,1,0.0182272,10,8.43468e-05,-3.31778,-0.101974,-0.57858,-10.8614,0.174942,
2,1,0,1,0,54.5729,0.179582,0.179334,0.440486,1,0.0186151,10,7.89941e-05,-3.35607,-0.119503,-0.493712,-8.51784,0.178982,
2,1,0,1,0,55.3719,0.183577,0.183317,0.406662,1,0.0189752,10,7.45478e-05,-3.39077,-0.133251,-0.442774,-7.0959,0.182991,
2,1,0,0,0,56.171,0.187573,0.187272,0.382858,1,0.0193125,10,7.16987e-05,-3.41696,-0.156503,-0.37699,-5.66479,0.186966,
2,1,0,1,0,56.97,0.191568,0.191294,0.363711,1,0.0196322,10,6.95758e-05,-3.43924,-0.191685,-0.307796,-4.38356,0.191003,
2,1,0,0,0,57.769,0.195563,0.195263,0.347962,1,0.0199382,10,6.79444e-05,-3.45847,-0.185799,-0.317548,-4.30814,0.194985,
2,1,0,1,0,58.5681,0.199559,0.199248,0.334224,1,0.0202319,10,6.65933e-05,-3.47596,-0.305547,-0.193096,-2.51776,0.19898,
2,1,0,1,0,59.3671,0.203553,0.203291,0.323295,1,0.0205163,10,6.57228e-05,-3.4904,-0.319354,-0.184748,-2.33824,0.203032,
2,1,0,1,0,60.1661,0.207548,0.207289,0.31592,1,0.0207932,10,6.54868e-05,-3.50042,-0.322525,-0.182932,-2.24918,0.207036,
2,1,0,1,0,60.9652,0.211544,0.21127,0.306911,1,0.0210633,10,6.48412e-05,-3.51299,-0.462377,-0.127601,-1.5314,0.211025,
2,1,0,0,0,61.7642,0.215539,0.215291,0.302341,1,0.0213279,10,6.50914e-05,-3.5195,-0.472073,-0.124981,-1.47083,0.215049,
2,1,0,1,0,62.5633,0.219535,0.219319,0.297158,1,0.0215878,10,6.51725e-05,-3.52701,-0.528624,-0.11161,-1.28939,0.219081,
2,1,0,1,0,63.3623,0.223529,0.223243,0.292134,1,0.0218437,10,6.52169e-05,-3.53442,-1.45922,-0.0404325,-0.461537,0.22301,
2,1,0,1,0,64.1613,0.227524,0.227254,0.289294,1,0.0220966,10,6.57431e-05,-3.53866,-0.533269,-0.110638,-1.24817,0.227022,
2,1,0,1,0,64.9604,0.23152,0.23129,0.285401,1,0.0223465,10,6.60103e-05,-3.54454,-0.740348,-0.0796923,-0.885808,0.231061,
2,1,0,0,0,65.7594,0.235515,0.23521,0.280148,1,0.0225938,10,6.58935e-05,-3.55261,-1.21443,-0.0485826,-0.534653,0.234986,
2,1,0,1,0,66.5584,0.23951,0.23924,0.279975,1,0.0228389,10,6.69812e-05,-3.55288,-0.689991,-0.0855084,-0.931207,0.239016,
2,1,0,1,0,67.3575,0.243506,0.243234,0.278335,1,0.0230819,10,6.77006e-05,-3.55543,-2.28323,-0.0258406,-0.278958,0.243012,
2,1,0,1,0,68.1565,0.2475,0.247235,0.27521,1,0.0233237,10,6.80414e-05,-3.56034,-0.706203,-0.0835454,-0.894194,0.247015,
2,1,0,1,0,68.9555,0.251495,0.251233,0.273382,1,0.0235635,10,6.86826e-05,-3.56323,-22.1838,-0.0026596,-0.0282732,0.251014,
2,1,0,0,0,69.7546,0.255491,0.255182,0.271664,1,0.0238018,10,6.93238e-05,-3.56597,-0.65798,-0.0896684,-0.946524,0.254964,
2,1,0,1,0,70.5536,0.259486,0.259272,0.269789,1,0.0240392,10,6.99485e-05,-3.56898,-3.17605,-0.0185765,-0.194461,0.259056,
2,1,0,0,0,71.3526,0.263481,0.263245,0.267699,1,0.024275,10,7.04704e-05,-3.57235,-1.11882,-0.052734,-0.548946,0.263031,
2,1,0,1,0,72.1517,0.267476,0.267206,0.264206,1,0.0245098,10,7.05974e-05,-3.57806,-14.8616,-0.00396997,-0.0411432,0.266995,
2,1,0,1,0,72.9507,0.271471,0.271136,0.266021,1,0.0247436,10,7.21281e-05,-3.57508,-5.33888,-0.011051,-0.114395,0.270924,
2,1,0,1,0,73.7497,0.275466,0.27519,0.266618,1,0.0249762,10,7.33706e-05,-3.57411,-1.22137,-0.0483066,-0.497733,0.274977,
2,1,0,1,0,74.5488,0.279462,0.279176,0.263553,1,0.0252083,10,7.35777e-05,-3.57913,7.44319,0.0079267,0.0814156,0.278965,
2,1,0,0,0,75.3478,0.283457,0.283207,0.263091,1,0.0254396,10,7.45093e-05,-3.57989,-2.16113,-0.0273006,-0.279984,0.282997,
2,1,0,1,0,76.1468,0.287452,0.287191,0.261203,1,0.0256703,10,7.50151e-05,-3.58302,-1.12636,-0.052381,-0.533894,0.286982,
2,1,0,1,0,76.9459,0.291448,0.291133,0.260774,1,0.0259002,10,7.59199e-05,-3.58374,4.29298,0.0137434,0.139663,0.290924,
2,1,0,1,0,77.7449,0.295442,0.295189,0.260498,1,0.0261293,10,7.6896e-05,-3.5842,-1.32741,-0.0444474,-0.450601,0.29498,
2,1,0,1,0,78.5439,0.299437,0.299151,0.257772,1,0.026358,10,7.71129e-05,-3.58876,7.5322,0.00783304,0.0791826,0.298945,
2,1,0,0,0,79.343,0.303433,0.303188,0.258992,1,0.0265861,10,7.85235e-05,-3.58671,-1.74717,-0.033769,-0.340687,0.302981,
2,1,0,1,0,80.142,0.307428,0.307189,0.257725,1,0.0268135,10,7.91702e-05,-3.58884,-3.92159,-0.0150449,-0.151212,0.306983,
2,1,0,1,0,80.9411,0.311424,0.31114,0.258471,1,0.0270405,10,8.04208e-05,-3.58759,-8.53616,-0.00691177,-0.0693484,0.310933,
2,1,0,1,0,81.7401,0.315418,0.315142,0.256097,1,0.0272662,10,8.07071e-05,-3.5916,-2.84515,-0.020737,-0.207612,0.314938,
2,1,0,1,0,82.5391,0.319413,0.319116,0.255819,1,0.0274916,10,8.16362e-05,-3.59207,-11.6486,-0.00506499,-0.0506064,0.318912,
2,1,0,0,0,83.3382,0.323409,0.323164,0.254823,1,0.0277167,10,8.23496e-05,-3.59376,-1.25786,-0.0469052,-0.466758,0.322961,
2,1,0,1,0,84.1372,0.327404,0.327165,0.254446,1,0.027941,10,8.32458e-05,-3.5944,-4.92902,-0.0119699,-0.118568,0.326962,
2,1,0,0,0,84.9362,0.331399,0.331141,0.251409,1,0.0281648,10,8.32518e-05,-3.59962,-1.93799,-0.0304439,-0.300558,0.33094,
2,1,0,1,0,85.7353,0.335395,0.335119,0.252691,1,0.0283881,10,8.46815e-05,-3.59741,-19.7134,-0.00299289,-0.0294696,0.334917,
2,1,0,1,0,86.5343,0.339389,0.339121,0.251602,1,0.0286107,10,8.53237e-05,-3.59929,-1.20818,-0.0488338,-0.478915,0.33892,
2,1,0,1,0,87.3333,0.343384,0.343143,0.249675,1,0.0288331,10,8.56742e-05,-3.60263,-7.91961,-0.00744986,-0.072742,0.342943,
2,1,0,1,0,88.1324,0.34738,0.347062,0.250744,1,0.0290547,10,8.70238e-05,-3.60077,-3.78722,-0.0155787,-0.15184,0.346861,
2,1,0,0,0,88.9314,0.351375,0.351081,0.249462,1,0.0292756,10,8.75813e-05,-3.603,-1.70331,-0.0346385,-0.336294,0.350881,
2,1,0,1,0,89.7304,0.35537,0.355109,0.249747,1,0.029496,10,8.86875e-05,-3.6025,5.97216,0.00987917,0.0957302,0.354909,
2,1,0,1,0,90.5295,0.359365,0.359106,0.249345,1,0.029716,10,8.95413e-05,-3.6032,-3.23019,-0.0182652,-0.176875,0.358907,
2,1,0,1,0,91.3285,0.36336,0.363064,0.247156,1,0.0299356,10,8.97336e-05,-3.60703,-2.15778,-0.0273429,-0.263834,0.362866,
2,1,0,1,0,92.1275,0.367355,0.367086,0.247524,1,0.0301545,10,9.08626e-05,-3.60638,-31.0584,-0.00189965,-0.0182877,0.366888,
2,1,0,0,0,92.9266,0.371351,0.37107,0.246113,1,0.0303727,10,9.13251e-05,-3.60887,-72.8887,-0.000809453,-0.0077909,0.370873,
2,1,0,1,0,93.7256,0.375346,0.3751,0.246862,1,0.0305908,10,9.25979e-05,-3.60755,-10.3305,-0.00571124,-0.0549421,0.374902,
2,1,0,1,0,94.5247,0.379342,0.37906,0.245992,1,0.0308082,10,9.32458e-05,-3.60908,-6.45712,-0.0091372,-0.0877982,0.378863,
2,1,0,1,0,95.3237,0.383336,0.383068,0.244849,1,0.0310252,10,9.37939e-05,-3.6111,-1.15833,-0.0509354,-0.487141,0.382872,
2,1,0,1,0,96.1227,0.387331,0.387058,0.244994,1,0.0312418,10,9.48267e-05,-3.61085,-1.97993,-0.029799,-0.283203,0.386862,
2,1,0,0,0,96.9218,0.391327,0.391046,0.243389,1,0.0314576,10,9.51763e-05,-3.6137,4.78672,0.0123258,0.116981,0.390852,
2,1,0,1,0,97.7208,0.395322,0.395026,0.241525,1,0.0316731,10,9.54086e-05,-3.61704,1.26129,0.0467773,0.446008,0.394833,
2,1,0,0,0,98.5198,0.399317,0.399058,0.242907,1,0.0318884,10,9.69341e-05,-3.61456,-0.729574,-0.0808691,-0.769064,0.398863,
2,1,0,1,0,99.3189,0.403313,0.403031,0.24315,1,0.0321031,10,9.79972e-05,-3.61413,4.5355,0.0130085,0.123062,0.402837,
2,1,0,1,0,100.118,0.407307,0.40706,0.242809,1,0.0323177,10,9.88377e-05,-3.61474,-5.74656,-0.010267,-0.0971493,0.406865,
2,1,0,1,0,100.917,0.411302,0.410994,0.244109,1,0.0325319,10,0.000100327,-3.61242,9.9548,0.00592679,0.0560624,0.410799,
2,1,0,1,0,101.716,0.415298,0.415083,0.241849,1,0.0327459,10,0.000100387,-3.61646,-1.26536,-0.0466269,-0.439654,0.414889,
2,1,0,0,0,102.515,0.419293,0.419046,0.241145,1,0.0329595,10,0.000101051,-3.61772,-2.92902,-0.0201433,-0.188947,0.418853,
2,1,0,1,0,103.314,0.423288,0.423025,0.241036,1,0.0331729,10,0.000101964,-3.61792,1.17921,0.0500336,0.470431,0.422832,
2,1,0,1,0,104.113,0.427283,0.427037,0.241231,1,0.0333865,10,0.000103014,-3.61757,-0.958002,-0.0615865,-0.578589,0.426844,
2,1,0,1,0,104.912,0.431278,0.430976,0.240754,1,0.0335998,10,0.000103759,-3.61843,0.952062,0.0619708,0.582269,0.430783,
2,1,0,1,0,105.711,0.435273,0.43503,0.241426,1,0.0338131,10,0.000105028,-3.61722,-2.15942,-0.0273222,-0.257413,0.434837,
2,1,0,0,0,106.51,0.439269,0.439003,0.241306,1,0.0340265,10,0.000105934,-3.61743,-16.6088,-0.00355233,-0.0333872,0.43881,
2,1,0,1,0,107.309,0.443264,0.442997,0.239914,1,0.0342398,10,0.000106281,-3.61994,2.68325,0.0219883,0.206955,0.442805,
2,1,0,0,0,108.108,0.447259,0.447023,0.240718,1,0.034453,10,0.000107607,-3.61849,-2.49866,-0.0236126,-0.222213,0.44683,
2,1,0,1,0,108.907,0.451254,0.451009,0.241338,1,0.0346666,10,0.000108846,-3.61737,4.49988,0.0131115,0.123288,0.450816,
2,1,0,1,0,109.706,0.455249,0.454999,0.241513,1,0.03488,10,0.000109888,-3.61706,4.8372,0.0121971,0.114917,0.454806,
2,1,0,1,0,110.505,0.459244,0.458975,0.240495,1,0.0350939,10,0.000110381,-3.61889,3.42647,0.0172189,0.162603,0.458782,
2,1,0,1,0,111.304,0.46324,0.462998,0.242346,1,0.0353079,10,0.000112206,-3.61556,-2.67622,-0.0220461,-0.20811,0.462804,
2,1,0,0,0,112.103,0.467235,0.466928,0.24237,1,0.035522,10,0.000113169,-3.61552,1.10194,0.0535421,0.506679,0.466734,
2,1,0,1,0,112.902,0.471231,0.470929,0.242959,1,0.0357368,10,0.000114417,-3.61447,-5.08194,-0.0116097,-0.110225,0.470735,
2,1,0,1,0,113.701,0.475225,0.474924,0.243486,1,0.0359516,10,0.000115637,-3.61353,3.59764,0.0163996,0.155758,0.474729,
2,1,0,1,0,114.5,0.47922,0.478937,0.244107,1,0.036167,10,0.000116912,-3.61242,2.26997,0.0259916,0.247676,0.478742,
2,1,0,1,0,115.3,0.483216,0.482967,0.245612,1,0.0363831,10,0.000118622,-3.60975,4.04632,0.0145811,0.139383,0.48277,
2,1,0,0,0,116.099,0.487211,0.486914,0.245942,1,0.0365997,10,0.000119753,-3.60917,1.7809,0.0331294,0.317861,0.486718,
2,1,0,1,0,116.898,0.491206,0.49097,0.246383,1,0.0368171,10,0.000120967,-3.60839,2.97605,0.0198249,0.190999,0.490773,
2,1,0,1,0,117.697,0.495201,0.494923,0.248411,1,0.0370355,10,0.000122945,-3.60483,1.44842,0.0407341,0.394303,0.494725,
2,1,0,1,0,118.496,0.499196,0.498929,0.248956,1,0.0372548,10,0.000124211,-3.60388,1.50078,0.0393129,0.382923,0.49873,
2,1,0,1,0,119.295,0.503191,0.502948,0.251117,1,0.0374757,10,0.000126299,-3.60012,1.48918,0.0396192,0.388285,0.502747,
2,1,0,0,0,120.094,0.507187,0.506927,0.254655,1,0.0376976,10,0.000129092,-3.59405,1.27754,0.0461824,0.455632,0.506724,
2,1,0,1,0,120.893,0.511182,0.510902,0.257259,1,0.0379212,10,0.000131434,-3.58963,0.928827,0.063521,0.632074,0.510696,
2,1,0,0,0,121.692,0.515177,0.51491,0.258383,1,0.0381469,10,0.000133044,-3.58774,0.604746,0.0975615,0.98309,0.514704,
2,1,0,1,0,122.491,0.519172,0.518871,0.261404,1,0.0383742,10,0.000135635,-3.58269,6.39648,0.00922382,0.0937208,0.518662,
2,1,0,1,0,123.29,0.523167,0.522916,0.26233,1,0.0386035,10,0.000137177,-3.58115,0.653026,0.0903486,0.925218,0.522706,
2,1,0,1,0,124.089,0.527162,0.526932,0.267471,1,0.0388355,10,0.000140939,-3.57272,0.780737,0.0755696,0.784013,0.526718,
2,1,0,1,0,124.888,0.531158,0.530874,0.26939,1,0.03907,10,0.000143012,-3.56962,0.445421,0.132459,1.39685,0.530658,
2,1,0,0,0,125.687,0.535153,0.534863,0.274363,1,0.0393078,10,0.000146747,-3.56167,1.05382,0.0559866,0.599123,0.534643,
2,1,0,1,0,126.486,0.539148,0.53887,0.278491,1,0.0395489,10,0.00015007,-3.55519,0.606072,0.0973482,1.05424,0.538647,
2,1,0,1,0,127.285,0.543143,0.542875,0.284014,1,0.0397939,10,0.000154184,-3.54666,0.429653,0.13732,1.51465,0.542648,
2,1,0,1,0,128.084,0.547138,0.54688,0.289834,1,0.0400435,10,0.000158505,-3.53785,0.384675,0.153376,1.73046,0.546648,
2,1,0,1,0,128.883,0.551133,0.550863,0.297001,1,0.0402984,10,0.000163607,-3.52724,0.317741,0.185686,2.15116,0.550625,
2,1,0,0,0,129.682,0.555129,0.554869,0.304392,1,0.0405594,10,0.000168898,-3.51657,0.36366,0.16224,1.93092,0.554625,
2,1,0,1,0,130.481,0.559124,0.558815,0.314814,1,0.0408272,10,0.000175923,-3.50195,0.297996,0.197989,2.42324,0.558564,
2,1,0,1,0,131.28,0.56312,0.562847,0.324968,1,0.0411028,10,0.000182907,-3.48816,0.228779,0.257891,3.27135,0.562587,
2,1,0,1,0,132.079,0.567114,0.566883,0.337506,1,0.0413876,10,0.000191326,-3.47172,0.260414,0.226562,2.98426,0.566613,
2,1,0,1,0,132.878,0.571109,0.570838,0.352126,1,0.0416827,10,0.000201007,-3.4533,0.21277,0.277294,3.79848,0.570556,
2,1,0,0,0,133.677,0.575105,0.574872,0.36721,1,0.0419902,10,0.000211099,-3.43509,0.190858,0.30913,4.43236,0.574578,
2,1,0,1,0,134.476,0.5791,0.578852,0.385797,1,0.0423123,10,0.000223319,-3.41364,0.172565,0.341899,5.15559,0.578543,
2,1,0,0,0,135.275,0.583095,0.582776,0.409225,1,0.0426505,10,0.000238487,-3.38804,0.156601,0.376753,6.00695,0.582449,
2,1,0,1,0,136.074,0.58709,0.586828,0.433835,1,0.0430083,10,0.000254587,-3.36268,0.140837,0.418924,7.10419,0.586481,
2,1,0,1,0,136.873,0.591085,0.590862,0.465573,1,0.0433886,10,0.000275089,-3.33201,0.12864,0.458644,8.32857,0.590489,
2,1,0,1,0,137.672,0.59508,0.594831,0.500256,1,0.0437948,10,0.000297568,-3.30081,0.119096,0.495399,9.68481,0.594431,
2,1,0,1,0,138.472,0.599076,0.598785,0.541847,1,0.0442317,10,0.00032445,-3.26612,0.112452,0.524666,11.0958,0.598352,
2,1,0,0,0,139.271,0.603071,0.602815,0.591013,1,0.0447039,10,0.000356271,-3.2284,0.102081,0.577971,13.3096,0.602342,
2,1,0,1,0,140.07,0.607066,0.606812,0.647541,1,0.0452183,10,0.000392936,-3.18873,0.0950086,0.620997,15.6934,0.606294,
2,1,0,1,0,140.869,0.611061,0.610827,0.714257,1,0.0457825,10,0.000436287,-3.14615,0.087726,0.672549,18.7732,0.610255,
2,1,0,1,0,141.668,0.615056,0.614791,0.795126,1,0.0464048,10,0.000488836,-3.09956,0.0831316,0.709718,22.0079,0.614155,
2,1,0,1,0,142.467,0.619051,0.618769,0.885838,1,0.0470964,10,0.000548129,-3.05265,0.0805391,0.732564,25.3809,0.618061,
2,1,0,0,0,143.266,0.623047,0.622765,0.997028,1,0.0478684,10,0.000620914,-3.00129,0.0755501,0.780939,30.3858,0.621968,
2,1,0,1,0,144.065,0.627042,0.626832,1.12432,1,0.0487351,10,0.000704761,-2.94911,0.0720296,0.819108,35.9972,0.625932,
2,1,0,1,0,144.864,0.631037,0.630846,1.27852,1,0.0497142,10,0.000806551,-2.89329,0.0689057,0.856242,42.7052,0.629823,
2,1,0,1,0,145.663,0.635032,0.63478,1.45561,1,0.0508246,10,0.000923992,-2.83695,0.0664671,0.887658,50.4609,0.633615,
2,1,0,1,0,146.462,0.639027,0.638802,1.66407,1,0.0520892,10,0.00106301,-2.77883,0.0646025,0.913278,59.4074,0.637471,
2,1,0,1,0,147.261,0.643022,0.642803,1.9132,1,0.0535361,10,0.00122981,-2.71824,0.0633413,0.931462,69.5212,0.641273,
2,1,0,1,0,148.06,0.647018,0.646753,2.19921,1,0.0551959,10,0.00142235,-2.65773,0.0603523,0.977593,83.9441,0.644993,
2,1,0,0,0,148.859,0.651013,0.650761,2.53127,1,0.0571045,10,0.00164725,-2.59666,0.0603224,0.978078,96.8094,0.648736,
2,1,0,1,0,149.658,0.655008,0.654759,2.92523,1,0.0593028,10,0.00191532,-2.53384,0.0580062,1.01713,116.148,0.652419,
2,1,0,1,0,150.457,0.659003,0.658766,3.37362,1,0.0618356,10,0.00222243,-2.4719,0.0582329,1.01317,133.517,0.656067,
2,1,0,1,0,151.256,0.662998,0.662722,3.89398,1,0.0647558,10,0.00258063,-2.40961,0.057148,1.03241,156.915,0.659607,
2,1,0,1,0,152.055,0.666994,0.666776,4.4841,1,0.0681194,10,0.00298989,-2.34832,0.0569078,1.03676,181.55,0.663189,
2,1,0,0,0,152.854,0.670989,0.670707,5.15655,1,0.0719876,10,0.00345853,-2.28764,0.0580574,1.01624,204.58,0.666582,
2,1,0,1,0,153.653,0.674984,0.67477,5.90835,1,0.0764244,10,0.00398678,-2.22853,0.0570754,1.03372,238.39,0.670043,
2,1,0,1,0,154.452,0.678979,0.678748,6.74585,1,0.0814967,10,0.00457874,-2.17096,0.0585616,1.00749,265.254,0.673352,
2,1,0,1,0,155.251,0.682974,0.682722,7.66611,1,0.0872722,10,0.00523382,-2.11543,0.0584342,1.00968,302.134,0.676589,
2,1,0,1,0,156.05,0.686969,0.686714,8.66735,1,0.0938148,10,0.00595199,-2.06211,0.0617098,0.956089,323.352,0.67978,
2,1,0,0,0,156.849,0.690965,0.690727,9.74313,1,0.101189,10,0.00672984,-2.0113,0.0629508,0.937241,356.294,0.682932,
2,1,0,1,0,157.648,0.69496,0.694758,10.8847,1,0.109449,10,0.00756226,-1.96318,0.0656314,0.89896,381.689,0.686051,
2,1,0,0,0,158.447,0.698955,0.698784,12.079,1,0.118641,10,0.0084406,-1.91797,0.0675611,0.873284,411.512,0.689121,
2,1,0,1,0,159.246,0.70295,0.702679,13.3187,1,0.128811,10,0.0093588,-1.87554,0.0726097,0.812563,422.295,0.692024,
2,1,0,1,0,160.045,0.706945,0.706732,14.5981,1,0.139986,10,0.010317,-1.8357,0.0774144,0.762133,434.01,0.695054,
2,1,0,1,0,160.844,0.71094,0.710666,15.9003,1,0.152194,10,0.0112998,-1.79859,0.0811435,0.727106,451.19,0.697946,
2,1,0,1,0,161.644,0.714936,0.714685,17.2481,1,0.165462,10,0.012327,-1.76326,0.0843863,0.699166,470.61,0.700887,
2,1,0,0,0,162.443,0.718931,0.718654,18.6361,1,0.179818,10,0.0133929,-1.72965,0.0876256,0.673319,489.681,0.703745,
2,1,0,1,0,163.242,0.722927,0.722677,20.0567,1,0.195303,10,0.0144945,-1.69774,0.0881802,0.669084,524.151,0.706632,
2,1,0,1,0,164.041,0.726921,0.726681,21.6033,1,0.21196,10,0.0156987,-1.66548,0.0906123,0.651125,548.328,0.709398,
2,1,0,1,0,164.84,0.730916,0.730656,23.1747,1,0.229867,10,0.0169327,-1.63499,0.0864187,0.682722,617.293,0.712117,
2,1,0,1,0,165.639,0.734911,0.734677,24.827,1,0.249066,10,0.0182398,-1.60508,0.0916167,0.643987,623.961,0.714815,
2,1,0,0,0,166.438,0.738907,0.738663,26.5397,1,0.269613,10,0.0196039,-1.5761,0.0891474,0.661825,685.289,0.717432,
2,1,0,1,0,167.237,0.742902,0.742648,28.3418,1,0.291545,10,0.021048,-1.54757,0.0924474,0.638201,705.161,0.719975,
2,1,0,1,0,168.036,0.746897,0.746691,30.1421,1,0.314936,10,0.0225068,-1.52083,0.0952769,0.619248,728.504,0.722577,
2,1,0,1,0,168.835,0.750892,0.750715,32.0081,1,0.339785,10,0.0240289,-1.49474,0.100526,0.58691,732.586,0.725109,
2,1,0,1,0,169.634,0.754887,0.754605,33.7743,1,0.3661,10,0.0254863,-1.47141,0.110751,0.532726,702.695,0.727586,
2,1,0,0,0,170.433,0.758883,0.75866,35.5912,1,0.39385,10,0.0270016,-1.44866,0.119798,0.492497,683.902,0.730187,
2,1,0,1,0,171.232,0.762878,0.76263,37.3888,1,0.423018,10,0.0285138,-1.42726,0.115344,0.511513,746.664,0.732719,
2,1,0,0,0,172.031,0.766873,0.766637,39.2977,1,0.453676,10,0.0301271,-1.40563,0.156444,0.377132,575.872,0.735199,
2,1,0,1,0,172.83,0.770868,0.770602,41.0145,1,0.485725,10,0.0316059,-1.38706,0.108195,0.545312,871.154,0.737791,
2,1,0,1,0,173.629,0.774863,0.774641,42.7883,1,0.51926,10,0.0331455,-1.36868,0.156169,0.377797,631.012,0.74041,
2,1,0,1,0,174.428,0.778858,0.778626,44.528,1,0.55416,10,0.0346706,-1.35137,0.145128,0.406539,706.61,0.743003,
2,1,0,1,0,175.227,0.782854,0.782655,46.3237,1,0.590494,10,0.0362555,-1.3342,0.162348,0.363417,656.597,0.745596,
2,1,0,0,0,176.026,0.786849,0.786595,47.9591,1,0.628192,10,0.0377244,-1.31913,0.192482,0.306523,573.558,0.748228,
2,1,0,1,0,176.825,0.790844,0.790593,49.5921,1,0.667174,10,0.0392072,-1.30459,0.351947,0.167639,322.215,0.750919,
2,1,0,1,0,177.624,0.794839,0.794596,50.7148,1,0.707218,10,0.0402978,-1.29486,0.173285,0.34048,672.859,0.754024,
2,1,0,1,0,178.423,0.798834,0.798604,52.246,1,0.748399,10,0.0417238,-1.28195,0.264302,0.223229,454.588,0.756807,
2,1,0,1,0,179.222,0.802829,0.802589,53.541,1,0.790659,10,0.0429714,-1.27131,0.264723,0.222875,465.457,0.759756,
2,1,0,0,0,180.021,0.806825,0.806593,54.7793,1,0.833974,10,0.0441846,-1.26138,0.298545,0.197625,422.844,0.76277,
2,1,0,1,0,180.82,0.81082,0.810606,56.2196,1,0.87833,10,0.0455719,-1.25011,0.315617,0.186935,409.133,0.76563,
2,1,0,1,0,181.619,0.814815,0.814564,57.2242,1,0.923659,10,0.0466128,-1.24242,0.352431,0.167409,374.175,0.768785,
2,1,0,1,0,182.418,0.81881,0.818539,58.5977,1,0.969906,10,0.0479645,-1.23212,0.226926,0.259997,595.163,0.771661,
2,1,0,1,0,183.217,0.822805,0.822591,59.9671,1,1.01741,10,0.0493284,-1.22209,0.451715,0.130613,305.661,0.774617,
2,1,0,0,0,184.017,0.826801,0.826557,61.4573,1,1.06587,10,0.050798,-1.21143,0.246782,0.239077,571.227,0.777391,
2,1,0,1,0,184.816,0.830796,0.830561,62.4819,1,1.11541,10,0.0518951,-1.20425,0.65264,0.0904021,220.042,0.780576,
2,1,0,0,0,185.615,0.834791,0.834625,63.2906,1,1.16561,10,0.0528239,-1.19866,0.580794,0.101585,250.418,0.783992,
2,1,0,1,0,186.414,0.838786,0.838553,63.77,1,1.21642,10,0.0534745,-1.19538,0.473741,0.124541,311.466,0.787537,
2,1,0,1,0,187.213,0.842781,0.84259,64.7985,1,1.26792,10,0.0545985,-1.18844,0.479515,0.123041,312.515,0.790752,
2,1,0,1,0,188.012,0.846776,0.846572,65.592,1,1.32029,10,0.0555284,-1.18315,1.36484,0.0432285,110.988,0.794099,
2,1,0,0,0,188.711,0.849723,0.849514,65.8669,1,1.36644,10,0.0559549,-1.18133,0.0256708,2.29833,5870.1,0.796821,
2,1,0,1,0,189.51,0.845728,0.845521,64.4666,1,1.41832,10,0.0545078,-1.19067,0.408752,0.144342,362.427,0.793947,
2,1,0,0,0,190.309,0.841732,0.841514,63.1357,1,1.46927,10,0.0531296,-1.19972,0.380697,0.154979,382.156,0.791006,
2,1,0,1,0,191.108,0.837737,0.837561,61.9698,1,1.51927,10,0.0519035,-1.20782,0.375688,0.157045,380.093,0.787985,
2,1,0,1,0,191.907,0.833742,0.833521,60.7022,1,1.56831,10,0.0505965,-1.2168,0.281867,0.209319,496.112,0.784959,
2,1,0,1,0,192.706,0.829747,0.829502,59.6135,1,1.61627,10,0.0494496,-1.22466,0.335419,0.175899,407.84,0.781811,
2,1,0,1,0,193.506,0.825752,0.825513,58.246,1,1.66328,10,0.0480829,-1.23473,0.580475,0.101641,231.669,0.778916,
2,1,0,0,0,194.305,0.821757,0.821526,57.5187,1,1.70957,10,0.0472531,-1.24019,0.377987,0.15609,349.984,0.775511,
2,1,0,1,0,195.104,0.817761,0.817488,56.3559,1,1.75506,10,0.0460703,-1.24906,0.317535,0.185806,408.196,0.772404,
2,1,0,1,0,195.903,0.813766,0.813522,54.9771,1,1.79955,10,0.0447251,-1.25982,0.268453,0.219778,471.781,0.76954,
2,1,0,1,0,196.702,0.809771,0.809524,53.4352,1,1.84287,10,0.0432571,-1.27217,0.195174,0.302295,631.027,0.766776,
2,1,0,1,0,197.501,0.805776,0.805502,52.0559,1,1.88494,10,0.0419312,-1.28353,0.20233,0.291603,590.001,0.763857,
2,1,0,0,0,198.3,0.801781,0.801543,50.2467,1,1.92575,10,0.0402749,-1.29889,0.184893,0.319104,625.226,0.761346,
2,1,0,1,0,199.099,0.797786,0.797558,48.748,1,1.96523,10,0.0388794,-1.31204,0.224054,0.263329,500.135,0.75856,
2,1,0,1,0,199.898,0.79379,0.79354,47.1441,1,2.00353,10,0.0374107,-1.32657,0.161939,0.364335,669.471,0.755825,
2,1,0,1,0,200.697,0.789795,0.789525,45.3383,1,2.04045,10,0.0357957,-1.34353,0.14709,0.401116,709.293,0.753254,
2,1,0,1,0,201.496,0.7858,0.785518,43.4277,1,2.07591,10,0.0341133,-1.36223,0.124365,0.474409,804.038,0.750775,
2,1,0,0,0,202.295,0.781805,0.78156,41.5795,1,2.10984,10,0.0324969,-1.38112,0.124677,0.473225,766.266,0.748296,
2,1,0,1,0,203.094,0.77781,0.777571,39.5971,1,2.14222,10,0.0307895,-1.40234,0.113783,0.518529,800.646,0.745893,
2,1,0,0,0,203.893,0.773814,0.773583,37.555,1,2.17303,10,0.0290519,-1.42533,0.102936,0.573171,841.054,0.743539,
2,1,0,1,0,204.692,0.769819,0.769622,35.6652,1,2.20226,10,0.0274487,-1.44776,0.0121381,4.86072,6533.53,0.741089,
2,1,0,1,0,205.491,0.765824,0.765555,31.7061,1,2.22854,10,0.0242727,-1.49886,0.138598,0.425691,525.221,0.74019,
2,1,0,1,0,206.29,0.761829,0.761573,29.9798,1,2.25319,10,0.0228318,-1.52317,0.0996823,0.59188,692.535,0.737589,
2,1,0,1,0,207.089,0.757834,0.757665,28.3736,1,2.27646,10,0.0214977,-1.54708,0.105401,0.559768,617.354,0.734966,
2,1,0,0,0,207.888,0.753839,0.75362,26.5207,1,2.29836,10,0.0199866,-1.57641,0.08613,0.685011,709.386,0.732404,
2,1,0,1,0,208.687,0.749843,0.749603,24.8152,1,2.31883,10,0.0186015,-1.60528,0.0912432,0.646623,626.065,0.72975,
2,1,0,1,0,209.486,0.745848,0.745591,23.1044,1,2.33797,10,0.0172264,-1.63631,0.0803688,0.734115,662.119,0.727108,
2,1,0,1,0,210.285,0.741853,0.741553,21.429,1,2.35573,10,0.0158907,-1.669,0.0801035,0.736547,615.897,0.72441,
2,1,0,1,0,211.084,0.737858,0.737572,19.7813,1,2.37217,10,0.0145901,-1.70375,0.0747437,0.789365,609.333,0.721747,
2,1,0,0,0,211.883,0.733863,0.733619,18.1904,1,2.38731,10,0.0133448,-1.74016,0.0740086,0.797204,565.837,0.719067,
2,1,0,1,0,212.682,0.729868,0.72962,16.6623,1,2.40121,10,0.0121572,-1.77826,0.0709706,0.83133,540.645,0.71629,
2,1,0,1,0,213.481,0.725872,0.72561,15.197,1,2.41392,10,0.0110271,-1.81824,0.0681536,0.865692,512.831,0.713453,
2,1,0,1,0,214.28,0.721877,0.721632,13.7669,1,2.42546,10,0.00993464,-1.86116,0.0698996,0.844068,453.83,0.710619,
2,1,0,1,0,215.079,0.717882,0.717638,12.4628,1,2.43592,10,0.0089438,-1.90438,0.0660412,0.893381,434.573,0.707668,
2,1,0,0,0,215.879,0.713887,0.713645,11.2148,1,2.44535,10,0.00800342,-1.95021,0.0638426,0.924148,404.355,0.704673,
2,1,0,1,0,216.678,0.709892,0.70961,10.0241,1,2.45381,10,0.00711324,-1.99895,0.0621018,0.950053,371.793,0.701591,
2,1,0,0,0,217.477,0.705897,0.705633,8.92481,1,2.46136,10,0.00629764,-2.0494,0.0617785,0.955025,332.595,0.698493,
2,1,0,1,0,218.276,0.701901,0.701628,7.91015,1,2.46805,10,0.00554998,-2.10182,0.0593539,0.994037,306.76,0.6953,
2,1,0,1,0,219.075,0.697906,0.697631,6.9742,1,2.47398,10,0.00486542,-2.15651,0.059026,0.99956,272.071,0.692051,
2,1,0,1,0,219.874,0.693911,0.693661,6.11748,1,2.47918,10,0.00424346,-2.21343,0.0569794,1.03546,247.206,0.688767,
2,1,0,1,0,220.673,0.689916,0.689619,5.33838,1,2.48373,10,0.00368145,-2.27259,0.0571139,1.03302,215.224,0.685348,
2,1,0,0,0,221.472,0.685921,0.685646,4.63469,1,2.48769,10,0.00317776,-2.33398,0.0551908,1.06902,193.4,0.681938,
2,1,0,1,0,222.271,0.681926,0.681705,4.00577,1,2.49112,10,0.00273076,-2.39731,0.0539472,1.09366,170.988,0.6785,
2,1,0,1,0,223.07,0.67793,0.677649,3.4479,1,2.49407,10,0.00233647,-2.46245,0.0550582,1.07159,144.179,0.674891,
2,1,0,1,0,223.869,0.673935,0.673663,2.95243,1,2.4966,10,0.00198894,-2.52982,0.0530011,1.11318,128.34,0.671301,
2,1,0,1,0,224.668,0.66994,0.669657,2.52139,1,2.49876,10,0.00168847,-2.59836,0.0521794,1.13071,111.265,0.66764,
2,1,0,0,0,225.467,0.665945,0.665674,2.14356,1,2.5006,10,0.00142691,-2.66887,0.053153,1.11,92.9463,0.663959,
2,1,0,1,0,226.266,0.66195,0.661662,1.81668,1,2.50216,10,0.00120203,-2.74072,0.0511751,1.1529,81.8418,0.660209,
2,1,0,0,0,227.065,0.657955,0.657697,1.53557,1,2.50348,10,0.00100994,-2.81373,0.0513738,1.14845,68.8856,0.656469,
2,1,0,1,0,227.864,0.653959,0.653721,1.29384,1,2.50459,10,0.000845808,-2.88812,0.0503948,1.17076,59.1267,0.652686,
2,1,0,1,0,228.663,0.649964,0.649718,1.08596,1,2.50552,10,0.000705568,-2.96419,0.0509592,1.15779,49.0887,0.648849,
2,1,0,1,0,229.462,0.645969,0.645736,0.909838,1,2.50629,10,0.000587515,-3.04104,0.0492042,1.19909,42.5498,0.645008,
2,1,0,1,0,230.261,0.641974,0.641742,0.757685,1,2.50694,10,0.000486239,-3.12051,0.0482287,1.22334,36.1914,0.641136,
2,1,0,0,0,231.06,0.637979,0.637714,0.628686,1,2.50747,10,0.000400921,-3.20157,0.0474136,1.24437,30.5482,0.637211,
2,1,0,1,0,231.859,0.633983,0.63371,0.520121,1,2.50791,10,0.000329606,-3.2839,0.0476005,1.23948,25.1766,0.633294,
2,1,0,1,0,232.658,0.629988,0.629783,0.427231,1,2.50827,10,0.000269063,-3.36934,0.0436642,1.35122,22.5314,0.629441,
2,1,0,1,0,233.457,0.625993,0.62573,0.348491,1,2.50856,10,0.000218061,-3.45781,0.0450301,1.31023,17.7973,0.625452,
2,1,0,1,0,234.256,0.621998,0.621703,0.282511,1,2.50879,10,0.000175638,-3.54897,0.0425045,1.38809,15.3126,0.621477,
2,1,0,0,0,235.055,0.618003,0.61774,0.227936,1,2.50897,10,0.000140805,-3.64219,0.0392189,1.50438,13.2673,0.617558,
2,1,0,1,0,235.854,0.614008,0.613723,0.18086,1,2.50912,10,0.000110998,-3.74266,0.0395482,1.49185,10.437,0.613579,
2,1,0,1,0,236.653,0.610012,0.609745,0.139109,1,2.50923,10,8.48211e-05,-3.85664,0.032969,1.78956,9.73352,0.609634,
2,1,0,1,0,237.452,0.606017,0.605761,0.106484,1,2.5093,10,6.45039e-05,-3.97271,0.0321461,1.83537,7.52816,0.605675,
2,1,0,1,0,238.251,0.602022,0.601746,0.0769553,1,2.50936,10,4.63075e-05,-4.11376,0.028346,2.08142,6.30507,0.601684,
2,1,0,0,0,239.051,0.598027,0.597778,0.0528266,1,2.50939,10,3.15786e-05,-4.27715,0.0191291,3.0843,6.30409,0.597736,
2,1,0,1,0,239.85,0.594032,0.593749,0.031365,1,2.5094,10,1.86229e-05,-4.50355,0.0147765,3.99284,4.74289,0.593724,
2,1,0,0,0,240.649,0.590037,0.589769,0.0133426,1,2.5094,10,7.86905e-06,-4.87476,0.00645734,9.13689,4.14603,0.589758,
2,1,0,1,0,241.448,0.586041,0.585732,-0.00167379,1,2.50939,10,-9.80393e-07,-5.7763,-0.023638,-2.49598,3.28556,0.585734,
2,1,0,1,0,242.247,0.582046,0.581786,-0.0133225,1,2.50936,10,-7.75085e-06,-4.87541,-0.00966102,-6.10702,3.03811,0.581796,
2,0,0,1,0,243.046,0.578052,0.57782,-0.0246049,1,2.50933,10,-1.42172e-05,-4.60898,-0.0233417,-2.52766,2.3958,0.57784,
2,0,0,1,0,243.845,0.574056,0.573801,-0.0333822,1,2.50929,10,-1.91547e-05,-4.47649,-0.0364365,-1.61926,2.10993,0.573828,
2,0,0,0,0,244.644,0.570061,0.569816,-0.0408408,1,2.50924,10,-2.32718e-05,-4.38891,-0.0598497,-0.985802,1.57134,0.569849,
2,0,0,1,0,245.443,0.566065,0.565788,-0.0470462,1,2.50918,10,-2.66182e-05,-4.32748,-0.0595782,-0.990296,1.84022,0.565826,
2,0,0,1,0,246.242,0.56207,0.56177,-0.0523999,1,2.50912,10,-2.94367e-05,-4.28067,-0.101248,-0.582729,1.22285,0.561811,
2,0,0,1,0,247.041,0.558075,0.557826,-0.056099,1,2.50906,10,-3.12935e-05,-4.25104,-0.110233,-0.535229,1.22595,0.557871,
2,0,0,1,0,247.84,0.55408,0.553835,-0.0629933,1,2.50899,10,-3.48879e-05,-4.20071,-0.112867,-0.522741,1.29968,0.553885,
2,0,0,0,0,248.639,0.550085,0.54984,-0.0656461,1,2.50892,10,-3.60948e-05,-4.18279,-0.183164,-0.322115,0.854764,0.549893,
2,0,0,1,0,249.438,0.54609,0.545849,-0.0698863,1,2.50885,10,-3.81473e-05,-4.15561,-0.206615,-0.285555,0.79473,0.545905,
2,0,0,1,0,250.237,0.542094,0.541821,-0.074375,1,2.50877,10,-4.02979e-05,-4.12857,-0.712554,-0.0828007,0.237224,0.54188,
2,0,0,1,0,251.036,0.538099,0.537831,-0.075539,1,2.50869,10,-4.06272e-05,-4.12183,-0.409832,-0.143961,0.419781,0.537891,
2,0,0,1,0,251.835,0.534104,0.533831,-0.0777881,1,2.50861,10,-4.15257e-05,-4.10909,-0.209385,-0.281777,0.849451,0.533894,
2,0,0,0,0,252.634,0.530109,0.529828,-0.0802851,1,2.50853,10,-4.25373e-05,-4.09536,-0.535892,-0.110097,0.342183,0.529892,
2,0,0,1,0,253.433,0.526114,0.52584,-0.0819017,1,2.50844,10,-4.30672e-05,-4.08671,-0.221167,-0.266766,0.853913,0.525905,
2,0,0,0,0,254.232,0.522119,0.521851,-0.0827865,1,2.50835,10,-4.32022e-05,-4.08204,-0.605064,-0.0975104,0.321066,0.521917,
2,0,0,1,0,255.031,0.518123,0.517859,-0.0856743,1,2.50827,10,-4.43672e-05,-4.06715,-0.411713,-0.143304,0.480786,0.517927,
2,0,0,1,0,255.83,0.514128,0.51385,-0.086966,1,2.50818,10,-4.46875e-05,-4.06065,-0.317788,-0.185658,0.639078,0.513919,
2,0,0,1,0,256.629,0.510133,0.509856,-0.0889272,1,2.50809,10,-4.534e-05,-4.05097,-0.493679,-0.119511,0.421316,0.509927,
2,0,0,1,0,257.428,0.506138,0.505855,-0.0909401,1,2.508,10,-4.60026e-05,-4.04124,-1.61381,-0.0365594,0.130479,0.505928,
2,0,0,0,0,258.227,0.502143,0.501853,-0.0914201,1,2.5079,10,-4.58795e-05,-4.03896,-0.378398,-0.155921,0.564828,0.501927,
2,0,0,1,0,259.026,0.498148,0.497884,-0.0942176,1,2.50781,10,-4.69095e-05,-4.02587,-25.7996,-0.00228686,0.00838613,0.49796,
2,0,0,1,0,259.825,0.494152,0.493887,-0.0955058,1,2.50771,10,-4.71691e-05,-4.01997,-0.460389,-0.128152,0.47473,0.493964,
2,0,0,1,0,260.624,0.490157,0.489843,-0.0970175,1,2.50762,10,-4.75234e-05,-4.01315,-0.722599,-0.0816497,0.307427,0.489921,
2,0,0,1,0,261.423,0.486162,0.485902,-0.0982559,1,2.50752,10,-4.77427e-05,-4.00764,-0.53162,-0.110981,0.424202,0.485981,
2,0,0,0,0,262.223,0.482167,0.481907,-0.0997562,1,2.50742,10,-4.80732e-05,-4.00106,-0.417057,-0.141468,0.55145,0.481987,
2,0,0,1,0,263.022,0.478172,0.477896,-0.100342,1,2.50732,10,-4.79531e-05,-3.99852,-0.895286,-0.0659007,0.26105,0.477976,
2,0,0,0,0,263.821,0.474177,0.473912,-0.102218,1,2.50722,10,-4.84424e-05,-3.99047,-2.20562,-0.0267499,0.106731,0.473994,
2,0,0,1,0,264.62,0.470181,0.469894,-0.103618,1,2.50712,10,-4.86892e-05,-3.98457,-0.6192,-0.0952842,0.383833,0.469977,
2,0,0,1,0,265.419,0.466186,0.465953,-0.105391,1,2.50702,10,-4.91075e-05,-3.97719,-0.506043,-0.116591,0.477504,0.466038,
2,0,0,1,0,266.218,0.462191,0.461937,-0.106406,1,2.50691,10,-4.9153e-05,-3.97303,-0.358814,-0.164431,0.688291,0.462022,
2,0,0,1,0,267.017,0.458196,0.45794,-0.108935,1,2.50681,10,-4.98855e-05,-3.96283,-0.507971,-0.116148,0.496864,0.458027,
2,0,0,0,0,267.816,0.454201,0.453939,-0.110516,1,2.5067,10,-5.01674e-05,-3.95658,-0.602721,-0.0978894,0.425827,0.454027,
2,0,0,1,0,268.615,0.450205,0.449967,-0.113615,1,2.50659,10,-5.11228e-05,-3.94457,-0.616287,-0.0957346,0.422813,0.450058,
2,0,0,1,0,269.414,0.44621,0.445945,-0.113565,1,2.50648,10,-5.06438e-05,-3.94476,-0.50234,-0.11745,0.527422,0.446036,
2,0,0,1,0,270.213,0.442215,0.44197,-0.11679,1,2.50637,10,-5.16176e-05,-3.93259,-3.66996,-0.0160765,0.0729509,0.442064,
2,0,0,1,0,271.012,0.43822,0.437974,-0.118004,1,2.50625,10,-5.16826e-05,-3.9281,-0.33117,-0.178156,0.820848,0.438068,
2,0,0,0,0,271.811,0.434225,0.433931,-0.121081,1,2.50614,10,-5.25408e-05,-3.91692,-0.550262,-0.107222,0.505176,0.434028,
2,0,0,1,0,272.61,0.43023,0.429974,-0.123328,1,2.50602,10,-5.30277e-05,-3.90894,-0.316524,-0.186399,0.89843,0.430073,
2,0,0,1,0,273.409,0.426234,0.425967,-0.12472,1,2.50591,10,-5.31265e-05,-3.90406,-0.379558,-0.155444,0.76945,0.426067,
2,0,0,1,0,274.208,0.422239,0.421955,-0.126411,1,2.50579,10,-5.33396e-05,-3.89822,2.71049,0.0217673,-0.108893,0.422056,
2,0,0,1,0,275.007,0.418244,0.418005,-0.128408,1,2.50567,10,-5.36754e-05,-3.89141,-0.741628,-0.0795547,0.399767,0.418108,
2,0,0,0,0,275.806,0.414249,0.413963,-0.129134,1,2.50554,10,-5.34568e-05,-3.88896,-0.761299,-0.0774991,0.394238,0.414066,
2,0,0,1,0,276.605,0.410254,0.409917,-0.132957,1,2.50542,10,-5.45012e-05,-3.87629,-0.979438,-0.0602386,0.309756,0.410024,
2,0,0,0,0,277.404,0.406259,0.406021,-0.134251,1,2.50529,10,-5.45086e-05,-3.87208,-0.264209,-0.223308,1.17372,0.406129,
2,0,0,1,0,278.203,0.402263,0.401973,-0.137398,1,2.50516,10,-5.52302e-05,-3.86202,-0.534681,-0.110346,0.595171,0.402082,
2,0,0,1,0,279.002,0.398268,0.397967,-0.138584,1,2.50503,10,-5.51518e-05,-3.85829,-0.563079,-0.104781,0.574803,0.398077,
2,0,0,1,0,279.801,0.394273,0.393988,-0.142895,1,2.5049,10,-5.62991e-05,-3.84498,-0.670361,-0.0880123,0.490072,0.394102,
2,0,0,1,0,280.6,0.390278,0.389984,-0.144635,1,2.50477,10,-5.64052e-05,-3.83973,-0.449695,-0.1312,0.743088,0.390099,
2,0,0,0,0,281.399,0.386283,0.385986,-0.148288,1,2.50463,10,-5.72369e-05,-3.8289,-0.532288,-0.110842,0.639793,0.386105,
2,0,0,1,0,282.198,0.382287,0.381963,-0.148964,1,2.5045,10,-5.68989e-05,-3.82692,-3.07686,-0.0191754,0.11181,0.382083,
2,0,0,1,0,282.997,0.378292,0.378031,-0.151978,1,2.50436,10,-5.74525e-05,-3.81822,-0.480245,-0.122854,0.724293,0.378152,
2,0,0,1,0,283.796,0.374297,0.374035,-0.153735,1,2.50421,10,-5.75022e-05,-3.81323,-0.414144,-0.142462,0.857446,0.374158,
2,0,0,1,0,284.595,0.370302,0.370018,-0.15559,1,2.50407,10,-5.7571e-05,-3.80802,-0.978079,-0.0603224,0.368842,0.370142,
2,0,0,0,0,285.395,0.366307,0.366023,-0.159212,1,2.50392,10,-5.82752e-05,-3.79802,-0.402418,-0.146614,0.91106,0.36615,
2,0,0,1,0,286.194,0.362312,0.362038,-0.161463,1,2.50378,10,-5.84557e-05,-3.79193,-0.397516,-0.148422,0.943749,0.362167,
2,0,0,1,0,286.993,0.358316,0.357995,-0.164025,1,2.50363,10,-5.87202e-05,-3.78509,-1.8489,-0.0319108,0.205764,0.358126,
2,0,0,1,0,287.792,0.354321,0.354057,-0.166123,1,2.50348,10,-5.88171e-05,-3.77957,-0.383527,-0.153835,1.00655,0.35419,
2,0,0,1,0,288.591,0.350327,0.350026,-0.168952,1,2.50332,10,-5.91375e-05,-3.77224,-0.929425,-0.0634801,0.422468,0.350161,
2,0,0,0,0,289.39,0.346331,0.346035,-0.172056,1,2.50317,10,-5.95375e-05,-3.76433,-0.684266,-0.0862238,0.58055,0.346173,
2,0,0,1,0,290.189,0.342336,0.342085,-0.174518,1,2.50301,10,-5.97e-05,-3.75816,-0.584681,-0.10091,0.689461,0.342225,
2,0,0,0,0,290.988,0.338341,0.338049,-0.176608,1,2.50285,10,-5.97022e-05,-3.75299,-1.01285,-0.0582514,0.402978,0.338191,
2,0,0,1,0,291.787,0.334345,0.334071,-0.178264,1,2.50268,10,-5.95529e-05,-3.74894,-0.806988,-0.0731114,0.510966,0.334214,
2,0,0,1,0,292.586,0.33035,0.330047,-0.183243,1,2.50252,10,-6.04787e-05,-3.73697,-0.46836,-0.125971,0.894222,0.330194,
2,0,0,1,0,293.385,0.326355,0.326083,-0.184246,1,2.50235,10,-6.00796e-05,-3.7346,-0.462385,-0.127599,0.923829,0.326231,
2,0,0,1,0,294.184,0.32236,0.3221,-0.187564,1,2.50219,10,-6.04143e-05,-3.72685,-0.761883,-0.0774397,0.569665,0.32225,
2,0,0,0,0,294.983,0.318365,0.318109,-0.190238,1,2.50202,10,-6.05164e-05,-3.7207,-0.74226,-0.079487,0.591951,0.318262,
2,0,0,1,0,295.782,0.31437,0.314113,-0.19257,1,2.50184,10,-6.04887e-05,-3.71541,-6.44746,-0.0091509,0.0686196,0.314267,
2,0,0,1,0,296.581,0.310374,0.310106,-0.194556,1,2.50167,10,-6.03331e-05,-3.71095,-0.450436,-0.130984,0.993003,0.310262,
2,0,0,1,0,297.38,0.306379,0.306109,-0.197646,1,2.50149,10,-6.05013e-05,-3.70411,-0.484624,-0.121744,0.941349,0.306267,
2,0,0,1,0,298.179,0.302385,0.302117,-0.199561,1,2.50131,10,-6.02907e-05,-3.69992,-1.08581,-0.0543373,0.425983,0.302277,
2,0,0,0,0,298.978,0.298389,0.298112,-0.203117,1,2.50113,10,-6.05518e-05,-3.69225,-0.324081,-0.182053,1.45363,0.298275,
2,0,0,1,0,299.777,0.294394,0.294111,-0.206168,1,2.50095,10,-6.06363e-05,-3.68578,5.09038,0.0115905,-0.0937658,0.294276,
2,0,0,1,0,300.576,0.290398,0.290092,-0.208893,1,2.50076,10,-6.05983e-05,-3.68008,-0.898198,-0.065687,0.533651,0.290259,
2,0,0,1,0,301.375,0.286403,0.286108,-0.210049,1,2.50058,10,-6.00966e-05,-3.67768,-0.522803,-0.112853,0.929651,0.286276,
2,0,0,1,0,302.174,0.282408,0.282123,-0.213422,1,2.50039,10,-6.02113e-05,-3.67076,-1.88254,-0.0313407,0.261073,0.282293,
2,0,0,1,0,302.973,0.278413,0.278154,-0.216182,1,2.50019,10,-6.0132e-05,-3.66518,-0.399553,-0.147665,1.24748,0.278327,
2,0,0,1,0,303.772,0.274418,0.274147,-0.219678,1,2.5,10,-6.0224e-05,-3.65821,-0.796175,-0.0741043,0.636983,0.274323,
2,0,0,0,0,304.571,0.270423,0.270154,-0.222475,1,2.4998,10,-6.01024e-05,-3.65272,-0.690023,-0.0855045,0.744168,0.270332,
2,0,0,1,0,305.37,0.266427,0.266116,-0.225425,1,2.49961,10,-5.99892e-05,-3.647,-1.46988,-0.0401392,0.352779,0.266297,
2,0,0,1,0,306.169,0.262432,0.262164,-0.228518,1,2.4994,10,-5.99091e-05,-3.64108,-0.569418,-0.103615,0.920862,0.262346,
2,0,0,1,0,306.968,0.258437,0.258168,-0.230948,1,2.4992,10,-5.96235e-05,-3.63649,-0.74513,-0.0791809,0.713829,0.258353,
2,0,0,1,0,307.768,0.254442,0.25419,-0.234303,1,2.499,10,-5.95577e-05,-3.63022,-0.47318,-0.124688,1.14203,0.254378,
2,0,0,0,0,308.567,0.250447,0.250197,-0.236478,1,2.49879,10,-5.9166e-05,-3.62621,-1.79675,-0.032837,0.304427,0.250386,
2,0,0,1,0,309.366,0.246452,0.246212,-0.240643,1,2.49858,10,-5.9249e-05,-3.61863,-0.390543,-0.151072,1.42105,0.246404,
2,0,0,1,0,310.165,0.242456,0.242205,-0.244378,1,2.49836,10,-5.91895e-05,-3.61194,-0.47255,-0.124855,1.20001,0.242401,
2,0,0,1,0,310.964,0.238461,0.238199,-0.247861,1,2.49815,10,-5.90404e-05,-3.60579,-1.94033,-0.0304072,0.295773,0.238397,
2,0,0,1,0,311.763,0.234466,0.234165,-0.250995,1,2.49793,10,-5.87742e-05,-3.60033,-0.50939,-0.115825,1.13962,0.234366,
2,0,0,0,0,312.562,0.230471,0.230183,-0.254121,1,2.49771,10,-5.84942e-05,-3.59496,-0.707803,-0.0833566,0.833015,0.230386,
2,0,0,1,0,313.361,0.226476,0.226225,-0.26049,1,2.49748,10,-5.89293e-05,-3.58421,-0.353412,-0.166944,1.70095,0.226434,
2,0,0,0,0,314.16,0.222481,0.222204,-0.264433,1,2.49725,10,-5.8758e-05,-3.57768,-0.668366,-0.088275,0.917374,0.222416,
2,0,0,1,0,314.959,0.218485,0.218195,-0.271081,1,2.49702,10,-5.91486e-05,-3.5669,-0.54627,-0.108005,1.13974,0.218412,
2,0,0,1,0,315.758,0.21449,0.21417,-0.277455,1,2.49678,10,-5.94224e-05,-3.55681,-0.307832,-0.191663,2.07056,0.214392,
2,0,0,1,0,316.557,0.210496,0.210234,-0.282999,1,2.49654,10,-5.94959e-05,-3.54821,-0.395981,-0.148997,1.653,0.21046,
2,0,0,1,0,317.356,0.2065,0.206213,-0.290812,1,2.49629,10,-5.99692e-05,-3.53639,-0.329662,-0.178971,2.0368,0.206446,
2,0,0,0,0,318.155,0.202505,0.202222,-0.298984,1,2.49603,10,-6.04612e-05,-3.52435,-0.305056,-0.193407,2.26592,0.202461,
2,0,0,1,0,318.954,0.198509,0.198213,-0.309122,1,2.49577,10,-6.1272e-05,-3.50987,-0.269473,-0.218946,2.6486,0.19846,
2,0,0,1,0,319.753,0.194514,0.194254,-0.32273,1,2.4955,10,-6.26915e-05,-3.49116,-0.185579,-0.317923,4.01015,0.194512,
2,0,0,1,0,320.552,0.190519,0.190245,-0.336706,1,2.49521,10,-6.40566e-05,-3.47275,-0.196508,-0.300242,3.97343,0.190514,
2,0,0,1,0,321.351,0.186524,0.186251,-0.355572,1,2.49492,10,-6.62257e-05,-3.44907,-0.187511,-0.314648,4.36808,0.186536,
2,0,0,0,0,322.15,0.182529,0.182242,-0.377525,1,2.4946,10,-6.88009e-05,-3.42305,-0.144689,-0.407771,5.9883,0.182544,
2,0,0,1,0,322.949,0.178534,0.178232,-0.403001,1,2.49427,10,-7.18277e-05,-3.39469,-0.122576,-0.481334,7.57051,0.178555,
2,0,0,1,0,323.748,0.174538,0.174236,-0.434192,1,2.49392,10,-7.5652e-05,-3.36232,-0.117391,-0.502593,8.53135,0.174584,
2,0,0,1,0,324.547,0.170543,0.170251,-0.475611,1,2.49354,10,-8.09731e-05,-3.32275,-0.0896016,-0.658471,12.2305,0.170631,
2,0,0,1,0,325.346,0.166549,0.166253,-0.526905,1,2.49312,10,-8.75995e-05,-3.27827,-0.0847548,-0.696126,14.3477,0.166675,
2,0,0,0,0,326.145,0.162553,0.162245,-0.593798,1,2.49265,10,-9.63406e-05,-3.22636,-0.0720285,-0.81912,18.9868,0.16272,
2,0,0,1,0,326.944,0.158558,0.158278,-0.672269,1,2.49213,10,-0.000106405,-3.17246,-0.0673576,-0.875923,23.1333,0.158815,
2,0,0,0,0,327.743,0.154563,0.15428,-0.770924,1,2.49153,10,-0.000118938,-3.11299,-0.0747192,-0.789623,23.6787,0.154897,
2,0,0,1,0,328.542,0.150567,0.150296,-0.867702,1,2.49086,10,-0.000130412,-3.06163,-0.0807762,-0.730413,24.6,0.15099,
2,0,0,1,0,329.341,0.146572,0.146305,-0.95437,1,2.49011,10,-0.000139629,-3.02028,-0.109118,-0.5407,20.0677,0.147068,
2,0,0,1,0,330.14,0.142578,0.142269,-1.0254,1,2.4893,10,-0.000145882,-2.98911,-0.169255,-0.348586,13.8475,0.143089,
2,0,0,1,0,330.94,0.138582,0.138336,-1.05962,1,2.48845,10,-0.000146583,-2.97485,-0.428371,-0.137731,5.67865,0.139183,
2,0,0,0,0,331.739,0.134587,0.134283,-1.06787,1,2.48758,10,-0.000143396,-2.97148,0.947173,0.0622907,-2.58361,0.135137,
2,0,0,1,0,332.538,0.130591,0.130298,-1.04535,1,2.48671,10,-0.000136208,-2.98074,0.273046,0.216081,-8.77019,0.131135,
2,0,0,1,0,333.337,0.126596,0.12631,-0.988494,1,2.48587,10,-0.000124856,-3.00503,0.145375,0.405846,-15.6853,0.1271,
2,0,0,1,0,334.136,0.122602,0.122315,-0.926048,1,2.48509,10,-0.00011327,-3.03337,0.121272,0.48651,-17.5178,0.123056,
2,0,0,1,0,334.935,0.118607,0.118284,-0.853636,1,2.48436,10,-0.000100971,-3.06873,0.125843,0.468838,-15.6578,0.118967,
2,0,0,0,0,335.734,0.114611,0.114327,-0.791394,1,2.48368,10,-9.04776e-05,-3.10161,0.126778,0.46538,-14.4428,0.11496,
2,0,0,1,0,336.533,0.110616,0.110302,-0.741171,1,2.48305,10,-8.17523e-05,-3.13008,0.142421,0.414265,-11.9962,0.110895,
2,0,0,1,0,337.332,0.10662,0.10633,-0.698729,1,2.48246,10,-7.42958e-05,-3.15569,0.19047,0.30976,-8.47444,0.106889,
2,0,0,1,0,338.131,0.102625,0.102385,-0.667377,1,2.48189,10,-6.83291e-05,-3.17563,0.206243,0.28607,-7.46788,0.102919,
2,0,0,1,0,338.93,0.0986305,0.0983234,-0.643877,1,2.48135,10,-6.33082e-05,-3.1912,0.312222,0.188968,-4.75182,0.0988385,
2,0,0,0,0,339.729,0.0946351,0.0943658,-0.619758,1,2.48083,10,-5.84839e-05,-3.20778,0.298945,0.197361,-4.81577,0.0948616,
2,0,0,1,0,340.528,0.0906399,0.0903193,-0.607367,1,2.48031,10,-5.4857e-05,-3.21655,0.288736,0.204339,-4.83137,0.0908052,
2,0,0,0,0,341.327,0.0866447,0.0863449,-0.589782,1,2.47982,10,-5.09247e-05,-3.22931,0.502654,0.117377,-2.70558,0.0868167,
2,0,0,1,0,342.126,0.0826492,0.0823278,-0.576211,1,2.47933,10,-4.74382e-05,-3.23942,0.322963,0.182683,-4.11363,0.0827888,
2,0,0,1,0,342.925,0.0786544,0.0783717,-0.563314,1,2.47885,10,-4.41479e-05,-3.24925,0.412729,0.142951,-3.13809,0.0788224,
2,0,0,1,0,343.724,0.0746596,0.0743828,-0.547279,1,2.47839,10,-4.07082e-05,-3.26179,0.362981,0.162543,-3.48399,0.0748206,
2,0,0,1,0,344.523,0.0706641,0.070372,-0.534195,1,2.47794,10,-3.75924e-05,-3.2723,0.35601,0.165726,-3.46215,0.0707993,
2,0,0,0,0,345.322,0.0666689,0.0664008,-0.521878,1,2.4775,10,-3.46531e-05,-3.28243,0.385093,0.15321,-3.12175,0.0668183,
2,0,0,1,0,346.121,0.0626737,0.0623595,-0.510018,1,2.47707,10,-3.18045e-05,-3.29241,0.57029,0.103456,-2.06606,0.0627676,
2,0,0,1,0,346.92,0.0586783,0.0583755,-0.503325,1,2.47664,10,-2.93819e-05,-3.29815,0.399772,0.147584,-2.88991,0.0587782,
2,0,0,1,0,347.719,0.0546835,0.0543759,-0.493896,1,2.47622,10,-2.6856e-05,-3.30636,1.09967,0.0536526,-1.03411,0.054771,
2,0,0,1,0,348.518,0.0506886,0.0503573,-0.487838,1,2.47581,10,-2.45662e-05,-3.31172,0.694473,0.0849565,-1.61992,0.0507475,
2,0,0,0,0,349.317,0.046693,0.046358,-0.48124,1,2.47541,10,-2.23093e-05,-3.31764,0.745729,0.0791172,-1.48943,0.046743,
2,0,0,1,0,350.116,0.0426979,0.0423772,-0.478927,1,2.475,10,-2.02956e-05,-3.31973,6.95925,0.00847793,-0.158513,0.0427604,
2,0,0,1,0,350.915,0.0387022,0.0383748,-0.474227,1,2.4746,10,-1.81984e-05,-3.32401,2.76119,0.0213676,-0.398579,0.0387542,
2,0,0,1,0,351.714,0.0347074,0.0343859,-0.473364,1,2.4742,10,-1.62771e-05,-3.3248,0.944795,0.0624474,-1.15731,0.0347646,
2,0,0,1,0,352.513,0.0307126,0.0304998,-0.47116,1,2.47381,10,-1.43703e-05,-3.32683,-1.72458,-0.0342112,0.632665,0.0308767,
2,0,0,0,0,353.313,0.0267172,0.0264224,-0.47291,1,2.47341,10,-1.24954e-05,-3.32522,1.40163,0.0420939,-0.777983,0.0268007,
2,0,0,1,0,354.112,0.022722,0.0224522,-0.474495,1,2.47301,10,-1.06535e-05,-3.32377,-0.758914,-0.0777427,1.44089,0.0228318,
2,0,0,0,0,354.911,0.0187268,0.0184195,-0.479177,1,2.47261,10,-8.82619e-06,-3.3195,-1.97674,-0.0298471,0.557849,0.0188028,
2,0,0,1,0,355.71,0.0147313,0.0144447,-0.483239,1,2.47221,10,-6.98023e-06,-3.31584,-1.17295,-0.0503005,0.946029,0.0148313,
2,0,0,1,0,356.509,0.0107365,0.0104504,-0.486294,1,2.4718,10,-5.08199e-06,-3.3131,-0.83724,-0.0704697,1.33786,0.0108395,
2,0,0,1,0,357.308,0.00674162,0.00643934,-0.49064,1,2.47139,10,-3.1594e-06,-3.30924,-1.03193,-0.0571744,1.09625,0.00683186,
2,0,0,1,0,358.107,0.00274612,0.00246885,-0.494937,1,2.47098,10,-1.22192e-06,-3.30545,-0.796831,-0.0740433,1.43444,0.0028648,
2,0,0,0,0,358.601,0.000274105,-9.98546e-05,-0.498424,1,2.47072,10,4.977e-08,-3.3024, , , ,0.000298885,