File: Figure_codes/Fig_3-5/rawdata_trumpetplot_data/before 10th/20221101_1-115_002_TrumpetPlot_ParaChange_04_CV_C01_4.csv
mode,ox/red,error,control changes,counter inc.,time/s,control/V,Ewe/V,<I>/mA,cycle number,(Q-Qo)/C,I Range,P/W,log(|I|),Tafel slope mV/dec,alpha_eff,dI/d(E-IR),E-IR/V,
2,0,0,1,0,5285.31,2.44065e-05,-0.0002108,-0.398559,5,0.0000000E+000,11,8.4016e-08,-3.39951, , , ,-0.0002108,
2,0,0,1,0,5286.59,0.00129791,0.000916457,-0.16597,5,-0.000227243,11,-1.52104e-07,-3.77997, , , ,0.000916457,
2,0,0,1,0,5288.09,0.00279612,0.00249648,-0.13492,5,-0.000420845,11,-3.36825e-07,-3.86992,-0.0187255,-3.15078,17.7841,0.00249648,
2,0,0,1,0,5289.58,0.00429431,0.00405422,-0.116373,5,-0.000581076,11,-4.71801e-07,-3.93415,-0.0265575,-2.22159,10.2361,0.00405422,
2,0,0,1,0,5291.08,0.00579242,0.00553658,-0.103226,5,-0.000718222,11,-5.71517e-07,-3.98621,-0.0298573,-1.97607,8.10825,0.00553658,
2,0,0,1,0,5292.58,0.00729061,0.00698302,-0.0924677,5,-0.000837349,11,-6.45703e-07,-4.03401,-0.0338029,-1.74541,6.39372,0.00698302,
2,0,0,1,0,5294.08,0.00878882,0.00851739,-0.0836239,5,-0.000942387,11,-7.12257e-07,-4.07767,-0.0373488,-1.5797,5.23002,0.00851739,
2,0,0,1,0,5295.58,0.010287,0.00997864,-0.0767865,5,-0.00103566,11,-7.66225e-07,-4.11472,-0.0393267,-1.50025,4.5357,0.00997864,
2,0,0,1,0,5297.08,0.0117852,0.0114929,-0.0706287,5,-0.00111928,11,-8.11729e-07,-4.15102,-0.0425004,-1.38822,3.83154,0.0114929,
2,0,0,1,0,5298.57,0.0132834,0.0129648,-0.0651898,5,-0.00119444,11,-8.45171e-07,-4.18582,-0.0460565,-1.28104,3.26586,0.0129648,
2,0,0,1,0,5300.07,0.0147815,0.014463,-0.0604754,5,-0.00126187,11,-8.74658e-07,-4.21842,-0.0474451,-1.24354,2.94146,0.014463,
2,0,0,1,0,5301.57,0.0162797,0.0160102,-0.0565863,5,-0.00132239,11,-9.05959e-07,-4.24729,-0.0532653,-1.10766,2.45157,0.0160102,
2,0,0,1,0,5303.07,0.0177779,0.0174619,-0.0521389,5,-0.00137712,11,-9.10445e-07,-4.28284,-0.0515239,-1.1451,2.34306,0.0174619,
2,0,0,1,0,5304.57,0.0192761,0.0190239,-0.0489707,5,-0.00142686,11,-9.31613e-07,-4.31006,-0.0510764,-1.15513,2.22107,0.0190239,
2,0,0,1,0,5306.06,0.0207743,0.020448,-0.0458421,5,-0.00147117,11,-9.37382e-07,-4.33874,-0.0515505,-1.14451,2.05958,0.020448,
2,0,0,1,0,5307.56,0.0222725,0.0219973,-0.0429103,5,-0.00151062,11,-9.4391e-07,-4.36744,-0.0492355,-1.19832,2.0039,0.0219973,
2,0,0,1,0,5309.06,0.0237707,0.0234956,-0.0399297,5,-0.00154569,11,-9.38175e-07,-4.3987,-0.0502048,-1.17519,1.81975,0.0234956,
2,0,0,1,0,5310.56,0.0252689,0.0249601,-0.0374507,5,-0.00157724,11,-9.34773e-07,-4.42654,-0.048833,-1.2082,1.74853,0.0249601,
2,0,0,1,0,5312.06,0.0267671,0.0264595,-0.0352281,5,-0.00160449,11,-9.32118e-07,-4.45311,-0.0412735,-1.42949,1.96355,0.0264595,
2,0,0,1,0,5313.56,0.0282653,0.0279473,-0.0326504,5,-0.00162787,11,-9.12489e-07,-4.48611,-0.0486725,-1.21218,1.53702,0.0279473,
2,0,0,1,0,5315.05,0.0297635,0.0294732,-0.0301079,5,-0.0016478,11,-8.87376e-07,-4.52132,-0.0462449,-1.27582,1.48801,0.0294732,
2,0,0,1,0,5316.55,0.0312617,0.030962,-0.0281746,5,-0.00166456,11,-8.72341e-07,-4.55014,-0.0447138,-1.3195,1.44795,0.030962,
2,0,0,1,0,5318.05,0.0327599,0.0324444,-0.0259419,5,-0.00167819,11,-8.4167e-07,-4.586,-0.0401837,-1.46826,1.47145,0.0324444,
2,0,0,1,0,5319.55,0.0342581,0.0339492,-0.0240011,5,-0.00168848,11,-8.14819e-07,-4.61977,-0.0359976,-1.639,1.49811,0.0339492,
2,0,0,1,0,5321.05,0.0357563,0.0354783,-0.0218826,5,-0.00169558,11,-7.76359e-07,-4.6599,-0.0377819,-1.5616,1.30983,0.0354783,
2,0,0,1,0,5322.54,0.0372544,0.0369808,-0.0197686,5,-0.00169959,11,-7.31059e-07,-4.70402,-0.0357428,-1.65068,1.26579,0.0369808,
2,0,0,1,0,5324.04,0.0387526,0.0384294,-0.0172412,5,-0.00170086,11,-6.62567e-07,-4.76343,-0.028994,-2.0349,1.35838,0.0384294,
2,0,0,1,0,5325.54,0.0402508,0.0399351,-0.015009,5,-0.001699,11,-5.99385e-07,-4.82365,-0.0268813,-2.19483,1.32311,0.0399351,
2,0,0,1,0,5327.04,0.041749,0.04146,-0.0136213,5,-0.00169383,11,-5.64738e-07,-4.86578,-0.0268539,-2.19707,1.17587,0.04146,
2,0,0,1,0,5328.54,0.0432472,0.042934,-0.0116086,5,-0.00168602,11,-4.98403e-07,-4.93522,-0.0221116,-2.66828,1.21626,0.042934,
2,0,0,1,0,5330.04,0.0447454,0.044462,-0.00961127,5,-0.00167544,11,-4.27337e-07,-5.01722,-0.0160203,-3.68282,1.35877,0.044462,
2,0,0,1,0,5331.53,0.0462435,0.0459517,-0.00787639,5,-0.00166156,11,-3.61934e-07,-5.10367,-0.012324,-4.78742,1.34901,0.04595175,
2,0,0,1,0,5333.03,0.0477417,0.0474873,-0.00629316,5,-0.00164468,11,-2.98845e-07,-5.20113,-0.00936958,-6.29698,1.28382,0.0474873,
2,0,0,1,0,5334.53,0.0492399,0.048939,-0.00315088,5,-0.00162469,11,-1.54201e-07,-5.50157,-0.00344139,-17.1442,1.42901,0.048939,
2,0,0,1,0,5336.03,0.0507381,0.0505,-0.00134049,5,-0.00160223,11,-6.76947e-08,-5.87274,-0.00824167,-7.15874,1.37309,0.05049995,
2,0,0,1,0,5337.53,0.0522363,0.0518976,0.000631985,5,-0.00157619,11,3.27985e-08,-6.19929,0.0421624,1.39935,1.45595,0.05189757,
2,0,0,1,0,5339.02,0.0537345,0.0534235,0.002863,5,-0.00154668,11,1.52951e-07,-5.54318,0.00271378,21.7409,1.45877,0.0534235,
2,1,0,1,0,5340.52,0.0552327,0.0549622,0.00473217,5,-0.0015142,11,2.6009e-07,-5.32494,0.00549267,10.7416,1.49235,0.0549622,
2,1,0,1,0,5342.02,0.0567309,0.0564192,0.00616332,5,-0.00147864,11,3.4773e-07,-5.21019,0.0100143,5.8916,1.44027,0.0564192,
2,1,0,1,0,5343.52,0.0582291,0.0579101,0.00946085,5,-0.00143967,11,5.47878e-07,-5.02407,0.0155428,3.79597,1.30299,0.0579101,
2,1,0,1,0,5345.02,0.0597273,0.0594446,0.0113761,5,-0.00139728,11,6.76247e-07,-4.94401,0.0155415,3.79628,1.62037,0.0594446,
2,1,0,1,0,5346.52,0.0612255,0.0609535,0.0133125,5,-0.00135147,11,8.11445e-07,-4.87574,0.0291328,2.02521,1.01755,0.0609535,
2,1,0,1,0,5348.01,0.0627237,0.0624624,0.015349,5,-0.00130232,11,9.58737e-07,-4.81392,0.0240414,2.4541,1.48067,0.0624624,
2,1,0,1,0,5349.51,0.0642219,0.0639311,0.0174472,5,-0.00125048,11,1.11542e-06,-4.75828,0.025376,2.32503,1.63942,0.0639311,
2,1,0,1,0,5351.01,0.0657201,0.0653924,0.020365,5,-0.00119469,11,1.33172e-06,-4.69112,0.0300974,1.9603,1.50414,0.0653924,
2,1,0,1,0,5352.51,0.0672183,0.0669533,0.0227826,5,-0.00113527,11,1.52537e-06,-4.6424,0.0358389,1.64626,1.38964,0.0669533,
2,1,0,1,0,5354.01,0.0687164,0.0684367,0.024465,5,-0.00107283,11,1.67431e-06,-4.61145,0.0411081,1.43524,1.34637,0.0684367,
2,1,0,1,0,5355.51,0.0702146,0.0699213,0.0266235,5,-0.00100754,11,1.86155e-06,-4.57473,0.040215,1.46711,1.51148,0.06992127,
2,1,0,1,0,5357,0.0717128,0.0714419,0.0290118,5,-0.000938683,11,2.07266e-06,-4.53743,0.0453754,1.30026,1.45598,0.0714419,
2,1,0,1,0,5358.5,0.073211,0.0728788,0.031248,5,-0.000866248,11,2.27732e-06,-4.50518,0.0545518,1.08154,1.30378,0.0728788,
2,1,0,1,0,5360,0.0747092,0.0744228,0.0330967,5,-0.000790748,11,2.46315e-06,-4.48022,0.0542898,1.08676,1.40204,0.0744228,
2,1,0,1,0,5361.5,0.0762074,0.07592,0.0350934,5,-0.000712777,11,2.66429e-06,-4.45477,0.0578381,1.02009,1.40165,0.07592,
2,1,0,1,0,5363,0.0777055,0.0773982,0.0369471,5,-0.000631228,11,2.85963e-06,-4.43242,0.0560035,1.05351,1.51282,0.0773982,
2,1,0,1,0,5364.49,0.0792037,0.0788424,0.0394288,5,-0.000546652,11,3.10866e-06,-4.40419,0.0685486,0.860704,1.29597,0.0788424,
2,1,0,1,0,5365.99,0.0807019,0.0803758,0.04103,5,-0.000459105,11,3.29782e-06,-4.3869,0.0963725,0.612208,0.969789,0.08037582,
2,1,0,1,0,5367.49,0.0822001,0.0818922,0.0421292,5,-0.000369196,11,3.45005e-06,-4.37542,0.0878517,0.671586,1.10952,0.0818922,
2,1,0,1,0,5368.99,0.0836983,0.0834043,0.0447385,5,-0.00027663,11,3.73138e-06,-4.34932,0.0894871,0.659313,1.14392,0.08340431,
2,1,0,1,0,5370.49,0.0851965,0.0849207,0.0463065,5,-0.000181087,11,3.93238e-06,-4.33436,0.0761057,0.775238,1.40331,0.0849207,
2,1,0,1,0,5371.99,0.0866947,0.0863873,0.0484036,5,-8.26655e-05,11,4.18145e-06,-4.31512,0.0927881,0.635857,1.1848,0.0863873,
2,1,0,1,0,5373.48,0.0881929,0.0878846,0.0491496,5,1.81695e-05,11,4.31949e-06,-4.30848,0.111483,0.52923,1.03081,0.08788459,
2,1,0,1,0,5374.98,0.0896911,0.0894074,0.0513457,5,0.000121347,11,4.59068e-06,-4.2895,0.0802847,0.734885,1.48414,0.0894074,
2,1,0,1,0,5376.48,0.0911893,0.0908792,0.0537759,5,0.000227405,11,4.88712e-06,-4.26941,0.08695,0.678551,1.41489,0.0908792,
2,1,0,1,0,5377.98,0.0926875,0.0923394,0.0552183,5,0.000336795,11,5.09882e-06,-4.25792,0.100819,0.585207,1.25275,0.0923394,
2,1,0,1,0,5379.48,0.0941857,0.0938834,0.0572198,5,0.00044857,11,5.37199e-06,-4.24245,0.106847,0.552193,1.22488,0.09388338,
2,1,0,1,0,5380.97,0.0956839,0.0953838,0.059007,5,0.0005626,11,5.62831e-06,-4.2291,0.10821,0.545236,1.24926,0.0953838,
2,1,0,1,0,5382.47,0.0971821,0.0969067,0.0609484,5,0.000680008,11,5.90631e-06,-4.21504,0.0807324,0.73081,1.72289,0.0969067,
2,1,0,1,0,5383.97,0.0986803,0.0983668,0.0625806,5,0.000800617,11,6.15586e-06,-4.20356,0.111712,0.528142,1.29582,0.0983668,
2,1,0,1,0,5385.47,0.100178,0.0998502,0.0648642,5,0.000924162,11,6.4767e-06,-4.188,0.104567,0.564233,1.43071,0.0998502,
2,1,0,1,0,5386.97,0.101677,0.101396,0.0669749,5,0.0010507,11,6.791e-06,-4.17409,0.0868199,0.679568,1.78423,0.101396,
2,1,0,1,0,5388.47,0.103175,0.102926,0.0697823,5,0.0011813,11,7.18244e-06,-4.15625,0.0839099,0.703135,1.9047,0.102926,
2,1,0,1,0,5389.96,0.104673,0.104396,0.0733463,5,0.00131601,11,7.65707e-06,-4.13462,0.0997784,0.59131,1.67476,0.104396,
2,1,0,1,0,5391.46,0.106171,0.105874,0.0758141,5,0.00145486,11,8.02677e-06,-4.12025,0.0879828,0.670586,1.96165,0.105874,
2,1,0,1,0,5392.96,0.107669,0.10738,0.0777326,5,0.0015979,11,8.34694e-06,-4.1094,0.0844206,0.698882,2.15284,0.10738,
2,1,0,1,0,5394.46,0.109167,0.108868,0.0821152,5,0.00174537,11,8.9397e-06,-4.08558,0.087196,0.676636,2.16958,0.108868,
2,1,0,1,0,5395.96,0.110666,0.110383,0.0844054,5,0.00189871,11,9.31694e-06,-4.07363,0.080776,0.730415,2.43061,0.110383,
2,1,0,1,0,5397.45,0.112164,0.111907,0.0886418,5,0.00205732,11,9.91963e-06,-4.05236,0.105127,0.561228,1.94213,0.111907,
2,1,0,1,0,5398.95,0.113662,0.113323,0.0928953,5,0.00222166,11,1.05271e-05,-4.03201,0.0841117,0.701448,2.53965,0.113323,
2,1,0,1,0,5400.45,0.11516,0.114862,0.0967253,5,0.00239105,11,1.11101e-05,-4.01446,0.0822676,0.717171,2.71809,0.114862,
2,1,0,1,0,5401.95,0.116658,0.116345,0.101402,5,0.00256741,11,1.17976e-05,-3.99395,0.0800851,0.736716,2.91042,0.116345,
2,1,0,1,0,5403.45,0.118157,0.11788,0.105824,5,0.00275112,11,1.24745e-05,-3.97542,0.0783508,0.753024,3.09632,0.11788,
2,1,0,1,0,5404.95,0.119655,0.119348,0.110169,5,0.00294117,11,1.31484e-05,-3.95794,0.0859761,0.686237,2.93941,0.119348,
2,1,0,1,0,5406.44,0.121153,0.120855,0.113734,5,0.00313692,11,1.37453e-05,-3.94411,0.0921831,0.640031,2.86828,0.120855,
2,1,0,1,0,5407.94,0.122651,0.122355,0.118142,5,0.00334007,11,1.44553e-05,-3.9276,0.0810256,0.728165,3.34596,0.122355,
2,1,0,1,0,5409.44,0.124149,0.123845,0.122711,5,0.00354995,11,1.51972e-05,-3.91112,0.0935947,0.630378,3.034,0.123845,
2,1,0,1,0,5410.94,0.125648,0.125332,0.127425,5,0.00376603,11,1.59704e-05,-3.89475,0.0985824,0.598484,2.97343,0.125332,
2,1,0,1,0,5412.44,0.127146,0.126828,0.130525,5,0.00398837,11,1.65542e-05,-3.88431,0.104262,0.56588,2.90519,0.126828,
2,1,0,1,0,5413.93,0.128644,0.128333,0.136335,5,0.00421674,11,1.74962e-05,-3.86539,0.110695,0.532996,2.8086,0.128333,
2,1,0,1,0,5415.43,0.130142,0.129875,0.140965,5,0.0044518,11,1.83078e-05,-3.85089,0.126639,0.465892,2.51997,0.129875,
2,1,0,1,0,5416.93,0.13164,0.131345,0.143122,5,0.00469237,11,1.87984e-05,-3.84429,0.152955,0.385734,2.13614,0.131345,
2,1,0,1,0,5418.43,0.133139,0.132848,0.146181,5,0.00493772,11,1.94199e-05,-3.83511,0.173595,0.339872,1.92712,0.132848,
2,1,0,1,0,5419.93,0.134637,0.134298,0.148108,5,0.00518659,11,1.98905e-05,-3.82942,0.212524,0.277615,1.61576,0.134298,
2,1,0,1,0,5421.43,0.136135,0.135826,0.150427,5,0.00544004,11,2.04318e-05,-3.82267,0.244816,0.240998,1.41501,0.135826,
2,1,0,1,0,5422.92,0.137633,0.137321,0.152808,5,0.00569658,11,2.09836e-05,-3.81586,0.882809,0.0668322,0.395443,0.137321,
2,1,0,1,0,5424.42,0.139131,0.138832,0.154212,5,0.00595508,11,2.14096e-05,-3.81188,0.702185,0.0840234,0.500808,0.138832,
2,1,0,1,0,5425.92,0.14063,0.140344,0.154465,5,0.00621358,11,2.16782e-05,-3.81117,-3.14094,-0.0187842,-0.111885,0.140344,
2,1,0,1,0,5427.42,0.142128,0.141806,0.153773,5,0.00647259,11,2.18059e-05,-3.81312,-0.68878,-0.0856586,-0.508494,0.1418062,
2,1,0,1,0,5428.92,0.143626,0.143338,0.151595,5,0.00673079,11,2.17293e-05,-3.81932,-0.274687,-0.21479,-1.26526,0.143338,
2,1,0,1,0,5430.41,0.145124,0.144806,0.149698,5,0.00698501,11,2.16773e-05,-3.82478,-0.160371,-0.367896,-2.14899,0.144806,
2,1,0,1,0,5431.91,0.146622,0.146314,0.145694,5,0.00723439,11,2.13171e-05,-3.83656,-0.136526,-0.432153,-2.44429,0.146314,
2,1,0,1,0,5433.41,0.14812,0.147873,0.141755,5,0.0074788,11,2.09616e-05,-3.84846,-0.118756,-0.496815,-2.72195,0.147873,
2,1,0,1,0,5434.91,0.149619,0.149321,0.136896,5,0.00771643,11,2.04416e-05,-3.86361,-0.0925749,-0.637322,-3.38433,0.149321,
2,1,0,1,0,5436.41,0.151117,0.150858,0.130938,5,0.00794574,11,1.97531e-05,-3.88293,-0.0777652,-0.758694,-3.86578,0.150858,
2,1,0,1,0,5437.91,0.152615,0.152304,0.124262,5,0.00816613,11,1.89257e-05,-3.90566,-0.0676793,-0.871758,-4.23787,0.152304,
2,1,0,1,0,5439.4,0.154113,0.153762,0.118559,5,0.00837708,11,1.823e-05,-3.92606,-0.0656912,-0.898142,-4.14829,0.153762,
2,1,0,1,0,5440.9,0.155611,0.155299,0.11267,5,0.0085786,11,1.74975e-05,-3.94819,-0.0601763,-0.980453,-4.29133,0.155299,
2,1,0,1,0,5442.4,0.15711,0.156858,0.10566,5,0.00877063,11,1.65737e-05,-3.97609,-0.0537797,-1.09707,-4.53272,0.156858,
2,1,0,1,0,5443.9,0.158608,0.158333,0.0997084,5,0.0089532,11,1.57871e-05,-4.00127,-0.0587847,-1.00366,-3.9261,0.158333,
2,1,0,1,0,5445.4,0.160106,0.159843,0.0942619,5,0.00912602,11,1.50671e-05,-4.02566,-0.0588085,-1.00326,-3.71694,0.159843,
2,1,0,1,0,5446.89,0.161604,0.161293,0.0885004,5,0.00929132,11,1.42745e-05,-4.05305,-0.0630369,-0.93596,-3.25662,0.161293,
2,1,0,1,0,5448.39,0.163102,0.162849,0.0843447,5,0.00944892,11,1.37354e-05,-4.07394,-0.0657969,-0.896698,-2.96282,0.162849,
2,1,0,1,0,5449.89,0.164601,0.164289,0.0797627,5,0.0095998,11,1.31041e-05,-4.0982,-0.0640208,-0.921576,-2.875,0.164289,
2,1,0,1,0,5451.39,0.166099,0.165789,0.0763036,5,0.0097441,11,1.26503e-05,-4.11745,-0.0724271,-0.814612,-2.41728,0.165789,
2,1,0,1,0,5452.89,0.167597,0.167342,0.0725988,5,0.0098832,11,1.21488e-05,-4.13907,-0.0736987,-0.800556,-2.26803,0.167342,
2,1,0,1,0,5454.39,0.169095,0.16879,0.0692144,5,0.0100176,11,1.16827e-05,-4.1598,-0.0808604,-0.729652,-1.98825,0.16879,
2,1,0,1,0,5455.88,0.170593,0.170307,0.0662872,5,0.010147,11,1.12892e-05,-4.17857,-0.0826759,-0.71363,-1.86954,0.170307,
2,1,0,1,0,5457.38,0.172091,0.171782,0.0643882,5,0.0102723,11,1.10607e-05,-4.19119,-0.100601,-0.586478,-1.47705,0.171782,
2,1,0,1,0,5458.88,0.17359,0.173303,0.0617661,5,0.0103945,11,1.07043e-05,-4.20925,-0.120519,-0.48955,-1.19105,0.173303,
2,1,0,1,0,5460.38,0.175088,0.17484,0.0604931,5,0.0105137,11,1.05766e-05,-4.21829,-0.133675,-0.441367,-1.03663,0.17484,
2,1,0,1,0,5461.88,0.176586,0.176328,0.0585811,5,0.0106301,11,1.03295e-05,-4.23224,-0.116584,-0.506071,-1.16193,0.176328,
2,1,0,1,0,5463.37,0.178084,0.177816,0.0569603,5,0.010744,11,1.01284e-05,-4.24443,-0.144644,-0.407897,-0.915147,0.177816,
2,1,0,1,0,5464.87,0.179582,0.179335,0.0559461,5,0.0108556,11,1.00331e-05,-4.25223,-0.209093,-0.282171,-0.617756,0.179335,
2,1,0,1,0,5466.37,0.181081,0.180783,0.0548559,5,0.0109657,11,9.917e-06,-4.26078,-0.202164,-0.291843,-0.62634,0.180783,
2,1,0,1,0,5467.87,0.182579,0.18232,0.0540464,5,0.0110741,11,9.85375e-06,-4.26723,-0.139142,-0.424027,-0.885383,0.18232,
2,1,0,1,0,5469.37,0.184077,0.183808,0.0530692,5,0.0111809,11,9.75453e-06,-4.27516,-0.181292,-0.325441,-0.676209,0.183808,
2,1,0,1,0,5470.87,0.185575,0.185251,0.0517683,5,0.0112858,11,9.59013e-06,-4.28594,-0.244307,-0.241499,-0.489169,0.1852511,
2,1,0,1,0,5472.36,0.187073,0.186783,0.0512747,5,0.0113898,11,9.57727e-06,-4.2901,-0.21144,-0.279038,-0.557595,0.186783,
2,1,0,1,0,5473.86,0.188572,0.188281,0.0503248,5,0.0114927,11,9.47519e-06,-4.29822,-0.28228,-0.209013,-0.411869,0.188281,
2,1,0,1,0,5475.36,0.19007,0.189785,0.0496586,5,0.0115946,11,9.42448e-06,-4.30401,-0.294392,-0.200413,-0.391213,0.1897855,
2,1,0,1,0,5476.86,0.191568,0.19129,0.0495752,5,0.0116952,11,9.48326e-06,-4.30474,-0.278898,-0.211547,-0.407491,0.19129,
2,1,0,1,0,5478.36,0.193066,0.19277,0.0486028,5,0.0117954,11,9.36919e-06,-4.31334,-0.501781,-0.117581,-0.224925,0.19277,
2,1,0,1,0,5479.85,0.194564,0.194261,0.0483615,5,0.0118949,11,9.39478e-06,-4.3155,-0.40858,-0.144403,-0.273158,0.1942614,
2,1,0,1,0,5481.35,0.196063,0.195779,0.048878,5,0.0119938,11,9.56928e-06,-4.31089,-0.314835,-0.1874,-0.354884,0.195779,
2,1,0,1,0,5482.85,0.197561,0.197259,0.0483189,5,0.0120918,11,9.53135e-06,-4.31588,-0.468149,-0.126028,-0.236922,0.197259,
2,1,0,1,0,5484.35,0.199059,0.198779,0.0473671,5,0.0121895,11,9.41557e-06,-4.32452,-1.03717,-0.0568858,-0.10583,0.198779,
2,1,0,1,0,5485.85,0.200557,0.200268,0.0475304,5,0.0122868,11,9.5188e-06,-4.32303,-0.499037,-0.118228,-0.217742,0.200268,
2,1,0,1,0,5487.35,0.202055,0.201771,0.046874,5,0.0123837,11,9.45782e-06,-4.32907,-0.496489,-0.118834,-0.217882,0.2017712,
2,1,0,1,0,5488.84,0.203554,0.203288,0.0469302,5,0.0124801,11,9.54033e-06,-4.32855,-0.392251,-0.150414,-0.276385,0.203288,
2,1,0,1,0,5490.34,0.205052,0.204775,0.0467537,5,0.0125761,11,9.57399e-06,-4.33018,1.61542,0.0365231,0.0670434,0.204775,
2,1,0,1,0,5491.84,0.20655,0.206287,0.0465095,5,0.012672,11,9.59433e-06,-4.33246,-1.72601,-0.034183,-0.0625912,0.206287,
2,1,0,1,0,5493.34,0.208048,0.207728,0.0460495,5,0.0127681,11,9.5658e-06,-4.33677,-25.6996,-0.00229576,-0.00417137,0.207728,
2,1,0,1,0,5494.84,0.209546,0.209248,0.0466398,5,0.0128638,11,9.75929e-06,-4.33124,5.85197,0.0100821,0.0183032,0.209248,
2,1,0,1,0,5496.33,0.211044,0.210743,0.0464801,5,0.012959,11,9.79537e-06,-4.33273,5.52509,0.0106786,0.0195097,0.210743,
2,1,0,1,0,5497.83,0.212543,0.212272,0.046153,5,0.0130543,11,9.79701e-06,-4.3358,-1.62057,-0.0364071,-0.0658049,0.212272,
2,1,0,1,0,5499.33,0.214041,0.213712,0.0462282,5,0.0131497,11,9.87954e-06,-4.33509,-1.61867,-0.0364497,-0.065842,0.213712,
2,1,0,1,0,5500.83,0.215539,0.215273,0.0463066,5,0.0132449,11,9.96857e-06,-4.33436,11.9761,0.00492646,0.00887185,0.215273,
2,1,0,1,0,5502.33,0.217037,0.216689,0.0461254,5,0.0133396,11,9.99486e-06,-4.33606,1.86391,0.0316539,0.0570912,0.216689,
2,1,0,1,0,5503.83,0.218535,0.218239,0.0462515,5,0.0134347,11,1.00939e-05,-4.33487,0.784382,0.0752184,0.1353,0.218239,
2,1,0,1,0,5505.32,0.220034,0.219731,0.0464353,5,0.0135299,11,1.02033e-05,-4.33315,3.38758,0.0174166,0.0315929,0.219731,
2,1,0,1,0,5506.82,0.221532,0.22125,0.0461579,5,0.0136249,11,1.02124e-05,-4.33575,-18.7954,-0.00313907,-0.00568286,0.22125,
2,1,0,1,0,5508.32,0.22303,0.222758,0.0461339,5,0.0137199,11,1.02767e-05,-4.33598,0.631112,0.0934858,0.168707,0.2227577,
2,1,0,1,0,5509.82,0.224528,0.224213,0.0466592,5,0.0138149,11,1.04616e-05,-4.33106,2.49095,0.0236858,0.0429977,0.224213,
2,1,0,1,0,5511.32,0.226026,0.225777,0.0468244,5,0.0139102,11,1.05719e-05,-4.32953,0.861966,0.0684482,0.124487,0.225777,
2,1,0,1,0,5512.82,0.227525,0.227254,0.046577,5,0.0140056,11,1.05848e-05,-4.33183,1.73469,0.0340118,0.0617698,0.227254,
2,1,0,1,0,5514.31,0.229023,0.228711,0.0465826,5,0.014101,11,1.06539e-05,-4.33178,1.04931,0.0562275,0.102638,0.228711,
2,1,0,1,0,5515.81,0.230521,0.23024,0.0468107,5,0.0141964,11,1.07777e-05,-4.32965,0.805868,0.0732129,0.133485,0.23024,
2,1,0,1,0,5517.31,0.232019,0.231754,0.0467553,5,0.0142918,11,1.08357e-05,-4.33017,-2.12232,-0.0277997,-0.0507185,0.231754,
2,1,0,1,0,5518.81,0.233517,0.233219,0.0471497,5,0.0143876,11,1.09962e-05,-4.32652,2.34203,0.0251919,0.0458331,0.233219,
2,1,0,1,0,5520.31,0.235016,0.234721,0.0473787,5,0.0144833,11,1.11208e-05,-4.32442,-11.1027,-0.00531402,-0.00965178,0.2347212,
2,1,0,1,0,5521.8,0.236514,0.236206,0.0470199,5,0.0145789,11,1.11064e-05,-4.32772,5.22495,0.011292,0.020679,0.236206,
2,1,0,1,0,5523.3,0.238012,0.237709,0.0475112,5,0.0146749,11,1.12939e-05,-4.3232,1.68298,0.035057,0.0644119,0.2377094,
2,1,0,1,0,5524.8,0.23951,0.239237,0.0480187,5,0.0147711,11,1.14879e-05,-4.31859,0.929092,0.0635028,0.117163,0.239237,
2,1,0,1,0,5526.3,0.241008,0.240758,0.0476797,5,0.0148675,11,1.14793e-05,-4.32167,1.15802,0.0509491,0.0949695,0.240758,
2,1,0,1,0,5527.8,0.242506,0.242181,0.0474786,5,0.0149638,11,1.14984e-05,-4.3235,-26.2918,-0.00224404,-0.00419196,0.242181,
2,1,0,1,0,5529.3,0.244005,0.243683,0.0478835,5,0.0150605,11,1.16684e-05,-4.31981,0.536441,0.109984,0.204236,0.243683,
2,1,0,1,0,5530.79,0.245503,0.245195,0.0480651,5,0.0151574,11,1.17853e-05,-4.31817,0.899865,0.0655654,0.123273,0.245195,
2,1,0,1,0,5532.29,0.247001,0.246699,0.0480924,5,0.0152544,11,1.18643e-05,-4.31792,2.05153,0.028759,0.0542365,0.246699,
2,1,0,1,0,5533.79,0.248499,0.248215,0.0481191,5,0.0153514,11,1.19439e-05,-4.31768,0.428911,0.137558,0.257805,0.248215,
2,1,0,1,0,5535.29,0.249997,0.249779,0.0481811,5,0.0154485,11,1.20346e-05,-4.31712,1.26053,0.0468057,0.0883876,0.249779,
2,1,0,1,0,5536.79,0.251496,0.251221,0.0483477,5,0.0155459,11,1.2146e-05,-4.31562,0.754726,0.0781741,0.147299,0.251221,
2,1,0,1,0,5538.28,0.252994,0.252776,0.0482187,5,0.0156435,11,1.21885e-05,-4.31678,3.29804,0.0178894,0.0338714,0.2527757,
2,1,0,1,0,5539.78,0.254492,0.254184,0.0483292,5,0.0157413,11,1.22845e-05,-4.31579,0.986393,0.0598139,0.113509,0.254184,
2,1,0,1,0,5541.28,0.25599,0.255711,0.0489731,5,0.0158392,11,1.2523e-05,-4.31004,0.6209,0.0950233,0.182322,0.255711,
2,1,0,1,0,5542.78,0.257488,0.257186,0.0487956,5,0.0159374,11,1.25495e-05,-4.31162,3.35292,0.0175966,0.0334591,0.257186,
2,1,0,1,0,5544.28,0.258987,0.258706,0.0493491,5,0.016036,11,1.27669e-05,-4.30672,-1.35866,-0.0434253,-0.0827627,0.258706,
2,1,0,1,0,5545.78,0.260485,0.260241,0.0494936,5,0.0161347,11,1.28803e-05,-4.30545,1.33395,0.0442295,0.0851339,0.260241,
2,1,0,1,0,5547.27,0.261983,0.261717,0.0490617,5,0.0162331,11,1.28403e-05,-4.30926,2.22884,0.0264711,0.0508578,0.261717,
2,1,0,1,0,5548.77,0.263481,0.263196,0.04946,5,0.016332,11,1.30177e-05,-4.30575,-1.60197,-0.0368296,-0.0709098,0.263196,
2,1,0,1,0,5550.27,0.264979,0.264705,0.0497488,5,0.0164312,11,1.31688e-05,-4.30322,0.517678,0.113971,0.220755,0.264705,
2,1,0,1,0,5551.77,0.266477,0.266173,0.0494919,5,0.0165305,11,1.31734e-05,-4.30547,1.44529,0.0408222,0.0794072,0.266173,
2,1,0,1,0,5553.27,0.267976,0.267689,0.0492956,5,0.0166297,11,1.31959e-05,-4.30719,0.913195,0.0646083,0.125949,0.267689,
2,1,0,1,0,5554.76,0.269474,0.269147,0.0498278,5,0.0167294,11,1.3411e-05,-4.30253,0.738362,0.0799066,0.155911,0.269147,
2,1,0,1,0,5556.26,0.270972,0.270714,0.0503197,5,0.0168295,11,1.36222e-05,-4.29826,0.389533,0.151463,0.294954,0.270714,
2,1,0,1,0,5557.76,0.27247,0.272204,0.0504483,5,0.0169298,11,1.37322e-05,-4.29715,0.797571,0.0739746,0.145498,0.272204,
2,1,0,1,0,5559.26,0.273968,0.273687,0.0503317,5,0.0170301,11,1.37751e-05,-4.29816,1.25719,0.0469299,0.0926115,0.2736868,
2,1,0,1,0,5560.76,0.275467,0.275141,0.0508276,5,0.0171305,11,1.39847e-05,-4.2939,0.669438,0.0881336,0.174098,0.275141,
2,1,0,1,0,5562.26,0.276965,0.276693,0.0502423,5,0.0172313,11,1.39017e-05,-4.29893,0.608927,0.0968917,0.191634,0.276693,
2,1,0,1,0,5563.75,0.278463,0.278185,0.0510061,5,0.0173322,11,1.41891e-05,-4.29238,2.27868,0.0258921,0.0514425,0.278185,
2,1,0,1,0,5565.25,0.279961,0.279688,0.0510824,5,0.0174333,11,1.42871e-05,-4.29173,0.602617,0.0979063,0.194806,0.279688,
2,1,0,1,0,5566.75,0.281459,0.281187,0.0510481,5,0.0175344,11,1.43541e-05,-4.29202,0.79659,0.0740657,0.148829,0.281187,
2,1,0,1,0,5568.25,0.282958,0.282655,0.0515007,5,0.0176358,11,1.45569e-05,-4.28819,1.19417,0.0494066,0.0992117,0.282655,
2,1,0,1,0,5569.75,0.284456,0.284172,0.0515427,5,0.0177376,11,1.4647e-05,-4.28783,4.15917,0.0141855,0.0284079,0.284172,
2,1,0,1,0,5571.24,0.285954,0.285666,0.051398,5,0.0178395,11,1.46827e-05,-4.28905,-14.9829,-0.00393782,-0.00793737,0.285666,
2,1,0,1,0,5572.74,0.287452,0.287153,0.0519399,5,0.0179414,11,1.49147e-05,-4.2845,0.487335,0.121067,0.245426,0.2871531,
2,1,0,1,0,5574.24,0.28895,0.288649,0.052046,5,0.0180437,11,1.5023e-05,-4.28361,0.968995,0.0608878,0.123686,0.288649,
2,1,0,1,0,5575.74,0.290448,0.290149,0.0523177,5,0.0181463,11,1.51799e-05,-4.28135,0.62226,0.0948157,0.193338,0.290149,
2,1,0,1,0,5577.24,0.291947,0.291683,0.0521839,5,0.0182489,11,1.52212e-05,-4.28246,1.40426,0.0420151,0.0855418,0.291683,
2,1,0,1,0,5578.74,0.293445,0.293167,0.0523985,5,0.0183515,11,1.53615e-05,-4.28068,0.633896,0.0930752,0.190531,0.293167,
2,1,0,1,0,5580.23,0.294943,0.294645,0.0523626,5,0.0184544,11,1.54284e-05,-4.28098,0.644493,0.0915449,0.188517,0.294645,
2,1,0,1,0,5581.73,0.296441,0.296224,0.0526865,5,0.0185576,11,1.5607e-05,-4.2783,0.935061,0.0630975,0.129125,0.296224,
2,1,0,1,0,5583.23,0.297939,0.297676,0.053116,5,0.018661,11,1.58114e-05,-4.27477,0.638572,0.0923937,0.190455,0.297676,
2,1,0,1,0,5584.73,0.299438,0.299174,0.052783,5,0.0187645,11,1.57913e-05,-4.27751,-0.00604954,-9.7528,-14.2554,0.299174,
2,1,0,1,0,5585.58,0.299737,0.299486,0.0307828,5,0.0188086,11,9.219e-06,-4.51169,0.00263269,22.4106,28.9015,0.299486,
2,1,0,1,0,5587.08,0.298239,0.298008,0.0205236,5,0.0188211,11,6.1162e-06,-4.68775,0.00705342,8.36474,9.8131,0.298008,
2,1,0,1,0,5588.57,0.296741,0.296446,0.0164618,5,0.0188244,11,4.88004e-06,-4.78352,0.0149352,3.95041,2.6089,0.296446,
2,1,0,1,0,5590.07,0.295243,0.295001,0.0133284,5,0.0188223,11,3.9319e-06,-4.87522,0.0165196,3.57151,1.87933,0.295001,
2,1,0,1,0,5591.57,0.293745,0.293483,0.0107516,5,0.0188164,11,3.15539e-06,-4.96853,0.017697,3.33391,1.41532,0.293483,
2,1,0,1,0,5593.07,0.292246,0.291937,0.00902415,5,0.0188073,11,2.63449e-06,-5.04459,0.0164947,3.5769,1.2082,0.291937,
2,1,0,1,0,5594.57,0.290748,0.290446,0.00696102,5,0.0187951,11,2.0218e-06,-5.15733,0.0155466,3.79505,1.08104,0.290446,
2,1,0,1,0,5596.07,0.28925,0.288978,0.0058042,5,0.0187803,11,1.67729e-06,-5.23626,0.0127442,4.62957,0.952556,0.288978,
2,1,0,1,0,5597.56,0.287752,0.287453,0.00394404,5,0.0187631,11,1.13373e-06,-5.40406,0.00838374,7.03743,1.02285,0.287453,
2,0,0,1,0,5599.06,0.286254,0.285963,0.00286434,5,0.018744,11,8.19095e-07,-5.54298,0.00611901,9.64208,0.852826,0.285963,
2,1,0,1,0,5600.56,0.284755,0.284429,0.00139148,5,0.0187227,11,3.95776e-07,-5.85652,0.00253756,23.2507,0.807387,0.284429,
2,1,0,1,0,5602.06,0.283257,0.283013,0.000244685,5,0.0186996,11,6.9249e-08,-6.61139,0.0240736,2.45082,0.829008,0.283013,
2,1,0,1,0,5603.56,0.281759,0.281435,-0.000665811,5,0.0186746,11,-1.87383e-07,-6.17665,-0.0124376,-4.74368,0.831015,0.281435,
2,1,0,1,0,5605.05,0.280261,0.279984,-0.00201146,5,0.0186481,11,-5.63176e-07,-5.69649,-0.00315363,-18.7086,0.779105,0.279984,
2,0,0,1,0,5606.55,0.278763,0.278466,-0.00297003,5,0.0186199,11,-8.27053e-07,-5.52724,-0.00882081,-6.68872,0.648345,0.278466,
2,0,0,1,0,5608.05,0.277264,0.276983,-0.00410208,5,0.0185901,11,-1.1362e-06,-5.387,-0.0127355,-4.63272,0.665354,0.276983,
2,0,0,1,0,5609.55,0.275766,0.275493,-0.00500626,5,0.0185587,11,-1.37919e-06,-5.30049,-0.0173872,-3.39329,0.60071,0.275493,
2,0,0,1,0,5611.05,0.274268,0.273973,-0.00567468,5,0.0185259,11,-1.55471e-06,-5.24606,-0.0181321,-3.25389,0.690322,0.273973,
2,0,0,1,0,5612.55,0.27277,0.272496,-0.00638443,5,0.0184919,11,-1.73973e-06,-5.19488,-0.0299217,-1.97181,0.518366,0.272496,
2,0,0,1,0,5614.04,0.271272,0.27099,-0.00767012,5,0.0184565,11,-2.07853e-06,-5.1152,-0.0310564,-1.89977,0.558901,0.27099,
2,0,0,1,0,5615.54,0.269774,0.269473,-0.00821487,5,0.0184195,11,-2.21369e-06,-5.0854,-0.0370603,-1.592,0.514352,0.269473,
2,0,0,1,0,5617.04,0.268275,0.268003,-0.00892174,5,0.0183814,11,-2.39105e-06,-5.04955,-0.0332267,-1.77568,0.609226,0.268003,
2,0,0,1,0,5618.54,0.266777,0.266474,-0.00981249,5,0.0183422,11,-2.61477e-06,-5.00822,-0.0385962,-1.52865,0.595647,0.266474,
2,0,0,1,0,5620.04,0.265279,0.264986,-0.011143,5,0.0183016,11,-2.95274e-06,-4.953,-0.045278,-1.30306,0.553075,0.264986,
2,1,0,1,0,5621.53,0.263781,0.263476,-0.0114186,5,0.0182598,11,-3.00852e-06,-4.94239,-0.0594383,-0.992626,0.443204,0.263476,
2,0,0,1,0,5623.03,0.262283,0.261957,-0.0123366,5,0.0182168,11,-3.23166e-06,-4.9088,-0.0565088,-1.04409,0.513631,0.261957,
2,0,0,1,0,5624.53,0.260784,0.260499,-0.0128137,5,0.0181729,11,-3.33796e-06,-4.89232,-0.0480534,-1.2278,0.61816,0.260499,
2,0,0,1,0,5626.03,0.259286,0.258964,-0.0138457,5,0.0181275,11,-3.58553e-06,-4.85869,-0.0745798,-0.791098,0.410222,0.258964,
2,0,0,1,0,5627.53,0.257788,0.257517,-0.0152526,5,0.018081,11,-3.92779e-06,-4.81666,-0.0595998,-0.989936,0.554864,0.257517,
2,0,0,1,0,5629.03,0.25629,0.256009,-0.0153139,5,0.0180334,11,-3.92049e-06,-4.81491,-0.0789625,-0.74719,0.440802,0.2560088,
2,1,0,1,0,5630.52,0.254792,0.254497,-0.0157322,5,0.0179849,11,-4.00378e-06,-4.80321,-0.0589939,-1.0001,0.621763,0.254497,
2,0,0,1,0,5632.02,0.253293,0.252978,-0.0169158,5,0.0179352,11,-4.27933e-06,-4.77171,-0.111902,-0.527246,0.349727,0.252978,
2,0,0,1,0,5633.52,0.251795,0.251505,-0.0176841,5,0.0178845,11,-4.44765e-06,-4.75242,-0.0876854,-0.67286,0.458932,0.251505,
2,0,0,1,0,5635.02,0.250297,0.249971,-0.0179687,5,0.0178326,11,-4.49165e-06,-4.74548,-0.112516,-0.524371,0.368359,0.2499709,
2,0,0,1,0,5636.52,0.248799,0.248536,-0.0186951,5,0.0177797,11,-4.6464e-06,-4.72827,-0.157869,-0.373728,0.279754,0.248536,
2,0,0,1,0,5638.01,0.247301,0.247026,-0.0188939,5,0.017726,11,-4.66728e-06,-4.72368,-0.0994735,-0.593123,0.455862,0.247026,
2,0,0,1,0,5639.51,0.245802,0.245475,-0.0205154,5,0.017671,11,-5.03602e-06,-4.68792,-0.0826763,-0.713627,0.564362,0.245475,
2,0,0,1,0,5641.01,0.244304,0.243964,-0.0206399,5,0.0176148,11,-5.03538e-06,-4.68529,-0.0989192,-0.596446,0.485618,0.243964,
2,0,0,1,0,5642.51,0.242806,0.242494,-0.0214906,5,0.0175578,11,-5.21133e-06,-4.66775,-0.118461,-0.498052,0.419531,0.242494,
2,0,0,1,0,5644.01,0.241308,0.241016,-0.0228601,5,0.0175,11,-5.50964e-06,-4.64092,-0.110396,-0.534439,0.466094,0.241016,
2,0,0,1,0,5645.51,0.23981,0.239516,-0.0228713,5,0.017441,11,-5.47806e-06,-4.64071,-0.0969863,-0.608333,0.533734,0.239516,
2,0,0,1,0,5647,0.238312,0.238012,-0.0234499,5,0.017381,11,-5.58135e-06,-4.62986,-0.104724,-0.563387,0.514617,0.238012,
2,0,0,1,0,5648.5,0.236813,0.236503,-0.0243153,5,0.0173199,11,-5.75062e-06,-4.61412,-0.137329,-0.429624,0.404101,0.236503,
2,0,0,1,0,5650,0.235315,0.235003,-0.0244577,5,0.0172581,11,-5.74764e-06,-4.61158,-0.0916247,-0.643931,0.619727,0.235003,
2,0,0,1,0,5651.5,0.233817,0.233527,-0.0252419,5,0.0171951,11,-5.89467e-06,-4.59788,-0.121481,-0.485674,0.484779,0.2335272,
2,0,0,1,0,5653,0.232319,0.232018,-0.0259632,5,0.0171309,11,-6.02393e-06,-4.58564,-0.120676,-0.488912,0.490299,0.232018,
2,0,0,1,0,5654.49,0.230821,0.230494,-0.0265244,5,0.0170659,11,-6.11373e-06,-4.57635,-0.228916,-0.257737,0.26617,0.230494,
2,0,0,1,0,5655.99,0.229322,0.229027,-0.027269,5,0.0169999,11,-6.24532e-06,-4.56433,-0.188787,-0.312522,0.333718,0.229027,
2,0,0,1,0,5657.49,0.227824,0.22754,-0.0278741,5,0.0169329,11,-6.34247e-06,-4.5548,-0.126975,-0.464658,0.514429,0.22754,
2,0,0,1,0,5658.99,0.226326,0.225992,-0.0286708,5,0.0168649,11,-6.47936e-06,-4.54256,-0.165094,-0.357372,0.401104,0.225992,
2,0,0,1,0,5660.49,0.224828,0.224532,-0.0293408,5,0.0167958,11,-6.58794e-06,-4.53253,-0.166538,-0.354273,0.404104,0.224532,
2,0,0,1,0,5661.99,0.22333,0.223014,-0.0299879,5,0.0167257,11,-6.68773e-06,-4.52305,-0.161075,-0.36629,0.427878,0.223014,
2,0,0,1,0,5663.48,0.221831,0.221554,-0.0307563,5,0.0166548,11,-6.81418e-06,-4.51207,-0.148364,-0.39767,0.475067,0.2215541,
2,0,0,1,0,5664.98,0.220333,0.220025,-0.03115,5,0.0165826,11,-6.85379e-06,-4.50654,-0.231479,-0.254882,0.309538,0.220025,
2,0,0,1,0,5666.48,0.218835,0.218562,-0.0322037,5,0.0165091,11,-7.0385e-06,-4.49209,-0.149488,-0.394681,0.487688,0.218562,
2,0,0,1,0,5667.98,0.217337,0.217005,-0.032829,5,0.0164348,11,-7.12406e-06,-4.48374,-0.160145,-0.368417,0.470971,0.217005,
2,0,0,1,0,5669.48,0.215839,0.215567,-0.0333344,5,0.0163597,11,-7.1858e-06,-4.47711,-0.141361,-0.417372,0.542423,0.215567,
2,0,0,1,0,5670.97,0.21434,0.214035,-0.0335045,5,0.0162832,11,-7.17113e-06,-4.4749,-0.202384,-0.291524,0.388128,0.214035,
2,0,0,1,0,5672.47,0.212842,0.212525,-0.0347563,5,0.0162057,11,-7.38657e-06,-4.45897,-0.16772,-0.351777,0.479682,0.212525,
2,0,0,1,0,5673.97,0.211344,0.211034,-0.0354455,5,0.0161269,11,-7.48021e-06,-4.45044,-0.136824,-0.431212,0.597759,0.211034,
2,0,0,1,0,5675.47,0.209846,0.209547,-0.0359331,5,0.0160472,11,-7.52968e-06,-4.44451,-0.239463,-0.246385,0.347941,0.209547,
2,0,0,1,0,5676.97,0.208348,0.208052,-0.036844,5,0.0159663,11,-7.66548e-06,-4.43363,-0.127574,-0.462476,0.671919,0.208052,
2,0,0,1,0,5678.47,0.20685,0.206573,-0.0383441,5,0.0158839,11,-7.92085e-06,-4.4163,-0.133515,-0.441897,0.648813,0.206573,
2,0,0,1,0,5679.96,0.205351,0.205032,-0.0385191,5,0.0158001,11,-7.89765e-06,-4.41432,-0.238525,-0.247353,0.370505,0.205032,
2,0,0,1,0,5681.46,0.203853,0.20353,-0.0388614,5,0.0157154,11,-7.90948e-06,-4.41048,-0.167375,-0.352503,0.543106,0.2035304,
2,0,0,1,0,5682.96,0.202355,0.202095,-0.040537,5,0.0156295,11,-8.19231e-06,-4.39215,-0.171374,-0.344275,0.53927,0.202095,
2,0,0,1,0,5684.46,0.200857,0.200517,-0.0410478,5,0.0155422,11,-8.23076e-06,-4.38671,-0.155268,-0.379989,0.609324,0.200517,
2,0,0,1,0,5685.96,0.199359,0.199058,-0.0419397,5,0.0154536,11,-8.34842e-06,-4.37737,-0.156698,-0.376519,0.614501,0.199058,
2,0,0,1,0,5687.45,0.19786,0.197514,-0.0429104,5,0.0153635,11,-8.47539e-06,-4.36744,-0.169061,-0.348987,0.581584,0.197514,
2,0,0,1,0,5688.95,0.196362,0.196056,-0.0440266,5,0.0152722,11,-8.63165e-06,-4.35629,-0.153723,-0.383806,0.654701,0.196056,
2,0,0,1,0,5690.45,0.194864,0.194588,-0.0448996,5,0.0151791,11,-8.73692e-06,-4.34776,-0.144738,-0.407632,0.713789,0.194588,
2,0,0,1,0,5691.95,0.193366,0.193039,-0.0453898,5,0.0150843,11,-8.762e-06,-4.34304,-0.174108,-0.33887,0.606053,0.193039,
2,0,0,1,0,5693.45,0.191868,0.191575,-0.0470139,5,0.014988,11,-9.0067e-06,-4.32777,-0.147294,-0.400561,0.734931,0.191575,
2,0,0,1,0,5694.95,0.190369,0.190057,-0.047932,5,0.0148903,11,-9.10981e-06,-4.31937,-0.160391,-0.367851,0.690671,0.190057,
2,0,0,1,0,5696.44,0.188871,0.188552,-0.0491516,5,0.0147905,11,-9.26763e-06,-4.30846,-0.127861,-0.46144,0.888047,0.188552,
2,0,0,1,0,5697.94,0.187373,0.187078,-0.0500246,5,0.0146889,11,-9.35852e-06,-4.30082,-0.133519,-0.441885,0.873836,0.187078,
2,0,0,1,0,5699.44,0.185875,0.185565,-0.0516355,5,0.0145852,11,-9.58174e-06,-4.28705,-0.171329,-0.344366,0.692006,0.185565,
2,0,0,1,0,5700.94,0.184377,0.184074,-0.0525029,5,0.0144796,11,-9.66442e-06,-4.27982,-0.127112,-0.464157,0.965077,0.184074,
2,0,0,1,0,5702.44,0.182878,0.182591,-0.0546427,5,0.0143718,11,-9.97724e-06,-4.26247,-0.117528,-0.50201,1.06623,0.182591,
2,0,0,1,0,5703.93,0.18138,0.181118,-0.055963,5,0.0142614,11,-1.01359e-05,-4.2521,-0.124525,-0.473801,1.04595,0.181118,
2,0,0,1,0,5705.43,0.179882,0.179587,-0.0575079,5,0.0141484,11,-1.03277e-05,-4.24027,-0.122835,-0.480319,1.08088,0.179587,
2,0,0,1,0,5706.93,0.178384,0.178091,-0.0596812,5,0.0140328,11,-1.06287e-05,-4.22416,-0.109744,-0.537617,1.24773,0.178091,
2,0,0,1,0,5708.43,0.176886,0.176578,-0.0613099,5,0.0139147,11,-1.0826e-05,-4.21247,-0.0956231,-0.617006,1.48529,0.1765781,
2,0,0,1,0,5709.93,0.175388,0.175077,-0.0636859,5,0.0137932,11,-1.11499e-05,-4.19596,-0.0943923,-0.625051,1.56278,0.175077,
2,0,0,1,0,5711.43,0.173889,0.173558,-0.0656399,5,0.0136681,11,-1.13923e-05,-4.18283,-0.0962345,-0.613086,1.56953,0.173558,
2,0,0,1,0,5712.92,0.172391,0.172072,-0.0683726,5,0.0135398,11,-1.1765e-05,-4.16512,-0.0943495,-0.625334,1.66721,0.1720724,
2,0,0,1,0,5714.42,0.170893,0.170551,-0.0707074,5,0.0134079,11,-1.20592e-05,-4.15054,-0.0902654,-0.653628,1.81189,0.170551,
2,0,0,1,0,5715.92,0.169395,0.169078,-0.0737608,5,0.0132714,11,-1.24713e-05,-4.13217,-0.086991,-0.678231,1.95596,0.1690778,
2,0,0,1,0,5717.42,0.167897,0.167639,-0.0773299,5,0.0131301,11,-1.29635e-05,-4.11165,-0.0823434,-0.716512,2.16276,0.167639,
2,0,0,1,0,5718.92,0.166398,0.16608,-0.0804433,5,0.0129839,11,-1.336e-05,-4.09451,-0.0786201,-0.750445,2.37914,0.16608,
2,0,0,1,0,5720.41,0.1649,0.164616,-0.0837693,5,0.0128324,11,-1.37897e-05,-4.07692,-0.0717885,-0.821859,2.71581,0.164616,
2,0,0,1,0,5721.91,0.163402,0.163114,-0.0885318,5,0.0126743,11,-1.44408e-05,-4.0529,-0.065583,-0.899624,3.10514,0.163114,
2,0,0,1,0,5723.41,0.161904,0.161628,-0.0936942,5,0.0125096,11,-1.51436e-05,-4.02829,-0.0670761,-0.879598,3.20399,0.161628,
2,0,0,1,0,5724.91,0.160406,0.160117,-0.0984531,5,0.0123373,11,-1.5764e-05,-4.00677,-0.0581282,-1.015,3.89691,0.160117,
2,0,0,1,0,5726.41,0.158907,0.158621,-0.10345,5,0.0121572,11,-1.64093e-05,-3.98527,-0.0630203,-0.936207,3.80368,0.158621,
2,0,0,1,0,5727.91,0.157409,0.157115,-0.109428,5,0.0119684,11,-1.71927e-05,-3.96087,-0.0615085,-0.959218,4.12782,0.157115,
2,0,0,1,0,5729.4,0.155911,0.155635,-0.116698,5,0.0117696,11,-1.81623e-05,-3.93294,-0.0627505,-0.940232,4.29023,0.155635,
2,0,0,1,0,5730.9,0.154413,0.15411,-0.123028,5,0.0115608,11,-1.89599e-05,-3.91,-0.0657521,-0.89731,4.30761,0.15411,
2,0,0,1,0,5732.4,0.152915,0.152583,-0.130646,5,0.0113412,11,-1.99345e-05,-3.8839,-0.0613775,-0.961264,4.90657,0.152583,
2,0,0,1,0,5733.9,0.151417,0.151134,-0.137667,5,0.0111116,11,-2.08062e-05,-3.86117,-0.0640377,-0.921332,4.9625,0.151134,
2,0,0,1,0,5735.4,0.149918,0.149612,-0.145674,5,0.0108704,11,-2.17945e-05,-3.83662,-0.0656489,-0.89872,5.0661,0.149612,
2,0,0,1,0,5736.9,0.14842,0.148128,-0.152312,5,0.010618,11,-2.25618e-05,-3.81726,-0.0731732,-0.806306,4.76656,0.148128,
2,0,0,1,0,5738.39,0.146922,0.146587,-0.159958,5,0.0103549,11,-2.34477e-05,-3.79599,-0.0826915,-0.713495,4.41875,0.146587,
2,0,0,1,0,5739.89,0.145424,0.145148,-0.165761,5,0.0100825,11,-2.40597e-05,-3.78052,-0.0883033,-0.668152,4.32091,0.145148,
2,0,0,1,0,5741.39,0.143926,0.143622,-0.171671,5,0.0097999,11,-2.46557e-05,-3.7653,-0.0891374,-0.6619,4.4105,0.1436217,
2,0,0,1,0,5742.89,0.142427,0.142123,-0.177095,5,0.00950771,11,-2.51694e-05,-3.75179,-0.116837,-0.504978,3.49006,0.142123,
2,0,0,1,0,5744.39,0.140929,0.140614,-0.181718,5,0.00920843,11,-2.55522e-05,-3.7406,-0.153627,-0.384048,2.73276,0.140614,
2,0,0,1,0,5745.88,0.139431,0.139137,-0.185849,5,0.00890342,11,-2.58585e-05,-3.73084,-0.160528,-0.367537,2.66535,0.139137,
2,0,0,1,0,5747.38,0.137933,0.137611,-0.190141,5,0.00859242,11,-2.61656e-05,-3.72092,-0.218666,-0.269818,1.98128,0.137611,
2,0,0,1,0,5748.88,0.136435,0.136141,-0.192614,5,0.00827661,11,-2.62225e-05,-3.71531,-0.329164,-0.179242,1.33286,0.136141,
2,0,0,1,0,5750.38,0.134936,0.134636,-0.19392,5,0.00795785,11,-2.61086e-05,-3.71238,-0.349595,-0.168767,1.27486,0.134636,
2,0,0,1,0,5751.88,0.133438,0.133155,-0.194617,5,0.00763586,11,-2.59143e-05,-3.71082,-0.8963,-0.0658262,0.499631,0.133155,
2,0,0,1,0,5753.38,0.13194,0.13163,-0.196131,5,0.00731187,11,-2.58166e-05,-3.70745,0.626869,0.0941185,-0.72322,0.13163,
2,0,0,1,0,5754.87,0.130442,0.130146,-0.194501,5,0.00698928,11,-2.53135e-05,-3.71108,0.374536,0.157528,-1.20249,0.130146,
2,0,0,1,0,5756.37,0.128944,0.128618,-0.193831,5,0.00666771,11,-2.49301e-05,-3.71258,0.317043,0.186094,-1.4019,0.1286179,
2,0,0,1,0,5757.87,0.127445,0.127125,-0.192338,5,0.00634849,11,-2.4451e-05,-3.71593,0.38697,0.152467,-1.14274,0.127125,
2,0,0,1,0,5759.37,0.125947,0.125652,-0.191755,5,0.00603269,11,-2.40944e-05,-3.71725,0.299893,0.196737,-1.45967,0.125652,
2,0,0,1,0,5760.87,0.124449,0.124163,-0.189195,5,0.00571889,11,-2.34911e-05,-3.72309,0.281676,0.20946,-1.53342,0.124163,
2,0,0,1,0,5762.36,0.122951,0.122634,-0.186346,5,0.0054083,11,-2.28524e-05,-3.72968,0.324305,0.181927,-1.31981,0.122634,
2,0,0,1,0,5763.86,0.121453,0.121144,-0.183304,5,0.0051016,11,-2.22062e-05,-3.73683,0.259998,0.226924,-1.62633,0.121144,
2,0,0,1,0,5765.36,0.119955,0.119688,-0.182261,5,0.00479671,11,-2.18145e-05,-3.73931,0.210997,0.279624,-1.97482,0.119688,
2,0,0,1,0,5766.86,0.118456,0.118163,-0.177683,5,0.00449727,11,-2.09956e-05,-3.75035,0.155548,0.379303,-2.65551,0.118163,
2,0,0,1,0,5768.36,0.116958,0.116623,-0.17501,5,0.0042026,11,-2.04101e-05,-3.75694,0.199102,0.29633,-2.02815,0.116623,
2,0,0,1,0,5769.86,0.11546,0.115164,-0.171113,5,0.0039131,11,-1.9706e-05,-3.76672,0.171198,0.344631,-2.30867,0.1151636,
2,0,0,1,0,5771.35,0.113962,0.113663,-0.167337,5,0.00362904,11,-1.902e-05,-3.77641,0.185941,0.317305,-2.08116,0.1136631,
2,0,0,1,0,5772.85,0.112464,0.112151,-0.165307,5,0.00334969,11,-1.85394e-05,-3.78171,0.176774,0.33376,-2.14743,0.112151,
2,0,0,1,0,5774.35,0.110965,0.110631,-0.162472,5,0.00307472,11,-1.79745e-05,-3.78922,0.210926,0.279719,-1.775,0.110631,
2,0,0,1,0,5775.85,0.109467,0.109157,-0.160125,5,0.00280389,11,-1.74788e-05,-3.79554,0.171232,0.344561,-2.14373,0.109157,
2,0,0,1,0,5777.35,0.107969,0.107664,-0.156616,5,0.00253742,11,-1.6862e-05,-3.80516,0.211231,0.279315,-1.71566,0.107664,
2,0,0,1,0,5778.84,0.106471,0.106181,-0.154105,5,0.00227541,11,-1.6363e-05,-3.81218,0.244782,0.241031,-1.45741,0.106181,
2,0,0,1,0,5780.34,0.104973,0.104672,-0.151702,5,0.00201658,11,-1.58789e-05,-3.81901,0.238382,0.247502,-1.46981,0.104672,
2,0,0,1,0,5781.84,0.103474,0.103201,-0.149524,5,0.00176087,11,-1.5431e-05,-3.82529,0.208782,0.282592,-1.64977,0.103201,
2,0,0,1,0,5783.34,0.101976,0.101689,-0.148006,5,0.00150871,11,-1.50506e-05,-3.82972,0.287998,0.204863,-1.18083,0.101689,
2,0,0,1,0,5784.84,0.100478,0.100157,-0.146085,5,0.00126017,11,-1.46313e-05,-3.8354,0.32236,0.183025,-1.04174,0.100157,
2,0,0,1,0,5786.34,0.0989798,0.0986657,-0.144942,5,0.00101344,11,-1.43008e-05,-3.8388,0.346107,0.170467,-0.958433,0.0986657,
2,0,0,1,0,5787.83,0.0974816,0.0971917,-0.142763,5,0.000769242,11,-1.38753e-05,-3.84539,0.317638,0.185746,-1.03698,0.0971917,
2,0,0,1,0,5789.33,0.0959834,0.0956796,-0.141228,5,0.00052753,11,-1.35126e-05,-3.85008,0.372506,0.158387,-0.876272,0.0956796,
2,0,0,1,0,5790.83,0.0944852,0.0941717,-0.139949,5,0.000288468,11,-1.31792e-05,-3.85403,0.357036,0.16525,-0.904069,0.09417171,
2,0,0,1,0,5792.33,0.0929871,0.0926798,-0.138345,5,5.08142e-05,11,-1.28218e-05,-3.85904,0.578829,0.10193,-0.551076,0.0926798,
2,0,0,1,0,5793.83,0.0914889,0.0912068,-0.137039,5,-0.000185281,11,-1.24989e-05,-3.86315,0.406398,0.145178,-0.778634,0.0912068,
2,0,0,1,0,5795.32,0.0899907,0.0897138,-0.136721,5,-0.000419048,11,-1.22657e-05,-3.86417,0.386046,0.152831,-0.813637,0.0897138,
2,0,0,1,0,5796.82,0.0884925,0.0881804,-0.134692,5,-0.000650889,11,-1.18772e-05,-3.87066,0.362079,0.162948,-0.855432,0.0881804,
2,0,0,1,0,5798.32,0.0869943,0.0866672,-0.134169,5,-0.000880981,11,-1.1628e-05,-3.87235,0.430256,0.137128,-0.717404,0.0866672,
2,0,0,1,0,5799.82,0.0854961,0.0852081,-0.132799,5,-0.00110969,11,-1.13155e-05,-3.87681,0.491505,0.120039,-0.622452,0.0852081,
2,0,0,1,0,5801.32,0.083998,0.0836611,-0.131875,5,-0.00133686,11,-1.10328e-05,-3.87984,0.327011,0.180422,-0.925792,0.0836611,
2,0,0,1,0,5802.82,0.0824998,0.0821967,-0.130836,5,-0.00156244,11,-1.07543e-05,-3.88327,0.477646,0.123522,-0.630801,0.0821967,
2,0,0,1,0,5804.31,0.0810016,0.0807025,-0.129232,5,-0.00178568,11,-1.04293e-05,-3.88863,0.386199,0.152771,-0.775328,0.0807025,
2,0,0,1,0,5805.81,0.0795034,0.0791628,-0.129096,5,-0.0020079,11,-1.02196e-05,-3.88909,0.378653,0.155815,-0.782654,0.0791628,
2,0,0,1,0,5807.31,0.0780052,0.0776613,-0.12745,5,-0.00222838,11,-9.89794e-06,-3.89466,0.438113,0.134668,-0.671023,0.0776613,
2,0,0,1,0,5808.81,0.076507,0.0761819,-0.12638,5,-0.00244729,11,-9.62786e-06,-3.89832,0.366375,0.161037,-0.793769,0.0761819,
2,0,0,1,0,5810.31,0.0750088,0.0747504,-0.125341,5,-0.00266381,11,-9.36927e-06,-3.90191,0.389904,0.151319,-0.74023,0.0747504,
2,0,0,1,0,5811.8,0.0735106,0.0731884,-0.124234,5,-0.00287888,11,-9.09249e-06,-3.90576,0.311701,0.189284,-0.912406,0.0731884,
2,0,0,1,0,5813.3,0.0720124,0.0717134,-0.123007,5,-0.00309221,11,-8.82127e-06,-3.91007,0.491133,0.12013,-0.576519,0.0717134,
2,0,0,1,0,5814.8,0.0705142,0.0702267,-0.121344,5,-0.0033036,11,-8.52157e-06,-3.91598,0.328763,0.17946,-0.851379,0.0702267,
2,0,0,1,0,5816.3,0.069016,0.0686975,-0.120229,5,-0.00351275,11,-8.2594e-06,-3.91999,0.39128,0.150787,-0.71219,0.0686975,
2,0,0,1,0,5817.8,0.0675178,0.0672194,-0.119481,5,-0.00372046,11,-8.03142e-06,-3.9227,0.414061,0.142491,-0.661372,0.0672194,
2,0,0,1,0,5819.3,0.0660196,0.0657401,-0.118505,5,-0.00392652,11,-7.79056e-06,-3.92626,0.320577,0.184043,-0.845096,0.0657401,
2,0,0,1,0,5820.79,0.0645214,0.0642216,-0.11675,5,-0.00413062,11,-7.49789e-06,-3.93274,0.3151,0.187242,-0.850914,0.0642216,
2,0,0,1,0,5822.29,0.0630233,0.0627646,-0.115154,5,-0.0043325,11,-7.22762e-06,-3.93872,0.319683,0.184558,-0.833527,0.0627646,
2,0,0,1,0,5823.79,0.0615251,0.061225,-0.11423,5,-0.00453248,11,-6.99373e-06,-3.94222,0.328387,0.179666,-0.801728,0.061225,
2,0,0,1,0,5825.29,0.0600269,0.0597329,-0.112634,5,-0.0047307,11,-6.72796e-06,-3.94833,0.305327,0.193235,-0.852884,0.0597329,
2,0,0,1,0,5826.79,0.0585287,0.0582028,-0.111782,5,-0.00492728,11,-6.506e-06,-3.95163,0.283904,0.207816,-0.902791,0.0582028,
2,0,0,1,0,5828.28,0.0570305,0.0566885,-0.110608,5,-0.00512219,11,-6.27022e-06,-3.95621,0.360843,0.163506,-0.705832,0.0566885,
2,0,0,1,0,5829.78,0.0555323,0.0552315,-0.109118,5,-0.00531476,11,-6.02675e-06,-3.9621,0.314409,0.187654,-0.805888,0.0552315,
2,0,0,1,0,5831.28,0.0540342,0.0537205,-0.108588,5,-0.00550628,11,-5.8334e-06,-3.96422,0.384114,0.1536,-0.649239,0.0537205,
2,0,0,1,0,5832.78,0.052536,0.0522105,-0.107968,5,-0.0056965,11,-5.63705e-06,-3.96671,0.353216,0.167037,-0.700021,0.0522105,
2,0,0,1,0,5834.28,0.0510378,0.0506867,-0.106815,5,-0.00588495,11,-5.41407e-06,-3.97137,0.398734,0.147968,-0.615383,0.0506867,
2,0,0,1,0,5835.78,0.0495396,0.0492519,-0.105598,5,-0.00607178,11,-5.20091e-06,-3.97634,0.38118,0.154783,-0.636874,0.0492519,
2,0,0,1,0,5837.27,0.0480414,0.0477186,-0.104944,5,-0.00625776,11,-5.00777e-06,-3.97904,0.704879,0.0837023,-0.342019,0.0477186,
2,0,0,1,0,5838.77,0.0465432,0.0462202,-0.103898,5,-0.00644259,11,-4.80218e-06,-3.98339,0.43149,0.136735,-0.556632,0.0462202,
2,0,0,1,0,5840.27,0.045045,0.0447207,-0.103913,5,-0.00662648,11,-4.64708e-06,-3.98333,0.579121,0.101879,-0.412249,0.0447207,
2,0,0,1,0,5841.77,0.0435468,0.0432924,-0.102832,5,-0.00680908,11,-4.45186e-06,-3.98787,1.10876,0.0532124,-0.214744,0.0432924,
2,0,0,1,0,5843.27,0.0420486,0.0417378,-0.102529,5,-0.00699123,11,-4.27935e-06,-3.98915,1.17547,0.0501928,-0.200365,0.0417378,
2,0,0,1,0,5844.76,0.0405504,0.0402321,-0.103055,5,-0.00717288,11,-4.14611e-06,-3.98693,0.775648,0.0760654,-0.303952,0.0402321,
2,0,0,1,0,5846.26,0.0390522,0.0387368,-0.101168,5,-0.00735406,11,-3.91893e-06,-3.99496,1.59215,0.0370569,-0.147592,0.0387368,
2,0,0,1,0,5847.76,0.037554,0.0372575,-0.101232,5,-0.00753454,11,-3.77165e-06,-3.99468,1.758,0.0335609,-0.132956,0.0372575,
2,0,0,1,0,5849.26,0.0360558,0.0357561,-0.101368,5,-0.00771441,11,-3.62452e-06,-3.9941,1.01906,0.0578965,-0.230658,0.0357561,
2,0,0,1,0,5850.76,0.0345576,0.0342789,-0.101166,5,-0.00789421,11,-3.46787e-06,-3.99496,0.829207,0.0711523,-0.282345,0.0342789,
2,0,0,1,0,5852.26,0.0330594,0.0327805,-0.101185,5,-0.00807399,11,-3.31689e-06,-3.99488,1.07526,0.0548704,-0.216974,0.0327805,
2,0,0,1,0,5853.75,0.0315613,0.0312398,-0.100478,5,-0.0082535,11,-3.13891e-06,-3.99793,10.3753,0.00568659,-0.022489,0.0312398,
2,0,0,1,0,5855.25,0.0300631,0.0297658,-0.101225,5,-0.00843272,11,-3.01306e-06,-3.99471,6.36215,0.00927359,-0.0365366,0.0297658,
2,0,0,1,0,5856.75,0.0285649,0.0282537,-0.101556,5,-0.00861233,11,-2.86934e-06,-3.99329,-2.45413,-0.0240411,0.0949566,0.0282537,
2,0,0,1,0,5858.25,0.0270667,0.0267521,-0.101186,5,-0.00879231,11,-2.70694e-06,-3.99488,-1.67896,-0.0351409,0.138855,0.0267521,
2,0,0,1,0,5859.75,0.0255685,0.0252432,-0.100985,5,-0.00897235,11,-2.54918e-06,-3.99574,-13.5285,-0.00436116,0.0172954,0.0252432,
2,0,0,1,0,5861.24,0.0240703,0.0237618,-0.101346,5,-0.00915242,11,-2.40817e-06,-3.99419,-1.21083,-0.0487268,0.193342,0.0237618,
2,0,0,1,0,5862.74,0.0225722,0.0222242,-0.10178,5,-0.0093331,11,-2.26199e-06,-3.99234,-1.1818,-0.049924,0.198809,0.0222242,
2,0,0,1,0,5864.24,0.021074,0.0208065,-0.102471,5,-0.0095144,11,-2.13207e-06,-3.9894,-1.4601,-0.0404082,0.161692,0.0208065,
2,0,0,1,0,5865.74,0.0195758,0.0192647,-0.102472,5,-0.00969624,11,-1.97409e-06,-3.98939,-0.877452,-0.0672401,0.270559,0.0192647,
2,0,0,1,0,5867.24,0.0180776,0.0177865,-0.102517,5,-0.00987835,11,-1.82342e-06,-3.9892,-0.541962,-0.108864,0.438562,0.0177865,
2,0,0,1,0,5868.74,0.0165794,0.0162934,-0.103773,5,-0.0100613,11,-1.69081e-06,-3.98392,-0.790288,-0.0746564,0.302206,0.0162934,
2,0,0,1,0,5870.23,0.0150812,0.0147632,-0.104976,5,-0.0102452,11,-1.54978e-06,-3.97891,-0.529023,-0.111526,0.454282,0.0147632,
2,0,0,1,0,5871.73,0.013583,0.0132723,-0.104264,5,-0.01043,11,-1.38382e-06,-3.98186,-0.813071,-0.0725644,0.296438,0.0132723,
2,0,0,1,0,5873.23,0.0120848,0.0117559,-0.10528,5,-0.0106152,11,-1.23767e-06,-3.97765,-0.506964,-0.116379,0.479421,0.01175589,
2,0,0,1,0,5874.73,0.0105866,0.0102787,-0.105787,5,-0.0108013,11,-1.08736e-06,-3.97557,-0.495068,-0.119176,0.492646,0.0102787,
2,0,0,1,0,5876.23,0.00908843,0.00880157,-0.106765,5,-0.0109888,11,-9.39704e-07,-3.97157,-0.455921,-0.129408,0.539932,0.00880157,
2,0,0,1,0,5877.72,0.00759024,0.00725655,-0.107415,5,-0.0111774,11,-7.79464e-07,-3.96893,-0.839179,-0.0703068,0.295129,0.00725655,
2,0,0,1,0,5879.22,0.00609203,0.00580168,-0.108379,5,-0.0113671,11,-6.28782e-07,-3.96505,-0.381839,-0.154515,0.653079,0.00580168,
2,0,0,1,0,5880.72,0.00459384,0.00427571,-0.109518,5,-0.0115575,11,-4.68266e-07,-3.96052,-0.469111,-0.12577,0.535019,0.00427571,
2,0,0,1,0,5882.22,0.00309563,0.00277952,-0.109842,5,-0.0117497,11,-3.05308e-07,-3.95923,-0.378814,-0.155749,0.67001,0.00277952,
2,0,0,1,0,5883.72,0.00159744,0.00122703,-0.111208,5,-0.0119459,11,-1.36456e-07,-3.95386, , , ,0.00122703,
2,0,0,1,0,5885.12,0.000199235,-0.000176407,-0.111973,5,-0.0121281,11,1.97529e-08,-3.95089, , , ,-0.000176407,