File: Figure_codes/Fig_3-5/rawdata_trumpetplot_data/before 10th/20221101_1-115_002_TrumpetPlot_ParaChange_10_CV_C01_7.csv
mode,ox/red,error,control changes,counter inc.,time/s,control/V,Ewe/V,<I>/mA,cycle number,(Q-Qo)/C,I Range,P/W,log(|I|),Tafel slope mV/dec,alpha_eff,dI/d(E-IR),E-IR/V,
2,0,0,0,0,9815.79,2.44065e-05,0.000113685,-6.01047,8,0.0000000E+000,11,-6.833e-07,-2.22109, , , ,0.000113685,
2,0,0,1,0,9815.8,0.0012943,0.000896606,-2.50221,8,-6.62214e-05,11,-2.24349e-06,-2.60168, , , ,0.000896606,
2,0,0,1,0,9815.82,0.00279784,0.00245836,-0.0538299,8,-8.78974e-05,11,-1.32333e-07,-4.26898,-0.0107078,-5.51002,1285.25,0.002458357,
2,1,0,1,0,9815.84,0.00429425,0.00396044,1.24533,8,-7.56022e-05,11,4.93204e-06,-2.90472,0.00814511,7.24361,724.26,0.00396044,
2,1,0,1,0,9815.86,0.00579065,0.00547074,1.99952,8,-4.45999e-05,11,1.09389e-05,-2.69907,0.00846563,6.96936,430.753,0.00547074,
2,1,0,1,0,9815.88,0.00729419,0.00701443,2.47552,8,-2.19983e-06,11,1.73644e-05,-2.60633,0.0195319,3.02071,269.214,0.007014432,
2,1,0,1,0,9815.9,0.00878347,0.00844428,2.78236,8,4.68863e-05,11,2.3495e-05,-2.55559,0.0351897,1.67663,174.642,0.00844428,
2,1,0,1,0,9815.92,0.010287,0.00995899,2.98701,8,0.000101231,11,2.97476e-05,-2.52476,0.0581742,1.0142,115.298,0.00995899,
2,1,0,1,0,9815.94,0.0117905,0.011503,3.11843,8,0.000158716,11,3.58713e-05,-2.50606,0.0862657,0.683933,82.2598,0.011503,
2,1,0,1,0,9815.95,0.013278,0.0129601,3.21077,8,0.000217626,11,4.1612e-05,-2.49339,0.114759,0.514123,64.2083,0.0129601,
2,1,0,1,0,9815.97,0.0147816,0.0144851,3.28928,8,0.00027883,11,4.76455e-05,-2.4829,0.146911,0.401603,51.4221,0.0144851,
2,1,0,1,0,9815.99,0.0162851,0.0160097,3.35495,8,0.00034149,11,5.37116e-05,-2.47431,0.188436,0.313104,40.8378,0.01600967,
2,1,0,1,0,9816.01,0.0177744,0.0174791,3.40706,8,0.00040452,11,5.95522e-05,-2.46762,0.233754,0.252402,33.5172,0.0174791,
2,1,0,1,0,9816.03,0.0192779,0.0189491,3.44645,8,0.000469023,11,6.53073e-05,-2.46263,0.269625,0.218822,29.4849,0.0189491,
2,1,0,1,0,9816.05,0.0207743,0.0204641,3.49452,8,0.000534057,11,7.15121e-05,-2.45661,0.265192,0.22248,30.3471,0.0204641,
2,1,0,1,0,9816.07,0.0222707,0.0219792,3.54136,8,0.000599938,11,7.78363e-05,-2.45083,0.290775,0.202906,28.0438,0.02197923,
2,1,0,1,0,9816.09,0.0237743,0.0234841,3.58088,8,0.000667026,11,8.40937e-05,-2.44601,0.336265,0.175457,24.5355,0.0234841,
2,1,0,1,0,9816.1,0.0252636,0.0249753,3.62094,8,0.000734098,11,9.04339e-05,-2.44118,0.351153,0.168018,23.7748,0.0249753,
2,1,0,1,0,9816.12,0.0267671,0.0264354,3.66622,8,0.000802629,11,9.69182e-05,-2.43578,0.301285,0.195828,28.0233,0.0264354,
2,1,0,1,0,9816.14,0.0282706,0.0279634,3.72064,8,0.000872016,11,0.000104042,-2.42938,0.276988,0.213005,30.8768,0.0279634,
2,1,0,1,0,9816.16,0.0297581,0.0294683,3.76523,8,0.000941575,11,0.000110955,-2.42421,0.287009,0.205568,30.1509,0.0294683,
2,1,0,1,0,9816.18,0.0312617,0.0309377,3.80469,8,0.00101274,11,0.000117708,-2.41968,0.280959,0.209995,31.1928,0.0309377,
2,1,0,1,0,9816.2,0.0327652,0.0324456,3.85167,8,0.00108471,11,0.00012497,-2.41435,0.252078,0.234054,35.2239,0.0324456,
2,1,0,1,0,9816.22,0.0342545,0.0339558,3.90776,8,0.00115686,11,0.000132691,-2.40807,0.242012,0.24379,37.1387,0.0339558,
2,1,0,1,0,9816.24,0.035758,0.0354474,3.95887,8,0.00123086,11,0.000140332,-2.40243,0.257515,0.229113,35.3399,0.0354474,
2,1,0,1,0,9816.25,0.0372544,0.0369552,4.01284,8,0.00130546,11,0.000148295,-2.39655,0.246946,0.238918,37.4211,0.03695517,
2,1,0,1,0,9816.27,0.0387508,0.0384015,4.06194,8,0.00138092,11,0.000155985,-2.39127,0.228308,0.258423,41.0866,0.0384015,
2,1,0,1,0,9816.29,0.0402544,0.0399431,4.12412,8,0.00145798,11,0.00016473,-2.38467,0.211077,0.279519,45.0416,0.0399431,
2,1,0,1,0,9816.31,0.0417437,0.041435,4.18997,8,0.00153545,11,0.000173611,-2.37779,0.225757,0.261344,42.7547,0.041435,
2,1,0,1,0,9816.33,0.0432472,0.0429841,4.25481,8,0.00161496,11,0.000182889,-2.37112,0.236912,0.249037,41.3556,0.0429841,
2,1,0,1,0,9816.35,0.0447507,0.0444982,4.31451,8,0.00169557,11,0.000191988,-2.36507,0.233514,0.252662,42.6184,0.0444982,
2,1,0,1,0,9816.37,0.0462382,0.0459447,4.38317,8,0.00177658,11,0.000201383,-2.35821,0.21949,0.268805,46.018,0.0459447,
2,1,0,1,0,9816.39,0.0477418,0.0473937,4.4538,8,0.00185977,11,0.000211082,-2.35127,0.222769,0.264848,46.1346,0.0473937,
2,1,0,1,0,9816.4,0.0492453,0.0489868,4.53144,8,0.00194437,11,0.000221981,-2.34376,0.231315,0.255063,45.0879,0.0489868,
2,1,0,1,0,9816.42,0.0507346,0.0504282,4.60348,8,0.00202941,11,0.000232145,-2.33691,0.228694,0.257987,46.3936,0.0504282,
2,1,0,1,0,9816.44,0.0522381,0.0519327,4.68328,8,0.00211669,11,0.000243215,-2.32945,0.211003,0.279616,51.1295,0.0519327,
2,1,0,1,0,9816.46,0.0537345,0.0534262,4.77313,8,0.00220504,11,0.00025501,-2.3212,0.210423,0.280388,52.1021,0.0534262,
2,1,0,1,0,9816.48,0.0552309,0.0549294,4.85415,8,0.00229496,11,0.000266635,-2.31389,0.211811,0.27855,52.5804,0.0549294,
2,1,0,1,0,9816.5,0.0567345,0.0564247,4.92203,8,0.00238683,11,0.000277724,-2.30786,0.207408,0.284463,54.6653,0.0564247,
2,1,0,1,0,9816.52,0.0582237,0.0579469,5.00784,8,0.00247911,11,0.000290189,-2.30035,0.202232,0.291744,57.0334,0.0579469,
2,1,0,1,0,9816.53,0.0597273,0.0594037,5.08822,8,0.00257401,11,0.000302259,-2.29343,0.197213,0.299169,59.3873,0.0594037,
2,1,0,1,0,9816.55,0.0612308,0.0609105,5.17488,8,0.00267057,11,0.000315205,-2.2861,0.20635,0.285923,57.6794,0.0609105,
2,1,0,1,0,9816.57,0.0627183,0.0624222,5.25946,8,0.00276767,11,0.000328307,-2.27906,0.212052,0.278234,57.0926,0.0624222,
2,1,0,1,0,9816.59,0.0642219,0.0639372,5.33129,8,0.00286728,11,0.000340868,-2.27317,0.211603,0.278824,58.1542,0.0639372,
2,1,0,1,0,9816.61,0.0657254,0.0654557,5.41472,8,0.00296849,11,0.000354424,-2.26642,0.208992,0.282307,59.7555,0.0654557,
2,1,0,1,0,9816.63,0.0672147,0.0669189,5.51138,8,0.0030703,11,0.000368816,-2.25874,0.225741,0.261362,56.1714,0.0669189,
2,1,0,1,0,9816.65,0.0687182,0.0683996,5.59136,8,0.00317482,11,0.000382447,-2.25248,0.254502,0.231825,50.583,0.0683996,
2,1,0,1,0,9816.67,0.0702146,0.0698913,5.6685,8,0.00328022,11,0.000396179,-2.24653,0.257807,0.228854,50.6916,0.0698913,
2,1,0,1,0,9816.68,0.071711,0.0713748,5.75091,8,0.0033871,11,0.00041047,-2.24026,0.249302,0.23666,53.137,0.0713748,
2,1,0,1,0,9816.7,0.0732146,0.0729281,5.83573,8,0.00349611,11,0.000425589,-2.2339,0.26449,0.223071,50.8162,0.0729281,
2,1,0,1,0,9816.72,0.0747038,0.074421,5.92087,8,0.00360548,11,0.000440637,-2.22761,0.271531,0.217286,50.1533,0.074421,
2,1,0,1,0,9816.74,0.0762074,0.0758682,5.9952,8,0.00371748,11,0.000454845,-2.2222,0.27919,0.211325,49.4293,0.0758682,
2,1,0,1,0,9816.76,0.0777109,0.0773989,6.0728,8,0.0038309,11,0.000470028,-2.21661,0.276409,0.213451,50.5696,0.0773989,
2,1,0,1,0,9816.78,0.0791984,0.0789245,6.15425,8,0.00394454,11,0.000485722,-2.21082,0.271947,0.216954,52.0144,0.0789245,
2,1,0,1,0,9816.8,0.0807019,0.0804185,6.22184,8,0.00406086,11,0.00050035,-2.20608,0.285423,0.206711,50.1131,0.08041846,
2,1,0,1,0,9816.82,0.0822055,0.0819127,6.29162,8,0.00417854,11,0.000515363,-2.20124,0.29506,0.199959,49.0804,0.0819127,
2,1,0,1,0,9816.83,0.0836947,0.0833903,6.36018,8,0.00429619,11,0.000530377,-2.19653,0.291799,0.202194,50.2202,0.0833903,
2,1,0,1,0,9816.85,0.0851983,0.0849268,6.42946,8,0.0044165,11,0.000546033,-2.19183,0.299225,0.197176,49.4832,0.0849268,
2,1,0,1,0,9816.87,0.0866947,0.0863897,6.49943,8,0.00453754,11,0.000561484,-2.18712,0.318807,0.185065,46.9387,0.0863897,
2,1,0,1,0,9816.89,0.0881911,0.0878993,6.56809,8,0.00465983,11,0.000577331,-2.18256,0.33935,0.173862,44.5641,0.0878993,
2,1,0,1,0,9816.91,0.0896946,0.0893946,6.6286,8,0.00478399,11,0.000592561,-2.17858,0.337666,0.174729,45.271,0.0893946,
2,1,0,1,0,9816.93,0.0911839,0.0908067,6.70154,8,0.00490808,11,0.000608545,-2.17383,0.321441,0.183549,48.0455,0.09080673,
2,1,0,1,0,9816.95,0.0926857,0.0923259,6.77555,8,0.00503489,11,0.000625558,-2.16906,0.329148,0.17925,47.4139,0.0923259,
2,1,0,1,0,9816.97,0.0941892,0.0938815,6.84752,8,0.00516308,11,0.000642855,-2.16447,0.341967,0.172531,46.1187,0.0938815,
2,1,0,1,0,9816.98,0.0956785,0.0953584,6.92152,8,0.00529121,11,0.000660025,-2.1598,0.340381,0.173335,46.8348,0.0953584,
2,1,0,1,0,9817,0.097182,0.0968666,6.99693,8,0.00542209,11,0.000677769,-2.15509,0.320239,0.184237,50.343,0.0968666,
2,1,0,1,0,9817.02,0.0986856,0.0984096,7.08098,8,0.00555444,11,0.000696836,-2.14991,0.31175,0.189254,52.2965,0.09840963,
2,1,0,1,0,9817.04,0.100175,0.0999359,7.16774,8,0.00568691,11,0.000716315,-2.14462,0.317485,0.185836,51.9066,0.0999359,
2,1,0,1,0,9817.06,0.101678,0.10136,7.24235,8,0.00582234,11,0.000734082,-2.14012,0.290497,0.2031,57.4339,0.10136,
2,1,0,1,0,9817.08,0.103175,0.102857,7.33626,8,0.00595854,11,0.000754586,-2.13453,0.253802,0.232465,66.6525,0.102857,
2,1,0,1,0,9817.1,0.104671,0.104357,7.44064,8,0.00609658,11,0.000776483,-2.12839,0.222751,0.26487,76.9193,0.104357,
2,1,0,1,0,9817.12,0.106175,0.105852,7.55536,8,0.00623756,11,0.000799747,-2.12174,0.218904,0.269525,79.3758,0.105852,
2,1,0,1,0,9817.13,0.107662,0.107377,7.66705,8,0.00637918,11,0.000823267,-2.11537,0.218924,0.2695,80.6601,0.107377,
2,1,0,1,0,9817.15,0.109166,0.108848,7.78229,8,0.00652443,11,0.000847086,-2.10889,0.212679,0.277414,84.4021,0.108848,
2,1,0,1,0,9817.17,0.110669,0.110349,7.90703,8,0.00667206,11,0.000872536,-2.10199,0.201084,0.29341,90.6892,0.110349,
2,1,0,1,0,9817.19,0.112159,0.111857,8.04346,8,0.0068206,11,0.000899717,-2.09456,0.197292,0.299049,93.9993,0.111857,
2,1,0,1,0,9817.21,0.113662,0.113358,8.19199,8,0.00697335,11,0.000928625,-2.08661,0.199317,0.296011,94.6548,0.113358,
2,1,0,1,0,9817.23,0.115166,0.114865,8.32999,8,0.00712876,11,0.000956824,-2.07936,0.196256,0.300627,97.8548,0.114865,
2,1,0,1,0,9817.25,0.116655,0.116346,8.48509,8,0.00728527,11,0.000987203,-2.07134,0.191891,0.307466,101.902,0.116346,
2,1,0,1,0,9817.27,0.118158,0.117867,8.64769,8,0.00744645,11,0.00101927,-2.0631,0.195112,0.302391,102.043,0.117867,
2,1,0,1,0,9817.28,0.119655,0.119364,8.81164,8,0.00760978,11,0.00105179,-2.05494,0.198809,0.296767,102.012,0.119364,
2,1,0,1,0,9817.3,0.121151,0.12085,8.96109,8,0.00777593,11,0.00108295,-2.04764,0.201923,0.29219,102.209,0.12085,
2,1,0,1,0,9817.32,0.122655,0.122374,9.13015,8,0.00794598,11,0.00111729,-2.03952,0.199814,0.295275,105.036,0.122374,
2,1,0,1,0,9817.34,0.124142,0.12383,9.28095,8,0.00811712,11,0.00114926,-2.03241,0.210832,0.279844,101.279,0.12383,
2,1,0,1,0,9817.36,0.125646,0.125379,9.43668,8,0.008293,11,0.00118316,-2.02518,0.215266,0.274079,100.779,0.125379,
2,1,0,1,0,9817.38,0.127149,0.126854,9.5755,8,0.00847176,11,0.00121469,-2.01884,0.226512,0.260471,97.3037,0.126854,
2,1,0,1,0,9817.4,0.128639,0.128336,9.72183,8,0.00865125,11,0.00124766,-2.01225,0.224132,0.263237,99.9039,0.1283358,
2,1,0,1,0,9817.42,0.130142,0.129806,9.8726,8,0.00883546,11,0.00128153,-2.00557,0.229675,0.256884,98.8804,0.129806,
2,1,0,1,0,9817.43,0.131646,0.131341,10.0128,8,0.0090225,11,0.0013151,-1.99944,0.249486,0.236487,92.2955,0.131341,
2,1,0,1,0,9817.45,0.133135,0.132811,10.145,8,0.00921005,11,0.00134736,-1.99375,0.266301,0.221554,87.6824,0.132811,
2,1,0,1,0,9817.47,0.134639,0.134325,10.2598,8,0.00940194,11,0.00137814,-1.98886,0.281796,0.209371,83.8779,0.134325,
2,1,0,1,0,9817.49,0.136135,0.13582,10.3909,8,0.00959519,11,0.00141128,-1.98335,0.296364,0.19908,80.685,0.13582,
2,1,0,1,0,9817.51,0.137631,0.137345,10.5107,8,0.00979068,11,0.00144359,-1.97837,0.320049,0.184347,75.5275,0.137345,
2,1,0,1,0,9817.53,0.139135,0.138843,10.617,8,0.00998938,11,0.0014741,-1.974,0.360608,0.163613,67.7305,0.138843,
2,1,0,1,0,9817.55,0.140622,0.140309,10.7126,8,0.0101878,11,0.00150308,-1.9701,0.395884,0.149033,62.3033,0.140309,
2,1,0,1,0,9817.56,0.142126,0.141814,10.8073,8,0.0103902,11,0.00153263,-1.96628,0.428249,0.13777,58.0717,0.141814,
2,1,0,1,0,9817.58,0.143629,0.143287,10.8987,8,0.0105944,11,0.00156164,-1.96263,0.526791,0.111999,47.5583,0.143287,
2,1,0,1,0,9817.6,0.145119,0.144843,10.9673,8,0.0107978,11,0.00158854,-1.9599,0.740472,0.0796789,34.036,0.144843,
2,1,0,1,0,9817.62,0.146622,0.146344,11.0071,8,0.0110044,11,0.00161083,-1.95833,1.12425,0.0524796,22.5136,0.146344,
2,1,0,1,0,9817.64,0.148126,0.147811,11.0388,8,0.0112116,11,0.00163166,-1.95708,2.54581,0.0231753,9.96125,0.147811,
2,1,0,1,0,9817.66,0.149615,0.1493,11.0404,8,0.0114169,11,0.00164832,-1.95702,-3.25893,-0.0181041,-7.77854,0.1493,
2,1,0,1,0,9817.68,0.151119,0.150785,11.0168,8,0.0116243,11,0.00166116,-1.95794,-0.793161,-0.0743859,-31.8573,0.150785,
2,1,0,1,0,9817.7,0.152615,0.152336,10.9533,8,0.0118297,11,0.00166858,-1.96046,-0.442066,-0.133464,-56.8173,0.152336,
2,1,0,1,0,9817.71,0.154111,0.153818,10.8405,8,0.0120334,11,0.00166746,-1.96495,-0.306228,-0.192667,-81.2434,0.153818,
2,1,0,1,0,9817.73,0.155615,0.1553,10.6872,8,0.0122359,11,0.00165972,-1.97114,-0.222951,-0.264632,-109.977,0.1553,
2,1,0,1,0,9817.75,0.157103,0.156808,10.4963,8,0.0124331,11,0.0016459,-1.97896,-0.165694,-0.356078,-145.181,0.156808,
2,1,0,1,0,9817.77,0.158606,0.158317,10.2482,8,0.0126283,11,0.00162247,-1.98935,-0.129251,-0.456476,-181.782,0.158317,
2,1,0,1,0,9817.79,0.16011,0.159819,9.93981,8,0.0128182,11,0.00158857,-2.00262,-0.107997,-0.546309,-211.153,0.159819,
2,1,0,1,0,9817.81,0.161599,0.161337,9.60433,8,0.0130001,11,0.00154953,-2.01753,-0.0927129,-0.636373,-237.493,0.161337,
2,1,0,1,0,9817.83,0.163102,0.162834,9.21847,8,0.0131772,11,0.00150108,-2.03534,-0.0790305,-0.746548,-267.584,0.162834,
2,1,0,1,0,9817.85,0.164606,0.164276,8.80721,8,0.0133467,11,0.00144681,-2.05516,-0.0729892,-0.808339,-276.872,0.164276,
2,1,0,1,0,9817.86,0.166095,0.165792,8.37476,8,0.0135066,11,0.00138847,-2.07703,-0.0662766,-0.890208,-290.489,0.165792,
2,1,0,1,0,9817.88,0.167599,0.167291,7.94301,8,0.0136599,11,0.00132879,-2.10001,-0.0637753,-0.925122,-286.636,0.167291,
2,1,0,1,0,9817.9,0.169095,0.168811,7.52861,8,0.0138045,11,0.00127091,-2.12329,-0.0633286,-0.931649,-273.671,0.168811,
2,1,0,1,0,9817.92,0.170592,0.170311,7.12999,8,0.0139414,11,0.00121431,-2.14691,-0.0617925,-0.954809,-265.752,0.170311,
2,1,0,1,0,9817.94,0.172095,0.171791,6.74162,8,0.0140717,11,0.00115815,-2.17124,-0.0644096,-0.916012,-241.705,0.171791,
2,1,0,1,0,9817.96,0.173583,0.173269,6.40388,8,0.0141938,11,0.0011096,-2.19356,-0.0687542,-0.858129,-215.048,0.173269,
2,1,0,1,0,9817.98,0.175086,0.174778,6.09794,8,0.0143111,11,0.00106578,-2.21482,-0.074457,-0.792403,-189.193,0.174778,
2,1,0,1,0,9818,0.17659,0.176307,5.82813,8,0.0144232,11,0.00102754,-2.23447,-0.0796337,-0.740892,-168.899,0.176307,
2,1,0,1,0,9818.01,0.178079,0.177799,5.58625,8,0.0145293,11,0.00099323,-2.25288,-0.0874747,-0.67448,-147.652,0.177799,
2,1,0,1,0,9818.03,0.179582,0.179283,5.37555,8,0.0146323,11,0.000963747,-2.26958,-0.0968186,-0.609387,-128.511,0.179283,
2,1,0,1,0,9818.05,0.181086,0.180837,5.19276,8,0.0147317,11,0.000939042,-2.2846,-0.108608,-0.543238,-110.496,0.180837,
2,1,0,1,0,9818.07,0.182575,0.182286,5.03191,8,0.0148269,11,0.000917248,-2.29827,-0.114524,-0.515178,-101.522,0.182286,
2,1,0,1,0,9818.09,0.184079,0.183791,4.89168,8,0.0149203,11,0.000899047,-2.31054,-0.120428,-0.489921,-93.7071,0.183791,
2,1,0,1,0,9818.11,0.185582,0.185318,4.75494,8,0.015011,11,0.000881174,-2.32286,-0.133333,-0.4425,-82.4268,0.185318,
2,1,0,1,0,9818.13,0.18707,0.186803,4.63979,8,0.0150985,11,0.000866729,-2.3335,-0.14352,-0.411092,-74.6477,0.186803,
2,1,0,1,0,9818.15,0.188573,0.18828,4.53681,8,0.0151848,11,0.00085419,-2.34325,-0.151962,-0.388255,-68.8829,0.18828,
2,1,0,1,0,9818.16,0.19007,0.189734,4.44371,8,0.0152689,11,0.000843121,-2.35225,-0.152482,-0.386931,-67.1494,0.189734,
2,1,0,1,0,9818.18,0.191566,0.191262,4.3506,8,0.0153511,11,0.000832105,-2.36145,-0.162966,-0.362039,-61.5604,0.191262,
2,1,0,1,0,9818.2,0.19307,0.192786,4.27406,8,0.0154322,11,0.000823979,-2.36916,-0.191593,-0.307945,-51.3777,0.192786,
2,1,0,1,0,9818.22,0.194559,0.194245,4.20859,8,0.0155109,11,0.000817499,-2.37586,-0.204101,-0.289073,-47.4209,0.194245,
2,1,0,1,0,9818.24,0.196063,0.195747,4.1398,8,0.0155893,11,0.000810352,-2.38302,-0.21208,-0.278197,-44.887,0.195747,
2,1,0,1,0,9818.26,0.197566,0.197258,4.0625,8,0.0156664,11,0.00080136,-2.39121,-0.230569,-0.255888,-40.6851,0.197258,
2,1,0,1,0,9818.28,0.199055,0.198758,4.01173,8,0.0157415,11,0.000797364,-2.39667,-0.26322,-0.224147,-35.1148,0.198758,
2,1,0,1,0,9818.3,0.200559,0.200247,3.9602,8,0.0158164,11,0.000793017,-2.40228,-0.310739,-0.18987,-29.3257,0.200247,
2,1,0,1,0,9818.31,0.202062,0.201777,3.90754,8,0.0158904,11,0.00078845,-2.4081,-0.304339,-0.193863,-29.5542,0.201777,
2,1,0,1,0,9818.33,0.20355,0.203232,3.85855,8,0.0159627,11,0.000784179,-2.41358,-0.320771,-0.183932,-27.773,0.203232,
2,1,0,1,0,9818.35,0.205053,0.2048,3.81168,8,0.0160349,11,0.000780632,-2.41888,-0.417468,-0.141328,-21.1505,0.2048,
2,1,0,1,0,9818.37,0.20655,0.206244,3.78139,8,0.016106,11,0.000779886,-2.42235,-0.418278,-0.141055,-20.8617,0.206244,
2,1,0,1,0,9818.39,0.208046,0.207767,3.75236,8,0.0161767,11,0.000779618,-2.4257,-0.398768,-0.147956,-21.6383,0.207767,
2,1,0,1,0,9818.41,0.20955,0.209287,3.7173,8,0.016247,11,0.000777982,-2.42977,-0.32792,-0.179922,-26.1435,0.209287,
2,1,0,1,0,9818.43,0.211039,0.210746,3.68309,8,0.0163159,11,0.000776198,-2.43379,-0.362365,-0.162819,-23.4372,0.210746,
2,1,0,1,0,9818.45,0.212543,0.212297,3.65616,8,0.0163849,11,0.000776192,-2.43697,-0.429642,-0.137324,-19.6137,0.212297,
2,1,0,1,0,9818.46,0.214046,0.213763,3.6298,8,0.0164535,11,0.000775915,-2.44012,-0.45784,-0.128866,-18.2703,0.2137628,
2,1,0,1,0,9818.48,0.215535,0.215263,3.61346,8,0.0165209,11,0.000777843,-2.44208,-0.430344,-0.1371,-19.2906,0.215263,
2,1,0,1,0,9818.5,0.217039,0.216734,3.58107,8,0.0165885,11,0.000776141,-2.44599,-0.480007,-0.122915,-17.205,0.216734,
2,1,0,1,0,9818.52,0.218543,0.218234,3.56411,8,0.0166556,11,0.000777812,-2.44805,-0.706694,-0.0834873,-11.6114,0.218234,
2,1,0,1,0,9818.54,0.22003,0.219726,3.55117,8,0.0167217,11,0.000780284,-2.44963,-0.705043,-0.0836828,-11.5752,0.219726,
2,1,0,1,0,9818.56,0.221534,0.221239,3.52888,8,0.0167882,11,0.000780726,-2.45236,-0.7007,-0.0842015,-11.5709,0.221239,
2,1,0,1,0,9818.58,0.22303,0.222744,3.50072,8,0.016854,11,0.000779764,-2.45584,-0.763842,-0.0772411,-10.5643,0.222744,
2,1,0,1,0,9818.59,0.224526,0.224222,3.48544,8,0.0169193,11,0.000781514,-2.45774,-0.952312,-0.0619545,-8.4399,0.2242223,
2,1,0,1,0,9818.61,0.22603,0.225755,3.46989,8,0.0169848,11,0.000783347,-2.45968,-1.1813,-0.0499451,-6.76229,0.225755,
2,1,0,1,0,9818.63,0.227519,0.227253,3.45286,8,0.0170493,11,0.000784674,-2.46182,-0.731424,-0.0806645,-10.8852,0.227253,
2,1,0,1,0,9818.65,0.229023,0.228771,3.43439,8,0.0171142,11,0.000785688,-2.46415,-0.879144,-0.0671107,-9.02004,0.228771,
2,1,0,1,0,9818.67,0.230526,0.230266,3.42029,8,0.0171787,11,0.000787575,-2.46594,-0.954025,-0.0618432,-8.28237,0.230266,
2,1,0,1,0,9818.69,0.232016,0.231747,3.41444,8,0.0172424,11,0.000791285,-2.46668,-0.999063,-0.0590553,-7.86535,0.231747,
2,1,0,1,0,9818.71,0.233519,0.233243,3.40371,8,0.0173066,11,0.000793894,-2.46805,-0.853832,-0.0691002,-9.17224,0.233243,
2,1,0,1,0,9818.73,0.235023,0.234725,3.38726,8,0.0173705,11,0.000795074,-2.47015,-0.733621,-0.080423,-10.6345,0.234725,
2,1,0,1,0,9818.74,0.23651,0.236214,3.37342,8,0.0174334,11,0.000796848,-2.47193,-0.762087,-0.077419,-10.2133,0.236214,
2,1,0,1,0,9818.76,0.238014,0.237766,3.36371,8,0.0174968,11,0.000799778,-2.47318,-1.02144,-0.0577616,-7.5814,0.237766,
2,1,0,1,0,9818.78,0.23951,0.239218,3.36158,8,0.0175597,11,0.000804148,-2.47346,-0.916376,-0.0643841,-8.43626,0.239218,
2,1,0,1,0,9818.8,0.241006,0.240705,3.34763,8,0.0176224,11,0.000805791,-2.47526,-0.776095,-0.0760217,-9.92371,0.240705,
2,1,0,1,0,9818.82,0.24251,0.242247,3.33074,8,0.0176852,11,0.000806861,-2.47746,-0.971073,-0.0607575,-7.90814,0.242247,
2,1,0,1,0,9818.84,0.243999,0.24371,3.33236,8,0.0177472,11,0.000812131,-2.47725,-1.85547,-0.0317978,-4.12692,0.24371,
2,1,0,1,0,9818.86,0.245503,0.245231,3.32926,8,0.0178096,11,0.000816439,-2.47765,-1.76817,-0.0333679,-4.31805,0.245231,
2,1,0,1,0,9818.88,0.247006,0.246751,3.3148,8,0.017872,11,0.00081793,-2.47954,-1.6597,-0.0355487,-4.58255,0.2467508,
2,1,0,1,0,9818.89,0.248496,0.248203,3.29314,8,0.0179335,11,0.000817367,-2.48239,-1.61613,-0.0365071,-4.69889,0.248203,
2,1,0,1,0,9818.91,0.249999,0.249717,3.28575,8,0.0179954,11,0.000820508,-2.48337,-1.94226,-0.030377,-3.90147,0.249717,
2,1,0,1,0,9818.93,0.251503,0.251205,3.27887,8,0.0180571,11,0.000823669,-2.48428,-8.25051,-0.00715108,-0.914899,0.251205,
2,1,0,1,0,9818.95,0.25299,0.252712,3.26563,8,0.0181181,11,0.000825264,-2.48603,-1.22341,-0.0482259,-6.15224,0.252712,
2,1,0,1,0,9818.97,0.254494,0.254192,3.25329,8,0.0181796,11,0.00082696,-2.48768,-1.23169,-0.0479016,-6.09827,0.254192,
2,1,0,1,0,9818.99,0.25599,0.255697,3.24919,8,0.0182405,11,0.000830809,-2.48823,-1.23915,-0.0476133,-6.04743,0.255697,
2,1,0,1,0,9819.01,0.257487,0.25726,3.24316,8,0.0183013,11,0.000834336,-2.48903,-1.19176,-0.0495066,-6.26794,0.25726,
2,1,0,1,0,9819.03,0.25899,0.258731,3.24348,8,0.0183624,11,0.00083919,-2.48899,-1.02774,-0.0574073,-7.251,0.258731,
2,1,0,1,0,9819.04,0.260479,0.260176,3.23574,8,0.0184227,11,0.000841862,-2.49003,-0.736475,-0.0801114,-10.1061,0.2601763,
2,1,0,1,0,9819.06,0.261983,0.261683,3.22107,8,0.0184833,11,0.000842898,-2.492,-0.850491,-0.0693717,-8.72864,0.261683,
2,1,0,1,0,9819.08,0.263486,0.263179,3.21877,8,0.0185439,11,0.000847113,-2.49231,-1.68747,-0.0349635,-4.38349,0.263179,
2,1,0,1,0,9819.1,0.264974,0.264667,3.21279,8,0.0186036,11,0.000850319,-2.49312,-1.30978,-0.0450458,-5.64259,0.264667,
2,1,0,1,0,9819.12,0.266477,0.266189,3.20563,8,0.0186639,11,0.000853305,-2.49409,-1.11248,-0.0530345,-6.62098,0.266189,
2,1,0,1,0,9819.14,0.267981,0.26772,3.19252,8,0.018724,11,0.000854702,-2.49587,-2.02058,-0.0291995,-3.63706,0.26772,
2,1,0,1,0,9819.16,0.26947,0.269189,3.18864,8,0.0187833,11,0.000858346,-2.49639,-3.3484,-0.0176203,-2.19117,0.269189,
2,1,0,1,0,9819.18,0.270974,0.270744,3.18483,8,0.0188432,11,0.000862275,-2.49691,-4.255,-0.013866,-1.71911,0.270744,
2,1,0,1,0,9819.19,0.27247,0.272169,3.17454,8,0.0189027,11,0.000864013,-2.49832,-1.62207,-0.0363732,-4.49668,0.272169,
2,1,0,1,0,9819.21,0.273967,0.2737,3.16201,8,0.018962,11,0.000865443,-2.50004,-2.21429,-0.0266451,-3.29395,0.2737,
2,1,0,1,0,9819.23,0.27547,0.275207,3.14863,8,0.0190214,11,0.000866525,-2.50188,-2.3839,-0.0247494,-3.05115,0.275207,
2,1,0,1,0,9819.25,0.276959,0.276687,3.14546,8,0.0190801,11,0.000870309,-2.50232,-2.43283,-0.0242516,-2.98002,0.2766872,
2,1,0,1,0,9819.27,0.278463,0.278179,3.14115,8,0.0191393,11,0.000873801,-2.50291,-1.09773,-0.0537472,-6.58233,0.278179,
2,1,0,1,0,9819.29,0.279967,0.279679,3.13217,8,0.0191984,11,0.000876003,-2.50415,-1.29313,-0.0456256,-5.58101,0.279679,
2,1,0,1,0,9819.31,0.281454,0.281201,3.119,8,0.0192566,11,0.000877065,-2.50598,-1.22796,-0.0480473,-5.86734,0.281201,
2,1,0,1,0,9819.33,0.282958,0.282688,3.11705,8,0.0193154,11,0.000881153,-2.50626,-1.24026,-0.0475706,-5.7894,0.282688,
2,1,0,1,0,9819.34,0.284461,0.284175,3.11432,8,0.0193741,11,0.000885011,-2.50664,-0.870773,-0.0677559,-8.23414,0.284175,
2,1,0,1,0,9819.36,0.28595,0.28565,3.11172,8,0.019432,11,0.000888864,-2.507,-0.72883,-0.0809516,-9.82133,0.28565,
2,1,0,1,0,9819.38,0.287454,0.287168,3.09632,8,0.0194904,11,0.000889163,-2.50915,-0.877779,-0.0672151,-8.13875,0.287168,
2,1,0,1,0,9819.4,0.28895,0.288644,3.09659,8,0.0195482,11,0.000893812,-2.50912,-1.42311,-0.0414584,-5.00394,0.288644,
2,1,0,1,0,9819.42,0.290447,0.290174,3.09322,8,0.0196061,11,0.000897574,-2.50959,-1.66774,-0.0353772,-4.25849,0.290174,
2,1,0,1,0,9819.44,0.29195,0.291659,3.08632,8,0.0196641,11,0.000900152,-2.51056,-1.41461,-0.0417077,-5.00859,0.291659,
2,1,0,1,0,9819.46,0.29344,0.293173,3.07165,8,0.0197213,11,0.000900526,-2.51263,-2.69289,-0.0219096,-2.62734,0.293173,
2,1,0,1,0,9819.48,0.294943,0.294683,3.06937,8,0.019779,11,0.000904489,-2.51295,-3.08612,-0.0191178,-2.28784,0.294683,
2,1,0,1,0,9819.49,0.296447,0.296152,3.06374,8,0.0198366,11,0.000907332,-2.51375,-349.917,-0.000168611,-0.0201188,0.296152,
2,1,0,1,0,9819.51,0.297934,0.297681,3.04956,8,0.0198935,11,0.000907794,-2.51576,-2.8741,-0.0205282,-2.4417,0.297681,
2,1,0,1,0,9819.53,0.299438,0.299195,3.03862,8,0.0199509,11,0.000909139,-2.51732,-0.02082,-2.83381,-297.769,0.299195,
2,1,0,1,0,9819.54,0.300012,0.299708,3.03872,8,0.0199722,11,0.000910731,-2.51731,0.000439065,134.376,4284.01,0.299708,
2,1,0,1,0,9819.55,0.298737,0.298459,0.570252,8,0.0199975,11,0.000170197,-3.24393,0.00525668,11.2238,1119.6,0.298459,
2,0,0,1,0,9819.57,0.29724,0.296967,-0.526893,8,0.0199962,11,-0.00015647,-3.27828,0.0438125,1.34665,573.451,0.296967,
2,0,0,1,0,9819.59,0.295744,0.295436,-0.96124,8,0.0199819,11,-0.000283985,-3.01717,-0.00641185,-9.20171,222.858,0.295436,
2,0,0,1,0,9819.61,0.29424,0.293932,-1.14647,8,0.0199619,11,-0.000336983,-2.94064,-0.0229924,-2.56606,104.756,0.293932,
2,0,0,1,0,9819.63,0.292751,0.292435,-1.24585,8,0.0199396,11,-0.000364331,-2.90453,-0.0449981,-1.31117,62.0997,0.292435,
2,0,0,1,0,9819.65,0.291248,0.290933,-1.33036,8,0.0199154,11,-0.000387044,-2.87603,-0.0642177,-0.91875,46.887,0.290933,
2,0,0,1,0,9819.67,0.289744,0.289424,-1.39122,8,0.01989,11,-0.000402652,-2.8566,-0.0796586,-0.740661,39.7135,0.289424,
2,0,0,1,0,9819.69,0.288257,0.287932,-1.44257,8,0.0198637,11,-0.000415362,-2.84086,-0.0939021,-0.628314,34.966,0.287932,
2,0,0,1,0,9819.7,0.286753,0.28648,-1.4794,8,0.0198362,11,-0.00042382,-2.82991,-0.108963,-0.541466,31.2379,0.28648,
2,0,0,1,0,9819.72,0.285249,0.284954,-1.52032,8,0.019808,11,-0.00043322,-2.81807,-0.111035,-0.531362,31.5936,0.284954,
2,0,0,1,0,9819.74,0.28376,0.283495,-1.56176,8,0.0197792,11,-0.000442752,-2.80638,-0.124714,-0.473083,28.8552,0.283495,
2,0,0,1,0,9819.76,0.282257,0.281927,-1.60062,8,0.0197493,11,-0.000451257,-2.79571,-0.158428,-0.372408,23.2441,0.281927,
2,0,0,1,0,9819.78,0.28076,0.280416,-1.63951,8,0.0197189,11,-0.000459743,-2.78529,-0.179439,-0.328803,21.0556,0.280416,
2,0,0,1,0,9819.8,0.279264,0.278977,-1.66734,8,0.0196879,11,-0.000465148,-2.77798,-0.189596,-0.311188,20.3383,0.278977,
2,0,0,1,0,9819.82,0.27776,0.277461,-1.70425,8,0.0196561,11,-0.000472862,-2.76847,-0.200371,-0.294454,19.5551,0.277461,
2,0,0,1,0,9819.84,0.276271,0.275978,-1.73987,8,0.019624,11,-0.000480165,-2.75948,-0.21289,-0.277138,18.8052,0.275978,
2,0,0,1,0,9819.85,0.274767,0.274427,-1.77216,8,0.019591,11,-0.00048633,-2.7515,-0.256281,-0.230216,15.8573,0.274427,
2,0,0,1,0,9819.87,0.273264,0.272937,-1.79344,8,0.0195575,11,-0.000489496,-2.74631,-0.244922,-0.240893,16.903,0.272937,
2,0,0,1,0,9819.89,0.271776,0.27147,-1.8259,8,0.0195239,11,-0.000495677,-2.73852,-0.218717,-0.269756,19.1889,0.27147,
2,0,0,1,0,9819.91,0.270273,0.269956,-1.85846,8,0.0194893,11,-0.000501703,-2.73085,-0.246149,-0.239692,17.339,0.269956,
2,0,0,1,0,9819.93,0.268769,0.268414,-1.88288,8,0.0194541,11,-0.000505393,-2.72518,-0.282838,-0.2086,15.2658,0.268414,
2,0,0,1,0,9819.95,0.26728,0.26698,-1.89958,8,0.019419,11,-0.00050715,-2.72134,-0.261403,-0.225705,16.7469,0.26698,
2,0,0,1,0,9819.97,0.265777,0.26547,-1.92609,8,0.019383,11,-0.00051132,-2.71532,-0.25565,-0.230785,17.3557,0.26547,
2,0,0,1,0,9819.98,0.26428,0.264005,-1.95379,8,0.0193468,11,-0.000515811,-2.70912,-0.25594,-0.230523,17.5285,0.264005,
2,0,0,1,0,9820,0.262784,0.262473,-1.97321,8,0.01931,11,-0.000517914,-2.70483,-0.285722,-0.206495,15.8711,0.262473,
2,0,0,1,0,9820.02,0.26128,0.261006,-1.99193,8,0.0192727,11,-0.000519906,-2.70073,-0.283174,-0.208352,16.2291,0.261006,
2,0,0,1,0,9820.04,0.259791,0.259465,-2.01051,8,0.0192354,11,-0.000521659,-2.69669,-0.288248,-0.204685,16.1682,0.259465,
2,0,0,1,0,9820.06,0.258287,0.257968,-2.03597,8,0.0191973,11,-0.000525214,-2.69123,-0.268916,-0.219399,17.4463,0.257968,
2,0,0,1,0,9820.08,0.256786,0.256438,-2.05941,8,0.0191586,11,-0.000528111,-2.68626,-0.382199,-0.15437,12.3974,0.2564376,
2,0,0,1,0,9820.1,0.255296,0.254972,-2.08322,8,0.01912,11,-0.000531163,-2.68126,-0.470818,-0.125314,10.191,0.254972,
2,0,0,1,0,9820.12,0.253793,0.253471,-2.09708,8,0.0190807,11,-0.000531547,-2.67839,-0.434708,-0.135723,11.1259,0.253471,
2,0,0,1,0,9820.13,0.252289,0.251983,-2.12162,8,0.019041,11,-0.000534612,-2.67333,-0.382037,-0.154435,12.7586,0.251983,
2,0,0,1,0,9820.15,0.2508,0.250505,-2.14329,8,0.0190013,11,-0.000536904,-2.66892,-0.486463,-0.121284,10.1551,0.250505,
2,0,0,1,0,9820.17,0.249296,0.249,-2.16457,8,0.0189608,11,-0.000538977,-2.66463,-0.527404,-0.111869,9.4378,0.249,
2,0,0,1,0,9820.19,0.2478,0.247472,-2.18044,8,0.0189202,11,-0.000539599,-2.66146,-0.465139,-0.126844,10.7991,0.247472,
2,0,0,1,0,9820.21,0.246304,0.245967,-2.20454,8,0.0188793,11,-0.000542246,-2.65668,-0.344919,-0.171055,14.6893,0.245967,
2,0,0,1,0,9820.23,0.2448,0.244506,-2.23247,8,0.0188377,11,-0.000545853,-2.65121,-0.337711,-0.174706,15.1422,0.244506,
2,0,0,1,0,9820.25,0.243313,0.242989,-2.24488,8,0.0187961,11,-0.000545482,-2.64881,-0.406172,-0.145259,12.6673,0.242989,
2,0,0,1,0,9820.27,0.241809,0.241498,-2.25197,8,0.0187539,11,-0.000543846,-2.64744,-0.35886,-0.16441,14.4778,0.241498,
2,0,0,1,0,9820.28,0.240306,0.239992,-2.27185,8,0.0187113,11,-0.000545227,-2.64362,-0.333729,-0.17679,15.6985,0.239992,
2,0,0,1,0,9820.3,0.238816,0.238485,-2.29583,8,0.0186688,11,-0.000547522,-2.63906,-0.36782,-0.160405,14.3509,0.238485,
2,0,0,1,0,9820.32,0.237313,0.237029,-2.3085,8,0.0186255,11,-0.000547181,-2.63667,-0.418052,-0.141131,12.7167,0.237029,
2,0,0,1,0,9820.34,0.235809,0.235492,-2.32339,8,0.0185818,11,-0.000547139,-2.63388,-0.416503,-0.141656,12.882,0.235492,
2,0,0,1,0,9820.36,0.23432,0.234045,-2.33896,8,0.0185383,11,-0.000547422,-2.63098,-0.481147,-0.122624,11.2644,0.234045,
2,0,0,1,0,9820.38,0.232816,0.232477,-2.36065,8,0.018494,11,-0.000548795,-2.62697,-0.446962,-0.132002,12.1913,0.232477,
2,0,0,1,0,9820.4,0.23132,0.231001,-2.38729,8,0.0184495,11,-0.000551466,-2.62209,-0.545621,-0.108134,10.0698,0.231001,
2,0,0,1,0,9820.42,0.229824,0.229524,-2.40562,8,0.0184046,11,-0.000552148,-2.61877,-0.641643,-0.0919515,8.62972,0.229524,
2,0,0,1,0,9820.43,0.22832,0.228012,-2.42307,8,0.0183593,11,-0.000552488,-2.61563,-0.584646,-0.100916,9.53494,0.228012,
2,0,0,1,0,9820.45,0.226833,0.226522,-2.44264,8,0.018314,11,-0.000553312,-2.61214,-0.434028,-0.135936,12.9418,0.226522,
2,0,0,1,0,9820.47,0.225329,0.225048,-2.46082,8,0.018268,11,-0.000553801,-2.60892,-0.48684,-0.12119,11.6409,0.2250475,
2,0,0,1,0,9820.49,0.223825,0.22351,-2.48213,8,0.0182215,11,-0.000554781,-2.60518,-0.532365,-0.110826,10.7195,0.22351,
2,0,0,1,0,9820.51,0.222336,0.222044,-2.4996,8,0.0181753,11,-0.000555022,-2.60213,-0.451751,-0.130603,12.7287,0.222044,
2,0,0,1,0,9820.53,0.220833,0.220517,-2.52153,8,0.0181282,11,-0.00055604,-2.59834,-0.365038,-0.161627,15.8866,0.220517,
2,0,0,1,0,9820.55,0.219329,0.219005,-2.54912,8,0.0180806,11,-0.00055827,-2.59361,-0.347514,-0.169777,16.8015,0.219005,
2,0,0,1,0,9820.57,0.21784,0.217544,-2.56322,8,0.0180331,11,-0.000557612,-2.59121,-0.432884,-0.136295,13.5931,0.2175438,
2,0,0,1,0,9820.58,0.216336,0.21603,-2.57403,8,0.0179848,11,-0.000556067,-2.58939,-0.444931,-0.132605,13.3425,0.21603,
2,0,0,1,0,9820.6,0.21484,0.214536,-2.59716,8,0.0179364,11,-0.000557183,-2.5855,-0.402368,-0.146632,14.8789,0.214536,
2,0,0,1,0,9820.62,0.213343,0.212981,-2.61679,8,0.0178876,11,-0.000557327,-2.58223,-0.340825,-0.173109,17.6964,0.212981,
2,0,0,1,0,9820.64,0.21184,0.211544,-2.63731,8,0.0178381,11,-0.000557907,-2.57884,-0.404574,-0.145832,15.0297,0.211544,
2,0,0,1,0,9820.66,0.210352,0.210038,-2.65909,8,0.0177887,11,-0.000558509,-2.57527,-0.430654,-0.137001,14.2346,0.210038,
2,0,0,1,0,9820.68,0.208849,0.208546,-2.67528,8,0.0177385,11,-0.000557918,-2.57263,-0.396956,-0.148631,15.6076,0.208546,
2,0,0,1,0,9820.7,0.207345,0.207029,-2.70345,8,0.0176878,11,-0.000559692,-2.56808,-0.37053,-0.159232,16.8532,0.207029,
2,0,0,1,0,9820.72,0.205856,0.205509,-2.73951,8,0.017637,11,-0.000562994,-2.56233,-0.447268,-0.131912,14.0786,0.205509,
2,0,0,1,0,9820.73,0.204353,0.204003,-2.76177,8,0.0175852,11,-0.000563409,-2.55881,-0.75897,-0.077737,8.38312,0.204003,
2,0,0,1,0,9820.75,0.202849,0.202504,-2.78371,8,0.0175331,11,-0.000563713,-2.55538,-0.495337,-0.119111,12.9515,0.202504,
2,0,0,1,0,9820.77,0.20136,0.201017,-2.81466,8,0.0174811,11,-0.000565796,-2.55057,-0.367457,-0.160563,17.6106,0.201017,
2,0,0,1,0,9820.79,0.199856,0.199556,-2.8441,8,0.017428,11,-0.000567557,-2.54605,-0.385791,-0.152933,16.9431,0.199556,
2,0,0,1,0,9820.81,0.19836,0.198048,-2.87641,8,0.0173746,11,-0.000569666,-2.54115,-0.350421,-0.168369,18.8198,0.198048,
2,0,0,1,0,9820.83,0.196863,0.196566,-2.8965,8,0.0173208,11,-0.000569354,-2.53813,-0.323601,-0.182323,20.6218,0.196566,
2,0,0,1,0,9820.85,0.19536,0.195008,-2.93109,8,0.0172661,11,-0.000571587,-2.53297,-0.264707,-0.222888,25.4829,0.195008,
2,0,0,1,0,9820.87,0.193872,0.193532,-2.96638,8,0.0172113,11,-0.000574088,-2.52777,-0.250967,-0.235091,27.1462,0.1935316,
2,0,0,1,0,9820.88,0.192369,0.192092,-2.99405,8,0.0171552,11,-0.000575132,-2.52374,-0.287726,-0.205056,23.9353,0.192092,
2,0,0,1,0,9820.9,0.190865,0.190575,-3.02417,8,0.0170986,11,-0.000576332,-2.51939,-0.283495,-0.208117,24.6242,0.190575,
2,0,0,1,0,9820.92,0.189376,0.189083,-3.05903,8,0.0170419,11,-0.000578411,-2.51442,-0.26673,-0.221198,26.5055,0.189083,
2,0,0,1,0,9820.94,0.187872,0.187543,-3.09833,8,0.0169839,11,-0.000581071,-2.50887,-0.249808,-0.236181,28.657,0.187543,
2,0,0,1,0,9820.96,0.186369,0.18603,-3.14274,8,0.0169251,11,-0.000584645,-2.50269,-0.268593,-0.219663,26.9953,0.1860303,
2,0,0,1,0,9820.98,0.18488,0.184547,-3.19431,8,0.016866,11,-0.000589499,-2.49562,-0.259264,-0.227568,28.3717,0.1845466,
2,0,0,1,0,9821,0.183376,0.18306,-3.23528,8,0.0168056,11,-0.000592249,-2.49009,-0.241918,-0.243885,30.8786,0.18306,
2,0,0,1,0,9821.01,0.18188,0.181556,-3.28901,8,0.0167445,11,-0.000597141,-2.48293,-0.222592,-0.26506,34.0639,0.181556,
2,0,0,1,0,9821.03,0.180383,0.180076,-3.35257,8,0.0166824,11,-0.000603718,-2.47462,-0.211899,-0.278434,36.363,0.180076,
2,0,0,1,0,9821.05,0.17888,0.178559,-3.40977,8,0.0166189,11,-0.000608846,-2.46727,-0.21429,-0.275328,36.5853,0.178559,
2,0,0,1,0,9821.07,0.177392,0.1771,-3.46159,8,0.016555,11,-0.000613047,-2.46072,-0.190488,-0.309731,41.9486,0.1771,
2,0,0,1,0,9821.09,0.175889,0.175573,-3.53412,8,0.0164893,11,-0.000620497,-2.45172,-0.177709,-0.332004,45.7737,0.1755735,
2,0,0,1,0,9821.11,0.174385,0.174043,-3.60652,8,0.0164223,11,-0.000627691,-2.44291,-0.163893,-0.359991,50.6423,0.174043,
2,0,0,1,0,9821.13,0.172896,0.17259,-3.6863,8,0.0163545,11,-0.00063622,-2.43341,-0.161113,-0.366203,52.5855,0.17259,
2,0,0,1,0,9821.15,0.171392,0.171128,-3.75499,8,0.0162846,11,-0.000642584,-2.42539,-0.151511,-0.38941,57.2336,0.171128,
2,0,0,1,0,9821.16,0.169889,0.169548,-3.84984,8,0.0162131,11,-0.000652732,-2.41456,-0.136592,-0.431943,65.0349,0.169548,
2,0,0,1,0,9821.18,0.1684,0.168057,-3.9528,8,0.0161406,11,-0.000664294,-2.4031,-0.126736,-0.465533,71.7656,0.168057,
2,0,0,1,0,9821.2,0.166896,0.166555,-4.0532,8,0.0160653,11,-0.000675082,-2.3922,-0.13013,-0.453393,71.6998,0.166555,
2,0,0,1,0,9821.22,0.165392,0.16507,-4.15615,8,0.015988,11,-0.000686055,-2.38131,-0.121701,-0.484794,78.8972,0.16507,
2,0,0,1,0,9821.24,0.163905,0.163591,-4.27486,8,0.0159096,11,-0.000699328,-2.36908,-0.113727,-0.518788,86.9616,0.163591,
2,0,0,1,0,9821.26,0.162401,0.162107,-4.41152,8,0.0158277,11,-0.000715138,-2.35541,-0.109972,-0.536499,92.6381,0.162107,
2,0,0,1,0,9821.28,0.160905,0.160615,-4.56112,8,0.0157437,11,-0.000732585,-2.34093,-0.107179,-0.55048,98.1653,0.160615,
2,0,0,1,0,9821.3,0.159409,0.159081,-4.7231,8,0.0156569,11,-0.000751355,-2.32577,-0.10324,-0.571486,105.454,0.159081,
2,0,0,1,0,9821.31,0.157905,0.157554,-4.88666,8,0.0155666,11,-0.000769915,-2.31099,-0.0981841,-0.600912,114.89,0.157554,
2,0,0,1,0,9821.33,0.156416,0.156101,-5.07622,8,0.0154739,11,-0.000792401,-2.29446,-0.0912611,-0.646497,128.269,0.156101,
2,0,0,1,0,9821.35,0.154912,0.154606,-5.28163,8,0.0153766,11,-0.000816574,-2.27723,-0.0896175,-0.658354,135.705,0.154606,
2,0,0,1,0,9821.37,0.153409,0.153087,-5.49426,8,0.0152753,11,-0.000841097,-2.26009,-0.0878714,-0.671436,144.026,0.1530866,
2,0,0,1,0,9821.39,0.151919,0.151621,-5.71298,8,0.0151712,11,-0.000866207,-2.24314,-0.0844203,-0.698884,156.09,0.151621,
2,0,0,1,0,9821.41,0.150416,0.150105,-5.9564,8,0.0150616,11,-0.000894083,-2.22502,-0.0818849,-0.720523,167.535,0.150105,
2,0,0,1,0,9821.43,0.148912,0.148615,-6.21024,8,0.0149472,11,-0.000922937,-2.20689,-0.0792828,-0.744172,180.547,0.1486154,
2,0,0,1,0,9821.45,0.147425,0.147143,-6.48519,8,0.0148292,11,-0.00095425,-2.18808,-0.0793733,-0.743323,187.903,0.147143,
2,0,0,1,0,9821.46,0.145921,0.145612,-6.75578,8,0.0147046,11,-0.000983725,-2.17032,-0.0829906,-0.710924,187.226,0.145612,
2,0,0,1,0,9821.48,0.144425,0.144073,-7.03411,8,0.0145755,11,-0.00101342,-2.15279,-0.0816682,-0.722436,198.766,0.144073,
2,0,0,1,0,9821.5,0.142929,0.142632,-7.33345,8,0.0144412,11,-0.00104598,-2.13469,-0.0841053,-0.701502,201.083,0.142632,
2,0,0,1,0,9821.52,0.141425,0.141109,-7.6397,8,0.0143003,11,-0.00107803,-2.11692,-0.0846681,-0.696839,207.575,0.141109,
2,0,0,1,0,9821.54,0.139936,0.139619,-7.95498,8,0.014155,11,-0.00111067,-2.09936,-0.0907699,-0.649995,201.558,0.139619,
2,0,0,1,0,9821.56,0.138432,0.138136,-8.24967,8,0.0140026,11,-0.00113958,-2.08356,-0.0950647,-0.62063,199.843,0.138136,
2,0,0,1,0,9821.58,0.136929,0.136618,-8.55039,8,0.0138446,11,-0.00116814,-2.06801,-0.100327,-0.588075,196.072,0.136618,
2,0,0,1,0,9821.6,0.135439,0.135159,-8.84693,8,0.0136827,11,-0.00119574,-2.05321,-0.106482,-0.554085,190.951,0.135159,
2,0,0,1,0,9821.61,0.133936,0.133674,-9.13226,8,0.0135136,11,-0.00122075,-2.03942,-0.117623,-0.501602,178.338,0.133674,
2,0,0,1,0,9821.63,0.132432,0.132186,-9.39468,8,0.0133395,11,-0.00124185,-2.02712,-0.126623,-0.465949,170.553,0.132186,
2,0,0,1,0,9821.65,0.130945,0.130655,-9.6532,8,0.0131623,11,-0.00126124,-2.01533,-0.133172,-0.443035,166.584,0.130655,
2,0,0,1,0,9821.67,0.129441,0.129175,-9.89351,8,0.0129786,11,-0.00127799,-2.00465,-0.147619,-0.399678,154.06,0.129175,
2,0,0,1,0,9821.69,0.127945,0.127625,-10.127,8,0.0127914,11,-0.00129245,-1.99452,-0.160537,-0.367517,144.775,0.127625,
2,0,0,1,0,9821.71,0.126448,0.126158,-10.3195,8,0.0126001,11,-0.00130189,-1.98634,-0.18265,-0.323023,129.879,0.126158,
2,0,0,1,0,9821.73,0.124945,0.124661,-10.5089,8,0.0124044,11,-0.00131005,-1.97844,-0.199812,-0.295277,120.914,0.124661,
2,0,0,1,0,9821.75,0.123456,0.123172,-10.681,8,0.0122073,11,-0.0013156,-1.97139,-0.226089,-0.26096,108.511,0.123172,
2,0,0,1,0,9821.76,0.121952,0.121666,-10.8239,8,0.0120051,11,-0.0013169,-1.96562,-0.277961,-0.21226,89.4137,0.121666,
2,0,0,1,0,9821.78,0.120449,0.120113,-10.9368,8,0.0118004,11,-0.00131365,-1.96111,-0.348714,-0.169193,72.1073,0.120113,
2,0,0,1,0,9821.8,0.118959,0.118694,-11.0295,8,0.011596,11,-0.00130914,-1.95744,-0.432097,-0.136543,58.7373,0.118694,
2,0,0,1,0,9821.82,0.117456,0.117135,-11.1099,8,0.0113878,11,-0.00130136,-1.95429,-0.547701,-0.107723,46.6385,0.117135,
2,0,0,1,0,9821.84,0.115952,0.115627,-11.1686,8,0.0111782,11,-0.00129138,-1.952,-0.9281,-0.0635707,27.6532,0.115627,
2,0,0,1,0,9821.86,0.114465,0.114154,-11.201,8,0.01097,11,-0.00127864,-1.95074,-2.49725,-0.023626,10.3102,0.114154,
2,0,0,1,0,9821.88,0.112961,0.11269,-11.1994,8,0.0107593,11,-0.00126206,-1.95081,5.79188,0.0101867,-4.44983,0.11269,
2,0,0,1,0,9821.9,0.111465,0.111175,-11.198,8,0.0105498,11,-0.00124493,-1.95086,1.61765,0.0364726,-15.9091,0.111175,
2,0,0,1,0,9821.91,0.109968,0.109658,-11.1711,8,0.0103407,11,-0.00122499,-1.9519,0.827494,0.0712996,-31.0216,0.1096575,
2,0,0,1,0,9821.93,0.108465,0.108177,-11.1203,8,0.0101311,11,-0.00120296,-1.95388,0.572856,0.102993,-44.6003,0.108177,
2,0,0,1,0,9821.95,0.106976,0.106681,-11.0457,8,0.00992508,11,-0.00117837,-1.95681,0.452316,0.13044,-56.1361,0.106681,
2,0,0,1,0,9821.97,0.105472,0.105192,-10.957,8,0.00971831,11,-0.00115259,-1.96031,0.391775,0.150597,-64.2784,0.105192,
2,0,0,1,0,9821.99,0.103968,0.103669,-10.8541,8,0.00951335,11,-0.00112523,-1.96441,0.336639,0.175262,-74.1066,0.103669,
2,0,0,1,0,9822.01,0.102479,0.102189,-10.7285,8,0.00931268,11,-0.00109633,-1.96946,0.279017,0.211457,-88.3651,0.102189,
2,0,0,1,0,9822.03,0.100976,0.100684,-10.5813,8,0.00911238,11,-0.00106537,-1.97546,0.251272,0.234805,-96.8333,0.100684,
2,0,0,1,0,9822.05,0.0994721,0.099136,-10.4247,8,0.00891494,11,-0.00103346,-1.98194,0.237905,0.247998,-100.828,0.099136,
2,0,0,1,0,9822.06,0.0979846,0.0976768,-10.2628,8,0.00872257,11,-0.00100243,-1.98874,0.220911,0.267076,-106.881,0.0976768,
2,0,0,1,0,9822.08,0.0964811,0.0961866,-10.088,8,0.00853116,11,-0.000970334,-1.99619,0.19913,0.296289,-116.523,0.0961866,
2,0,0,1,0,9822.1,0.0949847,0.0946456,-9.90324,8,0.00834407,11,-0.000937298,-2.00422,0.188483,0.313025,-121.025,0.09464559,
2,0,0,1,0,9822.12,0.0934883,0.0931937,-9.72043,8,0.00816053,11,-0.000905883,-2.01231,0.186492,0.316367,-120.222,0.0931937,
2,0,0,1,0,9822.14,0.0919847,0.091694,-9.53798,8,0.00797936,11,-0.000874575,-2.02054,0.191227,0.308533,-115.035,0.091694,
2,0,0,1,0,9822.16,0.0904955,0.0902164,-9.37832,8,0.00780331,11,-0.000846078,-2.02787,0.1832,0.322053,-117.841,0.0902164,
2,0,0,1,0,9822.18,0.0889919,0.0886168,-9.20791,8,0.00762858,11,-0.000815976,-2.03584,0.187375,0.314876,-113.145,0.0886168,
2,0,0,1,0,9822.19,0.0874884,0.0871716,-9.03358,8,0.00745715,11,-0.000787472,-2.04414,0.193773,0.304481,-107.519,0.0871716,
2,0,0,1,0,9822.21,0.0860009,0.0856682,-8.89252,8,0.00729047,11,-0.000761806,-2.05098,0.208845,0.282506,-98.0803,0.0856682,
2,0,0,1,0,9822.23,0.0844973,0.0841306,-8.75305,8,0.00712469,11,-0.000736399,-2.05784,0.218504,0.270018,-92.2665,0.0841306,
2,0,0,1,0,9822.25,0.0829938,0.0826524,-8.62196,8,0.00696146,11,-0.000712625,-2.06439,0.227678,0.259138,-87.1759,0.0826524,
2,0,0,1,0,9822.27,0.0815045,0.0811799,-8.48963,8,0.00680243,11,-0.000689187,-2.07111,0.244195,0.241611,-80.1586,0.0811799,
2,0,0,1,0,9822.29,0.080001,0.0796843,-8.37842,8,0.00664395,11,-0.000667629,-2.07684,0.283539,0.208084,-68.0927,0.07968428,
2,0,0,1,0,9822.31,0.0785046,0.078192,-8.28886,8,0.00648817,11,-0.000648122,-2.08151,0.308854,0.191029,-61.7519,0.078192,
2,0,0,1,0,9822.33,0.0770082,0.0766613,-8.1911,8,0.0063342,11,-0.000627941,-2.08666,0.30522,0.193303,-61.7733,0.0766613,
2,0,0,1,0,9822.34,0.0755046,0.0751906,-8.09343,8,0.00618113,11,-0.00060855,-2.09187,0.339499,0.173786,-54.9447,0.0751906,
2,0,0,1,0,9822.36,0.0740154,0.0736871,-8.01141,8,0.00603139,11,-0.000590337,-2.09629,0.364777,0.161743,-50.6163,0.0736871,
2,0,0,1,0,9822.38,0.0725118,0.0722368,-7.93357,8,0.00588149,11,-0.000573096,-2.10053,0.391917,0.150542,-46.6275,0.0722368,
2,0,0,1,0,9822.4,0.0710083,0.0707143,-7.86071,8,0.00573291,11,-0.000555864,-2.10454,0.387846,0.152122,-46.671,0.0707143,
2,0,0,1,0,9822.42,0.0695208,0.0692411,-7.78567,8,0.00558728,11,-0.000539089,-2.1087,0.369622,0.159623,-48.5657,0.0692411,
2,0,0,1,0,9822.44,0.0680173,0.0676623,-7.71237,8,0.0054415,11,-0.000521837,-2.11281,0.385907,0.152886,-46.1157,0.0676623,
2,0,0,1,0,9822.46,0.0665137,0.0662253,-7.64939,8,0.00529694,11,-0.000506584,-2.11637,0.398359,0.148108,-44.2574,0.0662253,
2,0,0,1,0,9822.48,0.0650244,0.0647093,-7.59557,8,0.00515504,11,-0.000491503,-2.11944,0.385829,0.152918,-45.3127,0.0647093,
2,0,0,1,0,9822.49,0.0635209,0.0631816,-7.53664,8,0.00501279,11,-0.000476177,-2.12282,0.352515,0.167369,-49.1702,0.0631816,
2,0,0,1,0,9822.51,0.0620245,0.0617048,-7.46461,8,0.00487262,11,-0.000460602,-2.12699,0.354292,0.166529,-48.4975,0.0617048,
2,0,0,1,0,9822.53,0.0605281,0.0602394,-7.39463,8,0.00473373,11,-0.000445448,-2.13108,0.371034,0.159015,-45.8687,0.0602394,
2,0,0,1,0,9822.55,0.0590246,0.0586991,-7.33189,8,0.00459532,11,-0.000430376,-2.13478,0.369647,0.159612,-45.6443,0.0586991,
2,0,0,1,0,9822.57,0.0575353,0.0571749,-7.26994,8,0.00445965,11,-0.000415658,-2.13847,0.346717,0.170168,-48.1996,0.0571749,
2,0,0,1,0,9822.59,0.0560317,0.0556942,-7.18771,8,0.00432385,11,-0.000400314,-2.14341,0.351735,0.16774,-47.0279,0.0556942,
2,0,0,1,0,9822.61,0.0545282,0.0542269,-7.11494,8,0.00418947,11,-0.000385821,-2.14783,0.376217,0.156825,-43.535,0.0542269,
2,0,0,1,0,9822.63,0.0530407,0.0527361,-7.04533,8,0.00405785,11,-0.000371543,-2.1521,0.34659,0.17023,-46.7316,0.0527361,
2,0,0,1,0,9822.64,0.0515372,0.0512043,-6.96388,8,0.00392615,11,-0.000356581,-2.15715,0.30467,0.193652,-52.5427,0.0512043,
2,0,0,1,0,9822.66,0.0500336,0.0497383,-6.86882,8,0.00379603,11,-0.000341644,-2.16312,0.291459,0.20243,-54.3061,0.0497383,
2,0,0,1,0,9822.68,0.0485444,0.0481994,-6.78585,8,0.00366899,11,-0.000327074,-2.1684,0.275373,0.214255,-56.7837,0.0481994,
2,0,0,1,0,9822.7,0.0470408,0.0467246,-6.70108,8,0.00354212,11,-0.000313105,-2.17386,0.268339,0.219871,-57.5098,0.0467246,
2,0,0,1,0,9822.72,0.0455444,0.0452226,-6.61261,8,0.00341755,11,-0.000299039,-2.17963,0.240985,0.244828,-63.143,0.0452226,
2,0,0,1,0,9822.74,0.044048,0.0437098,-6.52082,8,0.00329463,11,-0.000285024,-2.1857,0.23814,0.247754,-63.0378,0.0437098,
2,0,0,1,0,9822.76,0.0425445,0.0422523,-6.42084,8,0.00317297,11,-0.000271296,-2.19241,0.229485,0.257097,-64.547,0.0422523,
2,0,0,1,0,9822.78,0.0410552,0.0407359,-6.33598,8,0.00305428,11,-0.000258102,-2.19819,0.233631,0.252535,-62.401,0.0407359,
2,0,0,1,0,9822.79,0.0395517,0.0392369,-6.24842,8,0.00293601,11,-0.000245168,-2.20423,0.220367,0.267735,-65.2001,0.0392369,
2,0,0,1,0,9822.81,0.0380481,0.0377014,-6.16108,8,0.00281946,11,-0.000232281,-2.21034,0.222299,0.265409,-63.6813,0.0377014,
2,0,0,1,0,9822.83,0.0365606,0.0362419,-6.05939,8,0.00270595,11,-0.000219604,-2.21757,0.22892,0.257732,-60.9989,0.0362419,
2,0,0,1,0,9822.85,0.0350571,0.0347374,-5.97203,8,0.00259295,11,-0.000207453,-2.22388,0.242031,0.24377,-56.8198,0.0347374,
2,0,0,1,0,9822.87,0.0335535,0.033224,-5.89146,8,0.00248145,11,-0.000195738,-2.22978,0.268139,0.220035,-50.5953,0.033224,
2,0,0,1,0,9822.89,0.0320643,0.0317455,-5.81375,8,0.00237268,11,-0.00018456,-2.23554,0.256752,0.229794,-52.0911,0.03174546,
2,0,0,1,0,9822.91,0.0305607,0.0302979,-5.72771,8,0.00226419,11,-0.000173537,-2.24202,0.281673,0.209462,-46.886,0.0302979,
2,0,0,1,0,9822.93,0.0290643,0.0287572,-5.66227,8,0.00215775,11,-0.000162831,-2.24701,0.324002,0.182098,-40.2735,0.0287572,
2,0,0,1,0,9822.94,0.0275679,0.0272334,-5.60205,8,0.00205246,11,-0.000152563,-2.25165,0.338886,0.1741,-38.0563,0.0272334,
2,0,0,1,0,9822.96,0.0260644,0.0257762,-5.53932,8,0.00194769,11,-0.000142783,-2.25654,0.344941,0.171044,-36.9896,0.0257762,
2,0,0,1,0,9822.98,0.0245751,0.0242694,-5.4773,8,0.00184512,11,-0.000132931,-2.26143,0.372075,0.15857,-33.9743,0.0242694,
2,0,0,1,0,9823,0.0230716,0.0227219,-5.4286,8,0.00174253,11,-0.000123348,-2.26531,0.392445,0.15034,-31.943,0.0227219,
2,0,0,1,0,9823.02,0.021568,0.0212723,-5.38742,8,0.00164076,11,-0.000114603,-2.26862,0.47818,0.123384,-25.9802,0.0212723,
2,0,0,1,0,9823.04,0.0200805,0.0197665,-5.34995,8,0.00154081,11,-0.00010575,-2.27165,0.467604,0.126175,-26.3665,0.0197665,
2,0,0,1,0,9823.06,0.018577,0.0182695,-5.31796,8,0.00144044,11,-9.71563e-05,-2.27425,0.485796,0.12145,-25.2243,0.0182695,
2,0,0,1,0,9823.08,0.0170735,0.0167762,-5.28175,8,0.00134078,11,-8.86079e-05,-2.27722,0.602839,0.0978702,-20.2229,0.0167762,
2,0,0,1,0,9823.09,0.0155842,0.0152632,-5.26686,8,0.00124268,11,-8.03893e-05,-2.27845,0.817218,0.0721961,-14.8364,0.01526322,
2,0,0,1,0,9823.11,0.0140806,0.0137499,-5.25145,8,0.00114381,11,-7.22068e-05,-2.27972,0.818422,0.0720899,-14.7591,0.01374987,
2,0,0,1,0,9823.13,0.0125842,0.0122716,-5.23707,8,0.0010458,11,-6.42674e-05,-2.28091,0.808371,0.0729863,-14.898,0.0122716,
2,0,0,1,0,9823.15,0.0110878,0.0107893,-5.21133,8,0.000948218,11,-5.62265e-05,-2.28305,1.00223,0.0588687,-11.9879,0.01078929,
2,0,0,1,0,9823.17,0.00958429,0.00931616,-5.20117,8,0.000850398,11,-4.84549e-05,-2.2839,2.56501,0.0230019,-4.67131,0.00931616,
2,0,0,1,0,9823.19,0.0080968,0.00778031,-5.19547,8,0.000753776,11,-4.04224e-05,-2.28438,-45.0405,-0.00130993,0.265724,0.00778031,
2,0,0,1,0,9823.21,0.00659326,0.0062823,-5.19055,8,0.000656175,11,-3.26086e-05,-2.28479,145.983,0.000404156,-0.0818406,0.0062823,
2,0,0,1,0,9823.22,0.00508972,0.0048078,-5.17954,8,0.000558625,11,-2.49022e-05,-2.28571,-5.14511,-0.0114672,2.32205,0.0048078,
2,0,0,1,0,9823.24,0.00360044,0.00324571,-5.18371,8,0.000462217,11,-1.68248e-05,-2.28536,-0.721847,-0.0817347,16.635,0.003245709,
2,0,0,1,0,9823.26,0.0020969,0.00174565,-5.24687,8,0.000364508,11,-9.1592e-06,-2.2801,-0.84819,-0.0695599,14.1329,0.00174565,
2,0,0,1,0,9823.28,0.000593362,0.000175719,-5.22744,8,0.000265939,11,-9.18559e-07,-2.28171, , , ,0.000175719,
2,0,0,1,0,9823.29,0.000199195,-0.000166899,-5.23428,8,0.000240316,11,8.73595e-07,-2.28114, , , ,-0.000166899,