File: Figure_codes/Fig_3-5/rawdata_trumpetplot_data/before 10th/20221101_1-115_002_TrumpetPlot_ParaChange_11_CV_C01_5.csv
mode,ox/red,error,control changes,counter inc.,time/s,control/V,Ewe/V,<I>/mA,cycle number,(Q-Qo)/C,I Range,P/W,log(|I|),Tafel slope mV/dec,alpha_eff,dI/d(E-IR),E-IR/V,
2,0,0,1,0,7360.13,2.44065e-05,0.000495431,-6.9749,6,0.0000000E+000,11,-3.45559e-06,-2.15646, , , ,0.0004954313,
2,0,0,1,0,7360.15,0.00179726,0.00139212,-2.63784,6,-8.864e-05,11,-3.6722e-06,-2.57875, , , ,0.00139212,
2,1,0,1,0,7360.17,0.00379485,0.0033884,0.475193,6,-0.000106097,11,1.61015e-06,-3.32313,-0.0379612,-1.55422,1143.29,0.0033884,
2,1,0,1,0,7360.19,0.00579244,0.00549797,2.05632,6,-7.90091e-05,11,1.13056e-05,-2.68691,0.00514302,11.4719,604.866,0.00549797,
2,1,0,1,0,7360.21,0.00779002,0.00745525,2.93509,6,-2.81549e-05,11,2.18818e-05,-2.53238,0.017585,3.35513,353.17,0.00745525,
2,1,0,1,0,7360.23,0.00978761,0.00946994,3.4591,6,3.60117e-05,11,3.27575e-05,-2.46104,0.037423,1.57657,205.008,0.00946994,
2,1,0,1,0,7360.25,0.0117852,0.0114936,3.76299,6,0.000108545,11,4.32504e-05,-2.42447,0.0696897,0.84661,122.178,0.01149363,
2,1,0,1,0,7360.27,0.0137828,0.0134657,3.94729,6,0.00018575,11,5.31531e-05,-2.4037,0.112856,0.522792,79.9701,0.0134657,
2,1,0,1,0,7360.29,0.0157804,0.0154625,4.08038,6,0.000266182,11,6.30928e-05,-2.3893,0.158343,0.372609,59.1037,0.01546249,
2,1,0,1,0,7360.31,0.017778,0.0174678,4.18383,6,0.000348575,11,7.30823e-05,-2.37843,0.232334,0.253944,41.2525,0.0174678,
2,1,0,1,0,7360.33,0.0197755,0.0194678,4.24561,6,0.00043284,11,8.26527e-05,-2.37206,0.329553,0.17903,29.6453,0.0194678,
2,1,0,1,0,7360.35,0.0217731,0.0214732,4.30257,6,0.000518351,11,9.23901e-05,-2.36627,0.344679,0.171174,28.7437,0.0214732,
2,1,0,1,0,7360.37,0.0237707,0.0234583,4.36031,6,0.000605035,11,0.000102285,-2.36048,0.335854,0.175671,29.9057,0.0234583,
2,1,0,1,0,7360.39,0.0257683,0.0254681,4.42204,6,0.000692426,11,0.000112621,-2.35438,0.370952,0.15905,27.4061,0.0254681,
2,1,0,1,0,7360.41,0.0277659,0.0274797,4.47052,6,0.000781391,11,0.000122848,-2.34964,0.378891,0.155718,27.1998,0.0274797,
2,1,0,1,0,7360.43,0.0297635,0.0294318,4.52985,6,0.00087148,11,0.000133322,-2.34392,0.370461,0.159261,28.1314,0.0294318,
2,1,0,1,0,7360.45,0.0317611,0.0314425,4.582,6,0.000962658,11,0.000144069,-2.33895,0.319054,0.184922,33.1715,0.0314425,
2,1,0,1,0,7360.47,0.0337586,0.0334609,4.66351,6,0.00105466,11,0.000156045,-2.33129,0.298086,0.197929,35.9502,0.0334609,
2,1,0,1,0,7360.49,0.0357562,0.0354692,4.72676,6,0.00114859,11,0.000167654,-2.32544,0.35901,0.164341,30.3021,0.0354692,
2,1,0,1,0,7360.51,0.0377538,0.0375091,4.78617,6,0.00124385,11,0.000179525,-2.32001,0.314986,0.18731,35.0631,0.0375091,
2,1,0,1,0,7360.53,0.0397514,0.039468,4.86697,6,0.00134039,11,0.000192089,-2.31274,0.241456,0.244351,46.5077,0.03946799,
2,1,0,1,0,7360.55,0.041749,0.0414369,4.96885,6,0.00143819,11,0.000205893,-2.30374,0.257956,0.228721,44.2277,0.0414369,
2,1,0,1,0,7360.57,0.0437466,0.0434627,5.04365,6,0.00153829,11,0.000219211,-2.29726,0.2931,0.201296,39.6629,0.0434627,
2,1,0,1,0,7360.59,0.0457442,0.0454881,5.12953,6,0.00163997,11,0.000233333,-2.28992,0.251844,0.234272,46.9562,0.0454881,
2,1,0,1,0,7360.61,0.0477418,0.0474121,5.22909,6,0.00174361,11,0.000247922,-2.28157,0.212137,0.278123,56.8814,0.0474121,
2,1,0,1,0,7360.63,0.0497484,0.0494167,5.35299,6,0.00184938,11,0.000264527,-2.2714,0.224242,0.263108,54.8117,0.0494167,
2,1,0,1,0,7360.65,0.0517369,0.0514117,5.44832,6,0.00195682,11,0.000280107,-2.26374,0.229321,0.257281,54.8501,0.0514117,
2,1,0,1,0,7360.67,0.0537345,0.0534432,5.57385,6,0.00206697,11,0.000297885,-2.25384,0.211709,0.278684,60.5679,0.0534432,
2,1,0,1,0,7360.69,0.0557321,0.0554213,5.69117,6,0.00217965,11,0.000315412,-2.2448,0.224985,0.262239,58.2194,0.0554213,
2,1,0,1,0,7360.71,0.0577206,0.0574125,5.80494,6,0.00229403,11,0.000333276,-2.2362,0.205503,0.2871,65.2112,0.0574125,
2,1,0,1,0,7360.73,0.0597273,0.0594028,5.95081,6,0.00241172,11,0.000353495,-2.22542,0.197024,0.299456,69.4498,0.0594028,
2,1,0,1,0,7360.75,0.0617249,0.061407,6.08235,6,0.00253208,11,0.000373499,-2.21593,0.215037,0.274371,65.1022,0.061407,
2,1,0,1,0,7360.77,0.0637224,0.0633959,6.21077,6,0.00265507,11,0.000393738,-2.20685,0.206662,0.28549,69.2971,0.0633959,
2,1,0,1,0,7360.79,0.06572,0.0653967,6.35883,6,0.00278076,11,0.000415846,-2.19662,0.195022,0.30253,75.1191,0.0653967,
2,1,0,1,0,7360.81,0.0677176,0.0674645,6.5164,6,0.00290898,11,0.000439626,-2.18599,0.211587,0.278844,70.7458,0.0674645,
2,1,0,1,0,7360.83,0.0697152,0.0694434,6.64512,6,0.00304065,11,0.000461459,-2.1775,0.224374,0.262954,68.2617,0.0694434,
2,1,0,1,0,7360.85,0.0717128,0.0714563,6.78889,6,0.00317497,11,0.000485108,-2.1682,0.214124,0.275541,73.0035,0.0714563,
2,1,0,1,0,7360.87,0.0737104,0.0734086,6.93459,6,0.0033122,11,0.000509058,-2.15898,0.216591,0.272403,73.701,0.0734086,
2,1,0,1,0,7360.89,0.075708,0.0753841,7.07837,6,0.00345171,11,0.000533597,-2.15007,0.232878,0.253352,69.9424,0.0753841,
2,1,0,1,0,7360.91,0.0777056,0.077416,7.21488,6,0.00359462,11,0.000558547,-2.14177,0.245268,0.240554,67.7248,0.07741601,
2,1,0,1,0,7360.93,0.0797031,0.0794128,7.35121,6,0.0037403,11,0.000583781,-2.13364,0.245669,0.240161,68.9051,0.0794128,
2,1,0,1,0,7360.95,0.0817007,0.0814109,7.49015,6,0.0038887,11,0.00060978,-2.12551,0.253642,0.232611,67.9648,0.0814109,
2,1,0,1,0,7360.97,0.0836983,0.0834236,7.62381,6,0.00403905,11,0.000636005,-2.11783,0.267375,0.220664,65.6199,0.0834236,
2,1,0,1,0,7360.99,0.0856959,0.0853838,7.75085,6,0.00419278,11,0.000661797,-2.11065,0.281557,0.209549,63.3708,0.08538378,
2,1,0,1,0,7361.01,0.0876935,0.0873925,7.87532,6,0.00434906,11,0.000688244,-2.10373,0.301081,0.195961,60.1998,0.0873925,
2,1,0,1,0,7361.03,0.0896911,0.0894162,7.9936,6,0.00450771,11,0.000714757,-2.09726,0.28855,0.204471,63.8574,0.0894162,
2,1,0,1,0,7361.05,0.0916887,0.0913914,8.13068,6,0.00466805,11,0.000743074,-2.08987,0.294017,0.200669,63.5881,0.0913914,
2,1,0,1,0,7361.07,0.0936862,0.0933986,8.24683,6,0.00483186,11,0.000770243,-2.08371,0.349557,0.168785,54.2686,0.0933986,
2,1,0,1,0,7361.09,0.0956838,0.0953846,8.34738,6,0.00499781,11,0.000796211,-2.07845,0.32955,0.179032,58.4318,0.0953846,
2,1,0,1,0,7361.11,0.0976814,0.0973892,8.48001,6,0.00516609,11,0.000825861,-2.0716,0.285326,0.206781,68.4589,0.0973892,
2,1,0,1,0,7361.13,0.099679,0.0993711,8.62029,6,0.00533611,11,0.000856608,-2.06448,0.298553,0.19762,66.4172,0.0993711,
2,1,0,1,0,7361.15,0.101677,0.101374,8.74467,6,0.00550982,11,0.000886482,-2.05826,0.305045,0.193414,66.0624,0.101374,
2,1,0,1,0,7361.17,0.103674,0.103375,8.88482,6,0.00568612,11,0.00091847,-2.05135,0.277974,0.21225,73.6493,0.103375,
2,1,0,1,0,7361.19,0.105672,0.105374,9.03924,6,0.00586539,11,0.000952497,-2.04387,0.258752,0.228018,80.4981,0.1053736,
2,1,0,1,0,7361.21,0.107667,0.107402,9.20898,6,0.00604687,11,0.000989065,-2.03579,0.252174,0.233966,84.0648,0.1074022,
2,1,0,1,0,7361.23,0.109667,0.109379,9.37595,6,0.00623255,11,0.00102553,-2.02798,0.233913,0.25223,92.4429,0.109379,
2,1,0,1,0,7361.25,0.111665,0.111366,9.57543,6,0.006422,11,0.00106638,-2.01884,0.208301,0.283243,105.963,0.111366,
2,1,0,1,0,7361.27,0.113662,0.11337,9.79885,6,0.0066157,11,0.0011109,-2.00882,0.206073,0.286307,109.401,0.11337,
2,1,0,1,0,7361.29,0.11566,0.115336,10.0098,6,0.00681362,11,0.00115449,-1.99958,0.193591,0.304765,119.358,0.115336,
2,1,0,1,0,7361.31,0.117657,0.117361,10.2752,6,0.00701548,11,0.0012059,-1.98821,0.185295,0.318411,127.542,0.117361,
2,1,0,1,0,7361.33,0.119655,0.119351,10.5218,6,0.00722344,11,0.0012558,-1.97791,0.189918,0.31066,127.634,0.119351,
2,1,0,1,0,7361.35,0.121652,0.121343,10.7835,6,0.00743643,11,0.0013085,-1.96724,0.181983,0.324207,136.507,0.121343,
2,1,0,1,0,7361.37,0.12365,0.123294,11.06,6,0.00765483,11,0.00136363,-1.95624,0.176792,0.333725,144.156,0.123294,
2,1,0,1,0,7361.39,0.125648,0.125329,11.3581,6,0.00787801,11,0.0014235,-1.9447,0.185847,0.317465,140.503,0.125329,
2,1,0,1,0,7361.41,0.127645,0.127317,11.6253,6,0.00810792,11,0.0014801,-1.9346,0.19086,0.309128,140.366,0.127317,
2,1,0,1,0,7361.43,0.129643,0.129304,11.916,6,0.00834333,11,0.00154079,-1.92387,0.192415,0.306629,142.538,0.129304,
2,1,0,1,0,7361.45,0.13164,0.131361,12.2017,6,0.00858448,11,0.00160282,-1.91358,0.204559,0.288425,137.239,0.131361,
2,1,0,1,0,7361.47,0.133638,0.133359,12.4725,6,0.00883013,11,0.00166333,-1.90404,0.215617,0.273634,133.144,0.133359,
2,1,0,1,0,7361.49,0.135636,0.135387,12.7377,6,0.00908226,11,0.00172452,-1.89491,0.224846,0.262401,130.378,0.135387,
2,1,0,1,0,7361.51,0.137633,0.137356,12.9937,6,0.0093396,11,0.00178477,-1.88627,0.240018,0.245815,124.547,0.137356,
2,1,0,1,0,7361.53,0.139631,0.139345,13.2307,6,0.00960183,11,0.00184363,-1.87842,0.256284,0.230213,118.846,0.139345,
2,1,0,1,0,7361.55,0.141628,0.141321,13.4648,6,0.00986738,11,0.00190286,-1.8708,0.273265,0.215907,113.382,0.141321,
2,1,0,1,0,7361.57,0.143626,0.14334,13.6837,6,0.0101388,11,0.00196142,-1.8638,0.317706,0.185706,99.02,0.14334,
2,1,0,1,0,7361.59,0.145624,0.145335,13.8623,6,0.0104143,11,0.00201467,-1.85816,0.391009,0.150891,81.527,0.145335,
2,1,0,1,0,7361.61,0.147621,0.147297,14.0063,6,0.0106929,11,0.00206309,-1.85368,0.457915,0.128845,70.4087,0.147297,
2,1,0,1,0,7361.63,0.149619,0.149322,14.143,6,0.010973,11,0.00211187,-1.84946,0.616951,0.0956315,52.6655,0.149322,
2,1,0,1,0,7361.65,0.151616,0.151288,14.2165,6,0.0112566,11,0.00215078,-1.84721,1.42119,0.0415146,22.9886,0.151288,
2,1,0,1,0,7361.67,0.153614,0.153315,14.2348,6,0.0115412,11,0.00218241,-1.84665,-4.67386,-0.0126234,-6.99678,0.153315,
2,1,0,1,0,7361.69,0.155611,0.155343,14.1881,6,0.0118254,11,0.00220402,-1.84808,-0.858749,-0.0687046,-37.9621,0.155343,
2,1,0,1,0,7361.71,0.157609,0.157357,14.0814,6,0.0121066,11,0.0022158,-1.85136,-0.372706,-0.158302,-86.594,0.157357,
2,1,0,1,0,7361.73,0.159607,0.159291,13.8462,6,0.012386,11,0.00220557,-1.85867,-0.22482,-0.262432,-141.337,0.159291,
2,1,0,1,0,7361.75,0.161604,0.161314,13.5221,6,0.0126597,11,0.00218131,-1.86895,-0.163261,-0.361384,-189.792,0.161314,
2,1,0,1,0,7361.77,0.163602,0.163354,13.075,6,0.0129258,11,0.00213586,-1.88356,-0.118264,-0.498884,-253.336,0.163354,
2,1,0,1,0,7361.79,0.165606,0.165292,12.5143,6,0.0131818,11,0.00206851,-1.90259,-0.0943876,-0.625082,-304.075,0.165292,
2,1,0,1,0,7361.81,0.167597,0.167305,11.8736,6,0.0134245,11,0.00198652,-1.92542,-0.0802979,-0.734764,-339.031,0.167305,
2,1,0,1,0,7361.83,0.169595,0.169294,11.1577,6,0.0136548,11,0.00188892,-1.95243,-0.0693713,-0.850495,-368.821,0.1692937,
2,1,0,1,0,7361.85,0.171592,0.171347,10.383,6,0.0138701,11,0.0017791,-1.98368,-0.0616598,-0.956864,-387.154,0.171347,
2,1,0,1,0,7361.87,0.173581,0.173277,9.61539,6,0.0140687,11,0.00166613,-2.01703,-0.0584978,-1.00858,-378.636,0.173277,
2,1,0,1,0,7361.89,0.175587,0.175279,8.89406,6,0.0142536,11,0.00155894,-2.0509,-0.060027,-0.98289,-341.652,0.1752793,
2,1,0,1,0,7361.91,0.177585,0.177322,8.23364,6,0.0144245,11,0.00146,-2.08441,-0.0612076,-0.963933,-310.578,0.177322,
2,1,0,1,0,7361.93,0.179582,0.179288,7.64889,6,0.014583,11,0.00137136,-2.1164,-0.0656894,-0.898166,-269.494,0.179288,
2,1,0,1,0,7361.95,0.18158,0.181277,7.16756,6,0.0147308,11,0.00129932,-2.14463,-0.0754922,-0.781537,-219.605,0.181277,
2,1,0,1,0,7361.97,0.183578,0.183295,6.76893,6,0.0148693,11,0.00124071,-2.16948,-0.0864605,-0.682393,-180.944,0.183295,
2,1,0,1,0,7361.99,0.185575,0.18533,6.43429,6,0.015001,11,0.00119247,-2.1915,-0.0977336,-0.603682,-152.197,0.18533,
2,1,0,1,0,7362.01,0.187573,0.187292,6.16065,6,0.0151267,11,0.00115384,-2.21037,-0.112523,-0.524339,-126.494,0.1872922,
2,1,0,1,0,7362.03,0.18957,0.189274,5.93539,6,0.0152475,11,0.00112342,-2.22655,-0.13123,-0.449593,-104.389,0.189274,
2,1,0,1,0,7362.05,0.191568,0.191293,5.74299,6,0.0153636,11,0.0010986,-2.24086,-0.14838,-0.397627,-89.2929,0.191293,
2,1,0,1,0,7362.07,0.193566,0.193293,5.57653,6,0.0154767,11,0.0010779,-2.25364,-0.166083,-0.355244,-77.4503,0.193293,
2,1,0,1,0,7362.09,0.195563,0.1953,5.43268,6,0.0155867,11,0.001061,-2.26499,-0.173861,-0.339351,-71.9519,0.1953,
2,1,0,1,0,7362.11,0.197561,0.197251,5.29171,6,0.0156939,11,0.0010438,-2.2764,-0.205148,-0.287597,-59.6394,0.197251,
2,1,0,1,0,7362.13,0.199558,0.199265,5.19618,6,0.0157981,11,0.00103542,-2.28432,-0.229412,-0.257179,-52.0608,0.199265,
2,1,0,1,0,7362.15,0.201556,0.201249,5.08358,6,0.0159008,11,0.00102307,-2.29383,-0.224369,-0.26296,-52.2442,0.201249,
2,1,0,1,0,7362.17,0.203553,0.203272,4.98685,6,0.0160014,11,0.00101369,-2.30217,-0.245433,-0.240392,-46.8052,0.203272,
2,1,0,1,0,7362.19,0.205551,0.205267,4.89552,6,0.0161,11,0.00100489,-2.3102,-0.320573,-0.184046,-35.3127,0.205267,
2,1,0,1,0,7362.21,0.207549,0.207247,4.84649,6,0.0161967,11,0.00100442,-2.31457,-0.325747,-0.181122,-34.1175,0.207247,
2,1,0,1,0,7362.23,0.209546,0.209288,4.75833,6,0.0162927,11,0.000995863,-2.32255,-0.270493,-0.218121,-40.5608,0.209288,
2,1,0,1,0,7362.25,0.211544,0.211252,4.68405,6,0.0163869,11,0.000989513,-2.32938,-0.320188,-0.184267,-33.7309,0.211252,
2,1,0,1,0,7362.27,0.213541,0.213292,4.62328,6,0.0164798,11,0.000986109,-2.33505,-0.431746,-0.136655,-24.7159,0.213292,
2,1,0,1,0,7362.29,0.215539,0.21526,4.58499,6,0.0165712,11,0.000986963,-2.33866,-0.395498,-0.149179,-26.6057,0.21526,
2,1,0,1,0,7362.31,0.217537,0.217292,4.51687,6,0.0166621,11,0.000981477,-2.34516,-0.361984,-0.162991,-28.7996,0.217292,
2,1,0,1,0,7362.33,0.219534,0.219234,4.47053,6,0.0167518,11,0.000980092,-2.34964,-0.485344,-0.121563,-21.2277,0.219234,
2,1,0,1,0,7362.35,0.221532,0.221279,4.43223,6,0.0168408,11,0.000980758,-2.35338,-0.497492,-0.118595,-20.4998,0.221279,
2,1,0,1,0,7362.37,0.223525,0.223259,4.38801,6,0.0169285,11,0.000979665,-2.35773,-0.58384,-0.101055,-17.3421,0.223259,
2,1,0,1,0,7362.39,0.225527,0.225304,4.36243,6,0.0170159,11,0.000982871,-2.36027,-0.58808,-0.100326,-17.0478,0.225304,
2,1,0,1,0,7362.41,0.227525,0.227239,4.32017,6,0.0171026,11,0.00098171,-2.3645,-0.489381,-0.12056,-20.3375,0.227239,
2,1,0,1,0,7362.43,0.229522,0.229225,4.28268,6,0.0171886,11,0.000981697,-2.36828,-0.64264,-0.0918088,-15.3695,0.229225,
2,1,0,1,0,7362.45,0.23152,0.231213,4.2591,6,0.017274,11,0.000984756,-2.37068,-1.07275,-0.054999,-9.15291,0.231213,
2,1,0,1,0,7362.47,0.233517,0.233251,4.24583,6,0.0173586,11,0.000990344,-2.37204,-0.78127,-0.0755181,-12.4786,0.233251,
2,1,0,1,0,7362.49,0.235515,0.235225,4.20903,6,0.017443,11,0.000990068,-2.37582,-0.636715,-0.0926632,-15.2441,0.2352246,
2,1,0,1,0,7362.51,0.237512,0.237242,4.18498,6,0.0175268,11,0.000992856,-2.37831,-0.886537,-0.0665511,-10.8753,0.237242,
2,1,0,1,0,7362.53,0.23951,0.239233,4.16544,6,0.0176101,11,0.00099651,-2.38034,-1.18702,-0.0497044,-8.08655,0.239233,
2,1,0,1,0,7362.55,0.241508,0.241255,4.15253,6,0.0176929,11,0.00100182,-2.38169,-0.852811,-0.069183,-11.1865,0.241255,
2,1,0,1,0,7362.57,0.243505,0.243211,4.12094,6,0.0177754,11,0.00100226,-2.385,-0.930173,-0.0634291,-10.229,0.243211,
2,1,0,1,0,7362.59,0.245503,0.245224,4.11194,6,0.0178576,11,0.00100835,-2.38595,-1.14215,-0.0516569,-8.27438,0.245224,
2,1,0,1,0,7362.61,0.2475,0.247217,4.08779,6,0.0179395,11,0.00101057,-2.38851,-0.990693,-0.0595543,-9.51286,0.247217,
2,1,0,1,0,7362.63,0.249498,0.249214,4.07398,6,0.0180206,11,0.00101529,-2.38998,-1.12189,-0.0525896,-8.35535,0.249214,
2,1,0,1,0,7362.65,0.251496,0.251231,4.05425,6,0.0181017,11,0.00101855,-2.39209,-1.0393,-0.0567691,-8.98579,0.251231,
2,1,0,1,0,7362.67,0.253493,0.253246,4.03775,6,0.0181825,11,0.00102254,-2.39386,-0.854067,-0.0690813,-10.8723,0.253246,
2,1,0,1,0,7362.69,0.255491,0.255186,4.01126,6,0.0182629,11,0.00102362,-2.39672,-1.73724,-0.0339619,-5.33759,0.255186,
2,1,0,1,0,7362.71,0.257488,0.257242,4.01642,6,0.0183427,11,0.00103319,-2.39616,-2.63593,-0.022383,-3.49786,0.257242,
2,1,0,1,0,7362.73,0.259486,0.259191,3.99724,6,0.0184227,11,0.00103605,-2.39824,-0.71828,-0.0821406,-12.7938,0.259191,
2,1,0,1,0,7362.75,0.261484,0.261214,3.9656,6,0.0185023,11,0.00103587,-2.40169,-0.911796,-0.0647075,-10.0431,0.261214,
2,1,0,1,0,7362.77,0.263481,0.263228,3.95671,6,0.0185815,11,0.00104152,-2.40267,-11.2997,-0.00522138,-0.807758,0.263228,
2,1,0,1,0,7362.79,0.265479,0.26521,3.96238,6,0.0186601,11,0.00105086,-2.40204,-2.14124,-0.0275541,-4.24579,0.26521,
2,1,0,1,0,7362.81,0.267476,0.267194,3.93987,6,0.018739,11,0.00105271,-2.40452,-0.81491,-0.0724006,-11.1337,0.267194,
2,1,0,1,0,7362.83,0.269474,0.269159,3.91841,6,0.0188174,11,0.00105467,-2.40689,-1.21984,-0.048367,-7.40905,0.269159,
2,1,0,1,0,7362.85,0.271471,0.271178,3.91035,6,0.0188957,11,0.0010604,-2.40778,-5.17612,-0.0113985,-1.74152,0.271178,
2,1,0,1,0,7362.87,0.273469,0.273211,3.91135,6,0.0189733,11,0.00106862,-2.40767,-1.44693,-0.0407759,-6.20291,0.273211,
2,1,0,1,0,7362.89,0.275467,0.275196,3.88543,6,0.0190511,11,0.00106925,-2.41056,-0.933747,-0.0631863,-9.59745,0.275196,
2,1,0,1,0,7362.91,0.277464,0.277244,3.87264,6,0.0191285,11,0.00107367,-2.41199,-1.33816,-0.0440903,-6.66292,0.277244,
2,1,0,1,0,7362.93,0.279462,0.279163,3.859,6,0.0192058,11,0.00107729,-2.41353,-1.52281,-0.0387441,-5.83834,0.2791633,
2,1,0,1,0,7362.95,0.281464,0.281166,3.84975,6,0.0192826,11,0.00108242,-2.41457,-1.65438,-0.035663,-5.35611,0.281166,
2,1,0,1,0,7362.97,0.283457,0.283154,3.83762,6,0.0193591,11,0.00108664,-2.41594,-1.48199,-0.0398113,-5.96258,0.283154,
2,1,0,1,0,7362.99,0.285455,0.285224,3.82555,6,0.0194357,11,0.00109114,-2.41731,-1.03675,-0.0569084,-8.48548,0.285224,
2,1,0,1,0,7363.01,0.287452,0.28715,3.80371,6,0.0195119,11,0.00109224,-2.41979,-1.22076,-0.0483304,-7.18868,0.28715,
2,1,0,1,0,7363.03,0.28945,0.289202,3.79695,6,0.0195878,11,0.00109809,-2.42057,-2.883,-0.0204648,-3.03307,0.289202,
2,1,0,1,0,7363.05,0.291447,0.291167,3.79153,6,0.0196633,11,0.00110397,-2.42119,-1.28916,-0.0457662,-6.75803,0.291167,
2,1,0,1,0,7363.07,0.293445,0.293132,3.7704,6,0.0197389,11,0.00110522,-2.42361,-1.30934,-0.0450608,-6.64438,0.293132,
2,1,0,1,0,7363.09,0.295442,0.295157,3.76502,6,0.0198141,11,0.00111127,-2.42423,-2.58384,-0.0228342,-3.35395,0.295157,
2,1,0,1,0,7363.11,0.29744,0.297161,3.75688,6,0.0198892,11,0.0011164,-2.42517,-1.72468,-0.0342092,-5.01318,0.297161,
2,1,0,1,0,7363.13,0.299438,0.299161,3.74495,6,0.0199638,11,0.00112034,-2.42655,-0.0244308,-2.41498,-317.219,0.299161,
2,1,0,1,0,7363.14,0.299737,0.299539,3.00276,6,0.0199939,11,0.000899444,-2.52248,0.00130575,45.1848,2295.57,0.299539,
2,1,0,1,0,7363.15,0.29774,0.29745,-0.183206,6,0.0200155,11,-5.44946e-05,-3.73706,0.00964969,6.11419,1015.21,0.29745,
2,0,0,1,0,7363.17,0.295742,0.295463,-1.13531,6,0.0200007,11,-0.000335442,-2.94489,-0.00439531,-13.4234,325.233,0.295463,
2,0,0,1,0,7363.19,0.293745,0.293461,-1.48038,6,0.0199741,11,-0.000434435,-2.82963,-0.0251994,-2.34133,125.403,0.293461,
2,0,0,1,0,7363.21,0.291747,0.291435,-1.64042,6,0.0199429,11,-0.000478075,-2.78505,-0.0547828,-1.07698,67.8136,0.291435,
2,0,0,1,0,7363.23,0.289754,0.289424,-1.75419,6,0.0199093,11,-0.000507703,-2.75592,-0.0847118,-0.696479,47.1179,0.289424,
2,0,0,1,0,7363.25,0.287752,0.287412,-1.82995,6,0.0198735,11,-0.000525951,-2.73756,-0.116136,-0.508025,36.1799,0.287412,
2,0,0,1,0,7363.27,0.285754,0.285468,-1.89731,6,0.0198363,11,-0.000541621,-2.72186,-0.131567,-0.448441,33.161,0.285468,
2,0,0,1,0,7363.29,0.283757,0.283457,-1.96112,6,0.0197978,11,-0.000555893,-2.7075,-0.141728,-0.41629,31.8625,0.283457,
2,0,0,1,0,7363.31,0.281759,0.281413,-2.02649,6,0.0197579,11,-0.000570281,-2.69326,-0.156763,-0.376365,29.6701,0.281413,
2,0,0,1,0,7363.33,0.279761,0.27945,-2.07999,6,0.019717,11,-0.000581253,-2.68194,-0.164701,-0.358225,29.1248,0.2794503,
2,0,0,1,0,7363.35,0.277764,0.277479,-2.14108,6,0.0196749,11,-0.000594105,-2.66937,-0.180947,-0.326062,27.1474,0.2774789,
2,0,0,1,0,7363.37,0.275766,0.275485,-2.18763,6,0.0196317,11,-0.00060266,-2.66003,-0.237942,-0.24796,21.1286,0.275485,
2,0,0,1,0,7363.39,0.273769,0.273451,-2.22619,6,0.0195877,11,-0.000608754,-2.65244,-0.222373,-0.26532,23.1281,0.2734507,
2,0,0,1,0,7363.41,0.271771,0.271482,-2.28022,6,0.0195428,11,-0.000619038,-2.64202,-0.206735,-0.28539,25.3483,0.271482,
2,0,0,1,0,7363.43,0.269774,0.269503,-2.32626,6,0.0194968,11,-0.000626934,-2.63334,-0.254358,-0.231956,21.0244,0.269503,
2,0,0,1,0,7363.45,0.267776,0.267437,-2.36527,6,0.0194499,11,-0.000632559,-2.62612,-0.2957,-0.199527,18.4014,0.267437,
2,0,0,1,0,7363.47,0.265778,0.265476,-2.40037,6,0.0194025,11,-0.00063724,-2.61972,-0.265331,-0.222364,20.8802,0.265476,
2,0,0,1,0,7363.49,0.263781,0.263507,-2.44733,6,0.0193542,11,-0.000644887,-2.61131,-0.267024,-0.220954,21.0561,0.263507,
2,0,0,1,0,7363.51,0.261783,0.261517,-2.48373,6,0.019305,11,-0.000649537,-2.6049,-0.365416,-0.16146,15.6167,0.261517,
2,0,0,1,0,7363.53,0.259786,0.259518,-2.50962,6,0.0192552,11,-0.000651291,-2.60039,-0.32704,-0.180406,17.7391,0.259518,
2,0,0,1,0,7363.55,0.257788,0.257463,-2.55563,6,0.0192047,11,-0.000657982,-2.5925,-0.285867,-0.20639,20.5453,0.2574634,
2,0,0,1,0,7363.57,0.25579,0.255496,-2.59224,6,0.0191535,11,-0.000662309,-2.58632,-0.366568,-0.160953,16.2537,0.255496,
2,0,0,1,0,7363.59,0.253793,0.253519,-2.61974,6,0.0191015,11,-0.000664154,-2.58174,-0.429907,-0.137239,14.0332,0.253519,
2,0,0,1,0,7363.61,0.251795,0.251514,-2.64813,6,0.0190489,11,-0.000666042,-2.57706,-0.377946,-0.156107,16.1586,0.2515136,
2,0,0,1,0,7363.63,0.249798,0.249477,-2.68505,6,0.0189956,11,-0.000669859,-2.57105,-0.349756,-0.168689,17.6641,0.249477,
2,0,0,1,0,7363.65,0.2478,0.247534,-2.71843,6,0.0189419,11,-0.000672903,-2.56568,-0.379438,-0.155493,16.4909,0.247534,
2,0,0,1,0,7363.67,0.245802,0.245525,-2.75023,6,0.0188873,11,-0.00067525,-2.56063,-0.386592,-0.152616,16.3863,0.245525,
2,0,0,1,0,7363.69,0.243805,0.243521,-2.78419,6,0.018832,11,-0.000678008,-2.5553,-0.473772,-0.124532,13.4984,0.243521,
2,0,0,1,0,7363.71,0.241807,0.241489,-2.80471,6,0.0187762,11,-0.000677306,-2.55211,-0.373912,-0.157791,17.3595,0.241489,
2,0,0,1,0,7363.73,0.23981,0.239496,-2.85405,6,0.0187201,11,-0.000683535,-2.54454,-0.364994,-0.161646,17.9201,0.239496,
2,0,0,1,0,7363.75,0.237812,0.237466,-2.8768,6,0.0186629,11,-0.000683142,-2.54109,-0.561287,-0.105116,11.8059,0.2374662,
2,0,0,1,0,7363.77,0.235815,0.235452,-2.9018,6,0.0186052,11,-0.000683235,-2.53733,-0.465396,-0.126774,14.373,0.235452,
2,0,0,1,0,7363.79,0.233817,0.233521,-2.9335,6,0.018547,11,-0.000685034,-2.53261,-0.383965,-0.15366,17.6096,0.233521,
2,0,0,1,0,7363.81,0.231815,0.2315,-2.9714,6,0.0184881,11,-0.000687878,-2.52704,-0.382458,-0.154265,17.8766,0.2315,
2,0,0,1,0,7363.83,0.229822,0.2295,-3.00539,6,0.0184287,11,-0.000689735,-2.5221,-0.523836,-0.112631,13.1762,0.2295,
2,0,0,1,0,7363.85,0.227824,0.227513,-3.02392,6,0.0183685,11,-0.000687983,-2.51943,-0.48281,-0.122201,14.469,0.227513,
2,0,0,1,0,7363.87,0.225827,0.225547,-3.06258,6,0.0183078,11,-0.000690755,-2.51391,-0.414141,-0.142463,17.0007,0.2255469,
2,0,0,1,0,7363.89,0.223829,0.223521,-3.0918,6,0.0182463,11,-0.000691082,-2.50979,-0.441081,-0.133762,16.1568,0.223521,
2,0,0,1,0,7363.91,0.221831,0.221522,-3.12761,6,0.0181845,11,-0.000692834,-2.50479,-0.420042,-0.140462,17.135,0.221522,
2,0,0,1,0,7363.93,0.219834,0.219538,-3.16005,6,0.0181217,11,-0.00069375,-2.50031,-0.395192,-0.149294,18.4353,0.219538,
2,0,0,1,0,7363.95,0.217836,0.217554,-3.20076,6,0.0180581,11,-0.000696338,-2.49475,-0.493247,-0.119616,14.8914,0.217554,
2,0,0,1,0,7363.97,0.215839,0.21551,-3.22003,6,0.017994,11,-0.000693948,-2.49214,-0.429432,-0.137391,17.3476,0.21551,
2,0,0,1,0,7363.99,0.213841,0.213553,-3.27016,6,0.0179294,11,-0.000698354,-2.48543,-0.333373,-0.176979,22.5483,0.213553,
2,0,0,1,0,7364.01,0.211843,0.211539,-3.30956,6,0.0178637,11,-0.000700102,-2.48023,-0.469066,-0.125782,16.2119,0.211539,
2,0,0,1,0,7364.03,0.209846,0.209541,-3.3352,6,0.0177973,11,-0.000698863,-2.47688,-0.424936,-0.138845,18.1271,0.209541,
2,0,0,1,0,7364.05,0.207848,0.207581,-3.38132,6,0.0177302,11,-0.000701896,-2.47091,-0.27332,-0.215865,28.5763,0.207581,
2,0,0,1,0,7364.07,0.205851,0.205541,-3.44952,6,0.0176623,11,-0.000709018,-2.46224,-0.31792,-0.185581,24.8497,0.205541,
2,0,0,1,0,7364.09,0.203853,0.20356,-3.48123,6,0.0175931,11,-0.000708639,-2.45827,-0.458879,-0.128574,17.4835,0.20356,
2,0,0,1,0,7364.11,0.201856,0.201554,-3.51923,6,0.0175233,11,-0.000709314,-2.45355,-0.362634,-0.162699,22.3875,0.201554,
2,0,0,1,0,7364.13,0.199858,0.19956,-3.57078,6,0.0174525,11,-0.000712585,-2.44724,-0.285866,-0.20639,28.8103,0.19956,
2,0,0,1,0,7364.15,0.19786,0.197536,-3.63499,6,0.0173809,11,-0.000718041,-2.4395,-0.310414,-0.190069,26.8841,0.197536,
2,0,0,1,0,7364.17,0.195863,0.195561,-3.6783,6,0.0173079,11,-0.00071933,-2.43435,-0.302983,-0.19473,28.0444,0.195561,
2,0,0,1,0,7364.19,0.193865,0.193579,-3.74596,6,0.0172338,11,-0.000725139,-2.42644,-0.272065,-0.21686,31.6672,0.193579,
2,0,0,1,0,7364.21,0.191868,0.191535,-3.80579,6,0.0171584,11,-0.000728941,-2.41955,-0.264155,-0.223354,33.2337,0.191535,
2,0,0,1,0,7364.23,0.18987,0.189544,-3.88004,6,0.0170821,11,-0.00073544,-2.41116,-0.249899,-0.236095,35.7193,0.189544,
2,0,0,1,0,7364.25,0.187872,0.187545,-3.94828,6,0.0170039,11,-0.000740482,-2.40359,-0.243324,-0.242475,37.4221,0.187545,
2,0,0,1,0,7364.27,0.185875,0.185537,-4.03001,6,0.0169242,11,-0.000747715,-2.39469,-0.232502,-0.253761,39.8829,0.185537,
2,0,0,1,0,7364.29,0.183877,0.183564,-4.10706,6,0.0168429,11,-0.00075391,-2.38647,-0.19242,-0.306621,49.3832,0.183564,
2,0,0,1,0,7364.31,0.18188,0.181586,-4.22512,6,0.0167602,11,-0.000767223,-2.37416,-0.183805,-0.320993,52.7643,0.181586,
2,0,0,1,0,7364.33,0.179882,0.179556,-4.31858,6,0.0166748,11,-0.000775426,-2.36466,-0.205072,-0.287704,48.5216,0.179556,
2,0,0,1,0,7364.35,0.177885,0.177588,-4.41913,6,0.0165874,11,-0.000784783,-2.35466,-0.173358,-0.340336,58.8855,0.177588,
2,0,0,1,0,7364.37,0.175887,0.175622,-4.55024,6,0.0164978,11,-0.00079912,-2.34197,-0.154793,-0.381154,67.7492,0.175622,
2,0,0,1,0,7364.39,0.173896,0.173551,-4.6926,6,0.016406,11,-0.000814406,-2.32859,-0.149228,-0.395369,72.4355,0.173551,
2,0,0,1,0,7364.41,0.171892,0.171598,-4.84168,6,0.0163107,11,-0.000830824,-2.315,-0.144443,-0.408467,77.2281,0.171598,
2,0,0,1,0,7364.43,0.169894,0.169573,-4.99978,6,0.0162124,11,-0.00084783,-2.30105,-0.132584,-0.444999,87.0853,0.169573,
2,0,0,1,0,7364.45,0.167897,0.167584,-5.19124,6,0.0161106,11,-0.000869969,-2.28473,-0.121704,-0.484783,98.2744,0.167584,
2,0,0,1,0,7364.47,0.165899,0.165563,-5.39387,6,0.0160048,11,-0.000893027,-2.2681,-0.116565,-0.506155,106.706,0.1655634,
2,0,0,1,0,7364.49,0.163901,0.163584,-5.61802,6,0.0158953,11,-0.000919021,-2.25042,-0.106834,-0.552259,121.308,0.1635845,
2,0,0,1,0,7364.51,0.161904,0.161642,-5.86954,6,0.0157805,11,-0.000948766,-2.2314,-0.101646,-0.580448,133.214,0.161642,
2,0,0,1,0,7364.53,0.159906,0.159582,-6.15127,6,0.0156604,11,-0.000981629,-2.21104,-0.100322,-0.588104,141.204,0.159582,
2,0,0,1,0,7364.55,0.157909,0.157576,-6.44374,6,0.0155346,11,-0.00101538,-2.19086,-0.0931277,-0.633539,159.806,0.157576,
2,0,0,1,0,7364.57,0.155911,0.155611,-6.78577,6,0.0154029,11,-0.00105594,-2.1684,-0.0875674,-0.673766,178.636,0.1556111,
2,0,0,1,0,7364.59,0.153913,0.15359,-7.15573,6,0.0152635,11,-0.00109905,-2.14535,-0.0871047,-0.677346,189.065,0.15359,
2,0,0,1,0,7364.61,0.151916,0.151667,-7.53146,6,0.0151166,11,-0.00114227,-2.12312,-0.0855871,-0.689356,203.176,0.151667,
2,0,0,1,0,7364.63,0.149918,0.149618,-7.96272,6,0.0149618,11,-0.00119137,-2.09894,-0.0822341,-0.717464,223.105,0.149618,
2,0,0,1,0,7364.65,0.147921,0.14768,-8.42093,6,0.0147988,11,-0.0012436,-2.07464,-0.087034,-0.677896,222.09,0.14768,
2,0,0,1,0,7364.67,0.145923,0.145659,-8.84191,6,0.014626,11,-0.00128791,-2.05345,-0.0895368,-0.658947,228.189,0.145659,
2,0,0,1,0,7364.69,0.143926,0.143647,-9.34136,6,0.0144442,11,-0.00134185,-2.02959,-0.0855929,-0.689309,251.276,0.143647,
2,0,0,1,0,7364.71,0.141928,0.141617,-9.85765,6,0.0142522,11,-0.00139601,-2.00623,-0.0904264,-0.652464,250.465,0.1416171,
2,0,0,1,0,7364.73,0.13993,0.139627,-10.3482,6,0.0140512,11,-0.00144488,-1.98514,-0.0979528,-0.602331,242.909,0.139627,
2,0,0,1,0,7364.75,0.137933,0.137638,-10.8243,6,0.0138395,11,-0.00148983,-1.9656,-0.10483,-0.562819,237.577,0.137638,
2,0,0,1,0,7364.77,0.135935,0.135629,-11.298,6,0.0136183,11,-0.00153233,-1.947,-0.111161,-0.530763,233.687,0.135629,
2,0,0,1,0,7364.79,0.133938,0.133669,-11.7516,6,0.0133878,11,-0.00157083,-1.9299,-0.121571,-0.485314,222.258,0.133669,
2,0,0,1,0,7364.81,0.13194,0.131649,-12.1825,6,0.0131498,11,-0.00160381,-1.91426,-0.135542,-0.43529,206.621,0.131649,
2,0,0,1,0,7364.83,0.129942,0.129644,-12.5835,6,0.0129021,11,-0.00163136,-1.9002,-0.150217,-0.392764,192.568,0.129644,
2,0,0,1,0,7364.85,0.127945,0.127658,-12.9511,6,0.0126467,11,-0.00165331,-1.88769,-0.171904,-0.343216,173.168,0.127658,
2,0,0,1,0,7364.87,0.125947,0.125626,-13.2792,6,0.0123844,11,-0.00166821,-1.87683,-0.192735,-0.30612,158.464,0.125626,
2,0,0,1,0,7364.89,0.12395,0.123677,-13.5819,6,0.0121172,11,-0.00167977,-1.86704,-0.227493,-0.259349,137.13,0.123677,
2,0,0,1,0,7364.91,0.121952,0.121675,-13.821,6,0.011843,11,-0.00168167,-1.85946,-0.302346,-0.195141,105.043,0.121675,
2,0,0,1,0,7364.93,0.119955,0.119639,-14.0061,6,0.0115647,11,-0.00167567,-1.85368,-0.387207,-0.152373,83.1738,0.119639,
2,0,0,1,0,7364.95,0.117957,0.117675,-14.1537,6,0.011283,11,-0.00166553,-1.84913,-0.511781,-0.115284,63.5831,0.117675,
2,0,0,1,0,7364.97,0.115955,0.11566,-14.2591,6,0.0109988,11,-0.0016492,-1.84591,-0.850245,-0.0693918,38.5388,0.11566,
2,0,0,1,0,7364.99,0.113962,0.11367,-14.308,6,0.0107143,11,-0.00162639,-1.84442,-2.98951,-0.0197357,10.9996,0.11367,
2,0,0,1,0,7365.01,0.111964,0.111659,-14.3031,6,0.0104282,11,-0.00159707,-1.84457,2.31304,0.0255076,-14.215,0.111659,
2,0,0,1,0,7365.03,0.109967,0.109662,-14.2511,6,0.0101426,11,-0.00156281,-1.84615,0.865509,0.068168,-37.852,0.109662,
2,0,0,1,0,7365.05,0.107969,0.1077,-14.1532,6,0.00985858,11,-0.0015243,-1.84914,0.534856,0.11031,-60.8245,0.1077,
2,0,0,1,0,7365.07,0.105971,0.105647,-14.0069,6,0.00957834,11,-0.00147979,-1.85366,0.381727,0.154561,-84.3425,0.105647,
2,0,0,1,0,7365.09,0.103974,0.103667,-13.8131,6,0.00930013,11,-0.00143196,-1.85971,0.290528,0.203079,-109.278,0.103667,
2,0,0,1,0,7365.11,0.101976,0.101664,-13.5716,6,0.0090263,11,-0.00137975,-1.86737,0.236033,0.249965,-132.152,0.101664,
2,0,0,1,0,7365.13,0.0999786,0.0996597,-13.2835,6,0.00875784,11,-0.00132383,-1.87669,0.210848,0.279822,-145.028,0.0996597,
2,0,0,1,0,7365.15,0.0979811,0.0976756,-12.9931,6,0.00849638,11,-0.00126911,-1.88629,0.191347,0.30834,-156.073,0.0976756,
2,0,0,1,0,7365.17,0.0959835,0.0956718,-12.6611,6,0.0082399,11,-0.00121132,-1.89753,0.171873,0.343276,-169.469,0.0956718,
2,0,0,1,0,7365.19,0.0939859,0.0936602,-12.3126,6,0.00799025,11,-0.0011532,-1.90965,0.166291,0.3548,-170.525,0.0936602,
2,0,0,1,0,7365.21,0.0919883,0.0916515,-11.9756,6,0.00774749,11,-0.00109758,-1.9217,0.170296,0.346455,-162.143,0.0916515,
2,0,0,1,0,7365.23,0.0899907,0.0897382,-11.6767,6,0.00751225,11,-0.00104785,-1.93268,0.170297,0.346454,-157.631,0.0897382,
2,0,0,1,0,7365.25,0.0879931,0.0876603,-11.3464,6,0.00728212,11,-0.000994632,-1.94514,0.176003,0.335222,-148.777,0.0876603,
2,0,0,1,0,7365.27,0.0859955,0.0856791,-11.0728,6,0.00705804,11,-0.000948708,-1.95574,0.18988,0.310722,-134.326,0.0856791,
2,0,0,1,0,7365.29,0.083998,0.0836814,-10.812,6,0.00683933,11,-0.000904761,-1.96609,0.202296,0.291652,-123.253,0.0836814,
2,0,0,1,0,7365.31,0.0820004,0.0817443,-10.5878,6,0.00662645,11,-0.000865495,-1.97519,0.22785,0.258942,-107.076,0.0817443,
2,0,0,1,0,7365.33,0.0800028,0.079668,-10.3822,6,0.00641682,11,-0.000827131,-1.98371,0.251052,0.235011,-95.3283,0.079668,
2,0,0,1,0,7365.35,0.0780052,0.0776962,-10.2019,6,0.00621108,11,-0.000792651,-1.99132,0.269804,0.218677,-87.127,0.0776962,
2,0,0,1,0,7365.37,0.0760076,0.0757152,-10.0378,6,0.0060088,11,-0.000760017,-1.99836,0.301381,0.195765,-76.7657,0.0757152,
2,0,0,1,0,7365.39,0.07401,0.0736992,-9.8951,6,0.00581069,11,-0.000729261,-2.00458,0.329138,0.179256,-69.2395,0.0736992,
2,0,0,1,0,7365.41,0.0720124,0.0716751,-9.7581,6,0.00561428,11,-0.000699412,-2.01063,0.333343,0.176995,-67.4131,0.0716751,
2,0,0,1,0,7365.43,0.0700148,0.06969,-9.62483,6,0.00542051,11,-0.000670754,-2.01661,0.33356,0.17688,-66.4506,0.06969,
2,0,0,1,0,7365.45,0.0680173,0.0677249,-9.4956,6,0.00522943,11,-0.000643088,-2.02248,0.382005,0.154448,-57.3225,0.0677249,
2,0,0,1,0,7365.47,0.0660106,0.0656986,-9.39603,6,0.00504075,11,-0.000617306,-2.02706,0.386112,0.152806,-55.955,0.0656986,
2,0,0,1,0,7365.49,0.0640221,0.0637114,-9.27103,6,0.004855,11,-0.00059067,-2.03287,0.329142,0.179254,-64.8224,0.0637114,
2,0,0,1,0,7365.51,0.0620245,0.0617051,-9.13716,6,0.00467101,11,-0.00056381,-2.03919,0.326772,0.180554,-64.4112,0.0617051,
2,0,0,1,0,7365.53,0.0600269,0.059691,-9.01207,6,0.00448954,11,-0.00053794,-2.04518,0.333211,0.177065,-62.2848,0.059691,
2,0,0,1,0,7365.55,0.0580361,0.057747,-8.89063,6,0.00431141,11,-0.000513407,-2.05107,0.310952,0.18974,-65.7661,0.057747,
2,0,0,1,0,7365.57,0.0560317,0.055735,-8.7519,6,0.00413488,11,-0.000487787,-2.0579,0.293535,0.200998,-68.6456,0.055735,
2,0,0,1,0,7365.59,0.0540342,0.0537,-8.61283,6,0.00396127,11,-0.000462509,-2.06485,0.282437,0.208896,-70.191,0.05370003,
2,0,0,1,0,7365.61,0.0520366,0.0517045,-8.469,6,0.00379048,11,-0.000437886,-2.07217,0.243093,0.242705,-80.0759,0.0517045,
2,0,0,1,0,7365.63,0.050039,0.0497563,-8.29703,6,0.00362276,11,-0.00041283,-2.08108,0.24338,0.242419,-78.632,0.0497563,
2,0,0,1,0,7365.65,0.0480414,0.0477183,-8.15555,6,0.00345898,11,-0.000389169,-2.08855,0.244012,0.241791,-76.8451,0.0477183,
2,0,0,1,0,7365.67,0.0460438,0.0457855,-7.99189,6,0.00329754,11,-0.000365913,-2.09735,0.21721,0.271627,-84.6675,0.0457855,
2,0,0,1,0,7365.69,0.0440462,0.0437631,-7.82067,6,0.00313948,11,-0.000342257,-2.10676,0.214658,0.274856,-83.8803,0.0437631,
2,0,0,1,0,7365.71,0.0420486,0.0417099,-7.65003,6,0.00298492,11,-0.000319082,-2.11634,0.226612,0.260356,-77.8618,0.0417099,
2,0,0,1,0,7365.73,0.040051,0.0397377,-7.50725,6,0.00283411,11,-0.00029832,-2.12452,0.226849,0.260085,-76.1231,0.0397377,
2,0,0,1,0,7365.75,0.0380535,0.0377834,-7.35113,6,0.00268562,11,-0.00027775,-2.13365,0.216634,0.272348,-78.1155,0.0377834,
2,0,0,1,0,7365.77,0.0360559,0.0357232,-7.19366,6,0.00254031,11,-0.000256981,-2.14305,0.231728,0.254609,-71.6015,0.0357232,
2,0,0,1,0,7365.79,0.0340583,0.0337525,-7.06251,6,0.00239785,11,-0.000238377,-2.15104,0.265557,0.222175,-61.3121,0.0337525,
2,0,0,1,0,7365.81,0.0320607,0.0317488,-6.94998,6,0.00225844,11,-0.000220654,-2.15802,0.281293,0.209746,-56.8669,0.0317488,
2,0,0,1,0,7365.83,0.0300631,0.0297152,-6.83292,6,0.00212067,11,-0.000203042,-2.16539,0.288301,0.204647,-54.6404,0.0297152,
2,0,0,1,0,7365.85,0.0280655,0.0277949,-6.73393,6,0.00198509,11,-0.000187169,-2.17173,0.339463,0.173804,-45.7317,0.0277949,
2,0,0,1,0,7365.87,0.0260679,0.0257604,-6.65206,6,0.00185125,11,-0.00017136,-2.17704,0.401249,0.147041,-38.2023,0.0257604,
2,0,0,1,0,7365.89,0.0240704,0.0237902,-6.58095,6,0.00171961,11,-0.000156562,-2.18171,0.462636,0.12753,-32.784,0.0237902,
2,0,0,1,0,7365.91,0.0220728,0.0218025,-6.52231,6,0.00158865,11,-0.000142203,-2.1856,0.510034,0.115679,-29.4426,0.0218025,
2,0,0,1,0,7365.93,0.0200752,0.0197767,-6.46278,6,0.00145883,11,-0.000127812,-2.18958,0.547281,0.107806,-27.2115,0.0197767,
2,0,0,1,0,7365.95,0.0180776,0.0177976,-6.41333,6,0.00132999,11,-0.000114142,-2.19292,0.886857,0.066527,-16.6933,0.0177976,
2,0,0,1,0,7365.97,0.01608,0.0158043,-6.39647,6,0.00120264,11,-0.000101092,-2.19406,1.52826,0.0386059,-9.63338,0.0158043,
2,0,0,1,0,7365.99,0.0140824,0.0137524,-6.37436,6,0.00107493,11,-8.76628e-05,-2.19556,1.25985,0.046831,-11.6475,0.0137524,
2,0,0,1,0,7366.01,0.0120848,0.0117574,-6.34933,6,0.0009477,11,-7.46514e-05,-2.19727,1.23741,0.0476802,-11.8183,0.0117574,
2,0,0,1,0,7366.03,0.0100872,0.00982954,-6.328,6,0.00082098,11,-6.22013e-05,-2.19873,4.47071,0.013197,-3.26679,0.00982954,
2,0,0,1,0,7366.05,0.00809193,0.0077664,-6.33629,6,0.00069504,11,-4.92102e-05,-2.19816,-6.04436,-0.00976117,2.4125,0.0077664,
2,0,0,1,0,7366.07,0.00609208,0.0057683,-6.3378,6,0.00056827,11,-3.65583e-05,-2.19806,13.0958,0.00450525,-1.11369,0.0057683,
2,0,0,1,0,7366.09,0.00409449,0.00377758,-6.33185,6,0.000441635,11,-2.39191e-05,-2.19847,-0.873756,-0.0675246,16.7907,0.00377758,
2,0,0,1,0,7366.11,0.0020969,0.00174175,-6.40541,6,0.000314739,11,-1.11566e-05,-2.19345,-0.97177,-0.060714,15.0751,0.00174175,
2,0,0,1,0,7366.13,9.14991e-05,-0.000256349,-6.39266,6,0.000186727,11,1.63875e-06,-2.19432,9.41864,0.00626418,-1.56517,-0.000256349,
2,0,0,1,0,7366.15,-0.00189827,-0.00225937,-6.39914,6,5.93797e-05,11,1.4458e-05,-2.19388,-4.24402,-0.0139019,3.47209,-0.00225937,
2,0,0,1,0,7366.17,-0.00389586,-0.00424901,-6.40652,6,-6.86975e-05,11,2.72214e-05,-2.19338,-1.63576,-0.0360688,9.03322,-0.004249014,
2,0,0,1,0,7366.19,-0.00589345,-0.00626729,-6.43535,6,-0.000197105,11,4.03322e-05,-2.19143,-1.43744,-0.0410451,10.2953,-0.00626729,
2,0,0,1,0,7366.21,-0.00789103,-0.00824988,-6.44771,6,-0.000325944,11,5.31929e-05,-2.19059,-1.00896,-0.0584763,14.7531,-0.00824988,
2,0,0,1,0,7366.23,-0.00988862,-0.010236,-6.4939,6,-0.000454831,11,6.64714e-05,-2.18749,-0.773498,-0.0762768,19.3086,-0.010236,
2,0,0,1,0,7366.25,-0.0118862,-0.0122497,-6.52495,6,-0.00058508,11,7.99286e-05,-2.18542,-0.972126,-0.0606917,15.454,-0.0122497,
2,0,0,1,0,7366.27,-0.0138838,-0.0142044,-6.55523,6,-0.000716005,11,9.31132e-05,-2.18341,-0.860804,-0.0685406,17.5468,-0.0142044,
2,0,0,1,0,7366.29,-0.0158814,-0.016222,-6.59465,6,-0.000847494,11,0.000106979,-2.18081,-0.63334,-0.093157,24.0067,-0.016222,
2,0,0,1,0,7366.31,-0.017879,-0.0182097,-6.65138,6,-0.000979403,11,0.00012112,-2.17709,-0.67244,-0.0877402,22.7378,-0.0182097,
2,0,0,1,0,7366.33,-0.0198766,-0.020245,-6.68612,6,-0.0011128,11,0.000135361,-2.17483,-0.843859,-0.0699169,18.2491,-0.020245,
2,0,0,1,0,7366.35,-0.0218741,-0.0222297,-6.72474,6,-0.00124691,11,0.000149489,-2.17232,-0.66923,-0.0881611,23.1628,-0.0222297,
2,0,0,1,0,7366.37,-0.0238717,-0.0242247,-6.7783,6,-0.001382,11,0.000164203,-2.16888,-0.563138,-0.10477,27.7244,-0.02422473,
2,0,0,1,0,7366.39,-0.0258693,-0.0262624,-6.83655,6,-0.00151751,11,0.000179544,-2.16516,-0.639613,-0.0922432,24.5777,-0.0262624,
2,0,0,1,0,7366.41,-0.0278669,-0.0282149,-6.87637,6,-0.0016546,11,0.000194016,-2.16264,-0.664421,-0.0887991,23.8562,-0.0282149,
2,0,0,1,0,7366.43,-0.0298645,-0.0302343,-6.9313,6,-0.00179267,11,0.000209563,-2.15919,-0.615413,-0.0958706,25.922,-0.0302343,
2,0,0,1,0,7366.45,-0.0318621,-0.032222,-6.98024,6,-0.00193189,11,0.000224917,-2.15613,-0.550824,-0.107112,29.2174,-0.03222198,
2,0,0,1,0,7366.47,-0.0338597,-0.0342219,-7.04781,6,-0.00207144,11,0.00024119,-2.15195,-0.542774,-0.108701,29.8634,-0.0342219,
2,0,0,1,0,7366.49,-0.0358573,-0.0362037,-7.09915,6,-0.00221291,11,0.000257015,-2.14879,-0.574503,-0.102698,28.4736,-0.0362037,
2,0,0,1,0,7366.51,-0.0378548,-0.0381979,-7.16102,6,-0.00235564,11,0.000273536,-2.14503,-0.600531,-0.0982463,27.43,-0.0381979,
2,0,0,1,0,7366.53,-0.0398524,-0.0402087,-7.20901,6,-0.00249945,11,0.000289865,-2.14212,-0.518768,-0.113731,32.0691,-0.0402087,
2,0,0,1,0,7366.55,-0.04185,-0.0422073,-7.2896,6,-0.00264372,11,0.000307674,-2.1373,-0.469155,-0.125758,35.7303,-0.0422073,
2,0,0,1,0,7366.57,-0.0438476,-0.0442019,-7.35169,6,-0.0027902,11,0.000324958,-2.13361,-0.573537,-0.10287,29.5001,-0.0442019,
2,0,0,1,0,7366.59,-0.0458452,-0.046177,-7.4067,6,-0.00293787,11,0.000342019,-2.13038,-0.534623,-0.110358,31.9354,-0.046177,
2,0,0,1,0,7366.61,-0.0478428,-0.0481712,-7.47845,6,-0.0030867,11,0.000360246,-2.12619,-0.435765,-0.135394,39.5581,-0.0481712,
2,0,0,1,0,7366.63,-0.0498495,-0.0502192,-7.5666,6,-0.00323709,11,0.000379988,-2.1211,-0.448668,-0.1315,38.7788,-0.05021916,
2,0,0,1,0,7366.65,-0.051838,-0.0521951,-7.63449,6,-0.00338838,11,0.000398483,-2.11722,-0.549414,-0.107387,31.9777,-0.0521951,
2,0,0,1,0,7366.67,-0.0538355,-0.054203,-7.694,6,-0.00354164,11,0.000417038,-2.11385,-0.495043,-0.119181,35.842,-0.05420303,
2,0,0,1,0,7366.69,-0.0558331,-0.0561889,-7.77764,6,-0.0036964,11,0.000437017,-2.10915,-0.433104,-0.136226,41.3358,-0.0561889,
2,0,0,1,0,7366.71,-0.0578216,-0.0581382,-7.85666,6,-0.00385201,11,0.000456772,-2.10476,-0.430156,-0.13716,42.0757,-0.0581382,
2,0,0,1,0,7366.73,-0.0598283,-0.0601342,-7.94363,6,-0.00401014,11,0.000477684,-2.09998,-0.408493,-0.144433,44.797,-0.0601342,
2,0,0,1,0,7366.75,-0.0618259,-0.0621986,-8.03856,6,-0.00416999,11,0.000499987,-2.09482,-0.409805,-0.143971,45.1458,-0.0621986,
2,0,0,1,0,7366.77,-0.0638235,-0.064192,-8.12683,6,-0.00433173,11,0.000521677,-2.09008,-0.421925,-0.139835,44.3484,-0.06419196,
2,0,0,1,0,7366.79,-0.0658211,-0.0661744,-8.21488,6,-0.00449518,11,0.000543615,-2.0854,-0.374935,-0.157361,50.5227,-0.0661744,
2,0,0,1,0,7366.81,-0.0678187,-0.0681629,-8.32745,6,-0.00465997,11,0.000567624,-2.07949,-0.355208,-0.1661,53.949,-0.0681629,
2,0,0,1,0,7366.83,-0.0698162,-0.0701795,-8.43095,6,-0.00482768,11,0.00059168,-2.07412,-0.381117,-0.154808,50.921,-0.0701795,
2,0,0,1,0,7366.85,-0.0718138,-0.0721393,-8.52993,6,-0.00499742,11,0.000615343,-2.06905,-0.359513,-0.164111,54.6903,-0.0721393,
2,0,0,1,0,7366.87,-0.0738114,-0.0741497,-8.64808,6,-0.00516928,11,0.000641252,-2.06308,-0.315289,-0.18713,63.2172,-0.0741497,
2,0,0,1,0,7366.89,-0.075809,-0.0761541,-8.78373,6,-0.00534291,11,0.000668917,-2.05632,-0.329571,-0.179021,61.2694,-0.0761541,
2,0,0,1,0,7366.91,-0.0778066,-0.0781326,-8.89211,6,-0.00551979,11,0.000694764,-2.051,-0.349713,-0.16871,58.6024,-0.0781326,
2,0,0,1,0,7366.93,-0.0798042,-0.0801546,-9.01818,6,-0.00569901,11,0.000722848,-2.04488,-0.316661,-0.186319,65.6213,-0.0801546,
2,0,0,1,0,7366.95,-0.0818018,-0.0821878,-9.15822,6,-0.00588087,11,0.000752694,-2.03819,-0.292361,-0.201805,72.1512,-0.0821878,
2,0,0,1,0,7366.97,-0.0837994,-0.0841373,-9.30554,6,-0.00606463,11,0.000782943,-2.03126,-0.314105,-0.187835,68.1186,-0.08413735,
2,0,0,1,0,7366.99,-0.0857969,-0.0861453,-9.42779,6,-0.00625196,11,0.00081216,-2.02559,-0.32913,-0.179261,66.0221,-0.0861453,
2,0,0,1,0,7367.01,-0.0877945,-0.0881432,-9.57001,6,-0.00644205,11,0.000843531,-2.01909,-0.311173,-0.189605,70.8089,-0.0881432,
2,0,0,1,0,7367.03,-0.0897921,-0.0901586,-9.71197,6,-0.00663498,11,0.000875617,-2.01269,-0.315945,-0.186741,70.7685,-0.0901586,
2,0,0,1,0,7367.05,-0.0917897,-0.0921293,-9.8521,6,-0.00682963,11,0.000907667,-2.00647,-0.325544,-0.181235,69.6695,-0.09212929,
2,0,0,1,0,7367.07,-0.0937873,-0.0941404,-9.98938,6,-0.00702811,11,0.000940404,-2.00046,-0.345384,-0.170824,66.5635,-0.0941404,
2,0,0,1,0,7367.09,-0.0957849,-0.0961229,-10.1179,6,-0.00722921,11,0.000972564,-1.99491,-0.376633,-0.156651,61.8119,-0.0961229,
2,0,0,1,0,7367.11,-0.0977825,-0.0980767,-10.2327,6,-0.00743273,11,0.00100359,-1.99001,-0.383407,-0.153884,61.5015,-0.0980767,
2,0,0,1,0,7367.13,-0.0997501,-0.100132,-10.3645,6,-0.00763457,11,0.00103781,-1.98445,0.0068151,8.65725,-2890.65,-0.100132,
2,0,0,1,1,7367.15,-0.0987313,-0.0991699,-7.07267,6,-0.00776958,11,0.000701396,-2.15042,-0.00655739,-8.99748,2244.31,-0.0991699,
2,0,0,1,1,7367.17,-0.0967337,-0.0971141,-3.59248,6,-0.00787321,11,0.00034888,-2.44461,-0.00554819,-10.6341,1419.63,-0.0971141,
2,0,0,1,1,7367.19,-0.0947361,-0.095113,-1.3133,6,-0.0079206,11,0.000124912,-2.88163,-0.00356906,-16.5309,970.084,-0.095113,
2,1,0,1,1,7367.21,-0.0927386,-0.0931279,0.274483,6,-0.00792996,11,-2.5562e-05,-3.56148,0.117971,0.500125,680.26,-0.0931279,
2,1,0,1,1,7367.22,-0.090741,-0.0910943,1.42047,6,-0.00791253,11,-0.000129396,-2.84757,0.00439011,13.4393,490.623,-0.0910943,
2,1,0,1,1,7367.24,-0.0887434,-0.0891279,2.237,6,-0.0078756,11,-0.000199379,-2.65033,0.0130389,4.52494,364.01,-0.0891279,
2,1,0,1,1,7367.26,-0.0867458,-0.08711,2.87079,6,-0.00782427,11,-0.000250074,-2.542,0.0227614,2.59211,279.364,-0.08711,
2,1,0,1,1,7367.28,-0.0847482,-0.0850996,3.36235,6,-0.00776177,11,-0.000286134,-2.47336,0.0346554,1.70248,218.523,-0.0850996,
2,1,0,1,1,7367.3,-0.0827529,-0.0831058,3.7458,6,-0.00769098,11,-0.000311298,-2.42645,0.048908,1.20635,174.227,-0.08310575,
2,1,0,1,1,7367.32,-0.080753,-0.0810899,4.06095,6,-0.00761278,11,-0.000329302,-2.39137,0.0656023,0.899359,141.149,-0.0810899,
2,1,0,1,1,7367.34,-0.0787554,-0.0791065,4.31029,6,-0.00752903,11,-0.000340972,-2.36549,0.087788,0.672074,112.323,-0.0791065,
2,1,0,1,1,7367.36,-0.0767579,-0.0770763,4.51176,6,-0.00744077,11,-0.00034775,-2.34565,0.108754,0.542507,95.2243,-0.0770763,
2,1,0,1,1,7367.38,-0.0747603,-0.0751168,4.69021,6,-0.00734872,11,-0.000352314,-2.32881,0.127936,0.461168,84.1928,-0.0751168,
2,1,0,1,1,7367.4,-0.0727627,-0.0730816,4.84809,6,-0.00725368,11,-0.000354306,-2.31443,0.164933,0.357721,67.346,-0.0730816,
2,1,0,1,1,7367.42,-0.0707651,-0.0711073,4.96023,6,-0.00715554,11,-0.000352709,-2.3045,0.202516,0.291335,56.3809,-0.0711073,
2,1,0,1,1,7367.44,-0.0687675,-0.0691252,5.07116,6,-0.00705523,11,-0.000350545,-2.29489,0.225267,0.261911,51.7512,-0.0691252,
2,1,0,1,1,7367.46,-0.0667699,-0.067111,5.16704,6,-0.00695285,11,-0.000346766,-2.28676,0.260139,0.226802,45.6906,-0.067111,
2,1,0,1,1,7367.48,-0.0647723,-0.0651259,5.25388,6,-0.00684903,11,-0.000342164,-2.27952,0.302461,0.195066,39.939,-0.0651259,
2,1,0,1,1,7367.5,-0.0627748,-0.0631231,5.32632,6,-0.00674326,11,-0.000336214,-2.27357,0.343953,0.171535,35.6493,-0.0631231,
2,1,0,1,1,7367.52,-0.0607772,-0.061108,5.39712,6,-0.00663606,11,-0.000329807,-2.26784,0.399499,0.147685,31.0572,-0.061108,
2,1,0,1,1,7367.54,-0.0587796,-0.0591078,5.45102,6,-0.00652762,11,-0.000322198,-2.26352,0.490745,0.120225,25.5639,-0.05910778,
2,1,0,1,1,7367.56,-0.056782,-0.0570861,5.49994,6,-0.00641871,11,-0.00031397,-2.25964,0.556482,0.106023,22.7426,-0.0570861,
2,1,0,1,1,7367.58,-0.0547844,-0.0551088,5.54197,6,-0.00630835,11,-0.000305412,-2.25634,0.655214,0.0900469,19.4641,-0.0551088,
2,1,0,1,1,7367.6,-0.0527868,-0.0531026,5.57747,6,-0.00619715,11,-0.000296178,-2.25356,0.876658,0.0673011,14.6326,-0.0531026,
2,1,0,1,1,7367.62,-0.0507892,-0.0511271,5.60023,6,-0.00608545,11,-0.000286324,-2.25179,0.73524,0.0802459,17.5772,-0.0511271,
2,1,0,1,1,7367.64,-0.0487916,-0.0491004,5.64782,6,-0.00597355,11,-0.00027731,-2.24812,0.84701,0.0696568,15.3069,-0.04910038,
2,1,0,1,1,7367.66,-0.046794,-0.0471422,5.66123,6,-0.00586049,11,-0.000266883,-2.24709,2.2064,0.0267404,5.90636,-0.0471422,
2,1,0,1,1,7367.68,-0.0447965,-0.0450977,5.67146,6,-0.00574718,11,-0.00025577,-2.24631,1.73928,0.0339221,7.51495,-0.0450977,
2,1,0,1,1,7367.7,-0.0427989,-0.0430801,5.69176,6,-0.00563362,11,-0.000245201,-2.24475,1.22586,0.0481295,10.6928,-0.0430801,
2,1,0,1,1,7367.72,-0.0408013,-0.041129,5.7139,6,-0.00552024,11,-0.000235007,-2.24307,3.32608,0.0177386,3.94567,-0.041129,
2,1,0,1,1,7367.74,-0.0388037,-0.0391419,5.7073,6,-0.00540602,11,-0.000223394,-2.24357,-21.1672,-0.00278733,-0.621428,-0.03914189,
2,1,0,1,1,7367.76,-0.0368061,-0.0371601,5.71143,6,-0.00529185,11,-0.000212237,-2.24326,3.18441,0.0185278,4.13276,-0.0371601,
2,1,0,1,1,7367.78,-0.0348085,-0.0351771,5.72368,6,-0.00517749,11,-0.000201343,-2.24232,2.27886,0.0258902,5.78263,-0.0351771,
2,1,0,1,1,7367.8,-0.0328109,-0.0331403,5.73467,6,-0.00506365,11,-0.000190049,-2.24149,103.176,0.000571839,0.127742,-0.0331403,
2,1,0,1,1,7367.82,-0.0308134,-0.0311114,5.7242,6,-0.00494917,11,-0.000178088,-2.24229,-2.69473,-0.0218946,-4.89172,-0.0311114,
2,1,0,1,1,7367.84,-0.0288158,-0.0291142,5.71498,6,-0.00483479,11,-0.000166387,-2.24299,-4.14407,-0.0142372,-3.17704,-0.0291142,
2,1,0,1,1,7367.86,-0.0268182,-0.0271287,5.71155,6,-0.00472054,11,-0.000154947,-2.24325,-7.59856,-0.00776463,-1.73077,-0.0271287,
2,1,0,1,1,7367.88,-0.0248138,-0.0251519,5.70812,6,-0.00460656,11,-0.00014357,-2.24351,-15.9828,-0.00369146,-0.822606,-0.0251519,
2,1,0,1,1,7367.9,-0.022823,-0.0231583,5.70828,6,-0.00449303,11,-0.000132194,-2.24349,-3.85281,-0.0153135,-3.40726,-0.02315833,
2,1,0,1,1,7367.92,-0.0208254,-0.0211027,5.69433,6,-0.00437908,11,-0.000120166,-2.24456,-1.56487,-0.0377028,-8.37481,-0.0211027,
2,1,0,1,1,7367.94,-0.0188278,-0.0191869,5.67502,6,-0.00426549,11,-0.000108886,-2.24603,-1.80457,-0.0326948,-7.24761,-0.01918692,
2,1,0,1,1,7367.96,-0.0168393,-0.0171686,5.66581,6,-0.00415273,11,-9.7274e-05,-2.24674,-5.58087,-0.0105718,-2.3395,-0.0171686,
2,1,0,1,1,7367.98,-0.0148327,-0.0151826,5.66565,6,-0.00403933,11,-8.60196e-05,-2.24675,-2.19228,-0.0269126,-5.93833,-0.0151826,
2,1,0,1,1,7368,-0.0128351,-0.0131438,5.64191,6,-0.00392633,11,-7.4156e-05,-2.24857,-1.21958,-0.0483775,-10.6567,-0.0131438,
2,1,0,1,1,7368.02,-0.0108375,-0.0111943,5.62315,6,-0.00381367,11,-6.2947e-05,-2.25002,-2.42394,-0.0243406,-5.34933,-0.0111943,
2,1,0,1,1,7368.04,-0.00883989,-0.00915928,5.6206,6,-0.00370118,11,-5.14806e-05,-2.25022,-4.09467,-0.014409,-3.15855,-0.00915928,
2,1,0,1,1,7368.06,-0.0068423,-0.0071951,5.61052,6,-0.00358937,11,-4.03682e-05,-2.251,-1.79565,-0.0328572,-7.18893,-0.0071951,
2,1,0,1,1,7368.08,-0.00484471,-0.00516438,5.59188,6,-0.00347739,11,-2.88786e-05,-2.25244,-1.73685,-0.0339696,-7.41827,-0.00516438,
2,1,0,1,1,7368.1,-0.00284713,-0.00318386,5.58076,6,-0.00336567,11,-1.77684e-05,-2.25331,-1.6636,-0.0354652,-7.71857,-0.00318386,
2,1,0,1,1,7368.12,-0.000849538,-0.00121247,5.56137,6,-0.00325424,11,-6.743e-06,-2.25482, , , ,-0.00121247,
2,1,0,0,1,7368.13,-2.55332e-05,-0.000401673,5.55435,6,-0.00320924,11,-2.23103e-06,-2.25537, , , ,-0.000401673,