File: Figure_codes/Fig_3-5/rawdata_trumpetplot_data/before 10th/20221101_1-115_002_TrumpetPlot_ParaChange_10_CV_C01_3.csv
mode,ox/red,error,control changes,counter inc.,time/s,control/V,Ewe/V,<I>/mA,cycle number,(Q-Qo)/C,I Range,P/W,log(|I|),Tafel slope mV/dec,alpha_eff,dI/d(E-IR),E-IR/V,
2,0,0,0,0,4889.28,2.44065e-05,0.000266383,-5.78081,4,0.0000000E+000,11,-1.53991e-06,-2.23801, , , ,0.000266383,
2,0,0,1,0,4889.29,0.0012943,0.000916034,-2.38084,4,-6.53869e-05,11,-2.18093e-06,-2.62327, , , ,0.000916034,
2,0,0,1,0,4889.31,0.00279784,0.00249926,0.212711,4,-8.31792e-05,11,5.31619e-07,-3.67221,-0.013138,-4.49079,1345.79,0.00249926,
2,1,0,1,0,4889.33,0.00429425,0.00395583,1.5185,4,-6.5723e-05,11,6.00694e-06,-2.81858,0.00576967,10.2259,699.553,0.00395583,
2,1,0,1,0,4889.35,0.00579065,0.00547552,2.22695,4,-3.00323e-05,11,1.21937e-05,-2.65229,0.0105597,5.58727,399.561,0.00547552,
2,1,0,1,0,4889.37,0.0072942,0.00699228,2.63828,4,1.59923e-05,11,1.84476e-05,-2.57868,0.0245652,2.40177,230.678,0.00699228,
2,1,0,1,0,4889.38,0.00878347,0.00845518,2.89316,4,6.75302e-05,11,2.44622e-05,-2.53863,0.0457234,1.29037,140.54,0.00845518,
2,1,0,1,0,4889.4,0.010287,0.00999001,3.04303,4,0.000123376,11,3.03999e-05,-2.51669,0.0773271,0.762992,88.7493,0.00999001,
2,1,0,1,0,4889.42,0.0117905,0.0115323,3.13663,4,0.000181578,11,3.61727e-05,-2.50354,0.121178,0.486885,59.0822,0.0115323,
2,1,0,1,0,4889.44,0.013278,0.0129693,3.19912,4,0.000240528,11,4.14905e-05,-2.49497,0.166748,0.353828,44.1068,0.0129693,
2,1,0,1,0,4889.46,0.0147816,0.0144684,3.24946,4,0.000301311,11,4.70144e-05,-2.48819,0.201845,0.292304,37.0385,0.0144684,
2,1,0,1,0,4889.48,0.0162851,0.0160117,3.29808,4,0.000363073,11,5.28079e-05,-2.48174,0.267848,0.220274,28.2996,0.0160117,
2,1,0,1,0,4889.5,0.0177744,0.0175053,3.33578,4,0.00042492,11,5.83939e-05,-2.4768,0.380361,0.155116,20.1565,0.0175053,
2,1,0,1,0,4889.52,0.0192779,0.0190023,3.36323,4,0.000487965,11,6.39092e-05,-2.47324,0.435215,0.135565,17.8038,0.01900229,
2,1,0,1,0,4889.53,0.0207743,0.0204854,3.39858,4,0.000551254,11,6.96215e-05,-2.4687,0.352709,0.167277,22.1872,0.0204854,
2,1,0,1,0,4889.55,0.0222707,0.0219376,3.42821,4,0.000615148,11,7.52069e-05,-2.46493,0.432058,0.136556,18.2766,0.0219376,
2,1,0,1,0,4889.57,0.0237743,0.0235079,3.46272,4,0.000680052,11,8.14013e-05,-2.46058,0.511654,0.115312,15.5735,0.0235079,
2,1,0,1,0,4889.59,0.0252636,0.0250083,3.48481,4,0.000744694,11,8.71491e-05,-2.45782,0.506789,0.116419,15.8634,0.0250083,
2,1,0,1,0,4889.61,0.0267671,0.0264954,3.52024,4,0.000810543,11,9.32702e-05,-2.45343,0.421807,0.139874,19.1873,0.0264954,
2,1,0,1,0,4889.63,0.0282706,0.0279699,3.55596,4,0.000877016,11,9.946e-05,-2.44904,0.372605,0.158345,21.9367,0.0279699,
2,1,0,1,0,4889.65,0.0297581,0.0295034,3.58848,4,0.000943364,11,0.000105872,-2.44509,0.418234,0.141069,19.6935,0.0295034,
2,1,0,1,0,4889.67,0.0312617,0.0309765,3.60837,4,0.00101102,11,0.000111775,-2.44269,0.396258,0.148893,20.9711,0.0309765,
2,1,0,1,0,4889.68,0.0327652,0.0324432,3.64441,4,0.00107918,11,0.000118236,-2.43837,0.355317,0.166049,23.6101,0.03244317,
2,1,0,1,0,4889.7,0.0342545,0.0339524,3.67497,4,0.00114722,11,0.000124774,-2.43475,0.313112,0.188431,27.0473,0.03395243,
2,1,0,1,0,4889.72,0.035758,0.0354886,3.70886,4,0.00121669,11,0.000131622,-2.43076,0.343623,0.1717,24.8314,0.03548862,
2,1,0,1,0,4889.74,0.0372544,0.0369591,3.74085,4,0.00128651,11,0.000138259,-2.42703,0.340669,0.173189,25.3104,0.0369591,
2,1,0,1,0,4889.76,0.0387508,0.0384625,3.77381,4,0.00135682,11,0.00014515,-2.42322,0.331078,0.178206,26.3459,0.03846249,
2,1,0,1,0,4889.78,0.0402544,0.0399578,3.8126,4,0.00142828,11,0.000152343,-2.41878,0.280125,0.21062,31.4309,0.0399578,
2,1,0,1,0,4889.8,0.0417437,0.04145,3.86639,4,0.00149986,11,0.000160262,-2.41269,0.311604,0.189343,28.54,0.04145,
2,1,0,1,0,4889.82,0.0432472,0.0429545,3.90859,4,0.00157305,11,0.000167892,-2.40798,0.339919,0.173571,26.4704,0.0429545,
2,1,0,1,0,4889.83,0.0447507,0.0444733,3.94267,4,0.00164693,11,0.000175343,-2.40421,0.316488,0.186421,28.7865,0.0444733,
2,1,0,1,0,4889.85,0.0462382,0.045941,3.99909,4,0.00172089,11,0.000183722,-2.39804,0.278979,0.211485,33.0303,0.045941,
2,1,0,1,0,4889.87,0.0477418,0.0474363,4.04982,4,0.00179663,11,0.000192108,-2.39256,0.278653,0.211733,33.5111,0.0474363,
2,1,0,1,0,4889.89,0.0492453,0.048952,4.10935,4,0.00187341,11,0.000201161,-2.38623,0.280285,0.2105,33.7198,0.048952,
2,1,0,1,0,4889.91,0.0507346,0.0504473,4.16111,4,0.00195032,11,0.000209917,-2.38079,0.269868,0.218626,35.5364,0.0504473,
2,1,0,1,0,4889.93,0.0522381,0.0519351,4.22212,4,0.00202911,11,0.000219276,-2.37447,0.23694,0.249008,41.0655,0.0519351,
2,1,0,1,0,4889.95,0.0537345,0.0534436,4.29941,4,0.00210869,11,0.000229776,-2.36659,0.225744,0.261359,43.7258,0.0534436,
2,1,0,1,0,4889.97,0.0552309,0.054974,4.35984,4,0.00218955,11,0.000239678,-2.36053,0.222676,0.264959,44.9688,0.054974,
2,1,0,1,0,4889.98,0.0567345,0.0564315,4.4205,4,0.00227206,11,0.000249456,-2.35453,0.212283,0.277931,47.9605,0.0564315,
2,1,0,1,0,4890,0.0582237,0.0579224,4.48823,4,0.0023549,11,0.000259969,-2.34792,0.196013,0.301001,52.819,0.0579224,
2,1,0,1,0,4890.02,0.0597273,0.0594633,4.56701,4,0.00244004,11,0.00027157,-2.34037,0.197182,0.299216,53.3174,0.0594633,
2,1,0,1,0,4890.04,0.0612308,0.0609477,4.63913,4,0.0025267,11,0.000282744,-2.33356,0.199726,0.295405,53.5061,0.0609477,
2,1,0,1,0,4890.06,0.0627183,0.0624767,4.7194,4,0.00261383,11,0.000294853,-2.32611,0.197224,0.299152,55.1583,0.0624767,
2,1,0,1,0,4890.08,0.0642219,0.0639175,4.79008,4,0.00270333,11,0.00030617,-2.31966,0.192482,0.306522,57.4838,0.0639175,
2,1,0,1,0,4890.1,0.0657254,0.065453,4.88203,4,0.00279445,11,0.000319544,-2.3114,0.191753,0.307687,58.6834,0.065453,
2,1,0,1,0,4890.11,0.0672147,0.0669483,4.97523,4,0.00288626,11,0.000333083,-2.30319,0.201535,0.292753,56.8145,0.0669483,
2,1,0,1,0,4890.13,0.0687182,0.0684551,5.06,4,0.00298072,11,0.000346383,-2.29585,0.219998,0.268184,52.9398,0.0684551,
2,1,0,1,0,4890.15,0.0702146,0.0698946,5.14589,4,0.00307621,11,0.00035967,-2.28854,0.213572,0.276253,55.5487,0.0698946,
2,1,0,1,0,4890.17,0.071711,0.0714011,5.23932,4,0.00317332,11,0.000374093,-2.28073,0.202497,0.291362,59.5493,0.0714011,
2,1,0,1,0,4890.19,0.0732146,0.0729485,5.33579,4,0.00327275,11,0.000389238,-2.2728,0.208228,0.283343,58.9327,0.0729485,
2,1,0,1,0,4890.21,0.0747038,0.0744567,5.42936,4,0.0033728,11,0.000404252,-2.26525,0.216466,0.27256,57.6267,0.0744567,
2,1,0,1,0,4890.23,0.0762074,0.0759135,5.506,4,0.00347555,11,0.00041798,-2.25916,0.21695,0.271952,58.4391,0.0759135,
2,1,0,1,0,4890.25,0.0777109,0.0774296,5.60498,4,0.00357998,11,0.000433991,-2.25143,0.201853,0.292291,63.8724,0.0774296,
2,1,0,1,0,4890.26,0.0791984,0.0789583,5.69826,4,0.00368498,11,0.000449925,-2.24426,0.21486,0.274598,60.9772,0.07895828,
2,1,0,1,0,4890.28,0.0807019,0.0804219,5.7861,4,0.00379293,11,0.000465329,-2.23761,0.223155,0.26439,59.5499,0.0804219,
2,1,0,1,0,4890.3,0.0822055,0.0819093,5.86838,4,0.00390253,11,0.000480675,-2.23148,0.226252,0.260771,59.6907,0.0819093,
2,1,0,1,0,4890.32,0.0836947,0.0834182,5.94903,4,0.00401243,11,0.000496257,-2.22555,0.224454,0.26286,61.1137,0.0834182,
2,1,0,1,0,4890.34,0.0851983,0.0849064,6.03531,4,0.0041252,11,0.000512436,-2.2193,0.232747,0.253494,59.7238,0.0849064,
2,1,0,1,0,4890.36,0.0866947,0.0863683,6.12261,4,0.00423905,11,0.000528799,-2.21306,0.247252,0.238623,56.9965,0.0863683,
2,1,0,1,0,4890.38,0.0881911,0.0879266,6.20806,4,0.00435445,11,0.000545853,-2.20704,0.259824,0.227077,54.9936,0.0879266,
2,1,0,1,0,4890.4,0.0896946,0.0894076,6.28447,4,0.00447191,11,0.000561879,-2.20173,0.278193,0.212083,52.0573,0.0894076,
2,1,0,1,0,4890.41,0.0911839,0.0908749,6.36879,4,0.00458965,11,0.000578763,-2.19594,0.26519,0.222482,55.2864,0.0908749,
2,1,0,1,0,4890.43,0.0926857,0.0924097,6.45507,4,0.00471027,11,0.000596512,-2.1901,0.275922,0.213828,53.8089,0.0924097,
2,1,0,1,0,4890.45,0.0941892,0.0939214,6.52869,4,0.00483247,11,0.000613184,-2.18517,0.313526,0.188182,47.9568,0.0939214,
2,1,0,1,0,4890.47,0.0956785,0.0953904,6.60227,4,0.00495468,11,0.000629793,-2.18031,0.315768,0.186846,48.2239,0.0953904,
2,1,0,1,0,4890.49,0.097182,0.0969079,6.69007,4,0.00507964,11,0.00064832,-2.17457,0.283023,0.208463,54.4069,0.0969079,
2,1,0,1,0,4890.51,0.0986856,0.0984089,6.778,4,0.00520622,11,0.000667016,-2.1689,0.280427,0.210394,55.5969,0.0984089,
2,1,0,1,0,4890.53,0.100175,0.099924,6.86368,4,0.00533302,11,0.000685846,-2.16344,0.280538,0.21031,56.2684,0.099924,
2,1,0,1,0,4890.55,0.101678,0.101344,6.94066,4,0.00546275,11,0.000703394,-2.1586,0.272191,0.21676,58.7592,0.101344,
2,1,0,1,0,4890.56,0.103175,0.102874,7.03967,4,0.0055934,11,0.0007242,-2.15245,0.248098,0.237809,65.3292,0.1028742,
2,1,0,1,0,4890.58,0.104671,0.104398,7.13517,4,0.00572586,11,0.0007449,-2.1466,0.242534,0.243265,67.6648,0.104398,
2,1,0,1,0,4890.6,0.106175,0.105938,7.23156,4,0.00586092,11,0.000766093,-2.14077,0.244516,0.241293,68.0537,0.105938,
2,1,0,1,0,4890.62,0.107662,0.107373,7.32563,4,0.00599636,11,0.000786574,-2.13515,0.230022,0.256498,73.4221,0.107373,
2,1,0,1,0,4890.64,0.109166,0.10887,7.42503,4,0.0061351,11,0.000808365,-2.1293,0.216614,0.272374,79.1574,0.10887,
2,1,0,1,0,4890.66,0.110669,0.110357,7.5428,4,0.00627599,11,0.0008324,-2.12247,0.200129,0.29481,87,0.110357,
2,1,0,1,0,4890.68,0.112159,0.111839,7.6806,4,0.00641777,11,0.000858988,-2.1146,0.197365,0.298939,89.6877,0.111839,
2,1,0,1,0,4890.7,0.113662,0.113382,7.81933,4,0.00656362,11,0.000886573,-2.10683,0.193274,0.305266,93.2501,0.113382,
2,1,0,1,0,4890.71,0.115166,0.114858,7.96815,4,0.00671214,11,0.000915206,-2.09864,0.185026,0.318874,99.2564,0.114858,
2,1,0,1,0,4890.73,0.116655,0.11636,8.12403,4,0.00686189,11,0.000945314,-2.09023,0.180635,0.326625,103.685,0.11636,
2,1,0,1,0,4890.75,0.118158,0.117848,8.29784,4,0.00701632,11,0.000977881,-2.08104,0.171006,0.345017,111.796,0.117848,
2,1,0,1,0,4890.77,0.119655,0.119383,8.47614,4,0.00717315,11,0.00101191,-2.0718,0.169901,0.347261,114.871,0.1193834,
2,1,0,1,0,4890.79,0.121151,0.120878,8.64798,4,0.00733322,11,0.00104535,-2.06309,0.163936,0.359898,121.611,0.120878,
2,1,0,1,0,4890.81,0.122655,0.122364,8.84449,4,0.00749765,11,0.00108225,-2.05333,0.157001,0.375793,129.671,0.1223642,
2,1,0,1,0,4890.83,0.124142,0.123836,9.04408,4,0.00766402,11,0.00111999,-2.04364,0.157261,0.375174,132.381,0.123836,
2,1,0,1,0,4890.85,0.125646,0.125365,9.24887,4,0.00783591,11,0.00115949,-2.03391,0.153938,0.383272,138.26,0.125365,
2,1,0,1,0,4890.86,0.127149,0.126861,9.44439,4,0.00801167,11,0.00119812,-2.02483,0.156263,0.377569,139.187,0.126861,
2,1,0,1,0,4890.88,0.128639,0.128379,9.65662,4,0.00818937,11,0.00123971,-2.01517,0.158369,0.372548,140.431,0.128379,
2,1,0,1,0,4890.9,0.130142,0.129855,9.8695,4,0.00837294,11,0.0012816,-2.0057,0.155599,0.379179,146.051,0.1298546,
2,1,0,1,0,4890.92,0.131646,0.131384,10.0855,4,0.00856067,11,0.00132507,-1.9963,0.160768,0.366988,144.363,0.131384,
2,1,0,1,0,4890.94,0.133135,0.132857,10.295,4,0.00875038,11,0.00136777,-1.98737,0.17226,0.342505,137.57,0.132857,
2,1,0,1,0,4890.96,0.134639,0.13436,10.4965,4,0.00894592,11,0.0014103,-1.97896,0.178494,0.330543,135.455,0.13436,
2,1,0,1,0,4890.98,0.136135,0.135832,10.7027,4,0.00914427,11,0.00145377,-1.97051,0.181245,0.325526,135.894,0.1358324,
2,1,0,1,0,4891,0.137631,0.137325,10.9007,4,0.00934641,11,0.00149694,-1.96254,0.194407,0.303487,129.025,0.137325,
2,1,0,1,0,4891.01,0.139135,0.138821,11.0983,4,0.00955332,11,0.00154067,-1.95474,0.209785,0.28124,121.661,0.138821,
2,1,0,1,0,4891.03,0.140622,0.14033,11.2673,4,0.00976144,11,0.00158114,-1.94818,0.227729,0.25908,113.917,0.14033,
2,1,0,1,0,4891.05,0.142126,0.141811,11.4477,4,0.00997506,11,0.00162341,-1.94128,0.237031,0.248913,111.107,0.141811,
2,1,0,1,0,4891.07,0.143629,0.143362,11.6159,4,0.0101919,11,0.00166528,-1.93495,0.260314,0.226649,102.588,0.143362,
2,1,0,1,0,4891.09,0.145119,0.144836,11.7627,4,0.0104094,11,0.00170366,-1.92949,0.307273,0.192011,88.006,0.144836,
2,1,0,1,0,4891.11,0.146622,0.146304,11.8838,4,0.0106317,11,0.00173865,-1.92504,0.357696,0.164945,76.3964,0.146304,
2,1,0,1,0,4891.13,0.148126,0.147878,12.0008,4,0.0108563,11,0.00177466,-1.92079,0.425574,0.138636,64.7789,0.147878,
2,1,0,1,0,4891.14,0.149615,0.149301,12.0856,4,0.0110802,11,0.00180439,-1.91773,0.541413,0.108974,51.2768,0.149301,
2,1,0,1,0,4891.16,0.151119,0.150805,12.1456,4,0.011308,11,0.00183162,-1.91558,0.878465,0.0671626,31.7396,0.150805,
2,1,0,1,0,4891.18,0.152615,0.152342,12.1707,4,0.0115354,11,0.0018541,-1.91468,2.75554,0.0214114,10.1464,0.1523416,
2,1,0,1,0,4891.2,0.154111,0.15381,12.1603,4,0.011763,11,0.00187038,-1.91506,-2.68025,-0.0220129,-10.4308,0.15381,
2,1,0,1,0,4891.22,0.155615,0.155332,12.1254,4,0.0119914,11,0.00188346,-1.9163,-0.778862,-0.0757515,-35.7483,0.155332,
2,1,0,1,0,4891.24,0.157103,0.156841,12.0456,4,0.0122165,11,0.00188924,-1.91917,-0.395935,-0.149014,-69.7861,0.156841,
2,1,0,1,0,4891.26,0.158606,0.158337,11.9166,4,0.0124419,11,0.00188685,-1.92385,-0.252619,-0.233553,-108.189,0.158337,
2,1,0,1,0,4891.28,0.16011,0.159831,11.7241,4,0.0126643,11,0.00187387,-1.93092,-0.187618,-0.314468,-143.36,0.159831,
2,1,0,1,0,4891.29,0.161599,0.16127,11.4853,4,0.0128803,11,0.00185223,-1.93986,-0.145982,-0.404161,-180.401,0.16127,
2,1,0,1,0,4891.31,0.163102,0.162831,11.1908,4,0.0130937,11,0.0018222,-1.95114,-0.116686,-0.505628,-219.833,0.162831,
2,1,0,1,0,4891.33,0.164606,0.164356,10.853,4,0.013301,11,0.00178376,-1.96445,-0.0977027,-0.603873,-254.35,0.164356,
2,1,0,1,0,4891.35,0.166095,0.165837,10.4433,4,0.0134991,11,0.00173188,-1.98116,-0.0834617,-0.706911,-286.953,0.165837,
2,1,0,1,0,4891.37,0.167599,0.167375,10.0045,4,0.0136913,11,0.0016745,-1.99981,-0.0753119,-0.783409,-304.595,0.167375,
2,1,0,1,0,4891.39,0.169095,0.168839,9.54202,4,0.013874,11,0.00161106,-2.02036,-0.0685751,-0.860371,-319.106,0.168839,
2,1,0,1,0,4891.41,0.170592,0.170289,9.05317,4,0.0140477,11,0.00154166,-2.0432,-0.0635209,-0.928828,-326.948,0.170289,
2,1,0,1,0,4891.43,0.172095,0.171835,8.54593,4,0.014213,11,0.00146849,-2.06824,-0.0608878,-0.968996,-322.934,0.171835,
2,1,0,1,0,4891.44,0.173583,0.173302,8.06951,4,0.0143673,11,0.00139846,-2.09315,-0.060236,-0.97948,-308.561,0.173302,
2,1,0,1,0,4891.46,0.175086,0.174805,7.61179,4,0.0145146,11,0.00133058,-2.11851,-0.0606803,-0.972309,-289.232,0.174805,
2,1,0,1,0,4891.48,0.17659,0.17633,7.19749,4,0.0146537,11,0.00126913,-2.14282,-0.0628036,-0.939436,-264.225,0.17633,
2,1,0,1,0,4891.5,0.178079,0.177842,6.81175,4,0.014784,11,0.00121142,-2.16674,-0.066866,-0.882362,-235.687,0.177842,
2,1,0,1,0,4891.52,0.179582,0.179348,6.47401,4,0.0149088,11,0.0011611,-2.18883,-0.0714428,-0.825836,-210.139,0.179348,
2,1,0,1,0,4891.54,0.181086,0.180796,6.18881,4,0.0150279,11,0.00111891,-2.20839,-0.0816604,-0.722504,-175.423,0.180796,
2,1,0,1,0,4891.56,0.182575,0.182302,5.94206,4,0.0151408,11,0.00108325,-2.22606,-0.0881731,-0.669139,-155.818,0.182302,
2,1,0,1,0,4891.58,0.184079,0.183867,5.72522,4,0.0152505,11,0.00105268,-2.24221,-0.0956287,-0.61697,-138.277,0.183867,
2,1,0,1,0,4891.59,0.185582,0.18533,5.52931,4,0.0153563,11,0.00102475,-2.25733,-0.104414,-0.565057,-122.491,0.18533,
2,1,0,1,0,4891.61,0.18707,0.18682,5.36601,4,0.0154576,11,0.00100248,-2.27035,-0.118105,-0.499557,-104.819,0.18682,
2,1,0,1,0,4891.63,0.188573,0.188232,5.21371,4,0.0155571,11,0.000981385,-2.28285,-0.125714,-0.46932,-95.7369,0.188232,
2,1,0,1,0,4891.65,0.19007,0.189797,5.09084,4,0.0156535,11,0.000966224,-2.29321,-0.130242,-0.453003,-90.0129,0.189797,
2,1,0,1,0,4891.67,0.191566,0.191303,4.95734,4,0.0157474,11,0.000948355,-2.30475,-0.14154,-0.416844,-80.8247,0.191303,
2,1,0,1,0,4891.69,0.19307,0.192801,4.84832,4,0.0158396,11,0.000934763,-2.31441,-0.154386,-0.382158,-72.3767,0.192801,
2,1,0,1,0,4891.71,0.194559,0.194281,4.75817,4,0.0159288,11,0.000924424,-2.32256,-0.165644,-0.356187,-66.0512,0.194281,
2,1,0,1,0,4891.73,0.196063,0.195808,4.65847,4,0.0160172,11,0.000912168,-2.33176,-0.16809,-0.351002,-63.6646,0.195808,
2,1,0,1,0,4891.74,0.197566,0.197258,4.55286,4,0.0161038,11,0.00089809,-2.34172,-0.175323,-0.336522,-59.9373,0.197258,
2,1,0,1,0,4891.76,0.199055,0.19875,4.47847,4,0.0161877,11,0.000890094,-2.34887,-0.201184,-0.293264,-51.2719,0.1987496,
2,1,0,1,0,4891.78,0.200559,0.200301,4.39923,4,0.0162711,11,0.000881169,-2.35662,-0.213035,-0.27695,-47.5165,0.2003008,
2,1,0,1,0,4891.8,0.202062,0.201767,4.32179,4,0.0163531,11,0.000871994,-2.36434,-0.213214,-0.276718,-46.6712,0.201767,
2,1,0,1,0,4891.82,0.20355,0.203249,4.24685,4,0.0164329,11,0.000863169,-2.37193,-0.228516,-0.258188,-42.9071,0.203249,
2,1,0,1,0,4891.84,0.205053,0.204803,4.17695,4,0.0165121,11,0.000855453,-2.37914,-0.255872,-0.230584,-37.8043,0.204803,
2,1,0,1,0,4891.86,0.20655,0.206281,4.12273,4,0.0165899,11,0.000850439,-2.38482,-0.271026,-0.217691,-35.1153,0.206281,
2,1,0,1,0,4891.88,0.208046,0.20777,4.07935,4,0.0166668,11,0.000847566,-2.38941,-0.24683,-0.239031,-38.0092,0.20777,
2,1,0,1,0,4891.89,0.20955,0.209294,4.02044,4,0.0167431,11,0.000841456,-2.39573,-0.233296,-0.252898,-39.7472,0.209294,
2,1,0,1,0,4891.91,0.211039,0.210763,3.96835,4,0.0168174,11,0.000836381,-2.40139,-0.268111,-0.220058,-34.1721,0.210763,
2,1,0,1,0,4891.93,0.212543,0.212278,3.921,4,0.0168916,11,0.000832342,-2.4066,-0.295287,-0.199806,-30.6019,0.212278,
2,1,0,1,0,4891.95,0.214046,0.213744,3.88751,4,0.0169651,11,0.000830934,-2.41033,-0.309994,-0.190326,-28.8545,0.213744,
2,1,0,1,0,4891.97,0.215535,0.21528,3.8491,4,0.017037,11,0.000828635,-2.41464,-0.300441,-0.196378,-29.4449,0.21528,
2,1,0,1,0,4891.99,0.217039,0.21675,3.80737,4,0.0171089,11,0.000825248,-2.41938,-0.327817,-0.179979,-26.7506,0.21675,
2,1,0,1,0,4892.01,0.218543,0.218255,3.77609,4,0.0171801,11,0.000824152,-2.42296,-0.442135,-0.133443,-19.6439,0.218255,
2,1,0,1,0,4892.03,0.22003,0.21979,3.74831,4,0.0172499,11,0.000823841,-2.42617,-0.473531,-0.124596,-18.1762,0.21979,
2,1,0,1,0,4892.04,0.221534,0.221311,3.71536,4,0.01732,11,0.000822251,-2.43,-0.416268,-0.141735,-20.4953,0.221311,
2,1,0,1,0,4892.06,0.22303,0.222766,3.67332,4,0.0173891,11,0.000818291,-2.43494,-0.477217,-0.123633,-17.756,0.222766,
2,1,0,1,0,4892.08,0.224526,0.224277,3.65167,4,0.0174576,11,0.000818987,-2.43751,-0.541083,-0.10904,-15.543,0.224277,
2,1,0,1,0,4892.1,0.22603,0.225757,3.62116,4,0.017526,11,0.000817504,-2.44115,-0.641087,-0.0920312,-13.0163,0.225757,
2,1,0,1,0,4892.12,0.227519,0.227258,3.59666,4,0.0175933,11,0.000817367,-2.4441,-0.516879,-0.114147,-16.032,0.227258,
2,1,0,1,0,4892.14,0.229023,0.2287,3.5728,4,0.0176608,11,0.000817098,-2.44699,-0.535169,-0.110246,-15.4053,0.2287,
2,1,0,1,0,4892.16,0.230526,0.230255,3.54815,4,0.0177278,11,0.000816977,-2.45,-0.626549,-0.0941667,-13.091,0.230255,
2,1,0,1,0,4892.17,0.232016,0.231746,3.53272,4,0.0177938,11,0.000818696,-2.45189,-0.682712,-0.08642,-11.9294,0.231746,
2,1,0,1,0,4892.19,0.233519,0.233307,3.51575,4,0.0178602,11,0.000820248,-2.45398,-0.539707,-0.109318,-14.9927,0.233307,
2,1,0,1,0,4892.21,0.235023,0.23474,3.50122,4,0.0179263,11,0.000821876,-2.45578,-0.503205,-0.117248,-16.0061,0.23474,
2,1,0,1,0,4892.23,0.23651,0.236257,3.47741,4,0.0179911,11,0.00082156,-2.45874,-0.578504,-0.101987,-13.8606,0.236257,
2,1,0,1,0,4892.25,0.238014,0.237759,3.4646,4,0.0180564,11,0.000823738,-2.46035,-0.729089,-0.0809229,-10.9272,0.237759,
2,1,0,1,0,4892.27,0.23951,0.239201,3.45356,4,0.0181211,11,0.000826095,-2.46173,-0.754368,-0.0782111,-10.5278,0.239201,
2,1,0,1,0,4892.29,0.241006,0.240713,3.4369,4,0.0181855,11,0.000827306,-2.46383,-0.625582,-0.0943122,-12.6402,0.240713,
2,1,0,1,0,4892.31,0.24251,0.242193,3.41837,4,0.0182499,11,0.000827906,-2.46618,-0.855047,-0.0690021,-9.21222,0.242193,
2,1,0,1,0,4892.32,0.243999,0.243705,3.4102,4,0.0183134,11,0.000831084,-2.46722,-1.38228,-0.0426832,-5.67924,0.243705,
2,1,0,1,0,4892.34,0.245503,0.245193,3.40354,4,0.0183773,11,0.000834525,-2.46807,-1.15025,-0.0512932,-6.79379,0.2451928,
2,1,0,1,0,4892.36,0.247006,0.246714,3.38818,4,0.0184412,11,0.000835912,-2.47003,-1.20223,-0.0490753,-6.46623,0.246714,
2,1,0,1,0,4892.38,0.248496,0.248241,3.36577,4,0.018504,11,0.000835521,-2.47292,-1.06307,-0.0554998,-7.30143,0.248241,
2,1,0,1,0,4892.4,0.249999,0.249741,3.34851,4,0.0185671,11,0.000836261,-2.47515,-1.33068,-0.0443381,-5.80973,0.249741,
2,1,0,1,0,4892.42,0.251503,0.251242,3.33857,4,0.0186301,11,0.000838791,-2.47644,-5.44206,-0.0108415,-1.41569,0.251242,
2,1,0,1,0,4892.44,0.25299,0.252725,3.33068,4,0.0186923,11,0.000841746,-2.47747,-0.91677,-0.0643564,-8.37024,0.252725,
2,1,0,1,0,4892.46,0.254494,0.254238,3.31518,4,0.018755,11,0.000842847,-2.47949,-1.12369,-0.0525057,-6.8103,0.254238,
2,1,0,1,0,4892.47,0.25599,0.255731,3.30171,4,0.018817,11,0.00084435,-2.48126,-0.874092,-0.0674986,-8.7308,0.255731,
2,1,0,1,0,4892.49,0.257487,0.257237,3.3025,4,0.0188788,11,0.000849525,-2.48116,-1.13436,-0.0520117,-6.70243,0.257237,
2,1,0,1,0,4892.51,0.25899,0.258736,3.29429,4,0.018941,11,0.000852352,-2.48224,-0.987778,-0.05973,-7.6689,0.258736,
2,1,0,1,0,4892.53,0.260479,0.260211,3.28703,4,0.0190022,11,0.000855324,-2.4832,-0.646953,-0.0911968,-11.6848,0.260211,
2,1,0,1,0,4892.55,0.261983,0.261749,3.27129,4,0.0190638,11,0.000856257,-2.48528,-0.777553,-0.0758791,-9.69296,0.261749,
2,1,0,1,0,4892.57,0.263486,0.263211,3.26793,4,0.0191252,11,0.000860153,-2.48573,-1.89742,-0.0310948,-3.95566,0.263211,
2,1,0,1,0,4892.59,0.264974,0.264739,3.2579,4,0.0191858,11,0.000862495,-2.48706,-1.11057,-0.0531258,-6.75008,0.264739,
2,1,0,1,0,4892.61,0.266477,0.26623,3.24724,4,0.019247,11,0.000864513,-2.48849,-1.28917,-0.0457658,-5.78899,0.26623,
2,1,0,1,0,4892.62,0.267981,0.267714,3.23522,4,0.0193079,11,0.000866113,-2.4901,-1.65366,-0.0356784,-4.50635,0.267714,
2,1,0,1,0,4892.64,0.26947,0.269157,3.22774,4,0.019368,11,0.000868766,-2.4911,-2.56633,-0.02299,-2.89496,0.269157,
2,1,0,1,0,4892.66,0.270974,0.270716,3.22438,4,0.0194286,11,0.000872891,-2.49155,-2.71205,-0.0217548,-2.73252,0.270716,
2,1,0,1,0,4892.68,0.27247,0.272163,3.21676,4,0.0194889,11,0.000875481,-2.49258,-1.30184,-0.0453205,-5.67389,0.272163,
2,1,0,1,0,4892.7,0.273967,0.273723,3.19742,4,0.0195489,11,0.000875206,-2.4952,-1.23827,-0.0476469,-5.957,0.273723,
2,1,0,1,0,4892.72,0.27547,0.275161,3.18465,4,0.019609,11,0.000876289,-2.49694,-1.46131,-0.0403748,-5.03482,0.275161,
2,1,0,1,0,4892.74,0.276959,0.276704,3.18536,4,0.0196684,11,0.000881401,-2.49684,-2.78556,-0.0211807,-2.63367,0.276704,
2,1,0,1,0,4892.76,0.278463,0.278184,3.1783,4,0.0197282,11,0.000884151,-2.49781,-1.03227,-0.0571555,-7.07633,0.278184,
2,1,0,1,0,4892.77,0.279967,0.279696,3.16777,4,0.019788,11,0.00088601,-2.49925,-1.22003,-0.0483594,-5.98284,0.279696,
2,1,0,1,0,4892.79,0.281454,0.281171,3.15505,4,0.0198468,11,0.000887107,-2.50099,-1.18622,-0.0497377,-6.13957,0.2811707,
2,1,0,1,0,4892.81,0.282958,0.282729,3.15291,4,0.0199062,11,0.000891417,-2.50129,-1.34553,-0.043849,-5.39074,0.282729,
2,1,0,1,0,4892.83,0.284461,0.284194,3.15037,4,0.0199655,11,0.000895314,-2.50164,-1.24858,-0.0472535,-5.79813,0.284194,
2,1,0,1,0,4892.85,0.28595,0.285705,3.14069,4,0.020024,11,0.000897309,-2.50298,-0.828383,-0.0712231,-8.72351,0.285705,
2,1,0,1,0,4892.87,0.287454,0.287213,3.13092,4,0.0200829,11,0.000899239,-2.50433,-0.900057,-0.0655514,-8.00862,0.287213,
2,1,0,1,0,4892.89,0.28895,0.28867,3.1263,4,0.0201414,11,0.000902467,-2.50497,-2.63628,-0.02238,-2.72603,0.28867,
2,1,0,1,0,4892.91,0.290447,0.290187,3.12095,4,0.0201998,11,0.000905659,-2.50571,-1.91088,-0.0308758,-3.75205,0.2901867,
2,1,0,1,0,4892.92,0.29195,0.291703,3.11464,4,0.0202584,11,0.000908548,-2.50659,-1.06765,-0.0552614,-6.69971,0.291703,
2,1,0,1,0,4892.94,0.29344,0.293189,3.10277,4,0.0203162,11,0.000909698,-2.50825,-1.99212,-0.0296167,-3.58547,0.293189,
2,1,0,1,0,4892.96,0.294943,0.294673,3.09427,4,0.0203743,11,0.000911798,-2.50944,-9.61981,-0.00613318,-0.74168,0.294673,
2,1,0,1,0,4892.98,0.296447,0.29617,3.09036,4,0.0204325,11,0.000915271,-2.50999,-23.2184,-0.00254109,-0.305968,0.29617,
2,1,0,1,0,4893,0.297934,0.297685,3.07656,4,0.0204899,11,0.000915846,-2.51193,-3.09276,-0.0190768,-2.29343,0.297685,
2,1,0,1,0,4893.02,0.299438,0.29919,3.0667,4,0.0205478,11,0.000917527,-2.51333,-0.0196592,-3.00115,-315.677,0.29919,
2,1,0,1,0,4893.02,0.300012,0.29967,3.07342,4,0.0205694,11,0.000921011,-2.51238,0.000463,127.43,4057.48,0.29967,
2,1,0,1,0,4893.04,0.298737,0.298507,0.424252,4,0.0205934,11,0.000126642,-3.37238,0.00562666,10.4858,1159.03,0.298507,
2,0,0,1,0,4893.06,0.29724,0.297001,-0.633892,4,0.0205896,11,-0.000188267,-3.19798,0.0907467,0.650161,538.161,0.297001,
2,0,0,1,0,4893.08,0.295744,0.295441,-0.995535,4,0.0205739,11,-0.000294122,-3.00194,-0.00882553,-6.68515,187.977,0.295441,
2,0,0,1,0,4893.1,0.29424,0.293959,-1.14077,4,0.0205537,11,-0.000335339,-2.9428,-0.0302325,-1.95154,81.4562,0.2939592,
2,0,0,1,0,4893.12,0.292751,0.292479,-1.22527,4,0.0205317,11,-0.000358366,-2.91177,-0.0524907,-1.12401,52.7146,0.292479,
2,0,0,1,0,4893.13,0.291248,0.290958,-1.29612,4,0.0205081,11,-0.000377116,-2.88736,-0.0670434,-0.880028,43.9307,0.290958,
2,0,0,1,0,4893.15,0.289744,0.289442,-1.35431,4,0.0204833,11,-0.000391993,-2.86828,-0.0753671,-0.782835,41.0252,0.289442,
2,0,0,1,0,4893.17,0.288257,0.287961,-1.4048,4,0.0204577,11,-0.000404528,-2.85239,-0.0911684,-0.647154,35.1859,0.287961,
2,0,0,1,0,4893.19,0.286753,0.286477,-1.44877,4,0.0204308,11,-0.000415039,-2.839,-0.0956208,-0.61702,34.8569,0.286477,
2,0,0,1,0,4893.21,0.285249,0.28495,-1.49208,4,0.0204031,11,-0.000425168,-2.82621,-0.100898,-0.584748,34.2133,0.28495,
2,0,0,1,0,4893.23,0.28376,0.283512,-1.53596,4,0.0203748,11,-0.000435463,-2.81362,-0.119511,-0.493679,29.6398,0.283512,
2,0,0,1,0,4893.25,0.282257,0.281972,-1.58029,4,0.0203453,11,-0.000445596,-2.80126,-0.1466,-0.402455,24.7712,0.281972,
2,0,0,1,0,4893.27,0.28076,0.280472,-1.61735,4,0.0203153,11,-0.000453621,-2.7912,-0.167075,-0.353135,22.3088,0.2804718,
2,0,0,1,0,4893.28,0.279264,0.278935,-1.6521,4,0.0202847,11,-0.000460829,-2.78196,-0.168606,-0.349928,22.6272,0.278935,
2,0,0,1,0,4893.3,0.27776,0.277457,-1.68858,4,0.0202532,11,-0.00046851,-2.77248,-0.19154,-0.30803,20.2836,0.277457,
2,0,0,1,0,4893.32,0.276271,0.275965,-1.72445,4,0.0202214,11,-0.000475887,-2.76335,-0.207222,-0.284719,19.1662,0.275965,
2,0,0,1,0,4893.34,0.274767,0.274442,-1.76199,4,0.0201886,11,-0.000483563,-2.754,-0.242077,-0.243724,16.6598,0.274442,
2,0,0,1,0,4893.36,0.273264,0.272923,-1.78476,4,0.0201553,11,-0.000487101,-2.74842,-0.233043,-0.253172,17.613,0.272923,
2,0,0,1,0,4893.38,0.271776,0.271488,-1.81392,4,0.0201219,11,-0.000492459,-2.74138,-0.205792,-0.286697,20.2909,0.271488,
2,0,0,1,0,4893.4,0.270273,0.269955,-1.85534,4,0.0200875,11,-0.000500858,-2.73158,-0.212567,-0.27756,19.9577,0.269955,
2,0,0,1,0,4893.42,0.268769,0.268467,-1.87578,4,0.0200525,11,-0.000503586,-2.72682,-0.266943,-0.221021,16.1023,0.268467,
2,0,0,1,0,4893.43,0.26728,0.266997,-1.89307,4,0.0200175,11,-0.000505444,-2.72283,-0.245046,-0.240771,17.798,0.266997,
2,0,0,1,0,4893.45,0.265777,0.265517,-1.92255,4,0.0199817,11,-0.000510471,-2.71612,-0.249986,-0.236013,17.6779,0.265517,
2,0,0,1,0,4893.47,0.26428,0.263959,-1.95162,4,0.0199455,11,-0.000515149,-2.7096,-0.215063,-0.274339,20.799,0.263959,
2,0,0,1,0,4893.49,0.262784,0.262468,-1.96871,4,0.0199088,11,-0.000516724,-2.70582,-0.297651,-0.198218,15.2089,0.262468,
2,0,0,1,0,4893.51,0.26128,0.260975,-1.98828,4,0.0198716,11,-0.000518892,-2.70152,-0.263502,-0.223907,17.4319,0.260975,
2,0,0,1,0,4893.53,0.259791,0.259484,-2.01127,4,0.0198343,11,-0.000521894,-2.69653,-0.250247,-0.235767,18.59,0.259484,
2,0,0,1,0,4893.55,0.258287,0.257985,-2.03647,4,0.0197962,11,-0.00052538,-2.69112,-0.267191,-0.220816,17.5694,0.257985,
2,0,0,1,0,4893.57,0.256786,0.256499,-2.06021,4,0.0197575,11,-0.000528442,-2.68609,-0.350002,-0.168571,13.5404,0.256499,
2,0,0,1,0,4893.58,0.255296,0.254996,-2.08252,4,0.0197188,11,-0.000531036,-2.68141,-0.513823,-0.114826,9.33716,0.254996,
2,0,0,1,0,4893.6,0.253793,0.253494,-2.09963,4,0.0196795,11,-0.000532244,-2.67786,-0.437392,-0.13489,11.1022,0.253494,
2,0,0,1,0,4893.62,0.252289,0.251998,-2.13197,4,0.0196397,11,-0.000537252,-2.67122,-0.337908,-0.174604,14.4744,0.2519981,
2,0,0,1,0,4893.64,0.2508,0.250479,-2.15494,4,0.0195999,11,-0.000539768,-2.66656,-0.402546,-0.146567,12.2965,0.250479,
2,0,0,1,0,4893.66,0.249296,0.24899,-2.17558,4,0.0195592,11,-0.000541699,-2.66242,-0.468703,-0.125879,10.6325,0.24899,
2,0,0,1,0,4893.68,0.2478,0.247497,-2.1911,4,0.0195184,11,-0.000542291,-2.65934,-0.431744,-0.136655,11.7055,0.247497,
2,0,0,1,0,4893.7,0.246304,0.246026,-2.21985,4,0.0194774,11,-0.000546142,-2.65368,-0.326676,-0.180607,15.5887,0.246026,
2,0,0,1,0,4893.71,0.2448,0.244532,-2.24781,4,0.0194355,11,-0.000549661,-2.64824,-0.304445,-0.193795,16.8711,0.244532,
2,0,0,1,0,4893.73,0.243313,0.243002,-2.25504,4,0.0193937,11,-0.000547979,-2.64685,-0.353809,-0.166757,14.6561,0.243002,
2,0,0,1,0,4893.75,0.241809,0.241486,-2.26664,4,0.0193512,11,-0.000547362,-2.64462,-0.328379,-0.179671,15.9268,0.241486,
2,0,0,1,0,4893.77,0.240306,0.239994,-2.29277,4,0.0193083,11,-0.000550251,-2.63964,-0.302493,-0.195046,17.4842,0.2399939,
2,0,0,1,0,4893.79,0.238816,0.238533,-2.31282,4,0.0192654,11,-0.000551682,-2.63586,-0.300101,-0.1966,17.7368,0.238533,
2,0,0,1,0,4893.81,0.237313,0.23708,-2.33198,4,0.0192216,11,-0.000552865,-2.63228,-0.458296,-0.128738,11.6991,0.23708,
2,0,0,1,0,4893.83,0.235809,0.235511,-2.35046,4,0.0191775,11,-0.000553561,-2.62885,-0.385803,-0.152928,14.0579,0.235511,
2,0,0,1,0,4893.85,0.23432,0.234031,-2.36749,4,0.0191336,11,-0.000554066,-2.62571,-0.420566,-0.140287,13.02,0.234031,
2,0,0,1,0,4893.86,0.232816,0.232519,-2.39383,4,0.0190887,11,-0.000556612,-2.62091,-0.425862,-0.138543,12.9679,0.232519,
2,0,0,1,0,4893.88,0.23132,0.231049,-2.41934,4,0.0190436,11,-0.000558986,-2.6163,-0.497969,-0.118481,11.1823,0.231049,
2,0,0,1,0,4893.9,0.229824,0.229525,-2.43945,4,0.0189982,11,-0.000559916,-2.61271,-0.503715,-0.11713,11.1405,0.229525,
2,0,0,1,0,4893.92,0.22832,0.228006,-2.45606,4,0.0189522,11,-0.000559997,-2.60976,-0.47914,-0.123137,11.8216,0.228006,
2,0,0,1,0,4893.94,0.226833,0.226509,-2.4835,4,0.0189062,11,-0.000562537,-2.60494,-0.370648,-0.159181,15.3985,0.226509,
2,0,0,1,0,4893.96,0.225329,0.225052,-2.50865,4,0.0188593,11,-0.000564577,-2.60056,-0.40638,-0.145184,14.1931,0.2250516,
2,0,0,1,0,4893.98,0.223825,0.223584,-2.52859,4,0.018812,11,-0.00056535,-2.59712,-0.51646,-0.114239,11.26,0.223584,
2,0,0,1,0,4894,0.222336,0.222056,-2.5411,4,0.0187648,11,-0.000564267,-2.59498,-0.376027,-0.156904,15.6199,0.222056,
2,0,0,1,0,4894.01,0.220833,0.220514,-2.57769,4,0.0187168,11,-0.000568416,-2.58877,-0.318018,-0.185524,18.6278,0.220514,
2,0,0,1,0,4894.03,0.219329,0.219053,-2.60622,4,0.0186681,11,-0.000570901,-2.58399,-0.318434,-0.185281,18.7675,0.2190534,
2,0,0,1,0,4894.05,0.21784,0.217501,-2.62594,4,0.0186195,11,-0.000571145,-2.58071,-0.359778,-0.16399,16.7474,0.217501,
2,0,0,1,0,4894.07,0.216336,0.21605,-2.6394,4,0.01857,11,-0.000570241,-2.57849,-0.347759,-0.169658,17.5235,0.21605,
2,0,0,1,0,4894.09,0.21484,0.214535,-2.66852,4,0.0185203,11,-0.00057249,-2.57373,-0.323833,-0.182193,19.019,0.214535,
2,0,0,1,0,4894.11,0.213343,0.213034,-2.69294,4,0.0184701,11,-0.000573689,-2.56977,-0.290638,-0.203002,21.3716,0.213034,
2,0,0,1,0,4894.13,0.21184,0.211562,-2.72047,4,0.0184191,11,-0.000575549,-2.56536,-0.363545,-0.162291,17.2333,0.211562,
2,0,0,1,0,4894.15,0.210352,0.210046,-2.74582,4,0.0183681,11,-0.00057675,-2.56133,-0.326873,-0.180498,19.4218,0.210046,
2,0,0,1,0,4894.16,0.208849,0.208502,-2.77504,4,0.0183162,11,-0.000578602,-2.55673,-0.311883,-0.189173,20.5771,0.208502,
2,0,0,1,0,4894.18,0.207345,0.207081,-2.80621,4,0.0182636,11,-0.000581113,-2.55188,-0.292251,-0.201881,22.1485,0.207081,
2,0,0,1,0,4894.2,0.205856,0.205537,-2.84664,4,0.0182108,11,-0.00058509,-2.54567,-0.324528,-0.181803,20.159,0.205537,
2,0,0,1,0,4894.22,0.204353,0.20405,-2.87964,4,0.0181569,11,-0.000587592,-2.54066,-0.435387,-0.135512,15.2413,0.20405,
2,0,0,1,0,4894.24,0.202849,0.202539,-2.90363,4,0.0181026,11,-0.000588099,-2.53706,-0.342808,-0.172108,19.5638,0.202539,
2,0,0,1,0,4894.26,0.20136,0.201078,-2.94686,4,0.0180482,11,-0.000592548,-2.53064,-0.278518,-0.211835,24.3152,0.201078,
2,0,0,1,0,4894.28,0.199856,0.199559,-2.98927,4,0.0179925,11,-0.000596536,-2.52443,-0.287566,-0.205171,23.9125,0.199559,
2,0,0,1,0,4894.3,0.19836,0.19803,-3.02715,4,0.0179363,11,-0.000599468,-2.51897,-0.280708,-0.210183,24.7791,0.19803,
2,0,0,1,0,4894.31,0.196863,0.196553,-3.05989,4,0.0178795,11,-0.00060143,-2.51429,-0.245345,-0.240478,28.7269,0.196553,
2,0,0,1,0,4894.33,0.19536,0.195088,-3.10954,4,0.0178216,11,-0.000606634,-2.5073,-0.207643,-0.284142,34.4706,0.195088,
2,0,0,1,0,4894.35,0.193872,0.193539,-3.15912,4,0.0177634,11,-0.000611412,-2.50043,-0.199325,-0.296,36.4001,0.193539,
2,0,0,1,0,4894.37,0.192369,0.192013,-3.20055,4,0.0177036,11,-0.000614546,-2.49478,-0.209435,-0.281711,35.1035,0.1920128,
2,0,0,1,0,4894.39,0.190865,0.190606,-3.24373,4,0.0176429,11,-0.000618274,-2.48896,-0.215291,-0.274048,34.8095,0.190606,
2,0,0,1,0,4894.41,0.189376,0.189075,-3.29445,4,0.017582,11,-0.000622899,-2.48222,-0.202929,-0.290743,37.5361,0.189075,
2,0,0,1,0,4894.43,0.187872,0.187604,-3.35368,4,0.0175194,11,-0.000629162,-2.47448,-0.189211,-0.311821,40.884,0.187604,
2,0,0,1,0,4894.45,0.186369,0.18607,-3.41548,4,0.0174556,11,-0.000635517,-2.46655,-0.192966,-0.305754,40.8007,0.18607,
2,0,0,1,0,4894.46,0.18488,0.184586,-3.48295,4,0.0173914,11,-0.000642905,-2.45805,-0.193976,-0.304161,41.4023,0.184586,
2,0,0,1,0,4894.48,0.183376,0.183077,-3.54867,4,0.0173253,11,-0.00064968,-2.44993,-0.182586,-0.323135,44.8631,0.183077,
2,0,0,1,0,4894.5,0.18188,0.181619,-3.62763,4,0.0172581,11,-0.000658848,-2.44038,-0.16778,-0.351652,49.7998,0.181619,
2,0,0,1,0,4894.52,0.180383,0.180108,-3.71683,4,0.0171895,11,-0.000669431,-2.42983,-0.160555,-0.367475,53.1977,0.180108,
2,0,0,1,0,4894.54,0.17888,0.178594,-3.80006,4,0.0171189,11,-0.000678668,-2.42021,-0.161717,-0.364834,54.0467,0.178594,
2,0,0,1,0,4894.56,0.177392,0.17705,-3.87495,4,0.0170476,11,-0.000686061,-2.41173,-0.145732,-0.404854,61.4282,0.17705,
2,0,0,1,0,4894.58,0.175889,0.175621,-3.97729,4,0.0169738,11,-0.000698497,-2.40041,-0.131088,-0.450081,69.9573,0.175621,
2,0,0,1,0,4894.6,0.174385,0.174091,-4.09167,4,0.016898,11,-0.000712323,-2.3881,-0.124824,-0.472666,75.4332,0.174091,
2,0,0,1,0,4894.61,0.172896,0.172591,-4.20559,4,0.0168209,11,-0.000725847,-2.37617,-0.124809,-0.472722,77.5161,0.172591,
2,0,0,1,0,4894.63,0.171392,0.171088,-4.31356,4,0.0167408,11,-0.000737998,-2.36516,-0.117093,-0.503875,85.0797,0.171088,
2,0,0,1,0,4894.65,0.169889,0.169636,-4.45374,4,0.0166584,11,-0.000755515,-2.35128,-0.107743,-0.547601,95.2931,0.169636,
2,0,0,1,0,4894.67,0.1684,0.168083,-4.59505,4,0.0165743,11,-0.000772349,-2.33771,-0.103065,-0.572455,102.754,0.1680831,
2,0,0,1,0,4894.69,0.166896,0.166547,-4.75038,4,0.0164864,11,-0.000791163,-2.32327,-0.100727,-0.58574,108.595,0.166547,
2,0,0,1,0,4894.71,0.165392,0.165113,-4.90946,4,0.0163955,11,-0.000810616,-2.30897,-0.0976798,-0.604015,116.055,0.165113,
2,0,0,1,0,4894.73,0.163905,0.163618,-5.08298,4,0.0163025,11,-0.000831668,-2.29388,-0.0939651,-0.627893,125.144,0.163618,
2,0,0,1,0,4894.74,0.162401,0.1621,-5.28091,4,0.0162049,11,-0.000856035,-2.27729,-0.089363,-0.660228,136.435,0.1621,
2,0,0,1,0,4894.76,0.160905,0.160626,-5.49602,4,0.016104,11,-0.000882803,-2.25995,-0.0908865,-0.649161,139.43,0.160626,
2,0,0,1,0,4894.78,0.159409,0.159114,-5.72279,4,0.0159991,11,-0.000910577,-2.24239,-0.0894958,-0.659249,147.333,0.159114,
2,0,0,1,0,4894.8,0.157905,0.157619,-5.95677,4,0.0158893,11,-0.000938899,-2.22499,-0.086443,-0.682531,158.84,0.157619,
2,0,0,1,0,4894.82,0.156416,0.156121,-6.20936,4,0.0157761,11,-0.00096941,-2.20695,-0.0822321,-0.717482,174.07,0.156121,
2,0,0,1,0,4894.84,0.154912,0.154645,-6.48641,4,0.0156569,11,-0.00100309,-2.188,-0.0822039,-0.717728,181.792,0.154645,
2,0,0,1,0,4894.86,0.153409,0.153089,-6.7768,4,0.0155322,11,-0.00103745,-2.16898,-0.0818986,-0.720403,190.18,0.153089,
2,0,0,1,0,4894.88,0.151919,0.151638,-7.06044,4,0.0154036,11,-0.00107063,-2.15117,-0.0830633,-0.710302,195.604,0.151638,
2,0,0,1,0,4894.89,0.150416,0.15012,-7.3454,4,0.0152682,11,-0.00110269,-2.13398,-0.0796663,-0.740589,212.848,0.15012,
2,0,0,1,0,4894.91,0.148912,0.148623,-7.6787,4,0.015127,11,-0.00114123,-2.11471,-0.078268,-0.75382,225.835,0.148623,
2,0,0,1,0,4894.93,0.147425,0.147192,-8.0103,4,0.0149811,11,-0.00117905,-2.09635,-0.0826777,-0.713614,222.57,0.147192,
2,0,0,1,0,4894.95,0.145921,0.14565,-8.33281,4,0.0148273,11,-0.00121367,-2.07921,-0.0862857,-0.683775,222.267,0.14565,
2,0,0,1,0,4894.97,0.144425,0.144124,-8.6614,4,0.0146684,11,-0.00124832,-2.06241,-0.0888925,-0.663723,224.454,0.144124,
2,0,0,1,0,4894.99,0.142929,0.142648,-8.99374,4,0.0145032,11,-0.00128294,-2.04606,-0.0920157,-0.641195,224.811,0.142648,
2,0,0,1,0,4895.01,0.141425,0.141149,-9.32332,4,0.0143308,11,-0.00131598,-2.03043,-0.100759,-0.585555,212.611,0.141149,
2,0,0,1,0,4895.03,0.139936,0.139646,-9.63507,4,0.0141543,11,-0.0013455,-2.01615,-0.109306,-0.539769,202.782,0.139646,
2,0,0,1,0,4895.04,0.138432,0.13816,-9.93454,4,0.0139703,11,-0.00137255,-2.00285,-0.114574,-0.51495,199.681,0.13816,
2,0,0,1,0,4895.06,0.136929,0.136624,-10.2366,4,0.0137805,11,-0.00139856,-1.98985,-0.121526,-0.485493,193.74,0.136624,
2,0,0,1,0,4895.08,0.135439,0.135173,-10.5263,4,0.0135873,11,-0.00142288,-1.97772,-0.133028,-0.443516,181.789,0.135173,
2,0,0,1,0,4895.1,0.133936,0.133579,-10.7973,4,0.0133868,11,-0.0014423,-1.96668,-0.145345,-0.405932,170.613,0.133579,
2,0,0,1,0,4895.12,0.132432,0.132137,-11.0372,4,0.0131815,11,-0.00145842,-1.95714,-0.1617,-0.364873,156.978,0.132137,
2,0,0,1,0,4895.14,0.130945,0.130655,-11.2776,4,0.012974,11,-0.00147348,-1.94778,-0.172977,-0.341086,149.741,0.130655,
2,0,0,1,0,4895.16,0.129441,0.129146,-11.4915,4,0.0127599,11,-0.00148409,-1.93962,-0.201202,-0.293238,131.149,0.129146,
2,0,0,1,0,4895.18,0.127945,0.1276,-11.6742,4,0.0125433,11,-0.00148963,-1.93277,-0.239766,-0.246073,111.823,0.1276,
2,0,0,1,0,4895.19,0.126448,0.126136,-11.8196,4,0.0123236,11,-0.00149089,-1.9274,-0.285063,-0.206972,95.3252,0.126136,
2,0,0,1,0,4895.21,0.124945,0.124627,-11.9532,4,0.0121001,11,-0.0014897,-1.92252,-0.33536,-0.17593,81.9163,0.124627,
2,0,0,1,0,4895.23,0.123456,0.123218,-12.064,4,0.0118767,11,-0.00148651,-1.91851,-0.435023,-0.135625,63.6938,0.123218,
2,0,0,1,0,4895.25,0.121952,0.121677,-12.136,4,0.0116492,11,-0.00147667,-1.91593,-0.680425,-0.0867105,40.9662,0.121677,
2,0,0,1,0,4895.27,0.120449,0.120172,-12.1762,4,0.0114205,11,-0.00146324,-1.91449,-1.30232,-0.0453038,21.4968,0.1201719,
2,0,0,1,0,4895.29,0.118959,0.118676,-12.1942,4,0.0111938,11,-0.00144716,-1.91385,-5.12753,-0.0115065,5.46928,0.118676,
2,0,0,1,0,4895.31,0.117456,0.117163,-12.187,4,0.0109645,11,-0.00142786,-1.9141,2.23094,0.0264463,-12.553,0.117163,
2,0,0,1,0,4895.33,0.115952,0.115645,-12.1461,4,0.0107355,11,-0.00140463,-1.91556,0.762313,0.077396,-36.6047,0.115645,
2,0,0,1,0,4895.34,0.114465,0.114118,-12.0791,4,0.0105101,11,-0.00137844,-1.91797,0.449724,0.131192,-61.7174,0.114118,
2,0,0,1,0,4895.36,0.112961,0.112652,-11.9703,4,0.0102839,11,-0.00134848,-1.92189,0.333655,0.17683,-82.4776,0.112652,
2,0,0,1,0,4895.38,0.111465,0.111133,-11.8452,4,0.0100612,11,-0.0013164,-1.92646,0.279293,0.211247,-97.4202,0.111133,
2,0,0,1,0,4895.4,0.109968,0.109697,-11.6872,4,0.0098411,11,-0.00128205,-1.93229,0.233807,0.252345,-114.837,0.109697,
2,0,0,1,0,4895.42,0.108465,0.108163,-11.5063,4,0.00962307,11,-0.00124455,-1.93906,0.196096,0.300873,-134.749,0.108163,
2,0,0,1,0,4895.44,0.106976,0.106666,-11.2932,4,0.0094111,11,-0.0012046,-1.94718,0.173543,0.339973,-149.604,0.106666,
2,0,0,1,0,4895.46,0.105472,0.105182,-11.0692,4,0.00920099,11,-0.00116428,-1.95588,0.16591,0.355615,-153.361,0.1051822,
2,0,0,1,0,4895.48,0.103968,0.103671,-10.8343,4,0.00899521,11,-0.0011232,-1.9652,0.15568,0.378982,-160.007,0.103671,
2,0,0,1,0,4895.49,0.102479,0.102179,-10.59,4,0.00879607,11,-0.00108207,-1.97511,0.145595,0.405234,-167.142,0.102179,
2,0,0,1,0,4895.51,0.100976,0.100689,-10.3206,4,0.00859955,11,-0.00103917,-1.98629,0.144245,0.409027,-164.806,0.100689,
2,0,0,1,0,4895.53,0.0994721,0.0992137,-10.0704,4,0.0084079,11,-0.000999118,-1.99695,0.142584,0.413792,-162.727,0.0992137,
2,0,0,1,0,4895.55,0.0979846,0.0976778,-9.82869,4,0.00822288,11,-0.000960045,-2.0075,0.146479,0.402789,-154.604,0.0976778,
2,0,0,1,0,4895.57,0.0964811,0.0961904,-9.59377,4,0.00804026,11,-0.000922828,-2.01801,0.149489,0.394678,-147.807,0.0961904,
2,0,0,1,0,4895.59,0.0949847,0.0946712,-9.36334,4,0.0078629,11,-0.000886439,-2.02857,0.148916,0.396196,-145.113,0.0946712,
2,0,0,1,0,4895.61,0.0934883,0.0931528,-9.15789,4,0.00768967,11,-0.000853083,-2.0382,0.16034,0.367968,-131.901,0.0931528,
2,0,0,1,0,4895.63,0.0919847,0.09168,-8.96908,4,0.00751918,11,-0.000822285,-2.04725,0.171799,0.343424,-120.51,0.09168,
2,0,0,1,0,4895.64,0.0904955,0.0901983,-8.80814,4,0.00735373,11,-0.000794479,-2.05512,0.183433,0.321642,-110.678,0.0901983,
2,0,0,1,0,4895.66,0.0889919,0.0886826,-8.64826,4,0.00718961,11,-0.00076695,-2.06307,0.19247,0.306542,-103.612,0.0886826,
2,0,0,1,0,4895.68,0.0874884,0.0871859,-8.50027,4,0.00702841,11,-0.000741104,-2.07057,0.212807,0.277246,-92.1941,0.0871859,
2,0,0,1,0,4895.7,0.0860009,0.085676,-8.37902,4,0.0068715,11,-0.000717881,-2.07681,0.230909,0.255512,-83.6068,0.085676,
2,0,0,1,0,4895.72,0.0844973,0.0842254,-8.26022,4,0.00671509,11,-0.00069572,-2.08301,0.24784,0.238057,-76.7554,0.0842254,
2,0,0,1,0,4895.74,0.0829938,0.0826725,-8.15582,4,0.00656082,11,-0.000674262,-2.08853,0.255284,0.231115,-73.5775,0.0826725,
2,0,0,1,0,4895.76,0.0815045,0.0811929,-8.05054,4,0.0064102,11,-0.000653646,-2.09417,0.28721,0.205425,-64.6126,0.0811929,
2,0,0,1,0,4895.77,0.080001,0.0796747,-7.95812,4,0.00625979,11,-0.000634061,-2.09919,0.313879,0.18797,-58.4232,0.0796747,
2,0,0,1,0,4895.79,0.0785046,0.078188,-7.87956,4,0.00611176,11,-0.000616088,-2.1035,0.347953,0.169563,-52.1107,0.078188,
2,0,0,1,0,4895.81,0.0770082,0.0767254,-7.79264,4,0.00596526,11,-0.000597894,-2.10832,0.336513,0.175327,-53.3026,0.0767254,
2,0,0,1,0,4895.83,0.0755046,0.07518,-7.70269,4,0.00581954,11,-0.000579088,-2.11336,0.335687,0.175759,-52.9041,0.07518,
2,0,0,1,0,4895.85,0.0740154,0.0737192,-7.63197,4,0.00567693,11,-0.000562623,-2.11736,0.358068,0.164773,-49.0836,0.0737192,
2,0,0,1,0,4895.87,0.0725118,0.0721823,-7.55217,4,0.00553417,11,-0.000545133,-2.12193,0.373509,0.157962,-46.564,0.0721823,
2,0,0,1,0,4895.89,0.0710083,0.0706812,-7.47678,4,0.00539282,11,-0.000528468,-2.12629,0.33138,0.178043,-51.9339,0.0706812,
2,0,0,1,0,4895.91,0.0695208,0.0692282,-7.39169,4,0.00525441,11,-0.000511713,-2.13126,0.319345,0.184753,-53.3487,0.0692282,
2,0,0,1,0,4895.92,0.0680173,0.0677435,-7.31052,4,0.00511613,11,-0.00049524,-2.13605,0.323751,0.182239,-52.1045,0.0677435,
2,0,0,1,0,4895.94,0.0665137,0.0662045,-7.23547,4,0.00497926,11,-0.000479021,-2.14053,0.314076,0.187852,-53.0475,0.0662045,
2,0,0,1,0,4895.96,0.0650244,0.064758,-7.16251,4,0.00484523,11,-0.00046383,-2.14493,0.282277,0.209015,-58.3572,0.064758,
2,0,0,1,0,4895.98,0.0635209,0.0632061,-7.07647,4,0.00471136,11,-0.000447276,-2.15018,0.253959,0.232321,-64.0715,0.0632061,
2,0,0,1,0,4896,0.0620245,0.061718,-6.98435,4,0.00457995,11,-0.00043106,-2.15587,0.253388,0.232844,-63.4428,0.061718,
2,0,0,1,0,4896.02,0.0605281,0.0602128,-6.89588,4,0.00445025,11,-0.000415221,-2.16141,0.253133,0.233079,-62.6461,0.0602128,
2,0,0,1,0,4896.04,0.0590246,0.058691,-6.80266,4,0.00432153,11,-0.000399255,-2.16732,0.247941,0.23796,-63.1275,0.058691,
2,0,0,1,0,4896.06,0.0575353,0.0572253,-6.71325,4,0.00419592,11,-0.000384168,-2.17307,0.230654,0.255795,-66.8969,0.0572253,
2,0,0,1,0,4896.07,0.0560317,0.0557539,-6.60057,4,0.0040708,11,-0.000368007,-2.18042,0.230293,0.256195,-66.0515,0.0557539,
2,0,0,1,0,4896.09,0.0545282,0.0542255,-6.50688,4,0.00394763,11,-0.000352839,-2.18663,0.2452,0.24062,-61.1183,0.0542255,
2,0,0,1,0,4896.11,0.0530407,0.0527388,-6.41593,4,0.00382754,11,-0.000338369,-2.19274,0.2424,0.2434,-60.8738,0.0527388,
2,0,0,1,0,4896.13,0.0515372,0.0511838,-6.3153,4,0.0037079,11,-0.000323241,-2.19961,0.229194,0.257424,-63.3055,0.0511838,
2,0,0,1,0,4896.15,0.0500336,0.0497151,-6.20152,4,0.00359017,11,-0.00030831,-2.2075,0.221124,0.266819,-64.6466,0.04971515,
2,0,0,1,0,4896.17,0.0485444,0.0482141,-6.10483,4,0.00347568,11,-0.000294339,-2.21433,0.230213,0.256284,-61.1793,0.0482141,
2,0,0,1,0,4896.19,0.0470408,0.0467195,-6.01335,4,0.00336169,11,-0.000280941,-2.22088,0.240148,0.245681,-57.7271,0.0467195,
2,0,0,1,0,4896.21,0.0455444,0.0452374,-5.92321,4,0.00324994,11,-0.000267951,-2.22744,0.223226,0.264307,-61.1471,0.0452374,
2,0,0,1,0,4896.22,0.044048,0.0437558,-5.8375,4,0.00313981,11,-0.000255425,-2.23377,0.237219,0.248716,-56.7718,0.0437558,
2,0,0,1,0,4896.24,0.0425445,0.0422241,-5.7517,4,0.00303081,11,-0.00024286,-2.2402,0.245818,0.240015,-54.0813,0.0422241,
2,0,0,1,0,4896.26,0.0410552,0.040741,-5.68841,4,0.00292434,11,-0.000231752,-2.24501,0.265936,0.221857,-49.2699,0.040741,
2,0,0,1,0,4896.28,0.0395517,0.0392584,-5.62401,4,0.00281797,11,-0.00022079,-2.24995,0.272428,0.216571,-47.506,0.0392584,
2,0,0,1,0,4896.3,0.0380481,0.0377477,-5.56141,4,0.0027129,11,-0.00020993,-2.25482,0.27551,0.214149,-46.4484,0.0377477,
2,0,0,1,0,4896.32,0.0365606,0.0362409,-5.49257,4,0.00261022,11,-0.000199056,-2.26022,0.324356,0.181899,-39.0582,0.0362409,
2,0,0,1,0,4896.34,0.0350571,0.0347558,-5.44376,4,0.0025075,11,-0.000189202,-2.2641,0.393337,0.149999,-31.8604,0.0347558,
2,0,0,1,0,4896.36,0.0335535,0.0332288,-5.39723,4,0.00240564,11,-0.000179344,-2.26783,0.399543,0.147669,-31.0853,0.0332288,
2,0,0,1,0,4896.37,0.0320643,0.0317833,-5.3526,4,0.00230572,11,-0.000170123,-2.27144,0.422628,0.139603,-29.153,0.03178329,
2,0,0,1,0,4896.39,0.0305607,0.0302682,-5.3038,4,0.00220563,11,-0.000160537,-2.27541,0.520736,0.113301,-23.4991,0.0302682,
2,0,0,1,0,4896.41,0.0290643,0.0287529,-5.27394,4,0.00210677,11,-0.000151641,-2.27787,0.694159,0.0849949,-17.4919,0.0287529,
2,0,0,1,0,4896.43,0.0275679,0.0272477,-5.2445,4,0.00200845,11,-0.0001429,-2.2803,0.785204,0.0751397,-15.3813,0.0272477,
2,0,0,1,0,4896.45,0.0260644,0.025781,-5.21792,4,0.00191008,11,-0.000134523,-2.2825,0.743541,0.07935,-16.1422,0.025781,
2,0,0,1,0,4896.47,0.0245751,0.0243038,-5.18715,4,0.00181323,11,-0.000126068,-2.28507,0.885814,0.0666054,-13.5116,0.0243038,
2,0,0,1,0,4896.49,0.0230716,0.0227724,-5.16356,4,0.00171588,11,-0.000117586,-2.28705,1.18843,0.0496451,-10.0342,0.0227724,
2,0,0,1,0,4896.51,0.021568,0.0212566,-5.15102,4,0.00161876,11,-0.000109493,-2.28811,1.53422,0.038456,-7.745,0.0212566,
2,0,0,1,0,4896.52,0.0200805,0.0197556,-5.1442,4,0.00152288,11,-0.000101627,-2.28868,1.2163,0.0485078,-9.7449,0.0197556,
2,0,0,1,0,4896.54,0.018577,0.0182794,-5.13315,4,0.00142618,11,-9.38308e-05,-2.28962,1.40921,0.0418675,-8.39726,0.0182794,
2,0,0,1,0,4896.56,0.0170735,0.0167694,-5.1243,4,0.00132972,11,-8.59315e-05,-2.29037,2.24545,0.0262753,-5.26331,0.0167694,
2,0,0,1,0,4896.58,0.0155842,0.0152905,-5.12633,4,0.00123435,11,-7.83841e-05,-2.29019,4.68022,0.0126062,-2.52282,0.0152905,
2,0,0,1,0,4896.6,0.0140806,0.0138269,-5.13839,4,0.00113789,11,-7.1048e-05,-2.28917,6.56638,0.00898517,-1.79818,0.0138269,
2,0,0,1,0,4896.62,0.0125842,0.012269,-5.13866,4,0.00104191,11,-6.30463e-05,-2.28915,4.97297,0.0118641,-2.37502,0.012269,
2,0,0,1,0,4896.64,0.0110878,0.0107521,-5.13044,4,0.00094603,11,-5.51633e-05,-2.28984,134.68,0.000438074,-0.0877675,0.0107521,
2,0,0,1,0,4896.66,0.00958429,0.0092347,-5.14014,4,0.000849595,11,-4.74676e-05,-2.28903,-1.90367,-0.0309927,6.21141,0.0092347,
2,0,0,1,0,4896.67,0.0080968,0.00778542,-5.14199,4,0.00075403,11,-4.00326e-05,-2.28887,-1.27386,-0.0463158,9.29683,0.00778542,
2,0,0,1,0,4896.69,0.00659326,0.00632115,-5.1552,4,0.00065727,11,-3.25868e-05,-2.28775,-1.73172,-0.0340703,6.84669,0.00632115,
2,0,0,1,0,4896.71,0.00508972,0.00478871,-5.15308,4,0.000560331,11,-2.46766e-05,-2.28793,-1.31101,-0.0450033,9.06085,0.004788714,
2,0,0,1,0,4896.73,0.00360044,0.00332819,-5.17521,4,0.000464328,11,-1.72241e-05,-2.28607,-0.460508,-0.128119,26.0126,0.00332819,
2,0,0,1,0,4896.75,0.0020969,0.00175997,-5.25328,4,0.000366755,11,-9.24559e-06,-2.27957,-0.551395,-0.107001,21.7115,0.00175997,
2,0,0,1,0,4896.77,0.000593362,0.000249341,-5.23595,4,0.00026803,11,-1.30554e-06,-2.281, , , ,0.000249341,
2,0,0,1,0,4896.77,0.000199195,-0.000182169,-5.24265,4,0.00024236,11,9.55047e-07,-2.28045, , , ,-0.000182169,