File: Figure_codes/Fig_3-5/rawdata_trumpetplot_data/before 10th/20221101_1-115_002_TrumpetPlot_ParaChange_07_CV_C01_2.csv
mode,ox/red,error,control changes,counter inc.,time/s,control/V,Ewe/V,<I>/mA,cycle number,(Q-Qo)/C,I Range,P/W,log(|I|),Tafel slope mV/dec,alpha_eff,dI/d(E-IR),E-IR/V,
2,0,0,0,0,3602.35,2.44065e-05,-0.000478022,-1.16477,3,0.0000000E+000,11,5.56785e-07,-2.93376, , , ,-0.000478022,
2,1,0,1,0,3602.41,0.00129787,0.000961888,0.481983,3,-1.6003e-06,11,4.63613e-07,-3.31697, , , ,0.000961888,
2,1,0,1,0,3602.48,0.00279606,0.00248665,0.749546,3,4.78559e-05,11,1.86386e-06,-3.1252,0.00660863,8.92773,145.722,0.00248665,
2,1,0,1,0,3602.56,0.00429425,0.00399618,0.769888,3,0.000105257,11,3.07661e-06,-3.11357,0.0800365,0.737163,21.7868,0.00399618,
2,1,0,1,0,3602.63,0.00579244,0.0054929,0.787846,3,0.000164429,11,4.32756e-06,-3.10356,0.112569,0.524122,16.2162,0.0054929,
2,1,0,1,0,3602.71,0.00729063,0.00701485,0.819152,3,0.000225421,11,5.74622e-06,-3.08664,0.130169,0.453258,14.4298,0.00701485,
2,1,0,1,0,3602.78,0.00878882,0.00851833,0.843634,3,0.000288228,11,7.18635e-06,-3.07385,0.158868,0.371377,12.1186,0.00851833,
2,1,0,1,0,3602.86,0.010287,0.0100294,0.857927,3,0.0003524,11,8.60447e-06,-3.06655,0.204388,0.288666,9.61404,0.0100294,
2,1,0,1,0,3602.93,0.0117852,0.0115077,0.868002,3,0.000417661,11,9.98872e-06,-3.06148,0.215754,0.27346,9.28676,0.0115077,
2,1,0,1,0,3603.01,0.0132847,0.0129911,0.882236,3,0.000483923,11,1.14613e-05,-3.05442,0.208852,0.282497,9.77922,0.0129911,
2,1,0,1,0,3603.08,0.0147802,0.0144701,0.896652,3,0.000551072,11,1.29746e-05,-3.04738,0.230994,0.255418,8.9342,0.0144701,
2,1,0,1,0,3603.16,0.0162798,0.0160495,0.907184,3,0.000619476,11,1.45599e-05,-3.0423,0.358273,0.164679,5.80703,0.0160495,
2,1,0,1,0,3603.23,0.017778,0.0174875,0.913376,3,0.000688388,11,1.59727e-05,-3.03935,0.380014,0.155258,5.54933,0.0174875,
2,1,0,1,0,3603.31,0.0192761,0.019002,0.923253,3,0.0007577,11,1.75437e-05,-3.03468,0.391129,0.150846,5.43114,0.019002,
2,1,0,1,0,3603.38,0.0207743,0.020461,0.933694,3,0.000827821,11,1.91043e-05,-3.0298,0.321013,0.183793,6.68036,0.020461,
2,1,0,1,0,3603.46,0.0222725,0.0220356,0.940518,3,0.00089854,11,2.07248e-05,-3.02663,0.420246,0.140394,5.15408,0.0220356,
2,1,0,1,0,3603.53,0.0237707,0.0234998,0.947568,3,0.000969946,11,2.22676e-05,-3.02339,0.446644,0.132096,4.89348,0.0234998,
2,1,0,1,0,3603.61,0.0252689,0.0249955,0.95285,3,0.00104172,11,2.3817e-05,-3.02098,0.498233,0.118418,4.42117,0.0249955,
2,1,0,1,0,3603.68,0.0267671,0.0264913,0.962672,3,0.00111409,11,2.55024e-05,-3.01652,0.351589,0.16781,6.30327,0.0264913,
2,1,0,1,0,3603.76,0.0282653,0.0279643,0.971984,3,0.00118714,11,2.71809e-05,-3.01234,0.417551,0.1413,5.349,0.0279643,
2,1,0,1,0,3603.83,0.0297644,0.029517,0.979661,3,0.00126096,11,2.89167e-05,-3.00892,0.531595,0.110987,4.23449,0.029517,
2,1,0,1,0,3603.91,0.0312599,0.0309578,0.976247,3,0.00133496,11,3.02224e-05,-3.01044,0.44598,0.132293,5.09298,0.0309578,
2,1,0,1,0,3603.98,0.0327599,0.0324669,0.992198,3,0.00140962,11,3.22136e-05,-3.0034,0.433631,0.136061,5.27924,0.0324669,
2,1,0,1,0,3604.06,0.034258,0.0339971,1.00076,3,0.00148494,11,3.40227e-05,-2.99967,0.410879,0.143595,5.61925,0.0339971,
2,1,0,1,0,3604.13,0.0357562,0.0354782,1.00844,3,0.00156095,11,3.57777e-05,-2.99635,0.617932,0.0954797,3.75398,0.0354782,
2,1,0,1,0,3604.21,0.0372544,0.0369914,1.01724,3,0.00163758,11,3.76291e-05,-2.99258,0.462498,0.127568,5.08115,0.0369914,
2,1,0,1,0,3604.28,0.0387526,0.0384355,1.02869,3,0.00171461,11,3.9538e-05,-2.98772,0.379761,0.155361,6.25555,0.0384355,
2,1,0,1,0,3604.36,0.0402508,0.0399798,1.03549,3,0.0017925,11,4.13986e-05,-2.98486,0.364592,0.161825,6.55241,0.0399798,
2,1,0,1,0,3604.43,0.041749,0.0414618,1.05251,3,0.00187149,11,4.36392e-05,-2.97777,0.365472,0.161435,6.59508,0.0414618,
2,1,0,1,0,3604.51,0.0432472,0.0429817,1.0623,3,0.00195103,11,4.56596e-05,-2.97375,0.41855,0.140963,5.84263,0.0429817,
2,1,0,1,0,3604.58,0.0447449,0.0444626,1.07206,3,0.00203122,11,4.76668e-05,-2.96978,0.287634,0.205122,8.57712,0.0444626,
2,1,0,1,0,3604.66,0.0462445,0.0459787,1.08523,3,0.00211255,11,4.98974e-05,-2.96448,0.247008,0.238859,10.0863,0.0459787,
2,1,0,1,0,3604.73,0.04774,0.0475114,1.09577,3,0.00219482,11,5.20617e-05,-2.96028,0.252173,0.233966,10.0219,0.0475114,
2,1,0,1,0,3604.81,0.0492399,0.048968,1.11132,3,0.00227821,11,5.4419e-05,-2.95416,0.279041,0.211438,9.19318,0.048968,
2,1,0,1,0,3604.88,0.0507381,0.0504531,1.11936,3,0.00236236,11,5.64752e-05,-2.95103,0.247678,0.238212,10.475,0.0504531,
2,1,0,1,0,3604.96,0.0522363,0.0519698,1.13957,3,0.0024478,11,5.92233e-05,-2.94326,0.214232,0.275402,12.2542,0.0519698,
2,1,0,1,0,3605.03,0.0537345,0.0534618,1.16326,3,0.00253467,11,6.219e-05,-2.93432,0.234341,0.25177,11.3941,0.0534618,
2,1,0,1,0,3605.11,0.0552327,0.0549525,1.18139,3,0.0026229,11,6.49206e-05,-2.92761,0.239839,0.245998,11.2899,0.0549525,
2,1,0,1,0,3605.18,0.0567309,0.0564435,1.18973,3,0.00271235,11,6.71524e-05,-2.92455,0.232266,0.254019,11.8641,0.0564435,
2,1,0,1,0,3605.26,0.0582291,0.0579321,1.21396,3,0.00280297,11,7.03272e-05,-2.9158,0.207635,0.284152,13.4946,0.0579321,
2,1,0,1,0,3605.33,0.0597291,0.059432,1.23739,3,0.00289546,11,7.35408e-05,-2.90749,0.188937,0.312274,15.0616,0.059432,
2,1,0,1,0,3605.41,0.0612246,0.0609551,1.25885,3,0.00298943,11,7.67335e-05,-2.90003,0.219101,0.269282,13.1963,0.0609551,
2,1,0,1,0,3605.48,0.0627241,0.0624549,1.28075,3,0.00308523,11,7.99894e-05,-2.89253,0.191709,0.307757,15.4094,0.0624549,
2,1,0,1,0,3605.56,0.0642219,0.0639647,1.29981,3,0.00318228,11,8.31418e-05,-2.88612,0.172478,0.342072,17.4451,0.0639647,
2,1,0,1,0,3605.63,0.06572,0.0654601,1.32602,3,0.00328146,11,8.68015e-05,-2.87745,0.168578,0.349987,18.1108,0.0654601,
2,1,0,1,0,3605.71,0.0672182,0.0669536,1.356,3,0.00338265,11,9.0789e-05,-2.86774,0.186017,0.317176,16.7473,0.0669536,
2,1,0,1,0,3605.78,0.0687164,0.0684856,1.37672,3,0.00348555,11,9.42856e-05,-2.86115,0.205983,0.286432,15.391,0.0684856,
2,1,0,1,0,3605.85,0.0702146,0.0699298,1.39822,3,0.00359009,11,9.77775e-05,-2.85442,0.19283,0.305969,16.7339,0.0699298,
2,1,0,1,0,3605.93,0.0717128,0.0714272,1.42845,3,0.00369662,11,0.00010203,-2.84514,0.175735,0.335733,18.6824,0.0714272,
2,1,0,1,0,3606,0.073211,0.0729309,1.45619,3,0.00380516,11,0.000106201,-2.83678,0.188397,0.313169,17.8012,0.0729309,
2,1,0,1,0,3606.08,0.0747092,0.0744621,1.47926,3,0.00391564,11,0.000110149,-2.82995,0.203804,0.289494,16.717,0.0744621,
2,1,0,1,0,3606.15,0.0762087,0.075882,1.4984,3,0.00402815,11,0.000113701,-2.82437,0.19615,0.30079,17.6781,0.07588198,
2,1,0,1,0,3606.23,0.0777042,0.0774192,1.53045,3,0.00414216,11,0.000118486,-2.81518,0.193131,0.305492,18.27,0.0774192,
2,1,0,1,0,3606.3,0.0792037,0.0789707,1.5603,3,0.00425859,11,0.000123218,-2.80679,0.196175,0.300753,18.2732,0.0789707,
2,1,0,1,0,3606.38,0.0807019,0.0804077,1.58416,3,0.00437697,11,0.000127379,-2.8002,0.241151,0.24466,15.0632,0.0804077,
2,1,0,1,0,3606.45,0.0822001,0.0819269,1.6009,3,0.00449712,11,0.000131157,-2.79564,0.247846,0.238051,14.9111,0.0819269,
2,1,0,1,0,3606.53,0.0836983,0.08345,1.62809,3,0.0046187,11,0.000135864,-2.78832,0.24085,0.244966,15.6129,0.08345,
2,1,0,1,0,3606.6,0.0851965,0.0849186,1.65447,3,0.00474217,11,0.000140495,-2.78134,0.225411,0.261744,16.911,0.0849186,
2,1,0,1,0,3606.68,0.0866947,0.0863809,1.67821,3,0.00486763,11,0.000144965,-2.77515,0.26362,0.223807,14.6165,0.0863809,
2,1,0,1,0,3606.75,0.0881929,0.0879492,1.70238,3,0.00499496,11,0.000149723,-2.76894,0.263118,0.224234,14.8852,0.0879492,
2,1,0,1,0,3606.83,0.0896911,0.0893841,1.72348,3,0.00512355,11,0.000154051,-2.76359,0.257011,0.229562,15.4781,0.0893841,
2,1,0,1,0,3606.9,0.0911893,0.0908867,1.74773,3,0.00525403,11,0.000158846,-2.75753,0.235705,0.250313,17.0472,0.0908867,
2,1,0,1,0,3606.98,0.0926884,0.0924109,1.77113,3,0.00538674,11,0.000163672,-2.75175,0.245424,0.2404,16.5999,0.0924109,
2,1,0,1,0,3607.05,0.0941839,0.0938989,1.79373,3,0.00552069,11,0.000168429,-2.74624,0.305793,0.192941,13.516,0.0938989,
2,1,0,1,0,3607.13,0.0956838,0.0954094,1.81032,3,0.0056564,11,0.000172722,-2.74224,0.272653,0.216392,15.3455,0.0954094,
2,1,0,1,0,3607.2,0.097182,0.0969108,1.83807,3,0.00579369,11,0.000178129,-2.73564,0.223995,0.263399,18.8884,0.0969108,
2,1,0,1,0,3607.28,0.0986802,0.0983999,1.86164,3,0.00593291,11,0.000183186,-2.7301,0.25362,0.232632,16.9174,0.0983999,
2,1,0,1,0,3607.35,0.100178,0.0999308,1.88899,3,0.00607414,11,0.000188769,-2.72377,0.248062,0.237844,17.5264,0.0999308,
2,1,0,1,0,3607.43,0.101677,0.101356,1.90995,3,0.0062171,11,0.000193585,-2.71898,0.248685,0.237248,17.7588,0.101356,
2,1,0,1,0,3607.5,0.103175,0.102868,1.94595,3,0.0063621,11,0.000200177,-2.71087,0.208747,0.282639,21.4832,0.102868,
2,1,0,1,0,3607.58,0.104673,0.104406,1.98004,3,0.00650953,11,0.000206728,-2.70333,0.197227,0.299148,23.0971,0.104406,
2,1,0,1,0,3607.65,0.106171,0.105894,2.01214,3,0.00665967,11,0.000213074,-2.69634,0.202399,0.291504,22.8474,0.105894,
2,1,0,1,0,3607.73,0.107669,0.107332,2.04788,3,0.00681233,11,0.000219802,-2.6887,0.186755,0.315922,25.3038,0.107332,
2,1,0,1,0,3607.8,0.109168,0.108846,2.0867,3,0.00696769,11,0.000227129,-2.68054,0.169569,0.347941,28.4197,0.108846,
2,1,0,1,0,3607.88,0.110664,0.110381,2.13108,3,0.00712608,11,0.000235231,-2.6714,0.152054,0.388019,32.3371,0.1103812,
2,1,0,1,0,3607.95,0.112164,0.111868,2.17905,3,0.00728849,11,0.000243766,-2.66173,0.15014,0.392967,33.4521,0.111868,
2,1,0,1,0,3608.03,0.113662,0.113409,2.23365,3,0.00745443,11,0.000253315,-2.65099,0.145055,0.406743,35.4871,0.113409,
2,1,0,1,0,3608.1,0.11516,0.114864,2.28601,3,0.00762414,11,0.00026258,-2.64092,0.134158,0.439781,39.3534,0.114864,
2,1,0,1,0,3608.18,0.116658,0.116367,2.34878,3,0.00779841,11,0.000273321,-2.62916,0.125698,0.46938,43.068,0.116367,
2,1,0,1,0,3608.25,0.118157,0.117901,2.42139,3,0.0079778,11,0.000285485,-2.61594,0.124884,0.472437,44.5807,0.117901,
2,1,0,1,0,3608.33,0.119655,0.119351,2.48826,3,0.008162,11,0.000296976,-2.60411,0.128446,0.459335,44.6228,0.119351,
2,1,0,1,0,3608.4,0.121153,0.120882,2.55121,3,0.00835124,11,0.000308395,-2.59325,0.118296,0.498749,49.8137,0.120882,
2,1,0,1,0,3608.48,0.122653,0.122364,2.62929,3,0.00854616,11,0.000321731,-2.58016,0.115447,0.511055,52.4399,0.122364,
2,1,0,1,0,3608.55,0.124149,0.123895,2.71184,3,0.00874654,11,0.000335984,-2.56674,0.116503,0.506425,53.5146,0.123895,
2,1,0,1,0,3608.63,0.125648,0.125334,2.78768,3,0.0089532,11,0.00034939,-2.55476,0.125194,0.47127,51.2138,0.1253338,
2,1,0,1,0,3608.7,0.127146,0.126853,2.85821,3,0.00916553,11,0.000362573,-2.54391,0.126669,0.465779,52.0071,0.126853,
2,1,0,1,0,3608.78,0.128644,0.128385,2.94036,3,0.00938349,11,0.000377497,-2.5316,0.129464,0.455725,52.3196,0.128385,
2,1,0,1,0,3608.85,0.130142,0.129817,3.01721,3,0.0096073,11,0.000391684,-2.52039,0.138081,0.427286,50.3051,0.129817,
2,1,0,1,0,3608.93,0.13164,0.131378,3.09476,3,0.00983703,11,0.000406584,-2.50937,0.154548,0.381759,45.9643,0.131378,
2,1,0,1,0,3609,0.133139,0.132851,3.16579,3,0.0100722,11,0.000420577,-2.49952,0.16692,0.353463,43.6002,0.132851,
2,1,0,1,0,3609.08,0.134637,0.134356,3.22724,3,0.0103119,11,0.000433599,-2.49117,0.179256,0.329138,41.4404,0.134356,
2,1,0,1,0,3609.15,0.136135,0.13583,3.29048,3,0.0105566,11,0.000446946,-2.48274,0.193074,0.305583,39.1499,0.13583,
2,1,0,1,0,3609.23,0.137633,0.137335,3.34689,3,0.0108058,11,0.000459647,-2.47536,0.227316,0.25955,33.7752,0.1373353,
2,1,0,1,0,3609.3,0.139133,0.138836,3.39576,3,0.0110591,11,0.000471454,-2.46906,0.280476,0.210357,27.7654,0.138836,
2,1,0,1,0,3609.38,0.140628,0.140373,3.42376,3,0.0113146,11,0.000480604,-2.4655,0.355902,0.165776,22.1341,0.140373,
2,1,0,1,0,3609.45,0.142128,0.141877,3.45657,3,0.0115734,11,0.000490407,-2.46135,0.410848,0.143605,19.3305,0.141877,
2,1,0,1,0,3609.53,0.143626,0.143372,3.48479,3,0.011834,11,0.000499622,-2.45782,0.772043,0.0764206,10.3472,0.143372,
2,1,0,1,0,3609.6,0.145124,0.144849,3.48725,3,0.0120958,11,0.000505126,-2.45752,-4.38258,-0.0134624,-1.82701,0.144849,
2,1,0,1,0,3609.68,0.146622,0.146349,3.47541,3,0.0123574,11,0.000508622,-2.45899,-0.892006,-0.066143,-8.95737,0.146349,
2,1,0,1,0,3609.75,0.14812,0.147868,3.46492,3,0.012618,11,0.00051235,-2.46031,-0.4962,-0.118904,-16.0214,0.147868,
2,1,0,1,0,3609.83,0.149619,0.149356,3.43336,3,0.0128768,11,0.000512794,-2.46428,-0.286005,-0.20629,-27.5081,0.149356,
2,1,0,1,0,3609.9,0.151117,0.150852,3.38627,3,0.0131329,11,0.000510825,-2.47028,-0.200396,-0.294418,-38.6569,0.150852,
2,1,0,1,0,3609.97,0.152615,0.152343,3.31579,3,0.0133846,11,0.000505139,-2.47941,-0.151042,-0.39062,-50.3407,0.152343,
2,1,0,1,0,3610.05,0.154113,0.153818,3.23645,3,0.0136304,11,0.000497826,-2.48993,-0.129779,-0.454619,-57.2718,0.1538184,
2,1,0,1,0,3610.12,0.155613,0.155314,3.14656,3,0.0138701,11,0.000488705,-2.50216,-0.108116,-0.545709,-66.6368,0.155314,
2,1,0,1,0,3610.2,0.157108,0.156811,3.03495,3,0.0141021,11,0.000475915,-2.51785,-0.0890503,-0.662547,-77.9734,0.156811,
2,1,0,1,0,3610.27,0.158608,0.158323,2.91168,3,0.0143258,11,0.000460986,-2.53586,-0.0783172,-0.753346,-85.3071,0.158323,
2,1,0,1,0,3610.35,0.160106,0.159845,2.7772,3,0.0145392,11,0.000443921,-2.55639,-0.0733531,-0.804329,-87.1732,0.159845,
2,1,0,1,0,3610.42,0.161604,0.161299,2.64919,3,0.0147428,11,0.000427311,-2.57689,-0.0701362,-0.841221,-86.754,0.161299,
2,1,0,1,0,3610.5,0.163102,0.16281,2.51332,3,0.0149368,11,0.000409193,-2.59975,-0.0657868,-0.896836,-87.8928,0.16281,
2,1,0,1,0,3610.57,0.164601,0.164368,2.38493,3,0.0151208,11,0.000392006,-2.62252,-0.0628809,-0.938282,-87.2521,0.164368,
2,1,0,1,0,3610.65,0.166099,0.165846,2.25667,3,0.0152949,11,0.00037426,-2.64653,-0.065975,-0.894278,-79.0597,0.165846,
2,1,0,1,0,3610.72,0.167597,0.167304,2.14235,3,0.0154601,11,0.000358423,-2.66911,-0.0704145,-0.837896,-70.2414,0.167304,
2,1,0,1,0,3610.8,0.169095,0.168801,2.04091,3,0.0156174,11,0.000344508,-2.69018,-0.069589,-0.847835,-67.6173,0.168801,
2,1,0,1,0,3610.87,0.170593,0.170348,1.93805,3,0.015767,11,0.000330143,-2.71264,-0.0714046,-0.826277,-62.7563,0.170348,
2,1,0,1,0,3610.95,0.172092,0.171772,1.8466,3,0.0159095,11,0.000317194,-2.73363,-0.0775457,-0.760842,-55.2117,0.171772,
2,1,0,1,0,3611.02,0.173588,0.17331,1.77103,3,0.0160453,11,0.000306937,-2.75177,-0.0828551,-0.712086,-49.3631,0.17331,
2,1,0,1,0,3611.1,0.175088,0.174824,1.70022,3,0.0161761,11,0.00029724,-2.76949,-0.0870112,-0.678073,-45.0521,0.174824,
2,1,0,1,0,3611.17,0.176586,0.176322,1.63615,3,0.0163016,11,0.00028849,-2.78618,-0.0901136,-0.654729,-41.85,0.176322,
2,1,0,1,0,3611.25,0.178084,0.177817,1.5756,3,0.0164225,11,0.000280167,-2.80256,-0.0983027,-0.600187,-37.087,0.177817,
2,1,0,1,0,3611.32,0.179582,0.179285,1.5268,3,0.0165391,11,0.000273733,-2.81622,-0.107605,-0.5483,-32.8077,0.1792855,
2,1,0,1,0,3611.4,0.181081,0.180825,1.48074,3,0.0166523,11,0.000267754,-2.82952,-0.118801,-0.496628,-28.7493,0.1808248,
2,1,0,1,0,3611.47,0.182579,0.182296,1.44059,3,0.0167625,11,0.000262613,-2.84146,-0.11888,-0.496298,-27.8891,0.182296,
2,1,0,1,0,3611.55,0.184077,0.183835,1.40249,3,0.0168694,11,0.000257826,-2.8531,-0.130194,-0.45317,-24.8795,0.183835,
2,1,0,1,0,3611.62,0.185577,0.185328,1.36769,3,0.0169735,11,0.000253471,-2.86401,-0.147123,-0.401025,-21.4275,0.185328,
2,1,0,1,0,3611.7,0.187073,0.186822,1.33877,3,0.0170751,11,0.000250113,-2.87329,-0.16764,-0.351944,-18.3507,0.186822,
2,1,0,1,0,3611.77,0.188572,0.188276,1.31017,3,0.0171749,11,0.000246673,-2.88267,-0.176331,-0.334597,-17.0863,0.188276,
2,1,0,1,0,3611.85,0.19007,0.189795,1.28189,3,0.0172725,11,0.000243296,-2.89215,-0.172392,-0.342244,-17.1656,0.189795,
2,1,0,1,0,3611.92,0.191568,0.191278,1.25483,3,0.0173681,11,0.00024002,-2.90142,-0.195931,-0.301126,-14.8187,0.1912777,
2,1,0,1,0,3612,0.193066,0.192758,1.23341,3,0.0174621,11,0.000237749,-2.90889,-0.23878,-0.247089,-11.9207,0.192758,
2,1,0,1,0,3612.07,0.194564,0.194275,1.22056,3,0.0175547,11,0.000237125,-2.91344,-0.228662,-0.258023,-12.2917,0.194275,
2,1,0,1,0,3612.15,0.196063,0.195806,1.19866,3,0.0176459,11,0.000234706,-2.9213,-0.204184,-0.288954,-13.5712,0.195806,
2,1,0,1,0,3612.22,0.197561,0.197294,1.17781,3,0.0177356,11,0.000232374,-2.92893,-0.242715,-0.243084,-11.2472,0.197294,
2,1,0,1,0,3612.3,0.199059,0.198798,1.16867,3,0.0178241,11,0.000232328,-2.93231,-0.263295,-0.224084,-10.2025,0.198798,
2,1,0,1,0,3612.37,0.200557,0.20029,1.15737,3,0.0179117,11,0.00023181,-2.93653,-0.297725,-0.198169,-8.91685,0.20029,
2,1,0,1,0,3612.45,0.202057,0.201809,1.14276,3,0.0179982,11,0.000230619,-2.94205,-0.269704,-0.218759,-9.72875,0.201809,
2,1,0,1,0,3612.52,0.203552,0.203265,1.12639,3,0.0180836,11,0.000228956,-2.94831,-0.336659,-0.175252,-7.71897,0.203265,
2,1,0,1,0,3612.6,0.205052,0.204787,1.11417,3,0.0181683,11,0.000228168,-2.95305,-0.555855,-0.106143,-4.65878,0.204787,
2,1,0,1,0,3612.67,0.20655,0.206254,1.10385,3,0.0182521,11,0.000227674,-2.95709,-0.414434,-0.142363,-6.15885,0.206254,
2,1,0,1,0,3612.75,0.208048,0.207753,1.09581,3,0.0183355,11,0.000227657,-2.96027,-0.352505,-0.167373,-7.16394,0.207753,
2,1,0,1,0,3612.82,0.209546,0.209264,1.08608,3,0.0184178,11,0.000227277,-2.96414,-0.34687,-0.170093,-7.22257,0.209264,
2,1,0,1,0,3612.9,0.211044,0.210792,1.07977,3,0.0184993,11,0.000227607,-2.96667,-0.417801,-0.141215,-5.93648,0.210792,
2,1,0,1,0,3612.97,0.212543,0.212254,1.06983,3,0.0185803,11,0.000227076,-2.97069,-0.6629,-0.0890028,-3.70949,0.212254,
2,1,0,1,0,3613.05,0.214041,0.213785,1.06076,3,0.0186607,11,0.000226774,-2.97438,-0.452215,-0.130469,-5.41481,0.213785,
2,1,0,1,0,3613.12,0.215539,0.215244,1.05592,3,0.0187406,11,0.00022728,-2.97637,-0.438221,-0.134635,-5.54848,0.215244,
2,1,0,1,0,3613.2,0.217037,0.216731,1.04533,3,0.0188198,11,0.000226556,-2.98075,-0.545963,-0.108066,-4.42594,0.216731,
2,1,0,1,0,3613.27,0.218536,0.218273,1.04144,3,0.0188987,11,0.000227317,-2.98237,-1.25769,-0.0469113,-1.90439,0.218273,
2,1,0,1,0,3613.35,0.220032,0.219769,1.04041,3,0.018977,11,0.000228649,-2.9828,-0.727644,-0.0810836,-3.27492,0.219769,
2,1,0,1,0,3613.42,0.221532,0.221269,1.02906,3,0.0190551,11,0.000227698,-2.98756,-0.633341,-0.0931567,-3.74306,0.2212688,
2,1,0,1,0,3613.5,0.22303,0.222802,1.01792,3,0.0191325,11,0.000226794,-2.99229,-0.744979,-0.0791969,-3.15846,0.222802,
2,1,0,1,0,3613.57,0.224528,0.224266,1.01884,3,0.0192095,11,0.000228491,-2.99189,-0.606823,-0.0972276,-3.85961,0.224266,
2,1,0,1,0,3613.65,0.226026,0.225746,1.01241,3,0.0192862,11,0.000228548,-2.99464,-0.752669,-0.0783877,-3.09885,0.225746,
2,1,0,1,0,3613.72,0.227525,0.227265,1.00803,3,0.0193625,11,0.000229089,-2.99653,-0.461642,-0.127805,-5.01958,0.227265,
2,1,0,1,0,3613.8,0.229023,0.228775,1.00216,3,0.0194385,11,0.00022927,-2.99906,-0.731304,-0.0806778,-3.16599,0.228775,
2,1,0,1,0,3613.87,0.230521,0.230253,0.999817,3,0.0195139,11,0.000230211,-3.00008,-0.811496,-0.0727052,-2.84631,0.2302527,
2,1,0,1,0,3613.95,0.232019,0.231752,0.997298,3,0.0195892,11,0.000231126,-3.00117,-0.991374,-0.0595134,-2.31066,0.231752,
2,1,0,1,0,3614.02,0.233517,0.233212,0.993179,3,0.0196643,11,0.000231621,-3.00297,-0.781697,-0.0754768,-2.91186,0.2332121,
2,1,0,1,0,3614.09,0.235016,0.234726,0.989485,3,0.0197392,11,0.000232258,-3.00459,-1.05668,-0.0558354,-2.15023,0.2347264,
2,1,0,1,0,3614.17,0.236512,0.236217,0.983996,3,0.0198133,11,0.000232437,-3.00701,-0.962445,-0.0613022,-2.35004,0.236217,
2,1,0,1,0,3614.24,0.238012,0.237762,0.980261,3,0.0198875,11,0.000233069,-3.00866,-1.89216,-0.0311812,-1.1909,0.237762,
2,1,0,1,0,3614.32,0.23951,0.23925,0.975794,3,0.0199614,11,0.000233459,-3.01064,-0.809451,-0.0728889,-2.77563,0.23925,
2,1,0,1,0,3614.39,0.241008,0.240741,0.972163,3,0.020035,11,0.00023404,-3.01226,-1.16858,-0.0504887,-1.92019,0.240741,
2,1,0,1,0,3614.47,0.242506,0.242244,0.967134,3,0.0201082,11,0.000234282,-3.01451,-0.783524,-0.0753009,-2.85387,0.242244,
2,1,0,1,0,3614.54,0.244005,0.243718,0.966259,3,0.0201813,11,0.000235494,-3.01491,-1.85762,-0.0317612,-1.19726,0.243718,
2,1,0,1,0,3614.62,0.245503,0.24521,0.967576,3,0.0202543,11,0.000237259,-3.01432,-0.93199,-0.0633054,-2.38122,0.24521,
2,1,0,1,0,3614.69,0.247001,0.246724,0.962789,3,0.020327,11,0.000237543,-3.01647,-0.682307,-0.0864713,-3.23847,0.2467238,
2,1,0,1,0,3614.77,0.248501,0.248235,0.954182,3,0.0203995,11,0.000236862,-3.02037,-1.23008,-0.0479645,-1.79312,0.248235,
2,1,0,1,0,3614.84,0.249997,0.249749,0.955032,3,0.0204715,11,0.000238518,-3.01998,-1.87622,-0.0314461,-1.1718,0.249749,
2,1,0,1,0,3614.92,0.251496,0.251229,0.950444,3,0.0205435,11,0.000238779,-3.02207,-2.23683,-0.0263767,-0.98192,0.251229,
2,1,0,1,0,3614.99,0.252994,0.252702,0.94798,3,0.0206154,11,0.000239557,-3.0232,-0.830362,-0.0710533,-2.62478,0.252702,
2,1,0,1,0,3615.07,0.254492,0.254231,0.944377,3,0.020687,11,0.00024009,-3.02485,-1.05122,-0.0561255,-2.07864,0.254231,
2,1,0,1,0,3615.14,0.25599,0.255713,0.940794,3,0.0207581,11,0.000240573,-3.02651,-2.63998,-0.0223487,-0.825369,0.255713,
2,1,0,1,0,3615.22,0.257488,0.257252,0.942905,3,0.0208294,11,0.000242564,-3.02553,-1.19524,-0.0493623,-1.80923,0.257252,
2,1,0,1,0,3615.29,0.258987,0.258719,0.940884,3,0.0209005,11,0.000243425,-3.02646,-1.00905,-0.0584709,-2.13743,0.258719,
2,1,0,1,0,3615.37,0.260485,0.260193,0.938775,3,0.0209714,11,0.000244263,-3.02744,-0.811181,-0.0727334,-2.65948,0.260193,
2,1,0,1,0,3615.44,0.261983,0.261727,0.933526,3,0.0210418,11,0.000244329,-3.02987,-1.30757,-0.045122,-1.644,0.261727,
2,1,0,1,0,3615.52,0.263481,0.263248,0.933039,3,0.0211122,11,0.000245621,-3.0301,-5.52455,-0.0106796,-0.387543,0.263248,
2,1,0,1,0,3615.59,0.264981,0.264747,0.929358,3,0.0211826,11,0.000246045,-3.03182,-2.03062,-0.0290552,-1.05365,0.264747,
2,1,0,1,0,3615.67,0.266476,0.266202,0.926655,3,0.0212526,11,0.000246678,-3.03308,-1.13171,-0.0521336,-1.88812,0.266202,
2,1,0,1,0,3615.74,0.267976,0.267701,0.921093,3,0.0213225,11,0.000246577,-3.0357,-1.89004,-0.0312162,-1.12479,0.267701,
2,1,0,1,0,3615.82,0.269474,0.269192,0.920684,3,0.0213922,11,0.00024784,-3.03589,-5.82756,-0.0101243,-0.363383,0.269192,
2,1,0,1,0,3615.89,0.270972,0.270674,0.924975,3,0.0214619,11,0.000250367,-3.03387,-1.04254,-0.0565927,-2.03066,0.270674,
2,1,0,1,0,3615.97,0.27247,0.272176,0.918644,3,0.0215314,11,0.000250033,-3.03685,-0.660271,-0.0893573,-3.1956,0.272176,
2,1,0,1,0,3616.04,0.273968,0.273679,0.910821,3,0.0216006,11,0.000249273,-3.04057,-1.10611,-0.0533403,-1.90733,0.273679,
2,1,0,1,0,3616.12,0.275467,0.275225,0.911105,3,0.0216695,11,0.000250759,-3.04043,-1.20559,-0.0489388,-1.74895,0.275225,
2,1,0,1,0,3616.19,0.276965,0.276711,0.910794,3,0.0217384,11,0.000252027,-3.04058,-1.11655,-0.0528416,-1.88201,0.2767109,
2,1,0,1,0,3616.27,0.278463,0.278166,0.910021,3,0.0218072,11,0.000253137,-3.04095,-0.793093,-0.0743923,-2.63456,0.278166,
2,1,0,1,0,3616.34,0.279961,0.279699,0.906534,3,0.0218758,11,0.000253557,-3.04262,-1.95775,-0.0301366,-1.06654,0.279699,
2,1,0,1,0,3616.42,0.28146,0.281187,0.903924,3,0.0219442,11,0.000254172,-3.04387,-1.71533,-0.0343957,-1.21563,0.281187,
2,1,0,1,0,3616.49,0.282956,0.282682,0.903573,3,0.0220124,11,0.000255423,-3.04404,-3.85716,-0.0152962,-0.538642,0.282682,
2,1,0,1,0,3616.57,0.284456,0.284217,0.9018,3,0.0220806,11,0.000256307,-3.04489,-1.84114,-0.0320454,-1.12696,0.284217,
2,1,0,1,0,3616.64,0.285954,0.28568,0.898129,3,0.0221486,11,0.000256578,-3.04666,-1.53674,-0.038393,-1.34675,0.28568,
2,1,0,1,0,3616.72,0.287452,0.287177,0.894828,3,0.0222164,11,0.000256974,-3.04826,-1.23259,-0.0478667,-1.67391,0.287177,
2,1,0,1,0,3616.79,0.28895,0.288669,0.893832,3,0.022284,11,0.000258022,-3.04874,-17.5331,-0.00336506,-0.117364,0.288669,
2,1,0,1,0,3616.87,0.290449,0.290184,0.891827,3,0.0223516,11,0.000258794,-3.04972,-1.54662,-0.0381478,-1.32966,0.290184,
2,1,0,1,0,3616.94,0.291947,0.29168,0.888574,3,0.022419,11,0.000259179,-3.05131,-0.930248,-0.0634239,-2.20519,0.29168,
2,1,0,1,0,3617.02,0.293445,0.293181,0.885033,3,0.0224861,11,0.000259475,-3.05304,-1.30447,-0.045229,-1.56854,0.293181,
2,1,0,1,0,3617.09,0.294943,0.294668,0.890386,3,0.0225532,11,0.000262368,-3.05042,-4.87825,-0.0120945,-0.419174,0.294668,
2,1,0,1,0,3617.17,0.296441,0.296197,0.890075,3,0.0226201,11,0.000263637,-3.05057,-1.47239,-0.0400708,-1.38355,0.296197,
2,1,0,1,0,3617.24,0.29794,0.297705,0.882497,3,0.0226872,11,0.000262724,-3.05429,-1.12931,-0.0522442,-1.79431,0.297705,
2,1,0,1,0,3617.32,0.299436,0.299207,0.8771,3,0.0227538,11,0.000262435,-3.05695,-0.00139976,-42.1501,-544.343,0.299207,
2,1,0,1,0,3617.36,0.299739,0.299488,0.298308,3,0.0227845,11,8.93398e-05,-3.52534,0.00177993,33.1474,860.441,0.299488,
2,0,0,1,0,3617.43,0.298239,0.297953,-0.156207,3,0.0227805,11,-4.65423e-05,-3.8063,0.00617755,9.55072,300.535,0.297953,
2,0,0,1,0,3617.51,0.296741,0.296485,-0.203512,3,0.022766,11,-6.03383e-05,-3.69141,-0.0141855,-4.15917,29.8933,0.296485,
2,0,0,1,0,3617.58,0.295243,0.29496,-0.243088,3,0.0227485,11,-7.17011e-05,-3.61424,-0.026297,-2.2436,20.3447,0.29496,
2,0,0,1,0,3617.66,0.293745,0.293444,-0.269737,3,0.0227288,11,-7.91528e-05,-3.56906,-0.0360249,-1.63775,16.8299,0.2934444,
2,0,0,1,0,3617.73,0.292246,0.291947,-0.290469,3,0.0227073,11,-8.48014e-05,-3.5369,-0.044692,-1.32015,14.7162,0.291947,
2,0,0,1,0,3617.81,0.290748,0.290468,-0.310741,3,0.0226842,11,-9.02603e-05,-3.5076,-0.0521696,-1.13093,13.5497,0.290468,
2,0,0,1,0,3617.88,0.28925,0.288963,-0.328688,3,0.0226596,11,-9.49788e-05,-3.48322,-0.0663876,-0.88872,11.3689,0.288963,
2,0,0,1,0,3617.96,0.287752,0.287474,-0.34367,3,0.0226338,11,-9.87963e-05,-3.46386,-0.0775574,-0.760727,10.1666,0.287474,
2,0,0,1,0,3618.03,0.286254,0.285918,-0.357009,3,0.022607,11,-0.000102075,-3.44732,-0.091161,-0.647207,9.0101,0.285918,
2,0,0,1,0,3618.11,0.284754,0.284472,-0.37412,3,0.022579,11,-0.000106427,-3.42699,-0.0827316,-0.71315,10.242,0.284472,
2,0,0,1,0,3618.18,0.283259,0.282945,-0.387664,3,0.0225501,11,-0.000109687,-3.41154,-0.0967793,-0.609634,9.12535,0.282945,
2,0,0,1,0,3618.26,0.281759,0.281431,-0.395509,3,0.0225202,11,-0.000111308,-3.40284,-0.121753,-0.484587,7.45776,0.281431,
2,0,0,1,0,3618.33,0.280261,0.280008,-0.400966,3,0.0224896,11,-0.000112274,-3.39689,-0.131999,-0.446972,7.08418,0.280008,
2,0,0,1,0,3618.41,0.278763,0.278451,-0.416351,3,0.0224582,11,-0.000115933,-3.38054,-0.123321,-0.478427,7.75342,0.278451,
2,0,0,1,0,3618.48,0.277264,0.277009,-0.428646,3,0.022426,11,-0.000118739,-3.3679,-0.154404,-0.382113,6.37527,0.277009,
2,0,0,1,0,3618.56,0.275766,0.27546,-0.436123,3,0.0223929,11,-0.000120134,-3.36039,-0.219169,-0.269198,4.5671,0.27546,
2,0,0,1,0,3618.63,0.274268,0.274011,-0.446665,3,0.0223593,11,-0.000122391,-3.35002,-0.191976,-0.30733,5.36527,0.274011,
2,0,0,1,0,3618.71,0.27277,0.272438,-0.455197,3,0.0223251,11,-0.000124013,-3.3418,-0.168014,-0.351162,6.23624,0.272438,
2,0,0,1,0,3618.78,0.271272,0.270926,-0.467415,3,0.02229,11,-0.000126635,-3.3303,-0.187635,-0.31444,5.66765,0.270926,
2,0,0,1,0,3618.86,0.269774,0.269474,-0.475518,3,0.0222543,11,-0.00012814,-3.32283,-0.206018,-0.286383,5.26762,0.269474,
2,0,0,1,0,3618.93,0.268274,0.267954,-0.480262,3,0.022218,11,-0.000128688,-3.31852,-0.213619,-0.276193,5.16728,0.267954,
2,0,0,1,0,3619.01,0.266779,0.266505,-0.487357,3,0.0221813,11,-0.000129883,-3.31215,-0.200886,-0.293699,5.59129,0.266505,
2,0,0,1,0,3619.08,0.265279,0.264999,-0.495276,3,0.0221438,11,-0.000131248,-3.30515,-0.177531,-0.332337,6.42443,0.264999,
2,0,0,1,0,3619.16,0.263781,0.263516,-0.501955,3,0.0221058,11,-0.000132273,-3.29934,-0.243554,-0.242246,4.7771,0.263516,
2,0,0,1,0,3619.23,0.262283,0.261975,-0.509091,3,0.0220671,11,-0.000133369,-3.2932,-0.291126,-0.202661,4.04231,0.261975,
2,0,0,1,0,3619.31,0.260784,0.26051,-0.514845,3,0.0220281,11,-0.000134123,-3.28832,-0.241622,-0.244183,4.94388,0.26051,
2,0,0,1,0,3619.38,0.259286,0.259007,-0.527221,3,0.0219885,11,-0.000136554,-3.27801,-0.209266,-0.281938,5.78402,0.259007,
2,0,0,1,0,3619.46,0.257788,0.25751,-0.536211,3,0.0219483,11,-0.00013808,-3.27066,-0.242666,-0.243132,5.04097,0.25751,
2,0,0,1,0,3619.53,0.25629,0.255976,-0.539093,3,0.0219074,11,-0.000137995,-3.26834,-0.322881,-0.18273,3.8235,0.255976,
2,0,0,1,0,3619.61,0.25479,0.254468,-0.543746,3,0.0218661,11,-0.000138366,-3.2646,-0.260642,-0.226364,4.82235,0.2544677,
2,0,0,1,0,3619.68,0.253294,0.253002,-0.552832,3,0.0218246,11,-0.000139868,-3.25741,-0.239308,-0.246545,5.32508,0.253002,
2,0,0,1,0,3619.76,0.251795,0.251524,-0.55717,3,0.0217823,11,-0.000140141,-3.25401,-0.260037,-0.226891,4.96235,0.251524,
2,0,0,1,0,3619.83,0.250297,0.249975,-0.565168,3,0.0217395,11,-0.000141278,-3.24782,-0.456535,-0.129234,2.84403,0.249975,
2,0,0,1,0,3619.91,0.248799,0.24852,-0.571595,3,0.0216962,11,-0.000142053,-3.24291,-0.331774,-0.177832,3.98035,0.24852,
2,0,0,1,0,3619.98,0.247301,0.247017,-0.577597,3,0.0216527,11,-0.000142676,-3.23838,-0.25424,-0.232064,5.24824,0.247017,
2,0,0,1,0,3620.06,0.245802,0.245518,-0.585296,3,0.0216085,11,-0.000143701,-3.23262,-0.278337,-0.211973,4.83032,0.2455183,
2,0,0,1,0,3620.13,0.244304,0.244018,-0.591101,3,0.0215636,11,-0.000144239,-3.22834,-0.383373,-0.153897,3.55006,0.244018,
2,0,0,1,0,3620.21,0.242806,0.242525,-0.598794,3,0.0215184,11,-0.000145222,-3.22272,-0.40693,-0.144988,3.40102,0.242525,
2,0,0,1,0,3620.28,0.241308,0.241007,-0.607461,3,0.0214729,11,-0.000146402,-3.21648,-0.315471,-0.187022,4.42756,0.241007,
2,0,0,1,0,3620.36,0.23981,0.239484,-0.609842,3,0.0214268,11,-0.000146047,-3.21478,-0.214776,-0.274705,6.54646,0.239484,
2,0,0,1,0,3620.43,0.23831,0.237995,-0.617265,3,0.02138,11,-0.000146906,-3.20953,-0.308168,-0.191454,4.61554,0.237995,
2,0,0,1,0,3620.5,0.236815,0.236517,-0.624478,3,0.0213329,11,-0.0001477,-3.20448,-0.299364,-0.197085,4.80827,0.236517,
2,0,0,1,0,3620.58,0.235315,0.23502,-0.624953,3,0.0212853,11,-0.000146877,-3.20415,-0.281009,-0.209957,5.17716,0.23502,
2,0,0,1,0,3620.65,0.233817,0.233501,-0.637837,3,0.0212373,11,-0.000148936,-3.19529,-0.311495,-0.189409,4.72865,0.233501,
2,0,0,1,0,3620.73,0.232319,0.231986,-0.646396,3,0.0211886,11,-0.000149955,-3.1895,-0.345706,-0.170665,4.27867,0.231986,
2,0,0,1,0,3620.8,0.230821,0.230512,-0.651797,3,0.0211394,11,-0.000150247,-3.18589,-0.465075,-0.126861,3.21609,0.230512,
2,0,0,1,0,3620.88,0.229322,0.229063,-0.653384,3,0.0210898,11,-0.000149666,-3.18483,-0.343695,-0.171664,4.41723,0.229063,
2,0,0,1,0,3620.95,0.227824,0.227485,-0.66522,3,0.0210398,11,-0.000151328,-3.17703,-0.381212,-0.15477,4.02717,0.227485,
2,0,0,1,0,3621.03,0.226326,0.226034,-0.670179,3,0.0209891,11,-0.000151483,-3.17381,-0.335804,-0.175698,4.60398,0.226034,
2,0,0,1,0,3621.1,0.224828,0.224513,-0.681036,3,0.0209379,11,-0.000152901,-3.16683,-0.39886,-0.147922,3.91252,0.224513,
2,0,0,1,0,3621.18,0.22333,0.223037,-0.689779,3,0.0208862,11,-0.000153846,-3.16129,-0.36233,-0.162835,4.36874,0.223037,
2,0,0,1,0,3621.25,0.22183,0.221581,-0.693396,3,0.0208341,11,-0.000153643,-3.15902,-0.296442,-0.199027,5.38515,0.221581,
2,0,0,1,0,3621.33,0.220335,0.220074,-0.7042,3,0.0207813,11,-0.000154976,-3.1523,-0.246431,-0.239418,6.51439,0.220074,
2,0,0,1,0,3621.4,0.218835,0.218539,-0.709739,3,0.0207276,11,-0.000155105,-3.1489,-0.260298,-0.226663,6.27581,0.2185387,
2,0,0,1,0,3621.48,0.217337,0.217041,-0.718828,3,0.0206736,11,-0.000156015,-3.14338,-0.400238,-0.147412,4.14562,0.217041,
2,0,0,1,0,3621.55,0.215839,0.215541,-0.719639,3,0.0206191,11,-0.000155112,-3.14289,-0.276603,-0.213302,6.04736,0.215541,
2,0,0,1,0,3621.63,0.21434,0.21403,-0.731436,3,0.0205639,11,-0.00015655,-3.13582,-0.242529,-0.24327,6.93222,0.21403,
2,0,0,1,0,3621.7,0.212842,0.212558,-0.743719,3,0.020508,11,-0.000158083,-3.12859,-0.326324,-0.180802,5.24963,0.212558,
2,0,0,1,0,3621.78,0.211344,0.211031,-0.753814,3,0.0204514,11,-0.000159078,-3.12274,-0.328007,-0.179874,5.27512,0.211031,
2,0,0,1,0,3621.85,0.209846,0.209526,-0.755626,3,0.0203943,11,-0.000158323,-3.12169,-0.307241,-0.192031,5.69423,0.209526,
2,0,0,1,0,3621.93,0.208348,0.208042,-0.771682,3,0.0203364,11,-0.000160542,-3.11256,-0.23274,-0.253502,7.64279,0.208042,
2,0,0,1,0,3622,0.20685,0.206523,-0.790901,3,0.0202777,11,-0.00016334,-3.10188,-0.249445,-0.236525,7.20765,0.206523,
2,0,0,1,0,3622.08,0.20535,0.205062,-0.792322,3,0.0202179,11,-0.000162475,-3.1011,-0.302148,-0.195268,6.01708,0.205062,
2,0,0,1,0,3622.15,0.203855,0.203548,-0.800323,3,0.0201577,11,-0.000162904,-3.09673,-0.264622,-0.22296,7.00831,0.203548,
2,0,0,1,0,3622.23,0.202355,0.202047,-0.810756,3,0.0200967,11,-0.000163811,-3.09111,-0.220272,-0.267851,8.51893,0.202047,
2,0,0,1,0,3622.3,0.200857,0.200522,-0.824657,3,0.0200347,11,-0.000165362,-3.08373,-0.212276,-0.27794,8.95964,0.200522,
2,0,0,1,0,3622.38,0.199359,0.199024,-0.839689,3,0.0199719,11,-0.000167119,-3.07588,-0.250628,-0.235409,7.6947,0.1990245,
2,0,0,1,0,3622.45,0.19786,0.197531,-0.851478,3,0.019908,11,-0.000168193,-3.06983,-0.209759,-0.281275,9.32044,0.197531,
2,0,0,1,0,3622.53,0.196362,0.196051,-0.864753,3,0.0198432,11,-0.000169536,-3.06311,-0.198028,-0.297938,10.0613,0.196051,
2,0,0,1,0,3622.6,0.194864,0.194524,-0.88086,3,0.0197773,11,-0.000171349,-3.05509,-0.180286,-0.327259,11.2353,0.194524,
2,0,0,1,0,3622.68,0.193366,0.193045,-0.898134,3,0.0197101,11,-0.000173381,-3.04666,-0.194608,-0.303174,10.6083,0.193045,
2,0,0,1,0,3622.75,0.191866,0.191554,-0.910602,3,0.0196416,11,-0.00017443,-3.04067,-0.199733,-0.295394,10.5727,0.191554,
2,0,0,1,0,3622.83,0.19037,0.190041,-0.926558,3,0.0195723,11,-0.000176084,-3.03313,-0.169564,-0.347952,12.6539,0.190041,
2,0,0,1,0,3622.9,0.188871,0.188552,-0.949149,3,0.0195012,11,-0.000178964,-3.02267,-0.149841,-0.393751,14.5791,0.1885522,
2,0,0,1,0,3622.98,0.187373,0.187047,-0.971207,3,0.0194288,11,-0.000181661,-3.01269,-0.158589,-0.37203,14.0879,0.187047,
2,0,0,1,0,3623.05,0.185875,0.185533,-0.988487,3,0.0193547,11,-0.000183397,-3.00503,-0.154292,-0.382391,14.7557,0.185533,
2,0,0,1,0,3623.13,0.184377,0.184039,-1.00791,3,0.0192791,11,-0.000185494,-2.99658,-0.150635,-0.391675,15.501,0.184039,
2,0,0,1,0,3623.2,0.182878,0.182507,-1.0394,3,0.0192018,11,-0.000189697,-2.98322,-0.13727,-0.429811,17.4815,0.182507,
2,0,0,1,0,3623.28,0.18138,0.181105,-1.06857,3,0.0191224,11,-0.000193524,-2.9712,-0.131912,-0.447266,18.6239,0.181105,
2,0,0,1,0,3623.35,0.179882,0.179602,-1.09271,3,0.0190407,11,-0.000196252,-2.9615,-0.14526,-0.406169,17.3173,0.179602,
2,0,0,1,0,3623.43,0.178384,0.178059,-1.12447,3,0.0189569,11,-0.000200222,-2.94905,-0.125544,-0.469956,20.7398,0.178059,
2,0,0,1,0,3623.5,0.176886,0.176595,-1.16124,3,0.0188711,11,-0.000205069,-2.93508,-0.117544,-0.501938,22.797,0.176595,
2,0,0,1,0,3623.58,0.175386,0.175075,-1.19754,3,0.0187822,11,-0.00020966,-2.92171,-0.103308,-0.571106,26.6563,0.175075,
2,0,0,1,0,3623.65,0.173891,0.173586,-1.23819,3,0.0186906,11,-0.000214933,-2.90721,-0.0994358,-0.593348,28.6295,0.1735857,
2,0,0,1,0,3623.73,0.172391,0.172064,-1.27937,3,0.0185956,11,-0.000220133,-2.89301,-0.0982903,-0.600263,30.0231,0.172064,
2,0,0,1,0,3623.8,0.170893,0.17059,-1.32278,3,0.0184977,11,-0.000225653,-2.87851,-0.0955848,-0.617253,32.0308,0.17059,
2,0,0,1,0,3623.88,0.169395,0.169108,-1.37785,3,0.0183959,11,-0.000233005,-2.8608,-0.0817705,-0.721531,38.8709,0.169108,
2,0,0,1,0,3623.95,0.167897,0.167582,-1.43554,3,0.0182898,11,-0.000240571,-2.84298,-0.0827585,-0.712918,40.0184,0.167582,
2,0,0,1,0,3624.03,0.166398,0.166076,-1.49809,3,0.0181792,11,-0.000248796,-2.82446,-0.0834338,-0.707148,41.5278,0.166076,
2,0,0,1,0,3624.1,0.1649,0.164618,-1.56007,3,0.018064,11,-0.000256816,-2.80685,-0.0767258,-0.768972,47.1158,0.164618,
2,0,0,1,0,3624.18,0.163402,0.163118,-1.63915,3,0.0179435,11,-0.000267376,-2.78538,-0.0725261,-0.8135,52.154,0.163118,
2,0,0,1,0,3624.25,0.161904,0.161594,-1.72218,3,0.0178171,11,-0.000278294,-2.76392,-0.0691966,-0.852643,57.3126,0.161594,
2,0,0,1,0,3624.33,0.160406,0.160065,-1.81186,3,0.0176843,11,-0.000290016,-2.74187,-0.068595,-0.860122,60.7625,0.160065,
2,0,0,1,0,3624.4,0.158906,0.158613,-1.90005,3,0.0175445,11,-0.000301372,-2.72124,-0.0666612,-0.885073,65.8565,0.158613,
2,0,0,1,0,3624.48,0.157411,0.157117,-2.00339,3,0.0173981,11,-0.000314766,-2.69823,-0.0676954,-0.871551,68.3028,0.157117,
2,0,0,1,0,3624.55,0.155911,0.155609,-2.10696,3,0.0172431,11,-0.000327862,-2.67634,-0.0675208,-0.873805,71.9807,0.155609,
2,0,0,1,0,3624.63,0.154413,0.154062,-2.22357,3,0.01708,11,-0.000342568,-2.65295,-0.0704392,-0.837602,72.5435,0.154062,
2,0,0,1,0,3624.7,0.152915,0.152599,-2.33916,3,0.0169086,11,-0.000356954,-2.63094,-0.0704042,-0.838018,76.3569,0.152599,
2,0,0,1,0,3624.77,0.151417,0.151128,-2.44947,3,0.0167288,11,-0.000370185,-2.61093,-0.0727907,-0.810543,77.5008,0.151128,
2,0,0,1,0,3624.85,0.149918,0.149598,-2.56922,3,0.0165403,11,-0.000384349,-2.5902,-0.0776873,-0.759455,75.8688,0.149598,
2,0,0,1,0,3624.92,0.14842,0.148169,-2.68416,3,0.0163429,11,-0.000397709,-2.57119,-0.081426,-0.724584,75.7336,0.148169,
2,0,0,1,0,3625,0.146922,0.146643,-2.79861,3,0.0161373,11,-0.000410397,-2.55306,-0.0891837,-0.661556,72.0646,0.146643,
2,0,0,1,0,3625.07,0.145424,0.145105,-2.90045,3,0.0159233,11,-0.00042087,-2.53753,-0.0933775,-0.631844,71.4226,0.145105,
2,0,0,1,0,3625.15,0.143926,0.143637,-3.00871,3,0.0157013,11,-0.000432163,-2.52162,-0.100584,-0.586573,68.5849,0.143637,
2,0,0,1,0,3625.22,0.142426,0.142167,-3.10722,3,0.0154714,11,-0.000441743,-2.50763,-0.115571,-0.510507,61.6719,0.142167,
2,0,0,1,0,3625.3,0.140931,0.140627,-3.19131,3,0.0152352,11,-0.000448784,-2.49603,-0.141088,-0.418178,51.8827,0.140627,
2,0,0,1,0,3625.37,0.139431,0.139108,-3.25487,3,0.0149924,11,-0.00045278,-2.48747,-0.161098,-0.366237,46.5408,0.139108,
2,0,0,1,0,3625.45,0.137933,0.137626,-3.32746,3,0.014745,11,-0.000457945,-2.47789,-0.191369,-0.308305,39.9734,0.137626,
2,0,0,1,0,3625.52,0.136435,0.136109,-3.38982,3,0.0144928,11,-0.000461385,-2.46982,-0.227012,-0.259898,34.2518,0.136109,
2,0,0,1,0,3625.6,0.134936,0.134633,-3.43214,3,0.0142366,11,-0.000462078,-2.46444,-0.316946,-0.186152,24.8241,0.134633,
2,0,0,1,0,3625.67,0.133438,0.1331,-3.46361,3,0.0139776,11,-0.000461008,-2.46047,-0.48275,-0.122217,16.4829,0.1331003,
2,0,0,1,0,3625.75,0.13194,0.131618,-3.48383,3,0.0137169,11,-0.000458534,-2.45794,-0.823029,-0.0716864,9.73428,0.131618,
2,0,0,1,0,3625.82,0.130442,0.13014,-3.49505,3,0.0134549,11,-0.000454845,-2.45655,-2.69032,-0.0219305,2.98274,0.13014,
2,0,0,1,0,3625.9,0.128942,0.128641,-3.49393,3,0.0131921,11,-0.000449461,-2.45669,1.10188,0.0535447,-7.26464,0.128641,
2,0,0,1,0,3625.97,0.127446,0.127158,-3.47471,3,0.0129308,11,-0.000441836,-2.45908,0.501803,0.117576,-15.8839,0.127158,
2,0,0,1,0,3626.05,0.125947,0.12564,-3.44074,3,0.0126711,11,-0.000432294,-2.46335,0.342592,0.172217,-23.0826,0.12564,
2,0,0,1,0,3626.12,0.124449,0.12416,-3.40358,3,0.0124142,11,-0.000422587,-2.46806,0.280256,0.210522,-27.8796,0.12416,
2,0,0,1,0,3626.2,0.122951,0.122669,-3.35556,3,0.0121604,11,-0.000411622,-2.47423,0.217193,0.271648,-35.4614,0.122669,
2,0,0,1,0,3626.27,0.121453,0.121177,-3.29547,3,0.0119106,11,-0.000399335,-2.48208,0.178541,0.330455,-42.4006,0.121177,
2,0,0,1,0,3626.35,0.119955,0.119678,-3.21987,3,0.0116659,11,-0.000385347,-2.49216,0.160561,0.367461,-46.2372,0.119678,
2,0,0,1,0,3626.42,0.118456,0.118172,-3.1549,3,0.0114263,11,-0.000372821,-2.50102,0.156818,0.376233,-46.2902,0.1181723,
2,0,0,1,0,3626.5,0.116958,0.116645,-3.08515,3,0.0111921,11,-0.000359867,-2.51072,0.135223,0.436315,-52.4067,0.1166449,
2,0,0,1,0,3626.57,0.11546,0.115087,-3.00249,3,0.0109636,11,-0.000345549,-2.52252,0.123459,0.47789,-55.8666,0.115087,
2,0,0,1,0,3626.65,0.113962,0.113699,-2.91567,3,0.0107413,11,-0.000331509,-2.53526,0.127377,0.46319,-52.7904,0.113699,
2,0,0,1,0,3626.72,0.112462,0.112156,-2.84087,3,0.0105251,11,-0.000318622,-2.54655,0.128951,0.457538,-50.7904,0.112156,
2,0,0,1,0,3626.8,0.110967,0.110681,-2.76616,3,0.0103149,11,-0.000306162,-2.55812,0.132551,0.445112,-48.0181,0.110681,
2,0,0,1,0,3626.87,0.109467,0.10914,-2.69131,3,0.0101096,11,-0.00029373,-2.57004,0.128337,0.459728,-48.3183,0.10914,
2,0,0,1,0,3626.95,0.107969,0.107668,-2.62254,3,0.00990992,11,-0.000282362,-2.58128,0.136583,0.431973,-44.3316,0.107668,
2,0,0,1,0,3627.02,0.106471,0.10623,-2.55879,3,0.00971553,11,-0.000271819,-2.59197,0.151655,0.38904,-38.9831,0.10623,
2,0,0,1,0,3627.1,0.104973,0.104646,-2.50089,3,0.0095254,11,-0.000261709,-2.60191,0.16035,0.367945,-35.9656,0.104646,
2,0,0,1,0,3627.17,0.103474,0.103158,-2.45576,3,0.00933911,11,-0.000253331,-2.60981,0.163711,0.360392,-34.4873,0.103158,
2,0,0,1,0,3627.25,0.101976,0.101661,-2.40341,3,0.00915687,11,-0.000244334,-2.61917,0.167938,0.351319,-32.9693,0.101661,
2,0,0,1,0,3627.32,0.100478,0.10019,-2.35363,3,0.00897847,11,-0.000235811,-2.62826,0.192733,0.306123,-28.1818,0.10019,
2,0,0,1,0,3627.4,0.0989799,0.098677,-2.31731,3,0.00880306,11,-0.000228665,-2.63502,0.224969,0.262259,-23.7032,0.098677,
2,0,0,1,0,3627.47,0.0974817,0.0971801,-2.28011,3,0.00863038,11,-0.000221581,-2.64204,0.235574,0.250452,-22.3179,0.0971801,
2,0,0,1,0,3627.55,0.0959821,0.0956626,-2.24707,3,0.0084601,11,-0.00021496,-2.64838,0.240942,0.244872,-21.4929,0.0956626,
2,0,0,1,0,3627.62,0.0944866,0.0941885,-2.20844,3,0.00829284,11,-0.000208009,-2.65592,0.268005,0.220146,-19.0563,0.0941885,
2,0,0,1,0,3627.7,0.0929871,0.09268,-2.18268,3,0.00812733,11,-0.000202291,-2.66101,0.326796,0.180541,-15.4193,0.09268,
2,0,0,1,0,3627.77,0.0914889,0.091168,-2.16698,3,0.00796378,11,-0.000197559,-2.66414,0.293368,0.201113,-16.9656,0.091168,
2,0,0,1,0,3627.85,0.0899907,0.0897106,-2.14004,3,0.00780198,11,-0.000191984,-2.66958,0.272475,0.216534,-18.0421,0.0897106,
2,0,0,1,0,3627.92,0.0884925,0.0882167,-2.11009,3,0.00764214,11,-0.000186145,-2.6757,0.303793,0.194211,-16.0327,0.0882167,
2,0,0,1,0,3628,0.0869943,0.0866748,-2.09162,3,0.00748433,11,-0.000181291,-2.67952,0.295651,0.199559,-16.3013,0.0866748,
2,0,0,1,0,3628.07,0.0854961,0.0851954,-2.07003,3,0.00732781,11,-0.000176357,-2.68402,0.336289,0.175444,-14.177,0.0851954,
2,0,0,1,0,3628.15,0.083998,0.0836675,-2.05059,3,0.00717291,11,-0.000171567,-2.68812,0.26683,0.221114,-17.6721,0.0836675,
2,0,0,1,0,3628.22,0.0824998,0.0821988,-2.02932,3,0.00701965,11,-0.000166807,-2.69265,0.300624,0.196259,-15.5457,0.0821988,
2,0,0,1,0,3628.3,0.081002,0.0807065,-2.00563,3,0.00686832,11,-0.000161867,-2.69775,0.371229,0.158932,-12.4595,0.08070647,
2,0,0,1,0,3628.37,0.0795025,0.079198,-1.98928,3,0.00671802,11,-0.000157547,-2.7013,0.396277,0.148886,-11.529,0.079198,
2,0,0,1,0,3628.45,0.078007,0.0777302,-1.96873,3,0.00656943,11,-0.00015303,-2.70581,0.3301,0.178734,-13.6997,0.0777302,
2,0,0,1,0,3628.52,0.076507,0.0762168,-1.94391,3,0.00642219,11,-0.000148159,-2.71132,0.283735,0.20794,-15.7618,0.0762168,
2,0,0,1,0,3628.6,0.0750088,0.0747084,-1.91739,3,0.00627716,11,-0.000143245,-2.71729,0.288541,0.204477,-15.3155,0.0747084,
2,0,0,1,0,3628.67,0.0735106,0.0732151,-1.89383,3,0.0061337,11,-0.000138657,-2.72266,0.325023,0.181526,-13.4098,0.0732151,
2,0,0,1,0,3628.75,0.0720124,0.071705,-1.87333,3,0.00599186,11,-0.000134327,-2.72739,0.285005,0.207014,-15.1434,0.071705,
2,0,0,1,0,3628.82,0.0705142,0.0701991,-1.85,3,0.0058518,11,-0.000129868,-2.73283,0.235547,0.250481,-18.0729,0.0701991,
2,0,0,1,0,3628.89,0.0690161,0.0687312,-1.81805,3,0.00571374,11,-0.000124956,-2.7404,0.249226,0.236733,-16.8663,0.0687312,
2,0,0,1,0,3628.97,0.0675179,0.0671833,-1.8011,3,0.00557762,11,-0.000121004,-2.74446,0.27216,0.216784,-15.2218,0.0671833,
2,0,0,1,0,3629.04,0.0660179,0.0657011,-1.78348,3,0.00544293,11,-0.000117176,-2.74873,0.267867,0.220259,-15.2471,0.0657011,
2,0,0,1,0,3629.12,0.0645224,0.0642492,-1.74921,3,0.00531043,11,-0.000112385,-2.75716,0.222155,0.26558,-18.0944,0.0642492,
2,0,0,1,0,3629.19,0.0630229,0.0627553,-1.71855,3,0.00517952,11,-0.000107848,-2.76484,0.238698,0.247174,-16.634,0.0627553,
2,0,0,1,0,3629.27,0.0615251,0.0612544,-1.6968,3,0.00505098,11,-0.000103937,-2.77037,0.245306,0.240516,-15.9832,0.0612544,
2,0,0,1,0,3629.34,0.0600269,0.0597045,-1.67369,3,0.00492405,11,-9.99269e-05,-2.77633,0.249696,0.236288,-15.451,0.0597045,
2,0,0,1,0,3629.42,0.0585287,0.0582175,-1.65096,3,0.00479876,11,-9.61147e-05,-2.78226,0.222704,0.264926,-17.0603,0.0582175,
2,0,0,1,0,3629.49,0.0570305,0.0567194,-1.63061,3,0.00467521,11,-9.24872e-05,-2.78765,0.246819,0.239041,-15.2138,0.0567194,
2,0,0,1,0,3629.57,0.0555323,0.0552388,-1.60624,3,0.00455359,11,-8.87269e-05,-2.79419,0.270202,0.218355,-13.7302,0.0552388,
2,0,0,1,0,3629.64,0.0540342,0.0537351,-1.58918,3,0.00443344,11,-8.53946e-05,-2.79883,0.294905,0.200065,-12.4019,0.05373507,
2,0,0,1,0,3629.72,0.052536,0.052239,-1.57007,3,0.00431442,11,-8.20189e-05,-2.80408,0.306053,0.192777,-11.8045,0.052239,
2,0,0,1,0,3629.79,0.0510378,0.0507033,-1.55332,3,0.00419694,11,-7.87585e-05,-2.80874,0.272528,0.216492,-13.1271,0.0507033,
2,0,0,1,0,3629.87,0.0495382,0.0492612,-1.53037,3,0.00408084,11,-7.53878e-05,-2.8152,0.342734,0.172145,-10.3119,0.0492612,
2,0,0,1,0,3629.94,0.0480427,0.0477435,-1.51615,3,0.00396621,11,-7.23864e-05,-2.81926,0.475223,0.124152,-7.35318,0.0477435,
2,0,0,1,0,3630.02,0.0465432,0.0462351,-1.50312,3,0.00385231,11,-6.94971e-05,-2.82301,0.404447,0.145878,-8.57355,0.0462351,
2,0,0,1,0,3630.09,0.045045,0.0447514,-1.49093,3,0.0037395,11,-6.67212e-05,-2.82654,0.422089,0.139781,-8.13493,0.0447514,
2,0,0,1,0,3630.17,0.0435468,0.0432347,-1.47248,3,0.00362774,11,-6.36621e-05,-2.83195,0.424148,0.139103,-8.03296,0.0432347,
2,0,0,1,0,3630.24,0.0420486,0.0417666,-1.46895,3,0.00351696,11,-6.13529e-05,-2.83299,0.525381,0.112299,-6.44659,0.0417666,
2,0,0,1,0,3630.32,0.0405504,0.0402285,-1.4643,3,0.00340671,11,-5.89065e-05,-2.83437,0.591316,0.0997775,-5.67468,0.0402285,
2,0,0,1,0,3630.39,0.0390523,0.0387668,-1.45257,3,0.00329691,11,-5.63113e-05,-2.83786,0.454179,0.129905,-7.34329,0.0387668,
2,0,0,1,0,3630.47,0.0375541,0.0372184,-1.44257,3,0.00318794,11,-5.36902e-05,-2.84086,0.572956,0.102975,-5.80931,0.0372184,
2,0,0,1,0,3630.54,0.0360559,0.035732,-1.43392,3,0.00307981,11,-5.12368e-05,-2.84347,0.795893,0.0741306,-4.16677,0.035732,
2,0,0,1,0,3630.62,0.0345577,0.0342393,-1.433,3,0.00297184,11,-4.9065e-05,-2.84375,1.21006,0.0487578,-2.72377,0.0342393,
2,0,0,1,0,3630.69,0.0330582,0.0327337,-1.42793,3,0.00286401,11,-4.67413e-05,-2.84529,0.857092,0.0688374,-3.83206,0.0327337,
2,0,0,1,0,3630.77,0.0315626,0.0312583,-1.42446,3,0.00275681,11,-4.45261e-05,-2.84635,1.85254,0.0318481,-1.7689,0.0312583,
2,0,0,1,0,3630.84,0.0300631,0.0297554,-1.42067,3,0.00264982,11,-4.22726e-05,-2.84751,2.50535,0.0235496,-1.30641,0.0297554,
2,0,0,1,0,3630.92,0.0285649,0.0282198,-1.41919,3,0.00254291,11,-4.00492e-05,-2.84796,11.6955,0.00504467,-0.278411,0.0282198,
2,0,0,1,0,3630.99,0.0270667,0.0267296,-1.41606,3,0.00243599,11,-3.78507e-05,-2.84892,3.63346,0.016238,-0.898264,0.0267296,
2,0,0,1,0,3631.07,0.0255685,0.0252368,-1.41511,3,0.00232931,11,-3.57129e-05,-2.84921,2.247,0.0262572,-1.45433,0.0252368,
2,0,0,1,0,3631.14,0.0240704,0.0237684,-1.41035,3,0.00222285,11,-3.35217e-05,-2.85067,26.8355,0.00219858,-0.12173,0.02376841,
2,0,0,1,0,3631.22,0.0225722,0.0222663,-1.41611,3,0.00211629,11,-3.15314e-05,-2.8489,-1.44917,-0.0407131,2.24871,0.0222663,
2,0,0,1,0,3631.29,0.021074,0.0207995,-1.41727,3,0.00200952,11,-2.94784e-05,-2.84855,-2.31272,-0.025511,1.41233,0.0207995,
2,0,0,1,0,3631.37,0.0195758,0.0192899,-1.42277,3,0.0019026,11,-2.74451e-05,-2.84686,-7.47874,-0.00788903,0.436293,0.0192899,
2,0,0,1,0,3631.44,0.018078,0.0177616,-1.41618,3,0.00179569,11,-2.51537e-05,-2.84888,-2.43384,-0.0242415,1.34492,0.0177616,
2,0,0,1,0,3631.52,0.0165785,0.0162291,-1.42352,3,0.00168864,11,-2.31024e-05,-2.84664,-0.917425,-0.0643104,3.57715,0.0162291,
2,0,0,1,0,3631.59,0.015083,0.0147637,-1.42886,3,0.00158136,11,-2.10953e-05,-2.84501,-1.20586,-0.0489279,2.72294,0.0147637,
2,0,0,1,0,3631.67,0.013583,0.0132608,-1.43035,3,0.00147335,11,-1.89676e-05,-2.84456,-4.02059,-0.0146745,0.818867,0.0132608,
2,0,0,1,0,3631.74,0.0120848,0.011746,-1.43268,3,0.0013655,11,-1.68282e-05,-2.84385,-1.73815,-0.0339442,1.90602,0.011746,
2,0,0,1,0,3631.82,0.0105866,0.0102809,-1.43672,3,0.00125757,11,-1.47708e-05,-2.84263,-1.24675,-0.047323,2.65903,0.0102809,
2,0,0,1,0,3631.89,0.00908846,0.00877527,-1.44346,3,0.00114899,11,-1.26668e-05,-2.8406,-0.851303,-0.0693055,3.90147,0.00877527,
2,0,0,1,0,3631.97,0.00759027,0.00730125,-1.45005,3,0.00104005,11,-1.05872e-05,-2.83862,-1.25323,-0.0470782,2.6601,0.00730125,
2,0,0,1,0,3632.04,0.00609208,0.00577637,-1.45701,3,0.00093074,11,-8.41623e-06,-2.83654,-1.07917,-0.0546716,3.10193,0.00577637,
2,0,0,1,0,3632.12,0.00459389,0.00427907,-1.45816,3,0.000821241,11,-6.23957e-06,-2.83619,-0.816626,-0.0722485,4.11567,0.00427907,
2,0,0,1,0,3632.19,0.00309391,0.0027831,-1.46916,3,0.000710944,11,-4.08882e-06,-2.83293,-0.420292,-0.140379,8.04161,0.0027831,
2,0,0,1,0,3632.27,0.0015984,0.00123984,-1.49805,3,0.000598804,11,-1.85734e-06,-2.82447, , , ,0.00123984,
2,0,0,1,0,3632.34,0.000199195,-0.000131526,-1.48338,3,0.000494277,11,1.95103e-07,-2.82875, , , ,-0.000131526,