File: Figure_codes/Fig_3-5/rawdata_trumpetplot_data/before 10th/20221101_1-115_002_TrumpetPlot_ParaChange_14_CV_C01_6.csv
mode,ox/red,error,control changes,counter inc.,time/s,control/V,Ewe/V,<I>/mA,cycle number,(Q-Qo)/C,I Range,P/W,log(|I|),Tafel slope mV/dec,alpha_eff,dI/d(E-IR),E-IR/V,
2,1,0,1,0,8606.06,2.44065e-05,-0.000649808,25.2045,7,0.0000000E+000,10,-1.63781e-05,-1.59852, , , ,-0.000649808,
2,1,0,1,0,8606.07,0.00188327,0.00152827,23.4666,7,7.44759e-05,10,3.58632e-05,-1.62955, , , ,0.00152827,
2,1,0,1,0,8606.07,0.00428592,0.00397462,23.3749,7,0.000167958,10,9.29065e-05,-1.63125, , , ,0.00397462,
2,1,0,1,0,8606.07,0.0066858,0.00638069,23.6634,7,0.000262023,10,0.000150989,-1.62592,0.500029,0.117993,110.485,0.00638069,
2,1,0,1,0,8606.08,0.00908291,0.00872206,24.0828,7,0.000357534,10,0.000210052,-1.61829,0.334222,0.176529,166.478,0.008722065,
2,1,0,1,0,8606.08,0.01148,0.011126,24.527,7,0.000454808,10,0.000272888,-1.61036,0.312616,0.18873,180.601,0.011126,
2,1,0,1,0,8606.09,0.0138882,0.013566,24.9717,7,0.00055384,10,0.000338766,-1.60255,0.328605,0.179547,174.583,0.013566,
2,1,0,1,0,8606.09,0.0162853,0.0159763,25.3964,7,0.000654623,10,0.00040574,-1.59523,0.352456,0.167397,165.392,0.0159763,
2,1,0,1,0,8606.09,0.0186824,0.0183633,25.766,7,0.000756994,10,0.000473148,-1.58895,0.381175,0.154784,155.297,0.01836328,
2,1,0,1,0,8606.1,0.0210878,0.0207736,26.1226,7,0.000860791,10,0.000542661,-1.58298,0.421966,0.139822,142.275,0.0207736,
2,1,0,1,0,8606.1,0.023485,0.0231447,26.4592,7,0.00096601,10,0.000612389,-1.57742,0.454795,0.129729,133.672,0.0231447,
2,1,0,1,0,8606.11,0.0258821,0.0255709,26.7614,7,0.0010725,10,0.000684313,-1.57249,0.49063,0.120254,125.398,0.0255709,
2,1,0,1,0,8606.11,0.0282792,0.02796,27.0488,7,0.00118017,10,0.000756283,-1.56785,0.541837,0.108889,114.763,0.02796,
2,1,0,1,0,8606.11,0.0306874,0.030365,27.3254,7,0.00128898,10,0.000829734,-1.56343,0.577702,0.102129,108.732,0.03036496,
2,1,0,1,0,8606.12,0.0330845,0.032735,27.5598,7,0.00139876,10,0.00090217,-1.55972,0.599929,0.098345,105.749,0.032735,
2,1,0,1,0,8606.12,0.0354816,0.0351697,27.8051,7,0.00150952,10,0.000977897,-1.55588,0.642918,0.0917691,99.5649,0.0351697,
2,1,0,1,0,8606.13,0.0378898,0.0375471,28.0626,7,0.00162127,10,0.00105367,-1.55187,0.657256,0.0897671,98.2001,0.0375471,
2,1,0,1,0,8606.13,0.0402869,0.0399553,28.2802,7,0.00173398,10,0.00112994,-1.54852,0.683023,0.0863807,95.2649,0.0399553,
2,1,0,1,0,8606.13,0.042684,0.0423751,28.5065,7,0.0018476,10,0.00120797,-1.54506,0.692924,0.0851465,94.7557,0.0423751,
2,1,0,1,0,8606.14,0.0450811,0.0447441,28.7172,7,0.00196207,10,0.00128493,-1.54186,0.677234,0.0871191,97.7365,0.0447441,
2,1,0,1,0,8606.14,0.0474865,0.0471491,28.9725,7,0.00207749,10,0.00136602,-1.53801,0.671246,0.0878963,99.4091,0.0471491,
2,1,0,1,0,8606.15,0.0498836,0.0495414,29.2172,7,0.00219389,10,0.00144746,-1.53436,0.630562,0.0935673,106.73,0.0495414,
2,1,0,1,0,8606.15,0.0522807,0.0519453,29.4579,7,0.00231126,10,0.0015302,-1.5308,0.639011,0.0923302,106.23,0.0519453,
2,1,0,1,0,8606.15,0.0546889,0.0543726,29.7449,7,0.00242967,10,0.00161731,-1.52659,0.618604,0.095376,110.727,0.05437256,
2,1,0,1,0,8606.16,0.057086,0.0567744,29.9949,7,0.00254917,10,0.00170294,-1.52295,0.583913,0.101042,118.399,0.0567744,
2,1,0,1,0,8606.16,0.0594831,0.0591794,30.2843,7,0.00266974,10,0.00179221,-1.51878,0.571687,0.103203,122.161,0.0591794,
2,1,0,1,0,8606.17,0.061883,0.0615823,30.5989,7,0.00279155,10,0.00188435,-1.51429,0.534123,0.110461,132.018,0.0615823,
2,1,0,1,0,8606.17,0.0642857,0.0640159,30.9229,7,0.00291464,10,0.00197956,-1.50972,0.51077,0.115512,139.498,0.0640159,
2,1,0,1,0,8606.17,0.0666828,0.0663668,31.2613,7,0.00303906,10,0.00207471,-1.50499,0.490716,0.120232,146.838,0.0663668,
2,1,0,1,0,8606.18,0.0690799,0.0687061,31.6133,7,0.00316484,10,0.00217203,-1.50013,0.470637,0.125362,154.871,0.0687061,
2,1,0,1,0,8606.18,0.0714881,0.0711143,31.9985,7,0.00329209,10,0.00227555,-1.49487,0.451845,0.130576,163.254,0.0711143,
2,1,0,1,0,8606.19,0.0738852,0.0735415,32.3982,7,0.00342092,10,0.00238261,-1.48948,0.436818,0.135068,170.948,0.0735415,
2,1,0,1,0,8606.19,0.0762823,0.0759349,32.8233,7,0.00355141,10,0.00249244,-1.48382,0.420884,0.140181,179.763,0.0759349,
2,1,0,1,0,8606.19,0.0786849,0.0783441,33.2609,7,0.00368361,10,0.0026058,-1.47807,0.410096,0.143869,186.89,0.0783441,
2,1,0,1,0,8606.2,0.0810876,0.0807671,33.7338,7,0.00381766,10,0.00272458,-1.47194,0.401255,0.147039,193.644,0.0807671,
2,1,0,1,0,8606.2,0.0834847,0.0831234,34.1889,7,0.00395354,10,0.0028419,-1.46611,0.390043,0.151265,202.019,0.0831234,
2,1,0,1,0,8606.21,0.0858818,0.0855421,34.6837,7,0.00409132,10,0.00296692,-1.45987,0.392363,0.150371,203.61,0.08554215,
2,1,0,1,0,8606.21,0.0882872,0.0879365,35.1987,7,0.00423113,10,0.00309526,-1.45347,0.390866,0.150947,207.184,0.0879365,
2,1,0,1,0,8606.21,0.0906843,0.0903013,35.675,7,0.00437292,10,0.0032215,-1.44764,0.390264,0.15118,210.509,0.09030126,
2,1,0,1,0,8606.22,0.0930814,0.0926808,36.169,7,0.00451666,10,0.00335218,-1.44166,0.383112,0.154002,217.794,0.0926808,
2,1,0,1,0,8606.22,0.0954841,0.0950879,36.6932,7,0.0046624,10,0.00348908,-1.43541,0.369902,0.159502,228.866,0.0950879,
2,1,0,1,0,8606.23,0.0978867,0.0975672,37.2962,7,0.00481045,10,0.00363889,-1.42833,0.364005,0.162086,235.897,0.0975672,
2,1,0,1,0,8606.23,0.100284,0.0999361,37.8801,7,0.00496085,10,0.00378559,-1.42159,0.358637,0.164512,243.013,0.0999361,
2,1,0,1,0,8606.23,0.102681,0.102298,38.4376,7,0.00511354,10,0.00393208,-1.41524,0.368174,0.16025,240.399,0.102298,
2,1,0,1,0,8606.24,0.105086,0.10471,39.0315,7,0.00526855,10,0.00408699,-1.40858,0.373466,0.15798,240.602,0.10471,
2,1,0,1,0,8606.24,0.107483,0.107168,39.6043,7,0.00542588,10,0.00424432,-1.40226,0.370634,0.159187,246.058,0.107168,
2,1,0,1,0,8606.25,0.109881,0.109541,40.1911,7,0.00558553,10,0.00440258,-1.39587,0.382668,0.154181,241.796,0.109541,
2,1,0,1,0,8606.25,0.112289,0.111894,40.799,7,0.00574756,10,0.00456517,-1.38935,0.381807,0.154528,245.866,0.111894,
2,1,0,1,0,8606.25,0.114686,0.114337,41.3594,7,0.00591193,10,0.00472893,-1.38343,0.386894,0.152497,246.177,0.114337,
2,1,0,1,0,8606.26,0.117083,0.116732,41.9557,7,0.00607861,10,0.00489757,-1.37721,0.39059,0.151054,247.5,0.116732,
2,1,0,1,0,8606.26,0.11948,0.119162,42.5596,7,0.00624771,10,0.0050715,-1.371,0.38366,0.153782,255.522,0.119162,
2,1,0,1,0,8606.27,0.121888,0.121559,43.1909,7,0.0064193,10,0.00525024,-1.36461,0.385164,0.153181,258.158,0.121559,
2,1,0,1,0,8606.27,0.124285,0.123948,43.8151,7,0.00659337,10,0.00543079,-1.35838,0.380065,0.155236,265.457,0.123948,
2,1,0,1,0,8606.27,0.126682,0.126334,44.4345,7,0.00676995,10,0.00561359,-1.35228,0.382325,0.154319,267.767,0.126334,
2,1,0,1,0,8606.28,0.129088,0.128724,45.0978,7,0.00694906,10,0.00580517,-1.34584,0.379059,0.155648,274.071,0.128724,
2,1,0,1,0,8606.28,0.131485,0.131133,45.7547,7,0.00713083,10,0.00599996,-1.33956,0.372564,0.158362,282.959,0.131133,
2,1,0,1,0,8606.29,0.133882,0.133553,46.4476,7,0.00731531,10,0.00620322,-1.33304,0.369699,0.159589,289.487,0.133553,
2,1,0,1,0,8606.29,0.136279,0.135963,47.1593,7,0.0075026,10,0.00641194,-1.32643,0.364718,0.161769,297.836,0.135963,
2,1,0,1,0,8606.29,0.138687,0.138367,47.8894,7,0.00769278,10,0.00662633,-1.31976,0.357865,0.164867,308.272,0.138367,
2,1,0,1,0,8606.3,0.141085,0.140774,48.6262,7,0.00788588,10,0.00684532,-1.31313,0.349795,0.16867,320.418,0.140774,
2,1,0,1,0,8606.3,0.143482,0.143148,49.4053,7,0.008082,10,0.00707225,-1.30623,0.345876,0.170582,329.144,0.143148,
2,1,0,1,0,8606.31,0.145887,0.145531,50.2251,7,0.00828133,10,0.00730933,-1.29908,0.344163,0.17143,335.987,0.145531,
2,1,0,1,0,8606.31,0.148284,0.147898,51.0265,7,0.00848391,10,0.00754673,-1.2922,0.341217,0.172911,344.355,0.147898,
2,1,0,1,0,8606.31,0.150681,0.150361,51.847,7,0.00868975,10,0.00779574,-1.28528,0.347488,0.16979,343.717,0.150361,
2,1,0,1,0,8606.32,0.153084,0.152683,52.6888,7,0.00889891,10,0.00804467,-1.27828,0.343524,0.171749,353.304,0.152683,
2,1,0,1,0,8606.32,0.155487,0.155212,53.5524,7,0.00911147,10,0.00831197,-1.27122,0.341629,0.172702,360.931,0.155212,
2,1,0,1,0,8606.33,0.157884,0.15753,54.4294,7,0.00932754,10,0.00857426,-1.26417,0.348787,0.169158,359.156,0.15753,
2,1,0,1,0,8606.33,0.160281,0.159902,55.2908,7,0.00954706,10,0.00884111,-1.25735,0.351012,0.168085,362.489,0.159902,
2,1,0,1,0,8606.33,0.162689,0.162335,56.1553,7,0.00977003,10,0.00911595,-1.25061,0.365158,0.161574,353.84,0.162335,
2,1,0,1,0,8606.34,0.165086,0.164726,57.0011,7,0.00999644,10,0.00938956,-1.24412,0.372086,0.158565,352.582,0.164726,
2,1,0,1,0,8606.34,0.167483,0.16715,57.8333,7,0.0102262,10,0.00966684,-1.23782,0.38196,0.154466,348.512,0.16715,
2,1,0,1,0,8606.35,0.169886,0.169555,58.6942,7,0.0104593,10,0.0099519,-1.2314,0.396016,0.148984,340.863,0.169555,
2,1,0,1,0,8606.35,0.172286,0.171937,59.5017,7,0.0106958,10,0.0102305,-1.22547,0.410948,0.14357,332.923,0.171937,
2,1,0,1,0,8606.35,0.174683,0.17434,60.278,7,0.0109355,10,0.0105088,-1.21984,0.434344,0.135837,319.197,0.17434,
2,1,0,1,0,8606.36,0.17708,0.176754,61.0308,7,0.0111782,10,0.0107874,-1.21445,0.461225,0.12792,304.303,0.176754,
2,1,0,1,0,8606.36,0.179488,0.179141,61.7541,7,0.0114238,10,0.0110627,-1.20933,0.492857,0.11971,288.018,0.179141,
2,1,0,1,0,8606.37,0.181885,0.18156,62.4301,7,0.0116723,10,0.0113348,-1.20461,0.543838,0.108488,263.72,0.18156,
2,1,0,1,0,8606.37,0.184282,0.18393,63.0402,7,0.0119233,10,0.011595,-1.20038,0.621199,0.0949776,233.035,0.18393,
2,1,0,1,0,8606.37,0.186688,0.186345,63.5602,7,0.0121765,10,0.0118442,-1.19681,0.741854,0.0795304,196.697,0.186345,
2,1,0,1,0,8606.38,0.189085,0.188767,63.9974,7,0.0124317,10,0.0120806,-1.19384,0.945616,0.0623932,155.318,0.188767,
2,1,0,1,0,8606.38,0.191482,0.191189,64.3242,7,0.0126884,10,0.0122981,-1.19163,1.33909,0.0440597,110.198,0.191189,
2,1,0,1,0,8606.39,0.193879,0.193565,64.5367,7,0.0129462,10,0.012492,-1.19019,2.99869,0.0196753,49.3222,0.1935647,
2,1,0,1,0,8606.39,0.196287,0.195932,64.6166,7,0.0132046,10,0.0126604,-1.18966,-8.31605,-0.00709472,-17.7868,0.195932,
2,1,0,1,0,8606.39,0.198684,0.198332,64.4691,7,0.0134628,10,0.0127863,-1.19065,-1.56848,-0.0376161,-94.0781,0.198332,
2,1,0,1,0,8606.4,0.201081,0.200767,64.1538,7,0.01372,10,0.01288,-1.19278,-0.819976,-0.0719533,-179.004,0.200767,
2,1,0,1,0,8606.4,0.20349,0.20316,63.634,7,0.0139756,10,0.0129279,-1.19631,-0.547109,-0.10784,-265.883,0.20316,
2,1,0,1,0,8606.41,0.205887,0.205623,62.8818,7,0.0142286,10,0.0129299,-1.20147,-0.394161,-0.149685,-364.43,0.2056226,
2,1,0,1,0,8606.41,0.208284,0.207997,61.8995,7,0.0144781,10,0.0128749,-1.20831,-0.305865,-0.192895,-462.142,0.207997,
2,1,0,1,0,8606.41,0.210681,0.21039,60.6468,7,0.0147232,10,0.0127595,-1.21719,-0.247981,-0.237921,-558.654,0.21039,
2,1,0,1,0,8606.42,0.213086,0.21276,59.1975,7,0.0149628,10,0.0125949,-1.2277,-0.208149,-0.28345,-649.709,0.21276,
2,1,0,1,0,8606.42,0.215484,0.215205,57.5283,7,0.0151961,10,0.0123804,-1.24012,-0.182251,-0.323729,-721.402,0.215205,
2,1,0,1,0,8606.43,0.217881,0.217577,55.6754,7,0.0154224,10,0.0121137,-1.25434,-0.160605,-0.36736,-792.7,0.217577,
2,1,0,1,0,8606.43,0.220289,0.220029,53.6932,7,0.0156409,10,0.0118141,-1.27008,-0.144604,-0.40801,-849.368,0.220029,
2,1,0,1,0,8606.43,0.222686,0.222395,51.5599,7,0.0158513,10,0.0114667,-1.28769,-0.133165,-0.443059,-886.92,0.222395,
2,1,0,1,0,8606.44,0.225083,0.22482,49.3619,7,0.0160529,10,0.0110976,-1.30661,-0.123762,-0.476723,-915.219,0.22482,
2,1,0,1,0,8606.44,0.227483,0.227192,47.147,7,0.0162457,10,0.0107114,-1.32655,-0.118973,-0.495912,-910.604,0.227192,
2,1,0,1,0,8606.45,0.229886,0.229582,44.9499,7,0.0164297,10,0.0103197,-1.34727,-0.115131,-0.512458,-898.206,0.229582,
2,1,0,1,0,8606.45,0.232283,0.232002,42.8115,7,0.016605,10,0.00993236,-1.36844,-0.113587,-0.519427,-868.318,0.232002,
2,1,0,1,0,8606.45,0.23468,0.234423,40.7364,7,0.0167718,10,0.00954956,-1.39002,-0.113945,-0.517793,-825.213,0.234423,
2,1,0,1,0,8606.46,0.237088,0.236813,38.7929,7,0.0169307,10,0.00918667,-1.41125,-0.114605,-0.514811,-782.369,0.2368134,
2,1,0,1,0,8606.46,0.239485,0.239239,36.9816,7,0.017082,10,0.00884742,-1.43201,-0.118282,-0.498808,-723.415,0.239239,
2,1,0,1,0,8606.47,0.241882,0.241591,35.31,7,0.0172264,10,0.00853056,-1.4521,-0.124225,-0.474944,-658.38,0.241591,
2,1,0,1,0,8606.47,0.244285,0.244009,33.8017,7,0.0173644,10,0.00824792,-1.47106,-0.12904,-0.457224,-606.696,0.2440093,
2,1,0,1,0,8606.47,0.246688,0.246468,32.4362,7,0.0174967,10,0.0079945,-1.48897,-0.137945,-0.427707,-544.691,0.246468,
2,1,0,1,0,8606.48,0.249085,0.248796,31.1831,7,0.0176237,10,0.00775824,-1.50608,-0.149322,-0.395119,-484.513,0.248796,
2,1,0,1,0,8606.48,0.251482,0.251169,30.0926,7,0.0177462,10,0.00755833,-1.52154,-0.160435,-0.367751,-435.177,0.251169,
2,1,0,1,0,8606.49,0.253887,0.253602,29.154,7,0.0178645,10,0.00739351,-1.5353,-0.177533,-0.332333,-380.285,0.253602,
2,1,0,1,0,8606.49,0.256284,0.255972,28.3006,7,0.0179793,10,0.00724414,-1.54821,-0.196285,-0.300583,-333.775,0.255972,
2,1,0,1,0,8606.49,0.258681,0.258393,27.5336,7,0.0180909,10,0.00711449,-1.56014,-0.213245,-0.276677,-299.066,0.258393,
2,1,0,1,0,8606.5,0.261084,0.260812,26.8739,7,0.0181996,10,0.00700904,-1.57067,-0.238831,-0.247037,-260.552,0.260812,
2,1,0,1,0,8606.5,0.263487,0.263181,26.289,7,0.0183058,10,0.00691879,-1.58023,-0.263673,-0.223762,-230.668,0.263181,
2,1,0,1,0,8606.51,0.265884,0.265612,25.7888,7,0.0184099,10,0.00684981,-1.58857,-0.293251,-0.201193,-203.285,0.265612,
2,1,0,1,0,8606.51,0.268281,0.267965,25.3256,7,0.0185121,10,0.00678638,-1.59644,-0.327325,-0.180249,-178.82,0.267965,
2,1,0,1,0,8606.51,0.270686,0.270374,24.9301,7,0.0186125,10,0.00674046,-1.60328,-0.355324,-0.166046,-162.041,0.270374,
2,1,0,1,0,8606.52,0.273083,0.27279,24.5709,7,0.0187115,10,0.00670268,-1.60958,-0.403269,-0.146304,-140.697,0.27279,
2,1,0,1,0,8606.52,0.27548,0.275183,24.2379,7,0.0188091,10,0.00666985,-1.61551,-0.435865,-0.135363,-128.43,0.275183,
2,1,0,1,0,8606.53,0.277889,0.277605,23.9693,7,0.0189054,10,0.006654,-1.62034,-0.472786,-0.124792,-116.922,0.277605,
2,1,0,1,0,8606.53,0.280286,0.279937,23.702,7,0.0190007,10,0.00663506,-1.62522,-0.5246,-0.112467,-104.169,0.279937,
2,1,0,1,0,8606.53,0.282683,0.282354,23.4527,7,0.019095,10,0.00662194,-1.62981,-0.555969,-0.106121,-97.3246,0.282354,
2,1,0,1,0,8606.54,0.28508,0.284812,23.2349,7,0.0191884,10,0.00661756,-1.63386,-0.608049,-0.0970317,-88.1425,0.284812,
2,1,0,1,0,8606.54,0.287488,0.287197,23.0358,7,0.0192809,10,0.0066158,-1.6376,-0.66454,-0.0887832,-79.9265,0.287197,
2,1,0,1,0,8606.55,0.289885,0.289544,22.8552,7,0.0193727,10,0.00661758,-1.64102,-0.719705,-0.081978,-73.2054,0.289544,
2,1,0,1,0,8606.55,0.292282,0.291944,22.6861,7,0.0194637,10,0.00662308,-1.64424,-0.757603,-0.0778772,-69.0019,0.291944,
2,1,0,1,0,8606.55,0.294688,0.29442,22.5315,7,0.0195541,10,0.00663372,-1.64721,-0.793913,-0.0743154,-65.3777,0.29442,
2,1,0,1,0,8606.56,0.297085,0.29679,22.3738,7,0.0196439,10,0.00664033,-1.65026,-0.798571,-0.073882,-64.6825,0.29679,
2,1,0,1,0,8606.56,0.299363,0.299089,22.2311,7,0.0197287,10,0.00664909,-1.65304,-0.0894661,-0.659468,-546.325,0.299089,
2,1,0,1,0,8606.56,0.300012,0.299746,22.1814,7,0.0197531,10,0.00664881,-1.65401,0.000223011,264.56,183310,0.299746,
2,1,0,1,0,8606.56,0.299243,0.299101,19.9743,7,0.0197796,10,0.00597434,-1.69953,0.0123783,4.76641,2730.95,0.299101,
2,1,0,1,0,8606.57,0.296846,0.296743,13.8187,7,0.0198461,10,0.00410062,-1.85953,0.0126934,4.64807,2139.46,0.2967433,
2,1,0,1,0,8606.57,0.294449,0.29427,9.07127,7,0.0198911,10,0.00266941,-2.04233,0.0102482,5.75712,1829.54,0.29427,
2,1,0,1,0,8606.58,0.292041,0.291857,5.30207,7,0.0199192,10,0.00154745,-2.27555,0.00511504,11.5346,1435.16,0.291857,
2,1,0,1,0,8606.58,0.289644,0.289424,2.27134,7,0.0199339,10,0.000657382,-2.64372,0.0156636,3.76669,1160.13,0.289424,
2,1,0,1,0,8606.58,0.287247,0.286995,-0.171654,7,0.0199378,10,-4.92639e-05,-3.76535,0.0697714,0.845619,941.309,0.286995,
2,0,0,1,0,8606.59,0.284841,0.284572,-2.18021,7,0.0199328,10,-0.000620426,-2.6615,-0.0268143,-2.20032,773.976,0.284572,
2,0,0,1,0,8606.59,0.282444,0.282137,-3.84714,7,0.0199205,10,-0.00108542,-2.41486,-0.00612646,-9.63035,644.313,0.282137,
2,0,0,1,0,8606.6,0.280047,0.279761,-5.20797,7,0.0199021,10,-0.00145699,-2.28333,-0.0181824,-3.24489,538.38,0.2797609,
2,0,0,1,0,8606.6,0.27765,0.277381,-6.36586,7,0.0198788,10,-0.00176577,-2.19614,-0.0292673,-2.0159,451.308,0.277381,
2,0,0,1,0,8606.6,0.275242,0.274984,-7.34231,7,0.0198512,10,-0.00201902,-2.13417,-0.0412827,-1.42917,383.956,0.274984,
2,0,0,1,0,8606.61,0.272845,0.272578,-8.16145,7,0.0198201,10,-0.00222463,-2.08823,-0.0549741,-1.07323,328.294,0.2725777,
2,0,0,1,0,8606.61,0.270448,0.270182,-8.88575,7,0.0197859,10,-0.00240077,-2.05131,-0.0703613,-0.838529,282.32,0.270182,
2,0,0,1,0,8606.62,0.26804,0.26777,-9.52125,7,0.019749,10,-0.0025495,-2.02131,-0.087256,-0.676171,245.216,0.26777,
2,0,0,1,0,8606.62,0.265642,0.265381,-10.0534,7,0.0197098,10,-0.00266799,-1.99769,-0.105975,-0.556733,214.689,0.265381,
2,0,0,1,0,8606.62,0.263245,0.262946,-10.5233,7,0.0196686,10,-0.00276706,-1.97785,-0.126232,-0.467393,189.803,0.262946,
2,0,0,1,0,8606.63,0.260843,0.260577,-10.9479,7,0.0196256,10,-0.00285276,-1.96067,-0.147429,-0.400193,169.503,0.260577,
2,0,0,1,0,8606.63,0.258443,0.258174,-11.3425,7,0.019581,10,-0.00292835,-1.94529,-0.167062,-0.353162,155.051,0.258174,
2,0,0,1,0,8606.64,0.256046,0.255705,-11.6936,7,0.0195348,10,-0.0029901,-1.93205,-0.190008,-0.310514,140.742,0.255705,
2,0,0,1,0,8606.64,0.253649,0.253366,-12.0086,7,0.0194874,10,-0.00304258,-1.92051,-0.213759,-0.276012,128.731,0.253366,
2,0,0,1,0,8606.64,0.25124,0.250924,-12.3064,7,0.0194387,10,-0.00308798,-1.90987,-0.234723,-0.25136,120.25,0.250924,
2,0,0,1,0,8606.65,0.248843,0.248561,-12.5801,7,0.0193889,10,-0.00312692,-1.90032,-0.253525,-0.232718,113.972,0.248561,
2,0,0,1,0,8606.65,0.246446,0.246165,-12.8407,7,0.0193381,10,-0.00316093,-1.89141,-0.275025,-0.214526,107.275,0.246165,
2,0,0,1,0,8606.66,0.244041,0.243746,-13.105,7,0.0192862,10,-0.00319431,-1.88256,-0.299847,-0.196767,100.267,0.243746,
2,0,0,1,0,8606.66,0.241644,0.241351,-13.3334,7,0.0192333,10,-0.00321803,-1.87506,-0.319515,-0.184655,95.8183,0.241351,
2,0,0,1,0,8606.66,0.239247,0.238929,-13.5458,7,0.0191795,10,-0.00323649,-1.86819,-0.338993,-0.174045,91.9781,0.238929,
2,0,0,1,0,8606.67,0.236849,0.236548,-13.7622,7,0.0191249,10,-0.00325542,-1.86131,-0.351076,-0.168055,90.2532,0.236548,
2,0,0,1,0,8606.67,0.234441,0.234157,-13.987,7,0.0190693,10,-0.00327517,-1.85427,-0.358219,-0.164704,89.8101,0.234157,
2,0,0,1,0,8606.68,0.232044,0.231776,-14.1975,7,0.019013,10,-0.00329065,-1.84779,-0.379829,-0.155333,85.9051,0.231776,
2,0,0,1,0,8606.68,0.229647,0.229341,-14.407,7,0.0189557,10,-0.0033041,-1.84143,-0.394942,-0.149389,83.8751,0.229341,
2,0,0,1,0,8606.68,0.227239,0.226944,-14.5872,7,0.0188978,10,-0.00331048,-1.83603,-0.411854,-0.143255,81.5459,0.226944,
2,0,0,1,0,8606.69,0.224842,0.224546,-14.7932,7,0.018839,10,-0.00332175,-1.82994,-0.42654,-0.138322,79.8177,0.224546,
2,0,0,1,0,8606.69,0.222445,0.222168,-14.9811,7,0.0187794,10,-0.00332831,-1.82446,-0.41054,-0.143713,84.0594,0.222168,
2,0,0,1,0,8606.7,0.220047,0.219767,-15.1711,7,0.0187191,10,-0.00333411,-1.81898,-0.436017,-0.135316,80.1396,0.219767,
2,0,0,1,0,8606.7,0.217642,0.217337,-15.3948,7,0.0186579,10,-0.00334586,-1.81263,-0.435201,-0.13557,81.3186,0.217337,
2,0,0,1,0,8606.7,0.215245,0.214931,-15.5637,7,0.018596,10,-0.00334513,-1.80789,-0.424583,-0.13896,84.4662,0.214931,
2,0,0,1,0,8606.71,0.212848,0.212529,-15.7649,7,0.0185333,10,-0.0033505,-1.80231,-0.44196,-0.133496,82.2341,0.212529,
2,0,0,1,0,8606.71,0.21044,0.210118,-15.9862,7,0.0184698,10,-0.00335897,-1.79626,-0.419691,-0.14058,87.6783,0.210118,
2,0,0,1,0,8606.72,0.208043,0.20779,-16.1799,7,0.0184055,10,-0.00336202,-1.79102,-0.430011,-0.137206,86.6164,0.20779,
2,0,0,1,0,8606.72,0.205645,0.205327,-16.4058,7,0.0183403,10,-0.00336855,-1.785,-0.433001,-0.136258,87.2191,0.205327,
2,0,0,1,0,8606.72,0.203246,0.202961,-16.5936,7,0.0182743,10,-0.00336786,-1.78006,-0.423996,-0.139152,90.2044,0.202961,
2,0,0,1,0,8606.73,0.200843,0.20051,-16.8241,7,0.0182074,10,-0.00337341,-1.77407,-0.426025,-0.138489,90.9988,0.20051,
2,0,0,1,0,8606.73,0.198446,0.198166,-17.048,7,0.0181397,10,-0.00337833,-1.76833,-0.39551,-0.149174,99.3602,0.198166,
2,0,0,1,0,8606.74,0.196049,0.195776,-17.2749,7,0.018071,10,-0.00338201,-1.76258,-0.392225,-0.150424,101.578,0.195776,
2,0,0,1,0,8606.74,0.19364,0.193345,-17.5491,7,0.0180014,10,-0.00339303,-1.75575,-0.389471,-0.151487,103.71,0.1933452,
2,0,0,1,0,8606.74,0.191243,0.190994,-17.7907,7,0.0179306,10,-0.00339793,-1.74981,-0.369026,-0.15988,111.091,0.190994,
2,0,0,1,0,8606.75,0.188846,0.188548,-18.0455,7,0.017859,10,-0.00340244,-1.74363,-0.366918,-0.160799,113.516,0.188548,
2,0,0,1,0,8606.75,0.186444,0.186151,-18.3441,7,0.0177862,10,-0.00341478,-1.7365,-0.348564,-0.169266,121.347,0.1861514,
2,0,0,1,0,8606.76,0.184041,0.183738,-18.6397,7,0.0177121,10,-0.00342481,-1.72956,-0.332784,-0.177292,129.112,0.183738,
2,0,0,1,0,8606.76,0.181644,0.181354,-18.9605,7,0.0176369,10,-0.00343857,-1.72215,-0.321228,-0.18367,136.123,0.181354,
2,0,0,1,0,8606.76,0.179247,0.178922,-19.2884,7,0.0175604,10,-0.0034511,-1.7147,-0.304519,-0.193748,146.183,0.178922,
2,0,0,1,0,8606.77,0.176841,0.176549,-19.6512,7,0.0174825,10,-0.0034694,-1.70661,-0.289588,-0.203738,156.653,0.176549,
2,0,0,1,0,8606.77,0.174444,0.174138,-20.043,7,0.0174031,10,-0.00349025,-1.69804,-0.27396,-0.21536,168.821,0.174138,
2,0,0,1,0,8606.78,0.172047,0.17177,-20.4619,7,0.017322,10,-0.00351474,-1.68905,-0.261077,-0.225987,180.825,0.17177,
2,0,0,1,0,8606.78,0.169644,0.169342,-20.9056,7,0.0172393,10,-0.0035402,-1.67974,-0.2509,-0.235153,192.27,0.169342,
2,0,0,1,0,8606.78,0.167242,0.166996,-21.3786,7,0.0171547,10,-0.00357015,-1.67002,-0.24065,-0.24517,205.093,0.166996,
2,0,0,1,0,8606.79,0.164845,0.164556,-21.8853,7,0.0170681,10,-0.00360136,-1.65985,-0.227223,-0.259656,222.527,0.164556,
2,0,0,1,0,8606.79,0.162448,0.162134,-22.4381,7,0.0169794,10,-0.00363799,-1.64901,-0.217656,-0.27107,238.135,0.162134,
2,0,0,1,0,8606.8,0.160042,0.159714,-23.048,7,0.0168884,10,-0.0036811,-1.63737,-0.20614,-0.286214,258.043,0.159714,
2,0,0,1,0,8606.8,0.157645,0.157328,-23.6808,7,0.0167949,10,-0.00372567,-1.6256,-0.196592,-0.300113,278.125,0.157328,
2,0,0,1,0,8606.8,0.155248,0.15496,-24.3616,7,0.0166988,10,-0.00377507,-1.61329,-0.189146,-0.311928,297.578,0.15496,
2,0,0,1,0,8606.81,0.152845,0.15255,-25.1037,7,0.0165998,10,-0.00382957,-1.60026,-0.181311,-0.325407,319.849,0.15255,
2,0,0,1,0,8606.81,0.150443,0.150142,-25.8965,7,0.0164977,10,-0.00388815,-1.58676,-0.174718,-0.337687,342.268,0.1501421,
2,0,0,1,0,8606.82,0.148046,0.147723,-26.7531,7,0.0163923,10,-0.00395205,-1.57263,-0.16848,-0.35019,366.5,0.147723,
2,0,0,1,0,8606.82,0.145648,0.145353,-27.6495,7,0.0162834,10,-0.00401895,-1.55831,-0.163595,-0.360647,390.132,0.145353,
2,0,0,1,0,8606.82,0.14324,0.142994,-28.6061,7,0.0161708,10,-0.0040905,-1.54354,-0.159591,-0.369696,413.733,0.1429939,
2,0,0,1,0,8606.83,0.140843,0.140589,-29.6235,7,0.0160543,10,-0.00416474,-1.52836,-0.156015,-0.378169,438.371,0.140589,
2,0,0,1,0,8606.83,0.138446,0.138213,-30.688,7,0.0159336,10,-0.00424146,-1.51303,-0.15308,-0.38542,462.868,0.138213,
2,0,0,1,0,8606.84,0.136041,0.135761,-31.8546,7,0.0158084,10,-0.00432461,-1.49683,-0.152783,-0.386167,480.439,0.135761,
2,0,0,1,0,8606.84,0.133644,0.133404,-33.0451,7,0.0156785,10,-0.00440834,-1.48089,-0.152769,-0.386205,497.954,0.1334036,
2,0,0,1,0,8606.84,0.131246,0.130969,-34.2453,7,0.0155438,10,-0.00448507,-1.4654,-0.152894,-0.385888,516.12,0.1309689,
2,0,0,1,0,8606.85,0.128849,0.128541,-35.5042,7,0.0154042,10,-0.00456373,-1.44972,-0.155066,-0.380482,527.452,0.128541,
2,0,0,1,0,8606.85,0.126441,0.126166,-36.8065,7,0.0152594,10,-0.00464374,-1.43408,-0.156248,-0.377606,542.069,0.126166,
2,0,0,1,0,8606.86,0.124044,0.123787,-38.1176,7,0.0151095,10,-0.00471845,-1.41887,-0.159507,-0.36989,549.643,0.123787,
2,0,0,1,0,8606.86,0.121647,0.121379,-39.4439,7,0.0149542,10,-0.00478765,-1.40402,-0.165099,-0.357362,549.124,0.121379,
2,0,0,1,0,8606.86,0.119241,0.118964,-40.7678,7,0.0147937,10,-0.00484991,-1.38968,-0.170779,-0.345476,548.228,0.118964,
2,0,0,1,0,8606.87,0.116844,0.116607,-42.0559,7,0.0146279,10,-0.004904,-1.37617,-0.176841,-0.333633,546.925,0.116607,
2,0,0,1,0,8606.87,0.114447,0.114306,-43.3154,7,0.014457,10,-0.00495119,-1.36336,-0.182437,-0.323399,546.798,0.114306,
2,0,0,1,0,8606.88,0.11205,0.111817,-44.6735,7,0.014281,10,-0.00499525,-1.34995,-0.190397,-0.309878,539.272,0.111817,
2,0,0,1,0,8606.88,0.109642,0.109425,-45.984,7,0.0140995,10,-0.00503178,-1.33739,-0.198259,-0.297591,532.463,0.109425,
2,0,0,1,0,8606.88,0.107245,0.107017,-47.2271,7,0.0139129,10,-0.00505413,-1.32581,-0.206692,-0.285449,525.159,0.107017,
2,0,0,1,0,8606.89,0.104848,0.104617,-48.4744,7,0.0137214,10,-0.00507123,-1.31449,-0.220912,-0.267075,504.089,0.104617,
2,0,0,1,0,8606.89,0.10244,0.10225,-49.6977,7,0.0135249,10,-0.00508158,-1.30366,-0.231855,-0.254469,491.967,0.10225,
2,0,0,1,0,8606.9,0.100042,0.0998269,-50.8221,7,0.0133237,10,-0.00507341,-1.29395,-0.249054,-0.236896,468.693,0.0998269,
2,0,0,1,0,8606.9,0.0976454,0.0974728,-51.9228,7,0.0131181,10,-0.00506106,-1.28464,-0.266938,-0.221025,446.956,0.0974728,
2,0,0,1,0,8606.9,0.0952427,0.0949978,-52.9827,7,0.0129082,10,-0.00503324,-1.27587,-0.279875,-0.210808,435.06,0.0949978,
2,0,0,1,0,8606.91,0.0928428,0.0926405,-53.9926,7,0.0126942,10,-0.00500191,-1.26767,-0.300686,-0.196218,412.698,0.0926405,
2,0,0,1,0,8606.91,0.0904457,0.0902366,-54.9945,7,0.0124761,10,-0.00496251,-1.25968,-0.319448,-0.184693,395.452,0.0902366,
2,0,0,1,0,8606.92,0.0880486,0.0878072,-55.9118,7,0.0122541,10,-0.00490946,-1.2525,-0.350056,-0.168544,366.719,0.0878072,
2,0,0,1,0,8606.92,0.0856404,0.0853778,-56.7869,7,0.0120286,10,-0.00484834,-1.24575,-0.391124,-0.150847,333.2,0.08537779,
2,0,0,1,0,8606.92,0.0832433,0.0829452,-57.5481,7,0.0117999,10,-0.00477334,-1.23997,-0.43032,-0.137107,307.063,0.08294522,
2,0,0,1,0,8606.93,0.0808462,0.0805169,-58.2331,7,0.0115682,10,-0.00468874,-1.23483,-0.487276,-0.121081,274.533,0.0805169,
2,0,0,1,0,8606.93,0.0784408,0.0781235,-58.8853,7,0.011334,10,-0.00460033,-1.22999,-0.558374,-0.105664,242.073,0.0781235,
2,0,0,1,0,8606.94,0.0760437,0.075761,-59.4271,7,0.0110973,10,-0.00450225,-1.22602,-0.654426,-0.0901554,208.373,0.075761,
2,0,0,1,0,8606.94,0.0736466,0.0733443,-59.8722,7,0.0108586,10,-0.00439129,-1.22277,-0.805529,-0.0732438,170.638,0.07334429,
2,0,0,1,0,8606.94,0.0712495,0.0709669,-60.223,7,0.0106183,10,-0.00427384,-1.22024,-1.03506,-0.0570016,133.623,0.0709669,
2,0,0,1,0,8606.95,0.0688413,0.0685852,-60.5129,7,0.0103768,10,-0.00415029,-1.21815,-1.40954,-0.0418576,98.5778,0.0685852,
2,0,0,1,0,8606.95,0.0664442,0.0661579,-60.7103,7,0.0101343,10,-0.00401646,-1.21674,-2.2209,-0.0265658,62.7497,0.0661579,
2,0,0,1,0,8606.96,0.0640471,0.0637285,-60.8201,7,0.00989124,10,-0.00387598,-1.21595,-6.65546,-0.0088649,20.9705,0.0637285,
2,0,0,1,0,8606.96,0.0616389,0.0613681,-60.8253,7,0.00964795,10,-0.00373273,-1.21592,7.95405,0.00741761,-17.5503,0.0613681,
2,0,0,1,0,8606.96,0.0592417,0.0589588,-60.7147,7,0.00940486,10,-0.00357967,-1.21671,2.48878,0.0237064,-56.0211,0.0589588,
2,0,0,1,0,8606.97,0.0568446,0.056522,-60.5411,7,0.00916236,10,-0.00342191,-1.21795,1.59425,0.0370081,-87.2424,0.056522,
2,0,0,1,0,8606.97,0.0544475,0.0541393,-60.2829,7,0.00892074,10,-0.00326367,-1.21981,1.18731,0.0496921,-116.653,0.0541393,
2,0,0,1,0,8606.98,0.0520421,0.0517375,-59.9852,7,0.00868018,10,-0.00310348,-1.22196,0.943619,0.0625253,-146.014,0.0517375,
2,0,0,1,0,8606.98,0.049645,0.0493325,-59.5918,7,0.00844104,10,-0.00293981,-1.22481,0.824543,0.0715548,-166.116,0.0493325,
2,0,0,1,0,8606.98,0.0472479,0.0469221,-59.1394,7,0.0082036,10,-0.00277495,-1.22812,0.72821,0.0810205,-186.834,0.0469221,
2,0,0,1,0,8606.99,0.0448397,0.0445776,-58.6946,7,0.00796799,10,-0.00261646,-1.2314,0.685731,0.0860395,-196.913,0.0445776,
2,0,0,1,0,8606.99,0.0424426,0.04218,-58.1995,7,0.00773427,10,-0.00245486,-1.23508,0.658663,0.0895754,-203.308,0.04218,
2,0,0,1,0,8607,0.0400455,0.0397411,-57.7031,7,0.00750252,10,-0.00229318,-1.2388,0.621294,0.0949631,-213.68,0.0397411,
2,0,0,1,0,8607,0.0376456,0.0373117,-57.1856,7,0.0072728,10,-0.00213369,-1.24271,0.601114,0.098151,-218.873,0.0373117,
2,0,0,1,0,8607,0.035243,0.0349152,-56.6299,7,0.00704523,10,-0.00197724,-1.24695,0.577736,0.102123,-225.644,0.0349152,
2,0,0,1,0,8607.01,0.0328459,0.0325494,-56.0916,7,0.00681984,10,-0.00182575,-1.2511,0.56938,0.103621,-226.843,0.0325494,
2,0,0,1,0,8607.01,0.0304488,0.0301635,-55.542,7,0.00659663,10,-0.00167534,-1.25538,0.563451,0.104712,-226.954,0.0301635,
2,0,0,1,0,8607.02,0.0280406,0.0277458,-55.0156,7,0.00637558,10,-0.00152645,-1.25951,0.545886,0.108081,-231.863,0.0277458,
2,0,0,1,0,8607.02,0.0256435,0.0253429,-54.4574,7,0.00615669,10,-0.00138011,-1.26394,0.530395,0.111238,-236.151,0.0253429,
2,0,0,1,0,8607.02,0.0232463,0.0229315,-53.8616,7,0.00594011,10,-0.00123513,-1.26872,0.510867,0.11549,-242.661,0.0229315,
2,0,0,1,0,8607.03,0.0208437,0.0205318,-53.2675,7,0.00572592,10,-0.00109368,-1.27354,0.486565,0.121258,-251.951,0.0205318,
2,0,0,1,0,8607.03,0.018441,0.018113,-52.6781,7,0.00551408,10,-0.00095416,-1.27837,0.470081,0.12551,-257.723,0.018113,
2,0,0,1,0,8607.04,0.0160439,0.0157547,-52.0417,7,0.0053047,10,-0.0008199,-1.28365,0.44455,0.132719,-269.158,0.0157547,
2,0,0,1,0,8607.04,0.0136468,0.0133338,-51.388,7,0.0050979,10,-0.000685196,-1.28914,0.414457,0.142355,-285.021,0.0133338,
2,0,0,1,0,8607.04,0.0112414,0.0109341,-50.6842,7,0.00489381,10,-0.000554184,-1.29513,0.394266,0.149645,-295.57,0.0109341,
2,0,0,1,0,8607.05,0.00884431,0.0085471,-49.9516,7,0.0046926,10,-0.000426941,-1.30145,0.369252,0.159783,-311.085,0.0085471,
2,0,0,1,0,8607.05,0.0064472,0.00615588,-49.2046,7,0.00449436,10,-0.000302897,-1.30799,0.364487,0.161871,-310.593,0.00615588,
2,0,0,1,0,8607.06,0.00404455,0.00377739,-48.4152,7,0.0042992,10,-0.000182883,-1.31502,0.343213,0.171905,-324.465,0.00377739,
2,0,0,1,0,8607.06,0.0016419,0.0012515,-47.6768,7,0.00410714,10,-5.96676e-05,-1.32169,0.324116,0.182034,-337.805,0.0012515,
2,0,0,1,0,8607.06,-0.000755207,-0.0011376,-46.8093,7,0.00391827,10,5.325e-05,-1.32967,0.314098,0.18784,-342.625,-0.0011376,
2,0,0,1,0,8607.07,-0.00315231,-0.00352881,-45.933,7,0.00373288,10,0.000162089,-1.33788,0.294556,0.200302,-359.116,-0.00352881,
2,0,0,1,0,8607.07,-0.00555774,-0.00589988,-45.0995,7,0.00355091,10,0.000266082,-1.34583,0.293169,0.201249,-354.182,-0.00589988,
2,0,0,1,0,8607.08,-0.00795485,-0.00830489,-44.245,7,0.00337231,10,0.00036745,-1.35414,0.296836,0.198763,-343.323,-0.00830489,
2,0,0,1,0,8607.08,-0.010352,-0.0106982,-43.4231,7,0.00319706,10,0.00046455,-1.36228,0.299934,0.19671,-333.697,-0.0106982,
2,0,0,1,0,8607.08,-0.0127546,-0.0131594,-42.6266,7,0.00302505,10,0.000560942,-1.37032,0.308638,0.191163,-318.493,-0.01315943,
2,0,0,1,0,8607.09,-0.0151573,-0.0155634,-41.8748,7,0.00285613,10,0.000651713,-1.37805,0.320377,0.184158,-301.542,-0.0155634,
2,0,0,1,0,8607.09,-0.0175544,-0.0179493,-41.1733,7,0.00269013,10,0.000739032,-1.38538,0.337505,0.174812,-281.554,-0.0179493,
2,0,0,1,0,8607.1,-0.0199515,-0.0203182,-40.5222,7,0.0025268,10,0.00082334,-1.39231,0.359093,0.164303,-260.473,-0.0203182,
2,0,0,1,0,8607.1,-0.0223597,-0.0226988,-39.9407,7,0.00236595,10,0.000906609,-1.39858,0.387604,0.152217,-237.752,-0.0226988,
2,0,0,1,0,8607.1,-0.0247568,-0.0250911,-39.3931,7,0.00220736,10,0.000988417,-1.40458,0.430088,0.137181,-211.446,-0.0250911,
2,0,0,1,0,8607.11,-0.0271539,-0.0275449,-38.8919,7,0.00205085,10,0.00107127,-1.41014,0.472927,0.124755,-189.991,-0.0275449,
2,0,0,1,0,8607.11,-0.0295593,-0.0299531,-38.485,7,0.00189618,10,0.00115274,-1.41471,0.528904,0.111551,-167.949,-0.0299531,
2,0,0,1,0,8607.12,-0.0319564,-0.0322945,-38.1177,7,0.00174304,10,0.00123099,-1.41887,0.59704,0.0988208,-147.27,-0.0322945,
2,0,0,1,0,8607.12,-0.0343535,-0.0347302,-37.7742,7,0.00159131,10,0.00131191,-1.4228,0.677437,0.0870929,-128.705,-0.03473023,
2,0,0,1,0,8607.12,-0.0367506,-0.0370758,-37.4883,7,0.00144084,10,0.00138991,-1.4261,0.783557,0.0752977,-110.444,-0.0370758,
2,0,0,1,0,8607.13,-0.0391588,-0.0395201,-37.2537,7,0.00129138,10,0.00147227,-1.42883,0.946904,0.0623084,-90.7916,-0.0395201,
2,0,0,1,0,8607.13,-0.0415559,-0.041923,-37.0543,7,0.00114283,10,0.00155342,-1.43116,1.16414,0.0506811,-73.4482,-0.041923,
2,0,0,1,0,8607.14,-0.043953,-0.0443311,-36.9025,7,0.000994951,10,0.00163593,-1.43294,1.42032,0.04154,-59.9276,-0.0443311,
2,0,0,1,0,8607.14,-0.0463585,-0.0466937,-36.7819,7,0.000847606,10,0.00171748,-1.43437,1.8661,0.0316167,-45.4519,-0.0466937,
2,0,0,1,0,8607.14,-0.0487556,-0.0491104,-36.6789,7,0.000700706,10,0.00180132,-1.43558,2.44302,0.0241504,-34.6252,-0.0491104,
2,0,0,1,0,8607.15,-0.0511527,-0.0515101,-36.6185,7,0.000554118,10,0.00188622,-1.4363,4.12545,0.0143015,-20.4745,-0.0515101,
2,0,0,1,0,8607.15,-0.0535498,-0.0538759,-36.572,7,0.00040778,10,0.00197035,-1.43685,9.61037,0.0061392,-8.77793,-0.0538759,
2,0,0,1,0,8607.16,-0.055958,-0.0563116,-36.585,7,0.000261455,10,0.00206016,-1.4367,45.6304,0.001293,-1.84738,-0.0563116,
2,0,0,1,0,8607.16,-0.0583551,-0.0587315,-36.5945,7,0.000115099,10,0.00214925,-1.43658,-7.23431,-0.00815558,11.6582,-0.0587315,
2,0,0,1,0,8607.16,-0.0607522,-0.0610739,-36.6008,7,-3.12712e-05,10,0.00223536,-1.43651,-5.13058,-0.0114997,16.4546,-0.06107391,
2,0,0,1,0,8607.17,-0.0631604,-0.0635023,-36.6843,7,-0.000177838,10,0.00232953,-1.43552,-3.40614,-0.0173216,24.8186,-0.0635023,
2,0,0,1,0,8607.17,-0.0655575,-0.0658956,-36.7427,7,-0.000324685,10,0.00242118,-1.43483,-2.34371,-0.0251737,36.1294,-0.0658956,
2,0,0,1,0,8607.18,-0.0679546,-0.0683218,-36.8325,7,-0.000471841,10,0.00251646,-1.43377,-2.24182,-0.0263179,37.8644,-0.0683218,
2,0,0,1,0,8607.18,-0.0703573,-0.0707162,-36.9492,7,-0.000619401,10,0.00261291,-1.43239,-1.87579,-0.0314533,45.3682,-0.0707162,
2,0,0,1,0,8607.18,-0.0727571,-0.0730703,-37.0466,7,-0.000767394,10,0.002707,-1.43125,-1.68078,-0.0351027,50.7917,-0.0730703,
2,0,0,1,0,8607.19,-0.0751542,-0.0754552,-37.1764,7,-0.000915854,10,0.00280515,-1.42973,-1.52079,-0.0387957,56.3509,-0.0754552,
2,0,0,1,0,8607.19,-0.0775514,-0.0779174,-37.3199,7,-0.00106485,10,0.00290787,-1.42806,-1.35904,-0.0434129,63.2813,-0.0779174,
2,0,0,1,0,8607.2,-0.0799595,-0.08028,-37.4881,7,-0.00121449,10,0.00300955,-1.42611,-1.31613,-0.0448284,65.591,-0.08028,
2,0,0,1,0,8607.2,-0.0823567,-0.0826935,-37.6555,7,-0.00136479,10,0.00311387,-1.42417,-1.19571,-0.0493431,72.5338,-0.0826935,
2,0,0,1,0,8607.2,-0.0847538,-0.0850784,-37.8076,7,-0.00151573,10,0.00321661,-1.42242,-1.14643,-0.0514642,76.0246,-0.0850784,
2,0,0,1,0,8607.21,-0.0871592,-0.0874929,-38.0144,7,-0.00166738,10,0.00332599,-1.42005,-1.1026,-0.05351,79.4333,-0.0874929,
2,0,0,1,0,8607.21,-0.0895563,-0.0898746,-38.2176,7,-0.00181986,10,0.00343479,-1.41774,-1.01477,-0.0581411,86.7308,-0.0898746,
2,0,0,1,0,8607.22,-0.0919534,-0.0923252,-38.4206,7,-0.00197315,10,0.00354719,-1.41544,-0.988621,-0.0596791,89.5386,-0.0923252,
2,0,0,1,0,8607.22,-0.0943505,-0.0946973,-38.6418,7,-0.00212729,10,0.00365928,-1.41294,-0.9756,-0.0604756,91.2353,-0.0946973,
2,0,0,1,0,8607.22,-0.0967587,-0.0971161,-38.8761,7,-0.00228235,10,0.00377549,-1.41032,-0.920021,-0.064129,97.1215,-0.09711609,
2,0,0,1,0,8607.23,-0.0991558,-0.0995264,-39.0981,7,-0.0024383,10,0.0038913,-1.40784,-1.42653,-0.0413591,62.6613,-0.0995264,
2,0,0,0,0,8607.23,-0.0999548,-0.100286,-39.1937,7,-0.00248916,10,0.00393057,-1.40678,0.0189397,3.11515,-4373.41,-0.100286,
2,0,0,0,1,8607.23,-0.0999548,-0.100419,-39.0004,7,-0.00251259,10,0.00391639,-1.40893,-0.0228037,-2.5873,3317.26,-0.100419,
2,0,0,1,1,8607.23,-0.0979573,-0.0984098,-33.2182,7,-0.00262254,10,0.00326899,-1.47862,-0.0270035,-2.1849,2545.85,-0.0984098,
2,0,0,1,1,8607.24,-0.0955546,-0.095973,-27.3105,7,-0.00274278,10,0.00262107,-1.56367,-0.0265655,-2.22092,2326.85,-0.09597297,
2,0,0,1,1,8607.24,-0.093152,-0.0935849,-22.1348,7,-0.00284097,10,0.00207148,-1.65492,-0.0243493,-2.42307,2064.55,-0.09358494,
2,0,0,1,1,8607.25,-0.0907548,-0.0911895,-17.5241,7,-0.00291968,10,0.00159801,-1.75636,-0.0212048,-2.78239,1842.4,-0.0911895,
2,0,0,1,1,8607.25,-0.0883577,-0.088812,-13.4031,7,-0.00298102,10,0.00119036,-1.87279,-0.0174835,-3.37461,1653.14,-0.088812,
2,0,0,1,1,8607.25,-0.0859523,-0.0863805,-9.63736,7,-0.00302664,10,0.00083248,-2.01604,-0.0128256,-4.60019,1499.81,-0.0863805,
2,0,0,1,1,8607.26,-0.0835552,-0.0839692,-6.23855,7,-0.00305795,10,0.000523846,-2.20492,-0.00572684,-10.3024,1362.07,-0.0839692,
2,0,0,1,1,8607.26,-0.0811581,-0.0815907,-3.12768,7,-0.0030763,10,0.00025519,-2.50478,-0.0155493,-3.79439,1247.94,-0.0815907,
2,0,0,1,1,8607.27,-0.0787555,-0.0791761,-0.278366,7,-0.00308276,10,2.204e-05,-3.55538,-0.0794456,-0.742646,1142.87,-0.07917612,
2,1,0,1,1,8607.27,-0.0763528,-0.0767913,2.32947,7,-0.00307834,10,-0.000178883,-2.63274,0.0277853,2.12343,1047.73,-0.0767913,
2,1,0,1,1,8607.27,-0.0739557,-0.0743767,4.72434,7,-0.00306395,10,-0.000351381,-2.32566,0.00634392,9.30024,965.928,-0.0743767,
2,1,0,1,1,8607.28,-0.0715586,-0.0719919,6.92925,7,-0.00304037,10,-0.00049885,-2.15931,0.0143067,4.12395,890.214,-0.0719919,
2,1,0,1,1,8607.28,-0.0691532,-0.0696113,8.9606,7,-0.00300837,10,-0.000623758,-2.04766,0.0224052,2.63332,824.014,-0.0696113,
2,1,0,1,1,8607.29,-0.0667561,-0.0672444,10.8282,7,-0.00296856,10,-0.000728136,-1.96544,0.0307613,1.918,758.457,-0.0672444,
2,1,0,1,1,8607.29,-0.0643589,-0.0648532,12.5718,7,-0.00292154,10,-0.000815324,-1.9006,0.0394205,1.49668,702.148,-0.0648532,
2,1,0,1,1,8607.29,-0.0619563,-0.062409,14.1975,7,-0.0028678,10,-0.00088605,-1.84779,0.0487376,1.21056,647.967,-0.062409,
2,1,0,1,1,8607.3,-0.0595536,-0.0599997,15.7093,7,-0.00280779,10,-0.000942555,-1.80384,0.0587852,1.00365,598.63,-0.0599997,
2,1,0,1,1,8607.3,-0.0571565,-0.0576043,17.0747,7,-0.00274207,10,-0.000983576,-1.76765,0.0694933,0.849002,554.526,-0.0576043,
2,1,0,1,1,8607.31,-0.0547594,-0.0551865,18.3586,7,-0.00267104,10,-0.00101315,-1.73616,0.0816811,0.722321,508.812,-0.05518654,
2,1,0,1,1,8607.31,-0.0523512,-0.0527381,19.5602,7,-0.00259505,10,-0.00103157,-1.70863,0.0950543,0.620698,466.303,-0.0527381,
2,1,0,1,1,8607.31,-0.0499541,-0.0503659,20.6111,7,-0.0025146,10,-0.0010381,-1.6859,0.109641,0.538118,427.646,-0.0503659,
2,1,0,1,1,8607.32,-0.047557,-0.0478952,21.6021,7,-0.00243003,10,-0.00103464,-1.6655,0.124924,0.472289,394.406,-0.0478952,
2,1,0,1,1,8607.32,-0.0451544,-0.0454828,22.5084,7,-0.0023417,10,-0.00102374,-1.64766,0.142005,0.415477,361.839,-0.0454828,
2,1,0,1,1,8607.33,-0.0427545,-0.0431361,23.3473,7,-0.00224987,10,-0.00100711,-1.63176,0.160211,0.368264,332.8,-0.0431361,
2,1,0,1,1,8607.33,-0.0403574,-0.0406929,24.1112,7,-0.00215486,10,-0.000981154,-1.61778,0.179004,0.329601,308.071,-0.0406929,
2,1,0,1,1,8607.33,-0.0379603,-0.0383388,24.7825,7,-0.00205699,10,-0.000950129,-1.60586,0.203696,0.289647,278.757,-0.0383388,
2,1,0,1,1,8607.34,-0.0355521,-0.0359306,25.4511,7,-0.00195642,10,-0.000914475,-1.59429,0.228242,0.258497,255.339,-0.0359306,
2,1,0,1,1,8607.34,-0.033155,-0.0335447,26.021,7,-0.0018534,10,-0.000872866,-1.58468,0.253589,0.23266,235.15,-0.0335447,
2,1,0,1,1,8607.35,-0.0307579,-0.0311471,26.5486,7,-0.00174819,10,-0.000826912,-1.57596,0.290614,0.203018,209.515,-0.0311471,
2,1,0,1,1,8607.35,-0.0283524,-0.0287145,27.0456,7,-0.00164096,10,-0.000776602,-1.5679,0.325975,0.180996,190.21,-0.0287145,
2,1,0,1,1,8607.35,-0.0259553,-0.0263382,27.4609,7,-0.00153188,10,-0.00072327,-1.56129,0.363849,0.162155,173.214,-0.0263382,
2,1,0,1,1,8607.36,-0.0235582,-0.0239003,27.8554,7,-0.00142121,10,-0.000665753,-1.55509,0.413724,0.142607,154.603,-0.0239003,
2,1,0,1,1,8607.36,-0.0211611,-0.0215568,28.2098,7,-0.00130904,10,-0.000608112,-1.5496,0.461509,0.127842,140.35,-0.0215568,
2,1,0,1,1,8607.37,-0.0187529,-0.0191454,28.525,7,-0.00119553,10,-0.000546123,-1.54477,0.529423,0.111442,123.71,-0.0191454,
2,1,0,1,1,8607.37,-0.0163558,-0.0167203,28.8108,7,-0.00108082,10,-0.000481724,-1.54045,0.606622,0.0972599,109.068,-0.0167203,
2,1,0,1,1,8607.37,-0.0139587,-0.0143163,29.0411,7,-0.000965096,10,-0.000415762,-1.53699,0.688979,0.0856339,96.8794,-0.0143163,
2,1,0,1,1,8607.38,-0.0115505,-0.0118816,29.265,7,-0.000848472,10,-0.000347717,-1.53365,0.812329,0.0726307,82.7897,-0.0118816,
2,1,0,1,1,8607.38,-0.0091534,-0.00953072,29.4565,7,-0.000731005,10,-0.000280741,-1.53082,0.914567,0.0645114,74.006,-0.00953072,
2,1,0,1,1,8607.39,-0.00675629,-0.00709496,29.6076,7,-0.000612835,10,-0.000210065,-1.5286,1.07456,0.0549061,63.3556,-0.00709496,
2,1,0,1,1,8607.39,-0.00435919,-0.00472601,29.7508,7,-0.000494112,10,-0.000140603,-1.5265,1.62147,0.0363867,42.1034,-0.00472601,
2,1,0,1,1,8607.39,-0.00195376,-0.00233055,29.8701,7,-0.000374846,10,-6.9614e-05,-1.52476, , , ,-0.002330553,
2,1,0,1,1,8607.4,-7.54729e-05,-0.000363498,29.8424,7,-0.000282188,10,-1.08477e-05,-1.52517, , , ,-0.000363498,