File: Figure_codes/Fig_3-5/rawdata_trumpetplot_data/before 10th/20221101_1-115_002_TrumpetPlot_ParaChange_09_CV_C01_2.csv
mode,ox/red,error,control changes,counter inc.,time/s,control/V,Ewe/V,<I>/mA,cycle number,(Q-Qo)/C,I Range,P/W,log(|I|),Tafel slope mV/dec,alpha_eff,dI/d(E-IR),E-IR/V,
2,0,0,1,0,3647.55,2.44065e-05,-5.8101e-05,-4.11923,3,0.0000000E+000,11,2.39332e-07,-2.38518, , , ,-5.8101e-05,
2,0,0,1,0,3647.57,0.0013005,0.000936449,-0.895128,3,-5.02232e-05,11,-8.38241e-07,-3.04812, , , ,0.000936449,
2,1,0,1,0,3647.59,0.00279471,0.00251637,0.984729,3,-4.60578e-05,11,2.47794e-06,-3.00668,-0.253116,-0.233095,955.408,0.00251637,
2,1,0,1,0,3647.62,0.00429425,0.00402762,1.75273,3,-1.0425e-05,11,7.05931e-06,-2.75629,0.00653539,9.02777,405.673,0.00402762,
2,1,0,1,0,3647.64,0.00579379,0.00551694,2.09214,3,3.83013e-05,11,1.15422e-05,-2.67941,0.0232321,2.53959,189.516,0.00551694,
2,1,0,1,0,3647.67,0.007288,0.0070238,2.27558,3,9.29605e-05,11,1.59832e-05,-2.64291,0.0511892,1.15259,98.8548,0.0070238,
2,1,0,1,0,3647.69,0.00878882,0.00853019,2.37255,3,0.000151307,11,2.02383e-05,-2.62479,0.0996553,0.592041,53.9631,0.00853019,
2,1,0,1,0,3647.72,0.0102896,0.0100205,2.43523,3,0.000211534,11,2.44022e-05,-2.61346,0.190266,0.310093,29.1459,0.0100205,
2,1,0,1,0,3647.74,0.0117838,0.0114755,2.4732,3,0.000272723,11,2.83813e-05,-2.60674,0.222347,0.265351,25.4645,0.01147554,
2,1,0,1,0,3647.77,0.0132834,0.0129762,2.50021,3,0.000334876,11,3.24433e-05,-2.60202,0.241883,0.243919,23.8587,0.0129762,
2,1,0,1,0,3647.79,0.0147816,0.01448,2.52127,3,0.00039784,11,3.65079e-05,-2.59838,0.300198,0.196537,19.4189,0.01448,
2,1,0,1,0,3647.82,0.0162811,0.0159992,2.56323,3,0.000461653,11,4.10097e-05,-2.59121,0.406673,0.14508,14.4438,0.0159992,
2,1,0,1,0,3647.84,0.0177753,0.0174789,2.58811,3,0.000525828,11,4.52372e-05,-2.58702,0.481974,0.122413,12.2942,0.0174789,
2,1,0,1,0,3647.87,0.0192761,0.0190003,2.59331,3,0.000590562,11,4.92737e-05,-2.58615,0.416995,0.141489,14.3673,0.0190003,
2,1,0,1,0,3647.89,0.020777,0.0205087,2.61545,3,0.000655839,11,5.36396e-05,-2.58245,0.371563,0.158789,16.2168,0.0205087,
2,1,0,1,0,3647.92,0.0222712,0.0219782,2.64399,3,0.000721484,11,5.81102e-05,-2.57774,0.529201,0.111489,11.4937,0.0219782,
2,1,0,1,0,3647.94,0.0237707,0.0235137,2.6671,3,0.000787954,11,6.27133e-05,-2.57396,0.535169,0.110246,11.4399,0.0235137,
2,1,0,1,0,3647.97,0.0252703,0.024969,2.6704,3,0.000854801,11,6.66772e-05,-2.57342,0.439358,0.134287,14.067,0.024969,
2,1,0,1,0,3647.99,0.0267645,0.0265275,2.69615,3,0.000921782,11,7.15221e-05,-2.56926,0.467065,0.126321,13.3145,0.0265275,
2,1,0,1,0,3648.02,0.0282653,0.0279892,2.7217,3,0.000989613,11,7.61782e-05,-2.56516,0.50188,0.117558,12.4677,0.0279892,
2,1,0,1,0,3648.04,0.0297648,0.0294539,2.74562,3,0.00105797,11,8.08692e-05,-2.56136,0.462489,0.127571,13.6048,0.0294539,
2,1,0,1,0,3648.07,0.031259,0.0309637,2.75007,3,0.00112655,11,8.51522e-05,-2.56066,0.448733,0.131481,14.1477,0.0309637,
2,1,0,1,0,3648.09,0.0327585,0.0324835,2.77137,3,0.00119574,11,9.00235e-05,-2.55731,0.480649,0.122751,13.3326,0.0324835,
2,1,0,1,0,3648.12,0.034258,0.0339795,2.80045,3,0.00126554,11,9.51577e-05,-2.55277,0.461847,0.127748,13.9514,0.0339795,
2,1,0,1,0,3648.14,0.0357576,0.035507,2.82321,3,0.00133595,11,0.000100244,-2.54926,0.483182,0.122107,13.4279,0.035507,
2,1,0,1,0,3648.17,0.0372518,0.0369806,2.84085,3,0.00140663,11,0.000105056,-2.54655,0.392936,0.150152,16.6807,0.0369806,
2,1,0,1,0,3648.19,0.0387526,0.0384546,2.86012,3,0.00147801,11,0.000109985,-2.54362,0.386772,0.152545,17.1239,0.0384546,
2,1,0,1,0,3648.22,0.0402534,0.0399534,2.89468,3,0.0015501,11,0.000115653,-2.5384,0.382857,0.154105,17.3906,0.0399534,
2,1,0,1,0,3648.24,0.0417476,0.0414736,2.93269,3,0.00162273,11,0.000121629,-2.53273,0.371831,0.158674,18.0632,0.0414736,
2,1,0,1,0,3648.27,0.0432472,0.0429727,2.94906,3,0.00169629,11,0.000126729,-2.53032,0.344785,0.171121,19.7229,0.0429727,
2,1,0,1,0,3648.29,0.0447467,0.0444447,2.97377,3,0.00177041,11,0.000132169,-2.52669,0.353703,0.166807,19.4388,0.0444447,
2,1,0,1,0,3648.32,0.0462463,0.0459735,3.01213,3,0.00184533,11,0.000138478,-2.52113,0.311522,0.189393,22.2684,0.0459735,
2,1,0,1,0,3648.34,0.0477391,0.0474374,3.05136,3,0.00192089,11,0.000144749,-2.51551,0.266025,0.221784,26.3585,0.0474374,
2,1,0,1,0,3648.37,0.0492399,0.0490076,3.08517,3,0.00199773,11,0.000151197,-2.51072,0.280809,0.210107,25.2862,0.0490076,
2,1,0,1,0,3648.39,0.0507408,0.0504939,3.1073,3,0.00207534,11,0.0001569,-2.50762,0.30683,0.192289,23.4659,0.0504939,
2,1,0,1,0,3648.42,0.052235,0.0519363,3.16374,3,0.00215357,11,0.000164313,-2.4998,0.253188,0.233028,28.781,0.0519363,
2,1,0,1,0,3648.44,0.0537345,0.0534302,3.2167,3,0.00223329,11,0.000171869,-2.49259,0.230676,0.25577,32.013,0.0534302,
2,1,0,1,0,3648.47,0.0552341,0.0549412,3.25448,3,0.00231426,11,0.000178805,-2.48752,0.235483,0.250549,31.803,0.0549412,
2,1,0,1,0,3648.49,0.0567283,0.0564112,3.29634,3,0.00239601,11,0.00018595,-2.48197,0.245274,0.240547,31.0474,0.0564112,
2,1,0,1,0,3648.52,0.0582291,0.057955,3.35122,3,0.00247917,11,0.00019422,-2.4748,0.238488,0.247391,32.3864,0.057955,
2,1,0,1,0,3648.54,0.0597299,0.0594541,3.41487,3,0.00256372,11,0.000203028,-2.46663,0.204547,0.288442,38.3066,0.0594541,
2,1,0,1,0,3648.57,0.0612228,0.0609674,3.46147,3,0.00264937,11,0.000211037,-2.46074,0.199118,0.296306,39.996,0.0609674,
2,1,0,1,0,3648.59,0.0627223,0.0624389,3.51844,3,0.00273677,11,0.000219688,-2.45365,0.209925,0.281053,38.6607,0.0624389,
2,1,0,1,0,3648.62,0.0642218,0.0639644,3.57683,3,0.00282551,11,0.00022879,-2.4465,0.213463,0.276395,38.6525,0.0639644,
2,1,0,1,0,3648.64,0.0657214,0.0654903,3.6474,3,0.00291588,11,0.00023887,-2.43802,0.176165,0.334913,47.613,0.06549032,
2,1,0,1,0,3648.67,0.0672156,0.0669494,3.71269,3,0.00300762,11,0.000248562,-2.43031,0.187094,0.31535,45.6183,0.0669494,
2,1,0,1,0,3648.69,0.0687164,0.0684001,3.77227,3,0.00310139,11,0.000258023,-2.4234,0.209305,0.281886,41.5703,0.0684001,
2,1,0,1,0,3648.72,0.0702172,0.0699584,3.83767,3,0.00319663,11,0.000268477,-2.41593,0.209863,0.281136,42.1546,0.0699584,
2,1,0,1,0,3648.74,0.0717114,0.0714327,3.91483,3,0.0032932,11,0.000279647,-2.40729,0.187794,0.314173,47.8868,0.0714327,
2,1,0,1,0,3648.77,0.073211,0.072897,3.9798,3,0.00339194,11,0.000290116,-2.40014,0.181234,0.325545,50.5998,0.07289698,
2,1,0,1,0,3648.79,0.0747105,0.0744108,4.0454,3,0.00349243,11,0.000301022,-2.39304,0.207373,0.284511,44.9764,0.0744108,
2,1,0,1,0,3648.82,0.0762101,0.0758839,4.11483,3,0.00359466,11,0.000312249,-2.38565,0.208365,0.283156,45.5315,0.07588388,
2,1,0,1,0,3648.84,0.0777042,0.0774193,4.19504,3,0.00369816,11,0.000324777,-2.37726,0.199667,0.295492,48.2911,0.0774193,
2,1,0,1,0,3648.87,0.0792037,0.0788933,4.26649,3,0.00380394,11,0.000336598,-2.36993,0.193196,0.30539,50.7679,0.0788933,
2,1,0,1,0,3648.89,0.0807046,0.0804339,4.33238,3,0.00391154,11,0.00034847,-2.36327,0.220009,0.268171,45.3024,0.08043386,
2,1,0,1,0,3648.92,0.0821988,0.0819384,4.39994,3,0.00402044,11,0.000360524,-2.35655,0.232022,0.254286,43.6772,0.0819384,
2,1,0,1,0,3648.94,0.0836983,0.0834143,4.47392,3,0.00413141,11,0.000373189,-2.34931,0.226816,0.260123,45.3835,0.0834143,
2,1,0,1,0,3648.97,0.0851979,0.0849228,4.53809,3,0.00424419,11,0.000385387,-2.34313,0.214092,0.275583,48.8344,0.0849228,
2,1,0,1,0,3648.99,0.0866921,0.0864032,4.60024,3,0.00435817,11,0.000397475,-2.33722,0.250105,0.235901,42.4273,0.0864032,
2,1,0,1,0,3649.02,0.0881929,0.0878857,4.67384,3,0.00447431,11,0.000410764,-2.33033,0.265306,0.222385,40.5223,0.0878857,
2,1,0,1,0,3649.04,0.0896937,0.0893939,4.74225,3,0.00459196,11,0.000423928,-2.32402,0.248306,0.23761,43.9229,0.0893939,
2,1,0,1,0,3649.07,0.0911879,0.0909257,4.80109,3,0.00471076,11,0.000436543,-2.31866,0.228403,0.258316,48.3871,0.0909257,
2,1,0,1,0,3649.09,0.0926861,0.0924457,4.86805,3,0.00483186,11,0.000450031,-2.31264,0.252382,0.233773,44.3997,0.0924457,
2,1,0,1,0,3649.12,0.0941856,0.0939021,4.93292,3,0.00495457,11,0.000463211,-2.3069,0.296781,0.198799,38.2819,0.0939021,
2,1,0,1,0,3649.14,0.0956852,0.0953978,4.99136,3,0.00507873,11,0.000476165,-2.30178,0.280578,0.21028,40.9975,0.09539783,
2,1,0,1,0,3649.17,0.0971794,0.0968791,5.05463,3,0.00520391,11,0.000489688,-2.29631,0.246649,0.239206,47.2369,0.0968791,
2,1,0,1,0,3649.19,0.0986802,0.0983968,5.12119,3,0.0053313,11,0.000503909,-2.29063,0.258745,0.228023,45.6335,0.0983968,
2,1,0,1,0,3649.22,0.100181,0.0998966,5.20039,3,0.00546048,11,0.000519501,-2.28396,0.278407,0.21192,42.935,0.0998966,
2,1,0,1,0,3649.24,0.101675,0.101365,5.26477,3,0.00559083,11,0.000533662,-2.27862,0.267261,0.220758,45.3382,0.101365,
2,1,0,1,0,3649.27,0.103175,0.102906,5.32855,3,0.00572332,11,0.000548341,-2.27339,0.240119,0.245711,51.2048,0.102906,
2,1,0,1,0,3649.29,0.104674,0.104363,5.40667,3,0.00585767,11,0.000564259,-2.26707,0.236708,0.249252,52.673,0.104363,
2,1,0,1,0,3649.32,0.106169,0.10589,5.48841,3,0.00599348,11,0.000581165,-2.26055,0.24489,0.240925,51.6182,0.10589,
2,1,0,1,0,3649.34,0.107668,0.107366,5.57714,3,0.00613187,11,0.000598796,-2.25359,0.213947,0.27577,60.031,0.107366,
2,1,0,1,0,3649.37,0.109169,0.108881,5.66613,3,0.00627234,11,0.000616931,-2.24671,0.196872,0.299688,66.3472,0.108881,
2,1,0,1,0,3649.39,0.110663,0.110342,5.76186,3,0.00641479,11,0.000635776,-2.23944,0.184686,0.319462,71.9631,0.110342,
2,1,0,1,0,3649.42,0.112163,0.111865,5.87366,3,0.00656044,11,0.000657056,-2.23109,0.18992,0.310657,71.2556,0.111865,
2,1,0,1,0,3649.44,0.113662,0.113386,5.99761,3,0.00670891,11,0.000680045,-2.22202,0.182551,0.323198,75.5614,0.113386,
2,1,0,1,0,3649.47,0.115162,0.114861,6.1068,3,0.00686018,11,0.000701431,-2.21419,0.164942,0.357701,85.4281,0.1148607,
2,1,0,1,0,3649.49,0.116656,0.116372,6.23546,3,0.00701395,11,0.000725633,-2.20513,0.149919,0.393545,96.0244,0.116372,
2,1,0,1,0,3649.52,0.118157,0.11789,6.39207,3,0.00717194,11,0.000753559,-2.19436,0.151593,0.389201,97.0738,0.11789,
2,1,0,1,0,3649.54,0.119657,0.119395,6.55084,3,0.00733377,11,0.000782138,-2.1837,0.149197,0.395451,100.954,0.1193951,
2,1,0,1,0,3649.57,0.121152,0.120909,6.6935,3,0.00749862,11,0.000809301,-2.17435,0.14238,0.414385,108.435,0.120909,
2,1,0,1,0,3649.59,0.122651,0.122386,6.85667,3,0.00766817,11,0.000839162,-2.16389,0.134918,0.437303,117.264,0.122386,
2,1,0,1,0,3649.62,0.124151,0.123866,7.04032,3,0.00784206,11,0.000872058,-2.15241,0.1372,0.430028,118.241,0.1238663,
2,1,0,1,0,3649.64,0.125649,0.125354,7.2304,3,0.00802053,11,0.000906358,-2.14084,0.138552,0.425832,119.952,0.125354,
2,1,0,1,0,3649.66,0.127143,0.126836,7.40486,3,0.00820291,11,0.000939203,-2.13048,0.131893,0.447331,129.39,0.126836,
2,1,0,1,0,3649.69,0.128644,0.128338,7.59298,3,0.00839057,11,0.00097447,-2.11959,0.136642,0.431785,128.204,0.128338,
2,1,0,1,0,3649.71,0.130145,0.129866,7.79591,3,0.00858315,11,0.00101243,-2.10813,0.139538,0.422824,128.652,0.129866,
2,1,0,1,0,3649.74,0.131639,0.131357,7.99773,3,0.00877992,11,0.00105055,-2.09703,0.143849,0.410151,127.736,0.131357,
2,1,0,1,0,3649.76,0.133139,0.132845,8.1917,3,0.0089824,11,0.00108823,-2.08663,0.14581,0.404635,129.215,0.132845,
2,1,0,1,0,3649.79,0.134638,0.134361,8.36904,3,0.00918945,11,0.00112448,-2.07732,0.153861,0.383463,125.381,0.134361,
2,1,0,1,0,3649.81,0.136132,0.13582,8.56445,3,0.00940044,11,0.00116323,-2.0673,0.160207,0.368274,122.945,0.13582,
2,1,0,1,0,3649.84,0.137633,0.137359,8.75296,3,0.00961695,11,0.0012023,-2.05785,0.173519,0.34002,115.83,0.137359,
2,1,0,1,0,3649.86,0.139133,0.13886,8.91998,3,0.00983788,11,0.00123863,-2.04964,0.182507,0.323275,112.277,0.13886,
2,1,0,1,0,3649.89,0.140627,0.140328,9.06326,3,0.0100619,11,0.00127183,-2.04272,0.201539,0.292748,103.573,0.140328,
2,1,0,1,0,3649.91,0.142126,0.141854,9.21712,3,0.0102906,11,0.00130749,-2.0354,0.221291,0.266617,95.8215,0.141854,
2,1,0,1,0,3649.94,0.143626,0.14333,9.36896,3,0.0105231,11,0.00134285,-2.02831,0.247837,0.238059,86.8135,0.14333,
2,1,0,1,0,3649.96,0.145125,0.144887,9.4822,3,0.0107588,11,0.00137385,-2.02309,0.294475,0.200357,73.9785,0.144887,
2,1,0,1,0,3649.99,0.14662,0.146348,9.56546,3,0.0109963,11,0.00139989,-2.01929,0.365914,0.16124,60.1899,0.146348,
2,1,0,1,0,3650.01,0.14812,0.147874,9.65868,3,0.0112368,11,0.00142827,-2.01508,0.502996,0.117297,44.1225,0.147874,
2,1,0,1,0,3650.04,0.149621,0.149316,9.72885,3,0.0114792,11,0.00145267,-2.01194,0.748564,0.0788176,29.8104,0.149316,
2,1,0,1,0,3650.06,0.151116,0.150818,9.75319,3,0.0117218,11,0.00147096,-2.01085,2.08612,0.0282821,10.7267,0.150818,
2,1,0,1,0,3650.09,0.152615,0.152326,9.74298,3,0.0119658,11,0.00148411,-2.01131,-1.87615,-0.0314473,-11.9304,0.152326,
2,1,0,1,0,3650.11,0.154115,0.153804,9.71273,3,0.0122092,11,0.00149386,-2.01266,-0.635148,-0.0928918,-35.1397,0.153804,
2,1,0,1,0,3650.14,0.155614,0.155296,9.65549,3,0.0124514,11,0.00149946,-2.01523,-0.38682,-0.152526,-57.2259,0.155296,
2,1,0,1,0,3650.16,0.157107,0.156832,9.54493,3,0.0126906,11,0.00149695,-2.02023,-0.251777,-0.234334,-86.8547,0.156832,
2,1,0,1,0,3650.19,0.158608,0.158287,9.38529,3,0.0129275,11,0.00148557,-2.02755,-0.177081,-0.333181,-121.528,0.158287,
2,1,0,1,0,3650.21,0.160109,0.159817,9.18164,3,0.0131598,11,0.00146738,-2.03708,-0.134049,-0.440139,-156.992,0.159817,
2,1,0,1,0,3650.24,0.161603,0.161326,8.93723,3,0.0133854,11,0.0014418,-2.0488,-0.111811,-0.527678,-182.921,0.161326,
2,1,0,1,0,3650.26,0.163102,0.162807,8.63563,3,0.0136052,11,0.00140594,-2.06371,-0.0933981,-0.631704,-211.662,0.162807,
2,1,0,1,0,3650.29,0.164602,0.164318,8.29,3,0.0138169,11,0.00136219,-2.08145,-0.0783959,-0.752591,-242.185,0.164318,
2,1,0,1,0,3650.31,0.166096,0.165811,7.9029,3,0.0140187,11,0.00131039,-2.10221,-0.0687133,-0.85864,-263.898,0.165811,
2,1,0,1,0,3650.34,0.167597,0.1673,7.50361,3,0.0142113,11,0.00125535,-2.12473,-0.0629288,-0.937567,-273.492,0.1673,
2,1,0,1,0,3650.36,0.169098,0.168841,7.09014,3,0.0143937,11,0.00119711,-2.14934,-0.0596872,-0.988486,-272.604,0.168841,
2,1,0,1,0,3650.39,0.170592,0.170315,6.66113,3,0.0145649,11,0.00113449,-2.17645,-0.0553305,-1.06632,-277.338,0.170315,
2,1,0,1,0,3650.41,0.17209,0.171829,6.24932,3,0.0147265,11,0.00107381,-2.20417,-0.0553556,-1.06584,-260.897,0.171829,
2,1,0,1,0,3650.44,0.17359,0.173334,5.88956,3,0.0148782,11,0.00102086,-2.22992,-0.0574193,-1.02753,-236.574,0.173334,
2,1,0,1,0,3650.46,0.175089,0.174845,5.54384,3,0.015021,11,0.000969315,-2.25619,-0.0602299,-0.97958,-212.69,0.1748454,
2,1,0,1,0,3650.49,0.176583,0.17631,5.23139,3,0.0151553,11,0.000922346,-2.28138,-0.0647,-0.911901,-187.33,0.17631,
2,1,0,1,0,3650.51,0.178084,0.177856,4.9723,3,0.0152829,11,0.000884353,-2.30344,-0.0683323,-0.863428,-168.436,0.177856,
2,1,0,1,0,3650.54,0.179585,0.179321,4.74817,3,0.0154044,11,0.000851446,-2.32347,-0.0777127,-0.759207,-141.334,0.179321,
2,1,0,1,0,3650.56,0.181079,0.180808,4.55053,3,0.0155201,11,0.000822775,-2.34194,-0.0857144,-0.688333,-122.713,0.1808084,
2,1,0,1,0,3650.59,0.182579,0.182319,4.37934,3,0.0156319,11,0.000798438,-2.35859,-0.0936016,-0.630331,-107.972,0.182319,
2,1,0,1,0,3650.61,0.184078,0.183816,4.22618,3,0.0157395,11,0.000776841,-2.37405,-0.0976763,-0.604036,-100.004,0.183816,
2,1,0,1,0,3650.64,0.185578,0.185306,4.08742,3,0.0158433,11,0.000757421,-2.38855,-0.109462,-0.538999,-86.2189,0.185306,
2,1,0,1,0,3650.66,0.187072,0.186793,3.97011,3,0.0159437,11,0.000741589,-2.4012,-0.126874,-0.465029,-72.0738,0.186793,
2,1,0,1,0,3650.69,0.188573,0.188298,3.85525,3,0.0160416,11,0.000725937,-2.41395,-0.126724,-0.465578,-70.2346,0.1882983,
2,1,0,1,0,3650.71,0.190072,0.189824,3.75403,3,0.0161369,11,0.000712604,-2.4255,-0.127635,-0.462257,-67.8634,0.189824,
2,1,0,1,0,3650.74,0.191567,0.19126,3.6692,3,0.0162293,11,0.00070177,-2.43543,-0.143156,-0.412138,-59.0397,0.19126,
2,1,0,1,0,3650.76,0.193066,0.19279,3.5789,3,0.0163199,11,0.000689978,-2.44625,-0.170486,-0.346069,-48.4567,0.19279,
2,1,0,1,0,3650.79,0.194566,0.19429,3.50679,3,0.0164087,11,0.000681333,-2.45509,-0.170764,-0.345505,-47.3961,0.19429,
2,1,0,1,0,3650.81,0.19606,0.195806,3.44057,3,0.0164953,11,0.000673686,-2.46337,-0.159463,-0.369992,-49.6981,0.1958064,
2,1,0,1,0,3650.84,0.197561,0.197313,3.36957,3,0.0165805,11,0.000664861,-2.47243,-0.178313,-0.330879,-43.5366,0.197313,
2,1,0,1,0,3650.86,0.199062,0.198801,3.31487,3,0.0166641,11,0.000659001,-2.47953,-0.204835,-0.288037,-37.2549,0.198801,
2,1,0,1,0,3650.89,0.200556,0.200268,3.25567,3,0.0167459,11,0.000652008,-2.48736,-0.219568,-0.268709,-34.1911,0.200268,
2,1,0,1,0,3650.91,0.202055,0.201796,3.2111,3,0.0168268,11,0.000647988,-2.49335,-0.205362,-0.287297,-35.9853,0.201796,
2,1,0,1,0,3650.94,0.203553,0.203319,3.15844,3,0.0169066,11,0.000642169,-2.50053,-0.243905,-0.241897,-29.8694,0.203319,
2,1,0,1,0,3650.96,0.205053,0.204751,3.11396,3,0.016985,11,0.000637588,-2.50669,-0.33587,-0.175663,-21.4688,0.204751,
2,1,0,1,0,3650.99,0.206547,0.206284,3.07267,3,0.0170623,11,0.000633842,-2.51248,-0.313041,-0.188474,-22.6885,0.206284,
2,1,0,1,0,3651.01,0.208048,0.2078,3.05014,3,0.0171392,11,0.00063382,-2.51568,-0.269945,-0.218563,-25.9629,0.2078,
2,1,0,1,0,3651.04,0.209549,0.209274,3.02058,3,0.017215,11,0.00063213,-2.51991,-0.267182,-0.220824,-25.9804,0.209274,
2,1,0,1,0,3651.06,0.211043,0.21078,2.97694,3,0.0172896,11,0.00062748,-2.52623,-0.357013,-0.16526,-19.2346,0.21078,
2,1,0,1,0,3651.09,0.212543,0.212248,2.94201,3,0.0173638,11,0.000624434,-2.53136,-0.393551,-0.149917,-17.2743,0.212248,
2,1,0,1,0,3651.11,0.214042,0.213777,2.91802,3,0.0174373,11,0.000623806,-2.53491,-0.34308,-0.171971,-19.6351,0.213777,
2,1,0,1,0,3651.14,0.215536,0.215293,2.90452,3,0.0175098,11,0.000625324,-2.53692,-0.376002,-0.156914,-17.7198,0.215293,
2,1,0,1,0,3651.16,0.217036,0.216723,2.86374,3,0.0175819,11,0.000620637,-2.54307,-0.541994,-0.108857,-12.2127,0.216723,
2,1,0,1,0,3651.19,0.218537,0.218248,2.8466,3,0.0176535,11,0.000621265,-2.54567,-0.653868,-0.0902323,-10.0448,0.218248,
2,1,0,1,0,3651.21,0.220031,0.219764,2.83183,3,0.0177243,11,0.000622334,-2.54793,-0.459126,-0.128505,-14.1931,0.219764,
2,1,0,1,0,3651.24,0.22153,0.221271,2.81497,3,0.0177951,11,0.00062287,-2.55053,-0.430958,-0.136904,-14.9973,0.221271,
2,1,0,1,0,3651.26,0.22303,0.22279,2.78433,3,0.0178652,11,0.000620322,-2.55528,-0.590014,-0.0999977,-10.9066,0.22279,
2,1,0,1,0,3651.29,0.224529,0.224256,2.76762,3,0.0179347,11,0.000620655,-2.55789,-0.582638,-0.101264,-10.9731,0.224256,
2,1,0,1,0,3651.31,0.226024,0.225728,2.75522,3,0.0180037,11,0.000621931,-2.55984,-0.556025,-0.10611,-11.4205,0.225728,
2,1,0,1,0,3651.34,0.227525,0.227227,2.74957,3,0.0180726,11,0.000624778,-2.56073,-0.460145,-0.12822,-13.6862,0.227227,
2,1,0,1,0,3651.36,0.229025,0.22878,2.72917,3,0.018141,11,0.00062438,-2.56397,-0.707278,-0.0834184,-8.87534,0.22878,
2,1,0,1,0,3651.39,0.23052,0.230299,2.70579,3,0.0182088,11,0.000623141,-2.56771,-0.818076,-0.0721205,-7.64571,0.230299,
2,1,0,1,0,3651.41,0.232019,0.231717,2.69907,3,0.0182765,11,0.000625421,-2.56879,-0.547685,-0.107726,-11.36,0.231717,
2,1,0,1,0,3651.44,0.233519,0.233239,2.69373,3,0.018344,11,0.000628283,-2.56965,-0.68428,-0.0862221,-9.03377,0.233239,
2,1,0,1,0,3651.46,0.235018,0.234761,2.67531,3,0.0184111,11,0.000628057,-2.57263,-0.8532,-0.0691515,-7.2181,0.234761,
2,1,0,1,0,3651.49,0.236511,0.236235,2.65551,3,0.0184775,11,0.000627324,-2.57585,-1.07209,-0.0550328,-5.72541,0.2362351,
2,1,0,1,0,3651.51,0.238012,0.237784,2.6476,3,0.018544,11,0.000629558,-2.57715,-0.771751,-0.0764495,-7.89325,0.237784,
2,1,0,1,0,3651.54,0.239513,0.239246,2.65064,3,0.0186103,11,0.000634156,-2.57665,-0.964893,-0.0611467,-6.29407,0.239246,
2,1,0,1,0,3651.56,0.241007,0.240777,2.63065,3,0.018676,11,0.000633402,-2.57994,-0.880583,-0.067001,-6.87229,0.240777,
2,1,0,1,0,3651.59,0.242506,0.242232,2.60918,3,0.0187417,11,0.000632026,-2.5835,-0.943742,-0.0625171,-6.39886,0.242232,
2,1,0,1,0,3651.61,0.244006,0.243728,2.60976,3,0.0188071,11,0.000636072,-2.5834,-0.946233,-0.0623525,-6.36061,0.243728,
2,1,0,1,0,3651.64,0.2455,0.245251,2.61378,3,0.0188721,11,0.000641032,-2.58273,-0.9893,-0.0596381,-6.04527,0.2452511,
2,1,0,1,0,3651.66,0.247001,0.24678,2.59743,3,0.0189372,11,0.000640993,-2.58546,-1.05054,-0.0561618,-5.66905,0.24678,
2,1,0,1,0,3651.69,0.248502,0.24826,2.57551,3,0.019002,11,0.000639397,-2.58914,-1.14629,-0.0514702,-5.19253,0.24826,
2,1,0,1,0,3651.71,0.249995,0.249695,2.5679,3,0.0190662,11,0.000641191,-2.59042,-0.915388,-0.0644535,-6.48085,0.249695,
2,1,0,1,0,3651.74,0.251494,0.251202,2.56962,3,0.0191305,11,0.000645494,-2.59013,-1.05562,-0.0558915,-5.59681,0.2512019,
2,1,0,1,0,3651.76,0.252994,0.252738,2.55786,3,0.0191947,11,0.00064647,-2.59212,-1.09182,-0.0540382,-5.38477,0.252738,
2,1,0,1,0,3651.79,0.254493,0.25424,2.542,3,0.0192587,11,0.000646278,-2.59482,-1.2738,-0.046318,-4.62126,0.25424,
2,1,0,1,0,3651.81,0.255988,0.255685,2.53992,3,0.0193221,11,0.000649421,-2.59518,-0.8165,-0.0722597,-7.17588,0.255685,
2,1,0,1,0,3651.84,0.257488,0.257213,2.53918,3,0.0193857,11,0.00065311,-2.59531,-1.19169,-0.0495094,-4.88855,0.257213,
2,1,0,1,0,3651.86,0.258989,0.258781,2.53586,3,0.0194491,11,0.000656232,-2.59588,-2.24344,-0.0262989,-2.59325,0.258781,
2,1,0,1,0,3651.89,0.260483,0.26029,2.51909,3,0.0195122,11,0.000655694,-2.59876,-0.994845,-0.0593057,-5.8341,0.26029,
2,1,0,1,0,3651.91,0.261983,0.261719,2.50723,3,0.0195751,11,0.000656192,-2.6008,-0.856595,-0.0688774,-6.7691,0.261719,
2,1,0,1,0,3651.94,0.263482,0.263172,2.5119,3,0.0196379,11,0.000661063,-2.6,-2.49435,-0.0236534,-2.31016,0.263172,
2,1,0,1,0,3651.96,0.264982,0.264717,2.50291,3,0.0197006,11,0.000662562,-2.60155,-4.07745,-0.0144698,-1.41163,0.264717,
2,1,0,1,0,3651.99,0.266476,0.266218,2.48769,3,0.0197629,11,0.00066227,-2.6042,-1.38217,-0.0426866,-4.15649,0.266218,
2,1,0,1,0,3652.01,0.267976,0.2677,2.47442,3,0.0198252,11,0.000662403,-2.60653,-1.0611,-0.0556027,-5.39771,0.2677,
2,1,0,1,0,3652.04,0.269477,0.269189,2.48544,3,0.0198873,11,0.000669053,-2.6046,-1.82701,-0.0322931,-3.12267,0.269189,
2,1,0,1,0,3652.06,0.270971,0.270728,2.48216,3,0.0199491,11,0.00067199,-2.60517,-2.05564,-0.0287015,-2.76727,0.270728,
2,1,0,1,0,3652.09,0.27247,0.272203,2.46657,3,0.0200111,11,0.000671409,-2.60791,-1.15335,-0.0511553,-4.92464,0.272203,
2,1,0,1,0,3652.11,0.27397,0.273689,2.45199,3,0.0200728,11,0.000671082,-2.61048,-0.821568,-0.0718139,-6.90423,0.273689,
2,1,0,1,0,3652.14,0.275464,0.275183,2.45574,3,0.020134,11,0.000675778,-2.60982,-1.18269,-0.0498861,-4.78136,0.275183,
2,1,0,1,0,3652.16,0.276965,0.27674,2.45323,3,0.0201954,11,0.000678905,-2.61026,-2.5074,-0.0235304,-2.24874,0.2767399,
2,1,0,1,0,3652.19,0.278466,0.278217,2.43994,3,0.0202566,11,0.000678832,-2.61262,-1.34596,-0.043835,-4.17611,0.278217,
2,1,0,1,0,3652.21,0.27996,0.279728,2.43505,3,0.0203175,11,0.000681153,-2.61349,-0.888947,-0.0663706,-6.30947,0.279728,
2,1,0,1,0,3652.24,0.281458,0.281199,2.43069,3,0.0203783,11,0.000683509,-2.61427,-1.33932,-0.0440523,-4.17731,0.281199,
2,1,0,1,0,3652.26,0.282958,0.282674,2.42476,3,0.0204391,11,0.000685416,-2.61533,5.46915,0.0107878,1.02005,0.282674,
2,1,0,1,0,3652.29,0.284457,0.284143,2.41501,3,0.0204998,11,0.00068621,-2.61708,-3.34109,-0.0176589,-1.6695,0.284143,
2,1,0,1,0,3652.31,0.285951,0.285727,2.40986,3,0.0205601,11,0.000688562,-2.61801,-0.801723,-0.0735915,-6.93536,0.285727,
2,1,0,1,0,3652.34,0.287452,0.287199,2.40619,3,0.0206204,11,0.000691055,-2.61867,-1.33518,-0.044189,-4.15233,0.287199,
2,1,0,1,0,3652.36,0.288953,0.288693,2.40293,3,0.0206806,11,0.000693708,-2.61926,4.92891,0.0119702,1.11997,0.2886928,
2,1,0,1,0,3652.39,0.290447,0.290195,2.39068,3,0.0207404,11,0.000693764,-2.62148,-1.91735,-0.0307716,-2.87945,0.290195,
2,1,0,1,0,3652.41,0.291947,0.291675,2.3878,3,0.0208004,11,0.000696461,-2.622,-0.783015,-0.0753498,-7.03386,0.291675,
2,1,0,1,0,3652.44,0.293446,0.293195,2.37938,3,0.0208602,11,0.000697624,-2.62354,-1.10847,-0.0532263,-4.9529,0.293195,
2,1,0,1,0,3652.46,0.29494,0.294643,2.38281,3,0.0209195,11,0.000702079,-2.62291,-12.544,-0.00470344,-0.43713,0.294643,
2,1,0,1,0,3652.49,0.29644,0.296179,2.37571,3,0.0209791,11,0.000703636,-2.62421,-2.47238,-0.0238636,-2.21023,0.296179,
2,1,0,1,0,3652.51,0.297941,0.297688,2.36809,3,0.0210386,11,0.000704952,-2.6256,-0.792657,-0.0744332,-6.88701,0.297688,
2,1,0,1,0,3652.54,0.29944,0.299196,2.36802,3,0.0210978,11,0.000708504,-2.62561,-0.00308004,-19.1556,-968.027,0.299196,
2,1,0,1,0,3652.55,0.299736,0.299499,1.60972,3,0.0211273,11,0.000482111,-2.79325,0.00182506,32.3278,2391.77,0.299499,
2,0,0,1,0,3652.58,0.298238,0.29799,-0.312055,3,0.0211373,11,-9.29893e-05,-3.50577,0.00762292,7.73982,841.624,0.29799,
2,0,0,1,0,3652.6,0.296744,0.296478,-0.704017,3,0.0211234,11,-0.000208725,-3.15242,-0.00226339,-26.0671,213.783,0.296478,
2,0,0,1,0,3652.63,0.295243,0.294945,-0.831434,3,0.0211039,11,-0.000245228,-3.08017,-0.0261334,-2.25765,66.6164,0.294945,
2,0,0,1,0,3652.65,0.293742,0.293447,-0.895713,3,0.0210823,11,-0.000262845,-3.04783,-0.0492078,-1.199,40.8867,0.293447,
2,0,0,1,0,3652.68,0.292248,0.291925,-0.93728,3,0.0210594,11,-0.000273616,-3.02813,-0.0608695,-0.969288,35.4476,0.291925,
2,0,0,1,0,3652.7,0.290748,0.290506,-0.98812,3,0.0210352,11,-0.000287055,-3.00519,-0.0737659,-0.799828,30.7657,0.2905063,
2,0,0,1,0,3652.73,0.289249,0.288942,-1.03872,3,0.0210097,11,-0.00030013,-2.9835,-0.0876977,-0.672766,27.0483,0.288942,
2,0,0,1,0,3652.75,0.287754,0.287407,-1.07637,3,0.0209834,11,-0.000309355,-2.96804,-0.0913583,-0.645809,26.928,0.287407,
2,0,0,1,0,3652.77,0.286254,0.285965,-1.10381,3,0.020956,11,-0.000315652,-2.95711,-0.102694,-0.574524,24.899,0.285965,
2,0,0,1,0,3652.8,0.284754,0.284486,-1.14083,3,0.0209278,11,-0.000324549,-2.94278,-0.113691,-0.518951,23.1694,0.284486,
2,0,0,1,0,3652.82,0.28326,0.282993,-1.18288,3,0.0208988,11,-0.000334747,-2.92706,-0.126971,-0.464674,21.274,0.282993,
2,0,0,1,0,3652.85,0.28176,0.281451,-1.21458,3,0.0208688,11,-0.000341845,-2.91557,-0.144515,-0.408261,19.1035,0.2814514,
2,0,0,1,0,3652.87,0.280261,0.279984,-1.22401,3,0.0208381,11,-0.000342703,-2.91222,-0.14241,-0.414297,20.0263,0.279984,
2,0,0,1,0,3652.9,0.278761,0.278477,-1.25664,3,0.0208069,11,-0.000349944,-2.90079,-0.183827,-0.320954,15.8564,0.278477,
2,0,0,1,0,3652.92,0.277267,0.276972,-1.29175,3,0.020775,11,-0.000357778,-2.88882,-0.190753,-0.309301,15.5407,0.276972,
2,0,0,1,0,3652.95,0.275766,0.275459,-1.31774,3,0.0207424,11,-0.000362983,-2.88017,-0.188114,-0.31364,15.9574,0.275459,
2,0,0,1,0,3652.97,0.274265,0.27395,-1.3352,3,0.0207091,11,-0.000365778,-2.87445,-0.181615,-0.324862,16.9808,0.27395,
2,0,0,1,0,3653,0.272771,0.272475,-1.35157,3,0.0206755,11,-0.00036827,-2.86916,-0.22542,-0.261734,13.9183,0.272475,
2,0,0,1,0,3653.02,0.271272,0.270911,-1.38723,3,0.0206412,11,-0.000375818,-2.85785,-0.22391,-0.263499,14.1923,0.270911,
2,0,0,1,0,3653.05,0.269772,0.269465,-1.41272,3,0.0206062,11,-0.000380678,-2.84994,-0.190562,-0.309611,16.8991,0.269465,
2,0,0,1,0,3653.07,0.268273,0.267952,-1.42494,3,0.0205707,11,-0.000381816,-2.8462,-0.241335,-0.244473,13.6116,0.267952,
2,0,0,1,0,3653.1,0.26678,0.266487,-1.43168,3,0.020535,11,-0.000381525,-2.84415,-0.263183,-0.224179,12.6656,0.266487,
2,0,0,1,0,3653.12,0.265279,0.264944,-1.46421,3,0.0204987,11,-0.000387934,-2.8344,-0.226201,-0.26083,14.85,0.264944,
2,0,0,1,0,3653.15,0.263778,0.263494,-1.48681,3,0.0204617,11,-0.000391765,-2.82775,-0.240745,-0.245072,14.1337,0.263494,
2,0,0,1,0,3653.17,0.262284,0.261962,-1.49925,3,0.0204244,11,-0.000392748,-2.82412,-0.287882,-0.204945,12.0043,0.261962,
2,0,0,1,0,3653.2,0.260784,0.26048,-1.50594,3,0.0203866,11,-0.000392266,-2.82219,-0.313128,-0.188421,11.1924,0.26048,
2,0,0,1,0,3653.22,0.259285,0.258978,-1.5368,3,0.0203484,11,-0.000397997,-2.81338,-0.298482,-0.197667,11.8878,0.258978,
2,0,0,1,0,3653.25,0.257791,0.257495,-1.56507,3,0.0203097,11,-0.000402998,-2.80547,-0.262779,-0.224523,13.6008,0.257495,
2,0,0,1,0,3653.27,0.25629,0.255991,-1.57349,3,0.0202704,11,-0.0004028,-2.80314,-0.35181,-0.167704,10.2863,0.255991,
2,0,0,1,0,3653.3,0.254789,0.25452,-1.58524,3,0.0202308,11,-0.000403475,-2.79991,-0.386511,-0.152648,9.48874,0.25452,
2,0,0,1,0,3653.32,0.253296,0.252981,-1.60808,3,0.020191,11,-0.000406813,-2.79369,-0.353294,-0.167,10.4809,0.252981,
2,0,0,1,0,3653.35,0.251797,0.251523,-1.62811,3,0.0201505,11,-0.000409507,-2.78832,-0.258264,-0.228448,14.4717,0.251523,
2,0,0,1,0,3653.37,0.250297,0.25001,-1.63223,3,0.0201095,11,-0.000408073,-2.78722,-0.325116,-0.181474,11.626,0.25001,
2,0,0,1,0,3653.4,0.248797,0.248503,-1.65292,3,0.0200682,11,-0.000410755,-2.78175,-0.433188,-0.1362,8.8234,0.248503,
2,0,0,1,0,3653.42,0.247303,0.246992,-1.67319,3,0.0200267,11,-0.000413265,-2.77645,-0.481381,-0.122564,8.00647,0.246992,
2,0,0,1,0,3653.45,0.245802,0.245536,-1.69744,3,0.0199846,11,-0.000416781,-2.77021,-0.276165,-0.21364,14.0435,0.245536,
2,0,0,1,0,3653.47,0.244302,0.244043,-1.70969,3,0.0199419,11,-0.000417237,-2.76708,-0.281004,-0.209961,13.9889,0.244043,
2,0,0,1,0,3653.5,0.242807,0.242504,-1.71828,3,0.0198991,11,-0.000416691,-2.7649,-0.556283,-0.106061,7.1504,0.2425043,
2,0,0,1,0,3653.52,0.241308,0.241,-1.73787,3,0.0198558,11,-0.000418826,-2.75998,-0.502414,-0.117433,7.97259,0.241,
2,0,0,1,0,3653.55,0.239808,0.239518,-1.76204,3,0.019812,11,-0.000422041,-2.75398,-0.2872,-0.205432,14.0549,0.2395179,
2,0,0,1,0,3653.57,0.238309,0.237988,-1.7678,3,0.0197678,11,-0.000420715,-2.75257,-0.316333,-0.186513,12.9138,0.237988,
2,0,0,1,0,3653.6,0.236815,0.236474,-1.78532,3,0.0197234,11,-0.000422181,-2.74828,-0.425978,-0.138505,9.66508,0.236474,
2,0,0,1,0,3653.62,0.235315,0.235037,-1.80177,3,0.0196784,11,-0.000423483,-2.7443,-0.448712,-0.131487,9.25139,0.235037,
2,0,0,1,0,3653.65,0.233814,0.233469,-1.82787,3,0.019633,11,-0.000426751,-2.73806,-0.299451,-0.197027,13.9975,0.233469,
2,0,0,1,0,3653.67,0.23232,0.232025,-1.84024,3,0.0195873,11,-0.000426983,-2.73512,-0.324692,-0.18171,13.0519,0.232025,
2,0,0,1,0,3653.7,0.230821,0.230538,-1.85259,3,0.019541,11,-0.000427092,-2.73222,-0.563202,-0.104758,7.57869,0.230538,
2,0,0,1,0,3653.72,0.229321,0.228995,-1.87563,3,0.0194942,11,-0.000429508,-2.72685,-0.508772,-0.115965,8.48515,0.228995,
2,0,0,1,0,3653.75,0.227827,0.227536,-1.89817,3,0.0194473,11,-0.000431902,-2.72166,-0.346452,-0.170298,12.5739,0.227536,
2,0,0,1,0,3653.77,0.226326,0.226077,-1.90989,3,0.0193997,11,-0.000431781,-2.71899,-0.302525,-0.195025,14.5353,0.226077,
2,0,0,1,0,3653.8,0.224825,0.224553,-1.92593,3,0.0193516,11,-0.000432474,-2.71536,-0.526419,-0.112078,8.42919,0.224553,
2,0,0,1,0,3653.82,0.223331,0.223027,-1.95046,3,0.0193033,11,-0.000435005,-2.70986,-0.476142,-0.123913,9.39556,0.223027,
2,0,0,1,0,3653.85,0.221831,0.221569,-1.9713,3,0.0192544,11,-0.000436779,-2.70525,-0.302284,-0.195181,14.9542,0.221569,
2,0,0,1,0,3653.87,0.220333,0.220056,-1.9805,3,0.019205,11,-0.00043582,-2.70323,-0.241216,-0.244594,18.9423,0.220056,
2,0,0,1,0,3653.9,0.218834,0.218529,-2.00018,3,0.019155,11,-0.000437096,-2.69893,-0.375071,-0.157304,12.3397,0.218529,
2,0,0,1,0,3653.92,0.217339,0.217074,-2.02968,3,0.0191046,11,-0.00044059,-2.69257,-0.507946,-0.116154,9.19219,0.217074,
2,0,0,1,0,3653.95,0.215839,0.215592,-2.04229,3,0.0190537,11,-0.000440302,-2.68988,-0.323217,-0.18254,14.5881,0.215592,
2,0,0,1,0,3653.97,0.214338,0.213988,-2.06635,3,0.0190022,11,-0.000442175,-2.6848,-0.253767,-0.232497,18.7376,0.213988,
2,0,0,1,0,3654,0.212844,0.212574,-2.0887,3,0.0189503,11,-0.000444005,-2.68012,-0.309521,-0.190617,15.5664,0.212574,
2,0,0,1,0,3654.02,0.211344,0.211047,-2.11543,3,0.0188977,11,-0.000446456,-2.6746,-0.425283,-0.138731,11.4276,0.211047,
2,0,0,1,0,3654.05,0.209845,0.209584,-2.13649,3,0.0188444,11,-0.000447773,-2.6703,-0.297022,-0.198638,16.5478,0.209584,
2,0,0,1,0,3654.07,0.20835,0.208019,-2.15942,3,0.0187909,11,-0.000449202,-2.66566,-0.223282,-0.26424,22.4197,0.208019,
2,0,0,1,0,3654.1,0.206851,0.206533,-2.19698,3,0.0187364,11,-0.000453749,-2.65817,-0.272884,-0.216209,18.4935,0.2065327,
2,0,0,1,0,3654.12,0.20535,0.205022,-2.22329,3,0.018681,11,-0.000455823,-2.653,-0.363443,-0.162336,14.0214,0.205022,
2,0,0,1,0,3654.15,0.203856,0.203487,-2.24998,3,0.0186252,11,-0.000457841,-2.64782,-0.288823,-0.204277,17.9071,0.203487,
2,0,0,1,0,3654.17,0.202356,0.20202,-2.26754,3,0.0185688,11,-0.000458087,-2.64445,-0.239699,-0.246143,21.9083,0.20202,
2,0,0,1,0,3654.2,0.200857,0.200525,-2.30057,3,0.0185115,11,-0.000461321,-2.63816,-0.232578,-0.253679,22.8632,0.200525,
2,0,0,1,0,3654.22,0.199357,0.199053,-2.3416,3,0.0184533,11,-0.000466101,-2.63049,-0.273825,-0.215466,19.6526,0.199053,
2,0,0,1,0,3654.25,0.197863,0.197529,-2.38067,3,0.0183945,11,-0.000470251,-2.6233,-0.245241,-0.24058,22.2522,0.197529,
2,0,0,1,0,3654.27,0.196362,0.196093,-2.40735,3,0.0183347,11,-0.000472065,-2.61846,-0.198243,-0.297615,28.0087,0.196093,
2,0,0,1,0,3654.3,0.194861,0.194557,-2.44633,3,0.018274,11,-0.000475949,-2.61149,-0.198601,-0.297078,28.3806,0.194557,
2,0,0,1,0,3654.32,0.193367,0.193021,-2.49581,3,0.0182123,11,-0.000481742,-2.60279,-0.223619,-0.263841,25.6262,0.193021,
2,0,0,1,0,3654.35,0.191868,0.191586,-2.5394,3,0.0181493,11,-0.000486515,-2.59527,-0.20627,-0.286034,28.3102,0.191586,
2,0,0,1,0,3654.37,0.190368,0.190059,-2.56515,3,0.0180854,11,-0.000487531,-2.59089,-0.177505,-0.332385,33.5515,0.190059,
2,0,0,1,0,3654.4,0.18887,0.18854,-2.61674,3,0.0180204,11,-0.000493361,-2.58224,-0.175398,-0.336378,34.5515,0.18854,
2,0,0,1,0,3654.42,0.187376,0.187112,-2.68152,3,0.0179542,11,-0.000501746,-2.57162,-0.175076,-0.336997,35.1999,0.187112,
2,0,0,1,0,3654.45,0.185875,0.185525,-2.74088,3,0.0178865,11,-0.000508501,-2.56211,-0.172559,-0.341913,36.4136,0.185525,
2,0,0,1,0,3654.47,0.184374,0.184051,-2.78434,3,0.0178173,11,-0.00051246,-2.55528,-0.152051,-0.388028,42.3065,0.184051,
2,0,0,1,0,3654.5,0.18288,0.182618,-2.84854,3,0.0177471,11,-0.000520194,-2.54538,-0.145829,-0.404583,45.2275,0.182618,
2,0,0,1,0,3654.52,0.18138,0.181087,-2.92584,3,0.0176748,11,-0.000529831,-2.53375,-0.145404,-0.405766,46.3401,0.181087,
2,0,0,1,0,3654.55,0.179881,0.179565,-3.0029,3,0.0176005,11,-0.000539217,-2.52246,-0.138066,-0.427331,49.9635,0.179565,
2,0,0,1,0,3654.57,0.178387,0.178066,-3.07282,3,0.0175248,11,-0.000547165,-2.51246,-0.128846,-0.45791,55.0938,0.178066,
2,0,0,1,0,3654.6,0.176886,0.17658,-3.15617,3,0.0174469,11,-0.000557317,-2.50084,-0.128525,-0.459056,56.7379,0.17658,
2,0,0,1,0,3654.62,0.175385,0.175047,-3.25708,3,0.0173667,11,-0.000570141,-2.48717,-0.118323,-0.498634,63.204,0.175047,
2,0,0,1,0,3654.65,0.173892,0.173584,-3.35086,3,0.0172845,11,-0.000581655,-2.47484,-0.110972,-0.531663,69.4223,0.173584,
2,0,0,1,0,3654.67,0.172392,0.172127,-3.45087,3,0.0171994,11,-0.000593989,-2.46207,-0.107455,-0.549066,74.1024,0.172127,
2,0,0,1,0,3654.7,0.170893,0.170623,-3.55326,3,0.0171117,11,-0.00060627,-2.44937,-0.10482,-0.562869,78.5303,0.170623,
2,0,0,1,0,3654.72,0.169393,0.169081,-3.68567,3,0.017021,11,-0.000623176,-2.43348,-0.0977279,-0.603717,87.0544,0.169081,
2,0,0,1,0,3654.75,0.167899,0.167612,-3.83285,3,0.0169273,11,-0.000642433,-2.41648,-0.0928259,-0.635599,95.0966,0.167612,
2,0,0,1,0,3654.77,0.166398,0.166102,-3.97458,3,0.0168296,11,-0.000660184,-2.40071,-0.0903686,-0.652882,101.391,0.166102,
2,0,0,1,0,3654.8,0.164898,0.16458,-4.11824,3,0.0167282,11,-0.00067778,-2.38529,-0.0883475,-0.667817,107.932,0.16458,
2,0,0,1,0,3654.82,0.163403,0.163134,-4.29806,3,0.0166233,11,-0.00070116,-2.36673,-0.0861389,-0.68494,115.154,0.163134,
2,0,0,1,0,3654.85,0.161904,0.16158,-4.4931,3,0.0165134,11,-0.000725995,-2.34745,-0.080478,-0.733119,128.457,0.16158,
2,0,0,1,0,3654.87,0.160404,0.160123,-4.67926,3,0.0163987,11,-0.000749257,-2.32982,-0.0791935,-0.745011,136.23,0.1601229,
2,0,0,1,0,3654.9,0.158905,0.15856,-4.8818,3,0.016279,11,-0.000774057,-2.31142,-0.0777743,-0.758605,145.039,0.15856,
2,0,0,1,0,3654.92,0.157411,0.157117,-5.10863,3,0.0161545,11,-0.000802654,-2.2917,-0.0774852,-0.761436,152.31,0.157117,
2,0,0,1,0,3654.95,0.155911,0.155602,-5.3552,3,0.0160236,11,-0.000833279,-2.27122,-0.074531,-0.791617,165.469,0.155602,
2,0,0,1,0,3654.97,0.15441,0.154103,-5.6086,3,0.0158864,11,-0.000864304,-2.25115,-0.0764732,-0.771512,168.404,0.154103,
2,0,0,1,0,3655,0.152916,0.152608,-5.85448,3,0.0157434,11,-0.000893444,-2.23251,-0.0784952,-0.751638,172.059,0.152608,
2,0,0,1,0,3655.02,0.151417,0.151109,-6.11202,3,0.0155939,11,-0.000923581,-2.21382,-0.0791927,-0.745018,178.212,0.151109,
2,0,0,1,0,3655.05,0.149917,0.149632,-6.40271,3,0.0154373,11,-0.000958052,-2.19364,-0.0759688,-0.776634,193.636,0.149632,
2,0,0,1,0,3655.07,0.148423,0.14811,-6.68938,3,0.0152743,11,-0.000990764,-2.17461,-0.0802395,-0.735299,191.522,0.14811,
2,0,0,1,0,3655.1,0.146922,0.146628,-6.96246,3,0.0151035,11,-0.00102089,-2.15724,-0.0880501,-0.670073,181.965,0.146628,
2,0,0,1,0,3655.12,0.145421,0.145131,-7.23597,3,0.0149259,11,-0.00105016,-2.1405,-0.0912925,-0.646275,182.4,0.145131,
2,0,0,1,0,3655.15,0.143927,0.143629,-7.51619,3,0.0147421,11,-0.00107954,-2.124,-0.0936929,-0.629717,184.222,0.143629,
2,0,0,1,0,3655.17,0.142429,0.142104,-7.78714,3,0.0145507,11,-0.00110658,-2.10862,-0.0997941,-0.591217,179.309,0.142104,
2,0,0,1,0,3655.2,0.140929,0.14066,-8.03562,3,0.0143527,11,-0.00113029,-2.09498,-0.113934,-0.517846,162.176,0.14066,
2,0,0,1,0,3655.22,0.13943,0.139146,-8.27401,3,0.0141485,11,-0.00115129,-2.08228,-0.123984,-0.47587,153.624,0.139146,
2,0,0,1,0,3655.25,0.137935,0.137678,-8.51801,3,0.0139393,11,-0.00117274,-2.06966,-0.131287,-0.449396,149.044,0.137678,
2,0,0,1,0,3655.27,0.136435,0.136146,-8.73505,3,0.0137235,11,-0.00118924,-2.05873,-0.138515,-0.425946,144.873,0.136146,
2,0,0,1,0,3655.3,0.134934,0.134588,-8.93638,3,0.0135025,11,-0.00120273,-2.04884,-0.164845,-0.357912,124.517,0.134588,
2,0,0,1,0,3655.32,0.13344,0.133158,-9.12059,3,0.0132774,11,-0.00121448,-2.03998,-0.190736,-0.309329,109.796,0.133158,
2,0,0,1,0,3655.35,0.13194,0.131638,-9.27603,3,0.0130475,11,-0.00122108,-2.03264,-0.218186,-0.270411,97.679,0.131638,
2,0,0,1,0,3655.37,0.13044,0.130117,-9.407,3,0.0128138,11,-0.00122401,-2.02655,-0.251672,-0.234432,85.9048,0.130117,
2,0,0,1,0,3655.4,0.128941,0.128665,-9.5201,3,0.0125769,11,-0.0012249,-2.02136,-0.330206,-0.178677,66.2605,0.128665,
2,0,0,1,0,3655.42,0.127447,0.127174,-9.61635,3,0.0123385,11,-0.00122295,-2.01699,-0.486803,-0.121199,45.3424,0.127174,
2,0,0,1,0,3655.45,0.125946,0.125627,-9.67612,3,0.0120974,11,-0.00121558,-2.0143,-0.695733,-0.0848026,31.9144,0.125627,
2,0,0,1,0,3655.47,0.124446,0.124146,-9.70346,3,0.0118551,11,-0.00120465,-2.01307,-1.28999,-0.0457368,17.2762,0.124146,
2,0,0,1,0,3655.5,0.122952,0.122654,-9.70717,3,0.0116132,11,-0.00119062,-2.01291,4.36722,0.0135097,-5.10771,0.122654,
2,0,0,1,0,3655.52,0.121453,0.121162,-9.68974,3,0.0113705,11,-0.00117403,-2.01369,0.729719,0.080853,-30.479,0.121162,
2,0,0,1,0,3655.55,0.119953,0.119673,-9.62785,3,0.0111289,11,-0.0011522,-2.01647,0.48809,0.120879,-45.315,0.119673,
2,0,0,1,0,3655.57,0.118459,0.118177,-9.54405,3,0.0108902,11,-0.00112789,-2.02027,0.379481,0.155475,-57.7999,0.118177,
2,0,0,1,0,3655.6,0.116958,0.116641,-9.43945,3,0.0106527,11,-0.00110102,-2.02505,0.266925,0.221036,-81.2132,0.116641,
2,0,0,1,0,3655.62,0.115457,0.115126,-9.30504,3,0.0104182,11,-0.00107125,-2.03128,0.20441,0.288636,-104.439,0.115126,
2,0,0,1,0,3655.65,0.113963,0.113665,-9.13624,3,0.0101885,11,-0.00103847,-2.03923,0.179514,0.328664,-116.869,0.113665,
2,0,0,1,0,3655.67,0.112464,0.112166,-8.9464,3,0.0099624,11,-0.00100348,-2.04835,0.159843,0.369113,-128.65,0.112166,
2,0,0,1,0,3655.7,0.110965,0.110624,-8.73115,3,0.0097412,11,-0.000965873,-2.05893,0.144229,0.409071,-139.324,0.110624,
2,0,0,1,0,3655.72,0.109466,0.109154,-8.51723,3,0.00952534,11,-0.000929688,-2.0697,0.125763,0.469137,-155.757,0.109154,
2,0,0,1,0,3655.75,0.107972,0.10765,-8.29614,3,0.00931592,11,-0.000893076,-2.08112,0.122897,0.480079,-155.213,0.10765,
2,0,0,1,0,3655.77,0.106471,0.106177,-8.05577,3,0.00911158,11,-0.00085534,-2.09389,0.124626,0.473416,-148.99,0.106177,
2,0,0,1,0,3655.8,0.10497,0.104658,-7.829,3,0.00891291,11,-0.000819367,-2.10629,0.121961,0.483763,-147.957,0.104658,
2,0,0,1,0,3655.82,0.103476,0.103187,-7.62102,3,0.00872045,11,-0.000786388,-2.11799,0.121196,0.486817,-144.747,0.103187,
2,0,0,1,0,3655.85,0.101976,0.101648,-7.4132,3,0.0085325,11,-0.000753534,-2.12999,0.126719,0.465597,-134.707,0.101648,
2,0,0,1,0,3655.87,0.100477,0.100129,-7.21105,3,0.0083498,11,-0.000722035,-2.142,0.13395,0.440464,-124.231,0.1001289,
2,0,0,1,0,3655.9,0.0989825,0.0986537,-7.02519,3,0.00817252,11,-0.000693061,-2.15334,0.141841,0.415958,-114.334,0.0986537,
2,0,0,1,0,3655.92,0.0974817,0.097174,-6.8665,3,0.00799874,11,-0.000667245,-2.16326,0.150596,0.391777,-105.118,0.097174,
2,0,0,1,0,3655.95,0.0959822,0.0956339,-6.72336,3,0.00782885,11,-0.000642981,-2.17241,0.159711,0.369418,-96.9486,0.0956339,
2,0,0,1,0,3655.97,0.094488,0.0941669,-6.57282,3,0.00766325,11,-0.000618943,-2.18225,0.181033,0.325908,-83.8469,0.0941669,
2,0,0,1,0,3656,0.0929884,0.092673,-6.45278,3,0.00750032,11,-0.000597999,-2.19025,0.200175,0.294742,-74.4815,0.092673,
2,0,0,1,0,3656.02,0.0914889,0.0911457,-6.35541,3,0.00734015,11,-0.000579268,-2.19686,0.213366,0.27652,-68.6226,0.0911457,
2,0,0,1,0,3656.05,0.0899894,0.0896781,-6.26029,3,0.00718239,11,-0.00056141,-2.20341,0.220857,0.267141,-65.1792,0.0896781,
2,0,0,1,0,3656.07,0.0884951,0.0882165,-6.15648,3,0.0070277,11,-0.000543103,-2.21067,0.248989,0.236959,-57.0695,0.0882165,
2,0,0,1,0,3656.1,0.0869943,0.0866664,-6.07745,3,0.00687469,11,-0.000526711,-2.21628,0.261109,0.225959,-53.7008,0.0866664,
2,0,0,1,0,3656.12,0.0854935,0.0851967,-6.0058,3,0.00672356,11,-0.000511674,-2.22143,0.273752,0.215523,-50.5437,0.0851967,
2,0,0,1,0,3656.15,0.0839993,0.0837378,-5.94218,3,0.00657481,11,-0.000497585,-2.22605,0.278941,0.211514,-48.9597,0.0837378,
2,0,0,1,0,3656.17,0.0824998,0.0822216,-5.86994,3,0.00642715,11,-0.000482636,-2.23137,0.319189,0.184843,-42.3413,0.0822216,
2,0,0,1,0,3656.2,0.0810002,0.080673,-5.79529,3,0.00628132,11,-0.000467524,-2.23692,0.316867,0.186198,-42.2105,0.080673,
2,0,0,1,0,3656.22,0.0795007,0.0791697,-5.74038,3,0.006137,11,-0.000454464,-2.24106,0.323502,0.182379,-40.8405,0.0791697,
2,0,0,1,0,3656.25,0.0780078,0.0776973,-5.68639,3,0.00599467,11,-0.000441818,-2.24516,0.32489,0.1816,-40.2239,0.0776973,
2,0,0,1,0,3656.27,0.076507,0.0761699,-5.62034,3,0.00585332,11,-0.000428101,-2.25024,0.324063,0.182063,-39.921,0.0761699,
2,0,0,1,0,3656.3,0.0750062,0.0746928,-5.54695,3,0.00571362,11,-0.000414317,-2.25595,0.296909,0.198714,-43.0842,0.0746928,
2,0,0,1,0,3656.32,0.073512,0.0732212,-5.49445,3,0.00557599,11,-0.00040231,-2.26008,0.298877,0.197406,-42.2976,0.0732212,
2,0,0,1,0,3656.35,0.0720124,0.0717009,-5.43429,3,0.00543934,11,-0.000389644,-2.26486,0.301144,0.19592,-41.5238,0.0717009,
2,0,0,1,0,3656.37,0.0705129,0.0702031,-5.36793,3,0.00530424,11,-0.000376845,-2.27019,0.283821,0.207878,-43.54,0.0702031,
2,0,0,1,0,3656.4,0.0690187,0.0686979,-5.2912,3,0.00517134,11,-0.000363495,-2.27645,0.267753,0.220352,-45.5853,0.0686979,
2,0,0,1,0,3656.42,0.0675179,0.067187,-5.23445,3,0.00503968,11,-0.000351687,-2.28113,0.258738,0.22803,-46.5635,0.067187,
2,0,0,1,0,3656.45,0.066017,0.0657226,-5.17756,3,0.00490966,11,-0.000340282,-2.28587,0.264811,0.2228,-44.8327,0.06572257,
2,0,0,1,0,3656.47,0.0645242,0.0642073,-5.09697,3,0.00478176,11,-0.000327263,-2.29269,0.25705,0.229527,-45.5576,0.0642073,
2,0,0,1,0,3656.5,0.0630246,0.0627294,-5.00983,3,0.00465519,11,-0.000314263,-2.30018,0.230756,0.255682,-50.1231,0.0627294,
2,0,0,1,0,3656.52,0.0615251,0.0611993,-4.94378,3,0.00453064,11,-0.000302556,-2.30594,0.215445,0.273852,-52.8809,0.0611993,
2,0,0,1,0,3656.55,0.0600256,0.0597321,-4.8705,3,0.00440785,11,-0.000290925,-2.31243,0.233883,0.252263,-47.9396,0.0597321,
2,0,0,1,0,3656.57,0.0585314,0.0582243,-4.79756,3,0.00428738,11,-0.000279335,-2.31898,0.222119,0.265624,-49.7046,0.0582243,
2,0,0,1,0,3656.6,0.0570305,0.0567299,-4.7224,3,0.00416822,11,-0.000267901,-2.32584,0.215958,0.273201,-50.3899,0.0567299,
2,0,0,1,0,3656.62,0.0555297,0.0552436,-4.64967,3,0.00405108,11,-0.000256865,-2.33258,0.213256,0.276663,-50.2404,0.0552436,
2,0,0,1,0,3656.65,0.0540355,0.0537044,-4.59177,3,0.00393606,11,-0.000246598,-2.33802,0.253325,0.232902,-41.6382,0.0537044,
2,0,0,1,0,3656.67,0.052536,0.0522184,-4.51855,3,0.00382216,11,-0.000235952,-2.345,0.250869,0.235183,-41.4579,0.0522184,
2,0,0,1,0,3656.7,0.0510364,0.0507255,-4.4504,3,0.0037099,11,-0.000225749,-2.3516,0.227074,0.259827,-45.2225,0.0507255,
2,0,0,1,0,3656.72,0.0495369,0.0492125,-4.38431,3,0.00359937,11,-0.000215762,-2.3581,0.234052,0.252081,-43.235,0.0492125,
2,0,0,1,0,3656.75,0.0480427,0.0477509,-4.33645,3,0.00349075,11,-0.000207069,-2.36287,0.295903,0.199389,-33.7134,0.0477509,
2,0,0,1,0,3656.77,0.0465432,0.0462314,-4.27662,3,0.00338303,11,-0.000197714,-2.3689,0.31008,0.190274,-31.7969,0.0462314,
2,0,0,1,0,3656.8,0.0450424,0.0447617,-4.22548,3,0.00327656,11,-0.00018914,-2.37412,0.288456,0.204538,-33.7813,0.0447617,
2,0,0,1,0,3656.82,0.0435482,0.0432858,-4.17455,3,0.00317176,11,-0.000180699,-2.37939,0.285469,0.206678,-33.7527,0.0432858,
2,0,0,1,0,3656.85,0.0420486,0.0417349,-4.14439,3,0.00306772,11,-0.000172966,-2.38254,0.357403,0.16508,-26.7088,0.0417349,
2,0,0,1,0,3656.87,0.0405491,0.0401914,-4.10914,3,0.00296458,11,-0.000165152,-2.38625,0.468172,0.126022,-20.2042,0.0401914,
2,0,0,1,0,3656.89,0.0390549,0.0387072,-4.06711,3,0.00286264,11,-0.000157426,-2.39071,0.377856,0.156144,-24.8146,0.0387072,
2,0,0,1,0,3656.92,0.0375541,0.0372503,-4.04071,3,0.00276114,11,-0.000150518,-2.39354,0.398366,0.148105,-23.3786,0.0372503,
2,0,0,1,0,3656.94,0.0360532,0.0357525,-4.01601,3,0.00266055,11,-0.000143582,-2.3962,0.523248,0.112757,-17.6611,0.0357525,
2,0,0,1,0,3656.97,0.034559,0.0342462,-3.99105,3,0.00256092,11,-0.000136678,-2.39891,0.787072,0.0749614,-11.6629,0.0342462,
2,0,0,1,0,3656.99,0.0330595,0.0327288,-3.96327,3,0.00246137,11,-0.000129713,-2.40195,0.779446,0.0756948,-11.7225,0.03272875,
2,0,0,1,0,3657.02,0.0315613,0.0312714,-3.95023,3,0.00236235,11,-0.000123529,-2.40338,0.628772,0.0938337,-14.4691,0.0312714,
2,0,0,1,0,3657.04,0.0300618,0.0297346,-3.93239,3,0.00226382,11,-0.000116928,-2.40534,0.94081,0.0627119,-9.62204,0.0297346,
2,0,0,1,0,3657.07,0.0285676,0.0282399,-3.91889,3,0.00216601,11,-0.000110669,-2.40684,2.16418,0.027262,-4.17062,0.02823985,
2,0,0,1,0,3657.09,0.0270667,0.0267453,-3.90995,3,0.00206803,11,-0.000104573,-2.40783,1.59448,0.0370026,-5.65188,0.0267453,
2,0,0,1,0,3657.12,0.0255659,0.0252743,-3.90157,3,0.00197026,11,-9.86093e-05,-2.40876,1.07977,0.0546412,-8.32499,0.0252743,
2,0,0,1,0,3657.14,0.0240717,0.0237443,-3.89513,3,0.00187314,11,-9.2487e-05,-2.40948,1.89316,0.0311648,-4.73878,0.0237443,
2,0,0,1,0,3657.17,0.0225722,0.0222784,-3.88961,3,0.00177576,11,-8.66544e-05,-2.41009,-7.84318,-0.00752246,1.14295,0.0222784,
2,0,0,1,0,3657.19,0.0210726,0.0207218,-3.884,3,0.00167845,11,-8.04834e-05,-2.41072,131.746,0.000447832,-0.068057,0.0207218,
2,0,0,1,0,3657.22,0.0195784,0.0192437,-3.89014,3,0.0015815,11,-7.48606e-05,-2.41004,2.41749,0.0244055,-3.69994,0.0192437,
2,0,0,1,0,3657.24,0.0180789,0.0177411,-3.88799,3,0.00148418,11,-6.89771e-05,-2.41028,-8.3617,-0.00705598,1.07053,0.0177411,
2,0,0,1,0,3657.27,0.0165781,0.0162548,-3.88978,3,0.00138695,11,-6.32274e-05,-2.41008,-1.38976,-0.0424534,6.45706,0.0162548,
2,0,0,1,0,3657.29,0.0150839,0.0147596,-3.8963,3,0.0012899,11,-5.75079e-05,-2.40935,-1.99504,-0.0295733,4.49967,0.0147596,
2,0,0,1,0,3657.32,0.0135844,0.0133133,-3.90391,3,0.00119218,11,-5.19741e-05,-2.4085,72.7615,0.000810868,-0.123426,0.0133133,
2,0,0,1,0,3657.34,0.0120848,0.0117353,-3.91306,3,0.00109438,11,-4.59209e-05,-2.40748,-2.91149,-0.0202646,3.09317,0.0117353,
2,0,0,1,0,3657.37,0.0105853,0.0102539,-3.91549,3,0.000996566,11,-4.01493e-05,-2.40721,-1.26641,-0.0465885,7.1326,0.01025395,
2,0,0,1,0,3657.39,0.00909108,0.00873362,-3.9179,3,0.000898852,11,-3.42174e-05,-2.40695,-1.18328,-0.0498614,7.63982,0.00873362,
2,0,0,1,0,3657.42,0.00759027,0.00725259,-3.93679,3,0.000800492,11,-2.85519e-05,-2.40486,-2.0841,-0.0283096,4.34912,0.00725259,
2,0,0,1,0,3657.44,0.00608945,0.00575399,-3.95605,3,0.000701843,11,-2.27631e-05,-2.40274,-1.35116,-0.0436663,6.71528,0.005753987,
2,0,0,1,0,3657.47,0.00459524,0.00431367,-3.95802,3,0.000603385,11,-1.70736e-05,-2.40252,-0.813458,-0.0725299,11.2115,0.00431367,
2,0,0,1,0,3657.49,0.0030957,0.00283466,-3.96593,3,0.00050425,11,-1.12421e-05,-2.40165,-0.427852,-0.137898,21.4931,0.00283466,
2,0,0,1,0,3657.52,0.00159616,0.00122436,-4.04116,3,0.000403884,11,-4.94784e-06,-2.39349, , , ,0.00122436,
2,0,0,0,0,3657.54,0.000199195,-0.000184077,-4.02293,3,0.000309868,11,7.4053e-07,-2.39546, , , ,-0.000184077,