File: Figure_codes/Fig_3-5/rawdata_trumpetplot_data/before 10th/20221101_1-115_002_TrumpetPlot_ParaChange_06_CV_C01_5.csv
mode,ox/red,error,control changes,counter inc.,time/s,control/V,Ewe/V,<I>/mA,cycle number,(Q-Qo)/C,I Range,P/W,log(|I|),Tafel slope mV/dec,alpha_eff,dI/d(E-IR),E-IR/V,
2,0,0,1,0,7237.13,2.44065e-05,-0.000363498,-0.524913,6,0.0000000E+000,11,1.90805e-07,-3.27991, , , ,-0.000363498,
2,1,0,1,0,7237.26,0.00129787,0.000950346,0.286893,6,1.46683e-05,11,2.72647e-07,-3.54228, , , ,0.000950346,
2,1,0,1,0,7237.41,0.00279606,0.00252717,0.355168,6,6.64591e-05,11,8.97569e-07,-3.44957,0.0169159,3.48785,39.0849,0.00252717,
2,1,0,1,0,7237.56,0.00429425,0.00403719,0.364755,6,0.000122215,11,1.47258e-06,-3.438,0.10362,0.569386,8.25417,0.00403719,
2,1,0,1,0,7237.71,0.00579244,0.00550267,0.380191,6,0.000180508,11,2.09207e-06,-3.42,0.081892,0.720461,10.7146,0.00550267,
2,1,0,1,0,7237.86,0.00729063,0.00699254,0.39988,6,0.000241215,11,2.79618e-06,-3.39807,0.106747,0.552708,8.56653,0.00699254,
2,1,0,1,0,7238.01,0.00878882,0.00853756,0.41438,6,0.000304166,11,3.5378e-06,-3.3826,0.139863,0.42184,6.75322,0.00853756,
2,1,0,1,0,7238.16,0.010287,0.00997122,0.422139,6,0.00036875,11,4.20924e-06,-3.37454,0.168813,0.349499,5.73534,0.00997122,
2,1,0,1,0,7238.31,0.0117852,0.0115321,0.431597,6,0.000434703,11,4.97724e-06,-3.36492,0.19006,0.310428,5.21233,0.0115321,
2,1,0,1,0,7238.46,0.0132838,0.0129535,0.439826,6,0.000501849,11,5.69729e-06,-3.35672,0.161997,0.364205,6.26409,0.0129535,
2,1,0,1,0,7238.61,0.0147814,0.0144576,0.446145,6,0.000570285,11,6.45019e-06,-3.35052,0.198378,0.297413,5.1901,0.0144576,
2,1,0,1,0,7238.75,0.0162789,0.0160058,0.45361,6,0.000640037,11,7.26041e-06,-3.34332,0.247688,0.238203,4.2053,0.0160058,
2,1,0,1,0,7238.9,0.017778,0.0174535,0.460246,6,0.000710723,11,8.03288e-06,-3.33701,0.235494,0.250537,4.50728,0.0174535,
2,1,0,1,0,7239.05,0.0192761,0.0190218,0.466582,6,0.000781882,11,8.87523e-06,-3.33107,0.330764,0.178375,3.2381,0.0190218,
2,1,0,1,0,7239.2,0.0207743,0.0205,0.473976,6,0.00085435,11,9.7165e-06,-3.32424,0.223819,0.263605,4.83097,0.0205,
2,1,0,1,0,7239.35,0.0222725,0.0220015,0.47823,6,0.000927702,11,1.05218e-05,-3.32036,0.325861,0.181059,3.37021,0.0220015,
2,1,0,1,0,7239.5,0.0237707,0.0234829,0.484711,6,0.00100191,11,1.13824e-05,-3.31452,0.324371,0.181891,3.44859,0.0234829,
2,1,0,1,0,7239.65,0.0252689,0.0249537,0.487056,6,0.00107665,11,1.21538e-05,-3.31242,0.309211,0.190809,3.65444,0.0249537,
2,1,0,1,0,7239.8,0.0267671,0.0264457,0.494868,6,0.00115253,11,1.30871e-05,-3.30551,0.221971,0.2658,5.13347,0.0264457,
2,1,0,1,0,7239.95,0.0282662,0.0279629,0.503943,6,0.00122952,11,1.40917e-05,-3.29762,0.253934,0.232344,4.55787,0.0279629,
2,1,0,1,0,7240.1,0.0297635,0.0294625,0.509682,6,0.00130736,11,1.50165e-05,-3.2927,0.300996,0.196016,3.8967,0.0294625,
2,1,0,1,0,7240.25,0.031261,0.0309613,0.508455,6,0.00138592,11,1.57425e-05,-3.29375,0.269668,0.218787,4.39116,0.0309613,
2,1,0,1,0,7240.4,0.0327599,0.0324328,0.522083,6,0.00146542,11,1.69326e-05,-3.28226,0.243056,0.242742,4.92963,0.0324328,
2,1,0,1,0,7240.55,0.034258,0.0339555,0.526084,6,0.00154616,11,1.78634e-05,-3.27894,0.240939,0.244876,5.04083,0.0339555,
2,1,0,1,0,7240.7,0.0357562,0.0354104,0.534742,6,0.00162793,11,1.89354e-05,-3.27186,0.36036,0.163725,3.40915,0.0354104,
2,1,0,1,0,7240.85,0.0372544,0.0369575,0.542049,6,0.00171079,11,2.00328e-05,-3.26596,0.246682,0.239174,5.08132,0.0369575,
2,1,0,1,0,7241,0.0387526,0.038459,0.548359,6,0.00179442,11,2.10894e-05,-3.26093,0.231185,0.255207,5.50588,0.038459,
2,1,0,1,0,7241.15,0.0402508,0.0399542,0.55984,6,0.00187969,11,2.2368e-05,-3.25194,0.237888,0.248016,5.41881,0.0399542,
2,1,0,1,0,7241.3,0.041749,0.0414526,0.568502,6,0.00196638,11,2.35659e-05,-3.24527,0.253267,0.232956,5.14003,0.0414526,
2,1,0,1,0,7241.45,0.0432472,0.0429859,0.581131,6,0.00205422,11,2.49804e-05,-3.23573,0.229443,0.257144,5.79597,0.0429859,
2,1,0,1,0,7241.6,0.0447458,0.0445014,0.588166,6,0.00214314,11,2.61742e-05,-3.2305,0.209148,0.282097,6.44825,0.0445014,
2,1,0,1,0,7241.75,0.0462433,0.0459377,0.597849,6,0.00223387,11,2.74639e-05,-3.22341,0.165449,0.356604,8.29229,0.0459377,
2,1,0,1,0,7241.9,0.0477409,0.047445,0.607109,6,0.0023261,11,2.88043e-05,-3.21673,0.184688,0.319458,7.58004,0.047445,
2,1,0,1,0,7242.05,0.0492399,0.0489284,0.61685,6,0.00242002,11,3.01815e-05,-3.20982,0.205505,0.287098,6.92553,0.04892844,
2,1,0,1,0,7242.2,0.0507381,0.0504247,0.625902,6,0.00251521,11,3.15609e-05,-3.20349,0.184221,0.320268,7.85837,0.0504247,
2,1,0,1,0,7242.35,0.0522363,0.0519135,0.641979,6,0.00261234,11,3.33274e-05,-3.19248,0.164936,0.357715,8.93393,0.0519135,
2,1,0,1,0,7242.5,0.0537345,0.0534394,0.655993,6,0.00271147,11,3.50559e-05,-3.1831,0.191061,0.308802,7.87809,0.0534394,
2,1,0,1,0,7242.65,0.0552327,0.0549303,0.668068,6,0.00281257,11,3.66972e-05,-3.17518,0.206722,0.285407,7.40802,0.0549303,
2,1,0,1,0,7242.8,0.0567309,0.0564435,0.675115,6,0.00291528,11,3.81059e-05,-3.17062,0.188813,0.312478,8.28072,0.0564435,
2,1,0,1,0,7242.95,0.0582291,0.057943,0.692881,6,0.00301978,11,4.01476e-05,-3.15934,0.18439,0.319974,8.64196,0.05794296,
2,1,0,1,0,7243.1,0.0597282,0.059436,0.706919,6,0.00312659,11,4.20164e-05,-3.15063,0.173182,0.340681,9.39154,0.059436,
2,1,0,1,0,7243.25,0.0612255,0.06091,0.718378,6,0.00323534,11,4.37564e-05,-3.14365,0.191084,0.308765,8.66073,0.06091,
2,1,0,1,0,7243.4,0.062723,0.0624288,0.731523,6,0.00334629,11,4.56681e-05,-3.13577,0.185913,0.317352,9.06493,0.0624288,
2,1,0,1,0,7243.55,0.0642218,0.0639194,0.744696,6,0.00345898,11,4.76005e-05,-3.12802,0.184381,0.319989,9.36165,0.06391941,
2,1,0,1,0,7243.7,0.06572,0.0654135,0.75833,6,0.00357377,11,4.96051e-05,-3.12014,0.177644,0.332125,9.8222,0.06541352,
2,1,0,1,0,7243.85,0.0672182,0.0669861,0.774928,6,0.0036909,11,5.19094e-05,-3.11074,0.19733,0.298991,9.00974,0.0669861,
2,1,0,1,0,7244,0.0687164,0.0684208,0.785946,6,0.00380984,11,5.37751e-05,-3.10461,0.228843,0.257818,7.90619,0.0684208,
2,1,0,1,0,7244.15,0.0702146,0.0699478,0.798027,6,0.00393038,11,5.58203e-05,-3.09798,0.21998,0.268206,8.35898,0.0699478,
2,1,0,1,0,7244.3,0.0717128,0.0714069,0.810831,6,0.00405313,11,5.7899e-05,-3.09107,0.20097,0.293576,9.26536,0.0714069,
2,1,0,1,0,7244.45,0.073211,0.0729424,0.825403,6,0.00417777,11,6.02069e-05,-3.08333,0.242478,0.243321,7.84759,0.0729424,
2,1,0,1,0,7244.6,0.0747092,0.0743909,0.836851,6,0.00430431,11,6.22541e-05,-3.07735,0.266246,0.2216,7.22917,0.0743909,
2,1,0,1,0,7244.75,0.0762078,0.0758707,0.844939,6,0.00443241,11,6.41061e-05,-3.07317,0.262665,0.224621,7.44556,0.0758707,
2,1,0,1,0,7244.9,0.0777053,0.0773843,0.860379,6,0.00456218,11,6.65798e-05,-3.06531,0.231157,0.255238,8.55813,0.0773843,
2,1,0,1,0,7245.05,0.0792029,0.078937,0.875334,6,0.00469396,11,6.90962e-05,-3.05783,0.255828,0.230624,7.82869,0.078937,
2,1,0,1,0,7245.2,0.0807019,0.0803918,0.883959,6,0.00482767,11,7.1063e-05,-3.05357,0.319225,0.184822,6.33238,0.0803918,
2,1,0,1,0,7245.35,0.0822001,0.081905,0.887516,6,0.00496255,11,7.2692e-05,-3.05182,0.33674,0.175209,6.10158,0.08190497,
2,1,0,1,0,7245.5,0.0836983,0.0833927,0.902085,6,0.00509883,11,7.52273e-05,-3.04475,0.311129,0.189632,6.68772,0.0833927,
2,1,0,1,0,7245.65,0.0851965,0.0849155,0.912198,6,0.00523687,11,7.74597e-05,-3.03991,0.318002,0.185533,6.61626,0.0849155,
2,1,0,1,0,7245.8,0.0866947,0.086417,0.923276,6,0.00537662,11,7.97867e-05,-3.03467,0.409387,0.144118,5.18665,0.08641699,
2,1,0,1,0,7245.95,0.0881929,0.0878984,0.934028,6,0.00551775,11,8.20996e-05,-3.02964,0.354282,0.166534,6.07425,0.0878984,
2,1,0,1,0,7246.1,0.0896911,0.0893893,0.944453,6,0.00566003,11,8.4424e-05,-3.02482,0.296976,0.198669,7.32285,0.0893893,
2,1,0,1,0,7246.25,0.0911902,0.0908831,0.957287,6,0.00580435,11,8.70012e-05,-3.01896,0.251301,0.234778,8.72326,0.0908831,
2,1,0,1,0,7246.4,0.0926875,0.0923926,0.965764,6,0.00595054,11,8.92294e-05,-3.01513,0.289659,0.203688,7.6729,0.0923926,
2,1,0,1,0,7246.55,0.094185,0.0938792,0.976893,6,0.00609808,11,9.171e-05,-3.01015,0.302068,0.19532,7.46555,0.0938792,
2,1,0,1,0,7246.7,0.0956838,0.0953498,0.985958,6,0.00624708,11,9.4011e-05,-3.00614,0.271264,0.2175,8.40956,0.0953498,
2,1,0,1,0,7246.85,0.097182,0.0969182,0.998783,6,0.00639815,11,9.68003e-05,-3.00053,0.226525,0.260457,10.1567,0.0969182,
2,1,0,1,0,7246.99,0.0986802,0.0983869,1.01681,6,0.00655145,11,0.000100041,-2.99276,0.246578,0.239275,9.49814,0.0983869,
2,1,0,1,0,7247.14,0.100178,0.0999128,1.03033,6,0.00670672,11,0.000102943,-2.98702,0.271625,0.217211,8.73821,0.0999128,
2,1,0,1,0,7247.29,0.101677,0.101388,1.0416,6,0.00686426,11,0.000105606,-2.9823,0.214588,0.274946,11.2431,0.1013878,
2,1,0,1,0,7247.44,0.103175,0.102906,1.06351,6,0.00702406,11,0.000109442,-2.97326,0.196355,0.300476,12.5178,0.102906,
2,1,0,1,0,7247.59,0.104673,0.104407,1.09002,6,0.00718709,11,0.000113806,-2.96257,0.181868,0.324411,13.7467,0.1044068,
2,1,0,1,0,7247.74,0.106171,0.105906,1.10715,6,0.00735345,11,0.000117254,-2.95579,0.187718,0.3143,13.5283,0.1059062,
2,1,0,1,0,7247.89,0.10767,0.107397,1.12671,6,0.00752292,11,0.000121005,-2.94819,0.170372,0.346301,15.2797,0.107397,
2,1,0,1,0,7248.04,0.109167,0.10888,1.15012,6,0.00769532,11,0.000125225,-2.93926,0.149801,0.393855,17.7579,0.10888,
2,1,0,1,0,7248.19,0.110665,0.110377,1.17857,6,0.00787192,11,0.000130087,-2.92865,0.144907,0.407158,18.7564,0.110377,
2,1,0,1,0,7248.34,0.112164,0.111842,1.20728,6,0.00805289,11,0.000135025,-2.91819,0.156903,0.376028,17.6647,0.111842,
2,1,0,1,0,7248.49,0.113662,0.113377,1.23727,6,0.00823799,11,0.000140278,-2.90754,0.150012,0.393303,18.9681,0.113377,
2,1,0,1,0,7248.64,0.11516,0.11488,1.26318,6,0.00842677,11,0.000145114,-2.89854,0.147067,0.401179,19.7863,0.11488,
2,1,0,1,0,7248.79,0.116658,0.116368,1.29543,6,0.00862045,11,0.000150747,-2.88759,0.138218,0.426862,21.5275,0.116368,
2,1,0,1,0,7248.94,0.118157,0.117858,1.32865,6,0.00881911,11,0.000156593,-2.87659,0.149766,0.393948,20.367,0.117858,
2,1,0,1,0,7249.09,0.119655,0.119395,1.35798,6,0.00902223,11,0.000162136,-2.86711,0.169413,0.348261,18.4526,0.119395,
2,1,0,1,0,7249.24,0.121153,0.120888,1.38209,6,0.00922946,11,0.000167078,-2.85946,0.163628,0.360573,19.5208,0.120888,
2,1,0,1,0,7249.39,0.122652,0.122328,1.41624,6,0.00944125,11,0.000173247,-2.84886,0.160007,0.368734,20.3479,0.122328,
2,1,0,1,0,7249.54,0.124149,0.123852,1.44725,6,0.00965775,11,0.000179245,-2.83945,0.163975,0.35981,20.2835,0.123852,
2,1,0,1,0,7249.69,0.125647,0.125362,1.47332,6,0.00987843,11,0.000184698,-2.8317,0.189894,0.310699,17.8215,0.125362,
2,1,0,1,0,7249.84,0.127146,0.126874,1.49452,6,0.0101034,11,0.000189615,-2.8255,0.189547,0.311268,18.1989,0.126874,
2,1,0,1,0,7249.99,0.128644,0.128347,1.52624,6,0.0103317,11,0.000195888,-2.81638,0.20203,0.292036,17.3919,0.128347,
2,1,0,1,0,7250.14,0.130142,0.129876,1.55383,6,0.0105645,11,0.000201805,-2.8086,0.217368,0.271429,16.4072,0.129876,
2,1,0,1,0,7250.29,0.13164,0.131333,1.5746,6,0.010801,11,0.000206796,-2.80283,0.299485,0.197005,12.0632,0.131333,
2,1,0,1,0,7250.44,0.133139,0.132845,1.59401,6,0.0110406,11,0.000211756,-2.79751,0.290842,0.202859,12.631,0.132845,
2,1,0,1,0,7250.59,0.134637,0.134344,1.614,6,0.0112824,11,0.000216832,-2.7921,0.336748,0.175205,11.0285,0.134344,
2,1,0,1,0,7250.74,0.136135,0.13583,1.6315,6,0.0115275,11,0.000221606,-2.78741,0.361914,0.163022,10.3413,0.13583,
2,1,0,1,0,7250.89,0.137633,0.137298,1.64662,6,0.0117748,11,0.000226078,-2.78341,0.589688,0.100053,6.3931,0.137298,
2,1,0,1,0,7251.04,0.139132,0.138854,1.6536,6,0.0120238,11,0.00022961,-2.78157,1.20918,0.0487935,3.13443,0.138854,
2,1,0,1,0,7251.19,0.140629,0.14031,1.65038,6,0.0122729,11,0.000231564,-2.78242,14.0564,0.00419737,0.269808,0.14031,
2,1,0,1,0,7251.34,0.142127,0.14184,1.65264,6,0.0125224,11,0.00023441,-2.78182,-2.53419,-0.0232816,-1.49417,0.14184,
2,1,0,1,0,7251.49,0.143626,0.143356,1.64392,6,0.0127717,11,0.000235665,-2.78412,-0.465913,-0.126633,-8.08391,0.143356,
2,1,0,1,0,7251.64,0.145124,0.144825,1.62799,6,0.013019,11,0.000235774,-2.78835,-0.247494,-0.238389,-15.0902,0.144825,
2,1,0,1,0,7251.79,0.146622,0.146328,1.59465,6,0.0132626,11,0.000233341,-2.79734,-0.196207,-0.300704,-18.7443,0.146328,
2,1,0,1,0,7251.94,0.14812,0.147801,1.5703,6,0.0135021,11,0.000232092,-2.80402,-0.15418,-0.382669,-23.3473,0.147801,
2,1,0,1,0,7252.09,0.149619,0.149329,1.53434,6,0.0137368,11,0.000229121,-2.81408,-0.127498,-0.462753,-27.5281,0.1493288,
2,1,0,1,0,7252.24,0.151117,0.150799,1.48973,6,0.013965,11,0.000224649,-2.82689,-0.100608,-0.586435,-33.8338,0.150799,
2,1,0,1,0,7252.39,0.152615,0.152268,1.4296,6,0.0141858,11,0.000217683,-2.84479,-0.0910086,-0.64829,-36.1716,0.152268,
2,1,0,1,0,7252.54,0.154114,0.153816,1.37978,6,0.0143982,11,0.000212232,-2.86019,-0.0855731,-0.689469,-37.0378,0.153816,
2,1,0,1,0,7252.69,0.155612,0.155274,1.32095,6,0.0146024,11,0.00020511,-2.87911,-0.078905,-0.747735,-38.4223,0.155274,
2,1,0,1,0,7252.84,0.157109,0.156848,1.25999,6,0.0147979,11,0.000197627,-2.89963,-0.0708124,-0.833187,-40.8241,0.156848,
2,1,0,1,0,7252.99,0.158608,0.158319,1.19725,6,0.0149842,11,0.000189547,-2.92182,-0.0695451,-0.84837,-39.7186,0.158319,
2,1,0,1,0,7253.14,0.160106,0.159849,1.13768,6,0.015161,11,0.000181857,-2.94398,-0.0672365,-0.8775,-39.1429,0.159849,
2,1,0,1,0,7253.29,0.161604,0.161315,1.0854,6,0.0153297,11,0.000175092,-2.96441,-0.070729,-0.834169,-35.3241,0.161315,
2,1,0,1,0,7253.44,0.163102,0.162836,1.03382,6,0.0154903,11,0.000168343,-2.98556,-0.0692928,-0.85146,-34.3412,0.162836,
2,1,0,1,0,7253.59,0.164601,0.164308,0.985554,6,0.0156435,11,0.000161935,-3.00632,-0.0725421,-0.81332,-31.3026,0.164308,
2,1,0,1,0,7253.74,0.166099,0.165802,0.938675,6,0.0157891,11,0.000155634,-3.02748,-0.0762275,-0.773998,-28.5085,0.165802,
2,1,0,1,0,7253.89,0.167597,0.167308,0.899337,6,0.0159288,11,0.000150466,-3.04608,-0.0844302,-0.698802,-24.5489,0.167308,
2,1,0,1,0,7254.04,0.169095,0.168815,0.864722,6,0.0160631,11,0.000145978,-3.06312,-0.0893135,-0.660594,-22.3357,0.168815,
2,1,0,1,0,7254.19,0.170594,0.170329,0.829733,6,0.0161921,11,0.000141327,-3.08106,-0.0918665,-0.642237,-20.9657,0.170329,
2,1,0,1,0,7254.34,0.172091,0.171808,0.798092,6,0.0163163,11,0.000137119,-3.09795,-0.103615,-0.569416,-17.8802,0.171808,
2,1,0,1,0,7254.49,0.173589,0.173337,0.775245,6,0.0164364,11,0.000134378,-3.11056,-0.11769,-0.501318,-15.205,0.173337,
2,1,0,1,0,7254.64,0.175088,0.174792,0.754169,6,0.016553,11,0.000131823,-3.12253,-0.121813,-0.48435,-14.2453,0.174792,
2,1,0,1,0,7254.79,0.176586,0.176276,0.732359,6,0.0166664,11,0.000129097,-3.13528,-0.125295,-0.470889,-13.4612,0.176276,
2,1,0,1,0,7254.94,0.178084,0.177794,0.710925,6,0.0167768,11,0.000126398,-3.14818,-0.137894,-0.427864,-11.9368,0.177794,
2,1,0,1,0,7255.09,0.179582,0.179303,0.699066,6,0.0168845,11,0.000125345,-3.15548,-0.163305,-0.361288,-9.87874,0.179303,
2,1,0,1,0,7255.23,0.181081,0.180776,0.682231,6,0.0169899,11,0.000123331,-3.16607,-0.165983,-0.355457,-9.51235,0.180776,
2,1,0,1,0,7255.38,0.182579,0.182268,0.670485,6,0.0170935,11,0.000122208,-3.17361,-0.15464,-0.381532,-9.9705,0.182268,
2,1,0,1,0,7255.53,0.184077,0.183834,0.658653,6,0.017195,11,0.000121083,-3.18134,-0.186497,-0.316359,-8.13674,0.183834,
2,1,0,1,0,7255.68,0.185576,0.185303,0.646485,6,0.0172946,11,0.000119796,-3.18944,-0.223705,-0.263741,-6.6733,0.185303,
2,1,0,1,0,7255.83,0.187074,0.186843,0.638085,6,0.0173926,11,0.000119222,-3.19512,-0.251038,-0.235024,-5.83638,0.186843,
2,1,0,1,0,7255.98,0.188571,0.18827,0.628094,6,0.0174895,11,0.000118251,-3.20198,-0.265826,-0.22195,-5.4396,0.18827,
2,1,0,1,0,7256.13,0.19007,0.189783,0.619051,6,0.0175849,11,0.000117486,-3.20827,-0.267152,-0.220848,-5.33825,0.1897833,
2,1,0,1,0,7256.28,0.191568,0.191287,0.61273,6,0.017679,11,0.000117207,-3.21273,-0.294605,-0.200268,-4.78143,0.191287,
2,1,0,1,0,7256.43,0.193066,0.192768,0.602854,6,0.0177721,11,0.000116211,-3.21979,-0.392773,-0.150214,-3.53438,0.192768,
2,1,0,1,0,7256.58,0.194564,0.194233,0.598856,6,0.0178644,11,0.000116317,-3.22268,-0.377338,-0.156359,-3.65438,0.194233,
2,1,0,1,0,7256.73,0.196063,0.19575,0.588869,6,0.0179556,11,0.000115271,-3.22998,-0.311663,-0.189307,-4.37747,0.19575,
2,1,0,1,0,7256.88,0.197561,0.19727,0.582991,6,0.0180458,11,0.000115006,-3.23434,-0.344432,-0.171296,-3.92365,0.19727,
2,1,0,1,0,7257.03,0.199059,0.198759,0.581821,6,0.0181352,11,0.000115642,-3.23521,-0.416955,-0.141502,-3.20802,0.198759,
2,1,0,1,0,7257.18,0.200557,0.200278,0.577635,6,0.0182239,11,0.000115688,-3.23835,-0.414115,-0.142472,-3.20614,0.200278,
2,1,0,1,0,7257.33,0.202056,0.201801,0.572065,6,0.018312,11,0.000115443,-3.24255,-0.379158,-0.155608,-3.4639,0.201801,
2,1,0,1,0,7257.48,0.203553,0.203232,0.566056,6,0.0183993,11,0.000115041,-3.24714,-0.45237,-0.130424,-2.8963,0.203232,
2,1,0,1,0,7257.63,0.205051,0.204784,0.562005,6,0.0184859,11,0.00011509,-3.25026,-1.52381,-0.0387188,-0.857724,0.204784,
2,1,0,1,0,7257.78,0.20655,0.206242,0.559273,6,0.0185721,11,0.000115346,-3.25238,-0.559567,-0.105439,-2.30783,0.206242,
2,1,0,1,0,7257.93,0.208048,0.207824,0.555704,6,0.0186581,11,0.000115489,-3.25516,-0.417156,-0.141434,-3.06244,0.207824,
2,1,0,1,0,7258.08,0.209546,0.209268,0.554713,6,0.0187432,11,0.000116084,-3.25593,-0.507565,-0.116241,-2.51474,0.209268,
2,1,0,1,0,7258.23,0.211044,0.210767,0.550034,6,0.0188277,11,0.000115929,-3.25961,-0.675866,-0.0872954,-1.87231,0.210767,
2,1,0,1,0,7258.38,0.212543,0.212299,0.548097,6,0.0189119,11,0.00011636,-3.26114,-0.631571,-0.0934179,-1.99112,0.2122989,
2,1,0,1,0,7258.53,0.214041,0.213756,0.544082,6,0.0189957,11,0.000116301,-3.26434,-0.626756,-0.0941355,-1.9955,0.213756,
2,1,0,1,0,7258.68,0.215539,0.215264,0.541215,6,0.019079,11,0.000116504,-3.26663,-0.677234,-0.087119,-1.84059,0.215264,
2,1,0,1,0,7258.83,0.217038,0.216757,0.537349,6,0.0191617,11,0.000116474,-3.26974,-0.811656,-0.0726909,-1.53085,0.216757,
2,1,0,1,0,7258.98,0.218535,0.218247,0.535092,6,0.0192442,11,0.000116782,-3.27157,-3.87478,-0.0152267,-0.317642,0.218247,
2,1,0,1,0,7259.13,0.220033,0.219749,0.533409,6,0.0193266,11,0.000117216,-3.27294,-1.33143,-0.0443132,-0.925338,0.219749,
2,1,0,1,0,7259.28,0.221532,0.22124,0.531088,6,0.0194085,11,0.000117498,-3.27483,-0.637469,-0.0925536,-1.92363,0.22124,
2,1,0,1,0,7259.43,0.22303,0.222721,0.524781,6,0.01949,11,0.00011688,-3.28002,-0.98892,-0.0596611,-1.23257,0.222721,
2,1,0,1,0,7259.58,0.224528,0.224275,0.52648,6,0.0195711,11,0.000118076,-3.27862,-0.873388,-0.067553,-1.38844,0.224275,
2,1,0,1,0,7259.73,0.226026,0.225718,0.526282,6,0.0196521,11,0.000118792,-3.27878,-1.02781,-0.0574033,-1.17636,0.225718,
2,1,0,1,0,7259.88,0.227525,0.227224,0.5225,6,0.0197327,11,0.000118725,-3.28191,-0.604795,-0.0975537,-1.99121,0.227224,
2,1,0,1,0,7260.03,0.229023,0.228739,0.520755,6,0.0198131,11,0.000119117,-3.28337,-0.657367,-0.0897519,-1.82918,0.228739,
2,1,0,1,0,7260.18,0.230521,0.230227,0.519334,6,0.019893,11,0.000119565,-3.28455,-0.879424,-0.0670894,-1.36475,0.230227,
2,1,0,1,0,7260.33,0.232019,0.231726,0.520552,6,0.0199728,11,0.000120625,-3.28354,-1.29972,-0.0453945,-0.919797,0.231726,
2,1,0,1,0,7260.48,0.233518,0.233207,0.517428,6,0.0200525,11,0.000120668,-3.28615,-0.833465,-0.0707889,-1.42384,0.233207,
2,1,0,1,0,7260.63,0.235015,0.234754,0.515739,6,0.0201319,11,0.000121072,-3.28757,-1.59039,-0.0370978,-0.747556,0.234754,
2,1,0,1,0,7260.78,0.236513,0.236275,0.512527,6,0.0202108,11,0.000121097,-3.29028,-1.17323,-0.0502885,-1.0058,0.236275,
2,1,0,1,0,7260.93,0.238012,0.237745,0.512919,6,0.0202898,11,0.000121944,-3.28995,-2.984,-0.0197721,-0.395157,0.237745,
2,1,0,1,0,7261.08,0.23951,0.239257,0.51016,6,0.0203684,11,0.000122059,-3.29229,-2.23255,-0.0264272,-0.525675,0.239257,
2,1,0,1,0,7261.23,0.241008,0.240721,0.509902,6,0.0204469,11,0.000122744,-3.29251,-1.02715,-0.0574407,-1.14447,0.240721,
2,1,0,1,0,7261.38,0.242506,0.242198,0.505055,6,0.0205251,11,0.000122323,-3.29666,-1.22152,-0.0483003,-0.958469,0.242198,
2,1,0,1,0,7261.53,0.244005,0.243708,0.506795,6,0.0206031,11,0.00012351,-3.29517,-24.3113,-0.00242685,-0.0478435,0.243708,
2,1,0,1,0,7261.68,0.245503,0.245202,0.506623,6,0.0206811,11,0.000124225,-3.29531,-2.51964,-0.0234161,-0.46192,0.245202,
2,1,0,1,0,7261.83,0.247001,0.24672,0.50529,6,0.0207588,11,0.000124665,-3.29646,-1.18426,-0.04982,-0.979803,0.2467197,
2,1,0,1,0,7261.98,0.2485,0.248227,0.500113,6,0.0208363,11,0.000124142,-3.30093,-1.80534,-0.0326808,-0.639487,0.248227,
2,1,0,1,0,7262.13,0.249997,0.249733,0.502419,6,0.0209136,11,0.000125471,-3.29893,-1.33542,-0.044181,-0.866359,0.249733,
2,1,0,1,0,7262.28,0.251495,0.25122,0.500846,6,0.0209907,11,0.000125823,-3.3003,-2.49998,-0.0236002,-0.460914,0.25122,
2,1,0,1,0,7262.43,0.252994,0.252726,0.498975,6,0.0210677,11,0.000126104,-3.30192,-0.904064,-0.0652608,-1.27178,0.252726,
2,1,0,1,0,7262.58,0.254492,0.254226,0.497854,6,0.0211445,11,0.000126568,-3.3029,-1.32609,-0.0444916,-0.865711,0.254226,
2,1,0,1,0,7262.73,0.25599,0.255719,0.497131,6,0.021221,11,0.000127126,-3.30353,-5.85445,-0.0100778,-0.196147,0.255719,
2,1,0,1,0,7262.88,0.257488,0.257233,0.495585,6,0.0212975,11,0.000127481,-3.30488,-1.4659,-0.0402483,-0.778378,0.257233,
2,1,0,1,0,7263.03,0.258987,0.258742,0.49592,6,0.0213739,11,0.000128315,-3.30459,-1.38589,-0.0425719,-0.822835,0.258742,
2,1,0,1,0,7263.18,0.260485,0.26022,0.494137,6,0.0214501,11,0.000128584,-3.30615,-1.11377,-0.052973,-1.02072,0.26022,
2,1,0,1,0,7263.33,0.261983,0.261694,0.494331,6,0.021526,11,0.000129363,-3.30598,-1.13139,-0.0521481,-1.00336,0.261694,
2,1,0,1,0,7263.47,0.263481,0.26323,0.493132,6,0.0216018,11,0.000129807,-3.30704,-2.93616,-0.0200943,-0.384895,0.26323,
2,1,0,1,0,7263.62,0.26498,0.264719,0.492277,6,0.0216776,11,0.000130315,-3.30779,-1.49465,-0.0394742,-0.756651,0.264719,
2,1,0,1,0,7263.77,0.266477,0.26616,0.4903,6,0.0217532,11,0.000130498,-3.30954,-3.69566,-0.0159647,-0.305838,0.26616,
2,1,0,1,0,7263.92,0.267976,0.267676,0.487928,6,0.0218285,11,0.000130607,-3.31164,-1.42602,-0.0413739,-0.791066,0.2676765,
2,1,0,1,0,7264.07,0.269474,0.269227,0.486957,6,0.0219038,11,0.000131102,-3.31251,2.18823,0.0269624,0.512576,0.269227,
2,1,0,1,0,7264.22,0.270972,0.27069,0.489106,6,0.0219789,11,0.000132396,-3.3106,-1.24493,-0.0473923,-0.899539,0.2706902,
2,1,0,1,0,7264.37,0.27247,0.272207,0.487755,6,0.0220541,11,0.00013277,-3.3118,-1.01987,-0.0578504,-1.09583,0.272207,
2,1,0,1,0,7264.52,0.273968,0.273629,0.482704,6,0.0221288,11,0.000132082,-3.31632,-1.15375,-0.0511375,-0.967555,0.273629,
2,1,0,1,0,7264.67,0.275467,0.27519,0.484102,6,0.0222035,11,0.00013322,-3.31506,-2.0293,-0.0290741,-0.550814,0.27519,
2,1,0,1,0,7264.82,0.276965,0.276683,0.483256,6,0.022278,11,0.000133708,-3.31582,-0.824857,-0.0715275,-1.35281,0.276683,
2,1,0,1,0,7264.97,0.278463,0.278149,0.482357,6,0.0223525,11,0.000134167,-3.31663,-0.841782,-0.0700894,-1.31867,0.2781491,
2,1,0,1,0,7265.12,0.279962,0.279696,0.483341,6,0.0224268,11,0.000135188,-3.31575,-2.04243,-0.0288871,-0.543256,0.279696,
2,1,0,1,0,7265.27,0.281459,0.281159,0.481061,6,0.0225009,11,0.000135255,-3.3178,19.5656,0.0030155,0.056694,0.281159,
2,1,0,1,0,7265.42,0.282957,0.282666,0.479778,6,0.022575,11,0.000135617,-3.31896,-7.40584,-0.00796668,-0.149056,0.282666,
2,1,0,1,0,7265.57,0.284456,0.284166,0.479667,6,0.022649,11,0.000136305,-3.31906,-2.20038,-0.0268135,-0.50162,0.284166,
2,1,0,1,0,7265.72,0.285954,0.285702,0.478064,6,0.0227228,11,0.000136584,-3.32051,-1.96668,-0.0299998,-0.55979,0.285702,
2,1,0,1,0,7265.87,0.287452,0.287146,0.477636,6,0.0227964,11,0.000137151,-3.3209,-1.69077,-0.0348954,-0.65042,0.287146,
2,1,0,1,0,7266.02,0.28895,0.288648,0.474988,6,0.0228699,11,0.000137105,-3.32332,3.36529,0.0175319,0.325049,0.288648,
2,1,0,1,0,7266.17,0.290449,0.290148,0.47508,6,0.0229433,11,0.000137843,-3.32323,-2.83089,-0.0208415,-0.387826,0.2901476,
2,1,0,1,0,7266.32,0.291947,0.29164,0.472859,6,0.0230166,11,0.000137904,-3.32527,-1.04888,-0.0562505,-1.04228,0.2916396,
2,1,0,1,0,7266.47,0.293445,0.293142,0.472149,6,0.0230897,11,0.000138407,-3.32592,-1.83989,-0.0320671,-0.594788,0.293142,
2,1,0,1,0,7266.62,0.294943,0.294658,0.473197,6,0.0231626,11,0.000139431,-3.32496,-2.3925,-0.0246604,-0.454752,0.2946575,
2,1,0,1,0,7266.77,0.296442,0.296179,0.475847,6,0.0232357,11,0.000140936,-3.32253,-2.24127,-0.0263243,-0.484671,0.296179,
2,1,0,1,0,7266.92,0.297939,0.297628,0.471062,6,0.0233086,11,0.000140201,-3.32692,-1.34136,-0.0439853,-0.807699,0.297628,
2,1,0,1,0,7267.07,0.299437,0.299174,0.469109,6,0.0233812,11,0.000140345,-3.32873,-0.00121112,-48.7154,-275.048,0.299174,
2,1,0,1,0,7267.16,0.299738,0.299434,0.103482,6,0.0234127,11,3.09859e-05,-3.98514,0.00139476,42.3013,434.479,0.299434,
2,0,0,1,0,7267.31,0.29824,0.297988,-0.04983,6,0.0234088,11,-1.48487e-05,-4.30251,0.00517061,11.4106,148.86,0.297988,
2,0,0,1,0,7267.46,0.296741,0.296443,-0.0772516,6,0.0233968,11,-2.29007e-05,-4.11209,-0.00924908,-6.37901,16.1519,0.296443,
2,0,0,1,0,7267.61,0.295243,0.294966,-0.0974029,6,0.0233812,11,-2.87306e-05,-4.01143,-0.0195155,-3.02324,10.7533,0.294966,
2,0,0,1,0,7267.76,0.293745,0.293427,-0.112477,6,0.0233633,11,-3.30039e-05,-3.94894,-0.027436,-2.15046,8.97988,0.293427,
2,0,0,1,0,7267.91,0.292246,0.291948,-0.124832,6,0.0233436,11,-3.64446e-05,-3.90367,-0.0368629,-1.60052,7.72479,0.291948,
2,0,0,1,0,7268.05,0.290748,0.290438,-0.135651,6,0.023322,11,-3.93983e-05,-3.86758,-0.0449269,-1.31324,6.81905,0.290438,
2,0,0,1,0,7268.2,0.28925,0.288929,-0.145453,6,0.0232988,11,-4.20255e-05,-3.83728,-0.0553243,-1.06644,6.02844,0.288929,
2,0,0,1,0,7268.35,0.287752,0.287463,-0.152964,6,0.0232743,11,-4.39715e-05,-3.81541,-0.069536,-0.848482,5.06088,0.287463,
2,0,0,1,0,7268.5,0.286253,0.285962,-0.161403,6,0.0232487,11,-4.61552e-05,-3.79209,-0.0661347,-0.892119,5.64638,0.285962,
2,0,0,1,0,7268.65,0.284755,0.284497,-0.169204,6,0.0232219,11,-4.81379e-05,-3.77159,-0.062672,-0.941409,6.11103,0.284497,
2,0,0,1,0,7268.8,0.283258,0.282949,-0.177177,6,0.023194,11,-5.01319e-05,-3.75159,-0.0852955,-0.691713,4.76016,0.282949,
2,0,0,1,0,7268.95,0.281759,0.281496,-0.181571,6,0.0231651,11,-5.11116e-05,-3.74095,-0.0923401,-0.638943,4.50594,0.281496,
2,0,0,1,0,7269.1,0.280261,0.280007,-0.184797,6,0.0231353,11,-5.17446e-05,-3.7333,-0.115481,-0.510905,3.74768,0.280007,
2,0,0,1,0,7269.25,0.278763,0.278464,-0.19192,6,0.0231047,11,-5.34429e-05,-3.71688,-0.106944,-0.551691,4.16081,0.278464,
2,0,0,1,0,7269.4,0.277264,0.276937,-0.199259,6,0.0230732,11,-5.51821e-05,-3.70058,-0.142495,-0.41405,3.22814,0.276937,
2,0,0,1,0,7269.55,0.275766,0.275479,-0.204054,6,0.0230408,11,-5.62125e-05,-3.69026,-0.183772,-0.32105,2.54331,0.275479,
2,0,0,1,0,7269.7,0.274268,0.273952,-0.208664,6,0.0230076,11,-5.71639e-05,-3.68055,-0.150935,-0.390896,3.21435,0.273952,
2,0,0,1,0,7269.85,0.27277,0.272495,-0.213706,6,0.0229739,11,-5.82338e-05,-3.67018,-0.138921,-0.424701,3.57982,0.272495,
2,0,0,1,0,7270,0.271272,0.270988,-0.219312,6,0.0229393,11,-5.9431e-05,-3.65894,-0.16642,-0.354526,3.03137,0.270988,
2,0,0,1,0,7270.15,0.269773,0.269511,-0.226193,6,0.0229038,11,-6.09614e-05,-3.64552,-0.207531,-0.284295,2.47652,0.269511,
2,0,0,1,0,7270.3,0.268275,0.267974,-0.22899,6,0.0228679,11,-6.13633e-05,-3.64018,-0.173466,-0.340124,3.01888,0.267974,
2,0,0,1,0,7270.45,0.266778,0.266475,-0.233496,6,0.0228314,11,-6.22208e-05,-3.63172,-0.13689,-0.431003,3.90172,0.266475,
2,0,0,1,0,7270.6,0.265279,0.264966,-0.237373,6,0.0227941,11,-6.28959e-05,-3.62457,-0.154151,-0.38274,3.53492,0.264966,
2,0,0,1,0,7270.75,0.263781,0.263491,-0.23908,6,0.0227561,11,-6.29955e-05,-3.62146,-0.200993,-0.293543,2.77444,0.263491,
2,0,0,1,0,7270.9,0.262283,0.261979,-0.244531,6,0.0227176,11,-6.40619e-05,-3.61167,-0.261151,-0.225923,2.17119,0.261979,
2,0,0,1,0,7271.05,0.260784,0.260533,-0.247976,6,0.0226786,11,-6.46058e-05,-3.60559,-0.241592,-0.244213,2.38331,0.260533,
2,0,0,1,0,7271.2,0.259286,0.25896,-0.252319,6,0.0226389,11,-6.53406e-05,-3.59805,-0.199221,-0.296154,2.90687,0.25896,
2,0,0,1,0,7271.35,0.257788,0.257513,-0.260912,6,0.0225985,11,-6.71882e-05,-3.58351,-0.243019,-0.242779,2.4406,0.257513,
2,0,0,1,0,7271.5,0.25629,0.256016,-0.26042,6,0.0225576,11,-6.66718e-05,-3.58433,-0.265102,-0.222556,2.2638,0.256016,
2,0,0,1,0,7271.65,0.254791,0.254521,-0.263705,6,0.0225161,11,-6.71185e-05,-3.57888,-0.287698,-0.205076,2.11649,0.254521,
2,0,0,1,0,7271.8,0.253293,0.252968,-0.26726,6,0.0224742,11,-6.76081e-05,-3.57307,-0.230521,-0.255942,2.67547,0.252968,
2,0,0,1,0,7271.95,0.251796,0.251484,-0.270897,6,0.0224316,11,-6.81263e-05,-3.5672,-0.28169,-0.20945,2.23484,0.251484,
2,0,0,1,0,7272.1,0.250297,0.249971,-0.275648,6,0.0223885,11,-6.89039e-05,-3.55965,-0.344864,-0.171082,1.8335,0.249971,
2,0,0,1,0,7272.25,0.248799,0.248491,-0.278226,6,0.0223448,11,-6.91366e-05,-3.5556,-0.265344,-0.222353,2.42453,0.248491,
2,0,0,1,0,7272.4,0.247301,0.247024,-0.283026,6,0.0223008,11,-6.99141e-05,-3.54817,-0.260713,-0.226302,2.50405,0.247024,
2,0,0,1,0,7272.55,0.245802,0.245497,-0.286107,6,0.0222561,11,-7.02384e-05,-3.54347,-0.252373,-0.233781,2.60436,0.245497,
2,0,0,1,0,7272.7,0.244304,0.244019,-0.290102,6,0.0222108,11,-7.07903e-05,-3.53745,-0.273024,-0.216099,2.43724,0.244019,
2,0,0,1,0,7272.85,0.242806,0.242506,-0.294857,6,0.022165,11,-7.15044e-05,-3.53039,-0.307155,-0.192086,2.20349,0.242506,
2,0,0,1,0,7273,0.241308,0.240999,-0.295957,6,0.0221189,11,-7.13252e-05,-3.52877,-0.304634,-0.193675,2.23686,0.240999,
2,0,0,1,0,7273.15,0.23981,0.239567,-0.301247,6,0.0220721,11,-7.21689e-05,-3.52108,-0.234422,-0.251683,2.94394,0.239567,
2,0,0,1,0,7273.3,0.238311,0.238042,-0.302699,6,0.0220248,11,-7.20549e-05,-3.51899,-0.26604,-0.221771,2.62093,0.238042,
2,0,0,1,0,7273.45,0.236814,0.236522,-0.30837,6,0.021977,11,-7.29364e-05,-3.51093,-0.288722,-0.204349,2.45455,0.236522,
2,0,0,1,0,7273.6,0.235316,0.235017,-0.307912,6,0.0219288,11,-7.23645e-05,-3.51157,-0.297189,-0.198527,2.39623,0.235017,
2,0,0,1,0,7273.75,0.233817,0.233506,-0.315357,6,0.02188,11,-7.36379e-05,-3.5012,-0.281561,-0.209546,2.56665,0.233506,
2,0,0,1,0,7273.9,0.232319,0.231997,-0.317284,6,0.0218305,11,-7.3609e-05,-3.49855,-0.313596,-0.18814,2.31856,0.231997,
2,0,0,1,0,7274.05,0.230821,0.23054,-0.321941,6,0.0217806,11,-7.42202e-05,-3.49222,-0.502089,-0.117509,1.46805,0.23054,
2,0,0,1,0,7274.2,0.229322,0.229031,-0.321685,6,0.0217302,11,-7.36759e-05,-3.49257,-0.327359,-0.18023,2.2763,0.229031,
2,0,0,1,0,7274.35,0.227824,0.227523,-0.326756,6,0.0216795,11,-7.43446e-05,-3.48578,-0.369945,-0.159483,2.04254,0.227523,
2,0,0,1,0,7274.5,0.226326,0.226053,-0.330481,6,0.021628,11,-7.47064e-05,-3.48085,-0.445282,-0.1325,1.71765,0.226053,
2,0,0,1,0,7274.65,0.224828,0.224518,-0.335722,6,0.0215759,11,-7.53757e-05,-3.47402,-0.480543,-0.122778,1.60346,0.224518,
2,0,0,1,0,7274.8,0.223329,0.223041,-0.338626,6,0.0215233,11,-7.55274e-05,-3.47028,-0.321036,-0.18378,2.4334,0.223041,
2,0,0,1,0,7274.95,0.221831,0.221524,-0.343185,6,0.0214704,11,-7.60237e-05,-3.46447,-0.343115,-0.171954,2.29441,0.221524,
2,0,0,1,0,7275.1,0.220334,0.220048,-0.348656,6,0.0214167,11,-7.67211e-05,-3.4576,-0.231533,-0.254823,3.43252,0.220048,
2,0,0,1,0,7275.25,0.218835,0.218551,-0.349657,6,0.0213623,11,-7.64179e-05,-3.45636,-0.305947,-0.192844,2.63508,0.218551,
2,0,0,1,0,7275.4,0.217337,0.21699,-0.35495,6,0.0213075,11,-7.70207e-05,-3.44983,-0.318072,-0.185493,2.5691,0.21699,
2,0,0,1,0,7275.55,0.215839,0.215533,-0.354649,6,0.0212523,11,-7.64387e-05,-3.4502,-0.308969,-0.190958,2.67062,0.215533,
2,0,0,1,0,7275.7,0.21434,0.214057,-0.360762,6,0.0211963,11,-7.72236e-05,-3.44278,-0.224629,-0.262655,3.69844,0.214057,
2,0,0,1,0,7275.85,0.212842,0.212566,-0.365754,6,0.0211398,11,-7.77468e-05,-3.43681,-0.36942,-0.15971,2.28116,0.212566,
2,0,0,1,0,7276,0.211344,0.211026,-0.368306,6,0.0210825,11,-7.77223e-05,-3.43379,-0.331768,-0.177835,2.57411,0.211026,
2,0,0,1,0,7276.15,0.209846,0.209537,-0.370136,6,0.0210248,11,-7.75571e-05,-3.43164,-0.294547,-0.200308,2.92453,0.209537,
2,0,0,1,0,7276.29,0.208348,0.208041,-0.379894,6,0.0209664,11,-7.90337e-05,-3.42034,-0.268566,-0.219685,3.2566,0.208041,
2,0,0,1,0,7276.44,0.206849,0.206602,-0.389299,6,0.0209071,11,-8.04299e-05,-3.40972,-0.252036,-0.234093,3.49702,0.206602,
2,0,0,1,0,7276.59,0.205352,0.205081,-0.388689,6,0.0208469,11,-7.97127e-05,-3.4104,-0.296581,-0.198934,3.00332,0.205081,
2,0,0,1,0,7276.74,0.203854,0.203535,-0.390921,6,0.0207864,11,-7.95662e-05,-3.40791,-0.30935,-0.190723,2.93192,0.203535,
2,0,0,1,0,7276.89,0.202355,0.202056,-0.397957,6,0.0207252,11,-8.04097e-05,-3.40016,-0.233359,-0.25283,3.9399,0.202056,
2,0,0,1,0,7277.04,0.200857,0.200584,-0.402088,6,0.0206631,11,-8.06523e-05,-3.39568,-0.307592,-0.191812,3.0163,0.200584,
2,0,0,1,0,7277.19,0.199359,0.199017,-0.409831,6,0.0206001,11,-8.15634e-05,-3.3874,-0.318086,-0.185484,2.96057,0.199017,
2,0,0,1,0,7277.34,0.19786,0.197562,-0.414977,6,0.0205363,11,-8.1984e-05,-3.38198,-0.271791,-0.217079,3.51102,0.197562,
2,0,0,1,0,7277.49,0.196362,0.19608,-0.421958,6,0.0204719,11,-8.27375e-05,-3.37473,-0.227142,-0.25975,4.27613,0.19608,
2,0,0,1,0,7277.64,0.194864,0.194537,-0.426966,6,0.0204063,11,-8.30608e-05,-3.36961,-0.235308,-0.250735,4.1676,0.1945371,
2,0,0,1,0,7277.79,0.193366,0.193067,-0.43573,6,0.0203396,11,-8.41252e-05,-3.36078,-0.233652,-0.252512,4.28837,0.193067,
2,0,0,1,0,7277.94,0.191867,0.191563,-0.440489,6,0.020272,11,-8.43813e-05,-3.35607,-0.239803,-0.246035,4.25168,0.191563,
2,0,0,1,0,7278.09,0.190369,0.190058,-0.446918,6,0.0202035,11,-8.49402e-05,-3.34977,-0.19682,-0.299766,5.26665,0.190058,
2,0,0,1,0,7278.24,0.188872,0.188538,-0.456062,6,0.0201338,11,-8.59849e-05,-3.34098,-0.169811,-0.347445,6.17359,0.188538,
2,0,0,1,0,7278.39,0.187373,0.187079,-0.464469,6,0.0200627,11,-8.68925e-05,-3.33304,-0.168535,-0.350075,6.35995,0.187079,
2,0,0,1,0,7278.54,0.185875,0.185596,-0.472382,6,0.0199904,11,-8.76722e-05,-3.32571,-0.182894,-0.322592,5.93883,0.185596,
2,0,0,1,0,7278.69,0.184377,0.184053,-0.479482,6,0.0199169,11,-8.825e-05,-3.31923,-0.188291,-0.313344,5.91061,0.184053,
2,0,0,1,0,7278.84,0.182878,0.182546,-0.492077,6,0.0198419,11,-8.98267e-05,-3.30797,-0.162954,-0.362065,6.95507,0.182546,
2,0,0,1,0,7278.99,0.18138,0.181072,-0.503118,6,0.0197651,11,-9.11006e-05,-3.29833,-0.16054,-0.367511,7.22843,0.181072,
2,0,0,1,0,7279.14,0.179882,0.179597,-0.515564,6,0.0196867,11,-9.25938e-05,-3.28772,-0.187247,-0.315092,6.32599,0.179597,
2,0,0,1,0,7279.29,0.178384,0.178072,-0.528964,6,0.0196065,11,-9.41938e-05,-3.27657,-0.144216,-0.409108,8.44821,0.178072,
2,0,0,1,0,7279.44,0.176886,0.176557,-0.541418,6,0.0195246,11,-9.5591e-05,-3.26647,-0.136885,-0.431017,9.12506,0.176557,
2,0,0,1,0,7279.59,0.175387,0.175087,-0.558689,6,0.0194403,11,-9.7819e-05,-3.25283,-0.121887,-0.484054,10.509,0.175087,
2,0,0,1,0,7279.74,0.17389,0.173565,-0.574554,6,0.0193536,11,-9.97227e-05,-3.24067,-0.114505,-0.51526,11.5005,0.173565,
2,0,0,1,0,7279.89,0.172392,0.172076,-0.589925,6,0.0192645,11,-0.000101512,-3.2292,-0.111625,-0.528554,12.1836,0.172076,
2,0,0,1,0,7280.04,0.170893,0.170626,-0.610225,6,0.0191728,11,-0.00010412,-3.21451,-0.107245,-0.550142,13.1158,0.170626,
2,0,0,1,0,7280.19,0.169395,0.169112,-0.629393,6,0.019078,11,-0.000106438,-3.20108,-0.0901714,-0.654309,16.0794,0.169112,
2,0,0,1,0,7280.34,0.167897,0.167553,-0.654223,6,0.0189796,11,-0.000109617,-3.18427,-0.0911783,-0.647084,16.5597,0.167553,
2,0,0,1,0,7280.49,0.166398,0.166086,-0.677692,6,0.0188777,11,-0.000112555,-3.16897,-0.0940969,-0.627013,16.6986,0.166086,
2,0,0,1,0,7280.64,0.1649,0.164581,-0.705771,6,0.0187719,11,-0.000116156,-3.15134,-0.0859046,-0.686809,19.0116,0.164581,
2,0,0,1,0,7280.79,0.163402,0.163064,-0.738375,6,0.0186617,11,-0.000120403,-3.13172,-0.0768422,-0.767808,22.1894,0.163064,
2,0,0,1,0,7280.94,0.161904,0.161611,-0.77504,6,0.0185465,11,-0.000125255,-3.11068,-0.0739931,-0.797371,24.0832,0.161611,
2,0,0,1,0,7281.09,0.160405,0.160119,-0.813104,6,0.0184257,11,-0.000130193,-3.08985,-0.0726017,-0.812653,25.6532,0.160119,
2,0,0,1,0,7281.24,0.158907,0.158603,-0.848302,6,0.0182993,11,-0.000134543,-3.07145,-0.0672305,-0.877578,29.2232,0.158603,
2,0,0,1,0,7281.39,0.15741,0.157102,-0.894841,6,0.0181668,11,-0.000140581,-3.04825,-0.0634524,-0.929831,32.6509,0.157102,
2,0,0,1,0,7281.54,0.155911,0.155612,-0.942413,6,0.0180267,11,-0.00014665,-3.02576,-0.0638722,-0.92372,34.1041,0.155612,
2,0,0,1,0,7281.69,0.154413,0.154082,-0.996399,6,0.0178789,11,-0.000153527,-3.00157,-0.067089,-0.879429,34.157,0.154082,
2,0,0,1,0,7281.84,0.152915,0.152584,-1.05215,6,0.0177234,11,-0.000160542,-2.97792,-0.0658719,-0.895678,36.8202,0.152584,
2,0,0,1,0,7281.99,0.151417,0.151134,-1.1075,6,0.01756,11,-0.000167381,-2.95566,-0.0664799,-0.887486,38.3544,0.1511336,
2,0,0,1,0,7282.14,0.149918,0.149617,-1.16828,6,0.0173876,11,-0.000174795,-2.93245,-0.0681227,-0.866084,39.3253,0.149617,
2,0,0,1,0,7282.29,0.14842,0.14812,-1.22713,6,0.0172063,11,-0.000181762,-2.91111,-0.0708633,-0.832588,39.7375,0.14812,
2,0,0,1,0,7282.44,0.146922,0.14663,-1.28595,6,0.0170161,11,-0.00018856,-2.89077,-0.0776785,-0.759541,38.0403,0.14663,
2,0,0,1,0,7282.59,0.145424,0.145153,-1.33858,6,0.0168177,11,-0.000194299,-2.87335,-0.0814667,-0.724222,37.8324,0.145153,
2,0,0,1,0,7282.74,0.143925,0.14365,-1.39715,6,0.0166105,11,-0.000200701,-2.85476,-0.0829535,-0.711242,38.6068,0.14365,
2,0,0,1,0,7282.89,0.142428,0.142135,-1.45012,6,0.0163949,11,-0.000206113,-2.8386,-0.0974003,-0.605748,34.1668,0.142135,
2,0,0,1,0,7283.04,0.14093,0.14065,-1.49759,6,0.0161718,11,-0.000210636,-2.82461,-0.118623,-0.497372,28.9964,0.14065,
2,0,0,1,0,7283.19,0.139431,0.139125,-1.53236,6,0.015942,11,-0.000213189,-2.81464,-0.135215,-0.436343,26.1318,0.1391245,
2,0,0,1,0,7283.34,0.137933,0.137619,-1.57745,6,0.0157067,11,-0.000217087,-2.80204,-0.152696,-0.386388,23.7218,0.137619,
2,0,0,1,0,7283.49,0.136435,0.136102,-1.61095,6,0.0154658,11,-0.000219254,-2.79292,-0.192226,-0.30693,19.1888,0.136102,
2,0,0,1,0,7283.64,0.134936,0.134626,-1.63794,6,0.0152204,11,-0.00022051,-2.7857,-0.275297,-0.214314,13.6069,0.134626,
2,0,0,1,0,7283.79,0.133438,0.133146,-1.65049,6,0.014972,11,-0.000219756,-2.78239,-0.358058,-0.164778,10.6051,0.133146,
2,0,0,1,0,7283.94,0.13194,0.131652,-1.66971,6,0.0147213,11,-0.00021982,-2.77736,-0.508383,-0.116054,7.54212,0.1316518,
2,0,0,1,0,7284.09,0.130442,0.130129,-1.67877,6,0.0144686,11,-0.000218457,-2.77501,-1.03659,-0.0569174,3.71581,0.130129,
2,0,0,1,0,7284.24,0.128943,0.128647,-1.68473,6,0.0142145,11,-0.000216736,-2.77347,23.9384,0.00246466,-0.161016,0.128647,
2,0,0,1,0,7284.39,0.127445,0.127141,-1.67944,6,0.0139608,11,-0.000213526,-2.77483,1.18701,0.0497048,-3.24559,0.127141,
2,0,0,1,0,7284.54,0.125948,0.125664,-1.66836,6,0.0137085,11,-0.000209653,-2.77771,0.690723,0.0854178,-5.55798,0.125664,
2,0,0,1,0,7284.68,0.124449,0.124125,-1.6578,6,0.0134571,11,-0.000205774,-2.78047,0.629275,0.0937587,-6.05072,0.124125,
2,0,0,1,0,7284.83,0.122951,0.122579,-1.64646,6,0.0132075,11,-0.000201821,-2.78345,0.379849,0.155325,-9.95638,0.122579,
2,0,0,1,0,7284.98,0.121453,0.121189,-1.62665,6,0.0129603,11,-0.000197132,-2.78871,0.288834,0.204269,-12.946,0.121189,
2,0,0,1,0,7285.13,0.119955,0.11967,-1.60165,6,0.0127163,11,-0.00019167,-2.79543,0.247693,0.238199,-14.9182,0.11967,
2,0,0,1,0,7285.28,0.118456,0.118146,-1.58184,6,0.0124756,11,-0.000186889,-2.80084,0.257524,0.229105,-14.1488,0.118146,
2,0,0,1,0,7285.43,0.116958,0.116673,-1.56399,6,0.012238,11,-0.000182474,-2.80577,0.207269,0.284654,-17.2906,0.116673,
2,0,0,1,0,7285.58,0.11546,0.115098,-1.5347,6,0.0120041,11,-0.00017664,-2.81398,0.174976,0.33719,-20.1401,0.115098,
2,0,0,1,0,7285.73,0.113962,0.113679,-1.49981,6,0.0117748,11,-0.000170497,-2.82396,0.171663,0.343696,-20.159,0.113679,
2,0,0,1,0,7285.88,0.112463,0.11217,-1.47689,6,0.0115498,11,-0.000165662,-2.83065,0.179307,0.329044,-18.9295,0.11217,
2,0,0,1,0,7286.03,0.110966,0.110681,-1.4481,6,0.011329,11,-0.000160277,-2.8392,0.175444,0.336289,-18.9739,0.110681,
2,0,0,1,0,7286.18,0.109468,0.109142,-1.41833,6,0.0111124,11,-0.0001548,-2.84822,0.157831,0.373817,-20.6676,0.109142,
2,0,0,1,0,7286.33,0.107969,0.107696,-1.38594,6,0.0109,11,-0.000149261,-2.85826,0.172801,0.341433,-18.5097,0.107696,
2,0,0,1,0,7286.48,0.106471,0.106178,-1.35812,6,0.0106924,11,-0.000144202,-2.86706,0.173015,0.34101,-18.1673,0.106178,
2,0,0,1,0,7286.63,0.104973,0.104705,-1.33405,6,0.0104885,11,-0.000139682,-2.87483,0.185225,0.318532,-16.598,0.104705,
2,0,0,1,0,7286.78,0.103474,0.103182,-1.31311,6,0.010288,11,-0.000135489,-2.8817,0.18069,0.326527,-16.6974,0.103182,
2,0,0,1,0,7286.93,0.101976,0.101655,-1.28749,6,0.0100915,11,-0.00013088,-2.89026,0.185654,0.317795,-15.961,0.101655,
2,0,0,1,0,7287.08,0.100478,0.100195,-1.26409,6,0.00989874,11,-0.000126656,-2.89822,0.210679,0.280047,-13.84,0.100195,
2,0,0,1,0,7287.23,0.0989799,0.0986785,-1.24537,6,0.00970887,11,-0.000122891,-2.9047,0.250927,0.235128,-11.4085,0.09867847,
2,0,0,1,0,7287.38,0.0974808,0.0971579,-1.22794,6,0.00952157,11,-0.000119305,-2.91082,0.243134,0.242665,-11.6419,0.0971579,
2,0,0,1,0,7287.53,0.0959833,0.0956847,-1.20891,6,0.009337,11,-0.000115674,-2.91761,0.266303,0.221552,-10.4743,0.0956847,
2,0,0,1,0,7287.68,0.0944857,0.094167,-1.19041,6,0.00915527,11,-0.000112097,-2.9243,0.295954,0.199355,-9.31781,0.094167,
2,0,0,1,0,7287.83,0.0929871,0.092736,-1.17702,6,0.00897558,11,-0.000109152,-2.92922,0.382636,0.154194,-7.10034,0.092736,
2,0,0,1,0,7287.98,0.0914889,0.0911888,-1.1712,6,0.00879759,11,-0.000106801,-2.93137,0.334024,0.176634,-8.05195,0.0911888,
2,0,0,1,0,7288.13,0.0899907,0.0896512,-1.15565,6,0.00862147,11,-0.000103605,-2.93717,0.295039,0.199974,-8.99286,0.0896512,
2,0,0,1,0,7288.28,0.0884925,0.08819,-1.13789,6,0.00844742,11,-0.000100351,-2.9439,0.349564,0.168782,-7.52922,0.08819,
2,0,0,1,0,7288.43,0.0869943,0.0867001,-1.13218,6,0.00827533,11,-9.81601e-05,-2.94608,0.368509,0.160105,-7.07772,0.0867001,
2,0,0,1,0,7288.58,0.0854962,0.0851774,-1.12298,6,0.0081044,11,-9.56522e-05,-2.94963,0.391135,0.150843,-6.61588,0.0851774,
2,0,0,1,0,7288.73,0.083998,0.083696,-1.11211,6,0.00793488,11,-9.30788e-05,-2.95385,0.297414,0.198377,-8.59806,0.083696,
2,0,0,1,0,7288.88,0.0824998,0.0821913,-1.10584,6,0.00776689,11,-9.08904e-05,-2.95631,0.409106,0.144217,-6.21623,0.0821913,
2,0,0,1,0,7289.03,0.0810011,0.0806737,-1.0955,6,0.00760056,11,-8.83776e-05,-2.96039,0.503922,0.117082,-5.00249,0.0806737,
2,0,0,1,0,7289.18,0.0795036,0.0792108,-1.08605,6,0.00743528,11,-8.60271e-05,-2.96415,0.516987,0.114123,-4.82635,0.0792108,
2,0,0,1,0,7289.33,0.0780061,0.0777109,-1.07582,6,0.00727118,11,-8.36028e-05,-2.96826,0.397712,0.148349,-6.21925,0.0777109,
2,0,0,1,0,7289.48,0.076507,0.0761544,-1.06855,6,0.00710857,11,-8.1375e-05,-2.9712,0.35691,0.165308,-6.87848,0.0761544,
2,0,0,1,0,7289.63,0.0750088,0.0746878,-1.05339,6,0.00694791,11,-7.86757e-05,-2.97741,0.395519,0.149171,-6.15066,0.0746878,
2,0,0,1,0,7289.78,0.0735106,0.0732277,-1.04713,6,0.00678843,11,-7.66791e-05,-2.98,0.462932,0.127448,-5.19794,0.0732277,
2,0,0,1,0,7289.93,0.0720124,0.0716731,-1.03596,6,0.00663022,11,-7.42506e-05,-2.98466,0.318656,0.185153,-7.49488,0.0716731,
2,0,0,1,0,7290.08,0.0705142,0.0702172,-1.02583,6,0.00647366,11,-7.20309e-05,-2.98892,0.314896,0.187364,-7.50946,0.0702172,
2,0,0,1,0,7290.23,0.0690161,0.0686902,-1.01187,6,0.00631889,11,-6.95058e-05,-2.99487,0.324148,0.182016,-7.21894,0.0686902,
2,0,0,1,0,7290.38,0.0675179,0.0672236,-1.00543,6,0.00616577,11,-6.75889e-05,-2.99765,0.321876,0.1833,-7.17968,0.0672236,
2,0,0,1,0,7290.53,0.0660188,0.0657464,-1.00031,6,0.00601386,11,-6.57669e-05,-2.99986,0.290873,0.202837,-7.84962,0.0657464,
2,0,0,1,0,7290.68,0.0645213,0.0642414,-0.984392,6,0.00586368,11,-6.32387e-05,-3.00683,0.252713,0.233466,-8.91055,0.0642414,
2,0,0,1,0,7290.83,0.0630237,0.0627366,-0.965384,6,0.00571564,11,-6.05649e-05,-3.0153,0.280671,0.210211,-7.9605,0.0627366,
2,0,0,1,0,7290.98,0.0615251,0.0612599,-0.953215,6,0.0055697,11,-5.83938e-05,-3.02081,0.27896,0.2115,-7.90608,0.0612599,
2,0,0,1,0,7291.13,0.0600269,0.0597319,-0.942137,6,0.00542534,11,-5.62756e-05,-3.02589,0.254548,0.231784,-8.54214,0.0597319,
2,0,0,1,0,7291.28,0.0585287,0.0582547,-0.930481,6,0.0052828,11,-5.42049e-05,-3.03129,0.22034,0.267768,-9.70162,0.0582547,
2,0,0,1,0,7291.43,0.0570305,0.0567553,-0.919162,6,0.00514214,11,-5.21673e-05,-3.03661,0.248766,0.237171,-8.50981,0.0567553,
2,0,0,1,0,7291.58,0.0555323,0.0552273,-0.90499,6,0.00500387,11,-4.99801e-05,-3.04336,0.263508,0.223903,-7.92337,0.0552273,
2,0,0,1,0,7291.73,0.0540342,0.0537331,-0.895808,6,0.00486704,11,-4.81346e-05,-3.04779,0.273225,0.215939,-7.52017,0.0537331,
2,0,0,1,0,7291.88,0.052536,0.0522199,-0.882656,6,0.00473181,11,-4.60923e-05,-3.05421,0.260408,0.226567,-7.79988,0.0522199,
2,0,0,1,0,7292.03,0.0510378,0.0507258,-0.871217,6,0.00459857,11,-4.41932e-05,-3.05987,0.246702,0.239155,-8.12622,0.0507258,
2,0,0,1,0,7292.18,0.0495391,0.049205,-0.858399,6,0.0044673,11,-4.22375e-05,-3.06631,0.300753,0.196174,-6.5692,0.04920499,
2,0,0,1,0,7292.33,0.0480416,0.0477524,-0.847898,6,0.00433749,11,-4.04891e-05,-3.07166,0.402479,0.146592,-4.84123,0.0477524,
2,0,0,1,0,7292.48,0.0465441,0.0462055,-0.83648,6,0.00420917,11,-3.86499e-05,-3.07754,0.314392,0.187664,-6.14471,0.0462055,
2,0,0,1,0,7292.63,0.045045,0.044742,-0.829101,6,0.00408225,11,-3.70956e-05,-3.08139,0.315034,0.187281,-6.06477,0.044742,
2,0,0,1,0,7292.78,0.0435468,0.0432447,-0.813046,6,0.00395698,11,-3.51599e-05,-3.08988,0.351448,0.167877,-5.36536,0.0432447,
2,0,0,1,0,7292.92,0.0420486,0.0417749,-0.81003,6,0.00383297,11,-3.3839e-05,-3.0915,0.376474,0.156717,-4.96605,0.04177494,
2,0,0,1,0,7293.07,0.0405504,0.0402501,-0.805566,6,0.00370991,11,-3.24241e-05,-3.0939,0.37049,0.159249,-4.99308,0.0402501,
2,0,0,1,0,7293.22,0.0390523,0.0387294,-0.796333,6,0.00358793,11,-3.08415e-05,-3.09891,0.3299,0.178842,-5.55572,0.0387294,
2,0,0,1,0,7293.37,0.0375541,0.037247,-0.787006,6,0.00346712,11,-2.93136e-05,-3.10402,0.386867,0.152507,-4.70285,0.037247,
2,0,0,1,0,7293.52,0.0360559,0.0357179,-0.784739,6,0.00334744,11,-2.80292e-05,-3.10527,0.436347,0.135213,-4.15432,0.0357179,
2,0,0,1,0,7293.67,0.0345568,0.0342656,-0.778765,6,0.00322826,11,-2.66848e-05,-3.10859,0.591959,0.099669,-3.03172,0.0342656,
2,0,0,1,0,7293.82,0.0330593,0.032776,-0.776224,6,0.00310978,11,-2.54415e-05,-3.11001,0.490277,0.12034,-3.63818,0.032776,
2,0,0,1,0,7293.97,0.0315618,0.0312592,-0.770465,6,0.00299195,11,-2.40842e-05,-3.11325,0.665842,0.0886096,-2.66285,0.0312592,
2,0,0,1,0,7294.12,0.0300631,0.0297637,-0.768082,6,0.00287502,11,-2.2861e-05,-3.11459,0.934056,0.0631654,-1.89362,0.0297637,
2,0,0,1,0,7294.27,0.0285649,0.0282781,-0.764785,6,0.00275824,11,-2.16267e-05,-3.11646,2.87771,0.0205024,-0.609777,0.0282781,
2,0,0,1,0,7294.42,0.0270667,0.0267511,-0.76424,6,0.00264173,11,-2.04443e-05,-3.11677,1.03628,0.0569344,-1.69643,0.0267511,
2,0,0,1,0,7294.57,0.0255685,0.0253195,-0.759776,6,0.0025256,11,-1.92372e-05,-3.11931,1.42763,0.0413272,-1.22657,0.0253195,
2,0,0,1,0,7294.72,0.0240704,0.0238,-0.757881,6,0.00241005,11,-1.80375e-05,-3.1204,2.26821,0.0260117,-0.771532,0.0238,
2,0,0,1,0,7294.87,0.0225722,0.0222794,-0.75659,6,0.00229433,11,-1.68564e-05,-3.12114,-2.03016,-0.0290617,0.857602,0.0222794,
2,0,0,1,0,7295.02,0.021074,0.0207397,-0.758604,6,0.00217873,11,-1.57332e-05,-3.11998,2.91796,0.0202196,-0.599569,0.0207397,
2,0,0,1,0,7295.17,0.0195758,0.0192296,-0.7588,6,0.00206315,11,-1.45915e-05,-3.11987,8.43518,0.00699452,-0.206789,0.0192296,
2,0,0,1,0,7295.32,0.0180772,0.0177512,-0.753938,6,0.00194766,11,-1.33833e-05,-3.12266,-2.00958,-0.0293594,0.868647,0.0177512,
2,0,0,1,0,7295.47,0.0165796,0.016265,-0.759068,6,0.00183223,11,-1.23462e-05,-3.11972,-1.05963,-0.0556798,1.64823,0.016265,
2,0,0,1,0,7295.62,0.0150821,0.0147846,-0.762774,6,0.00171641,11,-1.12773e-05,-3.1176,-1.13064,-0.0521827,1.54625,0.0147846,
2,0,0,1,0,7295.77,0.013583,0.0132808,-0.761103,6,0.00160018,11,-1.0108e-05,-3.11856,42.7773,0.00137924,-0.040777,0.0132808,
2,0,0,1,0,7295.92,0.0120848,0.0117877,-0.7629,6,0.001484,11,-8.99284e-06,-3.11753,-1.65653,-0.0356166,1.06172,0.0117877,
2,0,0,1,0,7296.07,0.0105866,0.0102501,-0.764105,6,0.00136789,11,-7.83217e-06,-3.11685,-1.78718,-0.0330129,0.986803,0.0102501,
2,0,0,1,0,7296.22,0.00908846,0.00880478,-0.765633,6,0.00125116,11,-6.74123e-06,-3.11598,-0.915255,-0.0644629,1.92892,0.00880478,
2,0,0,1,0,7296.37,0.00759027,0.00725446,-0.769238,6,0.00113395,11,-5.58041e-06,-3.11394,-1.62667,-0.0362704,1.0892,0.00725446,
2,0,0,1,0,7296.52,0.00609208,0.00575717,-0.775277,6,0.00101653,11,-4.4634e-06,-3.11054,-1.30773,-0.0451163,1.3597,0.00575717,
2,0,0,1,0,7296.67,0.00459389,0.00430335,-0.775506,6,0.000898839,11,-3.33727e-06,-3.11042,-0.786693,-0.0749975,2.26401,0.004303351,
2,0,0,1,0,7296.82,0.0030948,0.00279694,-0.780985,6,0.000780504,11,-2.18437e-06,-3.10736,-0.481834,-0.122449,3.71747,0.00279694,
2,0,0,1,0,7296.97,0.00159728,0.0012576,-0.789919,6,0.00065964,11,-9.93404e-07,-3.10242, , , ,0.0012576,
2,0,0,1,0,7297.11,0.000199195,-0.000155446,-0.782641,6,0.000547747,11,1.21659e-07,-3.10644, , , ,-0.0001554464,