File: Figure_codes/Fig_3-5/rawdata_trumpetplot_data/before 10th/20221101_1-115_002_TrumpetPlot_ParaChange_04_CV_C01_7.csv
mode,ox/red,error,control changes,counter inc.,time/s,control/V,Ewe/V,<I>/mA,cycle number,(Q-Qo)/C,I Range,P/W,log(|I|),Tafel slope mV/dec,alpha_eff,dI/d(E-IR),E-IR/V,
2,0,0,1,0,8980.2,2.44065e-05,-0.000287149,-0.396012,8,0.0000000E+000,11,1.13715e-07,-3.40229, , , ,-0.0002871489,
2,0,0,1,0,8981.47,0.00129791,0.000920666,-0.163929,8,-0.000224043,11,-1.50924e-07,-3.78534, , , ,0.000920666,
2,0,0,1,0,8982.97,0.00279612,0.00250919,-0.132976,8,-0.000415668,11,-3.33661e-07,-3.87623,-0.0189089,-3.12022,17.3189,0.00250919,
2,0,0,1,0,8984.47,0.00429431,0.00399912,-0.114876,8,-0.000574635,11,-4.59404e-07,-3.93977,-0.0270072,-2.18461,9.9747,0.00399912,
2,0,0,1,0,8985.97,0.00579242,0.00548252,-0.102344,8,-0.000710833,11,-5.61104e-07,-3.98994,-0.0293103,-2.01294,8.11655,0.00548252,
2,0,0,1,0,8987.47,0.00729061,0.00698722,-0.0914149,8,-0.000829284,11,-6.38736e-07,-4.03898,-0.0335568,-1.75821,6.36428,0.00698722,
2,0,0,1,0,8988.96,0.00878882,0.0085174,-0.0829234,8,-0.000933737,11,-7.06292e-07,-4.08132,-0.0374803,-1.57416,5.15971,0.0085174,
2,0,0,1,0,8990.46,0.010287,0.00998393,-0.0762282,8,-0.00102674,11,-7.61057e-07,-4.11788,-0.0394028,-1.49735,4.47695,0.00998393,
2,0,0,1,0,8991.96,0.0117852,0.0114707,-0.0704254,8,-0.00110984,11,-8.07827e-07,-4.15227,-0.0405509,-1.45496,3.99116,0.0114707,
2,0,0,1,0,8993.46,0.0132834,0.0129605,-0.0638685,8,-0.00118436,11,-8.27771e-07,-4.19471,-0.0406612,-1.45101,3.6411,0.0129605,
2,0,0,1,0,8994.96,0.0147815,0.0144662,-0.0592275,8,-0.00125102,11,-8.56798e-07,-4.22748,-0.0453798,-1.30014,3.01755,0.0144662,
2,0,0,1,0,8996.46,0.0162797,0.0159709,-0.0552067,8,-0.00131048,11,-8.81703e-07,-4.25801,-0.0506698,-1.1644,2.52398,0.0159709,
2,0,0,1,0,8997.95,0.0177779,0.0174693,-0.0513598,8,-0.00136393,11,-8.9722e-07,-4.28938,-0.0503433,-1.17195,2.34626,0.0174693,
2,0,0,1,0,8999.45,0.0192761,0.0189539,-0.0474522,8,-0.00141223,11,-8.99403e-07,-4.32374,-0.0467793,-1.26124,2.35244,0.0189539,
2,0,0,1,0,9000.95,0.0207743,0.0204713,-0.0443749,8,-0.001455,11,-9.08413e-07,-4.35286,-0.0456934,-1.29122,2.23417,0.0204713,
2,0,0,1,0,9002.45,0.0222725,0.0220015,-0.0410504,8,-0.0014928,11,-9.0317e-07,-4.38668,-0.0415622,-1.41956,2.27055,0.0220015,
2,0,0,1,0,9003.95,0.0237707,0.0234395,-0.0379154,8,-0.00152613,11,-8.88717e-07,-4.42118,-0.0469779,-1.25591,1.87753,0.0234395,
2,0,0,1,0,9005.44,0.0252689,0.0249866,-0.0352228,8,-0.00155528,11,-8.80098e-07,-4.45318,-0.0408872,-1.44299,1.97418,0.0249866,
2,0,0,1,0,9006.94,0.0267671,0.0264436,-0.0328266,8,-0.00158024,11,-8.68053e-07,-4.48377,-0.0402289,-1.46661,1.86527,0.0264436,
2,0,0,1,0,9008.44,0.0282653,0.0280024,-0.0297396,8,-0.00160091,11,-8.3278e-07,-4.52666,-0.0369182,-1.59813,1.83504,0.0280024,
2,0,0,1,0,9009.94,0.0297635,0.0294796,-0.0274644,8,-0.0016178,11,-8.09639e-07,-4.56123,-0.0373988,-1.57759,1.6807,0.0294796,
2,0,0,1,0,9011.44,0.0312617,0.0309312,-0.0255146,8,-0.00163116,11,-7.89198e-07,-4.59321,-0.0365394,-1.61469,1.56269,0.0309312,
2,0,0,1,0,9012.94,0.0327599,0.0324307,-0.0223377,8,-0.00164087,11,-7.24427e-07,-4.65096,-0.0358377,-1.64631,1.43557,0.0324307,
2,0,0,1,0,9014.43,0.0342581,0.0339588,-0.0203329,8,-0.00164697,11,-6.90481e-07,-4.6918,-0.0302862,-1.94808,1.537,0.0339588,
2,0,0,1,0,9015.93,0.0357563,0.0354772,-0.0177746,8,-0.00164973,11,-6.30592e-07,-4.7502,-0.0276255,-2.13571,1.50555,0.0354772,
2,0,0,1,0,9017.43,0.0372544,0.0369533,-0.0158006,8,-0.00164903,11,-5.83885e-07,-4.80133,-0.022423,-2.63123,1.54641,0.0369533,
2,0,0,1,0,9018.93,0.0387526,0.0384251,-0.0135646,8,-0.00164513,11,-5.21222e-07,-4.86759,-0.0174378,-3.38346,1.69188,0.0384251,
2,0,0,1,0,9020.43,0.0402508,0.0399245,-0.0112552,8,-0.00163752,11,-4.4936e-07,-4.94865,-0.0169737,-3.47596,1.43931,0.0399245,
2,0,0,1,0,9021.92,0.041749,0.0414589,-0.00863833,8,-0.00162615,11,-3.58136e-07,-5.06357,-0.0139525,-4.22862,1.48,0.0414589,
2,0,0,1,0,9023.42,0.0432472,0.042951,-0.0058151,8,-0.00161189,11,-2.49764e-07,-5.23544,-0.00776678,-7.59645,1.70029,0.042951,
2,0,0,1,0,9024.92,0.0447454,0.0444737,-0.00399627,8,-0.00159441,11,-1.77729e-07,-5.39834,-0.00639842,-9.22102,1.40052,0.0444737,
2,0,0,1,0,9026.42,0.0462435,0.0459147,-0.00167275,8,-0.0015731,11,-7.68037e-08,-5.77657,-0.00372462,-15.8405,1.43604,0.0459147,
2,0,0,1,0,9027.92,0.0477417,0.0474438,0.00029457,8,-0.00154845,11,1.39755e-08,-6.53081,0.0421692,1.39913,1.60129,0.0474438,
2,0,0,1,0,9029.42,0.0492399,0.0489432,0.00249507,8,-0.00152031,11,1.22117e-07,-5.60292,0.00457839,12.8866,1.48582,0.04894324,
2,0,0,1,0,9030.91,0.0507381,0.0504469,0.00438537,8,-0.0014892,11,2.21228e-07,-5.35799,0.00554176,10.6464,1.49862,0.0504469,
2,0,0,1,0,9032.41,0.0522363,0.0519336,0.00686484,8,-0.00145448,11,3.56516e-07,-5.16337,0.00798832,7.38578,1.70343,0.0519336,
2,1,0,1,0,9033.91,0.0537345,0.0534595,0.00898904,8,-0.00141599,11,4.8055e-07,-5.04629,0.0135004,4.37025,1.51116,0.0534595,
2,1,0,1,0,9035.41,0.0552327,0.0549558,0.0112003,8,-0.00137435,11,6.1552e-07,-4.95077,0.0177622,3.32166,1.4307,0.0549558,
2,1,0,1,0,9036.91,0.0567309,0.056382,0.0129653,8,-0.00132958,11,7.3101e-07,-4.88722,0.0183549,3.2144,1.61828,0.056382,
2,1,0,1,0,9038.4,0.0582291,0.0579133,0.0156524,8,-0.00128148,11,9.06483e-07,-4.80542,0.0223257,2.64269,1.58218,0.0579133,
2,1,0,1,0,9039.9,0.0597273,0.0594445,0.0179117,8,-0.0012297,11,1.06475e-06,-4.74686,0.0254065,2.32224,1.59278,0.0594445,
2,1,0,1,0,9041.4,0.0612255,0.0609375,0.0202692,8,-0.00117457,11,1.23516e-06,-4.69316,0.035159,1.67809,1.29862,0.0609375,
2,0,0,1,0,9042.9,0.0627237,0.0624275,0.021698,8,-0.00111611,11,1.35455e-06,-4.66358,0.034537,1.70831,1.4636,0.0624275,
2,1,0,1,0,9044.4,0.0642219,0.0639099,0.0237635,8,-0.00105496,11,1.51872e-06,-4.62409,0.0349431,1.68846,1.62204,0.0639099,
2,1,0,1,0,9045.9,0.0657201,0.0654348,0.0263199,8,-0.000990313,11,1.72223e-06,-4.57972,0.0444359,1.32776,1.36797,0.0654348,
2,1,0,1,0,9047.39,0.0672183,0.0669639,0.028995,8,-0.000922267,11,1.94162e-06,-4.53768,0.0469925,1.25552,1.3885,0.0669639,
2,1,0,1,0,9048.89,0.0687164,0.0683975,0.0308728,8,-0.000851398,11,2.11162e-06,-4.51042,0.0477755,1.23494,1.46168,0.0683975,
2,1,0,1,0,9050.39,0.0702146,0.0699637,0.0324047,8,-0.000778106,11,2.26716e-06,-4.48939,0.0545675,1.08123,1.35765,0.0699637,
2,1,0,1,0,9051.89,0.0717128,0.0713931,0.0342244,8,-0.000701342,11,2.44338e-06,-4.46566,0.0548678,1.07531,1.42222,0.0713931,
2,1,0,1,0,9053.39,0.073211,0.0729169,0.0364921,8,-0.000621806,11,2.66089e-06,-4.4378,0.0743099,0.793972,1.12903,0.0729169,
2,1,0,1,0,9054.88,0.0747092,0.0744143,0.0376421,8,-0.000539461,11,2.80111e-06,-4.42433,0.0667065,0.884472,1.31277,0.0744143,
2,1,0,1,0,9056.38,0.0762074,0.0758617,0.0396382,8,-0.000454812,11,3.00702e-06,-4.40189,0.0621588,0.949182,1.48388,0.0758617,
2,1,0,1,0,9057.88,0.0777055,0.0774002,0.0417823,8,-0.000366861,11,3.23396e-06,-4.37901,0.0707569,0.833841,1.34303,0.0774002,
2,1,0,1,0,9059.38,0.0792037,0.0788806,0.0437822,8,-0.000276315,11,3.45357e-06,-4.3587,0.099398,0.593573,1.00317,0.0788806,
2,1,0,1,0,9060.88,0.0807019,0.0803673,0.0452972,8,-0.000183271,11,3.64042e-06,-4.34393,0.09168,0.643543,1.12368,0.0803673,
2,1,0,1,0,9062.38,0.0822001,0.0818933,0.0454824,8,-8.79969e-05,11,3.7247e-06,-4.34216,0.0910994,0.647644,1.17482,0.08189325,
2,1,0,1,0,9063.87,0.0836983,0.0834033,0.0481594,8,9.49539e-06,11,4.01665e-06,-4.31732,0.108056,0.546014,1.02337,0.0834033,
2,1,0,1,0,9065.37,0.0851965,0.0848656,0.0499985,8,0.000109895,11,4.24316e-06,-4.30104,0.0960021,0.61457,1.19635,0.0848656,
2,1,0,1,0,9066.87,0.0866947,0.0863693,0.0516137,8,0.00021279,11,4.45784e-06,-4.28724,0.152319,0.387346,0.772345,0.0863693,
2,1,0,1,0,9068.37,0.0881929,0.0879175,0.0529345,8,0.000318363,11,4.65387e-06,-4.27626,0.11925,0.494758,1.03443,0.0879175,
2,1,0,1,0,9069.87,0.0896911,0.0893745,0.0543009,8,0.000425769,11,4.85311e-06,-4.26519,0.105915,0.557053,1.20228,0.0893745,
2,1,0,1,0,9071.36,0.0911893,0.0908442,0.0570667,8,0.0005364,11,5.18418e-06,-4.24362,0.101621,0.580587,1.2821,0.0908442,
2,1,0,1,0,9072.86,0.0926875,0.0923798,0.0582365,8,0.00065029,11,5.37988e-06,-4.2348,0.113209,0.521158,1.18589,0.0923798,
2,1,0,1,0,9074.36,0.0941857,0.0938929,0.0608844,8,0.000766482,11,5.71661e-06,-4.21549,0.102205,0.577269,1.35493,0.09389291,
2,1,0,1,0,9075.86,0.0956839,0.0953891,0.0625802,8,0.000885067,11,5.96947e-06,-4.20356,0.0973924,0.605797,1.4743,0.0953891,
2,1,0,1,0,9077.36,0.0971821,0.0969077,0.0643277,8,0.00100731,11,6.23384e-06,-4.1916,0.0813575,0.725194,1.81968,0.09690766,
2,1,0,1,0,9078.86,0.0986803,0.0983752,0.0662109,8,0.00113298,11,6.51351e-06,-4.17907,0.0971334,0.607412,1.59171,0.0983752,
2,1,0,1,0,9080.35,0.100178,0.0998438,0.0686031,8,0.00126227,11,6.8496e-06,-4.16366,0.0846793,0.696746,1.8909,0.09984383,
2,1,0,1,0,9081.85,0.101677,0.10134,0.07079,8,0.00139458,11,7.17387e-06,-4.15003,0.0984902,0.599045,1.67869,0.1013401,
2,1,0,1,0,9083.35,0.103175,0.102873,0.0741524,8,0.00153141,11,7.62831e-06,-4.12987,0.0913368,0.645961,1.88335,0.102873,
2,1,0,1,0,9084.85,0.104673,0.104359,0.0781752,8,0.00167288,11,8.15829e-06,-4.10693,0.0794065,0.743012,2.23314,0.104359,
2,1,0,1,0,9086.35,0.106171,0.105882,0.0806056,8,0.00181899,11,8.53467e-06,-4.09363,0.0997372,0.591555,1.8528,0.105882,
2,1,0,1,0,9087.85,0.107669,0.107376,0.0828898,8,0.00196941,11,8.90037e-06,-4.0815,0.0936349,0.630107,2.06037,0.107376,
2,1,0,1,0,9089.34,0.109167,0.1089,0.0862019,8,0.00212432,11,9.38735e-06,-4.06448,0.0859993,0.686052,2.33055,0.1089,
2,1,0,1,0,9090.84,0.110666,0.110349,0.0900806,8,0.00228472,11,9.94033e-06,-4.04537,0.0973504,0.606058,2.1465,0.110349,
2,1,0,1,0,9092.34,0.112164,0.111872,0.0928374,8,0.00245019,11,1.03859e-05,-4.03228,0.113504,0.519804,1.89347,0.111872,
2,1,0,1,0,9093.84,0.113662,0.113378,0.0963827,8,0.0026205,11,1.09277e-05,-4.016,0.097478,0.605265,2.28929,0.113378,
2,1,0,1,0,9095.34,0.11516,0.114813,0.100515,8,0.00279518,11,1.15404e-05,-3.99777,0.101147,0.58331,2.27696,0.114813,
2,1,0,1,0,9096.83,0.116658,0.116385,0.104019,8,0.00297572,11,1.21063e-05,-3.98289,0.106998,0.551412,2.22636,0.116385,
2,1,0,1,0,9098.33,0.118157,0.117854,0.106788,8,0.00316181,11,1.25854e-05,-3.97148,0.107768,0.547473,2.27714,0.1178538,
2,1,0,1,0,9099.83,0.119655,0.11939,0.110472,8,0.00335241,11,1.31892e-05,-3.95675,0.121981,0.483681,2.07439,0.11939,
2,1,0,1,0,9101.33,0.121153,0.120853,0.113068,8,0.00354711,11,1.36645e-05,-3.94666,0.10847,0.543929,2.4058,0.120853,
2,1,0,1,0,9102.83,0.122651,0.122357,0.11629,8,0.00374739,11,1.4229e-05,-3.93446,0.0991584,0.595007,2.69637,0.122357,
2,1,0,1,0,9104.33,0.124149,0.123852,0.119261,8,0.0039525,11,1.47707e-05,-3.9235,0.130899,0.450728,2.11519,0.123852,
2,1,0,1,0,9105.82,0.125648,0.125325,0.122428,8,0.00416235,11,1.53433e-05,-3.91212,0.152888,0.385902,1.8489,0.125325,
2,1,0,1,0,9107.32,0.127146,0.126813,0.12407,8,0.00437624,11,1.57337e-05,-3.90633,0.150296,0.392559,1.9275,0.126813,
2,1,0,1,0,9108.82,0.128644,0.128321,0.129144,8,0.00459462,11,1.65719e-05,-3.88893,0.154483,0.381919,1.90974,0.1283211,
2,1,0,1,0,9110.32,0.130142,0.129842,0.132176,8,0.0048176,11,1.71619e-05,-3.87885,0.182963,0.32247,1.65339,0.129842,
2,1,0,1,0,9111.82,0.13164,0.131316,0.134083,8,0.00504485,11,1.76072e-05,-3.87263,0.245117,0.240702,1.24848,0.131316,
2,1,0,1,0,9113.31,0.133139,0.132874,0.135976,8,0.00527517,11,1.80677e-05,-3.86654,0.249646,0.236334,1.25537,0.132874,
2,1,0,1,0,9114.81,0.134637,0.134324,0.13717,8,0.0055076,11,1.84253e-05,-3.86274,0.314499,0.1876,1.00863,0.134324,
2,1,0,1,0,9116.31,0.136135,0.135847,0.13895,8,0.00574307,11,1.88759e-05,-3.85714,0.80472,0.0733175,0.396691,0.135847,
2,1,0,1,0,9117.81,0.137633,0.137325,0.139418,8,0.00598009,11,1.91456e-05,-3.85568,-1.26813,-0.0465251,-0.251923,0.137325,
2,1,0,1,0,9119.31,0.139131,0.138823,0.139728,8,0.00621704,11,1.93975e-05,-3.85472,-0.567719,-0.103925,-0.560147,0.1388234,
2,1,0,1,0,9120.81,0.14063,0.14033,0.138936,8,0.00645216,11,1.94969e-05,-3.85718,-0.256529,-0.229993,-1.23147,0.14033,
2,1,0,1,0,9122.3,0.142128,0.141787,0.136644,8,0.00668551,11,1.93744e-05,-3.86441,-0.185727,-0.31767,-1.66853,0.1417871,
2,1,0,1,0,9123.8,0.143626,0.143394,0.133466,8,0.00691595,11,1.91381e-05,-3.87463,-0.14147,-0.41705,-2.14843,0.143394,
2,1,0,1,0,9125.3,0.145124,0.144809,0.129849,8,0.00714055,11,1.88034e-05,-3.88656,-0.104497,-0.564612,-2.8551,0.144809,
2,1,0,1,0,9126.8,0.146622,0.146315,0.12427,8,0.00735832,11,1.81825e-05,-3.90563,-0.0920495,-0.640959,-3.1099,0.146315,
2,1,0,1,0,9128.3,0.14812,0.14779,0.119258,8,0.00756922,11,1.76252e-05,-3.92351,-0.0854693,-0.690307,-3.20737,0.14779,
2,1,0,1,0,9129.79,0.149619,0.149299,0.114032,8,0.00777211,11,1.70249e-05,-3.94297,-0.0726552,-0.812055,-3.61298,0.149299,
2,1,0,1,0,9131.29,0.151117,0.150836,0.108513,8,0.00796621,11,1.63676e-05,-3.96452,-0.06448,-0.915013,-3.85133,0.150836,
2,1,0,1,0,9132.79,0.152615,0.152257,0.101732,8,0.00815133,11,1.54894e-05,-3.99254,-0.0637598,-0.925348,-3.69108,0.152257,
2,1,0,1,0,9134.29,0.154113,0.153816,0.0973314,8,0.00832737,11,1.49712e-05,-4.01175,-0.057033,-1.03449,-3.90694,0.153816,
2,1,0,1,0,9135.79,0.155611,0.155265,0.092031,8,0.00849577,11,1.42892e-05,-4.03607,-0.0622179,-0.94828,-3.39068,0.155265,
2,1,0,1,0,9137.29,0.15711,0.156804,0.0862484,8,0.00865585,11,1.35241e-05,-4.06425,-0.054144,-1.08969,-3.67818,0.156804,
2,1,0,1,0,9138.78,0.158608,0.158288,0.0816009,8,0.00880858,11,1.29165e-05,-4.0883,-0.0659059,-0.895216,-2.87392,0.158288,
2,1,0,1,0,9140.28,0.160106,0.159748,0.0773459,8,0.00895405,11,1.23559e-05,-4.11156,-0.0657512,-0.897322,-2.72184,0.159748,
2,1,0,1,0,9141.78,0.161604,0.161283,0.073677,8,0.00909404,11,1.18828e-05,-4.13267,-0.0699534,-0.843418,-2.43447,0.161283,
2,1,0,1,0,9143.28,0.163102,0.162835,0.0704931,8,0.00922843,11,1.14788e-05,-4.15185,-0.0732864,-0.805061,-2.20701,0.162835,
2,1,0,1,0,9144.78,0.164601,0.164315,0.0675325,8,0.00935795,11,1.10966e-05,-4.17049,-0.0922544,-0.639536,-1.68644,0.164315,
2,1,0,1,0,9146.27,0.166099,0.165795,0.0647535,8,0.00948287,11,1.07358e-05,-4.18874,-0.0901354,-0.654571,-1.6582,0.165795,
2,1,0,1,0,9147.77,0.167597,0.167276,0.0625238,8,0.00960435,11,1.04587e-05,-4.20395,-0.105829,-0.557505,-1.36371,0.167276,
2,1,0,1,0,9149.27,0.169095,0.168798,0.060263,8,0.00972272,11,1.01723e-05,-4.21995,-0.103206,-0.571672,-1.3503,0.168798,
2,1,0,1,0,9150.77,0.170593,0.170309,0.0586746,8,0.00983809,11,9.9928e-06,-4.23155,-0.10801,-0.546247,-1.25883,0.170309,
2,1,0,1,0,9152.27,0.172091,0.17181,0.0569781,8,0.00995026,11,9.78943e-06,-4.24429,-0.120734,-0.488677,-1.09697,0.17181,
2,1,0,1,0,9153.77,0.17359,0.173298,0.0559014,8,0.0100605,11,9.68761e-06,-4.25258,-0.201885,-0.292245,-0.632338,0.173298,
2,1,0,1,0,9155.26,0.175088,0.17479,0.0548066,8,0.0101688,11,9.57966e-06,-4.26117,-0.156194,-0.377736,-0.805909,0.1747901,
2,1,0,1,0,9156.76,0.176586,0.176258,0.0535649,8,0.0102752,11,9.44123e-06,-4.27112,-0.165885,-0.355668,-0.74272,0.176258,
2,1,0,1,0,9158.26,0.178084,0.177818,0.0521975,8,0.0103799,11,9.28163e-06,-4.28235,-0.17529,-0.336585,-0.691978,0.177818,
2,1,0,1,0,9159.76,0.179582,0.179275,0.0512378,8,0.0104831,11,9.18564e-06,-4.29041,-0.222109,-0.265635,-0.534216,0.179275,
2,1,0,1,0,9161.26,0.181081,0.180816,0.0512318,8,0.0105853,11,9.26355e-06,-4.29046,-0.268266,-0.219931,-0.43591,0.1808165,
2,1,0,1,0,9162.75,0.182579,0.182263,0.0499631,8,0.0106863,11,9.10642e-06,-4.30135,-0.258847,-0.227933,-0.448507,0.1822629,
2,1,0,1,0,9164.25,0.184077,0.183803,0.0494068,8,0.0107863,11,9.08109e-06,-4.30621,-0.259961,-0.226957,-0.437356,0.1838026,
2,1,0,1,0,9165.75,0.185575,0.185281,0.0487134,8,0.0108852,11,9.02566e-06,-4.31235,-0.75075,-0.0785881,-0.150753,0.185281,
2,1,0,1,0,9167.25,0.187073,0.186766,0.0483874,8,0.0109835,11,9.03714e-06,-4.31527,-0.939196,-0.0628197,-0.118811,0.186766,
2,1,0,1,0,9168.75,0.188572,0.188204,0.0478206,8,0.0110811,11,9.00005e-06,-4.32038,-0.293274,-0.201177,-0.376711,0.188204,
2,1,0,1,0,9170.25,0.19007,0.189726,0.0479292,8,0.0111781,11,9.09343e-06,-4.3194,-0.280599,-0.210264,-0.392449,0.189726,
2,1,0,1,0,9171.74,0.191568,0.191241,0.0474282,8,0.0112742,11,9.07024e-06,-4.32396,-0.425396,-0.138694,-0.257255,0.191241,
2,1,0,1,0,9173.24,0.193066,0.192731,0.0473472,8,0.0113702,11,9.12529e-06,-4.32471,-0.512013,-0.115231,-0.212137,0.192731,
2,1,0,1,0,9174.74,0.194564,0.194281,0.0464133,8,0.0114657,11,9.01725e-06,-4.33336,-0.990176,-0.0595854,-0.109692,0.1942815,
2,1,0,1,0,9176.24,0.196063,0.195731,0.0464078,8,0.0115609,11,9.08345e-06,-4.33341,-0.94411,-0.0624927,-0.114121,0.195731,
2,1,0,1,0,9177.74,0.197561,0.197255,0.0465816,8,0.0116556,11,9.18845e-06,-4.33179,-0.577085,-0.102238,-0.186285,0.197255,
2,1,0,1,0,9179.23,0.199059,0.19877,0.0465043,8,0.0117501,11,9.24368e-06,-4.33251,-3.04482,-0.0193772,-0.0350086,0.19877,
2,1,0,1,0,9180.73,0.200557,0.20026,0.0467038,8,0.0118446,11,9.35291e-06,-4.33065,1.0317,0.0571874,0.103479,0.20026,
2,1,0,1,0,9182.23,0.202055,0.201766,0.0467842,8,0.0119387,11,9.43945e-06,-4.3299,-2.31952,-0.0254363,-0.0460839,0.201766,
2,1,0,1,0,9183.73,0.203554,0.203242,0.0458631,8,0.0120327,11,9.3213e-06,-4.33854,-154.007,-0.000383099,-0.000689633,0.203242,
2,1,0,1,0,9185.23,0.205052,0.204739,0.0460465,8,0.0121264,11,9.42753e-06,-4.3368,1.28986,0.0457415,0.0833878,0.204739,
2,1,0,1,0,9186.73,0.20655,0.206246,0.0461685,8,0.01222,11,9.52206e-06,-4.33565,-0.863041,-0.0683629,-0.123374,0.206246,
2,1,0,1,0,9188.22,0.208048,0.207756,0.0461278,8,0.0123141,11,9.58333e-06,-4.33604,-0.499238,-0.11818,-0.211847,0.207756,
2,1,0,1,0,9189.72,0.209546,0.209249,0.0460983,8,0.0124078,11,9.64603e-06,-4.33631,-1.68015,-0.0351158,-0.0634066,0.209249,
2,1,0,1,0,9191.22,0.211044,0.210716,0.0460237,8,0.0125011,11,9.69791e-06,-4.33702,634.487,9.29885e-05,0.000166472,0.210716,
2,1,0,1,0,9192.72,0.212543,0.212239,0.0461091,8,0.0125948,11,9.78618e-06,-4.33621,1.97632,0.0298535,0.0536325,0.212239,
2,1,0,1,0,9194.22,0.214041,0.213763,0.0461772,8,0.0126884,11,9.87099e-06,-4.33557,1.44641,0.0407906,0.0731315,0.213763,
2,1,0,1,0,9195.71,0.215539,0.215262,0.0461024,8,0.0127821,11,9.92408e-06,-4.33628,3.17709,0.0185704,0.0334377,0.2152617,
2,1,0,1,0,9197.21,0.217037,0.216756,0.0463733,8,0.0128756,11,1.00517e-05,-4.33373,0.568429,0.103795,0.186984,0.216756,
2,1,0,1,0,9198.71,0.218535,0.218265,0.0459789,8,0.0129692,11,1.00356e-05,-4.33744,17.5452,0.00336274,0.0060684,0.218265,
2,1,0,1,0,9200.21,0.220034,0.219723,0.0465755,8,0.0130632,11,1.02337e-05,-4.33184,0.400881,0.147176,0.264964,0.219723,
2,1,0,1,0,9201.71,0.221532,0.22126,0.0463859,8,0.013157,11,1.02634e-05,-4.33361,-1.30696,-0.0451429,-0.0820147,0.22126,
2,1,0,1,0,9203.21,0.22303,0.22274,0.046256,8,0.0132508,11,1.0303e-05,-4.33483,-6.62224,-0.00890937,-0.0161316,0.2227397,
2,1,0,1,0,9204.7,0.224528,0.224228,0.0465733,8,0.0133448,11,1.0443e-05,-4.33186,2.06807,0.0285291,0.0518472,0.224228,
2,1,0,1,0,9206.2,0.226026,0.225714,0.0467055,8,0.013439,11,1.05421e-05,-4.33063,10.7159,0.00550586,0.0100013,0.225714,
2,1,0,1,0,9207.7,0.227525,0.22722,0.046897,8,0.0135334,11,1.06559e-05,-4.32885,1.54129,0.0382796,0.0693953,0.22722,
2,1,0,1,0,9209.2,0.229023,0.228731,0.0467313,8,0.0136279,11,1.06889e-05,-4.33039,0.681857,0.0865284,0.158482,0.228731,
2,1,0,1,0,9210.7,0.230521,0.230235,0.0469274,8,0.0137224,11,1.08043e-05,-4.32857,3.52881,0.0167195,0.030783,0.230235,
2,1,0,1,0,9212.19,0.232019,0.231773,0.0469373,8,0.0138172,11,1.08788e-05,-4.32848,1.33762,0.0441082,0.0809437,0.231773,
2,1,0,1,0,9213.69,0.233517,0.233193,0.0476879,8,0.0139122,11,1.11205e-05,-4.32159,-1.38328,-0.0426523,-0.0783191,0.233193,
2,1,0,1,0,9215.19,0.235016,0.234677,0.0475095,8,0.0140072,11,1.11494e-05,-4.32322,-2.71183,-0.0217565,-0.0401958,0.234677,
2,1,0,1,0,9216.69,0.236514,0.236237,0.047141,8,0.0141021,11,1.11364e-05,-4.3266,3.66099,0.0161158,0.029894,0.236237,
2,1,0,1,0,9218.19,0.238012,0.237745,0.0473997,8,0.0141974,11,1.12691e-05,-4.32422,0.595614,0.0990574,0.183414,0.237745,
2,1,0,1,0,9219.69,0.23951,0.239216,0.047404,8,0.014293,11,1.13398e-05,-4.32418,0.877667,0.0672237,0.125116,0.239216,
2,1,0,1,0,9221.18,0.241008,0.240745,0.0478475,8,0.0143887,11,1.15191e-05,-4.32014,1.24413,0.0474227,0.0882531,0.240745,
2,1,0,1,0,9222.68,0.242506,0.242228,0.0477084,8,0.0144844,11,1.15563e-05,-4.3214,0.537273,0.109814,0.206538,0.242228,
2,1,0,1,0,9224.18,0.244005,0.243702,0.0485582,8,0.0145805,11,1.18337e-05,-4.31374,1.08134,0.054562,0.1024,0.243702,
2,1,0,1,0,9225.68,0.245503,0.245183,0.0487265,8,0.0146771,11,1.19469e-05,-4.31223,3.73026,0.0158166,0.0297774,0.245183,
2,1,0,1,0,9227.18,0.247001,0.246704,0.048707,8,0.0147735,11,1.20162e-05,-4.31241,-2.2579,-0.0261304,-0.049563,0.246704,
2,1,0,1,0,9228.67,0.248499,0.248206,0.0479876,8,0.0148701,11,1.19108e-05,-4.31887,1.75885,0.0335447,0.0635583,0.248206,
2,1,0,1,0,9230.17,0.249997,0.249699,0.0487892,8,0.0149667,11,1.21826e-05,-4.31168,1.04439,0.0564921,0.106614,0.249699,
2,1,0,1,0,9231.67,0.251496,0.251139,0.048765,8,0.0150637,11,1.22468e-05,-4.31189,0.668009,0.0883222,0.167391,0.251139,
2,1,0,1,0,9233.17,0.252994,0.252684,0.0491974,8,0.0151609,11,1.24314e-05,-4.30806,0.661093,0.0892461,0.170762,0.2526845,
2,1,0,1,0,9234.67,0.254492,0.25423,0.0495043,8,0.0152583,11,1.25855e-05,-4.30536,0.608479,0.0969631,0.187304,0.25423,
2,1,0,1,0,9236.17,0.25599,0.255715,0.0490053,8,0.0153556,11,1.25314e-05,-4.30976,1.53114,0.0385333,0.0741639,0.255715,
2,1,0,1,0,9237.66,0.257488,0.257162,0.0499806,8,0.0154536,11,1.28531e-05,-4.3012,0.993559,0.0593825,0.114455,0.257162,
2,1,0,1,0,9239.16,0.258987,0.258732,0.0494629,8,0.0155517,11,1.27976e-05,-4.30572,-14.5613,-0.00405183,-0.00784731,0.258732,
2,1,0,1,0,9240.66,0.260485,0.260173,0.0500348,8,0.0156501,11,1.30177e-05,-4.30073,2.23983,0.0263412,0.0510924,0.260173,
2,1,0,1,0,9242.16,0.261983,0.261685,0.050057,8,0.0157483,11,1.30992e-05,-4.30054,-2.32164,-0.0254131,-0.0495047,0.261685,
2,1,0,1,0,9243.66,0.263481,0.263179,0.0501233,8,0.0158468,11,1.31914e-05,-4.29996,0.740179,0.0797104,0.155141,0.263179,
2,1,0,1,0,9245.16,0.264979,0.264701,0.0504854,8,0.0159456,11,1.33635e-05,-4.29683,0.894964,0.0659244,0.12911,0.264701,
2,1,0,1,0,9246.65,0.266477,0.266213,0.0506421,8,0.0160446,11,1.34816e-05,-4.29549,1.00058,0.0589655,0.116167,0.266213,
2,1,0,1,0,9248.15,0.267976,0.267673,0.0504318,8,0.0161435,11,1.34993e-05,-4.2973,3.05365,0.0193212,0.0380494,0.267673,
2,1,0,1,0,9249.65,0.269474,0.26918,0.05039,8,0.0162428,11,1.3564e-05,-4.29766,1.08159,0.0545494,0.107493,0.26918,
2,1,0,1,0,9251.15,0.270972,0.270692,0.0506275,8,0.0163424,11,1.37045e-05,-4.29561,0.668051,0.0883166,0.17419,0.270692,
2,1,0,1,0,9252.65,0.27247,0.272196,0.0511512,8,0.0164424,11,1.39232e-05,-4.29114,4.60375,0.0128156,0.0254665,0.272196,
2,1,0,1,0,9254.14,0.273968,0.273649,0.0506876,8,0.0165423,11,1.38706e-05,-4.2951,0.65277,0.0903841,0.180463,0.273649,
2,1,0,1,0,9255.64,0.275467,0.275209,0.0510837,8,0.0166424,11,1.40587e-05,-4.29172,2.02415,0.0291481,0.0580906,0.275209,
2,1,0,1,0,9257.14,0.276965,0.276632,0.0512746,8,0.0167428,11,1.41842e-05,-4.2901,0.847543,0.069613,0.139638,0.276632,
2,1,0,1,0,9258.64,0.278463,0.278199,0.0515671,8,0.0168434,11,1.43459e-05,-4.28763,4.61059,0.0127966,0.0256349,0.2781989,
2,1,0,1,0,9260.14,0.279961,0.279647,0.0516607,8,0.0169442,11,1.44468e-05,-4.28684,1.72525,0.0341979,0.0689709,0.2796475,
2,1,0,1,0,9261.64,0.281459,0.281135,0.0518892,8,0.0170448,11,1.45879e-05,-4.28492,4.08882,0.0144296,0.0292046,0.2811352,
2,1,0,1,0,9263.13,0.282958,0.282682,0.0518807,8,0.017146,11,1.46657e-05,-4.28499,0.838863,0.0703333,0.141644,0.282682,
2,1,0,1,0,9264.63,0.284456,0.284156,0.0522699,8,0.0172473,11,1.48528e-05,-4.28175,0.825108,0.0715058,0.144866,0.284156,
2,1,0,1,0,9266.13,0.285954,0.285649,0.0523746,8,0.0173488,11,1.49608e-05,-4.28088,0.513456,0.114908,0.233863,0.285649,
2,1,0,1,0,9267.63,0.287452,0.287171,0.0526976,8,0.0174504,11,1.51332e-05,-4.27821,3.16312,0.0186525,0.0378438,0.287171,
2,1,0,1,0,9269.13,0.28895,0.28863,0.0527491,8,0.0175523,11,1.5225e-05,-4.27778,0.943935,0.0625043,0.127738,0.28863,
2,1,0,1,0,9270.62,0.290448,0.290114,0.0523132,8,0.0176543,11,1.51768e-05,-4.28139,0.791852,0.0745089,0.152491,0.2901136,
2,1,0,1,0,9272.12,0.291947,0.291662,0.0527748,8,0.0177567,11,1.53924e-05,-4.27757,1.27222,0.0463757,0.0958996,0.291662,
2,1,0,1,0,9273.62,0.293445,0.293131,0.0526308,8,0.0178589,11,1.54277e-05,-4.27876,0.875465,0.0673927,0.139446,0.293131,
2,1,0,1,0,9275.12,0.294943,0.294654,0.0531148,8,0.0179615,11,1.56505e-05,-4.27478,0.976834,0.0603992,0.124572,0.294654,
2,1,0,1,0,9276.62,0.296441,0.296142,0.0533149,8,0.0180643,11,1.57888e-05,-4.27315,5.57292,0.0105869,0.0218997,0.296142,
2,1,0,1,0,9278.12,0.297939,0.297622,0.0533954,8,0.0181674,11,1.58917e-05,-4.2725,0.798848,0.0738563,0.153469,0.297622,
2,1,0,1,0,9279.61,0.299438,0.299161,0.0531394,8,0.0182703,11,1.58972e-05,-4.27458,-0.00527297,-11.1891,-16.1634,0.299161,
2,1,0,1,0,9280.46,0.299737,0.299426,0.0296893,8,0.0183141,11,8.88975e-06,-4.5274,0.00262358,22.4884,28.6071,0.299426,
2,1,0,1,0,9281.96,0.298239,0.29797,0.0194064,8,0.0183264,11,5.78252e-06,-4.71206,0.00663704,8.8895,10.3851,0.29797,
2,1,0,1,0,9283.46,0.296741,0.296442,0.0160122,8,0.0183297,11,4.74668e-06,-4.79555,0.0145484,4.05542,2.56928,0.296442,
2,1,0,1,0,9284.96,0.295243,0.294929,0.0125967,8,0.0183275,11,3.71512e-06,-4.89974,0.0156591,3.76779,1.89704,0.294929,
2,1,0,1,0,9286.46,0.293745,0.293451,0.0106922,8,0.0183215,11,3.13763e-06,-4.97093,0.0180845,3.26246,1.30028,0.293451,
2,1,0,1,0,9287.95,0.292246,0.291959,0.00822578,8,0.0183124,11,2.40159e-06,-5.08482,0.0153835,3.83527,1.23537,0.291959,
2,1,0,1,0,9289.45,0.290748,0.290451,0.00642975,8,0.0183002,11,1.86753e-06,-5.19181,0.0131966,4.47084,1.09419,0.290451,
2,1,0,1,0,9290.95,0.28925,0.288939,0.00465504,8,0.0182854,11,1.34502e-06,-5.33208,0.0100981,5.84271,1.04359,0.2889387,
2,1,0,1,0,9292.45,0.287752,0.287425,0.00286887,8,0.0182683,11,8.24586e-07,-5.54229,0.00841063,7.01493,0.841087,0.287425,
2,1,0,1,0,9293.95,0.286254,0.28598,0.00185208,8,0.0182493,11,5.29659e-07,-5.73234,0.00493529,11.9547,0.869404,0.28598,
2,0,0,1,0,9295.44,0.284755,0.284475,0.000760729,8,0.0182281,11,2.16409e-07,-6.11877,0.00516611,11.4206,0.842152,0.284475,
2,1,0,1,0,9296.94,0.283257,0.282943,-0.000244525,8,0.0182049,11,-6.91865e-08,-6.61168,-0.0130477,-4.52187,0.920722,0.282943,
2,1,0,1,0,9298.44,0.281759,0.281425,-0.00210135,8,0.01818,11,-5.91373e-07,-5.6775,-0.00211429,-27.9053,0.690747,0.281425,
2,0,0,1,0,9299.94,0.280261,0.279943,-0.00259026,8,0.0181535,11,-7.25125e-07,-5.58666,-0.00551271,-10.7025,0.804947,0.279943,
2,1,0,1,0,9301.44,0.278763,0.278455,-0.00354363,8,0.0181254,11,-9.86739e-07,-5.45055,-0.0129654,-4.55056,0.579368,0.278455,
2,1,0,1,0,9302.94,0.277264,0.27695,-0.00445798,8,0.0180956,11,-1.23464e-06,-5.35086,-0.0154367,-3.82207,0.660367,0.2769497,
2,1,0,1,0,9304.43,0.275766,0.275495,-0.00572411,8,0.0180644,11,-1.57696e-06,-5.24229,-0.0252206,-2.33936,0.492871,0.275495,
2,1,0,1,0,9305.93,0.274268,0.273952,-0.00607618,8,0.0180317,11,-1.66458e-06,-5.21637,-0.0201556,-2.92723,0.729871,0.2739521,
2,1,0,1,0,9307.43,0.27277,0.272455,-0.00731273,8,0.0179979,11,-1.99239e-06,-5.13592,-0.0266096,-2.21724,0.635728,0.272455,
2,1,0,1,0,9308.93,0.271272,0.270998,-0.00788898,8,0.0179625,11,-2.1379e-06,-5.10298,-0.0313999,-1.87899,0.583533,0.270998,
2,0,0,1,0,9310.43,0.269774,0.269462,-0.00914503,8,0.0179256,11,-2.46424e-06,-5.03881,-0.0398282,-1.48136,0.524691,0.269462,
2,0,0,1,0,9311.92,0.268275,0.267981,-0.00988371,8,0.0178876,11,-2.64865e-06,-5.00508,-0.0477466,-1.23569,0.469685,0.267981,
2,0,0,1,0,9313.42,0.266777,0.266497,-0.0106969,8,0.0178485,11,-2.8507e-06,-4.97074,-0.0470227,-1.25471,0.519701,0.266497,
2,0,0,1,0,9314.92,0.265279,0.264979,-0.0116238,8,0.017808,11,-3.08005e-06,-4.93465,-0.0456835,-1.2915,0.573689,0.264979,
2,0,0,1,0,9316.42,0.263781,0.263474,-0.0123004,8,0.0177663,11,-3.24084e-06,-4.91008,-0.0488121,-1.20872,0.574697,0.263474,
2,0,0,1,0,9317.92,0.262283,0.26195,-0.0131234,8,0.0177235,11,-3.43769e-06,-4.88195,-0.0554789,-1.06347,0.540932,0.26195,
2,0,0,1,0,9319.42,0.260784,0.260527,-0.0137682,8,0.0176796,11,-3.58699e-06,-4.86112,-0.0606741,-0.972409,0.52742,0.260527,
2,0,0,1,0,9320.91,0.259286,0.259009,-0.0147105,8,0.0176344,11,-3.81015e-06,-4.83237,-0.0760993,-0.775303,0.436264,0.259009,
2,0,0,1,0,9322.41,0.257788,0.257468,-0.0154138,8,0.0175881,11,-3.96856e-06,-4.81209,-0.0799512,-0.73795,0.444277,0.257468,
2,0,0,1,0,9323.91,0.25629,0.255957,-0.0161565,8,0.0175406,11,-4.13537e-06,-4.79165,-0.0716802,-0.8231,0.515271,0.255957,
2,0,0,1,0,9325.41,0.254792,0.254505,-0.0165223,8,0.0174922,11,-4.20502e-06,-4.78193,-0.0865176,-0.681943,0.446324,0.254505,
2,0,0,1,0,9326.91,0.253293,0.252974,-0.0172011,8,0.0174428,11,-4.35144e-06,-4.76444,-0.114057,-0.517286,0.346908,0.252974,
2,0,0,1,0,9328.41,0.251795,0.251463,-0.0180045,8,0.0173922,11,-4.52746e-06,-4.74462,-0.0904822,-0.652062,0.461269,0.251463,
2,0,0,1,0,9329.9,0.250297,0.249991,-0.0181635,8,0.0173406,11,-4.54071e-06,-4.7408,-0.0842269,-0.700489,0.512498,0.249991,
2,0,0,1,0,9331.4,0.248799,0.248425,-0.0195358,8,0.017288,11,-4.85317e-06,-4.70917,-0.0909006,-0.649061,0.491536,0.248425,
2,0,0,1,0,9332.9,0.247301,0.246963,-0.0197458,8,0.0172345,11,-4.87646e-06,-4.70453,-0.0856465,-0.688878,0.541096,0.246963,
2,0,0,1,0,9334.4,0.245802,0.2455,-0.0208793,8,0.01718,11,-5.12588e-06,-4.68028,-0.111461,-0.529335,0.42742,0.2455,
2,0,0,1,0,9335.9,0.244304,0.244019,-0.0210209,8,0.0171241,11,-5.12949e-06,-4.67735,-0.112139,-0.526132,0.434357,0.244019,
2,0,0,1,0,9337.39,0.242806,0.242508,-0.0218471,8,0.0170674,11,-5.2981e-06,-4.66061,-0.163877,-0.360027,0.307962,0.242508,
2,0,0,1,0,9338.89,0.241308,0.241025,-0.0229376,8,0.01701,11,-5.52855e-06,-4.63945,-0.126287,-0.467189,0.4129,0.2410254,
2,0,0,1,0,9340.39,0.23981,0.239531,-0.0237078,8,0.0169513,11,-5.67875e-06,-4.62511,-0.0765036,-0.771205,0.697864,0.239531,
2,0,0,1,0,9341.89,0.238312,0.238037,-0.023986,8,0.0168917,11,-5.70955e-06,-4.62004,-0.145279,-0.406115,0.378117,0.238037,
2,0,0,1,0,9343.39,0.236813,0.236478,-0.024152,8,0.0168311,11,-5.71143e-06,-4.61705,-0.105716,-0.558098,0.535271,0.236478,
2,0,0,1,0,9344.89,0.235315,0.235004,-0.0254256,8,0.0167698,11,-5.97512e-06,-4.59473,-0.125792,-0.46903,0.468859,0.235004,
2,0,0,1,0,9346.38,0.233817,0.233497,-0.0259393,8,0.0167072,11,-6.05675e-06,-4.58604,-0.137215,-0.429983,0.431739,0.2334975,
2,0,0,1,0,9347.88,0.232319,0.232018,-0.0266014,8,0.0166436,11,-6.172e-06,-4.5751,-0.219264,-0.269082,0.278942,0.232018,
2,0,0,1,0,9349.38,0.230821,0.230533,-0.02733,8,0.016579,11,-6.30044e-06,-4.56336,-0.216103,-0.273018,0.288817,0.2305326,
2,0,0,1,0,9350.88,0.229322,0.22902,-0.0278288,8,0.0165137,11,-6.37336e-06,-4.55551,-0.129332,-0.456192,0.491661,0.22902,
2,0,0,1,0,9352.38,0.227824,0.227559,-0.0285492,8,0.0164473,11,-6.49664e-06,-4.54441,-0.153859,-0.383467,0.428188,0.227559,
2,0,0,1,0,9353.87,0.226326,0.226021,-0.0291693,8,0.0163799,11,-6.59286e-06,-4.53507,-0.126351,-0.466954,0.533086,0.2260205,
2,0,0,1,0,9355.37,0.224828,0.224526,-0.0297726,8,0.0163116,11,-6.68474e-06,-4.52618,-0.26493,-0.2227,0.25886,0.224526,
2,0,0,1,0,9356.87,0.22333,0.22305,-0.0309325,8,0.0162421,11,-6.8995e-06,-4.50959,-0.135612,-0.435064,0.513275,0.22305,
2,0,0,1,0,9358.37,0.221831,0.221582,-0.0312693,8,0.0161721,11,-6.92871e-06,-4.50488,-0.161335,-0.365698,0.443929,0.221582,
2,0,0,1,0,9359.87,0.220333,0.220072,-0.0313128,8,0.0161007,11,-6.89105e-06,-4.50428,-0.228323,-0.258406,0.318093,0.2200717,
2,0,0,1,0,9361.37,0.218835,0.218535,-0.0325001,8,0.0160281,11,-7.10241e-06,-4.48812,-0.139515,-0.422893,0.528448,0.218535,
2,0,0,1,0,9362.86,0.217337,0.217033,-0.0330102,8,0.0159548,11,-7.16429e-06,-4.48135,-0.189997,-0.310531,0.398468,0.217033,
2,0,0,1,0,9364.36,0.215839,0.215534,-0.0333683,8,0.0158807,11,-7.19201e-06,-4.47667,-0.191341,-0.308351,0.404165,0.215534,
2,0,0,1,0,9365.86,0.21434,0.214016,-0.0340058,8,0.0158054,11,-7.27778e-06,-4.46845,-0.154046,-0.383003,0.507195,0.214016,
2,0,0,1,0,9367.36,0.212842,0.212555,-0.0347689,8,0.0157289,11,-7.39029e-06,-4.45881,-0.139277,-0.423616,0.577132,0.212555,
2,0,0,1,0,9368.86,0.211344,0.211003,-0.0355459,8,0.0156516,11,-7.50029e-06,-4.44921,-0.232582,-0.253674,0.352207,0.211003,
2,0,0,1,0,9370.35,0.209846,0.209582,-0.0361117,8,0.0155732,11,-7.56836e-06,-4.44235,-0.194585,-0.30321,0.427763,0.209582,
2,0,0,1,0,9371.85,0.208348,0.208012,-0.0367456,8,0.0154937,11,-7.64351e-06,-4.4348,-0.166726,-0.353873,0.509595,0.208012,
2,0,0,1,0,9373.35,0.20685,0.206546,-0.0379555,8,0.0154129,11,-7.83957e-06,-4.42072,-0.170056,-0.346945,0.509976,0.206546,
2,0,0,1,0,9374.85,0.205351,0.205001,-0.038281,8,0.0153309,11,-7.84765e-06,-4.41702,-0.146627,-0.402382,0.604851,0.205001,
2,0,0,1,0,9376.35,0.203853,0.203578,-0.0393674,8,0.0152479,11,-8.01435e-06,-4.40486,-0.16958,-0.347919,0.53182,0.203578,
2,0,0,1,0,9377.85,0.202355,0.20204,-0.0401151,8,0.015164,11,-8.10484e-06,-4.39669,-0.202445,-0.291438,0.454871,0.20204,
2,0,0,1,0,9379.34,0.200857,0.200562,-0.0405831,8,0.0150787,11,-8.13945e-06,-4.39165,-0.134121,-0.4399,0.696214,0.2005623,
2,0,0,1,0,9380.84,0.199359,0.199055,-0.0412696,8,0.0149921,11,-8.21493e-06,-4.38437,-0.186164,-0.316925,0.509943,0.199055,
2,0,0,1,0,9382.34,0.19786,0.197535,-0.0427024,8,0.0149043,11,-8.43522e-06,-4.36955,-0.259105,-0.227707,0.374666,0.197535,
2,0,0,1,0,9383.84,0.196362,0.196073,-0.0434544,8,0.0148154,11,-8.52022e-06,-4.36197,-0.195949,-0.301099,0.509167,0.196073,
2,0,0,1,0,9385.34,0.194864,0.194525,-0.0437218,8,0.014725,11,-8.50501e-06,-4.3593,-0.160791,-0.366935,0.627717,0.194525,
2,0,0,1,0,9386.83,0.193366,0.19301,-0.0447826,8,0.0146331,11,-8.64349e-06,-4.34889,-0.154904,-0.380882,0.665822,0.19301,
2,0,0,1,0,9388.33,0.191868,0.191494,-0.0457396,8,0.01454,11,-8.75884e-06,-4.33971,-0.160252,-0.368169,0.662753,0.191494,
2,0,0,1,0,9389.83,0.190369,0.19006,-0.0471199,8,0.0144456,11,-8.95561e-06,-4.3268,-0.230475,-0.255993,0.465729,0.19006,
2,0,0,1,0,9391.33,0.188871,0.18856,-0.0476418,8,0.0143493,11,-8.98331e-06,-4.32201,-0.125652,-0.46955,0.875333,0.18856,
2,0,0,1,0,9392.83,0.187373,0.187062,-0.048491,8,0.0142515,11,-9.07084e-06,-4.31434,-0.137515,-0.429043,0.817656,0.187062,
2,0,0,1,0,9394.33,0.185875,0.185576,-0.0498544,8,0.0141521,11,-9.25176e-06,-4.3023,-0.14351,-0.411121,0.800351,0.1855756,
2,0,0,1,0,9395.82,0.184377,0.18412,-0.0506645,8,0.014051,11,-9.32832e-06,-4.2953,-0.159875,-0.369038,0.730671,0.18412,
2,0,0,1,0,9397.32,0.182878,0.182575,-0.0519837,8,0.013948,11,-9.49091e-06,-4.28413,-0.152608,-0.386613,0.787349,0.182575,
2,0,0,1,0,9398.82,0.18138,0.181092,-0.0536207,8,0.013843,11,-9.71028e-06,-4.27067,-0.153868,-0.383445,0.797976,0.181092,
2,0,0,1,0,9400.32,0.179882,0.179604,-0.054415,8,0.013736,11,-9.77317e-06,-4.26428,-0.118138,-0.499416,1.07058,0.179604,
2,0,0,1,0,9401.82,0.178384,0.178056,-0.0557827,8,0.0136268,11,-9.93247e-06,-4.2535,-0.138109,-0.427197,0.936585,0.178056,
2,0,0,1,0,9403.31,0.176886,0.176576,-0.0576232,8,0.0135155,11,-1.01749e-05,-4.2394,-0.129802,-0.45454,1.0331,0.176576,
2,0,0,1,0,9404.81,0.175388,0.175076,-0.0595957,8,0.0134015,11,-1.04338e-05,-4.22478,-0.129844,-0.454392,1.05672,0.175076,
2,0,0,1,0,9406.31,0.173889,0.173577,-0.0612527,8,0.0132849,11,-1.06321e-05,-4.21287,-0.120669,-0.488942,1.1672,0.173577,
2,0,0,1,0,9407.81,0.172391,0.172083,-0.0635441,8,0.0131653,11,-1.09349e-05,-4.19692,-0.100833,-0.585128,1.44823,0.172083,
2,0,0,1,0,9409.31,0.170893,0.170611,-0.065013,8,0.0130431,11,-1.10919e-05,-4.187,-0.103219,-0.571602,1.45736,0.1706111,
2,0,0,1,0,9410.81,0.169395,0.169045,-0.0671592,8,0.0129172,11,-1.13529e-05,-4.17289,-0.0963856,-0.612125,1.61332,0.169045,
2,0,0,1,0,9412.3,0.167897,0.167597,-0.0697555,8,0.0127875,11,-1.16908e-05,-4.15642,-0.0973425,-0.606107,1.65331,0.167597,
2,0,0,1,0,9413.8,0.166398,0.166046,-0.0726196,8,0.012654,11,-1.20582e-05,-4.13895,-0.0921329,-0.64038,1.82901,0.1660461,
2,0,0,1,0,9415.3,0.1649,0.16459,-0.0751048,8,0.0125167,11,-1.23615e-05,-4.12433,-0.0831148,-0.709861,2.1056,0.16459,
2,0,0,1,0,9416.8,0.163402,0.16308,-0.0785278,8,0.0123743,11,-1.28063e-05,-4.10498,-0.0735805,-0.801843,2.4659,0.1630801,
2,0,0,1,0,9418.3,0.161904,0.161593,-0.082711,8,0.0122267,11,-1.33655e-05,-4.08244,-0.0750493,-0.78615,2.53625,0.161593,
2,0,0,1,0,9419.79,0.160406,0.160073,-0.0866589,8,0.0120732,11,-1.38717e-05,-4.06219,-0.0721953,-0.817227,2.75447,0.160073,
2,0,0,1,0,9421.29,0.158907,0.15861,-0.090889,8,0.0119136,11,-1.44159e-05,-4.04149,-0.0726793,-0.811785,2.87592,0.15861,
2,0,0,1,0,9422.79,0.157409,0.157116,-0.0952761,8,0.0117473,11,-1.49694e-05,-4.02102,-0.0665316,-0.886796,3.30543,0.157116,
2,0,0,1,0,9424.29,0.155911,0.155598,-0.100659,8,0.0115732,11,-1.56623e-05,-3.99715,-0.0687417,-0.858285,3.37473,0.1555979,
2,0,0,1,0,9425.79,0.154413,0.154111,-0.106062,8,0.0113905,11,-1.63453e-05,-3.97444,-0.0640063,-0.921784,3.79622,0.154111,
2,0,0,1,0,9427.29,0.152915,0.152609,-0.111696,8,0.0111995,11,-1.70457e-05,-3.95196,-0.0636794,-0.926516,4.07168,0.152609,
2,0,0,1,0,9428.78,0.151417,0.151116,-0.118315,8,0.0109996,11,-1.78793e-05,-3.92696,-0.060036,-0.982744,4.5593,0.151116,
2,0,0,1,0,9430.28,0.149918,0.149599,-0.12574,8,0.0107891,11,-1.88106e-05,-3.90053,-0.061312,-0.962292,4.70147,0.149599,
2,0,0,1,0,9431.78,0.14842,0.148149,-0.132591,8,0.0105681,11,-1.96432e-05,-3.87748,-0.0664828,-0.887447,4.56665,0.148149,
2,0,0,1,0,9433.28,0.146922,0.146614,-0.139025,8,0.0103369,11,-2.0383e-05,-3.85691,-0.0701449,-0.841116,4.55442,0.146614,
2,0,0,1,0,9434.78,0.145424,0.145068,-0.145164,8,0.0100959,11,-2.10586e-05,-3.83814,-0.0722862,-0.8162,4.63349,0.145068,
2,0,0,1,0,9436.27,0.143926,0.143633,-0.15245,8,0.00984421,11,-2.18969e-05,-3.81687,-0.0755171,-0.78128,4.62077,0.143633,
2,0,0,1,0,9437.77,0.142427,0.142167,-0.158019,8,0.0095823,11,-2.2465e-05,-3.80129,-0.0948401,-0.6221,3.84475,0.142167,
2,0,0,1,0,9439.27,0.140929,0.140609,-0.163982,8,0.00931192,11,-2.30573e-05,-3.7852,-0.112201,-0.525842,3.37016,0.140609,
2,0,0,1,0,9440.77,0.139431,0.139147,-0.16836,8,0.0090342,11,-2.34267e-05,-3.77376,-0.123387,-0.478172,3.15465,0.139147,
2,0,0,1,0,9442.27,0.137933,0.137644,-0.173839,8,0.00874931,11,-2.39279e-05,-3.75985,-0.160344,-0.367958,2.47204,0.137644,
2,0,0,1,0,9443.77,0.136435,0.136101,-0.177896,8,0.00845797,11,-2.42119e-05,-3.74983,-0.180415,-0.327024,2.25413,0.136101,
2,0,0,1,0,9445.26,0.134936,0.134603,-0.180209,8,0.00816223,11,-2.42566e-05,-3.74422,-0.280857,-0.210072,1.46672,0.134603,
2,0,0,1,0,9446.76,0.133438,0.133107,-0.18118,8,0.0078629,11,-2.41162e-05,-3.74189,-0.418411,-0.14101,0.996498,0.133107,
2,0,0,1,0,9448.26,0.13194,0.131657,-0.182796,8,0.00756158,11,-2.40664e-05,-3.73803,-0.559888,-0.105378,0.753047,0.131657,
2,0,0,1,0,9449.76,0.130442,0.130107,-0.18308,8,0.00725825,11,-2.382e-05,-3.73736,-1.23395,-0.0478138,0.343026,0.130107,
2,0,0,1,0,9451.26,0.128944,0.128621,-0.183467,8,0.00695401,11,-2.35978e-05,-3.73644,0.836602,0.0705234,-0.502752,0.128621,
2,0,0,1,0,9452.75,0.127445,0.127142,-0.184032,8,0.00665,11,-2.33982e-05,-3.73511,1.29514,0.045555,-0.32664,0.127142,
2,0,0,1,0,9454.25,0.125947,0.125664,-0.183606,8,0.00634799,11,-2.30727e-05,-3.73611,0.986748,0.0597924,-0.427026,0.125664,
2,0,0,1,0,9455.75,0.124449,0.124127,-0.182361,8,0.00604618,11,-2.2636e-05,-3.73907,0.527451,0.111859,-0.790508,0.124127,
2,0,0,1,0,9457.25,0.122951,0.122627,-0.181183,8,0.00574575,11,-2.22178e-05,-3.74188,0.624317,0.0945032,-0.6658,0.122627,
2,0,0,1,0,9458.75,0.121453,0.121163,-0.179894,8,0.0054476,11,-2.17966e-05,-3.74498,0.3724,0.158432,-1.10907,0.121163,
2,0,0,1,0,9460.25,0.119955,0.119613,-0.177232,8,0.00515258,11,-2.11993e-05,-3.75146,0.360221,0.163788,-1.13795,0.119613,
2,0,0,1,0,9461.74,0.118456,0.118156,-0.175508,8,0.00485969,11,-2.07373e-05,-3.7557,0.461231,0.127919,-0.874973,0.118156,
2,0,0,1,0,9463.24,0.116958,0.116661,-0.174629,8,0.00456876,11,-2.03724e-05,-3.75788,0.308338,0.191348,-1.30138,0.116661,
2,0,0,1,0,9464.74,0.11546,0.115122,-0.171898,8,0.00428099,11,-1.97892e-05,-3.76473,0.250761,0.235284,-1.57826,0.115122,
2,0,0,1,0,9466.24,0.113962,0.113654,-0.169034,8,0.00399695,11,-1.92114e-05,-3.77202,0.296827,0.198769,-1.31761,0.113654,
2,0,0,1,0,9467.74,0.112464,0.112131,-0.167722,8,0.00371621,11,-1.88068e-05,-3.77541,0.230721,0.25572,-1.67115,0.112131,
2,0,0,1,0,9469.23,0.110965,0.110645,-0.165834,8,0.00343813,11,-1.83487e-05,-3.78033,0.279487,0.211101,-1.36168,0.110645,
2,0,0,1,0,9470.73,0.109467,0.109135,-0.163687,8,0.00316381,11,-1.7864e-05,-3.78599,0.202891,0.290796,-1.84901,0.109135,
2,0,0,1,0,9472.23,0.107969,0.107651,-0.16081,8,0.00289291,11,-1.73112e-05,-3.79369,0.262685,0.224604,-1.4135,0.107651,
2,0,0,1,0,9473.73,0.106471,0.106164,-0.158472,8,0.00262599,11,-1.6824e-05,-3.80005,0.258856,0.227926,-1.41528,0.106164,
2,0,0,1,0,9475.23,0.104973,0.104685,-0.156856,8,0.00236192,11,-1.64204e-05,-3.8045,0.26896,0.219363,-1.34047,0.104685,
2,0,0,1,0,9476.73,0.103474,0.103161,-0.154311,8,0.00210089,11,-1.59189e-05,-3.8116,0.200663,0.294026,-1.7661,0.103161,
2,0,0,1,0,9478.22,0.101976,0.101671,-0.152552,8,0.00184349,11,-1.55101e-05,-3.81658,0.25514,0.231245,-1.37243,0.101671,
2,0,0,1,0,9479.72,0.100478,0.100177,-0.150238,8,0.0015899,11,-1.50503e-05,-3.82322,0.249695,0.236288,-1.38475,0.100177,
2,0,0,1,0,9481.22,0.0989798,0.0986657,-0.148484,8,0.00133852,11,-1.46502e-05,-3.82832,0.341874,0.172578,-0.997207,0.0986657,
2,0,0,1,0,9482.72,0.0974816,0.0971737,-0.146287,8,0.00109008,11,-1.42152e-05,-3.8348,0.338664,0.174214,-0.998036,0.0971737,
2,0,0,1,0,9484.22,0.0959834,0.0956616,-0.144992,8,0.00084449,11,-1.38702e-05,-3.83866,0.404742,0.145772,-0.826055,0.0956616,
2,0,0,1,0,9485.72,0.0944852,0.0942141,-0.142314,8,0.000601638,11,-1.3408e-05,-3.84675,0.350562,0.168301,-0.944042,0.0942141,
2,0,0,1,0,9487.21,0.0929871,0.0927063,-0.141863,8,0.000360585,11,-1.31516e-05,-3.84813,0.474609,0.124313,-0.687255,0.0927063,
2,0,0,1,0,9488.71,0.0914889,0.0912217,-0.140664,8,0.00012113,11,-1.28316e-05,-3.85182,0.396388,0.148844,-0.817596,0.0912217,
2,0,0,1,0,9490.21,0.0899907,0.0896438,-0.139513,8,-0.000115923,11,-1.25065e-05,-3.85538,0.432752,0.136337,-0.740741,0.0896438,
2,0,0,1,0,9491.71,0.0884925,0.088208,-0.137627,8,-0.000351092,11,-1.21398e-05,-3.8613,0.396756,0.148706,-0.803846,0.088208,
2,0,0,1,0,9493.21,0.0869943,0.0866513,-0.137416,8,-0.000584516,11,-1.19073e-05,-3.86196,0.48078,0.122717,-0.654675,0.0866513,
2,0,0,1,0,9494.7,0.0854961,0.0851879,-0.136242,8,-0.000816549,11,-1.16061e-05,-3.86569,0.454818,0.129722,-0.689841,0.0851879,
2,0,0,1,0,9496.2,0.083998,0.0837045,-0.135044,8,-0.00104702,11,-1.13038e-05,-3.86952,0.319434,0.184701,-0.97182,0.0837045,
2,0,0,1,0,9497.7,0.0824998,0.0821722,-0.133924,8,-0.00127606,11,-1.10049e-05,-3.87314,0.495619,0.119043,-0.624367,0.0821722,
2,0,0,1,0,9499.2,0.0810016,0.080728,-0.132999,8,-0.00150296,11,-1.07368e-05,-3.87615,0.654077,0.0902035,-0.471748,0.080728,
2,0,0,1,0,9500.7,0.0795034,0.0791702,-0.132413,8,-0.00172912,11,-1.04832e-05,-3.87807,0.48491,0.121672,-0.629684,0.07917019,
2,0,0,1,0,9502.2,0.0780052,0.0777302,-0.131484,8,-0.00195392,11,-1.02203e-05,-3.88113,0.410008,0.1439,-0.739617,0.0777302,
2,0,0,1,0,9503.69,0.076507,0.0762021,-0.130602,8,-0.0021772,11,-9.95216e-06,-3.88405,0.50902,0.115909,-0.589671,0.07620208,
2,0,0,1,0,9505.19,0.0750088,0.0747228,-0.129862,8,-0.0023986,11,-9.70363e-06,-3.88652,0.513226,0.114959,-0.581698,0.0747228,
2,0,0,1,0,9506.69,0.0735106,0.0732085,-0.128472,8,-0.00261897,11,-9.40526e-06,-3.89119,0.551867,0.10691,-0.536891,0.0732085,
2,0,0,1,0,9508.19,0.0720124,0.0717166,-0.12757,8,-0.00283786,11,-9.14888e-06,-3.89425,0.5131,0.114987,-0.572228,0.0717166,
2,0,0,1,0,9509.69,0.0705142,0.0701917,-0.126348,8,-0.00305558,11,-8.86855e-06,-3.89843,0.421875,0.139852,-0.690978,0.0701917,
2,0,0,1,0,9511.18,0.069016,0.0687166,-0.125481,8,-0.00327111,11,-8.62263e-06,-3.90142,0.395623,0.149132,-0.73282,0.0687166,
2,0,0,1,0,9512.68,0.0675178,0.0672013,-0.125042,8,-0.00348567,11,-8.40301e-06,-3.90294,0.460791,0.128041,-0.622782,0.0672013,
2,0,0,1,0,9514.18,0.0660196,0.0657231,-0.124745,8,-0.00369869,11,-8.19863e-06,-3.90398,0.366201,0.161114,-0.775948,0.0657231,
2,0,0,1,0,9515.68,0.0645214,0.0641866,-0.122996,8,-0.00391047,11,-7.8947e-06,-3.91011,0.411195,0.143484,-0.684879,0.0641866,
2,0,0,1,0,9517.18,0.0630233,0.0627212,-0.121229,8,-0.0041201,11,-7.60359e-06,-3.9164,0.358599,0.164529,-0.779778,0.0627212,
2,0,0,1,0,9518.68,0.0615251,0.0612207,-0.120194,8,-0.00432804,11,-7.35835e-06,-3.92012,0.430553,0.137033,-0.642438,0.0612207,
2,0,0,1,0,9520.17,0.0600269,0.0597011,-0.119101,8,-0.00453457,11,-7.11047e-06,-3.92408,0.380355,0.155118,-0.724705,0.0597011,
2,0,0,1,0,9521.67,0.0585287,0.05819,-0.117642,8,-0.00473938,11,-6.84559e-06,-3.92944,0.259247,0.227582,-1.05096,0.05819004,
2,0,0,1,0,9523.17,0.0570305,0.0567235,-0.117273,8,-0.00494255,11,-6.65214e-06,-3.9308,0.406638,0.145092,-0.664455,0.0567235,
2,0,0,1,0,9524.67,0.0555323,0.0552537,-0.11654,8,-0.00514365,11,-6.43927e-06,-3.93352,0.440614,0.133904,-0.608925,0.0552537,
2,0,0,1,0,9526.17,0.0540342,0.0537311,-0.115373,8,-0.00534351,11,-6.1991e-06,-3.9379,0.380561,0.155034,-0.696198,0.0537311,
2,0,0,1,0,9527.66,0.052536,0.0522094,-0.114673,8,-0.0055423,11,-5.98702e-06,-3.94054,0.491864,0.119952,-0.532845,0.0522094,
2,0,0,1,0,9529.16,0.0510378,0.0506972,-0.11322,8,-0.00573906,11,-5.73992e-06,-3.94608,0.383118,0.154,-0.679321,0.0506972,
2,0,0,1,0,9530.66,0.0495396,0.0491957,-0.112009,8,-0.00593371,11,-5.51039e-06,-3.95075,0.44655,0.132124,-0.578839,0.0491957,
2,0,0,1,0,9532.16,0.0480414,0.0476942,-0.111105,8,-0.00612747,11,-5.29904e-06,-3.95427,0.432238,0.136499,-0.588969,0.0476942,
2,0,0,1,0,9533.66,0.0465432,0.0462424,-0.109657,8,-0.00631968,11,-5.07082e-06,-3.95996,0.468864,0.125836,-0.540162,0.0462424,
2,0,0,1,0,9535.16,0.045045,0.0447929,-0.109063,8,-0.00651054,11,-4.88523e-06,-3.96232,0.367958,0.160344,-0.68316,0.04479285,
2,0,0,1,0,9536.65,0.0435468,0.0432542,-0.108461,8,-0.00669982,11,-4.69138e-06,-3.96473,0.647987,0.0910512,-0.386765,0.0432542,
2,0,0,1,0,9538.15,0.0420486,0.0416827,-0.107617,8,-0.00688809,11,-4.48578e-06,-3.96812,0.701617,0.0840915,-0.353698,0.0416827,
2,0,0,1,0,9539.65,0.0405504,0.0402257,-0.107371,8,-0.00707558,11,-4.31908e-06,-3.96911,0.743356,0.0793698,-0.331604,0.0402257,
2,0,0,1,0,9541.15,0.0390522,0.0387581,-0.106732,8,-0.00726217,11,-4.13672e-06,-3.97171,0.539455,0.10937,-0.453595,0.0387581,
2,0,0,1,0,9542.65,0.037554,0.0372502,-0.105687,8,-0.00744756,11,-3.93685e-06,-3.97598,0.731887,0.0806135,-0.333307,0.0372502,
2,0,0,1,0,9544.14,0.0360558,0.0357348,-0.105103,8,-0.00763203,11,-3.75584e-06,-3.97838,0.824527,0.0715562,-0.294426,0.0357348,
2,0,0,1,0,9545.64,0.0345576,0.0342385,-0.104679,8,-0.00781598,11,-3.58407e-06,-3.98014,1.93435,0.0305011,-0.125531,0.0342385,
2,0,0,1,0,9547.14,0.0330594,0.0327317,-0.104828,8,-0.00799943,11,-3.4312e-06,-3.97952,0.750175,0.0786483,-0.320477,0.0327317,
2,0,0,1,0,9548.64,0.0315613,0.0312483,-0.104416,8,-0.00818238,11,-3.26283e-06,-3.98123,1.00765,0.058552,-0.238802,0.0312483,
2,0,0,1,0,9550.14,0.0300631,0.0297319,-0.104144,8,-0.00836438,11,-3.09639e-06,-3.98237,8.9582,0.00658614,-0.0267431,0.0297319,
2,0,0,1,0,9551.64,0.0285649,0.0282516,-0.103584,8,-0.00854663,11,-2.92641e-06,-3.98471,2.27342,0.0259521,-0.105039,0.0282516,
2,0,0,1,0,9553.13,0.0270667,0.026733,-0.104048,8,-0.00872883,11,-2.78153e-06,-3.98276,3.90614,0.0151044,-0.0611647,0.026733,
2,0,0,1,0,9554.63,0.0255685,0.0252856,-0.10405,8,-0.00891081,11,-2.63096e-06,-3.98276,-3.60372,-0.016372,0.0661906,0.0252856,
2,0,0,1,0,9556.13,0.0240703,0.0237862,-0.104011,8,-0.0090924,11,-2.47403e-06,-3.98292,-1.38362,-0.0426417,0.173313,0.0237862,
2,0,0,1,0,9557.63,0.0225722,0.0222529,-0.104256,8,-0.00927442,11,-2.31999e-06,-3.9819,-2.92895,-0.0201437,0.0819023,0.0222529,
2,0,0,1,0,9559.13,0.021074,0.0207768,-0.103982,8,-0.00945668,11,-2.16041e-06,-3.98304,-2.38209,-0.0247682,0.101026,0.0207768,
2,0,0,1,0,9560.62,0.0195758,0.0192605,-0.104269,8,-0.00963922,11,-2.00828e-06,-3.98184,-0.481265,-0.122593,0.499344,0.0192605,
2,0,0,1,0,9562.12,0.0180776,0.0177409,-0.10416,8,-0.00982189,11,-1.8479e-06,-3.9823,-1.60049,-0.0368638,0.150531,0.0177409,
2,0,0,1,0,9563.62,0.0165794,0.0162616,-0.104752,8,-0.010005,11,-1.70344e-06,-3.97984,-0.912384,-0.0646657,0.265368,0.0162616,
2,0,0,1,0,9565.12,0.0150812,0.0148067,-0.105669,8,-0.0101889,11,-1.56461e-06,-3.97605,-0.706473,-0.0835134,0.34322,0.0148067,
2,0,0,1,0,9566.62,0.013583,0.0132649,-0.105477,8,-0.0103736,11,-1.39914e-06,-3.97684,-0.979239,-0.0602509,0.248591,0.01326488,
2,0,0,1,0,9568.12,0.0120848,0.011741,-0.106339,8,-0.0105584,11,-1.24853e-06,-3.97331,-0.751074,-0.0785542,0.326519,0.011741,
2,0,0,1,0,9569.61,0.0105866,0.0102618,-0.106431,8,-0.0107441,11,-1.09217e-06,-3.97293,-0.82002,-0.0719495,0.300181,0.0102618,
2,0,0,1,0,9571.11,0.00908843,0.00874431,-0.107649,8,-0.0109308,11,-9.41315e-07,-3.96799,-0.689954,-0.085513,0.359223,0.00874431,
2,0,0,1,0,9572.61,0.00759024,0.00728416,-0.107903,8,-0.0111186,11,-7.8598e-07,-3.96697,-1.27023,-0.0464482,0.195239,0.00728416,
2,0,0,1,0,9574.11,0.00609203,0.00575185,-0.108539,8,-0.0113073,11,-6.24302e-07,-3.96441,-0.462826,-0.127478,0.540695,0.00575185,
2,0,0,1,0,9575.61,0.00459384,0.00430543,-0.109505,8,-0.0114967,11,-4.71465e-07,-3.96057,-0.428339,-0.137741,0.588834,0.00430543,
2,0,0,1,0,9577.1,0.00309563,0.00281022,-0.110637,8,-0.0116878,11,-3.10915e-07,-3.9561,-0.389856,-0.151338,0.651277,0.00281022,
2,0,0,1,0,9578.6,0.00159744,0.00122597,-0.11215,8,-0.0118827,11,-1.37492e-07,-3.9502, , , ,0.00122597,
2,0,0,1,0,9580,0.000199235,-0.000172594,-0.111575,8,-0.0120637,11,1.92572e-08,-3.95243, , , ,-0.000172594,