File: Figure_codes/Fig_3-5/rawdata_trumpetplot_data/before 10th/20221101_1-115_002_TrumpetPlot_ParaChange_06_CV_C01_6.csv
mode,ox/red,error,control changes,counter inc.,time/s,control/V,Ewe/V,<I>/mA,cycle number,(Q-Qo)/C,I Range,P/W,log(|I|),Tafel slope mV/dec,alpha_eff,dI/d(E-IR),E-IR/V,
2,0,0,1,0,8468.76,2.44065e-05,-0.000268062,-0.553494,7,0.0000000E+000,11,1.4837e-07,-3.25689, , , ,-0.000268062,
2,1,0,1,0,8468.89,0.00129787,0.00098746,0.261479,7,1.03033e-05,11,2.582e-07,-3.58256, , , ,0.00098746,
2,1,0,1,0,8469.03,0.00279606,0.00251869,0.339577,7,5.91133e-05,11,8.55288e-07,-3.46906,0.0133504,4.41933,44.9709,0.00251869,
2,1,0,1,0,8469.18,0.00429425,0.0040128,0.354453,7,0.000112809,11,1.42235e-06,-3.45044,0.0721927,0.817257,11.3869,0.0040128,
2,1,0,1,0,8469.33,0.00579244,0.00545283,0.369714,7,0.000169382,11,2.01599e-06,-3.43213,0.0706565,0.835026,12.0596,0.00545283,
2,1,0,1,0,8469.48,0.00729063,0.00698194,0.390033,7,0.000228627,11,2.72319e-06,-3.4089,0.088519,0.666523,10.0628,0.00698194,
2,1,0,1,0,8469.63,0.00878882,0.00850892,0.40415,7,0.00029018,11,3.43888e-06,-3.39346,0.115742,0.509755,7.99437,0.00850892,
2,1,0,1,0,8469.78,0.010287,0.00996698,0.414441,7,0.000353607,11,4.13072e-06,-3.38254,0.138004,0.427524,6.87683,0.00996698,
2,1,0,1,0,8469.93,0.0117852,0.0115003,0.423034,7,0.000418504,11,4.86503e-06,-3.37363,0.159635,0.369592,6.11361,0.0115003,
2,1,0,1,0,8470.08,0.0132838,0.0129439,0.432017,7,0.000484582,11,5.59201e-06,-3.3645,0.149571,0.39446,6.70075,0.0129439,
2,1,0,1,0,8470.23,0.0147814,0.014482,0.441443,7,0.000552177,11,6.39299e-06,-3.35512,0.171582,0.343859,5.93558,0.014482,
2,1,0,1,0,8470.38,0.0162789,0.0159861,0.448215,7,0.000621208,11,7.16521e-06,-3.34851,0.233491,0.252687,4.4158,0.0159861,
2,1,0,1,0,8470.53,0.017778,0.0174704,0.45565,7,0.000691164,11,7.9604e-06,-3.34137,0.235659,0.250361,4.45483,0.0174704,
2,1,0,1,0,8470.68,0.0192761,0.0189529,0.462694,7,0.000761775,11,8.76938e-06,-3.33471,0.234759,0.251322,4.52567,0.0189529,
2,1,0,1,0,8470.83,0.0207743,0.0204746,0.470419,7,0.000833683,11,9.63162e-06,-3.32752,0.210787,0.279904,5.10513,0.0204746,
2,1,0,1,0,8470.98,0.0222725,0.0219973,0.476401,7,0.00090659,11,1.04795e-05,-3.32203,0.256423,0.230088,4.2652,0.0219973,
2,1,0,1,0,8471.13,0.0237707,0.023467,0.484472,7,0.000980589,11,1.13691e-05,-3.31473,0.266799,0.22114,4.17166,0.023467,
2,1,0,1,0,8471.28,0.0252689,0.0249749,0.487518,7,0.00105519,11,1.21757e-05,-3.31201,0.311636,0.189323,3.62111,0.0249749,
2,1,0,1,0,8471.43,0.0267671,0.026469,0.496398,7,0.00113102,11,1.31392e-05,-3.30417,0.195713,0.301461,5.83052,0.026469,
2,1,0,1,0,8471.58,0.0282662,0.0279692,0.503449,7,0.00120795,11,1.4081e-05,-3.29804,0.252476,0.233685,4.58737,0.0279692,
2,1,0,1,0,8471.73,0.0297635,0.0294596,0.511642,7,0.00128599,11,1.50728e-05,-3.29103,0.260812,0.226216,4.49608,0.0294596,
2,1,0,1,0,8471.88,0.031261,0.030916,0.513427,7,0.00136489,11,1.58731e-05,-3.28952,0.239204,0.246652,4.97673,0.030916,
2,1,0,1,0,8472.03,0.0327599,0.0324879,0.524985,7,0.00144479,11,1.70557e-05,-3.27985,0.244118,0.241687,4.95158,0.0324879,
2,1,0,1,0,8472.18,0.034258,0.0339894,0.53213,7,0.00152607,11,1.80868e-05,-3.27398,0.221942,0.265835,5.51634,0.0339894,
2,1,0,1,0,8472.33,0.0357562,0.0354825,0.541766,7,0.00160849,11,1.92232e-05,-3.26619,0.302475,0.195058,4.10467,0.0354825,
2,1,0,1,0,8472.48,0.0372544,0.036931,0.546315,7,0.00169212,11,2.0176e-05,-3.26256,0.222217,0.265507,5.69308,0.036931,
2,1,0,1,0,8472.63,0.0387526,0.0384347,0.557058,7,0.00177669,11,2.14103e-05,-3.2541,0.198738,0.296873,6.50266,0.0384347,
2,1,0,1,0,8472.78,0.0402508,0.0399182,0.565221,7,0.00186286,11,2.25626e-05,-3.24778,0.222334,0.265366,5.87098,0.0399182,
2,1,0,1,0,8472.93,0.041749,0.0414664,0.578191,7,0.00195079,11,2.39755e-05,-3.23793,0.228251,0.258487,5.80194,0.0414664,
2,1,0,1,0,8473.08,0.0432472,0.042953,0.58757,7,0.00203994,11,2.52379e-05,-3.23094,0.205594,0.286973,6.57357,0.042953,
2,1,0,1,0,8473.23,0.0447458,0.0444559,0.59732,7,0.00213026,11,2.65544e-05,-3.22379,0.194102,0.303964,7.08213,0.0444559,
2,1,0,1,0,8473.38,0.0462433,0.045939,0.606641,7,0.00222245,11,2.78685e-05,-3.21707,0.163976,0.359808,8.50211,0.04593901,
2,1,0,1,0,8473.53,0.0477409,0.0474239,0.618488,7,0.00231632,11,2.93312e-05,-3.20867,0.178929,0.32974,7.96346,0.0474239,
2,1,0,1,0,8473.68,0.0492399,0.0489147,0.630432,7,0.00241195,11,3.08374e-05,-3.20036,0.181907,0.324342,7.97255,0.0489147,
2,1,0,1,0,8473.83,0.0507381,0.0504469,0.639462,7,0.00250906,11,3.22589e-05,-3.19418,0.171315,0.344394,8.64372,0.0504469,
2,1,0,1,0,8473.98,0.0522363,0.0519347,0.6527,7,0.00260803,11,3.38978e-05,-3.18529,0.159753,0.369321,9.3947,0.0519347,
2,1,0,1,0,8474.13,0.0537345,0.0534267,0.671206,7,0.00270924,11,3.58603e-05,-3.17314,0.178824,0.329933,8.58856,0.0534267,
2,1,0,1,0,8474.28,0.0552327,0.0549473,0.6813,7,0.00281221,11,3.74356e-05,-3.16666,0.205793,0.286695,7.59855,0.0549473,
2,1,0,1,0,8474.43,0.0567309,0.0564584,0.689346,7,0.00291708,11,3.89194e-05,-3.16156,0.18453,0.31973,8.64741,0.0564584,
2,1,0,1,0,8474.58,0.0582291,0.0579027,0.705448,7,0.00302372,11,4.08473e-05,-3.15154,0.187913,0.313975,8.6515,0.05790266,
2,1,0,1,0,8474.73,0.0597282,0.0594505,0.721137,7,0.0031326,11,4.2872e-05,-3.14198,0.180761,0.326399,9.18524,0.0594505,
2,1,0,1,0,8474.88,0.0612255,0.0609471,0.732464,7,0.00324347,11,4.46416e-05,-3.13521,0.21279,0.277269,7.90609,0.0609471,
2,1,0,1,0,8475.03,0.062723,0.0624022,0.74716,7,0.0033564,11,4.66244e-05,-3.12659,0.196091,0.30088,8.77394,0.0624022,
2,1,0,1,0,8475.18,0.0642218,0.0639236,0.757119,7,0.003471,11,4.83978e-05,-3.12084,0.182692,0.322947,9.59088,0.0639236,
2,1,0,1,0,8475.33,0.06572,0.0654612,0.773513,7,0.00358786,11,5.06352e-05,-3.11153,0.197269,0.299084,9.00328,0.0654612,
2,1,0,1,0,8475.48,0.0672182,0.0669193,0.785818,7,0.00370685,11,5.25864e-05,-3.10468,0.238778,0.247091,7.56258,0.06691929,
2,1,0,1,0,8475.63,0.0687164,0.0684463,0.799246,7,0.00382752,11,5.47054e-05,-3.09732,0.246812,0.239048,7.44532,0.0684463,
2,1,0,1,0,8475.78,0.0702146,0.0699499,0.807422,7,0.0039496,11,5.64792e-05,-3.0929,0.228694,0.257986,8.14887,0.0699499,
2,1,0,1,0,8475.93,0.0717128,0.0713942,0.821598,7,0.00407377,11,5.86574e-05,-3.08534,0.209109,0.28215,9.02934,0.0713942,
2,1,0,1,0,8476.08,0.073211,0.0729053,0.833737,7,0.00419978,11,6.07839e-05,-3.07897,0.24451,0.241299,7.84434,0.0729053,
2,1,0,1,0,8476.23,0.0747092,0.0744005,0.845211,7,0.0043276,11,6.28841e-05,-3.07304,0.270181,0.218372,7.1967,0.07440047,
2,1,0,1,0,8476.38,0.0762078,0.0759183,0.851609,7,0.00445682,11,6.46528e-05,-3.06976,0.257696,0.228952,7.64476,0.0759183,
2,1,0,1,0,8476.53,0.0777053,0.0773714,0.866214,7,0.00458765,11,6.70201e-05,-3.06238,0.245906,0.239929,8.09609,0.0773714,
2,1,0,1,0,8476.68,0.0792029,0.0789184,0.880308,7,0.00472028,11,6.94725e-05,-3.05537,0.282209,0.209065,7.14997,0.0789184,
2,1,0,1,0,8476.83,0.0807019,0.0804172,0.887826,7,0.00485467,11,7.13965e-05,-3.05167,0.356204,0.165636,5.72251,0.0804172,
2,1,0,1,0,8476.98,0.0822001,0.0819018,0.89112,7,0.00499021,11,7.29843e-05,-3.05006,0.36203,0.16297,5.7054,0.0819018,
2,1,0,1,0,8477.13,0.0836983,0.0833969,0.905972,7,0.00512702,11,7.55553e-05,-3.04289,0.335441,0.175888,6.22718,0.0833969,
2,1,0,1,0,8477.27,0.0851965,0.0849059,0.916471,7,0.00526554,11,7.78138e-05,-3.03788,0.31418,0.18779,6.71833,0.0849059,
2,1,0,1,0,8477.42,0.0866947,0.086382,0.926969,7,0.00540566,11,8.00735e-05,-3.03293,0.406324,0.145204,5.24334,0.086382,
2,1,0,1,0,8477.57,0.0881929,0.0878475,0.935643,7,0.00554727,11,8.21938e-05,-3.02889,0.367003,0.160762,5.87842,0.0878475,
2,1,0,1,0,8477.72,0.0896911,0.0893723,0.947053,7,0.00568999,11,8.46403e-05,-3.02363,0.29882,0.197443,7.30285,0.0893723,
2,1,0,1,0,8477.87,0.0911902,0.0908416,0.958499,7,0.00583454,11,8.70716e-05,-3.01841,0.269667,0.218788,8.16326,0.0908416,
2,1,0,1,0,8478.02,0.0926875,0.0923805,0.970323,7,0.00598101,11,8.96389e-05,-3.01308,0.294652,0.200236,7.56293,0.0923805,
2,1,0,1,0,8478.17,0.094185,0.0938838,0.98007,7,0.00612891,11,9.20127e-05,-3.00874,0.326228,0.180855,6.92112,0.0938838,
2,1,0,1,0,8478.32,0.0956838,0.0954209,0.986599,7,0.00627826,11,9.41421e-05,-3.00586,0.26301,0.224326,8.69056,0.0954209,
2,1,0,1,0,8478.47,0.097182,0.0968673,1.00215,7,0.00642957,11,9.70755e-05,-2.99907,0.216035,0.273104,10.6946,0.0968673,
2,1,0,1,0,8478.62,0.0986802,0.0983847,1.01907,7,0.00658316,11,0.00010026,-2.9918,0.248455,0.237467,9.4514,0.0983847,
2,1,0,1,0,8478.77,0.100178,0.0998926,1.03472,7,0.00673904,11,0.000103361,-2.98518,0.232238,0.25405,10.2497,0.0998926,
2,1,0,1,0,8478.92,0.101677,0.10141,1.04575,7,0.00689702,11,0.00010605,-2.98057,0.221144,0.266795,10.9638,0.10141,
2,1,0,1,0,8479.07,0.103175,0.102908,1.0704,7,0.00705749,11,0.000110154,-2.97045,0.192808,0.306004,12.7724,0.102908,
2,1,0,1,0,8479.22,0.104673,0.10441,1.09235,7,0.00722118,11,0.000114052,-2.96164,0.184532,0.319727,13.583,0.10441,
2,1,0,1,0,8479.37,0.106171,0.105891,1.11097,7,0.0073881,11,0.000117642,-2.9543,0.187036,0.315447,13.6413,0.105891,
2,1,0,1,0,8479.52,0.10767,0.107395,1.13167,7,0.00755821,11,0.000121535,-2.94628,0.169617,0.347842,15.4182,0.107395,
2,1,0,1,0,8479.67,0.109167,0.108873,1.15624,7,0.00773132,11,0.000125883,-2.93695,0.154319,0.382326,17.2995,0.108873,
2,1,0,1,0,8479.82,0.110665,0.110361,1.18374,7,0.00790859,11,0.000130639,-2.92674,0.148222,0.39805,18.3881,0.110361,
2,1,0,1,0,8479.97,0.112164,0.111866,1.20976,7,0.00808997,11,0.000135331,-2.9173,0.167255,0.352756,16.619,0.111866,
2,1,0,1,0,8480.12,0.113662,0.113332,1.23603,7,0.00827528,11,0.000140083,-2.90797,0.160965,0.366538,17.6569,0.113332,
2,1,0,1,0,8480.27,0.11516,0.11485,1.26167,7,0.008464,11,0.000144903,-2.89905,0.160895,0.366698,18.0768,0.11485,
2,1,0,1,0,8480.42,0.116658,0.116305,1.29186,7,0.00865722,11,0.00015025,-2.88878,0.15712,0.375509,18.8843,0.116305,
2,1,0,1,0,8480.57,0.118157,0.117873,1.32104,7,0.00885501,11,0.000155715,-2.87908,0.168041,0.351104,18.0692,0.117873,
2,1,0,1,0,8480.72,0.119655,0.119369,1.34693,7,0.00905674,11,0.000160781,-2.87066,0.198817,0.296756,15.5917,0.119369,
2,1,0,1,0,8480.87,0.121153,0.12087,1.36649,7,0.00926194,11,0.000165168,-2.86439,0.185997,0.317209,16.9726,0.1208696,
2,1,0,1,0,8481.02,0.122652,0.122382,1.39624,7,0.0094711,11,0.000170874,-2.85504,0.168965,0.349185,19.0008,0.122382,
2,1,0,1,0,8481.17,0.124149,0.123859,1.42398,7,0.00968431,11,0.000176374,-2.8465,0.185114,0.318722,17.6737,0.123859,
2,1,0,1,0,8481.32,0.125647,0.12537,1.44722,7,0.00990139,11,0.000181438,-2.83946,0.225912,0.261164,14.7183,0.12537,
2,1,0,1,0,8481.47,0.127146,0.126852,1.46108,7,0.0101219,11,0.000185342,-2.83532,0.237212,0.248723,14.2525,0.126852,
2,1,0,1,0,8481.62,0.128644,0.128371,1.49178,7,0.0103452,11,0.000191501,-2.8263,0.242505,0.243294,14.1611,0.128371,
2,1,0,1,0,8481.77,0.130142,0.129824,1.51256,7,0.0105722,11,0.000196366,-2.82029,0.245664,0.240165,14.1635,0.129824,
2,1,0,1,0,8481.92,0.13164,0.131317,1.53344,7,0.0108025,11,0.000201367,-2.81433,0.31736,0.185909,11.0868,0.131317,
2,1,0,1,0,8482.07,0.133139,0.132848,1.54955,7,0.0110355,11,0.000205855,-2.80979,0.328441,0.179637,10.8595,0.132848,
2,1,0,1,0,8482.22,0.134637,0.134346,1.56194,7,0.0112703,11,0.000209841,-2.80634,0.397766,0.148329,9.06629,0.134346,
2,1,0,1,0,8482.37,0.136135,0.135813,1.5793,7,0.0115076,11,0.000214489,-2.80153,0.417497,0.141318,8.67882,0.135813,
2,1,0,1,0,8482.52,0.137633,0.137311,1.59079,7,0.0117471,11,0.000218433,-2.79839,0.714592,0.0825646,5.10205,0.137311,
2,1,0,1,0,8482.67,0.139132,0.138867,1.59895,7,0.0119878,11,0.000222041,-2.79617,2.14487,0.0275075,1.70589,0.138867,
2,1,0,1,0,8482.82,0.140629,0.140375,1.59245,7,0.0122283,11,0.00022354,-2.79793,-2.84147,-0.0207639,-1.28769,0.1403745,
2,1,0,1,0,8482.97,0.142127,0.141802,1.58974,7,0.0124687,11,0.000225429,-2.79867,-0.961944,-0.0613341,-3.78516,0.141802,
2,1,0,1,0,8483.12,0.143626,0.143344,1.58,7,0.0127085,11,0.000226484,-2.80134,-0.414954,-0.142184,-8.7262,0.143344,
2,1,0,1,0,8483.27,0.145124,0.144852,1.55774,7,0.0129457,11,0.000225641,-2.80751,-0.211935,-0.278387,-16.8888,0.144852,
2,1,0,1,0,8483.42,0.146622,0.146285,1.52896,7,0.0131793,11,0.000223665,-2.8156,-0.177062,-0.333217,-19.8584,0.146285,
2,1,0,1,0,8483.57,0.14812,0.147822,1.49894,7,0.0134083,11,0.000221577,-2.82421,-0.140967,-0.418538,-24.3589,0.147822,
2,1,0,1,0,8483.72,0.149619,0.149361,1.46027,7,0.013632,11,0.000218107,-2.83557,-0.112438,-0.524732,-29.7561,0.149361,
2,1,0,1,0,8483.87,0.151117,0.150823,1.41359,7,0.0138491,11,0.000213202,-2.84968,-0.0923267,-0.639035,-35.0115,0.150823,
2,1,0,1,0,8484.02,0.152615,0.152323,1.35649,7,0.0140585,11,0.000206625,-2.86758,-0.0855632,-0.689549,-36.4352,0.152323,
2,1,0,1,0,8484.17,0.154114,0.153782,1.30363,7,0.0142597,11,0.000200476,-2.88484,-0.0829722,-0.711082,-36.088,0.153782,
2,1,0,1,0,8484.32,0.155612,0.155285,1.2485,7,0.0144527,11,0.000193874,-2.90361,-0.076922,-0.767011,-37.287,0.155285,
2,1,0,1,0,8484.47,0.157109,0.1568,1.18855,7,0.0146371,11,0.000186364,-2.92498,-0.0712612,-0.82794,-38.333,0.1568,
2,1,0,1,0,8484.62,0.158608,0.15832,1.13092,7,0.0148131,11,0.000179047,-2.94657,-0.0687958,-0.85761,-37.9219,0.15832,
2,1,0,1,0,8484.77,0.160106,0.159798,1.07466,7,0.01498,11,0.000171728,-2.96873,-0.0704158,-0.83788,-35.3071,0.159798,
2,1,0,1,0,8484.92,0.161604,0.161321,1.02738,7,0.0151394,11,0.000165739,-2.98827,-0.0746016,-0.790868,-31.7146,0.161321,
2,1,0,1,0,8485.07,0.163102,0.162796,0.980047,7,0.0152915,11,0.000159548,-3.00875,-0.0757555,-0.778821,-29.8038,0.162796,
2,1,0,1,0,8485.22,0.164601,0.164304,0.937746,7,0.015437,11,0.000154075,-3.02791,-0.0774813,-0.761474,-27.877,0.164304,
2,1,0,1,0,8485.37,0.166099,0.16582,0.897248,7,0.015576,11,0.000148782,-3.04709,-0.0832144,-0.709012,-24.9161,0.16582,
2,1,0,1,0,8485.51,0.167597,0.16732,0.862372,7,0.0157096,11,0.000144292,-3.06431,-0.0953167,-0.618989,-20.848,0.16732,
2,1,0,1,0,8485.66,0.169095,0.168811,0.831222,7,0.0158385,11,0.000140319,-3.08028,-0.0968195,-0.609382,-19.8157,0.168811,
2,1,0,1,0,8485.81,0.170594,0.170303,0.802985,7,0.0159629,11,0.000136751,-3.09529,-0.101122,-0.583454,-18.359,0.1703032,
2,1,0,1,0,8485.96,0.172091,0.171803,0.773404,7,0.0160829,11,0.000132873,-3.11159,-0.11302,-0.52203,-15.8857,0.171803,
2,1,0,1,0,8486.11,0.173589,0.173292,0.75332,7,0.0161995,11,0.000130545,-3.12302,-0.129525,-0.455509,-13.4371,0.173292,
2,1,0,1,0,8486.26,0.175088,0.174802,0.733901,7,0.0163131,11,0.000128287,-3.13436,-0.133216,-0.442891,-12.7176,0.174802,
2,1,0,1,0,8486.41,0.176586,0.176331,0.717434,7,0.0164238,11,0.000126506,-3.14422,-0.134575,-0.438419,-12.2648,0.176331,
2,1,0,1,0,8486.56,0.178084,0.177776,0.697105,7,0.0165318,11,0.000123929,-3.1567,-0.152879,-0.385925,-10.5748,0.177776,
2,1,0,1,0,8486.71,0.179582,0.179315,0.684257,7,0.0166374,11,0.000122698,-3.16478,-0.180492,-0.326883,-8.76848,0.179315,
2,1,0,1,0,8486.86,0.181081,0.180802,0.671591,7,0.0167411,11,0.000121425,-3.1729,-0.1853,-0.318402,-8.3667,0.180802,
2,1,0,1,0,8487.01,0.182579,0.182297,0.661723,7,0.0168431,11,0.00012063,-3.17932,-0.172958,-0.341124,-8.7919,0.182297,
2,1,0,1,0,8487.16,0.184077,0.183773,0.649337,7,0.0169432,11,0.000119331,-3.18753,-0.200177,-0.294739,-7.49412,0.183773,
2,1,0,1,0,8487.31,0.185576,0.18528,0.642071,7,0.0170417,11,0.000118963,-3.19242,-0.21895,-0.269468,-6.73158,0.18528,
2,1,0,1,0,8487.46,0.187074,0.186802,0.632654,7,0.0171389,11,0.000118181,-3.19883,-0.274745,-0.214745,-5.28375,0.1868016,
2,1,0,1,0,8487.61,0.188571,0.188318,0.625113,7,0.0172348,11,0.00011772,-3.20404,-0.288983,-0.204164,-4.96422,0.1883184,
2,1,0,1,0,8487.76,0.19007,0.189784,0.614533,7,0.0173296,11,0.000116629,-3.21145,-0.310616,-0.189945,-4.55995,0.189784,
2,1,0,1,0,8487.91,0.191568,0.191265,0.607511,7,0.017423,11,0.000116195,-3.21645,-0.324823,-0.181637,-4.31656,0.1912647,
2,1,0,1,0,8488.06,0.193066,0.19278,0.59999,7,0.0175156,11,0.000115666,-3.22186,-0.537809,-0.109704,-2.57228,0.19278,
2,1,0,1,0,8488.21,0.194564,0.19428,0.595429,7,0.0176074,11,0.00011568,-3.22517,-0.36608,-0.161167,-3.75153,0.19428,
2,1,0,1,0,8488.36,0.196063,0.195743,0.589639,7,0.0176983,11,0.000115418,-3.22941,-0.316237,-0.186569,-4.30542,0.195743,
2,1,0,1,0,8488.51,0.197561,0.19729,0.582638,7,0.0177883,11,0.000114949,-3.2346,-0.40327,-0.146304,-3.34424,0.19729,
2,1,0,1,0,8488.66,0.199059,0.198769,0.580562,7,0.0178774,11,0.000115398,-3.23615,-0.419604,-0.140609,-3.17948,0.198769,
2,1,0,1,0,8488.81,0.200557,0.200277,0.577149,7,0.017966,11,0.00011559,-3.23871,-0.441438,-0.133654,-3.00378,0.200277,
2,1,0,1,0,8488.96,0.202056,0.201779,0.571556,7,0.0180541,11,0.000115328,-3.24294,-0.413369,-0.142729,-3.1742,0.201779,
2,1,0,1,0,8489.11,0.203553,0.20325,0.565917,7,0.0181413,11,0.000115023,-3.24725,-0.490746,-0.120225,-2.66896,0.20325,
2,1,0,1,0,8489.26,0.205051,0.204759,0.563246,7,0.0182278,11,0.000115329,-3.2493,-3.56871,-0.0165326,-0.366996,0.204759,
2,1,0,1,0,8489.41,0.20655,0.206256,0.55904,7,0.018314,11,0.000115305,-3.25256,-0.648007,-0.0910484,-1.99322,0.206256,
2,1,0,1,0,8489.56,0.208048,0.207756,0.556511,7,0.0184001,11,0.000115619,-3.25453,-0.476532,-0.123811,-2.68397,0.207756,
2,1,0,1,0,8489.71,0.209546,0.209256,0.553426,7,0.0184854,11,0.000115807,-3.25694,-0.617598,-0.0955313,-2.06613,0.209256,
2,1,0,1,0,8489.86,0.211044,0.21068,0.550151,7,0.0185699,11,0.000115906,-3.25952,-0.560343,-0.105293,-2.26365,0.21068,
2,1,0,1,0,8490.01,0.212543,0.212251,0.548401,7,0.0186542,11,0.000116399,-3.2609,-0.851411,-0.0692967,-1.48243,0.212251,
2,1,0,1,0,8490.16,0.214041,0.213787,0.54561,7,0.0187381,11,0.000116644,-3.26312,-0.594066,-0.0993156,-2.11198,0.213787,
2,1,0,1,0,8490.31,0.215539,0.21525,0.543254,7,0.0188216,11,0.000116935,-3.265,-0.632916,-0.0932193,-1.97486,0.21525,
2,1,0,1,0,8490.46,0.217038,0.21673,0.538692,7,0.0189046,11,0.000116751,-3.26866,-0.846581,-0.0696921,-1.47004,0.21673,
2,1,0,1,0,8490.61,0.218535,0.218286,0.537939,7,0.0189873,11,0.000117424,-3.26927,-3.29592,-0.0179009,-0.374821,0.218286,
2,1,0,1,0,8490.76,0.220033,0.219765,0.535086,7,0.0190698,11,0.000117593,-3.27158,-0.88189,-0.0669017,-1.39768,0.219765,
2,1,0,1,0,8490.91,0.221532,0.221246,0.53508,7,0.019152,11,0.000118384,-3.27158,-0.605307,-0.0974712,-2.03098,0.221246,
2,1,0,1,0,8491.06,0.22303,0.222728,0.527468,7,0.0192336,11,0.000117482,-3.2778,-1.28454,-0.0459309,-0.950374,0.222728,
2,1,0,1,0,8491.21,0.224528,0.224233,0.530122,7,0.019315,11,0.000118871,-3.27562,-1.02652,-0.0574756,-1.18605,0.224233,
2,1,0,1,0,8491.36,0.226026,0.225729,0.526293,7,0.0193961,11,0.0001188,-3.27877,-0.840351,-0.0702088,-1.44144,0.225729,
2,1,0,1,0,8491.51,0.227525,0.227219,0.52524,7,0.019477,11,0.000119345,-3.27964,-0.593077,-0.0994812,-2.03981,0.227219,
2,1,0,1,0,8491.66,0.229023,0.228737,0.522043,7,0.0195576,11,0.000119411,-3.28229,-0.74352,-0.0793523,-1.62104,0.228737,
2,1,0,1,0,8491.81,0.230521,0.230214,0.521754,7,0.0196377,11,0.000120115,-3.28253,-1.16129,-0.0508055,-1.03774,0.230214,
2,1,0,1,0,8491.96,0.232019,0.231758,0.520596,7,0.0197178,11,0.000120652,-3.2835,-0.921908,-0.0639977,-1.29874,0.231758,
2,1,0,1,0,8492.11,0.233518,0.233254,0.5201,7,0.0197978,11,0.000121316,-3.28391,-0.763711,-0.0772543,-1.56368,0.233254,
2,1,0,1,0,8492.26,0.235015,0.234762,0.517728,7,0.0198773,11,0.000121543,-3.2859,-1.60121,-0.0368471,-0.74416,0.234762,
2,1,0,1,0,8492.41,0.236513,0.236242,0.514606,7,0.0199565,11,0.000121571,-3.28853,-1.42465,-0.0414137,-0.833748,0.236242,
2,1,0,1,0,8492.56,0.238012,0.237704,0.513653,7,0.0200356,11,0.000122097,-3.28933,-1.72061,-0.0342902,-0.685041,0.237704,
2,1,0,1,0,8492.71,0.23951,0.239214,0.512839,7,0.0201146,11,0.000122678,-3.29002,-1.67928,-0.0351341,-0.704116,0.239214,
2,1,0,1,0,8492.86,0.241008,0.240733,0.51058,7,0.0201932,11,0.000122913,-3.29194,-0.95243,-0.0619468,-1.23642,0.240733,
2,1,0,1,0,8493.01,0.242506,0.242245,0.508076,7,0.0202716,11,0.000123079,-3.29407,-0.976038,-0.0604484,-1.20252,0.242245,
2,1,0,1,0,8493.16,0.244005,0.243723,0.506138,7,0.0203498,11,0.000123357,-3.29573,-5.78727,-0.0101948,-0.201846,0.243723,
2,1,0,1,0,8493.31,0.245503,0.245201,0.509307,7,0.020428,11,0.000124883,-3.29302,-1.02214,-0.0577222,-1.14168,0.2452012,
2,1,0,1,0,8493.46,0.247001,0.246708,0.506739,7,0.0205059,11,0.000125017,-3.29522,-0.994566,-0.0593224,-1.16895,0.246708,
2,1,0,1,0,8493.61,0.2485,0.248228,0.503156,7,0.0205836,11,0.000124897,-3.2983,-1.94671,-0.0303075,-0.595587,0.248228,
2,1,0,1,0,8493.76,0.249997,0.249696,0.503569,7,0.020661,11,0.000125739,-3.29794,-1.14953,-0.0513255,-1.00656,0.249696,
2,1,0,1,0,8493.9,0.251495,0.251245,0.502618,7,0.0207383,11,0.00012628,-3.29876,-1.85151,-0.0318659,-0.624883,0.251245,
2,1,0,1,0,8494.05,0.252994,0.252699,0.500072,7,0.0208155,11,0.000126368,-3.30097,-0.655782,-0.0899689,-1.75392,0.252699,
2,1,0,1,0,8494.2,0.254492,0.254238,0.499584,7,0.0208925,11,0.000127013,-3.30139,-1.53018,-0.0385575,-0.752801,0.254238,
2,1,0,1,0,8494.35,0.25599,0.255712,0.497014,7,0.0209691,11,0.000127093,-3.30363,-4.30542,-0.0137037,-0.266931,0.255712,
2,1,0,1,0,8494.5,0.257488,0.257244,0.49893,7,0.0210457,11,0.000128347,-3.30196,-2.70269,-0.0218301,-0.42389,0.257244,
2,1,0,1,0,8494.65,0.258987,0.258724,0.497416,7,0.0211223,11,0.000128693,-3.30328,-2.30011,-0.025651,-0.496096,0.258724,
2,1,0,1,0,8494.8,0.260485,0.26019,0.495182,7,0.0211987,11,0.000128841,-3.30523,-1.58404,-0.0372465,-0.719365,0.26019,
2,1,0,1,0,8494.95,0.261983,0.261704,0.49394,7,0.0212747,11,0.000129266,-3.30633,-1.61736,-0.0364791,-0.702846,0.261704,
2,1,0,1,0,8495.1,0.263481,0.263239,0.493538,7,0.0213508,11,0.000129918,-3.30668,-11.1798,-0.00527736,-0.101608,0.263239,
2,1,0,1,0,8495.25,0.26498,0.264754,0.492126,7,0.0214267,11,0.000130292,-3.30792,-1.47291,-0.0400568,-0.76947,0.2647543,
2,1,0,1,0,8495.4,0.266477,0.266192,0.491529,7,0.0215024,11,0.000130841,-3.30845,-2.65267,-0.0222417,-0.427057,0.266192,
2,1,0,1,0,8495.55,0.267976,0.267689,0.488471,7,0.0215778,11,0.000130758,-3.31116,-2.59882,-0.0227026,-0.434685,0.267689,
2,1,0,1,0,8495.7,0.269474,0.269152,0.489711,7,0.0216533,11,0.000131807,-3.31006,-8.12163,-0.00726455,-0.138549,0.269152,
2,1,0,1,0,8495.85,0.270972,0.270694,0.491076,7,0.0217286,11,0.000132932,-3.30885,-2.26635,-0.026033,-0.495647,0.270694,
2,1,0,1,0,8496,0.27247,0.272194,0.489146,7,0.0218038,11,0.000133143,-3.31056,-3.17129,-0.0186044,-0.35295,0.272194,
2,1,0,1,0,8496.15,0.273968,0.273642,0.483323,7,0.0218787,11,0.000132258,-3.31576,-2.49238,-0.0236721,-0.448347,0.273642,
2,1,0,1,0,8496.3,0.275467,0.275118,0.484899,7,0.0219535,11,0.000133405,-3.31435,-3.4901,-0.016905,-0.320639,0.275118,
2,1,0,1,0,8496.45,0.276965,0.276666,0.48347,7,0.0220281,11,0.00013376,-3.31563,-1.07988,-0.0546358,-1.03342,0.2766656,
2,1,0,1,0,8496.6,0.278463,0.278182,0.484396,7,0.0221028,11,0.00013475,-3.3148,-0.668641,-0.0882387,-1.66267,0.278182,
2,1,0,1,0,8496.75,0.279962,0.279636,0.482626,7,0.0221773,11,0.00013496,-3.31639,-1.07448,-0.0549104,-1.03363,0.279636,
2,1,0,1,0,8496.9,0.281459,0.281183,0.482343,7,0.0222513,11,0.000135626,-3.31664,-1.57481,-0.0374648,-0.706145,0.281183,
2,1,0,1,0,8497.05,0.282957,0.282702,0.481242,7,0.0223255,11,0.000136048,-3.31764,-12.8266,-0.0045998,-0.0861276,0.282702,
2,1,0,1,0,8497.2,0.284456,0.284145,0.481015,7,0.0223996,11,0.000136678,-3.31784,-1.43486,-0.0411189,-0.771308,0.284145,
2,1,0,1,0,8497.35,0.285954,0.285665,0.479348,7,0.0224735,11,0.000136933,-3.31935,-2.04451,-0.0288578,-0.538643,0.285665,
2,1,0,1,0,8497.5,0.287452,0.287177,0.478203,7,0.0225471,11,0.000137329,-3.32039,-4.47091,-0.0131964,-0.246631,0.287177,
2,1,0,1,0,8497.65,0.28895,0.288619,0.476166,7,0.0226207,11,0.00013743,-3.32224,1.82174,0.0323867,0.600756,0.288619,
2,1,0,1,0,8497.8,0.290449,0.290173,0.476433,7,0.0226942,11,0.000138248,-3.322,-3.0728,-0.0192007,-0.357778,0.290173,
2,1,0,1,0,8497.95,0.291947,0.291652,0.474136,7,0.0227676,11,0.000138283,-3.3241,-1.69943,-0.0347176,-0.644417,0.291652,
2,1,0,1,0,8498.1,0.293445,0.29315,0.474352,7,0.0228407,11,0.000139056,-3.3239,-3.14394,-0.0187663,-0.347825,0.29315,
2,1,0,1,0,8498.25,0.294943,0.294626,0.476006,7,0.0229137,11,0.000140244,-3.32239,-1.5353,-0.0384291,-0.708993,0.294626,
2,1,0,1,0,8498.4,0.296442,0.29617,0.477819,7,0.0229868,11,0.000141516,-3.32074,-1.7924,-0.0329168,-0.607582,0.29617,
2,1,0,1,0,8498.55,0.297939,0.297649,0.472754,7,0.0230597,11,0.000140715,-3.32537,-7.68126,-0.00768103,-0.141021,0.2976487,
2,1,0,1,0,8498.7,0.299437,0.299161,0.47064,7,0.0231324,11,0.000140797,-3.32731,-0.000730449,-80.7722,-267.585,0.299161,
2,1,0,1,0,8498.78,0.299738,0.299437,0.122895,7,0.0231645,11,3.67992e-05,-3.91047,0.00130834,45.0952,425.105,0.299437,
2,0,0,1,0,8498.93,0.29824,0.297976,-0.0391334,7,0.0231626,11,-1.16608e-05,-4.40745,0.00493779,11.9487,145.057,0.297976,
2,0,0,1,0,8499.08,0.296741,0.296454,-0.0708799,7,0.023152,11,-2.10126e-05,-4.14948,-0.00727131,-8.11408,17.3145,0.296454,
2,0,0,1,0,8499.23,0.295243,0.294927,-0.0921653,7,0.0231375,11,-2.7182e-05,-4.03543,-0.0169943,-3.47174,11.4733,0.294927,
2,0,0,1,0,8499.38,0.293745,0.293455,-0.107838,7,0.0231206,11,-3.16456e-05,-3.96723,-0.0243536,-2.42264,9.7967,0.293455,
2,0,0,1,0,8499.53,0.292246,0.291933,-0.120176,7,0.0231017,11,-3.50834e-05,-3.92018,-0.0349805,-1.68665,7.60615,0.291933,
2,0,0,1,0,8499.68,0.290748,0.290429,-0.13123,7,0.0230809,11,-3.81129e-05,-3.88197,-0.0416581,-1.41629,7.04381,0.290429,
2,0,0,1,0,8499.83,0.28925,0.288945,-0.140991,7,0.0230585,11,-4.07387e-05,-3.85081,-0.0511677,-1.15307,6.25626,0.288945,
2,0,0,1,0,8499.98,0.287752,0.287422,-0.148062,7,0.0230348,11,-4.25562e-05,-3.82956,-0.0622666,-0.947538,5.54434,0.287422,
2,0,0,1,0,8500.13,0.286253,0.285936,-0.155727,7,0.0230099,11,-4.45278e-05,-3.80764,-0.0689588,-0.855583,5.23902,0.285936,
2,0,0,1,0,8500.28,0.284755,0.284487,-0.164955,7,0.0229838,11,-4.69276e-05,-3.78263,-0.0697444,-0.845947,5.37409,0.284487,
2,0,0,1,0,8500.43,0.283258,0.282973,-0.173626,7,0.0229564,11,-4.91317e-05,-3.76038,-0.0790421,-0.746437,4.96288,0.282973,
2,0,0,1,0,8500.58,0.281759,0.281426,-0.177958,7,0.0229282,11,-5.0082e-05,-3.74968,-0.0854544,-0.690427,4.77415,0.281426,
2,0,0,1,0,8500.73,0.280261,0.27994,-0.18121,7,0.022899,11,-5.07278e-05,-3.74182,-0.0913724,-0.645709,4.59999,0.2799401,
2,0,0,1,0,8500.88,0.278763,0.278496,-0.189141,7,0.022869,11,-5.26749e-05,-3.72321,-0.112794,-0.523078,3.86352,0.278496,
2,0,0,1,0,8501.03,0.277264,0.276973,-0.195563,7,0.022838,11,-5.41657e-05,-3.70871,-0.122585,-0.481299,3.67784,0.276973,
2,0,0,1,0,8501.18,0.275766,0.275447,-0.199137,7,0.0228063,11,-5.48518e-05,-3.70085,-0.181645,-0.324809,2.52849,0.275447,
2,0,0,1,0,8501.33,0.274268,0.273948,-0.205546,7,0.0227736,11,-5.63088e-05,-3.68709,-0.139456,-0.423073,3.4259,0.273948,
2,0,0,1,0,8501.48,0.27277,0.272495,-0.211561,7,0.0227405,11,-5.76493e-05,-3.67456,-0.145728,-0.404864,3.35337,0.272495,
2,0,0,1,0,8501.63,0.271272,0.270973,-0.217699,7,0.0227064,11,-5.89907e-05,-3.66214,-0.15372,-0.383815,3.23846,0.270973,
2,0,0,1,0,8501.78,0.269773,0.269439,-0.221594,7,0.0226715,11,-5.97061e-05,-3.65444,-0.172122,-0.342781,2.93093,0.269439,
2,0,0,1,0,8501.93,0.268275,0.267991,-0.225854,7,0.022636,11,-6.05269e-05,-3.64617,-0.164979,-0.35762,3.14864,0.267991,
2,0,0,1,0,8502.08,0.266778,0.26648,-0.230783,7,0.0226,11,-6.14991e-05,-3.6368,-0.190683,-0.309413,2.76675,0.26648,
2,0,0,1,0,8502.23,0.265279,0.264995,-0.233659,7,0.0225632,11,-6.19184e-05,-3.63142,-0.159635,-0.369593,3.35294,0.264995,
2,0,0,1,0,8502.38,0.263781,0.26347,-0.237704,7,0.0225258,11,-6.2628e-05,-3.62396,-0.218583,-0.26992,2.51185,0.26347,
2,0,0,1,0,8502.53,0.262283,0.26198,-0.241983,7,0.0224877,11,-6.33948e-05,-3.61621,-0.228021,-0.258748,2.44811,0.26198,
2,0,0,1,0,8502.68,0.260784,0.260491,-0.244214,7,0.0224492,11,-6.36156e-05,-3.61223,-0.210492,-0.280295,2.69372,0.260491,
2,0,0,1,0,8502.83,0.259286,0.259032,-0.250037,7,0.02241,11,-6.47677e-05,-3.602,-0.168041,-0.351105,3.42247,0.259032,
2,0,0,1,0,8502.98,0.257788,0.257525,-0.256124,7,0.0223701,11,-6.59585e-05,-3.59155,-0.254001,-0.232282,2.29533,0.257525,
2,0,0,1,0,8503.13,0.25629,0.255974,-0.258549,7,0.0223296,11,-6.61819e-05,-3.58746,-0.281947,-0.209259,2.10615,0.255974,
2,0,0,1,0,8503.28,0.254791,0.254482,-0.258952,7,0.0222887,11,-6.58985e-05,-3.58678,-0.290466,-0.203122,2.07059,0.254482,
2,0,0,1,0,8503.43,0.253293,0.252966,-0.266799,7,0.0222472,11,-6.7491e-05,-3.57382,-0.240762,-0.245055,2.54381,0.252966,
2,0,0,1,0,8503.58,0.251796,0.251493,-0.267922,7,0.0222051,11,-6.73805e-05,-3.57199,-0.248038,-0.237867,2.5028,0.2514931,
2,0,0,1,0,8503.73,0.250297,0.249949,-0.27281,7,0.0221625,11,-6.81884e-05,-3.56414,-0.337248,-0.174945,1.86185,0.249949,
2,0,0,1,0,8503.88,0.248799,0.248503,-0.276226,7,0.0221193,11,-6.86432e-05,-3.55873,-0.318144,-0.185451,1.9944,0.2485033,
2,0,0,1,0,8504.03,0.247301,0.246982,-0.280275,7,0.0220758,11,-6.92228e-05,-3.55242,-0.257058,-0.22952,2.51018,0.246982,
2,0,0,1,0,8504.18,0.245802,0.245536,-0.283093,7,0.0220316,11,-6.95095e-05,-3.54807,-0.254945,-0.231423,2.54212,0.245536,
2,0,0,1,0,8504.33,0.244304,0.244011,-0.286461,7,0.0219868,11,-6.98997e-05,-3.54293,-0.326223,-0.180858,2.02052,0.244011,
2,0,0,1,0,8504.48,0.242806,0.242517,-0.290329,7,0.0219415,11,-7.04098e-05,-3.53711,-0.361668,-0.163133,1.84701,0.242517,
2,0,0,1,0,8504.63,0.241308,0.241,-0.292646,7,0.0218959,11,-7.05277e-05,-3.53366,-0.326461,-0.180726,2.07605,0.241,
2,0,0,1,0,8504.78,0.23981,0.239545,-0.295794,7,0.0218497,11,-7.0856e-05,-3.52901,-0.232637,-0.253614,2.92752,0.239545,
2,0,0,1,0,8504.93,0.238311,0.23804,-0.300898,7,0.0218028,11,-7.16257e-05,-3.52158,-0.332846,-0.177259,2.08496,0.23804,
2,0,0,1,0,8505.08,0.236814,0.236532,-0.302056,7,0.0217555,11,-7.14457e-05,-3.51991,-0.286716,-0.205778,2.42812,0.236532,
2,0,0,1,0,8505.23,0.235316,0.235024,-0.305501,7,0.0217078,11,-7.18001e-05,-3.51499,-0.324265,-0.18195,2.18454,0.235024,
2,0,0,1,0,8505.38,0.233817,0.233514,-0.310651,7,0.0216596,11,-7.25416e-05,-3.50773,-0.265222,-0.222455,2.68312,0.233514,
2,0,0,1,0,8505.53,0.232319,0.23199,-0.316983,7,0.0216107,11,-7.35367e-05,-3.49896,-0.37241,-0.158428,1.94159,0.23199,
2,0,0,1,0,8505.68,0.230821,0.230509,-0.317841,7,0.0215613,11,-7.32653e-05,-3.49779,-0.400198,-0.147427,1.81749,0.230509,
2,0,0,1,0,8505.83,0.229322,0.229023,-0.318558,7,0.0215115,11,-7.29569e-05,-3.49681,-0.439324,-0.134297,1.68151,0.229023,
2,0,0,1,0,8505.98,0.227824,0.227499,-0.323101,7,0.0214612,11,-7.35051e-05,-3.49066,-0.316463,-0.186436,2.36206,0.227499,
2,0,0,1,0,8506.13,0.226326,0.226016,-0.329885,7,0.0214103,11,-7.45594e-05,-3.48164,-0.39484,-0.149428,1.91958,0.2260163,
2,0,0,1,0,8506.28,0.224828,0.224524,-0.331263,7,0.0213589,11,-7.43766e-05,-3.47983,-0.591194,-0.0997981,1.28483,0.224524,
2,0,0,1,0,8506.43,0.223329,0.223025,-0.335982,7,0.0213069,11,-7.49323e-05,-3.47368,-0.33247,-0.17746,2.31249,0.223025,
2,0,0,1,0,8506.58,0.221831,0.221522,-0.338679,7,0.0212546,11,-7.50248e-05,-3.47021,-0.357951,-0.164827,2.17077,0.221522,
2,0,0,1,0,8506.72,0.220334,0.220057,-0.344606,7,0.0212017,11,-7.5833e-05,-3.46268,-0.288331,-0.204626,2.72834,0.2200571,
2,0,0,1,0,8506.87,0.218835,0.218548,-0.345862,7,0.0211479,11,-7.55875e-05,-3.4611,-0.265521,-0.222205,2.9834,0.218548,
2,0,0,1,0,8507.02,0.217337,0.21703,-0.351168,7,0.0210938,11,-7.6214e-05,-3.45449,-0.350784,-0.168195,2.30458,0.21703,
2,0,0,1,0,8507.17,0.215839,0.215555,-0.350937,7,0.0210392,11,-7.56463e-05,-3.45477,-0.308453,-0.191277,2.64035,0.2155554,
2,0,0,1,0,8507.32,0.21434,0.214022,-0.356892,7,0.020984,11,-7.63828e-05,-3.44746,-0.226923,-0.26,3.61676,0.214022,
2,0,0,1,0,8507.47,0.212842,0.212548,-0.361138,7,0.0209281,11,-7.67592e-05,-3.44233,-0.287029,-0.205554,2.90106,0.212548,
2,0,0,1,0,8507.62,0.211344,0.21106,-0.365687,7,0.0208716,11,-7.71821e-05,-3.43689,-0.371278,-0.158911,2.26967,0.21106,
2,0,0,1,0,8507.77,0.209846,0.209544,-0.365579,7,0.0208147,11,-7.66048e-05,-3.43702,-0.30413,-0.193996,2.79095,0.209544,
2,0,0,1,0,8507.92,0.208348,0.20804,-0.37538,7,0.0207571,11,-7.80941e-05,-3.42553,-0.262746,-0.224551,3.27983,0.20804,
2,0,0,1,0,8508.07,0.206849,0.206539,-0.383063,7,0.0206986,11,-7.91176e-05,-3.41673,-0.250196,-0.235815,3.47459,0.206539,
2,0,0,1,0,8508.22,0.205352,0.205035,-0.383442,7,0.0206394,11,-7.86191e-05,-3.4163,-0.403112,-0.146361,2.18203,0.205035,
2,0,0,1,0,8508.37,0.203854,0.20354,-0.38625,7,0.0205797,11,-7.86173e-05,-3.41313,-0.28485,-0.207127,3.13824,0.20354,
2,0,0,1,0,8508.52,0.202355,0.202019,-0.391099,7,0.0205195,11,-7.90095e-05,-3.40771,-0.260591,-0.226409,3.47816,0.202019,
2,0,0,1,0,8508.67,0.200857,0.200536,-0.396447,7,0.0204583,11,-7.95018e-05,-3.40181,-0.280498,-0.21034,3.27019,0.200536,
2,0,0,1,0,8508.82,0.199359,0.199048,-0.400413,7,0.0203964,11,-7.97015e-05,-3.39749,-0.351967,-0.167629,2.62097,0.199048,
2,0,0,1,0,8508.97,0.19786,0.197522,-0.408918,7,0.0203337,11,-8.07703e-05,-3.38836,-0.26631,-0.221546,3.51507,0.197522,
2,0,0,1,0,8509.12,0.196362,0.196062,-0.412422,7,0.0202705,11,-8.08602e-05,-3.38466,-0.249308,-0.236655,3.80918,0.196062,
2,0,0,1,0,8509.27,0.194864,0.194536,-0.419386,7,0.0202061,11,-8.15858e-05,-3.37739,-0.215414,-0.273891,4.46488,0.194536,
2,0,0,1,0,8509.42,0.193366,0.193037,-0.425577,7,0.0201408,11,-8.2152e-05,-3.37102,-0.214702,-0.2748,4.55653,0.193037,
2,0,0,1,0,8509.57,0.191867,0.191559,-0.432857,7,0.0200746,11,-8.29178e-05,-3.36366,-0.286379,-0.206021,3.4842,0.1915594,
2,0,0,1,0,8509.72,0.190369,0.190081,-0.43663,7,0.0200076,11,-8.2995e-05,-3.35989,-0.194214,-0.303788,5.19858,0.190081,
2,0,0,1,0,8509.87,0.188872,0.188527,-0.445134,7,0.0199394,11,-8.39198e-05,-3.35151,-0.176271,-0.334712,5.80789,0.188527,
2,0,0,1,0,8510.02,0.187373,0.187069,-0.451858,7,0.01987,11,-8.45285e-05,-3.345,-0.194229,-0.303765,5.3725,0.187069,
2,0,0,1,0,8510.17,0.185875,0.185562,-0.461072,7,0.0197995,11,-8.55575e-05,-3.33623,-0.201606,-0.29265,5.25782,0.185562,
2,0,0,1,0,8510.32,0.184377,0.184071,-0.465197,7,0.0197278,11,-8.56292e-05,-3.33236,-0.180152,-0.327502,5.99495,0.1840709,
2,0,0,1,0,8510.47,0.182878,0.182598,-0.478691,7,0.0196548,11,-8.74079e-05,-3.31995,-0.177412,-0.332559,6.23028,0.182598,
2,0,0,1,0,8510.62,0.18138,0.181047,-0.487439,7,0.0195803,11,-8.82491e-05,-3.31208,-0.171175,-0.344676,6.58019,0.181047,
2,0,0,1,0,8510.77,0.179882,0.179591,-0.499384,7,0.0195042,11,-8.96846e-05,-3.30157,-0.204548,-0.28844,5.62643,0.179591,
2,0,0,1,0,8510.92,0.178384,0.178073,-0.510102,7,0.0194266,11,-9.08356e-05,-3.29234,-0.150328,-0.392475,7.82578,0.178073,
2,0,0,1,0,8511.07,0.176886,0.176557,-0.523076,7,0.0193473,11,-9.23526e-05,-3.28144,-0.145116,-0.406572,8.33695,0.176557,
2,0,0,1,0,8511.22,0.175387,0.175074,-0.536938,7,0.019266,11,-9.4004e-05,-3.27008,-0.12582,-0.468925,9.79829,0.175074,
2,0,0,1,0,8511.37,0.17389,0.173607,-0.551837,7,0.0191825,11,-9.58026e-05,-3.25819,-0.13306,-0.44341,9.53155,0.173607,
2,0,0,1,0,8511.52,0.172392,0.172039,-0.565277,7,0.0190968,11,-9.72498e-05,-3.24774,-0.114714,-0.514322,11.3689,0.172039,
2,0,0,1,0,8511.67,0.170893,0.170646,-0.583446,7,0.0190089,11,-9.95627e-05,-3.234,-0.116775,-0.505243,11.5281,0.170646,
2,0,0,1,0,8511.82,0.169395,0.169088,-0.600242,7,0.0189181,11,-0.000101494,-3.22167,-0.0978577,-0.602916,14.1522,0.169088,
2,0,0,1,0,8511.97,0.167897,0.167626,-0.622082,7,0.0188242,11,-0.000104277,-3.20615,-0.0985588,-0.598628,14.5971,0.167626,
2,0,0,1,0,8512.12,0.166398,0.166075,-0.643453,7,0.0187272,11,-0.000106861,-3.19148,-0.102107,-0.577827,14.6193,0.166075,
2,0,0,1,0,8512.27,0.1649,0.16456,-0.666598,7,0.0186268,11,-0.000109696,-3.17614,-0.0896722,-0.657952,17.2755,0.16456,
2,0,0,1,0,8512.42,0.163402,0.163098,-0.69584,7,0.0185226,11,-0.00011349,-3.15749,-0.0828534,-0.712101,19.4036,0.163098,
2,0,0,1,0,8512.57,0.161904,0.161632,-0.729879,7,0.0184138,11,-0.000117972,-3.13675,-0.0767316,-0.768914,21.8921,0.161632,
2,0,0,1,0,8512.72,0.160405,0.160074,-0.762741,7,0.0183002,11,-0.000122095,-3.11762,-0.0774908,-0.761381,22.5904,0.160074,
2,0,0,1,0,8512.87,0.158907,0.158578,-0.796598,7,0.0181815,11,-0.000126323,-3.09876,-0.0731595,-0.806457,25.1688,0.158578,
2,0,0,1,0,8513.02,0.15741,0.157151,-0.836754,7,0.0180573,11,-0.000131496,-3.0774,-0.0657327,-0.897575,29.5052,0.157151,
2,0,0,1,0,8513.17,0.155911,0.155619,-0.879422,7,0.0179264,11,-0.000136855,-3.0558,-0.067805,-0.870142,30.0044,0.155619,
2,0,0,1,0,8513.32,0.154413,0.154094,-0.926721,7,0.0177885,11,-0.000142802,-3.03305,-0.0672685,-0.877082,31.7284,0.154094,
2,0,0,1,0,8513.47,0.152915,0.152612,-0.978285,7,0.0176436,11,-0.000149298,-3.00953,-0.0672312,-0.877568,33.5833,0.152612,
2,0,0,1,0,8513.62,0.151417,0.151123,-1.0299,7,0.0174914,11,-0.000155641,-2.98721,-0.0673096,-0.876547,35.2696,0.151123,
2,0,0,1,0,8513.77,0.149918,0.149592,-1.08731,7,0.0173308,11,-0.000162653,-2.96365,-0.0649603,-0.908247,38.4611,0.149592,
2,0,0,1,0,8513.92,0.14842,0.148127,-1.14409,7,0.0171618,11,-0.00016947,-2.94154,-0.0704439,-0.837546,37.3063,0.148127,
2,0,0,1,0,8514.07,0.146922,0.14664,-1.1991,7,0.0169841,11,-0.000175835,-2.92115,-0.0734082,-0.803725,37.5542,0.1466396,
2,0,0,1,0,8514.22,0.145424,0.145123,-1.25336,7,0.0167985,11,-0.000181892,-2.90192,-0.0784377,-0.752189,36.8314,0.145123,
2,0,0,1,0,8514.37,0.143925,0.143615,-1.31106,7,0.0166043,11,-0.000188287,-2.88238,-0.0795754,-0.741435,37.8133,0.143615,
2,0,0,1,0,8514.52,0.142428,0.142117,-1.36458,7,0.0164016,11,-0.00019393,-2.865,-0.0897896,-0.657091,34.8625,0.142117,
2,0,0,1,0,8514.67,0.14093,0.140615,-1.41151,7,0.0161914,11,-0.000198479,-2.85032,-0.106138,-0.555882,30.5515,0.140615,
2,0,0,1,0,8514.82,0.139431,0.139135,-1.45031,7,0.0159744,11,-0.000201789,-2.83854,-0.115885,-0.509124,28.8451,0.139135,
2,0,0,1,0,8514.96,0.137933,0.137604,-1.4969,7,0.0157513,11,-0.00020598,-2.82481,-0.13878,-0.425134,24.7522,0.137604,
2,0,0,1,0,8515.11,0.136435,0.13612,-1.53273,7,0.0155222,11,-0.000208636,-2.81453,-0.165024,-0.357524,21.2896,0.13612,
2,0,0,1,0,8515.26,0.134936,0.134653,-1.5609,7,0.0152884,11,-0.000210179,-2.80663,-0.238138,-0.247756,15.0311,0.134653,
2,0,0,1,0,8515.41,0.133438,0.133152,-1.58411,7,0.0150505,11,-0.000210927,-2.80022,-0.283552,-0.208075,12.8258,0.133152,
2,0,0,1,0,8515.56,0.13194,0.131616,-1.59964,7,0.0148103,11,-0.000210538,-2.79598,-0.36983,-0.159533,9.97074,0.131616,
2,0,0,1,0,8515.71,0.130442,0.130132,-1.61643,7,0.0145674,11,-0.00021035,-2.79144,-0.486256,-0.121335,7.62646,0.130132,
2,0,0,1,0,8515.86,0.128943,0.128639,-1.62482,7,0.0143225,11,-0.000209016,-2.78919,-1.2336,-0.0478274,3.0161,0.128639,
2,0,0,1,0,8516.01,0.127445,0.127111,-1.62801,7,0.014077,11,-0.000206938,-2.78834,9.18359,0.0064245,-0.406449,0.1271106,
2,0,0,1,0,8516.16,0.125948,0.125619,-1.62281,7,0.0138321,11,-0.000203855,-2.78973,1.36278,0.0432937,-2.73542,0.125619,
2,0,0,1,0,8516.31,0.124449,0.124145,-1.61758,7,0.0135873,11,-0.000200814,-2.79113,1.00396,0.0587674,-3.69857,0.124145,
2,0,0,1,0,8516.46,0.122951,0.12262,-1.60675,7,0.0133437,11,-0.000197021,-2.79405,0.533677,0.110554,-6.91723,0.12262,
2,0,0,1,0,8516.61,0.121453,0.121181,-1.59467,7,0.0131017,11,-0.000193244,-2.79733,0.365224,0.161545,-10.0377,0.121181,
2,0,0,1,0,8516.76,0.119955,0.11965,-1.57438,7,0.0128622,11,-0.000188375,-2.80289,0.318793,0.185073,-11.3954,0.11965,
2,0,0,1,0,8516.91,0.118456,0.118148,-1.5615,7,0.0126252,11,-0.000184488,-2.80646,0.321594,0.183461,-11.17,0.118148,
2,0,0,1,0,8517.06,0.116958,0.116627,-1.54551,7,0.0123905,11,-0.000180248,-2.81093,0.279616,0.211004,-12.6957,0.116627,
2,0,0,1,0,8517.21,0.11546,0.115162,-1.52234,7,0.0121587,11,-0.000175317,-2.81749,0.224499,0.262807,-15.5952,0.115162,
2,0,0,1,0,8517.36,0.113962,0.11367,-1.49325,7,0.0119307,11,-0.000169738,-2.82587,0.220349,0.267757,-15.6465,0.1136705,
2,0,0,1,0,8517.51,0.112463,0.112143,-1.47516,7,0.0117061,11,-0.000165429,-2.83116,0.222697,0.264934,-15.2347,0.112143,
2,0,0,1,0,8517.66,0.110966,0.110682,-1.45076,7,0.0114851,11,-0.000160573,-2.8384,0.212875,0.277159,-15.6785,0.110682,
2,0,0,1,0,8517.81,0.109468,0.109171,-1.42528,7,0.0112676,11,-0.0001556,-2.8461,0.180006,0.327766,-18.1891,0.109171,
2,0,0,1,0,8517.96,0.107969,0.107701,-1.39793,7,0.0110538,11,-0.000150559,-2.85452,0.188765,0.312558,-17.0693,0.107701,
2,0,0,1,0,8518.11,0.106471,0.106166,-1.3724,7,0.0108445,11,-0.000145702,-2.86252,0.19826,0.297589,-16.0053,0.106166,
2,0,0,1,0,8518.26,0.104973,0.10468,-1.3483,7,0.0106387,11,-0.000141141,-2.87021,0.190397,0.309879,-16.3132,0.10468,
2,0,0,1,0,8518.41,0.103474,0.103147,-1.32924,7,0.0104359,11,-0.000137107,-2.8764,0.189963,0.310587,-16.0688,0.103147,
2,0,0,1,0,8518.56,0.101976,0.101697,-1.30504,7,0.0102369,11,-0.000132719,-2.88438,0.18822,0.313462,-15.9557,0.101697,
2,0,0,1,0,8518.71,0.100478,0.1002,-1.28229,7,0.0100416,11,-0.000128485,-2.89201,0.209653,0.281418,-14.1048,0.1002,
2,0,0,1,0,8518.86,0.0989799,0.0986785,-1.26222,7,0.00984934,11,-0.000124554,-2.89887,0.237873,0.248031,-12.2141,0.0986785,
2,0,0,1,0,8519.01,0.0974808,0.097173,-1.24572,7,0.00965962,11,-0.000121051,-2.90458,0.244621,0.24119,-11.7039,0.097173,
2,0,0,1,0,8519.16,0.0959833,0.0956688,-1.22471,7,0.00947267,11,-0.000117167,-2.91197,0.254719,0.231628,-11.0889,0.0956688,
2,0,0,1,0,8519.31,0.0944857,0.0941448,-1.20638,7,0.00928872,11,-0.000113574,-2.91852,0.267455,0.220598,-10.4374,0.0941448,
2,0,0,1,0,8519.46,0.0929871,0.092701,-1.1928,7,0.00910672,11,-0.000110574,-2.92343,0.349122,0.168995,-7.87029,0.092701,
2,0,0,1,0,8519.61,0.0914889,0.0911761,-1.18453,7,0.0089267,11,-0.000108001,-2.92645,0.327384,0.180217,-8.31711,0.0911761,
2,0,0,1,0,8519.76,0.0899907,0.0896576,-1.16963,7,0.00874864,11,-0.000104866,-2.93195,0.29978,0.196811,-8.95369,0.0896576,
2,0,0,1,0,8519.91,0.0884925,0.0882197,-1.15237,7,0.00857246,11,-0.000101662,-2.93841,0.349879,0.16863,-7.60783,0.0882197,
2,0,0,1,0,8520.06,0.0869943,0.0867118,-1.14569,7,0.00839835,11,-9.93452e-05,-2.94093,0.351639,0.167786,-7.51076,0.0867118,
2,0,0,1,0,8520.21,0.0854962,0.0851572,-1.13593,7,0.00822552,11,-9.67329e-05,-2.94465,0.38155,0.154632,-6.85738,0.08515723,
2,0,0,1,0,8520.36,0.083998,0.0837098,-1.12506,7,0.00805415,11,-9.41787e-05,-2.94882,0.318567,0.185204,-8.12367,0.0837098,
2,0,0,1,0,8520.51,0.0824998,0.0821934,-1.11595,7,0.00788427,11,-9.17235e-05,-2.95236,0.407574,0.144759,-6.31195,0.08219339,
2,0,0,1,0,8520.66,0.0810011,0.0806829,-1.10655,7,0.00771607,11,-8.92801e-05,-2.95603,0.454656,0.129769,-5.61453,0.0806829,
2,0,0,1,0,8520.81,0.0795036,0.079218,-1.09922,7,0.00754896,11,-8.70784e-05,-2.95891,0.525572,0.112259,-4.80801,0.079218,
2,0,0,1,0,8520.96,0.0780061,0.0777302,-1.0895,7,0.00738298,11,-8.46868e-05,-2.96277,0.433518,0.136096,-5.78087,0.0777302,
2,0,0,1,0,8521.11,0.076507,0.0761894,-1.0805,7,0.00721833,11,-8.23225e-05,-2.96638,0.391121,0.150848,-6.35594,0.0761894,
2,0,0,1,0,8521.26,0.0750088,0.0747578,-1.06987,7,0.00705549,11,-7.99815e-05,-2.97067,0.405691,0.145431,-6.07376,0.0747578,
2,0,0,1,0,8521.41,0.0735106,0.0732043,-1.06203,7,0.00689384,11,-7.77455e-05,-2.97386,0.474957,0.124222,-5.13705,0.0732043,
2,0,0,1,0,8521.56,0.0720124,0.0716434,-1.05224,7,0.00673345,11,-7.53858e-05,-2.97789,0.396252,0.148895,-6.12399,0.0716434,
2,0,0,1,0,8521.71,0.0705142,0.0702034,-1.04419,7,0.0065745,11,-7.33056e-05,-2.98122,0.35006,0.168543,-6.85938,0.0702034,
2,0,0,1,0,8521.86,0.0690161,0.068704,-1.02879,7,0.00641723,11,-7.06817e-05,-2.98767,0.322128,0.183157,-7.39023,0.068704,
2,0,0,1,0,8522.01,0.0675179,0.0672332,-1.02298,7,0.00626141,11,-6.87779e-05,-2.99013,0.396423,0.148831,-5.93402,0.0672332,
2,0,0,1,0,8522.16,0.0660188,0.0657508,-1.01706,7,0.00610684,11,-6.68726e-05,-2.99265,0.317067,0.186081,-7.34641,0.0657508,
2,0,0,1,0,8522.31,0.0645213,0.0642372,-1.00102,7,0.00595379,11,-6.43024e-05,-2.99956,0.285423,0.206711,-8.05162,0.0642372,
2,0,0,1,0,8522.46,0.0630237,0.0627018,-0.986682,7,0.00580262,11,-6.18667e-05,-3.00582,0.308774,0.191078,-7.38571,0.0627018,
2,0,0,1,0,8522.61,0.0615251,0.0612504,-0.976267,7,0.00565338,11,-5.97967e-05,-3.01043,0.269451,0.218964,-8.36671,0.0612504,
2,0,0,1,0,8522.76,0.0600269,0.0597053,-0.964729,7,0.0055057,11,-5.75995e-05,-3.01559,0.275516,0.214144,-8.08078,0.0597053,
2,0,0,1,0,8522.91,0.0585287,0.0582208,-0.954169,7,0.00535983,11,-5.55525e-05,-3.02037,0.231443,0.254922,-9.4691,0.0582208,
2,0,0,1,0,8523.06,0.0570305,0.0567002,-0.941248,7,0.0052157,11,-5.33689e-05,-3.0263,0.255114,0.23127,-8.51093,0.0567002,
2,0,0,1,0,8523.2,0.0555323,0.0552538,-0.929017,7,0.00507387,11,-5.13317e-05,-3.03198,0.244308,0.241499,-8.76776,0.0552538,
2,0,0,1,0,8523.35,0.0540342,0.0537596,-0.918623,7,0.00493349,11,-4.93849e-05,-3.03686,0.27479,0.21471,-7.68147,0.0537596,
2,0,0,1,0,8523.5,0.052536,0.0522496,-0.90674,7,0.00479484,11,-4.73769e-05,-3.04252,0.253156,0.233058,-8.22668,0.0522496,
2,0,0,1,0,8523.65,0.0510378,0.0507131,-0.894997,7,0.00465809,11,-4.53881e-05,-3.04818,0.256746,0.229799,-8.01779,0.0507131,
2,0,0,1,0,8523.8,0.0495391,0.0492252,-0.880495,7,0.00452343,11,-4.33425e-05,-3.05527,0.278956,0.211503,-7.28249,0.0492252,
2,0,0,1,0,8523.95,0.0480416,0.0477314,-0.870073,7,0.00439032,11,-4.15298e-05,-3.06044,0.377291,0.156378,-5.30421,0.0477314,
2,0,0,1,0,8524.1,0.0465441,0.0462253,-0.856758,7,0.00425879,11,-3.96039e-05,-3.06714,0.283646,0.208006,-6.97242,0.0462253,
2,0,0,1,0,8524.25,0.045045,0.0447165,-0.849719,7,0.00412874,11,-3.79965e-05,-3.07072,0.285217,0.20686,-6.85689,0.0447165,
2,0,0,1,0,8524.4,0.0435468,0.0432372,-0.835029,7,0.00400055,11,-3.61043e-05,-3.0783,0.297245,0.19849,-6.49832,0.0432372,
2,0,0,1,0,8524.55,0.0420486,0.041724,-0.830115,7,0.00387375,11,-3.46357e-05,-3.08086,0.348149,0.169467,-5.49871,0.041724,
2,0,0,1,0,8524.7,0.0405504,0.0402278,-0.824356,7,0.00374804,11,-3.3162e-05,-3.08389,0.312748,0.18865,-6.03105,0.0402278,
2,0,0,1,0,8524.85,0.0390523,0.0387507,-0.814301,7,0.00362341,11,-3.15547e-05,-3.08922,0.286701,0.205789,-6.51547,0.03875066,
2,0,0,1,0,8525,0.0375541,0.0372247,-0.802621,7,0.00350027,11,-2.98774e-05,-3.09549,0.346649,0.170201,-5.3542,0.0372247,
2,0,0,1,0,8525.15,0.0360559,0.0357296,-0.798297,7,0.00337849,11,-2.85228e-05,-3.09784,0.35513,0.166136,-5.19084,0.0357296,
2,0,0,1,0,8525.3,0.0345568,0.0342632,-0.791869,7,0.00325734,11,-2.7132e-05,-3.10135,0.466103,0.126582,-3.914,0.0342632,
2,0,0,1,0,8525.45,0.0330593,0.032727,-0.787538,7,0.00313708,11,-2.57737e-05,-3.10373,0.459452,0.128414,-3.93913,0.032727,
2,0,0,1,0,8525.6,0.0315618,0.0312465,-0.782743,7,0.00301763,11,-2.4458e-05,-3.10638,0.591713,0.0997105,-3.04061,0.0312465,
2,0,0,1,0,8525.75,0.0300631,0.0297478,-0.777763,7,0.00289913,11,-2.31367e-05,-3.10915,0.645123,0.0914554,-2.77585,0.0297478,
2,0,0,1,0,8525.9,0.0285649,0.0282696,-0.773563,7,0.00278106,11,-2.18683e-05,-3.1115,1.11728,0.0528069,-1.59022,0.0282696,
2,0,0,1,0,8526.05,0.0270667,0.0267596,-0.770197,7,0.00266342,11,-2.06101e-05,-3.1134,0.862179,0.0684313,-2.0562,0.02675958,
2,0,0,1,0,8526.2,0.0255685,0.0252623,-0.766669,7,0.00254628,11,-1.93678e-05,-3.11539,0.872453,0.0676254,-2.02835,0.0252623,
2,0,0,1,0,8526.35,0.0240704,0.0238435,-0.761866,7,0.00242981,11,-1.81655e-05,-3.11812,1.17784,0.0500916,-1.49863,0.0238435,
2,0,0,1,0,8526.5,0.0225722,0.0222624,-0.761677,7,0.00231343,11,-1.69567e-05,-3.11823,3.49197,0.0168959,-0.502257,0.0222624,
2,0,0,1,0,8526.65,0.021074,0.0207513,-0.762183,7,0.00219722,11,-1.58163e-05,-3.11794,1.59865,0.0369061,-1.09927,0.0207513,
2,0,0,1,0,8526.8,0.0195758,0.019254,-0.762389,7,0.00208119,11,-1.46791e-05,-3.11782,2.74856,0.0214658,-0.637694,0.019254,
2,0,0,1,0,8526.95,0.0180772,0.0177604,-0.75868,7,0.00196537,11,-1.34745e-05,-3.11994,6.20692,0.00950552,-0.282024,0.0177604,
2,0,0,1,0,8527.1,0.0165796,0.0162673,-0.760869,7,0.00184955,11,-1.23773e-05,-3.11869,-1.51108,-0.039045,1.15958,0.0162673,
2,0,0,1,0,8527.25,0.0150821,0.0147357,-0.762832,7,0.00173359,11,-1.12409e-05,-3.11757,-6.16432,-0.00957122,0.28396,0.0147357,
2,0,0,1,0,8527.4,0.013583,0.0132723,-0.761509,7,0.00161728,11,-1.01069e-05,-3.11833,2.25949,0.026112,-0.775262,0.0132723,
2,0,0,1,0,8527.55,0.0120848,0.0117972,-0.761119,7,0.00150119,11,-8.97911e-06,-3.11855,-4.6665,-0.0126433,0.376759,0.0117972,
2,0,0,1,0,8527.7,0.0105866,0.0102893,-0.762579,7,0.00138509,11,-7.84644e-06,-3.11772,-1.94989,-0.0302581,0.903533,0.0102893,
2,0,0,1,0,8527.85,0.00908846,0.00880796,-0.765122,7,0.00126861,11,-6.73917e-06,-3.11627,-2.17348,-0.0271454,0.811305,0.00880796,
2,0,0,1,0,8528,0.00759027,0.00728521,-0.768505,7,0.0011517,11,-5.59872e-06,-3.11435,-1.62014,-0.0364165,1.08989,0.007285214,
2,0,0,1,0,8528.15,0.00609208,0.00576459,-0.770649,7,0.00103457,11,-4.44247e-06,-3.11314,-1.44866,-0.0407273,1.22321,0.005764591,
2,0,0,1,0,8528.3,0.00459389,0.00427578,-0.773958,7,0.00091723,11,-3.30928e-06,-3.11128,-1.19078,-0.0495474,1.49426,0.00427578,
2,0,0,1,0,8528.45,0.0030948,0.00277547,-0.776547,7,0.000799282,11,-2.15528e-06,-3.10983,-0.499784,-0.118051,3.57079,0.002775471,
2,0,0,1,0,8528.6,0.00159728,0.00122062,-0.788368,7,0.000678947,11,-9.62299e-07,-3.10327, , , ,0.00122062,
2,0,0,1,0,8528.74,0.000199195,-0.000153538,-0.781872,7,0.000567512,11,1.20047e-07,-3.10686, , , ,-0.000153538,