File: Figure_codes/Fig_3-5/rawdata_trumpetplot_data/before 10th/20221101_1-115_002_TrumpetPlot_ParaChange_15_CV_C01_7.csv
mode,ox/red,error,control changes,counter inc.,time/s,control/V,Ewe/V,<I>/mA,cycle number,(Q-Qo)/C,I Range,P/W,log(|I|),Tafel slope mV/dec,alpha_eff,dI/d(E-IR),E-IR/V,
2,1,0,0,0,9839.13,2.44065e-05,-0.000764332,36.959,8,0.0000000E+000,10,-2.82489e-05,-1.43228, , , ,-0.0007643319,
2,1,0,1,0,9839.13,0.00250197,0.00213376,34.0283,8,0.000108569,10,7.26081e-05,-1.46816, , , ,0.002133759,
2,1,0,1,0,9839.13,0.00570921,0.00536694,33.4876,8,0.000243204,10,0.000179726,-1.47512, , , ,0.00536694,
2,1,0,1,0,9839.14,0.00890534,0.00857149,33.672,8,0.000377444,10,0.000288619,-1.47273,1.8786,0.0314064,42.0378,0.00857149,
2,1,0,1,0,9839.14,0.0121015,0.0117453,34.0726,8,0.000512952,10,0.000400192,-1.46759,0.643038,0.0917519,122.707,0.0117453,
2,1,0,1,0,9839.15,0.0153059,0.0149615,34.5675,8,0.000650283,10,0.000517182,-1.46133,0.543794,0.108497,146.51,0.0149615,
2,1,0,1,0,9839.15,0.0185021,0.0181862,35.0606,8,0.000789591,10,0.000637619,-1.45518,0.541051,0.109047,149.03,0.0181862,
2,1,0,1,0,9839.15,0.0217065,0.0213653,35.5464,8,0.000930855,10,0.00075946,-1.4492,0.569942,0.103519,143.336,0.0213653,
2,1,0,1,0,9839.16,0.0249027,0.0245539,35.9815,8,0.00107399,10,0.000883486,-1.44392,0.605546,0.0974327,136.607,0.0245539,
2,1,0,1,0,9839.16,0.0280988,0.0277882,36.406,8,0.00121881,10,0.00101166,-1.43883,0.650606,0.0906847,128.705,0.0277882,
2,1,0,1,0,9839.17,0.0313061,0.0309545,36.8049,8,0.00136532,10,0.00113928,-1.43409,0.682626,0.086431,124.037,0.0309545,
2,1,0,1,0,9839.17,0.0345022,0.0341994,37.1983,8,0.00151337,10,0.00127216,-1.42948,0.7187,0.0820927,119.057,0.0341994,
2,1,0,1,0,9839.17,0.0377094,0.0373933,37.574,8,0.00166296,10,0.00140502,-1.42511,0.75622,0.0780196,114.274,0.0373933,
2,1,0,1,0,9839.18,0.0409056,0.0405544,37.9259,8,0.001814,10,0.00153806,-1.42106,0.774949,0.076134,112.651,0.0405544,
2,1,0,1,0,9839.18,0.0441017,0.0437303,38.2648,8,0.00196644,10,0.00167333,-1.4172,0.789037,0.0747747,111.716,0.0437303,
2,1,0,1,0,9839.19,0.0473089,0.0469752,38.6375,8,0.00212028,10,0.001815,-1.41299,0.786636,0.0750029,113.133,0.0469752,
2,1,0,1,0,9839.19,0.0505051,0.0501532,38.9995,8,0.0022756,10,0.00195595,-1.40894,0.761247,0.0775044,118.016,0.0501532,
2,1,0,1,0,9839.19,0.0537012,0.0534309,39.3827,8,0.00243237,10,0.00210425,-1.40469,0.748993,0.0787725,121.147,0.0534309,
2,1,0,1,0,9839.2,0.0569057,0.056557,39.7786,8,0.00259076,10,0.00224976,-1.40035,0.718686,0.0820943,127.552,0.056557,
2,1,0,1,0,9839.2,0.0601018,0.0597658,40.187,8,0.00275071,10,0.00240181,-1.39591,0.681772,0.0865392,135.918,0.0597658,
2,1,0,1,0,9839.21,0.0633063,0.0629767,40.6352,8,0.0029124,10,0.00255907,-1.3911,0.651721,0.0905295,143.758,0.0629767,
2,1,0,1,0,9839.21,0.0665024,0.0661972,41.1179,8,0.00307594,10,0.00272189,-1.38597,0.612288,0.0963599,154.812,0.0661972,
2,1,0,1,0,9839.21,0.0696986,0.069319,41.6132,8,0.00324146,10,0.00288458,-1.38077,0.587423,0.100439,163.331,0.069319,
2,1,0,1,0,9839.22,0.0729058,0.0725235,42.1621,8,0.00340908,10,0.00305774,-1.37508,0.556468,0.106026,174.7,0.0725235,
2,1,0,1,0,9839.22,0.0761019,0.0757313,42.7184,8,0.00357891,10,0.00323512,-1.36939,0.52746,0.111857,186.835,0.0757313,
2,1,0,1,0,9839.23,0.0793092,0.0789263,43.3417,8,0.00375109,10,0.00342079,-1.36309,0.503831,0.117103,198.438,0.0789263,
2,1,0,1,0,9839.23,0.0825053,0.0821298,44.0067,8,0.00392584,10,0.00361426,-1.35648,0.478778,0.12323,211.894,0.0821298,
2,1,0,1,0,9839.23,0.0857014,0.0853311,44.7036,8,0.00410332,10,0.00381461,-1.34966,0.466493,0.126476,220.823,0.0853311,
2,1,0,1,0,9839.24,0.0889087,0.0885176,45.4277,8,0.00428367,10,0.00402116,-1.34268,0.458148,0.128779,228.435,0.0885176,
2,1,0,1,0,9839.24,0.0921048,0.0917042,46.1633,8,0.0044669,10,0.00423337,-1.3357,0.453123,0.130207,234.709,0.0917042,
2,1,0,1,0,9839.25,0.0953065,0.0949204,46.9285,8,0.00465316,10,0.00445447,-1.32856,0.451129,0.130783,239.572,0.0949204,
2,1,0,1,0,9839.25,0.0985054,0.0981196,47.7051,8,0.00484249,10,0.00468081,-1.32143,0.436057,0.135304,252.209,0.0981196,
2,1,0,1,0,9839.25,0.101702,0.101261,48.4806,8,0.00503492,10,0.00490917,-1.31443,0.426096,0.138466,262.576,0.101261,
2,1,0,1,0,9839.26,0.104906,0.104531,49.3983,8,0.00523077,10,0.00516365,-1.30629,0.415944,0.141846,273.674,0.104531,
2,1,0,1,0,9839.26,0.108102,0.107724,50.2904,8,0.00543025,10,0.00541747,-1.29852,0.41011,0.143864,282.313,0.107724,
2,1,0,1,0,9839.27,0.111304,0.110927,51.2103,8,0.00563333,10,0.00568061,-1.29064,0.414996,0.14217,284.07,0.110927,
2,1,0,1,0,9839.27,0.114506,0.114182,52.1284,8,0.0058401,10,0.0059521,-1.28293,0.416808,0.141552,287.916,0.114182,
2,1,0,1,0,9839.27,0.117702,0.117354,53.0411,8,0.00605053,10,0.0062246,-1.27539,0.422288,0.139715,289.234,0.117354,
2,1,0,1,0,9839.28,0.120909,0.120571,53.9892,8,0.00626468,10,0.0065095,-1.26769,0.422369,0.139688,294.289,0.120571,
2,1,0,1,0,9839.28,0.124105,0.123761,54.9223,8,0.00648259,10,0.00679726,-1.26025,0.420856,0.14019,300.609,0.123761,
2,1,0,1,0,9839.29,0.127301,0.126928,55.8794,8,0.00670429,10,0.00709264,-1.25275,0.421937,0.139831,305.169,0.1269277,
2,1,0,1,0,9839.29,0.130508,0.130164,56.8918,8,0.00692992,10,0.00740527,-1.24495,0.418384,0.141019,313.163,0.130164,
2,1,0,1,0,9839.29,0.133705,0.133378,57.8977,8,0.00715959,10,0.00772228,-1.23734,0.413811,0.142577,322.245,0.133378,
2,1,0,1,0,9839.3,0.136906,0.136557,58.9295,8,0.00739332,10,0.00804725,-1.22967,0.413103,0.142822,328.677,0.136557,
2,1,0,1,0,9839.3,0.140105,0.139697,59.9943,8,0.00763127,10,0.00838103,-1.22189,0.405736,0.145415,340.778,0.139697,
2,1,0,1,0,9839.31,0.143301,0.142946,61.093,8,0.00787354,10,0.00873301,-1.21401,0.400422,0.147344,351.623,0.1429462,
2,1,0,1,0,9839.31,0.146506,0.146154,62.2514,8,0.00812036,10,0.00909828,-1.20585,0.399489,0.147689,358.925,0.146154,
2,1,0,1,0,9839.31,0.149702,0.14933,63.4206,8,0.0083718,10,0.0094706,-1.19777,0.39253,0.150307,372.134,0.14933,
2,1,0,1,0,9839.32,0.152904,0.152547,64.6065,8,0.00862799,10,0.00985553,-1.18972,0.394764,0.149456,377.013,0.152547,
2,1,0,1,0,9839.32,0.156105,0.155715,65.8445,8,0.00888902,10,0.010253,-1.18148,0.393558,0.149914,385.351,0.155715,
2,1,0,1,0,9839.33,0.159301,0.158967,67.082,8,0.00915502,10,0.0106638,-1.17339,0.393192,0.150054,392.865,0.158967,
2,1,0,1,0,9839.33,0.162509,0.162173,68.37,8,0.00942603,10,0.0110878,-1.16513,0.400713,0.147237,392.682,0.162173,
2,1,0,1,0,9839.33,0.165705,0.16533,69.6285,8,0.00970216,10,0.0115117,-1.15721,0.403959,0.146054,396.671,0.16533,
2,1,0,1,0,9839.34,0.168901,0.16857,70.8926,8,0.00998333,10,0.0119504,-1.1494,0.41497,0.142179,393.143,0.16857,
2,1,0,1,0,9839.34,0.172108,0.171772,72.1616,8,0.0102696,10,0.0123954,-1.14169,0.428901,0.137561,387.014,0.171772,
2,1,0,1,0,9839.35,0.175304,0.17495,73.3931,8,0.0105608,10,0.0128401,-1.13434,0.440043,0.134078,383.617,0.17495,
2,1,0,1,0,9839.35,0.178506,0.178193,74.6066,8,0.0108569,10,0.0132944,-1.12722,0.462803,0.127484,370.666,0.178193,
2,1,0,1,0,9839.35,0.181705,0.181328,75.7867,8,0.0111578,10,0.0137422,-1.12041,0.490626,0.120255,355.026,0.181328,
2,1,0,1,0,9839.36,0.184901,0.184531,76.8908,8,0.0114633,10,0.0141887,-1.11413,0.527118,0.111929,335.163,0.184531,
2,1,0,1,0,9839.36,0.188105,0.187779,77.9476,8,0.0117731,10,0.0146369,-1.1082,0.578417,0.102003,309.523,0.187779,
2,1,0,1,0,9839.37,0.191302,0.190965,78.8871,8,0.0120869,10,0.0150646,-1.10299,0.654702,0.0901173,276.617,0.190965,
2,1,0,1,0,9839.37,0.194503,0.194143,79.7532,8,0.0124043,10,0.0154835,-1.09825,0.779861,0.0756545,234.545,0.194143,
2,1,0,1,0,9839.37,0.197705,0.197357,80.4386,8,0.0127249,10,0.0158751,-1.09454,1.00313,0.0588156,183.772,0.197357,
2,1,0,1,0,9839.38,0.200901,0.200569,80.9474,8,0.0130477,10,0.0162355,-1.0918,1.5531,0.0379885,119.375,0.200569,
2,1,0,1,0,9839.38,0.204108,0.203807,81.2472,8,0.0133722,10,0.0165588,-1.09019,4.13186,0.0142793,44.9867,0.203807,
2,1,0,1,0,9839.39,0.207305,0.207011,81.2893,8,0.0136974,10,0.0168278,-1.08997,-4.37634,-0.0134816,-42.4468,0.207011,
2,1,0,1,0,9839.39,0.210501,0.210149,81.0141,8,0.014022,10,0.0170251,-1.09144,-1.29382,-0.0456015,-142.961,0.210149,
2,1,0,1,0,9839.39,0.213708,0.213371,80.404,8,0.0143449,10,0.0171559,-1.09472,-0.729226,-0.0809077,-251.563,0.213371,
2,1,0,1,0,9839.4,0.216904,0.216602,79.4181,8,0.0146646,10,0.0172021,-1.10008,-0.498871,-0.118267,-363.03,0.216602,
2,1,0,1,0,9839.4,0.220106,0.219801,78.0717,8,0.0149795,10,0.0171603,-1.10751,-0.374803,-0.157416,-474.898,0.219801,
2,1,0,1,0,9839.41,0.223305,0.22303,76.338,8,0.0152882,10,0.0170257,-1.11726,-0.29781,-0.198113,-584.53,0.22303,
2,1,0,1,0,9839.41,0.226501,0.226267,74.2799,8,0.0155894,10,0.0168071,-1.12913,-0.246377,-0.23947,-687.633,0.226267,
2,1,0,1,0,9839.41,0.229705,0.229448,71.9093,8,0.0158816,10,0.0164994,-1.14321,-0.212028,-0.278265,-773.889,0.2294478,
2,1,0,1,0,9839.42,0.232901,0.232618,69.2582,8,0.0161637,10,0.0161107,-1.15953,-0.187249,-0.315088,-845.131,0.232618,
2,1,0,1,0,9839.42,0.236103,0.235852,66.4157,8,0.0164348,10,0.0156642,-1.17773,-0.169454,-0.348176,-896.939,0.235852,
2,1,0,1,0,9839.43,0.239305,0.239071,63.4585,8,0.0166943,10,0.0151711,-1.19751,-0.157707,-0.374111,-922.161,0.239071,
2,1,0,1,0,9839.43,0.242501,0.242235,60.4398,8,0.0169418,10,0.0146406,-1.21868,-0.14874,-0.396666,-932.601,0.242235,
2,1,0,1,0,9839.43,0.245708,0.245444,57.4309,8,0.0171773,10,0.0140961,-1.24085,-0.142406,-0.414308,-927.056,0.245444,
2,1,0,1,0,9839.44,0.248904,0.248666,54.4654,8,0.0174008,10,0.0135437,-1.26388,-0.140002,-0.421424,-896.239,0.248666,
2,1,0,1,0,9839.44,0.2521,0.251843,51.6185,8,0.0176126,10,0.0129997,-1.28719,-0.138715,-0.425334,-859.2,0.251843,
2,1,0,1,0,9839.45,0.255308,0.255056,48.9497,8,0.0178134,10,0.0124849,-1.31025,-0.141431,-0.417165,-800.353,0.255056,
2,1,0,1,0,9839.45,0.258504,0.258193,46.4767,8,0.018004,10,0.012,-1.33276,-0.145369,-0.405864,-740.024,0.258193,
2,1,0,1,0,9839.45,0.261708,0.261478,44.2105,8,0.0181851,10,0.0115601,-1.35447,-0.150578,-0.391824,-680.092,0.261478,
2,1,0,1,0,9839.46,0.264904,0.264649,42.1414,8,0.0183575,10,0.0111527,-1.37529,-0.160681,-0.367187,-608.213,0.264649,
2,1,0,1,0,9839.46,0.268101,0.267802,40.2812,8,0.0185221,10,0.0107874,-1.3949,-0.169981,-0.347097,-550.034,0.267802,
2,1,0,1,0,9839.47,0.271305,0.271062,38.6496,8,0.0186797,10,0.0104764,-1.41286,-0.184921,-0.319055,-485.082,0.2710624,
2,1,0,1,0,9839.47,0.274501,0.274223,37.2003,8,0.0188312,10,0.0102012,-1.42945,-0.201259,-0.293155,-428.693,0.274223,
2,1,0,1,0,9839.47,0.277708,0.277439,35.9374,8,0.0189773,10,0.00997042,-1.44445,-0.218589,-0.269913,-380.999,0.277439,
2,1,0,1,0,9839.48,0.280905,0.280604,34.793,8,0.0191186,10,0.00976304,-1.45851,-0.241495,-0.244312,-333.921,0.280604,
2,1,0,1,0,9839.48,0.284101,0.283799,33.797,8,0.0192557,10,0.00959154,-1.47112,-0.266118,-0.221706,-294.395,0.283799,
2,1,0,1,0,9839.49,0.287308,0.287013,32.9296,8,0.019389,10,0.00945123,-1.48241,-0.297404,-0.198384,-256.455,0.287013,
2,1,0,1,0,9839.49,0.290504,0.290201,32.1803,8,0.0195191,10,0.00933875,-1.49241,-0.333241,-0.177049,-223.489,0.290201,
2,1,0,1,0,9839.49,0.2937,0.293408,31.5092,8,0.0196464,10,0.00924506,-1.50156,-0.366097,-0.161159,-199.307,0.293408,
2,1,0,1,0,9839.5,0.296907,0.29661,30.9339,8,0.0197713,10,0.0091753,-1.50957,-0.377311,-0.15637,-190.862,0.2966097,
2,1,0,1,0,9839.5,0.29955,0.299307,30.4793,8,0.0198726,10,0.00912267,-1.516,-0.0875461,-0.673931,-771.864,0.299307,
2,1,0,1,0,9839.5,0.300012,0.299594,30.3875,8,0.0198909,10,0.00910391,-1.5173,0.00442656,13.3286,12629,0.299594,
2,1,0,1,0,9839.5,0.298983,0.29888,27.2858,8,0.0199272,10,0.00815518,-1.56406,0.0171313,3.44399,2664.75,0.29888,
2,1,0,1,0,9839.51,0.295787,0.295637,18.6536,8,0.0200175,10,0.0055147,-1.72924,0.0157311,3.75054,2290.51,0.295637,
2,1,0,1,0,9839.51,0.292579,0.292373,12.0017,8,0.0200777,10,0.00350898,-1.92076,0.0121319,4.86323,1931.76,0.292373,
2,1,0,1,0,9839.51,0.289383,0.289243,6.67908,8,0.0201143,10,0.00193188,-2.17528,0.0107636,5.48144,1541.43,0.289243,
2,1,0,1,0,9839.52,0.286187,0.285975,2.35611,8,0.0201317,10,0.000673789,-2.6278,0.0274036,2.15301,1250.2,0.285975,
2,0,0,1,0,9839.52,0.282983,0.282765,-1.1881,8,0.0201335,10,-0.000335954,-2.92515,0.961881,0.0613381,1019.53,0.282765,
2,0,0,1,0,9839.53,0.279786,0.279515,-4.07396,8,0.0201225,10,-0.00113873,-2.38998,-0.023154,-2.54816,841.426,0.279515,
2,0,0,1,0,9839.53,0.276582,0.27634,-6.47593,8,0.020101,10,-0.00178956,-2.1887,-0.0137806,-4.2814,698.005,0.27634,
2,0,0,1,0,9839.53,0.273386,0.273124,-8.4571,8,0.0200709,10,-0.00230984,-2.07278,-0.0282257,-2.0903,585.839,0.2731238,
2,0,0,1,0,9839.54,0.27019,0.269928,-10.1486,8,0.0200334,10,-0.00273939,-1.99359,-0.0433321,-1.36158,492.747,0.269928,
2,0,0,1,0,9839.54,0.266982,0.26672,-11.5697,8,0.0199897,10,-0.00308586,-1.93668,-0.060179,-0.980408,417.444,0.26672,
2,0,0,1,0,9839.55,0.263786,0.263549,-12.7785,8,0.0199409,10,-0.00336776,-1.89352,-0.0797392,-0.739912,354.818,0.263549,
2,0,0,1,0,9839.55,0.260585,0.260332,-13.7969,8,0.0198876,10,-0.00359178,-1.86022,-0.101247,-0.582736,305.504,0.260332,
2,0,0,1,0,9839.55,0.257383,0.257079,-14.7076,8,0.0198304,10,-0.00378102,-1.83246,-0.125347,-0.470693,264.813,0.2570788,
2,0,0,1,0,9839.56,0.254187,0.253898,-15.487,8,0.0197699,10,-0.00393211,-1.81003,-0.150557,-0.391878,233.126,0.253898,
2,0,0,1,0,9839.56,0.25098,0.250677,-16.1872,8,0.0197065,10,-0.00405777,-1.79083,-0.178755,-0.330061,205.935,0.250677,
2,0,0,1,0,9839.57,0.247783,0.247505,-16.7871,8,0.0196405,10,-0.00415491,-1.77502,-0.209373,-0.281794,182.914,0.247505,
2,0,0,1,0,9839.57,0.244587,0.244302,-17.3388,8,0.0195722,10,-0.00423591,-1.76098,-0.239946,-0.245889,165.265,0.244302,
2,0,0,1,0,9839.57,0.241383,0.241073,-17.8328,8,0.0195017,10,-0.004299,-1.74878,-0.269248,-0.219129,151.71,0.241073,
2,0,0,1,0,9839.58,0.238187,0.237896,-18.2995,8,0.0194294,10,-0.00435337,-1.73756,-0.299283,-0.197138,140.165,0.237896,
2,0,0,1,0,9839.58,0.234982,0.234713,-18.7279,8,0.0193553,10,-0.00439568,-1.72751,-0.332157,-0.177627,129.256,0.234713,
2,0,0,1,0,9839.59,0.231786,0.231546,-19.1267,8,0.0192795,10,-0.00442872,-1.71836,-0.361652,-0.16314,121.38,0.231546,
2,0,0,1,0,9839.59,0.22859,0.228306,-19.483,8,0.0192023,10,-0.00444809,-1.71034,-0.389574,-0.151447,114.978,0.228306,
2,0,0,1,0,9839.59,0.225383,0.225119,-19.8503,8,0.0191235,10,-0.00446869,-1.70223,-0.411495,-0.14338,110.971,0.2251192,
2,0,0,1,0,9839.6,0.222187,0.221938,-20.1967,8,0.0190434,10,-0.00448242,-1.69472,-0.429172,-0.137474,108.204,0.221938,
2,0,0,1,0,9839.6,0.218979,0.218689,-20.5535,8,0.0189619,10,-0.00449482,-1.68711,-0.453689,-0.130045,104.097,0.218689,
2,0,0,1,0,9839.61,0.215783,0.215501,-20.8685,8,0.018879,10,-0.00449719,-1.68051,-0.46911,-0.12577,102.314,0.215501,
2,0,0,1,0,9839.61,0.212587,0.212294,-21.1854,8,0.0187949,10,-0.00449753,-1.67396,-0.476808,-0.12374,102.38,0.2122936,
2,0,0,1,0,9839.61,0.20938,0.20914,-21.5061,8,0.0187094,10,-0.00449779,-1.66744,-0.482793,-0.122206,102.634,0.20914,
2,0,0,1,0,9839.62,0.206184,0.205922,-21.8606,8,0.0186227,10,-0.00450157,-1.66034,-0.476958,-0.123701,105.498,0.205922,
2,0,0,1,0,9839.62,0.202988,0.20268,-22.1844,8,0.0185345,10,-0.00449634,-1.65395,-0.485003,-0.121649,105.291,0.20268,
2,0,0,1,0,9839.63,0.199783,0.19951,-22.534,8,0.0184451,10,-0.00449577,-1.64716,-0.480476,-0.122795,108.057,0.19951,
2,0,0,1,0,9839.63,0.196587,0.196251,-22.8633,8,0.0183542,10,-0.00448693,-1.64086,-0.46933,-0.125711,112.334,0.196251,
2,0,0,1,0,9839.63,0.193382,0.193067,-23.2496,8,0.018262,10,-0.00448874,-1.63358,-0.460842,-0.128026,116.266,0.193067,
2,0,0,1,0,9839.64,0.190186,0.189863,-23.6242,8,0.0181682,10,-0.00448536,-1.62664,-0.437632,-0.134816,124.426,0.189863,
2,0,0,1,0,9839.64,0.18699,0.18672,-24.0212,8,0.0180729,10,-0.00448522,-1.61941,-0.4276,-0.137979,129.594,0.18672,
2,0,0,1,0,9839.65,0.183783,0.183484,-24.4517,8,0.0179758,10,-0.00448651,-1.61169,-0.408324,-0.144493,138.149,0.183484,
2,0,0,1,0,9839.65,0.180587,0.180318,-24.9018,8,0.0178771,10,-0.00449025,-1.60377,-0.385732,-0.152956,149.031,0.1803181,
2,0,0,1,0,9839.65,0.17738,0.177053,-25.3939,8,0.0177765,10,-0.00449607,-1.59527,-0.366307,-0.161067,160.055,0.177053,
2,0,0,1,0,9839.66,0.174183,0.173878,-25.9349,8,0.0176738,10,-0.00450952,-1.58611,-0.340645,-0.173201,175.824,0.173878,
2,0,0,1,0,9839.66,0.170987,0.170684,-26.5004,8,0.0175689,10,-0.00452321,-1.57675,-0.321594,-0.183461,190.378,0.170684,
2,0,0,1,0,9839.67,0.16778,0.167512,-27.1535,8,0.0174615,10,-0.00454853,-1.56617,-0.302848,-0.194817,207.058,0.167512,
2,0,0,1,0,9839.67,0.164584,0.1643,-27.8219,8,0.0173515,10,-0.00457112,-1.55561,-0.283332,-0.208236,226.97,0.1643,
2,0,0,1,0,9839.67,0.161382,0.161131,-28.5743,8,0.0172387,10,-0.00460421,-1.54402,-0.266707,-0.221216,247.857,0.161131,
2,0,0,1,0,9839.68,0.158183,0.157878,-29.4071,8,0.0171226,10,-0.00464273,-1.53155,-0.248198,-0.237713,273.967,0.157878,
2,0,0,1,0,9839.68,0.154987,0.154724,-30.323,8,0.0170031,10,-0.0046917,-1.51823,-0.235755,-0.250259,297.306,0.154724,
2,0,0,1,0,9839.69,0.151783,0.15157,-31.3092,8,0.0168797,10,-0.00474556,-1.50433,-0.222043,-0.265715,326.026,0.15157,
2,0,0,1,0,9839.69,0.148587,0.148311,-32.3859,8,0.0167523,10,-0.00480318,-1.48964,-0.211339,-0.279172,354.545,0.148311,
2,0,0,1,0,9839.69,0.145385,0.145131,-33.563,8,0.0166203,10,-0.00487103,-1.47414,-0.202559,-0.291273,383.259,0.145131,
2,0,0,1,0,9839.7,0.142183,0.141912,-34.8654,8,0.0164833,10,-0.00494782,-1.45761,-0.192189,-0.306989,419.257,0.1419123,
2,0,0,1,0,9839.7,0.138987,0.1387,-36.2418,8,0.016341,10,-0.00502675,-1.44079,-0.186227,-0.316818,449.585,0.1387,
2,0,0,1,0,9839.71,0.13578,0.135544,-37.7387,8,0.0161929,10,-0.00511523,-1.42321,-0.18079,-0.326345,482.161,0.1355435,
2,0,0,1,0,9839.71,0.132584,0.132346,-39.3107,8,0.0160387,10,-0.00520262,-1.40549,-0.176219,-0.334811,515.288,0.132346,
2,0,0,1,0,9839.71,0.129388,0.129156,-41.0161,8,0.0158779,10,-0.00529746,-1.38705,-0.174838,-0.337455,541.313,0.129156,
2,0,0,1,0,9839.72,0.12618,0.125951,-42.8114,8,0.01571,10,-0.00539214,-1.36844,-0.174503,-0.338103,565.152,0.125951,
2,0,0,1,0,9839.72,0.122984,0.122756,-44.6607,8,0.0155349,10,-0.00548237,-1.35007,-0.175762,-0.33568,584.952,0.122756,
2,0,0,1,0,9839.73,0.119783,0.119529,-46.5543,8,0.0153523,10,-0.0055646,-1.33204,-0.180095,-0.327605,594.754,0.119529,
2,0,0,1,0,9839.73,0.116584,0.116371,-48.4943,8,0.015162,10,-0.00564335,-1.31431,-0.185552,-0.31797,600.585,0.116371,
2,0,0,1,0,9839.73,0.113387,0.113136,-50.4332,8,0.014964,10,-0.00570581,-1.29728,-0.191329,-0.308369,605.339,0.113136,
2,0,0,1,0,9839.74,0.110183,0.109974,-52.3374,8,0.0147582,10,-0.00575575,-1.28119,-0.198121,-0.297797,607.552,0.109974,
2,0,0,1,0,9839.74,0.106987,0.106832,-54.2405,8,0.0145449,10,-0.00579461,-1.26568,-0.205935,-0.286498,605.943,0.106832,
2,0,0,1,0,9839.75,0.103785,0.103608,-56.2485,8,0.0143237,10,-0.00582781,-1.24989,-0.215631,-0.273616,598.774,0.103608,
2,0,0,1,0,9839.75,0.100583,0.100424,-58.136,8,0.0140947,10,-0.00583824,-1.23555,-0.227367,-0.259492,586.666,0.1004239,
2,0,0,1,0,9839.75,0.0973873,0.0972045,-59.9834,8,0.0138582,10,-0.00583066,-1.22197,-0.242999,-0.242799,566.647,0.0972045,
2,0,0,1,0,9839.76,0.0941801,0.0939756,-61.7829,8,0.0136145,10,-0.00580608,-1.20913,-0.258745,-0.228023,547.917,0.0939756,
2,0,0,1,0,9839.76,0.0909839,0.0908145,-63.4981,8,0.0133638,10,-0.00576655,-1.19724,-0.276746,-0.213192,526.646,0.0908145,
2,0,0,1,0,9839.77,0.0877878,0.087646,-65.1372,8,0.0131063,10,-0.00570902,-1.18617,-0.295736,-0.199502,505.806,0.087646,
2,0,0,1,0,9839.77,0.0845806,0.0843927,-66.7307,8,0.0128424,10,-0.00563158,-1.17567,-0.317039,-0.186097,483.313,0.0843927,
2,0,0,1,0,9839.77,0.0813844,0.0811849,-68.2524,8,0.0125722,10,-0.00554107,-1.16588,-0.34503,-0.171,453.962,0.0811849,
2,0,0,1,0,9839.78,0.0781828,0.0780005,-69.6912,8,0.0122962,10,-0.00543595,-1.15682,-0.377278,-0.156384,423.65,0.0780005,
2,0,0,1,0,9839.78,0.0749839,0.074744,-70.9942,8,0.0120146,10,-0.00530639,-1.14878,-0.422673,-0.139588,385.192,0.074744,
2,0,0,1,0,9839.79,0.0717877,0.0715533,-72.1701,8,0.0117282,10,-0.00516401,-1.14164,-0.477988,-0.123434,346.332,0.0715533,
2,0,0,1,0,9839.79,0.0685832,0.0682862,-73.2209,8,0.0114372,10,-0.00499998,-1.13536,-0.549374,-0.107395,305.726,0.0682862,
2,0,0,1,0,9839.79,0.0653871,0.0651463,-74.1431,8,0.0111424,10,-0.00483015,-1.12993,-0.64183,-0.0919246,264.99,0.06514629,
2,0,0,1,0,9839.8,0.0621854,0.0618792,-74.9273,8,0.0108441,10,-0.00463644,-1.12536,-0.771319,-0.0764924,222.803,0.06187918,
2,0,0,1,0,9839.8,0.0589837,0.0586693,-75.5843,8,0.010543,10,-0.00443448,-1.12157,-0.973248,-0.0606218,178.108,0.0586693,
2,0,0,1,0,9839.81,0.0557876,0.0555178,-76.0658,8,0.0102396,10,-0.004223,-1.11881,-1.31794,-0.0447669,132.372,0.0555178,
2,0,0,1,0,9839.81,0.0525804,0.0522931,-76.4323,8,0.00993454,10,-0.00399688,-1.11672,-2.06055,-0.0286331,85.0688,0.0522931,
2,0,0,1,0,9839.81,0.0493842,0.0491564,-76.6115,8,0.00962837,10,-0.00376595,-1.11571,-4.24336,-0.0139041,41.4194,0.0491564,
2,0,0,1,0,9839.82,0.0461881,0.0458808,-76.6722,8,0.00932177,10,-0.00351778,-1.11536,74.7082,0.000789739,-2.35526,0.0458808,
2,0,0,1,0,9839.82,0.0429808,0.0427229,-76.5957,8,0.0090152,10,-0.00327239,-1.1158,4.30688,0.013699,-40.8179,0.0427229,
2,0,0,1,0,9839.83,0.0397847,0.0394813,-76.4022,8,0.0087092,10,-0.00301645,-1.11689,2.30514,0.025595,-76.0994,0.0394813,
2,0,0,1,0,9839.83,0.036583,0.0362587,-76.085,8,0.00840423,10,-0.00275874,-1.1187,1.63191,0.0361539,-107.099,0.0362587,
2,0,0,1,0,9839.83,0.0333841,0.0330701,-75.6973,8,0.00810068,10,-0.00250331,-1.12092,1.31186,0.0449744,-132.611,0.0330701,
2,0,0,1,0,9839.84,0.030188,0.0298464,-75.2167,8,0.00779889,10,-0.00224495,-1.12369,1.12986,0.0522189,-153.057,0.0298464,
2,0,0,1,0,9839.84,0.0269835,0.0267172,-74.7095,8,0.00749906,10,-0.00199603,-1.12662,1.00523,0.058693,-170.881,0.0267172,
2,0,0,1,0,9839.85,0.0237874,0.0234925,-74.1311,8,0.00720142,10,-0.00174152,-1.13,0.927153,0.0636356,-183.879,0.0234925,
2,0,0,1,0,9839.85,0.0205857,0.0202985,-73.5149,8,0.00690618,10,-0.00149224,-1.13362,0.86999,0.0678169,-194.415,0.0202985,
2,0,0,1,0,9839.85,0.017384,0.0171162,-72.8759,8,0.00661343,10,-0.00124736,-1.13742,0.819743,0.0719737,-204.524,0.0171162,
2,0,0,1,0,9839.86,0.0141879,0.0138968,-72.217,8,0.00632332,10,-0.00100359,-1.14136,0.774535,0.0761748,-214.433,0.0138968,
2,0,0,1,0,9839.86,0.0109806,0.0106775,-71.5101,8,0.00603592,10,-0.000763546,-1.14563,0.722401,0.0816721,-227.598,0.0106775,
2,0,0,1,0,9839.87,0.00778448,0.00746548,-70.763,8,0.00575144,10,-0.00052828,-1.15019,0.698977,0.0844091,-232.906,0.00746548,
2,0,0,1,0,9839.87,0.00458834,0.00428214,-69.9548,8,0.00547007,10,-0.000299557,-1.15518,0.643868,0.0916337,-249.948,0.004282142,
2,0,0,1,0,9839.87,0.0013811,0.000972614,-69.2069,8,0.00519185,10,-6.73116e-05,-1.15985,0.598294,0.0986138,-265.731,0.0009726141,
2,0,0,1,0,9839.88,-0.00181504,-0.00216725,-68.2996,8,0.00491691,10,0.000148022,-1.16558,0.55575,0.106163,-282.252,-0.00216725,
2,0,0,1,0,9839.88,-0.0050195,-0.00534953,-67.3577,8,0.00464569,10,0.000360332,-1.17161,0.498837,0.118275,-310.253,-0.00534953,
2,0,0,1,0,9839.89,-0.00821564,-0.00857635,-66.3255,8,0.0043784,10,0.000568831,-1.17832,0.46805,0.126055,-325.624,-0.00857635,
2,0,0,1,0,9839.89,-0.0114118,-0.0117512,-65.2593,8,0.00411534,10,0.000766876,-1.18536,0.43689,0.135046,-343.275,-0.0117512,
2,0,0,1,0,9839.89,-0.0146162,-0.0149886,-64.1246,8,0.00385666,10,0.00096114,-1.19298,0.413511,0.142681,-356.45,-0.01498863,
2,0,0,1,0,9839.9,-0.0178124,-0.0181688,-62.9571,8,0.0036026,10,0.00114386,-1.20095,0.394249,0.149652,-367.205,-0.01816879,
2,0,0,1,0,9839.9,-0.0210196,-0.0213977,-61.7553,8,0.00335328,10,0.00132142,-1.20933,0.379062,0.155647,-374.776,-0.02139773,
2,0,0,1,0,9839.91,-0.0242158,-0.0245885,-60.5454,8,0.0031088,10,0.00148872,-1.21792,0.375026,0.157322,-371.693,-0.0245885,
2,0,0,1,0,9839.91,-0.0274119,-0.0277771,-59.3318,8,0.00286918,10,0.00164807,-1.22671,0.373282,0.158057,-366.312,-0.0277771,
2,0,0,1,0,9839.91,-0.0306191,-0.0310146,-58.1825,8,0.00263427,10,0.0018045,-1.23521,0.383462,0.153861,-349.952,-0.03101456,
2,0,0,1,0,9839.92,-0.0338153,-0.0341746,-57.075,8,0.00240387,10,0.00195051,-1.24355,0.399634,0.147635,-329.543,-0.0341746,
2,0,0,1,0,9839.92,-0.037017,-0.0373749,-56.0708,8,0.00217772,10,0.00209564,-1.25126,0.419007,0.140809,-308.784,-0.0373749,
2,0,0,1,0,9839.93,-0.0402187,-0.0405879,-55.1101,8,0.00195547,10,0.0022368,-1.25877,0.454714,0.129752,-279.848,-0.0405879,
2,0,0,1,0,9839.93,-0.0434148,-0.0437702,-54.2437,8,0.00173689,10,0.00237426,-1.26565,0.497373,0.118623,-252.029,-0.0437702,
2,0,0,1,0,9839.93,-0.0466193,-0.0469769,-53.4923,8,0.00152153,10,0.0025129,-1.27171,0.55511,0.106285,-222.625,-0.0469769,
2,0,0,1,0,9839.94,-0.0498154,-0.050191,-52.8407,8,0.00130897,10,0.00265213,-1.27703,0.633357,0.0931544,-192.689,-0.050191,
2,0,0,1,0,9839.94,-0.0530115,-0.0534051,-52.2567,8,0.00109886,10,0.00279077,-1.28186,0.720376,0.0819017,-167.534,-0.0534051,
2,0,0,1,0,9839.95,-0.056216,-0.056564,-51.7785,8,0.00089084,10,0.0029288,-1.28585,0.848991,0.0694943,-140.861,-0.056564,
2,0,0,1,0,9839.95,-0.0594121,-0.0597633,-51.3502,8,0.000684629,10,0.00306885,-1.28946,1.02256,0.0576981,-116.003,-0.0597633,
2,0,0,1,0,9839.95,-0.0626194,-0.0629498,-51.0435,8,0.0004799,10,0.00321318,-1.29206,1.26922,0.0464853,-92.8545,-0.0629498,
2,0,0,1,0,9839.96,-0.0658155,-0.0661098,-50.7829,8,0.000276267,10,0.00335725,-1.29428,1.68952,0.0349212,-69.377,-0.0661098,
2,0,0,1,0,9839.96,-0.0690117,-0.0693472,-50.5915,8,7.35388e-05,10,0.00350838,-1.29592,2.25991,0.0261072,-51.67,-0.06934721,
2,0,0,1,0,9839.97,-0.0722189,-0.0725518,-50.4629,8,-0.000128566,10,0.00366118,-1.29703,3.38039,0.0174536,-34.4402,-0.0725518,
2,0,0,1,0,9839.97,-0.075415,-0.0757393,-50.3827,8,-0.000330232,10,0.00381595,-1.29772,6.97929,0.00845358,-16.6557,-0.0757393,
2,0,0,1,0,9839.97,-0.0786167,-0.0789736,-50.3399,8,-0.000531661,10,0.00397552,-1.29809,40.7555,0.00144766,-2.85,-0.0789736,
2,0,0,1,0,9839.98,-0.0818184,-0.0821824,-50.3777,8,-0.000733098,10,0.00414016,-1.29776,-8.77692,-0.00672217,13.24,-0.08218237,
2,0,0,1,0,9839.98,-0.0850146,-0.085335,-50.4265,8,-0.000934726,10,0.00430314,-1.29734,-4.61763,-0.0127771,25.1821,-0.085335,
2,0,0,1,0,9839.99,-0.088219,-0.0886297,-50.5534,8,-0.00113667,10,0.00448053,-1.29625,-3.30191,-0.0178685,35.2876,-0.0886297,
2,0,0,1,0,9839.99,-0.0914152,-0.0917356,-50.6612,8,-0.0013391,10,0.00464744,-1.29532,-2.45543,-0.0240284,47.5729,-0.0917356,
2,0,0,1,0,9839.99,-0.0946141,-0.0949295,-50.8276,8,-0.00154208,10,0.00482504,-1.2939,-2.07007,-0.0285014,56.631,-0.0949295,
2,0,0,1,0,9840,-0.0978158,-0.0981542,-51.0364,8,-0.00174587,10,0.00500943,-1.29212,-1.72539,-0.0341952,68.1907,-0.0981542,
2,0,0,1,0,9840,-0.101012,-0.101344,-51.2734,8,-0.00195051,10,0.00519625,-1.29011,-1.53575,-0.0384178,76.9442,-0.101344,
2,0,0,1,0,9840.01,-0.104219,-0.104554,-51.5353,8,-0.00215614,10,0.00538821,-1.28789,-1.43003,-0.041258,83.0292,-0.104554,
2,0,0,1,0,9840.01,-0.107415,-0.10775,-51.814,8,-0.00236287,10,0.00558295,-1.28555,-1.28037,-0.0460804,93.281,-0.10775,
2,0,0,1,0,9840.01,-0.110611,-0.110945,-52.0984,8,-0.00257073,10,0.00578004,-1.28318,-1.20332,-0.0490308,99.8344,-0.110945,
2,0,0,1,0,9840.02,-0.113819,-0.114176,-52.4704,8,-0.00277992,10,0.00599085,-1.28009,-1.11177,-0.0530685,108.747,-0.114176,
2,0,0,1,0,9840.02,-0.117015,-0.117385,-52.8163,8,-0.00299053,10,0.00619983,-1.27723,-1.04516,-0.0564507,116.411,-0.117385,
2,0,0,1,0,9840.03,-0.120216,-0.120551,-53.2061,8,-0.00320261,10,0.00641405,-1.27404,-1.01534,-0.0581083,120.731,-0.120551,
2,0,0,1,0,9840.03,-0.123418,-0.123743,-53.5882,8,-0.00341623,10,0.00663116,-1.27093,-0.954477,-0.061814,129.393,-0.123743,
2,0,0,1,0,9840.03,-0.126614,-0.126942,-54.0116,8,-0.00363145,10,0.00685635,-1.26751,-0.928106,-0.0635703,134.116,-0.126942,
2,0,0,1,0,9840.04,-0.129819,-0.130127,-54.465,8,-0.00384844,10,0.00708734,-1.26388,-0.893816,-0.0660091,140.35,-0.130127,
2,0,0,1,0,9840.04,-0.133015,-0.133327,-54.9195,8,-0.00406725,10,0.00732225,-1.26027,-0.864712,-0.0682308,146.3,-0.133327,
2,0,0,1,0,9840.05,-0.136214,-0.136538,-55.384,8,-0.00428792,10,0.007562,-1.25662,-0.86115,-0.0685131,148.154,-0.136538,
2,0,0,1,0,9840.05,-0.139416,-0.139727,-55.8821,8,-0.0045105,10,0.00780827,-1.25273,-0.835678,-0.0706013,154.024,-0.139727,
2,0,0,1,0,9840.05,-0.142612,-0.142934,-56.3625,8,-0.00473504,10,0.00805613,-1.24901,-0.823539,-0.071642,157.657,-0.142934,
2,0,0,1,0,9840.06,-0.145819,-0.146133,-56.8921,8,-0.00496159,10,0.00831383,-1.24495,-0.816348,-0.0722731,160.504,-0.146133,
2,0,0,1,0,9840.06,-0.149015,-0.149343,-57.4028,8,-0.00519027,10,0.00857272,-1.24107,-0.804875,-0.0733033,164.238,-0.149343,
2,0,0,1,0,9840.07,-0.152211,-0.152542,-57.939,8,-0.00542102,10,0.00883816,-1.23703,-0.805319,-0.0732628,165.681,-0.152542,
2,0,0,1,0,9840.07,-0.155418,-0.155765,-58.4698,8,-0.00565392,10,0.00910755,-1.23307,-0.799956,-0.0737541,168.311,-0.155765,
2,0,0,1,0,9840.07,-0.158615,-0.158936,-59.0132,8,-0.00588893,10,0.0093793,-1.22905,-0.798276,-0.0739093,170.247,-0.1589357,
2,0,0,1,0,9840.08,-0.161816,-0.162149,-59.5581,8,-0.00612612,10,0.00965727,-1.22506,-0.799492,-0.0737968,171.533,-0.162149,
2,0,0,1,0,9840.08,-0.165018,-0.165349,-60.1193,8,-0.00636554,10,0.00994067,-1.22099,-0.797089,-0.0740193,173.664,-0.165349,
2,0,0,1,0,9840.09,-0.168214,-0.168542,-60.6615,8,-0.00660717,10,0.010224,-1.21709,-0.805882,-0.0732117,173.317,-0.168542,
2,0,0,1,0,9840.09,-0.171419,-0.171732,-61.2353,8,-0.00685102,10,0.010516,-1.213,-0.801927,-0.0735728,175.827,-0.171732,
2,0,0,1,0,9840.09,-0.174615,-0.174932,-61.7737,8,-0.00709709,10,0.0108062,-1.2092,-0.799373,-0.0738079,177.99,-0.174932,
2,0,0,1,0,9840.1,-0.177814,-0.178125,-62.3656,8,-0.00734543,10,0.0111089,-1.20505,-0.81299,-0.0725716,176.617,-0.178125,
2,0,0,1,0,9840.1,-0.181015,-0.181318,-62.9354,8,-0.0075961,10,0.0114113,-1.2011,-0.80441,-0.0733457,180.107,-0.181318,
2,0,0,1,0,9840.11,-0.184211,-0.184539,-63.4974,8,-0.00784905,10,0.0117178,-1.19724,-0.809284,-0.0729039,180.711,-0.184539,
2,0,0,1,0,9840.11,-0.187419,-0.187746,-64.0816,8,-0.00810427,10,0.012031,-1.19327,-0.810008,-0.0728388,182.196,-0.187746,
2,0,0,1,0,9840.11,-0.190615,-0.190913,-64.6766,8,-0.00836185,10,0.0123476,-1.18925,-0.798197,-0.0739166,186.595,-0.190913,
2,0,0,1,0,9840.12,-0.193811,-0.194105,-65.2652,8,-0.00862181,10,0.0126683,-1.18532,-0.801839,-0.0735808,187.284,-0.194105,
2,0,0,1,0,9840.12,-0.197018,-0.197331,-65.8842,8,-0.00888419,10,0.013001,-1.18122,-0.858502,-0.0687243,175.726,-0.197331,
2,0,0,1,0,9840.13,-0.199647,-0.19996,-66.369,8,-0.00910243,10,0.0132711,-1.17803,0.361397,0.163255,-408.832,-0.19996,
2,0,0,1,0,9840.13,-0.200134,-0.200532,-66.3669,8,-0.00914228,10,0.0133087,-1.17805,-0.0137059,-4.30472,10096.7,-0.200532,
2,0,0,1,1,9840.13,-0.198935,-0.199446,-63.0816,8,-0.00923839,10,0.0125814,-1.2001,-0.0477139,-1.23654,2722.66,-0.199446,
2,0,0,1,1,9840.13,-0.195739,-0.19622,-54.6636,8,-0.00947257,10,0.0107261,-1.2623,-0.0518835,-1.13716,2341.67,-0.19622,
2,0,0,1,1,9840.14,-0.192535,-0.193035,-47.5162,8,-0.00967594,10,0.0091723,-1.32316,-0.0513505,-1.14897,2148.41,-0.193035,
2,0,0,1,1,9840.14,-0.189339,-0.189768,-41.1608,8,-0.00985249,10,0.00781101,-1.38552,-0.0495613,-1.19044,1912.5,-0.189768,
2,0,0,1,1,9840.14,-0.186137,-0.186559,-35.3947,8,-0.0100049,10,0.00660321,-1.45106,-0.0468587,-1.2591,1729.85,-0.186559,
2,0,0,1,1,9840.15,-0.182935,-0.183374,-30.096,8,-0.0101352,10,0.00551882,-1.52149,-0.0428145,-1.37804,1600.37,-0.183374,
2,0,0,1,1,9840.15,-0.179739,-0.18015,-25.227,8,-0.0102452,10,0.00454465,-1.59813,-0.0385107,-1.53204,1479.24,-0.18015,
2,0,0,1,1,9840.16,-0.176532,-0.176973,-20.6842,8,-0.0103365,10,0.00366056,-1.68436,-0.0337574,-1.74776,1367.52,-0.176973,
2,0,0,1,1,9840.16,-0.173336,-0.173769,-16.4743,8,-0.0104103,10,0.00286271,-1.78319,-0.0279748,-2.10904,1284.04,-0.173769,
2,0,0,1,1,9840.16,-0.17014,-0.170531,-12.5335,8,-0.0104679,10,0.00213735,-1.90193,-0.0217012,-2.71875,1199.47,-0.170531,
2,0,0,1,1,9840.17,-0.166932,-0.16736,-8.80331,8,-0.0105101,10,0.00147332,-2.05535,-0.0140112,-4.21091,1132.11,-0.16736,
2,0,0,1,1,9840.17,-0.163736,-0.164154,-5.30789,8,-0.0105379,10,0.000871312,-2.27508,-0.0118297,-4.98746,1066.22,-0.164154,
2,0,0,1,1,9840.18,-0.160532,-0.161002,-2.02145,8,-0.0105522,10,0.000325458,-2.69434,-0.036921,-1.59801,1001.96,-0.161002,
2,1,0,1,1,9840.18,-0.157336,-0.157792,1.04988,8,-0.0105538,10,-0.000165662,-2.97886,0.119133,0.495244,950.357,-0.1577915,
2,1,0,1,1,9840.18,-0.154139,-0.154607,3.97418,8,-0.0105434,10,-0.000614436,-2.40075,0.0191111,3.08721,895.629,-0.154607,
2,1,0,1,1,9840.19,-0.150935,-0.151426,6.7883,8,-0.0105216,10,-0.00102792,-2.16824,0.0120866,4.88146,851.83,-0.1514259,
2,1,0,1,1,9840.19,-0.147739,-0.148233,9.41522,8,-0.0104889,10,-0.00139565,-2.02617,0.022977,2.56779,807.76,-0.148233,
2,1,0,1,1,9840.2,-0.144532,-0.145043,11.9092,8,-0.0104459,10,-0.00172735,-1.92412,0.0329793,1.789,765.742,-0.145043,
2,1,0,1,1,9840.2,-0.141335,-0.141838,14.2888,8,-0.0103933,10,-0.00202669,-1.845,0.0428874,1.3757,728.259,-0.141838,
2,1,0,1,1,9840.2,-0.138139,-0.13863,16.5867,8,-0.0103313,10,-0.00229941,-1.78024,0.0528991,1.11533,694.945,-0.13863,
2,1,0,1,1,9840.21,-0.134932,-0.135369,18.7834,8,-0.0102603,10,-0.00254269,-1.72623,0.0632354,0.933022,663.551,-0.135369,
2,1,0,1,1,9840.21,-0.131736,-0.132174,20.8525,8,-0.0101808,10,-0.00275616,-1.68084,0.0746581,0.790269,628.212,-0.132174,
2,1,0,1,1,9840.22,-0.12854,-0.12898,22.8204,8,-0.0100932,10,-0.00294338,-1.64168,0.0865103,0.681999,595.965,-0.12898,
2,1,0,1,1,9840.22,-0.125333,-0.125736,24.6865,8,-0.00999795,10,-0.003104,-1.60754,0.0991018,0.595347,564.703,-0.125736,
2,1,0,1,1,9840.22,-0.122136,-0.122533,26.4333,8,-0.0098955,10,-0.00323896,-1.57785,0.112696,0.523532,533.396,-0.122533,
2,1,0,1,1,9840.23,-0.118932,-0.119308,28.1179,8,-0.00978623,10,-0.0033547,-1.55102,0.125889,0.468665,508.739,-0.119308,
2,1,0,1,1,9840.23,-0.115736,-0.116095,29.6932,8,-0.00967042,10,-0.00344724,-1.52734,0.14013,0.421038,483.365,-0.116095,
2,1,0,1,1,9840.24,-0.11254,-0.112942,31.1958,8,-0.00954848,10,-0.0035233,-1.5059,0.156042,0.378102,456.64,-0.1129416,
2,1,0,1,1,9840.24,-0.109335,-0.109742,32.6159,8,-0.00942068,10,-0.00357934,-1.48657,0.171764,0.343494,434.176,-0.109742,
2,1,0,1,1,9840.24,-0.106139,-0.106521,33.9572,8,-0.00928738,10,-0.00361715,-1.46907,0.189111,0.311986,411.047,-0.106521,
2,1,0,1,1,9840.25,-0.102932,-0.103317,35.241,8,-0.00914885,10,-0.00364101,-1.45295,0.207888,0.283807,388.164,-0.103317,
2,1,0,1,1,9840.25,-0.0997357,-0.100136,36.4594,8,-0.00900531,10,-0.00365091,-1.43819,0.226509,0.260475,368.662,-0.100136,
2,1,0,1,1,9840.26,-0.0965395,-0.096922,37.5923,8,-0.00885705,10,-0.00364352,-1.4249,0.247707,0.238184,347.847,-0.09692204,
2,1,0,1,1,9840.26,-0.0933323,-0.0937186,38.6769,8,-0.00870437,10,-0.00362474,-1.41255,0.270661,0.217985,327.742,-0.0937186,
2,1,0,1,1,9840.26,-0.0901362,-0.090532,39.6884,8,-0.00854751,10,-0.00359307,-1.40134,0.292505,0.201706,311.383,-0.09053202,
2,1,0,1,1,9840.27,-0.0869345,-0.0872978,40.6671,8,-0.00838671,10,-0.00355015,-1.39076,0.318102,0.185475,293.35,-0.08729779,
2,1,0,1,1,9840.27,-0.0837328,-0.0840932,41.5869,8,-0.00822207,10,-0.00349718,-1.38104,0.344985,0.171022,276.572,-0.0840932,
2,1,0,1,1,9840.28,-0.0805366,-0.080912,42.4337,8,-0.00805393,10,-0.00343339,-1.37229,0.374777,0.157427,259.934,-0.080912,
2,1,0,1,1,9840.28,-0.0773322,-0.0777011,43.2371,8,-0.0078825,10,-0.00335957,-1.36414,0.406884,0.145004,244.049,-0.0777011,
2,1,0,1,1,9840.28,-0.074136,-0.0745061,43.9921,8,-0.00770797,10,-0.00327768,-1.35663,0.438243,0.134629,230.606,-0.0745061,
2,1,0,1,1,9840.29,-0.0709371,-0.0713323,44.7012,8,-0.0075305,10,-0.00318864,-1.34968,0.475181,0.124163,216.137,-0.0713323,
2,1,0,1,1,9840.29,-0.0677354,-0.0681352,45.3801,8,-0.00735023,10,-0.00309198,-1.34313,0.513649,0.114865,202.986,-0.0681352,
2,1,0,1,1,9840.3,-0.0645393,-0.0649221,45.9991,8,-0.00716739,10,-0.00298636,-1.33725,0.558794,0.105585,189.146,-0.0649221,
2,1,0,1,1,9840.3,-0.0613321,-0.0616826,46.5951,8,-0.00698217,10,-0.00287411,-1.33166,0.608385,0.096978,175.981,-0.0616826,
2,1,0,1,1,9840.3,-0.0581359,-0.0585205,47.1246,8,-0.00679465,10,-0.00275775,-1.32675,0.652903,0.0903656,165.94,-0.0585205,
2,1,0,1,1,9840.31,-0.0549398,-0.0553329,47.6331,8,-0.00660508,10,-0.00263567,-1.32209,0.71018,0.0830775,154.235,-0.0553329,
2,1,0,1,1,9840.31,-0.0517325,-0.0521273,48.1222,8,-0.00641348,10,-0.00250848,-1.31765,0.770435,0.0765801,143.568,-0.0521273,
2,1,0,1,1,9840.32,-0.0485364,-0.0489482,48.5592,8,-0.00622006,10,-0.00237688,-1.31373,0.843988,0.0699062,132.258,-0.0489482,
2,1,0,1,1,9840.32,-0.0453347,-0.0457256,48.9615,8,-0.00602497,10,-0.00223879,-1.31015,0.936448,0.063004,120.213,-0.0457256,
2,1,0,1,1,9840.32,-0.042133,-0.042486,49.3322,8,-0.00582834,10,-0.00209593,-1.30687,1.01459,0.0581515,111.826,-0.042486,
2,1,0,1,1,9840.33,-0.0389369,-0.0392857,49.666,8,-0.00563031,10,-0.00195116,-1.30394,1.13397,0.0520295,100.728,-0.0392857,
2,1,0,1,1,9840.33,-0.0357324,-0.0361003,49.9959,8,-0.00543098,10,-0.00180487,-1.30107,1.27012,0.0464524,90.4814,-0.0361003,
2,1,0,1,1,9840.34,-0.0325363,-0.032865,50.2569,8,-0.00523043,10,-0.00165169,-1.2988,1.42929,0.0412792,80.8406,-0.032865,
2,1,0,1,1,9840.34,-0.0293374,-0.0296636,50.4923,8,-0.00502891,10,-0.00149778,-1.29677,1.66305,0.0354769,69.8371,-0.0296636,
2,1,0,1,1,9840.34,-0.0261357,-0.0265142,50.6984,8,-0.00482645,10,-0.00134423,-1.29501,1.88338,0.0313266,61.9257,-0.0265142,
2,1,0,1,1,9840.35,-0.0229395,-0.0233404,50.887,8,-0.00462326,10,-0.00118772,-1.29339,2.18974,0.0269438,53.4531,-0.0233404,
2,1,0,1,1,9840.35,-0.0197323,-0.0200818,51.0485,8,-0.00441936,10,-0.00102514,-1.29202,2.73977,0.0215347,42.8387,-0.0200818,
2,1,0,1,1,9840.36,-0.0165361,-0.016873,51.176,8,-0.00421488,10,-0.000863492,-1.29093,3.38613,0.017424,34.7553,-0.016873,
2,1,0,1,1,9840.36,-0.01334,-0.0137045,51.2472,8,-0.00401001,10,-0.000702316,-1.29033,4.73481,0.0124609,24.9025,-0.01370448,
2,1,0,1,1,9840.36,-0.0101328,-0.0104681,51.3344,8,-0.00380483,10,-0.000537375,-1.28959,7.17039,0.00822829,16.4676,-0.0104681,
2,1,0,1,1,9840.37,-0.00693663,-0.00734522,51.3657,8,-0.00359942,10,-0.000377292,-1.28933,12.8025,0.00460848,9.22741,-0.00734522,
2,1,0,1,1,9840.37,-0.00373494,-0.00410355,51.3863,8,-0.0033939,10,-0.000210867,-1.28915, , , ,-0.00410355,
2,1,0,1,1,9840.38,-0.000774628,-0.00118584,51.3627,8,-0.00320379,10,-6.09081e-05,-1.28935, , , ,-0.00118584,
2,1,0,0,1,9840.38,-0.000125413,-0.000592546,51.3683,8,-0.0031627,10,-3.04381e-05,-1.2893, , , ,-0.000592546,