File: Figure_codes/Fig_3-5/rawdata_trumpetplot_data/before 10th/20221101_1-115_002_TrumpetPlot_ParaChange_15_CV_C01_2.csv
mode,ox/red,error,control changes,counter inc.,time/s,control/V,Ewe/V,<I>/mA,cycle number,(Q-Qo)/C,I Range,P/W,log(|I|),Tafel slope mV/dec,alpha_eff,dI/d(E-IR),E-IR/V,
2,1,0,0,0,3680.98,2.44065e-05,-0.00099338,33.2331,3,0.0000000E+000,10,-3.30131e-05,-1.47843, , , ,-0.00099338,
2,1,0,1,0,3680.99,0.00250197,0.00211573,33.0165,3,0.000102891,10,6.98541e-05,-1.48127, , , ,0.00211573,
2,1,0,1,0,3680.99,0.00570921,0.00535845,33.5004,3,0.000235866,10,0.00017951,-1.47495, , , ,0.00535845,
2,1,0,1,0,3681,0.00890534,0.00857891,34.1794,3,0.000371258,10,0.000293222,-1.46624,0.399533,0.147672,197.486,0.00857891,
2,1,0,1,0,3681,0.0121015,0.0117898,34.8781,3,0.000509449,10,0.000411206,-1.45745,0.388215,0.151978,206.459,0.0117898,
2,1,0,1,0,3681,0.0153059,0.014935,35.5481,3,0.000650387,10,0.000530911,-1.44918,0.414841,0.142223,196.625,0.014935,
2,1,0,1,0,3681.01,0.0185021,0.0181968,36.151,3,0.000793883,10,0.000657832,-1.44188,0.467583,0.126181,177.288,0.0181968,
2,1,0,1,0,3681.01,0.0217065,0.021396,36.6996,3,0.000939644,10,0.000785226,-1.43534,0.539041,0.109454,156.084,0.021396,
2,1,0,1,0,3681.02,0.0249027,0.0246006,37.1493,3,0.00108742,10,0.000913894,-1.43005,0.620293,0.0951163,137.427,0.0246006,
2,1,0,1,0,3681.02,0.0280988,0.0277574,37.5495,3,0.00123686,10,0.00104228,-1.4254,0.72984,0.0808396,118.148,0.0277574,
2,1,0,1,0,3681.02,0.0313061,0.0309641,37.9056,3,0.00138785,10,0.00117371,-1.4213,0.844343,0.0698768,103.097,0.03096409,
2,1,0,1,0,3681.03,0.0345022,0.0341665,38.2084,3,0.00154012,10,0.00130545,-1.41784,0.993101,0.0594099,88.3702,0.0341665,
2,1,0,1,0,3681.03,0.0377094,0.0373986,38.4687,3,0.0016935,10,0.00143868,-1.41489,1.17182,0.0503491,75.4286,0.0373986,
2,1,0,1,0,3681.04,0.0409056,0.0405947,38.684,3,0.00184784,10,0.00157036,-1.41247,1.31807,0.0447624,67.4999,0.0405947,
2,1,0,1,0,3681.04,0.0441017,0.0437759,38.8719,3,0.002003,10,0.00170165,-1.41036,1.48963,0.0396071,60.054,0.0437759,
2,1,0,1,0,3681.04,0.0473089,0.046972,39.0728,3,0.00215891,10,0.00183533,-1.40813,1.59179,0.0370651,56.4781,0.046972,
2,1,0,1,0,3681.05,0.0505051,0.0501808,39.2363,3,0.00231556,10,0.00196891,-1.40631,1.63139,0.0361655,55.3643,0.0501808,
2,1,0,1,0,3681.05,0.0537012,0.0533747,39.4057,3,0.00247283,10,0.00210327,-1.40444,1.69633,0.034781,53.5012,0.0533747,
2,1,0,1,0,3681.06,0.0569057,0.0565973,39.5818,3,0.00263086,10,0.00224022,-1.4025,1.57547,0.037449,57.8832,0.0565973,
2,1,0,1,0,3681.06,0.0601018,0.0597881,39.7585,3,0.00278954,10,0.00237708,-1.40057,1.42434,0.0414228,64.3671,0.0597881,
2,1,0,1,0,3681.06,0.0633063,0.0629534,39.9757,3,0.00294904,10,0.0025166,-1.3982,1.31165,0.0449814,70.2698,0.0629534,
2,1,0,1,0,3681.07,0.0665024,0.066176,40.2297,3,0.00310945,10,0.00266224,-1.39545,1.14574,0.0514953,80.9356,0.066176,
2,1,0,1,0,3681.07,0.0696986,0.0693657,40.479,3,0.00327089,10,0.00280785,-1.39277,1.03652,0.0569214,90.0821,0.06936565,
2,1,0,1,0,3681.08,0.0729058,0.0725437,40.7908,3,0.00343349,10,0.00295912,-1.38944,0.901571,0.0654413,104.439,0.0725437,
2,1,0,1,0,3681.08,0.0761019,0.0757832,41.1314,3,0.00359739,10,0.00311707,-1.38583,0.781569,0.0754892,121.532,0.07578323,
2,1,0,1,0,3681.08,0.0793092,0.0789432,41.5631,3,0.00376279,10,0.00328113,-1.38129,0.696304,0.0847331,137.781,0.0789432,
2,1,0,1,0,3681.09,0.0825053,0.0821595,42.0339,3,0.00393003,10,0.00345348,-1.3764,0.62348,0.0946301,155.536,0.0821595,
2,1,0,1,0,3681.09,0.0857014,0.0853258,42.552,3,0.00409925,10,0.00363078,-1.37108,0.581591,0.101446,168.795,0.0853258,
2,1,0,1,0,3681.1,0.0889087,0.0885325,43.1144,3,0.00427064,10,0.00381702,-1.36538,0.540994,0.109058,183.861,0.0885325,
2,1,0,1,0,3681.1,0.0921048,0.0917455,43.7241,3,0.00444435,10,0.00401149,-1.35928,0.51164,0.115316,197.132,0.0917455,
2,1,0,1,0,3681.1,0.0953065,0.0949416,44.384,3,0.00462061,10,0.00421389,-1.35277,0.490133,0.120375,208.747,0.0949416,
2,1,0,1,0,3681.11,0.0985054,0.098144,45.0789,3,0.0047996,10,0.00442422,-1.34603,0.452062,0.130513,230.088,0.098144,
2,1,0,1,0,3681.11,0.101702,0.101306,45.7808,3,0.00498138,10,0.00463788,-1.33932,0.42752,0.138005,247.461,0.101306,
2,1,0,1,0,3681.12,0.104906,0.104475,46.6529,3,0.00516632,10,0.00487405,-1.33112,0.403512,0.146216,266.838,0.104475,
2,1,0,1,0,3681.12,0.108102,0.107712,47.5442,3,0.0053548,10,0.00512108,-1.3229,0.384611,0.153402,284.919,0.107712,
2,1,0,1,0,3681.12,0.111304,0.110911,48.4857,3,0.00554695,10,0.00537761,-1.31439,0.381982,0.154457,292.418,0.110911,
2,1,0,1,0,3681.13,0.114506,0.114179,49.4487,3,0.00574294,10,0.00564603,-1.30585,0.378508,0.155875,300.873,0.114179,
2,1,0,1,0,3681.13,0.117702,0.117343,50.4157,3,0.00594276,10,0.00591592,-1.29743,0.376251,0.15681,308.709,0.117343,
2,1,0,1,0,3681.14,0.120909,0.120607,51.4238,3,0.00614654,10,0.00620205,-1.28884,0.371948,0.158625,318.541,0.120607,
2,1,0,1,0,3681.14,0.124105,0.123768,52.4545,3,0.00635439,10,0.00649218,-1.28022,0.365562,0.161395,330.707,0.123768,
2,1,0,1,0,3681.14,0.127301,0.126948,53.5159,3,0.00656645,10,0.00679373,-1.27152,0.36063,0.163603,342.051,0.126948,
2,1,0,1,0,3681.15,0.130508,0.130141,54.6481,3,0.00678287,10,0.00711195,-1.26242,0.358189,0.164718,351.47,0.130141,
2,1,0,1,0,3681.15,0.133705,0.133339,55.7789,3,0.00700384,10,0.0074375,-1.25353,0.354107,0.166616,362.892,0.1333389,
2,1,0,1,0,3681.16,0.136906,0.136575,56.956,3,0.00722941,10,0.00777878,-1.24446,0.351258,0.167968,373.712,0.136575,
2,1,0,1,0,3681.16,0.140105,0.139758,58.1645,3,0.00745978,10,0.00812893,-1.23534,0.344674,0.171176,389.098,0.139758,
2,1,0,1,0,3681.16,0.143301,0.142958,59.4381,3,0.00769508,10,0.00849714,-1.22594,0.337204,0.174968,406.377,0.142958,
2,1,0,1,0,3681.17,0.146506,0.146194,60.7809,3,0.00793563,10,0.00888581,-1.21623,0.332675,0.17735,420.956,0.1461942,
2,1,0,1,0,3681.17,0.149702,0.149341,62.1439,3,0.0081816,10,0.00928067,-1.2066,0.326913,0.180476,438.091,0.149341,
2,1,0,1,0,3681.18,0.152904,0.15256,63.5537,3,0.00843313,10,0.00969574,-1.19686,0.322458,0.18297,454.419,0.15256,
2,1,0,1,0,3681.18,0.156105,0.155753,65.0434,3,0.00869047,10,0.0101307,-1.1868,0.317413,0.185877,472.457,0.155753,
2,1,0,1,0,3681.18,0.159301,0.158962,66.5826,3,0.00895389,10,0.0105841,-1.17664,0.312777,0.188633,490.619,0.1589615,
2,1,0,1,0,3681.19,0.162509,0.162176,68.2075,3,0.00922359,10,0.0110616,-1.16617,0.310629,0.189937,505.749,0.1621756,
2,1,0,1,0,3681.19,0.165705,0.16536,69.8337,3,0.00949984,10,0.0115477,-1.15594,0.310014,0.190314,518.797,0.16536,
2,1,0,1,0,3681.2,0.168901,0.168548,71.5144,3,0.00978269,10,0.0120536,-1.14561,0.310143,0.190235,531.061,0.168548,
2,1,0,1,0,3681.2,0.172108,0.171758,73.2216,3,0.0100723,10,0.0125764,-1.13536,0.313557,0.188164,537.703,0.171758,
2,1,0,1,0,3681.2,0.175304,0.17489,74.9595,3,0.0103689,10,0.0131097,-1.12517,0.31746,0.18585,543.553,0.17489,
2,1,0,1,0,3681.21,0.178506,0.178164,76.7187,3,0.0106724,10,0.0136685,-1.1151,0.32473,0.181689,543.458,0.178164,
2,1,0,1,0,3681.21,0.181705,0.181351,78.4736,3,0.010983,10,0.0142313,-1.10528,0.336452,0.175359,536.281,0.181351,
2,1,0,1,0,3681.22,0.184901,0.184543,80.1693,3,0.0113004,10,0.0147947,-1.09599,0.347187,0.169937,530.935,0.184543,
2,1,0,1,0,3681.22,0.188105,0.187764,81.8638,3,0.0116247,10,0.0153711,-1.08691,0.364581,0.161829,516.13,0.187764,
2,1,0,1,0,3681.22,0.191302,0.190913,83.4871,3,0.0119556,10,0.0159387,-1.07838,0.386971,0.152466,495.656,0.190913,
2,1,0,1,0,3681.23,0.194503,0.194109,85.0583,3,0.0122928,10,0.0165106,-1.07028,0.421581,0.139949,463.134,0.194109,
2,1,0,1,0,3681.23,0.197705,0.197337,86.5107,3,0.0126362,10,0.0170717,-1.06293,0.469461,0.125676,422.678,0.197337,
2,1,0,1,0,3681.24,0.200901,0.200573,87.796,3,0.012985,10,0.0176095,-1.05653,0.542909,0.108674,370.747,0.200573,
2,1,0,1,0,3681.24,0.204108,0.203777,88.9248,3,0.0133386,10,0.0181209,-1.05098,0.66792,0.0883339,304.926,0.203777,
2,1,0,1,0,3681.24,0.207305,0.206942,89.8161,3,0.0136962,10,0.0185867,-1.04665,0.910019,0.0648338,225.792,0.206942,
2,1,0,1,0,3681.25,0.210501,0.210159,90.4206,3,0.0140568,10,0.0190027,-1.04373,1.66277,0.035483,124.245,0.210159,
2,1,0,1,0,3681.25,0.213708,0.213403,90.6928,3,0.0144192,10,0.0193541,-1.04243,25.0575,0.00235459,8.25829,0.213403,
2,1,0,1,0,3681.26,0.216904,0.21664,90.523,3,0.0147818,10,0.0196109,-1.04324,-1.64848,-0.0357904,-125.166,0.2166402,
2,1,0,1,0,3681.26,0.220106,0.219829,89.9225,3,0.0151427,10,0.0197676,-1.04613,-0.749944,-0.0786726,-273.033,0.219829,
2,1,0,1,0,3681.26,0.223305,0.223075,88.8039,3,0.0155002,10,0.0198099,-1.05157,-0.471338,-0.125175,-428.643,0.223075,
2,1,0,1,0,3681.27,0.226501,0.226262,87.1818,3,0.0158522,10,0.0197259,-1.05957,-0.335496,-0.175859,-590.755,0.226262,
2,1,0,1,0,3681.27,0.229705,0.229476,85.0208,3,0.0161965,10,0.0195103,-1.07047,-0.257329,-0.229278,-750.815,0.229476,
2,1,0,1,0,3681.28,0.232901,0.232665,82.3395,3,0.0165311,10,0.0191575,-1.08439,-0.208989,-0.282312,-895.705,0.232665,
2,1,0,1,0,3681.28,0.236103,0.235871,79.1966,3,0.016854,10,0.0186801,-1.10129,-0.175757,-0.335691,-1025.18,0.235871,
2,1,0,1,0,3681.28,0.239305,0.239101,75.6824,3,0.0171635,10,0.0180957,-1.12101,-0.152516,-0.386844,-1130.03,0.239101,
2,1,0,1,0,3681.29,0.242501,0.242321,71.8527,3,0.0174583,10,0.0174114,-1.14356,-0.135026,-0.436954,-1213.14,0.242321,
2,1,0,1,0,3681.29,0.245708,0.245506,67.8293,3,0.0177372,10,0.0166525,-1.16858,-0.122357,-0.482195,-1265.75,0.245506,
2,1,0,1,0,3681.3,0.248904,0.248687,63.6488,3,0.0179998,10,0.0158286,-1.19621,-0.113448,-0.52006,-1284.75,0.248687,
2,1,0,1,0,3681.3,0.2521,0.251894,59.4886,3,0.0182457,10,0.0149848,-1.22557,-0.108033,-0.546129,-1265.1,0.251894,
2,1,0,1,0,3681.3,0.255308,0.255085,55.454,3,0.0184751,10,0.0141455,-1.25607,-0.104858,-0.562668,-1218.52,0.255085,
2,1,0,1,0,3681.31,0.258504,0.258318,51.6197,3,0.0186888,10,0.0133343,-1.28718,-0.103845,-0.568155,-1148.3,0.258318,
2,1,0,1,0,3681.31,0.261708,0.261479,48.0607,3,0.0188877,10,0.0125669,-1.31821,-0.104574,-0.564195,-1064.37,0.261479,
2,1,0,1,0,3681.32,0.264904,0.264702,44.7816,3,0.019073,10,0.0118538,-1.3489,-0.107873,-0.546938,-964.73,0.264702,
2,1,0,1,0,3681.32,0.268101,0.267857,41.8604,3,0.0192459,10,0.0112126,-1.3782,-0.114234,-0.516483,-854.01,0.267857,
2,1,0,1,0,3681.32,0.271305,0.271058,39.3294,3,0.0194079,10,0.0106605,-1.40528,-0.123583,-0.477412,-742.55,0.271058,
2,1,0,1,0,3681.33,0.274501,0.274262,37.1445,3,0.0195606,10,0.0101873,-1.4301,-0.136358,-0.432684,-635.627,0.274262,
2,1,0,1,0,3681.33,0.277708,0.277469,35.3013,3,0.0197052,10,0.00979502,-1.45221,-0.151734,-0.388839,-542.535,0.277469,
2,1,0,1,0,3681.34,0.280905,0.28067,33.7162,3,0.019843,10,0.00946311,-1.47216,-0.17327,-0.340508,-453.87,0.28067,
2,1,0,1,0,3681.34,0.284101,0.283835,32.3975,3,0.019975,10,0.00919554,-1.48949,-0.198374,-0.297418,-380.832,0.283835,
2,1,0,1,0,3681.34,0.287308,0.287077,31.3282,3,0.0201023,10,0.0089936,-1.50406,-0.23152,-0.254838,-314.945,0.287077,
2,1,0,1,0,3681.35,0.290504,0.290239,30.4383,3,0.0202257,10,0.00883436,-1.51658,-0.275058,-0.2145,-257.167,0.290239,
2,1,0,1,0,3681.35,0.2937,0.293414,29.7025,3,0.0203459,10,0.00871513,-1.52721,-0.319264,-0.1848,-216.247,0.293414,
2,1,0,1,0,3681.36,0.296907,0.29665,29.1019,3,0.0204634,10,0.00863307,-1.53608,-0.351945,-0.16764,-193.062,0.29665,
2,1,0,1,0,3681.36,0.29955,0.299331,28.6782,3,0.0205587,10,0.00858428,-1.54245,-0.0789139,-0.74765,-800.222,0.299331,
2,1,0,1,0,3681.36,0.300012,0.299766,28.599,3,0.0205759,10,0.008573,-1.54365,0.00351263,16.7965,14234.5,0.299766,
2,1,0,1,0,3681.36,0.298983,0.298956,25.2671,3,0.0206096,10,0.00755377,-1.59744,0.0128785,4.58128,2952.67,0.298956,
2,1,0,1,0,3681.36,0.295787,0.295708,15.6983,3,0.0206899,10,0.00464211,-1.80415,0.0103341,5.70928,2452.45,0.295708,
2,1,0,1,0,3681.37,0.292579,0.292464,8.4,3,0.0207368,10,0.00245669,-2.07572,0.0110647,5.33229,2087.39,0.292464,
2,1,0,1,0,3681.37,0.289383,0.289215,2.72551,3,0.0207581,10,0.000788259,-2.56455,0.0271207,2.17546,1616.5,0.289215,
2,0,0,1,0,3681.38,0.286187,0.28603,-1.71516,3,0.0207594,10,-0.000490588,-2.76569,0.557737,0.105785,1269.43,0.28603,
2,0,0,1,0,3681.38,0.282983,0.282762,-5.2298,3,0.020745,10,-0.00147879,-2.28151,-0.0224461,-2.62852,1004.58,0.282762,
2,0,0,1,0,3681.38,0.279786,0.279572,-7.96463,3,0.0207181,10,-0.00222669,-2.09883,-0.0153184,-3.85158,790.404,0.279572,
2,0,0,1,0,3681.39,0.276582,0.276389,-10.16,3,0.0206815,10,-0.0028081,-1.99311,-0.031522,-1.87171,632.277,0.276389,
2,0,0,1,0,3681.39,0.273386,0.273143,-11.9012,3,0.0206371,10,-0.00325073,-1.92441,-0.0492564,-1.19781,509.795,0.273143,
2,0,0,1,0,3681.4,0.27019,0.269957,-13.3257,3,0.0205865,10,-0.00359738,-1.87531,-0.0706877,-0.834657,411.263,0.269957,
2,0,0,1,0,3681.4,0.266982,0.266765,-14.4939,3,0.0205306,10,-0.00386646,-1.83882,-0.0945264,-0.624164,340.067,0.266765,
2,0,0,1,0,3681.4,0.263786,0.2635,-15.4608,3,0.0204706,10,-0.00407392,-1.81077,-0.123272,-0.478615,281.224,0.2635,
2,0,0,1,0,3681.41,0.260585,0.26037,-16.2447,3,0.020407,10,-0.00422965,-1.78929,-0.156001,-0.378203,235.53,0.26037,
2,0,0,1,0,3681.41,0.257383,0.257144,-16.9293,3,0.0203406,10,-0.00435327,-1.77136,-0.189913,-0.310669,202.78,0.2571435,
2,0,0,1,0,3681.42,0.254187,0.253934,-17.516,3,0.0202716,10,-0.00444789,-1.75657,-0.227213,-0.259668,175.831,0.253934,
2,0,0,1,0,3681.42,0.25098,0.250702,-18.056,3,0.0202004,10,-0.00452667,-1.74338,-0.265986,-0.221817,155.011,0.250702,
2,0,0,1,0,3681.42,0.247783,0.247513,-18.5055,3,0.0201272,10,-0.00458035,-1.7327,-0.302784,-0.194858,139.91,0.247513,
2,0,0,1,0,3681.43,0.244587,0.244301,-18.9201,3,0.0200523,10,-0.00462219,-1.72308,-0.340324,-0.173364,127.595,0.2443009,
2,0,0,1,0,3681.43,0.241383,0.24112,-19.3088,3,0.0199758,10,-0.00465572,-1.71425,-0.37239,-0.158436,119.085,0.2411197,
2,0,0,1,0,3681.44,0.238187,0.237937,-19.6847,3,0.0198978,10,-0.00468372,-1.70587,-0.397517,-0.148421,113.755,0.237937,
2,0,0,1,0,3681.44,0.234982,0.234684,-20.0332,3,0.0198183,10,-0.00470147,-1.69825,-0.424695,-0.138923,108.406,0.234684,
2,0,0,1,0,3681.44,0.231786,0.23151,-20.3751,3,0.0197374,10,-0.00471704,-1.6909,-0.446285,-0.132202,105.012,0.23151,
2,0,0,1,0,3681.45,0.22859,0.228316,-20.6967,3,0.0196552,10,-0.0047254,-1.6841,-0.458371,-0.128717,103.926,0.228316,
2,0,0,1,0,3681.45,0.225383,0.225059,-21.0371,3,0.0195717,10,-0.00473458,-1.67701,-0.461081,-0.12796,105.068,0.225059,
2,0,0,1,0,3681.46,0.222187,0.22194,-21.3576,3,0.0194869,10,-0.00474011,-1.67045,-0.464097,-0.127128,106.009,0.2219401,
2,0,0,1,0,3681.46,0.218979,0.21873,-21.7178,3,0.0194007,10,-0.00475035,-1.66318,-0.46565,-0.126705,107.372,0.21873,
2,0,0,1,0,3681.46,0.215783,0.215544,-22.0507,3,0.0193131,10,-0.0047529,-1.65658,-0.46097,-0.127991,110.18,0.215544,
2,0,0,1,0,3681.47,0.212587,0.212319,-22.405,3,0.0192242,10,-0.004757,-1.64966,-0.452854,-0.130285,114.107,0.212319,
2,0,0,1,0,3681.47,0.20938,0.209094,-22.773,3,0.0191338,10,-0.0047617,-1.64258,-0.440118,-0.134055,119.33,0.209094,
2,0,0,1,0,3681.48,0.206184,0.205904,-23.1815,3,0.0190419,10,-0.00477314,-1.63486,-0.422029,-0.139801,126.61,0.205904,
2,0,0,1,0,3681.48,0.202988,0.202695,-23.584,3,0.0189483,10,-0.00478035,-1.62738,-0.407962,-0.144621,133.266,0.202695,
2,0,0,1,0,3681.48,0.199783,0.19952,-24.0255,3,0.018853,10,-0.00479356,-1.61933,-0.393983,-0.149753,140.67,0.19952,
2,0,0,1,0,3681.49,0.196587,0.196357,-24.4705,3,0.018756,10,-0.00480494,-1.61136,-0.375328,-0.157196,150.512,0.196357,
2,0,0,1,0,3681.49,0.193382,0.193121,-24.9795,3,0.0186571,10,-0.00482408,-1.60242,-0.356996,-0.165268,161.511,0.193121,
2,0,0,1,0,3681.5,0.190186,0.189905,-25.509,3,0.018556,10,-0.00484429,-1.59331,-0.336317,-0.17543,175.118,0.189905,
2,0,0,1,0,3681.5,0.18699,0.186771,-26.0846,3,0.0184528,10,-0.00487184,-1.58362,-0.319585,-0.184615,188.521,0.186771,
2,0,0,1,0,3681.5,0.183783,0.183522,-26.7181,3,0.0183471,10,-0.00490336,-1.57319,-0.300718,-0.196197,205.216,0.183522,
2,0,0,1,0,3681.51,0.180587,0.180342,-27.3886,3,0.0182388,10,-0.00493933,-1.56243,-0.28422,-0.207585,222.703,0.180342,
2,0,0,1,0,3681.51,0.17738,0.177102,-28.1364,3,0.0181277,10,-0.00498301,-1.55073,-0.26937,-0.21903,241.35,0.177102,
2,0,0,1,0,3681.52,0.174183,0.173932,-28.9438,3,0.0180135,10,-0.00503425,-1.53845,-0.252523,-0.233643,264.924,0.173932,
2,0,0,1,0,3681.52,0.170987,0.170722,-29.8072,3,0.0178959,10,-0.00508876,-1.52568,-0.239749,-0.246091,287.484,0.170722,
2,0,0,1,0,3681.52,0.16778,0.16752,-30.7856,3,0.0177747,10,-0.0051572,-1.51165,-0.22718,-0.259706,313.24,0.16752,
2,0,0,1,0,3681.53,0.164584,0.164341,-31.805,3,0.0176494,10,-0.00522686,-1.4975,-0.215418,-0.273886,341.422,0.164341,
2,0,0,1,0,3681.53,0.161382,0.161132,-32.9533,3,0.0175198,10,-0.00530983,-1.4821,-0.20607,-0.286311,369.789,0.161132,
2,0,0,1,0,3681.54,0.158183,0.157928,-34.1756,3,0.0173855,10,-0.00539728,-1.46628,-0.19663,-0.300056,401.808,0.157928,
2,0,0,1,0,3681.54,0.154987,0.154729,-35.5154,3,0.017246,10,-0.00549528,-1.44958,-0.189138,-0.311941,433.987,0.154729,
2,0,0,1,0,3681.54,0.151783,0.15154,-36.9486,3,0.0171009,10,-0.00559918,-1.4324,-0.183136,-0.322165,466.104,0.15154,
2,0,0,1,0,3681.55,0.148587,0.148382,-38.4867,3,0.0169499,10,-0.00571073,-1.41469,-0.177876,-0.331691,499.891,0.148382,
2,0,0,1,0,3681.55,0.145385,0.14516,-40.1265,3,0.0167925,10,-0.00582478,-1.39657,-0.173216,-0.340615,535.269,0.14516,
2,0,0,1,0,3681.56,0.142183,0.14197,-41.894,3,0.0166283,10,-0.00594767,-1.37785,-0.170494,-0.346053,567.481,0.14197,
2,0,0,1,0,3681.56,0.138987,0.138782,-43.7774,3,0.0164568,10,-0.00607552,-1.35875,-0.167678,-0.351864,602.246,0.138782,
2,0,0,1,0,3681.56,0.13578,0.135564,-45.7608,3,0.0162776,10,-0.0062035,-1.33951,-0.16714,-0.352998,630.921,0.135564,
2,0,0,1,0,3681.57,0.132584,0.1324,-47.8111,3,0.0160902,10,-0.00633021,-1.32047,-0.168373,-0.350412,654.126,0.1324,
2,0,0,1,0,3681.57,0.129388,0.129223,-49.9357,3,0.0158945,10,-0.00645287,-1.30159,-0.170641,-0.345755,673.697,0.129223,
2,0,0,1,0,3681.58,0.12618,0.126014,-52.1296,3,0.0156902,10,-0.00656903,-1.28292,-0.177122,-0.333103,676.147,0.126014,
2,0,0,1,0,3681.58,0.122984,0.122832,-54.3378,3,0.015477,10,-0.00667445,-1.2649,-0.180358,-0.327126,692.231,0.1228324,
2,0,0,1,0,3681.58,0.119782,0.119623,-56.4509,3,0.0152552,10,-0.0067528,-1.24833,-0.1867,-0.316016,696.287,0.119623,
2,0,0,1,0,3681.59,0.116584,0.116496,-58.7458,3,0.0150247,10,-0.00684367,-1.23102,-0.192844,-0.305947,700.977,0.116496,
2,0,0,1,0,3681.59,0.113387,0.11325,-61.017,3,0.0147849,10,-0.00691015,-1.21455,-0.198104,-0.297824,707.44,0.1132495,
2,0,0,1,0,3681.6,0.110183,0.11004,-63.3052,3,0.014536,10,-0.00696609,-1.19856,-0.209416,-0.281735,693.712,0.11004,
2,0,0,1,0,3681.6,0.106987,0.106827,-65.5032,3,0.0142781,10,-0.00699749,-1.18374,-0.22076,-0.267259,680.895,0.106827,
2,0,0,1,0,3681.6,0.103785,0.103665,-67.6475,3,0.0140116,10,-0.00701264,-1.16975,-0.232895,-0.253333,666.972,0.1036645,
2,0,0,1,0,3681.61,0.100583,0.100441,-69.7384,3,0.0137366,10,-0.00700458,-1.15653,-0.246878,-0.238984,648.923,0.100441,
2,0,0,1,0,3681.61,0.0973873,0.0973116,-71.7945,3,0.0134533,10,-0.00698644,-1.14391,-0.261659,-0.225484,630.233,0.0973116,
2,0,0,1,0,3681.62,0.0941801,0.094019,-73.8144,3,0.0131619,10,-0.00693996,-1.13186,-0.281316,-0.209729,602.064,0.09401904,
2,0,0,1,0,3681.62,0.0909839,0.090823,-75.7406,3,0.0128626,10,-0.00687899,-1.12067,-0.304986,-0.193452,569.412,0.090823,
2,0,0,1,0,3681.62,0.0877878,0.0875304,-77.5113,3,0.0125558,10,-0.0067846,-1.11064,-0.334251,-0.176514,531.721,0.0875304,
2,0,0,1,0,3681.63,0.0845806,0.084364,-79.167,3,0.0122422,10,-0.00667885,-1.10146,-0.373425,-0.157997,486.101,0.084364,
2,0,0,1,0,3681.63,0.0813844,0.0811457,-80.6594,3,0.0119224,10,-0.00654516,-1.09335,-0.418344,-0.141032,441.982,0.0811457,
2,0,0,1,0,3681.64,0.0781828,0.0779242,-82.0107,3,0.0115969,10,-0.00639062,-1.08613,-0.487587,-0.121004,385.407,0.0779242,
2,0,0,1,0,3681.64,0.0749839,0.0747557,-83.1575,3,0.0112664,10,-0.0062165,-1.0801,-0.580613,-0.101617,328.125,0.0747557,
2,0,0,1,0,3681.64,0.0717877,0.0715448,-84.1076,3,0.0109317,10,-0.00601746,-1.07516,-0.729234,-0.0809068,264.247,0.0715448,
2,0,0,1,0,3681.65,0.0685832,0.0683614,-84.8542,3,0.0105936,10,-0.00580076,-1.07133,-0.993655,-0.0593767,195.599,0.0683614,
2,0,0,1,0,3681.65,0.0653871,0.0651463,-85.3872,3,0.010253,10,-0.00556266,-1.06861,-1.54536,-0.0381787,126.527,0.06514629,
2,0,0,1,0,3681.66,0.0621854,0.0619004,-85.672,3,0.0099108,10,-0.00530313,-1.06716,-3.79402,-0.0155508,51.6992,0.0619004,
2,0,0,1,0,3681.66,0.0589837,0.0586937,-85.7336,3,0.00956791,10,-0.00503203,-1.06685,9.63958,0.0061206,-20.365,0.0586937,
2,0,0,1,0,3681.66,0.0557876,0.0555093,-85.5187,3,0.00922533,10,-0.00474708,-1.06794,2.10866,0.0279798,-92.9018,0.0555093,
2,0,0,1,0,3681.67,0.0525804,0.0522931,-85.1255,3,0.00888403,10,-0.00445148,-1.06994,1.21306,0.0486373,-160.78,0.0522931,
2,0,0,1,0,3681.67,0.0493842,0.0491363,-84.4862,3,0.00854481,10,-0.00415134,-1.07321,0.88231,0.0668699,-219.492,0.0491363,
2,0,0,1,0,3681.68,0.0461881,0.0459211,-83.6801,3,0.00820851,10,-0.00384268,-1.07738,0.695741,0.0848017,-275.866,0.0459211,
2,0,0,1,0,3681.68,0.0429808,0.0427038,-82.708,3,0.00787577,10,-0.00353195,-1.08245,0.599132,0.0984758,-316.793,0.0427038,
2,0,0,1,0,3681.68,0.0397847,0.0395438,-81.6084,3,0.00754722,10,-0.00322711,-1.08827,0.530132,0.111293,-353.49,0.0395438,
2,0,0,1,0,3681.69,0.036583,0.0362576,-80.4063,3,0.0072233,10,-0.00291534,-1.09471,0.481553,0.12252,-383.627,0.0362576,
2,0,0,1,0,3681.69,0.0333841,0.0330563,-79.1325,3,0.00690434,10,-0.00261582,-1.10165,0.454262,0.129881,-400.486,0.0330563,
2,0,0,1,0,3681.7,0.030188,0.0299164,-77.8024,3,0.00659058,10,-0.00232757,-1.10901,0.42451,0.138984,-421.427,0.0299164,
2,0,0,1,0,3681.7,0.0269835,0.0267034,-76.466,3,0.00628215,10,-0.0020419,-1.11653,0.407496,0.144787,-431.406,0.0267034,
2,0,0,1,0,3681.7,0.0237874,0.0235381,-75.0459,3,0.00597924,10,-0.00176644,-1.12467,0.392228,0.150423,-440.006,0.0235381,
2,0,0,1,0,3681.71,0.0205857,0.0202975,-73.6282,3,0.00568202,10,-0.00149447,-1.13296,0.375145,0.157272,-451.386,0.02029746,
2,0,0,1,0,3681.71,0.017384,0.0171194,-72.1716,3,0.00539054,10,-0.00123554,-1.14163,0.362327,0.162836,-457.97,0.0171194,
2,0,0,1,0,3681.72,0.0141879,0.0139128,-70.6925,3,0.00510496,10,-0.000983527,-1.15063,0.344321,0.171352,-471.853,0.0139128,
2,0,0,1,0,3681.72,0.0109806,0.0106934,-69.1634,3,0.00482537,10,-0.00073959,-1.16012,0.327131,0.180356,-485.745,0.01069336,
2,0,0,1,0,3681.72,0.00778448,0.00747291,-67.5769,3,0.00455204,10,-0.000504996,-1.1702,0.318027,0.185519,-488.68,0.00747291,
2,0,0,1,0,3681.73,0.00458834,0.00429593,-65.9427,3,0.00428514,10,-0.000283285,-1.18083,0.30163,0.195604,-502.939,0.00429593,
2,0,0,1,0,3681.73,0.0013811,0.00102776,-64.3958,3,0.00402467,10,-6.61831e-05,-1.19114,0.291043,0.202719,-508.413,0.00102776,
2,0,0,1,0,3681.74,-0.00181504,-0.0021418,-62.7081,3,0.00377062,10,0.000134308,-1.20268,0.282589,0.208784,-510.149,-0.0021418,
2,0,0,1,0,3681.74,-0.0050195,-0.00534847,-61.0584,3,0.00352328,10,0.000326569,-1.21425,0.270944,0.217757,-518.759,-0.00534847,
2,0,0,1,0,3681.74,-0.00821564,-0.00854984,-59.3894,3,0.00328255,10,0.00050777,-1.22629,0.27389,0.215415,-499.855,-0.00854984,
2,0,0,1,0,3681.75,-0.0114118,-0.0116738,-57.8068,3,0.00304834,10,0.000674825,-1.23802,0.279617,0.211003,-477.215,-0.0116738,
2,0,0,1,0,3681.75,-0.0146162,-0.0149208,-56.3205,3,0.00282024,10,0.000840345,-1.24933,0.292816,0.201492,-444.281,-0.0149208,
2,0,0,1,0,3681.76,-0.0178124,-0.0181465,-54.951,3,0.00259787,10,0.000997169,-1.26002,0.313297,0.18832,-405.415,-0.0181465,
2,0,0,1,0,3681.76,-0.0210196,-0.021349,-53.703,3,0.00238072,10,0.0011465,-1.27,0.338981,0.174051,-366.395,-0.021349,
2,0,0,1,0,3681.76,-0.0242158,-0.0245185,-52.5993,3,0.00216825,10,0.00128966,-1.27902,0.376907,0.156537,-322.923,-0.0245185,
2,0,0,1,0,3681.77,-0.0274119,-0.0277305,-51.6271,3,0.00195993,10,0.00143164,-1.28712,0.426706,0.138269,-280.028,-0.02773048,
2,0,0,1,0,3681.77,-0.0306191,-0.0309372,-50.8206,3,0.00175516,10,0.00157224,-1.29396,0.499484,0.118122,-235.456,-0.0309372,
2,0,0,1,0,3681.78,-0.0338153,-0.0341247,-50.1254,3,0.00155335,10,0.00171052,-1.29994,0.586699,0.100563,-197.621,-0.0341247,
2,0,0,1,0,3681.78,-0.037017,-0.0373335,-49.582,3,0.00135404,10,0.00185107,-1.30468,0.70887,0.083231,-161.697,-0.0373335,
2,0,0,1,0,3681.78,-0.0402187,-0.0405084,-49.1019,3,0.00115672,10,0.00198904,-1.3089,0.889199,0.0663519,-127.668,-0.0405084,
2,0,0,1,0,3681.79,-0.0434148,-0.0437225,-48.7532,3,0.000961073,10,0.00213161,-1.312,1.14698,0.0514395,-98.2677,-0.0437225,
2,0,0,1,0,3681.79,-0.0466193,-0.0469504,-48.488,3,0.000766645,10,0.00227653,-1.31437,1.57328,0.0375012,-71.1944,-0.0469504,
2,0,0,1,0,3681.8,-0.0498154,-0.0501464,-48.3229,3,0.000573079,10,0.00242322,-1.31585,2.37708,0.0248204,-46.934,-0.0501464,
2,0,0,1,0,3681.8,-0.0530115,-0.0533064,-48.1908,3,0.000380091,10,0.00256888,-1.31704,4.06064,0.0145297,-27.3956,-0.0533064,
2,0,0,1,0,3681.8,-0.056216,-0.0565152,-48.1528,3,0.000187399,10,0.00272137,-1.31738,14.2171,0.00414994,-7.81822,-0.0565152,
2,0,0,1,0,3681.81,-0.0594121,-0.0597452,-48.1375,3,-5.16965e-06,10,0.00287598,-1.31752,-11.2657,-0.00523713,9.86255,-0.05974523,
2,0,0,1,0,3681.81,-0.0626194,-0.0629455,-48.2228,3,-0.000197867,10,0.00303541,-1.31675,-4.77543,-0.0123549,23.29,-0.06294553,
2,0,0,1,0,3681.82,-0.0658155,-0.0661077,-48.317,3,-0.000390963,10,0.00319412,-1.3159,-2.88881,-0.0204237,38.5648,-0.0661077,
2,0,0,1,0,3681.82,-0.0690117,-0.0693462,-48.4516,3,-0.00058451,10,0.00335993,-1.31469,-2.34151,-0.0251974,47.7204,-0.0693462,
2,0,0,1,0,3681.82,-0.0722189,-0.0725104,-48.6298,3,-0.000778714,10,0.00352616,-1.3131,-1.94407,-0.0303486,57.6655,-0.0725104,
2,0,0,1,0,3681.83,-0.075415,-0.0757266,-48.8327,3,-0.000973645,10,0.00369794,-1.31129,-1.60336,-0.0367977,70.2226,-0.0757266,
2,0,0,1,0,3681.83,-0.0786167,-0.0789725,-49.0589,3,-0.00116945,10,0.0038743,-1.30928,-1.47967,-0.0398737,76.4368,-0.0789725,
2,0,0,1,0,3681.84,-0.0818184,-0.0821039,-49.3475,3,-0.0013663,10,0.00405162,-1.30673,-1.31689,-0.0448026,86.3488,-0.0821039,
2,0,0,1,0,3681.84,-0.0850146,-0.0853636,-49.6122,3,-0.00156425,10,0.00423508,-1.30441,-1.23607,-0.0477321,92.4846,-0.0853636,
2,0,0,1,0,3681.84,-0.088219,-0.0885501,-49.94,3,-0.00176335,10,0.00442219,-1.30155,-1.18176,-0.0499254,97.3602,-0.0885501,
2,0,0,1,0,3681.85,-0.0914152,-0.0917472,-50.2403,3,-0.00196373,10,0.00460941,-1.29895,-1.08528,-0.0543639,106.696,-0.0917472,
2,0,0,1,0,3681.85,-0.0946141,-0.0949147,-50.5948,3,-0.00216542,10,0.00480219,-1.29589,-1.04889,-0.05625,111.186,-0.09491469,
2,0,0,1,0,3681.86,-0.0978158,-0.0981076,-50.9719,3,-0.00236862,10,0.00500073,-1.29267,-0.989467,-0.0596281,118.672,-0.0981076,
2,0,0,1,0,3681.86,-0.101012,-0.101352,-51.3635,3,-0.00257333,10,0.00520581,-1.28935,-0.958777,-0.0615368,123.397,-0.101352,
2,0,0,1,0,3681.86,-0.104219,-0.10454,-51.7585,3,-0.00277961,10,0.00541083,-1.28602,-0.928282,-0.0635582,128.463,-0.10454,
2,0,0,1,0,3681.87,-0.107415,-0.107728,-52.1758,3,-0.00298754,10,0.00562078,-1.28253,-0.874176,-0.0674921,137.589,-0.107728,
2,0,0,1,0,3681.87,-0.110611,-0.110908,-52.6163,3,-0.00319719,10,0.00583555,-1.27888,-0.846719,-0.0696808,143.228,-0.110908,
2,0,0,1,0,3681.88,-0.113819,-0.114104,-53.1179,3,-0.00340873,10,0.00606096,-1.27476,-0.819264,-0.0720159,149.318,-0.114104,
2,0,0,1,0,3681.88,-0.117015,-0.117321,-53.5891,3,-0.00362219,10,0.00628713,-1.27092,-0.794274,-0.0742817,155.402,-0.117321,
2,0,0,1,0,3681.88,-0.120216,-0.120551,-54.0906,3,-0.00383759,10,0.00652068,-1.26688,-0.786466,-0.0750191,158.48,-0.120551,
2,0,0,1,0,3681.89,-0.123418,-0.123723,-54.6078,3,-0.00405504,10,0.00675623,-1.26275,-0.750451,-0.0786194,167.694,-0.123723,
2,0,0,1,0,3681.89,-0.126614,-0.126959,-55.1552,3,-0.0042746,10,0.00700246,-1.25841,-0.72968,-0.0808574,174.17,-0.126959,
2,0,0,1,0,3681.9,-0.129819,-0.130109,-55.7335,3,-0.00449645,10,0.0072514,-1.25388,-0.720919,-0.0818399,178.031,-0.130109,
2,0,0,1,0,3681.9,-0.133015,-0.133304,-56.3117,3,-0.00472058,10,0.00750655,-1.2494,-0.7032,-0.0839021,184.433,-0.133304,
2,0,0,1,0,3681.9,-0.136214,-0.136529,-56.8877,3,-0.00494705,10,0.00776684,-1.24498,-0.698762,-0.0844351,187.581,-0.1365293,
2,0,0,1,0,3681.91,-0.139416,-0.139734,-57.5113,3,-0.00517591,10,0.00803628,-1.24025,-0.68336,-0.0863381,193.896,-0.139734,
2,0,0,1,0,3681.91,-0.142612,-0.142901,-58.1331,3,-0.00540727,10,0.0083073,-1.23558,-0.674551,-0.0874656,198.489,-0.142901,
2,0,0,1,0,3681.92,-0.145819,-0.14611,-58.7949,3,-0.00564117,10,0.00859052,-1.23066,-0.672491,-0.0877335,201.288,-0.14611,
2,0,0,1,0,3681.92,-0.149015,-0.149321,-59.4268,3,-0.0058777,10,0.00887366,-1.22602,-0.669632,-0.0881081,204.362,-0.149321,
2,0,0,1,0,3681.92,-0.152211,-0.152513,-60.0836,3,-0.0061168,10,0.00916351,-1.22124,-0.674516,-0.0874701,205.164,-0.1525128,
2,0,0,1,0,3681.93,-0.155418,-0.155708,-60.7503,3,-0.00635856,10,0.0094593,-1.21645,-0.663136,-0.0889712,210.998,-0.155708,
2,0,0,1,0,3681.93,-0.158615,-0.158931,-61.4253,3,-0.00660297,10,0.00976242,-1.21165,-0.654758,-0.0901096,216.1,-0.158931,
2,0,0,1,0,3681.94,-0.161816,-0.162117,-62.1267,3,-0.00685016,10,0.0100718,-1.20672,-0.662273,-0.0890872,215.98,-0.162117,
2,0,0,1,0,3681.94,-0.165018,-0.165253,-62.8366,3,-0.00710015,10,0.0103839,-1.20179,-0.657437,-0.0897424,220.011,-0.165253,
2,0,0,1,0,3681.94,-0.168214,-0.16849,-63.511,3,-0.00735293,10,0.010701,-1.19715,-0.665579,-0.0886447,219.755,-0.16849,
2,0,0,1,0,3681.95,-0.171419,-0.171684,-64.231,3,-0.00760849,10,0.0110274,-1.19226,-0.664224,-0.0888255,222.756,-0.171684,
2,0,0,1,0,3681.95,-0.174615,-0.174908,-64.9375,3,-0.00786691,10,0.0113581,-1.1875,-0.653777,-0.0902448,228.806,-0.174908,
2,0,0,1,0,3681.96,-0.177814,-0.178112,-65.7012,3,-0.00812825,10,0.0117022,-1.18243,-0.658564,-0.0895889,229.699,-0.1781121,
2,0,0,1,0,3681.96,-0.181015,-0.181298,-66.4414,3,-0.00839264,10,0.0120457,-1.17756,-0.647809,-0.0910763,236.13,-0.181298,
2,0,0,1,0,3681.96,-0.184211,-0.184538,-67.1836,3,-0.00865998,10,0.0123979,-1.17274,-0.650108,-0.0907542,238.046,-0.184538,
2,0,0,1,0,3681.97,-0.187419,-0.187668,-67.9507,3,-0.00893032,10,0.0127522,-1.16781,-0.644506,-0.091543,242.88,-0.187668,
2,0,0,1,0,3681.97,-0.190615,-0.19088,-68.7406,3,-0.00920378,10,0.0131212,-1.16279,-0.629883,-0.0936681,251.402,-0.19088,
2,0,0,1,0,3681.98,-0.193811,-0.194092,-69.5491,3,-0.00948047,10,0.0134989,-1.15771,-0.63417,-0.093035,252.271,-0.194092,
2,0,0,1,0,3681.98,-0.197018,-0.197275,-70.3856,3,-0.00976045,10,0.0138853,-1.15252,-0.65126,-0.0905936,247.174,-0.197275,
2,0,0,1,0,3681.98,-0.199647,-0.199879,-71.0309,3,-0.00999382,10,0.0141976,-1.14855,0.438849,0.134443,-359.863,-0.199879,
2,0,0,1,0,3681.98,-0.200134,-0.200399,-71.0933,3,-0.0100365,10,0.014247,-1.14817,-0.013286,-4.44075,11122.3,-0.200399,
2,0,0,1,1,3681.99,-0.198935,-0.199419,-67.6323,3,-0.0101395,10,0.0134871,-1.16985,-0.0456163,-1.2934,3029.21,-0.199419,
2,0,0,1,1,3681.99,-0.195739,-0.196192,-58.3435,3,-0.0103901,10,0.0114465,-1.23401,-0.0483494,-1.22028,2656.97,-0.196192,
2,0,0,1,1,3681.99,-0.192535,-0.193,-50.1951,3,-0.0106061,10,0.00968767,-1.29934,-0.0472484,-1.24872,2449.36,-0.193,
2,0,0,1,1,3682,-0.189339,-0.189772,-42.8595,3,-0.0107913,10,0.00813355,-1.36795,-0.0442953,-1.33197,2213.39,-0.189772,
2,0,0,1,1,3682,-0.186137,-0.186567,-36.1528,3,-0.0109485,10,0.00674491,-1.44186,-0.0406271,-1.45223,2020.83,-0.186567,
2,0,0,1,1,3682.01,-0.182935,-0.183363,-29.9483,3,-0.0110799,10,0.00549142,-1.52363,-0.0360792,-1.63529,1868.47,-0.183363,
2,0,0,1,1,3682.01,-0.179739,-0.180155,-24.2382,3,-0.0111876,10,0.00436665,-1.6155,-0.0310928,-1.89754,1729.13,-0.1801555,
2,0,0,1,1,3682.01,-0.176532,-0.17696,-18.921,3,-0.0112733,10,0.00334827,-1.72306,-0.0255404,-2.31007,1598.33,-0.1769605,
2,0,0,1,1,3682.02,-0.173336,-0.173754,-13.9977,3,-0.0113385,10,0.00243215,-1.85394,-0.018774,-3.14265,1501.94,-0.173754,
2,0,0,1,1,3682.02,-0.17014,-0.170504,-9.39451,3,-0.0113848,10,0.0016018,-2.02713,-0.0101722,-5.80012,1395.87,-0.170504,
2,0,0,1,1,3682.03,-0.166932,-0.167389,-5.06412,3,-0.0114132,10,0.000847679,-2.2955,-0.0179346,-3.28974,1313.37,-0.167389,
2,0,0,1,1,3682.03,-0.163736,-0.164152,-1.04175,3,-0.0114249,10,0.000171004,-2.98224,-0.0721919,-0.817266,1233.37,-0.164152,
2,1,0,1,1,3682.03,-0.160532,-0.161018,2.72865,3,-0.0114211,10,-0.000439363,-2.56405,0.0459747,1.28332,1147.18,-0.161018,
2,1,0,1,1,3682.04,-0.157336,-0.157806,6.26601,3,-0.0114027,10,-0.000988817,-2.20301,0.0117146,5.03646,1081.68,-0.157806,
2,1,0,1,1,3682.04,-0.154139,-0.154598,9.6103,3,-0.0113706,10,-0.00148573,-2.01726,0.0168425,3.50304,1011.8,-0.154598,
2,1,0,1,1,3682.05,-0.150935,-0.151415,12.7351,3,-0.0113255,10,-0.00192829,-1.895,0.0272794,2.16281,953.447,-0.151415,
2,1,0,1,1,3682.05,-0.147739,-0.148237,15.6606,3,-0.0112684,10,-0.00232148,-1.80519,0.0373841,1.57821,900.254,-0.148237,
2,1,0,1,1,3682.05,-0.144532,-0.144988,18.4875,3,-0.0111998,10,-0.00268047,-1.73312,0.047892,1.23194,846.601,-0.144988,
2,1,0,1,1,3682.06,-0.141335,-0.141816,21.1165,3,-0.0111202,10,-0.00299467,-1.67538,0.0587278,1.00464,798.786,-0.141816,
2,1,0,1,1,3682.06,-0.138139,-0.138593,23.5906,3,-0.0110305,10,-0.00326948,-1.62726,0.0707127,0.834362,747.696,-0.138593,
2,1,0,1,1,3682.07,-0.134932,-0.135359,25.9478,3,-0.0109312,10,-0.00351226,-1.5859,0.0833064,0.708229,700.656,-0.135359,
2,1,0,1,1,3682.07,-0.131736,-0.132124,28.1057,3,-0.0108228,10,-0.00371345,-1.55121,0.0972793,0.606501,652.876,-0.132124,
2,1,0,1,1,3682.07,-0.12854,-0.128976,30.1133,3,-0.0107061,10,-0.00388389,-1.52124,0.112406,0.524881,607.937,-0.128976,
2,1,0,1,1,3682.08,-0.125333,-0.12571,32.0015,3,-0.0105816,10,-0.00402291,-1.49483,0.128251,0.460036,567.512,-0.12571,
2,1,0,1,1,3682.08,-0.122136,-0.122526,33.7495,3,-0.0104499,10,-0.00413518,-1.47173,0.145445,0.405651,528.645,-0.122526,
2,1,0,1,1,3682.09,-0.118932,-0.119283,35.3934,3,-0.0103115,10,-0.00422183,-1.45108,0.164173,0.359377,491.772,-0.119283,
2,1,0,1,1,3682.09,-0.115736,-0.116136,36.9013,3,-0.0101667,10,-0.00428556,-1.43296,0.183826,0.320956,458.564,-0.116136,
2,1,0,1,1,3682.09,-0.11254,-0.112874,38.314,3,-0.0100161,10,-0.00432464,-1.41664,0.205345,0.287321,426.641,-0.112874,
2,1,0,1,1,3682.1,-0.109335,-0.109711,39.626,3,-0.00986003,10,-0.00434739,-1.40202,0.229162,0.257459,395.682,-0.109711,
2,1,0,1,1,3682.1,-0.106139,-0.106536,40.8319,3,-0.00969897,10,-0.00435005,-1.389,0.255032,0.231344,366.682,-0.106536,
2,1,0,1,1,3682.11,-0.102932,-0.103333,41.967,3,-0.00953323,10,-0.00433658,-1.37709,0.284813,0.207154,337.503,-0.103333,
2,1,0,1,1,3682.11,-0.0997357,-0.100086,43.0029,3,-0.00936316,10,-0.004304,-1.3665,0.316779,0.18625,311.081,-0.100086,
2,1,0,1,1,3682.11,-0.0965395,-0.0969242,43.9415,3,-0.00918914,10,-0.00425899,-1.35713,0.356009,0.165726,283.048,-0.0969242,
2,1,0,1,1,3682.12,-0.0933323,-0.0937016,44.8243,3,-0.00901151,10,-0.00420011,-1.34849,0.39147,0.150714,262.706,-0.0937016,
2,1,0,1,1,3682.12,-0.0901362,-0.0904652,45.6092,3,-0.00883053,10,-0.00412605,-1.34095,0.433976,0.135952,241.251,-0.0904652,
2,1,0,1,1,3682.13,-0.0869345,-0.087284,46.3662,3,-0.00864651,10,-0.00404702,-1.3338,0.482666,0.122238,220.484,-0.087284,
2,1,0,1,1,3682.13,-0.0837328,-0.0841123,47.0323,3,-0.00845961,10,-0.003956,-1.3276,0.532673,0.110762,202.713,-0.0841123,
2,1,0,1,1,3682.13,-0.0805366,-0.0809332,47.6396,3,-0.00827017,10,-0.00385562,-1.32203,0.601292,0.098122,181.987,-0.0809332,
2,1,0,1,1,3682.14,-0.0773322,-0.0776629,48.2044,3,-0.00807842,10,-0.0037437,-1.31691,0.666069,0.0885795,166.241,-0.07766293,
2,1,0,1,1,3682.14,-0.074136,-0.0744584,48.7003,3,-0.00788456,10,-0.00362614,-1.31247,0.74071,0.0796534,151.096,-0.0744584,
2,1,0,1,1,3682.15,-0.0709371,-0.07131,49.1606,3,-0.00768877,10,-0.00350564,-1.30838,0.828447,0.0712176,136.388,-0.07131,
2,1,0,1,1,3682.15,-0.0677354,-0.0680609,49.5845,3,-0.00749121,10,-0.00337477,-1.30465,0.909082,0.0649006,125.364,-0.0680609,
2,1,0,1,1,3682.15,-0.0645393,-0.0648808,49.9478,3,-0.00729207,10,-0.00324065,-1.30148,1.03335,0.0570958,111.122,-0.0648808,
2,1,0,1,1,3682.16,-0.0613321,-0.0617102,50.2984,3,-0.00709155,10,-0.00310392,-1.29845,1.16103,0.0508172,99.5926,-0.0617102,
2,1,0,1,1,3682.16,-0.0581359,-0.0584971,50.5844,3,-0.00688971,10,-0.00295904,-1.29598,1.29044,0.0457209,90.1527,-0.0584971,
2,1,0,1,1,3682.17,-0.0549398,-0.0553,50.8554,3,-0.00668679,10,-0.0028123,-1.29366,1.4894,0.0396131,78.5343,-0.0553,
2,1,0,1,1,3682.17,-0.0517325,-0.0520414,51.1053,3,-0.00648281,10,-0.00265959,-1.29153,1.6791,0.0351379,69.9811,-0.0520414,
2,1,0,1,1,3682.17,-0.0485364,-0.0489163,51.3032,3,-0.00627794,10,-0.00250956,-1.28986,1.97395,0.0298894,59.7679,-0.0489163,
2,1,0,1,1,3682.18,-0.0453347,-0.0456726,51.4819,3,-0.00607236,10,-0.00235131,-1.28835,2.36263,0.0249722,50.1176,-0.0456726,
2,1,0,1,1,3682.18,-0.042133,-0.042485,51.6213,3,-0.00586613,10,-0.00219313,-1.28717,2.76929,0.0213051,42.885,-0.04248498,
2,1,0,1,1,3682.19,-0.0389369,-0.0392751,51.7451,3,-0.00565938,10,-0.00203229,-1.28613,3.45642,0.0170697,34.4423,-0.0392751,
2,1,0,1,1,3682.19,-0.0357324,-0.036113,51.8523,3,-0.00545219,10,-0.00187254,-1.28523,4.38676,0.0134495,27.1868,-0.036113,
2,1,0,1,1,3682.19,-0.0325363,-0.0328957,51.9219,3,-0.0052446,10,-0.00170801,-1.28465,6.49933,0.00907785,18.3739,-0.0328957,
2,1,0,1,1,3682.2,-0.0293374,-0.0297103,51.9686,3,-0.00503683,10,-0.001544,-1.28426,11.7895,0.00500446,10.1399,-0.0297103,
2,1,0,1,1,3682.2,-0.0261357,-0.0264824,51.9801,3,-0.00482889,10,-0.00137656,-1.28416,31.5377,0.00187078,3.79262,-0.0264824,
2,1,0,1,1,3682.21,-0.0229395,-0.0232853,51.9823,3,-0.00462095,10,-0.00121042,-1.28414,-36.0857,-0.001635,-3.3147,-0.0232853,
2,1,0,1,1,3682.21,-0.0197323,-0.0201125,51.9704,3,-0.00441303,10,-0.00104526,-1.28424,-11.7258,-0.00503165,-10.1945,-0.0201125,
2,1,0,1,1,3682.21,-0.0165361,-0.0169302,51.9263,3,-0.00420521,10,-0.000879124,-1.28461,-7.51761,-0.00784824,-15.8906,-0.0169302,
2,1,0,1,1,3682.22,-0.01334,-0.013696,51.8498,3,-0.00399764,10,-0.000710134,-1.28525,-5.14832,-0.01146,-23.1771,-0.013696,
2,1,0,1,1,3682.22,-0.0101328,-0.0104904,51.779,3,-0.00379037,10,-0.000543182,-1.28585,-4.17344,-0.014137,-28.5475,-0.0104904,
2,1,0,1,1,3682.23,-0.00693663,-0.00726038,51.6725,3,-0.00358347,10,-0.000375162,-1.28674,-3.4327,-0.0171876,-34.6335,-0.00726038,
2,1,0,1,1,3682.23,-0.00373494,-0.00406114,51.5589,3,-0.00337704,10,-0.000209388,-1.2877, , , ,-0.00406114,
2,1,0,1,1,3682.23,-0.000774628,-0.00112858,51.4145,3,-0.00318652,10,-5.80255e-05,-1.28891, , , ,-0.00112858,
2,1,0,0,1,3682.23,-0.000125413,-0.000439847,51.3944,3,-0.00314539,10,-2.26057e-05,-1.28908, , , ,-0.000439847,