File: Figure_codes/Fig_3-5/rawdata_trumpetplot_data/before 10th/20221101_1-115_002_TrumpetPlot_ParaChange_12_CV_C01_5.csv
mode,ox/red,error,control changes,counter inc.,time/s,control/V,Ewe/V,<I>/mA,cycle number,(Q-Qo)/C,I Range,P/W,log(|I|),Tafel slope mV/dec,alpha_eff,dI/d(E-IR),E-IR/V,
2,1,0,0,0,7368.23,2.44065e-05,-0.000344411,7.74988,6,0.0000000E+000,10,-2.66914e-06,-2.11071, , , ,-0.000344411,
2,1,0,1,0,7368.24,0.00179726,0.00145059,7.6619,6,6.61119e-05,10,1.11143e-05,-2.11566, , , ,0.00145059,
2,1,0,1,0,7368.25,0.00379485,0.00346749,8.28449,6,0.000146193,10,2.87263e-05,-2.08173,0.0707568,0.833842,266.73,0.00346749,
2,1,0,1,0,7368.26,0.00579244,0.00554959,8.75523,6,0.000231553,10,4.8588e-05,-2.05773,0.0940328,0.627441,213.159,0.00554959,
2,1,0,1,0,7368.27,0.00779002,0.00747821,9.13941,6,0.000321186,10,6.83464e-05,-2.03908,0.119098,0.495392,175.925,0.00747821,
2,1,0,1,0,7368.28,0.00977853,0.00951332,9.45255,6,0.000413317,10,8.99251e-05,-2.02445,0.160606,0.367359,134.849,0.00951332,
2,1,0,1,0,7368.29,0.0117761,0.0114663,9.6772,6,0.000509095,10,0.000110962,-2.01425,0.22074,0.267283,100.654,0.0114663,
2,1,0,1,0,7368.3,0.0137737,0.0134488,9.84866,6,0.000606728,10,0.000132453,-2.00662,0.28473,0.207214,79.5428,0.0134488,
2,1,0,1,0,7368.31,0.0157713,0.0154807,9.99651,6,0.000706022,10,0.000154753,-2.00015,0.341284,0.172876,67.3545,0.0154807,
2,1,0,1,0,7368.32,0.017778,0.0174597,10.1188,6,0.000806609,10,0.000176672,-1.99487,0.463157,0.127387,50.1911,0.0174597,
2,1,0,1,0,7368.33,0.0197755,0.0194483,10.1956,6,0.00090822,10,0.000198288,-1.99159,0.602226,0.0979699,38.9838,0.0194483,
2,1,0,1,0,7368.34,0.0217731,0.0214273,10.2735,6,0.00101054,10,0.000220133,-1.98828,0.66498,0.0887245,35.5508,0.0214273,
2,1,0,1,0,7368.35,0.0237707,0.0234696,10.3386,6,0.00111367,10,0.000242643,-1.98554,0.726642,0.0811955,32.7661,0.0234696,
2,1,0,1,0,7368.36,0.0257774,0.0255085,10.4072,6,0.00121737,10,0.000265472,-1.98267,0.779006,0.0757375,30.7401,0.0255085,
2,1,0,1,0,7368.37,0.027775,0.0274667,10.4615,6,0.00132176,10,0.000287342,-1.98041,0.90034,0.0655308,26.7509,0.0274667,
2,1,0,1,0,7368.38,0.0297726,0.029457,10.5128,6,0.00142662,10,0.000309676,-1.97828,0.952044,0.061972,25.4256,0.029457,
2,1,0,1,0,7368.39,0.0317701,0.0314976,10.564,6,0.0015321,10,0.000332739,-1.97617,0.781051,0.0755393,31.175,0.0314976,
2,1,0,1,0,7368.4,0.0337587,0.033437,10.6369,6,0.00163701,10,0.000355666,-1.97318,0.673532,0.087598,36.3614,0.033437,
2,1,0,1,0,7368.41,0.0357562,0.0354745,10.7086,6,0.00174379,10,0.000379882,-1.97027,0.761941,0.0774339,32.3378,0.0354745,
2,1,0,1,0,7368.42,0.0377538,0.0373944,10.7649,6,0.00185115,10,0.000402547,-1.96799,0.678857,0.0869107,36.5656,0.0373944,
2,1,0,1,0,7368.43,0.0397514,0.0394129,10.8526,6,0.00195925,10,0.000427732,-1.96447,0.538982,0.109466,46.386,0.0394129,
2,1,0,1,0,7368.44,0.0417399,0.0414152,10.9514,6,0.0020671,10,0.000453554,-1.96053,0.524128,0.112568,48.1008,0.0414152,
2,1,0,1,0,7368.45,0.0437375,0.0434332,11.046,6,0.00217713,10,0.000479762,-1.9568,0.549543,0.107362,46.2761,0.0434332,
2,1,0,1,0,7368.46,0.0457351,0.0454469,11.138,6,0.00228797,10,0.000506187,-1.95319,0.504928,0.116848,50.8362,0.0454469,
2,1,0,1,0,7368.47,0.0477327,0.0474494,11.2501,6,0.00239997,10,0.000533812,-1.94884,0.421156,0.140091,61.5723,0.0474494,
2,1,0,1,0,7368.48,0.0497393,0.0494882,11.3868,6,0.00251305,10,0.000563513,-1.9436,0.407462,0.144799,64.2907,0.0494882,
2,1,0,1,0,7368.49,0.0517369,0.0514039,11.5044,6,0.00262752,10,0.00059137,-1.93914,0.400279,0.147397,66.2466,0.0514039,
2,1,0,1,0,7368.5,0.0537345,0.0534107,11.6467,6,0.00274327,10,0.000622056,-1.9338,0.363141,0.162471,73.8876,0.0534107,
2,1,0,1,0,7368.51,0.0557321,0.0554391,11.8025,6,0.0028606,10,0.000654322,-1.92803,0.345849,0.170595,78.5693,0.0554391,
2,1,0,1,0,7368.52,0.0577297,0.05736,11.957,6,0.00297939,10,0.000685851,-1.92238,0.306691,0.192376,89.9399,0.05736002,
2,1,0,1,0,7368.53,0.0597364,0.0593937,12.1582,6,0.00310016,10,0.00072212,-1.91513,0.302616,0.194967,92.4102,0.0593937,
2,1,0,1,0,7368.54,0.0617339,0.0614499,12.3349,6,0.00322264,10,0.000757978,-1.90886,0.312916,0.188549,90.8112,0.0614499,
2,1,0,1,0,7368.55,0.0637315,0.0634402,12.5257,6,0.003347,10,0.000794631,-1.9022,0.302944,0.194756,95.1832,0.0634402,
2,1,0,1,0,7368.56,0.0657291,0.0654209,12.7129,6,0.00347317,10,0.000831688,-1.89576,0.283874,0.207839,103.257,0.0654209,
2,1,0,1,0,7368.57,0.0677176,0.0674187,12.9365,6,0.00360026,10,0.000872161,-1.88818,0.285606,0.206579,104.156,0.0674187,
2,1,0,1,0,7368.58,0.0697152,0.069403,13.1276,6,0.00373064,10,0.000911097,-1.88181,0.296387,0.199064,102.06,0.06940303,
2,1,0,1,0,7368.59,0.0717128,0.071369,13.3396,6,0.00386301,10,0.000952037,-1.87486,0.276023,0.21375,111.351,0.07136903,
2,1,0,1,0,7368.6,0.0737104,0.0733883,13.5714,6,0.00399756,10,0.000995982,-1.86738,0.257645,0.228998,121.376,0.0733883,
2,1,0,1,0,7368.61,0.0756989,0.0753732,13.8257,6,0.00413326,10,0.00104208,-1.85931,0.263077,0.224269,120.875,0.07537324,
2,1,0,1,0,7368.62,0.0776965,0.0773653,14.0521,6,0.00427261,10,0.00108715,-1.85226,0.273842,0.215452,118.231,0.0773653,
2,1,0,1,0,7368.63,0.0796941,0.0793772,14.2991,6,0.00441445,10,0.00113502,-1.84469,0.280741,0.210158,117.177,0.0793772,
2,1,0,1,0,7368.64,0.0816917,0.0813918,14.5239,6,0.00455855,10,0.00118213,-1.83792,0.28318,0.208348,118.173,0.0813918,
2,1,0,1,0,7368.65,0.0836983,0.083363,14.7701,6,0.00470509,10,0.00123128,-1.83062,0.288205,0.204715,117.885,0.083363,
2,1,0,1,0,7368.66,0.0856959,0.0853359,14.9889,6,0.00485389,10,0.00127909,-1.82423,0.298531,0.197634,115.7,0.0853359,
2,1,0,1,0,7368.67,0.0876935,0.087367,15.2333,6,0.00500507,10,0.00133089,-1.81721,0.318039,0.185512,110.123,0.087367,
2,1,0,1,0,7368.68,0.0896911,0.0893807,15.4343,6,0.00515834,10,0.00137953,-1.81151,0.312541,0.188775,113.914,0.0893807,
2,1,0,1,0,7368.69,0.0916978,0.091404,15.6932,6,0.00531403,10,0.00143442,-1.80429,0.300198,0.196537,120.225,0.091404,
2,1,0,1,0,7368.7,0.0936953,0.0933917,15.9165,6,0.00547208,10,0.00148647,-1.79815,0.327695,0.180046,111.816,0.0933917,
2,1,0,1,0,7368.71,0.0956929,0.0953585,16.1354,6,0.00563242,10,0.00153865,-1.79222,0.339171,0.173954,109.538,0.0953585,
2,1,0,1,0,7368.72,0.0976905,0.0973983,16.3554,6,0.00579487,10,0.00159299,-1.78634,0.322983,0.182672,116.697,0.0973983,
2,1,0,1,0,7368.73,0.099679,0.0993829,16.605,6,0.00595803,10,0.00165025,-1.77976,0.341751,0.172641,111.672,0.0993829,
2,1,0,1,0,7368.74,0.101677,0.101339,16.7954,6,0.00612504,10,0.00170202,-1.77481,0.359603,0.16407,107.684,0.101339,
2,1,0,1,0,7368.75,0.103674,0.103344,17.0316,6,0.00629424,10,0.00176012,-1.76875,0.350427,0.168366,111.844,0.103344,
2,1,0,1,0,7368.76,0.105672,0.105397,17.2493,6,0.00646565,10,0.00181803,-1.76323,0.34142,0.172808,116.42,0.105397,
2,1,0,1,0,7368.77,0.107656,0.107328,17.4954,6,0.00663767,10,0.00187774,-1.75708,0.330649,0.178437,121.789,0.107328,
2,1,0,1,0,7368.78,0.109658,0.109346,17.7303,6,0.00681379,10,0.00193874,-1.75128,0.324937,0.181574,125.745,0.109346,
2,1,0,1,0,7368.79,0.111655,0.111316,17.9968,6,0.00699245,10,0.00200332,-1.74481,0.321167,0.183705,128.973,0.111316,
2,1,0,1,0,7368.8,0.113653,0.113381,18.2507,6,0.00717365,10,0.00206929,-1.73872,0.311522,0.189393,135.003,0.113381,
2,1,0,1,0,7368.81,0.115651,0.115307,18.5356,6,0.00735762,10,0.00213727,-1.73199,0.282553,0.20881,151.14,0.1153065,
2,1,0,1,0,7368.82,0.117657,0.117317,18.8455,6,0.00754458,10,0.0022109,-1.72479,0.274456,0.214971,158.165,0.117317,
2,1,0,1,0,7368.83,0.119655,0.119336,19.1728,6,0.00773475,10,0.002288,-1.71731,0.277852,0.212344,158.844,0.119336,
2,1,0,1,0,7368.84,0.121652,0.121395,19.4932,6,0.00792804,10,0.00236637,-1.71012,0.263447,0.223954,170.542,0.121395,
2,1,0,1,0,7368.85,0.12365,0.123341,19.8558,6,0.00812484,10,0.00244903,-1.70211,0.243969,0.241834,187.489,0.123341,
2,1,0,1,0,7368.86,0.125657,0.125388,20.242,6,0.00832541,10,0.00253811,-1.69375,0.240676,0.245142,193.682,0.1253881,
2,1,0,1,0,7368.87,0.127654,0.12738,20.6382,6,0.00852989,10,0.0026289,-1.68533,0.233452,0.252729,203.592,0.1273801,
2,1,0,1,0,7368.88,0.129652,0.129339,21.0464,6,0.00873838,10,0.00272213,-1.67682,0.222625,0.265019,217.896,0.129339,
2,1,0,1,0,7368.89,0.131649,0.131345,21.5022,6,0.00895119,10,0.00282421,-1.66752,0.227746,0.259061,217.149,0.131345,
2,1,0,1,0,7368.9,0.133638,0.133341,21.9154,6,0.0091662,10,0.00292221,-1.65925,0.230927,0.255491,218.691,0.133341,
2,1,0,1,0,7368.91,0.135636,0.135308,22.3687,6,0.00938771,10,0.00302666,-1.65036,0.233081,0.253131,220.836,0.135308,
2,1,0,1,0,7368.92,0.137633,0.137342,22.799,6,0.0096136,10,0.00313125,-1.64208,0.24064,0.24518,218.209,0.137342,
2,1,0,1,0,7368.93,0.139631,0.139329,23.2464,6,0.00984394,10,0.0032389,-1.63365,0.244693,0.241119,218.609,0.139329,
2,1,0,1,0,7368.94,0.141619,0.141323,23.6691,6,0.0100762,10,0.00334498,-1.62582,0.249386,0.236581,218.649,0.141323,
2,1,0,1,0,7368.95,0.143617,0.143332,24.1215,6,0.0103152,10,0.00345738,-1.6176,0.255332,0.231071,217.328,0.1433319,
2,1,0,1,0,7368.96,0.145614,0.145306,24.5348,6,0.0105586,10,0.00356505,-1.61022,0.266743,0.221186,211.781,0.145306,
2,1,0,1,0,7368.97,0.147612,0.147248,24.9509,6,0.010806,10,0.00367398,-1.60291,0.283972,0.207767,202.221,0.147248,
2,1,0,1,0,7368.98,0.149619,0.149329,25.3484,6,0.0110575,10,0.00378524,-1.59605,0.302104,0.195297,193.115,0.1493288,
2,1,0,1,0,7368.99,0.151616,0.151268,25.7272,6,0.011313,10,0.00389169,-1.58961,0.334399,0.176436,176.966,0.151268,
2,1,0,1,0,7369,0.153614,0.153326,26.0557,6,0.011572,10,0.00399501,-1.5841,0.363946,0.162112,164.863,0.153326,
2,1,0,1,0,7369.01,0.155611,0.155301,26.3921,6,0.0118343,10,0.00409873,-1.57853,0.390691,0.151015,155.388,0.155301,
2,1,0,1,0,7369.02,0.157618,0.157327,26.6775,6,0.0120997,10,0.00419709,-1.57386,0.473399,0.12463,129.632,0.157327,
2,1,0,1,0,7369.03,0.159616,0.159318,26.9129,6,0.0123678,10,0.00428771,-1.57004,0.61375,0.0961304,100.832,0.1593184,
2,1,0,1,0,7369.04,0.161613,0.161285,27.0766,6,0.0126378,10,0.00436705,-1.56741,0.857363,0.0688156,72.6651,0.161285,
2,1,0,1,0,7369.05,0.163611,0.163285,27.2011,6,0.0129093,10,0.00444153,-1.56541,1.87584,0.0314526,33.3188,0.163285,
2,1,0,1,0,7369.06,0.165618,0.165322,27.2111,6,0.0131813,10,0.00449859,-1.56525,-4.09039,-0.0144241,-15.295,0.165322,
2,1,0,1,0,7369.07,0.167597,0.167292,27.1398,6,0.0134505,10,0.00454026,-1.56639,-0.867771,-0.0679903,-71.8253,0.167292,
2,1,0,1,0,7369.08,0.169595,0.16928,26.9268,6,0.0137209,10,0.00455816,-1.56982,-0.446584,-0.132114,-138.493,0.1692798,
2,1,0,1,0,7369.09,0.171592,0.171309,26.5834,6,0.0139885,10,0.00455398,-1.57539,-0.276325,-0.213516,-220.714,0.171309,
2,1,0,1,0,7369.1,0.173572,0.173243,26.0522,6,0.0142491,10,0.00451335,-1.58416,-0.20213,-0.291891,-296.077,0.173243,
2,1,0,1,0,7369.11,0.175578,0.175282,25.4071,6,0.0145066,10,0.00445341,-1.59505,-0.157644,-0.374262,-369.458,0.175282,
2,1,0,1,0,7369.12,0.177576,0.177304,24.5517,6,0.0147564,10,0.00435311,-1.60992,-0.122734,-0.480715,-459.172,0.177304,
2,1,0,1,0,7369.13,0.179573,0.179292,23.5662,6,0.014997,10,0.00422521,-1.62771,-0.102127,-0.577714,-529.418,0.179292,
2,1,0,1,0,7369.14,0.181571,0.181288,22.4425,6,0.0152269,10,0.00406855,-1.64893,-0.0895829,-0.658607,-575.445,0.1812879,
2,1,0,1,0,7369.15,0.183578,0.183317,21.2496,6,0.0154454,10,0.00389542,-1.67265,-0.078342,-0.753108,-622.345,0.183317,
2,1,0,1,0,7369.16,0.185575,0.185285,19.9549,6,0.0156512,10,0.00369735,-1.69995,-0.0708276,-0.833008,-648.005,0.185285,
2,1,0,1,0,7369.17,0.187573,0.187296,18.6713,6,0.0158443,10,0.00349706,-1.72883,-0.0672323,-0.877554,-638.882,0.187296,
2,1,0,1,0,7369.18,0.18957,0.189266,17.4118,6,0.0160245,10,0.00329545,-1.75916,-0.0660156,-0.893728,-607.598,0.189266,
2,1,0,1,0,7369.19,0.191577,0.191321,16.2258,6,0.0161925,10,0.00310434,-1.78979,-0.0653458,-0.902889,-572.393,0.1913209,
2,1,0,1,0,7369.2,0.193575,0.193252,15.1299,6,0.0163491,10,0.00292388,-1.82016,-0.0668379,-0.882732,-522.915,0.193252,
2,1,0,1,0,7369.21,0.195572,0.195237,14.1779,6,0.0164955,10,0.00276805,-1.84839,-0.0718489,-0.821168,-455.043,0.195237,
2,1,0,1,0,7369.22,0.19757,0.197258,13.3071,6,0.0166327,10,0.00262493,-1.87592,-0.0810899,-0.727587,-380.174,0.197258,
2,1,0,1,0,7369.23,0.199558,0.199311,12.629,6,0.0167609,10,0.00251711,-1.89863,-0.0907774,-0.649942,-320.827,0.199311,
2,1,0,1,0,7369.24,0.201556,0.201296,12.0117,6,0.0168839,10,0.0024179,-1.9204,-0.0986405,-0.598131,-281.57,0.201296,
2,1,0,1,0,7369.25,0.203553,0.203277,11.5125,6,0.0170015,10,0.00234023,-1.93883,-0.112611,-0.523926,-235.992,0.203277,
2,1,0,1,0,7369.26,0.205551,0.205228,11.0838,6,0.0171142,10,0.0022747,-1.95531,-0.13792,-0.427783,-186.019,0.2052276,
2,1,0,1,0,7369.27,0.20754,0.207215,10.7798,6,0.0172223,10,0.00223375,-1.96739,-0.165544,-0.356401,-149.931,0.207215,
2,1,0,1,0,7369.28,0.209537,0.209252,10.4804,6,0.0173285,10,0.00219305,-1.97962,-0.17856,-0.330421,-135.468,0.209252,
2,1,0,1,0,7369.29,0.211535,0.211235,10.2353,6,0.017432,10,0.00216206,-1.9899,-0.206132,-0.286224,-114.483,0.211235,
2,1,0,1,0,7369.3,0.213532,0.213269,10.0206,6,0.0175332,10,0.00213707,-1.99911,-0.252967,-0.233232,-91.4929,0.2132687,
2,1,0,1,0,7369.31,0.215539,0.215227,9.87009,6,0.0176326,10,0.00212431,-2.00568,-0.271311,-0.217462,-83.6258,0.215227,
2,1,0,1,0,7369.32,0.217537,0.217241,9.6884,6,0.0177304,10,0.00210471,-2.01375,-0.296641,-0.198894,-75.438,0.2172406,
2,1,0,1,0,7369.33,0.219534,0.219221,9.56875,6,0.0178267,10,0.00209767,-2.01914,-0.355675,-0.165882,-61.9183,0.219221,
2,1,0,1,0,7369.34,0.221532,0.221229,9.44145,6,0.0179217,10,0.00208872,-2.02496,-0.379195,-0.155593,-57.3937,0.221229,
2,1,0,1,0,7369.35,0.223534,0.223283,9.33566,6,0.0180156,10,0.00208449,-2.02985,-0.402302,-0.146656,-53.4184,0.223283,
2,1,0,1,0,7369.36,0.225536,0.225269,9.22566,6,0.0181084,10,0.00207825,-2.035,-0.432942,-0.136277,-49.1284,0.225269,
2,1,0,1,0,7369.37,0.227534,0.227271,9.13972,6,0.0182002,10,0.00207719,-2.03907,-0.417515,-0.141312,-50.3249,0.227271,
2,1,0,1,0,7369.38,0.229531,0.229248,9.02538,6,0.0182911,10,0.00206905,-2.04453,-0.462576,-0.127547,-45.0493,0.229248,
2,1,0,1,0,7369.39,0.231529,0.231235,8.96114,6,0.018381,10,0.00207213,-2.04764,-0.613632,-0.0961488,-33.6189,0.231235,
2,1,0,1,0,7369.4,0.233517,0.233168,8.89359,6,0.0184694,10,0.0020737,-2.05092,-0.578479,-0.101992,-35.3892,0.233168,
2,1,0,1,0,7369.41,0.235515,0.235198,8.8209,6,0.0185579,10,0.00207466,-2.05449,-0.524371,-0.112516,-38.7051,0.235198,
2,1,0,1,0,7369.42,0.237513,0.23725,8.73562,6,0.0186456,10,0.00207252,-2.05871,-0.582084,-0.10136,-34.6156,0.23725,
2,1,0,1,0,7369.43,0.23951,0.239244,8.68083,6,0.0187326,10,0.00207684,-2.06144,-0.638285,-0.0924352,-31.291,0.239244,
2,1,0,1,0,7369.44,0.241499,0.24118,8.61262,6,0.0188183,10,0.0020772,-2.06486,-0.643154,-0.0917353,-30.8581,0.24118,
2,1,0,1,0,7369.45,0.243496,0.243226,8.55795,6,0.0189041,10,0.00208152,-2.06763,-0.661718,-0.0891619,-29.7585,0.243226,
2,1,0,1,0,7369.46,0.245494,0.245244,8.49169,6,0.0189893,10,0.00208254,-2.07101,-0.733199,-0.0804693,-26.708,0.245244,
2,1,0,1,0,7369.47,0.247491,0.247223,8.4512,6,0.019074,10,0.00208933,-2.07308,-0.749781,-0.0786896,-25.9216,0.2472233,
2,1,0,1,0,7369.48,0.249498,0.249168,8.38997,6,0.0191582,10,0.00209052,-2.07624,-0.804445,-0.0733425,-24.0514,0.249168,
2,1,0,1,0,7369.49,0.251496,0.251245,8.35448,6,0.0192419,10,0.00209902,-2.07808,-0.788084,-0.0748651,-24.3683,0.251245,
2,1,0,1,0,7369.5,0.253493,0.253237,8.29083,6,0.0193252,10,0.00209954,-2.0814,-0.722499,-0.081661,-26.4569,0.253237,
2,1,0,1,0,7369.51,0.255491,0.255236,8.24887,6,0.0194079,10,0.00210541,-2.08361,-0.973336,-0.0606163,-19.5218,0.255236,
2,1,0,1,0,7369.52,0.257497,0.257193,8.2136,6,0.0194902,10,0.00211248,-2.08547,-1.17445,-0.0502362,-16.1098,0.257193,
2,1,0,1,0,7369.53,0.259495,0.259198,8.18505,6,0.0195722,10,0.00212155,-2.08698,-0.818175,-0.0721117,-22.9847,0.259198,
2,1,0,1,0,7369.54,0.261493,0.26123,8.12081,6,0.0196538,10,0.0021214,-2.0904,-0.79331,-0.074372,-23.6203,0.26123,
2,1,0,1,0,7369.55,0.26349,0.263182,8.09095,6,0.0197349,10,0.00212939,-2.092,-1.4702,-0.0401307,-12.6794,0.263182,
2,1,0,1,0,7369.56,0.265479,0.265177,8.07077,6,0.0198148,10,0.00214018,-2.09309,-1.32348,-0.0445794,-14.0275,0.265177,
2,1,0,1,0,7369.57,0.267476,0.267203,8.03454,6,0.0198953,10,0.00214686,-2.09504,-0.838054,-0.0704012,-22.0529,0.2672033,
2,1,0,1,0,7369.58,0.269474,0.269192,7.98221,6,0.0199754,10,0.00214875,-2.09788,-1.08803,-0.0542263,-16.9324,0.2691924,
2,1,0,1,0,7369.59,0.271471,0.271158,7.96757,6,0.0200551,10,0.00216047,-2.09867,-1.70297,-0.0346453,-10.7636,0.271158,
2,1,0,1,0,7369.6,0.27346,0.273192,7.93917,6,0.0201338,10,0.00216891,-2.10023,-1.05966,-0.0556784,-17.2377,0.273192,
2,1,0,1,0,7369.61,0.275458,0.27518,7.89824,6,0.020213,10,0.00217344,-2.10247,-0.890309,-0.0662691,-20.4276,0.27518,
2,1,0,1,0,7369.62,0.277455,0.277171,7.85787,6,0.0202917,10,0.00217798,-2.1047,-1.1887,-0.049634,-15.2404,0.277171,
2,1,0,1,0,7369.63,0.279453,0.279169,7.83746,6,0.0203703,10,0.00218797,-2.10582,-1.15388,-0.0511318,-15.6182,0.279169,
2,1,0,1,0,7369.64,0.281455,0.281163,7.79553,6,0.0204484,10,0.00219181,-2.10815,-1.32332,-0.0445849,-13.5903,0.281163,
2,1,0,1,0,7369.65,0.283457,0.283137,7.78353,6,0.0205264,10,0.0022038,-2.10882,-1.39037,-0.0424346,-12.8672,0.283137,
2,1,0,1,0,7369.66,0.285455,0.285183,7.7438,6,0.020604,10,0.0022084,-2.11105,-1.0898,-0.0541383,-16.3753,0.285183,
2,1,0,1,0,7369.67,0.287452,0.287183,7.71726,6,0.0206814,10,0.00221627,-2.11254,-1.12696,-0.0523532,-15.758,0.287183,
2,1,0,1,0,7369.68,0.28945,0.289152,7.68126,6,0.0207583,10,0.00222105,-2.11457,-1.67111,-0.035306,-10.6043,0.289152,
2,1,0,1,0,7369.69,0.291456,0.291167,7.67503,6,0.0208352,10,0.00223471,-2.11492,-1.33425,-0.0442196,-13.2101,0.291167,
2,1,0,1,0,7369.7,0.293454,0.293169,7.62819,6,0.0209118,10,0.00223635,-2.11758,-1.181,-0.0499578,-14.9059,0.293169,
2,1,0,1,0,7369.71,0.295452,0.295161,7.61548,6,0.020988,10,0.00224779,-2.1183,-1.57365,-0.0374924,-11.129,0.295161,
2,1,0,1,0,7369.72,0.297449,0.297172,7.58364,6,0.021064,10,0.00225365,-2.12012,-1.83423,-0.032166,-9.53628,0.297172,
2,1,0,1,0,7369.73,0.299438,0.299124,7.5777,6,0.0211391,10,0.00226667,-2.12046,-0.0458345,-1.28724,-359.423,0.299124,
2,1,0,1,0,7369.73,0.299746,0.299514,6.74198,6,0.0211706,10,0.00201932,-2.17121,0.00318762,18.5091,3200.04,0.299514,
2,1,0,1,0,7369.74,0.29774,0.297476,2.30457,6,0.0212129,10,0.000685555,-2.63741,0.00212206,27.8032,1704.48,0.297476,
2,1,0,1,0,7369.75,0.295742,0.295507,-0.0872372,6,0.0212227,10,-2.57792e-05,-4.0593,0.019727,2.99082,930.3,0.295507,
2,0,0,1,0,7369.76,0.293745,0.29345,-1.44053,6,0.0212142,10,-0.000422722,-2.84148,-0.00284789,-20.7171,537.716,0.29345,
2,0,0,1,0,7369.77,0.291747,0.291489,-2.24818,6,0.0211954,10,-0.00065532,-2.64817,-0.0142207,-4.14887,328.507,0.291489,
2,0,0,1,0,7369.78,0.289745,0.289437,-2.75899,6,0.0211702,10,-0.000798553,-2.55925,-0.0289704,-2.03656,210.583,0.289437,
2,0,0,1,0,7369.79,0.287743,0.287463,-3.09593,6,0.0211407,10,-0.000889964,-2.50921,-0.0504122,-1.17035,138.299,0.287463,
2,0,0,1,0,7369.8,0.285745,0.285426,-3.3137,6,0.0211086,10,-0.000945814,-2.47969,-0.0753202,-0.783323,100.666,0.285426,
2,0,0,1,0,7369.81,0.283748,0.283468,-3.49803,6,0.0210745,10,-0.000991581,-2.45618,-0.0962327,-0.613097,83.189,0.2834684,
2,0,0,1,0,7369.82,0.28175,0.281443,-3.64506,6,0.0210386,10,-0.00102587,-2.4383,-0.124861,-0.472525,66.9301,0.281443,
2,0,0,1,0,7369.83,0.279761,0.279495,-3.76398,6,0.0210019,10,-0.00105201,-2.42435,-0.151833,-0.388584,56.9694,0.279495,
2,0,0,1,0,7369.84,0.277764,0.277487,-3.87037,6,0.0209637,10,-0.00107398,-2.41225,-0.169098,-0.348911,52.6744,0.277487,
2,0,0,1,0,7369.85,0.275766,0.275498,-3.97454,6,0.0209245,10,-0.00109498,-2.40071,-0.202647,-0.291147,44.9915,0.275498,
2,0,0,1,0,7369.86,0.273769,0.273489,-4.05025,6,0.0208842,10,-0.0011077,-2.39252,-0.204547,-0.288442,45.7639,0.273489,
2,0,0,1,0,7369.87,0.27178,0.271497,-4.15761,6,0.0208436,10,-0.00112878,-2.38116,-0.193247,-0.30531,49.4328,0.271497,
2,0,0,1,0,7369.88,0.269783,0.269475,-4.24871,6,0.0208015,10,-0.00114492,-2.37174,-0.235503,-0.250527,41.4576,0.269475,
2,0,0,1,0,7369.89,0.267785,0.267487,-4.32386,6,0.0207587,10,-0.00115658,-2.36413,-0.291089,-0.202687,34.1416,0.267487,
2,0,0,1,0,7369.9,0.265787,0.265505,-4.38425,6,0.0207151,10,-0.00116404,-2.3581,-0.269432,-0.218979,37.5879,0.2655046,
2,0,0,1,0,7369.91,0.263781,0.263505,-4.47354,6,0.0206707,10,-0.0011788,-2.34935,-0.244711,-0.241101,42.0478,0.2635048,
2,0,0,1,0,7369.92,0.261783,0.261462,-4.55422,6,0.0206255,10,-0.00119076,-2.34159,-0.306272,-0.192639,34.1444,0.261462,
2,0,0,1,0,7369.93,0.259786,0.259497,-4.61038,6,0.0205798,10,-0.00119638,-2.33626,-0.310968,-0.18973,34.2144,0.259497,
2,0,0,1,0,7369.94,0.257788,0.257557,-4.68783,6,0.0205332,10,-0.00120738,-2.32903,-0.273387,-0.215811,39.4973,0.257557,
2,0,0,1,0,7369.95,0.255781,0.255466,-4.76959,6,0.0204859,10,-0.00121847,-2.32152,-0.347137,-0.169962,31.5206,0.2554664,
2,0,0,1,0,7369.96,0.253784,0.253466,-4.8168,6,0.020438,10,-0.00122089,-2.31724,-0.391201,-0.150818,28.4068,0.253466,
2,0,0,1,0,7369.97,0.251786,0.251464,-4.88328,6,0.0203895,10,-0.00122797,-2.31129,-0.346382,-0.170332,32.4403,0.251464,
2,0,0,1,0,7369.98,0.249789,0.249549,-4.94385,6,0.0203402,10,-0.00123373,-2.30593,-0.3389,-0.174093,33.6264,0.249549,
2,0,0,1,0,7369.99,0.2478,0.247525,-5.01574,6,0.0202909,10,-0.00124152,-2.29967,-0.340241,-0.173407,33.9173,0.2475251,
2,0,0,1,0,7370,0.245802,0.245526,-5.08032,6,0.0202404,10,-0.00124735,-2.29411,-0.365733,-0.16132,31.9813,0.245526,
2,0,0,1,0,7370.01,0.243805,0.243503,-5.14436,6,0.0201893,10,-0.00125267,-2.28867,-0.42052,-0.140303,28.1259,0.243503,
2,0,0,1,0,7370.02,0.241807,0.241507,-5.19335,6,0.0201376,10,-0.00125423,-2.28455,-0.384575,-0.153416,31.1676,0.241507,
2,0,0,1,0,7370.03,0.239819,0.23956,-5.26727,6,0.0200859,10,-0.00126183,-2.27841,-0.376089,-0.156878,32.1871,0.23956,
2,0,0,1,0,7370.04,0.237821,0.237521,-5.32165,6,0.0200329,10,-0.001264,-2.27395,-0.440814,-0.133843,27.8045,0.237521,
2,0,0,1,0,7370.05,0.235824,0.235538,-5.37908,6,0.0199794,10,-0.00126698,-2.26929,-0.448116,-0.131662,27.6299,0.235538,
2,0,0,1,0,7370.06,0.233826,0.233488,-5.43307,6,0.0199253,10,-0.00126856,-2.26495,-0.37322,-0.158084,33.6,0.233488,
2,0,0,1,0,7370.07,0.231824,0.231531,-5.51373,6,0.0198706,10,-0.0012766,-2.25855,-0.376284,-0.156797,33.6536,0.231531,
2,0,0,1,0,7370.08,0.229822,0.229518,-5.56668,6,0.0198152,10,-0.00127765,-2.2544,-0.473334,-0.124648,27.0821,0.2295181,
2,0,0,1,0,7370.09,0.227824,0.227572,-5.62095,6,0.0197592,10,-0.00127917,-2.25019,-0.442231,-0.133415,29.2861,0.227572,
2,0,0,1,0,7370.1,0.225827,0.225546,-5.683,6,0.0197027,10,-0.00128178,-2.24542,-0.415052,-0.142151,31.535,0.2255462,
2,0,0,1,0,7370.11,0.223829,0.223536,-5.74823,6,0.0196456,10,-0.00128493,-2.24047,-0.423869,-0.139194,31.2058,0.223536,
2,0,0,1,0,7370.12,0.221822,0.221592,-5.80641,6,0.0195877,10,-0.00128665,-2.23609,-0.408458,-0.144446,32.7712,0.221592,
2,0,0,1,0,7370.13,0.219825,0.219548,-5.8789,6,0.0195292,10,-0.0012907,-2.2307,-0.392351,-0.150375,34.4873,0.219548,
2,0,0,1,0,7370.14,0.217827,0.21751,-5.94716,6,0.01947,10,-0.00129357,-2.22569,-0.437579,-0.134833,31.2641,0.21751,
2,0,0,1,0,7370.15,0.21583,0.215538,-6.00427,6,0.0194103,10,-0.00129415,-2.22154,-0.386626,-0.152602,35.8415,0.215538,
2,0,0,1,0,7370.16,0.213841,0.213534,-6.08969,6,0.0193504,10,-0.00130035,-2.2154,-0.363621,-0.162257,38.5081,0.213534,
2,0,0,1,0,7370.17,0.211844,0.211529,-6.15867,6,0.0192892,10,-0.00130274,-2.21051,-0.425093,-0.138793,33.3456,0.211529,
2,0,0,1,0,7370.18,0.209846,0.209535,-6.22303,6,0.0192272,10,-0.00130394,-2.206,-0.420924,-0.140168,34.0611,0.209535,
2,0,0,1,0,7370.19,0.207848,0.20753,-6.29488,6,0.0191647,10,-0.00130638,-2.20101,-0.314882,-0.187372,46.1673,0.20753,
2,0,0,1,0,7370.2,0.20586,0.205599,-6.40474,6,0.0191017,10,-0.00131681,-2.1935,-0.316317,-0.186522,46.4994,0.205599,
2,0,0,1,0,7370.21,0.203862,0.203512,-6.48173,6,0.0190374,10,-0.00131911,-2.18831,-0.414989,-0.142173,35.9349,0.203512,
2,0,0,1,0,7370.22,0.201865,0.201593,-6.54869,6,0.0189722,10,-0.00132017,-2.18385,-0.374482,-0.157551,40.3419,0.201593,
2,0,0,1,0,7370.23,0.199867,0.199564,-6.64098,6,0.0189063,10,-0.0013253,-2.17777,-0.3006,-0.196274,50.9464,0.199564,
2,0,0,1,0,7370.24,0.19786,0.197556,-6.75436,6,0.0188392,10,-0.00133437,-2.17042,-0.330645,-0.178439,46.8986,0.197556,
2,0,0,1,0,7370.25,0.195863,0.195557,-6.82889,6,0.0187713,10,-0.00133544,-2.16565,-0.309946,-0.190356,50.921,0.1955574,
2,0,0,1,0,7370.26,0.193865,0.193609,-6.95537,6,0.0187023,10,-0.00134662,-2.15768,-0.276641,-0.213273,57.795,0.193609,
2,0,0,1,0,7370.27,0.191868,0.191562,-7.0598,6,0.0186323,10,-0.00135239,-2.15121,-0.284697,-0.207238,57.1933,0.191562,
2,0,0,1,0,7370.28,0.189861,0.189525,-7.18894,6,0.018561,10,-0.00136248,-2.14334,-0.261875,-0.225298,63.1742,0.189525,
2,0,0,1,0,7370.29,0.187863,0.18758,-7.31137,6,0.0184885,10,-0.00137147,-2.136,-0.253349,-0.23288,66.5275,0.18758,
2,0,0,1,0,7370.3,0.185866,0.185564,-7.45243,6,0.0184146,10,-0.0013829,-2.1277,-0.255314,-0.231088,67.1504,0.185564,
2,0,0,1,0,7370.31,0.183868,0.183554,-7.5817,6,0.0183394,10,-0.00139165,-2.12023,-0.22215,-0.265586,78.8636,0.183554,
2,0,0,1,0,7370.32,0.18188,0.181575,-7.76702,6,0.0182635,10,-0.0014103,-2.10975,-0.195887,-0.301193,91.2046,0.181575,
2,0,0,1,0,7370.33,0.179882,0.179635,-7.9391,6,0.018185,10,-0.00142614,-2.10023,-0.212615,-0.277497,85.9689,0.179635,
2,0,0,1,0,7370.34,0.177885,0.177565,-8.11175,6,0.0181046,10,-0.00144037,-2.09089,-0.200952,-0.293603,93.1028,0.177565,
2,0,0,1,0,7370.35,0.175887,0.175605,-8.31436,6,0.0180225,10,-0.00146004,-2.08017,-0.178373,-0.330767,107.415,0.175605,
2,0,0,1,0,7370.36,0.173908,0.173636,-8.53386,6,0.0179391,10,-0.00148178,-2.06885,-0.170798,-0.345437,115.199,0.173636,
2,0,0,1,0,7370.37,0.171901,0.171563,-8.77999,6,0.0178524,10,-0.00150632,-2.05651,-0.164527,-0.358603,122.863,0.1715629,
2,0,0,1,0,7370.38,0.169903,0.169608,-9.02867,6,0.0177634,10,-0.00153134,-2.04438,-0.155056,-0.380507,134.311,0.169608,
2,0,0,1,0,7370.39,0.167906,0.167585,-9.31427,6,0.0176717,10,-0.00156093,-2.03085,-0.144392,-0.40861,148.676,0.167585,
2,0,0,1,0,7370.4,0.165908,0.165602,-9.62423,6,0.0175769,10,-0.0015938,-2.01663,-0.136519,-0.432174,162.421,0.165602,
2,0,0,1,0,7370.41,0.163901,0.163656,-9.95248,6,0.017479,10,-0.00162878,-2.00207,-0.132719,-0.444549,172.963,0.163656,
2,0,0,1,0,7370.42,0.161904,0.161564,-10.3228,6,0.0173776,10,-0.00166779,-1.9862,-0.125701,-0.469368,189.204,0.161564,
2,0,0,1,0,7370.43,0.159906,0.159627,-10.7147,6,0.0172724,10,-0.00171035,-1.97002,-0.12006,-0.491423,205.656,0.159627,
2,0,0,1,0,7370.44,0.157909,0.15762,-11.1337,6,0.017163,10,-0.00175491,-1.95336,-0.114477,-0.515389,224.459,0.15762,
2,0,0,1,0,7370.45,0.155902,0.155611,-11.6161,6,0.0170493,10,-0.0018076,-1.93494,-0.107299,-0.549864,249.423,0.155611,
2,0,0,1,0,7370.46,0.153904,0.153641,-12.1264,6,0.0169305,10,-0.0018631,-1.91627,-0.107014,-0.55133,260.914,0.153641,
2,0,0,1,0,7370.47,0.151907,0.151645,-12.6508,6,0.0168066,10,-0.00191844,-1.89788,-0.105252,-0.56056,277.336,0.151645,
2,0,0,1,0,7370.48,0.149909,0.14961,-13.2443,6,0.016677,10,-0.00198148,-1.87797,-0.101042,-0.583917,301.928,0.14961,
2,0,0,1,0,7370.49,0.147921,0.14762,-13.8661,6,0.0165428,10,-0.00204691,-1.85805,-0.100916,-0.584643,316.309,0.14762,
2,0,0,1,0,7370.5,0.145923,0.145638,-14.5007,6,0.0164008,10,-0.00211185,-1.83861,-0.101276,-0.582565,329.872,0.145638,
2,0,0,1,0,7370.51,0.143926,0.143663,-15.1715,6,0.0162525,10,-0.00217958,-1.81897,-0.101882,-0.579104,343.018,0.143663,
2,0,0,1,0,7370.52,0.141928,0.141632,-15.8748,6,0.0160971,10,-0.00224838,-1.79929,-0.102012,-0.578363,358.365,0.141632,
2,0,0,1,0,7370.53,0.139939,0.139667,-16.6035,6,0.0159363,10,-0.00231896,-1.7798,-0.104793,-0.563016,364.492,0.139667,
2,0,0,1,0,7370.54,0.137942,0.137659,-17.323,6,0.0157666,10,-0.00238466,-1.76138,-0.113725,-0.518794,350.091,0.137659,
2,0,0,1,0,7370.55,0.135944,0.135686,-17.9974,6,0.01559,10,-0.00244198,-1.74479,-0.114474,-0.515401,362.789,0.135686,
2,0,0,1,0,7370.56,0.133947,0.133674,-18.7687,6,0.015406,10,-0.00250888,-1.72657,-0.114194,-0.516666,377.874,0.133674,
2,0,0,1,0,7370.57,0.13194,0.131701,-19.5032,6,0.0152146,10,-0.00256858,-1.7099,-0.125611,-0.469705,357.173,0.131701,
2,0,0,1,0,7370.58,0.129942,0.129615,-20.2183,6,0.0150159,10,-0.0026206,-1.69425,-0.132357,-0.445765,351.431,0.129615,
2,0,0,1,0,7370.59,0.127945,0.127683,-20.9152,6,0.0148101,10,-0.00267051,-1.67954,-0.1408,-0.419033,341.628,0.127683,
2,0,0,1,0,7370.6,0.125947,0.125639,-21.5767,6,0.0145975,10,-0.00271088,-1.66601,-0.151623,-0.389122,327.453,0.125639,
2,0,0,1,0,7370.61,0.123941,0.123688,-22.2232,6,0.0143785,10,-0.00274875,-1.65319,-0.162933,-0.362113,313.663,0.123688,
2,0,0,1,0,7370.62,0.121943,0.121659,-22.825,6,0.0141531,10,-0.00277687,-1.64159,-0.183793,-0.321013,285.53,0.121659,
2,0,0,1,0,7370.63,0.119945,0.119677,-23.3686,6,0.013922,10,-0.00279668,-1.63137,-0.197326,-0.298997,272.639,0.119677,
2,0,0,1,0,7370.64,0.117948,0.117671,-23.9124,6,0.0136854,10,-0.00281379,-1.62138,-0.212492,-0.277658,258.772,0.117671,
2,0,0,1,0,7370.65,0.115946,0.115692,-24.3998,6,0.0134438,10,-0.00282286,-1.61261,-0.237634,-0.248281,236.191,0.115692,
2,0,0,1,0,7370.66,0.113962,0.113723,-24.8448,6,0.0131998,10,-0.00282543,-1.60476,-0.282377,-0.20894,202.261,0.113723,
2,0,0,1,0,7370.67,0.111964,0.111671,-25.213,6,0.0129495,10,-0.00281557,-1.59837,-0.336327,-0.175425,172.472,0.111671,
2,0,0,1,0,7370.68,0.109967,0.109678,-25.5425,6,0.0126956,10,-0.00280145,-1.59274,-0.410821,-0.143615,142.922,0.109678,
2,0,0,1,0,7370.69,0.107969,0.107644,-25.7887,6,0.0124389,10,-0.00277599,-1.58857,-0.515098,-0.114541,115.208,0.107644,
2,0,0,1,0,7370.7,0.10598,0.105673,-26.0039,6,0.0121824,10,-0.0027479,-1.58496,-0.665389,-0.0886699,89.8558,0.105673,
2,0,0,1,0,7370.71,0.103983,0.103686,-26.1443,6,0.0119216,10,-0.00271079,-1.58262,-1.08386,-0.0544353,55.478,0.103686,
2,0,0,1,0,7370.72,0.101985,0.101692,-26.2248,6,0.0116597,10,-0.00266685,-1.58129,-3.58772,-0.016445,16.801,0.101692,
2,0,0,1,0,7370.73,0.0999877,0.0996653,-26.2118,6,0.0113975,10,-0.00261241,-1.5815,4.74721,0.0124283,-12.7076,0.0996653,
2,0,0,1,0,7370.74,0.0979811,0.0976412,-26.1733,6,0.0111354,10,-0.00255559,-1.58214,1.37327,0.0429631,-43.8048,0.0976412,
2,0,0,1,0,7370.75,0.0959835,0.0957229,-26.0391,6,0.0108743,10,-0.00249254,-1.58437,0.726882,0.0811686,-82.3887,0.0957229,
2,0,0,1,0,7370.76,0.0939859,0.0936511,-25.8445,6,0.0106149,10,-0.00242037,-1.58763,0.520791,0.113289,-114.1,0.0936511,
2,0,0,1,0,7370.77,0.0919883,0.0916625,-25.5759,6,0.0103578,10,-0.00234435,-1.59217,0.422625,0.139604,-139.274,0.0916625,
2,0,0,1,0,7370.78,0.0899816,0.0896202,-25.2831,6,0.0101035,10,-0.00226588,-1.59717,0.329626,0.178991,-176.198,0.0896202,
2,0,0,1,0,7370.79,0.087984,0.087682,-24.8745,6,0.00985269,10,-0.00218104,-1.60425,0.272958,0.216151,-209.802,0.087682,
2,0,0,1,0,7370.8,0.0859865,0.0857108,-24.4629,6,0.00960598,10,-0.00209674,-1.61149,0.252942,0.233255,-222.385,0.0857108,
2,0,0,1,0,7370.81,0.0839889,0.0837023,-23.9895,6,0.00936375,10,-0.00200797,-1.61998,0.237029,0.248914,-233.106,0.0837023,
2,0,0,1,0,7370.82,0.0820004,0.0817302,-23.5351,6,0.00912849,10,-0.00192353,-1.62828,0.222945,0.264639,-242.732,0.0817302,
2,0,0,1,0,7370.83,0.0800028,0.079715,-23.0216,6,0.00889585,10,-0.00183517,-1.63786,0.216777,0.272169,-244.721,0.079715,
2,0,0,1,0,7370.84,0.0780052,0.0777068,-22.5504,6,0.00866805,10,-0.00175232,-1.64685,0.215628,0.273619,-240.624,0.0777068,
2,0,0,1,0,7370.85,0.0760076,0.0756867,-22.0523,6,0.00844515,10,-0.00166907,-1.65655,0.218762,0.2697,-232.419,0.0756867,
2,0,0,1,0,7370.86,0.0740191,0.0736996,-21.6191,6,0.00822909,10,-0.00159332,-1.66516,0.223186,0.264353,-222.933,0.0736996,
2,0,0,1,0,7370.87,0.0720215,0.0717328,-21.1709,6,0.00801524,10,-0.00151864,-1.67426,0.230963,0.255452,-211.34,0.0717328,
2,0,0,1,0,7370.88,0.0700239,0.0697468,-20.7837,6,0.00780548,10,-0.0014496,-1.68228,0.244001,0.241803,-196.055,0.0697468,
2,0,0,1,0,7370.89,0.0680263,0.0677262,-20.3853,6,0.00759976,10,-0.00138062,-1.69068,0.263546,0.22387,-178.426,0.0677262,
2,0,0,1,0,7370.9,0.0660197,0.0657168,-20.0646,6,0.00739764,10,-0.00131858,-1.69757,0.273025,0.216097,-169.075,0.0657168,
2,0,0,1,0,7370.91,0.0640221,0.063756,-19.7141,6,0.0071988,10,-0.00125689,-1.70522,0.272769,0.216301,-166.567,0.063756,
2,0,0,1,0,7370.92,0.0620245,0.0617432,-19.4028,6,0.00700321,10,-0.00119799,-1.71214,0.291684,0.202274,-153.166,0.0617432,
2,0,0,1,0,7370.93,0.0600269,0.0597104,-19.0944,6,0.00681078,10,-0.00114014,-1.71909,0.313924,0.187943,-140.227,0.0597104,
2,0,0,1,0,7370.94,0.0580248,0.057701,-18.8359,6,0.00662115,10,-0.00108685,-1.72501,0.31004,0.190298,-139.74,0.057701,
2,0,0,1,0,7370.95,0.0560227,0.0557419,-18.5399,6,0.00643429,10,-0.00103345,-1.73189,0.305487,0.193134,-139.856,0.05574194,
2,0,0,1,0,7370.96,0.0540251,0.0537013,-18.2766,6,0.0062502,10,-0.000981476,-1.73811,0.315166,0.187203,-133.484,0.05370133,
2,0,0,1,0,7370.97,0.0520275,0.0517258,-18.0038,6,0.00606884,10,-0.00093126,-1.74464,0.297718,0.198174,-139.204,0.0517258,
2,0,0,1,0,7370.98,0.0500299,0.0497303,-17.7238,6,0.00589018,10,-0.000881409,-1.75144,0.297984,0.197997,-136.986,0.0497303,
2,0,0,1,0,7370.99,0.0480414,0.0477167,-17.4546,6,0.00571606,10,-0.000832875,-1.75809,0.293648,0.200921,-136.825,0.0477167,
2,0,0,1,0,7371,0.0460438,0.0457379,-17.1775,6,0.00554293,10,-0.000785665,-1.76504,0.267051,0.220931,-147.953,0.0457379,
2,0,0,1,0,7371.01,0.0440462,0.0437489,-16.8676,6,0.0053728,10,-0.000737937,-1.77295,0.250604,0.235431,-154.959,0.0437489,
2,0,0,1,0,7371.02,0.0420486,0.0417304,-16.5565,6,0.00520575,10,-0.00069091,-1.78103,0.250702,0.235339,-152.11,0.0417304,
2,0,0,1,0,7371.03,0.0400601,0.0397494,-16.2592,6,0.00504332,10,-0.000646292,-1.7889,0.243716,0.242085,-153.506,0.0397494,
2,0,0,1,0,7371.04,0.0380625,0.0377331,-15.9429,6,0.0048823,10,-0.000601574,-1.79743,0.219928,0.26827,-166.724,0.0377331,
2,0,0,1,0,7371.05,0.036065,0.035761,-15.5942,6,0.00472474,10,-0.000557665,-1.80704,0.214591,0.274942,-167.478,0.035761,
2,0,0,1,0,7371.06,0.0340674,0.0337638,-15.2781,6,0.00457041,10,-0.000515847,-1.81593,0.217006,0.271882,-161.991,0.0337638,
2,0,0,1,0,7371.07,0.0320607,0.0317466,-14.9439,6,0.00441936,10,-0.000474419,-1.82554,0.212176,0.278071,-162.246,0.0317466,
2,0,0,1,0,7371.08,0.0300631,0.0297537,-14.6275,6,0.0042715,10,-0.000435223,-1.83483,0.209067,0.282206,-161.05,0.0297537,
2,0,0,1,0,7371.09,0.0280655,0.0277877,-14.3064,6,0.00412685,10,-0.000397541,-1.84447,0.222888,0.264707,-148.038,0.0277877,
2,0,0,1,0,7371.1,0.0260679,0.025761,-14.0364,6,0.00398514,10,-0.000361592,-1.85274,0.235496,0.250535,-137.168,0.025761,
2,0,0,1,0,7371.11,0.0240613,0.0237672,-13.7549,6,0.00384623,10,-0.000326915,-1.86154,0.247826,0.23807,-128.032,0.0237672,
2,0,0,1,0,7371.12,0.0220637,0.0217795,-13.5267,6,0.00370982,10,-0.000294605,-1.86881,0.268147,0.220028,-116.116,0.0217795,
2,0,0,1,0,7371.13,0.0200661,0.019784,-13.2924,6,0.0035758,10,-0.000262976,-1.8764,0.291547,0.202369,-105.149,0.019784,
2,0,0,1,0,7371.14,0.0180685,0.0177486,-13.1028,6,0.00344382,10,-0.000232558,-1.88263,0.337712,0.174705,-89.4062,0.0177486,
2,0,0,1,0,7371.15,0.01608,0.0157876,-12.935,6,0.00331504,10,-0.000204213,-1.88823,0.392743,0.150226,-75.9325,0.0157876,
2,0,0,1,0,7371.16,0.0140824,0.0137778,-12.8013,6,0.00318637,10,-0.000176374,-1.89274,0.4267,0.13827,-69.0486,0.0137778,
2,0,0,1,0,7371.17,0.0120848,0.0117641,-12.6572,6,0.00305916,10,-0.000148901,-1.89766,0.461987,0.127709,-63.17,0.0117641,
2,0,0,1,0,7371.18,0.0100873,0.00976948,-12.5481,6,0.00293321,10,-0.000122589,-1.90142,0.563878,0.104633,-51.2706,0.00976948,
2,0,0,1,0,7371.19,0.00810328,0.00781021,-12.4545,6,0.00280956,10,-9.72724e-05,-1.90467,0.76784,0.0768389,-37.4062,0.00781021,
2,0,0,1,0,7371.2,0.00610116,0.00580344,-12.3998,6,0.00268526,10,-7.19614e-05,-1.90659,0.830714,0.0710232,-34.3311,0.00580344,
2,0,0,1,0,7371.21,0.00410357,0.00381315,-12.3173,6,0.00256176,10,-4.69677e-05,-1.90948,2.21357,0.0266537,-12.8712,0.00381315,
2,0,0,1,0,7371.22,0.00210598,0.00174131,-12.3475,6,0.0024387,10,-2.15008e-05,-1.90842,4.07408,0.0144818,-6.95348,0.00174131,
2,0,0,1,0,7371.23,0.00010174,-0.000259386,-12.289,6,0.00231551,10,3.18758e-06,-1.91048,1.3842,0.042624,-20.4716,-0.000259386,
2,0,0,1,0,7371.24,-0.00189827,-0.00226095,-12.2656,6,0.00219268,10,2.77318e-05,-1.91131,1.99067,0.0296383,-14.182,-0.002260952,
2,0,0,1,0,7371.25,-0.00389586,-0.00422434,-12.2327,6,0.00207018,10,5.16753e-05,-1.91248,6.46483,0.0091263,-4.36555,-0.00422434,
2,0,0,1,0,7371.26,-0.00589345,-0.00623112,-12.2482,6,0.00194774,10,7.63201e-05,-1.91193,8.06287,0.0073175,-3.4914,-0.00623112,
2,0,0,1,0,7371.27,-0.00789103,-0.00825698,-12.2187,6,0.00182542,10,0.000100889,-1.91298,-5.72702,-0.010302,4.92841,-0.00825698,
2,0,0,1,0,7371.28,-0.0098977,-0.0101995,-12.2678,6,0.00170293,10,0.000125126,-1.91123,-1.96247,-0.0300641,14.3698,-0.0101995,
2,0,0,1,0,7371.29,-0.0118953,-0.0122375,-12.2759,6,0.00158023,10,0.000150226,-1.91095,-3.12008,-0.0189098,9.06696,-0.01223755,
2,0,0,1,0,7371.3,-0.0138929,-0.0142235,-12.3043,6,0.00145725,10,0.00017501,-1.90994,-2.13714,-0.027607,13.2545,-0.0142235,
2,0,0,1,0,7371.31,-0.0158905,-0.0162051,-12.3285,6,0.00133413,10,0.000199784,-1.90909,-1.18616,-0.0497404,23.9785,-0.0162051,
2,0,0,1,0,7371.32,-0.017879,-0.018238,-12.4005,6,0.0012117,10,0.000226161,-1.90656,-1.30059,-0.0453642,21.9045,-0.018238,
2,0,0,1,0,7371.33,-0.0198766,-0.0202294,-12.4166,6,0.00108767,10,0.000251181,-1.906,-1.44792,-0.040748,19.7832,-0.0202294,
2,0,0,1,0,7371.34,-0.0218741,-0.0222487,-12.4799,6,0.000963213,10,0.000277661,-1.90379,-1.13149,-0.0521437,25.3706,-0.02224871,
2,0,0,1,0,7371.35,-0.0238717,-0.0242139,-12.5177,6,0.000838274,10,0.000303102,-1.90248,-0.918242,-0.0642532,31.4511,-0.0242139,
2,0,0,1,0,7371.36,-0.0258602,-0.0262242,-12.6049,6,0.000713897,10,0.000330554,-1.89946,-1.01721,-0.058002,28.4632,-0.02622422,
2,0,0,1,0,7371.37,-0.0278578,-0.0281841,-12.6307,6,0.000587801,10,0.000355985,-1.89857,-1.17049,-0.0504064,24.8938,-0.0281841,
2,0,0,1,0,7371.38,-0.0298554,-0.0302065,-12.704,6,0.000461113,10,0.000383745,-1.89606,-0.914027,-0.0645495,31.9809,-0.0302065,
2,0,0,1,0,7371.39,-0.031853,-0.032215,-12.7596,6,0.000333789,10,0.000411051,-1.89416,-0.807606,-0.0730554,36.4276,-0.03221504,
2,0,0,1,0,7371.4,-0.0338597,-0.0341958,-12.8494,6,0.000205768,10,0.000439394,-1.89112,-0.779539,-0.0756858,37.9109,-0.0341958,
2,0,0,1,0,7371.41,-0.0358573,-0.0361843,-12.9101,6,7.70232e-05,10,0.000467143,-1.88907,-0.827667,-0.0712847,35.9459,-0.0361843,
2,0,0,1,0,7371.42,-0.0378549,-0.038179,-12.9925,6,-5.25287e-05,10,0.000496042,-1.88631,-0.898337,-0.0656769,33.2607,-0.038179,
2,0,0,1,0,7371.43,-0.0398524,-0.0401797,-13.043,6,-0.000182747,10,0.000524062,-1.88462,-0.764807,-0.0771437,39.3537,-0.0401797,
2,0,0,1,0,7371.44,-0.0418591,-0.0421934,-13.1505,6,-0.000313704,10,0.000554865,-1.88106,-0.718142,-0.0821564,42.0929,-0.0421934,
2,0,0,1,0,7371.45,-0.0438567,-0.0442357,-13.2137,6,-0.000445507,10,0.000584518,-1.87898,-0.839334,-0.0702938,36.2762,-0.0442357,
2,0,0,1,0,7371.46,-0.0458543,-0.0462156,-13.2964,6,-0.000578131,10,0.000614503,-1.87626,-0.831257,-0.0709769,36.8044,-0.0462156,
2,0,0,1,0,7371.47,-0.0478519,-0.0482128,-13.3601,6,-0.000711409,10,0.000644127,-1.87419,-0.658309,-0.0896236,46.8336,-0.0482128,
2,0,0,1,0,7371.48,-0.0498585,-0.0502083,-13.4834,6,-0.000845621,10,0.00067698,-1.8702,-0.64178,-0.0919318,48.2763,-0.0502083,
2,0,0,1,0,7371.49,-0.051838,-0.0521808,-13.5516,6,-0.000979445,10,0.000707136,-1.86801,-0.761593,-0.0774692,41.0117,-0.0521808,
2,0,0,1,0,7371.5,-0.0538356,-0.0541866,-13.6466,6,-0.00111545,10,0.000739462,-1.86498,-0.720986,-0.0818324,43.559,-0.0541866,
2,0,0,1,0,7371.51,-0.0558331,-0.056209,-13.7271,6,-0.00125227,10,0.000771587,-1.86242,-0.699795,-0.0843104,45.1998,-0.056209,
2,0,0,1,0,7371.52,-0.0578126,-0.0581964,-13.8278,6,-0.00138871,10,0.000804729,-1.85925,-0.672228,-0.0877679,47.3404,-0.0581964,
2,0,0,1,0,7371.53,-0.0598192,-0.0601754,-13.9149,6,-0.00152745,10,0.000837333,-1.85652,-0.592157,-0.0996357,54.1885,-0.0601754,
2,0,0,1,0,7371.54,-0.0618168,-0.0621873,-14.0441,6,-0.00166725,10,0.000873365,-1.85251,-0.629113,-0.0937828,51.3034,-0.0621873,
2,0,0,1,0,7371.55,-0.0638144,-0.0641716,-14.1199,6,-0.00180806,10,0.000906096,-1.85017,-0.683728,-0.0862916,47.6127,-0.0641716,
2,0,0,1,0,7371.56,-0.065812,-0.0661445,-14.2325,6,-0.0019499,10,0.000941402,-1.84672,-0.586495,-0.100598,55.8675,-0.0661445,
2,0,0,1,0,7371.57,-0.0678187,-0.068127,-14.3409,6,-0.00209284,10,0.000977,-1.84342,-0.552745,-0.10674,59.7934,-0.068127,
2,0,0,1,0,7371.58,-0.0698163,-0.0702084,-14.4755,6,-0.00223696,10,0.0010163,-1.83937,-0.611606,-0.0964673,54.4045,-0.0702084,
2,0,0,1,0,7371.59,-0.0718138,-0.0721778,-14.5613,6,-0.00238217,10,0.001051,-1.8368,-0.576648,-0.102315,58.2591,-0.0721778,
2,0,0,1,0,7371.6,-0.0738114,-0.0741542,-14.7054,6,-0.00252857,10,0.00109047,-1.83252,-0.489191,-0.120607,69.1867,-0.0741542,
2,0,0,1,0,7371.61,-0.0758181,-0.0761697,-14.8374,6,-0.00267636,10,0.00113016,-1.82864,-0.502577,-0.117395,67.9951,-0.0761697,
2,0,0,1,0,7371.62,-0.0778157,-0.0781565,-14.9775,6,-0.00282551,10,0.00117059,-1.82456,-0.532647,-0.110768,64.6967,-0.0781565,
2,0,0,1,0,7371.63,-0.0798133,-0.0801555,-15.0953,6,-0.00297585,10,0.00120997,-1.82116,-0.489401,-0.120556,71.1376,-0.0801555,
2,0,0,1,0,7371.64,-0.0818109,-0.0821718,-15.2631,6,-0.00312769,10,0.0012542,-1.81636,-0.44579,-0.132349,78.7779,-0.0821718,
2,0,0,1,0,7371.65,-0.0837994,-0.0841402,-15.4092,6,-0.00327952,10,0.00129653,-1.81222,-0.464287,-0.127077,76.4449,-0.0841402,
2,0,0,1,0,7371.66,-0.0857969,-0.0861348,-15.5661,6,-0.00343439,10,0.00134078,-1.80782,-0.4636,-0.127265,77.2985,-0.0861348,
2,0,0,1,0,7371.67,-0.0877945,-0.0881374,-15.7182,6,-0.00359079,10,0.00138536,-1.8036,-0.436231,-0.13525,83.0419,-0.0881374,
2,0,0,1,0,7371.68,-0.0897921,-0.0901566,-15.9001,6,-0.0037489,10,0.0014335,-1.7986,-0.420666,-0.140254,86.9819,-0.0901566,
2,0,0,1,0,7371.69,-0.0917806,-0.092125,-16.065,6,-0.00390708,10,0.00147999,-1.79412,-0.423881,-0.13919,87.3031,-0.092125,
2,0,0,1,0,7371.7,-0.0937782,-0.0940987,-16.2442,6,-0.00406863,10,0.00152856,-1.7893,-0.435711,-0.135411,85.804,-0.0940987,
2,0,0,1,0,7371.71,-0.0957758,-0.0961341,-16.409,6,-0.00423191,10,0.00157747,-1.78492,-0.438244,-0.134628,86.2537,-0.0961341,
2,0,0,1,0,7371.72,-0.0977734,-0.0981045,-16.5898,6,-0.00439701,10,0.00162753,-1.78016,-0.403345,-0.146277,94.742,-0.0981045,
2,0,0,1,0,7371.73,-0.0997412,-0.100096,-16.7844,6,-0.00456049,10,0.00168005,-1.77509,0.0932281,0.632856,-399.986,-0.100096,
2,0,0,1,1,7371.73,-0.0996711,-0.100064,-15.8062,6,-0.0046096,10,0.00158162,-1.80117,-0.0104359,-5.65354,2980.01,-0.100064,
2,0,0,1,1,7371.74,-0.0976826,-0.0980493,-10.6855,6,-0.00473855,10,0.00104771,-1.9712,-0.0110175,-5.35512,2235.18,-0.0980493,
2,0,0,1,1,7371.75,-0.095685,-0.0960459,-6.82596,6,-0.00482482,10,0.000655605,-2.16584,-0.00880422,-6.70134,1736.76,-0.0960459,
2,0,0,1,1,7371.76,-0.0936874,-0.0940695,-3.77375,6,-0.00487695,10,0.000354995,-2.42323,-0.00556685,-10.5985,1382.49,-0.0940695,
2,0,0,1,1,7371.77,-0.0916898,-0.0920566,-1.31086,6,-0.00490162,10,0.000120674,-2.88244,-0.00530476,-11.1221,1118.22,-0.0920566,
2,1,0,1,1,7371.78,-0.0897013,-0.0900939,0.671925,6,-0.00490421,10,-6.05363e-05,-3.17268,0.0156388,3.77267,924.318,-0.0900939,
2,1,0,1,1,7371.79,-0.0877037,-0.0880984,2.3478,6,-0.00488859,10,-0.000206837,-2.62934,0.0053577,11.0122,766.812,-0.0880984,
2,1,0,1,1,7371.8,-0.0857062,-0.0861055,3.73026,6,-0.00485781,10,-0.000321196,-2.42826,0.0126022,4.68172,632.09,-0.0861055,
2,1,0,1,1,7371.81,-0.0837086,-0.0840979,4.8765,6,-0.00481438,10,-0.000410103,-2.31189,0.0204861,2.88,530.32,-0.0840979,
2,1,0,1,1,7371.82,-0.0817019,-0.0820763,5.867,6,-0.00476046,10,-0.000481542,-2.23158,0.0291023,2.02733,454.503,-0.0820763,
2,1,0,1,1,7371.83,-0.0797043,-0.0800644,6.70973,6,-0.00469731,10,-0.00053721,-2.17329,0.0392856,1.50182,387.329,-0.0800644,
2,1,0,1,1,7371.84,-0.0777067,-0.0780932,7.4098,6,-0.00462655,10,-0.000578655,-2.13019,0.0520071,1.13446,324.945,-0.0780932,
2,1,0,1,1,7371.85,-0.0757091,-0.0760716,8.00715,6,-0.00454924,10,-0.000609117,-2.09652,0.0652326,0.904455,280.955,-0.0760716,
2,1,0,1,1,7371.86,-0.0737025,-0.0740857,8.53572,6,-0.00446643,10,-0.000632375,-2.06876,0.0803852,0.733966,243.067,-0.07408569,
2,1,0,1,1,7371.87,-0.0717049,-0.0720572,8.98292,6,-0.00437866,10,-0.000647285,-2.04658,0.103459,0.570273,198.704,-0.0720572,
2,1,0,1,1,7371.88,-0.0697073,-0.0700765,9.33237,6,-0.00428708,10,-0.000653979,-2.03001,0.129879,0.454271,165.059,-0.0700765,
2,1,0,1,1,7371.89,-0.0677097,-0.0680437,9.64539,6,-0.00419204,10,-0.000656308,-2.01568,0.149831,0.393777,147.901,-0.0680437,
2,1,0,1,1,7371.9,-0.0657212,-0.0660915,9.92175,6,-0.00409516,10,-0.000655743,-2.00341,0.181316,0.325398,125.656,-0.0660915,
2,1,0,1,1,7371.91,-0.0637236,-0.0640404,10.1484,6,-0.00399472,10,-0.00064991,-1.9936,0.222495,0.265175,104.838,-0.0640404,
2,1,0,1,1,7371.92,-0.061726,-0.0620848,10.3418,6,-0.00389226,10,-0.000642069,-1.9854,0.259594,0.227278,91.6208,-0.0620848,
2,1,0,1,1,7371.93,-0.0597284,-0.0600679,10.5124,6,-0.00378789,10,-0.000631457,-1.9783,0.310169,0.190219,77.9226,-0.0600679,
2,1,0,1,1,7371.94,-0.0577399,-0.058094,10.6528,6,-0.00368316,10,-0.000618863,-1.97254,0.376644,0.156646,65.052,-0.05809398,
2,1,0,1,1,7371.95,-0.0557423,-0.0561028,10.7703,6,-0.00357594,10,-0.000604246,-1.96777,0.449875,0.131148,55.0845,-0.0561028,
2,1,0,1,1,7371.96,-0.0537447,-0.0541039,10.8726,6,-0.00346768,10,-0.000588248,-1.96367,0.560455,0.105272,44.6134,-0.0541039,
2,1,0,1,1,7371.97,-0.0517472,-0.0521162,10.9482,6,-0.00335846,10,-0.000570578,-1.96066,0.690208,0.0854814,36.5131,-0.0521162,
2,1,0,1,1,7371.98,-0.049745,-0.0501311,11.0176,6,-0.00324864,10,-0.000552326,-1.95791,0.687187,0.0858572,36.935,-0.0501311,
2,1,0,1,1,7371.99,-0.0477429,-0.0480593,11.098,6,-0.00313791,10,-0.000533363,-1.95475,0.83526,0.0706367,30.5412,-0.0480593,
2,1,0,1,1,7372,-0.0457453,-0.0461184,11.1402,6,-0.00302673,10,-0.000513768,-1.95311,1.32616,0.0444894,19.3356,-0.0461184,
2,1,0,1,1,7372.01,-0.0437477,-0.0441082,11.1744,6,-0.00291515,10,-0.000492884,-1.95177,1.73435,0.0340186,14.8299,-0.0441082,
2,1,0,1,1,7372.02,-0.0417501,-0.0420762,11.2001,6,-0.00280331,10,-0.000471259,-1.95078,1.67928,0.0351341,15.3644,-0.0420762,
2,1,0,1,1,7372.03,-0.0397435,-0.0400842,11.2363,6,-0.00269101,10,-0.000450397,-1.94938,3.01952,0.0195395,8.55382,-0.0400842,
2,1,0,1,1,7372.04,-0.0377459,-0.0380913,11.2342,6,-0.00257869,10,-0.000427926,-1.94946,5.3791,0.0109684,4.81393,-0.0380913,
2,1,0,1,1,7372.05,-0.0357483,-0.0360846,11.2555,6,-0.00246621,10,-0.00040615,-1.94863,7.08178,0.00833124,3.65508,-0.0360846,
2,1,0,1,1,7372.06,-0.0337507,-0.0341168,11.2487,6,-0.00235372,10,-0.000383772,-1.9489,13.5988,0.00433862,1.90645,-0.0341168,
2,1,0,1,1,7372.07,-0.0317622,-0.0321153,11.2631,6,-0.0022422,10,-0.000361717,-1.94834,28.6647,0.00205828,0.903736,-0.0321153,
2,1,0,1,1,7372.08,-0.0297646,-0.0301342,11.2523,6,-0.00212969,10,-0.00033908,-1.94876,-4.44357,-0.0132776,-5.83026,-0.03013416,
2,1,0,1,1,7372.09,-0.027767,-0.0280902,11.2396,6,-0.00201721,10,-0.000315723,-1.94925,-2.92025,-0.0202037,-8.85844,-0.0280902,
2,1,0,1,1,7372.1,-0.0257694,-0.0261568,11.2171,6,-0.00190498,10,-0.000293404,-1.95012,-4.98719,-0.0118303,-5.18457,-0.0261568,
2,1,0,1,1,7372.11,-0.0237809,-0.0241168,11.219,6,-0.0017939,10,-0.000270567,-1.95005,-4.38519,-0.0134544,-5.88369,-0.0241168,
2,1,0,1,1,7372.12,-0.0217833,-0.0221361,11.1935,6,-0.00168185,10,-0.000247779,-1.95104,-2.24774,-0.0262486,-11.4693,-0.0221361,
2,1,0,1,1,7372.13,-0.0197858,-0.0201241,11.1732,6,-0.00156995,10,-0.000224851,-1.95182,-1.7939,-0.0328893,-14.3308,-0.0201241,
2,1,0,1,1,7372.14,-0.0177882,-0.0181416,11.1362,6,-0.00145842,10,-0.000202029,-1.95326,-3.20475,-0.0184102,-8.01628,-0.0181416,
2,1,0,1,1,7372.15,-0.0157815,-0.016101,11.141,6,-0.00134702,10,-0.000179381,-1.95308,-2.51415,-0.0234672,-10.1805,-0.016101,
2,1,0,1,1,7372.16,-0.0137839,-0.0141489,11.0956,6,-0.00123586,10,-0.00015699,-1.95485,-1.47782,-0.0399236,-17.3051,-0.0141489,
2,1,0,1,1,7372.17,-0.0117863,-0.0121282,11.0722,6,-0.00112503,10,-0.000134286,-1.95577,-1.72476,-0.0342076,-14.7731,-0.0121282,
2,1,0,1,1,7372.18,-0.00978874,-0.0101293,11.0362,6,-0.00101451,10,-0.000111788,-1.95718,-2.63649,-0.0223783,-9.65313,-0.0101293,
2,1,0,1,1,7372.19,-0.00778207,-0.00813898,11.0337,6,-0.00090416,10,-8.98031e-05,-1.95728,-2.01676,-0.0292548,-12.5714,-0.00813898,
2,1,0,1,1,7372.2,-0.00578449,-0.00611052,10.9857,6,-0.000794149,10,-6.71281e-05,-1.95917,-1.39482,-0.0422993,-18.1541,-0.00611052,
2,1,0,1,1,7372.21,-0.0037869,-0.00411156,10.9606,6,-0.000684389,10,-4.50651e-05,-1.96017,-1.45717,-0.0404895,-17.3049,-0.00411156,
2,1,0,1,1,7372.22,-0.00178931,-0.00213515,10.9169,6,-0.000575013,10,-2.33091e-05,-1.9619,-1.32778,-0.0444351,-18.9439,-0.00213515,
2,1,0,1,1,7372.23,-2.55332e-05,-0.000248974,10.8874,6,-0.000480124,10,-2.71069e-06,-1.96307, , , ,-0.000248974,