File: Figure_codes/Fig_3-5/rawdata_trumpetplot_data/before 10th/20221101_1-115_002_TrumpetPlot_ParaChange_14_CV_C01_4.csv
mode,ox/red,error,control changes,counter inc.,time/s,control/V,Ewe/V,<I>/mA,cycle number,(Q-Qo)/C,I Range,P/W,log(|I|),Tafel slope mV/dec,alpha_eff,dI/d(E-IR),E-IR/V,
2,1,0,1,0,6142.81,2.44065e-05,-0.00070707,24.606,5,0.0000000E+000,10,-1.73982e-05,-1.60896, , , ,-0.00070707,
2,1,0,1,0,6142.81,0.00188327,0.00152721,23.5892,5,7.41966e-05,10,3.60256e-05,-1.62729, , , ,0.00152721,
2,1,0,1,0,6142.81,0.00428592,0.00393115,23.7729,5,0.000168815,10,9.34549e-05,-1.62392, , , ,0.003931148,
2,1,0,1,0,6142.82,0.0066858,0.00638281,24.2202,5,0.00026482,10,0.000154593,-1.61582,0.333978,0.176658,168.167,0.00638281,
2,1,0,1,0,6142.82,0.00908291,0.00874857,24.7286,5,0.000362753,10,0.00021634,-1.6068,0.286754,0.205751,198.47,0.00874857,
2,1,0,1,0,6142.83,0.01148,0.011179,25.2123,5,0.000462699,10,0.000281849,-1.59839,0.291945,0.202093,198.443,0.011179,
2,1,0,1,0,6142.83,0.0138882,0.0135649,25.6849,5,0.000564543,10,0.000348415,-1.59032,0.316583,0.186365,186.287,0.0135649,
2,1,0,1,0,6142.83,0.0162853,0.0159816,26.125,5,0.000668231,10,0.000417519,-1.58294,0.34206,0.172484,175.306,0.0159816,
2,1,0,1,0,6142.84,0.0186824,0.0183527,26.5177,5,0.000773587,10,0.000486671,-1.57646,0.383149,0.153987,158.897,0.0183527,
2,1,0,1,0,6142.84,0.0210878,0.0207534,26.8908,5,0.000880442,10,0.000558076,-1.5704,0.432689,0.136356,142.622,0.0207534,
2,1,0,1,0,6142.85,0.023485,0.0231659,27.2105,5,0.000988694,10,0.000630355,-1.56526,0.480997,0.122662,129.898,0.0231659,
2,1,0,1,0,6142.85,0.0258821,0.025538,27.4879,5,0.00109814,10,0.000701986,-1.56086,0.535646,0.110147,118.023,0.02553799,
2,1,0,1,0,6142.85,0.0282792,0.0279292,27.7617,5,0.00120868,10,0.000775361,-1.55655,0.592179,0.099632,107.801,0.0279292,
2,1,0,1,0,6142.86,0.0306874,0.0303894,28.0281,5,0.00132032,10,0.000851754,-1.55241,0.641722,0.0919401,100.349,0.0303894,
2,1,0,1,0,6142.86,0.0330845,0.0327551,28.2442,5,0.00143288,10,0.000925143,-1.54907,0.709889,0.0831116,91.4713,0.0327551,
2,1,0,1,0,6142.87,0.0354816,0.035141,28.4516,5,0.0015463,10,0.000999818,-1.54589,0.776419,0.0759899,84.3119,0.035141,
2,1,0,1,0,6142.87,0.0378898,0.0375789,28.6443,5,0.00166052,10,0.00107642,-1.54296,0.811076,0.0727429,81.2894,0.0375789,
2,1,0,1,0,6142.87,0.0402869,0.0399574,28.8348,5,0.0017755,10,0.00115216,-1.54008,0.852909,0.069175,77.818,0.0399574,
2,1,0,1,0,6142.88,0.042684,0.0423847,29.027,5,0.00189124,10,0.0012303,-1.5372,0.846887,0.0696669,78.9049,0.0423847,
2,1,0,1,0,6142.88,0.0450811,0.0447769,29.2014,5,0.00200772,10,0.00130755,-1.5346,0.871889,0.0676692,77.124,0.0447769,
2,1,0,1,0,6142.89,0.0474865,0.0471703,29.4011,5,0.00212495,10,0.00138686,-1.53164,0.884579,0.0666984,76.5064,0.0471703,
2,1,0,1,0,6142.89,0.0498836,0.0495604,29.5754,5,0.00224292,10,0.00146577,-1.52907,0.819616,0.071985,83.1527,0.0495604,
2,1,0,1,0,6142.89,0.0522807,0.0519474,29.7586,5,0.0023616,10,0.00154588,-1.52639,0.823886,0.0716119,83.2798,0.0519474,
2,1,0,1,0,6142.9,0.0546889,0.0543726,29.9993,5,0.00248111,10,0.00163114,-1.52289,0.780686,0.0755745,88.4777,0.05437256,
2,1,0,1,0,6142.9,0.057086,0.05675,30.1989,5,0.00260154,10,0.00171379,-1.52001,0.726133,0.0812524,95.8152,0.05675,
2,1,0,1,0,6142.91,0.0594831,0.0591624,30.4249,5,0.00272283,10,0.00180001,-1.51677,0.714579,0.0825661,98.1752,0.0591624,
2,1,0,1,0,6142.91,0.061883,0.0615399,30.6777,5,0.00284505,10,0.0018879,-1.51318,0.647358,0.0911396,109.266,0.0615399,
2,1,0,1,0,6142.91,0.0642857,0.0639586,30.9404,5,0.00296834,10,0.00197891,-1.50947,0.604129,0.0976612,118.104,0.0639586,
2,1,0,1,0,6142.92,0.0666828,0.0663329,31.246,5,0.00309274,10,0.00207264,-1.50521,0.571704,0.1032,125.976,0.0663329,
2,1,0,1,0,6142.92,0.0690799,0.0687379,31.5558,5,0.00321837,10,0.00216908,-1.50092,0.539702,0.10932,134.744,0.0687379,
2,1,0,1,0,6142.93,0.0714881,0.0711355,31.8865,5,0.00334527,10,0.00226826,-1.49639,0.524952,0.112391,139.985,0.0711355,
2,1,0,1,0,6142.93,0.0738852,0.0735542,32.2334,5,0.00347355,10,0.0023709,-1.49169,0.482818,0.122199,153.974,0.0735542,
2,1,0,1,0,6142.93,0.0762823,0.0759476,32.5919,5,0.00360325,10,0.00247528,-1.48689,0.455906,0.129413,165.02,0.07594759,
2,1,0,1,0,6142.94,0.0786849,0.0782953,33.0274,5,0.00373452,10,0.00258589,-1.48113,0.437128,0.134972,174.137,0.0782953,
2,1,0,1,0,6142.94,0.0810876,0.0807512,33.4733,5,0.00386758,10,0.00270301,-1.4753,0.414974,0.142178,185.718,0.0807512,
2,1,0,1,0,6142.95,0.0834847,0.0831128,33.8979,5,0.00400236,10,0.00281735,-1.46983,0.41319,0.142791,189.084,0.0831128,
2,1,0,1,0,6142.95,0.0858818,0.0854902,34.3642,5,0.00413893,10,0.0029378,-1.46389,0.404694,0.145789,195.724,0.0854902,
2,1,0,1,0,6142.95,0.0882872,0.0879323,34.8496,5,0.00427741,10,0.00306441,-1.4578,0.395607,0.149138,202.939,0.0879323,
2,1,0,1,0,6142.96,0.0906843,0.0903044,35.3431,5,0.00441783,10,0.00319164,-1.4517,0.392107,0.150469,207.588,0.0903044,
2,1,0,1,0,6142.96,0.0930814,0.0927529,35.8542,5,0.00456031,10,0.00332559,-1.44546,0.381836,0.154517,216.34,0.0927529,
2,1,0,1,0,6142.97,0.0954841,0.0950784,36.3546,5,0.00470479,10,0.00345653,-1.43944,0.371569,0.158786,225.688,0.0950784,
2,1,0,1,0,6142.97,0.0978867,0.0975078,36.9212,5,0.00485136,10,0.0036001,-1.43272,0.361676,0.163129,235.387,0.0975078,
2,1,0,1,0,6142.97,0.100284,0.0999372,37.5171,5,0.00500029,10,0.00374935,-1.42577,0.349721,0.168706,247.165,0.0999372,
2,1,0,1,0,6142.98,0.102681,0.102357,38.1149,5,0.00515159,10,0.00390133,-1.4189,0.349712,0.16871,251.007,0.102357,
2,1,0,1,0,6142.98,0.105086,0.104773,38.7506,5,0.00530539,10,0.00406001,-1.41172,0.351955,0.167635,253.307,0.104773,
2,1,0,1,0,6142.99,0.107483,0.107182,39.3495,5,0.00546166,10,0.00421755,-1.40506,0.353116,0.167084,256.487,0.107182,
2,1,0,1,0,6142.99,0.109881,0.109522,39.9451,5,0.00562029,10,0.00437487,-1.39854,0.360323,0.163742,255.371,0.109522,
2,1,0,1,0,6142.99,0.112289,0.111963,40.5788,5,0.00578138,10,0.00454333,-1.3917,0.359882,0.163943,259.609,0.111963,
2,1,0,1,0,6143,0.114686,0.114358,41.1984,5,0.00594499,10,0.00471135,-1.38512,0.360444,0.163687,263.173,0.114358,
2,1,0,1,0,6143,0.117083,0.116724,41.8268,5,0.0061111,10,0.00488221,-1.37855,0.363019,0.162526,265.399,0.116724,
2,1,0,1,0,6143.01,0.11948,0.119133,42.4743,5,0.00627978,10,0.00506007,-1.37187,0.364905,0.161686,268.009,0.119133,
2,1,0,1,0,6143.01,0.121888,0.12158,43.1311,5,0.00645104,10,0.00524388,-1.36521,0.362284,0.162856,274.144,0.12158,
2,1,0,1,0,6143.01,0.124285,0.123967,43.7738,5,0.00662492,10,0.0054265,-1.35879,0.362694,0.162672,278.068,0.123967,
2,1,0,1,0,6143.02,0.126682,0.126354,44.4667,5,0.00680148,10,0.00561854,-1.35197,0.359222,0.164244,285.121,0.126354,
2,1,0,1,0,6143.02,0.129088,0.128767,45.1534,5,0.00698077,10,0.00581429,-1.34531,0.356425,0.165533,291.724,0.128767,
2,1,0,1,0,6143.03,0.131485,0.131148,45.8591,5,0.00716287,10,0.00601434,-1.33857,0.354137,0.166602,298.296,0.1311481,
2,1,0,1,0,6143.03,0.133882,0.133549,46.569,5,0.00734781,10,0.00621924,-1.3319,0.347206,0.169928,309.164,0.133549,
2,1,0,1,0,6143.03,0.136279,0.135915,47.3186,5,0.00753565,10,0.00643129,-1.32497,0.343196,0.171914,317.75,0.135915,
2,1,0,1,0,6143.04,0.138687,0.138348,48.1155,5,0.00772659,10,0.00665669,-1.31772,0.3381,0.174504,327.756,0.138348,
2,1,0,1,0,6143.04,0.141085,0.140697,48.8933,5,0.00792068,10,0.00687915,-1.31075,0.332704,0.177335,338.62,0.140697,
2,1,0,1,0,6143.05,0.143482,0.143155,49.7175,5,0.00811797,10,0.00711732,-1.30349,0.330584,0.178472,346.585,0.1431551,
2,1,0,1,0,6143.05,0.145887,0.145525,50.5729,5,0.00831862,10,0.00735962,-1.29608,0.326618,0.180639,356.717,0.1455251,
2,1,0,1,0,6143.05,0.148284,0.147942,51.4404,5,0.00852271,10,0.00761019,-1.2887,0.321282,0.183639,368.882,0.147942,
2,1,0,1,0,6143.06,0.150681,0.150374,52.3454,5,0.00873037,10,0.0078714,-1.28112,0.318635,0.185165,378.442,0.150374,
2,1,0,1,0,6143.06,0.153084,0.15277,53.2642,5,0.00894169,10,0.00813716,-1.27356,0.315619,0.186934,388.723,0.15277,
2,1,0,1,0,6143.07,0.155487,0.15513,54.2079,5,0.00915674,10,0.00840928,-1.26594,0.314882,0.187372,396.457,0.15513,
2,1,0,1,0,6143.07,0.157884,0.157533,55.1688,5,0.00937559,10,0.00869092,-1.25831,0.315107,0.187238,403.188,0.157533,
2,1,0,1,0,6143.07,0.160281,0.159922,56.1307,5,0.00959829,10,0.00897655,-1.2508,0.318404,0.185299,405.95,0.159922,
2,1,0,1,0,6143.08,0.162689,0.162365,57.133,5,0.00982492,10,0.00927643,-1.24311,0.324022,0.182086,405.739,0.162365,
2,1,0,1,0,6143.08,0.165086,0.164738,58.1079,5,0.0100555,10,0.00957256,-1.23576,0.328633,0.179531,406.885,0.164738,
2,1,0,1,0,6143.09,0.167483,0.167143,59.0677,5,0.01029,10,0.00987273,-1.22865,0.336558,0.175304,403.978,0.167143,
2,1,0,1,0,6143.09,0.169886,0.169574,60.0579,5,0.0105283,10,0.0101843,-1.22143,0.344916,0.171056,400.614,0.169574,
2,1,0,1,0,6143.09,0.172286,0.171948,61.0043,5,0.0107706,10,0.0104896,-1.21464,0.355125,0.166138,395.159,0.171948,
2,1,0,1,0,6143.1,0.174683,0.174335,61.9529,5,0.0110166,10,0.0108006,-1.20794,0.371088,0.158992,383.947,0.174335,
2,1,0,1,0,6143.1,0.17708,0.176743,62.8616,5,0.0112663,10,0.0111104,-1.20161,0.388356,0.151923,372.205,0.176743,
2,1,0,1,0,6143.11,0.179488,0.179147,63.7335,5,0.0115196,10,0.0114177,-1.19563,0.41411,0.142474,353.857,0.179147,
2,1,0,1,0,6143.11,0.181885,0.181561,64.5822,5,0.0117763,10,0.0117256,-1.18989,0.44226,0.133406,335.582,0.1815609,
2,1,0,1,0,6143.11,0.184282,0.183954,65.3567,5,0.0120363,10,0.0120226,-1.18471,0.486623,0.121244,308.548,0.183954,
2,1,0,1,0,6143.12,0.186688,0.186323,66.0764,5,0.0122992,10,0.0123116,-1.17995,0.552553,0.106777,274.573,0.1863232,
2,1,0,1,0,6143.12,0.189085,0.188777,66.7047,5,0.0125649,10,0.0125923,-1.17584,0.655796,0.089967,233.413,0.188777,
2,1,0,1,0,6143.13,0.191482,0.191147,67.2143,5,0.0128328,10,0.0128478,-1.17254,0.816611,0.0722498,188.877,0.191147,
2,1,0,1,0,6143.13,0.193879,0.193617,67.612,5,0.0131026,10,0.0130908,-1.16998,1.14769,0.0514076,135.124,0.193617,
2,1,0,1,0,6143.13,0.196287,0.195991,67.9024,5,0.0133737,10,0.0133083,-1.16811,2.15757,0.0273456,72.1022,0.195991,
2,1,0,1,0,6143.14,0.198684,0.198367,68.0006,5,0.0136456,10,0.0134891,-1.16749,562.075,0.000104968,0.276983,0.198367,
2,1,0,1,0,6143.14,0.201081,0.200787,67.9093,5,0.0139174,10,0.0136353,-1.16807,-1.8196,-0.0324246,-85.4062,0.200787,
2,1,0,1,0,6143.15,0.20349,0.203184,67.6146,5,0.0141885,10,0.0137382,-1.16996,-0.887281,-0.0664953,-174.282,0.203184,
2,1,0,1,0,6143.15,0.205887,0.205589,67.0827,5,0.0144579,10,0.0137914,-1.17339,-0.563754,-0.104656,-272.003,0.205589,
2,1,0,1,0,6143.15,0.208284,0.207995,66.3227,5,0.0147247,10,0.0137948,-1.17834,-0.405156,-0.145623,-373.969,0.2079947,
2,1,0,1,0,6143.16,0.210681,0.210382,65.2996,5,0.0149879,10,0.0137378,-1.18509,-0.312386,-0.188869,-477.322,0.210382,
2,1,0,1,0,6143.16,0.213086,0.212788,64.023,5,0.0152465,10,0.0136233,-1.19366,-0.251,-0.23506,-582.289,0.212788,
2,1,0,1,0,6143.17,0.215484,0.215219,62.4858,5,0.0154994,10,0.0134481,-1.20422,-0.210364,-0.280466,-678.313,0.215219,
2,1,0,1,0,6143.17,0.217881,0.217637,60.7081,5,0.0157457,10,0.0132123,-1.21675,-0.180407,-0.327038,-768.851,0.217637,
2,1,0,1,0,6143.17,0.220289,0.220027,58.7569,5,0.0159844,10,0.0129281,-1.23094,-0.157934,-0.373573,-850.067,0.220027,
2,1,0,1,0,6143.18,0.222686,0.222432,56.6079,5,0.016215,10,0.0125914,-1.24712,-0.141753,-0.416216,-913.041,0.222432,
2,1,0,1,0,6143.18,0.225083,0.224829,54.3172,5,0.0164366,10,0.0122121,-1.26506,-0.129412,-0.455908,-960.82,0.224829,
2,1,0,1,0,6143.19,0.227483,0.227242,51.9382,5,0.0166489,10,0.0118026,-1.28451,-0.120231,-0.49072,-990.244,0.227242,
2,1,0,1,0,6143.19,0.229886,0.229652,49.5088,5,0.0168516,10,0.0113698,-1.30532,-0.114186,-0.516702,-995.71,0.229652,
2,1,0,1,0,6143.19,0.232283,0.232037,47.0965,5,0.0170446,10,0.0109281,-1.32701,-0.110108,-0.535837,-983.94,0.232037,
2,1,0,1,0,6143.2,0.23468,0.23444,44.7469,5,0.017228,10,0.0104905,-1.34924,-0.107008,-0.551362,-962.824,0.23444,
2,1,0,1,0,6143.2,0.237088,0.236854,42.4811,5,0.0174022,10,0.0100618,-1.3718,-0.106506,-0.553957,-919.465,0.236854,
2,1,0,1,0,6143.21,0.239485,0.239219,40.2974,5,0.0175675,10,0.00963993,-1.39472,-0.107179,-0.550483,-868.585,0.239219,
2,1,0,1,0,6143.21,0.241882,0.241638,38.2687,5,0.0177244,10,0.00924719,-1.41716,-0.109477,-0.538924,-809.199,0.241638,
2,1,0,1,0,6143.21,0.244285,0.24405,36.4003,5,0.0178735,10,0.00888347,-1.4389,-0.114201,-0.516634,-738.606,0.24405,
2,1,0,1,0,6143.22,0.246687,0.246437,34.7266,5,0.0180156,10,0.0085579,-1.45934,-0.119613,-0.493257,-672.854,0.246437,
2,1,0,1,0,6143.22,0.249085,0.248833,33.1967,5,0.0181512,10,0.00826044,-1.4789,-0.127301,-0.463468,-604.749,0.248833,
2,1,0,1,0,6143.23,0.251482,0.251201,31.8344,5,0.0182811,10,0.00799683,-1.4971,-0.136456,-0.432374,-541.219,0.251201,
2,1,0,1,0,6143.23,0.253887,0.253585,30.6339,5,0.0184059,10,0.00776829,-1.5138,-0.149275,-0.395243,-476.105,0.253585,
2,1,0,1,0,6143.23,0.256284,0.255983,29.5597,5,0.0185261,10,0.00756678,-1.5293,-0.16574,-0.35598,-413.973,0.255983,
2,1,0,1,0,6143.24,0.258681,0.258391,28.6464,5,0.0186424,10,0.00740195,-1.54293,-0.183236,-0.321989,-362.601,0.258391,
2,1,0,1,0,6143.24,0.261084,0.260826,27.8498,5,0.0187553,10,0.00726396,-1.55518,-0.204494,-0.288517,-315.429,0.260826,
2,1,0,1,0,6143.25,0.263487,0.263202,27.1468,5,0.0188652,10,0.00714509,-1.56628,-0.22544,-0.26171,-278.683,0.263202,
2,1,0,1,0,6143.25,0.265884,0.265613,26.5222,5,0.0189724,10,0.00704464,-1.57639,-0.253678,-0.232578,-242.102,0.265613,
2,1,0,1,0,6143.25,0.268281,0.268002,25.9678,5,0.0190773,10,0.00695943,-1.58556,-0.286487,-0.205943,-209.972,0.268002,
2,1,0,1,0,6143.26,0.270686,0.270412,25.529,5,0.0191803,10,0.00690335,-1.59297,-0.317776,-0.185665,-185.664,0.270412,
2,1,0,1,0,6143.26,0.273083,0.272814,25.1285,5,0.0192816,10,0.0068554,-1.59983,-0.361916,-0.163021,-160.272,0.272814,
2,1,0,1,0,6143.27,0.27548,0.275186,24.7448,5,0.0193812,10,0.00680943,-1.60652,-0.395182,-0.149298,-144.672,0.2751863,
2,1,0,1,0,6143.27,0.277889,0.277594,24.4304,5,0.0194795,10,0.00678175,-1.61207,-0.436755,-0.135087,-129.186,0.277594,
2,1,0,1,0,6143.27,0.280286,0.279995,24.1426,5,0.0195767,10,0.00675982,-1.61722,-0.493924,-0.119451,-112.808,0.279995,
2,1,0,1,0,6143.28,0.282683,0.2824,23.8901,5,0.0196727,10,0.00674656,-1.62178,-0.539865,-0.109287,-102.095,0.2824,
2,1,0,1,0,6143.28,0.28508,0.284803,23.6599,5,0.0197678,10,0.00673842,-1.62599,-0.584074,-0.101015,-93.4059,0.284803,
2,1,0,1,0,6143.29,0.287488,0.287189,23.4509,5,0.019862,10,0.00673483,-1.62984,-0.628354,-0.0938961,-86.0273,0.287189,
2,1,0,1,0,6143.29,0.289885,0.289555,23.2497,5,0.0199553,10,0.00673206,-1.63358,-0.687537,-0.0858135,-77.9777,0.2895548,
2,1,0,1,0,6143.29,0.292282,0.291969,23.0669,5,0.0200479,10,0.00673482,-1.63701,-0.756615,-0.0779789,-70.3343,0.291969,
2,1,0,1,0,6143.3,0.294688,0.294403,22.9114,5,0.0201399,10,0.00674517,-1.63995,-0.79703,-0.0740248,-66.2502,0.294403,
2,1,0,1,0,6143.3,0.297085,0.296794,22.7753,5,0.0202312,10,0.00675957,-1.64254,-0.805637,-0.073234,-65.1964,0.296794,
2,1,0,1,0,6143.31,0.299363,0.299095,22.6177,5,0.0203174,10,0.00676482,-1.64555,-0.0880173,-0.670323,-563.94,0.299095,
2,1,0,1,0,6143.31,0.300012,0.299785,22.5573,5,0.0203423,10,0.00676234,-1.64671,0.000482151,122.368,85341.7,0.299785,
2,1,0,1,0,6143.31,0.299243,0.29911,20.2568,5,0.0203692,10,0.00605902,-1.69343,0.0116448,5.06666,2884.28,0.29911,
2,1,0,1,0,6143.31,0.296846,0.296688,13.7256,5,0.020436,10,0.00407224,-1.86247,0.0118751,4.96837,2224.35,0.296688,
2,1,0,1,0,6143.32,0.294449,0.294279,8.72738,5,0.0204801,10,0.00256829,-2.05912,0.00892475,6.61083,1921.51,0.294279,
2,1,0,1,0,6143.32,0.292041,0.2918,4.79597,5,0.0205065,10,0.00139946,-2.31912,0.00796131,7.41084,1508.91,0.2918,
2,1,0,1,0,6143.32,0.289644,0.289437,1.67005,5,0.0205189,10,0.000483373,-2.77727,0.0199979,2.95031,1202.33,0.289437,
2,0,0,1,0,6143.33,0.287247,0.287034,-0.841255,5,0.0205202,10,-0.000241469,-3.07507,0.381842,0.154514,970.524,0.287034,
2,0,0,1,0,6143.33,0.284841,0.28463,-2.87345,5,0.0205125,10,-0.00081787,-2.5416,-0.017692,-3.33484,780.689,0.2846303,
2,0,0,1,0,6143.34,0.282444,0.282195,-4.52607,5,0.0204974,10,-0.00127723,-2.34428,-0.0105011,-5.61848,637.242,0.282195,
2,0,0,1,0,6143.34,0.280047,0.279781,-5.86834,5,0.0204764,10,-0.00164185,-2.23148,-0.02164,-2.72643,531.622,0.279781,
2,0,0,1,0,6143.34,0.27765,0.277373,-6.9979,5,0.0204505,10,-0.00194103,-2.15503,-0.0335351,-1.75935,440.306,0.277373,
2,0,0,1,0,6143.35,0.275242,0.275041,-7.97131,5,0.0204204,10,-0.00219244,-2.09847,-0.0460913,-1.28007,375.491,0.275041,
2,0,0,1,0,6143.35,0.272845,0.272573,-8.76229,5,0.0203868,10,-0.00238837,-2.05738,-0.0613685,-0.961405,316.301,0.272573,
2,0,0,1,0,6143.36,0.270448,0.27025,-9.44712,5,0.0203503,10,-0.00255308,-2.0247,-0.0797413,-0.739893,265.588,0.27025,
2,0,0,1,0,6143.36,0.26804,0.267738,-10.0454,5,0.0203112,10,-0.00268954,-1.99803,-0.0964553,-0.611682,235.033,0.267738,
2,0,0,1,0,6143.36,0.265642,0.265355,-10.5437,5,0.02027,10,-0.00279784,-1.97701,-0.117128,-0.503723,204.483,0.265355,
2,0,0,1,0,6143.37,0.263245,0.262991,-11.0146,5,0.0202268,10,-0.00289673,-1.95803,-0.13698,-0.43072,183.167,0.262991,
2,0,0,1,0,6143.37,0.260843,0.26061,-11.4184,5,0.0201819,10,-0.00297574,-1.9424,-0.157632,-0.37429,165.342,0.26061,
2,0,0,1,0,6143.38,0.258443,0.258189,-11.7945,5,0.0201354,10,-0.0030452,-1.92832,-0.184733,-0.31938,145.879,0.258189,
2,0,0,1,0,6143.38,0.256046,0.255752,-12.1315,5,0.0200875,10,-0.00310267,-1.91608,-0.203868,-0.289402,136.27,0.255752,
2,0,0,1,0,6143.38,0.253649,0.25335,-12.4209,5,0.0200384,10,-0.00314684,-1.90585,-0.226518,-0.260465,125.971,0.25335,
2,0,0,1,0,6143.39,0.25124,0.25094,-12.7361,5,0.019988,10,-0.00319599,-1.89496,-0.248487,-0.237437,117.541,0.25094,
2,0,0,1,0,6143.39,0.248843,0.248537,-13.0103,5,0.0199365,10,-0.00323355,-1.88571,-0.263004,-0.224331,113.465,0.248537,
2,0,0,1,0,6143.4,0.246446,0.2462,-13.2543,5,0.0198839,10,-0.00326321,-1.87764,-0.292303,-0.201845,104.214,0.2462,
2,0,0,1,0,6143.4,0.244041,0.243709,-13.5148,5,0.0198304,10,-0.00329369,-1.86919,-0.30828,-0.191384,100.728,0.243709,
2,0,0,1,0,6143.4,0.241644,0.241349,-13.7356,5,0.0197758,10,-0.00331508,-1.86215,-0.322572,-0.182905,97.9444,0.241349,
2,0,0,1,0,6143.41,0.239247,0.23898,-13.973,5,0.0197204,10,-0.00333927,-1.85471,-0.337922,-0.174596,95.1427,0.2389798,
2,0,0,1,0,6143.41,0.236849,0.236557,-14.1988,5,0.019664,10,-0.00335882,-1.84775,-0.350652,-0.168258,93.1088,0.236557,
2,0,0,1,0,6143.42,0.234441,0.234187,-14.4208,5,0.0196067,10,-0.00337716,-1.84101,-0.369615,-0.159626,89.7106,0.234187,
2,0,0,1,0,6143.42,0.232044,0.231719,-14.6322,5,0.0195486,10,-0.00339057,-1.83469,-0.373143,-0.158116,90.274,0.231719,
2,0,0,1,0,6143.42,0.229647,0.229353,-14.8366,5,0.0194897,10,-0.00340283,-1.82867,-0.386546,-0.152634,88.4155,0.229353,
2,0,0,1,0,6143.43,0.227239,0.226925,-15.0683,5,0.0194299,10,-0.00341937,-1.82194,-0.395671,-0.149114,87.558,0.226925,
2,0,0,1,0,6143.43,0.224842,0.224551,-15.2728,5,0.0193692,10,-0.00342952,-1.81608,-0.401219,-0.147052,87.5261,0.224551,
2,0,0,1,0,6143.44,0.222445,0.222185,-15.467,5,0.0193076,10,-0.00343654,-1.81059,-0.408273,-0.144511,87.3256,0.222185,
2,0,0,1,0,6143.44,0.220047,0.219793,-15.6734,5,0.0192453,10,-0.0034449,-1.80484,-0.413921,-0.142539,87.2753,0.219793,
2,0,0,1,0,6143.44,0.217642,0.217323,-15.9068,5,0.0191821,10,-0.00345691,-1.79842,-0.404985,-0.145684,90.3932,0.217323,
2,0,0,1,0,6143.45,0.215245,0.214929,-16.1126,5,0.0191181,10,-0.00346305,-1.79284,-0.400036,-0.147487,92.7801,0.214929,
2,0,0,1,0,6143.45,0.212848,0.212548,-16.3381,5,0.0190531,10,-0.00347264,-1.7868,-0.412904,-0.14289,91.1172,0.212548,
2,0,0,1,0,6143.46,0.21044,0.210098,-16.5729,5,0.0189873,10,-0.00348193,-1.7806,-0.398098,-0.148205,95.8255,0.210098,
2,0,0,1,0,6143.46,0.208042,0.207744,-16.7796,5,0.0189206,10,-0.00348586,-1.77522,-0.401147,-0.147078,96.4189,0.207744,
2,0,0,1,0,6143.46,0.205645,0.205346,-17.0308,5,0.018853,10,-0.00349721,-1.76876,-0.390608,-0.151047,100.496,0.205346,
2,0,0,1,0,6143.47,0.203246,0.202927,-17.2658,5,0.0187844,10,-0.0035037,-1.76281,-0.379731,-0.155373,104.764,0.202927,
2,0,0,1,0,6143.47,0.200843,0.200554,-17.532,5,0.0187147,10,-0.00351612,-1.75617,-0.383705,-0.153764,105.199,0.200554,
2,0,0,1,0,6143.48,0.198446,0.198154,-17.7843,5,0.0186441,10,-0.00352403,-1.74996,-0.359927,-0.163922,113.912,0.198154,
2,0,0,1,0,6143.48,0.196049,0.195756,-18.0397,5,0.0185724,10,-0.00353138,-1.74377,-0.353314,-0.16699,117.907,0.195756,
2,0,0,1,0,6143.48,0.19364,0.193342,-18.3576,5,0.0184996,10,-0.0035493,-1.73618,-0.342405,-0.17231,123.54,0.193342,
2,0,0,1,0,6143.49,0.191243,0.190956,-18.6637,5,0.0184255,10,-0.00356394,-1.729,-0.324351,-0.181902,132.53,0.190956,
2,0,0,1,0,6143.49,0.188846,0.188553,-18.9704,5,0.0183503,10,-0.00357693,-1.72192,-0.322385,-0.183011,135.71,0.1885532,
2,0,0,1,0,6143.5,0.186444,0.186155,-19.3121,5,0.0182737,10,-0.00359505,-1.71417,-0.312231,-0.188962,142.646,0.186155,
2,0,0,1,0,6143.5,0.184041,0.183754,-19.6589,5,0.0181957,10,-0.00361239,-1.70644,-0.292791,-0.201509,154.952,0.183754,
2,0,0,1,0,6143.5,0.181644,0.181319,-20.0384,5,0.0181163,10,-0.00363334,-1.69814,-0.280175,-0.210583,165.138,0.181319,
2,0,0,1,0,6143.51,0.179247,0.178974,-20.4548,5,0.0180352,10,-0.00366086,-1.68921,-0.269433,-0.218978,175.128,0.178974,
2,0,0,1,0,6143.51,0.176841,0.176563,-20.896,5,0.0179525,10,-0.00368947,-1.67994,-0.255608,-0.230822,188.508,0.176563,
2,0,0,1,0,6143.52,0.174444,0.174103,-21.349,5,0.017868,10,-0.00371692,-1.67062,-0.246178,-0.239664,200.173,0.174103,
2,0,0,1,0,6143.52,0.172047,0.171763,-21.8398,5,0.0177816,10,-0.00375127,-1.66075,-0.233558,-0.252614,216.092,0.171763,
2,0,0,1,0,6143.52,0.169644,0.169374,-22.3764,5,0.0176931,10,-0.00378997,-1.65021,-0.221702,-0.266123,233.084,0.169374,
2,0,0,1,0,6143.53,0.167242,0.166945,-22.9744,5,0.0176023,10,-0.00383547,-1.63876,-0.213111,-0.276851,248.641,0.166945,
2,0,0,1,0,6143.53,0.164845,0.164565,-23.5722,5,0.0175092,10,-0.00387916,-1.6276,-0.203101,-0.290495,267.999,0.164565,
2,0,0,1,0,6143.54,0.162448,0.162165,-24.2262,5,0.0174135,10,-0.00392864,-1.61571,-0.197161,-0.299247,283.861,0.162165,
2,0,0,1,0,6143.54,0.160042,0.159777,-24.9483,5,0.0173151,10,-0.00398617,-1.60296,-0.188378,-0.3132,305.769,0.159777,
2,0,0,1,0,6143.54,0.157645,0.157386,-25.688,5,0.0172138,10,-0.00404292,-1.59027,-0.179301,-0.329055,331.036,0.157386,
2,0,0,1,0,6143.55,0.155248,0.154936,-26.5163,5,0.0171093,10,-0.00410834,-1.57649,-0.175092,-0.336966,349.738,0.154936,
2,0,0,1,0,6143.55,0.152845,0.152596,-27.3939,5,0.0170014,10,-0.0041802,-1.56235,-0.168533,-0.350079,375.037,0.152596,
2,0,0,1,0,6143.56,0.150443,0.15016,-28.3117,5,0.01689,10,-0.00425129,-1.54803,-0.164404,-0.358872,397.39,0.15016,
2,0,0,1,0,6143.56,0.148046,0.147778,-29.2911,5,0.0167747,10,-0.00432859,-1.53326,-0.161963,-0.364281,417.418,0.147778,
2,0,0,1,0,6143.56,0.145648,0.145376,-30.3156,5,0.0166554,10,-0.00440715,-1.51833,-0.155994,-0.37822,448.891,0.145376,
2,0,0,1,0,6143.57,0.14324,0.14295,-31.4201,5,0.0165318,10,-0.00449152,-1.50279,-0.152873,-0.38594,474.495,0.14295,
2,0,0,1,0,6143.57,0.140843,0.14058,-32.6119,5,0.0164036,10,-0.0045846,-1.48662,-0.151376,-0.389758,496.676,0.14058,
2,0,0,1,0,6143.58,0.138446,0.138227,-33.823,5,0.0162707,10,-0.00467527,-1.47079,-0.148921,-0.396183,523.432,0.138227,
2,0,0,1,0,6143.58,0.136041,0.13573,-35.1063,5,0.0161327,10,-0.00476498,-1.45462,-0.150691,-0.391529,536.661,0.13573,
2,0,0,1,0,6143.58,0.133644,0.13342,-36.4089,5,0.0159895,10,-0.00485766,-1.43879,-0.151873,-0.388483,552.01,0.13342,
2,0,0,1,0,6143.59,0.131246,0.130994,-37.7564,5,0.0158411,10,-0.00494588,-1.42301,-0.152876,-0.385933,568.658,0.130994,
2,0,0,1,0,6143.59,0.128849,0.128624,-39.124,5,0.0156872,10,-0.0050323,-1.40756,-0.156442,-0.377137,575.697,0.128624,
2,0,0,1,0,6143.6,0.126441,0.126185,-40.534,5,0.0155277,10,-0.00511479,-1.39218,-0.160582,-0.367414,580.159,0.1261854,
2,0,0,1,0,6143.6,0.124044,0.123795,-41.9496,5,0.0153626,10,-0.00519316,-1.37727,-0.166324,-0.35473,579.165,0.123795,
2,0,0,1,0,6143.6,0.121647,0.121456,-43.2902,5,0.015192,10,-0.00525785,-1.36361,-0.169928,-0.347207,586.537,0.121456,
2,0,0,1,0,6143.61,0.119241,0.119051,-44.6685,5,0.015016,10,-0.00531783,-1.35,-0.176141,-0.334959,584.173,0.119051,
2,0,0,1,0,6143.61,0.116844,0.116595,-46.159,5,0.0148342,10,-0.00538192,-1.33574,-0.181626,-0.324843,583.785,0.116595,
2,0,0,1,0,6143.62,0.114447,0.114222,-47.542,5,0.0146467,10,-0.00543034,-1.32292,-0.187325,-0.314961,582.944,0.114222,
2,0,0,1,0,6143.62,0.11205,0.111809,-48.9217,5,0.0144536,10,-0.00546991,-1.3105,-0.197786,-0.298302,568.428,0.111809,
2,0,0,1,0,6143.62,0.109642,0.109403,-50.2925,5,0.014255,10,-0.00550217,-1.2985,-0.2077,-0.284064,556.032,0.109403,
2,0,0,1,0,6143.63,0.107245,0.107032,-51.5948,5,0.0140511,10,-0.00552231,-1.28739,-0.218422,-0.27012,542.605,0.107032,
2,0,0,1,0,6143.63,0.104848,0.104652,-52.8634,5,0.0138421,10,-0.00553224,-1.27685,-0.231462,-0.254902,524.799,0.104652,
2,0,0,1,0,6143.64,0.10244,0.102252,-54.1076,5,0.013628,10,-0.00553261,-1.26674,-0.243768,-0.242034,509.901,0.102252,
2,0,0,1,0,6143.64,0.100042,0.0998714,-55.2949,5,0.013409,10,-0.00552238,-1.25731,-0.26082,-0.22621,487.217,0.0998714,
2,0,0,1,0,6143.64,0.0976454,0.0975279,-56.4411,5,0.0131854,10,-0.00550458,-1.2484,-0.277794,-0.212388,466.975,0.0975279,
2,0,0,1,0,6143.65,0.0952427,0.0949702,-57.5804,5,0.0129573,10,-0.00546842,-1.23973,-0.297366,-0.198409,444.627,0.0949702,
2,0,0,1,0,6143.65,0.0928428,0.0925705,-58.6286,5,0.0127247,10,-0.00542728,-1.23189,-0.326611,-0.180643,411.949,0.0925705,
2,0,0,1,0,6143.66,0.0904457,0.0901867,-59.601,5,0.0124881,10,-0.00537522,-1.22475,-0.353138,-0.167074,387.433,0.0901867,
2,0,0,1,0,6143.66,0.0880486,0.0877446,-60.4713,5,0.0122479,10,-0.00530603,-1.21845,-0.392832,-0.150191,353.505,0.0877446,
2,0,0,1,0,6143.66,0.0856404,0.0853788,-61.2964,5,0.0120042,10,-0.00523341,-1.21257,-0.444173,-0.132831,316.798,0.0853788,
2,0,0,1,0,6143.67,0.0832433,0.0829696,-62.0226,5,0.0117575,10,-0.00514599,-1.20745,-0.499373,-0.118148,285.084,0.0829696,
2,0,0,1,0,6143.67,0.0808462,0.0805741,-62.6462,5,0.0115081,10,-0.00504767,-1.20311,-0.589039,-0.100163,244.167,0.08057414,
2,0,0,1,0,6143.68,0.0784408,0.0781596,-63.2038,5,0.0112563,10,-0.00493999,-1.19926,-0.712072,-0.0828568,203.707,0.0781596,
2,0,0,1,0,6143.68,0.0760437,0.0757716,-63.6422,5,0.0110025,10,-0.00482227,-1.19626,-0.898098,-0.0656944,162.614,0.0757716,
2,0,0,1,0,6143.68,0.0736466,0.0733623,-63.9796,5,0.0107472,10,-0.00469369,-1.19396,-1.24159,-0.0475197,118.259,0.0733623,
2,0,0,1,0,6143.69,0.0712495,0.0709488,-64.2114,5,0.0104908,10,-0.00455573,-1.19239,-2.03576,-0.0289818,72.3763,0.0709488,
2,0,0,1,0,6143.69,0.0688413,0.0686053,-64.3337,5,0.0102337,10,-0.00441364,-1.19156,-5.40452,-0.0109168,27.3141,0.0686053,
2,0,0,1,0,6143.7,0.0664442,0.06616,-64.3378,5,0.00997629,10,-0.00425659,-1.19153,7.76154,0.00760159,-19.0223,0.06616,
2,0,0,1,0,6143.7,0.0640471,0.0637826,-64.2413,5,0.00971911,10,-0.00409748,-1.19219,2.30376,0.0256103,-63.9909,0.06378261,
2,0,0,1,0,6143.7,0.0616389,0.0613808,-64.0294,5,0.00946259,10,-0.00393018,-1.19362,1.36642,0.0431785,-107.544,0.0613808,
2,0,0,1,0,6143.71,0.0592417,0.0589259,-63.7143,5,0.00920711,10,-0.00375443,-1.19576,0.981507,0.0601116,-149.017,0.0589259,
2,0,0,1,0,6143.71,0.0568446,0.0565538,-63.3047,5,0.00895308,10,-0.00358012,-1.19856,0.800579,0.0736967,-181.618,0.0565538,
2,0,0,1,0,6143.72,0.0544475,0.0541446,-62.8051,5,0.00870089,10,-0.00340055,-1.20201,0.66387,0.0888728,-217.372,0.0541446,
2,0,0,1,0,6143.72,0.0520421,0.0516982,-62.2709,5,0.00845077,10,-0.00321929,-1.20571,0.595606,0.0990587,-240.251,0.0516982,
2,0,0,1,0,6143.72,0.049645,0.0493844,-61.6402,5,0.00820299,10,-0.00304407,-1.21014,0.555882,0.106138,-255.036,0.0493844,
2,0,0,1,0,6143.73,0.0472479,0.0469624,-61.0004,5,0.00795775,10,-0.00286473,-1.21467,0.508456,0.116038,-275.977,0.04696244,
2,0,0,1,0,6143.73,0.0448397,0.0445224,-60.3511,5,0.00771513,10,-0.00268698,-1.21931,0.495594,0.119049,-280.061,0.0445224,
2,0,0,1,0,6143.74,0.0424426,0.0421302,-59.6303,5,0.00747525,10,-0.00251224,-1.22453,0.478243,0.123368,-286.984,0.0421302,
2,0,0,1,0,6143.74,0.0400455,0.0397326,-58.9371,5,0.0072382,10,-0.00234173,-1.22961,0.462059,0.127689,-293.678,0.03973259,
2,0,0,1,0,6143.74,0.0376456,0.0373212,-58.2335,5,0.00700394,10,-0.00217335,-1.23483,0.459711,0.128341,-291.626,0.0373212,
2,0,0,1,0,6143.75,0.035243,0.0349364,-57.5359,5,0.00677246,10,-0.00201009,-1.24006,0.448835,0.131451,-295.055,0.0349364,
2,0,0,1,0,6143.75,0.0328459,0.0325558,-56.8382,5,0.00654377,10,-0.00185041,-1.24536,0.445877,0.132323,-293.405,0.0325558,
2,0,0,1,0,6143.76,0.0304488,0.0301645,-56.114,5,0.00631791,10,-0.00169265,-1.25093,0.438048,0.134688,-294.929,0.0301645,
2,0,0,1,0,6143.76,0.0280406,0.0277352,-55.4209,5,0.00609493,10,-0.00153711,-1.25633,0.426562,0.138315,-298.995,0.0277352,
2,0,0,1,0,6143.76,0.0256435,0.0253333,-54.7036,5,0.00587476,10,-0.00138583,-1.26198,0.418413,0.141009,-300.758,0.02533333,
2,0,0,1,0,6143.77,0.0232463,0.0229506,-53.9663,5,0.0056575,10,-0.00123856,-1.26788,0.397653,0.148371,-312.159,0.0229506,
2,0,0,1,0,6143.77,0.0208437,0.0205276,-53.2157,5,0.00544322,10,-0.00109239,-1.27396,0.38038,0.155108,-321.669,0.0205276,
2,0,0,1,0,6143.78,0.018441,0.0181395,-52.4255,5,0.00523199,10,-0.000950975,-1.28046,0.362087,0.162944,-332.881,0.0181395,
2,0,0,1,0,6143.78,0.0160439,0.0156964,-51.6037,5,0.00502402,10,-0.000809991,-1.28732,0.340463,0.173293,-348.518,0.0156964,
2,0,0,1,0,6143.78,0.0136468,0.0133157,-50.7591,5,0.00481937,10,-0.000675895,-1.29449,0.324145,0.182017,-359.983,0.0133157,
2,0,0,1,0,6143.79,0.0112414,0.0109712,-49.8851,5,0.00461815,10,-0.000547298,-1.30203,0.306274,0.192638,-374.358,0.0109712,
2,0,0,1,0,6143.79,0.00884431,0.00853119,-48.9667,5,0.00442052,10,-0.000417744,-1.3101,0.292263,0.201873,-385.169,0.00853119,
2,0,0,1,0,6143.8,0.0064472,0.00614528,-48.0282,5,0.00422661,10,-0.000295147,-1.3185,0.289553,0.203762,-381.785,0.00614528,
2,0,0,1,0,6143.8,0.00404455,0.00372543,-47.0652,5,0.00403654,10,-0.000175338,-1.3273,0.278825,0.211602,-388.713,0.00372543,
2,0,0,1,0,6143.8,0.0016419,0.00127271,-46.1823,5,0.0038502,10,-5.87767e-05,-1.33552,0.274079,0.215267,-387.514,0.001272709,
2,0,0,1,0,6143.81,-0.000755207,-0.00109942,-45.2231,5,0.00366748,10,4.97193e-05,-1.34464,0.271511,0.217302,-383.253,-0.00109942,
2,0,0,1,0,6143.81,-0.00315231,-0.00354048,-44.2748,5,0.00348861,10,0.000156754,-1.35384,0.265882,0.221903,-383.765,-0.00354048,
2,0,0,1,0,6143.82,-0.00555774,-0.00592003,-43.3685,5,0.00331341,10,0.000256743,-1.36283,0.272152,0.21679,-367.478,-0.00592003,
2,0,0,1,0,6143.82,-0.00795485,-0.00833246,-42.4962,5,0.00314177,10,0.000354098,-1.37165,0.283936,0.207793,-345.477,-0.00833246,
2,0,0,1,0,6143.82,-0.010352,-0.0107078,-41.6923,5,0.00297351,10,0.000446431,-1.37994,0.301285,0.195828,-319.56,-0.0107078,
2,0,0,1,0,6143.83,-0.0127546,-0.0131043,-40.9708,5,0.00280826,10,0.000536893,-1.38753,0.319736,0.184527,-295.762,-0.0131043,
2,0,0,1,0,6143.83,-0.0151573,-0.0155358,-40.2957,5,0.00264582,10,0.000626026,-1.39474,0.346061,0.17049,-268.75,-0.0155358,
2,0,0,1,0,6143.84,-0.0175544,-0.0178719,-39.6748,5,0.00248596,10,0.000709064,-1.40149,0.378406,0.155917,-242.165,-0.0178719,
2,0,0,1,0,6143.84,-0.0199515,-0.0202896,-39.1172,5,0.00232845,10,0.000793672,-1.40763,0.420209,0.140406,-215.113,-0.0202896,
2,0,0,1,0,6143.84,-0.0223597,-0.022702,-38.6465,5,0.00217298,10,0.000877355,-1.41289,0.472308,0.124919,-188.956,-0.022702,
2,0,0,1,0,6143.85,-0.0247568,-0.0251102,-38.2361,5,0.00201927,10,0.000960117,-1.41753,0.546823,0.107896,-161.413,-0.0251102,
2,0,0,1,0,6143.85,-0.0271539,-0.027493,-37.8569,5,0.00186711,10,0.0010408,-1.42186,0.622035,0.09485,-140.547,-0.027493,
2,0,0,1,0,6143.86,-0.0295593,-0.0299425,-37.5591,5,0.00171634,10,0.00112461,-1.42529,0.711311,0.0829454,-121.884,-0.02994249,
2,0,0,1,0,6143.86,-0.0319564,-0.0322977,-37.2979,5,0.00156666,10,0.00120463,-1.42832,0.880457,0.0670107,-97.7708,-0.0322977,
2,0,0,1,0,6143.86,-0.0343535,-0.0346433,-37.0742,5,0.00141796,10,0.00128437,-1.43093,1.0903,0.0541138,-78.5235,-0.0346433,
2,0,0,1,0,6143.87,-0.0367506,-0.0370981,-36.9178,5,0.00127,10,0.00136958,-1.43276,1.35206,0.0436371,-63.0032,-0.0370981,
2,0,0,1,0,6143.87,-0.0391588,-0.0395233,-36.8067,5,0.00112255,10,0.00145472,-1.43407,1.85505,0.031805,-45.7426,-0.0395233,
2,0,0,1,0,6143.88,-0.0415559,-0.0418859,-36.6938,5,0.000975576,10,0.00153695,-1.43541,2.5268,0.0233497,-33.4953,-0.0418859,
2,0,0,1,0,6143.88,-0.043953,-0.0443386,-36.6307,5,0.000828956,10,0.00162415,-1.43615,3.82956,0.0154065,-22.0672,-0.04433858,
2,0,0,1,0,6143.88,-0.0463585,-0.0466842,-36.5967,5,0.000682519,10,0.00170849,-1.43656,11.2127,0.00526189,-7.52784,-0.0466842,
2,0,0,1,0,6143.89,-0.0487556,-0.0490828,-36.5958,5,0.000536141,10,0.00179622,-1.43657,-148.842,-0.000396393,0.566718,-0.0490828,
2,0,0,1,0,6143.89,-0.0511527,-0.0514847,-36.6215,5,0.0003897,10,0.00188545,-1.43626,-6.9315,-0.00851186,12.1765,-0.0514847,
2,0,0,1,0,6143.9,-0.0535498,-0.053878,-36.6361,5,0.000243174,10,0.00197388,-1.43609,-4.11255,-0.0143463,20.5448,-0.053878,
2,0,0,1,0,6143.9,-0.055958,-0.0562809,-36.7135,5,9.64391e-05,10,0.00206627,-1.43517,-3.09687,-0.0190515,27.3264,-0.0562809,
2,0,0,1,0,6143.9,-0.0583551,-0.0586816,-36.793,5,-5.05675e-05,10,0.00215907,-1.43423,-2.12821,-0.0277228,39.8444,-0.0586816,
2,0,0,1,0,6143.91,-0.0607522,-0.0610972,-36.8842,5,-0.000197906,10,0.00225352,-1.43316,-2.0198,-0.0292108,42.0838,-0.0610972,
2,0,0,1,0,6143.91,-0.0631604,-0.0634779,-37.0186,5,-0.000345723,10,0.00234986,-1.43158,-1.79772,-0.0328193,47.4173,-0.0634779,
2,0,0,1,0,6143.92,-0.0655575,-0.0658956,-37.1181,5,-0.000494006,10,0.00244592,-1.43041,-1.56629,-0.0376685,54.6076,-0.0658956,
2,0,0,1,0,6143.92,-0.0679546,-0.0683006,-37.2491,5,-0.000642747,10,0.00254414,-1.42888,-1.51175,-0.0390277,56.7986,-0.06830059,
2,0,0,1,0,6143.92,-0.0703573,-0.0707024,-37.4087,5,-0.00079206,10,0.00264489,-1.42703,-1.32571,-0.0445046,65.01,-0.0707024,
2,0,0,1,0,6143.93,-0.0727571,-0.0730852,-37.5643,5,-0.000942028,10,0.00274539,-1.42522,-1.25872,-0.0468732,68.7414,-0.0730852,
2,0,0,1,0,6143.93,-0.0751543,-0.0754944,-37.7422,5,-0.00109265,10,0.00284932,-1.42317,-1.20603,-0.0489209,72.0816,-0.0754944,
2,0,0,1,0,6143.94,-0.0775514,-0.0778888,-37.9082,5,-0.00124399,10,0.00295262,-1.42127,-1.15075,-0.0512708,75.8925,-0.0778888,
2,0,0,1,0,6143.94,-0.0799595,-0.0803203,-38.102,5,-0.00139601,10,0.00306037,-1.41905,-1.11398,-0.052963,78.7919,-0.0803203,
2,0,0,1,0,6143.94,-0.0823567,-0.0827136,-38.295,5,-0.00154881,10,0.00316752,-1.41686,-1.02804,-0.0573908,85.8254,-0.0827136,
2,0,0,1,0,6143.95,-0.0847538,-0.0850996,-38.499,5,-0.00170242,10,0.00327625,-1.41455,-0.998884,-0.0590659,88.8066,-0.0850996,
2,0,0,1,0,6143.95,-0.0871592,-0.0874865,-38.7319,5,-0.00185688,10,0.00338852,-1.41193,-0.976385,-0.060427,91.3344,-0.0874865,
2,0,0,1,0,6143.96,-0.0895563,-0.0898852,-38.9514,5,-0.0020123,10,0.00350116,-1.40948,-0.937909,-0.0629059,95.6358,-0.0898852,
2,0,0,1,0,6143.96,-0.0919534,-0.0922594,-39.1669,5,-0.00216855,10,0.00361351,-1.40708,-0.916337,-0.0643868,98.5101,-0.0922594,
2,0,0,1,0,6143.96,-0.0943505,-0.0946782,-39.415,5,-0.00232573,10,0.00373175,-1.40434,-0.888617,-0.0663953,102.198,-0.0946782,
2,0,0,1,0,6143.97,-0.0967587,-0.0970906,-39.678,5,-0.00248396,10,0.00385237,-1.40145,-0.838746,-0.0703431,108.72,-0.0970906,
2,0,0,1,0,6143.97,-0.0991558,-0.0994956,-39.9336,5,-0.0026432,10,0.00397322,-1.39866,-1.27037,-0.0464431,71.8126,-0.0994956,
2,0,0,0,0,6143.97,-0.0999548,-0.100305,-40.0416,5,-0.00269515,10,0.00401636,-1.39749,0.0192654,3.06248,-4380.04,-0.100305,
2,0,0,0,1,6143.97,-0.0999548,-0.1004,-39.8259,5,-0.00271908,10,0.00399853,-1.39983,-0.0212794,-2.77263,3605.9,-0.1004,
2,0,0,1,1,6143.98,-0.0979573,-0.0984384,-33.7747,5,-0.00283111,10,0.00332473,-1.47141,-0.0258166,-2.28535,2685.67,-0.0984384,
2,0,0,1,1,6143.98,-0.0955546,-0.096044,-27.4874,5,-0.00295277,10,0.00264,-1.56087,-0.0250103,-2.35903,2474.25,-0.096044,
2,0,0,1,1,6143.98,-0.093152,-0.0935786,-21.9774,5,-0.00305095,10,0.00205661,-1.65802,-0.0227054,-2.5985,2185.3,-0.09357857,
2,0,0,1,1,6143.99,-0.0907548,-0.0912117,-17.0915,5,-0.00312846,10,0.00155895,-1.76722,-0.0192642,-3.06268,1951.44,-0.0912117,
2,0,0,1,1,6143.99,-0.0883577,-0.0887961,-12.7035,5,-0.00318749,10,0.00112802,-1.89608,-0.0151177,-3.90272,1760.56,-0.0887961,
2,0,0,1,1,6144,-0.0859523,-0.0864134,-8.69381,5,-0.0032298,10,0.000751262,-2.06079,-0.00996971,-5.91793,1583.03,-0.0864134,
2,0,0,1,1,6144,-0.0835552,-0.0839957,-5.1061,5,-0.00325693,10,0.00042889,-2.29191,-0.00915849,-6.44211,1434.14,-0.0839957,
2,0,0,1,1,6144,-0.0811581,-0.0815833,-1.84929,5,-0.00327044,10,0.000150871,-2.73299,-0.0270168,-2.18383,1302.33,-0.0815833,
2,1,0,1,1,6144.01,-0.0787555,-0.0791539,1.12486,5,-0.00327151,10,-8.90371e-05,-2.9489,0.101705,0.58011,1192.45,-0.0791539,
2,1,0,1,1,6144.01,-0.0763528,-0.0767966,3.83047,5,-0.00326125,10,-0.000294167,-2.41675,0.0143321,4.11663,1092.64,-0.0767966,
2,1,0,1,1,6144.02,-0.0739557,-0.0743916,6.34629,5,-0.00324059,10,-0.000472111,-2.19748,0.00974545,6.05411,1004.04,-0.0743916,
2,1,0,1,1,6144.02,-0.0715586,-0.0720046,8.61672,5,-0.00321037,10,-0.000620443,-2.06466,0.0184865,3.19152,917.986,-0.0720046,
2,1,0,1,1,6144.02,-0.0691532,-0.0696219,10.6954,5,-0.00317149,10,-0.000744632,-1.9708,0.026895,2.19371,841.037,-0.0696219,
2,1,0,1,1,6144.03,-0.0667561,-0.0672275,12.6148,5,-0.00312465,10,-0.000848059,-1.89912,0.0355617,1.65909,773.839,-0.06722746,
2,1,0,1,1,6144.03,-0.0643589,-0.0648331,14.3853,5,-0.00307042,10,-0.000932646,-1.84208,0.0445748,1.32362,715.739,-0.06483306,
2,1,0,1,1,6144.04,-0.0619563,-0.0623962,16.052,5,-0.00300934,10,-0.00100159,-1.79447,0.0545863,1.08086,656.445,-0.0623962,
2,1,0,1,1,6144.04,-0.0595536,-0.0599965,17.5846,5,-0.00294187,10,-0.00105501,-1.75487,0.0655238,0.900436,601.964,-0.0599965,
2,1,0,1,1,6144.04,-0.0571565,-0.0575979,18.936,5,-0.00286866,10,-0.00109068,-1.72271,0.0774664,0.761621,552.39,-0.0575979,
2,1,0,1,1,6144.05,-0.0547594,-0.0551685,20.2031,5,-0.00279023,10,-0.00111457,-1.69458,0.0916345,0.643862,500.173,-0.0551685,
2,1,0,1,1,6144.05,-0.0523512,-0.0527699,21.3695,5,-0.00270691,10,-0.00112767,-1.6702,0.10531,0.56025,460.985,-0.05276987,
2,1,0,1,1,6144.06,-0.0499541,-0.0503267,22.4212,5,-0.00261919,10,-0.00112838,-1.64934,0.121401,0.485992,420.424,-0.05032669,
2,1,0,1,1,6144.06,-0.047557,-0.0479418,23.3874,5,-0.00252745,10,-0.00112123,-1.63102,0.139865,0.421837,381.308,-0.0479418,
2,1,0,1,1,6144.06,-0.0451544,-0.0455358,24.2529,5,-0.00243206,10,-0.00110437,-1.61524,0.159252,0.370481,347.742,-0.0455358,
2,1,0,1,1,6144.07,-0.0427545,-0.0431149,25.0511,5,-0.00233335,10,-0.00108007,-1.60117,0.18219,0.323838,314.336,-0.0431149,
2,1,0,1,1,6144.07,-0.0403574,-0.0407332,25.7572,5,-0.00223164,10,-0.00104917,-1.5891,0.203333,0.290165,290.133,-0.0407332,
2,1,0,1,1,6144.08,-0.0379603,-0.0383027,26.4173,5,-0.00212722,10,-0.00101185,-1.57811,0.231301,0.255079,261.679,-0.0383027,
2,1,0,1,1,6144.08,-0.0355521,-0.0359338,27.0387,5,-0.00202024,10,-0.000971604,-1.56801,0.261867,0.225305,236.309,-0.0359338,
2,1,0,1,1,6144.08,-0.033155,-0.0335203,27.5618,5,-0.00191096,10,-0.000923879,-1.55969,0.294272,0.200495,214.655,-0.0335203,
2,1,0,1,1,6144.09,-0.0307579,-0.0311397,28.0243,5,-0.00179974,10,-0.000872667,-1.55247,0.3399,0.17358,189.287,-0.0311397,
2,1,0,1,1,6144.09,-0.0283524,-0.0287188,28.4745,5,-0.00168668,10,-0.000817753,-1.54554,0.379579,0.155435,172.158,-0.0287188,
2,1,0,1,1,6144.1,-0.0259553,-0.0262851,28.8651,5,-0.00157193,10,-0.000758724,-1.53963,0.425579,0.138635,155.625,-0.0262851,
2,1,0,1,1,6144.1,-0.0235582,-0.0239204,29.2145,5,-0.00145573,10,-0.000698823,-1.5344,0.488622,0.120748,137.26,-0.0239204,
2,1,0,1,1,6144.1,-0.0211611,-0.0215547,29.5159,5,-0.00133822,10,-0.000636206,-1.52994,0.561522,0.105071,120.712,-0.0215547,
2,1,0,1,1,6144.11,-0.0187529,-0.0191348,29.79,5,-0.00121956,10,-0.000570026,-1.52593,0.649006,0.0909083,105.44,-0.0191348,
2,1,0,1,1,6144.11,-0.0163558,-0.0167383,30.0175,5,-0.00109992,10,-0.000502442,-1.52263,0.74165,0.0795523,93.0185,-0.0167383,
2,1,0,1,1,6144.12,-0.0139587,-0.0142888,30.23,5,-0.000979382,10,-0.00043195,-1.51956,0.870988,0.0677392,79.7656,-0.0142888,
2,1,0,1,1,6144.12,-0.0115505,-0.0119431,30.41,5,-0.000858075,10,-0.000363191,-1.51698,1.03862,0.0568059,67.2638,-0.0119431,
2,1,0,1,1,6144.12,-0.0091534,-0.00950209,30.5584,5,-0.000736111,10,-0.000290368,-1.51487,1.2922,0.0456586,54.3313,-0.00950209,
2,1,0,1,1,6144.13,-0.00675629,-0.00709814,30.666,5,-0.000613633,10,-0.000217671,-1.51334,1.5547,0.0379494,45.3614,-0.00709814,
2,1,0,1,1,6144.13,-0.00435919,-0.00467511,30.7524,5,-0.000490782,10,-0.000143771,-1.51212,2.53119,0.0233091,27.9138,-0.00467511,
2,1,0,1,1,6144.14,-0.00195376,-0.00231041,30.8469,5,-0.000367525,10,-7.1269e-05,-1.51079, , , ,-0.00231041,
2,1,0,1,1,6144.14,-7.54729e-05,-0.000401673,30.8124,5,-0.000271842,10,-1.23765e-05,-1.51127, , , ,-0.000401673,