File: Figure_codes/Fig_3-5/rawdata_trumpetplot_data/before 10th/20221101_1-115_002_TrumpetPlot_ParaChange_07_CV_C01_6.csv
mode,ox/red,error,control changes,counter inc.,time/s,control/V,Ewe/V,<I>/mA,cycle number,(Q-Qo)/C,I Range,P/W,log(|I|),Tafel slope mV/dec,alpha_eff,dI/d(E-IR),E-IR/V,
2,0,0,0,0,8528.86,2.44065e-05,-0.000268062,-1.25083,7,0.0000000E+000,11,3.35299e-07,-2.9028, , , ,-0.000268062,
2,1,0,1,0,8528.92,0.00129787,0.000933426,0.365505,7,-8.70956e-06,11,3.41172e-07,-3.43711, , , ,0.000933426,
2,1,0,1,0,8529,0.00279606,0.00252175,0.679049,7,3.38817e-05,11,1.7124e-06,-3.1681,0.00386785,15.2539,166.219,0.00252175,
2,1,0,1,0,8529.07,0.00429425,0.0040042,0.725681,7,8.7362e-05,11,2.90577e-06,-3.13925,0.0456731,1.29179,35.1582,0.0040042,
2,1,0,1,0,8529.15,0.00579244,0.00547594,0.754622,7,0.000143737,11,4.13227e-06,-3.12227,0.0813367,0.72538,21.38,0.00547594,
2,1,0,1,0,8529.22,0.00729063,0.00698411,0.79131,7,0.000202429,11,5.52659e-06,-3.10165,0.10857,0.54343,16.6507,0.00698411,
2,1,0,1,0,8529.3,0.00878882,0.0085098,0.816898,7,0.000263193,11,6.95165e-06,-3.08783,0.12198,0.483687,15.3053,0.0085098,
2,1,0,1,0,8529.37,0.010287,0.0100062,0.835766,7,0.000325611,11,8.36288e-06,-3.07792,0.156617,0.376716,12.2064,0.0100062,
2,1,0,1,0,8529.45,0.0117852,0.0114587,0.850189,7,0.000389459,11,9.74207e-06,-3.07048,0.180159,0.327489,10.88,0.0114587,
2,1,0,1,0,8529.52,0.0132847,0.0130128,0.867829,7,0.000454517,11,1.12929e-05,-3.06157,0.172943,0.341152,11.6067,0.0130128,
2,1,0,1,0,8529.6,0.0147802,0.0145169,0.884556,7,0.000520642,11,1.2841e-05,-3.05327,0.204064,0.289125,9.98291,0.0145169,
2,1,0,1,0,8529.67,0.0162798,0.0159665,0.900957,7,0.000588276,11,1.43851e-05,-3.0453,0.233439,0.252743,8.82757,0.0159665,
2,1,0,1,0,8529.75,0.017778,0.0175032,0.909392,7,0.00065666,11,1.59172e-05,-3.04125,0.265094,0.222563,7.90109,0.0175032,
2,1,0,1,0,8529.82,0.0192761,0.0189754,0.92129,7,0.000725759,11,1.74818e-05,-3.0356,0.250319,0.235699,8.47788,0.0189754,
2,1,0,1,0,8529.9,0.0207743,0.0204805,0.934498,7,0.000795879,11,1.9139e-05,-3.02942,0.264929,0.222701,8.10482,0.02048053,
2,1,0,1,0,8529.97,0.0222725,0.0219879,0.945206,7,0.000866937,11,2.07831e-05,-3.02447,0.264283,0.223245,8.24514,0.0219879,
2,1,0,1,0,8530.05,0.0237707,0.0234848,0.957997,7,0.000938927,11,2.24984e-05,-3.01864,0.283691,0.207973,7.77739,0.0234848,
2,1,0,1,0,8530.12,0.0252689,0.0249725,0.968634,7,0.00101161,11,2.41892e-05,-3.01384,0.305825,0.192921,7.32263,0.02497253,
2,1,0,1,0,8530.2,0.0267671,0.026484,0.984288,7,0.00108529,11,2.60679e-05,-3.00688,0.227494,0.259348,9.9317,0.026484,
2,1,0,1,0,8530.27,0.0282653,0.0279747,0.998512,7,0.00115997,11,2.79331e-05,-3.00065,0.241401,0.244407,9.48971,0.0279747,
2,1,0,1,0,8530.35,0.0297644,0.0294327,1.00683,7,0.00123574,11,2.96335e-05,-2.99705,0.303191,0.194597,7.63292,0.0294327,
2,1,0,1,0,8530.42,0.0312599,0.0309427,1.01403,7,0.00131217,11,3.13768e-05,-2.99395,0.243994,0.241809,9.6441,0.0309427,
2,1,0,1,0,8530.5,0.0327599,0.0324318,1.0324,7,0.00138957,11,3.34825e-05,-2.98615,0.24066,0.245159,9.90824,0.0324318,
2,1,0,1,0,8530.57,0.034258,0.0339682,1.04866,7,0.00146822,11,3.56211e-05,-2.97937,0.241614,0.244191,9.97876,0.0339682,
2,1,0,1,0,8530.65,0.0357562,0.0354942,1.06151,7,0.00154802,11,3.76774e-05,-2.97408,0.33875,0.17417,7.199,0.03549416,
2,1,0,1,0,8530.72,0.0372544,0.0369353,1.07702,7,0.00162882,11,3.97802e-05,-2.96778,0.269794,0.218686,9.2166,0.0369353,
2,1,0,1,0,8530.8,0.0387526,0.0384388,1.09204,7,0.00171044,11,4.19769e-05,-2.96176,0.221224,0.266698,11.4196,0.0384388,
2,1,0,1,0,8530.87,0.0402508,0.0399498,1.11064,7,0.00179357,11,4.43699e-05,-2.95443,0.206665,0.285486,12.3726,0.0399498,
2,1,0,1,0,8530.95,0.041749,0.0414472,1.13249,7,0.00187824,11,4.69384e-05,-2.94597,0.229425,0.257165,11.3182,0.0414472,
2,1,0,1,0,8531.02,0.0432472,0.0430042,1.14965,7,0.00196419,11,4.94397e-05,-2.93943,0.228743,0.257931,11.5585,0.0430042,
2,1,0,1,0,8531.09,0.0447449,0.0444645,1.16609,7,0.00205121,11,5.18495e-05,-2.93327,0.209865,0.281134,12.8146,0.0444645,
2,1,0,1,0,8531.17,0.0462445,0.0459814,1.18636,7,0.00214003,11,5.45507e-05,-2.92578,0.177589,0.332228,15.3671,0.0459814,
2,1,0,1,0,8531.24,0.04774,0.0474616,1.20678,7,0.00223026,11,5.72759e-05,-2.91837,0.193041,0.305634,14.4273,0.0474616,
2,1,0,1,0,8531.32,0.0492399,0.0489339,1.22834,7,0.00232227,11,6.01077e-05,-2.91068,0.205195,0.287531,13.8009,0.0489339,
2,1,0,1,0,8531.39,0.0507381,0.0503901,1.2453,7,0.00241561,11,6.27508e-05,-2.90473,0.196021,0.300988,14.7069,0.0503901,
2,1,0,1,0,8531.47,0.0522363,0.0519465,1.27237,7,0.00251064,11,6.60952e-05,-2.89539,0.167731,0.351754,17.482,0.0519465,
2,1,0,1,0,8531.54,0.0537345,0.0534547,1.30368,7,0.00260763,11,6.9688e-05,-2.88483,0.18128,0.325463,16.4755,0.0534547,
2,1,0,1,0,8531.62,0.0552327,0.0549218,1.32549,7,0.00270655,11,7.27984e-05,-2.87762,0.201435,0.292898,15.0771,0.05492181,
2,1,0,1,0,8531.69,0.0567309,0.0563767,1.33902,7,0.002807,11,7.54894e-05,-2.87321,0.197629,0.298539,15.6831,0.0563767,
2,1,0,1,0,8531.77,0.0582291,0.0579184,1.37276,7,0.00290912,11,7.95082e-05,-2.8624,0.182996,0.322412,17.2472,0.0579184,
2,1,0,1,0,8531.84,0.0597291,0.05945,1.39867,7,0.00301347,11,8.31511e-05,-2.85428,0.187087,0.315361,17.1545,0.05945,
2,1,0,1,0,8531.92,0.0612246,0.0609387,1.41985,7,0.00311944,11,8.6524e-05,-2.84776,0.205224,0.287491,15.9212,0.0609387,
2,1,0,1,0,8531.99,0.0627241,0.0624694,1.44449,7,0.00322749,11,9.02365e-05,-2.84029,0.196118,0.300839,16.9631,0.0624694,
2,1,0,1,0,8532.07,0.0642219,0.063931,1.46737,7,0.00333706,11,9.38104e-05,-2.83346,0.19787,0.298176,17.1123,0.063931,
2,1,0,1,0,8532.14,0.06572,0.0654114,1.49659,7,0.00344871,11,9.78941e-05,-2.8249,0.191942,0.307384,17.8957,0.0654114,
2,1,0,1,0,8532.22,0.0672182,0.0669532,1.52415,7,0.00356234,11,0.000102047,-2.81697,0.205376,0.287278,17.0296,0.0669532,
2,1,0,1,0,8532.29,0.0687164,0.0684602,1.54453,7,0.00367771,11,0.000105739,-2.8112,0.245527,0.240299,14.4477,0.0684602,
2,1,0,1,0,8532.37,0.0702146,0.069919,1.56094,7,0.00379466,11,0.000109139,-2.80661,0.233316,0.252876,15.4544,0.069919,
2,1,0,1,0,8532.44,0.0717128,0.0713769,1.58931,7,0.00391332,11,0.00011344,-2.79879,0.218257,0.270324,16.753,0.0713769,
2,1,0,1,0,8532.52,0.073211,0.0729201,1.61402,7,0.00403381,11,0.000117694,-2.79209,0.253277,0.232947,14.6476,0.0729201,
2,1,0,1,0,8532.59,0.0747092,0.0744324,1.63213,7,0.00415594,11,0.000121484,-2.78724,0.26037,0.2266,14.4309,0.0744324,
2,1,0,1,0,8532.67,0.0762087,0.0758685,1.65008,7,0.0042797,11,0.000125189,-2.7825,0.252615,0.233557,15.0731,0.0758685,
2,1,0,1,0,8532.74,0.0777042,0.0774047,1.67622,7,0.00440479,11,0.000129748,-2.77567,0.251075,0.234989,15.3606,0.0774047,
2,1,0,1,0,8532.82,0.0792037,0.0789403,1.70129,7,0.00453188,11,0.0001343,-2.76922,0.291769,0.202214,13.3848,0.0789403,
2,1,0,1,0,8532.89,0.0807019,0.080412,1.71617,7,0.00466042,11,0.000138001,-2.76544,0.331608,0.177921,11.8856,0.080412,
2,1,0,1,0,8532.97,0.0822001,0.0819294,1.72946,7,0.00479028,11,0.000141694,-2.76209,0.329817,0.178887,12.1092,0.0819294,
2,1,0,1,0,8533.04,0.0836983,0.0834075,1.75333,7,0.00492134,11,0.000146241,-2.75614,0.33392,0.176689,12.0922,0.0834075,
2,1,0,1,0,8533.12,0.0851965,0.0848632,1.77179,7,0.00505398,11,0.00015036,-2.75159,0.316316,0.186522,12.9012,0.0848632,
2,1,0,1,0,8533.19,0.0866947,0.0863862,1.79215,7,0.00518808,11,0.000154817,-2.74663,0.376354,0.156767,10.9423,0.0863862,
2,1,0,1,0,8533.27,0.0881929,0.0878667,1.80966,7,0.00532365,11,0.000159009,-2.7424,0.364257,0.161973,11.4312,0.0878667,
2,1,0,1,0,8533.34,0.0896911,0.0893471,1.82815,7,0.00546026,11,0.00016334,-2.73799,0.324627,0.181747,12.9932,0.0893471,
2,1,0,1,0,8533.42,0.0911893,0.0908885,1.84986,7,0.00559838,11,0.000168131,-2.73286,0.281909,0.209287,15.0909,0.09088853,
2,1,0,1,0,8533.49,0.0926884,0.0924375,1.87361,7,0.00573861,11,0.000173192,-2.72732,0.300807,0.196139,14.295,0.0924375,
2,1,0,1,0,8533.57,0.0941839,0.0939464,1.88945,7,0.00587994,11,0.000177507,-2.72367,0.33542,0.175899,12.9786,0.09394642,
2,1,0,1,0,8533.64,0.0956838,0.0953701,1.90599,7,0.00602289,11,0.000181775,-2.71988,0.287554,0.205179,15.3366,0.0953701,
2,1,0,1,0,8533.72,0.097182,0.0968626,1.93346,7,0.00616734,11,0.00018728,-2.71366,0.241621,0.244184,18.4284,0.0968626,
2,1,0,1,0,8533.79,0.0986802,0.0983677,1.95666,7,0.00631387,11,0.000192472,-2.70849,0.245009,0.240807,18.424,0.0983677,
2,1,0,1,0,8533.87,0.100178,0.0999091,1.98866,7,0.00646241,11,0.000198685,-2.70144,0.255722,0.230719,17.9139,0.0999091,
2,1,0,1,0,8533.94,0.101677,0.101342,2.01296,7,0.00661299,11,0.000203998,-2.69616,0.229545,0.25703,20.2705,0.101342,
2,1,0,1,0,8534.02,0.103175,0.102839,2.05033,7,0.00676577,11,0.000210853,-2.68818,0.206227,0.286093,22.9377,0.102839,
2,1,0,1,0,8534.09,0.104673,0.104357,2.09108,7,0.0069213,11,0.00021822,-2.67963,0.19735,0.298961,24.3497,0.104357,
2,1,0,1,0,8534.17,0.106171,0.105874,2.12957,7,0.00707983,11,0.000225465,-2.67171,0.192673,0.306218,25.364,0.105874,
2,1,0,1,0,8534.24,0.107669,0.107382,2.16526,7,0.00724113,11,0.00023251,-2.66449,0.181756,0.324612,27.485,0.107382,
2,1,0,1,0,8534.32,0.109168,0.108927,2.20779,7,0.00740551,11,0.000240488,-2.65604,0.166595,0.354153,30.5725,0.108927,
2,1,0,1,0,8534.39,0.110664,0.110339,2.25323,7,0.00757308,11,0.000248619,-2.6472,0.155376,0.379724,33.4393,0.110339,
2,1,0,1,0,8534.47,0.112164,0.111861,2.30574,7,0.00774473,11,0.000257922,-2.63719,0.166428,0.354509,31.832,0.111861,
2,1,0,1,0,8534.54,0.113662,0.113373,2.35292,7,0.00791985,11,0.000266758,-2.62839,0.167287,0.352688,32.3762,0.113373,
2,1,0,1,0,8534.62,0.11516,0.114827,2.40009,7,0.00809824,11,0.000275594,-2.61977,0.167461,0.35232,33.048,0.114827,
2,1,0,1,0,8534.69,0.116658,0.116328,2.45321,7,0.00828066,11,0.000285377,-2.61027,0.155984,0.378243,36.1869,0.116328,
2,1,0,1,0,8534.77,0.118157,0.117861,2.51147,7,0.0084673,11,0.000296003,-2.60007,0.165569,0.356347,34.8631,0.117861,
2,1,0,1,0,8534.84,0.119655,0.119382,2.56171,7,0.00865773,11,0.000305822,-2.59147,0.185787,0.317569,31.7088,0.119382,
2,1,0,1,0,8534.92,0.121153,0.120871,2.60248,7,0.00885173,11,0.000314564,-2.58461,0.183847,0.320919,32.6503,0.120871,
2,1,0,1,0,8534.99,0.122653,0.12236,2.65309,7,0.00904953,11,0.000324632,-2.57625,0.18488,0.319126,33.0264,0.12236,
2,1,0,1,0,8535.07,0.124149,0.123803,2.70438,7,0.00925056,11,0.000334811,-2.56793,0.193597,0.304757,32.1241,0.123803,
2,1,0,1,0,8535.14,0.125648,0.125313,2.74927,7,0.00945559,11,0.000344519,-2.56078,0.215244,0.274107,29.3622,0.125313,
2,1,0,1,0,8535.21,0.127146,0.126848,2.78549,7,0.00966367,11,0.000353334,-2.5551,0.226628,0.260339,28.3216,0.126848,
2,1,0,1,0,8535.29,0.128644,0.128366,2.831,7,0.00987475,11,0.000363403,-2.54806,0.230622,0.255829,28.2999,0.128366,
2,1,0,1,0,8535.36,0.130142,0.129822,2.87643,7,0.0100891,11,0.000373424,-2.54115,0.241485,0.244321,27.3729,0.129822,
2,1,0,1,0,8535.44,0.13164,0.13134,2.91604,7,0.0103067,11,0.000382993,-2.53521,0.291871,0.202144,22.9383,0.13134,
2,1,0,1,0,8535.51,0.133139,0.132842,2.94755,7,0.0105269,11,0.000391557,-2.53054,0.334645,0.176306,20.2681,0.132842,
2,1,0,1,0,8535.59,0.134637,0.134321,2.97889,7,0.0107494,11,0.000400126,-2.52595,0.341777,0.172627,20.0772,0.134321,
2,1,0,1,0,8535.66,0.136135,0.135858,3.01275,7,0.0109742,11,0.000409307,-2.52104,0.362913,0.162573,19.0647,0.135858,
2,1,0,1,0,8535.74,0.137633,0.137341,3.03781,7,0.0112013,11,0.000417215,-2.51744,0.495384,0.1191,14.0679,0.137341,
2,1,0,1,0,8535.81,0.139133,0.138837,3.05679,7,0.0114304,11,0.000424394,-2.51473,0.760507,0.0775798,9.21622,0.138837,
2,1,0,1,0,8535.89,0.140628,0.140325,3.06055,7,0.0116596,11,0.000429471,-2.5142,1.76433,0.0334405,3.98982,0.140325,
2,1,0,1,0,8535.96,0.142128,0.141826,3.06715,7,0.01189,11,0.000435,-2.51327,7.56145,0.00780274,0.931857,0.1418256,
2,1,0,1,0,8536.04,0.143626,0.143347,3.06266,7,0.0121203,11,0.000439023,-2.5139,-0.930868,-0.0633817,-7.54566,0.143347,
2,1,0,1,0,8536.11,0.145124,0.144827,3.04275,7,0.0123497,11,0.000440673,-2.51673,-0.358653,-0.164504,-19.4692,0.144827,
2,1,0,1,0,8536.19,0.146622,0.146302,3.00499,7,0.0125769,11,0.000439637,-2.52216,-0.258167,-0.228534,-26.7424,0.146302,
2,1,0,1,0,8536.26,0.14812,0.14788,2.96314,7,0.0128012,11,0.00043819,-2.52825,-0.2003,-0.294558,-33.9575,0.1478802,
2,1,0,1,0,8536.34,0.149619,0.149304,2.90839,7,0.0130217,11,0.000434235,-2.53635,-0.14902,-0.395919,-44.6941,0.149304,
2,1,0,1,0,8536.41,0.151117,0.150829,2.83505,7,0.0132375,11,0.000427608,-2.54744,-0.118218,-0.499078,-54.869,0.150829,
2,1,0,1,0,8536.49,0.152615,0.152343,2.74187,7,0.0134471,11,0.000417704,-2.56195,-0.0998184,-0.591073,-63.1008,0.152343,
2,1,0,1,0,8536.56,0.154113,0.1538,2.64841,7,0.0136495,11,0.000407327,-2.57701,-0.0918776,-0.642159,-66.2229,0.1538,
2,1,0,1,0,8536.64,0.155613,0.15531,2.54567,7,0.0138446,11,0.000395369,-2.5942,-0.0818818,-0.720551,-71.2746,0.15531,
2,1,0,1,0,8536.71,0.157108,0.156837,2.4317,7,0.0140315,11,0.000381381,-2.61409,-0.0734577,-0.803183,-75.9633,0.156837,
2,1,0,1,0,8536.79,0.158608,0.158307,2.31704,7,0.0142103,11,0.000366804,-2.63507,-0.0692549,-0.851925,-77.0483,0.158307,
2,1,0,1,0,8536.86,0.160106,0.159829,2.20547,7,0.01438,11,0.000352498,-2.6565,-0.0695368,-0.848472,-73.1335,0.159829,
2,1,0,1,0,8536.94,0.161604,0.16134,2.10006,7,0.0145416,11,0.000338824,-2.67777,-0.0699459,-0.843509,-69.1211,0.16134,
2,1,0,1,0,8537.01,0.163102,0.162801,1.99942,7,0.0146957,11,0.000325508,-2.6991,-0.0711369,-0.829386,-64.7272,0.162801,
2,1,0,1,0,8537.09,0.164601,0.16435,1.90631,7,0.0148425,11,0.000313302,-2.71981,-0.0716471,-0.823481,-61.3596,0.16435,
2,1,0,1,0,8537.16,0.166099,0.16579,1.81613,7,0.0149823,11,0.000301096,-2.74085,-0.0761229,-0.775063,-55.1865,0.16579,
2,1,0,1,0,8537.24,0.167597,0.167331,1.7434,7,0.0151161,11,0.000291725,-2.7586,-0.0856494,-0.688855,-46.9267,0.167331,
2,1,0,1,0,8537.31,0.169095,0.168836,1.67362,7,0.0152445,11,0.000282567,-2.77634,-0.0879424,-0.670893,-43.881,0.168836,
2,1,0,1,0,8537.39,0.170593,0.170254,1.60929,7,0.015368,11,0.000273988,-2.79336,-0.0890636,-0.662448,-41.7127,0.170254,
2,1,0,1,0,8537.46,0.172092,0.17179,1.54593,7,0.0154868,11,0.000265576,-2.81081,-0.0955713,-0.61734,-37.4449,0.17179,
2,1,0,1,0,8537.54,0.173588,0.173308,1.49823,7,0.0156012,11,0.000259656,-2.82442,-0.108033,-0.546128,-31.9605,0.173308,
2,1,0,1,0,8537.61,0.175088,0.17483,1.45083,7,0.0157123,11,0.000253648,-2.83838,-0.115411,-0.511216,-28.9866,0.17483,
2,1,0,1,0,8537.69,0.176586,0.176294,1.40913,7,0.0158201,11,0.000248421,-2.85105,-0.11639,-0.506917,-27.8651,0.176294,
2,1,0,1,0,8537.76,0.178084,0.177786,1.36801,7,0.0159248,11,0.000243212,-2.86391,-0.129393,-0.455974,-24.4633,0.177786,
2,1,0,1,0,8537.84,0.179582,0.179298,1.33578,7,0.0160265,11,0.000239502,-2.87426,-0.142759,-0.413283,-21.6496,0.179298,
2,1,0,1,0,8537.91,0.181081,0.180787,1.30465,7,0.0161261,11,0.000235864,-2.8845,-0.157674,-0.374191,-19.1174,0.180787,
2,1,0,1,0,8537.99,0.182579,0.182285,1.2796,7,0.0162236,11,0.000233253,-2.89292,-0.152731,-0.386301,-19.303,0.182285,
2,1,0,1,0,8538.06,0.184077,0.183791,1.25572,7,0.0163191,11,0.00023079,-2.90111,-0.179374,-0.328922,-16.1544,0.183791,
2,1,0,1,0,8538.14,0.185577,0.185287,1.22968,7,0.0164126,11,0.000227843,-2.91021,-0.200935,-0.293627,-14.1231,0.185287,
2,1,0,1,0,8538.21,0.187073,0.186799,1.21152,7,0.0165046,11,0.000226311,-2.91667,-0.239224,-0.24663,-11.6484,0.186799,
2,1,0,1,0,8538.29,0.188572,0.188308,1.19533,7,0.0165954,11,0.000225091,-2.92251,-0.234685,-0.251401,-11.7142,0.188308,
2,1,0,1,0,8538.36,0.19007,0.189797,1.17575,7,0.0166847,11,0.000223155,-2.92968,-0.26457,-0.223004,-10.2466,0.189797,
2,1,0,1,0,8538.44,0.191568,0.191243,1.15641,7,0.0167726,11,0.000221156,-2.93689,-0.266559,-0.221339,-10.0373,0.191243,
2,1,0,1,0,8538.51,0.193066,0.192792,1.14393,7,0.0168595,11,0.000220541,-2.9416,-0.329673,-0.178965,-7.9988,0.192792,
2,1,0,1,0,8538.59,0.194564,0.194278,1.13505,7,0.0169456,11,0.000220516,-2.94498,-0.312598,-0.188741,-8.35626,0.194278,
2,1,0,1,0,8538.66,0.196063,0.195785,1.12015,7,0.0170306,11,0.000219309,-2.95072,-0.283103,-0.208405,-9.13817,0.195785,
2,1,0,1,0,8538.74,0.197561,0.197292,1.10537,7,0.0171147,11,0.000218081,-2.95649,-0.325514,-0.181252,-7.85494,0.197292,
2,1,0,1,0,8538.81,0.199059,0.198753,1.1003,7,0.0171979,11,0.000218688,-2.95849,-0.395217,-0.149285,-6.40852,0.198753,
2,1,0,1,0,8538.89,0.200557,0.200269,1.09197,7,0.0172805,11,0.000218688,-2.96179,-0.372896,-0.158221,-6.7273,0.200269,
2,1,0,1,0,8538.96,0.202057,0.201772,1.08369,7,0.0173625,11,0.000218659,-2.9651,-0.381273,-0.154745,-6.52595,0.201772,
2,1,0,1,0,8539.04,0.203552,0.203247,1.06838,7,0.0174436,11,0.000217145,-2.97128,-0.417791,-0.141219,-5.90437,0.2032472,
2,1,0,1,0,8539.11,0.205052,0.204775,1.06196,7,0.0175243,11,0.000217463,-2.97389,-0.837409,-0.0704554,-2.94459,0.204775,
2,1,0,1,0,8539.19,0.20655,0.20626,1.05706,7,0.0176043,11,0.000218029,-2.9759,-0.589343,-0.100111,-4.13921,0.2062595,
2,1,0,1,0,8539.26,0.208048,0.207719,1.05223,7,0.0176842,11,0.000218568,-2.97789,-0.406555,-0.145122,-5.94527,0.207719,
2,1,0,1,0,8539.33,0.209546,0.209281,1.04485,7,0.0177633,11,0.000218666,-2.98095,-0.475475,-0.124086,-5.06068,0.209281,
2,1,0,1,0,8539.41,0.211044,0.210741,1.03696,7,0.0178417,11,0.000218531,-2.98424,-0.53408,-0.11047,-4.47291,0.210741,
2,1,0,1,0,8539.48,0.212543,0.212224,1.03397,7,0.0179198,11,0.000219433,-2.98549,-0.723322,-0.0815681,-3.2808,0.212224,
2,1,0,1,0,8539.56,0.214041,0.213766,1.02686,7,0.0179975,11,0.000219508,-2.98849,-0.683824,-0.0862795,-3.45773,0.213766,
2,1,0,1,0,8539.63,0.215539,0.215268,1.02146,7,0.0180748,11,0.000219889,-2.99078,-0.641975,-0.091904,-3.66507,0.215268,
2,1,0,1,0,8539.71,0.217037,0.216767,1.01418,7,0.0181515,11,0.000219841,-2.99388,-0.686798,-0.0859059,-3.40973,0.216767,
2,1,0,1,0,8539.78,0.218536,0.21825,1.01053,7,0.0182281,11,0.000220549,-2.99545,-3.86068,-0.0152823,-0.602439,0.21825,
2,1,0,1,0,8539.86,0.220032,0.219771,1.00763,7,0.0183042,11,0.000221448,-2.9967,-0.848874,-0.0695038,-2.73175,0.219771,
2,1,0,1,0,8539.93,0.221532,0.221268,1.0006,7,0.0183803,11,0.000221401,-2.99974,-0.705841,-0.0835883,-3.26642,0.2212677,
2,1,0,1,0,8540.01,0.22303,0.22275,0.991452,7,0.0184558,11,0.000220846,-3.00373,-0.775263,-0.0761032,-2.96027,0.2227502,
2,1,0,1,0,8540.08,0.224528,0.224246,0.995511,7,0.0185309,11,0.00022324,-3.00195,-0.898393,-0.0656728,-2.54783,0.224246,
2,1,0,1,0,8540.16,0.226026,0.22576,0.990375,7,0.0186058,11,0.000223587,-3.0042,-0.759309,-0.0777023,-3.00385,0.22576,
2,1,0,1,0,8540.23,0.227525,0.227246,0.985452,7,0.0186804,11,0.00022394,-3.00636,-0.554113,-0.106477,-4.08753,0.227246,
2,1,0,1,0,8540.31,0.229023,0.228741,0.980448,7,0.0187548,11,0.000224268,-3.00858,-0.809655,-0.0728705,-2.79942,0.228741,
2,1,0,1,0,8540.38,0.230521,0.230251,0.979016,7,0.0188287,11,0.000225419,-3.00921,-1.02803,-0.0573913,-2.20222,0.230251,
2,1,0,1,0,8540.46,0.232019,0.231754,0.977261,7,0.0189025,11,0.000226484,-3.00999,-1.07561,-0.0548525,-2.09035,0.231754,
2,1,0,1,0,8540.53,0.233517,0.233215,0.972322,7,0.0189761,11,0.00022676,-3.01219,-1.10196,-0.053541,-2.02514,0.233215,
2,1,0,1,0,8540.61,0.235016,0.234755,0.972211,7,0.0190496,11,0.000228232,-3.01224,-1.21031,-0.048748,-1.84186,0.234755,
2,1,0,1,0,8540.68,0.236512,0.236221,0.965166,7,0.0191224,11,0.000227993,-3.0154,-1.54599,-0.0381633,-1.43845,0.236221,
2,1,0,1,0,8540.76,0.238012,0.237785,0.963683,7,0.0191953,11,0.000229149,-3.01607,-2.93829,-0.0200797,-0.752546,0.237785,
2,1,0,1,0,8540.83,0.23951,0.239234,0.961603,7,0.0192681,11,0.000230048,-3.017,-1.01451,-0.0581559,-2.17762,0.239234,
2,1,0,1,0,8540.91,0.241008,0.240753,0.956718,7,0.0193405,11,0.000230333,-3.01922,-1.00549,-0.0586776,-2.19148,0.240753,
2,1,0,1,0,8540.98,0.242506,0.242231,0.951323,7,0.0194126,11,0.00023044,-3.02167,-1.25783,-0.046906,-1.75114,0.242231,
2,1,0,1,0,8541.06,0.244005,0.243668,0.951548,7,0.0194846,11,0.000231861,-3.02157,-1.55864,-0.0378534,-1.40568,0.243668,
2,1,0,1,0,8541.13,0.245503,0.245202,0.952459,7,0.0195565,11,0.000233545,-3.02115,-1.28247,-0.0460048,-1.70512,0.245202,
2,1,0,1,0,8541.21,0.247001,0.246721,0.947565,7,0.0196282,11,0.000233784,-3.02339,-0.882989,-0.0668185,-2.46715,0.246721,
2,1,0,1,0,8541.28,0.248501,0.248183,0.940723,7,0.0196997,11,0.000233471,-3.02654,-0.916049,-0.064407,-2.3755,0.248183,
2,1,0,1,0,8541.36,0.249997,0.249687,0.94344,7,0.0197707,11,0.000235565,-3.02529,-2.97253,-0.0198484,-0.731088,0.249687,
2,1,0,1,0,8541.43,0.251496,0.251246,0.937769,7,0.0198419,11,0.000235611,-3.0279,-2.04675,-0.0288262,-1.05791,0.251246,
2,1,0,1,0,8541.51,0.252994,0.252688,0.936469,7,0.0199128,11,0.000236635,-3.02851,-0.91458,-0.0645105,-2.3542,0.252688,
2,1,0,1,0,8541.58,0.254492,0.254182,0.933764,7,0.0199836,11,0.000237346,-3.02976,-1.58977,-0.0371123,-1.35556,0.2541818,
2,1,0,1,0,8541.66,0.25599,0.255717,0.931069,7,0.0200539,11,0.00023809,-3.03102,-1.50259,-0.0392655,-1.42992,0.255717,
2,1,0,1,0,8541.73,0.257488,0.257206,0.930016,7,0.0201243,11,0.000239206,-3.03151,-1.80419,-0.0327017,-1.18491,0.257206,
2,1,0,1,0,8541.81,0.258987,0.258733,0.930459,7,0.0201947,11,0.000240741,-3.0313,-1.06836,-0.0552249,-1.99582,0.258733,
2,1,0,1,0,8541.88,0.260485,0.260202,0.928398,7,0.0202647,11,0.000241571,-3.03227,-1.06376,-0.0554635,-2.00646,0.260202,
2,1,0,1,0,8541.96,0.261983,0.261712,0.923739,7,0.0203344,11,0.000241753,-3.03445,-1.37163,-0.0430146,-1.55134,0.261712,
2,1,0,1,0,8542.03,0.263481,0.263197,0.921825,7,0.0204042,11,0.000242622,-3.03535,5.75594,0.0102503,0.368233,0.263197,
2,1,0,1,0,8542.11,0.264981,0.264726,0.920088,7,0.0204739,11,0.000243571,-3.03617,-2.41701,-0.0244103,-0.878106,0.2647261,
2,1,0,1,0,8542.18,0.266476,0.26621,0.916606,7,0.0205432,11,0.00024401,-3.03782,-4.46051,-0.0132272,-0.474167,0.26621,
2,1,0,1,0,8542.26,0.267976,0.267666,0.909625,7,0.0206124,11,0.000243476,-3.04114,-3.17279,-0.0185956,-0.664102,0.267666,
2,1,0,1,0,8542.33,0.269474,0.269208,0.913398,7,0.0206815,11,0.000245894,-3.03934,-5.47107,-0.010784,-0.38385,0.269208,
2,1,0,1,0,8542.41,0.270972,0.270662,0.915778,7,0.0207505,11,0.000247866,-3.03821,-1.53944,-0.0383257,-1.3616,0.270662,
2,1,0,1,0,8542.48,0.27247,0.272194,0.909893,7,0.0208194,11,0.000247668,-3.04101,-1.07565,-0.0548506,-1.94265,0.272194,
2,1,0,1,0,8542.56,0.273968,0.273691,0.903545,7,0.020888,11,0.000247292,-3.04405,-1.0713,-0.0550731,-1.94917,0.273691,
2,1,0,1,0,8542.63,0.275467,0.275173,0.903216,7,0.0209564,11,0.00024854,-3.04421,-1.08406,-0.0544249,-1.9218,0.275173,
2,1,0,1,0,8542.71,0.276965,0.276677,0.904191,7,0.0210248,11,0.000250169,-3.04374,-1.12824,-0.0522937,-1.8502,0.276677,
2,1,0,1,0,8542.78,0.278463,0.278197,0.902896,7,0.021093,11,0.000251183,-3.04436,-0.922964,-0.0639245,-2.24664,0.278197,
2,1,0,1,0,8542.86,0.279961,0.2797,0.899418,7,0.0211611,11,0.000251568,-3.04604,-1.35305,-0.0436052,-1.53178,0.2797,
2,1,0,1,0,8542.93,0.28146,0.281148,0.896835,7,0.021229,11,0.000252143,-3.04729,-3.03861,-0.0194168,-0.6809,0.2811476,
2,1,0,1,0,8543.01,0.282956,0.282711,0.896079,7,0.0212967,11,0.000253331,-3.04765,-2.02834,-0.0290878,-1.01509,0.282711,
2,1,0,1,0,8543.08,0.284456,0.284166,0.895564,7,0.0213645,11,0.000254489,-3.0479,-2.89259,-0.020397,-0.712115,0.284166,
2,1,0,1,0,8543.16,0.285954,0.285667,0.891997,7,0.021432,11,0.000254815,-3.04964,-0.971346,-0.0607404,-2.11525,0.285667,
2,1,0,1,0,8543.23,0.287452,0.287191,0.887047,7,0.0214992,11,0.000254752,-3.05205,-2.47268,-0.0238608,-0.829309,0.287191,
2,1,0,1,0,8543.31,0.28895,0.288648,0.887673,7,0.0215664,11,0.000256225,-3.05175,6.77204,0.00871229,0.301606,0.288648,
2,1,0,1,0,8543.38,0.290449,0.290221,0.887,7,0.0216335,11,0.000257426,-3.05208,-1.26795,-0.0465317,-1.61226,0.290221,
2,1,0,1,0,8543.45,0.291947,0.29173,0.884955,7,0.0217005,11,0.000258168,-3.05308,-1.27483,-0.0462806,-1.59733,0.29173,
2,1,0,1,0,8543.53,0.293445,0.293153,0.879176,7,0.0217672,11,0.000257733,-3.05592,-1.21874,-0.0484105,-1.66585,0.293153,
2,1,0,1,0,8543.6,0.294943,0.294689,0.883731,7,0.0218338,11,0.000260426,-3.05368,-2.51108,-0.0234958,-0.808036,0.294689,
2,1,0,1,0,8543.68,0.296441,0.296172,0.883906,7,0.0219003,11,0.000261788,-3.05359,-3.7637,-0.0156761,-0.537633,0.296172,
2,1,0,1,0,8543.75,0.29794,0.297681,0.877765,7,0.0219668,11,0.000261294,-3.05662,-1.31191,-0.0449725,-1.53671,0.297681,
2,1,0,1,0,8543.83,0.299436,0.29916,0.872318,7,0.022033,11,0.000260963,-3.05933,-0.000820764,-71.8842,-495.694,0.29916,
2,1,0,1,0,8543.87,0.299739,0.299443,0.353491,7,0.0220642,11,0.000105851,-3.45162,0.0016267,36.2697,856.957,0.299443,
2,0,0,1,0,8543.95,0.298239,0.297952,-0.132648,7,0.0220636,11,-3.95229e-05,-3.8773,0.00621286,9.49643,280.144,0.297952,
2,0,0,1,0,8544.02,0.296741,0.296459,-0.19117,7,0.0220506,11,-5.66741e-05,-3.71858,-0.00976271,-6.0434,36.3095,0.296459,
2,0,0,1,0,8544.1,0.295243,0.294963,-0.227798,7,0.022034,11,-6.7192e-05,-3.64245,-0.0235018,-2.51044,21.1272,0.2949627,
2,0,0,1,0,8544.17,0.293745,0.29338,-0.258323,7,0.0220152,11,-7.57867e-05,-3.58784,-0.033392,-1.76689,17.3257,0.29338,
2,0,0,1,0,8544.25,0.292246,0.291969,-0.2802,7,0.0219946,11,-8.18097e-05,-3.55253,-0.0432282,-1.36485,14.7494,0.291969,
2,0,0,1,0,8544.32,0.290748,0.290417,-0.301226,7,0.0219721,11,-8.74812e-05,-3.52111,-0.0517908,-1.1392,13.2053,0.290417,
2,0,0,1,0,8544.4,0.28925,0.288945,-0.318161,7,0.0219482,11,-9.19312e-05,-3.49735,-0.0626611,-0.941573,11.6969,0.2889452,
2,0,0,1,0,8544.47,0.287752,0.287444,-0.335205,7,0.0219231,11,-9.63527e-05,-3.47469,-0.0780148,-0.756267,9.88827,0.287444,
2,0,0,1,0,8544.55,0.286254,0.28596,-0.349376,7,0.021897,11,-9.99076e-05,-3.45671,-0.0806427,-0.731622,9.95529,0.28596,
2,0,0,1,0,8544.62,0.284754,0.284436,-0.36189,7,0.0218696,11,-0.000102935,-3.44142,-0.0839128,-0.703111,9.86251,0.284436,
2,0,0,1,0,8544.7,0.283259,0.282929,-0.376437,7,0.0218413,11,-0.000106505,-3.42431,-0.10213,-0.577697,8.45882,0.282929,
2,0,0,1,0,8544.77,0.281759,0.281477,-0.388599,7,0.021812,11,-0.000109382,-3.4105,-0.122972,-0.479785,7.24372,0.281477,
2,0,0,1,0,8544.85,0.280261,0.280009,-0.39467,7,0.021782,11,-0.000110511,-3.40377,-0.130786,-0.451118,7.00092,0.280009,
2,0,0,1,0,8544.92,0.278763,0.278469,-0.406721,7,0.0217512,11,-0.000113259,-3.3907,-0.128813,-0.458028,7.27822,0.278469,
2,0,0,1,0,8545,0.277264,0.27697,-0.417945,7,0.0217196,11,-0.000115758,-3.37888,-0.144359,-0.408704,6.70026,0.27697,
2,0,0,1,0,8545.07,0.275766,0.275479,-0.428238,7,0.0216873,11,-0.000117971,-3.36831,-0.197253,-0.299108,4.98559,0.275479,
2,0,0,1,0,8545.15,0.274268,0.273953,-0.436557,7,0.0216542,11,-0.000119596,-3.35996,-0.177921,-0.331608,5.66799,0.273953,
2,0,0,1,0,8545.22,0.27277,0.272475,-0.446203,7,0.0216206,11,-0.000121579,-3.35047,-0.164251,-0.359207,6.27478,0.272475,
2,0,0,1,0,8545.3,0.271272,0.270961,-0.457917,7,0.0215862,11,-0.000124078,-3.33921,-0.172232,-0.342562,6.0721,0.270961,
2,0,0,1,0,8545.37,0.269774,0.26946,-0.465342,7,0.0215511,11,-0.000125391,-3.33223,-0.185718,-0.317685,5.72394,0.26946,
2,0,0,1,0,8545.45,0.268274,0.267963,-0.472534,7,0.0215154,11,-0.000126622,-3.32557,-0.212164,-0.278086,5.10878,0.2679632,
2,0,0,1,0,8545.52,0.266779,0.266435,-0.476877,7,0.0214794,11,-0.000127056,-3.32159,-0.207919,-0.283765,5.29358,0.266435,
2,0,0,1,0,8545.6,0.265279,0.264941,-0.48589,7,0.0214426,11,-0.000128732,-3.31346,-0.167297,-0.352666,6.65985,0.264941,
2,0,0,1,0,8545.67,0.263781,0.263517,-0.4928,7,0.0214054,11,-0.000129862,-3.30733,-0.230029,-0.256489,4.93909,0.263517,
2,0,0,1,0,8545.75,0.262283,0.261999,-0.500511,7,0.0213675,11,-0.000131134,-3.30059,-0.284017,-0.207734,4.04879,0.261999,
2,0,0,1,0,8545.82,0.260784,0.260494,-0.503409,7,0.0213292,11,-0.000131135,-3.29808,-0.25962,-0.227255,4.49907,0.260494,
2,0,0,1,0,8545.89,0.259286,0.258983,-0.513588,7,0.0212904,11,-0.000133011,-3.28938,-0.23136,-0.255014,5.13052,0.258983,
2,0,0,1,0,8545.97,0.257788,0.257501,-0.525536,7,0.021251,11,-0.000135326,-3.2794,-0.285902,-0.206364,4.20609,0.257501,
2,0,0,1,0,8546.04,0.25629,0.255992,-0.529651,7,0.021211,11,-0.000135586,-3.27601,-0.370784,-0.159122,3.26563,0.255992,
2,0,0,1,0,8546.12,0.25479,0.254502,-0.531317,7,0.0211706,11,-0.000135221,-3.27465,-0.267711,-0.220387,4.5889,0.2545017,
2,0,0,1,0,8546.19,0.253294,0.253001,-0.541348,7,0.0211298,11,-0.000136961,-3.26652,-0.266936,-0.221027,4.66769,0.253001,
2,0,0,1,0,8546.27,0.251795,0.251435,-0.544846,7,0.0210885,11,-0.000136993,-3.26373,-0.265837,-0.22194,4.74967,0.251435,
2,0,0,1,0,8546.34,0.250297,0.25,-0.550745,7,0.0210467,11,-0.000137686,-3.25905,-0.415538,-0.141985,3.05303,0.25,
2,0,0,1,0,8546.42,0.248799,0.248467,-0.557342,7,0.0210043,11,-0.000138481,-3.25388,-0.372925,-0.158209,3.45494,0.248467,
2,0,0,1,0,8546.49,0.247301,0.246969,-0.56761,7,0.0209617,11,-0.000140182,-3.24595,-0.278429,-0.211903,4.68687,0.246969,
2,0,0,1,0,8546.57,0.245802,0.24551,-0.570666,7,0.0209186,11,-0.000140104,-3.24362,-0.28375,-0.20793,4.62472,0.24551,
2,0,0,1,0,8546.64,0.244304,0.244045,-0.579122,7,0.0208748,11,-0.000141332,-3.23723,-0.337821,-0.174649,3.92706,0.2440452,
2,0,0,1,0,8546.72,0.242806,0.242477,-0.58212,7,0.0208306,11,-0.000141151,-3.23499,-0.369676,-0.159599,3.63931,0.242477,
2,0,0,1,0,8546.79,0.241308,0.241005,-0.589319,7,0.0207862,11,-0.000142029,-3.22965,-0.363974,-0.162099,3.73294,0.241005,
2,0,0,1,0,8546.87,0.23981,0.239516,-0.595263,7,0.0207413,11,-0.000142575,-3.22529,-0.249936,-0.23606,5.47086,0.239516,
2,0,0,1,0,8546.94,0.23831,0.238024,-0.602798,7,0.0206957,11,-0.000143481,-3.21983,-0.275376,-0.214253,5.02716,0.238024,
2,0,0,1,0,8547.02,0.236815,0.236496,-0.606472,7,0.0206499,11,-0.000143429,-3.21719,-0.390817,-0.150966,3.57713,0.236496,
2,0,0,1,0,8547.09,0.235315,0.235025,-0.609181,7,0.0206036,11,-0.000143173,-3.21525,-0.302477,-0.195056,4.66725,0.235025,
2,0,0,1,0,8547.17,0.233817,0.233465,-0.619685,7,0.0205569,11,-0.000144675,-3.20783,-0.319683,-0.184558,4.45744,0.233465,
2,0,0,1,0,8547.24,0.232319,0.23201,-0.626228,7,0.0205097,11,-0.000145291,-3.20327,-0.330165,-0.178699,4.3544,0.23201,
2,0,0,1,0,8547.32,0.230821,0.230535,-0.631157,7,0.0204619,11,-0.000145504,-3.19986,-0.478708,-0.123248,3.02139,0.230535,
2,0,0,1,0,8547.39,0.229322,0.228994,-0.636081,7,0.0204139,11,-0.000145659,-3.19649,-0.412273,-0.143109,3.5646,0.228994,
2,0,0,1,0,8547.47,0.227824,0.227509,-0.642406,7,0.0203655,11,-0.000146153,-3.19219,-0.355388,-0.166016,4.17215,0.227509,
2,0,0,1,0,8547.54,0.226326,0.226024,-0.648035,7,0.0203165,11,-0.000146471,-3.1884,-0.394481,-0.149564,3.78501,0.226024,
2,0,0,1,0,8547.62,0.224828,0.224498,-0.654925,7,0.020267,11,-0.000147029,-3.18381,-0.603877,-0.0977021,2.48915,0.224498,
2,0,0,1,0,8547.69,0.22333,0.223006,-0.665598,7,0.020217,11,-0.000148432,-3.17679,-0.404768,-0.145763,3.76883,0.223006,
2,0,0,1,0,8547.77,0.22183,0.221568,-0.66845,7,0.0201668,11,-0.000148107,-3.17493,-0.360686,-0.163577,4.25302,0.221568,
2,0,0,1,0,8547.84,0.220335,0.220026,-0.673886,7,0.020116,11,-0.000148273,-3.17141,-0.268201,-0.219984,5.77547,0.2200264,
2,0,0,1,0,8547.92,0.218835,0.218526,-0.681545,7,0.0200645,11,-0.000148936,-3.16651,-0.324232,-0.181968,4.82901,0.218526,
2,0,0,1,0,8547.99,0.217337,0.217046,-0.687419,7,0.0200126,11,-0.000149202,-3.16278,-0.435809,-0.13538,3.64092,0.217046,
2,0,0,1,0,8548.07,0.215839,0.215548,-0.691119,7,0.0199605,11,-0.000148969,-3.16045,-0.325553,-0.18123,4.9176,0.215548,
2,0,0,1,0,8548.14,0.21434,0.214044,-0.701299,7,0.0199077,11,-0.000150109,-3.1541,-0.266056,-0.221758,6.0444,0.214044,
2,0,0,1,0,8548.22,0.212842,0.212521,-0.706161,7,0.0198543,11,-0.000150074,-3.1511,-0.306973,-0.1922,5.29951,0.212521,
2,0,0,1,0,8548.29,0.211344,0.211091,-0.715854,7,0.0198004,11,-0.00015111,-3.14518,-0.386194,-0.152773,4.26264,0.211091,
2,0,0,1,0,8548.37,0.209846,0.209526,-0.717407,7,0.0197461,11,-0.000150315,-3.14423,-0.422505,-0.139643,3.93118,0.209526,
2,0,0,1,0,8548.44,0.208348,0.20804,-0.731409,7,0.0196912,11,-0.000152163,-3.13584,-0.257832,-0.228831,6.52006,0.20804,
2,0,0,1,0,8548.52,0.20685,0.206553,-0.743333,7,0.0196356,11,-0.000153538,-3.12882,-0.271226,-0.217531,6.25991,0.206553,
2,0,0,1,0,8548.59,0.20535,0.205015,-0.744969,7,0.0195792,11,-0.00015273,-3.12786,-0.368819,-0.15997,4.64251,0.205015,
2,0,0,1,0,8548.67,0.203855,0.203525,-0.752128,7,0.0195226,11,-0.000153077,-3.12371,-0.310156,-0.190227,5.61504,0.203525,
2,0,0,1,0,8548.74,0.202355,0.202027,-0.759949,7,0.0194653,11,-0.00015353,-3.11922,-0.306705,-0.192367,5.72333,0.202027,
2,0,0,1,0,8548.82,0.200857,0.200538,-0.768994,7,0.0194073,11,-0.000154213,-3.11408,-0.280989,-0.209973,6.30306,0.200538,
2,0,0,1,0,8548.89,0.199359,0.199032,-0.779215,7,0.0193486,11,-0.000155089,-3.10834,-0.325117,-0.181473,5.51385,0.199032,
2,0,0,1,0,8548.97,0.19786,0.197559,-0.789152,7,0.0192893,11,-0.000155904,-3.10284,-0.298268,-0.197809,6.09411,0.197559,
2,0,0,1,0,8549.04,0.196362,0.196047,-0.79737,7,0.0192294,11,-0.000156322,-3.09834,-0.273162,-0.215989,6.73853,0.196047,
2,0,0,1,0,8549.12,0.194864,0.194568,-0.810941,7,0.0191685,11,-0.000157783,-3.09101,-0.241836,-0.243967,7.71143,0.194568,
2,0,0,1,0,8549.19,0.193366,0.193027,-0.822006,7,0.0191068,11,-0.00015867,-3.08512,-0.227246,-0.259631,8.33424,0.193027,
2,0,0,1,0,8549.27,0.191866,0.191553,-0.832635,7,0.0190441,11,-0.000159493,-3.07955,-0.275748,-0.213963,6.9753,0.191553,
2,0,0,1,0,8549.34,0.19037,0.190043,-0.841207,7,0.0189809,11,-0.000159866,-3.0751,-0.226551,-0.260427,8.59912,0.190043,
2,0,0,1,0,8549.42,0.188871,0.188556,-0.85614,7,0.0189165,11,-0.00016143,-3.06745,-0.182868,-0.322638,10.7958,0.1885557,
2,0,0,1,0,8549.49,0.187373,0.187049,-0.868901,7,0.0188511,11,-0.000162527,-3.06103,-0.199188,-0.296202,10.0883,0.187049,
2,0,0,1,0,8549.57,0.185875,0.185534,-0.885018,7,0.0187847,11,-0.000164201,-3.05305,-0.219871,-0.268339,9.27362,0.1855341,
2,0,0,1,0,8549.64,0.184377,0.184061,-0.895478,7,0.0187172,11,-0.000164822,-3.04795,-0.198448,-0.297307,10.4417,0.184061,
2,0,0,1,0,8549.72,0.182878,0.18255,-0.918184,7,0.0186486,11,-0.000167615,-3.03707,-0.185532,-0.318005,11.4215,0.1825501,
2,0,0,1,0,8549.79,0.18138,0.181087,-0.936609,7,0.0185786,11,-0.000169608,-3.02844,-0.176787,-0.333736,12.1956,0.181087,
2,0,0,1,0,8549.87,0.179882,0.179556,-0.95362,7,0.0185071,11,-0.000171228,-3.02062,-0.201265,-0.293146,10.9156,0.1795557,
2,0,0,1,0,8549.94,0.178384,0.178082,-0.976402,7,0.0184341,11,-0.00017388,-3.01037,-0.161688,-0.364899,13.9149,0.178082,
2,0,0,1,0,8550.01,0.176886,0.17659,-0.997651,7,0.0183598,11,-0.000176176,-3.00102,-0.149465,-0.394741,15.4115,0.17659,
2,0,0,1,0,8550.09,0.175386,0.175072,-1.0231,7,0.0182836,11,-0.000179115,-2.99008,-0.132418,-0.44556,17.7565,0.175072,
2,0,0,1,0,8550.16,0.173891,0.173592,-1.04729,7,0.0182056,11,-0.0001818,-2.97993,-0.129023,-0.457282,18.6844,0.173592,
2,0,0,1,0,8550.24,0.172391,0.172098,-1.07785,7,0.0181253,11,-0.000185496,-2.96744,-0.125801,-0.468996,19.7183,0.172098,
2,0,0,1,0,8550.31,0.170893,0.170618,-1.10382,7,0.0180432,11,-0.000188332,-2.9571,-0.116841,-0.504962,21.8429,0.170618,
2,0,0,1,0,8550.39,0.169395,0.169063,-1.1395,7,0.0179585,11,-0.000192646,-2.94329,-0.105454,-0.559485,24.9038,0.169063,
2,0,0,1,0,8550.46,0.167897,0.167556,-1.17828,7,0.017871,11,-0.000197428,-2.92875,-0.102142,-0.577625,26.6139,0.167556,
2,0,0,1,0,8550.54,0.166398,0.166089,-1.21633,7,0.0177806,11,-0.00020202,-2.91495,-0.105425,-0.559641,26.6596,0.166089,
2,0,0,1,0,8550.61,0.1649,0.164602,-1.25635,7,0.0176872,11,-0.000206797,-2.90089,-0.0947933,-0.622407,30.7317,0.164602,
2,0,0,1,0,8550.69,0.163402,0.163044,-1.31192,7,0.0175904,11,-0.000213901,-2.88209,-0.0878396,-0.671678,34.442,0.163044,
2,0,0,1,0,8550.76,0.161904,0.161586,-1.36534,7,0.0174896,11,-0.00022062,-2.86476,-0.0825427,-0.714782,38.1531,0.161586,
2,0,0,1,0,8550.84,0.160406,0.160117,-1.42395,7,0.0173846,11,-0.000227999,-2.84651,-0.081558,-0.723411,40.1882,0.160117,
2,0,0,1,0,8550.91,0.158906,0.158636,-1.48768,7,0.0172747,11,-0.000236001,-2.82749,-0.0764307,-0.771941,44.9463,0.158636,
2,0,0,1,0,8550.99,0.157411,0.157119,-1.55645,7,0.0171604,11,-0.000244548,-2.80786,-0.0705765,-0.835972,51.1076,0.157119,
2,0,0,1,0,8551.06,0.155911,0.155612,-1.63258,7,0.0170401,11,-0.000254048,-2.78713,-0.0710067,-0.830907,53.171,0.155612,
2,0,0,1,0,8551.14,0.154413,0.154074,-1.72014,7,0.0169136,11,-0.00026503,-2.76444,-0.0714754,-0.825459,55.365,0.154074,
2,0,0,1,0,8551.21,0.152915,0.152585,-1.80668,7,0.0167808,11,-0.000275673,-2.74312,-0.0694865,-0.849086,59.9798,0.152585,
2,0,0,1,0,8551.29,0.151417,0.151099,-1.89853,7,0.0166416,11,-0.000286865,-2.72158,-0.0695557,-0.84824,62.9948,0.151099,
2,0,0,1,0,8551.36,0.149918,0.149593,-1.99888,7,0.0164951,11,-0.000299018,-2.69921,-0.0674375,-0.874884,68.1522,0.149593,
2,0,0,1,0,8551.44,0.14842,0.148103,-2.0991,7,0.0163409,11,-0.000310883,-2.67797,-0.0704068,-0.837988,68.5979,0.148103,
2,0,0,1,0,8551.51,0.146922,0.146659,-2.20677,7,0.016179,11,-0.000323642,-2.65624,-0.074385,-0.793171,68.1312,0.146659,
2,0,0,1,0,8551.59,0.145424,0.145131,-2.30476,7,0.0160097,11,-0.000334493,-2.63737,-0.0774512,-0.76177,68.4822,0.145131,
2,0,0,1,0,8551.66,0.143926,0.143597,-2.4076,7,0.0158326,11,-0.000345726,-2.61841,-0.0786484,-0.750174,70.3099,0.143597,
2,0,0,1,0,8551.74,0.142426,0.142116,-2.51028,7,0.0156474,11,-0.00035675,-2.60028,-0.0875629,-0.673802,65.7888,0.142116,
2,0,0,1,0,8551.81,0.140931,0.140623,-2.60278,7,0.0154554,11,-0.000366011,-2.58456,-0.100001,-0.589995,59.7663,0.140623,
2,0,0,1,0,8551.89,0.139431,0.13914,-2.68578,7,0.0152562,11,-0.0003737,-2.57093,-0.113655,-0.519113,54.323,0.13914,
2,0,0,1,0,8551.96,0.137933,0.13765,-2.7684,7,0.0150511,11,-0.00038107,-2.55777,-0.122753,-0.480641,51.8531,0.13765,
2,0,0,1,0,8552.04,0.136435,0.13613,-2.85029,7,0.0148402,11,-0.00038801,-2.54511,-0.135709,-0.434755,48.1464,0.13613,
2,0,0,1,0,8552.11,0.134936,0.134637,-2.91664,7,0.0146237,11,-0.000392687,-2.53512,-0.167004,-0.353285,39.9941,0.134637,
2,0,0,1,0,8552.19,0.133438,0.133123,-2.96977,7,0.0144025,11,-0.000395345,-2.52728,-0.203777,-0.289532,33.4789,0.1331234,
2,0,0,1,0,8552.26,0.13194,0.131619,-3.01449,7,0.0141779,11,-0.000396765,-2.52079,-0.246985,-0.238881,28.1057,0.131619,
2,0,0,1,0,8552.34,0.130442,0.130144,-3.05625,7,0.0139497,11,-0.000397752,-2.51481,-0.289608,-0.203723,24.2192,0.130144,
2,0,0,1,0,8552.41,0.128942,0.128652,-3.08821,7,0.0137186,11,-0.000397305,-2.51029,-0.490642,-0.120251,14.4274,0.128652,
2,0,0,1,0,8552.49,0.127446,0.127149,-3.10811,7,0.0134863,11,-0.000395195,-2.5075,-0.81195,-0.0726646,8.7737,0.127149,
2,0,0,1,0,8552.56,0.125947,0.125657,-3.11034,7,0.0132528,11,-0.000390837,-2.50719,-1.69089,-0.0348929,4.2303,0.125657,
2,0,0,1,0,8552.64,0.124449,0.124148,-3.11235,7,0.013019,11,-0.000386392,-2.50691,-7.29122,-0.00809193,0.981053,0.124148,
2,0,0,1,0,8552.71,0.122951,0.122668,-3.11288,7,0.0127852,11,-0.000381852,-2.50684,1.75531,0.0336123,-4.07278,0.122668,
2,0,0,1,0,8552.79,0.121453,0.121154,-3.1001,7,0.0125519,11,-0.000375589,-2.50862,0.612751,0.096287,-11.615,0.121154,
2,0,0,1,0,8552.86,0.119955,0.119632,-3.06783,7,0.0123202,11,-0.00036701,-2.51317,0.441723,0.133568,-16.0205,0.119632,
2,0,0,1,0,8552.94,0.118456,0.118187,-3.04809,7,0.0120902,11,-0.000360245,-2.51597,0.440237,0.134019,-15.9365,0.118187,
2,0,0,1,0,8553.01,0.116958,0.116611,-3.02547,7,0.0118621,11,-0.000352802,-2.51921,0.334084,0.176602,-20.8119,0.116611,
2,0,0,1,0,8553.09,0.11546,0.115107,-2.99198,7,0.0116362,11,-0.000344399,-2.52404,0.253763,0.232501,-27.0406,0.115107,
2,0,0,1,0,8553.16,0.113962,0.113695,-2.94295,7,0.0114132,11,-0.000334599,-2.53122,0.233262,0.252934,-29.0542,0.113695,
2,0,0,1,0,8553.24,0.112462,0.112152,-2.90308,7,0.0111935,11,-0.000325587,-2.53714,0.222233,0.265487,-30.0533,0.112152,
2,0,0,1,0,8553.31,0.110967,0.110654,-2.85665,7,0.0109775,11,-0.000316101,-2.54414,0.217483,0.271286,-30.2252,0.110654,
2,0,0,1,0,8553.39,0.109467,0.109173,-2.81001,7,0.0107645,11,-0.000306778,-2.55129,0.189863,0.31075,-34.0054,0.109173,
2,0,0,1,0,8553.46,0.107969,0.107613,-2.75745,7,0.0105553,11,-0.000296736,-2.55949,0.193145,0.30547,-32.8911,0.107613,
2,0,0,1,0,8553.54,0.106471,0.106136,-2.70631,7,0.0103501,11,-0.000287238,-2.56762,0.185928,0.317327,-33.5584,0.1061364,
2,0,0,1,0,8553.61,0.104973,0.104688,-2.65841,7,0.0101486,11,-0.000278303,-2.57538,0.189371,0.311557,-32.3216,0.104688,
2,0,0,1,0,8553.69,0.103474,0.103118,-2.61242,7,0.00995055,11,-0.000269389,-2.58296,0.180829,0.326275,-33.2054,0.103118,
2,0,0,1,0,8553.76,0.101976,0.101661,-2.56453,7,0.0097563,11,-0.000260713,-2.59099,0.177736,0.331953,-33.1857,0.101661,
2,0,0,1,0,8553.84,0.100478,0.100171,-2.51078,7,0.00956588,11,-0.000251508,-2.60019,0.190117,0.310335,-30.4723,0.100171,
2,0,0,1,0,8553.91,0.0989799,0.0987101,-2.47067,7,0.00937881,11,-0.00024388,-2.60719,0.21743,0.271352,-26.1694,0.09871015,
2,0,0,1,0,8553.99,0.0974817,0.0971906,-2.4324,7,0.0091947,11,-0.000236406,-2.61396,0.222497,0.265172,-25.1641,0.0971906,
2,0,0,1,0,8554.06,0.0959821,0.0956941,-2.39044,7,0.00901324,11,-0.000228751,-2.62152,0.220253,0.267874,-25.0274,0.0956941,
2,0,0,1,0,8554.13,0.0944866,0.0941548,-2.35,7,0.00883521,11,-0.000221264,-2.62893,0.245223,0.240597,-22.1591,0.0941548,
2,0,0,1,0,8554.21,0.0929871,0.0926599,-2.32457,7,0.00865926,11,-0.000215394,-2.63366,0.282751,0.208664,-18.9493,0.0926599,
2,0,0,1,0,8554.28,0.0914889,0.0911593,-2.29942,7,0.00848561,11,-0.000209614,-2.63838,0.286634,0.205837,-18.446,0.0911593,
2,0,0,1,0,8554.36,0.0899907,0.0897106,-2.26931,7,0.00831396,11,-0.000203581,-2.64411,0.279415,0.211155,-18.6806,0.0897106,
2,0,0,1,0,8554.43,0.0884925,0.0881866,-2.23743,7,0.00814445,11,-0.000197311,-2.65025,0.301506,0.195684,-17.1323,0.0881866,
2,0,0,1,0,8554.51,0.0869943,0.0866565,-2.22255,7,0.00797693,11,-0.000192599,-2.65315,0.342085,0.172472,-14.9648,0.0866565,
2,0,0,1,0,8554.58,0.0854961,0.0852066,-2.19559,7,0.00781095,11,-0.000187079,-2.65845,0.372009,0.158598,-13.6172,0.0852066,
2,0,0,1,0,8554.66,0.083998,0.083697,-2.17948,7,0.0076464,11,-0.000182416,-2.66165,0.343021,0.172001,-14.6043,0.083697,
2,0,0,1,0,8554.73,0.0824998,0.0821831,-2.16099,7,0.00748327,11,-0.000177597,-2.66535,0.375511,0.157119,-13.2417,0.0821831,
2,0,0,1,0,8554.81,0.081002,0.0807101,-2.14111,7,0.00732189,11,-0.000172809,-2.66936,0.424169,0.139096,-11.6349,0.08071015,
2,0,0,1,0,8554.88,0.0795025,0.0791937,-2.12283,7,0.0071615,11,-0.000168115,-2.67309,0.454288,0.129874,-10.7571,0.0791937,
2,0,0,1,0,8554.96,0.078007,0.0776835,-2.11042,7,0.00700258,11,-0.000163945,-2.67563,0.465494,0.126747,-10.4144,0.0776835,
2,0,0,1,0,8555.03,0.076507,0.0761879,-2.08951,7,0.00684452,11,-0.000159195,-2.67996,0.409844,0.143957,-11.7369,0.0761879,
2,0,0,1,0,8555.11,0.0750088,0.0746805,-2.06765,7,0.00668827,11,-0.000154413,-2.68452,0.418033,0.141137,-11.4236,0.0746805,
2,0,0,1,0,8555.18,0.0735106,0.0731834,-2.05351,7,0.00653319,11,-0.000150283,-2.6875,0.490431,0.120302,-9.63855,0.0731834,
2,0,0,1,0,8555.26,0.0720124,0.0716785,-2.0362,7,0.00637928,11,-0.000145952,-2.69118,0.409909,0.143934,-11.4523,0.0716785,
2,0,0,1,0,8555.33,0.0705142,0.0701992,-2.01996,7,0.00622664,11,-0.0001418,-2.69466,0.352946,0.167164,-13.1695,0.0701992,
2,0,0,1,0,8555.41,0.0690161,0.0687431,-1.99885,7,0.00607545,11,-0.000137407,-2.69922,0.392814,0.150198,-11.7431,0.0687431,
2,0,0,1,0,8555.48,0.0675179,0.067213,-1.98337,7,0.00592574,11,-0.000133308,-2.7026,0.414825,0.142229,-11.0091,0.067213,
2,0,0,1,0,8555.56,0.0660179,0.0657151,-1.97165,7,0.005777,11,-0.000129567,-2.70517,0.354825,0.166279,-12.742,0.0657151,
2,0,0,1,0,8555.63,0.0645224,0.0641943,-1.94565,7,0.00563003,11,-0.0001249,-2.71094,0.313931,0.187939,-14.2339,0.0641943,
2,0,0,1,0,8555.71,0.0630229,0.0627034,-1.91915,7,0.00548439,11,-0.000120337,-2.71689,0.320261,0.184225,-13.8255,0.0627034,
2,0,0,1,0,8555.78,0.0615251,0.0612112,-1.89801,7,0.00534081,11,-0.000116179,-2.7217,0.303978,0.194093,-14.4063,0.0612112,
2,0,0,1,0,8555.86,0.0600269,0.0597043,-1.87724,7,0.00519862,11,-0.000112079,-2.72648,0.29674,0.198827,-14.5688,0.0597043,
2,0,0,1,0,8555.93,0.0585287,0.058221,-1.85671,7,0.00505809,11,-0.0001081,-2.73125,0.243163,0.242635,-17.5431,0.058221,
2,0,0,1,0,8556.01,0.0570305,0.0567308,-1.83195,7,0.00491934,11,-0.000103928,-2.73709,0.258317,0.228401,-16.3172,0.0567308,
2,0,0,1,0,8556.08,0.0555323,0.0552217,-1.80713,7,0.00478266,11,-9.9793e-05,-2.74301,0.260316,0.226647,-16.0029,0.0552217,
2,0,0,1,0,8556.16,0.0540342,0.0536685,-1.78475,7,0.00464762,11,-9.57849e-05,-2.74842,0.265216,0.22246,-15.4647,0.0536685,
2,0,0,1,0,8556.23,0.052536,0.0521827,-1.76398,7,0.00451411,11,-9.20491e-05,-2.75351,0.256259,0.230236,-15.8045,0.0521827,
2,0,0,1,0,8556.31,0.0510378,0.0506982,-1.73752,7,0.00438257,11,-8.8089e-05,-2.76007,0.223038,0.264529,-17.9212,0.0506982,
2,0,0,1,0,8556.38,0.0495382,0.0492358,-1.70733,7,0.00425294,11,-8.40614e-05,-2.76768,0.24622,0.239623,-16.0071,0.0492358,
2,0,0,1,0,8556.46,0.0480427,0.0477193,-1.68501,7,0.00412538,11,-8.04077e-05,-2.7734,0.288962,0.204179,-13.4338,0.04771933,
2,0,0,1,0,8556.53,0.0465432,0.0461958,-1.66478,7,0.00399907,11,-7.69059e-05,-2.77864,0.261839,0.225329,-14.6537,0.0461958,
2,0,0,1,0,8556.61,0.045045,0.0447365,-1.64367,7,0.00387459,11,-7.35323e-05,-2.78418,0.257214,0.229381,-14.7091,0.0447365,
2,0,0,1,0,8556.68,0.0435468,0.0432395,-1.61458,7,0.00375187,11,-6.98136e-05,-2.79194,0.258738,0.22803,-14.4269,0.0432395,
2,0,0,1,0,8556.76,0.0420486,0.0417095,-1.59957,7,0.0036308,11,-6.67172e-05,-2.796,0.296456,0.199018,-12.4386,0.0417095,
2,0,0,1,0,8556.83,0.0405504,0.0402571,-1.58739,7,0.00351095,11,-6.39038e-05,-2.79932,0.310536,0.189994,-11.7274,0.0402571,
2,0,0,1,0,8556.91,0.0390523,0.0387202,-1.56769,7,0.00339231,11,-6.0701e-05,-2.80474,0.272029,0.216889,-13.234,0.03872015,
2,0,0,1,0,8556.98,0.0375541,0.0372031,-1.54445,7,0.00327522,11,-5.74582e-05,-2.81123,0.301998,0.195366,-11.8155,0.03720307,
2,0,0,1,0,8557.06,0.0360559,0.0357582,-1.5305,7,0.00315952,11,-5.4728e-05,-2.81517,0.352206,0.167515,-10.0262,0.0357582,
2,0,0,1,0,8557.13,0.0345577,0.0342324,-1.51849,7,0.00304479,11,-5.19816e-05,-2.81859,0.421917,0.139838,-8.28914,0.0342324,
2,0,0,1,0,8557.21,0.0330582,0.032712,-1.5066,7,0.00293085,11,-4.92839e-05,-2.822,0.403214,0.146324,-8.59096,0.032712,
2,0,0,1,0,8557.28,0.0315626,0.031246,-1.4935,7,0.00281812,11,-4.6666e-05,-2.82579,0.485245,0.121588,-7.0892,0.031246,
2,0,0,1,0,8557.36,0.0300631,0.0297359,-1.48164,7,0.00270607,11,-4.40579e-05,-2.82926,0.559132,0.105521,-6.09964,0.0297359,
2,0,0,1,0,8557.43,0.0285649,0.0282809,-1.47363,7,0.0025948,11,-4.16755e-05,-2.83161,0.756414,0.0779996,-4.48383,0.0282809,
2,0,0,1,0,8557.51,0.0270667,0.0267651,-1.46663,7,0.0024841,11,-3.92546e-05,-2.83368,0.739088,0.0798282,-4.56783,0.0267651,
2,0,0,1,0,8557.58,0.0255685,0.0252855,-1.45771,7,0.00237396,11,-3.68591e-05,-2.83633,0.591083,0.0998169,-5.68496,0.0252855,
2,0,0,1,0,8557.66,0.0240704,0.0237489,-1.44636,7,0.00226455,11,-3.43494e-05,-2.83972,0.785864,0.0750766,-4.25875,0.0237489,
2,0,0,1,0,8557.73,0.0225722,0.0222517,-1.44811,7,0.00215552,11,-3.22229e-05,-2.8392,3.24065,0.0182062,-1.02832,0.02225168,
2,0,0,1,0,8557.81,0.021074,0.0207969,-1.44402,7,0.0020467,11,-3.00312e-05,-2.84043,1.33823,0.0440882,-2.48287,0.0207969,
2,0,0,1,0,8557.88,0.0195758,0.0192384,-1.44025,7,0.00193811,11,-2.77081e-05,-2.84156,1.06109,0.0556033,-3.11847,0.0192384,
2,0,0,1,0,8557.96,0.018078,0.0177499,-1.43064,7,0.00182992,11,-2.53937e-05,-2.84447,1.87415,0.0314809,-1.76272,0.0177499,
2,0,0,1,0,8558.03,0.0165785,0.0162875,-1.43475,7,0.00172189,11,-2.33685e-05,-2.84322,-3.19013,-0.0184946,1.03745,0.0162875,
2,0,0,1,0,8558.11,0.015083,0.0147338,-1.43707,7,0.00161407,11,-2.11736e-05,-2.84252,-3.44497,-0.0171264,0.958748,0.0147338,
2,0,0,1,0,8558.18,0.013583,0.0132786,-1.43365,7,0.00150569,11,-1.9037e-05,-2.84356,2.39331,0.024652,-1.37587,0.01327865,
2,0,0,1,0,8558.25,0.0120848,0.0117526,-1.43143,7,0.00139767,11,-1.68231e-05,-2.84423,25.6485,0.00230033,-0.128903,0.0117526,
2,0,0,1,0,8558.33,0.0105866,0.0102744,-1.43442,7,0.00128987,11,-1.47379e-05,-2.84332,-2.03461,-0.0289982,1.62568,0.0102744,
2,0,0,1,0,8558.4,0.00908846,0.00876429,-1.43711,7,0.00118174,11,-1.25953e-05,-2.84251,-1.77333,-0.0332707,1.86444,0.008764294,
2,0,0,1,0,8558.48,0.00759027,0.00726095,-1.44035,7,0.00107334,11,-1.04583e-05,-2.84153,-3.29441,-0.0179091,1.00472,0.007260948,
2,0,0,1,0,8558.55,0.00609208,0.00573608,-1.44438,7,0.000964719,11,-8.28508e-06,-2.84032,-3.36637,-0.0175263,0.985797,0.00573608,
2,0,0,1,0,8558.63,0.00459389,0.00428409,-1.4447,7,0.000856168,11,-6.18924e-06,-2.84022,-1.28367,-0.0459621,2.59658,0.00428409,
2,0,0,1,0,8558.7,0.00309391,0.00276819,-1.45249,7,0.000747102,11,-4.02076e-06,-2.83789,-0.476317,-0.123867,7.02729,0.00276819,
2,0,0,1,0,8558.78,0.0015984,0.00123566,-1.4786,7,0.000636422,11,-1.82705e-06,-2.83015, , , ,0.00123566,
2,0,0,1,0,8558.85,0.000199195,-0.000147534,-1.45933,7,0.000533135,11,2.15301e-07,-2.83585, , , ,-0.000147534,