File: Figure_codes/Fig_3-5/rawdata_trumpetplot_data/before 10th/20221101_1-115_002_TrumpetPlot_ParaChange_12_CV_C01_0.csv
mode,ox/red,error,control changes,counter inc.,time/s,control/V,Ewe/V,<I>/mA,cycle number,(Q-Qo)/C,I Range,P/W,log(|I|),Tafel slope mV/dec,alpha_eff,dI/d(E-IR),E-IR/V,
2,1,0,1,0,1210.09,2.44065e-05,-0.000287149,6.98028,1,0.0000000E+000,10,-2.00438e-06,-2.15613, , , ,-0.0002871489,
2,1,0,1,0,1210.1,0.00179726,0.00143866,7.84087,1,6.5263e-05,10,1.12804e-05,-2.10564, , , ,0.00143866,
2,1,0,1,0,1210.11,0.00379485,0.00351282,8.78333,1,0.000148885,10,3.08543e-05,-2.05634,0.0528364,1.11666,373.989,0.00351282,
2,1,0,1,0,1210.12,0.00579244,0.00552176,9.3679,1,0.000239964,10,5.17273e-05,-2.02836,0.081846,0.720866,261.482,0.005521758,
2,1,0,1,0,1210.13,0.00779002,0.0074965,9.82499,1,0.000336059,10,7.36531e-05,-2.00767,0.118536,0.497738,189.215,0.0074965,
2,1,0,1,0,1210.14,0.00977853,0.00951419,10.1233,1,0.000434984,10,9.63153e-05,-1.99468,0.18428,0.320165,125.851,0.00951419,
2,1,0,1,0,1210.15,0.0117761,0.0114559,10.3233,1,0.000537311,10,0.000118262,-1.98618,0.289212,0.204002,81.8796,0.01145589,
2,1,0,1,0,1210.16,0.0137737,0.0134679,10.4471,1,0.000641231,10,0.0001407,-1.98101,0.436295,0.13523,55.0694,0.0134679,
2,1,0,1,0,1210.17,0.0157713,0.0155119,10.5467,1,0.000746196,10,0.000163599,-1.97689,0.64186,0.0919203,37.7491,0.0155119,
2,1,0,1,0,1210.18,0.017778,0.0174909,10.5989,1,0.000852047,10,0.000185385,-1.97474,1.44225,0.0409083,16.8912,0.0174909,
2,1,0,1,0,1210.19,0.0197755,0.0194674,10.6135,1,0.000958088,10,0.000206616,-1.97414,6.05902,0.00973755,4.0309,0.0194674,
2,1,0,1,0,1210.2,0.0217731,0.0214464,10.6149,1,0.0010643,10,0.00022765,-1.97409,12.3079,0.00479369,1.98634,0.0214464,
2,1,0,1,0,1210.21,0.0237707,0.0234774,10.6214,1,0.00117049,10,0.000249364,-1.97382,14.0062,0.00421242,1.74564,0.0234774,
2,1,0,1,0,1210.22,0.0257774,0.0254877,10.6219,1,0.00127673,10,0.000270728,-1.9738,-17.167,-0.00343682,-1.42425,0.0254877,
2,1,0,1,0,1210.23,0.027775,0.0274866,10.6157,1,0.00138286,10,0.00029179,-1.97405,-3.79236,-0.0155576,-6.44152,0.0274866,
2,1,0,1,0,1210.24,0.0297726,0.0294396,10.5965,1,0.00148896,10,0.000311956,-1.97484,-2.72293,-0.0216679,-8.96199,0.0294396,
2,1,0,1,0,1210.25,0.0317701,0.0314351,10.5803,1,0.00159485,10,0.000332594,-1.9755,-7.57983,-0.00778382,-3.217,0.0314351,
2,1,0,1,0,1210.26,0.0337587,0.0334767,10.5835,1,0.00169963,10,0.0003543,-1.97537,14.1304,0.00417538,1.72465,0.0334767,
2,1,0,1,0,1210.27,0.0357562,0.0354554,10.5873,1,0.00180543,10,0.000375376,-1.97522,-3.96601,-0.0148764,-6.13748,0.0354554,
2,1,0,1,0,1210.28,0.0377538,0.0374493,10.5591,1,0.00191122,10,0.00039543,-1.97637,-5.66052,-0.0104231,-4.30323,0.0374493,
2,1,0,1,0,1210.29,0.0397514,0.0394002,10.5703,1,0.00201684,10,0.000416471,-1.97591,2.18814,0.0269635,11.1346,0.0394002,
2,1,0,1,0,1210.3,0.0417399,0.0414143,10.6032,1,0.00212168,10,0.000439126,-1.97456,2.47118,0.0238753,9.86764,0.0414143,
2,1,0,1,0,1210.31,0.0437375,0.0434237,10.61,1,0.00222773,10,0.000460725,-1.97428,8.25592,0.00714639,2.9589,0.0434237,
2,1,0,1,0,1210.32,0.0457351,0.0454009,10.615,1,0.00233383,10,0.000481933,-1.97408,3.29029,0.0179315,7.43546,0.0454009,
2,1,0,1,0,1210.33,0.0477327,0.0474442,10.6399,1,0.00244004,10,0.000504801,-1.97306,1.25899,0.0468628,19.4857,0.0474442,
2,1,0,1,0,1210.34,0.0497393,0.0494336,10.6936,1,0.00254667,10,0.000528624,-1.97088,1.23968,0.0475931,19.8368,0.0494336,
2,1,0,1,0,1210.35,0.0517369,0.0514768,10.7199,1,0.00265367,10,0.000551825,-1.96981,1.4468,0.0407797,17.0728,0.0514768,
2,1,0,1,0,1210.36,0.0537345,0.0534011,10.7614,1,0.0027611,10,0.000574669,-1.96813,0.961767,0.0613454,25.7861,0.0534011,
2,1,0,1,0,1210.37,0.0557321,0.0554166,10.8215,1,0.00286899,10,0.000599689,-1.96571,0.941128,0.0626907,26.4581,0.05541658,
2,1,0,1,0,1210.38,0.0577297,0.0573982,10.8671,1,0.00297747,10,0.000623753,-1.96389,0.674864,0.087425,37.1756,0.0573982,
2,1,0,1,0,1210.39,0.0597364,0.0594232,10.9704,1,0.00308671,10,0.000651897,-1.95978,0.585164,0.100826,43.1039,0.0594232,
2,1,0,1,0,1210.4,0.0617339,0.0614473,11.0416,1,0.00319682,10,0.000678479,-1.95697,0.642726,0.0917966,39.5836,0.0614473,
2,1,0,1,0,1210.41,0.0637315,0.0634055,11.1281,1,0.00330771,10,0.00070558,-1.95358,0.517809,0.113942,49.54,0.0634055,
2,1,0,1,0,1210.42,0.0657291,0.0654556,11.2402,1,0.00341964,10,0.000735736,-1.94923,0.387046,0.152437,66.9956,0.0654556,
2,1,0,1,0,1210.43,0.0677176,0.0674028,11.3959,1,0.00353172,10,0.000768113,-1.94325,0.395289,0.149258,66.2345,0.06740284,
2,1,0,1,0,1210.44,0.0697152,0.0694078,11.502,1,0.00364625,10,0.000798328,-1.93923,0.428252,0.137769,61.9361,0.0694078,
2,1,0,1,0,1210.45,0.0717128,0.0714048,11.6437,1,0.00376191,10,0.000831418,-1.93391,0.370349,0.159309,72.4106,0.0714048,
2,1,0,1,0,1210.46,0.0737104,0.0734177,11.7923,1,0.00387909,10,0.000865767,-1.9284,0.342628,0.172199,79.3118,0.0734177,
2,1,0,1,0,1210.47,0.0756989,0.0754062,11.9611,1,0.00399667,10,0.00090194,-1.92223,0.329651,0.178977,83.5163,0.0754062,
2,1,0,1,0,1210.48,0.0776965,0.0773705,12.1225,1,0.0041171,10,0.000937921,-1.91641,0.314908,0.187356,88.7323,0.0773705,
2,1,0,1,0,1210.49,0.0796941,0.0793512,12.3111,1,0.00423925,10,0.000976903,-1.9097,0.314261,0.187742,90.1295,0.0793512,
2,1,0,1,0,1210.5,0.0816916,0.0813528,12.4814,1,0.00436327,10,0.0010154,-1.90374,0.295481,0.199675,97.4699,0.0813528,
2,1,0,1,0,1210.51,0.0836983,0.0834099,12.7067,1,0.00448918,10,0.00105987,-1.89597,0.265316,0.222377,110.235,0.0834099,
2,1,0,1,0,1210.52,0.0856959,0.085375,12.9248,1,0.00461744,10,0.00110345,-1.88858,0.261997,0.225193,113.631,0.085375,
2,1,0,1,0,1210.53,0.0876935,0.0873505,13.1545,1,0.00474781,10,0.00114905,-1.88093,0.269862,0.21863,112.181,0.08735054,
2,1,0,1,0,1210.54,0.0896911,0.0893703,13.373,1,0.00488053,10,0.00119515,-1.87377,0.261225,0.225859,118.071,0.0893703,
2,1,0,1,0,1210.55,0.0916978,0.0914482,13.6383,1,0.00501556,10,0.0012472,-1.86524,0.251457,0.234633,124.756,0.09144824,
2,1,0,1,0,1210.56,0.0936953,0.0934229,13.8786,1,0.00515324,10,0.00129658,-1.85766,0.263737,0.223707,121.149,0.0934229,
2,1,0,1,0,1210.57,0.0956929,0.0954002,14.1171,1,0.00529322,10,0.00134677,-1.85025,0.267123,0.220872,121.708,0.0954002,
2,1,0,1,0,1210.58,0.0976905,0.0974035,14.363,1,0.00543571,10,0.00139901,-1.84275,0.25113,0.234938,131.847,0.0974035,
2,1,0,1,0,1210.59,0.099679,0.0994099,14.6458,1,0.00557925,10,0.00145593,-1.83429,0.250132,0.235876,134.675,0.0994099,
2,1,0,1,0,1210.6,0.101677,0.101391,14.9001,1,0.00572704,10,0.00151073,-1.82681,0.255619,0.230812,134.29,0.101391,
2,1,0,1,0,1210.61,0.103674,0.10334,15.1736,1,0.00587734,10,0.00156804,-1.81891,0.248317,0.2376,140.745,0.10334,
2,1,0,1,0,1210.62,0.105672,0.10537,15.4601,1,0.00603055,10,0.00162903,-1.81079,0.249552,0.236423,142.648,0.1053699,
2,1,0,1,0,1210.63,0.107656,0.107382,15.7501,1,0.00618503,10,0.00169127,-1.80272,0.247672,0.238219,146.423,0.107382,
2,1,0,1,0,1210.64,0.109658,0.10935,16.0428,1,0.00634408,10,0.00175427,-1.79472,0.238877,0.246989,154.748,0.10935,
2,1,0,1,0,1210.65,0.111655,0.111335,16.3618,1,0.00650608,10,0.00182163,-1.78617,0.235282,0.250762,160.135,0.111335,
2,1,0,1,0,1210.66,0.113653,0.113373,16.6871,1,0.00667139,10,0.00189188,-1.77762,0.232077,0.254227,165.588,0.113373,
2,1,0,1,0,1210.67,0.115651,0.11532,17.0216,1,0.00683987,10,0.00196293,-1.769,0.214481,0.275083,182.997,0.11532,
2,1,0,1,0,1210.68,0.117657,0.117321,17.4096,1,0.00701219,10,0.00204251,-1.75921,0.20948,0.28165,191.296,0.1173211,
2,1,0,1,0,1210.69,0.119655,0.119339,17.7906,1,0.0071882,10,0.00212311,-1.74981,0.209684,0.281376,195.469,0.119339,
2,1,0,1,0,1210.7,0.121652,0.121349,18.197,1,0.00736824,10,0.00220819,-1.74,0.199323,0.296002,210.356,0.121349,
2,1,0,1,0,1210.71,0.12365,0.123353,18.6349,1,0.00755241,10,0.00229866,-1.72967,0.183101,0.322227,234.65,0.123353,
2,1,0,1,0,1210.72,0.125657,0.125323,19.1294,1,0.00774145,10,0.00239735,-1.7183,0.180434,0.326989,244.072,0.125323,
2,1,0,1,0,1210.73,0.127654,0.127411,19.6255,1,0.00793527,10,0.00250051,-1.70718,0.173535,0.339988,260.679,0.127411,
2,1,0,1,0,1210.74,0.129652,0.129324,20.1722,1,0.00813434,10,0.00260874,-1.69525,0.161606,0.365085,287.582,0.129324,
2,1,0,1,0,1210.75,0.131649,0.131331,20.7527,1,0.00833898,10,0.00272548,-1.68292,0.162915,0.362151,293.374,0.131331,
2,1,0,1,0,1210.76,0.133638,0.13335,21.3533,1,0.00854758,10,0.00284746,-1.67053,0.15748,0.37465,312.422,0.13335,
2,1,0,1,0,1210.77,0.135636,0.135304,21.994,1,0.00876438,10,0.00297589,-1.65769,0.154214,0.382585,328.545,0.135304,
2,1,0,1,0,1210.78,0.137633,0.137351,22.6679,1,0.00898781,10,0.00311345,-1.64459,0.154345,0.382261,338.161,0.137351,
2,1,0,1,0,1210.79,0.139631,0.139326,23.3541,1,0.00921795,10,0.00325384,-1.63164,0.152394,0.387154,352.989,0.139326,
2,1,0,1,0,1210.8,0.141619,0.141324,24.0705,1,0.00945276,10,0.00340175,-1.61851,0.153707,0.383847,360.566,0.141324,
2,1,0,1,0,1210.81,0.143617,0.143334,24.799,1,0.00969714,10,0.00355453,-1.60557,0.155458,0.379524,367.215,0.143334,
2,1,0,1,0,1210.82,0.145614,0.145294,25.5284,1,0.00994888,10,0.00370914,-1.59298,0.161128,0.366168,364.62,0.145294,
2,1,0,1,0,1210.83,0.147612,0.147299,26.2447,1,0.0102078,10,0.00386581,-1.58096,0.16608,0.35525,363.986,0.147299,
2,1,0,1,0,1210.84,0.149619,0.149316,26.9922,1,0.010474,10,0.00403035,-1.56876,0.173991,0.339098,356.795,0.149316,
2,1,0,1,0,1210.85,0.151616,0.151348,27.6894,1,0.0107475,10,0.00419073,-1.55769,0.185124,0.318704,344.235,0.1513477,
2,1,0,1,0,1210.86,0.153614,0.153322,28.3714,1,0.011028,10,0.00434996,-1.54712,0.192384,0.306678,339.336,0.153322,
2,1,0,1,0,1210.87,0.155611,0.155284,29.0252,1,0.0113151,10,0.00450714,-1.53723,0.20341,0.290055,328.558,0.155284,
2,1,0,1,0,1210.88,0.157618,0.15733,29.688,1,0.0116087,10,0.00467082,-1.52742,0.231577,0.254775,294.51,0.15733,
2,1,0,1,0,1210.89,0.159616,0.159348,30.222,1,0.0119084,10,0.00481581,-1.51968,0.261173,0.225904,266.423,0.159348,
2,1,0,1,0,1210.9,0.161613,0.161342,30.7569,1,0.0122135,10,0.00496237,-1.51206,0.290139,0.203351,243.709,0.161342,
2,1,0,1,0,1210.91,0.163611,0.163364,31.2008,1,0.0125234,10,0.00509708,-1.50583,0.349911,0.168614,205.074,0.163364,
2,1,0,1,0,1210.92,0.165618,0.165329,31.5746,1,0.0128374,10,0.00522021,-1.50066,0.437495,0.134859,165.911,0.165329,
2,1,0,1,0,1210.93,0.167597,0.167266,31.8482,1,0.0131514,10,0.00532712,-1.49692,0.674124,0.087521,108.587,0.1672661,
2,1,0,1,0,1210.94,0.169595,0.16932,32.008,1,0.0134709,10,0.00541961,-1.49474,1.87586,0.0314523,39.1902,0.16932,
2,1,0,1,0,1210.95,0.171592,0.171305,32.0065,1,0.013791,10,0.00548288,-1.49476,-1.75032,-0.0337081,-41.998,0.171305,
2,1,0,1,0,1210.96,0.173572,0.173268,31.8422,1,0.0141072,10,0.00551723,-1.497,-0.591867,-0.0996846,-123.555,0.173268,
2,1,0,1,0,1210.97,0.175578,0.175297,31.5133,1,0.0144241,10,0.00552419,-1.50151,-0.327985,-0.179886,-220.387,0.1752971,
2,1,0,1,0,1210.98,0.177576,0.177331,30.9468,1,0.0147366,10,0.00548782,-1.50938,-0.206223,-0.286099,-344.156,0.177331,
2,1,0,1,0,1210.99,0.179573,0.179279,30.1431,1,0.015042,10,0.005404,-1.52081,-0.150628,-0.391692,-458.912,0.179279,
2,1,0,1,0,1211,0.181571,0.181326,29.1133,1,0.0153384,10,0.005279,-1.53591,-0.118787,-0.496687,-561.946,0.181326,
2,1,0,1,0,1211.01,0.183578,0.183329,27.8667,1,0.0156233,10,0.00510878,-1.55491,-0.0922683,-0.639439,-691.847,0.183329,
2,1,0,1,0,1211.02,0.185575,0.185279,26.3786,1,0.0158945,10,0.00488739,-1.57875,-0.0761915,-0.774364,-793.864,0.185279,
2,1,0,1,0,1211.03,0.187573,0.187277,24.7328,1,0.01615,10,0.00463189,-1.60673,-0.0675179,-0.873843,-840.43,0.187277,
2,1,0,1,0,1211.04,0.18957,0.189315,22.9865,1,0.0163885,10,0.00435169,-1.63853,-0.0598142,-0.986388,-881.885,0.189315,
2,1,0,1,0,1211.05,0.191577,0.19131,21.1765,1,0.0166091,10,0.00405127,-1.67415,-0.0537713,-1.09724,-905.312,0.1913096,
2,1,0,1,0,1211.06,0.193575,0.193279,19.3978,1,0.0168117,10,0.00374918,-1.71225,-0.0512821,-1.1505,-870.344,0.193279,
2,1,0,1,0,1211.07,0.195572,0.195309,17.6954,1,0.0169969,10,0.00345608,-1.75214,-0.0498659,-1.18317,-817.759,0.195309,
2,1,0,1,0,1211.08,0.19757,0.197284,16.1227,1,0.0171658,10,0.00318076,-1.79256,-0.0507514,-1.16253,-734.454,0.197284,
2,1,0,1,0,1211.09,0.199558,0.199294,14.769,1,0.0173182,10,0.00294336,-1.83065,-0.0533965,-1.10494,-638.884,0.199294,
2,1,0,1,0,1211.1,0.201556,0.201262,13.5811,1,0.0174597,10,0.00273336,-1.86707,-0.0565234,-1.04382,-555.833,0.201262,
2,1,0,1,0,1211.11,0.203553,0.203235,12.5786,1,0.0175902,10,0.0025564,-1.90037,-0.0650206,-0.907405,-448.269,0.203235,
2,1,0,1,0,1211.12,0.205551,0.205284,11.7782,1,0.0177117,10,0.00241788,-1.92892,-0.0780473,-0.755951,-349.968,0.205284,
2,1,0,1,0,1211.13,0.20754,0.207248,11.1739,1,0.017825,10,0.00231577,-1.9518,-0.0948586,-0.621978,-272.429,0.207248,
2,1,0,1,0,1211.14,0.209537,0.209294,10.6857,1,0.0179343,10,0.00223646,-1.9712,-0.111037,-0.531354,-222.351,0.2092942,
2,1,0,1,0,1211.15,0.211535,0.211254,10.2832,1,0.0180389,10,0.00217237,-1.98787,-0.137955,-0.427676,-172.593,0.2112541,
2,1,0,1,0,1211.16,0.213532,0.21325,10.0029,1,0.0181404,10,0.00213313,-1.99987,-0.189816,-0.310828,-121.779,0.21325,
2,1,0,1,0,1211.17,0.215539,0.215233,9.79865,1,0.0182392,10,0.00210899,-2.00883,-0.228727,-0.25795,-98.6956,0.215233,
2,1,0,1,0,1211.18,0.217537,0.217256,9.60756,1,0.0183362,10,0.0020873,-2.01739,-0.263738,-0.223707,-84.0714,0.217256,
2,1,0,1,0,1211.19,0.219534,0.219233,9.46239,1,0.0184315,10,0.00207446,-2.024,-0.351169,-0.16801,-62.1756,0.219233,
2,1,0,1,0,1211.2,0.221532,0.221264,9.3584,1,0.0185256,10,0.00207067,-2.0288,-0.403649,-0.146167,-53.3593,0.221264,
2,1,0,1,0,1211.21,0.223534,0.223279,9.24647,1,0.0186186,10,0.00206454,-2.03402,-0.451078,-0.130798,-47.2836,0.223279,
2,1,0,1,0,1211.22,0.225536,0.22529,9.16801,1,0.0187107,10,0.00206546,-2.03772,-0.48032,-0.122835,-43.9117,0.22529,
2,1,0,1,0,1211.23,0.227534,0.227205,9.07408,1,0.0188019,10,0.00206168,-2.0422,-0.454135,-0.129917,-46.0205,0.227205,
2,1,0,1,0,1211.24,0.229531,0.229252,8.9857,1,0.0188923,10,0.00205999,-2.04645,-0.510834,-0.115497,-40.5299,0.229252,
2,1,0,1,0,1211.25,0.231529,0.23126,8.90972,1,0.0189817,10,0.00206046,-2.05014,-0.702159,-0.0840266,-29.2761,0.23126,
2,1,0,1,0,1211.26,0.233517,0.233214,8.86969,1,0.0190698,10,0.00206854,-2.05209,-0.647351,-0.0911407,-31.4674,0.233214,
2,1,0,1,0,1211.27,0.235515,0.235253,8.78409,1,0.019158,10,0.00206648,-2.0563,-0.538468,-0.10957,-37.6048,0.235253,
2,1,0,1,0,1211.28,0.237513,0.237227,8.71878,1,0.0192455,10,0.00206833,-2.05954,-0.625813,-0.0942774,-32.0836,0.237227,
2,1,0,1,0,1211.29,0.23951,0.239244,8.65605,1,0.0193323,10,0.0020709,-2.06268,-0.729682,-0.0808571,-27.3392,0.239244,
2,1,0,1,0,1211.3,0.241499,0.241247,8.60888,1,0.0194179,10,0.00207687,-2.06505,-0.695632,-0.084815,-28.4648,0.241247,
2,1,0,1,0,1211.31,0.243496,0.24321,8.54315,1,0.0195035,10,0.00207778,-2.06838,-0.67158,-0.0878525,-29.3176,0.24321,
2,1,0,1,0,1211.32,0.245494,0.245196,8.49312,1,0.0195887,10,0.00208248,-2.07093,-0.726797,-0.0811781,-26.8954,0.245196,
2,1,0,1,0,1211.33,0.247491,0.2472,8.43584,1,0.0196733,10,0.00208534,-2.07387,-0.780867,-0.075557,-24.8971,0.2472,
2,1,0,1,0,1211.34,0.249498,0.249192,8.39363,1,0.0197576,10,0.00209162,-2.07605,-0.820717,-0.0718884,-23.536,0.2491919,
2,1,0,1,0,1211.35,0.251496,0.251172,8.34235,1,0.0198412,10,0.00209536,-2.07871,-0.835798,-0.0705913,-22.9971,0.251172,
2,1,0,1,0,1211.36,0.253493,0.253192,8.30165,1,0.0199245,10,0.00210191,-2.08084,-0.809065,-0.0729237,-23.6057,0.253192,
2,1,0,1,0,1211.37,0.255491,0.255229,8.24659,1,0.0200072,10,0.00210477,-2.08373,-1.10604,-0.0533433,-17.2103,0.255229,
2,1,0,1,0,1211.38,0.257497,0.257218,8.23235,1,0.0200895,10,0.00211751,-2.08448,-1.09784,-0.053742,-17.2243,0.257218,
2,1,0,1,0,1211.39,0.259495,0.259207,8.17807,1,0.0201715,10,0.00211981,-2.08735,-0.772551,-0.0763703,-24.3913,0.259207,
2,1,0,1,0,1211.4,0.261493,0.261205,8.13511,1,0.0202532,10,0.00212493,-2.08964,-0.877698,-0.0672213,-21.3425,0.261205,
2,1,0,1,0,1211.41,0.26349,0.263205,8.09273,1,0.0203342,10,0.00213005,-2.09191,-1.43409,-0.041141,-13.0201,0.263205,
2,1,0,1,0,1211.42,0.265479,0.265182,8.08333,1,0.0204143,10,0.00214355,-2.09241,-1.31132,-0.0449927,-14.1606,0.265182,
2,1,0,1,0,1211.43,0.267476,0.267194,8.03625,1,0.0204948,10,0.00214724,-2.09495,-0.774038,-0.0762236,-23.9035,0.267194,
2,1,0,1,0,1211.44,0.269474,0.269181,7.98772,1,0.0205749,10,0.00215015,-2.09758,-1.05617,-0.0558623,-17.4444,0.269181,
2,1,0,1,0,1211.45,0.271471,0.271168,7.96692,1,0.0206547,10,0.00216037,-2.09871,-2.07445,-0.0284413,-8.8465,0.271168,
2,1,0,1,0,1211.46,0.27346,0.273188,7.95228,1,0.0207334,10,0.00217247,-2.09951,-1.06324,-0.0554907,-17.1781,0.273188,
2,1,0,1,0,1211.47,0.275458,0.275211,7.89748,1,0.0208126,10,0.00217347,-2.10251,-0.917385,-0.0643132,-19.86,0.2752105,
2,1,0,1,0,1211.48,0.277455,0.277183,7.87295,1,0.0208915,10,0.00218224,-2.10386,-1.11479,-0.052925,-16.2456,0.277183,
2,1,0,1,0,1211.49,0.279453,0.279177,7.83304,1,0.02097,10,0.00218681,-2.10607,-1.0811,-0.054574,-16.6979,0.279177,
2,1,0,1,0,1211.5,0.281455,0.281128,7.80706,1,0.0210483,10,0.00219479,-2.10751,-1.3296,-0.0443743,-13.5186,0.281128,
2,1,0,1,0,1211.51,0.283457,0.283156,7.77925,1,0.0211262,10,0.00220274,-2.10906,-1.53073,-0.0385437,-11.7083,0.283156,
2,1,0,1,0,1211.52,0.285455,0.285145,7.76004,1,0.021204,10,0.00221273,-2.11014,-1.18915,-0.0496152,-15.0048,0.2851446,
2,1,0,1,0,1211.53,0.287452,0.28717,7.71901,1,0.0212813,10,0.00221667,-2.11244,-1.16707,-0.0505539,-15.2495,0.28717,
2,1,0,1,0,1211.54,0.28945,0.289179,7.69852,1,0.0213584,10,0.00222625,-2.11359,-1.72622,-0.0341787,-10.269,0.289179,
2,1,0,1,0,1211.55,0.291456,0.291148,7.67816,1,0.0214353,10,0.00223549,-2.11474,-1.18461,-0.0498056,-14.9056,0.291148,
2,1,0,1,0,1211.56,0.293454,0.293206,7.6385,1,0.021512,10,0.00223965,-2.11699,-1.00474,-0.0587216,-17.5145,0.293206,
2,1,0,1,0,1211.57,0.295452,0.295215,7.60694,1,0.0215882,10,0.00224568,-2.11879,-1.85771,-0.0317596,-9.44451,0.295215,
2,1,0,1,0,1211.58,0.297449,0.29717,7.60106,1,0.0216643,10,0.0022588,-2.11913,-2.03444,-0.0290006,-8.59043,0.29717,
2,1,0,1,0,1211.59,0.299438,0.299148,7.57315,1,0.0217394,10,0.0022655,-2.12072,-0.0407375,-1.4483,-402.143,0.299148,
2,1,0,1,0,1211.59,0.299746,0.299536,6.64961,1,0.0217708,10,0.0019918,-2.1772,0.0022637,26.0635,3773.23,0.299536,
2,1,0,1,0,1211.6,0.29774,0.297527,1.45569,1,0.0218078,10,0.000433107,-2.83693,0.00518472,11.3796,1880.22,0.297527,
2,0,0,1,0,1211.61,0.295742,0.295428,-1.07301,1,0.0218079,10,-0.000316999,-2.96939,-0.0194258,-3.0372,937.79,0.295428,
2,0,0,1,0,1211.62,0.293745,0.293461,-2.35699,1,0.0217899,10,-0.000691686,-2.62764,-0.00880319,-6.70211,489.412,0.293461,
2,0,0,1,0,1211.63,0.291747,0.291508,-2.99142,1,0.0217628,10,-0.000872023,-2.52412,-0.0254325,-2.31987,257.258,0.291508,
2,0,0,1,0,1211.64,0.289745,0.289453,-3.38817,1,0.0217307,10,-0.000980717,-2.47003,-0.0512991,-1.15012,147.27,0.289453,
2,0,0,1,0,1211.65,0.287743,0.287452,-3.58875,1,0.0216956,10,-0.0010316,-2.44506,-0.0920145,-0.641203,89.1684,0.287452,
2,0,0,1,0,1211.66,0.285745,0.285459,-3.74435,1,0.0216589,10,-0.00106886,-2.42662,-0.132836,-0.444156,64.3989,0.285459,
2,0,0,1,0,1211.67,0.283748,0.283481,-3.84454,1,0.0216209,10,-0.00108985,-2.41516,-0.163951,-0.359863,54.1029,0.283481,
2,0,0,1,0,1211.68,0.28175,0.28143,-3.96229,1,0.0215819,10,-0.00111511,-2.40205,-0.189624,-0.311142,47.8476,0.28143,
2,0,0,1,0,1211.69,0.279761,0.279441,-4.0378,1,0.0215422,10,-0.00112833,-2.39386,-0.206203,-0.286126,45.2384,0.279441,
2,0,0,1,0,1211.7,0.277764,0.27747,-4.14146,1,0.0215013,10,-0.00114913,-2.38285,-0.222678,-0.264956,42.6169,0.2774699,
2,0,0,1,0,1211.71,0.275766,0.275491,-4.20615,1,0.0214596,10,-0.00115876,-2.37612,-0.24728,-0.238596,39.2932,0.275491,
2,0,0,1,0,1211.72,0.273769,0.273458,-4.29911,1,0.021417,10,-0.00117563,-2.36662,-0.233556,-0.252616,42.3023,0.273458,
2,0,0,1,0,1211.73,0.27178,0.271462,-4.37661,1,0.021374,10,-0.00118808,-2.35886,-0.227999,-0.258773,44.299,0.271462,
2,0,0,1,0,1211.74,0.269783,0.269489,-4.47493,1,0.0213297,10,-0.00120594,-2.34921,-0.259193,-0.22763,39.5697,0.269489,
2,0,0,1,0,1211.75,0.267785,0.267517,-4.53271,1,0.0212847,10,-0.00121258,-2.34364,-0.296449,-0.199022,35.3032,0.267517,
2,0,0,1,0,1211.76,0.265787,0.26549,-4.6161,1,0.021239,10,-0.00122553,-2.33572,-0.27272,-0.216339,38.9287,0.26549,
2,0,0,1,0,1211.77,0.263781,0.263484,-4.68969,1,0.0211924,10,-0.00123566,-2.32886,-0.269957,-0.218553,40.0511,0.263484,
2,0,0,1,0,1211.78,0.261783,0.261496,-4.77605,1,0.0211451,10,-0.00124892,-2.32093,-0.334264,-0.176507,32.7522,0.261496,
2,0,0,1,0,1211.79,0.259786,0.259503,-4.8201,1,0.0210971,10,-0.00125083,-2.31694,-0.321797,-0.183345,34.6688,0.259503,
2,0,0,1,0,1211.8,0.257788,0.257492,-4.91486,1,0.0210484,10,-0.00126554,-2.30849,-0.28631,-0.20607,39.3964,0.257492,
2,0,0,1,0,1211.81,0.255781,0.255492,-4.97808,1,0.0209989,10,-0.00127186,-2.30294,-0.351781,-0.167718,32.5944,0.255492,
2,0,0,1,0,1211.82,0.253784,0.2535,-5.045,1,0.0209487,10,-0.00127891,-2.29714,-0.346867,-0.170094,33.4882,0.2535,
2,0,0,1,0,1211.83,0.251786,0.251493,-5.11202,1,0.0208978,10,-0.00128564,-2.29141,-0.31345,-0.188228,37.6083,0.251493,
2,0,0,1,0,1211.84,0.249789,0.249513,-5.19494,1,0.0208463,10,-0.0012962,-2.28442,-0.328459,-0.179627,36.3432,0.249513,
2,0,0,1,0,1211.85,0.2478,0.247498,-5.2572,1,0.0207945,10,-0.00130115,-2.27925,-0.358351,-0.164643,33.8114,0.247498,
2,0,0,1,0,1211.86,0.245802,0.245525,-5.32978,1,0.0207416,10,-0.00130859,-2.27329,-0.34321,-0.171907,35.7445,0.245525,
2,0,0,1,0,1211.87,0.243805,0.243526,-5.39917,1,0.0206879,10,-0.00131484,-2.26767,-0.369101,-0.159848,33.6671,0.243526,
2,0,0,1,0,1211.88,0.241807,0.241528,-5.46435,1,0.0206336,10,-0.00131979,-2.26246,-0.359432,-0.164148,35.0318,0.241528,
2,0,0,1,0,1211.89,0.239819,0.239555,-5.53828,1,0.0205792,10,-0.00132672,-2.25663,-0.33711,-0.175017,37.8351,0.2395554,
2,0,0,1,0,1211.9,0.237821,0.23755,-5.61483,1,0.0205234,10,-0.00133381,-2.25066,-0.407018,-0.144957,31.6913,0.23755,
2,0,0,1,0,1211.91,0.235824,0.235523,-5.66608,1,0.0204669,10,-0.00133449,-2.24672,-0.38631,-0.152727,33.8716,0.235523,
2,0,0,1,0,1211.92,0.233826,0.233526,-5.75116,1,0.0204098,10,-0.00134304,-2.24024,-0.335292,-0.175966,39.4418,0.233526,
2,0,0,1,0,1211.93,0.231824,0.231587,-5.8213,1,0.020352,10,-0.00134814,-2.23498,-0.316334,-0.186511,42.4759,0.231587,
2,0,0,1,0,1211.94,0.229822,0.229538,-5.92053,1,0.0202932,10,-0.00135899,-2.22764,-0.382353,-0.154308,35.489,0.229538,
2,0,0,1,0,1211.95,0.227824,0.227525,-5.96546,1,0.0202338,10,-0.00135729,-2.22436,-0.403863,-0.146089,34.1417,0.227525,
2,0,0,1,0,1211.96,0.225827,0.225553,-6.05658,1,0.0201737,10,-0.00136608,-2.21777,-0.342977,-0.172023,40.5821,0.2255531,
2,0,0,1,0,1211.97,0.223829,0.223597,-6.12489,1,0.0201126,10,-0.0013695,-2.2129,-0.328633,-0.179531,43.0369,0.223597,
2,0,0,1,0,1211.98,0.221822,0.221547,-6.22898,1,0.0200508,10,-0.00138001,-2.20558,-0.310967,-0.189731,46.0422,0.221547,
2,0,0,1,0,1211.99,0.219825,0.219529,-6.31215,1,0.0199881,10,-0.0013857,-2.19982,-0.307716,-0.191736,47.3145,0.219529,
2,0,0,1,0,1212,0.217827,0.21755,-6.4181,1,0.0199245,10,-0.00139626,-2.19259,-0.353652,-0.166831,41.6364,0.21755,
2,0,0,1,0,1212.01,0.21583,0.215537,-6.47836,1,0.0198599,10,-0.00139633,-2.18853,-0.298703,-0.19752,50.2487,0.215537,
2,0,0,1,0,1212.02,0.213841,0.213532,-6.62001,1,0.019795,10,-0.00141358,-2.17914,-0.269533,-0.218897,56.2881,0.213532,
2,0,0,1,0,1212.03,0.211844,0.211588,-6.70069,1,0.0197284,10,-0.00141778,-2.17388,-0.329008,-0.179327,46.9765,0.211588,
2,0,0,1,0,1212.04,0.209846,0.209584,-6.80546,1,0.0196608,10,-0.00142632,-2.16714,-0.292516,-0.201698,53.5864,0.209584,
2,0,0,1,0,1212.05,0.207848,0.207579,-6.91548,1,0.0195922,10,-0.00143551,-2.16018,-0.226386,-0.260616,70.639,0.207579,
2,0,0,1,0,1212.06,0.20586,0.205603,-7.08667,1,0.0195229,10,-0.00145704,-2.14956,-0.239626,-0.246217,67.7395,0.205603,
2,0,0,1,0,1212.07,0.203862,0.203596,-7.18532,1,0.0194515,10,-0.0014629,-2.14355,-0.284141,-0.207643,58.3661,0.203596,
2,0,0,1,0,1212.08,0.201865,0.201615,-7.31945,1,0.019379,10,-0.00147571,-2.13552,-0.250309,-0.235709,67.3324,0.201615,
2,0,0,1,0,1212.09,0.199867,0.199584,-7.45545,1,0.0193051,10,-0.00148799,-2.12753,-0.213889,-0.275844,80.5265,0.199584,
2,0,0,1,0,1212.1,0.19786,0.197595,-7.64321,1,0.0192296,10,-0.00151026,-2.11672,-0.216707,-0.272257,80.9244,0.197595,
2,0,0,1,0,1212.11,0.195863,0.195583,-7.77919,1,0.0191525,10,-0.00152148,-2.10907,-0.226666,-0.260295,79.2709,0.195583,
2,0,0,1,0,1212.12,0.193865,0.193525,-7.96584,1,0.0190739,10,-0.00154159,-2.09877,-0.200267,-0.294607,91.5201,0.193525,
2,0,0,1,0,1212.13,0.191868,0.191603,-8.14349,1,0.0189932,10,-0.00156032,-2.08919,-0.186285,-0.316719,100.912,0.191603,
2,0,0,1,0,1212.14,0.189861,0.189564,-8.36551,1,0.0189107,10,-0.0015858,-2.07751,-0.184752,-0.319347,104.096,0.189564,
2,0,0,1,0,1212.15,0.187863,0.187556,-8.56472,1,0.018826,10,-0.00160637,-2.06729,-0.176803,-0.333705,111.87,0.187556,
2,0,0,1,0,1212.16,0.185866,0.185517,-8.81829,1,0.018739,10,-0.00163594,-2.05462,-0.169433,-0.34822,119.618,0.1855166,
2,0,0,1,0,1212.17,0.183868,0.183553,-9.04356,1,0.0186497,10,-0.00165998,-2.04366,-0.156466,-0.377078,133.616,0.183553,
2,0,0,1,0,1212.18,0.18188,0.181568,-9.34588,1,0.0185587,10,-0.00169691,-2.02938,-0.146635,-0.40236,146.529,0.181568,
2,0,0,1,0,1212.19,0.179882,0.179584,-9.6252,1,0.0184638,10,-0.00172853,-2.01659,-0.150466,-0.392114,147.505,0.179584,
2,0,0,1,0,1212.2,0.177885,0.177553,-9.93819,1,0.018366,10,-0.00176455,-2.00269,-0.145681,-0.404995,157.057,0.177553,
2,0,0,1,0,1212.21,0.175887,0.175575,-10.2549,1,0.0182649,10,-0.00180049,-1.98907,-0.133901,-0.440623,176.892,0.175575,
2,0,0,1,0,1212.22,0.173908,0.173566,-10.6433,1,0.0181615,10,-0.00184732,-1.97292,-0.123872,-0.4763,197.789,0.173566,
2,0,0,1,0,1212.23,0.171901,0.171628,-11.0355,1,0.018053,10,-0.001894,-1.95721,-0.124194,-0.475065,204.733,0.171628,
2,0,0,1,0,1212.24,0.169903,0.169618,-11.4517,1,0.0179406,10,-0.00194242,-1.94113,-0.119661,-0.493058,220.782,0.169618,
2,0,0,1,0,1212.25,0.167906,0.167607,-11.9233,1,0.0178237,10,-0.00199843,-1.9236,-0.111594,-0.5287,246.374,0.167607,
2,0,0,1,0,1212.26,0.165908,0.165595,-12.4429,1,0.0177019,10,-0.00206048,-1.90508,-0.110458,-0.534142,259.193,0.165595,
2,0,0,1,0,1212.27,0.163901,0.163612,-12.9586,1,0.0175747,10,-0.00212019,-1.88744,-0.107002,-0.551391,279.528,0.163612,
2,0,0,1,0,1212.28,0.161904,0.161625,-13.5524,1,0.0174422,10,-0.00219042,-1.86798,-0.103424,-0.570466,301.607,0.161625,
2,0,0,1,0,1212.29,0.159906,0.159652,-14.1532,1,0.0173036,10,-0.00225958,-1.84915,-0.103298,-0.571162,315.907,0.159652,
2,0,0,1,0,1212.3,0.157909,0.157643,-14.8105,1,0.0171587,10,-0.00233477,-1.82943,-0.101264,-0.582637,336.958,0.157643,
2,0,0,1,0,1212.31,0.155902,0.15564,-15.505,1,0.017007,10,-0.0024132,-1.80953,-0.0993353,-0.593948,359.863,0.15564,
2,0,0,1,0,1212.32,0.153904,0.15361,-16.2617,1,0.016848,10,-0.00249796,-1.78883,-0.0993751,-0.59371,376.297,0.15361,
2,0,0,1,0,1212.33,0.151907,0.151671,-16.9983,1,0.0166815,10,-0.00257816,-1.76959,-0.102455,-0.575862,382.267,0.151671,
2,0,0,1,0,1212.34,0.149909,0.14964,-17.7793,1,0.0165078,10,-0.0026605,-1.75008,-0.100492,-0.587109,407.987,0.14964,
2,0,0,1,0,1212.35,0.147921,0.147651,-18.6387,1,0.0163274,10,-0.00275201,-1.72958,-0.0993312,-0.593972,431.772,0.147651,
2,0,0,1,0,1212.36,0.145923,0.145656,-19.4996,1,0.0161365,10,-0.00284023,-1.70997,-0.103094,-0.572293,435.255,0.145656,
2,0,0,1,0,1212.37,0.143926,0.143691,-20.3622,1,0.0159371,10,-0.00292586,-1.69117,-0.106409,-0.554462,440.77,0.143691,
2,0,0,1,0,1212.38,0.141928,0.141652,-21.2646,1,0.0157289,10,-0.00301217,-1.67234,-0.110997,-0.531546,440.52,0.141652,
2,0,0,1,0,1212.39,0.139939,0.139671,-22.1332,1,0.0155139,10,-0.00309136,-1.65496,-0.116505,-0.506415,437.142,0.1396706,
2,0,0,1,0,1212.4,0.137942,0.137694,-22.9946,1,0.0152882,10,-0.00316622,-1.63837,-0.123221,-0.478816,429.389,0.137694,
2,0,0,1,0,1212.41,0.135944,0.135685,-23.8447,1,0.0150539,10,-0.00323536,-1.62261,-0.130216,-0.453093,421.391,0.135685,
2,0,0,1,0,1212.42,0.133947,0.133679,-24.6866,1,0.0148111,10,-0.00330008,-1.60754,-0.135951,-0.433981,417.746,0.133679,
2,0,0,1,0,1212.43,0.13194,0.131714,-25.5035,1,0.0145601,10,-0.00335917,-1.5934,-0.144493,-0.408324,406.26,0.131714,
2,0,0,1,0,1212.44,0.129942,0.129662,-26.3185,1,0.0143009,10,-0.00341251,-1.57974,-0.158158,-0.373044,382.467,0.129662,
2,0,0,1,0,1212.45,0.127945,0.127663,-27.0529,1,0.0140338,10,-0.00345365,-1.56779,-0.174152,-0.338785,357.347,0.127663,
2,0,0,1,0,1212.46,0.125947,0.12566,-27.7487,1,0.0137598,10,-0.0034869,-1.55676,-0.1899,-0.310689,335.996,0.12566,
2,0,0,1,0,1212.47,0.123941,0.123717,-28.3787,1,0.013479,10,-0.00351092,-1.54701,-0.21377,-0.275997,305.383,0.123717,
2,0,0,1,0,1212.48,0.121943,0.121683,-28.963,1,0.0131922,10,-0.00352432,-1.53816,-0.257203,-0.229391,258.757,0.121683,
2,0,0,1,0,1212.49,0.119945,0.119634,-29.4352,1,0.0128999,10,-0.00352145,-1.53113,-0.29901,-0.197318,226.54,0.119634,
2,0,0,1,0,1212.5,0.117948,0.117646,-29.8777,1,0.0126032,10,-0.00351498,-1.52465,-0.354641,-0.166365,193.611,0.117646,
2,0,0,1,0,1212.51,0.115946,0.115644,-30.2077,1,0.0123027,10,-0.00349334,-1.51988,-0.480516,-0.122785,144.541,0.115644,
2,0,0,1,0,1212.52,0.113962,0.113678,-30.4512,1,0.0120023,10,-0.00346164,-1.5164,-0.802167,-0.0735508,87.2079,0.113678,
2,0,0,1,0,1212.53,0.111964,0.111658,-30.5553,1,0.0116971,10,-0.00341173,-1.51491,-2.20365,-0.0267737,31.885,0.111658,
2,0,0,1,0,1212.54,0.109967,0.109669,-30.579,1,0.0113914,10,-0.00335355,-1.51458,2.14302,0.0275312,-32.7609,0.109669,
2,0,0,1,0,1212.55,0.107969,0.107715,-30.4262,1,0.0110862,10,-0.00327736,-1.51675,0.696657,0.0846902,-100.404,0.107715,
2,0,0,1,0,1212.56,0.10598,0.105667,-30.1773,1,0.0107862,10,-0.00318876,-1.52032,0.428306,0.137752,-161.807,0.105667,
2,0,0,1,0,1212.57,0.103983,0.103673,-29.7721,1,0.0104863,10,-0.00308655,-1.52619,0.287123,0.205487,-238.224,0.103673,
2,0,0,1,0,1212.58,0.101985,0.101728,-29.2387,1,0.0101912,10,-0.00297439,-1.53404,0.216037,0.273101,-310.711,0.101728,
2,0,0,1,0,1212.59,0.0999877,0.0997096,-28.5407,1,0.00990233,10,-0.00284578,-1.54454,0.181477,0.325109,-361.595,0.09970957,
2,0,0,1,0,1212.6,0.0979811,0.0976707,-27.7718,1,0.00962076,10,-0.00271249,-1.5564,0.157063,0.375645,-406.183,0.0976707,
2,0,0,1,0,1212.61,0.0959835,0.0956422,-26.8886,1,0.00934742,10,-0.00257168,-1.57043,0.132181,0.446357,-467.544,0.0956422,
2,0,0,1,0,1212.62,0.0939859,0.0937283,-25.9285,1,0.00908345,10,-0.00243024,-1.58622,0.120527,0.489516,-494.726,0.0937283,
2,0,0,1,0,1212.63,0.0919883,0.0916799,-24.9283,1,0.0088292,10,-0.00228542,-1.60331,0.116512,0.506387,-492.581,0.0916799,
2,0,0,1,0,1212.64,0.0899816,0.0897061,-23.9473,1,0.00858491,10,-0.00214821,-1.62074,0.109838,0.537154,-501.333,0.0897061,
2,0,0,1,0,1212.65,0.087984,0.0876915,-22.9288,1,0.0083506,10,-0.00201066,-1.63962,0.107745,0.547587,-490.506,0.0876915,
2,0,0,1,0,1212.66,0.0859865,0.0857064,-21.9854,1,0.00812621,10,-0.00188429,-1.65787,0.109066,0.540957,-464.22,0.08570642,
2,0,0,1,0,1212.67,0.0839889,0.083697,-21.0745,1,0.00791105,10,-0.00176387,-1.67624,0.113278,0.520843,-429.175,0.083697,
2,0,0,1,0,1212.68,0.0820004,0.0816984,-20.2653,1,0.00770663,10,-0.00165564,-1.69325,0.116551,0.506215,-400.522,0.0816984,
2,0,0,1,0,1212.69,0.0800028,0.0797484,-19.4929,1,0.00750799,10,-0.00155453,-1.71012,0.123041,0.479516,-365.408,0.0797484,
2,0,0,1,0,1212.7,0.0780052,0.0777012,-18.8047,1,0.00731668,10,-0.00146115,-1.72573,0.132818,0.444218,-326.375,0.0777012,
2,0,0,1,0,1212.71,0.0760076,0.0757082,-18.1743,1,0.00713184,10,-0.00137595,-1.74054,0.143595,0.410877,-292.115,0.07570821,
2,0,0,1,0,1212.72,0.0740191,0.0737204,-17.6418,1,0.00695478,10,-0.00130056,-1.75346,0.152814,0.386089,-265.889,0.0737204,
2,0,0,1,0,1212.73,0.0720215,0.0717735,-17.1282,1,0.00678099,10,-0.00122935,-1.76629,0.163137,0.361659,-242.125,0.0717735,
2,0,0,1,0,1212.74,0.0700239,0.0697321,-16.6761,1,0.00661211,10,-0.00116286,-1.7779,0.171531,0.343961,-223.833,0.06973207,
2,0,0,1,0,1212.75,0.0680263,0.0677557,-16.2288,1,0.00644764,10,-0.0010996,-1.78971,0.187528,0.314619,-199.779,0.0677557,
2,0,0,1,0,1212.76,0.0660197,0.0657047,-15.8715,1,0.00628733,10,-0.00104283,-1.79938,0.200186,0.294727,-182.417,0.0657047,
2,0,0,1,0,1212.77,0.0640221,0.0637343,-15.4953,1,0.00613051,10,-0.00098758,-1.8098,0.191709,0.307758,-186.185,0.0637343,
2,0,0,1,0,1212.78,0.0620245,0.0617605,-15.1372,1,0.00597742,10,-0.000934881,-1.81995,0.202058,0.291996,-172.583,0.0617605,
2,0,0,1,0,1212.79,0.0600269,0.0597017,-14.7993,1,0.00582775,10,-0.000883543,-1.82976,0.21288,0.277152,-160.241,0.0597017,
2,0,0,1,0,1212.8,0.0580248,0.0577643,-14.4968,1,0.00568137,10,-0.0008374,-1.83873,0.213868,0.275871,-155.967,0.0577643,
2,0,0,1,0,1212.81,0.0560227,0.0557185,-14.1781,1,0.0055379,10,-0.00078998,-1.84838,0.223886,0.263527,-146.02,0.0557185,
2,0,0,1,0,1212.82,0.0540251,0.053697,-13.9029,1,0.00539755,10,-0.000746546,-1.85689,0.230902,0.25552,-138.597,0.053697,
2,0,0,1,0,1212.83,0.0520275,0.0517093,-13.6224,1,0.00525995,10,-0.000704405,-1.86575,0.228895,0.257761,-137.086,0.0517093,
2,0,0,1,0,1212.84,0.0500299,0.0497034,-13.3555,1,0.0051251,10,-0.000663812,-1.87434,0.251942,0.234181,-122.242,0.0497034,
2,0,0,1,0,1212.85,0.0480414,0.047692,-13.1313,1,0.00499397,10,-0.000626259,-1.88169,0.270439,0.218164,-111.823,0.047692,
2,0,0,1,0,1212.86,0.0460438,0.0457586,-12.9144,1,0.00486385,10,-0.000590943,-1.88893,0.26941,0.218997,-110.374,0.0457586,
2,0,0,1,0,1212.87,0.0440462,0.0437783,-12.6993,1,0.00473582,10,-0.000555956,-1.89622,0.295961,0.19935,-98.9325,0.0437783,
2,0,0,1,0,1212.88,0.0420486,0.0417741,-12.5202,1,0.00460984,10,-0.000523019,-1.90239,0.364217,0.161991,-79.2699,0.0417741,
2,0,0,1,0,1212.89,0.0400601,0.0397424,-12.3794,1,0.00448653,10,-0.000491988,-1.9073,0.421057,0.140124,-67.7151,0.0397424,
2,0,0,1,0,1212.9,0.0380625,0.0377252,-12.246,1,0.00436347,10,-0.000461983,-1.91201,0.412019,0.143197,-68.4128,0.0377252,
2,0,0,1,0,1212.91,0.036065,0.0357289,-12.1048,1,0.00424176,10,-0.000432493,-1.91704,0.474461,0.124352,-58.8678,0.0357289,
2,0,0,1,0,1212.92,0.0340674,0.0337993,-12.0149,1,0.00412121,10,-0.000406095,-1.92028,0.669934,0.0880684,-41.3243,0.0337993,
2,0,0,1,0,1212.93,0.0320607,0.0317891,-11.942,1,0.0040014,10,-0.000379626,-1.92292,0.746019,0.0790864,-36.8521,0.0317891,
2,0,0,1,0,1212.94,0.0300631,0.0297329,-11.865,1,0.00388241,10,-0.000352781,-1.92573,0.853424,0.0691332,-32.0469,0.0297329,
2,0,0,1,0,1212.95,0.0280655,0.0277877,-11.8138,1,0.00376396,10,-0.000328278,-1.92761,1.2776,0.0461805,-21.3087,0.0277877,
2,0,0,1,0,1212.96,0.0260679,0.0258139,-11.7815,1,0.00364598,10,-0.000304127,-1.9288,2.05331,0.0287341,-13.2181,0.0258139,
2,0,0,1,0,1212.97,0.0240613,0.023749,-11.7604,1,0.00352822,10,-0.000279298,-1.92958,2.89317,0.0203928,-9.3614,0.02374899,
2,0,0,1,0,1212.98,0.0220637,0.0217544,-11.7435,1,0.00341075,10,-0.000255472,-1.9302,4.23059,0.0139461,-6.39396,0.0217544,
2,0,0,1,0,1212.99,0.0200661,0.0197858,-11.7351,1,0.00329329,10,-0.000232188,-1.93051,8.52511,0.00692073,-3.17014,0.0197858,
2,0,0,1,0,1213,0.0180685,0.0177599,-11.7308,1,0.00317596,10,-0.000208339,-1.93067,-9.30055,-0.00634371,2.90676,0.01775991,
2,0,0,1,0,1213.01,0.01608,0.0157589,-11.7468,1,0.00305975,10,-0.000185117,-1.93008,-2.17939,-0.0270717,12.4202,0.0157589,
2,0,0,1,0,1213.02,0.0140824,0.0137603,-11.7805,1,0.00294213,10,-0.000162104,-1.92884,-3.31964,-0.017773,8.15901,0.0137603,
2,0,0,1,0,1213.03,0.0120848,0.0118158,-11.779,1,0.00282429,10,-0.000139178,-1.92889,-2.98983,-0.0197335,9.08645,0.0118158,
2,0,0,1,0,1213.04,0.0100873,0.00980686,-11.8164,1,0.00270637,10,-0.000115882,-1.92751,-1.63255,-0.0361398,16.6606,0.00980686,
2,0,0,1,0,1213.05,0.00810328,0.00778418,-11.8461,1,0.00258923,10,-9.22124e-05,-1.92642,-1.25347,-0.0470692,21.7864,0.00778418,
2,0,0,1,0,1213.06,0.00610116,0.00580171,-11.9037,1,0.00247048,10,-6.90618e-05,-1.92432,-1.34274,-0.0439399,20.3836,0.00580171,
2,0,0,1,0,1213.07,0.00410357,0.00380795,-11.9272,1,0.00235138,10,-4.54181e-05,-1.92346,-0.769486,-0.0766745,35.8359,0.00380795,
2,0,0,1,0,1213.08,0.00210598,0.00177081,-12.0481,1,0.00223188,10,-2.1335e-05,-1.91908,-0.746403,-0.0790458,37.0256,0.001770811,
2,0,0,1,0,1213.09,0.00010174,-0.000251577,-12.0775,1,0.00211118,10,3.03842e-06,-1.91802,-1.59674,-0.0369504,17.4243,-0.000251577,
2,0,0,1,0,1213.1,-0.00189827,-0.00222538,-12.1178,1,0.00199016,10,2.69667e-05,-1.91658,-1.47613,-0.0399693,18.898,-0.00222538,
2,0,0,1,0,1213.11,-0.00389586,-0.00423215,-12.1527,1,0.00186874,10,5.14321e-05,-1.91533,-1.20401,-0.0490028,23.2642,-0.00423215,
2,0,0,1,0,1213.12,-0.00589345,-0.00627103,-12.2119,1,0.00174693,10,7.65811e-05,-1.91322,-1.19678,-0.0492988,23.4717,-0.00627103,
2,0,0,1,0,1213.13,-0.00789103,-0.00823095,-12.2466,1,0.00162452,10,0.000100801,-1.91199,-0.847955,-0.0695792,33.3404,-0.00823095,
2,0,0,1,0,1213.14,-0.0098977,-0.0102429,-12.3443,1,0.00150152,10,0.000126442,-1.90853,-0.725673,-0.0813039,39.1074,-0.0102429,
2,0,0,1,0,1213.15,-0.0118953,-0.0122462,-12.4036,1,0.00137774,10,0.000151897,-1.90645,-1.03513,-0.0569977,27.5815,-0.0122462,
2,0,0,1,0,1213.16,-0.0138929,-0.0142339,-12.4544,1,0.00125342,10,0.000177275,-1.90468,-0.949115,-0.0621632,30.239,-0.01423391,
2,0,0,1,0,1213.17,-0.0158905,-0.0162737,-12.5254,1,0.00112845,10,0.000203834,-1.90221,-0.692809,-0.0851605,41.6688,-0.0162737,
2,0,0,1,0,1213.18,-0.017879,-0.0182284,-12.6208,1,0.00100399,10,0.000230058,-1.89891,-0.737473,-0.0800029,39.3505,-0.0182284,
2,0,0,1,0,1213.19,-0.0198766,-0.0202374,-12.6814,1,0.000877423,10,0.000256637,-1.89683,-0.889713,-0.0663135,32.8311,-0.0202374,
2,0,0,1,0,1213.2,-0.0218741,-0.0221954,-12.7511,1,0.000750337,10,0.000283016,-1.89445,-0.813742,-0.0725046,36.0865,-0.0221954,
2,0,0,1,0,1213.21,-0.0238717,-0.0242211,-12.8251,1,0.000622384,10,0.000310638,-1.89194,-0.6932,-0.0851125,42.6371,-0.0242211,
2,0,0,1,0,1213.22,-0.0258602,-0.0261887,-12.9213,1,0.000494962,10,0.000338393,-1.88869,-0.784978,-0.0751613,37.8441,-0.0261887,
2,0,0,1,0,1213.23,-0.0278578,-0.0282657,-12.9782,1,0.000365413,10,0.000366837,-1.88679,-0.835798,-0.0705912,35.7951,-0.0282657,
2,0,0,1,0,1213.24,-0.0298554,-0.0301987,-13.0649,1,0.000235188,10,0.000394543,-1.88389,-0.75327,-0.0783252,39.9121,-0.0301987,
2,0,0,1,0,1213.25,-0.031853,-0.0322185,-13.1359,1,0.000104083,10,0.00042322,-1.88154,-0.737734,-0.0799746,41.0332,-0.0322185,
2,0,0,1,0,1213.26,-0.0338597,-0.0341993,-13.229,1,-2.77515e-05,10,0.000452423,-1.87847,-0.7036,-0.0838544,43.2703,-0.0341993,
2,0,0,1,0,1213.27,-0.0358573,-0.0362086,-13.3086,1,-0.000160508,10,0.000481886,-1.87587,-0.724587,-0.0814257,42.3063,-0.03620863,
2,0,0,1,0,1213.28,-0.0378548,-0.0381816,-13.3975,1,-0.000294098,10,0.000511538,-1.87298,-0.782072,-0.0754406,39.4144,-0.0381816,
2,0,0,1,0,1213.29,-0.0398524,-0.0401996,-13.4659,1,-0.00042855,10,0.000541324,-1.87076,-0.675307,-0.0873676,45.9965,-0.0401996,
2,0,0,1,0,1213.3,-0.0418591,-0.0422099,-13.5828,1,-0.000563748,10,0.000573328,-1.86701,-0.639254,-0.092295,48.8531,-0.0422099,
2,0,0,1,0,1213.31,-0.0438567,-0.0441776,-13.6602,1,-0.000700011,10,0.000603476,-1.86454,-0.784675,-0.0751903,40.0918,-0.0441776,
2,0,0,1,0,1213.32,-0.0458543,-0.0461922,-13.7425,1,-0.000837044,10,0.000634794,-1.86194,-0.777013,-0.0759318,40.7198,-0.0461922,
2,0,0,1,0,1213.33,-0.0478519,-0.0481521,-13.8221,1,-0.000974946,10,0.000665562,-1.85943,-0.659069,-0.0895202,48.3488,-0.0481521,
2,0,0,1,0,1213.34,-0.0498585,-0.0501892,-13.9357,1,-0.00111369,10,0.000699423,-1.85587,-0.611597,-0.0964688,52.4327,-0.0501892,
2,0,0,1,0,1213.35,-0.051838,-0.052157,-14.0321,1,-0.00125218,10,0.000731869,-1.85288,-0.707316,-0.0834139,45.6613,-0.052157,
2,0,0,1,0,1213.36,-0.0538355,-0.0541691,-14.1174,1,-0.00139282,10,0.000764729,-1.85024,-0.781678,-0.0754786,41.5829,-0.0541691,
2,0,0,1,0,1213.37,-0.0558331,-0.0562265,-14.2013,1,-0.00153448,10,0.000798489,-1.84767,-0.654648,-0.0901248,50.0047,-0.0562265,
2,0,0,1,0,1213.38,-0.0578126,-0.0581538,-14.3167,1,-0.00167561,10,0.000832571,-1.84416,-0.619433,-0.0952484,53.1788,-0.0581538,
2,0,0,1,0,1213.39,-0.0598192,-0.0601728,-14.4111,1,-0.00181934,10,0.000867158,-1.8413,-0.639454,-0.0922662,51.9235,-0.06017277,
2,0,0,1,0,1213.4,-0.0618168,-0.0621327,-14.5233,1,-0.00196398,10,0.000902371,-1.83793,-0.596557,-0.0989008,56.0509,-0.0621327,
2,0,0,1,0,1213.41,-0.0638144,-0.0641299,-14.6329,1,-0.00210984,10,0.000938409,-1.83467,-0.624447,-0.0944837,53.9515,-0.0641299,
2,0,0,1,0,1213.42,-0.065812,-0.0661471,-14.7399,1,-0.00225667,10,0.000975,-1.83151,-0.606232,-0.0973224,56.0071,-0.0661471,
2,0,0,1,0,1213.43,-0.0678187,-0.0681686,-14.8591,1,-0.00240479,10,0.00101293,-1.82801,-0.530055,-0.111309,64.5913,-0.0681686,
2,0,0,1,0,1213.44,-0.0698163,-0.0701537,-14.9987,1,-0.00255408,10,0.00105221,-1.82395,-0.555062,-0.106294,62.1516,-0.0701537,
2,0,0,1,0,1213.45,-0.0718138,-0.0721423,-15.1061,1,-0.00270471,10,0.00108979,-1.82085,-0.58383,-0.101057,59.6212,-0.0721423,
2,0,0,1,0,1213.46,-0.0738114,-0.0741404,-15.2364,1,-0.00285643,10,0.00112963,-1.81712,-0.460329,-0.128169,76.324,-0.0741404,
2,0,0,1,0,1213.47,-0.0758181,-0.0761506,-15.412,1,-0.00300981,10,0.00117364,-1.81214,-0.466985,-0.126342,75.8774,-0.0761506,
2,0,0,1,0,1213.48,-0.0778157,-0.0781669,-15.5419,1,-0.00316458,10,0.00121486,-1.8085,-0.510074,-0.115669,70.2006,-0.0781669,
2,0,0,1,0,1213.49,-0.0798133,-0.0801216,-15.6908,1,-0.0033208,10,0.00125717,-1.80435,-0.450953,-0.130834,80.1685,-0.0801216,
2,0,0,1,0,1213.5,-0.0818109,-0.0821431,-15.8607,1,-0.00347859,10,0.00130284,-1.79968,-0.412162,-0.143147,88.6511,-0.0821431,
2,0,0,1,0,1213.51,-0.0837994,-0.0841465,-16.0476,1,-0.00363659,10,0.00135035,-1.79459,-0.417948,-0.141166,88.3524,-0.0841465,
2,0,0,1,0,1213.52,-0.0857969,-0.0861515,-16.2148,1,-0.00379782,10,0.00139693,-1.79009,-0.427525,-0.138004,87.3669,-0.0861515,
2,0,0,1,0,1213.53,-0.0877945,-0.0881429,-16.3968,1,-0.00396094,10,0.00144526,-1.78524,-0.396491,-0.148806,95.2547,-0.0881429,
2,0,0,1,0,1213.54,-0.0897921,-0.0901026,-16.5912,1,-0.00412587,10,0.00149491,-1.78012,-0.393243,-0.150034,97.1335,-0.0901026,
2,0,0,1,0,1213.55,-0.0917806,-0.0921119,-16.7823,1,-0.00429106,10,0.00154585,-1.77515,-0.387519,-0.152251,99.7534,-0.0921119,
2,0,0,1,0,1213.56,-0.0937782,-0.0940692,-16.9869,1,-0.00445987,10,0.00159794,-1.76989,-0.38493,-0.153275,101.604,-0.09406925,
2,0,0,1,0,1213.57,-0.0957758,-0.0961281,-17.1904,1,-0.00463085,10,0.00165248,-1.76472,-0.395922,-0.149019,99.9631,-0.0961281,
2,0,0,1,0,1213.58,-0.0977734,-0.0981158,-17.3914,1,-0.00480375,10,0.00170637,-1.75967,-0.379819,-0.155337,105.489,-0.0981158,
2,0,0,1,0,1213.59,-0.0997412,-0.100135,-17.613,1,-0.00497531,10,0.00176368,-1.75417,0.0837054,0.704853,-465.985,-0.100135,
2,0,0,1,1,1213.59,-0.0996711,-0.100037,-16.4963,1,-0.00502674,10,0.00165023,-1.78261,-0.00889464,-6.63321,3532.11,-0.100037,
2,0,0,1,1,1213.6,-0.0976826,-0.0980707,-10.3216,1,-0.005157,10,0.00101225,-1.98625,-0.00862993,-6.83667,2708.81,-0.0980707,
2,0,0,1,1,1213.61,-0.095685,-0.0960475,-5.69031,1,-0.00523551,10,0.00054654,-2.24486,-0.0058775,-10.0383,2039.73,-0.0960475,
2,0,0,1,1,1213.62,-0.0936874,-0.0940632,-2.14735,1,-0.00527346,10,0.000201987,-2.6681,-0.00419569,-14.062,1575.81,-0.0940632,
2,1,0,1,1,1213.63,-0.0916898,-0.0920367,0.62983,1,-0.00528019,10,-5.79675e-05,-3.20078,0.0352171,1.67532,1239.51,-0.0920367,
2,1,0,1,1,1213.64,-0.0897013,-0.0900835,2.78553,1,-0.0052626,10,-0.00025093,-2.55509,0.00461007,12.7981,985.722,-0.09008348,
2,1,0,1,1,1213.65,-0.0877037,-0.0880915,4.51879,1,-0.00522556,10,-0.000398067,-2.34498,0.012218,4.82895,781.915,-0.0880915,
2,1,0,1,1,1213.66,-0.0857062,-0.0861029,5.89801,1,-0.00517302,10,-0.000507836,-2.22929,0.0209184,2.82048,623.432,-0.0861029,
2,1,0,1,1,1213.67,-0.0837086,-0.0841317,6.98743,1,-0.00510834,10,-0.000587864,-2.15568,0.0314777,1.87434,501.669,-0.0841317,
2,1,0,1,1,1213.68,-0.0817019,-0.0820781,7.91714,1,-0.00503346,10,-0.000649823,-2.10143,0.0431608,1.36698,415.839,-0.0820781,
2,1,0,1,1,1213.69,-0.0797043,-0.0801051,8.66183,1,-0.00495036,10,-0.000693857,-2.06239,0.0594459,0.992498,331.728,-0.0801051,
2,1,0,1,1,1213.7,-0.0777067,-0.0780732,9.24566,1,-0.00486059,10,-0.000721839,-2.03406,0.0798439,0.738942,264.96,-0.0780732,
2,1,0,1,1,1213.71,-0.0757091,-0.0760569,9.73445,1,-0.00476563,10,-0.000740372,-2.01169,0.100809,0.585265,221.199,-0.0760569,
2,1,0,1,1,1213.72,-0.0737025,-0.0740458,10.1365,1,-0.00466615,10,-0.000750567,-1.99411,0.129802,0.454539,178.938,-0.0740458,
2,1,0,1,1,1213.73,-0.0717049,-0.0720676,10.4483,1,-0.00456314,10,-0.000752983,-1.98096,0.176635,0.334022,135.612,-0.0720676,
2,1,0,1,1,1213.74,-0.0697073,-0.0700817,10.6741,1,-0.00445744,10,-0.000748059,-1.97167,0.22805,0.258715,107.689,-0.0700817,
2,1,0,1,1,1213.75,-0.0677097,-0.0680038,10.8859,1,-0.00434958,10,-0.000740283,-1.96314,0.25613,0.230352,97.7031,-0.0680038,
2,1,0,1,1,1213.76,-0.0657212,-0.0660867,11.0644,1,-0.00424087,10,-0.000731212,-1.95607,0.315334,0.187103,80.645,-0.0660867,
2,1,0,1,1,1213.77,-0.0637236,-0.0640603,11.2039,1,-0.0041296,10,-0.000717728,-1.95063,0.441566,0.133615,58.3055,-0.0640603,
2,1,0,1,1,1213.78,-0.061726,-0.0620665,11.2988,1,-0.00401707,10,-0.000701278,-1.94697,0.530798,0.111153,49.0267,-0.0620665,
2,1,0,1,1,1213.79,-0.0597284,-0.0600575,11.4002,1,-0.00390356,10,-0.000684667,-1.94309,0.628952,0.0938068,41.666,-0.0600575,
2,1,0,1,1,1213.8,-0.0577399,-0.0581079,11.4638,1,-0.00379038,10,-0.000666135,-1.94067,0.784204,0.0752355,33.668,-0.0581079,
2,1,0,1,1,1213.81,-0.0557423,-0.0561115,11.533,1,-0.00367542,10,-0.000647136,-1.93806,1.03979,0.056742,25.4987,-0.0561115,
2,1,0,1,1,1213.82,-0.0537447,-0.0541151,11.5656,1,-0.00355986,10,-0.000625873,-1.93683,1.64209,0.0359297,16.2174,-0.0541151,
2,1,0,1,1,1213.83,-0.0517472,-0.052104,11.598,1,-0.003444,10,-0.000604304,-1.93562,1.68253,0.0350663,15.8717,-0.052104,
2,1,0,1,1,1213.84,-0.049745,-0.0500678,11.6298,1,-0.00332784,10,-0.000582279,-1.93443,1.52875,0.0385936,17.5224,-0.0500678,
2,1,0,1,1,1213.85,-0.0477429,-0.048041,11.6692,1,-0.00321134,10,-0.000560601,-1.93296,4.10246,0.0143816,6.53474,-0.048041,
2,1,0,1,1,1213.86,-0.0457453,-0.0460993,11.6557,1,-0.00309464,10,-0.000537322,-1.93346,128.154,0.000460385,0.209673,-0.0460993,
2,1,0,1,1,1213.87,-0.0437477,-0.044116,11.67,1,-0.00297802,10,-0.000514836,-1.93293,25.1931,0.00234191,1.0655,-0.04411599,
2,1,0,1,1,1213.88,-0.0417501,-0.0420971,11.66,1,-0.00286132,10,-0.000490852,-1.9333,5.7681,0.0102287,4.66232,-0.0420971,
2,1,0,1,1,1213.89,-0.0397435,-0.0401163,11.6887,1,-0.0027445,10,-0.000468907,-1.93223,44.3756,0.00132956,0.605084,-0.0401163,
2,1,0,1,1,1213.9,-0.0377459,-0.0380835,11.6624,1,-0.00262776,10,-0.000444147,-1.93321,-4.41583,-0.013361,-6.0885,-0.0380835,
2,1,0,1,1,1213.91,-0.0357483,-0.0360611,11.664,1,-0.00251119,10,-0.000420617,-1.93315,-4.7082,-0.0125313,-5.69809,-0.0360611,
2,1,0,1,1,1213.92,-0.0337507,-0.0341134,11.6398,1,-0.00239463,10,-0.000397073,-1.93405,-4.04502,-0.0145859,-6.6321,-0.0341134,
2,1,0,1,1,1213.93,-0.0317622,-0.0320835,11.6376,1,-0.00227941,10,-0.000373375,-1.93414,-5.27994,-0.0111744,-5.0717,-0.0320835,
2,1,0,1,1,1213.94,-0.0297646,-0.0301087,11.6195,1,-0.00216316,10,-0.000349848,-1.93481,-2.55826,-0.0230626,-10.4556,-0.0301087,
2,1,0,1,1,1213.95,-0.027767,-0.0280584,11.5955,1,-0.00204713,10,-0.000325352,-1.93571,-1.52993,-0.0385637,-17.4355,-0.0280584,
2,1,0,1,1,1213.96,-0.0257694,-0.0261378,11.5503,1,-0.00193136,10,-0.000301898,-1.93741,-2.43224,-0.0242574,-10.9571,-0.0261378,
2,1,0,1,1,1213.97,-0.0237809,-0.0241446,11.5527,1,-0.00181702,10,-0.000278934,-1.93732,-3.90482,-0.0151095,-6.80281,-0.0241446,
2,1,0,1,1,1213.98,-0.0217833,-0.0220849,11.5227,1,-0.00170159,10,-0.000254477,-1.93845,-1.58646,-0.0371896,-16.7185,-0.0220849,
2,1,0,1,1,1213.99,-0.0197858,-0.0201128,11.4852,1,-0.00158652,10,-0.000231001,-1.93986,-1.55908,-0.0378428,-16.9681,-0.0201128,
2,1,0,1,1,1214,-0.0177882,-0.0181321,11.4556,1,-0.0014718,10,-0.000207714,-1.94098,-3.16442,-0.0186448,-8.3451,-0.0181321,
2,1,0,1,1,1214.01,-0.0157815,-0.0161218,11.4519,1,-0.00135734,10,-0.000184626,-1.94112,-1.80226,-0.0327367,-14.5984,-0.0161218,
2,1,0,1,1,1214.02,-0.0137839,-0.0141168,11.397,1,-0.00124303,10,-0.000160889,-1.94321,-1.35543,-0.0435286,-19.3881,-0.0141168,
2,1,0,1,1,1214.03,-0.0117863,-0.0121039,11.374,1,-0.00112927,10,-0.000137671,-1.94409,-1.60902,-0.0366683,-16.2631,-0.0121039,
2,1,0,1,1,1214.04,-0.00978874,-0.0101206,11.332,1,-0.00101573,10,-0.000114687,-1.94569,-1.94965,-0.0302618,-13.4015,-0.0101206,
2,1,0,1,1,1214.05,-0.00778207,-0.00812597,11.3207,1,-0.000902506,10,-9.19919e-05,-1.94613,-1.38455,-0.042613,-18.7838,-0.00812597,
2,1,0,1,1,1214.06,-0.00578449,-0.00615737,11.2576,1,-0.00078961,10,-6.93171e-05,-1.94856,-1.14586,-0.0514896,-22.6578,-0.00615737,
2,1,0,1,1,1214.07,-0.0037869,-0.00413411,11.2303,1,-0.000677144,10,-4.64273e-05,-1.94961,-1.50474,-0.0392094,-17.1731,-0.00413411,
2,1,0,1,1,1214.08,-0.00178931,-0.00209003,11.1877,1,-0.00056501,10,-2.33827e-05,-1.95126,-1.06956,-0.0551631,-24.0762,-0.00209003,
2,1,0,0,1,1214.09,-2.55332e-05,-0.000248974,11.1367,1,-0.000467872,10,-2.77276e-06,-1.95324, , , ,-0.000248974,