File: Figure_codes/Fig_3-5/rawdata_trumpetplot_data/before 10th/20221101_1-115_002_TrumpetPlot_ParaChange_10_CV_C01_4.csv
mode,ox/red,error,control changes,counter inc.,time/s,control/V,Ewe/V,<I>/mA,cycle number,(Q-Qo)/C,I Range,P/W,log(|I|),Tafel slope mV/dec,alpha_eff,dI/d(E-IR),E-IR/V,
2,0,0,0,0,6120.9,2.44065e-05,0.000170947,-5.99055,5,0.0000000E+000,11,-1.02407e-06,-2.22253, , , ,0.000170947,
2,0,0,1,0,6120.92,0.0012943,0.000893197,-2.51928,5,-6.73503e-05,11,-2.25022e-06,-2.59872, , , ,0.000893197,
2,0,0,1,0,6120.94,0.00279784,0.00247233,0.0245028,5,-8.81601e-05,11,6.0579e-08,-4.61078,-0.0111228,-5.30441,1330.92,0.00247233,
2,1,0,1,0,6120.96,0.00429425,0.00395353,1.32799,5,-7.41022e-05,11,5.25024e-06,-2.87681,0.00740057,7.97236,720.248,0.00395353,
2,1,0,1,0,6120.98,0.00579065,0.00542916,2.06121,5,-4.15571e-05,11,1.11906e-05,-2.68588,0.0093254,6.32681,409.89,0.00542916,
2,1,0,1,0,6120.99,0.0072942,0.00698819,2.50311,5,1.83758e-06,11,1.74922e-05,-2.60152,0.0221425,2.66456,241.961,0.00698819,
2,1,0,1,0,6121.01,0.00878347,0.00847291,2.77861,5,5.12242e-05,11,2.35429e-05,-2.55617,0.0398742,1.47965,154.699,0.00847291,
2,1,0,1,0,6121.03,0.010287,0.00996853,2.95866,5,0.000105327,11,2.94935e-05,-2.52891,0.0695301,0.848554,96.0096,0.00996853,
2,1,0,1,0,6121.05,0.0117905,0.0114897,3.07727,5,0.000162204,11,3.5357e-05,-2.51183,0.102797,0.573945,68.2635,0.0114897,
2,1,0,1,0,6121.07,0.013278,0.0129564,3.16224,5,0.000220247,11,4.09712e-05,-2.50001,0.140353,0.420369,51.7168,0.0129564,
2,1,0,1,0,6121.09,0.0147816,0.0144544,3.23631,5,0.00028042,11,4.67789e-05,-2.48995,0.178743,0.330083,41.4762,0.0144544,
2,1,0,1,0,6121.11,0.0162851,0.0160185,3.29572,5,0.000341858,11,5.27926e-05,-2.48205,0.218937,0.269484,34.4562,0.0160185,
2,1,0,1,0,6121.13,0.0177744,0.0174552,3.34309,5,0.000403537,11,5.83542e-05,-2.47585,0.273504,0.215719,28.0071,0.0174552,
2,1,0,1,0,6121.14,0.0192779,0.0189784,3.37673,5,0.000466592,11,6.4085e-05,-2.4715,0.290902,0.202817,26.6721,0.01897843,
2,1,0,1,0,6121.16,0.0207743,0.0204499,3.41612,5,0.00053005,11,6.98592e-05,-2.46647,0.26633,0.221529,29.4636,0.0204499,
2,1,0,1,0,6121.18,0.0222707,0.0219877,3.45101,5,0.000594221,11,7.58798e-05,-2.46205,0.306653,0.1924,25.8728,0.0219877,
2,1,0,1,0,6121.2,0.0237743,0.0234929,3.48604,5,0.000659476,11,8.18973e-05,-2.45767,0.334611,0.176324,23.9518,0.0234929,
2,1,0,1,0,6121.22,0.0252636,0.0249664,3.50744,5,0.000724593,11,8.75682e-05,-2.45501,0.314845,0.187394,25.751,0.0249664,
2,1,0,1,0,6121.24,0.0267671,0.0265118,3.54664,5,0.000791022,11,9.40277e-05,-2.45018,0.306174,0.192701,26.7169,0.0265118,
2,1,0,1,0,6121.26,0.0282706,0.0279972,3.58776,5,0.000858235,11,0.000100447,-2.44518,0.317952,0.185563,25.9796,0.0279972,
2,1,0,1,0,6121.28,0.0297581,0.0294662,3.62077,5,0.000925405,11,0.00010669,-2.4412,0.393786,0.149827,21.1738,0.0294662,
2,1,0,1,0,6121.29,0.0312617,0.0309608,3.64641,5,0.000993916,11,0.000112896,-2.43813,0.391827,0.150577,21.4977,0.0309608,
2,1,0,1,0,6121.31,0.0327652,0.0324994,3.68852,5,0.00106301,11,0.000119875,-2.43315,0.377189,0.15642,22.5684,0.03249941,
2,1,0,1,0,6121.33,0.0342545,0.0339947,3.73165,5,0.0011321,11,0.000126856,-2.4281,0.355637,0.1659,24.1756,0.0339947,
2,1,0,1,0,6121.35,0.035758,0.0354746,3.77073,5,0.00120272,11,0.000133765,-2.42358,0.37933,0.155537,22.882,0.0354746,
2,1,0,1,0,6121.37,0.0372544,0.0369499,3.81779,5,0.00127373,11,0.000141067,-2.41819,0.346184,0.170429,25.3934,0.0369499,
2,1,0,1,0,6121.39,0.0387508,0.0384478,3.85589,5,0.00134537,11,0.000148251,-2.41387,0.323407,0.182432,27.4922,0.0384478,
2,1,0,1,0,6121.41,0.0402544,0.039968,3.90639,5,0.00141832,11,0.000156131,-2.40822,0.269657,0.218796,33.3166,0.039968,
2,1,0,1,0,6121.42,0.0417437,0.0414572,3.96315,5,0.00149145,11,0.000164301,-2.40196,0.2756,0.214079,32.9979,0.0414572,
2,1,0,1,0,6121.44,0.0432472,0.042949,4.0072,5,0.00156627,11,0.000172106,-2.39716,0.278303,0.211999,33.0844,0.042949,
2,1,0,1,0,6121.46,0.0447507,0.0444239,4.04983,5,0.00164191,11,0.000179909,-2.39256,0.253044,0.233161,36.8695,0.0444239,
2,1,0,1,0,6121.48,0.0462382,0.0459382,4.10243,5,0.00171771,11,0.000188458,-2.38696,0.212561,0.277567,44.4765,0.0459382,
2,1,0,1,0,6121.5,0.0477418,0.0474489,4.159,5,0.00179544,11,0.00019734,-2.38101,0.220139,0.268013,43.5392,0.04744887,
2,1,0,1,0,6121.52,0.0492453,0.0489949,4.21745,5,0.00187434,11,0.000206634,-2.37495,0.238494,0.247386,40.7572,0.0489949,
2,1,0,1,0,6121.54,0.0507346,0.0504319,4.27041,5,0.00195344,11,0.000215365,-2.36953,0.231252,0.255133,42.651,0.0504319,
2,1,0,1,0,6121.56,0.0522381,0.0519283,4.34412,5,0.00203458,11,0.000225583,-2.3621,0.210009,0.28094,47.699,0.0519283,
2,1,0,1,0,6121.57,0.0537345,0.0534496,4.41787,5,0.00211657,11,0.000236133,-2.35479,0.225192,0.261999,45.1814,0.0534496,
2,1,0,1,0,6121.59,0.0552309,0.0549492,4.49146,5,0.00220001,11,0.000246802,-2.34761,0.224113,0.26326,46.0816,0.0549492,
2,1,0,1,0,6121.61,0.0567345,0.056468,4.55704,5,0.00228517,11,0.000257327,-2.34132,0.235263,0.250783,44.7051,0.056468,
2,1,0,1,0,6121.63,0.0582237,0.0579268,4.63839,5,0.00237074,11,0.000268687,-2.33363,0.219482,0.268814,48.7092,0.0579268,
2,1,0,1,0,6121.65,0.0597273,0.0594279,4.72275,5,0.00245873,11,0.000280663,-2.3258,0.214431,0.275146,50.6805,0.0594279,
2,1,0,1,0,6121.67,0.0612308,0.0609995,4.80738,5,0.0025483,11,0.000293248,-2.31809,0.211425,0.279059,52.2401,0.0609995,
2,1,0,1,0,6121.69,0.0627183,0.0623976,4.88734,5,0.0026384,11,0.000304959,-2.31093,0.20991,0.281073,53.5759,0.0623976,
2,1,0,1,0,6121.71,0.0642219,0.0639669,4.96799,5,0.00273092,11,0.000317787,-2.30382,0.198096,0.297835,57.7712,0.0639669,
2,1,0,1,0,6121.72,0.0657254,0.0654247,5.06001,5,0.00282516,11,0.00033105,-2.29585,0.183654,0.321257,63.3359,0.0654247,
2,1,0,1,0,6121.74,0.0672147,0.0669418,5.15307,5,0.00292012,11,0.000344956,-2.28793,0.191139,0.308676,61.9373,0.0669418,
2,1,0,1,0,6121.76,0.0687182,0.0684405,5.2393,5,0.00301779,11,0.000358581,-2.28073,0.205864,0.286597,58.5307,0.0684405,
2,1,0,1,0,6121.78,0.0702146,0.0699282,5.31518,5,0.00311647,11,0.000371681,-2.27448,0.195635,0.301582,62.6395,0.0699282,
2,1,0,1,0,6121.8,0.071711,0.0714273,5.40225,5,0.00321676,11,0.000385868,-2.26743,0.195944,0.301107,63.5341,0.0714273,
2,1,0,1,0,6121.82,0.0732146,0.072955,5.49287,5,0.00331934,11,0.000400732,-2.2602,0.198545,0.297162,63.772,0.072955,
2,1,0,1,0,6121.84,0.0747038,0.0744373,5.58458,5,0.0034225,11,0.000415701,-2.25301,0.217365,0.271432,59.1332,0.0744373,
2,1,0,1,0,6121.86,0.0762074,0.0759128,5.66481,5,0.00352844,11,0.000430031,-2.24681,0.222488,0.265183,58.716,0.0759128,
2,1,0,1,0,6121.87,0.0777109,0.0773972,5.75798,5,0.00363593,11,0.000445652,-2.23973,0.223449,0.264042,59.4083,0.0773972,
2,1,0,1,0,6121.89,0.0791984,0.0789027,5.84835,5,0.00374398,11,0.000461451,-2.23297,0.23181,0.254519,58.0718,0.0789027,
2,1,0,1,0,6121.91,0.0807019,0.0804035,5.93715,5,0.00385493,11,0.000477368,-2.22642,0.261447,0.225668,52.232,0.0804035,
2,1,0,1,0,6121.93,0.0822055,0.0818998,6.02111,5,0.00396745,11,0.000493127,-2.22032,0.267925,0.220211,51.7496,0.08189977,
2,1,0,1,0,6121.95,0.0836947,0.0834182,6.10047,5,0.00408018,11,0.000508891,-2.21464,0.278087,0.212164,50.5352,0.0834182,
2,1,0,1,0,6121.97,0.0851983,0.0849146,6.18762,5,0.00419575,11,0.000525419,-2.20848,0.272273,0.216694,52.2884,0.08491455,
2,1,0,1,0,6121.99,0.0866947,0.0863986,6.27455,5,0.00431226,11,0.000542112,-2.20242,0.2849,0.20709,50.6166,0.0863986,
2,1,0,1,0,6122.01,0.0881911,0.0879324,6.35646,5,0.00443027,11,0.000558938,-2.19678,0.293666,0.200909,49.7485,0.0879324,
2,1,0,1,0,6122.02,0.0896946,0.089398,6.42243,5,0.0045503,11,0.000574153,-2.1923,0.28624,0.206121,51.6823,0.089398,
2,1,0,1,0,6122.04,0.0911839,0.0908783,6.50536,5,0.00467048,11,0.000591196,-2.18673,0.270766,0.2179,55.2777,0.0908783,
2,1,0,1,0,6122.06,0.0926857,0.0924264,6.58036,5,0.0047935,11,0.000608199,-2.18175,0.278887,0.211555,54.2879,0.0924264,
2,1,0,1,0,6122.08,0.0941892,0.0938989,6.65382,5,0.00491797,11,0.000624786,-2.17693,0.302416,0.195095,50.641,0.0938989,
2,1,0,1,0,6122.1,0.0956785,0.0953693,6.71805,5,0.0050424,11,0.000640695,-2.17276,0.298723,0.197508,51.8721,0.0953693,
2,1,0,1,0,6122.12,0.097182,0.0968864,6.79493,5,0.00516953,11,0.000658336,-2.16782,0.276115,0.213679,56.7319,0.0968864,
2,1,0,1,0,6122.14,0.0986856,0.0983766,6.87611,5,0.00529821,11,0.000676448,-2.16266,0.278364,0.211953,56.9358,0.0983766,
2,1,0,1,0,6122.16,0.100175,0.0998712,6.956,5,0.00542702,11,0.000694704,-2.15764,0.291005,0.202746,55.0931,0.0998712,
2,1,0,1,0,6122.17,0.101678,0.101388,7.03799,5,0.00555883,11,0.000713567,-2.15255,0.279812,0.210856,58.0025,0.101388,
2,1,0,1,0,6122.19,0.103175,0.102911,7.1347,5,0.00569147,11,0.000734242,-2.14662,0.285929,0.206345,57.5329,0.102911,
2,1,0,1,0,6122.21,0.104671,0.10439,7.22929,5,0.00582583,11,0.000754667,-2.1409,0.269392,0.219012,61.8188,0.10439,
2,1,0,1,0,6122.23,0.106175,0.105892,7.33008,5,0.00596277,11,0.000776198,-2.13489,0.279854,0.210824,60.2694,0.105892,
2,1,0,1,0,6122.25,0.107662,0.107368,7.42789,5,0.00610007,11,0.000797519,-2.12913,0.263192,0.224171,65.0177,0.107368,
2,1,0,1,0,6122.27,0.109166,0.108898,7.52658,5,0.00624058,11,0.000819633,-2.1234,0.234957,0.251109,73.9524,0.108898,
2,1,0,1,0,6122.29,0.110669,0.110348,7.65981,5,0.0063833,11,0.000845248,-2.11578,0.206981,0.28505,85.2007,0.1103484,
2,1,0,1,0,6122.31,0.112159,0.111848,7.7935,5,0.00652692,11,0.000871691,-2.10827,0.201012,0.293515,89.2115,0.111848,
2,1,0,1,0,6122.32,0.113662,0.113337,7.93073,5,0.00667465,11,0.000898847,-2.10069,0.193248,0.305307,94.4071,0.113337,
2,1,0,1,0,6122.34,0.115166,0.114868,8.06875,5,0.00682497,11,0.000926844,-2.09319,0.186348,0.316611,99.7467,0.114868,
2,1,0,1,0,6122.36,0.116655,0.11633,8.22078,5,0.00697642,11,0.000956325,-2.08509,0.175872,0.335471,107.664,0.11633,
2,1,0,1,0,6122.38,0.118158,0.11787,8.38854,5,0.00713254,11,0.000988761,-2.07631,0.169445,0.348197,113.96,0.11787,
2,1,0,1,0,6122.4,0.119655,0.119359,8.55064,5,0.00729095,11,0.00102059,-2.068,0.169557,0.347965,116.185,0.119359,
2,1,0,1,0,6122.42,0.121151,0.120841,8.71211,5,0.00745246,11,0.00105278,-2.05988,0.164913,0.357764,121.854,0.120841,
2,1,0,1,0,6122.44,0.122655,0.122386,8.89954,5,0.00761821,11,0.00108918,-2.05063,0.161571,0.365164,126.946,0.122386,
2,1,0,1,0,6122.45,0.124142,0.123878,9.08516,5,0.00778563,11,0.00112545,-2.04167,0.164187,0.359347,127.528,0.123878,
2,1,0,1,0,6122.47,0.125646,0.125338,9.27644,5,0.00795841,11,0.00116269,-2.03262,0.171937,0.343148,124.232,0.125338,
2,1,0,1,0,6122.49,0.127149,0.126839,9.4648,5,0.0081348,11,0.0012005,-2.02389,0.171817,0.343389,126.91,0.1268388,
2,1,0,1,0,6122.51,0.128639,0.128332,9.65828,5,0.00831279,11,0.00123947,-2.0151,0.175331,0.336506,126.947,0.128332,
2,1,0,1,0,6122.53,0.130142,0.129863,9.85733,5,0.00849638,11,0.0012801,-2.00624,0.180409,0.327034,125.815,0.129863,
2,1,0,1,0,6122.55,0.131646,0.131367,10.0549,5,0.00868371,11,0.00132088,-1.99762,0.18684,0.315779,123.815,0.131367,
2,1,0,1,0,6122.57,0.133135,0.132873,10.2483,5,0.00887258,11,0.00136172,-1.98935,0.197572,0.298625,119.304,0.132873,
2,1,0,1,0,6122.59,0.134639,0.134358,10.4305,5,0.00906686,11,0.00140143,-1.98169,0.199131,0.296287,120.526,0.134358,
2,1,0,1,0,6122.6,0.136135,0.135857,10.6135,5,0.00926352,11,0.00144191,-1.97414,0.205779,0.286716,118.597,0.135857,
2,1,0,1,0,6122.62,0.137631,0.137305,10.7907,5,0.00946357,11,0.00148162,-1.96695,0.217236,0.271594,114.12,0.137305,
2,1,0,1,0,6122.64,0.139135,0.138843,10.9561,5,0.00966794,11,0.00152117,-1.96035,0.227492,0.259349,110.701,0.138843,
2,1,0,1,0,6122.66,0.140622,0.140341,11.1009,5,0.00987301,11,0.00155791,-1.95464,0.245562,0.240265,104.063,0.140341,
2,1,0,1,0,6122.68,0.142126,0.141857,11.2527,5,0.0100832,11,0.00159628,-1.94874,0.253603,0.232647,102.058,0.141857,
2,1,0,1,0,6122.7,0.143629,0.143321,11.3965,5,0.0102962,11,0.00163337,-1.94323,0.281341,0.20971,93.157,0.143321,
2,1,0,1,0,6122.72,0.145119,0.144835,11.5154,5,0.0105095,11,0.00166784,-1.93872,0.340654,0.173196,77.7815,0.144835,
2,1,0,1,0,6122.74,0.146622,0.146313,11.6188,5,0.0107271,11,0.00169998,-1.93484,0.407658,0.144729,65.5991,0.146313,
2,1,0,1,0,6122.75,0.148126,0.147832,11.7129,5,0.0109467,11,0.00173155,-1.93134,0.489503,0.12053,55.0428,0.147832,
2,1,0,1,0,6122.77,0.149615,0.149351,11.7886,5,0.0111654,11,0.00176063,-1.92854,0.722399,0.0816723,37.5024,0.149351,
2,1,0,1,0,6122.79,0.151119,0.150851,11.8343,5,0.0113876,11,0.00178523,-1.92686,1.61178,0.0366055,16.8656,0.150851,
2,1,0,1,0,6122.81,0.152615,0.152293,11.8474,5,0.0116092,11,0.00180427,-1.92638,-7.18779,-0.00820837,-3.78751,0.152293,
2,1,0,1,0,6122.83,0.154111,0.153832,11.8314,5,0.0118307,11,0.00182004,-1.92697,-1.09979,-0.0536465,-24.7205,0.153832,
2,1,0,1,0,6122.85,0.155615,0.155341,11.7852,5,0.0120528,11,0.00183073,-1.92866,-0.562737,-0.104845,-48.0731,0.155341,
2,1,0,1,0,6122.87,0.157103,0.156843,11.6984,5,0.0122713,11,0.00183482,-1.93187,-0.328142,-0.1798,-81.7299,0.156843,
2,1,0,1,0,6122.89,0.158606,0.15835,11.5529,5,0.0124899,11,0.0018294,-1.93731,-0.232103,-0.254197,-114.144,0.15835,
2,1,0,1,0,6122.9,0.16011,0.159822,11.3562,5,0.0127053,11,0.00181497,-1.94477,-0.172028,-0.342968,-151.338,0.159822,
2,1,0,1,0,6122.92,0.161599,0.161293,11.1163,5,0.0129143,11,0.00179298,-1.95404,-0.142376,-0.414397,-178.834,0.161293,
2,1,0,1,0,6122.94,0.163102,0.162812,10.8172,5,0.0131204,11,0.00176117,-1.96588,-0.115265,-0.511862,-214.959,0.162812,
2,1,0,1,0,6122.96,0.164606,0.164307,10.4665,5,0.0133205,11,0.00171972,-1.9802,-0.096716,-0.610034,-247.921,0.164307,
2,1,0,1,0,6122.98,0.166095,0.165824,10.0643,5,0.0135114,11,0.0016689,-1.99722,-0.0842815,-0.700035,-273.925,0.165824,
2,1,0,1,0,6123,0.167599,0.167315,9.63312,5,0.0136966,11,0.00161176,-2.01623,-0.0771377,-0.764866,-286.574,0.167315,
2,1,0,1,0,6123.02,0.169095,0.168843,9.18485,5,0.0138726,11,0.00155079,-2.03693,-0.069528,-0.848579,-303.345,0.168843,
2,1,0,1,0,6123.04,0.170592,0.170315,8.71321,5,0.01404,11,0.00148399,-2.05982,-0.0644872,-0.914911,-310.804,0.170315,
2,1,0,1,0,6123.05,0.172095,0.171793,8.24059,5,0.0141995,11,0.00141568,-2.08404,-0.0620114,-0.951438,-306.373,0.171793,
2,1,0,1,0,6123.07,0.173583,0.173314,7.79962,5,0.0143488,11,0.00135178,-2.10793,-0.0626654,-0.941509,-287.152,0.173314,
2,1,0,1,0,6123.09,0.175086,0.174786,7.38183,5,0.0144915,11,0.00129024,-2.13184,-0.0638176,-0.92451,-267.085,0.174786,
2,1,0,1,0,6123.11,0.17659,0.176303,6.99821,5,0.0146267,11,0.0012338,-2.15501,-0.0651038,-0.906245,-248.258,0.176303,
2,1,0,1,0,6123.13,0.178079,0.177807,6.65698,5,0.0147538,11,0.00118366,-2.17672,-0.0682019,-0.865078,-225.677,0.177807,
2,1,0,1,0,6123.15,0.179582,0.179309,6.34776,5,0.0148759,11,0.00113821,-2.19738,-0.0752821,-0.783719,-195.237,0.179309,
2,1,0,1,0,6123.17,0.181086,0.180798,6.08169,5,0.0149927,11,0.00109955,-2.21598,-0.0837105,-0.70481,-168.024,0.180798,
2,1,0,1,0,6123.19,0.182575,0.182303,5.8541,5,0.0151037,11,0.00106722,-2.23254,-0.089621,-0.658328,-150.65,0.182303,
2,1,0,1,0,6123.2,0.184079,0.183774,5.64835,5,0.0152117,11,0.00103802,-2.24808,-0.097859,-0.602908,-133.086,0.183774,
2,1,0,1,0,6123.22,0.185582,0.185297,5.45866,5,0.0153159,11,0.00101147,-2.26291,-0.109528,-0.538674,-114.998,0.185297,
2,1,0,1,0,6123.24,0.18707,0.186819,5.29565,5,0.0154158,11,0.000989328,-2.27608,-0.123283,-0.478574,-98.9576,0.186819,
2,1,0,1,0,6123.26,0.188573,0.188318,5.14826,5,0.0155139,11,0.000969508,-2.28834,-0.130136,-0.45337,-91.1469,0.188318,
2,1,0,1,0,6123.28,0.19007,0.189797,5.01088,5,0.0156088,11,0.00095105,-2.30009,-0.139393,-0.423265,-82.8973,0.189797,
2,1,0,1,0,6123.3,0.191566,0.191304,4.87795,5,0.0157013,11,0.00093317,-2.31176,-0.145699,-0.404945,-77.3451,0.191304,
2,1,0,1,0,6123.32,0.19307,0.192745,4.76441,5,0.0157921,11,0.000918316,-2.32199,-0.163832,-0.360124,-67.1832,0.192745,
2,1,0,1,0,6123.34,0.194559,0.194264,4.677,5,0.01588,11,0.000908575,-2.33003,-0.17063,-0.345778,-63.1327,0.194264,
2,1,0,1,0,6123.35,0.196063,0.1958,4.57325,5,0.015967,11,0.00089544,-2.33978,-0.167154,-0.352967,-63.0635,0.1958,
2,1,0,1,0,6123.37,0.197566,0.197261,4.47656,5,0.0160523,11,0.000883053,-2.34906,-0.175793,-0.335622,-58.8336,0.197261,
2,1,0,1,0,6123.39,0.199055,0.198777,4.39959,5,0.0161349,11,0.000874537,-2.35659,-0.184014,-0.320628,-55.1376,0.198777,
2,1,0,1,0,6123.41,0.200559,0.200269,4.32277,5,0.016217,11,0.000865718,-2.36424,-0.195746,-0.301411,-50.9023,0.2002691,
2,1,0,1,0,6123.43,0.202062,0.201812,4.25711,5,0.0162977,11,0.000859136,-2.37088,-0.193511,-0.304892,-50.6239,0.201812,
2,1,0,1,0,6123.45,0.20355,0.203319,4.18811,5,0.0163762,11,0.000851521,-2.37798,-0.208519,-0.282947,-46.2985,0.203319,
2,1,0,1,0,6123.47,0.205053,0.204776,4.12178,5,0.0164543,11,0.000844042,-2.38492,-0.251054,-0.235009,-37.9588,0.204776,
2,1,0,1,0,6123.48,0.20655,0.206281,4.07357,5,0.0165309,11,0.000840301,-2.39003,-0.268301,-0.219903,-34.936,0.206281,
2,1,0,1,0,6123.5,0.208046,0.20777,4.0283,5,0.0166067,11,0.000836958,-2.39488,-0.256054,-0.23042,-36.1108,0.20777,
2,1,0,1,0,6123.52,0.20955,0.209262,3.97286,5,0.0166819,11,0.000831369,-2.4009,-0.260456,-0.226526,-35.1239,0.209262,
2,1,0,1,0,6123.54,0.211039,0.210748,3.92179,5,0.0167552,11,0.000826509,-2.40652,-0.291738,-0.202236,-30.9536,0.210748,
2,1,0,1,0,6123.56,0.212543,0.212259,3.87675,5,0.0168284,11,0.000822873,-2.41153,-0.375649,-0.157061,-23.7379,0.212259,
2,1,0,1,0,6123.58,0.214046,0.213764,3.84064,5,0.016901,11,0.00082099,-2.4156,-0.394814,-0.149437,-22.38,0.213764,
2,1,0,1,0,6123.6,0.215535,0.21528,3.80047,5,0.016972,11,0.000818165,-2.42016,-0.381889,-0.154495,-22.9076,0.21528,
2,1,0,1,0,6123.62,0.217039,0.216767,3.75254,5,0.017043,11,0.000813426,-2.42567,-0.423432,-0.139337,-20.478,0.216767,
2,1,0,1,0,6123.63,0.218543,0.218301,3.72147,5,0.0171134,11,0.000812399,-2.42929,-0.569253,-0.103645,-15.0936,0.218301,
2,1,0,1,0,6123.65,0.22003,0.219744,3.69645,5,0.0171825,11,0.000812272,-2.43222,-0.502577,-0.117395,-16.9538,0.219744,
2,1,0,1,0,6123.67,0.221534,0.221257,3.66484,5,0.0172519,11,0.000810872,-2.43595,-0.424391,-0.139023,-19.9024,0.2212573,
2,1,0,1,0,6123.69,0.22303,0.222752,3.63327,5,0.0173204,11,0.00080932,-2.4397,-0.427269,-0.138086,-19.6512,0.222752,
2,1,0,1,0,6123.71,0.224526,0.224223,3.61177,5,0.0173882,11,0.000809841,-2.44228,-0.423219,-0.139408,-19.6874,0.224223,
2,1,0,1,0,6123.73,0.22603,0.225777,3.59261,5,0.0174561,11,0.000811126,-2.44459,-0.496039,-0.118942,-16.6908,0.225777,
2,1,0,1,0,6123.75,0.227519,0.227239,3.57356,5,0.0175228,11,0.000812052,-2.4469,-0.381766,-0.154545,-21.5466,0.2272391,
2,1,0,1,0,6123.77,0.229023,0.228734,3.55674,5,0.0175899,11,0.000813547,-2.44895,-0.471184,-0.125216,-17.3554,0.228734,
2,1,0,1,0,6123.78,0.230526,0.230272,3.53422,5,0.0176564,11,0.000813832,-2.45171,-0.518791,-0.113726,-15.7008,0.230272,
2,1,0,1,0,6123.8,0.232016,0.231747,3.522,5,0.0177219,11,0.000816211,-2.45321,-0.742926,-0.0794157,-10.8866,0.231747,
2,1,0,1,0,6123.82,0.233519,0.233217,3.50546,5,0.0177879,11,0.000817531,-2.45526,-0.707391,-0.0834051,-11.3669,0.233217,
2,1,0,1,0,6123.84,0.235023,0.234752,3.48505,5,0.0178535,11,0.000818121,-2.45779,-0.800387,-0.0737144,-10.0067,0.234752,
2,1,0,1,0,6123.86,0.23651,0.236208,3.4605,5,0.017918,11,0.000817399,-2.46086,-0.851116,-0.0693208,-9.36731,0.236208,
2,1,0,1,0,6123.88,0.238014,0.237712,3.44739,5,0.017983,11,0.000819486,-2.46251,-1.71983,-0.0343057,-4.61398,0.237712,
2,1,0,1,0,6123.9,0.23951,0.23922,3.43432,5,0.0180473,11,0.00082156,-2.46416,-1.21873,-0.0484112,-6.48624,0.23922,
2,1,0,1,0,6123.92,0.241006,0.240707,3.41213,5,0.0181115,11,0.000821323,-2.46697,-0.944248,-0.0624836,-8.33365,0.240707,
2,1,0,1,0,6123.93,0.24251,0.242154,3.39419,5,0.0181756,11,0.000821918,-2.46926,-1.23991,-0.0475842,-6.32773,0.242154,
2,1,0,1,0,6123.95,0.243999,0.243699,3.38203,5,0.0182388,11,0.000824195,-2.47082,-1.13174,-0.0521321,-6.90208,0.243699,
2,1,0,1,0,6123.97,0.245503,0.245192,3.38123,5,0.0183026,11,0.000829049,-2.47093,-0.948946,-0.0621742,-8.20672,0.245192,
2,1,0,1,0,6123.99,0.247006,0.246754,3.37093,5,0.0183661,11,0.000831788,-2.47225,-0.749109,-0.0787603,-10.3493,0.246754,
2,1,0,1,0,6124.01,0.248496,0.24822,3.34491,5,0.0184287,11,0.000830272,-2.47562,-0.702311,-0.0840084,-11.005,0.24822,
2,1,0,1,0,6124.03,0.249999,0.249732,3.34295,5,0.0184917,11,0.000834843,-2.47587,-0.745858,-0.0791035,-10.3291,0.249732,
2,1,0,1,0,6124.05,0.251503,0.251247,3.33533,5,0.0185545,11,0.000837994,-2.47686,-1.04571,-0.0564211,-7.33973,0.251247,
2,1,0,1,0,6124.07,0.25299,0.252718,3.32778,5,0.0186164,11,0.000840992,-2.47784,-0.683455,-0.0863261,-11.1822,0.2527183,
2,1,0,1,0,6124.08,0.254494,0.25421,3.31764,5,0.0186789,11,0.000843377,-2.47917,-0.773451,-0.0762815,-9.86387,0.25421,
2,1,0,1,0,6124.1,0.25599,0.255755,3.30609,5,0.0187407,11,0.000845547,-2.48069,-0.98281,-0.060032,-7.747,0.255755,
2,1,0,1,0,6124.12,0.257487,0.257213,3.30124,5,0.0188024,11,0.000849122,-2.48132,-1.63466,-0.0360931,-4.63709,0.257213,
2,1,0,1,0,6124.14,0.25899,0.258715,3.29294,5,0.0188644,11,0.000851934,-2.48242,-1.47717,-0.0399414,-5.11678,0.258715,
2,1,0,1,0,6124.16,0.260479,0.260222,3.2827,5,0.0189254,11,0.000854229,-2.48377,-1.23604,-0.0477333,-6.10492,0.260222,
2,1,0,1,0,6124.18,0.261983,0.261706,3.26074,5,0.0189869,11,0.000853356,-2.48668,-2.30681,-0.0255764,-3.2619,0.261706,
2,1,0,1,0,6124.2,0.263486,0.263205,3.25538,5,0.0190482,11,0.000856834,-2.4874,-42.7495,-0.00138013,-0.175357,0.263205,
2,1,0,1,0,6124.22,0.264974,0.264724,3.24483,5,0.0191087,11,0.000858986,-2.48881,-4.7147,-0.0125141,-1.58694,0.264724,
2,1,0,1,0,6124.23,0.266477,0.266216,3.23203,5,0.0191698,11,0.000860418,-2.49052,-1.9818,-0.029771,-3.76191,0.2662161,
2,1,0,1,0,6124.25,0.267981,0.267688,3.21912,5,0.0192306,11,0.000861719,-2.49226,-1.32881,-0.0444007,-5.5939,0.267688,
2,1,0,1,0,6124.27,0.26947,0.269188,3.21292,5,0.0192906,11,0.000864878,-2.4931,-1.38843,-0.042494,-5.34369,0.2691876,
2,1,0,1,0,6124.29,0.270974,0.270704,3.21431,5,0.0193512,11,0.000870128,-2.49291,-1.12852,-0.052281,-6.54922,0.270704,
2,1,0,1,0,6124.31,0.27247,0.272187,3.20494,5,0.0194113,11,0.000872344,-2.49418,-0.744925,-0.0792026,-9.90414,0.272187,
2,1,0,1,0,6124.33,0.273967,0.273689,3.1949,5,0.0194712,11,0.000874408,-2.49554,-0.713778,-0.0826587,-10.3176,0.273689,
2,1,0,1,0,6124.35,0.27547,0.275143,3.18551,5,0.0195312,11,0.00087647,-2.49682,-0.981922,-0.0600862,-7.48417,0.275143,
2,1,0,1,0,6124.37,0.276959,0.27668,3.18678,5,0.0195905,11,0.000881717,-2.49665,-1.03843,-0.0568164,-7.05116,0.27668,
2,1,0,1,0,6124.38,0.278463,0.278174,3.17654,5,0.0196502,11,0.000883629,-2.49805,-1.02169,-0.0577475,-7.14275,0.278174,
2,1,0,1,0,6124.4,0.279967,0.279707,3.17142,5,0.0197099,11,0.000887071,-2.49875,-1.06171,-0.0555706,-6.86242,0.279707,
2,1,0,1,0,6124.42,0.281454,0.281178,3.16257,5,0.0197686,11,0.000889246,-2.49996,-1.46523,-0.0402668,-4.96471,0.281178,
2,1,0,1,0,6124.44,0.282958,0.282694,3.15561,5,0.0198279,11,0.00089207,-2.50092,-3.8288,-0.0154095,-1.89245,0.282694,
2,1,0,1,0,6124.46,0.284461,0.2842,3.14787,5,0.0198872,11,0.000894626,-2.50198,-2.67896,-0.0220235,-2.70134,0.2842001,
2,1,0,1,0,6124.48,0.28595,0.285634,3.13903,5,0.0199456,11,0.000896614,-2.50321,-1.67629,-0.0351967,-4.30501,0.2856344,
2,1,0,1,0,6124.5,0.287454,0.287183,3.11898,5,0.0200045,11,0.000895719,-2.50599,-2.04419,-0.0288623,-3.52222,0.287183,
2,1,0,1,0,6124.51,0.28895,0.288661,3.11924,5,0.0200629,11,0.000900401,-2.50595,-19.5344,-0.00302031,-0.367656,0.288661,
2,1,0,1,0,6124.53,0.290447,0.290171,3.10911,5,0.0201212,11,0.000902172,-2.50736,-2.46959,-0.0238906,-2.90273,0.290171,
2,1,0,1,0,6124.55,0.29195,0.291684,3.10029,5,0.0201797,11,0.000904306,-2.5086,-1.34197,-0.0439652,-5.32375,0.291684,
2,1,0,1,0,6124.57,0.29344,0.293163,3.08675,5,0.0202375,11,0.000904921,-2.5105,-1.18654,-0.0497245,-6.0111,0.293163,
2,1,0,1,0,6124.59,0.294943,0.29469,3.0861,5,0.0202956,11,0.000909441,-2.51059,-1.26476,-0.046649,-5.6269,0.29469,
2,1,0,1,0,6124.61,0.296447,0.296169,3.08206,5,0.0203537,11,0.000912811,-2.51116,-1.55407,-0.0379648,-4.5696,0.296169,
2,1,0,1,0,6124.63,0.297934,0.297635,3.07692,5,0.0204111,11,0.000915797,-2.51188,-0.908388,-0.0649502,-7.80131,0.297635,
2,1,0,1,0,6124.65,0.299438,0.299142,3.06785,5,0.0204689,11,0.000917723,-2.51317,-0.0199077,-2.96368,-313.097,0.299142,
2,1,0,1,0,6124.65,0.300012,0.299746,3.04815,5,0.0204903,11,0.000913671,-2.51596,0.000388452,151.885,3894.85,0.299746,
2,1,0,1,0,6124.67,0.298737,0.298503,0.510829,5,0.0205153,11,0.000152484,-3.29172,0.00505701,11.667,1179.48,0.298503,
2,0,0,1,0,6124.69,0.29724,0.296959,-0.544964,5,0.0205133,11,-0.000161832,-3.26363,0.0449474,1.31264,562.613,0.296959,
2,0,0,1,0,6124.71,0.295744,0.295438,-0.933388,5,0.0204989,11,-0.000275759,-3.02994,-0.00708612,-8.32614,206.723,0.295438,
2,0,0,1,0,6124.73,0.29424,0.293931,-1.10278,5,0.0204796,11,-0.000324142,-2.95751,-0.0239972,-2.45862,98.3101,0.293931,
2,0,0,1,0,6124.74,0.292751,0.292463,-1.19984,5,0.020458,11,-0.000350908,-2.92088,-0.0432008,-1.36571,62.936,0.292463,
2,0,0,1,0,6124.76,0.291248,0.290929,-1.2837,5,0.0204345,11,-0.000373465,-2.89154,-0.0583211,-1.01164,50.1993,0.290929,
2,0,0,1,0,6124.78,0.289744,0.289474,-1.34678,5,0.0204097,11,-0.000389859,-2.8707,-0.0724872,-0.813937,42.597,0.289474,
2,0,0,1,0,6124.8,0.288257,0.287939,-1.4044,5,0.020384,11,-0.000404383,-2.85251,-0.093498,-0.631029,34.5217,0.287939,
2,0,0,1,0,6124.82,0.286753,0.286456,-1.45461,5,0.0203569,11,-0.000416682,-2.83725,-0.108072,-0.545931,30.9801,0.286456,
2,0,0,1,0,6124.84,0.285249,0.284979,-1.50128,5,0.020329,11,-0.000427834,-2.82354,-0.123828,-0.476469,28.0334,0.284979,
2,0,0,1,0,6124.86,0.28376,0.283456,-1.55249,5,0.0203006,11,-0.000440062,-2.80897,-0.126323,-0.467056,28.2484,0.283456,
2,0,0,1,0,6124.88,0.282257,0.281923,-1.60112,5,0.0202709,11,-0.000451393,-2.79558,-0.1612,-0.366006,22.6642,0.281923,
2,0,0,1,0,6124.89,0.28076,0.280453,-1.63925,5,0.0202406,11,-0.000459732,-2.78536,-0.17453,-0.338051,21.5301,0.280453,
2,0,0,1,0,6124.91,0.279264,0.278936,-1.66871,5,0.0202098,11,-0.000465464,-2.77762,-0.178725,-0.330117,21.5027,0.278936,
2,0,0,1,0,6124.93,0.27776,0.277471,-1.70992,5,0.0201781,11,-0.000474453,-2.76702,-0.163312,-0.361271,23.9806,0.277471,
2,0,0,1,0,6124.95,0.276271,0.275933,-1.74514,5,0.0201461,11,-0.000481542,-2.75817,-0.17072,-0.345596,23.4152,0.275933,
2,0,0,1,0,6124.97,0.274767,0.27448,-1.7719,5,0.0201131,11,-0.00048635,-2.75156,-0.197715,-0.29841,20.5399,0.27448,
2,0,0,1,0,6124.99,0.273264,0.272929,-1.79827,5,0.0200796,11,-0.000490799,-2.74515,-0.184435,-0.319896,22.4424,0.2729294,
2,0,0,1,0,6125.01,0.271776,0.271442,-1.82968,5,0.0200459,11,-0.00049665,-2.73763,-0.173975,-0.339129,24.1884,0.271442,
2,0,0,1,0,6125.02,0.270273,0.269979,-1.85765,5,0.0200112,11,-0.000501525,-2.73104,-0.182368,-0.323522,23.4297,0.2699787,
2,0,0,1,0,6125.04,0.268769,0.268434,-1.87864,5,0.019976,11,-0.000504291,-2.72616,-0.250447,-0.235578,17.2825,0.268434,
2,0,0,1,0,6125.06,0.26728,0.266966,-1.89746,5,0.0199407,11,-0.000506558,-2.72183,-0.259245,-0.227584,16.9398,0.266966,
2,0,0,1,0,6125.08,0.265777,0.265487,-1.92791,5,0.0199046,11,-0.000511836,-2.71491,-0.27031,-0.218268,16.4749,0.265487,
2,0,0,1,0,6125.1,0.26428,0.264012,-1.95489,5,0.0198682,11,-0.000516113,-2.70888,-0.277779,-0.212399,16.2264,0.264012,
2,0,0,1,0,6125.12,0.262784,0.262469,-1.98072,5,0.0198312,11,-0.000519878,-2.70318,-0.394775,-0.149452,11.5406,0.262469,
2,0,0,1,0,6125.14,0.26128,0.261,-2.00186,5,0.0197937,11,-0.000522486,-2.69857,-0.385422,-0.153079,12.0023,0.261,
2,0,0,1,0,6125.16,0.259791,0.259474,-2.0251,5,0.0197562,11,-0.000525461,-2.69355,-0.375366,-0.15718,12.4612,0.259474,
2,0,0,1,0,6125.17,0.258287,0.257985,-2.0545,5,0.0197179,11,-0.000530029,-2.68729,-0.328917,-0.179376,14.3639,0.2579847,
2,0,0,1,0,6125.19,0.256786,0.256469,-2.07828,5,0.019679,11,-0.000533014,-2.6823,-0.369935,-0.159488,12.8779,0.256469,
2,0,0,1,0,6125.21,0.255296,0.254967,-2.10334,5,0.0196402,11,-0.000536284,-2.67709,-0.450026,-0.131103,10.7208,0.254967,
2,0,0,1,0,6125.23,0.253793,0.253468,-2.12024,5,0.0196006,11,-0.000537411,-2.67362,-0.379198,-0.155591,12.8513,0.2534675,
2,0,0,1,0,6125.25,0.252289,0.252024,-2.13839,5,0.0195606,11,-0.000538928,-2.66991,-0.299924,-0.196716,16.4157,0.252024,
2,0,0,1,0,6125.27,0.2508,0.250509,-2.16288,5,0.0195207,11,-0.000541822,-2.66497,-0.323956,-0.182124,15.3498,0.250509,
2,0,0,1,0,6125.29,0.249296,0.248977,-2.18241,5,0.0194798,11,-0.000543371,-2.66106,-0.332079,-0.177669,15.1002,0.248977,
2,0,0,1,0,6125.31,0.2478,0.247494,-2.19542,5,0.0194389,11,-0.000543353,-2.65848,-0.312379,-0.188873,16.2374,0.247494,
2,0,0,1,0,6125.32,0.246304,0.245984,-2.2202,5,0.0193976,11,-0.000546134,-2.65361,-0.279341,-0.211211,18.3015,0.245984,
2,0,0,1,0,6125.34,0.2448,0.244515,-2.24381,5,0.0193556,11,-0.000548645,-2.64901,-0.313108,-0.188433,16.4669,0.244515,
2,0,0,1,0,6125.36,0.243313,0.243007,-2.25689,5,0.0193136,11,-0.000548441,-2.64649,-0.37626,-0.156806,13.8203,0.2430073,
2,0,0,1,0,6125.38,0.241809,0.241514,-2.2626,5,0.0192709,11,-0.00054645,-2.64539,-0.399283,-0.147765,13.1369,0.241514,
2,0,0,1,0,6125.4,0.240306,0.239988,-2.29049,5,0.0192279,11,-0.000549689,-2.64007,-0.373304,-0.158048,14.2066,0.2399881,
2,0,0,1,0,6125.42,0.238816,0.238508,-2.31653,5,0.019185,11,-0.000552511,-2.63516,-0.458648,-0.128639,11.6496,0.238508,
2,0,0,1,0,6125.44,0.237313,0.237048,-2.33558,5,0.0191411,11,-0.000553643,-2.63161,-0.694199,-0.08499,7.74975,0.237048,
2,0,0,1,0,6125.46,0.235809,0.23551,-2.35624,5,0.0190969,11,-0.000554917,-2.62778,-0.566768,-0.104099,9.58387,0.23551,
2,0,0,1,0,6125.47,0.23432,0.234023,-2.3794,5,0.0190529,11,-0.000556833,-2.62353,-0.505625,-0.116687,10.8513,0.234023,
2,0,0,1,0,6125.49,0.232816,0.232486,-2.4013,5,0.019008,11,-0.000558269,-2.61955,-0.445822,-0.13234,12.3813,0.232486,
2,0,0,1,0,6125.51,0.23132,0.231065,-2.42837,5,0.0189628,11,-0.000561111,-2.61468,-0.482752,-0.122216,11.5417,0.231065,
2,0,0,1,0,6125.53,0.229824,0.229484,-2.44715,5,0.0189174,11,-0.000561582,-2.61134,-0.472978,-0.124741,11.8779,0.2294836,
2,0,0,1,0,6125.55,0.22832,0.228037,-2.4596,5,0.0188713,11,-0.000560879,-2.60914,-0.400604,-0.147278,14.1462,0.228037,
2,0,0,1,0,6125.57,0.226833,0.226542,-2.48223,5,0.0188254,11,-0.000562328,-2.60516,-0.300644,-0.196245,18.9988,0.226542,
2,0,0,1,0,6125.59,0.225329,0.225051,-2.50729,5,0.0187786,11,-0.000564269,-2.60079,-0.327596,-0.1801,17.6045,0.225051,
2,0,0,1,0,6125.61,0.223825,0.223485,-2.52167,5,0.0187312,11,-0.000563554,-2.59831,-0.369494,-0.159678,15.6952,0.223485,
2,0,0,1,0,6125.62,0.222336,0.222014,-2.53503,5,0.0186841,11,-0.000562813,-2.59602,-0.388716,-0.151782,15.0929,0.222014,
2,0,0,1,0,6125.64,0.220833,0.220523,-2.56208,5,0.0186361,11,-0.000564998,-2.59141,-0.314949,-0.187332,18.7478,0.220523,
2,0,0,1,0,6125.66,0.219329,0.218985,-2.59316,5,0.0185876,11,-0.000567864,-2.58617,-0.322303,-0.183058,18.5057,0.218985,
2,0,0,1,0,6125.68,0.21784,0.217509,-2.60804,5,0.0185392,11,-0.000567273,-2.58369,-0.442361,-0.133375,13.5708,0.217509,
2,0,0,1,0,6125.7,0.216336,0.216045,-2.62759,5,0.0184898,11,-0.000567676,-2.58044,-0.43049,-0.137053,14.1078,0.216045,
2,0,0,1,0,6125.72,0.21484,0.214541,-2.65227,5,0.0184403,11,-0.00056902,-2.57638,-0.436078,-0.135297,14.0602,0.2145406,
2,0,0,1,0,6125.74,0.213343,0.21304,-2.68092,5,0.0183904,11,-0.000571145,-2.57172,-0.407379,-0.144828,15.1706,0.21304,
2,0,0,1,0,6125.76,0.21184,0.211583,-2.71186,5,0.0183396,11,-0.000573784,-2.56673,-0.474539,-0.124331,13.1222,0.211583,
2,0,0,1,0,6125.77,0.210352,0.210062,-2.73927,5,0.0182889,11,-0.000575417,-2.56237,-0.416238,-0.141746,15.1395,0.210062,
2,0,0,1,0,6125.79,0.208849,0.208568,-2.76153,5,0.0182374,11,-0.000575966,-2.55885,-0.362361,-0.162821,17.5885,0.208568,
2,0,0,1,0,6125.81,0.207345,0.207069,-2.79377,5,0.0181852,11,-0.000578504,-2.55381,-0.303544,-0.194371,21.1418,0.207069,
2,0,0,1,0,6125.83,0.205856,0.205569,-2.83583,5,0.0181328,11,-0.000582958,-2.54732,-0.326393,-0.180764,19.8853,0.205569,
2,0,0,1,0,6125.85,0.204353,0.20403,-2.85939,5,0.0180794,11,-0.000583402,-2.54373,-0.40328,-0.1463,16.2965,0.20403,
2,0,0,1,0,6125.87,0.202849,0.202537,-2.8814,5,0.0180256,11,-0.000583591,-2.5404,-0.302149,-0.195268,21.9696,0.202537,
2,0,0,1,0,6125.89,0.20136,0.20107,-2.91655,5,0.0179718,11,-0.000586431,-2.53513,-0.247322,-0.238555,27.0948,0.20107,
2,0,0,1,0,6125.91,0.199856,0.199519,-2.95,5,0.0179167,11,-0.00058858,-2.53018,-0.261143,-0.22593,25.9849,0.199519,
2,0,0,1,0,6125.92,0.19836,0.198077,-2.98267,5,0.0178612,11,-0.000590799,-2.5254,-0.26888,-0.219429,25.5366,0.198077,
2,0,0,1,0,6125.94,0.196863,0.196547,-3.00666,5,0.0178051,11,-0.00059095,-2.52192,-0.250785,-0.235262,27.7008,0.196547,
2,0,0,1,0,6125.96,0.19536,0.19504,-3.05124,5,0.0177481,11,-0.000595112,-2.51552,-0.22705,-0.259855,31.0294,0.19504,
2,0,0,1,0,6125.98,0.193872,0.193546,-3.1032,5,0.0176908,11,-0.00060061,-2.50819,-0.227049,-0.259856,31.4099,0.193546,
2,0,0,1,0,6126,0.192369,0.192056,-3.1388,5,0.017632,11,-0.000602825,-2.50324,-0.254269,-0.232038,28.455,0.1920561,
2,0,0,1,0,6126.02,0.190865,0.190573,-3.17934,5,0.0175725,11,-0.000605895,-2.49766,-0.256955,-0.229612,28.5928,0.190573,
2,0,0,1,0,6126.04,0.189376,0.18902,-3.23262,5,0.0175128,11,-0.000611028,-2.49045,-0.24476,-0.241052,30.4729,0.18902,
2,0,0,1,0,6126.05,0.187872,0.187567,-3.28777,5,0.0174514,11,-0.000616678,-2.4831,-0.22491,-0.262327,33.6959,0.1875675,
2,0,0,1,0,6126.07,0.186369,0.186067,-3.34549,5,0.017389,11,-0.000622485,-2.47554,-0.224917,-0.262319,34.2401,0.186067,
2,0,0,1,0,6126.09,0.18488,0.184558,-3.40977,5,0.0173262,11,-0.000629301,-2.46727,-0.218838,-0.269606,35.8043,0.184558,
2,0,0,1,0,6126.11,0.183376,0.183081,-3.46791,5,0.0172617,11,-0.000634909,-2.45993,-0.196739,-0.299889,40.6162,0.183081,
2,0,0,1,0,6126.13,0.18188,0.181581,-3.53801,5,0.0171964,11,-0.000642435,-2.45124,-0.171302,-0.344421,47.4432,0.181581,
2,0,0,1,0,6126.15,0.180383,0.180079,-3.61127,5,0.0171296,11,-0.000650316,-2.44234,-0.161264,-0.36586,51.4618,0.180079,
2,0,0,1,0,6126.17,0.17888,0.178546,-3.68515,5,0.0170612,11,-0.000657967,-2.43354,-0.160558,-0.367468,52.7992,0.178546,
2,0,0,1,0,6126.19,0.177392,0.177081,-3.75325,5,0.016992,11,-0.000664631,-2.42559,-0.148221,-0.398054,58.4689,0.177081,
2,0,0,1,0,6126.2,0.175889,0.175558,-3.84559,5,0.0169206,11,-0.000675125,-2.41504,-0.137069,-0.430439,64.7006,0.175558,
2,0,0,1,0,6126.22,0.174385,0.174054,-3.93709,5,0.0168474,11,-0.000685267,-2.40483,-0.129282,-0.456365,70.2372,0.174054,
2,0,0,1,0,6126.24,0.172896,0.172613,-4.04225,5,0.0167731,11,-0.000697747,-2.39338,-0.131191,-0.449726,70.9689,0.172613,
2,0,0,1,0,6126.26,0.171392,0.171065,-4.13738,5,0.016696,11,-0.00070776,-2.38327,-0.124184,-0.4751,77.0834,0.171065,
2,0,0,1,0,6126.28,0.169889,0.16954,-4.26445,5,0.016617,11,-0.000722994,-2.37014,-0.117412,-0.502505,83.9453,0.16954,
2,0,0,1,0,6126.3,0.1684,0.168073,-4.39957,5,0.0165363,11,-0.000739449,-2.35659,-0.112647,-0.523759,90.0599,0.168073,
2,0,0,1,0,6126.32,0.166896,0.166571,-4.54082,5,0.0164522,11,-0.000756371,-2.34287,-0.111562,-0.528852,93.7159,0.166571,
2,0,0,1,0,6126.34,0.165392,0.16506,-4.69001,5,0.0163654,11,-0.000774133,-2.32883,-0.108413,-0.544213,99.7575,0.16506,
2,0,0,1,0,6126.35,0.163905,0.163629,-4.84483,5,0.0162767,11,-0.000792757,-2.31472,-0.100132,-0.589222,111.833,0.163629,
2,0,0,1,0,6126.37,0.162401,0.162093,-5.02501,5,0.0161839,11,-0.000814521,-2.29886,-0.095523,-0.617652,121.343,0.162093,
2,0,0,1,0,6126.39,0.160905,0.160587,-5.21917,5,0.0160881,11,-0.000838131,-2.2824,-0.0924874,-0.637925,129.953,0.160587,
2,0,0,1,0,6126.41,0.159409,0.159076,-5.42775,5,0.0159886,11,-0.000863427,-2.26538,-0.0904727,-0.65213,137.968,0.159076,
2,0,0,1,0,6126.43,0.157905,0.157621,-5.63694,5,0.0158847,11,-0.000888498,-2.24896,-0.0887352,-0.664899,146.546,0.157621,
2,0,0,1,0,6126.45,0.156416,0.15612,-5.87289,5,0.0157778,11,-0.000916876,-2.23115,-0.0819169,-0.720242,165.135,0.15612,
2,0,0,1,0,6126.47,0.154912,0.154569,-6.12554,5,0.015665,11,-0.000946816,-2.21286,-0.081565,-0.72335,172.987,0.154569,
2,0,0,1,0,6126.49,0.153409,0.153102,-6.39124,5,0.0155474,11,-0.000978513,-2.19441,-0.081694,-0.722207,180.154,0.153102,
2,0,0,1,0,6126.5,0.151919,0.151604,-6.65716,5,0.0154261,11,-0.00100925,-2.17671,-0.0820222,-0.719318,186.961,0.151604,
2,0,0,1,0,6126.52,0.150416,0.150127,-6.94419,5,0.0152982,11,-0.00104251,-2.15838,-0.0813909,-0.724897,196.41,0.1501274,
2,0,0,1,0,6126.54,0.148912,0.148612,-7.22542,5,0.015165,11,-0.00107378,-2.14114,-0.0821249,-0.718418,203.028,0.148612,
2,0,0,1,0,6126.56,0.147425,0.147165,-7.54044,5,0.0150275,11,-0.00110969,-2.1226,-0.0815753,-0.723258,212.763,0.147165,
2,0,0,1,0,6126.58,0.145921,0.145598,-7.85483,5,0.0148825,11,-0.00114364,-2.10486,-0.0870874,-0.67748,207.744,0.145598,
2,0,0,1,0,6126.6,0.144425,0.144082,-8.17756,5,0.0147324,11,-0.00117824,-2.08738,-0.0880298,-0.670228,214.07,0.144082,
2,0,0,1,0,6126.62,0.142929,0.142669,-8.50185,5,0.0145763,11,-0.00121295,-2.07049,-0.0929387,-0.634827,210.575,0.142669,
2,0,0,1,0,6126.64,0.141425,0.141139,-8.82355,5,0.0144133,11,-0.00124535,-2.05436,-0.0985477,-0.598695,205.809,0.141139,
2,0,0,1,0,6126.65,0.139936,0.139662,-9.13586,5,0.0142461,11,-0.00127593,-2.03925,-0.103776,-0.56853,202.469,0.139662,
2,0,0,1,0,6126.67,0.138432,0.138112,-9.43847,5,0.0140715,11,-0.00130356,-2.0251,-0.111952,-0.527014,193.882,0.138112,
2,0,0,1,0,6126.69,0.136929,0.13662,-9.73852,5,0.0138913,11,-0.00133048,-2.01151,-0.117195,-0.503436,190.86,0.1366204,
2,0,0,1,0,6126.71,0.135439,0.135156,-10.0219,5,0.0137076,11,-0.00135452,-1.99905,-0.12621,-0.467475,182.368,0.135156,
2,0,0,1,0,6126.73,0.133936,0.133664,-10.2942,5,0.0135167,11,-0.00137596,-1.98741,-0.135175,-0.43647,174.819,0.133664,
2,0,0,1,0,6126.75,0.132432,0.132149,-10.5378,5,0.0133209,11,-0.00139255,-1.97725,-0.14681,-0.401879,164.98,0.132149,
2,0,0,1,0,6126.77,0.130945,0.130676,-10.7738,5,0.0131227,11,-0.00140788,-1.96763,-0.158066,-0.373262,156.7,0.130676,
2,0,0,1,0,6126.79,0.129441,0.12912,-11.0011,5,0.012918,11,-0.00142047,-1.95856,-0.178887,-0.329817,141.252,0.1291201,
2,0,0,1,0,6126.8,0.127945,0.127649,-11.1936,5,0.0127104,11,-0.00142885,-1.95103,-0.207485,-0.284358,123.937,0.127649,
2,0,0,1,0,6126.82,0.126448,0.126113,-11.3536,5,0.0124994,11,-0.00143185,-1.94487,-0.243152,-0.242647,107.433,0.1261135,
2,0,0,1,0,6126.84,0.124945,0.124662,-11.5032,5,0.0122844,11,-0.00143401,-1.93918,-0.279711,-0.210932,94.5912,0.124662,
2,0,0,1,0,6126.86,0.123456,0.123146,-11.6352,5,0.012069,11,-0.00143283,-1.93423,-0.3534,-0.166949,75.6834,0.123146,
2,0,0,1,0,6126.88,0.121952,0.121644,-11.7314,5,0.0118492,11,-0.00142705,-1.93065,-0.499647,-0.118083,53.9625,0.121644,
2,0,0,1,0,6126.9,0.120449,0.120136,-11.7993,5,0.0116278,11,-0.00141752,-1.92814,-0.691455,-0.0853274,39.2451,0.120136,
2,0,0,1,0,6126.92,0.118959,0.118679,-11.8502,5,0.0114078,11,-0.00140637,-1.92628,-1.14585,-0.0514903,23.79,0.118679,
2,0,0,1,0,6126.94,0.117456,0.117155,-11.8801,5,0.0111846,11,-0.00139182,-1.92518,-4.16706,-0.0141587,6.55154,0.117155,
2,0,0,1,0,6126.95,0.115952,0.115628,-11.8814,5,0.0109611,11,-0.00137382,-1.92513,2.01726,0.0292476,-13.5263,0.115628,
2,0,0,1,0,6126.97,0.114465,0.114177,-11.8541,5,0.0107404,11,-0.00135348,-1.92613,0.83497,0.0706612,-32.616,0.114177,
2,0,0,1,0,6126.99,0.112961,0.112694,-11.7921,5,0.0105181,11,-0.00132889,-1.92841,0.558451,0.105649,-48.5165,0.112694,
2,0,0,1,0,6127.01,0.111465,0.111147,-11.7135,5,0.0102984,11,-0.00130193,-1.93131,0.434032,0.135935,-62.0076,0.111147,
2,0,0,1,0,6127.03,0.109968,0.109696,-11.6128,5,0.0100804,11,-0.00127387,-1.93506,0.334736,0.176258,-79.652,0.109696,
2,0,0,1,0,6127.05,0.108465,0.108122,-11.4806,5,0.00986337,11,-0.0012413,-1.94004,0.270378,0.218213,-97.4692,0.108122,
2,0,0,1,0,6127.07,0.106976,0.106636,-11.3212,5,0.00965144,11,-0.00120724,-1.94611,0.23688,0.249071,-109.853,0.106636,
2,0,0,1,0,6127.08,0.105472,0.105157,-11.1464,5,0.00944039,11,-0.00117212,-1.95287,0.218847,0.269595,-117.06,0.105157,
2,0,0,1,0,6127.1,0.103968,0.103665,-10.9585,5,0.00923262,11,-0.00113601,-1.96025,0.203861,0.289414,-123.591,0.103665,
2,0,0,1,0,6127.12,0.102479,0.102207,-10.7543,5,0.00903071,11,-0.00109917,-1.96842,0.180802,0.326323,-136.762,0.102207,
2,0,0,1,0,6127.14,0.100976,0.100671,-10.5286,5,0.00883055,11,-0.00105993,-1.97763,0.169277,0.348541,-143.193,0.100671,
2,0,0,1,0,6127.16,0.0994721,0.0991459,-10.3068,5,0.00863465,11,-0.00102188,-1.98688,0.166296,0.354789,-142.83,0.0991459,
2,0,0,1,0,6127.18,0.0979846,0.0976707,-10.0878,5,0.00844488,11,-0.000985285,-1.9962,0.16262,0.362809,-142.862,0.0976707,
2,0,0,1,0,6127.2,0.0964811,0.0962023,-9.87125,5,0.00825713,11,-0.000949637,-2.00563,0.155842,0.378589,-145.912,0.0962023,
2,0,0,1,0,6127.22,0.0949847,0.0946811,-9.65625,5,0.00807444,11,-0.000914265,-2.01519,0.154533,0.381797,-144.013,0.0946811,
2,0,0,1,0,6127.23,0.0934883,0.0931773,-9.45325,5,0.00789573,11,-0.000880829,-2.02442,0.165934,0.355563,-131.462,0.0931773,
2,0,0,1,0,6127.25,0.0919847,0.0916633,-9.26367,5,0.00771975,11,-0.000849139,-2.03322,0.174095,0.338896,-122.76,0.0916633,
2,0,0,1,0,6127.27,0.0904955,0.0901615,-9.10044,5,0.00754894,11,-0.00082051,-2.04094,0.179189,0.329261,-116.957,0.09016151,
2,0,0,1,0,6127.29,0.0889919,0.0886908,-8.93796,5,0.00737948,11,-0.000792715,-2.04876,0.190541,0.309644,-108.011,0.08869078,
2,0,0,1,0,6127.31,0.0874884,0.0872074,-8.78143,5,0.0072131,11,-0.000765806,-2.05643,0.204955,0.287869,-98.7373,0.0872074,
2,0,0,1,0,6127.33,0.0860009,0.0857009,-8.64431,5,0.00705118,11,-0.000740825,-2.06327,0.22731,0.259557,-87.5771,0.0857009,
2,0,0,1,0,6127.35,0.0844973,0.084195,-8.51742,5,0.00688998,11,-0.000717124,-2.06969,0.246391,0.239457,-79.6358,0.084195,
2,0,0,1,0,6127.37,0.0829938,0.082681,-8.40101,5,0.00673104,11,-0.000694603,-2.07567,0.264383,0.223161,-73.1699,0.082681,
2,0,0,1,0,6127.38,0.0815045,0.0811959,-8.28555,5,0.0065759,11,-0.000672753,-2.08168,0.279269,0.211265,-68.3816,0.0811959,
2,0,0,1,0,6127.4,0.080001,0.0797037,-8.18697,5,0.00642108,11,-0.000652532,-2.08688,0.321125,0.183729,-58.76,0.0797037,
2,0,0,1,0,6127.42,0.0785046,0.0781959,-8.09872,5,0.00626882,11,-0.000633287,-2.09158,0.338867,0.17411,-55.0483,0.0781959,
2,0,0,1,0,6127.44,0.0770082,0.0767138,-8.00617,5,0.00611816,11,-0.000614184,-2.09658,0.32181,0.183338,-57.3075,0.0767138,
2,0,0,1,0,6127.46,0.0755046,0.0751688,-7.91713,5,0.00596833,11,-0.000595121,-2.10143,0.337651,0.174736,-54.0826,0.0751688,
2,0,0,1,0,6127.48,0.0740154,0.0736994,-7.84591,5,0.00582166,11,-0.000578239,-2.10536,0.345065,0.170982,-52.3708,0.0736994,
2,0,0,1,0,6127.5,0.0725118,0.0721874,-7.76508,5,0.00567485,11,-0.000560541,-2.10985,0.348684,0.169208,-51.3208,0.0721874,
2,0,0,1,0,6127.52,0.0710083,0.070718,-7.6932,5,0.00552944,11,-0.000544048,-2.11389,0.340627,0.17321,-52.0011,0.07071802,
2,0,0,1,0,6127.53,0.0695208,0.0692012,-7.61494,5,0.00538696,11,-0.000526963,-2.11833,0.329823,0.178884,-53.2141,0.0692012,
2,0,0,1,0,6127.55,0.0680173,0.0677077,-7.53878,5,0.00524445,11,-0.000510433,-2.1227,0.326698,0.180595,-53.2179,0.0677077,
2,0,0,1,0,6127.57,0.0665137,0.0662158,-7.46895,5,0.00510334,11,-0.000494562,-2.12674,0.327771,0.180004,-52.4666,0.0662158,
2,0,0,1,0,6127.59,0.0650244,0.0647423,-7.4017,5,0.004965,11,-0.000479203,-2.13067,0.313612,0.18813,-54.229,0.0647423,
2,0,0,1,0,6127.61,0.0635209,0.0632116,-7.3206,5,0.00482669,11,-0.000462747,-2.13545,0.284717,0.207224,-59.1206,0.06321159,
2,0,0,1,0,6127.63,0.0620245,0.0617361,-7.23604,5,0.00469074,11,-0.000446725,-2.1405,0.293187,0.201236,-56.7751,0.0617361,
2,0,0,1,0,6127.65,0.0605281,0.0602292,-7.14911,5,0.00455636,11,-0.000430585,-2.14575,0.29661,0.198914,-55.4279,0.0602292,
2,0,0,1,0,6127.67,0.0590246,0.0587165,-7.06614,5,0.00442281,11,-0.000414899,-2.15082,0.289588,0.203738,-56.1112,0.0587165,
2,0,0,1,0,6127.68,0.0575353,0.0572373,-6.97417,5,0.0042923,11,-0.000399182,-2.15651,0.26511,0.222549,-60.5009,0.0572373,
2,0,0,1,0,6127.7,0.0560317,0.0557287,-6.86993,5,0.00416221,11,-0.000382852,-2.16305,0.252457,0.233703,-62.7004,0.0557287,
2,0,0,1,0,6127.72,0.0545282,0.0542136,-6.77195,5,0.00403391,11,-0.000367132,-2.16929,0.272651,0.216394,-57.2123,0.0542136,
2,0,0,1,0,6127.74,0.0530407,0.0527272,-6.68374,5,0.00390871,11,-0.000352415,-2.17498,0.248421,0.2375,-61.9232,0.0527272,
2,0,0,1,0,6127.76,0.0515372,0.0512128,-6.57573,5,0.00378397,11,-0.000336762,-2.18206,0.224202,0.263156,-67.5431,0.0512128,
2,0,0,1,0,6127.78,0.0500336,0.0497482,-6.47051,5,0.00366114,11,-0.000321896,-2.18906,0.218472,0.270058,-68.2763,0.0497482,
2,0,0,1,0,6127.8,0.0485444,0.048213,-6.36996,5,0.00354165,11,-0.000307115,-2.19586,0.214369,0.275227,-68.5302,0.048213,
2,0,0,1,0,6127.82,0.0470408,0.0467324,-6.27321,5,0.00342268,11,-0.000293162,-2.20251,0.216463,0.272564,-66.7569,0.0467324,
2,0,0,1,0,6127.83,0.0455444,0.0452061,-6.17864,5,0.00330617,11,-0.000279312,-2.20911,0.206192,0.28614,-68.984,0.0452061,
2,0,0,1,0,6127.85,0.044048,0.0437732,-6.08332,5,0.00319149,11,-0.000266287,-2.21586,0.208485,0.282995,-67.2073,0.0437732,
2,0,0,1,0,6127.87,0.0425445,0.0422002,-5.98812,5,0.00307807,11,-0.0002527,-2.22271,0.223322,0.264192,-61.8352,0.0422002,
2,0,0,1,0,6127.89,0.0410552,0.0407727,-5.90496,5,0.00296752,11,-0.000240761,-2.22878,0.246433,0.239416,-55.1811,0.0407727,
2,0,0,1,0,6127.91,0.0395517,0.0392451,-5.83329,5,0.00285725,11,-0.000228928,-2.23409,0.24345,0.242349,-55.0597,0.0392451,
2,0,0,1,0,6127.93,0.0380481,0.0377167,-5.75203,5,0.00274847,11,-0.000216948,-2.24018,0.249251,0.236709,-53.0747,0.0377167,
2,0,0,1,0,6127.95,0.0365606,0.0362426,-5.6716,5,0.00264241,11,-0.000205553,-2.24629,0.276414,0.213448,-47.2692,0.0362426,
2,0,0,1,0,6127.97,0.0350571,0.0347333,-5.60605,5,0.00253653,11,-0.000194717,-2.25134,0.336198,0.175492,-38.3625,0.0347333,
2,0,0,1,0,6127.98,0.0335535,0.0332636,-5.5395,5,0.0024318,11,-0.000184264,-2.25653,0.36332,0.162391,-35.1306,0.0332636,
2,0,0,1,0,6128,0.0320643,0.0317468,-5.4853,5,0.00232929,11,-0.000174141,-2.2608,0.362325,0.162837,-34.8713,0.03174682,
2,0,0,1,0,6128.02,0.0305607,0.0302434,-5.42724,5,0.00222669,11,-0.000164138,-2.26542,0.402704,0.14651,-31.0784,0.0302434,
2,0,0,1,0,6128.04,0.0290643,0.0287842,-5.37883,5,0.00212557,11,-0.000154825,-2.26931,0.500903,0.117787,-24.7842,0.02878415,
2,0,0,1,0,6128.06,0.0275679,0.0272296,-5.34742,5,0.00202523,11,-0.000145608,-2.27186,0.514128,0.114757,-23.9663,0.0272296,
2,0,0,1,0,6128.08,0.0260644,0.0257762,-5.30741,5,0.00192498,11,-0.000136805,-2.27512,0.522922,0.112827,-23.3875,0.0257762,
2,0,0,1,0,6128.1,0.0245751,0.0242844,-5.26952,5,0.00182646,11,-0.000127967,-2.27823,0.594946,0.0991687,-20.4413,0.0242844,
2,0,0,1,0,6128.11,0.0230716,0.0227938,-5.24463,5,0.00172756,11,-0.000119545,-2.28029,0.596548,0.0989023,-20.2849,0.0227938,
2,0,0,1,0,6128.13,0.021568,0.021286,-5.22041,5,0.00162907,11,-0.000111121,-2.2823,0.808847,0.0729434,-14.8855,0.021286,
2,0,0,1,0,6128.15,0.0200805,0.0197334,-5.20557,5,0.00153205,11,-0.000102724,-2.28353,0.746045,0.0790837,-16.0782,0.0197334,
2,0,0,1,0,6128.17,0.018577,0.0182967,-5.19319,5,0.00143426,11,-9.50184e-05,-2.28457,0.982097,0.0600756,-12.1761,0.0182967,
2,0,0,1,0,6128.19,0.0170735,0.0167646,-5.17231,5,0.00133687,11,-8.67119e-05,-2.28632,1.22942,0.0479902,-9.71076,0.0167646,
2,0,0,1,0,6128.21,0.0155842,0.0152915,-5.17099,5,0.00124069,11,-7.90723e-05,-2.28643,3.48535,0.016928,-3.41689,0.01529151,
2,0,0,1,0,6128.23,0.0140806,0.0137846,-5.17562,5,0.00114347,11,-7.1344e-05,-2.28604,2.78625,0.0211754,-4.26636,0.0137846,
2,0,0,1,0,6128.25,0.0125842,0.0122526,-5.16776,5,0.00104686,11,-6.33183e-05,-2.2867,2.388,0.0247069,-4.97779,0.0122526,
2,0,0,1,0,6128.26,0.0110878,0.0107889,-5.15642,5,0.000950475,11,-5.56323e-05,-2.28765,-279.857,-0.000210822,0.0424549,0.0107889,
2,0,0,1,0,6128.28,0.00958429,0.00926094,-5.15501,5,0.000853585,11,-4.77402e-05,-2.28777,-1.86027,-0.0317158,6.38308,0.00926094,
2,0,0,1,0,6128.3,0.0080968,0.00779395,-5.1577,5,0.000757674,11,-4.01989e-05,-2.28754,-1.89644,-0.0311109,6.266,0.00779395,
2,0,0,1,0,6128.32,0.00659326,0.00631127,-5.1633,5,0.000660594,11,-3.25869e-05,-2.28707,-1.74548,-0.0338017,6.81009,0.00631127,
2,0,0,1,0,6128.34,0.00508972,0.00480746,-5.15828,5,0.000563447,11,-2.47982e-05,-2.2875,-1.7416,-0.0338769,6.83894,0.00480746,
2,0,0,1,0,6128.36,0.00360044,0.00330229,-5.17595,5,0.000467245,11,-1.70925e-05,-2.28601,-0.560129,-0.105333,21.4103,0.00330229,
2,0,0,1,0,6128.38,0.0020969,0.00174735,-5.24879,5,0.000369585,11,-9.17151e-06,-2.27994,-0.722963,-0.0816086,16.5722,0.00174735,
2,0,0,1,0,6128.4,0.000593362,0.000225482,-5.23651,5,0.000270912,11,-1.18074e-06,-2.28096, , , ,0.000225482,
2,0,0,1,0,6128.4,0.000199195,-0.000189804,-5.23636,5,0.000245255,11,9.93879e-07,-2.28097, , , ,-0.000189804,