File: Figure_codes/Fig_3-5/rawdata_trumpetplot_data/before 10th/20221101_1-115_002_TrumpetPlot_ParaChange_05_CV_C01_2.csv
mode,ox/red,error,control changes,counter inc.,time/s,control/V,Ewe/V,<I>/mA,cycle number,(Q-Qo)/C,I Range,P/W,log(|I|),Tafel slope mV/dec,alpha_eff,dI/d(E-IR),E-IR/V,
2,1,0,1,0,3422.14,2.44065e-05,-0.000268062,0.00545697,3,0.0000000E+000,11,-1.4628e-09,-5.26305, , , ,-0.000268062,
2,1,0,0,0,3422.4,0.00129787,0.000957768,0.166115,3,4.01531e-05,11,1.59099e-07,-3.77959, , , ,0.000957768,
2,1,0,0,0,3422.7,0.00279606,0.00253671,0.187754,3,0.000100579,11,4.76279e-07,-3.72641,0.0392122,1.50463,10.3902,0.00253671,
2,1,0,1,0,3423,0.00429469,0.00401545,0.19584,3,0.000163582,11,7.86385e-07,-3.7081,0.229844,0.256696,2.02195,0.00401545,
2,1,0,1,0,3423.3,0.00579255,0.00551346,0.201573,3,0.000228821,11,1.11137e-06,-3.69557,0.099478,0.593096,4.6704,0.00551346,
2,1,0,1,0,3423.6,0.0072904,0.0070231,0.21017,3,0.000296293,11,1.47605e-06,-3.67743,0.119069,0.49551,4.0199,0.0070231,
2,1,0,1,0,3423.9,0.00878882,0.00849302,0.216296,3,0.000365706,11,1.83701e-06,-3.66495,0.142619,0.413689,3.45746,0.00849302,
2,1,0,1,0,3424.2,0.010287,0.0100041,0.218996,3,0.000436539,11,2.19085e-06,-3.65956,0.200949,0.293606,2.50627,0.0100041,
2,1,0,1,0,3424.5,0.0117852,0.0114685,0.221641,3,0.000508527,11,2.54189e-06,-3.65435,0.230044,0.256473,2.23911,0.0114685,
2,1,0,1,0,3424.8,0.0132836,0.0129724,0.227019,3,0.00058149,11,2.94498e-06,-3.64394,0.184759,0.319335,2.84958,0.0129724,
2,1,0,1,0,3425.09,0.0147815,0.0144842,0.229885,3,0.000655701,11,3.3297e-06,-3.63849,0.27633,0.213513,1.91336,0.0144842,
2,1,0,1,0,3425.39,0.0162793,0.0159673,0.233153,3,0.000731064,11,3.72283e-06,-3.63236,0.49773,0.118538,1.07909,0.0159673,
2,1,0,0,0,3425.69,0.017778,0.0174842,0.235872,3,0.00080693,11,4.12403e-06,-3.62732,0.335985,0.175603,1.61277,0.0174842,
2,1,0,0,0,3425.99,0.0192761,0.0190345,0.238133,3,0.000883302,11,4.53275e-06,-3.62318,0.395837,0.149051,1.38062,0.0190345,
2,1,0,1,0,3426.29,0.0207747,0.020493,0.240441,3,0.000960694,11,4.92737e-06,-3.61899,0.313093,0.188442,1.75932,0.020493,
2,1,0,1,0,3426.59,0.0222725,0.0219676,0.243414,3,0.00103884,11,5.34724e-06,-3.61365,0.340462,0.173294,1.64186,0.02196764,
2,1,0,1,0,3426.89,0.0237704,0.0234752,0.245646,3,0.00111761,11,5.7666e-06,-3.60969,0.33983,0.173616,1.66163,0.0234752,
2,1,0,1,0,3427.19,0.0252689,0.0249876,0.245947,3,0.00119681,11,6.14563e-06,-3.60916,0.35434,0.166507,1.61012,0.0249876,
2,1,0,1,0,3427.49,0.0267671,0.0264436,0.248543,3,0.00127685,11,6.57237e-06,-3.6046,0.322621,0.182877,1.77499,0.0264436,
2,1,0,1,0,3427.79,0.0282657,0.027972,0.252052,3,0.0013577,11,7.0504e-06,-3.59851,0.310472,0.190033,1.86985,0.027972,
2,1,0,1,0,3428.09,0.0297635,0.0294508,0.253123,3,0.00143903,11,7.45468e-06,-3.59667,0.419639,0.140597,1.39521,0.0294508,
2,1,0,1,0,3428.39,0.0312613,0.0309501,0.253354,3,0.00152094,11,7.84132e-06,-3.59627,0.414455,0.142356,1.4167,0.0309501,
2,1,0,0,0,3428.69,0.0327598,0.0324614,0.257958,3,0.0016035,11,8.37369e-06,-3.58845,0.402394,0.146622,1.48144,0.0324614,
2,1,0,0,0,3428.99,0.034258,0.0339205,0.260036,3,0.00168689,11,8.82054e-06,-3.58497,0.346985,0.170036,1.7265,0.0339205,
2,1,0,1,0,3429.29,0.0357567,0.035449,0.262502,3,0.00177103,11,9.30543e-06,-3.58087,0.524739,0.112437,1.15152,0.035449,
2,1,0,1,0,3429.59,0.0372545,0.0369821,0.263707,3,0.00185582,11,9.75245e-06,-3.57888,0.405935,0.145343,1.50906,0.0369821,
2,1,0,1,0,3429.89,0.0387524,0.0384525,0.267725,3,0.00194118,11,1.02947e-05,-3.57231,0.251299,0.23478,2.48302,0.0384525,
2,1,0,1,0,3430.19,0.0402508,0.0399457,0.269267,3,0.00202755,11,1.07561e-05,-3.56982,0.336518,0.175325,1.85305,0.0399457,
2,1,0,1,0,3430.49,0.041749,0.04146,0.273148,3,0.00211507,11,1.13247e-05,-3.5636,0.541608,0.108935,1.16016,0.04146,
2,1,0,1,0,3430.79,0.0432472,0.0429764,0.277888,3,0.00220315,11,1.19426e-05,-3.55613,0.270057,0.218472,2.3618,0.0429764,
2,1,0,1,0,3431.09,0.0447456,0.0444665,0.281206,3,0.00229201,11,1.25042e-05,-3.55098,0.319805,0.184487,2.01123,0.0444665,
2,1,0,1,0,3431.39,0.0462435,0.0460007,0.284093,3,0.00238216,11,1.30685e-05,-3.54654,0.264639,0.222946,2.45155,0.0460007,
2,1,0,1,0,3431.69,0.0477413,0.0474583,0.287555,3,0.00247334,11,1.36469e-05,-3.54128,0.232134,0.254163,2.85777,0.0474583,
2,1,0,0,0,3431.99,0.0492399,0.0489136,0.290609,3,0.00256564,11,1.42147e-05,-3.53669,0.280002,0.210713,2.40159,0.0489136,
2,1,0,0,0,3432.29,0.0507381,0.0504194,0.293899,3,0.00265895,11,1.48182e-05,-3.5318,0.246872,0.23899,2.75751,0.0504194,
2,1,0,1,0,3432.59,0.0522367,0.0519234,0.299538,3,0.00275378,11,1.5553e-05,-3.52355,0.194864,0.302775,3.54139,0.05192339,
2,1,0,1,0,3432.89,0.0537345,0.0534606,0.305065,3,0.00285018,11,1.6309e-05,-3.51561,0.19354,0.304847,3.61512,0.0534606,
2,1,0,1,0,3433.18,0.0552323,0.0549362,0.309634,3,0.00294794,11,1.70101e-05,-3.50915,0.208872,0.28247,3.40279,0.0549362,
2,1,0,1,0,3433.48,0.0567309,0.0564223,0.311185,3,0.00304701,11,1.75578e-05,-3.50698,0.198705,0.296922,3.64353,0.0564223,
2,1,0,1,0,3433.78,0.0582291,0.0579398,0.321415,3,0.00314768,11,1.86227e-05,-3.49293,0.202548,0.29129,3.64158,0.0579398,
2,1,0,1,0,3434.08,0.0597277,0.0594535,0.326516,3,0.00325027,11,1.94125e-05,-3.4861,0.195147,0.302337,3.85369,0.05945351,
2,1,0,1,0,3434.38,0.0612255,0.0609556,0.331161,3,0.00335451,11,2.01861e-05,-3.47996,0.280983,0.209977,2.71061,0.06095561,
2,1,0,1,0,3434.68,0.0627233,0.0624557,0.337327,3,0.00346054,11,2.1068e-05,-3.47195,0.187473,0.314712,4.16426,0.0624557,
2,1,0,0,0,3434.98,0.0642218,0.0639417,0.344337,3,0.0035681,11,2.20175e-05,-3.46302,0.15939,0.370162,4.99885,0.0639417,
2,1,0,0,0,3435.28,0.06572,0.0653902,0.350215,3,0.00367803,11,2.29006e-05,-3.45567,0.188899,0.312336,4.2835,0.0653902,
2,1,0,1,0,3435.58,0.0672187,0.0669293,0.359501,3,0.00379031,11,2.40611e-05,-3.4443,0.18042,0.327014,4.57094,0.0669293,
2,1,0,1,0,3435.88,0.0687165,0.0684187,0.366373,3,0.00390429,11,2.50668e-05,-3.43608,0.168111,0.350959,4.99766,0.0684187,
2,1,0,1,0,3436.18,0.0702144,0.0699529,0.372395,3,0.00401995,11,2.60501e-05,-3.429,0.177002,0.33333,4.83895,0.06995292,
2,1,0,1,0,3436.48,0.0717128,0.0713677,0.379405,3,0.00413807,11,2.70773e-05,-3.4209,0.162125,0.363917,5.37438,0.0713677,
2,1,0,1,0,3436.78,0.073211,0.0728947,0.386527,3,0.00425846,11,2.81758e-05,-3.41282,0.169732,0.347608,5.24271,0.0728947,
2,1,0,1,0,3437.08,0.0747092,0.074445,0.392266,3,0.00438085,11,2.92022e-05,-3.40642,0.222058,0.265697,4.09257,0.074445,
2,1,0,1,0,3437.38,0.0762076,0.0759202,0.398426,3,0.0045051,11,3.02486e-05,-3.39965,0.189599,0.311183,4.86692,0.0759202,
2,1,0,1,0,3437.68,0.0777054,0.0774013,0.406878,3,0.00463163,11,3.14929e-05,-3.39054,0.175541,0.336103,5.32637,0.0774013,
2,1,0,1,0,3437.98,0.0792033,0.0789534,0.416749,3,0.00476033,11,3.29037e-05,-3.38013,0.208947,0.282369,4.5655,0.0789534,
2,1,0,0,0,3438.28,0.0807019,0.0804214,0.420079,3,0.00489126,11,3.37834e-05,-3.37667,0.234287,0.251828,4.12777,0.08042144,
2,1,0,0,0,3438.58,0.0822001,0.0819495,0.425763,3,0.00502378,11,3.48911e-05,-3.37083,0.242119,0.243682,4.05904,0.0819495,
2,1,0,1,0,3438.88,0.0836986,0.0834017,0.433535,3,0.00515814,11,3.61575e-05,-3.36298,0.215428,0.273873,4.63858,0.0834017,
2,1,0,1,0,3439.18,0.0851965,0.0849228,0.439974,3,0.00529472,11,3.73638e-05,-3.35657,0.243428,0.242372,4.1635,0.0849228,
2,1,0,1,0,3439.48,0.0866944,0.0864051,0.446969,3,0.00543334,11,3.86204e-05,-3.34972,0.326077,0.180939,3.14808,0.0864051,
2,1,0,1,0,3439.78,0.0881929,0.0878708,0.452343,3,0.00557371,11,3.97478e-05,-3.34453,0.259512,0.227349,4.02603,0.0878708,
2,1,0,1,0,3440.08,0.0896911,0.0894094,0.459543,3,0.00571544,11,4.10875e-05,-3.33767,0.229256,0.257354,4.62319,0.0894094,
2,1,0,1,0,3440.38,0.0911897,0.0908509,0.46678,3,0.00585945,11,4.24074e-05,-3.33089,0.241318,0.244491,4.4201,0.0908509,
2,1,0,1,0,3440.68,0.0926875,0.092384,0.472332,3,0.00600576,11,4.36359e-05,-3.32575,0.250267,0.235748,4.33254,0.092384,
2,1,0,1,0,3440.98,0.0941853,0.0939148,0.478281,3,0.00615343,11,4.49177e-05,-3.32032,0.259463,0.227393,4.24793,0.0939148,
2,1,0,0,0,3441.28,0.0956838,0.0953774,0.483914,3,0.00630269,11,4.61545e-05,-3.31523,0.231832,0.254494,4.80988,0.0953774,
2,1,0,0,0,3441.57,0.097182,0.0968694,0.490762,3,0.00645425,11,4.75398e-05,-3.30913,0.20511,0.287651,5.49291,0.0968694,
2,1,0,1,0,3441.87,0.0986806,0.0984169,0.497541,3,0.00660804,11,4.89665e-05,-3.30317,0.232465,0.253802,4.93394,0.0984169,
2,1,0,1,0,3442.17,0.100179,0.0999034,0.505023,3,0.00676386,11,5.04535e-05,-3.29669,0.223971,0.263427,5.1935,0.0999034,
2,1,0,1,0,3442.47,0.101676,0.101352,0.510488,3,0.0069216,11,5.17388e-05,-3.29201,0.21727,0.271552,5.44035,0.101352,
2,1,0,1,0,3442.77,0.103175,0.102874,0.521507,3,0.00708194,11,5.36498e-05,-3.28274,0.200178,0.294738,5.99723,0.102874,
2,1,0,1,0,3443.07,0.104673,0.104344,0.533813,3,0.00724525,11,5.57003e-05,-3.27261,0.190693,0.309398,6.41319,0.104344,
2,1,0,1,0,3443.37,0.106171,0.105896,0.540657,3,0.00741153,11,5.72532e-05,-3.26708,0.208399,0.28311,5.9656,0.1058956,
2,1,0,1,0,3443.67,0.10767,0.107397,0.550782,3,0.00758084,11,5.91526e-05,-3.25902,0.163163,0.361602,7.80657,0.107397,
2,1,0,1,0,3443.97,0.109167,0.108866,0.562928,3,0.00775313,11,6.12835e-05,-3.24955,0.151385,0.389735,8.62673,0.108866,
2,1,0,1,0,3444.27,0.110665,0.110353,0.577402,3,0.00792956,11,6.3718e-05,-3.23852,0.143086,0.41234,9.30841,0.110353,
2,1,0,0,0,3444.57,0.112164,0.111872,0.592154,3,0.00811055,11,6.62455e-05,-3.22757,0.14541,0.40575,9.35963,0.111872,
2,1,0,0,0,3444.87,0.113662,0.113367,0.609129,3,0.00829575,11,6.90553e-05,-3.21529,0.124981,0.472071,11.2103,0.113367,
2,1,0,1,0,3445.17,0.115161,0.114822,0.625731,3,0.00848533,11,7.18479e-05,-3.20361,0.119382,0.494213,12.0461,0.114822,
2,1,0,1,0,3445.47,0.116658,0.116355,0.64476,3,0.0086809,11,7.50214e-05,-3.1906,0.108953,0.541519,13.5704,0.116355,
2,1,0,1,0,3445.77,0.118156,0.117876,0.664742,3,0.00888258,11,7.83568e-05,-3.17735,0.110996,0.531553,13.7703,0.117876,
2,1,0,1,0,3446.07,0.119655,0.119353,0.682476,3,0.00909006,11,8.14556e-05,-3.16591,0.117277,0.503081,13.4705,0.119353,
2,1,0,1,0,3446.37,0.121153,0.120838,0.701402,3,0.00930314,11,8.47558e-05,-3.15403,0.112565,0.524141,14.4372,0.120838,
2,1,0,1,0,3446.67,0.122652,0.122338,0.725898,3,0.00952321,11,8.88047e-05,-3.13912,0.10101,0.584101,16.5076,0.122338,
2,1,0,1,0,3446.97,0.124149,0.123867,0.750696,3,0.00975021,11,9.29867e-05,-3.12454,0.11355,0.519595,15.2116,0.123867,
2,1,0,1,0,3447.27,0.125647,0.125359,0.773219,3,0.009984,11,9.69299e-05,-3.1117,0.123915,0.476133,14.3079,0.125359,
2,1,0,0,0,3447.57,0.127146,0.126899,0.789923,3,0.0102243,11,0.00010024,-3.10242,0.126368,0.466889,14.4516,0.126899,
2,1,0,0,0,3447.87,0.128644,0.128366,0.816224,3,0.0104707,11,0.000104775,-3.08819,0.12272,0.480767,15.3181,0.128366,
2,1,0,1,0,3448.17,0.130143,0.129853,0.84106,3,0.0107245,11,0.000109214,-3.07517,0.138663,0.425492,13.8827,0.129853,
2,1,0,1,0,3448.47,0.13164,0.131376,0.857461,3,0.0109845,11,0.00011265,-3.06679,0.180953,0.326051,10.8618,0.131376,
2,1,0,1,0,3448.77,0.133138,0.13284,0.87383,3,0.01125,11,0.00011608,-3.05857,0.17046,0.346122,11.8096,0.13284,
2,1,0,1,0,3449.07,0.134637,0.134359,0.891185,3,0.0115198,11,0.000119739,-3.05003,0.210241,0.28063,9.76683,0.134359,
2,1,0,1,0,3449.37,0.136135,0.135819,0.906428,3,0.011795,11,0.00012311,-3.04267,0.241194,0.244616,8.6317,0.135819,
2,1,0,1,0,3449.66,0.137633,0.137308,0.920147,3,0.012074,11,0.000126344,-3.03614,0.35068,0.168244,5.99821,0.137308,
2,1,0,1,0,3449.96,0.139132,0.138846,0.928485,3,0.0123563,11,0.000128916,-3.03222,0.411645,0.143327,5.16279,0.138846,
2,1,0,1,0,3450.26,0.140629,0.14031,0.931164,3,0.0126398,11,0.000130652,-3.03097,0.763699,0.0772556,2.79912,0.14031,
2,1,0,1,0,3450.56,0.142127,0.141828,0.93346,3,0.0129252,11,0.000132391,-3.0299,1.27772,0.046176,1.67376,0.141828,
2,1,0,0,0,3450.86,0.143626,0.143348,0.934439,3,0.0132114,11,0.00013395,-3.02945,-1.09135,-0.0540614,-1.96179,0.143348,
2,1,0,0,0,3451.16,0.145124,0.144813,0.927454,3,0.0134961,11,0.000134307,-3.03271,-0.324625,-0.181748,-6.5678,0.144813,
2,1,0,1,0,3451.46,0.146623,0.146342,0.915864,3,0.0137783,11,0.000134029,-3.03817,-0.281201,-0.209814,-7.496,0.146342,
2,1,0,1,0,3451.76,0.14812,0.14781,0.904854,3,0.0140568,11,0.000133747,-3.04342,-0.216802,-0.272138,-9.55996,0.14781,
2,1,0,1,0,3452.06,0.149618,0.149352,0.887423,3,0.0143311,11,0.000132538,-3.05187,-0.156882,-0.376079,-12.9557,0.149352,
2,1,0,1,0,3452.36,0.151117,0.150818,0.864843,3,0.0145994,11,0.000130434,-3.06306,-0.118523,-0.497794,-16.6943,0.150818,
2,1,0,1,0,3452.66,0.152615,0.152314,0.8358,3,0.0148603,11,0.000127304,-3.0779,-0.102431,-0.575995,-18.7717,0.152314,
2,1,0,1,0,3452.96,0.154114,0.153856,0.81002,3,0.0151124,11,0.000124627,-3.0915,-0.094702,-0.623007,-19.6388,0.153856,
2,1,0,1,0,3453.26,0.155612,0.155263,0.780369,3,0.015356,11,0.000121162,-3.1077,-0.0829369,-0.711384,-21.4875,0.155263,
2,1,0,1,0,3453.56,0.157109,0.156838,0.744105,3,0.0155901,11,0.000116704,-3.12837,-0.068584,-0.86026,-24.8657,0.156838,
2,1,0,0,0,3453.86,0.158608,0.15828,0.708804,3,0.0158135,11,0.000112189,-3.14947,-0.0690351,-0.854638,-23.664,0.15828,
2,1,0,0,0,3454.16,0.160106,0.159781,0.674779,3,0.0160257,11,0.000107817,-3.17084,-0.0678862,-0.869101,-22.8991,0.1597812,
2,1,0,1,0,3454.46,0.161605,0.161306,0.642115,3,0.0162282,11,0.000103577,-3.19239,-0.0679031,-0.868885,-21.7436,0.161306,
2,1,0,1,0,3454.76,0.163102,0.162827,0.609259,3,0.016421,11,9.92037e-05,-3.2152,-0.0673426,-0.876116,-20.791,0.162827,
2,1,0,1,0,3455.06,0.1646,0.164273,0.579523,3,0.0166046,11,9.51998e-05,-3.23693,-0.069494,-0.848995,-19.2061,0.164273,
2,1,0,1,0,3455.36,0.166099,0.165826,0.551303,3,0.0167789,11,9.14201e-05,-3.25861,-0.0717494,-0.822306,-17.7291,0.165826,
2,1,0,1,0,3455.66,0.167597,0.167324,0.527164,3,0.0169458,11,8.82071e-05,-3.27805,-0.0809628,-0.72873,-14.9708,0.167324,
2,1,0,1,0,3455.96,0.169095,0.168811,0.50397,3,0.0171058,11,8.50755e-05,-3.29759,-0.0831571,-0.7095,-13.9875,0.168811,
2,1,0,1,0,3456.26,0.170594,0.170253,0.482167,3,0.0172592,11,8.20903e-05,-3.3168,-0.0845633,-0.697703,-13.2325,0.1702529,
2,1,0,1,0,3456.56,0.172091,0.171808,0.46297,3,0.0174065,11,7.9542e-05,-3.33445,-0.0932031,-0.633026,-11.514,0.171808,
2,1,0,1,0,3456.86,0.173589,0.173296,0.449496,3,0.0175488,11,7.78957e-05,-3.34727,-0.106171,-0.555706,-9.74175,0.1732958,
2,1,0,0,0,3457.16,0.175088,0.174773,0.434679,3,0.0176867,11,7.59703e-05,-3.36183,-0.107432,-0.549182,-9.31934,0.174773,
2,1,0,0,0,3457.46,0.176586,0.1763,0.42321,3,0.0178205,11,7.4612e-05,-3.37344,-0.115387,-0.511321,-8.41632,0.1763,
2,1,0,1,0,3457.76,0.178085,0.177802,0.408094,3,0.0179506,11,7.256e-05,-3.38924,-0.130143,-0.453346,-7.25768,0.177802,
2,1,0,1,0,3458.05,0.179582,0.179273,0.40001,3,0.0180771,11,7.17111e-05,-3.39793,-0.148338,-0.397741,-6.20872,0.179273,
2,1,0,1,0,3458.35,0.18108,0.180748,0.389942,3,0.0182009,11,7.04814e-05,-3.409,-0.145139,-0.406508,-6.2062,0.180748,
2,1,0,1,0,3458.65,0.182579,0.182265,0.380293,3,0.0183222,11,6.93142e-05,-3.41988,-0.133703,-0.441277,-6.55859,0.182265,
2,1,0,1,0,3458.95,0.184077,0.18378,0.373761,3,0.0184409,11,6.869e-05,-3.42741,-0.161337,-0.365693,-5.34316,0.18378,
2,1,0,1,0,3459.25,0.185576,0.185286,0.36601,3,0.018557,11,6.78163e-05,-3.43651,-0.177517,-0.332363,-4.75434,0.1852856,
2,1,0,1,0,3459.55,0.187074,0.186795,0.360284,3,0.0186712,11,6.72992e-05,-3.44336,-0.193344,-0.305156,-4.27117,0.186795,
2,1,0,1,0,3459.85,0.188571,0.188286,0.353047,3,0.0187838,11,6.64736e-05,-3.45217,-0.211062,-0.279539,-3.85585,0.188286,
2,1,0,0,0,3460.15,0.19007,0.189777,0.347898,3,0.0188945,11,6.6023e-05,-3.45855,-0.219789,-0.268439,-3.64906,0.189777,
2,1,0,0,0,3460.45,0.191568,0.191248,0.342046,3,0.0190033,11,6.54155e-05,-3.46592,-0.236573,-0.249394,-3.34319,0.191248,
2,1,0,1,0,3460.75,0.193067,0.192837,0.33713,3,0.0191109,11,6.50109e-05,-3.4722,-0.300057,-0.196629,-2.58741,0.192837,
2,1,0,1,0,3461.05,0.194564,0.194262,0.332627,3,0.0192173,11,6.46169e-05,-3.47804,-0.300642,-0.196247,-2.55599,0.194262,
2,1,0,1,0,3461.35,0.196062,0.195785,0.328774,3,0.0193223,11,6.4369e-05,-3.4831,-0.275063,-0.214497,-2.76831,0.195785,
2,1,0,1,0,3461.65,0.197561,0.197257,0.323717,3,0.019426,11,6.38554e-05,-3.48983,-0.314232,-0.187759,-2.38096,0.197257,
2,1,0,1,0,3461.95,0.199059,0.198749,0.322594,3,0.0195287,11,6.41153e-05,-3.49134,-0.311906,-0.18916,-2.37424,0.198749,
2,1,0,1,0,3462.25,0.200557,0.200255,0.318771,3,0.0196304,11,6.38353e-05,-3.49652,-0.347837,-0.16962,-2.10091,0.200255,
2,1,0,1,0,3462.55,0.202056,0.201754,0.31581,3,0.0197312,11,6.37161e-05,-3.50057,-0.33599,-0.1756,-2.15821,0.201754,
2,1,0,1,0,3462.85,0.203553,0.203266,0.310433,3,0.019831,11,6.31006e-05,-3.50803,-0.411623,-0.143335,-1.74993,0.203266,
2,1,0,1,0,3463.15,0.205051,0.204765,0.309479,3,0.0199299,11,6.33706e-05,-3.50937,-1.40749,-0.0419186,-0.512369,0.2047653,
2,1,0,0,0,3463.45,0.20655,0.206241,0.306588,3,0.0200281,11,6.3231e-05,-3.51344,-0.493428,-0.119572,-1.4352,0.206241,
2,1,0,0,0,3463.75,0.208048,0.207794,0.304501,3,0.0201261,11,6.32736e-05,-3.51641,-0.309609,-0.190563,-2.26077,0.207794,
2,1,0,1,0,3464.05,0.209547,0.209259,0.302993,3,0.020223,11,6.34039e-05,-3.51857,-0.408903,-0.144289,-1.70586,0.209259,
2,1,0,1,0,3464.35,0.211044,0.21077,0.301395,3,0.0203189,11,6.35249e-05,-3.52086,-0.556786,-0.105965,-1.24258,0.2107697,
2,1,0,1,0,3464.65,0.212542,0.212275,0.298158,3,0.0204145,11,6.32915e-05,-3.52555,-0.444965,-0.132595,-1.54274,0.212275,
2,1,0,1,0,3464.95,0.214041,0.213751,0.298838,3,0.0205095,11,6.38768e-05,-3.52456,-0.425928,-0.138521,-1.60492,0.2137506,
2,1,0,1,0,3465.25,0.215539,0.215257,0.295558,3,0.0206039,11,6.36211e-05,-3.52936,-0.418266,-0.141058,-1.62539,0.215257,
2,1,0,1,0,3465.55,0.217038,0.216731,0.294163,3,0.0206975,11,6.37541e-05,-3.53141,-1.10784,-0.0532569,-0.611303,0.216731,
2,1,0,1,0,3465.85,0.218535,0.218226,0.291233,3,0.0207909,11,6.35546e-05,-3.53576,-2.31924,-0.0254394,-0.289218,0.218226,
2,1,0,1,0,3466.15,0.220033,0.219752,0.290437,3,0.020884,11,6.38241e-05,-3.53695,-0.916041,-0.0644076,-0.73058,0.219752,
2,1,0,0,0,3466.44,0.221532,0.221285,0.289013,3,0.0209765,11,6.39541e-05,-3.53908,-0.692553,-0.085192,-0.963207,0.221285,
2,1,0,0,0,3466.74,0.22303,0.222769,0.284906,3,0.0210684,11,6.34684e-05,-3.5453,-0.592895,-0.0995117,-1.1129,0.222769,
2,1,0,1,0,3467.04,0.224529,0.224295,0.288234,3,0.02116,11,6.46494e-05,-3.54025,-0.584654,-0.100914,-1.12516,0.224295,
2,1,0,1,0,3467.34,0.226026,0.225758,0.285725,3,0.0212512,11,6.45046e-05,-3.54405,-0.71556,-0.0824529,-0.9159,0.225758,
2,1,0,1,0,3467.64,0.227524,0.227229,0.284305,3,0.0213421,11,6.46024e-05,-3.54622,-0.580916,-0.101564,-1.1257,0.227229,
2,1,0,1,0,3467.94,0.229023,0.228777,0.282212,3,0.0214326,11,6.45635e-05,-3.54942,-0.613284,-0.0962034,-1.06589,0.228777,
2,1,0,1,0,3468.24,0.230521,0.230219,0.281335,3,0.0215226,11,6.47685e-05,-3.55078,-1.18056,-0.0499764,-0.55007,0.230219,
2,1,0,1,0,3468.54,0.232019,0.231763,0.279382,3,0.0216125,11,6.47504e-05,-3.5538,-0.791688,-0.0745243,-0.816854,0.231763,
2,1,0,1,0,3468.84,0.233518,0.233188,0.279871,3,0.0217022,11,6.52624e-05,-3.55304,-0.532065,-0.110889,-1.20339,0.233188,
2,1,0,1,0,3469.14,0.235015,0.234734,0.279217,3,0.0217914,11,6.55416e-05,-3.55406,-1.28194,-0.0460241,-0.499991,0.234734,
2,1,0,1,0,3469.44,0.236513,0.236205,0.277117,3,0.0218802,11,6.54566e-05,-3.55734,-0.652291,-0.0904504,-0.977995,0.236205,
2,1,0,0,0,3469.74,0.238012,0.237725,0.27689,3,0.0219689,11,6.58237e-05,-3.55769,-0.871559,-0.0676948,-0.729591,0.2377253,
2,1,0,0,0,3470.04,0.23951,0.239282,0.275597,3,0.0220574,11,6.59455e-05,-3.55972,-0.87834,-0.0671722,-0.721761,0.239282,
2,1,0,1,0,3470.34,0.241009,0.240738,0.274491,3,0.0221456,11,6.60804e-05,-3.56147,-0.712522,-0.0828045,-0.888933,0.240738,
2,1,0,1,0,3470.64,0.242506,0.242198,0.272808,3,0.0222333,11,6.60736e-05,-3.56414,-1.09624,-0.0538203,-0.574441,0.242198,
2,1,0,1,0,3470.94,0.244004,0.243724,0.271916,3,0.022321,11,6.62723e-05,-3.56557,-1.77327,-0.0332719,-0.353799,0.2437236,
2,1,0,1,0,3471.24,0.245503,0.245238,0.272601,3,0.0224086,11,6.68523e-05,-3.56447,-1.63707,-0.03604,-0.382572,0.245238,
2,1,0,1,0,3471.54,0.247001,0.246702,0.271718,3,0.022496,11,6.70333e-05,-3.56588,-0.890308,-0.0662692,-0.702035,0.246702,
2,1,0,1,0,3471.84,0.2485,0.248235,0.269862,3,0.022583,11,6.69894e-05,-3.56886,-0.657937,-0.0896743,-0.947437,0.248235,
2,1,0,1,0,3472.14,0.249997,0.249732,0.27146,3,0.0226698,11,6.77924e-05,-3.56629,-2.7151,-0.0217304,-0.229721,0.249732,
2,1,0,1,0,3472.44,0.251495,0.251204,0.268133,3,0.0227565,11,6.73561e-05,-3.57165,-1.33601,-0.0441615,-0.463355,0.251204,
2,1,0,0,0,3472.74,0.252994,0.252699,0.269282,3,0.0228429,11,6.80475e-05,-3.56979,-0.577482,-0.102168,-1.07197,0.252699,
2,1,0,0,0,3473.04,0.254492,0.254146,0.268396,3,0.0229292,11,6.82117e-05,-3.57122,-1.13891,-0.0518037,-0.543094,0.254146,
2,1,0,1,0,3473.34,0.255991,0.255746,0.266956,3,0.0230152,11,6.8273e-05,-3.57356,-8.45365,-0.00697923,-0.0730755,0.255746,
2,1,0,1,0,3473.64,0.257488,0.257208,0.267509,3,0.0231011,11,6.88054e-05,-3.57266,-0.960766,-0.0614094,-0.642321,0.257208,
2,1,0,1,0,3473.94,0.258986,0.258737,0.268147,3,0.023187,11,6.93796e-05,-3.57163,-28.8122,-0.00204774,-0.0212857,0.258737,
2,1,0,1,0,3474.24,0.260485,0.260225,0.266444,3,0.0232726,11,6.93353e-05,-3.57439,-1.33461,-0.0442078,-0.458151,0.260225,
2,1,0,1,0,3474.53,0.261983,0.261705,0.265985,3,0.0233579,11,6.96097e-05,-3.57514,8.04255,0.00733598,0.0763561,0.261705,
2,1,0,1,0,3474.83,0.263481,0.263221,0.265454,3,0.0234432,11,6.98731e-05,-3.57601,-1.16908,-0.0504668,-0.52095,0.263221,
2,1,0,1,0,3475.13,0.264979,0.264667,0.263903,3,0.0235284,11,6.98466e-05,-3.57855,-20.1828,-0.00292328,-0.0302413,0.264667,
2,1,0,1,0,3475.43,0.266477,0.266183,0.264154,3,0.0236134,11,7.03132e-05,-3.57814,-1.3251,-0.0445251,-0.460872,0.266183,
2,1,0,0,0,3475.73,0.267976,0.267718,0.263269,3,0.023698,11,7.04818e-05,-3.5796,-2.55382,-0.0231026,-0.238585,0.267718,
2,1,0,0,0,3476.03,0.269474,0.269183,0.263634,3,0.0237827,11,7.09658e-05,-3.579,10.4021,0.00567196,0.0581464,0.269183,
2,1,0,0,0,3476.33,0.270972,0.270686,0.264869,3,0.0238673,11,7.16962e-05,-3.57697,-2.23947,-0.0263455,-0.27036,0.270686,
2,1,0,1,0,3476.63,0.27247,0.272143,0.261712,3,0.0239518,11,7.12231e-05,-3.58218,-1.42093,-0.041522,-0.423013,0.272143,
2,1,0,1,0,3476.93,0.273968,0.273715,0.261135,3,0.024036,11,7.14768e-05,-3.58313,-1.09901,-0.0536846,-0.549824,0.273715,
2,1,0,1,0,3477.23,0.275466,0.27517,0.261727,3,0.02412,11,7.20195e-05,-3.58215,-1.68018,-0.0351153,-0.358378,0.27517,
2,1,0,1,0,3477.53,0.276965,0.276683,0.260304,3,0.024204,11,7.20216e-05,-3.58452,-1.89745,-0.0310944,-0.317765,0.276683,
2,1,0,1,0,3477.83,0.278463,0.278145,0.2593,3,0.0242879,11,7.21229e-05,-3.5862,-0.785544,-0.0751072,-0.763566,0.278145,
2,1,0,1,0,3478.13,0.279961,0.279647,0.259201,3,0.0243716,11,7.24847e-05,-3.58636,-1.61974,-0.0364256,-0.370622,0.279647,
2,1,0,1,0,3478.43,0.281459,0.281183,0.260081,3,0.024455,11,7.31305e-05,-3.58489,-2.61969,-0.0225218,-0.228611,0.281183,
2,1,0,1,0,3478.73,0.282957,0.282674,0.259097,3,0.0245385,11,7.32398e-05,-3.58654,-3.65096,-0.0161601,-0.163064,0.2826736,
2,1,0,0,0,3479.03,0.284456,0.284178,0.259201,3,0.0246219,11,7.36592e-05,-3.58636,-1.65813,-0.0355823,-0.358663,0.284178,
2,1,0,0,0,3479.33,0.285954,0.285671,0.258105,3,0.0247052,11,7.37331e-05,-3.5882,-1.04115,-0.056668,-0.570003,0.285671,
2,1,0,0,0,3479.63,0.287452,0.287135,0.258049,3,0.0247881,11,7.40948e-05,-3.5883,-1.01046,-0.0583892,-0.586304,0.287135,
2,1,0,1,0,3479.93,0.28895,0.288632,0.257185,3,0.0248711,11,7.4232e-05,-3.58975,3.20137,0.0184296,0.184366,0.288632,
2,1,0,1,0,3480.23,0.290448,0.29017,0.257997,3,0.024954,11,7.48631e-05,-3.58839,-3.11943,-0.0189137,-0.189916,0.29017,
2,1,0,1,0,3480.53,0.291947,0.291675,0.256403,3,0.0250367,11,7.47861e-05,-3.59108,-5.03738,-0.0117124,-0.11716,0.291675,
2,1,0,1,0,3480.83,0.293445,0.293162,0.25616,3,0.0251193,11,7.50964e-05,-3.59149,-1.60015,-0.0368716,-0.369772,0.293162,
2,1,0,1,0,3481.13,0.294943,0.294652,0.256228,3,0.0252017,11,7.5498e-05,-3.59137,-8.45413,-0.00697884,-0.0696733,0.294652,
2,1,0,1,0,3481.43,0.296441,0.296203,0.257528,3,0.0252843,11,7.62805e-05,-3.58918,-1.61543,-0.0365227,-0.364941,0.296203,
2,1,0,1,0,3481.73,0.297939,0.29767,0.256409,3,0.0253666,11,7.63251e-05,-3.59107,-2.68863,-0.0219443,-0.218523,0.2976698,
2,1,0,1,0,3482.03,0.299437,0.299161,0.253994,3,0.0254488,11,7.5985e-05,-3.59518,-0.00170371,-34.6303,-131.402,0.299161,
2,1,0,1,0,3482.2,0.299737,0.299489,0.0538604,3,0.0254832,11,1.61306e-05,-4.26873,0.000513801,114.83,216.048,0.299489,
2,1,0,1,0,3482.5,0.29824,0.297993,0.00568318,3,0.0254839,11,1.69354e-06,-5.24541,0.00309641,19.0543,72.921,0.297993,
2,0,0,0,0,3482.8,0.296741,0.296449,-0.0102825,3,0.0254771,11,-3.04823e-06,-4.9879,-0.013865,-4.25531,9.47427,0.296449,
2,0,0,0,0,3483.1,0.295243,0.294943,-0.0211125,3,0.0254663,11,-6.22697e-06,-4.67546,-0.00568362,-10.3807,6.14809,0.294943,
2,0,0,1,0,3483.39,0.293744,0.293401,-0.0304733,3,0.0254527,11,-8.9409e-06,-4.51608,-0.011702,-5.04189,5.33771,0.293401,
2,0,0,1,0,3483.69,0.292246,0.291936,-0.0375406,3,0.025437,11,-1.09594e-05,-4.4255,-0.0181325,-3.25383,4.48392,0.2919355,
2,0,0,1,0,3483.99,0.290749,0.29046,-0.0439212,3,0.0254191,11,-1.27573e-05,-4.35733,-0.0223801,-2.63627,4.27905,0.29046,
2,0,0,1,0,3484.29,0.28925,0.28898,-0.0495948,3,0.0253995,11,-1.43319e-05,-4.30456,-0.0315171,-1.872,3.52378,0.28898,
2,0,0,1,0,3484.59,0.287752,0.287493,-0.0536792,3,0.0253782,11,-1.54324e-05,-4.27019,-0.0383784,-1.53732,3.21822,0.287493,
2,0,0,1,0,3484.89,0.286253,0.285947,-0.0594029,3,0.0253557,11,-1.69861e-05,-4.22619,-0.0495243,-1.19133,2.74104,0.285947,
2,0,0,1,0,3485.19,0.284755,0.284477,-0.0643477,3,0.0253317,11,-1.83055e-05,-4.19147,-0.0476602,-1.23793,2.9995,0.284477,
2,0,0,1,0,3485.49,0.283257,0.28296,-0.0663767,3,0.0253064,11,-1.8782e-05,-4.17798,-0.049156,-1.20026,3.11287,0.28296,
2,0,0,0,0,3485.79,0.281759,0.281465,-0.0713082,3,0.02528,11,-2.00708e-05,-4.14686,-0.0618064,-0.954594,2.66733,0.281465,
2,0,0,0,0,3486.09,0.280261,0.279945,-0.0738229,3,0.0252524,11,-2.06664e-05,-4.13181,-0.0664675,-0.887652,2.57479,0.2799454,
2,0,0,0,0,3486.39,0.278763,0.27848,-0.0792336,3,0.0252239,11,-2.2065e-05,-4.10109,-0.0849734,-0.694335,2.10826,0.2784799,
2,0,0,1,0,3486.69,0.277264,0.277023,-0.0825833,3,0.0251942,11,-2.28775e-05,-4.08311,-0.0870915,-0.677448,2.13029,0.277023,
2,0,0,1,0,3486.99,0.275766,0.2755,-0.0842667,3,0.0251636,11,-2.32155e-05,-4.07434,-0.102815,-0.573847,1.88479,0.2755,
2,0,0,1,0,3487.29,0.274268,0.273966,-0.0870966,3,0.025132,11,-2.38615e-05,-4.06,-0.108038,-0.546103,1.87193,0.2739661,
2,0,0,1,0,3487.59,0.27277,0.272454,-0.0901274,3,0.0250997,11,-2.45555e-05,-4.04514,-0.0891364,-0.661907,2.38433,0.272454,
2,0,0,1,0,3487.89,0.271272,0.270975,-0.0939068,3,0.0250664,11,-2.54464e-05,-4.0273,-0.110693,-0.533008,1.9389,0.270975,
2,0,0,1,0,3488.19,0.269773,0.269485,-0.0970373,3,0.025032,11,-2.61501e-05,-4.01306,-0.147137,-0.400988,1.48984,0.269485,
2,0,0,1,0,3488.49,0.268275,0.267993,-0.0994152,3,0.024997,11,-2.66426e-05,-4.00255,-0.140163,-0.420938,1.61899,0.267993,
2,0,0,1,0,3488.79,0.266778,0.266484,-0.101421,3,0.0249614,11,-2.70271e-05,-3.99387,-0.119241,-0.494796,1.95748,0.266484,
2,0,0,0,0,3489.09,0.265279,0.265056,-0.104136,3,0.0249248,11,-2.7602e-05,-3.9824,-0.1447,-0.40774,1.65612,0.265056,
2,0,0,0,0,3489.39,0.263781,0.263481,-0.106015,3,0.0248873,11,-2.7933e-05,-3.97463,-0.156953,-0.375909,1.56956,0.2634815,
2,0,0,1,0,3489.69,0.262282,0.262043,-0.109332,3,0.0248492,11,-2.86498e-05,-3.96125,-0.152397,-0.387146,1.65581,0.262043,
2,0,0,1,0,3489.99,0.260784,0.260522,-0.111941,3,0.0248105,11,-2.91631e-05,-3.95101,-0.125776,-0.469089,2.04661,0.260522,
2,0,0,1,0,3490.29,0.259286,0.25902,-0.114082,3,0.0247709,11,-2.95496e-05,-3.94278,-0.103945,-0.567607,2.52206,0.25902,
2,0,0,1,0,3490.59,0.257788,0.257519,-0.118644,3,0.0247305,11,-3.05532e-05,-3.92575,-0.160232,-0.368216,1.66791,0.257519,
2,0,0,1,0,3490.89,0.25629,0.255987,-0.119094,3,0.0246893,11,-3.04864e-05,-3.92411,-0.191493,-0.308106,1.42535,0.255987,
2,0,0,1,0,3491.19,0.254791,0.254495,-0.120812,3,0.0246476,11,-3.07462e-05,-3.91789,-0.181961,-0.324245,1.53004,0.254495,
2,0,0,1,0,3491.49,0.253293,0.253009,-0.123704,3,0.0246053,11,-3.12982e-05,-3.90762,-0.217574,-0.271172,1.30954,0.253009,
2,0,0,1,0,3491.78,0.251795,0.251489,-0.125914,3,0.0245621,11,-3.16659e-05,-3.89993,-0.218775,-0.269683,1.3274,0.251489,
2,0,0,0,0,3492.08,0.250297,0.250043,-0.128919,3,0.0245183,11,-3.22352e-05,-3.88968,-0.25881,-0.227967,1.13882,0.250043,
2,0,0,0,0,3492.38,0.248799,0.248538,-0.130457,3,0.0244738,11,-3.24237e-05,-3.88453,-0.243158,-0.24264,1.24513,0.248538,
2,0,0,0,0,3492.68,0.247301,0.247043,-0.132566,3,0.0244289,11,-3.27494e-05,-3.87757,-0.182353,-0.323549,1.68878,0.2470431,
2,0,0,1,0,3492.98,0.245802,0.245548,-0.135082,3,0.0243832,11,-3.31691e-05,-3.8694,-0.198912,-0.296614,1.55886,0.245548,
2,0,0,1,0,3493.28,0.244304,0.244014,-0.13727,3,0.0243366,11,-3.34957e-05,-3.86243,-0.206109,-0.286256,1.52956,0.244014,
2,0,0,1,0,3493.58,0.242806,0.242494,-0.14019,3,0.0242895,11,-3.39953e-05,-3.85328,-0.214228,-0.275408,1.49088,0.242494,
2,0,0,1,0,3493.88,0.241308,0.241037,-0.141586,3,0.0242419,11,-3.41275e-05,-3.84898,-0.23309,-0.253121,1.40371,0.241037,
2,0,0,1,0,3494.18,0.23981,0.239542,-0.143349,3,0.0241936,11,-3.4338e-05,-3.84361,-0.18771,-0.314314,1.74758,0.239542,
2,0,0,1,0,3494.48,0.238311,0.238015,-0.145081,3,0.0241445,11,-3.45313e-05,-3.83839,-0.257346,-0.229263,1.31136,0.238015,
2,0,0,1,0,3494.78,0.236813,0.236488,-0.147446,3,0.0240948,11,-3.48692e-05,-3.83137,-0.237793,-0.248115,1.4368,0.236488,
2,0,0,1,0,3495.08,0.235316,0.235008,-0.148146,3,0.0240447,11,-3.48154e-05,-3.82931,-0.222582,-0.265071,1.55766,0.2350079,
2,0,0,0,0,3495.38,0.233817,0.233524,-0.151517,3,0.0239937,11,-3.53828e-05,-3.81954,-0.215648,-0.273594,1.61435,0.233524,
2,0,0,0,0,3495.68,0.232319,0.232015,-0.155487,3,0.0239421,11,-3.60754e-05,-3.80831,-0.224193,-0.263166,1.5781,0.232015,
2,0,0,1,0,3495.98,0.23082,0.230506,-0.15666,3,0.0238896,11,-3.6111e-05,-3.80504,-0.208286,-0.283265,1.71485,0.230506,
2,0,0,1,0,3496.28,0.229322,0.229059,-0.157694,3,0.0238366,11,-3.61212e-05,-3.80218,-0.226887,-0.260041,1.61329,0.229059,
2,0,0,1,0,3496.58,0.227824,0.227513,-0.159975,3,0.0237831,11,-3.63964e-05,-3.79595,-0.290171,-0.203328,1.2828,0.227513,
2,0,0,1,0,3496.88,0.226326,0.22603,-0.162629,3,0.0237288,11,-3.67589e-05,-3.7888,-0.307402,-0.191931,1.22785,0.22603,
2,0,0,1,0,3497.18,0.224828,0.224518,-0.164755,3,0.0236738,11,-3.69904e-05,-3.78316,-0.276345,-0.213501,1.3728,0.224518,
2,0,0,1,0,3497.48,0.223329,0.223035,-0.168462,3,0.0236181,11,-3.7573e-05,-3.7735,-0.238033,-0.247865,1.62231,0.223035,
2,0,0,1,0,3497.78,0.221831,0.221587,-0.170538,3,0.0235619,11,-3.7789e-05,-3.76818,-0.230222,-0.256274,1.70093,0.221587,
2,0,0,1,0,3498.08,0.220333,0.220005,-0.173222,3,0.0235047,11,-3.81097e-05,-3.7614,-0.186993,-0.31552,2.11942,0.220005,
2,0,0,0,0,3498.38,0.218835,0.218534,-0.176601,3,0.0234466,11,-3.85933e-05,-3.75301,-0.199102,-0.29633,2.02476,0.218534,
2,0,0,0,0,3498.68,0.217337,0.217074,-0.177776,3,0.0233879,11,-3.85904e-05,-3.75013,-0.295659,-0.199554,1.38143,0.217074,
2,0,0,0,0,3498.98,0.215839,0.215548,-0.179735,3,0.0233286,11,-3.87415e-05,-3.74537,-0.245356,-0.240467,1.70144,0.215548,
2,0,0,1,0,3499.28,0.21434,0.214071,-0.183878,3,0.0232684,11,-3.93629e-05,-3.73547,-0.170661,-0.345715,2.462,0.214071,
2,0,0,1,0,3499.58,0.212842,0.212534,-0.185901,3,0.0232073,11,-3.95104e-05,-3.73072,-0.214739,-0.274752,1.99724,0.212534,
2,0,0,1,0,3499.87,0.211344,0.211062,-0.187684,3,0.0231454,11,-3.96131e-05,-3.72657,-0.244666,-0.241145,1.77766,0.211062,
2,0,0,1,0,3500.17,0.209846,0.209555,-0.188639,3,0.0230828,11,-3.95301e-05,-3.72437,-0.247433,-0.238449,1.78256,0.209555,
2,0,0,1,0,3500.47,0.208348,0.20805,-0.194313,3,0.0230194,11,-4.04268e-05,-3.7115,-0.223566,-0.263904,2.00525,0.20805,
2,0,0,1,0,3500.77,0.206849,0.206525,-0.200545,3,0.0229547,11,-4.14175e-05,-3.69779,-0.227952,-0.258826,1.99778,0.206525,
2,0,0,1,0,3501.07,0.205351,0.205068,-0.201001,3,0.022889,11,-4.12188e-05,-3.6968,-0.215232,-0.274123,2.14064,0.2050681,
2,0,0,1,0,3501.37,0.203854,0.203533,-0.203029,3,0.0228225,11,-4.13231e-05,-3.69244,-0.24109,-0.244722,1.95751,0.203533,
2,0,0,0,0,3501.67,0.202355,0.202045,-0.207315,3,0.0227552,11,-4.1887e-05,-3.68337,-0.238378,-0.247506,2.01302,0.202045,
2,0,0,0,0,3501.97,0.200857,0.200547,-0.210177,3,0.0226866,11,-4.21505e-05,-3.67741,-0.190734,-0.309332,2.5626,0.200547,
2,0,0,1,0,3502.27,0.199358,0.199044,-0.215627,3,0.0226169,11,-4.29195e-05,-3.6663,-0.227301,-0.259567,2.17326,0.199044,
2,0,0,1,0,3502.57,0.19786,0.197569,-0.219381,3,0.0225462,11,-4.33427e-05,-3.6588,-0.208646,-0.282776,2.4154,0.197569,
2,0,0,1,0,3502.87,0.196363,0.196051,-0.224259,3,0.0224743,11,-4.39661e-05,-3.64925,-0.174372,-0.338357,2.93561,0.1960507,
2,0,0,1,0,3503.17,0.194864,0.194549,-0.228768,3,0.022401,11,-4.45066e-05,-3.6406,-0.166847,-0.353618,3.15029,0.194549,
2,0,0,1,0,3503.47,0.193366,0.193068,-0.232836,3,0.0223261,11,-4.49533e-05,-3.63295,-0.161789,-0.364673,3.31886,0.193068,
2,0,0,1,0,3503.77,0.191867,0.191549,-0.236869,3,0.0222499,11,-4.53722e-05,-3.62549,-0.172618,-0.341794,3.19358,0.191549,
2,0,0,1,0,3504.07,0.190369,0.190096,-0.241391,3,0.0221725,11,-4.58876e-05,-3.61728,-0.15814,-0.373086,3.53691,0.190096,
2,0,0,1,0,3504.37,0.188871,0.188579,-0.247102,3,0.0220933,11,-4.65981e-05,-3.60712,-0.12777,-0.461766,4.4601,0.188579,
2,0,0,0,0,3504.67,0.187373,0.18705,-0.254498,3,0.0220122,11,-4.76037e-05,-3.59432,-0.145487,-0.405534,4.02268,0.18705,
2,0,0,0,0,3504.97,0.185875,0.185577,-0.260911,3,0.0219294,11,-4.8419e-05,-3.58351,-0.133961,-0.440428,4.4801,0.185577,
2,0,0,0,0,3505.27,0.184377,0.184096,-0.264992,3,0.0218448,11,-4.8784e-05,-3.57677,-0.129481,-0.455666,4.7422,0.184096,
2,0,0,1,0,3505.57,0.182878,0.182579,-0.274532,3,0.021758,11,-5.01238e-05,-3.56141,-0.122131,-0.483088,5.17271,0.182579,
2,0,0,1,0,3505.87,0.181381,0.181125,-0.282618,3,0.0216689,11,-5.11893e-05,-3.5488,-0.123819,-0.4765,5.25621,0.181125,
2,0,0,1,0,3506.17,0.179882,0.179611,-0.291135,3,0.0215773,11,-5.2291e-05,-3.53591,-0.139318,-0.42349,4.8053,0.179611,
2,0,0,1,0,3506.47,0.178384,0.178062,-0.298619,3,0.0214832,11,-5.31726e-05,-3.52488,-0.116177,-0.507846,5.97703,0.178062,
2,0,0,1,0,3506.77,0.176886,0.176603,-0.309285,3,0.0213865,11,-5.46207e-05,-3.50964,-0.101801,-0.579562,7.03308,0.1766035,
2,0,0,1,0,3507.07,0.175387,0.175048,-0.319837,3,0.0212864,11,-5.59868e-05,-3.49507,-0.0981047,-0.601398,7.52056,0.175048,
2,0,0,1,0,3507.37,0.173889,0.1736,-0.332073,3,0.021183,11,-5.76477e-05,-3.47877,-0.0957271,-0.616336,7.98662,0.1736,
2,0,0,1,0,3507.67,0.172392,0.172077,-0.344734,3,0.021076,11,-5.93209e-05,-3.46252,-0.0887799,-0.664565,8.93848,0.172077,
2,0,0,0,0,3507.97,0.170893,0.170589,-0.357914,3,0.0209654,11,-6.10561e-05,-3.44622,-0.0809539,-0.72881,10.2027,0.170589,
2,0,0,0,0,3508.26,0.169395,0.169126,-0.374649,3,0.0208501,11,-6.33627e-05,-3.42638,-0.0763643,-0.772612,11.2734,0.1691255,
2,0,0,1,0,3508.56,0.167896,0.16759,-0.39086,3,0.0207298,11,-6.5504e-05,-3.40798,-0.0764569,-0.771677,11.7832,0.16759,
2,0,0,1,0,3508.86,0.166398,0.16612,-0.40826,3,0.0206042,11,-6.78204e-05,-3.38906,-0.0762301,-0.773972,12.4441,0.16612,
2,0,0,1,0,3509.16,0.164901,0.164589,-0.427533,3,0.0204733,11,-7.03674e-05,-3.36903,-0.0689785,-0.855339,14.406,0.164589,
2,0,0,1,0,3509.46,0.163402,0.163159,-0.451408,3,0.0203358,11,-7.36512e-05,-3.34543,-0.0662472,-0.890604,15.6948,0.163159,
2,0,0,1,0,3509.76,0.161904,0.161624,-0.477307,3,0.0201911,11,-7.71444e-05,-3.3212,-0.062437,-0.944952,17.5652,0.161624,
2,0,0,1,0,3510.06,0.160405,0.160097,-0.503773,3,0.0200389,11,-8.06524e-05,-3.29777,-0.0639747,-0.922239,18.1057,0.160097,
2,0,0,1,0,3510.36,0.158907,0.158648,-0.528448,3,0.0198784,11,-8.3837e-05,-3.277,-0.0608022,-0.970359,20.1343,0.158648,
2,0,0,1,0,3510.66,0.157409,0.157099,-0.561768,3,0.0197093,11,-8.8253e-05,-3.25044,-0.0607464,-0.971251,21.3493,0.157099,
2,0,0,0,0,3510.96,0.155911,0.155579,-0.594346,3,0.0195302,11,-9.24677e-05,-3.22596,-0.0629323,-0.937516,21.7451,0.155579,
2,0,0,0,0,3511.26,0.154413,0.154088,-0.627668,3,0.0193412,11,-9.6716e-05,-3.20227,-0.070012,-0.842712,20.5757,0.154088,
2,0,0,0,0,3511.56,0.152915,0.152622,-0.661906,3,0.0191423,11,-0.000101022,-3.1792,-0.066718,-0.884319,22.8236,0.152622,
2,0,0,1,0,3511.86,0.151416,0.151101,-0.69737,3,0.0189338,11,-0.000105373,-3.15654,-0.0710349,-0.830578,22.5503,0.151101,
2,0,0,1,0,3512.16,0.149919,0.149604,-0.731553,3,0.0187143,11,-0.000109443,-3.13575,-0.071731,-0.822517,23.3277,0.149604,
2,0,0,1,0,3512.46,0.14842,0.148156,-0.762864,3,0.0184848,11,-0.000113023,-3.11755,-0.0819824,-0.719667,21.3674,0.148156,
2,0,0,1,0,3512.76,0.146922,0.146641,-0.794654,3,0.0182457,11,-0.000116529,-3.09982,-0.0930735,-0.633907,19.5836,0.146641,
2,0,0,1,0,3513.06,0.145424,0.145104,-0.823064,3,0.0179983,11,-0.00011943,-3.08457,-0.101229,-0.582837,18.6637,0.145104,
2,0,0,1,0,3513.36,0.143925,0.14361,-0.848689,3,0.0177421,11,-0.00012188,-3.07125,-0.104975,-0.562038,18.522,0.14361,
2,0,0,1,0,3513.66,0.142427,0.142157,-0.874366,3,0.0174776,11,-0.000124297,-3.05831,-0.136327,-0.432784,14.7026,0.142157,
2,0,0,1,0,3513.96,0.14093,0.140616,-0.894163,3,0.017207,11,-0.000125733,-3.04858,-0.192186,-0.306994,10.6745,0.140616,
2,0,0,0,0,3514.26,0.139431,0.139116,-0.904539,3,0.0169314,11,-0.000125836,-3.04357,-0.209764,-0.281269,9.94269,0.139116,
2,0,0,0,0,3514.56,0.137933,0.137616,-0.922596,3,0.0166517,11,-0.000126964,-3.03499,-0.288956,-0.204183,7.32337,0.137616,
2,0,0,1,0,3514.86,0.136434,0.136116,-0.933524,3,0.0163681,11,-0.000127068,-3.02987,-0.448525,-0.131542,4.76173,0.136116,
2,0,0,1,0,3515.16,0.134936,0.134668,-0.936509,3,0.0160825,11,-0.000126117,-3.02849,-1.81017,-0.0325937,1.18502,0.134668,
2,0,0,1,0,3515.46,0.133439,0.133135,-0.933835,3,0.015796,11,-0.000124326,-3.02973,13.7809,0.00428128,-0.156233,0.133135,
2,0,0,1,0,3515.76,0.13194,0.131656,-0.935177,3,0.01551,11,-0.000123122,-3.02911,0.868932,0.0678994,-2.47922,0.131656,
2,0,0,1,0,3516.06,0.130442,0.130143,-0.93122,3,0.0152246,11,-0.000121192,-3.03095,0.441357,0.133679,-4.84175,0.130143,
2,0,0,1,0,3516.36,0.128943,0.128651,-0.922908,3,0.0149411,11,-0.000118733,-3.03484,0.275774,0.213943,-7.67232,0.128651,
2,0,0,1,0,3516.65,0.127445,0.127167,-0.911553,3,0.014661,11,-0.00011592,-3.04022,0.243018,0.242781,-8.60035,0.127167,
2,0,0,1,0,3516.95,0.125947,0.125644,-0.897789,3,0.0143853,11,-0.000112802,-3.04683,0.210022,0.280923,-9.80078,0.125644,
2,0,0,0,0,3517.25,0.124449,0.124171,-0.883207,3,0.0141133,11,-0.000109668,-3.05394,0.194978,0.302598,-10.3492,0.124171,
2,0,0,0,0,3517.55,0.122951,0.122665,-0.863662,3,0.0138464,11,-0.000105941,-3.06366,0.161823,0.364595,-12.2718,0.122665,
2,0,0,0,0,3517.85,0.121453,0.12116,-0.843873,3,0.0135851,11,-0.000102244,-3.07372,0.151131,0.390389,-12.8568,0.12116,
2,0,0,1,0,3518.15,0.119954,0.119685,-0.820852,3,0.0133302,11,-9.82435e-05,-3.08574,0.14478,0.407514,-13.1248,0.119685,
2,0,0,1,0,3518.45,0.118456,0.118162,-0.802094,3,0.0130808,11,-9.47773e-05,-3.09577,0.152657,0.386487,-12.1163,0.118162,
2,0,0,1,0,3518.75,0.116958,0.116676,-0.787251,3,0.0128371,11,-9.18531e-05,-3.10389,0.135929,0.434051,-13.2962,0.116676,
2,0,0,1,0,3519.05,0.11546,0.115221,-0.764369,3,0.0125995,11,-8.80712e-05,-3.1167,0.128765,0.4582,-13.6702,0.1152208,
2,0,0,1,0,3519.35,0.113962,0.113666,-0.741223,3,0.0123681,11,-8.42521e-05,-3.13005,0.138304,0.426595,-12.4081,0.113666,
2,0,0,1,0,3519.65,0.112463,0.112171,-0.726428,3,0.0121425,11,-8.14842e-05,-3.13881,0.142118,0.415147,-11.7906,0.112171,
2,0,0,1,0,3519.95,0.110965,0.110667,-0.711337,3,0.0119218,11,-7.87212e-05,-3.14792,0.149745,0.394002,-10.9323,0.110667,
2,0,0,1,0,3520.25,0.109468,0.109175,-0.692998,3,0.011706,11,-7.56581e-05,-3.15927,0.141735,0.41627,-11.2458,0.109175,
2,0,0,0,0,3520.55,0.107969,0.107713,-0.677426,3,0.011495,11,-7.29677e-05,-3.16914,0.161538,0.365239,-9.70089,0.107713,
2,0,0,0,0,3520.85,0.106471,0.106184,-0.663893,3,0.0112888,11,-7.04948e-05,-3.1779,0.191698,0.307775,-8.01638,0.106184,
2,0,0,1,0,3521.15,0.104972,0.10472,-0.652021,3,0.0110859,11,-6.82798e-05,-3.18574,0.186698,0.316019,-8.04925,0.10472,
2,0,0,1,0,3521.45,0.103474,0.103162,-0.642497,3,0.0108862,11,-6.62811e-05,-3.19213,0.191055,0.308812,-7.71211,0.103162,
2,0,0,1,0,3521.75,0.101977,0.101666,-0.631495,3,0.0106903,11,-6.42016e-05,-3.19963,0.210231,0.280643,-6.9206,0.101666,
2,0,0,1,0,3522.05,0.100478,0.100186,-0.62174,3,0.0104977,11,-6.22898e-05,-3.20639,0.22406,0.263323,-6.38003,0.100186,
2,0,0,1,0,3522.35,0.0989798,0.0986827,-0.61307,3,0.0103075,11,-6.04994e-05,-3.21249,0.279664,0.210967,-5.03059,0.0986827,
2,0,0,1,0,3522.65,0.0974812,0.097168,-0.605454,3,0.0101196,11,-5.88308e-05,-3.21792,0.278016,0.212218,-5.01273,0.097168,
2,0,0,1,0,3522.95,0.0959834,0.0956838,-0.596328,3,0.00993405,11,-5.70589e-05,-3.22452,0.304061,0.19404,-4.52754,0.0956838,
2,0,0,1,0,3523.25,0.0944855,0.0942271,-0.587547,3,0.00975111,11,-5.53629e-05,-3.23096,0.289434,0.203846,-4.70255,0.0942271,
2,0,0,0,0,3523.55,0.0929871,0.0927073,-0.581576,3,0.00956969,11,-5.39164e-05,-3.23539,0.398051,0.148222,-3.3743,0.0927073,
2,0,0,0,0,3523.85,0.0914889,0.091158,-0.579552,3,0.00939007,11,-5.28308e-05,-3.23691,0.306535,0.192474,-4.34704,0.091158,
2,0,0,0,0,3524.15,0.0899907,0.0897223,-0.573427,3,0.00921229,11,-5.14491e-05,-3.24152,0.31327,0.188336,-4.192,0.0897223,
2,0,0,1,0,3524.45,0.0884923,0.088159,-0.564399,3,0.00903629,11,-4.97569e-05,-3.24841,0.354,0.166667,-3.67624,0.088159,
2,0,0,1,0,3524.74,0.0869945,0.0867119,-0.560137,3,0.0088622,11,-4.85706e-05,-3.25171,0.340995,0.173023,-3.78678,0.0867119,
2,0,0,1,0,3525.04,0.0854961,0.0851615,-0.555271,3,0.00868952,11,-4.72877e-05,-3.25549,0.361295,0.163302,-3.53983,0.0851615,
2,0,0,1,0,3525.34,0.083998,0.0837172,-0.548403,3,0.00851847,11,-4.59108e-05,-3.2609,0.264595,0.222982,-4.76532,0.08371719,
2,0,0,1,0,3525.64,0.0824998,0.0822294,-0.542642,3,0.00834921,11,-4.46211e-05,-3.26549,0.317086,0.186069,-3.9488,0.0822294,
2,0,0,1,0,3525.94,0.0810013,0.0807096,-0.5377,3,0.00818206,11,-4.33975e-05,-3.26946,0.316446,0.186446,-3.91534,0.0807096,
2,0,0,1,0,3526.24,0.0795035,0.0791915,-0.532431,3,0.00801623,11,-4.2164e-05,-3.27374,0.292755,0.201534,-4.17588,0.0791915,
2,0,0,1,0,3526.54,0.0780056,0.0776944,-0.526091,3,0.00785208,11,-4.08743e-05,-3.27894,0.320852,0.183885,-3.76911,0.0776944,
2,0,0,0,0,3526.84,0.076507,0.0761724,-0.520684,3,0.00768979,11,-3.96618e-05,-3.28343,0.269641,0.21881,-4.43555,0.0761724,
2,0,0,0,0,3527.14,0.0750088,0.0747324,-0.513678,3,0.00752987,11,-3.83884e-05,-3.28931,0.275346,0.214276,-4.28683,0.0747324,
2,0,0,1,0,3527.44,0.0735103,0.0732144,-0.506573,3,0.00737143,11,-3.70885e-05,-3.29536,0.354126,0.166607,-3.28275,0.0732144,
2,0,0,1,0,3527.74,0.0720124,0.0717058,-0.500056,3,0.00721495,11,-3.58569e-05,-3.30098,0.290205,0.203305,-3.9725,0.0717058,
2,0,0,1,0,3528.04,0.0705146,0.0702387,-0.492624,3,0.00706043,11,-3.46013e-05,-3.30748,0.271783,0.217085,-4.18947,0.0702387,
2,0,0,1,0,3528.34,0.069016,0.0687305,-0.485305,3,0.0069081,11,-3.33552e-05,-3.31399,0.242642,0.243157,-4.63201,0.0687305,
2,0,0,1,0,3528.64,0.0675179,0.0672014,-0.48015,3,0.00675767,11,-3.22668e-05,-3.31862,0.294329,0.200456,-3.75319,0.0672014,
2,0,0,1,0,3528.94,0.0660192,0.0657153,-0.477605,3,0.00660891,11,-3.1386e-05,-3.32093,0.260377,0.226595,-4.1914,0.0657153,
2,0,0,1,0,3529.24,0.0645214,0.0641855,-0.468337,3,0.0064621,11,-3.00604e-05,-3.32944,0.242169,0.243631,-4.43787,0.0641855,
2,0,0,1,0,3529.54,0.0630235,0.0627321,-0.459811,3,0.0063175,11,-2.88449e-05,-3.33742,0.271853,0.217029,-3.90959,0.0627321,
2,0,0,0,0,3529.84,0.0615251,0.0612493,-0.453856,3,0.00617475,11,-2.77983e-05,-3.34308,0.248895,0.237048,-4.21166,0.0612493,
2,0,0,0,0,3530.14,0.0600269,0.0597287,-0.450216,3,0.00603357,11,-2.68908e-05,-3.34658,0.25894,0.227852,-4.00228,0.0597287,
2,0,0,0,0,3530.44,0.0585287,0.0582749,-0.444472,3,0.00589403,11,-2.59015e-05,-3.35216,0.227752,0.259054,-4.48401,0.0582749,
2,0,0,1,0,3530.74,0.0570303,0.056718,-0.438944,3,0.00575606,11,-2.4896e-05,-3.35759,0.275734,0.213974,-3.66655,0.056718,
2,0,0,1,0,3531.04,0.0555325,0.0552211,-0.433631,3,0.00562006,11,-2.39456e-05,-3.36288,0.369128,0.159836,-2.71084,0.0552211,
2,0,0,1,0,3531.34,0.0540341,0.053731,-0.42998,3,0.00548516,11,-2.31032e-05,-3.36655,0.355393,0.166013,-2.77663,0.053731,
2,0,0,1,0,3531.64,0.052536,0.0522624,-0.425263,3,0.00535124,11,-2.22253e-05,-3.37134,0.372422,0.158423,-2.62452,0.0522624,
2,0,0,1,0,3531.94,0.0510378,0.0507354,-0.422026,3,0.00521887,11,-2.14116e-05,-3.37466,0.316032,0.18669,-3.06807,0.0507354,
2,0,0,1,0,3532.24,0.0495394,0.0492273,-0.418378,3,0.00508806,11,-2.05956e-05,-3.37843,0.432205,0.136509,-2.22892,0.0492273,
2,0,0,1,0,3532.54,0.0480415,0.0477822,-0.413937,3,0.00495798,11,-1.97788e-05,-3.38307,0.767317,0.0768913,-1.23933,0.0477822,
2,0,0,1,0,3532.84,0.0465436,0.0462621,-0.410957,3,0.0048287,11,-1.90117e-05,-3.3862,0.769831,0.0766402,-1.23268,0.0462621,
2,0,0,0,0,3533.13,0.045045,0.044743,-0.407919,3,0.00470033,11,-1.82515e-05,-3.38943,0.506491,0.116488,-1.86231,0.044743,
2,0,0,0,0,3533.43,0.0435468,0.0432362,-0.404666,3,0.0045729,11,-1.74962e-05,-3.3929,0.646696,0.0912329,-1.4473,0.0432362,
2,0,0,1,0,3533.73,0.0420483,0.0417608,-0.403967,3,0.00444604,11,-1.687e-05,-3.39365,0.995024,0.059295,-0.935446,0.0417608,
2,0,0,1,0,3534.03,0.0405504,0.0402226,-0.405489,3,0.00431959,11,-1.63098e-05,-3.39202,0.857033,0.0688422,-1.08112,0.0402226,
2,0,0,1,0,3534.33,0.0390526,0.0387436,-0.400505,3,0.0041935,11,-1.5517e-05,-3.39739,1.08906,0.0541751,-0.84697,0.0387436,
2,0,0,1,0,3534.63,0.0375541,0.0372173,-0.397669,3,0.00406801,11,-1.48002e-05,-3.40048,1.56708,0.0376497,-0.586789,0.0372173,
2,0,0,1,0,3534.93,0.0360559,0.0357879,-0.398614,3,0.00394303,11,-1.42656e-05,-3.39945,1.36658,0.0431735,-0.673816,0.0357879,
2,0,0,1,0,3535.23,0.0345572,0.0342636,-0.396885,3,0.00381805,11,-1.35987e-05,-3.40133,1.84627,0.0319563,-0.498173,0.0342636,
2,0,0,1,0,3535.53,0.0330594,0.0327528,-0.398544,3,0.00369327,11,-1.30535e-05,-3.39952,1.10837,0.0532315,-0.824866,0.0327528,
2,0,0,1,0,3535.83,0.0315615,0.0312413,-0.398184,3,0.00356868,11,-1.24398e-05,-3.39992,2.58993,0.0227805,-0.353524,0.0312413,
2,0,0,0,0,3536.13,0.0300631,0.0297701,-0.397961,3,0.00344433,11,-1.18473e-05,-3.40016,-2.7052,-0.0218098,0.338079,0.0297701,
2,0,0,0,0,3536.43,0.0285649,0.0282696,-0.397767,3,0.00331971,11,-1.12447e-05,-3.40037,-8.39439,-0.0070285,0.10891,0.0282696,
2,0,0,0,0,3536.73,0.0270667,0.026749,-0.397609,3,0.00319499,11,-1.06356e-05,-3.40054,-7.88972,-0.00747809,0.116047,0.026749,
2,0,0,1,0,3537.03,0.0255683,0.0253183,-0.398196,3,0.0030701,11,-1.00816e-05,-3.3999,-3.21475,-0.0183529,0.285736,0.02531825,
2,0,0,1,0,3537.33,0.0240706,0.02378,-0.39821,3,0.00294549,11,-9.46945e-06,-3.39989,-14.2051,-0.00415343,0.0647987,0.02378,
2,0,0,1,0,3537.63,0.0225722,0.0222762,-0.398241,3,0.00282031,11,-8.8713e-06,-3.39985,-0.812943,-0.0725758,1.13182,0.0222762,
2,0,0,1,0,3537.93,0.021074,0.0207566,-0.399303,3,0.0026949,11,-8.28818e-06,-3.3987,-2.61125,-0.0225946,0.353883,0.0207566,
2,0,0,1,0,3538.23,0.0195758,0.0192487,-0.402043,3,0.00256917,11,-7.73882e-06,-3.39573,-1.63584,-0.0360672,0.565828,0.0192487,
2,0,0,1,0,3538.53,0.0180774,0.0177723,-0.4009,3,0.00244331,11,-7.12491e-06,-3.39696,-1.65388,-0.0356737,0.560358,0.0177723,
2,0,0,1,0,3538.83,0.0165795,0.0163008,-0.404637,3,0.00231704,11,-6.59592e-06,-3.39293,-0.865056,-0.0682037,1.07347,0.0163008,
2,0,0,1,0,3539.13,0.0150817,0.0148007,-0.407207,3,0.00219014,11,-6.02696e-06,-3.39019,-0.672147,-0.0877784,1.39089,0.0148007,
2,0,0,0,0,3539.43,0.013583,0.0132723,-0.407215,3,0.00206256,11,-5.40467e-06,-3.39018,-2.64467,-0.022309,0.354766,0.0132723,
2,0,0,0,0,3539.73,0.0120848,0.0117782,-0.408001,3,0.00193487,11,-4.80549e-06,-3.38934,-1.10143,-0.0535666,0.857565,0.0117782,
2,0,0,1,0,3540.03,0.0105863,0.010272,-0.409958,3,0.00180683,11,-4.21108e-06,-3.38726,-0.710203,-0.0830749,1.33317,0.010272,
2,0,0,1,0,3540.33,0.00908845,0.00880464,-0.413306,3,0.00167789,11,-3.63901e-06,-3.38373,-0.850803,-0.0693462,1.11884,0.00880464,
2,0,0,1,0,3540.63,0.0075906,0.00730363,-0.412933,3,0.00154836,11,-3.01591e-06,-3.38412,-1.05147,-0.0561117,0.908204,0.00730363,
2,0,0,1,0,3540.93,0.00609208,0.00581867,-0.417643,3,0.00141821,11,-2.43013e-06,-3.37919,-0.70896,-0.0832205,1.35321,0.00581867,
2,0,0,1,0,3541.22,0.00459389,0.00428532,-0.419387,3,0.00128775,11,-1.79721e-06,-3.37738,-0.728096,-0.0810333,1.32297,0.00428532,
2,0,0,1,0,3541.52,0.00309525,0.00280772,-0.421564,3,0.00115622,11,-1.18363e-06,-3.37514,-0.455834,-0.129433,2.12646,0.00280772,
2,0,0,1,0,3541.82,0.00159739,0.00126082,-0.425793,3,0.00102178,11,-5.36847e-07,-3.3708, , , ,0.00126082,
2,0,0,0,0,3542.1,0.000199195,-0.000214617,-0.426636,3,0.000897436,11,9.15633e-08,-3.36994, , , ,-0.000214617,