File: Figure_codes/Fig_3-5/rawdata_trumpetplot_data/before 10th/20221101_1-115_002_TrumpetPlot_ParaChange_16_CV_C01_4.csv
mode,ox/red,error,control changes,counter inc.,time/s,control/V,Ewe/V,<I>/mA,cycle number,(Q-Qo)/C,I Range,P/W,log(|I|),Tafel slope mV/dec,alpha_eff,dI/d(E-IR),E-IR/V,
2,1,0,1,0,6145.59,2.44065e-05,-0.00103155,64.227,5,0.0000000E+000,10,-6.62536e-05,-1.19228, , , ,-0.00103155,
2,1,0,1,0,6145.59,0.00312067,0.00286226,58.5081,5,0.000187857,10,0.000167465,-1.23278, , , ,0.00286226,
2,1,0,1,0,6145.6,0.00711584,0.00679531,56.1884,5,0.000416381,10,0.000381817,-1.25035, , , ,0.00679531,
2,1,0,1,0,6145.6,0.011111,0.0107761,55.2436,5,0.000638987,10,0.000595309,-1.25772,-0.517981,-0.113904,-251.117,0.0107761,
2,1,0,1,0,6145.61,0.0151062,0.0147112,54.7556,5,0.000858831,10,0.000805523,-1.26157,-1.20956,-0.048778,-105.35,0.0147112,
2,1,0,1,0,6145.61,0.0191014,0.0187461,54.5194,5,0.00107734,10,0.00102203,-1.26345,-2.43535,-0.0242265,-51.8379,0.0187461,
2,1,0,1,0,6145.61,0.0231465,0.0228053,54.5017,5,0.00129539,10,0.00124293,-1.26359,-5.34794,-0.0110323,-23.4939,0.0228053,
2,1,0,1,0,6145.62,0.0271416,0.02682,54.412,5,0.00151319,10,0.00145933,-1.26431,-12.3978,-0.00475889,-10.1106,0.02682,
2,1,0,1,0,6145.62,0.0311368,0.0307891,54.3779,5,0.00173079,10,0.00167425,-1.26458,-13.7324,-0.00429642,-9.12641,0.0307891,
2,1,0,1,0,6145.63,0.035132,0.0347423,54.3577,5,0.00194823,10,0.00188851,-1.26474,362.655,0.000162689,0.345493,0.0347423,
2,1,0,1,0,6145.63,0.0391272,0.038757,54.3561,5,0.00216565,10,0.00210668,-1.26475,21.6429,0.00272607,5.79017,0.038757,
2,1,0,1,0,6145.63,0.0431223,0.0427738,54.4175,5,0.00238321,10,0.00232764,-1.26426,12.2361,0.0048218,10.2445,0.0427738,
2,1,0,1,0,6145.64,0.0471175,0.0467535,54.4703,5,0.00260098,10,0.00254668,-1.26384,7.89472,0.00747335,15.8906,0.0467535,
2,1,0,1,0,6145.64,0.0511127,0.0507534,54.5217,5,0.00281899,10,0.00276716,-1.26343,7.35768,0.00801883,17.0726,0.0507534,
2,1,0,1,0,6145.65,0.0551079,0.0547363,54.6101,5,0.00303726,10,0.00298915,-1.26273,5.16065,0.0114327,24.3904,0.0547363,
2,1,0,1,0,6145.65,0.059103,0.0587436,54.6901,5,0.00325589,10,0.00321269,-1.26209,3.63558,0.0162285,34.707,0.0587436,
2,1,0,1,0,6145.65,0.0631481,0.0627243,54.8598,5,0.00347494,10,0.00344105,-1.26075,2.75459,0.0214188,45.9564,0.06272433,
2,1,0,1,0,6145.66,0.0671433,0.0667783,55.0779,5,0.00369476,10,0.00367801,-1.25902,2.05102,0.0287661,61.9541,0.0667783,
2,1,0,1,0,6145.66,0.0711385,0.0707728,55.347,5,0.00391564,10,0.00391706,-1.25691,1.74371,0.0338359,73.2167,0.0707728,
2,1,0,1,0,6145.67,0.0751337,0.0747822,55.6838,5,0.00413772,10,0.00416416,-1.25427,1.49839,0.0393755,85.6868,0.0747822,
2,1,0,1,0,6145.67,0.0791288,0.0787895,56.0361,5,0.00436116,10,0.00441505,-1.25153,1.29417,0.0455891,99.8872,0.07878948,
2,1,0,1,0,6145.67,0.083124,0.0827681,56.448,5,0.00458616,10,0.0046721,-1.24835,1.14934,0.0513338,113.367,0.0827681,
2,1,0,1,0,6145.68,0.0871192,0.0867595,56.9439,5,0.00481298,10,0.00494042,-1.24455,0.996278,0.0592204,131.931,0.0867595,
2,1,0,1,0,6145.68,0.0911143,0.0908092,57.5007,5,0.00504191,10,0.00522159,-1.24033,0.878618,0.0671509,151.082,0.0908092,
2,1,0,1,0,6145.69,0.0951095,0.0947688,58.1442,5,0.00527326,10,0.00551026,-1.23549,0.784452,0.0752117,171.141,0.0947688,
2,1,0,1,0,6145.69,0.0991047,0.0987866,58.8681,5,0.00550732,10,0.00581538,-1.23012,0.697152,0.0846301,195.034,0.0987866,
2,1,0,1,0,6145.69,0.103114,0.10279,59.6873,5,0.00574447,10,0.00613524,-1.22412,0.6482,0.0910213,212.549,0.10279,
2,1,0,1,0,6145.7,0.107145,0.10684,60.6273,5,0.00598525,10,0.00647745,-1.21733,0.605484,0.0974427,230.83,0.10684,
2,1,0,1,0,6145.7,0.11114,0.110826,61.5573,5,0.00622969,10,0.00682218,-1.21072,0.573237,0.102924,247.63,0.110826,
2,1,0,1,0,6145.71,0.115135,0.114809,62.5666,5,0.00647803,10,0.00718324,-1.20366,0.552606,0.106767,261.19,0.114809,
2,1,0,1,0,6145.71,0.119131,0.1188,63.6519,5,0.00673056,10,0.00756182,-1.19619,0.527685,0.111809,278.176,0.1188,
2,1,0,1,0,6145.71,0.123126,0.122765,64.7866,5,0.00698753,10,0.00795349,-1.18852,0.510985,0.115463,292.336,0.122765,
2,1,0,1,0,6145.72,0.127121,0.126775,65.9938,5,0.00724922,10,0.00836636,-1.1805,0.498432,0.118371,305.173,0.126775,
2,1,0,1,0,6145.72,0.131116,0.130791,67.2386,5,0.00751581,10,0.00879418,-1.17238,0.48712,0.12112,318.116,0.130791,
2,1,0,1,0,6145.73,0.135111,0.134776,68.5273,5,0.00778746,10,0.00923582,-1.16414,0.478527,0.123295,330.084,0.134776,
2,1,0,1,0,6145.73,0.139106,0.13876,69.8749,5,0.00806438,10,0.00969582,-1.15568,0.464971,0.12689,346.545,0.13876,
2,1,0,1,0,6145.73,0.143102,0.142763,71.2711,5,0.00834679,10,0.0101749,-1.14709,0.457512,0.128958,359.174,0.142763,
2,1,0,1,0,6145.74,0.147147,0.146821,72.7937,5,0.00863509,10,0.0106876,-1.13791,0.451812,0.130585,371.058,0.146821,
2,1,0,1,0,6145.74,0.151142,0.150799,74.2823,5,0.00892936,10,0.0112017,-1.12911,0.444977,0.132591,384.508,0.1507985,
2,1,0,1,0,6145.75,0.155137,0.154792,75.8238,5,0.00922969,10,0.0117369,-1.12019,0.441134,0.133746,396.216,0.154792,
2,1,0,1,0,6145.75,0.159132,0.158773,77.4271,5,0.00953637,10,0.0122933,-1.11111,0.434838,0.135683,410.457,0.158773,
2,1,0,1,0,6145.75,0.163127,0.162761,79.1094,5,0.00984959,10,0.0128759,-1.10177,0.427893,0.137885,426.093,0.162761,
2,1,0,1,0,6145.76,0.167123,0.16677,80.8381,5,0.0101697,10,0.0134814,-1.09238,0.423516,0.13931,439.863,0.16677,
2,1,0,1,0,6145.76,0.171118,0.170782,82.637,5,0.0104968,10,0.0141129,-1.08283,0.420916,0.140171,452.284,0.170782,
2,1,0,1,0,6145.77,0.175113,0.174817,84.4842,5,0.0108312,10,0.0147693,-1.07322,0.418346,0.141032,465.096,0.174817,
2,1,0,1,0,6145.77,0.179108,0.178775,86.3524,5,0.011173,10,0.0154377,-1.06373,0.418764,0.140891,475.037,0.178775,
2,1,0,1,0,6145.77,0.183103,0.182757,88.2734,5,0.0115225,10,0.0161326,-1.05417,0.423309,0.139378,480.13,0.182757,
2,1,0,1,0,6145.78,0.187146,0.186833,90.262,5,0.0118797,10,0.0168639,-1.0445,0.43189,0.136609,480.602,0.186833,
2,1,0,1,0,6145.78,0.191143,0.190808,92.1619,5,0.0122448,10,0.0175852,-1.03545,0.449025,0.131396,471.845,0.190808,
2,1,0,1,0,6145.79,0.195139,0.194786,94.0474,5,0.0126174,10,0.0183191,-1.02665,0.470403,0.125424,459.55,0.1947863,
2,1,0,1,0,6145.79,0.199134,0.198834,95.8592,5,0.0129974,10,0.0190601,-1.01837,0.499417,0.118138,440.988,0.198834,
2,1,0,1,0,6145.79,0.203129,0.2028,97.5994,5,0.0133845,10,0.0197931,-1.01055,0.543968,0.108462,411.973,0.2028,
2,1,0,1,0,6145.8,0.207124,0.206813,99.2203,5,0.0137784,10,0.0205201,-1.0034,0.5993,0.0984481,379.834,0.206813,
2,1,0,1,0,6145.8,0.211119,0.210883,100.679,5,0.0141784,10,0.0212315,-0.997062,0.699278,0.0843728,329.987,0.210883,
2,1,0,1,0,6145.81,0.215115,0.2148,101.924,5,0.0145838,10,0.0218933,-0.991724,0.869971,0.0678183,268.255,0.2148,
2,1,0,1,0,6145.81,0.21911,0.218791,102.876,5,0.0149935,10,0.0225084,-0.987685,1.22868,0.0480191,191.524,0.218791,
2,1,0,1,0,6145.81,0.223105,0.222828,103.516,5,0.0154065,10,0.0230663,-0.984992,2.37524,0.0248396,99.5795,0.222828,
2,1,0,1,0,6145.82,0.227108,0.226833,103.734,5,0.0158211,10,0.0235302,-0.98408,-22.0351,-0.00267755,-10.7412,0.226833,
2,1,0,1,0,6145.82,0.231145,0.230867,103.524,5,0.0162359,10,0.0239002,-0.98496,-1.68803,-0.034952,-139.671,0.230867,
2,1,0,1,0,6145.83,0.23514,0.234847,102.704,5,0.0166484,10,0.0241197,-0.988414,-0.840107,-0.0702292,-278.139,0.234847,
2,1,0,1,0,6145.83,0.239136,0.238857,101.277,5,0.0170564,10,0.0241908,-0.994487,-0.53794,-0.109678,-428.235,0.238857,
2,1,0,1,0,6145.83,0.243131,0.242918,99.2597,5,0.0174574,10,0.024112,-1.00323,-0.39279,-0.150207,-574.551,0.242918,
2,1,0,1,0,6145.84,0.247126,0.246923,96.6477,5,0.0178491,10,0.0238646,-1.01481,-0.306524,-0.192481,-716.78,0.2469233,
2,1,0,1,0,6145.84,0.251121,0.250931,93.4631,5,0.0182292,10,0.0234527,-1.02936,-0.251739,-0.234369,-844.653,0.250931,
2,1,0,1,0,6145.85,0.255116,0.254882,89.7911,5,0.0185954,10,0.0228861,-1.04677,-0.216004,-0.273143,-947.089,0.254882,
2,1,0,1,0,6145.85,0.259111,0.258902,85.7592,5,0.0189462,10,0.0222032,-1.06672,-0.190592,-0.309562,-1026.9,0.258902,
2,1,0,1,0,6145.85,0.263107,0.262943,81.4757,5,0.0192803,10,0.0214235,-1.08897,-0.175055,-0.337037,-1064.83,0.262943,
2,1,0,1,0,6145.86,0.267102,0.2669,77.0637,5,0.019597,10,0.0205683,-1.11315,-0.163497,-0.360863,-1080.96,0.2669003,
2,1,0,1,0,6145.86,0.271147,0.270916,72.7171,5,0.0198961,10,0.0197002,-1.13836,-0.156456,-0.377102,-1068.02,0.270916,
2,1,0,1,0,6145.87,0.275142,0.274958,68.4026,5,0.0201778,10,0.0188079,-1.16493,-0.153219,-0.385071,-1029.32,0.274958,
2,1,0,1,0,6145.87,0.279137,0.278989,64.3382,5,0.0204428,10,0.0179496,-1.19153,-0.152971,-0.385693,-972.76,0.2789889,
2,1,0,1,0,6145.87,0.283132,0.282911,60.5831,5,0.0206922,10,0.0171397,-1.21765,-0.156109,-0.377942,-899.24,0.282911,
2,1,0,1,0,6145.88,0.287128,0.286912,57.1567,5,0.0209273,10,0.0163989,-1.24293,-0.162669,-0.362699,-815.417,0.286912,
2,1,0,1,0,6145.88,0.291123,0.290876,54.0887,5,0.0211494,10,0.0157331,-1.26689,-0.173394,-0.340266,-725.712,0.290876,
2,1,0,1,0,6145.89,0.295118,0.294903,51.3612,5,0.0213599,10,0.0151466,-1.28937,-0.182119,-0.323964,-666.438,0.294903,
2,1,0,1,0,6145.89,0.298913,0.298713,49.1157,5,0.0215506,10,0.0146715,-1.30878,-0.0883243,-0.667993,-1274.69,0.298713,
2,1,0,1,0,6145.89,0.300012,0.299899,48.5017,5,0.0216044,10,0.0145456,-1.31424,0.000686409,85.9546,136153,0.299899,
2,1,0,1,0,6145.89,0.298714,0.298755,44.0457,5,0.0216628,10,0.0131589,-1.3561,0.022514,2.62059,3424.25,0.2987549,
2,1,0,1,0,6145.9,0.294718,0.294757,31.4379,5,0.0218116,10,0.00926653,-1.50255,0.0240587,2.45234,2631.66,0.294757,
2,1,0,1,0,6145.9,0.290723,0.290671,21.5794,5,0.021916,10,0.00627252,-1.66596,0.0206663,2.85489,2274.95,0.290671,
2,1,0,1,0,6145.91,0.286728,0.28666,13.6605,5,0.0219853,10,0.00391592,-1.86453,0.0137141,4.30214,1813.07,0.2866599,
2,1,0,1,0,6145.91,0.282733,0.282591,7.27398,5,0.0220261,10,0.00205556,-2.13823,0.0162142,3.63879,1476.31,0.282591,
2,1,0,1,0,6145.91,0.278738,0.27856,2.0722,5,0.022044,10,0.000577232,-2.68357,0.0421723,1.39902,1208.23,0.27856,
2,0,0,1,0,6145.92,0.274742,0.274569,-2.1925,5,0.0220431,10,-0.000601994,-2.65906,-0.209098,-0.282165,991.232,0.274569,
2,0,0,1,0,6145.92,0.270747,0.270639,-5.69616,5,0.0220268,10,-0.0015416,-2.24442,-0.022008,-2.68084,821.411,0.270639,
2,0,0,1,0,6145.93,0.266702,0.266491,-8.68501,5,0.0219976,10,-0.00231448,-2.06123,-0.0206695,-2.85445,680.766,0.266491,
2,0,0,1,0,6145.93,0.262707,0.262506,-11.1151,5,0.0219576,10,-0.00291779,-1.95408,-0.0387719,-1.52172,567.409,0.262506,
2,0,0,1,0,6145.93,0.258712,0.258502,-13.1306,5,0.0219088,10,-0.00339427,-1.88172,-0.058344,-1.01124,477.908,0.258502,
2,0,0,1,0,6145.94,0.254717,0.254501,-14.8532,5,0.0218526,10,-0.00378015,-1.82818,-0.0798081,-0.739273,407.506,0.254501,
2,0,0,1,0,6145.94,0.250722,0.250486,-16.3338,5,0.0217901,10,-0.00409139,-1.78691,-0.102863,-0.573578,353.379,0.250486,
2,0,0,1,0,6145.95,0.246726,0.246512,-17.6328,5,0.0217219,10,-0.00434671,-1.75368,-0.128871,-0.457823,307.233,0.246512,
2,0,0,1,0,6145.95,0.242731,0.242519,-18.7784,5,0.021649,10,-0.00455413,-1.72634,-0.156515,-0.376962,270.887,0.242519,
2,0,0,1,0,6145.95,0.238736,0.238493,-19.7713,5,0.0215717,10,-0.00471533,-1.70396,-0.185793,-0.317558,241.712,0.238493,
2,0,0,1,0,6145.96,0.234741,0.234509,-20.6618,5,0.0214907,10,-0.00484538,-1.68483,-0.211851,-0.278498,222.953,0.234509,
2,0,0,1,0,6145.96,0.230746,0.230505,-21.5019,5,0.0214063,10,-0.0049563,-1.66752,-0.240184,-0.245645,204.88,0.230505,
2,0,0,1,0,6145.97,0.226701,0.226495,-22.3512,5,0.0213186,10,-0.00506243,-1.6507,-0.267038,-0.220943,191.099,0.226495,
2,0,0,1,0,6145.97,0.222705,0.222465,-23.0552,5,0.0212277,10,-0.00512897,-1.63723,-0.294836,-0.200111,178.885,0.222465,
2,0,0,1,0,6145.97,0.21871,0.218433,-23.7338,5,0.021134,10,-0.00518426,-1.62463,-0.328351,-0.179686,165.886,0.218433,
2,0,0,1,0,6145.98,0.214715,0.214478,-24.3689,5,0.0210378,10,-0.00522659,-1.61316,-0.343817,-0.171603,162.962,0.214478,
2,0,0,1,0,6145.98,0.21072,0.21047,-25.0095,5,0.0209389,10,-0.00526374,-1.60189,-0.358372,-0.164633,160.613,0.21047,
2,0,0,1,0,6145.99,0.206725,0.206495,-25.6576,5,0.0208376,10,-0.00529818,-1.59078,-0.365177,-0.161566,161.661,0.206495,
2,0,0,1,0,6145.99,0.202729,0.202422,-26.3054,5,0.0207336,10,-0.0053248,-1.57995,-0.371678,-0.15874,162.874,0.202422,
2,0,0,1,0,6145.99,0.198734,0.198503,-26.9514,5,0.020627,10,-0.00534994,-1.56942,-0.372282,-0.158482,166.806,0.198503,
2,0,0,1,0,6146,0.194739,0.194473,-27.6149,5,0.0205178,10,-0.00537036,-1.55886,-0.363366,-0.162371,175.398,0.194473,
2,0,0,1,0,6146,0.190744,0.190506,-28.3247,5,0.0204058,10,-0.00539603,-1.54784,-0.350547,-0.168308,186.71,0.190506,
2,0,0,1,0,6146.01,0.186735,0.18649,-29.1,5,0.020291,10,-0.00542684,-1.53611,-0.338681,-0.174205,198.373,0.18649,
2,0,0,1,0,6146.01,0.182704,0.182438,-29.9509,5,0.0201727,10,-0.00546419,-1.52359,-0.327056,-0.180397,211.145,0.182438,
2,0,0,1,0,6146.01,0.178709,0.178421,-30.7992,5,0.0200511,10,-0.00549523,-1.51146,-0.314381,-0.187671,226.105,0.178421,
2,0,0,1,0,6146.02,0.174713,0.174421,-31.721,5,0.019926,10,-0.00553281,-1.49865,-0.299982,-0.196678,244.58,0.174421,
2,0,0,1,0,6146.02,0.170718,0.170513,-32.7125,5,0.0197971,10,-0.00557789,-1.48529,-0.28299,-0.208488,267.586,0.170513,
2,0,0,1,0,6146.03,0.166723,0.166468,-33.8568,5,0.0196639,10,-0.00563608,-1.47035,-0.266853,-0.221095,293.456,0.166468,
2,0,0,1,0,6146.03,0.162728,0.162475,-35.0663,5,0.0195259,10,-0.00569738,-1.45511,-0.251766,-0.234344,322.215,0.162475,
2,0,0,1,0,6146.03,0.158733,0.158458,-36.4055,5,0.0193829,10,-0.00576874,-1.43883,-0.239223,-0.246632,352.296,0.158458,
2,0,0,1,0,6146.04,0.154737,0.154488,-37.8759,5,0.0192342,10,-0.00585137,-1.42164,-0.225175,-0.262018,389.404,0.154488,
2,0,0,1,0,6146.04,0.150742,0.150478,-39.49,5,0.0190794,10,-0.00594238,-1.40351,-0.212962,-0.277045,429.685,0.150478,
2,0,0,1,0,6146.05,0.146747,0.146561,-41.2631,5,0.0189177,10,-0.00604756,-1.38444,-0.205211,-0.287509,465.621,0.146561,
2,0,0,1,0,6146.05,0.142702,0.142473,-43.2739,5,0.0187485,10,-0.00616537,-1.36377,-0.198212,-0.29766,504.165,0.142473,
2,0,0,1,0,6146.05,0.138707,0.138453,-45.3419,5,0.0185711,10,-0.00627773,-1.3435,-0.194449,-0.303422,538.219,0.138453,
2,0,0,1,0,6146.06,0.134712,0.134472,-47.5595,5,0.0183851,10,-0.00639545,-1.32276,-0.192563,-0.306393,570.228,0.134472,
2,0,0,1,0,6146.06,0.130717,0.130487,-49.9142,5,0.01819,10,-0.00651318,-1.30178,-0.190224,-0.310161,605.204,0.130487,
2,0,0,1,0,6146.07,0.126721,0.126483,-52.3917,5,0.0179852,10,-0.00662668,-1.28074,-0.190072,-0.310409,635.365,0.126483,
2,0,0,1,0,6146.07,0.122726,0.122558,-54.9619,5,0.0177702,10,-0.00673601,-1.25994,-0.192853,-0.305932,656.589,0.122558,
2,0,0,1,0,6146.07,0.118731,0.118576,-57.6596,5,0.0175447,10,-0.00683705,-1.23913,-0.19589,-0.301189,677.17,0.118576,
2,0,0,1,0,6146.08,0.114736,0.11451,-60.4046,5,0.0173083,10,-0.00691695,-1.21893,-0.202003,-0.292074,687.138,0.11451,
2,0,0,1,0,6146.08,0.110741,0.110577,-63.1629,5,0.0170609,10,-0.00698438,-1.19954,-0.210391,-0.280431,689.893,0.110577,
2,0,0,1,0,6146.09,0.106745,0.106589,-65.9346,5,0.0168024,10,-0.00702791,-1.18089,-0.221264,-0.266649,683.641,0.106589,
2,0,0,1,0,6146.09,0.102703,0.102518,-68.7378,5,0.0165329,10,-0.00704687,-1.1628,-0.232022,-0.254287,679.22,0.102518,
2,0,0,1,0,6146.09,0.0987052,0.0985979,-71.283,5,0.0162525,10,-0.00702835,-1.14701,-0.246174,-0.239668,665.207,0.0985979,
2,0,0,1,0,6146.1,0.09471,0.0946107,-74.0077,5,0.0159617,10,-0.00700192,-1.13072,-0.262267,-0.224962,647.7,0.0946107,
2,0,0,1,0,6146.1,0.0907148,0.0906045,-76.5676,5,0.0156603,10,-0.00693737,-1.11595,-0.277251,-0.212803,633.062,0.0906045,
2,0,0,1,0,6146.11,0.0867197,0.0865973,-79.0497,5,0.0153488,10,-0.00684549,-1.1021,-0.302411,-0.195098,599.248,0.0865973,
2,0,0,1,0,6146.11,0.0827245,0.0826282,-81.3929,5,0.0150276,10,-0.00672534,-1.08941,-0.326017,-0.180972,572.47,0.0826282,
2,0,0,1,0,6146.11,0.0787293,0.0786166,-83.5921,5,0.0146974,10,-0.00657173,-1.07783,-0.354178,-0.166583,541.639,0.0786166,
2,0,0,1,0,6146.12,0.0747342,0.0746284,-85.7135,5,0.0143585,10,-0.00639666,-1.06695,-0.389511,-0.151472,504.801,0.07462845,
2,0,0,1,0,6146.12,0.070739,0.0705745,-87.7283,5,0.0140114,10,-0.00619138,-1.05686,-0.429419,-0.137395,468.105,0.0705745,
2,0,0,1,0,6146.13,0.0667438,0.0665227,-89.5229,5,0.0136567,10,-0.00595531,-1.04807,-0.484957,-0.12166,422.94,0.0665227,
2,0,0,1,0,6146.13,0.0627403,0.0625483,-91.1138,5,0.0132952,10,-0.00569901,-1.04042,-0.570408,-0.103435,365.895,0.0625483,
2,0,0,1,0,6146.13,0.0587035,0.0585177,-92.5273,5,0.0129276,10,-0.00541449,-1.03373,-0.687839,-0.0857759,307.878,0.0585177,
2,0,0,1,0,6146.14,0.0547083,0.0544775,-93.6181,5,0.0125551,10,-0.00510008,-1.02864,-0.874206,-0.0674898,245.138,0.05447755,
2,0,0,1,0,6146.14,0.0507132,0.0504777,-94.4628,5,0.0121788,10,-0.00476826,-1.02474,-1.21341,-0.0486233,178.281,0.0504777,
2,0,0,1,0,6146.15,0.046718,0.0464778,-95.0533,5,0.0117996,10,-0.00441787,-1.02203,-1.87484,-0.0314693,116.113,0.0464778,
2,0,0,1,0,6146.15,0.0427228,0.0424759,-95.3873,5,0.0114187,10,-0.00405166,-1.02051,-4.1229,-0.0143103,52.9931,0.0424759,
2,0,0,1,0,6146.15,0.0387276,0.0384951,-95.4739,5,0.0110369,10,-0.00367528,-1.02012,32.0853,0.00183885,-6.81754,0.0384951,
2,0,0,1,0,6146.16,0.0347325,0.0344507,-95.3121,5,0.0106552,10,-0.00328357,-1.02085,3.68452,0.0160129,-59.3143,0.0344507,
2,0,0,1,0,6146.16,0.0307373,0.0304731,-94.9442,5,0.0102747,10,-0.00289325,-1.02253,2.07069,0.0284929,-105.225,0.0304731,
2,0,0,1,0,6146.17,0.0267421,0.0265008,-94.4397,5,0.00989595,10,-0.00250273,-1.02485,1.57067,0.0375636,-138.101,0.02650084,
2,0,0,1,0,6146.17,0.022747,0.0224692,-93.7875,5,0.00951952,10,-0.00210733,-1.02785,1.29086,0.0457059,-166.952,0.0224692,
2,0,0,1,0,6146.17,0.0187018,0.0184598,-93.1038,5,0.00914577,10,-0.00171867,-1.03103,1.1059,0.0533502,-193.383,0.0184598,
2,0,0,1,0,6146.18,0.0147067,0.0143931,-92.2596,5,0.00877513,10,-0.0013279,-1.03499,0.998904,0.0590648,-212.252,0.01439312,
2,0,0,1,0,6146.18,0.0107115,0.0104516,-91.3361,5,0.00840802,10,-0.000954607,-1.03936,0.901901,0.0654174,-232.903,0.0104516,
2,0,0,1,0,6146.19,0.00671632,0.00646552,-90.3907,5,0.00804463,10,-0.000584423,-1.04388,0.840984,0.0701559,-247.16,0.00646552,
2,0,0,1,0,6146.19,0.00272115,0.00244234,-89.3733,5,0.00768522,10,-0.00021828,-1.04879,0.779671,0.075673,-263.437,0.00244234,
2,0,0,1,0,6146.19,-0.00127403,-0.00157979,-88.3117,5,0.00732984,10,0.000139514,-1.05398,0.702745,0.0839565,-288.519,-0.001579785,
2,0,0,1,0,6146.2,-0.0052692,-0.0056263,-87.1006,5,0.00697913,10,0.000490054,-1.05998,0.638038,0.0924709,-313.371,-0.005626298,
2,0,0,1,0,6146.2,-0.00926438,-0.00958056,-85.7611,5,0.00663352,10,0.000821639,-1.06671,0.571432,0.103249,-344.605,-0.00958056,
2,0,0,1,0,6146.21,-0.0132596,-0.013608,-84.3435,5,0.00629342,10,0.00114775,-1.07395,0.524001,0.112595,-369.591,-0.013608,
2,0,0,1,0,6146.21,-0.0172547,-0.0176068,-82.7887,5,0.00595929,10,0.00145764,-1.08203,0.483314,0.122074,-393.351,-0.0176068,
2,0,0,1,0,6146.21,-0.0212915,-0.0216321,-81.185,5,0.00563153,10,0.0017562,-1.09052,0.447624,0.131807,-416.468,-0.0216321,
2,0,0,1,0,6146.22,-0.025295,-0.0256288,-79.4485,5,0.00531041,10,0.00203617,-1.09991,0.425937,0.138518,-428.702,-0.0256288,
2,0,0,1,0,6146.22,-0.0292902,-0.0296286,-77.6715,5,0.00499635,10,0.0023013,-1.10974,0.411552,0.14336,-434.487,-0.0296286,
2,0,0,1,0,6146.23,-0.0332854,-0.0336412,-75.9148,5,0.00468935,10,0.00255386,-1.11967,0.410428,0.143753,-426.297,-0.0336412,
2,0,0,1,0,6146.23,-0.0372805,-0.0376283,-74.2348,5,0.00438925,10,0.00279333,-1.12939,0.420312,0.140372,-407.406,-0.0376283,
2,0,0,1,0,6146.23,-0.0412757,-0.0416345,-72.6253,5,0.00409572,10,0.00302372,-1.13891,0.441507,0.133633,-379.89,-0.0416345,
2,0,0,1,0,6146.24,-0.0452709,-0.0456143,-71.1588,5,0.00380834,10,0.00324586,-1.14777,0.472082,0.124978,-348.369,-0.04561425,
2,0,0,1,0,6146.24,-0.0492661,-0.0495993,-69.8524,5,0.0035265,10,0.00346463,-1.15582,0.52268,0.11288,-308.962,-0.0495993,
2,0,0,1,0,6146.25,-0.0532612,-0.053562,-68.684,5,0.00324957,10,0.00367885,-1.16314,0.587494,0.100427,-270.333,-0.053562,
2,0,0,1,0,6146.25,-0.0572564,-0.0575788,-67.6992,5,0.00297695,10,0.00389804,-1.16942,0.686139,0.0859884,-228.208,-0.0575788,
2,0,0,1,0,6146.25,-0.0612544,-0.0616094,-66.8348,5,0.00270802,10,0.00411765,-1.175,0.79854,0.0738849,-193.541,-0.0616094,
2,0,0,1,0,6146.26,-0.0652967,-0.0656655,-66.186,5,0.00244199,10,0.00434614,-1.17923,0.938976,0.0628344,-162.801,-0.0656655,
2,0,0,1,0,6146.26,-0.0692919,-0.0695975,-65.5805,5,0.00217857,10,0.00456424,-1.18323,1.14948,0.0513274,-131.759,-0.0695975,
2,0,0,1,0,6146.27,-0.0732871,-0.0735687,-65.096,5,0.00191729,10,0.00478903,-1.18645,1.37699,0.042847,-109.216,-0.0735687,
2,0,0,1,0,6146.27,-0.0772822,-0.0775961,-64.7284,5,0.00165769,10,0.00502267,-1.18891,1.78765,0.0330043,-83.6071,-0.0775961,
2,0,0,1,0,6146.27,-0.0812774,-0.0815727,-64.4487,5,0.0013994,10,0.00525725,-1.19079,2.52834,0.0233355,-58.8531,-0.0815727,
2,0,0,1,0,6146.28,-0.0852726,-0.0855895,-64.2435,5,0.00114204,10,0.00549856,-1.19217,3.88484,0.0151873,-38.1839,-0.0855895,
2,0,0,1,0,6146.28,-0.0892678,-0.0895957,-64.1527,5,0.000885277,10,0.00574781,-1.19278,7.69303,0.00766928,-19.2438,-0.0895957,
2,0,0,1,0,6146.29,-0.0932629,-0.0935934,-64.1176,5,0.000628763,10,0.00600098,-1.19302,72.791,0.00081054,-2.03169,-0.0935934,
2,0,0,1,0,6146.29,-0.0972581,-0.097588,-64.1405,5,0.000372262,10,0.00625934,-1.19287,-9.04135,-0.00652558,16.3713,-0.097588,
2,0,0,1,0,6146.29,-0.101253,-0.101538,-64.2111,5,0.000115573,10,0.00651986,-1.19239,-5.08198,-0.0116096,29.1563,-0.101538,
2,0,0,1,0,6146.3,-0.105298,-0.105615,-64.415,5,-0.000141661,10,0.00680321,-1.19101,-3.54914,-0.0166237,41.8294,-0.105615,
2,0,0,1,0,6146.3,-0.109294,-0.109575,-64.5835,5,-0.00039967,10,0.00707673,-1.18988,-2.81897,-0.0209296,52.7938,-0.109575,
2,0,0,1,0,6146.31,-0.113289,-0.113596,-64.8101,5,-0.000658452,10,0.00736216,-1.18836,-2.5593,-0.0230532,58.3718,-0.113596,
2,0,0,1,0,6146.31,-0.117284,-0.117577,-65.0578,5,-0.0009182,10,0.00764928,-1.1867,-2.22265,-0.0265449,67.4638,-0.117577,
2,0,0,1,0,6146.31,-0.121279,-0.121573,-65.3465,5,-0.00117903,10,0.00794439,-1.18478,-1.98125,-0.0297792,76.0246,-0.121573,
2,0,0,1,0,6146.32,-0.125274,-0.125575,-65.663,5,-0.00144106,10,0.00824565,-1.18268,-1.78055,-0.0331358,85.007,-0.125575,
2,0,0,1,0,6146.32,-0.129269,-0.129557,-66.0235,5,-0.00170447,10,0.00855382,-1.1803,-1.64015,-0.0359723,92.7766,-0.129557,
2,0,0,1,0,6146.33,-0.133265,-0.133556,-66.4161,5,-0.00196938,10,0.00887027,-1.17773,-1.52378,-0.0387195,100.431,-0.133556,
2,0,0,1,0,6146.33,-0.13726,-0.137565,-66.8302,5,-0.0022359,10,0.00919352,-1.17503,-1.4085,-0.0418885,109.36,-0.1375653,
2,0,0,1,0,6146.33,-0.141255,-0.141554,-67.2677,5,-0.00250416,10,0.00952198,-1.17219,-1.33871,-0.0440723,115.823,-0.141554,
2,0,0,1,0,6146.34,-0.145286,-0.145585,-67.7764,5,-0.00277422,10,0.00986723,-1.16892,-1.28169,-0.0460329,121.808,-0.145585,
2,0,0,1,0,6146.34,-0.149295,-0.149561,-68.2699,5,-0.0030464,10,0.0102105,-1.16577,-1.24239,-0.0474891,126.538,-0.149561,
2,0,0,1,0,6146.35,-0.15329,-0.1536,-68.7833,5,-0.00332056,10,0.0105651,-1.16252,-1.24118,-0.0475356,127.618,-0.1536,
2,0,0,1,0,6146.35,-0.157286,-0.15756,-69.2932,5,-0.00359675,10,0.0109179,-1.15931,-1.21009,-0.0487567,131.9,-0.15756,
2,0,0,1,0,6146.35,-0.161281,-0.161562,-69.8153,5,-0.00387504,10,0.0112795,-1.15605,-1.19053,-0.0495579,135.102,-0.161562,
2,0,0,1,0,6146.36,-0.165276,-0.165537,-70.3771,5,-0.00415547,10,0.01165,-1.15257,-1.15572,-0.0510503,140.27,-0.165537,
2,0,0,1,0,6146.36,-0.169271,-0.169519,-70.934,5,-0.00443815,10,0.0120246,-1.14915,-1.12386,-0.0524977,145.4,-0.169519,
2,0,0,1,0,6146.37,-0.173266,-0.173499,-71.5289,5,-0.00472314,10,0.0124102,-1.14552,-1.11419,-0.052953,147.87,-0.173499,
2,0,0,1,0,6146.37,-0.177261,-0.177496,-72.1321,5,-0.0050105,10,0.0128032,-1.14187,-1.08415,-0.0544203,153.247,-0.177496,
2,0,0,1,0,6146.37,-0.181257,-0.181526,-72.7414,5,-0.00530032,10,0.0132044,-1.13822,-1.03607,-0.056946,161.835,-0.181526,
2,0,0,1,0,6146.38,-0.185252,-0.185543,-73.3897,5,-0.00559264,10,0.013617,-1.13436,-1.00854,-0.0585006,167.74,-0.185543,
2,0,0,1,0,6146.38,-0.189297,-0.189541,-74.1251,5,-0.0058878,10,0.0140497,-1.13003,-0.974876,-0.0605205,175.107,-0.189541,
2,0,0,1,0,6146.39,-0.193292,-0.19355,-74.8249,5,-0.00618578,10,0.0144823,-1.12595,-0.950324,-0.0620841,180.999,-0.19355,
2,0,0,1,0,6146.39,-0.197287,-0.197574,-75.5515,5,-0.00648659,10,0.014927,-1.12176,-1.19098,-0.0495391,144.849,-0.197574,
2,0,0,1,0,6146.39,-0.199984,-0.200131,-76.0302,5,-0.00669122,10,0.015216,-1.11901,0.06761,0.872652,-2396.37,-0.2001314,
2,0,0,1,1,6146.39,-0.199984,-0.20057,-75.7226,5,-0.00673669,10,0.0151877,-1.12077,-0.0338568,-1.74263,4444.57,-0.2005704,
2,0,0,1,1,6146.4,-0.196688,-0.197197,-66.0835,5,-0.00695322,10,0.0130315,-1.17991,-0.0534439,-1.10396,2609.14,-0.1971973,
2,0,0,1,1,6146.4,-0.192693,-0.193201,-56.1149,5,-0.00719622,10,0.0108414,-1.25092,-0.0544678,-1.08321,2349.69,-0.193201,
2,0,0,1,1,6146.4,-0.188698,-0.189137,-47.3446,5,-0.00740201,10,0.00895462,-1.32473,-0.0515184,-1.14522,2106.38,-0.189137,
2,0,0,1,1,6146.41,-0.184653,-0.185101,-39.375,5,-0.00757449,10,0.00728835,-1.40478,-0.0471784,-1.25057,1897.8,-0.185101,
2,0,0,1,1,6146.41,-0.180657,-0.181111,-32.1994,5,-0.00771676,10,0.00583166,-1.49215,-0.0416845,-1.41539,1735.16,-0.181111,
2,0,0,1,1,6146.42,-0.176662,-0.177124,-25.6042,5,-0.00783157,10,0.00453511,-1.59169,-0.0355817,-1.65816,1584.19,-0.1771238,
2,0,0,1,1,6146.42,-0.172667,-0.173108,-19.5315,5,-0.0079211,10,0.00338107,-1.70926,-0.0281819,-2.09354,1467.3,-0.173108,
2,0,0,1,1,6146.42,-0.168672,-0.169033,-13.9197,5,-0.00798733,10,0.00235289,-1.85637,-0.0193823,-3.04401,1361.13,-0.169033,
2,0,0,1,1,6146.43,-0.164677,-0.165097,-8.70165,5,-0.00803195,10,0.00143661,-2.0604,-0.011086,-5.32205,1268.23,-0.165097,
2,0,0,1,1,6146.43,-0.160682,-0.161124,-3.82689,5,-0.00805641,10,0.000616606,-2.41715,-0.035222,-1.67509,1189.22,-0.161124,
2,0,0,1,1,6146.44,-0.156686,-0.157148,0.709674,5,-0.00806212,10,-0.000111524,-3.14894,1.37227,0.0429946,1109.07,-0.157148,
2,1,0,1,1,6146.44,-0.152691,-0.153177,4.93685,5,-0.00805034,10,-0.00075621,-2.30655,0.0306869,1.92264,1033.82,-0.153177,
2,1,0,1,1,6146.44,-0.148696,-0.149193,8.93699,5,-0.00802211,10,-0.00133333,-2.04881,0.0117408,5.02522,971.256,-0.149193,
2,1,0,1,1,6146.45,-0.14467,-0.145143,12.6951,5,-0.00797847,10,-0.0018426,-1.89636,0.0267991,2.20157,912.909,-0.145143,
2,1,0,1,1,6146.45,-0.140656,-0.141198,16.2008,5,-0.00792024,10,-0.00228752,-1.79046,0.0396805,1.48687,857.003,-0.141198,
2,1,0,1,1,6146.46,-0.136661,-0.137146,19.5709,5,-0.0078483,10,-0.00268409,-1.70839,0.0524157,1.12562,809.123,-0.137146,
2,1,0,1,1,6146.46,-0.132665,-0.13312,22.7113,5,-0.00776337,10,-0.00302332,-1.64376,0.0660067,0.893849,758.548,-0.13312,
2,1,0,1,1,6146.46,-0.12867,-0.129134,25.6483,5,-0.00766629,10,-0.00331207,-1.59094,0.0802704,0.735016,712.993,-0.129134,
2,1,0,1,1,6146.47,-0.124675,-0.125078,28.4288,5,-0.00755784,10,-0.00355582,-1.54624,0.0956504,0.616829,667.545,-0.125078,
2,1,0,1,1,6146.47,-0.12068,-0.121095,31.0155,5,-0.00743866,10,-0.00375582,-1.50842,0.111707,0.528169,626.55,-0.121095,
2,1,0,1,1,6146.48,-0.116685,-0.11705,33.439,5,-0.00730946,10,-0.00391402,-1.47575,0.129624,0.455161,584.287,-0.11705,
2,1,0,1,1,6146.48,-0.112689,-0.113096,35.6967,5,-0.00717094,10,-0.00403716,-1.44737,0.148466,0.397398,546.142,-0.113096,
2,1,0,1,1,6146.48,-0.108694,-0.109038,37.8006,5,-0.00702368,10,-0.00412171,-1.4225,0.167079,0.353127,515.64,-0.109038,
2,1,0,1,1,6146.49,-0.104699,-0.105055,39.7755,5,-0.00686829,10,-0.00417862,-1.40038,0.188752,0.31258,481.112,-0.105055,
2,1,0,1,1,6146.49,-0.100654,-0.101037,41.6955,5,-0.00670506,10,-0.00421281,-1.37991,0.210252,0.280615,452.522,-0.101037,
2,1,0,1,1,6146.5,-0.0966588,-0.0970154,43.4335,5,-0.00653458,10,-0.00421371,-1.36218,0.235232,0.250816,421.509,-0.0970154,
2,1,0,1,1,6146.5,-0.0926637,-0.0930134,45.0522,5,-0.00635743,10,-0.00419046,-1.34628,0.264479,0.22308,389.511,-0.0930134,
2,1,0,1,1,6146.5,-0.0886685,-0.0890464,46.5234,5,-0.00617411,10,-0.00414274,-1.33233,0.293737,0.20086,362.709,-0.0890464,
2,1,0,1,1,6146.51,-0.0846733,-0.0850338,47.9291,5,-0.00598504,10,-0.0040756,-1.3194,0.325245,0.181402,337.677,-0.0850338,
2,1,0,1,1,6146.51,-0.0806781,-0.0810403,49.2277,5,-0.00579059,10,-0.00398943,-1.30779,0.357495,0.165037,315.638,-0.0810403,
2,1,0,1,1,6146.52,-0.076683,-0.0770447,50.4445,5,-0.00559108,10,-0.00388648,-1.29719,0.395409,0.149213,292.503,-0.0770447,
2,1,0,1,1,6146.52,-0.0726878,-0.0730449,51.5741,5,-0.00538691,10,-0.00376722,-1.28757,0.434711,0.135722,272.087,-0.0730449,
2,1,0,1,1,6146.52,-0.0686926,-0.0690556,52.6028,5,-0.00517843,10,-0.00363252,-1.27899,0.470986,0.125269,256.538,-0.0690556,
2,1,0,1,1,6146.53,-0.0646974,-0.0650833,53.5694,5,-0.00496597,10,-0.00348648,-1.27108,0.519126,0.113653,237.071,-0.0650833,
2,1,0,1,1,6146.53,-0.0606523,-0.0610124,54.5574,5,-0.00474967,10,-0.00332868,-1.26315,0.56586,0.104266,221.177,-0.0610124,
2,1,0,1,1,6146.54,-0.0566571,-0.0570423,55.3678,5,-0.00452971,10,-0.0031583,-1.25674,0.626562,0.0941647,202.787,-0.0570423,
2,1,0,1,1,6146.54,-0.052662,-0.0530445,56.1441,5,-0.00430658,10,-0.00297814,-1.2507,0.709003,0.0832154,181.862,-0.0530445,
2,1,0,1,1,6146.54,-0.0486668,-0.0490341,56.824,5,-0.00408058,10,-0.00278631,-1.24547,0.777222,0.0759114,167.987,-0.0490341,
2,1,0,1,1,6146.55,-0.0446716,-0.0450278,57.4644,5,-0.0038519,10,-0.0025875,-1.2406,0.862592,0.0683985,153.124,-0.0450278,
2,1,0,1,1,6146.55,-0.0406764,-0.0410195,58.0594,5,-0.00362079,10,-0.00238157,-1.23613,0.941651,0.0626559,141.701,-0.0410195,
2,1,0,1,1,6146.56,-0.0366813,-0.037008,58.5997,5,-0.00338741,10,-0.00216866,-1.2321,1.04932,0.0562269,128.33,-0.037008,
2,1,0,1,1,6146.56,-0.0326861,-0.0330474,59.0893,5,-0.00315194,10,-0.00195275,-1.22849,1.1844,0.0498141,114.643,-0.0330474,
2,1,0,1,1,6146.56,-0.0286909,-0.0290804,59.5109,5,-0.00291467,10,-0.0017306,-1.2254,1.31078,0.0450114,104.402,-0.0290804,
2,1,0,1,1,6146.57,-0.0246957,-0.025054,59.8898,5,-0.0026758,10,-0.00150048,-1.22265,1.45746,0.0404814,94.5474,-0.025054,
2,1,0,1,1,6146.57,-0.0206756,-0.0209863,60.2724,5,-0.00243546,10,-0.00126489,-1.21988,1.66809,0.0353698,83.0632,-0.0209863,
2,1,0,1,1,6146.58,-0.0166554,-0.0169875,60.6078,5,-0.00219361,10,-0.00102957,-1.21747,1.9545,0.0301868,71.2281,-0.0169875,
2,1,0,1,1,6146.58,-0.0126603,-0.0130449,60.8428,5,-0.00195066,10,-0.000793689,-1.21579,2.48882,0.023706,56.176,-0.0130449,
2,1,0,1,1,6146.58,-0.0086651,-0.00898143,61.0346,5,-0.00170688,10,-0.000548177,-1.21442,3.29087,0.0179284,42.6393,-0.00898143,
2,1,0,1,1,6146.59,-0.00466992,-0.00502081,61.1692,5,-0.00146246,10,-0.000307119,-1.21347, , , ,-0.00502081,
2,1,0,1,1,6146.59,-0.000974387,-0.00135445,61.2743,5,-0.00123594,10,-8.29929e-05,-1.21272, , , ,-0.00135445,
2,1,0,1,1,6146.59,-0.000175352,-0.000497109,61.2968,5,-0.00118692,10,-3.04712e-05,-1.21256, , , ,-0.000497109,