File: Figure_codes/Fig_3-5/rawdata_trumpetplot_data/before 10th/20221101_1-115_002_TrumpetPlot_ParaChange_15_CV_C01_6.csv
mode,ox/red,error,control changes,counter inc.,time/s,control/V,Ewe/V,<I>/mA,cycle number,(Q-Qo)/C,I Range,P/W,log(|I|),Tafel slope mV/dec,alpha_eff,dI/d(E-IR),E-IR/V,
2,1,0,0,0,8607.5,2.44065e-05,-0.000802507,34.6273,7,0.0000000E+000,10,-2.77886e-05,-1.46058, , , ,-0.000802507,
2,1,0,1,0,8607.5,0.00250197,0.0021327,32.1414,7,0.000102154,10,6.8548e-05,-1.49293, , , ,0.0021327,
2,1,0,1,0,8607.5,0.00570921,0.00540829,31.8465,7,0.000229807,10,0.000172235,-1.49694, , , ,0.005408294,
2,1,0,1,0,8607.51,0.00890534,0.00859269,32.1572,7,0.000357761,10,0.000276317,-1.49272,0.950222,0.0620907,79.1108,0.00859269,
2,1,0,1,0,8607.51,0.0121015,0.0117919,32.6239,7,0.000487352,10,0.0003847,-1.48646,0.524664,0.112453,143.741,0.0117919,
2,1,0,1,0,8607.52,0.0153059,0.0149838,33.1581,7,0.000618968,10,0.000496833,-1.47941,0.481305,0.122583,158.65,0.0149838,
2,1,0,1,0,8607.52,0.0185021,0.0181332,33.6756,7,0.00075268,10,0.000610645,-1.47268,0.489533,0.120523,158.155,0.0181332,
2,1,0,1,0,8607.52,0.0217065,0.0213929,34.188,7,0.000888474,10,0.000731379,-1.46613,0.530034,0.111314,148.125,0.0213929,
2,1,0,1,0,8607.53,0.0249027,0.0245656,34.6442,7,0.00102621,10,0.000851055,-1.46037,0.56906,0.10368,139.856,0.0245656,
2,1,0,1,0,8607.53,0.0280988,0.0277786,35.0533,7,0.00116567,10,0.000973734,-1.45527,0.621013,0.095006,129.809,0.0277786,
2,1,0,1,0,8607.54,0.0313061,0.0309492,35.468,7,0.00130681,10,0.00109771,-1.45016,0.664908,0.0887341,122.677,0.0309492,
2,1,0,1,0,8607.54,0.0345022,0.034157,35.8449,7,0.00144947,10,0.00122435,-1.44557,0.696666,0.084689,118.343,0.034157,
2,1,0,1,0,8607.54,0.0377094,0.037388,36.2172,7,0.00159364,10,0.00135409,-1.44109,0.752202,0.0784364,110.728,0.037388,
2,1,0,1,0,8607.55,0.0409056,0.040583,36.5687,7,0.00173924,10,0.00148407,-1.43689,0.779975,0.0756434,107.848,0.040583,
2,1,0,1,0,8607.55,0.0441017,0.0437547,36.8859,7,0.0018862,10,0.00161393,-1.43314,0.803131,0.0734625,105.762,0.0437547,
2,1,0,1,0,8607.56,0.0473089,0.0469879,37.2287,7,0.00203445,10,0.0017493,-1.42912,0.806718,0.0731359,106.306,0.0469879,
2,1,0,1,0,8607.56,0.0505051,0.0501744,37.5695,7,0.00218408,10,0.00188503,-1.42516,0.778855,0.0757522,111.141,0.0501744,
2,1,0,1,0,8607.56,0.0537012,0.0533758,37.9286,7,0.00233509,10,0.00202447,-1.42103,0.767858,0.0768371,113.805,0.0533758,
2,1,0,1,0,8607.57,0.0569057,0.056574,38.3107,7,0.00248762,10,0.00216739,-1.41668,0.740398,0.0796869,119.201,0.056574,
2,1,0,1,0,8607.57,0.0601018,0.05977,38.6834,7,0.00264162,10,0.00231211,-1.41248,0.708996,0.0832163,125.769,0.05977,
2,1,0,1,0,8607.58,0.0633063,0.0630064,39.0991,7,0.00279721,10,0.00246349,-1.40783,0.677231,0.0871195,133.122,0.0630064,
2,1,0,1,0,8607.58,0.0665024,0.066142,39.5342,7,0.0029545,10,0.00261487,-1.40303,0.628758,0.0938358,145.038,0.066142,
2,1,0,1,0,8607.58,0.0696986,0.0693307,40.0089,7,0.00311365,10,0.00277384,-1.39784,0.59601,0.0989917,154.82,0.0693307,
2,1,0,1,0,8607.59,0.0729058,0.0725787,40.5411,7,0.00327481,10,0.00294242,-1.3921,0.562689,0.104854,166.092,0.0725787,
2,1,0,1,0,8607.59,0.0761019,0.0757069,41.0654,7,0.00343809,10,0.00310893,-1.38652,0.536529,0.109966,176.513,0.0757069,
2,1,0,1,0,8607.6,0.0793092,0.0789475,41.6611,7,0.00360355,10,0.00328904,-1.38027,0.507053,0.116359,189.523,0.0789475,
2,1,0,1,0,8607.6,0.0825053,0.0821457,42.2709,7,0.00377147,10,0.00347237,-1.37396,0.480884,0.122691,202.79,0.0821457,
2,1,0,1,0,8607.6,0.0857014,0.0853004,42.9522,7,0.00394197,10,0.00366383,-1.36702,0.466242,0.126544,212.398,0.0853004,
2,1,0,1,0,8607.61,0.0889087,0.088524,43.6645,7,0.00411528,10,0.00386536,-1.35987,0.44807,0.131676,224.53,0.088524,
2,1,0,1,0,8607.61,0.0921048,0.0917636,44.3832,7,0.00429145,10,0.00407276,-1.35278,0.442169,0.133433,231.329,0.0917636,
2,1,0,1,0,8607.62,0.0953065,0.0949458,45.1449,7,0.00447057,10,0.00428632,-1.34539,0.436405,0.135196,238.295,0.0949458,
2,1,0,1,0,8607.62,0.0985054,0.0981557,45.926,7,0.00465279,10,0.00450789,-1.33794,0.429354,0.137416,246.336,0.0981557,
2,1,0,1,0,8607.62,0.101702,0.101249,46.6968,7,0.00483813,10,0.004728,-1.33071,0.418713,0.140908,257.153,0.1012489,
2,1,0,1,0,8607.63,0.104906,0.104493,47.5188,7,0.0050266,10,0.00496537,-1.32313,0.409705,0.144006,267.588,0.104493,
2,1,0,1,0,8607.63,0.108102,0.10767,48.4169,7,0.00521858,10,0.00521303,-1.315,0.404382,0.145902,275.902,0.10767,
2,1,0,1,0,8607.64,0.111304,0.110916,49.3403,7,0.00541416,10,0.00547261,-1.3068,0.398477,0.148064,285.052,0.110916,
2,1,0,1,0,8607.64,0.114506,0.114146,50.255,7,0.00561348,10,0.00573639,-1.29882,0.402441,0.146605,287.51,0.114146,
2,1,0,1,0,8607.64,0.117702,0.11736,51.1866,7,0.00581647,10,0.00600724,-1.29084,0.405417,0.145529,290.652,0.11736,
2,1,0,1,0,8607.65,0.120909,0.120583,52.1297,7,0.00602319,10,0.00628597,-1.28292,0.409254,0.144165,293.16,0.120583,
2,1,0,1,0,8607.65,0.124105,0.123697,53.0552,7,0.00623365,10,0.00656275,-1.27527,0.410257,0.143812,297.867,0.123697,
2,1,0,1,0,8607.66,0.127301,0.126921,54.0004,7,0.00644787,10,0.0068538,-1.2676,0.410755,0.143638,302.958,0.126921,
2,1,0,1,0,8607.66,0.130508,0.13017,55.0025,7,0.00666596,10,0.0071597,-1.25962,0.407156,0.144908,311.181,0.13017,
2,1,0,1,0,8607.66,0.133705,0.133375,56.005,7,0.00688808,10,0.00746967,-1.25177,0.405756,0.145407,317.904,0.133375,
2,1,0,1,0,8607.67,0.136906,0.136511,57.0427,7,0.00711423,10,0.00778693,-1.2438,0.401847,0.146822,326.979,0.136511,
2,1,0,1,0,8607.67,0.140105,0.139786,58.0902,7,0.00734461,10,0.0081202,-1.2359,0.397512,0.148423,336.746,0.139786,
2,1,0,1,0,8607.68,0.143301,0.142938,59.1771,7,0.00757922,10,0.00845864,-1.22785,0.393466,0.149949,346.653,0.142938,
2,1,0,1,0,8607.68,0.146506,0.146183,60.3179,7,0.00781832,10,0.00881743,-1.21955,0.385466,0.153061,360.544,0.146183,
2,1,0,1,0,8607.68,0.149702,0.149326,61.485,7,0.00806201,10,0.00918129,-1.21123,0.384274,0.153536,368.618,0.149326,
2,1,0,1,0,8607.69,0.152904,0.152523,62.6822,7,0.00831046,10,0.00956047,-1.20286,0.380067,0.155236,379.942,0.152523,
2,1,0,1,0,8607.69,0.156105,0.155804,63.9197,7,0.0085638,10,0.00995892,-1.19437,0.380111,0.155218,387.356,0.155804,
2,1,0,1,0,8607.7,0.159301,0.158958,65.172,7,0.00882212,10,0.0103596,-1.18594,0.379681,0.155394,395.34,0.158958,
2,1,0,1,0,8607.7,0.162509,0.162194,66.4695,7,0.0090855,10,0.0107809,-1.17738,0.38013,0.15521,402.544,0.162194,
2,1,0,1,0,8607.7,0.165705,0.165371,67.7615,7,0.0093541,10,0.0112058,-1.16902,0.384666,0.15338,405.452,0.1653706,
2,1,0,1,0,8607.71,0.168901,0.168566,69.057,7,0.00962786,10,0.0116406,-1.16079,0.391161,0.150833,406.338,0.1685656,
2,1,0,1,0,8607.71,0.172108,0.171761,70.3627,7,0.00990686,10,0.0120855,-1.15266,0.40132,0.147015,403.396,0.171761,
2,1,0,1,0,8607.72,0.175304,0.174948,71.6522,7,0.010191,10,0.0125354,-1.14477,0.412541,0.143016,399.546,0.1749482,
2,1,0,1,0,8607.72,0.178506,0.178154,72.9182,7,0.0104803,10,0.0129907,-1.13716,0.428936,0.13755,390.96,0.1781538,
2,1,0,1,0,8607.72,0.181705,0.181369,74.1725,7,0.0107746,10,0.0134526,-1.12976,0.450892,0.130852,378.127,0.181369,
2,1,0,1,0,8607.73,0.184901,0.184527,75.3538,7,0.0110738,10,0.0139048,-1.1229,0.479604,0.123018,361.052,0.184527,
2,1,0,1,0,8607.73,0.188106,0.187742,76.4899,7,0.0113776,10,0.0143604,-1.1164,0.519993,0.113463,337.955,0.187742,
2,1,0,1,0,8607.74,0.191302,0.190943,77.5359,7,0.0116858,10,0.014805,-1.1105,0.573527,0.102872,310.487,0.190943,
2,1,0,1,0,8607.74,0.194503,0.194202,78.5095,7,0.011998,10,0.0152467,-1.10508,0.651313,0.0905862,276.632,0.194202,
2,1,0,1,0,8607.74,0.197705,0.197407,79.3527,7,0.0123138,10,0.0156648,-1.10044,0.786008,0.0750629,231.468,0.197407,
2,1,0,1,0,8607.75,0.200901,0.200555,80.0344,7,0.0126327,10,0.0160513,-1.09672,1.03733,0.056877,176.772,0.200555,
2,1,0,1,0,8607.75,0.204108,0.203791,80.5098,7,0.0129539,10,0.0164072,-1.09415,1.70564,0.0345912,108.056,0.203791,
2,1,0,1,0,8607.76,0.207305,0.207017,80.7748,7,0.0132766,10,0.0167218,-1.09272,6.45621,0.00913849,28.6093,0.207017,
2,1,0,1,0,8607.76,0.210501,0.210213,80.7366,7,0.0135997,10,0.0169719,-1.09293,-2.85928,-0.0206346,-64.5023,0.210213,
2,1,0,1,0,8607.76,0.213708,0.213368,80.4009,7,0.013922,10,0.017155,-1.09474,-1.07956,-0.054652,-169.948,0.213368,
2,1,0,1,0,8607.77,0.216904,0.216572,79.6854,7,0.0142422,10,0.0172577,-1.09862,-0.639978,-0.0921907,-283.902,0.216572,
2,1,0,1,0,8607.77,0.220106,0.219852,78.5935,7,0.0145588,10,0.017279,-1.10461,-0.446924,-0.132013,-400.78,0.219852,
2,1,0,1,0,8607.78,0.223305,0.223002,77.1059,7,0.0148701,10,0.0171947,-1.11291,-0.338973,-0.174055,-518.283,0.223002,
2,1,0,1,0,8607.78,0.226501,0.226254,75.2365,7,0.0151747,10,0.0170225,-1.12357,-0.27032,-0.21826,-634.219,0.226254,
2,1,0,1,0,8607.78,0.229705,0.229454,73.009,7,0.0154711,10,0.0167522,-1.13662,-0.225683,-0.261428,-737.341,0.229454,
2,1,0,1,0,8607.79,0.232901,0.232666,70.4667,7,0.0157579,10,0.0163952,-1.15202,-0.194153,-0.303884,-827.871,0.232666,
2,1,0,1,0,8607.79,0.236103,0.235841,67.6388,7,0.0160339,10,0.015952,-1.1698,-0.172379,-0.342269,-896.425,0.235841,
2,1,0,1,0,8607.8,0.239305,0.23905,64.6431,7,0.0162982,10,0.0154529,-1.18948,-0.157754,-0.374,-938.047,0.23905,
2,1,0,1,0,8607.8,0.242501,0.242252,61.5365,7,0.0165503,10,0.0149073,-1.21087,-0.147018,-0.401311,-959.999,0.2422522,
2,1,0,1,0,8607.8,0.245708,0.245484,58.4426,7,0.0167899,10,0.0143468,-1.23327,-0.140275,-0.420602,-956.991,0.245484,
2,1,0,1,0,8607.81,0.248904,0.248631,55.3609,7,0.0170172,10,0.0137644,-1.2568,-0.136663,-0.43172,-932.693,0.248631,
2,1,0,1,0,8607.81,0.2521,0.251856,52.3873,7,0.0172324,10,0.0131941,-1.28077,-0.135109,-0.436686,-895.067,0.2518563,
2,1,0,1,0,8607.82,0.255308,0.255044,49.6058,7,0.017436,10,0.0126516,-1.30447,-0.137353,-0.42955,-835.223,0.255044,
2,1,0,1,0,8607.82,0.258504,0.258256,47.0112,7,0.0176289,10,0.0121409,-1.3278,-0.141631,-0.416576,-768.878,0.258256,
2,1,0,1,0,8607.82,0.261708,0.261435,44.6664,7,0.017812,10,0.0116773,-1.35002,-0.147408,-0.400249,-702.399,0.261435,
2,1,0,1,0,8607.83,0.264904,0.264663,42.5407,7,0.0179861,10,0.0112589,-1.3712,-0.155774,-0.378753,-633.52,0.264663,
2,1,0,1,0,8607.83,0.268101,0.267828,40.6261,7,0.0181522,10,0.0108808,-1.39119,-0.167901,-0.351398,-561.825,0.267828,
2,1,0,1,0,8607.84,0.271305,0.270967,38.9585,7,0.0183111,10,0.0105565,-1.4094,-0.182114,-0.323973,-496.773,0.270967,
2,1,0,1,0,8607.84,0.274501,0.274229,37.4785,7,0.0184638,10,0.0102777,-1.42622,-0.200401,-0.29441,-434.072,0.274229,
2,1,0,1,0,8607.84,0.277708,0.277407,36.2098,7,0.018611,10,0.0100449,-1.44117,-0.221573,-0.266278,-378.959,0.277407,
2,1,0,1,0,8607.85,0.280905,0.280635,35.0672,7,0.0187534,10,0.00984106,-1.4551,-0.244395,-0.241413,-332.659,0.280635,
2,1,0,1,0,8607.85,0.284101,0.283833,34.0829,7,0.0188916,10,0.00967384,-1.46746,-0.270023,-0.2185,-292.558,0.283833,
2,1,0,1,0,8607.86,0.287308,0.28702,33.2232,7,0.0190261,10,0.00953575,-1.47856,-0.301731,-0.195538,-254.988,0.28702,
2,1,0,1,0,8607.86,0.290504,0.290175,32.4743,7,0.0191574,10,0.00942325,-1.48846,-0.340848,-0.173098,-220.584,0.290175,
2,1,0,1,0,8607.86,0.2937,0.293397,31.813,7,0.0192859,10,0.00933383,-1.4974,-0.37586,-0.156973,-196.057,0.293397,
2,1,0,1,0,8607.87,0.296907,0.296616,31.2631,7,0.0194119,10,0.00927314,-1.50497,-0.394388,-0.149599,-184.448,0.296616,
2,1,0,1,0,8607.87,0.29955,0.299312,30.8133,7,0.0195144,10,0.00922281,-1.51126,-0.0908807,-0.649203,-752.412,0.2993122,
2,1,0,1,0,8607.87,0.300012,0.299651,30.7265,7,0.0195328,10,0.00920724,-1.51249,0.00449366,13.1296,12669.9,0.299651,
2,1,0,1,0,8607.87,0.298983,0.298894,27.6769,7,0.0195696,10,0.00827244,-1.55788,0.0177125,3.33097,2648.54,0.298894,
2,1,0,1,0,8607.88,0.295787,0.295662,19.1711,7,0.0196618,10,0.00566815,-1.71735,0.0168697,3.4974,2235.06,0.295662,
2,1,0,1,0,8607.88,0.292579,0.292439,12.6097,7,0.0197243,10,0.00368756,-1.8993,0.0137252,4.29865,1896.18,0.2924391,
2,1,0,1,0,8607.89,0.289383,0.289209,7.38818,7,0.0197635,10,0.00213673,-2.13146,0.00705099,8.36761,1516.76,0.2892091,
2,1,0,1,0,8607.89,0.286187,0.285966,3.16405,7,0.0197839,10,0.000904812,-2.49976,0.0212883,2.77148,1216.12,0.2859664,
2,1,0,1,0,8607.89,0.282983,0.282831,-0.290345,7,0.0197891,10,-8.21185e-05,-3.53709,0.0974565,0.605398,997.875,0.282831,
2,0,0,1,0,8607.9,0.279786,0.27951,-3.11422,7,0.0197819,10,-0.000870454,-2.50665,-0.0348664,-1.69217,821.963,0.27951,
2,0,0,1,0,8607.9,0.276582,0.276342,-5.45143,7,0.0197644,10,-0.00150646,-2.26349,-0.00866418,-6.80965,675.607,0.276342,
2,0,0,1,0,8607.91,0.273386,0.273133,-7.38426,7,0.0197384,10,-0.00201689,-2.13169,-0.0243776,-2.42026,571.158,0.273133,
2,0,0,1,0,8607.91,0.27019,0.269898,-9.0278,7,0.0197054,10,-0.00243658,-2.04442,-0.0391285,-1.50785,478.969,0.269898,
2,0,0,1,0,8607.91,0.266982,0.26673,-10.4136,7,0.0196663,10,-0.00277762,-1.9824,-0.0551802,-1.06922,407.361,0.26673,
2,0,0,1,0,8607.92,0.263786,0.263522,-11.592,7,0.0196221,10,-0.00305473,-1.93584,-0.0731627,-0.806422,349.717,0.263522,
2,0,0,1,0,8607.92,0.260585,0.260323,-12.6029,7,0.0195736,10,-0.00328081,-1.89953,-0.0940212,-0.627518,299.615,0.260323,
2,0,0,1,0,8607.93,0.257383,0.257125,-13.4946,7,0.0195213,10,-0.0034698,-1.86984,-0.115506,-0.510794,263.302,0.257125,
2,0,0,1,0,8607.93,0.254187,0.253907,-14.2554,7,0.0194656,10,-0.00361955,-1.84602,-0.139226,-0.423772,232.091,0.253907,
2,0,0,1,0,8607.93,0.25098,0.250699,-14.9681,7,0.0194071,10,-0.0037525,-1.82483,-0.165773,-0.355909,205.167,0.2506994,
2,0,0,1,0,8607.94,0.247783,0.247546,-15.5683,7,0.0193459,10,-0.00385386,-1.80776,-0.191168,-0.308628,185.674,0.247546,
2,0,0,1,0,8607.94,0.244587,0.244304,-16.1251,7,0.0192825,10,-0.00393943,-1.7925,-0.221232,-0.266688,166.631,0.244304,
2,0,0,1,0,8607.95,0.241383,0.241084,-16.6364,7,0.0192169,10,-0.00401076,-1.77894,-0.247781,-0.238114,153.68,0.241084,
2,0,0,1,0,8607.95,0.238187,0.237912,-17.0989,7,0.0191494,10,-0.00406803,-1.76703,-0.273669,-0.215589,143.254,0.237912,
2,0,0,1,0,8607.95,0.234982,0.234676,-17.5461,7,0.01908,10,-0.00411765,-1.75582,-0.303626,-0.194318,132.479,0.2346756,
2,0,0,1,0,8607.96,0.231786,0.231493,-17.9603,7,0.019009,10,-0.00415769,-1.74569,-0.325607,-0.1812,126.566,0.231493,
2,0,0,1,0,8607.96,0.22859,0.228307,-18.3291,7,0.0189363,10,-0.00418465,-1.73686,-0.352743,-0.167261,119.46,0.2283068,
2,0,0,1,0,8607.97,0.225383,0.225098,-18.7207,7,0.0188622,10,-0.00421399,-1.72768,-0.36622,-0.161105,117.585,0.225098,
2,0,0,1,0,8607.97,0.222187,0.221867,-19.0763,7,0.0187865,10,-0.00423239,-1.71951,-0.380688,-0.154982,115.278,0.221867,
2,0,0,1,0,8607.97,0.218979,0.218712,-19.4632,7,0.0187094,10,-0.00425683,-1.71079,-0.402731,-0.1465,111.038,0.218712,
2,0,0,1,0,8607.98,0.215783,0.215476,-19.8082,7,0.0186308,10,-0.00426819,-1.70316,-0.40999,-0.143906,111.07,0.215476,
2,0,0,1,0,8607.98,0.212587,0.212329,-20.1386,7,0.0185509,10,-0.004276,-1.69597,-0.427102,-0.13814,108.638,0.2123286,
2,0,0,1,0,8607.99,0.20938,0.2091,-20.4943,7,0.0184696,10,-0.00428536,-1.68837,-0.432168,-0.136521,109.233,0.2091,
2,0,0,1,0,8607.99,0.206184,0.2059,-20.855,7,0.0183869,10,-0.00429406,-1.68079,-0.426655,-0.138285,112.551,0.2059004,
2,0,0,1,0,8607.99,0.202988,0.202629,-21.2115,7,0.0183027,10,-0.00429806,-1.67343,-0.429093,-0.137499,113.827,0.202629,
2,0,0,1,0,8608,0.199783,0.199449,-21.5882,7,0.0182171,10,-0.00430575,-1.66578,-0.426001,-0.138497,116.721,0.1994489,
2,0,0,1,0,8608,0.196587,0.196345,-21.9461,7,0.0181299,10,-0.00430902,-1.65864,-0.41793,-0.141172,121.048,0.196345,
2,0,0,1,0,8608.01,0.193382,0.19308,-22.3514,7,0.0180413,10,-0.00431562,-1.65069,-0.411293,-0.14345,125.282,0.19308,
2,0,0,1,0,8608.01,0.190186,0.189937,-22.7478,7,0.0179511,10,-0.00432065,-1.64306,-0.394594,-0.149521,132.984,0.189937,
2,0,0,1,0,8608.01,0.18699,0.186686,-23.1872,7,0.0178592,10,-0.00432872,-1.63475,-0.38313,-0.153995,139.629,0.186686,
2,0,0,1,0,8608.02,0.183783,0.183503,-23.654,7,0.0177654,10,-0.00434057,-1.6261,-0.365359,-0.161485,149.321,0.1835025,
2,0,0,1,0,8608.02,0.180587,0.180288,-24.1375,7,0.0176698,10,-0.00435171,-1.61731,-0.346783,-0.170135,160.68,0.180288,
2,0,0,1,0,8608.03,0.17738,0.177101,-24.6645,7,0.0175722,10,-0.00436811,-1.60793,-0.332668,-0.177354,171.187,0.177101,
2,0,0,1,0,8608.03,0.174183,0.173907,-25.2405,7,0.0174723,10,-0.0043895,-1.5979,-0.310271,-0.190157,187.904,0.173907,
2,0,0,1,0,8608.03,0.170987,0.170715,-25.843,7,0.0173701,10,-0.00441179,-1.58766,-0.295276,-0.199813,202.263,0.170715,
2,0,0,1,0,8608.04,0.16778,0.167502,-26.5401,7,0.0172653,10,-0.00444552,-1.5761,-0.278524,-0.211831,220.098,0.167502,
2,0,0,1,0,8608.04,0.164584,0.164301,-27.2535,7,0.0171577,10,-0.00447777,-1.56458,-0.261887,-0.225288,240.499,0.164301,
2,0,0,1,0,8608.05,0.161382,0.161115,-28.056,7,0.017047,10,-0.00452024,-1.55197,-0.249119,-0.236834,260.479,0.1611152,
2,0,0,1,0,8608.05,0.158183,0.157915,-28.9215,7,0.016933,10,-0.00456713,-1.53878,-0.233326,-0.252865,286.713,0.157915,
2,0,0,1,0,8608.05,0.154987,0.154645,-29.8892,7,0.0168153,10,-0.00462221,-1.52449,-0.222157,-0.265578,311.035,0.154645,
2,0,0,1,0,8608.06,0.151783,0.151476,-30.9305,7,0.0166936,10,-0.00468523,-1.50961,-0.210405,-0.280411,339.791,0.1514761,
2,0,0,1,0,8608.06,0.148587,0.148272,-32.0508,7,0.0165675,10,-0.00475222,-1.49416,-0.198949,-0.296558,372.689,0.148272,
2,0,0,1,0,8608.07,0.145385,0.14509,-33.2791,7,0.0164367,10,-0.00482848,-1.47783,-0.190944,-0.308991,403.102,0.14509,
2,0,0,1,0,8608.07,0.142183,0.141925,-34.6297,7,0.0163008,10,-0.00491482,-1.46055,-0.183514,-0.321502,436.036,0.141925,
2,0,0,1,0,8608.07,0.138987,0.138762,-36.0557,7,0.0161593,10,-0.00500315,-1.44303,-0.179159,-0.329317,464.642,0.138762,
2,0,0,1,0,8608.08,0.13578,0.135545,-37.6002,7,0.0160119,10,-0.0050965,-1.42481,-0.175553,-0.336081,494.409,0.135545,
2,0,0,1,0,8608.08,0.132584,0.132375,-39.1872,7,0.0158582,10,-0.00518741,-1.40686,-0.173702,-0.339662,521.031,0.132375,
2,0,0,1,0,8608.09,0.129388,0.129172,-40.9351,7,0.0156978,10,-0.00528765,-1.3879,-0.172367,-0.342293,547.783,0.129172,
2,0,0,1,0,8608.09,0.12618,0.125923,-42.7448,7,0.0155302,10,-0.00538258,-1.36912,-0.171853,-0.343317,572.807,0.125923,
2,0,0,1,0,8608.09,0.122984,0.122745,-44.6113,7,0.0153554,10,-0.00547584,-1.35055,-0.175287,-0.336591,585.705,0.122745,
2,0,0,1,0,8608.1,0.119782,0.119564,-46.5253,7,0.0151729,10,-0.00556276,-1.33231,-0.178703,-0.330158,598.74,0.119564,
2,0,0,1,0,8608.1,0.116584,0.11634,-48.4509,7,0.0149828,10,-0.00563675,-1.3147,-0.185201,-0.318573,601.246,0.11634,
2,0,0,1,0,8608.11,0.113387,0.113136,-50.4012,7,0.0147849,10,-0.00570219,-1.29756,-0.193075,-0.305581,599.189,0.113136,
2,0,0,1,0,8608.11,0.110183,0.109939,-52.3112,7,0.0145793,10,-0.00575104,-1.28141,-0.198726,-0.296891,604.941,0.109939,
2,0,0,1,0,8608.11,0.106987,0.106834,-54.1531,7,0.0143662,10,-0.00578539,-1.26638,-0.208173,-0.283419,598.517,0.106834,
2,0,0,1,0,8608.12,0.103785,0.103599,-56.1583,7,0.0141454,10,-0.00581793,-1.25059,-0.217681,-0.271038,592.244,0.103599,
2,0,0,1,0,8608.12,0.100583,0.100443,-57.9982,7,0.0139169,10,-0.00582551,-1.23659,-0.228235,-0.258505,583.151,0.100443,
2,0,0,1,0,8608.13,0.0973873,0.0972331,-59.8361,7,0.013681,10,-0.00581805,-1.22304,-0.246464,-0.239386,557.371,0.0972331,
2,0,0,1,0,8608.13,0.0941801,0.0940424,-61.6126,7,0.0134379,10,-0.00579419,-1.21033,-0.262049,-0.225148,539.411,0.0940424,
2,0,0,1,0,8608.13,0.0909839,0.0907784,-63.304,7,0.0131879,10,-0.00574663,-1.19857,-0.280823,-0.210097,517.328,0.0907784,
2,0,0,1,0,8608.14,0.0877878,0.0876322,-64.9085,7,0.0129312,10,-0.00568807,-1.1877,-0.302237,-0.195211,493.108,0.0876322,
2,0,0,1,0,8608.14,0.0845806,0.0844171,-66.4662,7,0.0126683,10,-0.00561089,-1.1774,-0.322749,-0.182805,472.891,0.08441706,
2,0,0,1,0,8608.15,0.0813844,0.0812083,-67.9412,7,0.0123993,10,-0.00551738,-1.16787,-0.352385,-0.16743,442.539,0.0812083,
2,0,0,1,0,8608.15,0.0781828,0.0779793,-69.3566,7,0.0121246,10,-0.00540838,-1.15891,-0.387308,-0.152333,410.704,0.0779793,
2,0,0,1,0,8608.15,0.0749839,0.0747186,-70.6232,7,0.0118445,10,-0.00527687,-1.15105,-0.431278,-0.136803,375.489,0.07471858,
2,0,0,1,0,8608.16,0.0717877,0.0715098,-71.7673,7,0.0115596,10,-0.00513207,-1.14407,-0.49215,-0.119882,334.454,0.0715098,
2,0,0,1,0,8608.16,0.0685832,0.0683381,-72.7738,7,0.0112703,10,-0.00497322,-1.13803,-0.568006,-0.103872,293.857,0.0683381,
2,0,0,1,0,8608.17,0.0653871,0.0651198,-73.6575,7,0.0109773,10,-0.00479656,-1.13278,-0.673348,-0.0876219,250.872,0.0651198,
2,0,0,1,0,8608.17,0.0621854,0.0619068,-74.3881,7,0.0106811,10,-0.00460513,-1.1285,-0.830902,-0.0710072,205.296,0.0619068,
2,0,0,1,0,8608.17,0.0589837,0.058698,-74.9814,7,0.0103823,10,-0.00440126,-1.12505,-1.08523,-0.0543665,158.43,0.058698,
2,0,0,1,0,8608.18,0.0557876,0.0555146,-75.4064,7,0.0100814,10,-0.00418616,-1.12259,-1.56942,-0.0375934,110.174,0.0555146,
2,0,0,1,0,8608.18,0.0525804,0.0522867,-75.6906,7,0.00977916,10,-0.00395762,-1.12096,-2.83145,-0.0208374,61.2949,0.0522867,
2,0,0,1,0,8608.19,0.0493842,0.0490631,-75.8031,7,0.00947612,10,-0.00371914,-1.12031,-10.7925,-0.00546674,16.11,0.0490631,
2,0,0,1,0,8608.19,0.0461881,0.0458904,-75.7665,7,0.00917294,10,-0.00347695,-1.12052,6.30918,0.00935145,-27.5595,0.0458904,
2,0,0,1,0,8608.19,0.0429808,0.0426508,-75.6136,7,0.00887014,10,-0.00322498,-1.1214,2.54958,0.0231411,-68.0661,0.0426508,
2,0,0,1,0,8608.2,0.0397847,0.0394951,-75.3381,7,0.00856826,10,-0.00297548,-1.12299,1.70991,0.0345047,-101.153,0.0394951,
2,0,0,1,0,8608.2,0.036583,0.0362863,-74.9335,7,0.00826774,10,-0.00271906,-1.12532,1.29893,0.0454221,-132.533,0.0362863,
2,0,0,1,0,8608.21,0.0333841,0.0330838,-74.4711,7,0.00796896,10,-0.00246379,-1.12801,1.10959,0.0531726,-154.276,0.0330838,
2,0,0,1,0,8608.21,0.030188,0.0298814,-73.9212,7,0.00767222,10,-0.00220887,-1.13123,0.985727,0.0598543,-172.447,0.0298814,
2,0,0,1,0,8608.21,0.0269835,0.0266652,-73.3587,7,0.0073777,10,-0.00195613,-1.13455,0.899466,0.0655945,-187.549,0.0266652,
2,0,0,1,0,8608.22,0.0237874,0.0234797,-72.725,7,0.00708558,10,-0.00170756,-1.13832,0.842709,0.0700123,-198.495,0.0234797,
2,0,0,1,0,8608.22,0.0205857,0.0202678,-72.0674,7,0.00679605,10,-0.00146065,-1.14226,0.790668,0.0746205,-209.708,0.0202678,
2,0,0,1,0,8608.23,0.017384,0.0171056,-71.3853,7,0.00650918,10,-0.00122109,-1.14639,0.756273,0.0780142,-217.159,0.0171056,
2,0,0,1,0,8608.23,0.0141879,0.0138831,-70.6782,7,0.00622513,10,-0.00098123,-1.15071,0.715871,0.0824171,-227.086,0.0138831,
2,0,0,1,0,8608.23,0.0109806,0.0106668,-69.9426,7,0.00594393,10,-0.000746067,-1.15526,0.66671,0.0884942,-241.176,0.0106668,
2,0,0,1,0,8608.24,0.00778448,0.00743791,-69.1539,7,0.00566581,10,-0.000514361,-1.16018,0.644982,0.0914755,-246.614,0.00743791,
2,0,0,1,0,8608.24,0.00458834,0.00431926,-68.3016,7,0.00539095,10,-0.000295012,-1.16557,0.591891,0.0996805,-265.408,0.00431926,
2,0,0,1,0,8608.25,0.0013811,0.00101715,-67.5053,7,0.00511946,10,-6.86631e-05,-1.17066,0.547692,0.107725,-283.048,0.00101715,
2,0,0,1,0,8608.25,-0.00181504,-0.00217255,-66.5349,7,0.00485146,10,0.000144551,-1.17695,0.507158,0.116334,-301.209,-0.00217255,
2,0,0,1,0,8608.25,-0.0050195,-0.0053665,-65.5297,7,0.00458742,10,0.000351665,-1.18356,0.453376,0.130135,-331.958,-0.0053665,
2,0,0,1,0,8608.26,-0.00821564,-0.00855938,-64.4224,7,0.00432762,10,0.000551416,-1.19096,0.422919,0.139507,-349.924,-0.00855938,
2,0,0,1,0,8608.26,-0.0114118,-0.0117576,-63.2646,7,0.00407236,10,0.000743838,-1.19884,0.396345,0.14886,-366.869,-0.01175757,
2,0,0,1,0,8608.27,-0.0146162,-0.0149632,-62.0591,7,0.00382179,10,0.000928602,-1.20719,0.378449,0.1559,-377.051,-0.0149632,
2,0,0,1,0,8608.27,-0.0178124,-0.0181836,-60.8275,7,0.00357613,10,0.00110606,-1.2159,0.366203,0.161113,-382.171,-0.0181836,
2,0,0,1,0,8608.27,-0.0210196,-0.0213935,-59.5833,7,0.00333543,10,0.00127469,-1.22488,0.359006,0.164343,-382.08,-0.0213935,
2,0,0,1,0,8608.28,-0.0242158,-0.0245853,-58.3622,7,0.00309967,10,0.00143485,-1.23387,0.360324,0.163741,-373.242,-0.0245853,
2,0,0,1,0,8608.28,-0.0274119,-0.0278068,-57.1518,7,0.00286876,10,0.00158921,-1.24297,0.368208,0.160236,-358.1,-0.0278068,
2,0,0,1,0,8608.29,-0.0306191,-0.0309764,-56.0527,7,0.00264247,10,0.00173631,-1.2514,0.387392,0.1523,-334.014,-0.0309764,
2,0,0,1,0,8608.29,-0.0338153,-0.0341767,-55.0056,7,0.00242048,10,0.00187991,-1.25959,0.411786,0.143278,-308.448,-0.0341767,
2,0,0,1,0,8608.29,-0.037017,-0.0373982,-54.0826,7,0.00220243,10,0.00202259,-1.26694,0.446245,0.132214,-279.842,-0.0373982,
2,0,0,1,0,8608.3,-0.0402187,-0.0405593,-53.2184,7,0.00198793,10,0.0021585,-1.27394,0.490351,0.120322,-250.692,-0.0405593,
2,0,0,1,0,8608.3,-0.0434148,-0.0438328,-52.4549,7,0.00177668,10,0.00229924,-1.28021,0.544539,0.108349,-222.628,-0.0438328,
2,0,0,1,0,8608.31,-0.0466193,-0.0469663,-51.7994,7,0.00156829,10,0.00243282,-1.28568,0.621788,0.0948876,-192.481,-0.0469663,
2,0,0,1,0,8608.31,-0.0498154,-0.0501591,-51.2416,7,0.00136231,10,0.00257024,-1.29038,0.728042,0.0810393,-162.592,-0.0501591,
2,0,0,1,0,8608.31,-0.0530115,-0.053352,-50.756,7,0.00115838,10,0.00270794,-1.29451,0.844171,0.0698911,-138.858,-0.053352,
2,0,0,1,0,8608.32,-0.056216,-0.0566096,-50.3775,7,0.000956161,10,0.00285185,-1.29776,1.02415,0.0576089,-113.565,-0.0566096,
2,0,0,1,0,8608.32,-0.0594121,-0.0597325,-50.0267,7,0.000755406,10,0.00298822,-1.3008,1.28623,0.0458704,-89.8265,-0.0597325,
2,0,0,1,0,8608.33,-0.0626194,-0.062954,-49.7886,7,0.000555827,10,0.00313439,-1.30287,1.61472,0.0365388,-71.1883,-0.062954,
2,0,0,1,0,8608.33,-0.0658155,-0.0661861,-49.6032,7,0.000357068,10,0.00328304,-1.30449,2.32918,0.0253308,-49.1436,-0.0661861,
2,0,0,1,0,8608.33,-0.0690117,-0.0693705,-49.4691,7,0.000158945,10,0.0034317,-1.30567,3.4555,0.0170742,-33.0355,-0.0693705,
2,0,0,1,0,8608.34,-0.0722189,-0.0725475,-49.3969,7,-3.87713e-05,10,0.00358362,-1.3063,6.26352,0.00941962,-18.1924,-0.0725475,
2,0,0,1,0,8608.34,-0.075415,-0.0757765,-49.365,7,-0.000236273,10,0.0037407,-1.30658,46.8685,0.00125884,-2.42958,-0.0757765,
2,0,0,1,0,8608.35,-0.0786167,-0.0789238,-49.3714,7,-0.00043373,10,0.00389658,-1.30652,-11.369,-0.00518956,10.0175,-0.0789238,
2,0,0,1,0,8608.35,-0.0818184,-0.0821686,-49.438,7,-0.000631328,10,0.00406225,-1.30594,-4.57641,-0.0128922,24.9177,-0.0821686,
2,0,0,1,0,8608.35,-0.0850146,-0.0853837,-49.5255,7,-0.000829266,10,0.00422867,-1.30517,-3.28781,-0.0179451,34.7326,-0.0853837,
2,0,0,1,0,8608.36,-0.088219,-0.088566,-49.6837,7,-0.00102766,10,0.00440029,-1.30379,-2.61147,-0.0225926,43.8377,-0.088566,
2,0,0,1,0,8608.36,-0.0914152,-0.0917525,-49.817,7,-0.00122667,10,0.00457084,-1.30262,-2.11701,-0.0278695,54.2426,-0.0917525,
2,0,0,1,0,8608.37,-0.0946141,-0.0949847,-49.9998,7,-0.00142631,10,0.00474922,-1.30103,-1.84653,-0.0319518,62.4511,-0.0949847,
2,0,0,1,0,8608.37,-0.0978158,-0.0981542,-50.2182,7,-0.00162679,10,0.00492913,-1.29914,-1.56674,-0.0376579,73.9068,-0.0981542,
2,0,0,1,0,8608.37,-0.101012,-0.101358,-50.4825,7,-0.00182822,10,0.00511679,-1.29686,-1.42332,-0.0414524,81.7279,-0.101358,
2,0,0,1,0,8608.38,-0.104219,-0.104539,-50.762,7,-0.00203073,10,0.00530661,-1.29446,-1.32861,-0.0444072,88.0055,-0.104539,
2,0,0,1,0,8608.38,-0.107415,-0.10774,-51.0423,7,-0.00223437,10,0.00549931,-1.29207,-1.23015,-0.0479618,95.6378,-0.10774,
2,0,0,1,0,8608.39,-0.110611,-0.110969,-51.346,7,-0.00243918,10,0.00569783,-1.28949,-1.15251,-0.0511927,102.726,-0.110969,
2,0,0,1,0,8608.39,-0.113819,-0.114198,-51.7106,7,-0.00264533,10,0.00590525,-1.28642,-1.06018,-0.0556507,112.414,-0.114198,
2,0,0,1,0,8608.39,-0.117015,-0.117354,-52.0785,7,-0.00285295,10,0.00611161,-1.28334,-1.00696,-0.0585921,119.142,-0.117354,
2,0,0,1,0,8608.4,-0.120216,-0.120554,-52.4828,7,-0.00306208,10,0.00632702,-1.27998,-0.976521,-0.0604185,123.784,-0.120554,
2,0,0,1,0,8608.4,-0.123418,-0.123738,-52.8672,7,-0.00327281,10,0.00654167,-1.27681,-0.936693,-0.0629875,130.052,-0.1237376,
2,0,0,1,0,8608.41,-0.126614,-0.12696,-53.2903,7,-0.00348514,10,0.00676574,-1.27335,-0.911266,-0.0647451,134.78,-0.12696,
2,0,0,1,0,8608.41,-0.129819,-0.130137,-53.7409,7,-0.00369925,10,0.00699369,-1.26969,-0.872523,-0.06762,141.902,-0.130137,
2,0,0,1,0,8608.41,-0.133015,-0.133348,-54.2071,7,-0.00391519,10,0.00722842,-1.26594,-0.847729,-0.0695977,147.29,-0.133348,
2,0,0,1,0,8608.42,-0.136214,-0.136549,-54.6853,7,-0.00413302,10,0.00746724,-1.26213,-0.836477,-0.0705339,150.564,-0.136549,
2,0,0,1,0,8608.42,-0.139416,-0.139753,-55.1745,7,-0.0043528,10,0.0077108,-1.25826,-0.817028,-0.0722129,155.56,-0.139753,
2,0,0,1,0,8608.43,-0.142612,-0.142904,-55.6632,7,-0.00457454,10,0.00795453,-1.25443,-0.810061,-0.072834,158.3,-0.142904,
2,0,0,1,0,8608.43,-0.145819,-0.146157,-56.1996,7,-0.00479828,10,0.00821395,-1.25027,-0.794253,-0.0742837,162.96,-0.146157,
2,0,0,1,0,8608.43,-0.149015,-0.149329,-56.7084,7,-0.00502417,10,0.00846823,-1.24635,-0.790917,-0.0745969,165.116,-0.149329,
2,0,0,1,0,8608.44,-0.152211,-0.152558,-57.2613,7,-0.00525216,10,0.00873569,-1.24214,-0.793614,-0.0743434,166.125,-0.1525584,
2,0,0,1,0,8608.44,-0.155418,-0.155734,-57.7817,7,-0.00548233,10,0.00899859,-1.23821,-0.785521,-0.0751094,169.386,-0.155734,
2,0,0,1,0,8608.45,-0.158615,-0.158968,-58.3278,7,-0.0057146,10,0.00927223,-1.23412,-0.784124,-0.0752432,171.344,-0.158968,
2,0,0,1,0,8608.45,-0.161816,-0.162128,-58.8762,7,-0.00594906,10,0.00954545,-1.23006,-0.780443,-0.0755981,173.727,-0.162128,
2,0,0,1,0,8608.45,-0.165018,-0.165341,-59.4515,7,-0.00618576,10,0.00982974,-1.22584,-0.782987,-0.0753525,174.792,-0.165341,
2,0,0,1,0,8608.46,-0.168214,-0.168496,-59.9988,7,-0.00642471,10,0.0101096,-1.22186,-0.789942,-0.074689,174.852,-0.168496,
2,0,0,1,0,8608.46,-0.171419,-0.171744,-60.5611,7,-0.00666589,10,0.010401,-1.21781,-0.798641,-0.0738755,174.6,-0.171744,
2,0,0,1,0,8608.47,-0.174615,-0.174901,-61.1097,7,-0.00690929,10,0.0106882,-1.21389,-0.796943,-0.0740329,176.61,-0.174901,
2,0,0,1,0,8608.47,-0.177814,-0.178109,-61.6808,7,-0.00715492,10,0.0109859,-1.20985,-0.791762,-0.0745173,179.426,-0.178109,
2,0,0,1,0,8608.47,-0.181015,-0.181342,-62.2674,7,-0.0074029,10,0.0112917,-1.20574,-0.794107,-0.0742973,180.53,-0.1813421,
2,0,0,1,0,8608.48,-0.184211,-0.184483,-62.8468,7,-0.00765319,10,0.0115942,-1.20172,-0.793352,-0.074368,182.393,-0.184483,
2,0,0,1,0,8608.48,-0.187419,-0.187731,-63.4258,7,-0.0079058,10,0.011907,-1.19773,-0.796311,-0.0740916,183.41,-0.187731,
2,0,0,1,0,8608.49,-0.190615,-0.190936,-64.0203,7,-0.00816075,10,0.0122238,-1.19368,-0.792562,-0.0744421,186.037,-0.190936,
2,0,0,1,0,8608.49,-0.193811,-0.194089,-64.6054,7,-0.00841807,10,0.0125392,-1.18973,-0.791832,-0.0745108,187.756,-0.194089,
2,0,0,1,0,8608.49,-0.197018,-0.197336,-65.2379,7,-0.00867783,10,0.0128738,-1.1855,-0.825889,-0.0714381,180.889,-0.197336,
2,0,0,1,0,8608.5,-0.199647,-0.19996,-65.7218,7,-0.00889394,10,0.0131417,-1.18229,0.376164,0.156846,-389.03,-0.19996,
2,0,0,1,0,8608.5,-0.200134,-0.200494,-65.7493,7,-0.0089334,10,0.0131824,-1.18211,-0.0142865,-4.12978,9602,-0.200494,
2,0,0,1,1,8608.5,-0.198935,-0.199463,-62.5147,7,-0.00902863,10,0.0124694,-1.20402,-0.0487764,-1.2096,2640.96,-0.199463,
2,0,0,1,1,8608.5,-0.195739,-0.196192,-54.2516,7,-0.00926087,10,0.0106437,-1.26559,-0.0521367,-1.13164,2312.03,-0.196192,
2,0,0,1,1,8608.51,-0.192535,-0.192942,-47.1882,7,-0.00946278,10,0.00910459,-1.32617,-0.0518158,-1.13865,2113.32,-0.192942,
2,0,0,1,1,8608.51,-0.189339,-0.18975,-40.9089,7,-0.00963818,10,0.00776247,-1.38818,-0.049649,-1.18834,1897.24,-0.18975,
2,0,0,1,1,8608.52,-0.186137,-0.186538,-35.1994,7,-0.00978967,10,0.00656603,-1.45346,-0.0465134,-1.26845,1732.6,-0.1865381,
2,0,0,1,1,8608.52,-0.182935,-0.183387,-29.9566,7,-0.00991934,10,0.00549363,-1.52351,-0.0430154,-1.3716,1584.89,-0.183387,
2,0,0,1,1,8608.52,-0.179739,-0.180202,-25.1154,7,-0.0100289,10,0.00452585,-1.60006,-0.0386916,-1.52488,1466.33,-0.180202,
2,0,0,1,1,8608.53,-0.176532,-0.176941,-20.6086,7,-0.0101198,10,0.00364652,-1.68595,-0.0338853,-1.74117,1357.97,-0.176941,
2,0,0,1,1,8608.53,-0.173336,-0.173743,-16.4379,7,-0.0101934,10,0.00285597,-1.78415,-0.0283635,-2.08014,1264.38,-0.1737432,
2,0,0,1,1,8608.54,-0.17014,-0.170544,-12.5167,7,-0.0102508,10,0.00213465,-1.90251,-0.0218208,-2.70384,1194.82,-0.170544,
2,0,0,1,1,8608.54,-0.166932,-0.167317,-8.82388,7,-0.0102931,10,0.00147639,-2.05434,-0.0142826,-4.13089,1122.86,-0.167317,
2,0,0,1,1,8608.54,-0.163736,-0.164179,-5.36037,7,-0.0103211,10,0.000880062,-2.27081,-0.011376,-5.18636,1055.9,-0.164179,
2,0,0,1,1,8608.55,-0.160532,-0.160972,-2.09724,7,-0.0103356,10,0.000337596,-2.67835,-0.0351556,-1.67826,996.327,-0.160972,
2,1,0,1,1,8608.55,-0.157336,-0.157793,0.947514,7,-0.0103376,10,-0.000149511,-3.02341,0.140752,0.419177,935.026,-0.157793,
2,1,0,1,1,8608.56,-0.154139,-0.154608,3.83842,7,-0.0103277,10,-0.000593451,-2.41585,0.0198409,2.97366,886.759,-0.154608,
2,1,0,1,1,8608.56,-0.150935,-0.151378,6.60912,7,-0.0103065,10,-0.00100048,-2.17986,0.0116754,5.05336,842.11,-0.151378,
2,1,0,1,1,8608.56,-0.147739,-0.148228,9.2036,7,-0.0102745,10,-0.00136423,-2.03604,0.0226426,2.6057,798.956,-0.148228,
2,1,0,1,1,8608.57,-0.144532,-0.145061,11.6686,7,-0.0102325,10,-0.00169267,-1.93298,0.0324723,1.81693,760.56,-0.145061,
2,1,0,1,1,8608.57,-0.141335,-0.141876,14.011,7,-0.0101809,10,-0.00198782,-1.85353,0.0425371,1.38703,719.203,-0.141876,
2,1,0,1,1,8608.58,-0.138139,-0.138669,16.2751,7,-0.01012,10,-0.00225685,-1.78848,0.0528062,1.11729,682.699,-0.138669,
2,1,0,1,1,8608.58,-0.134932,-0.135402,18.4278,7,-0.0100504,10,-0.00249517,-1.73453,0.063306,0.931981,650.118,-0.135402,
2,1,0,1,1,8608.58,-0.131736,-0.132178,20.4638,7,-0.0099724,10,-0.00270487,-1.68901,0.0748562,0.788178,614.786,-0.132178,
2,1,0,1,1,8608.59,-0.12854,-0.128989,22.3891,7,-0.00988646,10,-0.00288795,-1.64996,0.0865924,0.681353,584.055,-0.128989,
2,1,0,1,1,8608.59,-0.125333,-0.125741,24.2233,7,-0.00979302,10,-0.00304586,-1.61577,0.0992916,0.59421,552.802,-0.125741,
2,1,0,1,1,8608.6,-0.122136,-0.122563,25.9267,7,-0.00969253,10,-0.00317765,-1.58625,0.112789,0.523101,522.638,-0.122563,
2,1,0,1,1,8608.6,-0.118932,-0.119335,27.5638,7,-0.00958538,10,-0.00328931,-1.55966,0.126931,0.464819,494.741,-0.119335,
2,1,0,1,1,8608.6,-0.115736,-0.116138,29.1056,7,-0.00947186,10,-0.00338026,-1.53602,0.14131,0.417521,469.772,-0.116138,
2,1,0,1,1,8608.61,-0.11254,-0.112916,30.5682,7,-0.00935236,10,-0.00345164,-1.51473,0.157382,0.374884,443.463,-0.112916,
2,1,0,1,1,8608.61,-0.109335,-0.109757,31.9424,7,-0.00922717,10,-0.00350591,-1.49563,0.173983,0.339113,419.743,-0.109757,
2,1,0,1,1,8608.62,-0.106139,-0.106547,33.2345,7,-0.00909666,10,-0.00354105,-1.47841,0.191599,0.307934,397.058,-0.106547,
2,1,0,1,1,8608.62,-0.102932,-0.10334,34.4775,7,-0.0089611,10,-0.00356289,-1.46246,0.210877,0.279784,374.366,-0.10334,
2,1,0,1,1,8608.62,-0.0997357,-0.100141,35.6405,7,-0.00882073,10,-0.00356909,-1.44806,0.230231,0.256264,354.652,-0.100141,
2,1,0,1,1,8608.63,-0.0965395,-0.0969411,36.7403,7,-0.00867582,10,-0.00356165,-1.43486,0.252876,0.233316,332.999,-0.0969411,
2,1,0,1,1,8608.63,-0.0933323,-0.0937175,37.7846,7,-0.00852665,10,-0.00354108,-1.42268,0.276738,0.213198,312.977,-0.0937175,
2,1,0,1,1,8608.64,-0.0901361,-0.0905172,38.7473,7,-0.00837348,10,-0.0035073,-1.41176,0.299595,0.196932,296.742,-0.0905172,
2,1,0,1,1,8608.64,-0.0869345,-0.0872925,39.6619,7,-0.00821657,10,-0.00346218,-1.40163,0.325833,0.181074,279.432,-0.0872925,
2,1,0,1,1,8608.64,-0.0837328,-0.0841303,40.5418,7,-0.00805605,10,-0.0034108,-1.3921,0.354,0.166667,262.809,-0.0841303,
2,1,0,1,1,8608.65,-0.0805366,-0.0809491,41.3525,7,-0.00789218,10,-0.00334745,-1.3835,0.384461,0.153461,246.893,-0.0809491,
2,1,0,1,1,8608.65,-0.0773322,-0.0777308,42.1077,7,-0.00772518,10,-0.00327307,-1.37564,0.420567,0.140287,229.931,-0.0777308,
2,1,0,1,1,8608.66,-0.074136,-0.0744775,42.8258,7,-0.00755524,10,-0.00318956,-1.36829,0.455518,0.129523,215.958,-0.0744775,
2,1,0,1,1,8608.66,-0.0709371,-0.0713249,43.4862,7,-0.00738255,10,-0.00310165,-1.36165,0.491872,0.11995,203.142,-0.07132487,
2,1,0,1,1,8608.66,-0.0677354,-0.0681203,44.123,7,-0.00720724,10,-0.00300567,-1.35533,0.531007,0.11111,190.948,-0.0681203,
2,1,0,1,1,8608.67,-0.0645393,-0.0649338,44.7073,7,-0.0070295,10,-0.00290302,-1.34962,0.578155,0.102049,177.684,-0.0649338,
2,1,0,1,1,8608.67,-0.0613321,-0.0616921,45.2672,7,-0.00684951,10,-0.00279263,-1.34422,0.63049,0.0935779,164.966,-0.0616921,
2,1,0,1,1,8608.68,-0.0581359,-0.058513,45.7626,7,-0.00666737,10,-0.00267771,-1.33949,0.680937,0.0866453,154.507,-0.058513,
2,1,0,1,1,8608.68,-0.0549398,-0.055317,46.2351,7,-0.00648332,10,-0.00255759,-1.33503,0.74522,0.0791713,142.666,-0.05531697,
2,1,0,1,1,8608.68,-0.0517325,-0.0520944,46.6911,7,-0.00629739,10,-0.00243234,-1.33077,0.804646,0.0733242,133.375,-0.0520944,
2,1,0,1,1,8608.69,-0.0485364,-0.0489068,47.0912,7,-0.00610978,10,-0.00230308,-1.32706,0.877036,0.0672721,123.448,-0.0489068,
2,1,0,1,1,8608.69,-0.0453347,-0.0457553,47.4642,7,-0.00592062,10,-0.00217174,-1.32363,0.981657,0.0601024,111.179,-0.0457553,
2,1,0,1,1,8608.7,-0.042133,-0.0425232,47.8145,7,-0.00573002,10,-0.00203322,-1.32044,1.07002,0.0551391,102.747,-0.0425232,
2,1,0,1,1,8608.7,-0.0389369,-0.0392995,48.1136,7,-0.00553813,10,-0.00189084,-1.31773,1.19709,0.0492863,92.4359,-0.0392995,
2,1,0,1,1,8608.7,-0.0357324,-0.0360833,48.4088,7,-0.00534507,10,-0.00174675,-1.31508,1.35695,0.0434798,82.0225,-0.0360833,
2,1,0,1,1,8608.71,-0.0325363,-0.0328894,48.6535,7,-0.00515091,10,-0.00160018,-1.31289,1.51366,0.0389783,73.9089,-0.0328894,
2,1,0,1,1,8608.71,-0.0293374,-0.0297294,48.8639,7,-0.00495585,10,-0.00145269,-1.31101,1.7638,0.0334506,63.7274,-0.02972935,
2,1,0,1,1,8608.72,-0.0261357,-0.0264781,49.0612,7,-0.00475994,10,-0.00129905,-1.30926,2.03662,0.0289695,55.4058,-0.0264781,
2,1,0,1,1,8608.72,-0.0229395,-0.0232789,49.2248,7,-0.00456337,10,-0.0011459,-1.30782,2.41256,0.0244553,46.9229,-0.0232789,
2,1,0,1,1,8608.72,-0.0197323,-0.0201305,49.3604,7,-0.00436617,10,-0.000993651,-1.30662,3.04811,0.0193563,37.2407,-0.0201305,
2,1,0,1,1,8608.73,-0.0165361,-0.016908,49.4655,7,-0.0041685,10,-0.000836361,-1.3057,3.95893,0.014903,28.7367,-0.016908,
2,1,0,1,1,8608.73,-0.01334,-0.0137267,49.5361,7,-0.00397046,10,-0.00067997,-1.30508,5.71006,0.0103326,19.956,-0.0137267,
2,1,0,1,1,8608.74,-0.0101328,-0.0104946,49.5921,7,-0.00377218,10,-0.000520451,-1.30459,8.70361,0.0067788,13.1086,-0.0104946,
2,1,0,1,1,8608.74,-0.00693663,-0.00734098,49.6156,7,-0.00357374,10,-0.000364227,-1.30438,20.7622,0.00284171,5.49752,-0.00734098,
2,1,0,1,1,8608.74,-0.00373494,-0.00409613,49.6335,7,-0.00337524,10,-0.000203305,-1.30423, , , ,-0.00409613,
2,1,0,1,1,8608.75,-0.000774628,-0.00117471,49.6051,7,-0.00319164,10,-5.82716e-05,-1.30447, , , ,-0.00117471,
2,1,0,0,1,8608.75,-0.000125413,-0.000478022,49.6256,7,-0.00315195,10,-2.37221e-05,-1.30429, , , ,-0.000478022,