File: Figure_codes/Fig_3-5/rawdata_trumpetplot_data/before 10th/20221101_1-115_002_TrumpetPlot_ParaChange_16_CV_C01_5.csv
mode,ox/red,error,control changes,counter inc.,time/s,control/V,Ewe/V,<I>/mA,cycle number,(Q-Qo)/C,I Range,P/W,log(|I|),Tafel slope mV/dec,alpha_eff,dI/d(E-IR),E-IR/V,
2,1,0,1,0,7377.22,2.44065e-05,-0.000955205,66.4963,6,0.0000000E+000,10,-6.35176e-05,-1.1772, , , ,-0.000955205,
2,1,0,1,0,7377.22,0.00312067,0.00288029,60.0486,6,0.000193455,10,0.000172957,-1.2215, , , ,0.00288029,
2,1,0,1,0,7377.23,0.00711584,0.00676455,57.4175,6,0.000427407,10,0.000388404,-1.24096, , , ,0.00676455,
2,1,0,1,0,7377.23,0.011111,0.0107517,56.3553,6,0.000654641,10,0.000605915,-1.24907,-0.470851,-0.125305,-282.555,0.0107517,
2,1,0,1,0,7377.24,0.0151062,0.014759,55.8214,6,0.000878824,10,0.000823866,-1.2532,-1.08924,-0.0541665,-119.342,0.014759,
2,1,0,1,0,7377.24,0.0191014,0.0187397,55.5675,6,0.00110155,10,0.00104132,-1.25518,-2.1638,-0.0272669,-59.4615,0.0187397,
2,1,0,1,0,7377.24,0.0231465,0.0228074,55.5029,6,0.0013237,10,0.00126588,-1.25568,-4.57158,-0.0129058,-28.0029,0.0228074,
2,1,0,1,0,7377.25,0.0271416,0.0267787,55.4023,6,0.00154548,10,0.0014836,-1.25647,-10.0925,-0.00584593,-12.6545,0.0267787,
2,1,0,1,0,7377.25,0.0311368,0.0307478,55.3737,6,0.00176704,10,0.00170262,-1.2567,-17.6559,-0.00334166,-7.23084,0.0307478,
2,1,0,1,0,7377.26,0.035132,0.0347731,55.3646,6,0.00198851,10,0.0019252,-1.25677,50.9694,0.00115756,2.50375,0.03477307,
2,1,0,1,0,7377.26,0.0391272,0.038792,55.3873,6,0.00221004,10,0.00214858,-1.25659,17.1191,0.00344645,7.45602,0.038792,
2,1,0,1,0,7377.26,0.0431223,0.0427537,55.4423,6,0.0024317,10,0.00237036,-1.25616,10.4419,0.00565029,12.2301,0.0427537,
2,1,0,1,0,7377.27,0.0471175,0.0467663,55.4931,6,0.00265357,10,0.00259521,-1.25576,7.86147,0.00750496,16.2605,0.0467663,
2,1,0,1,0,7377.27,0.0511127,0.0507502,55.56,6,0.00287568,10,0.00281968,-1.25524,7.85366,0.00751242,16.293,0.0507502,
2,1,0,1,0,7377.28,0.0551079,0.0547161,55.6462,6,0.00309811,10,0.00304475,-1.25456,3.83651,0.0153785,33.466,0.05471614,
2,1,0,1,0,7377.28,0.059103,0.0586895,55.702,6,0.0033208,10,0.00326912,-1.25413,2.83658,0.0207997,45.3955,0.0586895,
2,1,0,1,0,7377.28,0.0631481,0.0627551,56.0282,6,0.0035442,10,0.00351605,-1.25159,2.19683,0.0268568,58.8187,0.0627551,
2,1,0,1,0,7377.29,0.0671433,0.0667942,56.2883,6,0.00376883,10,0.00375973,-1.24958,1.67643,0.0351937,77.358,0.0667942,
2,1,0,1,0,7377.29,0.0711385,0.0707813,56.5911,6,0.00399463,10,0.0040056,-1.24725,1.60029,0.0368682,81.5548,0.0707813,
2,1,0,1,0,7377.3,0.0751337,0.0747716,56.9461,6,0.00422174,10,0.00425795,-1.24454,1.39718,0.0422278,93.9958,0.0747716,
2,1,0,1,0,7377.3,0.0791288,0.0788128,57.3378,6,0.00445031,10,0.00451895,-1.24156,1.21147,0.048701,109.213,0.0788128,
2,1,0,1,0,7377.3,0.083124,0.082766,57.7896,6,0.00468058,10,0.00478301,-1.23815,1.05878,0.0557247,126.024,0.082766,
2,1,0,1,0,7377.31,0.0871192,0.0867902,58.3395,6,0.00491288,10,0.0050633,-1.23404,0.923417,0.0638931,145.861,0.0867902,
2,1,0,1,0,7377.31,0.0911144,0.0907742,58.9628,6,0.00514751,10,0.0053523,-1.22942,0.821166,0.071849,165.734,0.0907742,
2,1,0,1,0,7377.32,0.0951095,0.0947889,59.6681,6,0.00538482,10,0.00565587,-1.22426,0.744794,0.0792166,184.9,0.0947889,
2,1,0,1,0,7377.32,0.0991047,0.0987644,60.441,6,0.00562511,10,0.00596942,-1.21867,0.67272,0.0877037,207.458,0.0987644,
2,1,0,1,0,7377.32,0.103114,0.102801,61.3,6,0.00586864,10,0.00630172,-1.21254,0.628332,0.0938994,225.218,0.102801,
2,1,0,1,0,7377.33,0.107145,0.106806,62.2888,6,0.00611599,10,0.00665285,-1.20559,0.592554,0.099569,242.344,0.106806,
2,1,0,1,0,7377.33,0.11114,0.110839,63.2829,6,0.0063672,10,0.00701422,-1.19871,0.560707,0.105224,260.184,0.110839,
2,1,0,1,0,7377.34,0.115135,0.114814,64.3305,6,0.00662251,10,0.00738602,-1.19158,0.548767,0.107514,270.321,0.114814,
2,1,0,1,0,7377.34,0.119131,0.118797,65.4617,6,0.00688218,10,0.00777662,-1.18401,0.527939,0.111755,285.808,0.118797,
2,1,0,1,0,7377.34,0.123126,0.122788,66.6089,6,0.0071464,10,0.00817876,-1.17647,0.511729,0.115295,300.101,0.122788,
2,1,0,1,0,7377.35,0.127121,0.12675,67.8302,6,0.0074154,10,0.00859744,-1.16858,0.501898,0.117554,311.576,0.12675,
2,1,0,1,0,7377.35,0.131116,0.130761,69.1163,6,0.0076894,10,0.00903773,-1.16042,0.490911,0.120185,324.428,0.130761,
2,1,0,1,0,7377.36,0.135111,0.134737,70.4282,6,0.00796861,10,0.00948925,-1.15225,0.48338,0.122057,335.718,0.134737,
2,1,0,1,0,7377.36,0.139106,0.138764,71.792,6,0.00825319,10,0.00996214,-1.14392,0.474901,0.124237,348.521,0.138764,
2,1,0,1,0,7377.36,0.143102,0.14272,73.1919,6,0.00854326,10,0.010446,-1.13554,0.466344,0.126516,361.896,0.14272,
2,1,0,1,0,7377.37,0.147147,0.146837,74.7191,6,0.00883925,10,0.0109715,-1.12657,0.46018,0.128211,374.035,0.146837,
2,1,0,1,0,7377.37,0.151142,0.150791,76.2383,6,0.00914131,10,0.0114961,-1.11783,0.452798,0.130301,387.807,0.150791,
2,1,0,1,0,7377.38,0.155137,0.154808,77.793,6,0.0094495,10,0.012043,-1.10906,0.448388,0.131583,399.826,0.154808,
2,1,0,1,0,7377.38,0.159132,0.158769,79.4155,6,0.00976408,10,0.0126087,-1.10009,0.445752,0.132361,410.541,0.158769,
2,1,0,1,0,7377.38,0.163127,0.162761,81.086,6,0.0100852,10,0.0131976,-1.09105,0.438465,0.13456,426.138,0.162761,
2,1,0,1,0,7377.39,0.167123,0.166783,82.8036,6,0.0104132,10,0.0138102,-1.08195,0.435889,0.135356,437.736,0.166783,
2,1,0,1,0,7377.39,0.171118,0.170769,84.5947,6,0.0107481,10,0.0144462,-1.07266,0.436177,0.135266,446.655,0.170769,
2,1,0,1,0,7377.4,0.175113,0.174755,86.4134,6,0.0110903,10,0.0151012,-1.06342,0.436613,0.135131,455.615,0.1747552,
2,1,0,1,0,7377.4,0.179108,0.178764,88.2336,6,0.0114398,10,0.0157729,-1.05437,0.439516,0.134239,462.306,0.178764,
2,1,0,1,0,7377.4,0.183103,0.182764,90.085,6,0.0117966,10,0.0164643,-1.04535,0.449307,0.131313,461.581,0.182764,
2,1,0,1,0,7377.41,0.187146,0.186783,91.9982,6,0.0121609,10,0.0171837,-1.03622,0.46203,0.127697,457.808,0.186783,
2,1,0,1,0,7377.41,0.191143,0.190815,93.8263,6,0.0125328,10,0.0179035,-1.02768,0.480534,0.12278,448.667,0.190815,
2,1,0,1,0,7377.42,0.195139,0.194831,95.5893,6,0.0129118,10,0.0186237,-1.01959,0.513539,0.114889,427.668,0.194831,
2,1,0,1,0,7377.42,0.199134,0.198788,97.2744,6,0.0132977,10,0.019337,-1.012,0.552262,0.106833,404.522,0.198788,
2,1,0,1,0,7377.42,0.203129,0.202798,98.8469,6,0.0136901,10,0.0200459,-1.00504,0.609554,0.0967921,372.224,0.202798,
2,1,0,1,0,7377.43,0.207124,0.206793,100.29,6,0.0140886,10,0.0207393,-0.998743,0.700546,0.08422,328.298,0.206793,
2,1,0,1,0,7377.43,0.211119,0.210832,101.545,6,0.0144924,10,0.0214091,-0.993339,0.859109,0.0686758,270.706,0.210832,
2,1,0,1,0,7377.44,0.215115,0.214817,102.537,6,0.0149008,10,0.0220267,-0.989121,1.18268,0.0498865,198.332,0.214817,
2,1,0,1,0,7377.44,0.21911,0.218836,103.189,6,0.0153124,10,0.0225814,-0.986368,2.15552,0.0273716,109.403,0.218836,
2,1,0,1,0,7377.44,0.223105,0.222811,103.467,6,0.0157258,10,0.0230535,-0.9852,28.9886,0.00203528,8.14974,0.222811,
2,1,0,1,0,7377.45,0.227108,0.226791,103.291,6,0.0161395,10,0.0234256,-0.985936,-2.10365,-0.0280465,-111.96,0.226791,
2,1,0,1,0,7377.45,0.231145,0.23082,102.667,6,0.0165515,10,0.0236976,-0.988569,-0.950764,-0.0620553,-245.761,0.23082,
2,1,0,1,0,7377.46,0.23514,0.234896,101.391,6,0.0169597,10,0.0238163,-0.994002,-0.594107,-0.0993087,-388.091,0.234896,
2,1,0,1,0,7377.46,0.239136,0.238894,99.514,6,0.0173615,10,0.0237733,-1.00212,-0.422888,-0.139517,-535.234,0.2388939,
2,1,0,1,0,7377.46,0.243131,0.242895,97.0419,6,0.0177545,10,0.023571,-1.01304,-0.327137,-0.180352,-674.866,0.242895,
2,1,0,1,0,7377.47,0.247126,0.246904,94.0583,6,0.0181365,10,0.0232234,-1.0266,-0.268087,-0.220078,-798.405,0.246904,
2,1,0,1,0,7377.47,0.251121,0.250923,90.5746,6,0.0185055,10,0.0227273,-1.04299,-0.228086,-0.258674,-904.38,0.250923,
2,1,0,1,0,7377.48,0.255116,0.25495,86.6951,6,0.0188598,10,0.0221029,-1.06201,-0.199056,-0.296399,-993.245,0.25495,
2,1,0,1,0,7377.48,0.259111,0.258953,82.5196,6,0.0191979,10,0.0213687,-1.08344,-0.179931,-0.327904,-1047.97,0.258953,
2,1,0,1,0,7377.48,0.263107,0.262909,78.1617,6,0.0195188,10,0.0205494,-1.10701,-0.166999,-0.353295,-1072.84,0.262909,
2,1,0,1,0,7377.49,0.267102,0.266947,73.7821,6,0.0198223,10,0.0196959,-1.13205,-0.158291,-0.372731,-1070.92,0.266947,
2,1,0,1,0,7377.49,0.271147,0.270928,69.5531,6,0.0201085,10,0.0188438,-1.15768,-0.15397,-0.38319,-1039.14,0.270928,
2,1,0,1,0,7377.5,0.275142,0.274952,65.3855,6,0.0203779,10,0.0179779,-1.18452,-0.151074,-0.390536,-998.2,0.274952,
2,1,0,1,0,7377.5,0.279137,0.278966,61.4766,6,0.0206311,10,0.0171499,-1.21129,-0.151714,-0.388889,-937.303,0.278966,
2,1,0,1,0,7377.5,0.283132,0.282909,57.8486,6,0.0208693,10,0.0163659,-1.23771,-0.156129,-0.377894,-859.169,0.282909,
2,1,0,1,0,7377.51,0.287128,0.286915,54.5677,6,0.0210938,10,0.0156563,-1.26306,-0.163366,-0.361152,-775.922,0.286915,
2,1,0,1,0,7377.51,0.291123,0.290921,51.6657,6,0.0213058,10,0.0150306,-1.2868,-0.174447,-0.338211,-689.106,0.290921,
2,1,0,1,0,7377.52,0.295118,0.29493,49.0894,6,0.021507,10,0.0144779,-1.30901,-0.181391,-0.325264,-639.215,0.29493,
2,1,0,1,0,7377.52,0.298913,0.298731,46.9459,6,0.0216893,10,0.0140242,-1.3284,-0.0859481,-0.68646,-1248.49,0.298731,
2,1,0,1,0,7377.52,0.300012,0.299746,46.3659,6,0.0217407,10,0.013898,-1.3338,0.00105912,55.7067,83354.7,0.299746,
2,1,0,1,0,7377.52,0.298714,0.298758,41.8808,6,0.0217963,10,0.0125122,-1.37799,0.0209599,2.81489,3429.7,0.298758,
2,1,0,1,0,7377.53,0.294718,0.294692,29.2885,6,0.0219364,10,0.00863111,-1.5333,0.0217529,2.71228,2656.67,0.294692,
2,1,0,1,0,7377.53,0.290723,0.29072,19.4722,6,0.0220324,10,0.00566097,-1.71058,0.0178751,3.30068,2270.43,0.29072,
2,1,0,1,0,7377.53,0.286728,0.286663,11.6077,6,0.0220933,10,0.00332749,-1.93526,0.00543769,10.8502,1823.24,0.286663,
2,1,0,1,0,7377.54,0.282733,0.282619,5.23741,6,0.022126,10,0.00148019,-2.28088,0.024393,2.41873,1464.56,0.282619,
2,1,0,1,0,7377.54,0.278738,0.278646,0.0327946,6,0.0221357,10,9.1381e-06,-4.4842,0.0913055,0.646182,1196.94,0.278646,
2,0,0,1,0,7377.55,0.274742,0.274538,-4.22703,6,0.0221267,10,-0.00116048,-2.37396,-0.0522223,-1.12979,986.378,0.2745384,
2,0,0,1,0,7377.55,0.270747,0.270512,-7.72421,6,0.0221023,10,-0.00208949,-2.11215,-0.00621928,-9.48663,808.372,0.270512,
2,0,0,1,0,7377.55,0.266702,0.266503,-10.6591,6,0.022065,10,-0.00284068,-1.97228,-0.0290772,-2.02908,674.413,0.266503,
2,0,0,1,0,7377.56,0.262707,0.262481,-13.0353,6,0.0220173,10,-0.0034215,-1.88488,-0.0478483,-1.23306,560.633,0.262481,
2,0,0,1,0,7377.56,0.258712,0.258518,-15.0315,6,0.0219609,10,-0.00388592,-1.823,-0.0690582,-0.854351,469.469,0.258518,
2,0,0,1,0,7377.57,0.254717,0.254461,-16.7231,6,0.0218971,10,-0.00425538,-1.77668,-0.0926798,-0.6366,397.473,0.254461,
2,0,0,1,0,7377.57,0.250722,0.250515,-18.1649,6,0.0218271,10,-0.00455057,-1.74077,-0.119828,-0.492371,338.339,0.250515,
2,0,0,1,0,7377.57,0.246726,0.246518,-19.3799,6,0.0217519,10,-0.00477749,-1.71265,-0.14891,-0.396213,293.278,0.246518,
2,0,0,1,0,7377.58,0.242731,0.242467,-20.462,6,0.0216721,10,-0.00496137,-1.68905,-0.181907,-0.324341,254.879,0.242467,
2,0,0,1,0,7377.58,0.238736,0.238507,-21.402,6,0.0215882,10,-0.00510453,-1.66954,-0.214349,-0.275252,227.152,0.238507,
2,0,0,1,0,7377.59,0.234741,0.234509,-22.2444,6,0.0215008,10,-0.00521651,-1.65278,-0.244672,-0.241139,207.799,0.234509,
2,0,0,1,0,7377.59,0.230746,0.230512,-23.0156,6,0.0214102,10,-0.00530538,-1.63798,-0.280357,-0.210446,187.852,0.230512,
2,0,0,1,0,7377.59,0.226701,0.226488,-23.7825,6,0.0213166,10,-0.00538645,-1.62374,-0.313452,-0.188226,173.43,0.226488,
2,0,0,1,0,7377.6,0.222705,0.222502,-24.4086,6,0.0212201,10,-0.00543096,-1.61246,-0.347041,-0.170009,161.145,0.222502,
2,0,0,1,0,7377.6,0.21871,0.218456,-25.0286,6,0.0211212,10,-0.00546763,-1.60156,-0.385124,-0.153197,149.229,0.218456,
2,0,0,1,0,7377.61,0.214715,0.214441,-25.6054,6,0.0210198,10,-0.00549085,-1.59167,-0.405018,-0.145673,145.278,0.214441,
2,0,0,1,0,7377.61,0.21072,0.210455,-26.1751,6,0.0209162,10,-0.00550868,-1.58211,-0.423072,-0.139456,142.312,0.210455,
2,0,0,1,0,7377.61,0.206725,0.20649,-26.7348,6,0.0208104,10,-0.00552047,-1.57292,-0.430678,-0.136993,142.921,0.20649,
2,0,0,1,0,7377.62,0.202729,0.20249,-27.3006,6,0.0207022,10,-0.00552811,-1.56383,-0.433672,-0.136048,145.029,0.20249,
2,0,0,1,0,7377.62,0.198734,0.198447,-27.8913,6,0.0205918,10,-0.00553495,-1.55453,-0.430729,-0.136977,149.213,0.198447,
2,0,0,1,0,7377.63,0.194739,0.194512,-28.4873,6,0.020479,10,-0.00554112,-1.54535,-0.419719,-0.14057,156.53,0.194512,
2,0,0,1,0,7377.63,0.190744,0.19048,-29.1237,6,0.0203637,10,-0.00554748,-1.53575,-0.403384,-0.146263,166.697,0.19048,
2,0,0,1,0,7377.63,0.186735,0.186517,-29.8009,6,0.0202458,10,-0.00555838,-1.52577,-0.388117,-0.152016,177.306,0.186517,
2,0,0,1,0,7377.64,0.182704,0.182463,-30.5557,6,0.020125,10,-0.0055753,-1.51491,-0.372926,-0.158208,189.024,0.182463,
2,0,0,1,0,7377.64,0.178709,0.178478,-31.3301,6,0.0200011,10,-0.00559175,-1.50404,-0.355002,-0.166196,203.723,0.178478,
2,0,0,1,0,7377.65,0.174713,0.174443,-32.155,6,0.0198741,10,-0.00560922,-1.49275,-0.336072,-0.175558,221.217,0.174443,
2,0,0,1,0,7377.65,0.170718,0.17045,-33.0742,6,0.0197436,10,-0.00563749,-1.48051,-0.316597,-0.186357,241.661,0.17045,
2,0,0,1,0,7377.65,0.166723,0.166516,-34.0836,6,0.0196092,10,-0.00567546,-1.46745,-0.292773,-0.201521,269.449,0.166516,
2,0,0,1,0,7377.66,0.162728,0.162465,-35.1999,6,0.0194705,10,-0.00571876,-1.45346,-0.272819,-0.216261,298.794,0.1624651,
2,0,0,1,0,7377.66,0.158733,0.158482,-36.4557,6,0.0193271,10,-0.00577758,-1.43823,-0.256398,-0.230111,329.178,0.158482,
2,0,0,1,0,7377.67,0.154737,0.15451,-37.8369,6,0.0191785,10,-0.00584618,-1.42208,-0.240127,-0.245703,364.729,0.15451,
2,0,0,1,0,7377.67,0.150742,0.150511,-39.352,6,0.019024,10,-0.00592291,-1.40503,-0.225767,-0.261331,403.904,0.150511,
2,0,0,1,0,7377.67,0.146747,0.146506,-41.0207,6,0.0188631,10,-0.00600977,-1.387,-0.214901,-0.274545,442.235,0.146506,
2,0,0,1,0,7377.68,0.142702,0.142464,-42.9256,6,0.0186951,10,-0.00611535,-1.36728,-0.205837,-0.286635,482.072,0.142464,
2,0,0,1,0,7377.68,0.138707,0.138509,-44.9129,6,0.0185192,10,-0.00622086,-1.34763,-0.19964,-0.295531,519.706,0.138509,
2,0,0,1,0,7377.69,0.134712,0.134509,-47.0664,6,0.0183351,10,-0.00633083,-1.32729,-0.195812,-0.301309,555.212,0.134509,
2,0,0,1,0,7377.69,0.130717,0.130467,-49.356,6,0.018142,10,-0.00643935,-1.30666,-0.193191,-0.305398,589.48,0.130467,
2,0,0,1,0,7377.69,0.126721,0.126513,-51.7816,6,0.0179395,10,-0.00655105,-1.28582,-0.192168,-0.307023,621.403,0.126513,
2,0,0,1,0,7377.7,0.122726,0.122584,-54.3005,6,0.0177272,10,-0.00665638,-1.2652,-0.19222,-0.30694,651.274,0.122584,
2,0,0,1,0,7377.7,0.118731,0.118571,-56.9703,6,0.0175044,10,-0.006755,-1.24435,-0.196241,-0.30065,668.259,0.118571,
2,0,0,1,0,7377.71,0.114736,0.114571,-59.709,6,0.0172708,10,-0.00684091,-1.22396,-0.201353,-0.293018,681.367,0.114571,
2,0,0,1,0,7377.71,0.110741,0.110536,-62.4585,6,0.0170262,10,-0.00690391,-1.20441,-0.208578,-0.282867,688.058,0.110536,
2,0,0,1,0,7377.71,0.106745,0.106591,-65.1976,6,0.0167706,10,-0.00694949,-1.18577,-0.218676,-0.269806,684.348,0.106591,
2,0,0,1,0,7377.72,0.102703,0.102526,-68.0101,6,0.0165039,10,-0.00697278,-1.16743,-0.229293,-0.257313,680.149,0.102526,
2,0,0,1,0,7377.72,0.0987052,0.098688,-70.5784,6,0.0162264,10,-0.00696524,-1.15133,-0.242882,-0.242917,667.375,0.098688,
2,0,0,1,0,7377.73,0.09471,0.0946118,-73.2893,6,0.0159385,10,-0.00693403,-1.13496,-0.259037,-0.227767,649.429,0.0946118,
2,0,0,1,0,7377.73,0.0907148,0.0906088,-75.8639,6,0.01564,10,-0.00687393,-1.11996,-0.275806,-0.213918,630.529,0.0906088,
2,0,0,1,0,7377.73,0.0867197,0.0865994,-78.3531,6,0.0153312,10,-0.00678533,-1.10594,-0.297731,-0.198166,603.31,0.0865994,
2,0,0,1,0,7377.74,0.0827245,0.0826377,-80.6986,6,0.0150129,10,-0.00666875,-1.09313,-0.321475,-0.183529,575.703,0.08263769,
2,0,0,1,0,7377.74,0.0787293,0.0786347,-82.9285,6,0.0146854,10,-0.00652105,-1.0813,-0.347909,-0.169584,547.058,0.0786347,
2,0,0,1,0,7377.75,0.0747341,0.0746263,-85.065,6,0.0143491,10,-0.00634809,-1.07025,-0.380628,-0.155007,512.699,0.0746263,
2,0,0,1,0,7377.75,0.070739,0.0705788,-87.1173,6,0.0140045,10,-0.00614863,-1.0599,-0.419795,-0.140545,475.507,0.0705788,
2,0,0,1,0,7377.75,0.0667438,0.0665672,-88.9379,6,0.0136522,10,-0.00592035,-1.05091,-0.470972,-0.125273,432.745,0.0665672,
2,0,0,1,0,7377.76,0.0627403,0.0625695,-90.5675,6,0.0132929,10,-0.00566677,-1.04303,-0.546706,-0.107919,379.614,0.0625695,
2,0,0,1,0,7377.76,0.0587035,0.0584742,-92.0548,6,0.0129274,10,-0.00538283,-1.03595,-0.64933,-0.0908629,324.567,0.0584742,
2,0,0,1,0,7377.77,0.0547083,0.0545136,-93.2159,6,0.0125567,10,-0.00508153,-1.03051,-0.800122,-0.0737388,266.748,0.0545136,
2,0,0,1,0,7377.77,0.0507132,0.0504533,-94.1679,6,0.0121817,10,-0.00475108,-1.0261,-1.06517,-0.0553902,202.471,0.0504533,
2,0,0,1,0,7377.77,0.046718,0.0465192,-94.8489,6,0.0118036,10,-0.0044123,-1.02297,-1.51247,-0.039009,143.659,0.04651919,
2,0,0,1,0,7377.78,0.0427228,0.0425003,-95.289,6,0.0114232,10,-0.00404981,-1.02096,-2.58404,-0.0228325,84.5105,0.0425003,
2,0,0,1,0,7377.78,0.0387276,0.0384686,-95.5209,6,0.0110415,10,-0.00367455,-1.0199,-7.65697,-0.0077054,28.5918,0.0384686,
2,0,0,1,0,7377.79,0.0347325,0.0344963,-95.5165,6,0.0106594,10,-0.00329497,-1.01992,9.70057,0.00608212,-22.5755,0.0344963,
2,0,0,1,0,7377.79,0.0307373,0.030436,-95.3088,6,0.0102777,10,-0.00290082,-1.02087,3.09999,0.0190323,-70.5297,0.030436,
2,0,0,1,0,7377.79,0.0267421,0.026504,-94.9279,6,0.00989721,10,-0.00251597,-1.02261,2.10183,0.0280707,-103.721,0.026504,
2,0,0,1,0,7377.8,0.022747,0.0224448,-94.3907,6,0.00951861,10,-0.00211858,-1.02507,1.57773,0.0373954,-137.483,0.0224448,
2,0,0,1,0,7377.8,0.0187018,0.0183728,-93.8441,6,0.00914217,10,-0.00172418,-1.02759,1.31161,0.0449829,-164.323,0.0183728,
2,0,0,1,0,7377.81,0.0147067,0.0144217,-93.1071,6,0.00876832,10,-0.00134277,-1.03102,1.14499,0.0515289,-186.799,0.0144217,
2,0,0,1,0,7377.81,0.0107115,0.0104463,-92.2893,6,0.00839757,10,-0.00096408,-1.03485,0.998811,0.0590703,-212.405,0.0104463,
2,0,0,1,0,7377.81,0.00671632,0.00644537,-91.4021,6,0.00803027,10,-0.00058912,-1.03904,0.926239,0.0636985,-226.911,0.00644537,
2,0,0,1,0,7377.82,0.00272115,0.00239356,-90.4501,6,0.00766665,10,-0.000216497,-1.04359,0.846909,0.0696651,-245.518,0.00239356,
2,0,0,1,0,7377.82,-0.00127403,-0.00160099,-89.4714,6,0.0073068,10,0.000143243,-1.04832,0.77012,0.0766115,-266.836,-0.00160099,
2,0,0,1,0,7377.83,-0.0052692,-0.00561251,-88.3465,6,0.00695125,10,0.000495846,-1.05381,0.694329,0.0849742,-292.153,-0.00561251,
2,0,0,1,0,7377.83,-0.00926438,-0.0095901,-87.1232,6,0.00660041,10,0.00083552,-1.05987,0.621673,0.0949052,-321.78,-0.0095901,
2,0,0,1,0,7377.83,-0.0132596,-0.0135751,-85.7848,6,0.00625468,10,0.00116454,-1.06659,0.573479,0.102881,-343.552,-0.0135751,
2,0,0,1,0,7377.84,-0.0172547,-0.0175686,-84.3333,6,0.00591457,10,0.00148162,-1.074,0.526811,0.111995,-367.756,-0.0175686,
2,0,0,1,0,7377.84,-0.0212915,-0.0216353,-82.8419,6,0.0055804,10,0.00179231,-1.08175,0.487274,0.121082,-390.352,-0.0216353,
2,0,0,1,0,7377.85,-0.025295,-0.0256309,-81.2241,6,0.00525237,10,0.00208185,-1.09031,0.457526,0.128954,-407.689,-0.0256309,
2,0,0,1,0,7377.85,-0.0292902,-0.0296562,-79.5075,6,0.00493108,10,0.00235789,-1.09959,0.432177,0.136518,-423.091,-0.0296562,
2,0,0,1,0,7377.85,-0.0332854,-0.0336635,-77.7716,6,0.00461668,10,0.00261806,-1.10918,0.42109,0.140113,-425.324,-0.0336635,
2,0,0,1,0,7377.86,-0.0372805,-0.0376273,-76.0758,6,0.00430916,10,0.00286252,-1.11875,0.422602,0.139611,-414.926,-0.0376273,
2,0,0,1,0,7377.86,-0.0412757,-0.0415847,-74.4386,6,0.00400831,10,0.00309551,-1.1282,0.434027,0.135936,-395.649,-0.0415847,
2,0,0,1,0,7377.87,-0.0452709,-0.0455952,-72.894,6,0.00371383,10,0.00332361,-1.13731,0.456765,0.129169,-368.477,-0.0455952,
2,0,0,1,0,7377.87,-0.0492661,-0.0495823,-71.4733,6,0.00342528,10,0.00354381,-1.14586,0.493226,0.119621,-334.822,-0.0495823,
2,0,0,1,0,7377.87,-0.0532612,-0.0535927,-70.1929,6,0.00314212,10,0.00376183,-1.15371,0.541623,0.108932,-299.58,-0.0535927,
2,0,0,1,0,7377.88,-0.0572564,-0.0576202,-69.0696,6,0.00286375,10,0.0039798,-1.16071,0.617817,0.0954975,-258.573,-0.0576202,
2,0,0,1,0,7377.88,-0.0612544,-0.0616073,-68.0971,6,0.00258957,10,0.00419528,-1.16687,0.704768,0.0837155,-223.428,-0.0616073,
2,0,0,1,0,7377.89,-0.0652967,-0.0656231,-67.3256,6,0.00231873,10,0.00441811,-1.17182,0.810034,0.0728365,-191.958,-0.0656231,
2,0,0,1,0,7377.89,-0.0692919,-0.0696272,-66.6104,6,0.00205096,10,0.00463789,-1.17646,0.967498,0.060982,-159.03,-0.0696272,
2,0,0,1,0,7377.89,-0.0732871,-0.0735475,-66.0122,6,0.0017858,10,0.00485503,-1.18038,1.15095,0.0512619,-132.56,-0.0735475,
2,0,0,1,0,7377.9,-0.0772822,-0.0775526,-65.5613,6,0.00152272,10,0.00508445,-1.18335,1.43958,0.0409841,-105.191,-0.0775526,
2,0,0,1,0,7377.9,-0.0812774,-0.0816129,-65.206,6,0.00126128,10,0.00532165,-1.18571,1.9242,0.030662,-78.2417,-0.0816129,
2,0,0,1,0,7377.91,-0.0852726,-0.0856234,-64.9277,6,0.00100106,10,0.00555933,-1.18757,2.6384,0.0223621,-56.8184,-0.0856234,
2,0,0,1,0,7377.91,-0.0892678,-0.0895469,-64.7604,6,0.000741719,10,0.00579909,-1.18869,4.09527,0.0144069,-36.4988,-0.0895469,
2,0,0,1,0,7377.91,-0.0932629,-0.0935807,-64.6506,6,0.000482932,10,0.00605005,-1.18943,9.51201,0.00620268,-15.6868,-0.0935807,
2,0,0,1,0,7377.92,-0.0972581,-0.0975296,-64.6251,6,0.000224394,10,0.00630286,-1.1896,-26.7126,-0.00220869,5.5861,-0.0975296,
2,0,0,1,0,7377.92,-0.101253,-0.101571,-64.6776,6,-3.41968e-05,10,0.00656935,-1.18925,-7.38797,-0.00798595,20.1998,-0.101571,
2,0,0,1,0,7377.93,-0.105298,-0.105582,-64.8499,6,-0.00029324,10,0.00684701,-1.18809,-4.49503,-0.0131256,33.2407,-0.105582,
2,0,0,1,0,7377.93,-0.109294,-0.1096,-64.9742,6,-0.000552889,10,0.00712119,-1.18726,-3.40258,-0.0173398,44.006,-0.1096,
2,0,0,1,0,7377.93,-0.113289,-0.11358,-65.1586,6,-0.000813145,10,0.00740071,-1.18603,-2.9326,-0.0201186,51.2393,-0.11358,
2,0,0,1,0,7377.94,-0.117284,-0.117562,-65.3812,6,-0.00107427,10,0.00768634,-1.18455,-2.40205,-0.0245624,62.7631,-0.117562,
2,0,0,1,0,7377.94,-0.121279,-0.121583,-65.6698,6,-0.00133639,10,0.00798432,-1.18263,-2.08875,-0.0282465,72.4654,-0.121583,
2,0,0,1,0,7377.95,-0.125274,-0.125576,-65.9769,6,-0.00159969,10,0.00828514,-1.18061,-1.86095,-0.0317043,81.7052,-0.125576,
2,0,0,1,0,7377.95,-0.129269,-0.129557,-66.3164,6,-0.00186432,10,0.00859176,-1.17838,-1.73136,-0.0340773,88.2707,-0.129557,
2,0,0,1,0,7377.95,-0.133265,-0.133593,-66.6911,6,-0.00213036,10,0.00890946,-1.17593,-1.57848,-0.0373778,97.3738,-0.133593,
2,0,0,1,0,7377.96,-0.13726,-0.137562,-67.0803,6,-0.00239792,10,0.00922771,-1.1734,-1.43174,-0.0412085,108.038,-0.137562,
2,0,0,1,0,7377.96,-0.141255,-0.14156,-67.5333,6,-0.0026672,10,0.00956,-1.17048,-1.3571,-0.0434749,114.702,-0.14156,
2,0,0,1,0,7377.97,-0.145286,-0.145567,-68.0461,6,-0.00293834,10,0.00990527,-1.1672,-1.291,-0.045701,121.369,-0.145567,
2,0,0,1,0,7377.97,-0.149295,-0.149575,-68.5243,6,-0.00321158,10,0.0102496,-1.16416,-1.27296,-0.0463487,123.944,-0.149575,
2,0,0,1,0,7377.97,-0.15329,-0.153593,-69.026,6,-0.00348671,10,0.0106019,-1.16099,-1.25908,-0.0468597,126.278,-0.153593,
2,0,0,1,0,7377.98,-0.157286,-0.157578,-69.5187,6,-0.00376382,10,0.0109546,-1.1579,-1.22255,-0.0482597,131.022,-0.157578,
2,0,0,1,0,7377.98,-0.161281,-0.16155,-70.0643,6,-0.00404305,10,0.0113189,-1.1545,-1.2064,-0.0489059,133.771,-0.1615496,
2,0,0,1,0,7377.99,-0.165276,-0.165556,-70.6181,6,-0.00432444,10,0.0116912,-1.15108,-1.17311,-0.0502938,138.612,-0.165556,
2,0,0,1,0,7377.99,-0.169271,-0.16954,-71.1592,6,-0.00460804,10,0.0120643,-1.14777,-1.15469,-0.0510961,141.966,-0.16954,
2,0,0,1,0,7377.99,-0.173266,-0.173539,-71.7309,6,-0.00489388,10,0.0124481,-1.14429,-1.1343,-0.0520146,145.704,-0.173539,
2,0,0,1,0,7378,-0.177261,-0.177525,-72.3322,6,-0.00518203,10,0.0128408,-1.14067,-1.09549,-0.0538573,152.115,-0.177525,
2,0,0,1,0,7378,-0.181257,-0.181543,-72.9474,6,-0.00547265,10,0.0132431,-1.13699,-1.03816,-0.0568311,161.949,-0.181543,
2,0,0,1,0,7378.01,-0.185252,-0.185561,-73.5963,6,-0.00576581,10,0.0136566,-1.13314,-1.02426,-0.0576023,165.571,-0.185561,
2,0,0,1,0,7378.01,-0.189297,-0.189523,-74.3196,6,-0.00606178,10,0.0140853,-1.1289,-0.994533,-0.0593243,172.057,-0.189523,
2,0,0,1,0,7378.01,-0.193292,-0.193557,-74.9867,6,-0.00636046,10,0.0145142,-1.12502,-0.982503,-0.0600507,175.506,-0.1935569,
2,0,0,1,0,7378.02,-0.197287,-0.197538,-75.6995,6,-0.00666188,10,0.0149535,-1.12091,-1.19413,-0.0494084,144.818,-0.197538,
2,0,0,1,0,7378.02,-0.199984,-0.20036,-76.1936,6,-0.00686691,10,0.0152662,-1.11808,0.0666218,0.885595,-2435.67,-0.20036,
2,0,0,1,1,7378.02,-0.199984,-0.20038,-75.8918,6,-0.00691249,10,0.0152072,-1.11981,-0.033411,-1.76589,4508.58,-0.20038,
2,0,0,1,1,7378.02,-0.196688,-0.197188,-66.1431,6,-0.0071293,10,0.0130426,-1.17952,-0.0541131,-1.09031,2578.87,-0.197188,
2,0,0,1,1,7378.03,-0.192693,-0.193194,-56.1168,6,-0.00737241,10,0.0108415,-1.25091,-0.0535716,-1.10133,2390.39,-0.193194,
2,0,0,1,1,7378.03,-0.188698,-0.189158,-47.3049,6,-0.00757812,10,0.00894812,-1.32509,-0.0513305,-1.14941,2113.37,-0.189158,
2,0,0,1,1,7378.04,-0.184653,-0.185079,-39.3174,6,-0.00775037,10,0.00727682,-1.40542,-0.0471968,-1.25009,1896.19,-0.185079,
2,0,0,1,1,7378.04,-0.180657,-0.181097,-32.1376,6,-0.0078924,10,0.00582003,-1.49299,-0.0417295,-1.41387,1731.72,-0.181097,
2,0,0,1,1,7378.04,-0.176662,-0.177088,-25.5759,6,-0.00800705,10,0.00452917,-1.59217,-0.035438,-1.66488,1587.28,-0.177088,
2,0,0,1,1,7378.05,-0.172667,-0.173109,-19.5121,6,-0.00809648,10,0.00337772,-1.7097,-0.0281262,-2.09769,1464.89,-0.1731091,
2,0,0,1,1,7378.05,-0.168672,-0.169052,-13.8781,6,-0.00816258,10,0.00234612,-1.85767,-0.0192178,-3.07008,1365.9,-0.169052,
2,0,0,1,1,7378.06,-0.164677,-0.165062,-8.64745,6,-0.00820699,10,0.00142736,-2.06311,-0.0112503,-5.24432,1267.95,-0.165062,
2,0,0,1,1,7378.06,-0.160682,-0.161131,-3.78011,6,-0.00823125,10,0.000609092,-2.4225,-0.035702,-1.65257,1184.98,-0.161131,
2,0,0,1,1,7378.06,-0.156686,-0.157135,0.742041,6,-0.00823681,10,-0.000116601,-3.12957,0.899677,0.0655791,1112,-0.157135,
2,1,0,1,1,7378.07,-0.152691,-0.153143,4.97413,6,-0.00822488,10,-0.000761751,-2.30328,0.030082,1.96131,1040.56,-0.153143,
2,1,0,1,1,7378.07,-0.148696,-0.149186,9.00604,6,-0.00819645,10,-0.00134358,-2.04547,0.0118884,4.96281,976.102,-0.1491863,
2,1,0,1,1,7378.08,-0.14467,-0.145209,12.7877,6,-0.00815247,10,-0.00185688,-1.89321,0.0267791,2.20321,919.937,-0.145209,
2,1,0,1,1,7378.08,-0.140656,-0.141178,16.3177,6,-0.00809381,10,-0.0023037,-1.78734,0.0396535,1.48789,863.547,-0.141178,
2,1,0,1,1,7378.08,-0.136661,-0.137136,19.6994,6,-0.0080214,10,-0.0027015,-1.70555,0.0527047,1.11945,810.76,-0.137136,
2,1,0,1,1,7378.09,-0.132665,-0.133148,22.8562,6,-0.00793593,10,-0.00304324,-1.641,0.0656169,0.899159,768.995,-0.133148,
2,1,0,1,1,7378.09,-0.12867,-0.129101,25.8471,6,-0.00783818,10,-0.00333689,-1.58759,0.0800058,0.737447,720.791,-0.129101,
2,1,0,1,1,7378.1,-0.124675,-0.125124,28.6636,6,-0.00772885,10,-0.00358649,-1.54267,0.0950113,0.620979,677.094,-0.125124,
2,1,0,1,1,7378.1,-0.12068,-0.121071,31.2791,6,-0.00760864,10,-0.00378698,-1.50475,0.111195,0.530597,634.816,-0.121071,
2,1,0,1,1,7378.1,-0.116685,-0.117096,33.7245,6,-0.00747835,10,-0.00394901,-1.47205,0.128548,0.458974,594.706,-0.117096,
2,1,0,1,1,7378.11,-0.112689,-0.113064,36.028,6,-0.0073386,10,-0.00407345,-1.44336,0.146512,0.402698,558.934,-0.113064,
2,1,0,1,1,7378.11,-0.108694,-0.109099,38.1937,6,-0.00718989,10,-0.00416688,-1.41801,0.165171,0.357206,526.988,-0.109099,
2,1,0,1,1,7378.12,-0.104699,-0.105066,40.2246,6,-0.00703282,10,-0.00422624,-1.39551,0.185177,0.318614,495.726,-0.105066,
2,1,0,1,1,7378.12,-0.100654,-0.101021,42.1962,6,-0.00686767,10,-0.00426268,-1.37473,0.208668,0.282746,461.24,-0.101021,
2,1,0,1,1,7378.12,-0.0966588,-0.097044,43.9693,6,-0.00669513,10,-0.00426696,-1.35685,0.231044,0.255363,434.594,-0.097044,
2,1,0,1,1,7378.13,-0.0926637,-0.0929879,45.6246,6,-0.00651575,10,-0.00424254,-1.3408,0.259009,0.227791,403.125,-0.0929879,
2,1,0,1,1,7378.13,-0.0886685,-0.0890729,47.1751,6,-0.00632996,10,-0.00420202,-1.32629,0.2859,0.206366,377.888,-0.0890729,
2,1,0,1,1,7378.14,-0.0846733,-0.0850137,48.6489,6,-0.00613814,10,-0.00413583,-1.31293,0.315735,0.186866,352.858,-0.0850137,
2,1,0,1,1,7378.14,-0.0806781,-0.0810827,50.0009,6,-0.00594068,10,-0.00405421,-1.30102,0.349294,0.168912,328.002,-0.0810827,
2,1,0,1,1,7378.14,-0.076683,-0.0770352,51.2537,6,-0.00573801,10,-0.00394834,-1.29027,0.384099,0.153606,306.046,-0.0770352,
2,1,0,1,1,7378.15,-0.0726878,-0.0730491,52.431,6,-0.00553049,10,-0.00383003,-1.28041,0.422588,0.139616,284.691,-0.0730491,
2,1,0,1,1,7378.15,-0.0686926,-0.0690545,53.5332,6,-0.00531842,10,-0.00369671,-1.27138,0.453553,0.130084,271.101,-0.0690545,
2,1,0,1,1,7378.16,-0.0646974,-0.0650589,54.5627,6,-0.0051021,10,-0.00354979,-1.2631,0.498804,0.118283,251.201,-0.0650589,
2,1,0,1,1,7378.16,-0.0606523,-0.0609817,55.6058,6,-0.00488171,10,-0.00339093,-1.25488,0.549885,0.107295,231.879,-0.0609817,
2,1,0,1,1,7378.16,-0.0566571,-0.0570391,56.4527,6,-0.0046575,10,-0.00322001,-1.24832,0.602916,0.0978578,214.895,-0.0570391,
2,1,0,1,1,7378.17,-0.052662,-0.0529841,57.2596,6,-0.00442997,10,-0.00303385,-1.24215,0.68009,0.0867532,193.444,-0.0529841,
2,1,0,1,1,7378.17,-0.0486668,-0.0490182,58.0098,6,-0.00419936,10,-0.00284353,-1.2365,0.73851,0.0798906,180.473,-0.0490182,
2,1,0,1,1,7378.18,-0.0446716,-0.0450215,58.6932,6,-0.00396584,10,-0.00264245,-1.23141,0.815853,0.072317,165.301,-0.0450215,
2,1,0,1,1,7378.18,-0.0406764,-0.0410534,59.3377,6,-0.00372969,10,-0.00243602,-1.22667,0.906669,0.0650733,150.356,-0.0410534,
2,1,0,1,1,7378.18,-0.0366813,-0.0370143,59.8994,6,-0.00349116,10,-0.00221714,-1.22258,0.998719,0.0590757,137.843,-0.0370143,
2,1,0,1,1,7378.19,-0.0326861,-0.0330219,60.4149,6,-0.00325045,10,-0.00199502,-1.21886,1.13011,0.0522072,122.895,-0.0330219,
2,1,0,1,1,7378.19,-0.0286909,-0.0290443,60.8955,6,-0.00300778,10,-0.00176867,-1.21541,1.22536,0.048149,114.262,-0.0290443,
2,1,0,1,1,7378.2,-0.0246957,-0.0250317,61.3067,6,-0.00276332,10,-0.00153461,-1.21249,1.38473,0.0426075,101.813,-0.0250317,
2,1,0,1,1,7378.2,-0.0206756,-0.0210542,61.723,6,-0.00251723,10,-0.00129953,-1.20955,1.63022,0.0361914,86.9934,-0.0210542,
2,1,0,1,1,7378.2,-0.0166554,-0.0169663,62.0496,6,-0.0022696,10,-0.00105275,-1.20726,1.87704,0.0314324,75.9483,-0.0169663,
2,1,0,1,1,7378.21,-0.0126603,-0.0129961,62.2916,6,-0.00202086,10,-0.00080955,-1.20557,2.36464,0.0249509,60.5747,-0.0129961,
2,1,0,1,1,7378.21,-0.0086651,-0.00903126,62.5219,6,-0.0017712,10,-0.000564651,-1.20397,2.99271,0.0197146,48.0293,-0.00903126,
2,1,0,1,1,7378.22,-0.00466992,-0.00502717,62.6939,6,-0.00152075,10,-0.000315173,-1.20277, , , ,-0.005027168,
2,1,0,1,1,7378.22,-0.000974387,-0.00132264,62.8009,6,-0.00128857,10,-8.30628e-05,-1.20203, , , ,-0.00132264,
2,1,0,1,1,7378.22,-0.000175352,-0.000535284,62.8245,6,-0.00123832,10,-3.3629e-05,-1.20187, , , ,-0.000535284,