File: Figure_codes/Fig_3-5/rawdata_trumpetplot_data/before 10th/20221101_1-115_002_TrumpetPlot_ParaChange_04_CV_C01_5.csv
mode,ox/red,error,control changes,counter inc.,time/s,control/V,Ewe/V,<I>/mA,cycle number,(Q-Qo)/C,I Range,P/W,log(|I|),Tafel slope mV/dec,alpha_eff,dI/d(E-IR),E-IR/V,
2,0,0,1,0,6516.94,2.44065e-05,-0.000325324,-0.394994,6,0.0000000E+000,11,1.28501e-07,-3.40341, , , ,-0.000325324,
2,0,0,1,0,6518.22,0.00129791,0.000952495,-0.16605,6,-0.00022727,11,-1.58162e-07,-3.77976, , , ,0.000952495,
2,0,0,1,0,6519.71,0.00279612,0.00251982,-0.135178,6,-0.000421596,11,-3.40623e-07,-3.8691,-0.0187505,-3.14658,17.6902,0.00251982,
2,0,0,1,0,6521.21,0.00429431,0.00400441,-0.116999,6,-0.000582672,11,-4.68512e-07,-3.93182,-0.0267782,-2.20328,10.1755,0.00400441,
2,0,0,1,0,6522.71,0.00579242,0.00549628,-0.103383,6,-0.000720592,11,-5.68223e-07,-3.98555,-0.0288961,-2.0418,8.36182,0.00549628,
2,0,0,1,0,6524.21,0.00729061,0.00701902,-0.0922431,6,-0.000840552,11,-6.47456e-07,-4.03507,-0.0346479,-1.70284,6.27441,0.00701902,
2,0,0,1,0,6525.71,0.00878882,0.00851638,-0.0853248,6,-0.000951044,11,-7.26658e-07,-4.06892,-0.038848,-1.51874,5.07468,0.00851638,
2,0,0,1,0,6527.21,0.010287,0.00993842,-0.0774891,6,-0.00104579,11,-7.70119e-07,-4.11076,-0.0279409,-2.1116,6.77715,0.00993842,
2,0,0,1,0,6528.7,0.0117852,0.0114749,-0.0719392,6,-0.00113035,11,-8.25495e-07,-4.14303,-0.0417713,-1.41245,3.98174,0.0114749,
2,0,0,1,0,6530.2,0.0132834,0.0129796,-0.0663155,6,-0.00120613,11,-8.60749e-07,-4.17838,-0.0427558,-1.37993,3.56786,0.0129796,
2,0,0,1,0,6531.7,0.0147815,0.0144895,-0.0614938,6,-0.00127415,11,-8.91017e-07,-4.21117,-0.044995,-1.31126,3.13152,0.0144895,
2,0,0,1,0,6533.2,0.0162797,0.0160144,-0.0571694,6,-0.00133499,11,-9.15534e-07,-4.24284,-0.05187,-1.13746,2.55118,0.0160144,
2,0,0,1,0,6534.7,0.0177779,0.0174661,-0.0528846,6,-0.00138998,11,-9.2369e-07,-4.27667,-0.0502836,-1.17335,2.42418,0.01746615,
2,0,0,1,0,6536.19,0.0192761,0.0189369,-0.0491977,6,-0.00143978,11,-9.3165e-07,-4.30806,-0.0498904,-1.18259,2.28057,0.0189369,
2,0,0,1,0,6537.69,0.0207743,0.0204904,-0.0460848,6,-0.00148414,11,-9.44297e-07,-4.33644,-0.0543342,-1.08587,1.96429,0.0204904,
2,0,0,1,0,6539.19,0.0222725,0.0219835,-0.043203,6,-0.00152372,11,-9.49753e-07,-4.36449,-0.0502337,-1.17451,1.98323,0.0219835,
2,0,0,1,0,6540.69,0.0237707,0.0234999,-0.0400634,6,-0.00155875,11,-9.41486e-07,-4.39725,-0.0448401,-1.31579,2.07334,0.0234999,
2,0,0,1,0,6542.19,0.0252689,0.0249601,-0.037552,6,-0.00159,11,-9.373e-07,-4.42537,-0.0479118,-1.23143,1.79654,0.0249601,
2,0,0,1,0,6543.69,0.0267671,0.0264478,-0.0351133,6,-0.00161691,11,-9.28671e-07,-4.45453,-0.0442157,-1.33437,1.81874,0.0264478,
2,0,0,1,0,6545.18,0.0282653,0.0279896,-0.0321283,6,-0.00163984,11,-8.9926e-07,-4.49311,-0.0423205,-1.39412,1.74953,0.0279896,
2,0,0,1,0,6546.68,0.0297635,0.0294954,-0.0298625,6,-0.00165924,11,-8.80808e-07,-4.52487,-0.0439702,-1.34182,1.57421,0.0294954,
2,0,0,1,0,6548.18,0.0312617,0.0309546,-0.0284628,6,-0.00167548,11,-8.81053e-07,-4.54572,-0.0449038,-1.31392,1.43468,0.0309546,
2,0,0,1,0,6549.68,0.0327599,0.0324975,-0.0254167,6,-0.00168833,11,-8.25978e-07,-4.59488,-0.0382331,-1.54316,1.5573,0.0324975,
2,0,0,1,0,6551.18,0.0342581,0.0339397,-0.0229838,6,-0.00169751,11,-7.80063e-07,-4.63858,-0.0395695,-1.49105,1.36871,0.0339397,
2,0,0,1,0,6552.68,0.0357563,0.0354497,-0.020989,6,-0.00170365,11,-7.44055e-07,-4.67801,-0.0327782,-1.79997,1.48949,0.0354497,
2,0,0,1,0,6554.17,0.0372544,0.0369299,-0.019371,6,-0.00170661,11,-7.15369e-07,-4.71285,-0.0291889,-2.02132,1.48024,0.0369299,
2,0,0,1,0,6555.67,0.0387526,0.0384484,-0.0163603,6,-0.00170639,11,-6.29029e-07,-4.78621,-0.027799,-2.12238,1.37509,0.0384484,
2,0,0,1,0,6557.17,0.0402508,0.039969,-0.0148802,6,-0.00170282,11,-5.94747e-07,-4.82739,-0.026291,-2.24412,1.24927,0.039969,
2,0,0,1,0,6558.67,0.041749,0.0414844,-0.0124176,6,-0.00169583,11,-5.15138e-07,-4.90596,-0.0222063,-2.65691,1.33839,0.04148436,
2,0,0,1,0,6560.17,0.0432472,0.0429615,-0.010207,6,-0.00168588,11,-4.38507e-07,-4.9911,-0.0183695,-3.21185,1.28985,0.0429615,
2,0,0,1,0,6561.66,0.0447454,0.044443,-0.0082001,6,-0.00167318,11,-3.64437e-07,-5.08618,-0.0132017,-4.46911,1.43564,0.044443,
2,0,0,1,0,6563.16,0.0462435,0.0459507,-0.00613027,6,-0.00165715,11,-2.8169e-07,-5.21252,-0.0117772,-5.00969,1.21124,0.0459507,
2,0,0,1,0,6564.66,0.0477417,0.0474565,-0.00410823,6,-0.00163789,11,-1.94963e-07,-5.38634,-0.00506484,-11.6489,1.51554,0.0474565,
2,0,0,1,0,6566.16,0.0492399,0.0489507,-0.00248714,6,-0.00161541,11,-1.21747e-07,-5.6043,-0.00531161,-11.1077,1.44245,0.0489507,
2,0,0,1,0,6567.66,0.0507381,0.0504045,5.4959e-05,6,-0.00159008,11,2.77018e-09,-7.25996,-0.0640335,-0.921392,1.43276,0.0504045,
2,0,0,1,0,6569.16,0.0522363,0.0518975,0.00210046,6,-0.00156108,11,1.09009e-07,-5.67769,0.00746999,7.89827,1.68874,0.0518975,
2,0,0,1,0,6570.65,0.0537345,0.053433,0.00431937,6,-0.00152851,11,2.30797e-07,-5.36458,0.00509028,11.5907,1.50097,0.053433,
2,0,0,1,0,6572.15,0.0552327,0.0549378,0.00682648,6,-0.00149274,11,3.75032e-07,-5.1658,0.00864698,6.82319,1.49012,0.0549378,
2,0,0,1,0,6573.65,0.0567309,0.0564033,0.00815926,6,-0.00145387,11,4.60209e-07,-5.08835,0.0125056,4.71789,1.50153,0.0564033,
2,0,0,1,0,6575.15,0.0582291,0.0579112,0.0107141,6,-0.00141182,11,6.20468e-07,-4.97004,0.0156575,3.76816,1.52577,0.05791118,
2,1,0,1,0,6576.65,0.0597273,0.0594456,0.0131327,6,-0.00136603,11,7.80678e-07,-4.88165,0.0203524,2.89891,1.45591,0.0594456,
2,1,0,1,0,6578.14,0.0612255,0.0609344,0.0151197,6,-0.00131692,11,9.21311e-07,-4.82046,0.0246133,2.39708,1.37279,0.0609344,
2,1,0,1,0,6579.64,0.0627237,0.0624444,0.0177234,6,-0.00126438,11,1.10673e-06,-4.75145,0.0276486,2.13393,1.46729,0.0624444,
2,1,0,1,0,6581.14,0.0642219,0.0639365,0.0197135,6,-0.00120887,11,1.26041e-06,-4.70524,0.0285151,2.06908,1.5996,0.0639365,
2,1,0,1,0,6582.64,0.0657201,0.0654114,0.0224441,6,-0.00114969,11,1.4681e-06,-4.6489,0.0363063,1.62506,1.37967,0.0654114,
2,1,0,1,0,6584.14,0.0672183,0.0669459,0.0241875,6,-0.00108682,11,1.61925e-06,-4.61641,0.0401849,1.46821,1.35352,0.0669459,
2,1,0,1,0,6585.64,0.0687164,0.0684484,0.0261884,6,-0.00102094,11,1.79255e-06,-4.58189,0.0415856,1.41876,1.44849,0.0684484,
2,1,0,1,0,6587.13,0.0702146,0.0698916,0.0286288,6,-0.000952309,11,2.00091e-06,-4.5432,0.0502561,1.17399,1.27285,0.0698916,
2,1,0,1,0,6588.63,0.0717128,0.0714037,0.0310207,6,-0.000879956,11,2.21499e-06,-4.50835,0.0544508,1.08355,1.28319,0.0714037,
2,1,0,1,0,6590.13,0.073211,0.072934,0.032662,6,-0.000804557,11,2.38217e-06,-4.48596,0.0510909,1.1548,1.45644,0.072934,
2,1,0,1,0,6591.63,0.0747092,0.0743718,0.0343412,6,-0.000726218,11,2.55402e-06,-4.46418,0.0573876,1.0281,1.38622,0.0743718,
2,1,0,1,0,6593.13,0.0762074,0.0758935,0.0359569,6,-0.000645365,11,2.7289e-06,-4.44422,0.0562453,1.04898,1.50261,0.0758935,
2,1,0,1,0,6594.62,0.0777055,0.0774109,0.038594,6,-0.000561089,11,2.98759e-06,-4.41348,0.055244,1.06799,1.58897,0.0774109,
2,1,0,1,0,6596.12,0.0792037,0.0788902,0.0410298,6,-0.000474188,11,3.23685e-06,-4.3869,0.0687872,0.857718,1.33644,0.0788902,
2,1,0,1,0,6597.62,0.0807019,0.0803981,0.0416305,6,-0.000384254,11,3.34701e-06,-4.38059,0.0759274,0.777058,1.25912,0.08039809,
2,1,0,1,0,6599.12,0.0822001,0.0818901,0.0431839,6,-0.000291923,11,3.53634e-06,-4.36468,0.0892629,0.660969,1.12342,0.0818901,
2,1,0,1,0,6600.62,0.0836983,0.0834214,0.0458369,6,-0.000197214,11,3.82377e-06,-4.33879,0.0958495,0.615548,1.09214,0.0834214,
2,1,0,1,0,6602.12,0.0851965,0.084891,0.0475849,6,-9.95057e-05,11,4.03953e-06,-4.32253,0.0888577,0.663983,1.23432,0.084891,
2,1,0,1,0,6603.61,0.0866947,0.0864414,0.0490057,6,9.7413e-07,11,4.23612e-06,-4.30975,0.122108,0.483177,0.919253,0.0864414,
2,1,0,1,0,6605.11,0.0881929,0.0878941,0.0510188,6,0.000104075,11,4.48425e-06,-4.29227,0.0978562,0.602926,1.20491,0.0878941,
2,1,0,1,0,6606.61,0.0896911,0.0894095,0.0524842,6,0.000209043,11,4.69258e-06,-4.27997,0.093447,0.631374,1.30678,0.0894095,
2,1,0,1,0,6608.11,0.0911893,0.0908813,0.0544774,6,0.000317212,11,4.95098e-06,-4.26378,0.103843,0.568165,1.20196,0.0908813,
2,1,0,1,0,6609.61,0.0926875,0.0924073,0.0563142,6,0.000428371,11,5.20384e-06,-4.24938,0.105133,0.561197,1.22576,0.0924073,
2,1,0,1,0,6611.1,0.0941857,0.0939098,0.0572371,6,0.000541753,11,5.37512e-06,-4.24232,0.114145,0.516885,1.15934,0.0939098,
2,1,0,1,0,6612.6,0.0956839,0.0953923,0.0594064,6,0.000657624,11,5.66691e-06,-4.22617,0.109821,0.537236,1.24492,0.0953923,
2,1,0,1,0,6614.1,0.0971821,0.0969076,0.0617953,6,0.000776792,11,5.98843e-06,-4.20904,0.0874385,0.67476,1.62059,0.0969076,
2,1,0,1,0,6615.6,0.0986803,0.0984166,0.0633552,6,0.00089927,11,6.23521e-06,-4.19822,0.102457,0.57585,1.44023,0.0984166,
2,1,0,1,0,6617.1,0.100178,0.0998947,0.0661901,6,0.00102498,11,6.61204e-06,-4.17921,0.104184,0.566307,1.46813,0.0998947,
2,1,0,1,0,6618.6,0.101677,0.101389,0.0680009,6,0.00115386,11,6.89453e-06,-4.16749,0.0997092,0.591721,1.57616,0.101389,
2,1,0,1,0,6620.09,0.103175,0.102872,0.0705691,6,0.0012867,11,7.25961e-06,-4.15139,0.0985776,0.598513,1.66398,0.102872,
2,1,0,1,0,6621.59,0.104673,0.104356,0.0742903,6,0.00142384,11,7.75263e-06,-4.12907,0.0884497,0.667046,1.91139,0.104356,
2,1,0,1,0,6623.09,0.106171,0.105933,0.0764352,6,0.00156548,11,8.09699e-06,-4.11671,0.0849292,0.694696,2.07372,0.105933,
2,1,0,1,0,6624.59,0.107669,0.107406,0.0791158,6,0.0017115,11,8.49748e-06,-4.10174,0.0937493,0.629338,1.96382,0.107406,
2,1,0,1,0,6626.09,0.109167,0.108831,0.0824483,6,0.00186202,11,8.97291e-06,-4.08382,0.0871122,0.677287,2.20764,0.108831,
2,1,0,1,0,6627.58,0.110666,0.110361,0.0857384,6,0.00201803,11,9.46216e-06,-4.06682,0.0836826,0.705045,2.38402,0.110361,
2,1,0,1,0,6629.08,0.112164,0.111882,0.0899114,6,0.00217954,11,1.00594e-05,-4.04619,0.0981366,0.601203,2.11871,0.111882,
2,1,0,1,0,6630.58,0.113662,0.113367,0.094522,6,0.00234682,11,1.07157e-05,-4.02447,0.0832802,0.708452,2.61544,0.113367,
2,1,0,1,0,6632.08,0.11516,0.114853,0.0983288,6,0.0025192,11,1.12933e-05,-4.00732,0.0828052,0.712515,2.72723,0.114853,
2,1,0,1,0,6633.58,0.116658,0.11635,0.102746,6,0.00269833,11,1.19545e-05,-3.98824,0.0866581,0.680836,2.70133,0.11635,
2,1,0,1,0,6635.08,0.118157,0.117879,0.106464,6,0.00288439,11,1.25499e-05,-3.9728,0.0910241,0.64818,2.67497,0.117879,
2,1,0,1,0,6636.57,0.119655,0.119374,0.109942,6,0.00307571,11,1.31243e-05,-3.95884,0.108683,0.542863,2.33263,0.119374,
2,1,0,1,0,6638.07,0.121153,0.120884,0.113693,6,0.00327191,11,1.37437e-05,-3.94427,0.106622,0.553359,2.46712,0.120884,
2,1,0,1,0,6639.57,0.122651,0.122327,0.118057,6,0.00347507,11,1.44415e-05,-3.92791,0.096955,0.60853,2.79463,0.122327,
2,1,0,1,0,6641.07,0.124149,0.123871,0.122036,6,0.00368421,11,1.51167e-05,-3.91351,0.110512,0.533878,2.5368,0.123871,
2,1,0,1,0,6642.57,0.125648,0.125375,0.125597,6,0.00389931,11,1.57468e-05,-3.90102,0.120054,0.491447,2.41234,0.125375,
2,1,0,1,0,6644.06,0.127146,0.126835,0.127542,6,0.00411944,11,1.61769e-05,-3.89435,0.118621,0.497383,2.50602,0.126835,
2,1,0,1,0,6645.56,0.128644,0.128359,0.132967,6,0.0043451,11,1.70675e-05,-3.87626,0.134133,0.439862,2.268,0.128359,
2,1,0,1,0,6647.06,0.130142,0.129829,0.137617,6,0.00457664,11,1.78667e-05,-3.86133,0.154468,0.381955,2.02277,0.129829,
2,1,0,1,0,6648.56,0.13164,0.131344,0.13931,6,0.00481304,11,1.82976e-05,-3.85602,0.172715,0.341604,1.84303,0.131344,
2,1,0,1,0,6650.06,0.133139,0.132847,0.141428,6,0.00505326,11,1.87883e-05,-3.84946,0.184644,0.319534,1.76965,0.132847,
2,1,0,1,0,6651.56,0.134637,0.134359,0.143868,6,0.00529667,11,1.933e-05,-3.84204,0.219092,0.269293,1.51981,0.134359,
2,1,0,1,0,6653.05,0.136135,0.135838,0.146013,6,0.00554408,11,1.98342e-05,-3.83561,0.292543,0.201679,1.14686,0.135838,
2,1,0,1,0,6654.55,0.137633,0.137354,0.146864,6,0.00579401,11,2.01722e-05,-3.83309,2.41853,0.024395,0.139425,0.137354,
2,1,0,1,0,6656.05,0.139131,0.138825,0.148539,6,0.00604487,11,2.0621e-05,-3.82816,4.24149,0.0139102,0.0797491,0.138825,
2,1,0,1,0,6657.55,0.14063,0.140326,0.148,6,0.00629528,11,2.07683e-05,-3.82974,-0.711399,-0.0829352,-0.474257,0.140326,
2,1,0,1,0,6659.05,0.142128,0.141839,0.146458,6,0.00654543,11,2.07734e-05,-3.83429,-0.347991,-0.169545,-0.961351,0.141839,
2,1,0,1,0,6660.54,0.143626,0.143337,0.14433,6,0.00679377,11,2.06879e-05,-3.84064,-0.195905,-0.301167,-1.68754,0.143337,
2,1,0,1,0,6662.04,0.145124,0.144871,0.141901,6,0.00703777,11,2.05573e-05,-3.84801,-0.131699,-0.44799,-2.47358,0.144871,
2,1,0,1,0,6663.54,0.146622,0.146352,0.137909,6,0.00727577,11,2.01833e-05,-3.86041,-0.112103,-0.5263,-2.8156,0.1463522,
2,1,0,1,0,6665.04,0.14812,0.147844,0.132866,6,0.00750827,11,1.96435e-05,-3.87659,-0.102561,-0.57527,-2.95711,0.147844,
2,1,0,1,0,6666.54,0.149619,0.149342,0.127515,6,0.00773308,11,1.90433e-05,-3.89444,-0.0801428,-0.736186,-3.65293,0.149342,
2,1,0,1,0,6668.04,0.151117,0.150821,0.121215,6,0.00794954,11,1.82817e-05,-3.91644,-0.0688873,-0.856471,-4.04219,0.150821,
2,1,0,1,0,6669.53,0.152615,0.152355,0.114483,6,0.00815664,11,1.7442e-05,-3.94126,-0.0621378,-0.949502,-4.2611,0.152355,
2,1,0,1,0,6671.03,0.154113,0.153816,0.109684,6,0.00835402,11,1.68712e-05,-3.95986,-0.0637154,-0.925993,-3.95974,0.153816,
2,1,0,1,0,6672.53,0.155611,0.155304,0.104164,6,0.00854283,11,1.61771e-05,-3.98228,-0.0596812,-0.988586,-3.98196,0.155304,
2,1,0,1,0,6674.03,0.15711,0.15684,0.0976604,6,0.00872246,11,1.5317e-05,-4.01028,-0.0507496,-1.16257,-4.40819,0.15684,
2,1,0,1,0,6675.53,0.158608,0.158279,0.0919569,6,0.00889309,11,1.45548e-05,-4.03642,-0.0613821,-0.961193,-3.45228,0.158279,
2,1,0,1,0,6677.02,0.160106,0.159765,0.0862302,6,0.0090546,11,1.37766e-05,-4.06434,-0.0609347,-0.96825,-3.29667,0.159765,
2,1,0,1,0,6678.52,0.161604,0.161287,0.0815935,6,0.00920942,11,1.316e-05,-4.08834,-0.0637458,-0.925552,-2.95564,0.161287,
2,1,0,1,0,6680.02,0.163102,0.162818,0.077763,6,0.0093574,11,1.26612e-05,-4.10923,-0.0637019,-0.92619,-2.80315,0.162818,
2,1,0,1,0,6681.52,0.164601,0.16428,0.0732753,6,0.00949915,11,1.20377e-05,-4.13504,-0.0673206,-0.876403,-2.51639,0.16428,
2,1,0,1,0,6683.02,0.166099,0.165814,0.0699499,6,0.00963464,11,1.15987e-05,-4.15521,-0.0759332,-0.776998,-2.12796,0.165814,
2,1,0,1,0,6684.52,0.167597,0.167293,0.0670972,6,0.00976588,11,1.12249e-05,-4.1733,-0.087658,-0.673071,-1.76283,0.1672931,
2,1,0,1,0,6686.01,0.169095,0.16877,0.0649165,6,0.009893,11,1.0956e-05,-4.18764,-0.0857596,-0.68797,-1.73408,0.16877,
2,1,0,1,0,6687.51,0.170593,0.170352,0.0622568,6,0.0100161,11,1.06056e-05,-4.20581,-0.0955614,-0.617404,-1.50995,0.170352,
2,1,0,1,0,6689.01,0.172091,0.171793,0.0598369,6,0.0101354,11,1.02796e-05,-4.22303,-0.107287,-0.549928,-1.29804,0.171793,
2,1,0,1,0,6690.51,0.17359,0.173296,0.0580259,6,0.0102521,11,1.00557e-05,-4.23638,-0.113927,-0.517874,-1.17648,0.173296,
2,1,0,1,0,6692.01,0.175088,0.174793,0.0569045,6,0.0103662,11,9.94653e-06,-4.24485,-0.141593,-0.416686,-0.925997,0.174793,
2,1,0,1,0,6693.5,0.176586,0.176308,0.0552291,6,0.010478,11,9.73731e-06,-4.25783,-0.151529,-0.389365,-0.845185,0.176308,
2,1,0,1,0,6695,0.178084,0.177799,0.0537336,6,0.0105877,11,9.55375e-06,-4.26975,-0.142058,-0.415325,-0.879003,0.177799,
2,1,0,1,0,6696.5,0.179582,0.179282,0.0528697,6,0.0106954,11,9.47859e-06,-4.27679,-0.189253,-0.311752,-0.646789,0.179282,
2,1,0,1,0,6698,0.181081,0.180782,0.0525207,6,0.0108018,11,9.49477e-06,-4.27967,-0.217228,-0.271604,-0.553244,0.180782,
2,1,0,1,0,6699.5,0.182579,0.182283,0.0509525,6,0.0109066,11,9.28778e-06,-4.29283,-0.164557,-0.358538,-0.71619,0.182283,
2,1,0,1,0,6701,0.184077,0.183779,0.0507651,6,0.0110101,11,9.32957e-06,-4.29444,-0.275695,-0.214004,-0.423977,0.183779,
2,1,0,1,0,6702.49,0.185575,0.185285,0.0491071,6,0.0111121,11,9.09882e-06,-4.30886,-0.236434,-0.249541,-0.48295,0.185285,
2,1,0,1,0,6703.99,0.187073,0.186804,0.0492864,6,0.0112132,11,9.20688e-06,-4.30727,-0.255666,-0.23077,-0.442426,0.186804,
2,1,0,1,0,6705.49,0.188572,0.18828,0.0488116,6,0.0113135,11,9.19023e-06,-4.31148,-0.480219,-0.12286,-0.232353,0.18828,
2,1,0,1,0,6706.99,0.19007,0.189742,0.0483765,6,0.011413,11,9.17906e-06,-4.31537,-0.396261,-0.148892,-0.279343,0.189742,
2,1,0,1,0,6708.49,0.191568,0.191226,0.0478725,6,0.0115115,11,9.15444e-06,-4.31991,-0.311151,-0.189618,-0.352691,0.191226,
2,1,0,1,0,6709.99,0.193066,0.192765,0.0469286,6,0.0116097,11,9.0462e-06,-4.32856,1.96515,0.0300231,0.0554596,0.192765,
2,1,0,1,0,6711.48,0.194564,0.194275,0.046517,6,0.0117074,11,9.03709e-06,-4.33239,-0.294522,-0.200324,-0.369525,0.194275,
2,1,0,1,0,6712.98,0.196063,0.195733,0.0466436,6,0.0118044,11,9.12969e-06,-4.33121,-0.526494,-0.112062,-0.205861,0.1957332,
2,1,0,1,0,6714.48,0.197561,0.197243,0.0461741,6,0.0119008,11,9.10752e-06,-4.3356,-0.854131,-0.069076,-0.125855,0.197243,
2,1,0,1,0,6715.98,0.199059,0.198706,0.0462756,6,0.0119968,11,9.19522e-06,-4.33465,-0.675878,-0.0872938,-0.157652,0.198706,
2,1,0,1,0,6717.48,0.200557,0.200252,0.0459803,6,0.0120926,11,9.20764e-06,-4.33743,-2.08603,-0.0282834,-0.0510117,0.200252,
2,1,0,1,0,6718.97,0.202055,0.201745,0.0457472,6,0.0121881,11,9.22925e-06,-4.33964,-24.136,-0.00244448,-0.00438152,0.201745,
2,1,0,1,0,6720.47,0.203554,0.203255,0.0451385,6,0.0122833,11,9.17462e-06,-4.34545,-0.76692,-0.0769311,-0.137527,0.203255,
2,1,0,1,0,6721.97,0.205052,0.204728,0.0452637,6,0.012378,11,9.26673e-06,-4.34425,0.470602,0.125371,0.224734,0.204728,
2,1,0,1,0,6723.47,0.20655,0.206247,0.0457897,6,0.0124727,11,9.44399e-06,-4.33923,0.871717,0.0676826,0.120395,0.206247,
2,1,0,1,0,6724.97,0.208048,0.207757,0.0455717,6,0.0125679,11,9.46785e-06,-4.3413,-13.462,-0.00438272,-0.00780888,0.2077571,
2,1,0,1,0,6726.47,0.209546,0.209229,0.045976,6,0.0126626,11,9.61951e-06,-4.33747,-0.797311,-0.0739988,-0.131227,0.209229,
2,1,0,1,0,6727.96,0.211044,0.210754,0.0452889,6,0.0127569,11,9.54481e-06,-4.34401,-1.41628,-0.0416584,-0.0735339,0.210754,
2,1,0,1,0,6729.46,0.212543,0.212278,0.0451768,6,0.0128513,11,9.59002e-06,-4.34508,-0.646571,-0.0912506,-0.161712,0.212278,
2,1,0,1,0,6730.96,0.214041,0.213751,0.0453646,6,0.0129456,11,9.69672e-06,-4.34328,-8.40295,-0.00702134,-0.0124331,0.213751,
2,1,0,1,0,6732.46,0.215539,0.215229,0.0454653,6,0.0130398,11,9.78543e-06,-4.34232,-1.05805,-0.0557629,-0.0986269,0.215229,
2,1,0,1,0,6733.96,0.217037,0.216745,0.0446412,6,0.0131339,11,9.67577e-06,-4.35026,1.00466,0.0587261,0.104402,0.216745,
2,1,0,1,0,6735.45,0.218535,0.218212,0.0453513,6,0.0132281,11,9.89619e-06,-4.34341,0.946323,0.0623466,0.110105,0.218212,
2,1,0,1,0,6736.95,0.220034,0.219736,0.0452325,6,0.0133226,11,9.93918e-06,-4.34455,0.714588,0.0825651,0.146563,0.219736,
2,1,0,1,0,6738.45,0.221532,0.221246,0.0458892,6,0.0134169,11,1.01528e-05,-4.33829,4.16875,0.0141529,0.0251141,0.221246,
2,1,0,1,0,6739.95,0.22303,0.222772,0.0451608,6,0.0135113,11,1.00605e-05,-4.34524,1.06132,0.055591,0.0988379,0.2227715,
2,1,0,1,0,6741.45,0.224528,0.224248,0.0455549,6,0.0136058,11,1.02156e-05,-4.34147,0.995269,0.0592805,0.105622,0.224248,
2,1,0,1,0,6742.95,0.226026,0.225715,0.0461358,6,0.0137005,11,1.04136e-05,-4.33596,-14.9839,-0.00393755,-0.00708352,0.225715,
2,1,0,1,0,6744.44,0.227525,0.227223,0.045837,6,0.0137952,11,1.04152e-05,-4.33878,-2.19055,-0.0269339,-0.0484676,0.227223,
2,1,0,1,0,6745.94,0.229023,0.228729,0.0453665,6,0.0138899,11,1.03766e-05,-4.34326,-5.25573,-0.0112258,-0.0200786,0.228729,
2,1,0,1,0,6747.44,0.230521,0.230213,0.046043,6,0.0139845,11,1.05997e-05,-4.33684,0.907831,0.06499,0.117421,0.230213,
2,1,0,1,0,6748.94,0.232019,0.231744,0.0460326,6,0.0140796,11,1.06678e-05,-4.33693,1.51335,0.0389864,0.0704555,0.231744,
2,1,0,1,0,6750.44,0.233517,0.233243,0.0460452,6,0.0141748,11,1.07397e-05,-4.33682,-3.37231,-0.0174954,-0.0316381,0.233243,
2,1,0,1,0,6751.93,0.235016,0.234714,0.0462732,6,0.01427,11,1.0861e-05,-4.33467,0.558198,0.105697,0.191078,0.234714,
2,1,0,1,0,6753.43,0.236514,0.236227,0.0461946,6,0.0143652,11,1.09124e-05,-4.33541,0.482314,0.122327,0.221543,0.236227,
2,1,0,1,0,6754.93,0.238012,0.237754,0.0468479,6,0.0144608,11,1.11383e-05,-4.32931,1.96505,0.0300247,0.0545555,0.237754,
2,1,0,1,0,6756.43,0.23951,0.239236,0.0465219,6,0.0145567,11,1.11297e-05,-4.33234,1.03652,0.0569212,0.104293,0.239236,
2,1,0,1,0,6757.93,0.241008,0.240722,0.0468496,6,0.0146527,11,1.12777e-05,-4.32929,-22.3058,-0.00264505,-0.00483974,0.240722,
2,1,0,1,0,6759.43,0.242506,0.24221,0.0469264,6,0.0147486,11,1.1366e-05,-4.32858,2.98458,0.0197683,0.0362908,0.24221,
2,1,0,1,0,6760.92,0.244005,0.243735,0.047034,6,0.0148448,11,1.14638e-05,-4.32759,0.414023,0.142504,0.263531,0.243735,
2,1,0,1,0,6762.42,0.245503,0.24525,0.0473146,6,0.0149414,11,1.16039e-05,-4.325,1.3425,0.0439478,0.0810299,0.24525,
2,1,0,1,0,6763.92,0.247001,0.24667,0.0471335,6,0.0150379,11,1.16264e-05,-4.32667,59.9087,0.000984832,0.00182969,0.24667,
2,1,0,1,0,6765.42,0.248499,0.24823,0.0472439,6,0.0151346,11,1.17273e-05,-4.32565,1.5633,0.0377408,0.0696705,0.24823,
2,1,0,1,0,6766.92,0.249997,0.249712,0.0472121,6,0.0152313,11,1.17894e-05,-4.32595,-0.970938,-0.060766,-0.113491,0.249712,
2,1,0,1,0,6768.41,0.251496,0.25118,0.0476095,6,0.0153284,11,1.19585e-05,-4.32231,1.57538,0.0374512,0.0698803,0.25118,
2,1,0,1,0,6769.91,0.252994,0.252698,0.0477614,6,0.0154258,11,1.20692e-05,-4.32092,14.734,0.00400433,0.00747918,0.252698,
2,1,0,1,0,6771.41,0.254492,0.254186,0.0477611,6,0.0155232,11,1.21402e-05,-4.32093,1.80402,0.0327048,0.0614427,0.254186,
2,1,0,1,0,6772.91,0.25599,0.255717,0.0482337,6,0.0156207,11,1.23342e-05,-4.31665,0.689491,0.0855704,0.161478,0.255717,
2,1,0,1,0,6774.41,0.257488,0.257208,0.0482829,6,0.0157186,11,1.24187e-05,-4.31621,41.3909,0.00142544,0.00270303,0.257208,
2,1,0,1,0,6775.91,0.258987,0.258717,0.0488435,6,0.0158167,11,1.26367e-05,-4.31119,0.555275,0.106254,0.199665,0.258717,
2,1,0,1,0,6777.4,0.260485,0.260219,0.0485662,6,0.0159147,11,1.26379e-05,-4.31367,0.387136,0.152401,0.288391,0.2602188,
2,1,0,1,0,6778.9,0.261983,0.261723,0.0487402,6,0.0160129,11,1.27564e-05,-4.31211,1.45968,0.0404197,0.0765474,0.2617234,
2,1,0,1,0,6780.4,0.263481,0.263201,0.0490991,6,0.0161115,11,1.29229e-05,-4.30893,-38.2288,-0.00154334,-0.00295528,0.263201,
2,1,0,1,0,6781.9,0.264979,0.264648,0.0491941,6,0.0162103,11,1.30191e-05,-4.30809,0.758227,0.0778131,0.149851,0.264648,
2,1,0,1,0,6783.4,0.266477,0.266213,0.0494573,6,0.0163093,11,1.31662e-05,-4.30577,0.951918,0.0619801,0.119613,0.266213,
2,1,0,1,0,6784.89,0.267976,0.267721,0.0496381,6,0.0164084,11,1.32892e-05,-4.30418,1.76143,0.0334956,0.0647779,0.267721,
2,1,0,1,0,6786.39,0.269474,0.269181,0.0494107,6,0.0165079,11,1.33004e-05,-4.30618,1.30002,0.0453839,0.0874513,0.269181,
2,1,0,1,0,6787.89,0.270972,0.270705,0.0500289,6,0.0166076,11,1.35431e-05,-4.30078,0.611385,0.0965023,0.187222,0.270705,
2,1,0,1,0,6789.39,0.27247,0.272197,0.0499223,6,0.0167076,11,1.35887e-05,-4.30171,-3.65834,-0.0161276,-0.0311437,0.272197,
2,1,0,1,0,6790.89,0.273968,0.273661,0.0496132,6,0.0168075,11,1.35772e-05,-4.3044,0.995012,0.0592957,0.115807,0.273661,
2,1,0,1,0,6792.39,0.275467,0.275189,0.0495016,6,0.0169075,11,1.36223e-05,-4.30538,1.00003,0.0589984,0.115237,0.275189,
2,1,0,1,0,6793.88,0.276965,0.276676,0.0503422,6,0.017008,11,1.39285e-05,-4.29807,2.15376,0.027394,0.0536351,0.276676,
2,1,0,1,0,6795.38,0.278463,0.278205,0.0502606,6,0.0171087,11,1.39828e-05,-4.29877,0.572465,0.103063,0.202182,0.278205,
2,1,0,1,0,6796.88,0.279961,0.279679,0.0502034,6,0.0172094,11,1.40409e-05,-4.29927,1.92097,0.0307136,0.0606056,0.279679,
2,1,0,1,0,6798.38,0.281459,0.281172,0.0501574,6,0.0173101,11,1.41029e-05,-4.29966,2.47528,0.0238357,0.0470975,0.281172,
2,1,0,1,0,6799.88,0.282958,0.28267,0.0509672,6,0.0174114,11,1.44069e-05,-4.29271,1.07478,0.054895,0.108803,0.28267,
2,1,0,1,0,6801.37,0.284456,0.284138,0.0511416,6,0.0175129,11,1.45313e-05,-4.29123,1.97868,0.0298178,0.0592863,0.284138,
2,1,0,1,0,6802.87,0.285954,0.285644,0.0510496,6,0.0176145,11,1.4582e-05,-4.29201,1.61384,0.0365589,0.0730896,0.285644,
2,1,0,1,0,6804.37,0.287452,0.287124,0.0509608,6,0.0177162,11,1.46321e-05,-4.29276,0.795059,0.0742084,0.148376,0.287124,
2,1,0,1,0,6805.87,0.28895,0.288666,0.0512573,6,0.017818,11,1.47963e-05,-4.29024,0.896465,0.0658141,0.132166,0.288666,
2,1,0,1,0,6807.37,0.290448,0.290173,0.0513281,6,0.0179201,11,1.4894e-05,-4.28965,-2.7894,-0.0211515,-0.0426417,0.290173,
2,1,0,1,0,6808.87,0.291947,0.291676,0.0517024,6,0.0180223,11,1.50803e-05,-4.28649,2.10342,0.0280495,0.0564926,0.2916756,
2,1,0,1,0,6810.36,0.293445,0.293123,0.051448,6,0.0181245,11,1.50806e-05,-4.28863,0.642172,0.0918757,0.18544,0.293123,
2,1,0,1,0,6811.86,0.294943,0.294653,0.0519559,6,0.0182271,11,1.5309e-05,-4.28437,0.588544,0.100247,0.20378,0.294653,
2,1,0,1,0,6813.36,0.296441,0.29619,0.0519229,6,0.0183301,11,1.5379e-05,-4.28464,-1.77815,-0.0331805,-0.067786,0.29619,
2,1,0,1,0,6814.86,0.297939,0.297675,0.0523166,6,0.0184333,11,1.55734e-05,-4.28136,1.23463,0.0477875,0.0970947,0.297675,
2,1,0,1,0,6816.36,0.299438,0.299191,0.0526596,6,0.0185364,11,1.57552e-05,-4.27852,-0.00584386,-10.0961,-14.6178,0.299191,
2,1,0,1,0,6817.21,0.299737,0.299451,0.0306614,6,0.0185802,11,9.18156e-06,-4.51341,0.00265534,22.2194,28.5101,0.299451,
2,1,0,1,0,6818.7,0.298239,0.29798,0.0207333,6,0.0185922,11,6.17809e-06,-4.68333,0.00697607,8.45748,9.80783,0.29798,
2,1,0,1,0,6820.2,0.296741,0.296511,0.0164671,6,0.0185953,11,4.88267e-06,-4.78338,0.0146192,4.03578,2.70875,0.296511,
2,1,0,1,0,6821.7,0.295243,0.294897,0.0136411,6,0.018593,11,4.02272e-06,-4.86515,0.0180465,3.26933,1.73665,0.294897,
2,1,0,1,0,6823.2,0.293745,0.293477,0.0107713,6,0.0185869,11,3.16114e-06,-4.96773,0.0185932,3.17321,1.3699,0.293477,
2,1,0,1,0,6824.7,0.292246,0.29196,0.0089439,6,0.0185777,11,2.61126e-06,-5.04847,0.0159538,3.69819,1.35186,0.29196,
2,1,0,1,0,6826.2,0.290748,0.290438,0.00712168,6,0.0185654,11,2.06841e-06,-5.14742,0.0166268,3.54849,1.02516,0.290438,
2,1,0,1,0,6827.69,0.28925,0.288967,0.00554088,6,0.0185505,11,1.60113e-06,-5.25642,0.0120259,4.90608,1.07112,0.288967,
2,1,0,1,0,6829.19,0.287752,0.287462,0.00473392,6,0.0185334,11,1.36082e-06,-5.32478,0.0105253,5.60556,0.864197,0.287462,
2,1,0,1,0,6830.69,0.286254,0.285965,0.00299008,6,0.0185143,11,8.55061e-07,-5.52432,0.00809806,7.2857,0.86298,0.285965,
2,1,0,1,0,6832.19,0.284755,0.28447,0.0016871,6,0.0184929,11,4.79931e-07,-5.77286,0.00263392,22.4001,0.997976,0.28447,
2,1,0,1,0,6833.69,0.283257,0.282961,0.000282008,6,0.0184696,11,7.97974e-08,-6.54974,0.00799836,7.37651,0.801736,0.2829611,
2,1,0,1,0,6835.18,0.281759,0.281433,-0.000955212,6,0.0184446,11,-2.68828e-07,-6.0199,-0.00946184,-6.23558,0.778535,0.281433,
2,0,0,1,0,6836.68,0.280261,0.279969,-0.00130792,6,0.0184179,11,-3.66178e-07,-5.88342,-0.00301514,-19.5679,0.719553,0.279969,
2,1,0,1,0,6838.18,0.278763,0.278512,-0.00271163,6,0.0183897,11,-7.55221e-07,-5.56677,-0.00911948,-6.46966,0.629153,0.2785117,
2,0,0,1,0,6839.68,0.277264,0.276981,-0.00405337,6,0.0183598,11,-1.12271e-06,-5.39218,-0.0143439,-4.11323,0.532725,0.2769815,
2,1,0,1,0,6841.18,0.275766,0.275473,-0.00469968,6,0.0183284,11,-1.29463e-06,-5.32793,-0.0154415,-3.82086,0.665062,0.275473,
2,1,0,1,0,6842.68,0.274268,0.273928,-0.00528897,6,0.0182956,11,-1.4488e-06,-5.27663,-0.019502,-3.02534,0.608608,0.273928,
2,0,0,1,0,6844.17,0.27277,0.272469,-0.00619717,6,0.0182615,11,-1.68853e-06,-5.20781,-0.0239662,-2.4618,0.625198,0.272469,
2,0,0,1,0,6845.67,0.271272,0.270938,-0.00712972,6,0.0182259,11,-1.93171e-06,-5.14693,-0.0293206,-2.01224,0.55281,0.270938,
2,0,0,1,0,6847.17,0.269774,0.269457,-0.00831714,6,0.0181888,11,-2.24111e-06,-5.08003,-0.0336522,-1.75323,0.56266,0.269457,
2,0,0,1,0,6848.67,0.268275,0.267958,-0.00883255,6,0.0181506,11,-2.36675e-06,-5.05391,-0.0437554,-1.34841,0.472592,0.267958,
2,0,0,1,0,6850.17,0.266777,0.266452,-0.00944135,6,0.0181113,11,-2.51566e-06,-5.02497,-0.0375421,-1.57157,0.588746,0.266452,
2,0,0,1,0,6851.66,0.265279,0.264993,-0.0107546,6,0.0180707,11,-2.8499e-06,-4.9684,-0.05011,-1.17741,0.471979,0.264993,
2,0,0,1,0,6853.16,0.263781,0.263491,-0.0116905,6,0.0180288,11,-3.08034e-06,-4.93217,-0.0521694,-1.13093,0.499284,0.263491,
2,0,0,1,0,6854.66,0.262283,0.261972,-0.0117854,6,0.0179859,11,-3.08744e-06,-4.92866,-0.0493482,-1.19559,0.558834,0.261972,
2,0,0,1,0,6856.16,0.260784,0.260494,-0.0126566,6,0.0179419,11,-3.29698e-06,-4.89768,-0.0573674,-1.02846,0.509173,0.260494,
2,0,0,1,0,6857.66,0.259286,0.259022,-0.0129694,6,0.0178965,11,-3.35937e-06,-4.88708,-0.0610073,-0.967098,0.510637,0.259022,
2,0,0,1,0,6859.16,0.257788,0.257517,-0.0141874,6,0.0178501,11,-3.6535e-06,-4.8481,-0.0791016,-0.745876,0.413578,0.257517,
2,0,0,1,0,6860.65,0.25629,0.256,-0.0152077,6,0.0178025,11,-3.89317e-06,-4.81794,-0.0626655,-0.941507,0.549109,0.256,
2,0,0,1,0,6862.15,0.254792,0.254487,-0.0160501,6,0.0177539,11,-4.08453e-06,-4.79452,-0.0825761,-0.714492,0.437499,0.254487,
2,0,0,1,0,6863.65,0.253293,0.252973,-0.0168742,6,0.0177042,11,-4.26873e-06,-4.77278,-0.0905393,-0.651651,0.413082,0.252973,
2,0,0,1,0,6865.15,0.251795,0.251464,-0.0168656,6,0.0176534,11,-4.2411e-06,-4.773,-0.0811106,-0.727402,0.475948,0.251464,
2,0,0,1,0,6866.65,0.250297,0.250015,-0.0178349,6,0.0176016,11,-4.45899e-06,-4.74873,-0.0779833,-0.756572,0.528704,0.250015,
2,0,0,1,0,6868.14,0.248799,0.248513,-0.0181981,6,0.0175488,11,-4.52247e-06,-4.73997,-0.107819,-0.547213,0.39468,0.248513,
2,0,0,1,0,6869.64,0.247301,0.247023,-0.0190893,6,0.0174951,11,-4.7155e-06,-4.71921,-0.0878833,-0.671345,0.501887,0.247023,
2,0,0,1,0,6871.14,0.245802,0.245524,-0.0198165,6,0.0174402,11,-4.86543e-06,-4.70297,-0.106345,-0.554797,0.422368,0.245524,
2,0,0,1,0,6872.64,0.244304,0.243973,-0.0202436,6,0.017384,11,-4.9389e-06,-4.69371,-0.0962945,-0.612704,0.483733,0.243973,
2,0,0,1,0,6874.14,0.242806,0.2425,-0.0211174,6,0.0173271,11,-5.12098e-06,-4.67536,-0.130266,-0.452918,0.369922,0.2425,
2,0,0,1,0,6875.64,0.241308,0.241008,-0.0217137,6,0.0172694,11,-5.23319e-06,-4.66327,-0.122226,-0.482713,0.408355,0.241008,
2,0,0,1,0,6877.13,0.23981,0.239565,-0.0224106,6,0.0172104,11,-5.3688e-06,-4.64955,-0.112511,-0.524391,0.450737,0.239565,
2,0,0,1,0,6878.63,0.238312,0.238,-0.0226914,6,0.0171506,11,-5.40056e-06,-4.64414,-0.146083,-0.40388,0.363369,0.238,
2,0,0,1,0,6880.13,0.236813,0.236529,-0.0238223,6,0.0170896,11,-5.63466e-06,-4.62302,-0.113848,-0.518233,0.477515,0.236529,
2,0,0,1,0,6881.63,0.235315,0.235012,-0.0240528,6,0.0170279,11,-5.65269e-06,-4.61883,-0.16754,-0.352156,0.334085,0.235012,
2,0,0,1,0,6883.13,0.233817,0.233517,-0.0250264,6,0.0169651,11,-5.84407e-06,-4.6016,-0.162601,-0.362852,0.349488,0.2335166,
2,0,0,1,0,6884.62,0.232319,0.231987,-0.0257061,6,0.0169012,11,-5.96349e-06,-4.58996,-0.11969,-0.492941,0.484487,0.231987,
2,0,0,1,0,6886.12,0.230821,0.230563,-0.0256879,6,0.0168364,11,-5.92268e-06,-4.59027,-0.137183,-0.430082,0.433664,0.230563,
2,0,0,1,0,6887.62,0.229322,0.22903,-0.0268623,6,0.0167706,11,-6.15226e-06,-4.57086,-0.23103,-0.255378,0.264965,0.22903,
2,0,0,1,0,6889.12,0.227824,0.227522,-0.0270964,6,0.0167039,11,-6.16503e-06,-4.56709,-0.184898,-0.319094,0.341798,0.227522,
2,0,0,1,0,6890.62,0.226326,0.226008,-0.028229,6,0.0166362,11,-6.37997e-06,-4.5493,-0.18206,-0.324068,0.354938,0.2260078,
2,0,0,1,0,6892.12,0.224828,0.224561,-0.028524,6,0.0165673,11,-6.40539e-06,-4.54479,-0.130076,-0.453582,0.506833,0.224561,
2,0,0,1,0,6893.61,0.22333,0.223026,-0.029659,6,0.0164974,11,-6.61474e-06,-4.52784,-0.241637,-0.244168,0.27956,0.223026,
2,0,0,1,0,6895.11,0.221831,0.221551,-0.0302386,6,0.0164268,11,-6.69939e-06,-4.51944,-0.203863,-0.28941,0.344295,0.221551,
2,0,0,1,0,6896.61,0.220333,0.220039,-0.0309479,6,0.016355,11,-6.80973e-06,-4.50937,-0.157648,-0.374251,0.448537,0.220039,
2,0,0,1,0,6898.11,0.218835,0.218572,-0.0312261,6,0.0162819,11,-6.82517e-06,-4.50548,-0.159317,-0.370331,0.453402,0.218572,
2,0,0,1,0,6899.61,0.217337,0.217035,-0.0320244,6,0.0162079,11,-6.95041e-06,-4.49452,-0.222047,-0.26571,0.332151,0.217035,
2,0,0,1,0,6901.1,0.215839,0.215566,-0.0329194,6,0.0161333,11,-7.0963e-06,-4.48255,-0.164181,-0.359359,0.459183,0.215566,
2,0,0,1,0,6902.6,0.21434,0.214049,-0.0331979,6,0.0160572,11,-7.10596e-06,-4.47889,-0.130991,-0.450412,0.587583,0.214049,
2,0,0,1,0,6904.1,0.212842,0.212558,-0.0342552,6,0.01598,11,-7.28121e-06,-4.46527,-0.177581,-0.332242,0.444303,0.212558,
2,0,0,1,0,6905.6,0.211344,0.211068,-0.0350157,6,0.0159017,11,-7.39069e-06,-4.45574,-0.173809,-0.339453,0.463811,0.211068,
2,0,0,1,0,6907.1,0.209846,0.209569,-0.0352906,6,0.0158224,11,-7.39584e-06,-4.45234,-0.176892,-0.333536,0.463954,0.209569,
2,0,0,1,0,6908.6,0.208348,0.208016,-0.0364428,6,0.015742,11,-7.58069e-06,-4.43839,-0.161439,-0.365462,0.521692,0.208016,
2,0,0,1,0,6910.09,0.20685,0.206502,-0.0371082,6,0.0156601,11,-7.6629e-06,-4.43053,-0.237326,-0.248603,0.358195,0.206502,
2,0,0,1,0,6911.59,0.205351,0.205081,-0.0380792,6,0.015577,11,-7.8093e-06,-4.41931,-0.233488,-0.25269,0.373094,0.205081,
2,0,0,1,0,6913.09,0.203853,0.203529,-0.0388599,6,0.015493,11,-7.90913e-06,-4.4105,-0.116691,-0.50561,0.764448,0.203529,
2,0,0,1,0,6914.59,0.202355,0.202077,-0.039332,6,0.0154079,11,-7.94808e-06,-4.40525,-0.151658,-0.389033,0.598983,0.202077,
2,0,0,1,0,6916.09,0.200857,0.20056,-0.0401415,6,0.0153213,11,-8.05079e-06,-4.39641,-0.163688,-0.360442,0.569103,0.20056,
2,0,0,1,0,6917.58,0.199359,0.199074,-0.0412411,6,0.0152333,11,-8.21001e-06,-4.38467,-0.161489,-0.365349,0.58813,0.199074,
2,0,0,1,0,6919.08,0.19786,0.197568,-0.042393,6,0.0151442,11,-8.37549e-06,-4.37271,-0.136365,-0.432663,0.708434,0.197568,
2,0,0,1,0,6920.58,0.196362,0.196058,-0.0429927,6,0.0150538,11,-8.42905e-06,-4.3666,-0.171506,-0.344012,0.577039,0.196058,
2,0,0,1,0,6922.08,0.194864,0.194556,-0.0438907,6,0.0149617,11,-8.5392e-06,-4.35763,-0.148139,-0.398275,0.679926,0.194556,
2,0,0,1,0,6923.58,0.193366,0.193024,-0.0451303,6,0.0148678,11,-8.71122e-06,-4.34553,-0.160121,-0.368472,0.64438,0.193024,
2,0,0,1,0,6925.08,0.191868,0.191564,-0.0462499,6,0.0147727,11,-8.85979e-06,-4.33489,-0.185947,-0.317295,0.576806,0.191564,
2,0,0,1,0,6926.57,0.190369,0.190058,-0.0468784,6,0.0146763,11,-8.90961e-06,-4.32903,-0.155551,-0.379296,0.696412,0.190058,
2,0,0,1,0,6928.07,0.188871,0.188582,-0.0483055,6,0.0145779,11,-9.10954e-06,-4.316,-0.136871,-0.431064,0.808249,0.188582,
2,0,0,1,0,6929.57,0.187373,0.187087,-0.0491806,6,0.0144777,11,-9.20104e-06,-4.30821,-0.139325,-0.423471,0.814896,0.187087,
2,0,0,1,0,6931.07,0.185875,0.185594,-0.0508121,6,0.0143755,11,-9.4304e-06,-4.29403,-0.139544,-0.422805,0.83552,0.185594,
2,0,0,1,0,6932.57,0.184377,0.18408,-0.0513322,6,0.0142716,11,-9.44925e-06,-4.28961,-0.134929,-0.437268,0.882009,0.18408,
2,0,0,1,0,6934.07,0.182878,0.182606,-0.0530224,6,0.0141657,11,-9.68224e-06,-4.27554,-0.154584,-0.381668,0.79082,0.182606,
2,0,0,1,0,6935.56,0.18138,0.18104,-0.0546432,6,0.0140573,11,-9.89263e-06,-4.26246,-0.118225,-0.499047,1.05427,0.18104,
2,0,0,1,0,6937.06,0.179882,0.179531,-0.0559294,6,0.0139467,11,-1.00411e-05,-4.25236,-0.144521,-0.408246,0.888728,0.179531,
2,0,0,1,0,6938.56,0.178384,0.178067,-0.0572221,6,0.0138336,11,-1.01894e-05,-4.24244,-0.138104,-0.427216,0.964019,0.178067,
2,0,0,1,0,6940.06,0.176886,0.176596,-0.0596697,6,0.0137182,11,-1.05374e-05,-4.22425,-0.124702,-0.473128,1.09483,0.176596,
2,0,0,1,0,6941.56,0.175388,0.17506,-0.0608623,6,0.0135996,11,-1.06545e-05,-4.21565,-0.102641,-0.574817,1.37218,0.17506,
2,0,0,1,0,6943.05,0.173889,0.173562,-0.0634659,6,0.013478,11,-1.10153e-05,-4.19746,-0.117568,-0.501838,1.23305,0.173562,
2,0,0,1,0,6944.55,0.172391,0.172104,-0.0649001,6,0.0133532,11,-1.11696e-05,-4.18775,-0.100351,-0.587939,1.49549,0.172104,
2,0,0,1,0,6946.05,0.170893,0.170607,-0.0677008,6,0.013225,11,-1.15502e-05,-4.16941,-0.089314,-0.660591,1.74355,0.1706069,
2,0,0,1,0,6947.55,0.169395,0.169099,-0.0704618,6,0.0130927,11,-1.1915e-05,-4.15205,-0.0879758,-0.670639,1.85107,0.169099,
2,0,0,1,0,6949.05,0.167897,0.167596,-0.0731824,6,0.0129559,11,-1.22651e-05,-4.13559,-0.0796437,-0.740799,2.13239,0.167596,
2,0,0,1,0,6950.55,0.166398,0.166116,-0.0758875,6,0.0128147,11,-1.26061e-05,-4.11983,-0.0773579,-0.762689,2.28986,0.1661161,
2,0,0,1,0,6952.04,0.1649,0.164587,-0.0799559,6,0.0126688,11,-1.31597e-05,-4.09715,-0.0741211,-0.795994,2.49553,0.164587,
2,0,0,1,0,6953.54,0.163402,0.163121,-0.084075,6,0.0125168,11,-1.37144e-05,-4.07533,-0.0628636,-0.93854,3.07507,0.163121,
2,0,0,1,0,6955.04,0.161904,0.161631,-0.0887211,6,0.0123588,11,-1.434e-05,-4.05197,-0.0704181,-0.837853,2.89611,0.161631,
2,0,0,1,0,6956.54,0.160406,0.160115,-0.0927532,6,0.0121936,11,-1.48512e-05,-4.03267,-0.0623993,-0.945524,3.43525,0.160115,
2,0,0,1,0,6958.04,0.158907,0.158621,-0.0977465,6,0.0120215,11,-1.55047e-05,-4.0099,-0.0638719,-0.923724,3.55566,0.158621,
2,0,0,1,0,6959.53,0.157409,0.157105,-0.104064,6,0.0118413,11,-1.63489e-05,-3.9827,-0.0623616,-0.946095,3.83802,0.157105,
2,0,0,1,0,6961.03,0.155911,0.155588,-0.11015,6,0.0116516,11,-1.7138e-05,-3.95802,-0.0606677,-0.972512,4.18809,0.155588,
2,0,0,1,0,6962.53,0.154413,0.154093,-0.116353,6,0.0114524,11,-1.79292e-05,-3.93422,-0.0647682,-0.910941,4.13191,0.154093,
2,0,0,1,0,6964.03,0.152915,0.152653,-0.122637,6,0.0112436,11,-1.87209e-05,-3.91138,-0.0628923,-0.938112,4.51301,0.152653,
2,0,0,1,0,6965.53,0.151417,0.151119,-0.130139,6,0.0110249,11,-1.96665e-05,-3.88559,-0.0623881,-0.945694,4.81366,0.151119,
2,0,0,1,0,6967.03,0.149918,0.149633,-0.137448,6,0.0107948,11,-2.05668e-05,-3.86186,-0.065053,-0.906953,4.85346,0.149633,
2,0,0,1,0,6968.52,0.14842,0.148094,-0.144819,6,0.0105534,11,-2.14469e-05,-3.83917,-0.0698002,-0.84527,4.76273,0.148094,
2,0,0,1,0,6970.02,0.146922,0.1466,-0.152323,6,0.0103016,11,-2.23307e-05,-3.81723,-0.0773523,-0.762744,4.48819,0.1466,
2,0,0,1,0,6971.52,0.145424,0.145098,-0.157708,6,0.0100401,11,-2.28831e-05,-3.80215,-0.0821865,-0.71788,4.41183,0.145098,
2,0,0,1,0,6973.02,0.143926,0.143631,-0.164543,6,0.00976826,11,-2.36335e-05,-3.78372,-0.0865985,-0.681305,4.3533,0.143631,
2,0,0,1,0,6974.52,0.142427,0.142111,-0.170057,6,0.00948658,11,-2.41669e-05,-3.76941,-0.103139,-0.572042,3.79849,0.1421106,
2,0,0,1,0,6976.01,0.140929,0.140634,-0.175506,6,0.00919736,11,-2.4682e-05,-3.75571,-0.135761,-0.434588,2.98468,0.140634,
2,0,0,1,0,6977.51,0.139431,0.139148,-0.178796,6,0.00890173,11,-2.4879e-05,-3.74764,-0.144399,-0.408591,2.85453,0.1391478,
2,0,0,1,0,6979.01,0.137933,0.137634,-0.183609,6,0.00859991,11,-2.52708e-05,-3.7361,-0.173827,-0.339417,2.41273,0.137634,
2,0,0,1,0,6980.51,0.136435,0.136163,-0.186265,6,0.00829289,11,-2.53624e-05,-3.72987,-0.269236,-0.219138,1.58556,0.136163,
2,0,0,1,0,6982.01,0.134936,0.134644,-0.187867,6,0.0079823,11,-2.52953e-05,-3.72615,-0.38661,-0.152608,1.11355,0.134644,
2,0,0,1,0,6983.51,0.133438,0.133126,-0.188628,6,0.0076694,11,-2.51112e-05,-3.72439,-0.623619,-0.0946091,0.6982,0.133126,
2,0,0,1,0,6985,0.13194,0.131616,-0.190478,6,0.00735555,11,-2.507e-05,-3.72015,-2.21694,-0.0266133,0.197249,0.1316157,
2,0,0,1,0,6986.5,0.130442,0.130135,-0.18967,6,0.00704049,11,-2.46828e-05,-3.722,2.54283,0.0232025,-0.171483,0.130135,
2,0,0,1,0,6988,0.128944,0.128649,-0.189091,6,0.00672565,11,-2.43263e-05,-3.72333,0.530692,0.111176,-0.81896,0.128649,
2,0,0,1,0,6989.5,0.127445,0.127122,-0.18798,6,0.00641224,11,-2.38964e-05,-3.72589,0.474184,0.124424,-0.915512,0.1271217,
2,0,0,1,0,6991,0.125947,0.125597,-0.188152,6,0.00610149,11,-2.36313e-05,-3.72549,0.384504,0.153444,-1.12142,0.125597,
2,0,0,1,0,6992.49,0.124449,0.124158,-0.186079,6,0.00579203,11,-2.31032e-05,-3.7303,0.372931,0.158206,-1.14405,0.124158,
2,0,0,1,0,6993.99,0.122951,0.122681,-0.184272,6,0.00548493,11,-2.26066e-05,-3.73454,0.363337,0.162384,-1.16356,0.122681,
2,0,0,1,0,6995.49,0.121453,0.121146,-0.181608,6,0.005181,11,-2.20012e-05,-3.74086,0.333519,0.176901,-1.25238,0.121146,
2,0,0,1,0,6996.99,0.119955,0.119669,-0.178582,6,0.00488148,11,-2.13708e-05,-3.74816,0.280668,0.210213,-1.47353,0.119669,
2,0,0,1,0,6998.49,0.118456,0.118106,-0.176554,6,0.00458498,11,-2.08521e-05,-3.75312,0.308413,0.191302,-1.31564,0.118106,
2,0,0,1,0,6999.99,0.116958,0.116659,-0.174175,6,0.0042915,11,-2.03191e-05,-3.75901,0.261422,0.225688,-1.53988,0.116659,
2,0,0,1,0,7001.48,0.11546,0.115164,-0.171385,6,0.00400284,11,-1.97373e-05,-3.76603,0.198094,0.297838,-2.00307,0.115164,
2,0,0,1,0,7002.98,0.113962,0.113704,-0.167966,6,0.00371834,11,-1.90985e-05,-3.77478,0.216645,0.272335,-1.79152,0.113704,
2,0,0,1,0,7004.48,0.112464,0.112164,-0.166213,6,0.00343813,11,-1.86431e-05,-3.77933,0.184017,0.320622,-2.0735,0.112164,
2,0,0,1,0,7005.98,0.110965,0.110678,-0.163292,6,0.00316161,11,-1.80728e-05,-3.78703,0.199165,0.296237,-1.88598,0.110678,
2,0,0,1,0,7007.48,0.109467,0.109175,-0.160738,6,0.00288916,11,-1.75487e-05,-3.79388,0.183754,0.321081,-2.0092,0.109175,
2,0,0,1,0,7008.97,0.107969,0.107679,-0.15721,6,0.00262133,11,-1.69283e-05,-3.80352,0.193932,0.30423,-1.88549,0.107679,
2,0,0,1,0,7010.47,0.106471,0.106199,-0.155278,6,0.00235759,11,-1.64903e-05,-3.80889,0.257815,0.228846,-1.39257,0.106199,
2,0,0,1,0,7011.97,0.104973,0.104695,-0.152673,6,0.00209684,11,-1.59842e-05,-3.81624,0.231371,0.255002,-1.52778,0.104695,
2,0,0,1,0,7013.47,0.103474,0.103171,-0.151257,6,0.00183905,11,-1.56054e-05,-3.82028,0.21213,0.278131,-1.63338,0.103171,
2,0,0,1,0,7014.97,0.101976,0.101678,-0.149102,6,0.00158507,11,-1.51604e-05,-3.82652,0.26953,0.218899,-1.27449,0.101678,
2,0,0,1,0,7016.47,0.100478,0.100178,-0.147087,6,0.00133467,11,-1.47348e-05,-3.83243,0.278509,0.211843,-1.21737,0.100178,
2,0,0,1,0,7017.96,0.0989798,0.0986699,-0.145293,6,0.00108636,11,-1.4336e-05,-3.83776,0.285658,0.206541,-1.17178,0.0986699,
2,0,0,1,0,7019.46,0.0974816,0.0971917,-0.143727,6,0.00084079,11,-1.39691e-05,-3.84246,0.304194,0.193955,-1.08984,0.0971917,
2,0,0,1,0,7020.96,0.0959834,0.0956987,-0.141429,6,0.000597591,11,-1.35346e-05,-3.84946,0.43678,0.135079,-0.751517,0.0956987,
2,0,0,1,0,7022.46,0.0944852,0.0941664,-0.14082,6,0.000357375,11,-1.32605e-05,-3.85134,0.362556,0.162734,-0.896582,0.0941664,
2,0,0,1,0,7023.96,0.0929871,0.0926765,-0.138904,6,0.000118252,11,-1.28732e-05,-3.85728,0.556371,0.106044,-0.574693,0.0926765,
2,0,0,1,0,7025.45,0.0914889,0.0911581,-0.138985,6,-0.00011911,11,-1.26696e-05,-3.85703,0.386912,0.15249,-0.826791,0.0911581,
2,0,0,1,0,7026.95,0.0899907,0.0896724,-0.137685,6,-0.000354304,11,-1.23466e-05,-3.86111,0.393374,0.149985,-0.803092,0.0896724,
2,0,0,1,0,7028.45,0.0884925,0.0881815,-0.135451,6,-0.000587719,11,-1.19443e-05,-3.86822,0.465873,0.126644,-0.67103,0.0881815,
2,0,0,1,0,7029.95,0.0869943,0.0866726,-0.135004,6,-0.000819396,11,-1.17011e-05,-3.86965,0.398013,0.148236,-0.779263,0.0866726,
2,0,0,1,0,7031.45,0.0854961,0.0851805,-0.133923,6,-0.00104957,11,-1.14076e-05,-3.87314,0.500629,0.117852,-0.616014,0.0851805,
2,0,0,1,0,7032.95,0.083998,0.0837257,-0.133114,6,-0.00127831,11,-1.1145e-05,-3.87578,0.327976,0.179891,-0.931359,0.0837257,
2,0,0,1,0,7034.44,0.0824998,0.0821892,-0.132174,6,-0.0015055,11,-1.08633e-05,-3.87885,0.410732,0.143646,-0.740932,0.0821892,
2,0,0,1,0,7035.94,0.0810016,0.0807365,-0.130534,6,-0.00173059,11,-1.05388e-05,-3.88428,0.545117,0.108234,-0.554857,0.0807365,
2,0,0,1,0,7037.44,0.0795034,0.0791776,-0.1298,6,-0.00195452,11,-1.02772e-05,-3.88673,0.44773,0.131776,-0.66834,0.0791776,
2,0,0,1,0,7038.94,0.0780052,0.0776973,-0.129106,6,-0.00217714,11,-1.00312e-05,-3.88905,0.493414,0.119575,-0.599206,0.0776973,
2,0,0,1,0,7040.44,0.076507,0.0761999,-0.12779,6,-0.00239805,11,-9.73755e-06,-3.8935,0.370017,0.159452,-0.795579,0.0761999,
2,0,0,1,0,7041.93,0.0750088,0.0747398,-0.127093,6,-0.00261677,11,-9.49891e-06,-3.89588,0.42782,0.137908,-0.68251,0.0747398,
2,0,0,1,0,7043.43,0.0735106,0.0731821,-0.126036,6,-0.00283439,11,-9.2236e-06,-3.8995,0.40737,0.144831,-0.709712,0.0731821,
2,0,0,1,0,7044.93,0.0720124,0.07169,-0.12434,6,-0.00305027,11,-8.9139e-06,-3.90539,0.405042,0.145664,-0.710492,0.07169003,
2,0,0,1,0,7046.43,0.0705142,0.0701927,-0.12336,6,-0.00326434,11,-8.65897e-06,-3.90883,0.39678,0.148697,-0.71873,0.0701927,
2,0,0,1,0,7047.93,0.069016,0.0687464,-0.121915,6,-0.00347631,11,-8.38119e-06,-3.91394,0.335424,0.175897,-0.840227,0.0687464,
2,0,0,1,0,7049.43,0.0675178,0.0672003,-0.120939,6,-0.00368685,11,-8.12716e-06,-3.91743,0.420439,0.14033,-0.66166,0.0672003,
2,0,0,1,0,7050.92,0.0660196,0.0657347,-0.120397,6,-0.00389577,11,-7.91428e-06,-3.91938,0.368321,0.160186,-0.747723,0.0657347,
2,0,0,1,0,7052.42,0.0645214,0.0642057,-0.119051,6,-0.00410299,11,-7.64372e-06,-3.92427,0.344941,0.171044,-0.790551,0.0642057,
2,0,0,1,0,7053.92,0.0630233,0.0627052,-0.116669,6,-0.0043079,11,-7.31578e-06,-3.93304,0.300399,0.196406,-0.899958,0.0627052,
2,0,0,1,0,7055.42,0.0615251,0.0612472,-0.116811,6,-0.00451099,11,-7.15434e-06,-3.93252,0.367789,0.160418,-0.728313,0.0612472,
2,0,0,1,0,7056.92,0.0600269,0.0597202,-0.114925,6,-0.00471232,11,-6.86333e-06,-3.93959,0.326281,0.180826,-0.814253,0.0597202,
2,0,0,1,0,7058.41,0.0585287,0.0582399,-0.11363,6,-0.00491194,11,-6.61782e-06,-3.94451,0.30266,0.194938,-0.865803,0.0582399,
2,0,0,1,0,7059.91,0.0570305,0.0567054,-0.112515,6,-0.00510986,11,-6.38022e-06,-3.94879,0.350687,0.168241,-0.741299,0.0567054,
2,0,0,1,0,7061.41,0.0555323,0.0552453,-0.111621,6,-0.00530562,11,-6.16651e-06,-3.95226,0.364986,0.16165,-0.706279,0.05524525,
2,0,0,1,0,7062.91,0.0540342,0.0537014,-0.110484,6,-0.00549989,11,-5.93314e-06,-3.9567,0.381095,0.154817,-0.666486,0.0537014,
2,0,0,1,0,7064.41,0.052536,0.0522116,-0.109637,6,-0.00569301,11,-5.72435e-06,-3.96004,0.389995,0.151284,-0.645656,0.0522116,
2,0,0,1,0,7065.91,0.0510378,0.0507884,-0.108708,6,-0.00588435,11,-5.5211e-06,-3.96374,0.346463,0.170292,-0.721684,0.0507884,
2,0,0,1,0,7067.4,0.0495396,0.0492763,-0.107824,6,-0.00607375,11,-5.31318e-06,-3.96728,0.452878,0.130278,-0.548084,0.0492763,
2,0,0,1,0,7068.9,0.0480414,0.0477175,-0.106567,6,-0.00626223,11,-5.08511e-06,-3.97238,0.537649,0.109737,-0.456911,0.0477175,
2,0,0,1,0,7070.4,0.0465432,0.0462297,-0.105979,6,-0.00644944,11,-4.89938e-06,-3.97478,0.473825,0.124519,-0.515808,0.0462297,
2,0,0,1,0,7071.9,0.045045,0.0447463,-0.104995,6,-0.00663548,11,-4.69813e-06,-3.97883,0.476319,0.123867,-0.509619,0.0447463,
2,0,0,1,0,7073.4,0.0435468,0.043233,-0.104149,6,-0.0068202,11,-4.50268e-06,-3.98234,0.706541,0.0835054,-0.340195,0.043233,
2,0,0,1,0,7074.89,0.0420486,0.0417633,-0.104002,6,-0.00700412,11,-4.34345e-06,-3.98296,0.571355,0.103263,-0.419735,0.04176325,
2,0,0,1,0,7076.39,0.0405504,0.0402649,-0.104001,6,-0.00718738,11,-4.18758e-06,-3.98296,0.658332,0.0896204,-0.361093,0.0402649,
2,0,0,1,0,7077.89,0.0390522,0.0387273,-0.103072,6,-0.00737006,11,-3.99171e-06,-3.98686,1.5843,0.0372405,-0.149303,0.0387273,
2,0,0,1,0,7079.39,0.037554,0.0372395,-0.102318,6,-0.00755178,11,-3.81026e-06,-3.99005,0.823336,0.0716597,-0.286626,0.0372395,
2,0,0,1,0,7080.89,0.0360558,0.0357624,-0.10239,6,-0.00773279,11,-3.6617e-06,-3.98974,2.69865,0.0218628,-0.0874205,0.0357624,
2,0,0,1,0,7082.39,0.0345576,0.0342428,-0.102262,6,-0.00791363,11,-3.50173e-06,-3.99029,2.48893,0.023705,-0.0941915,0.0342428,
2,0,0,1,0,7083.88,0.0330594,0.0327636,-0.102169,6,-0.00809426,11,-3.34743e-06,-3.99068,1.25083,0.0471685,-0.187146,0.0327636,
2,0,0,1,0,7085.38,0.0315613,0.0312737,-0.101865,6,-0.00827454,11,-3.18569e-06,-3.99198,3.12155,0.0189008,-0.0748446,0.0312737,
2,0,0,1,0,7086.88,0.0300631,0.0297223,-0.101774,6,-0.00845436,11,-3.02496e-06,-3.99236,3.7008,0.0159425,-0.0632938,0.0297223,
2,0,0,1,0,7088.38,0.0285649,0.0282865,-0.101808,6,-0.00863463,11,-2.8798e-06,-3.99222,-8.61275,-0.00685031,0.0271975,0.0282865,
2,0,0,1,0,7089.88,0.0270667,0.0267564,-0.102439,6,-0.00881492,11,-2.74089e-06,-3.98954,2.66738,0.0221191,-0.087995,0.0267564,
2,0,0,1,0,7091.38,0.0255685,0.0252856,-0.101629,6,-0.00899524,11,-2.56974e-06,-3.99298,-1.82518,-0.0323255,0.128223,0.02528557,
2,0,0,1,0,7092.87,0.0240703,0.0237544,-0.102051,6,-0.00917542,11,-2.42416e-06,-3.99118,-7.65547,-0.00770691,0.0307035,0.0237544,
2,0,0,1,0,7094.37,0.0225722,0.0222625,-0.102709,6,-0.00935626,11,-2.28655e-06,-3.98839,-0.81321,-0.072552,0.290421,0.0222625,
2,0,0,1,0,7095.87,0.021074,0.0207492,-0.102609,6,-0.00953749,11,-2.12906e-06,-3.98882,-0.916959,-0.0643431,0.258965,0.0207492,
2,0,0,1,0,7097.37,0.0195758,0.0192361,-0.103118,6,-0.00971915,11,-1.98359e-06,-3.98667,-2.54049,-0.0232239,0.0934971,0.0192361,
2,0,0,1,0,7098.87,0.0180776,0.0177461,-0.103098,6,-0.00990119,11,-1.82959e-06,-3.98675,-0.746438,-0.0790421,0.31803,0.0177461,
2,0,0,1,0,7100.36,0.0165794,0.0162637,-0.103728,6,-0.0100838,11,-1.68701e-06,-3.9841,-0.626439,-0.0941831,0.380631,0.0162637,
2,0,0,1,0,7101.86,0.0150812,0.014795,-0.104633,6,-0.0102674,11,-1.54805e-06,-3.98033,-0.525306,-0.112315,0.456612,0.014795,
2,0,0,1,0,7103.36,0.013583,0.0132617,-0.105192,6,-0.0104519,11,-1.39502e-06,-3.97802,-0.831726,-0.0709368,0.289415,0.0132617,
2,0,0,1,0,7104.86,0.0120848,0.0118111,-0.1054,6,-0.0106369,11,-1.24488e-06,-3.97716,-0.869597,-0.0678475,0.279819,0.0118111,
2,0,0,1,0,7106.36,0.0105866,0.0102894,-0.105817,6,-0.0108227,11,-1.0888e-06,-3.97544,-0.690713,-0.085419,0.353496,0.0102894,
2,0,0,1,0,7107.86,0.00908843,0.00873901,-0.106691,6,-0.0110096,11,-9.32376e-07,-3.97187,-0.73019,-0.0808008,0.336595,0.00873901,
2,0,0,1,0,7109.35,0.00759024,0.00727668,-0.106927,6,-0.0111976,11,-7.78076e-07,-3.97091,-0.486664,-0.121234,0.505444,0.00727668,
2,0,0,1,0,7110.85,0.00609203,0.00580695,-0.108329,6,-0.0113868,11,-6.29058e-07,-3.96526,-0.395665,-0.149116,0.63003,0.00580695,
2,0,0,1,0,7112.35,0.00459384,0.00432985,-0.109215,6,-0.0115767,11,-4.72882e-07,-3.96172,-0.512324,-0.115162,0.487502,0.00432985,
2,0,0,1,0,7113.85,0.00309563,0.00278689,-0.109547,6,-0.011768,11,-3.05294e-07,-3.9604,-0.387614,-0.152213,0.652199,0.00278689,
2,0,0,1,0,7115.35,0.00159744,0.00128956,-0.111056,6,-0.0119636,11,-1.43213e-07,-3.95446, , , ,0.00128956,
2,0,0,1,0,7116.74,0.000199235,-0.000136299,-0.112004,6,-0.0121452,11,1.52662e-08,-3.95076, , , ,-0.000136299,