File: Figure_codes/Fig_3-5/rawdata_trumpetplot_data/before 10th/20221101_1-115_002_TrumpetPlot_ParaChange_12_CV_C01_3.csv
mode,ox/red,error,control changes,counter inc.,time/s,control/V,Ewe/V,<I>/mA,cycle number,(Q-Qo)/C,I Range,P/W,log(|I|),Tafel slope mV/dec,alpha_eff,dI/d(E-IR),E-IR/V,
2,1,0,0,0,4904.98,2.44065e-05,-0.000325324,7.52472,4,0.0000000E+000,10,-2.44797e-06,-2.12351, , , ,-0.000325324,
2,1,0,1,0,4904.99,0.00179726,0.00146809,7.75043,4,6.62298e-05,10,1.13783e-05,-2.11067, , , ,0.00146809,
2,1,0,1,0,4905,0.00379485,0.00351123,8.41556,4,0.00014738,10,2.9549e-05,-2.07492,0.0662854,0.89009,288.789,0.00351123,
2,1,0,1,0,4905.01,0.00579244,0.00545972,8.90317,4,0.000234179,10,4.86089e-05,-2.05046,0.09594,0.614968,211.985,0.00545972,
2,1,0,1,0,4905.02,0.00779002,0.00751002,9.26325,4,0.000325118,10,6.95672e-05,-2.03324,0.128971,0.457468,164.787,0.00751002,
2,1,0,1,0,4905.02,0.00977853,0.00947341,9.56458,4,0.000418503,10,9.06092e-05,-2.01933,0.176766,0.333776,123.844,0.00947341,
2,1,0,1,0,4905.03,0.0117761,0.0114854,9.75557,4,0.000515181,10,0.000112047,-2.01075,0.249267,0.236694,89.989,0.0114854,
2,1,0,1,0,4905.04,0.0137737,0.0134358,9.92114,4,0.000613642,10,0.000133298,-2.00344,0.326603,0.180647,69.7487,0.0134358,
2,1,0,1,0,4905.05,0.0157713,0.0154529,10.0323,4,0.000713426,10,0.000155029,-1.9986,0.405563,0.145477,56.9774,0.0154529,
2,1,0,1,0,4905.06,0.017778,0.0174701,10.151,4,0.000814455,10,0.000177339,-1.99349,0.592041,0.0996553,39.3249,0.0174701,
2,1,0,1,0,4905.07,0.0197755,0.0194769,10.1905,4,0.000916127,10,0.00019848,-1.9918,0.90863,0.0649329,25.8563,0.0194769,
2,1,0,1,0,4905.08,0.0217731,0.0215166,10.2556,4,0.00101841,10,0.000220667,-1.98904,1.01038,0.058394,23.3299,0.0215166,
2,1,0,1,0,4905.09,0.0237707,0.0234826,10.284,4,0.00112109,10,0.000241495,-1.98784,1.08454,0.0544007,21.8654,0.0234826,
2,1,0,1,0,4905.1,0.0257774,0.0254773,10.3422,4,0.00122427,10,0.000263492,-1.98539,1.19732,0.0492769,19.8535,0.02547726,
2,1,0,1,0,4905.11,0.027775,0.0274762,10.3633,4,0.00132776,10,0.000284744,-1.9845,1.41739,0.0416258,16.856,0.0274762,
2,1,0,1,0,4905.12,0.0297726,0.0294821,10.4097,4,0.00143171,10,0.000306901,-1.98256,1.47799,0.0399191,16.1956,0.0294821,
2,1,0,1,0,4905.13,0.0317701,0.0314828,10.4282,4,0.00153589,10,0.000328308,-1.98179,1.18407,0.049828,20.3211,0.0314828,
2,1,0,1,0,4905.14,0.0337587,0.033437,10.4901,4,0.00163945,10,0.000350757,-1.97922,1.07136,0.0550703,22.5085,0.033437,
2,1,0,1,0,4905.15,0.0357562,0.0354578,10.5176,4,0.00174446,10,0.000372933,-1.97808,1.36373,0.0432636,17.7717,0.0354578,
2,1,0,1,0,4905.16,0.0377538,0.0374222,10.5609,4,0.00184993,10,0.000395214,-1.9763,1.09867,0.0537015,22.1353,0.0374222,
2,1,0,1,0,4905.17,0.0397514,0.0394495,10.606,4,0.00195576,10,0.000418401,-1.97445,0.69131,0.0853452,35.4102,0.0394495,
2,1,0,1,0,4905.18,0.0417399,0.0414048,10.702,4,0.0020612,10,0.000443112,-1.97054,0.725059,0.0813727,33.8964,0.0414048,
2,1,0,1,0,4905.19,0.0437375,0.0434471,10.7415,4,0.0021684,10,0.000466687,-1.96893,0.877654,0.0672246,28.2266,0.0434471,
2,1,0,1,0,4905.2,0.0457351,0.0454443,10.816,4,0.00227618,10,0.000491525,-1.96593,0.706142,0.0835526,35.2526,0.0454443,
2,1,0,1,0,4905.21,0.0477327,0.0474008,10.8809,4,0.00238468,10,0.000515762,-1.96334,0.522348,0.112951,48.1003,0.0474008,
2,1,0,1,0,4905.22,0.0497393,0.0494362,11.008,4,0.00249415,10,0.000544193,-1.95829,0.503276,0.117232,50.2425,0.0494362,
2,1,0,1,0,4905.23,0.0517369,0.0514178,11.0827,4,0.00260457,10,0.000569848,-1.95535,0.507738,0.116202,50.3789,0.0514178,
2,1,0,1,0,4905.24,0.0537345,0.0534558,11.2105,4,0.0027161,10,0.000599266,-1.95038,0.439106,0.134364,58.7262,0.0534558,
2,1,0,1,0,4905.25,0.0557321,0.0553975,11.3164,4,0.00282877,10,0.000626902,-1.94629,0.423687,0.139254,61.5864,0.0553975,
2,1,0,1,0,4905.26,0.0577297,0.0574225,11.4548,4,0.00294265,10,0.000657763,-1.94101,0.384148,0.153586,68.6576,0.0574225,
2,1,0,1,0,4905.27,0.0597364,0.0594327,11.5935,4,0.00305801,10,0.000689032,-1.93579,0.348588,0.169254,76.6751,0.0594327,
2,1,0,1,0,4905.28,0.0617339,0.0614317,11.7622,4,0.00317488,10,0.000722572,-1.92951,0.334369,0.176452,80.9343,0.0614317,
2,1,0,1,0,4905.29,0.0637315,0.063389,11.9137,4,0.00329327,10,0.000755196,-1.92395,0.320717,0.183963,85.6689,0.063389,
2,1,0,1,0,4905.3,0.0657291,0.0654253,12.1043,4,0.00341342,10,0.000791929,-1.91706,0.298963,0.197349,93.2027,0.0654253,
2,1,0,1,0,4905.31,0.0677176,0.0674355,12.2908,4,0.00353425,10,0.000828836,-1.91042,0.298343,0.197759,94.8849,0.0674355,
2,1,0,1,0,4905.32,0.0697152,0.0694468,12.4859,4,0.00365822,10,0.000867106,-1.90358,0.301421,0.19574,95.3193,0.0694468,
2,1,0,1,0,4905.33,0.0717128,0.0713786,12.6667,4,0.00378399,10,0.000904128,-1.89734,0.282611,0.208768,103.386,0.0713786,
2,1,0,1,0,4905.34,0.0737104,0.0734002,12.8946,4,0.00391186,10,0.000946469,-1.88959,0.274659,0.214812,107.988,0.0734002,
2,1,0,1,0,4905.35,0.0756989,0.0753724,13.0979,4,0.00404052,10,0.000987224,-1.8828,0.274477,0.214954,109.976,0.0753724,
2,1,0,1,0,4905.36,0.0776965,0.0773297,13.3268,4,0.0041726,10,0.00103056,-1.87527,0.268341,0.219869,114.352,0.0773297,
2,1,0,1,0,4905.37,0.0796941,0.0793929,13.5577,4,0.00430702,10,0.00107638,-1.86781,0.265789,0.221981,117.517,0.07939285,
2,1,0,1,0,4905.38,0.0816917,0.0814092,13.8062,4,0.0044439,10,0.00112395,-1.85993,0.265428,0.222282,119.673,0.0814092,
2,1,0,1,0,4905.39,0.0836983,0.0833847,14.0354,4,0.00458315,10,0.00117034,-1.85277,0.266408,0.221465,121.414,0.0833847,
2,1,0,1,0,4905.4,0.0856959,0.085408,14.2917,4,0.00472491,10,0.00122062,-1.84492,0.274185,0.215183,119.866,0.085408,
2,1,0,1,0,4905.41,0.0876935,0.0873757,14.5138,4,0.00486898,10,0.00126815,-1.83822,0.281261,0.209769,118.899,0.0873757,
2,1,0,1,0,4905.42,0.0896911,0.0893287,14.7579,4,0.00501545,10,0.0013183,-1.83098,0.273644,0.215609,124.196,0.0893287,
2,1,0,1,0,4905.43,0.0916978,0.091358,15.0084,4,0.00516428,10,0.00137114,-1.82367,0.275794,0.213928,125.314,0.091358,
2,1,0,1,0,4905.44,0.0936953,0.0933691,15.2642,4,0.00531578,10,0.0014252,-1.81633,0.299898,0.196733,117.012,0.0933691,
2,1,0,1,0,4905.45,0.0956929,0.0953403,15.4744,4,0.00546953,10,0.00147533,-1.81039,0.306849,0.192277,116.281,0.0953403,
2,1,0,1,0,4905.46,0.0976905,0.0973757,15.7301,4,0.00562561,10,0.00153173,-1.80327,0.295687,0.199535,122.427,0.0973757,
2,1,0,1,0,4905.47,0.099679,0.099398,15.9711,4,0.00578247,10,0.0015875,-1.79666,0.309623,0.190554,118.746,0.099398,
2,1,0,1,0,4905.48,0.101677,0.101394,16.2073,4,0.00594346,10,0.00164332,-1.79029,0.317361,0.185908,117.56,0.101394,
2,1,0,1,0,4905.49,0.103674,0.103363,16.4373,4,0.00610667,10,0.00169901,-1.78417,0.304765,0.193592,124.302,0.103363,
2,1,0,1,0,4905.5,0.105672,0.105357,16.6999,4,0.0062724,10,0.00175945,-1.77729,0.314557,0.187565,122.097,0.105357,
2,1,0,1,0,4905.51,0.107656,0.107353,16.9244,4,0.00643882,10,0.00181689,-1.77149,0.318254,0.185387,122.591,0.107353,
2,1,0,1,0,4905.52,0.109658,0.10936,17.1906,4,0.00660948,10,0.00187996,-1.76471,0.305371,0.193208,129.552,0.10936,
2,1,0,1,0,4905.53,0.111655,0.111337,17.4406,4,0.00678265,10,0.00194179,-1.75844,0.301988,0.195372,133.106,0.111337,
2,1,0,1,0,4905.54,0.113653,0.113384,17.7262,4,0.00695853,10,0.00200986,-1.75138,0.300428,0.196387,135.742,0.1133839,
2,1,0,1,0,4905.55,0.115651,0.115339,17.9837,4,0.00713704,10,0.00207422,-1.74512,0.276084,0.213703,150.333,0.115339,
2,1,0,1,0,4905.56,0.117657,0.117384,18.3275,4,0.0073187,10,0.00215134,-1.7369,0.264264,0.223262,159.46,0.117384,
2,1,0,1,0,4905.57,0.119655,0.119341,18.6219,4,0.00750344,10,0.00222236,-1.72997,0.269181,0.219183,159.486,0.119341,
2,1,0,1,0,4905.58,0.121652,0.121382,18.9652,4,0.00769141,10,0.00230204,-1.72204,0.250971,0.235087,174.005,0.121382,
2,1,0,1,0,4905.59,0.12365,0.123317,19.3138,4,0.00788283,10,0.00238173,-1.71413,0.232197,0.254094,191.805,0.123317,
2,1,0,1,0,4905.6,0.125657,0.125337,19.7237,4,0.00807815,10,0.00247211,-1.70501,0.22721,0.259672,199.712,0.1253369,
2,1,0,1,0,4905.61,0.127654,0.127279,20.105,4,0.00827736,10,0.00255893,-1.6967,0.220224,0.267908,210.57,0.127279,
2,1,0,1,0,4905.62,0.129652,0.129312,20.5608,4,0.00848074,10,0.00265876,-1.68696,0.217823,0.270862,217.2,0.129312,
2,1,0,1,0,4905.63,0.131649,0.131378,20.9954,4,0.00868856,10,0.00275833,-1.67788,0.212881,0.27715,227.344,0.131378,
2,1,0,1,0,4905.64,0.133638,0.13337,21.4834,4,0.00889899,10,0.00286524,-1.6679,0.204869,0.287988,241.307,0.13337,
2,1,0,1,0,4905.65,0.135636,0.135341,21.9517,4,0.00911621,10,0.00297096,-1.65853,0.207055,0.284948,244.308,0.135341,
2,1,0,1,0,4905.66,0.137633,0.137375,22.4616,4,0.00933837,10,0.00308566,-1.64856,0.206597,0.28558,250.158,0.137375,
2,1,0,1,0,4905.67,0.139631,0.139316,22.946,4,0.00956547,10,0.00319675,-1.63929,0.206466,0.285761,256.131,0.1393159,
2,1,0,1,0,4905.68,0.141619,0.141346,23.4788,4,0.00979532,10,0.00331864,-1.62932,0.209914,0.281067,257.336,0.141346,
2,1,0,1,0,4905.69,0.143617,0.14334,23.9815,4,0.0100326,10,0.0034375,-1.62012,0.213581,0.276241,258.609,0.14334,
2,1,0,1,0,4905.7,0.145614,0.145311,24.5042,4,0.0102752,10,0.00356073,-1.61076,0.224122,0.263249,251.438,0.145311,
2,1,0,1,0,4905.71,0.147612,0.147281,24.9725,4,0.0105226,10,0.00367799,-1.60254,0.230817,0.255614,249.372,0.147281,
2,1,0,1,0,4905.72,0.149619,0.149295,25.4977,4,0.010775,10,0.00380668,-1.5935,0.241641,0.244164,242.599,0.149295,
2,1,0,1,0,4905.73,0.151616,0.151318,25.9519,4,0.0110323,10,0.003927,-1.58583,0.262084,0.225119,227.964,0.151318,
2,1,0,1,0,4905.74,0.153614,0.153262,26.402,4,0.0112942,10,0.00404641,-1.57836,0.281847,0.209334,215.515,0.153262,
2,1,0,1,0,4905.75,0.155611,0.155313,26.8128,4,0.0115603,10,0.00416436,-1.57166,0.302387,0.195114,204.224,0.155313,
2,1,0,1,0,4905.76,0.157618,0.157374,27.2419,4,0.0118307,10,0.00428716,-1.56476,0.335265,0.17598,186.694,0.1573741,
2,1,0,1,0,4905.77,0.159616,0.1593,27.5572,4,0.0121048,10,0.00438987,-1.55976,0.399933,0.147525,158.635,0.1593,
2,1,0,1,0,4905.78,0.161613,0.161314,27.8668,4,0.012382,10,0.00449531,-1.55491,0.488313,0.120824,131.189,0.161314,
2,1,0,1,0,4905.79,0.163611,0.163342,28.0875,4,0.0126618,10,0.00458788,-1.55149,0.663481,0.0889249,97.381,0.163342,
2,1,0,1,0,4905.8,0.165618,0.165289,28.254,4,0.0129437,10,0.00467008,-1.54892,1.14372,0.051586,56.7722,0.165289,
2,1,0,1,0,4905.81,0.167597,0.167291,28.3117,4,0.0132238,10,0.00473628,-1.54803,7.91386,0.00745528,8.22546,0.167291,
2,1,0,1,0,4905.82,0.169595,0.1693,28.287,4,0.0135069,10,0.004789,-1.54841,-1.14535,-0.0515126,-56.6899,0.1693005,
2,1,0,1,0,4905.83,0.171592,0.171272,28.086,4,0.0137888,10,0.00481034,-1.55151,-0.497877,-0.118503,-129.624,0.171272,
2,1,0,1,0,4905.84,0.173572,0.173283,27.7707,4,0.0140653,10,0.0048122,-1.55641,-0.318022,-0.185522,-200.429,0.173283,
2,1,0,1,0,4905.85,0.175578,0.175281,27.2825,4,0.0143407,10,0.0047821,-1.56412,-0.217565,-0.271183,-287.785,0.1752806,
2,1,0,1,0,4905.86,0.177576,0.177277,26.6214,4,0.0146103,10,0.00471936,-1.57477,-0.160812,-0.366887,-379.612,0.177277,
2,1,0,1,0,4905.87,0.179573,0.179301,25.7563,4,0.0148722,10,0.00461814,-1.58912,-0.128387,-0.459547,-460.657,0.1793011,
2,1,0,1,0,4905.88,0.181571,0.181293,24.7713,4,0.0151248,10,0.00449087,-1.60605,-0.105314,-0.560232,-539.329,0.1812931,
2,1,0,1,0,4905.89,0.183578,0.183282,23.6095,4,0.0153667,10,0.00432719,-1.62691,-0.0893184,-0.660558,-606.8,0.183282,
2,1,0,1,0,4905.9,0.185575,0.185289,22.3464,4,0.0155964,10,0.00414056,-1.65079,-0.0785861,-0.750769,-652.587,0.185289,
2,1,0,1,0,4905.91,0.187573,0.1873,20.9869,4,0.0158129,10,0.00393085,-1.67805,-0.0711478,-0.829259,-678.347,0.1873,
2,1,0,1,0,4905.92,0.18957,0.18929,19.6327,4,0.0160159,10,0.00371627,-1.70702,-0.0668907,-0.882035,-674.681,0.18929,
2,1,0,1,0,4905.93,0.191577,0.19132,18.2749,4,0.0162053,10,0.00349636,-1.73814,-0.064515,-0.914516,-652.91,0.19132,
2,1,0,1,0,4905.94,0.193575,0.193296,17.0167,4,0.0163816,10,0.00328928,-1.76912,-0.0632899,-0.932219,-619.38,0.193296,
2,1,0,1,0,4905.95,0.195572,0.195263,15.8326,4,0.0165456,10,0.00309152,-1.80045,-0.0653223,-0.903214,-559.594,0.1952633,
2,1,0,1,0,4905.96,0.19757,0.197283,14.7858,4,0.0166985,10,0.002917,-1.83015,-0.0706022,-0.835668,-483.912,0.197283,
2,1,0,1,0,4905.97,0.199558,0.199287,13.8856,4,0.0168402,10,0.00276721,-1.85744,-0.0766318,-0.769915,-418.803,0.199287,
2,1,0,1,0,4905.98,0.201556,0.201253,13.1234,4,0.016975,10,0.00264111,-1.88195,-0.0845025,-0.698204,-358.613,0.201253,
2,1,0,1,0,4905.99,0.203553,0.203258,12.4616,4,0.0171027,10,0.00253291,-1.90443,-0.0976097,-0.604448,-295.377,0.203258,
2,1,0,1,0,4906,0.205551,0.205265,11.9382,4,0.0172245,10,0.0024505,-1.92306,-0.117569,-0.501832,-234.727,0.205265,
2,1,0,1,0,4906.01,0.20754,0.207265,11.521,4,0.0173405,10,0.00238789,-1.93851,-0.138134,-0.42712,-192.555,0.207265,
2,1,0,1,0,4906.02,0.209537,0.209237,11.1734,4,0.0174538,10,0.00233789,-1.95181,-0.15568,-0.378983,-165.418,0.209237,
2,1,0,1,0,4906.03,0.211535,0.211298,10.8537,4,0.0175638,10,0.00229338,-1.96442,-0.183065,-0.322289,-137.072,0.211298,
2,1,0,1,0,4906.04,0.213532,0.213224,10.6268,4,0.0176712,10,0.0022659,-1.9736,-0.223649,-0.263806,-109.467,0.213224,
2,1,0,1,0,4906.05,0.215539,0.215314,10.4142,4,0.0177762,10,0.00224232,-1.98237,-0.246979,-0.238887,-97.2335,0.215314,
2,1,0,1,0,4906.06,0.217537,0.21726,10.2345,4,0.0178795,10,0.00222354,-1.98994,-0.270138,-0.218406,-87.2806,0.21726,
2,1,0,1,0,4906.07,0.219534,0.219289,10.0672,4,0.0179809,10,0.00220763,-1.99709,-0.328561,-0.179571,-70.721,0.219289,
2,1,0,1,0,4906.08,0.221532,0.221288,9.94958,4,0.018081,10,0.00220172,-2.0022,-0.331029,-0.178232,-69.0698,0.221288,
2,1,0,1,0,4906.09,0.223534,0.223251,9.79355,4,0.0181796,10,0.00218642,-2.00906,-0.361724,-0.163108,-62.5401,0.223251,
2,1,0,1,0,4906.1,0.225536,0.225264,9.7009,4,0.0182772,10,0.00218527,-2.01319,-0.396194,-0.148917,-56.2648,0.225264,
2,1,0,1,0,4906.11,0.227534,0.22723,9.56968,4,0.0183735,10,0.00217452,-2.0191,-0.380629,-0.155006,-57.9874,0.22723,
2,1,0,1,0,4906.12,0.229531,0.229225,9.47124,4,0.0184688,10,0.00217104,-2.02359,-0.423565,-0.139294,-51.4587,0.229225,
2,1,0,1,0,4906.13,0.231529,0.231248,9.36292,4,0.0185629,10,0.00216516,-2.02859,-0.500887,-0.117791,-43.1401,0.231248,
2,1,0,1,0,4906.14,0.233517,0.23324,9.29803,4,0.0186554,10,0.00216867,-2.03161,-0.514591,-0.114654,-41.5246,0.23324,
2,1,0,1,0,4906.15,0.235515,0.235227,9.19772,4,0.0187478,10,0.00216355,-2.03632,-0.483567,-0.12201,-43.8534,0.2352265,
2,1,0,1,0,4906.16,0.237513,0.237256,9.1219,4,0.0188393,10,0.00216423,-2.03991,-0.466715,-0.126415,-44.9388,0.237256,
2,1,0,1,0,4906.17,0.23951,0.239174,9.02031,4,0.01893,10,0.00215743,-2.04478,-0.545121,-0.108233,-38.2091,0.239174,
2,1,0,1,0,4906.18,0.241499,0.241232,8.97,4,0.0190191,10,0.00216385,-2.04721,-0.543389,-0.108578,-37.9019,0.241232,
2,1,0,1,0,4906.19,0.243496,0.243164,8.8691,4,0.0191083,10,0.00215664,-2.05212,-0.572299,-0.103093,-35.8009,0.243164,
2,1,0,1,0,4906.2,0.245494,0.245233,8.82675,4,0.0191968,10,0.00216461,-2.0542,-0.662972,-0.0889931,-30.5876,0.245233,
2,1,0,1,0,4906.21,0.247491,0.247218,8.74509,4,0.0192846,10,0.00216195,-2.05824,-0.621859,-0.0948769,-32.4434,0.2472181,
2,1,0,1,0,4906.22,0.249498,0.249216,8.69752,4,0.0193718,10,0.00216756,-2.0606,-0.653204,-0.090324,-30.6094,0.249216,
2,1,0,1,0,4906.23,0.251496,0.251241,8.62195,4,0.0194584,10,0.00216619,-2.06439,-0.653116,-0.0903362,-30.4481,0.251241,
2,1,0,1,0,4906.24,0.253493,0.253219,8.57563,4,0.0195444,10,0.00217152,-2.06673,-0.621576,-0.09492,-31.7084,0.253219,
2,1,0,1,0,4906.25,0.255491,0.255165,8.49754,4,0.0196298,10,0.00216827,-2.07071,-0.773425,-0.0762841,-25.3789,0.2551645,
2,1,0,1,0,4906.26,0.257497,0.257232,8.47379,4,0.0197146,10,0.00217973,-2.07192,-0.814649,-0.0724239,-23.8816,0.257232,
2,1,0,1,0,4906.27,0.259495,0.259201,8.40116,4,0.019799,10,0.00217758,-2.07566,-0.647533,-0.091115,-29.9204,0.259201,
2,1,0,1,0,4906.28,0.261493,0.261205,8.35493,4,0.0198829,10,0.00218235,-2.07806,-0.746904,-0.0789928,-25.7406,0.261205,
2,1,0,1,0,4906.29,0.26349,0.263195,8.29834,4,0.0199661,10,0.00218408,-2.08101,-1.12702,-0.0523503,-16.9998,0.263195,
2,1,0,1,0,4906.3,0.265479,0.265223,8.28662,4,0.0200482,10,0.0021978,-2.08162,-0.997225,-0.0591642,-19.0727,0.265223,
2,1,0,1,0,4906.31,0.267476,0.267191,8.22212,4,0.0201307,10,0.00219688,-2.08502,-0.721372,-0.0817886,-26.2839,0.267191,
2,1,0,1,0,4906.32,0.269474,0.269186,8.18246,4,0.0202127,10,0.0022026,-2.08712,-0.886862,-0.0665267,-21.2368,0.269186,
2,1,0,1,0,4906.33,0.271471,0.271193,8.13713,4,0.0202943,10,0.00220673,-2.08953,-1.29836,-0.0454419,-14.4601,0.271193,
2,1,0,1,0,4906.34,0.27346,0.273168,8.12487,4,0.0203747,10,0.00221946,-2.09018,-0.859882,-0.0686141,-21.6743,0.273168,
2,1,0,1,0,4906.35,0.275458,0.275157,8.05122,4,0.0204555,10,0.00221535,-2.09414,-0.802451,-0.0735247,-23.1815,0.275157,
2,1,0,1,0,4906.36,0.277455,0.277141,8.03278,4,0.020536,10,0.00222621,-2.09513,-1.04839,-0.0562766,-17.6059,0.277141,
2,1,0,1,0,4906.37,0.279453,0.279133,7.98122,4,0.020616,10,0.00222782,-2.09793,-0.993683,-0.0593751,-18.5264,0.279133,
2,1,0,1,0,4906.38,0.281455,0.281201,7.95755,4,0.0206957,10,0.00223767,-2.09922,-1.09198,-0.0540305,-16.7583,0.281201,
2,1,0,1,0,4906.39,0.283457,0.283159,7.91374,4,0.0207751,10,0.00224085,-2.10162,-1.07505,-0.0548812,-16.9718,0.283159,
2,1,0,1,0,4906.4,0.285455,0.285158,7.89041,4,0.0208541,10,0.00225001,-2.1029,-0.855081,-0.0689993,-21.1956,0.285158,
2,1,0,1,0,4906.41,0.287452,0.287173,7.82867,4,0.0209327,10,0.00224818,-2.10631,-1.08987,-0.0541349,-16.5998,0.287173,
2,1,0,1,0,4906.42,0.28945,0.289166,7.82387,4,0.0210111,10,0.0022624,-2.10658,-1.62745,-0.0362531,-11.0453,0.289166,
2,1,0,1,0,4906.43,0.291456,0.29114,7.78486,4,0.0210891,10,0.00226648,-2.10875,-0.993762,-0.0593703,-18.044,0.29114,
2,1,0,1,0,4906.44,0.293454,0.29319,7.75126,4,0.0211669,10,0.00227259,-2.11063,-1.03669,-0.0569121,-17.2139,0.29319,
2,1,0,1,0,4906.45,0.295452,0.295167,7.71553,4,0.0212442,10,0.00227737,-2.11263,-1.56181,-0.0377766,-11.3946,0.295167,
2,1,0,1,0,4906.46,0.297449,0.297131,7.70635,4,0.0213213,10,0.0022898,-2.11315,-1.54991,-0.0380667,-11.4283,0.297131,
2,1,0,1,0,4906.47,0.299438,0.299178,7.6697,4,0.0213975,10,0.0022946,-2.11522,-0.0458807,-1.28594,-364.582,0.299178,
2,1,0,1,0,4906.48,0.299746,0.299508,6.83999,4,0.0214294,10,0.00204863,-2.16494,0.00312313,18.8913,3252.09,0.299508,
2,1,0,1,0,4906.49,0.29774,0.297508,2.23935,4,0.0214719,10,0.000666225,-2.64988,0.00241987,24.3815,1747.36,0.297508,
2,1,0,1,0,4906.5,0.295742,0.295506,-0.151881,4,0.0214808,10,-4.48818e-05,-3.8185,0.0225953,2.61116,905.985,0.295506,
2,0,0,1,0,4906.51,0.293745,0.293409,-1.47467,4,0.021472,10,-0.00043268,-2.83131,-0.0034762,-16.9725,511.12,0.293409,
2,0,0,1,0,4906.52,0.291747,0.291456,-2.22235,4,0.021453,10,-0.000647717,-2.65319,-0.0149177,-3.95505,313.118,0.291456,
2,0,0,1,0,4906.53,0.289745,0.289475,-2.70639,4,0.0214282,10,-0.000783431,-2.56761,-0.0306495,-1.92499,194.873,0.289475,
2,0,0,1,0,4906.54,0.287743,0.28744,-3.00482,4,0.0213995,10,-0.000863705,-2.52218,-0.0544062,-1.08444,124.963,0.2874403,
2,0,0,1,0,4906.55,0.285745,0.285417,-3.21346,4,0.0213683,10,-0.000917177,-2.49303,-0.0793916,-0.743151,92.4114,0.285417,
2,0,0,1,0,4906.56,0.283748,0.283435,-3.37492,4,0.0213353,10,-0.00095657,-2.47174,-0.098592,-0.598426,78.6429,0.2834354,
2,0,0,1,0,4906.57,0.28175,0.281443,-3.52603,4,0.0213007,10,-0.000992375,-2.45271,-0.119802,-0.492479,67.4071,0.281443,
2,0,0,1,0,4906.58,0.279761,0.279461,-3.64279,4,0.0212651,10,-0.00101802,-2.43857,-0.141492,-0.416985,59.2775,0.279461,
2,0,0,1,0,4906.59,0.277764,0.277468,-3.76161,4,0.0212281,10,-0.00104373,-2.42463,-0.159816,-0.369175,54.0211,0.277468,
2,0,0,1,0,4906.6,0.275766,0.275474,-3.85817,4,0.0211899,10,-0.00106283,-2.41362,-0.183046,-0.322324,48.5277,0.275474,
2,0,0,1,0,4906.61,0.273769,0.273473,-3.95551,4,0.0211509,10,-0.00108172,-2.4028,-0.185595,-0.317896,49.0571,0.2734727,
2,0,0,1,0,4906.62,0.27178,0.271529,-4.05171,4,0.0211112,10,-0.00110016,-2.39236,-0.188488,-0.313018,49.5151,0.271529,
2,0,0,1,0,4906.63,0.269783,0.269492,-4.15261,4,0.0210702,10,-0.0011191,-2.38168,-0.222556,-0.265102,42.8097,0.269492,
2,0,0,1,0,4906.64,0.267785,0.267481,-4.22502,4,0.0210282,10,-0.00113011,-2.37417,-0.246639,-0.239216,39.4984,0.267481,
2,0,0,1,0,4906.65,0.265787,0.265506,-4.31004,4,0.0209856,10,-0.00114434,-2.36552,-0.237763,-0.248146,41.7215,0.265506,
2,0,0,1,0,4906.66,0.263781,0.263471,-4.39232,4,0.020942,10,-0.00115725,-2.35731,-0.248926,-0.237018,40.6221,0.263471,
2,0,0,1,0,4906.67,0.261783,0.261469,-4.47406,4,0.0208976,10,-0.00116983,-2.3493,-0.288151,-0.204754,35.6595,0.261469,
2,0,0,1,0,4906.68,0.259786,0.259513,-4.53346,4,0.0208525,10,-0.00117649,-2.34357,-0.265166,-0.222502,39.5259,0.259513,
2,0,0,1,0,4906.69,0.257788,0.257512,-4.63044,4,0.0208068,10,-0.0011924,-2.33438,-0.25195,-0.234174,42.2005,0.257512,
2,0,0,1,0,4906.7,0.255781,0.255501,-4.70276,4,0.02076,10,-0.00120156,-2.32765,-0.302186,-0.195244,35.834,0.255501,
2,0,0,1,0,4906.71,0.253784,0.253454,-4.77585,4,0.0207127,10,-0.00121046,-2.32095,-0.345234,-0.170899,31.7885,0.253454,
2,0,0,1,0,4906.72,0.251786,0.251495,-4.8301,4,0.0206646,10,-0.00121475,-2.31604,-0.33973,-0.173667,32.8061,0.251495,
2,0,0,1,0,4906.73,0.249789,0.249508,-4.90532,4,0.020616,10,-0.00122392,-2.30933,-0.31501,-0.187296,35.8261,0.249508,
2,0,0,1,0,4906.74,0.2478,0.247504,-4.97311,4,0.020567,10,-0.00123086,-2.30337,-0.325684,-0.181157,35.1708,0.247504,
2,0,0,1,0,4906.75,0.245802,0.245546,-5.04465,4,0.020517,10,-0.00123869,-2.29717,-0.336939,-0.175106,34.4565,0.245546,
2,0,0,1,0,4906.76,0.243805,0.243484,-5.1116,4,0.0204662,10,-0.00124459,-2.29144,-0.379513,-0.155463,30.9861,0.243484,
2,0,0,1,0,4906.77,0.241807,0.241497,-5.17013,4,0.0204148,10,-0.00124857,-2.2865,-0.364524,-0.161855,32.6967,0.241497,
2,0,0,1,0,4906.78,0.239819,0.239515,-5.24139,4,0.0203633,10,-0.00125539,-2.28055,-0.338934,-0.174075,35.6036,0.239515,
2,0,0,1,0,4906.79,0.237821,0.237512,-5.31199,4,0.0203105,10,-0.00126166,-2.27474,-0.39449,-0.14956,30.9549,0.2375122,
2,0,0,1,0,4906.8,0.235824,0.235497,-5.36577,4,0.0202571,10,-0.00126362,-2.27037,-0.422602,-0.139611,29.2594,0.235497,
2,0,0,1,0,4906.81,0.233826,0.233527,-5.42859,4,0.0202031,10,-0.00126772,-2.26531,-0.359131,-0.164285,34.8428,0.233527,
2,0,0,1,0,4906.82,0.231824,0.231541,-5.50358,4,0.0201484,10,-0.00127431,-2.25935,-0.331746,-0.177847,38.2036,0.231541,
2,0,0,1,0,4906.83,0.229822,0.22955,-5.58053,4,0.020093,10,-0.00128101,-2.25332,-0.402701,-0.146511,31.8318,0.2295502,
2,0,0,1,0,4906.84,0.227824,0.227536,-5.63109,4,0.0200369,10,-0.00128127,-2.24941,-0.404974,-0.145688,32.0946,0.227536,
2,0,0,1,0,4906.85,0.225827,0.225534,-5.70943,4,0.0199803,10,-0.00128767,-2.24341,-0.398789,-0.147948,32.892,0.225534,
2,0,0,1,0,4906.86,0.223829,0.223535,-5.76268,4,0.0199229,10,-0.00128816,-2.23938,-0.363569,-0.16228,36.6214,0.223535,
2,0,0,1,0,4906.87,0.221822,0.221534,-5.85593,4,0.0198647,10,-0.00129729,-2.2324,-0.355676,-0.165882,37.7905,0.221534,
2,0,0,1,0,4906.88,0.219825,0.219562,-5.91281,4,0.0198059,10,-0.00129823,-2.22821,-0.392925,-0.150156,34.7216,0.219562,
2,0,0,1,0,4906.89,0.217827,0.217536,-5.99475,4,0.0197464,10,-0.00130407,-2.22223,-0.392171,-0.150445,35.1344,0.217536,
2,0,0,1,0,4906.9,0.21583,0.215494,-6.05575,4,0.019686,10,-0.00130498,-2.21783,-0.337792,-0.174664,41.4266,0.215494,
2,0,0,1,0,4906.91,0.213841,0.213531,-6.16066,4,0.0196256,10,-0.00131549,-2.21037,-0.330009,-0.178783,42.8392,0.213531,
2,0,0,1,0,4906.92,0.211844,0.211554,-6.22453,4,0.0195636,10,-0.00131683,-2.20589,-0.376306,-0.156787,38.1579,0.211554,
2,0,0,1,0,4906.93,0.209846,0.209563,-6.31206,4,0.0195009,10,-0.00132277,-2.19983,-0.35683,-0.165345,40.6896,0.209563,
2,0,0,1,0,4906.94,0.207848,0.207551,-6.38743,4,0.0194374,10,-0.00132572,-2.19467,-0.288604,-0.204432,51.179,0.207551,
2,0,0,1,0,4906.95,0.20586,0.205529,-6.51852,4,0.0193735,10,-0.00133974,-2.18585,-0.282789,-0.208636,52.8567,0.205529,
2,0,0,1,0,4906.96,0.203862,0.203591,-6.59675,4,0.0193079,10,-0.00134304,-2.18067,-0.347608,-0.169731,43.7515,0.203591,
2,0,0,1,0,4906.97,0.201865,0.201562,-6.69207,4,0.0192415,10,-0.00134887,-2.17444,-0.323584,-0.182333,47.622,0.201562,
2,0,0,1,0,4906.98,0.199867,0.199556,-6.78887,4,0.019174,10,-0.00135476,-2.1682,-0.272029,-0.216889,57.6083,0.1995562,
2,0,0,1,0,4906.99,0.19786,0.197588,-6.92098,4,0.0191055,10,-0.00136751,-2.15983,-0.270261,-0.218308,58.8306,0.197588,
2,0,0,1,0,4907,0.195863,0.195583,-7.02264,4,0.0190357,10,-0.00137351,-2.1535,-0.2697,-0.218761,60.1153,0.195583,
2,0,0,1,0,4907.01,0.193865,0.193564,-7.16293,4,0.0189648,10,-0.00138648,-2.14491,-0.243937,-0.241865,67.5493,0.193564,
2,0,0,1,0,4907.02,0.191868,0.191603,-7.29147,4,0.0188925,10,-0.00139707,-2.13718,-0.238272,-0.247616,70.5766,0.191603,
2,0,0,1,0,4907.03,0.189861,0.189561,-7.44546,4,0.0188189,10,-0.00141137,-2.12811,-0.235865,-0.250143,72.6091,0.189561,
2,0,0,1,0,4907.04,0.187863,0.187549,-7.58585,4,0.0187436,10,-0.00142272,-2.12,-0.221082,-0.266869,79.1758,0.187549,
2,0,0,1,0,4907.05,0.185866,0.185577,-7.76083,4,0.0186669,10,-0.00144023,-2.11009,-0.211575,-0.278862,84.3679,0.185577,
2,0,0,1,0,4907.06,0.183868,0.183577,-7.92095,4,0.0185884,10,-0.0014541,-2.10122,-0.192695,-0.306184,94.9955,0.183577,
2,0,0,1,0,4907.07,0.18188,0.181566,-8.14185,4,0.0185089,10,-0.00147829,-2.08928,-0.177775,-0.331879,105.276,0.181566,
2,0,0,1,0,4907.08,0.179882,0.179608,-8.33871,4,0.0184264,10,-0.0014977,-2.0789,-0.185684,-0.317744,103.514,0.179608,
2,0,0,1,0,4907.09,0.177885,0.177559,-8.55668,4,0.018342,10,-0.00151932,-2.06769,-0.174804,-0.337521,112.812,0.177559,
2,0,0,1,0,4907.1,0.175887,0.175574,-8.79386,4,0.0182551,10,-0.00154397,-2.05582,-0.158308,-0.372691,128.108,0.175574,
2,0,0,1,0,4907.11,0.173908,0.173602,-9.06363,4,0.0181668,10,-0.00157346,-2.0427,-0.148469,-0.397388,140.68,0.173602,
2,0,0,1,0,4907.12,0.171901,0.171593,-9.35385,4,0.0180746,10,-0.00160506,-2.02901,-0.145242,-0.406218,148.362,0.171593,
2,0,0,1,0,4907.13,0.169903,0.169586,-9.65947,4,0.0179796,10,-0.00163811,-2.01505,-0.138573,-0.42577,160.666,0.169586,
2,0,0,1,0,4907.14,0.167906,0.167626,-9.9913,4,0.0178813,10,-0.0016748,-2.00038,-0.132226,-0.446207,174.219,0.167626,
2,0,0,1,0,4907.15,0.165908,0.165578,-10.3576,4,0.0177796,10,-0.001715,-1.98474,-0.126989,-0.464607,187.94,0.165578,
2,0,0,1,0,4907.16,0.163901,0.1636,-10.7479,4,0.0176739,10,-0.00175835,-1.96868,-0.11939,-0.494179,207.591,0.1636,
2,0,0,1,0,4907.17,0.161904,0.161616,-11.1802,4,0.0175642,10,-0.0018069,-1.95155,-0.114184,-0.516708,225.605,0.161616,
2,0,0,1,0,4907.18,0.159906,0.159649,-11.6393,4,0.01745,10,-0.0018582,-1.93407,-0.111384,-0.529701,240.893,0.159649,
2,0,0,1,0,4907.19,0.157909,0.157638,-12.1385,4,0.0173311,10,-0.00191348,-1.91584,-0.107735,-0.547638,259.918,0.157638,
2,0,0,1,0,4907.2,0.155902,0.155573,-12.6987,4,0.0172068,10,-0.00197557,-1.89624,-0.104207,-0.566179,280.636,0.155573,
2,0,0,1,0,4907.21,0.153904,0.153571,-13.2799,4,0.0170768,10,-0.0020394,-1.87681,-0.102181,-0.577407,299.283,0.153571,
2,0,0,1,0,4907.22,0.151907,0.151622,-13.8812,4,0.0169409,10,-0.00210469,-1.85757,-0.100741,-0.58566,317.682,0.151622,
2,0,0,1,0,4907.23,0.149909,0.149613,-14.537,4,0.0167988,10,-0.00217493,-1.83752,-0.0981346,-0.601215,341.226,0.149613,
2,0,0,1,0,4907.24,0.147921,0.147683,-15.2251,4,0.0166514,10,-0.0022485,-1.81744,-0.100495,-0.587094,348.613,0.147683,
2,0,0,1,0,4907.25,0.145923,0.145664,-15.9138,4,0.0164956,10,-0.00231807,-1.79823,-0.103292,-0.571196,355.023,0.145664,
2,0,0,1,0,4907.26,0.143926,0.143675,-16.6482,4,0.0163327,10,-0.00239193,-1.77863,-0.104507,-0.564557,366.706,0.143675,
2,0,0,1,0,4907.27,0.141928,0.141624,-17.3954,4,0.0161624,10,-0.0024636,-1.75957,-0.109055,-0.54101,366.786,0.141624,
2,0,0,1,0,4907.28,0.139939,0.139673,-18.116,4,0.0159866,10,-0.00253032,-1.74194,-0.10968,-0.537931,380.705,0.1396732,
2,0,0,1,0,4907.29,0.137942,0.137688,-18.8937,4,0.0158015,10,-0.00260144,-1.72368,-0.11187,-0.527398,388.653,0.137688,
2,0,0,1,0,4907.3,0.135944,0.135674,-19.6704,4,0.0156084,10,-0.00266876,-1.70619,-0.117524,-0.502026,385.04,0.135674,
2,0,0,1,0,4907.31,0.133947,0.133695,-20.4311,4,0.0154079,10,-0.00273154,-1.68971,-0.124907,-0.472353,376.243,0.133695,
2,0,0,1,0,4907.32,0.13194,0.131695,-21.1675,4,0.0151998,10,-0.00278764,-1.67433,-0.13296,-0.443743,366.401,0.1316947,
2,0,0,1,0,4907.33,0.129942,0.129684,-21.9007,4,0.0149844,10,-0.00284018,-1.65954,-0.142459,-0.414153,353.398,0.129684,
2,0,0,1,0,4907.34,0.127945,0.127707,-22.5766,4,0.0147619,10,-0.0028832,-1.64634,-0.154903,-0.380883,335.377,0.1277072,
2,0,0,1,0,4907.35,0.125947,0.125701,-23.2366,4,0.0145327,10,-0.00292087,-1.63383,-0.165788,-0.355876,322.512,0.125701,
2,0,0,1,0,4907.36,0.123941,0.123673,-23.8778,4,0.0142971,10,-0.00295303,-1.62201,-0.176118,-0.335003,311.825,0.123673,
2,0,0,1,0,4907.37,0.121943,0.121729,-24.4754,4,0.0140552,10,-0.00297935,-1.61127,-0.199675,-0.295481,281.867,0.121729,
2,0,0,1,0,4907.38,0.119945,0.119632,-25.0166,4,0.0138076,10,-0.0029928,-1.60177,-0.222359,-0.265336,258.833,0.119632,
2,0,0,1,0,4907.39,0.117948,0.117682,-25.5227,4,0.0135548,10,-0.00300357,-1.59307,-0.243357,-0.242442,241.192,0.117682,
2,0,0,1,0,4907.4,0.115946,0.115672,-25.9719,4,0.0132971,10,-0.00300422,-1.5855,-0.286397,-0.206008,208.553,0.115672,
2,0,0,1,0,4907.41,0.113962,0.113659,-26.3617,4,0.0130379,10,-0.00299625,-1.57903,-0.34883,-0.169137,173.728,0.113659,
2,0,0,1,0,4907.42,0.111964,0.11166,-26.6689,4,0.0127727,10,-0.00297784,-1.574,-0.436207,-0.135257,140.634,0.11166,
2,0,0,1,0,4907.43,0.109967,0.109658,-26.9244,4,0.0125046,10,-0.00295248,-1.56985,-0.570877,-0.10335,108.44,0.109658,
2,0,0,1,0,4907.44,0.107969,0.107654,-27.1033,4,0.0122344,10,-0.00291778,-1.56698,-0.838683,-0.0703484,74.3254,0.107654,
2,0,0,1,0,4907.45,0.10598,0.10568,-27.2201,4,0.0119654,10,-0.00287661,-1.56511,-1.717,-0.0343623,36.4434,0.10568,
2,0,0,1,0,4907.46,0.103983,0.103705,-27.2472,4,0.011693,10,-0.00282567,-1.56468,12.8665,0.00458557,-4.86957,0.1037049,
2,0,0,1,0,4907.47,0.101985,0.101687,-27.2006,4,0.0114207,10,-0.00276595,-1.56542,1.26838,0.0465161,-49.2835,0.101687,
2,0,0,1,0,4907.48,0.0999877,0.0996766,-27.0487,4,0.0111495,10,-0.00269612,-1.56785,0.699192,0.0843831,-88.9858,0.0996766,
2,0,0,1,0,4907.49,0.0979811,0.0976586,-26.8422,4,0.01088,10,-0.00262137,-1.57118,0.478483,0.123306,-128.916,0.09765856,
2,0,0,1,0,4907.5,0.0959835,0.0956631,-26.5312,4,0.0106131,10,-0.00253806,-1.57624,0.345273,0.170879,-176.658,0.0956631,
2,0,0,1,0,4907.51,0.0939859,0.0936875,-26.1407,4,0.0103497,10,-0.00244905,-1.58268,0.286463,0.20596,-209.846,0.0936875,
2,0,0,1,0,4907.52,0.0919883,0.09164,-25.687,4,0.0100906,10,-0.00235396,-1.59029,0.252715,0.233465,-233.863,0.09164,
2,0,0,1,0,4907.53,0.0899816,0.0896618,-25.1992,4,0.0098362,10,-0.00225941,-1.59861,0.213008,0.276985,-271.894,0.0896618,
2,0,0,1,0,4907.54,0.087984,0.0877349,-24.6252,4,0.00958707,10,-0.00216049,-1.60862,0.19622,0.300683,-288.85,0.0877349,
2,0,0,1,0,4907.55,0.0859865,0.0856483,-24.0399,4,0.00934381,10,-0.00205898,-1.61907,0.190799,0.309226,-290.02,0.0856483,
2,0,0,1,0,4907.56,0.0839889,0.0836762,-23.4482,4,0.00910638,10,-0.00196205,-1.62989,0.181291,0.325443,-297.848,0.0836762,
2,0,0,1,0,4907.57,0.0820004,0.0817247,-22.8713,4,0.00887722,10,-0.00186915,-1.64071,0.181878,0.324393,-289.491,0.0817247,
2,0,0,1,0,4907.58,0.0800028,0.0796911,-22.2945,4,0.00865144,10,-0.00177667,-1.6518,0.187094,0.315349,-274.548,0.0796911,
2,0,0,1,0,4907.59,0.0780052,0.0776567,-21.7544,4,0.00843133,10,-0.00168938,-1.66245,0.18809,0.31368,-266.404,0.0776567,
2,0,0,1,0,4907.6,0.0760076,0.0757225,-21.2373,4,0.00821643,10,-0.00160814,-1.6729,0.198628,0.297038,-246.463,0.0757225,
2,0,0,1,0,4907.61,0.0740191,0.0736805,-20.7744,4,0.00800869,10,-0.00153067,-1.68247,0.211245,0.279297,-226.528,0.0736805,
2,0,0,1,0,4907.62,0.0720215,0.0717345,-20.3339,4,0.00780321,10,-0.00145864,-1.69178,0.216156,0.272951,-216.746,0.0717345,
2,0,0,1,0,4907.63,0.0700239,0.069765,-19.9258,4,0.007602,10,-0.00139012,-1.70059,0.231393,0.254978,-198.355,0.069765,
2,0,0,1,0,4907.64,0.0680263,0.0677218,-19.5379,4,0.00740475,10,-0.00132314,-1.70912,0.256974,0.229595,-175.332,0.0677218,
2,0,0,1,0,4907.65,0.0660197,0.065702,-19.2134,4,0.00721118,10,-0.00126236,-1.7164,0.265414,0.222294,-166.615,0.065702,
2,0,0,1,0,4907.66,0.0640221,0.0637525,-18.8766,4,0.00702076,10,-0.00120343,-1.72408,0.258556,0.228191,-168.105,0.0637525,
2,0,0,1,0,4907.67,0.0620245,0.0617163,-18.5434,4,0.00683377,10,-0.00114443,-1.73181,0.272249,0.216713,-156.943,0.0617163,
2,0,0,1,0,4907.68,0.0600269,0.0596947,-18.2397,4,0.00664982,10,-0.00108882,-1.73898,0.283302,0.208258,-148.274,0.0596947,
2,0,0,1,0,4907.69,0.0580248,0.0576888,-17.9462,4,0.00646896,10,-0.0010353,-1.74603,0.278586,0.211784,-148.291,0.0576888,
2,0,0,1,0,4907.7,0.0560227,0.0556951,-17.6466,4,0.00629091,10,-0.00098283,-1.75334,0.269618,0.218828,-150.697,0.0556951,
2,0,0,1,0,4907.71,0.0540251,0.053723,-17.3485,4,0.00611603,10,-0.000932016,-1.76074,0.264479,0.22308,-151.01,0.053723,
2,0,0,1,0,4907.72,0.0520275,0.0517267,-17.0473,4,0.00594401,10,-0.000881802,-1.76834,0.252495,0.233668,-155.349,0.0517267,
2,0,0,1,0,4907.73,0.0500299,0.0497121,-16.7255,4,0.00577517,10,-0.000831457,-1.77662,0.252993,0.233208,-152.364,0.0497121,
2,0,0,1,0,4907.74,0.0480414,0.0477262,-16.4378,4,0.005611,10,-0.000784515,-1.78416,0.243922,0.241881,-154.96,0.0477262,
2,0,0,1,0,4907.75,0.0460438,0.0457364,-16.1094,4,0.00544838,10,-0.000736784,-1.79292,0.222468,0.265207,-166.671,0.04573635,
2,0,0,1,0,4907.76,0.0440462,0.0437385,-15.7732,4,0.00528898,10,-0.000689897,-1.80208,0.214764,0.27472,-169.078,0.0437385,
2,0,0,1,0,4907.77,0.0420486,0.0417503,-15.4354,4,0.00513306,10,-0.000644433,-1.81148,0.219997,0.268186,-161.713,0.0417503,
2,0,0,1,0,4907.78,0.0400601,0.0397763,-15.1324,4,0.00498174,10,-0.000601912,-1.82009,0.219665,0.268591,-158.481,0.0397763,
2,0,0,1,0,4907.79,0.0380625,0.0377842,-14.8069,4,0.00483212,10,-0.000559467,-1.82954,0.212286,0.277927,-160.587,0.0377842,
2,0,0,1,0,4907.8,0.036065,0.0357306,-14.4828,4,0.00468573,10,-0.000517478,-1.83915,0.217687,0.271032,-153.332,0.0357306,
2,0,0,1,0,4907.81,0.0340674,0.0337586,-14.1896,4,0.00454248,10,-0.000479021,-1.84803,0.228975,0.257671,-142.776,0.0337586,
2,0,0,1,0,4907.82,0.0320607,0.0317674,-13.9169,4,0.00440195,10,-0.000442104,-1.85646,0.239035,0.246826,-134.098,0.0317674,
2,0,0,1,0,4907.83,0.0300631,0.0297771,-13.6557,4,0.00426416,10,-0.000406627,-1.86469,0.252707,0.233472,-124.535,0.0297771,
2,0,0,1,0,4907.84,0.0280655,0.0277877,-13.4213,4,0.00412877,10,-0.000372947,-1.87221,0.285439,0.206699,-108.402,0.0277877,
2,0,0,1,0,4907.85,0.0260679,0.0257827,-13.2227,4,0.00399557,10,-0.000340916,-1.87868,0.315899,0.186768,-96.413,0.0257827,
2,0,0,1,0,4907.86,0.0240613,0.0237811,-13.035,4,0.00386428,10,-0.000309987,-1.88489,0.355911,0.165772,-84.4391,0.0237811,
2,0,0,1,0,4907.87,0.0220637,0.0217518,-12.8823,4,0.00373475,10,-0.000280213,-1.89001,0.397099,0.148578,-74.7092,0.02175176,
2,0,0,1,0,4907.88,0.0200661,0.0197589,-12.7345,4,0.00360669,10,-0.00025162,-1.89502,0.422471,0.139655,-69.4525,0.0197589,
2,0,0,1,0,4907.89,0.0180685,0.0177521,-12.6045,4,0.00347996,10,-0.000223757,-1.89947,0.546422,0.107975,-53.2164,0.0177521,
2,0,0,1,0,4907.9,0.01608,0.0157923,-12.5234,4,0.00335559,10,-0.000197774,-1.90228,0.752119,0.078445,-38.3536,0.0157923,
2,0,0,1,0,4907.91,0.0140824,0.0137611,-12.4515,4,0.00323077,10,-0.000171346,-1.90478,0.763054,0.0773209,-37.5609,0.0137611,
2,0,0,1,0,4907.92,0.0120848,0.0117474,-12.3715,4,0.00310669,10,-0.000145333,-1.90758,0.770607,0.076563,-36.9863,0.0117474,
2,0,0,1,0,4907.93,0.0100873,0.00980845,-12.3053,4,0.00298339,10,-0.000120696,-1.90991,1.16358,0.0507057,-24.3865,0.00980845,
2,0,0,1,0,4907.94,0.00810328,0.00780327,-12.2753,4,0.00286171,10,-9.57876e-05,-1.91097,2.05298,0.0287387,-13.7703,0.007803272,
2,0,0,1,0,4907.95,0.00610116,0.00578869,-12.2499,4,0.0027391,10,-7.09111e-05,-1.91187,1.83871,0.0320878,-15.3341,0.00578869,
2,0,0,1,0,4907.96,0.00410357,0.00383831,-12.2145,4,0.00261677,10,-4.68832e-05,-1.91312,-4.72222,-0.0124941,5.97902,0.00383831,
2,0,0,1,0,4907.97,0.00210598,0.00175606,-12.274,4,0.00249463,10,-2.1554e-05,-1.91101,-2.99822,-0.0196783,9.3952,0.00175606,
2,0,0,1,0,4907.98,0.00010174,-0.000228152,-12.2527,4,0.0023719,10,2.79548e-06,-1.91177,5.64252,0.0104563,-5.00463,-0.000228152,
2,0,0,1,0,4907.99,-0.00189827,-0.00229045,-12.2538,4,0.00224937,10,2.80667e-05,-1.91173,27.6217,0.002136,-1.02123,-0.00229045,
2,0,0,1,0,4908,-0.00389586,-0.00426252,-12.2486,4,0.0021268,10,5.22099e-05,-1.91191,-10.7133,-0.00550716,2.6348,-0.00426252,
2,0,0,1,0,4908.01,-0.00589345,-0.00626235,-12.2643,4,0.00200429,10,7.68031e-05,-1.91136,-4.72658,-0.0124826,5.9728,-0.00626235,
2,0,0,1,0,4908.02,-0.00789103,-0.00826305,-12.2725,4,0.00188153,10,0.000101408,-1.91107,-2.10071,-0.0280858,13.4718,-0.00826305,
2,0,0,1,0,4908.03,-0.0098977,-0.0101874,-12.3171,4,0.00175854,10,0.00012548,-1.90949,-1.36163,-0.0433304,20.8238,-0.0101874,
2,0,0,1,0,4908.04,-0.0118953,-0.012267,-12.3559,4,0.0016351,10,0.00015157,-1.90813,-1.74809,-0.0337511,16.2673,-0.012267,
2,0,0,1,0,4908.05,-0.0138929,-0.0142252,-12.3828,4,0.00151141,10,0.000176149,-1.90718,-1.71815,-0.0343392,16.6027,-0.0142252,
2,0,0,1,0,4908.06,-0.0158905,-0.0162233,-12.4216,4,0.00138732,10,0.000201519,-1.90582,-1.09221,-0.0540191,26.2149,-0.0162233,
2,0,0,1,0,4908.07,-0.017879,-0.0181934,-12.4868,4,0.00126398,10,0.000227179,-1.90355,-1.00218,-0.0588714,28.6695,-0.0181934,
2,0,0,1,0,4908.08,-0.0198766,-0.0201801,-12.535,4,0.0011388,10,0.000252958,-1.90188,-1.10468,-0.0534092,26.1361,-0.0201801,
2,0,0,1,0,4908.09,-0.0218741,-0.0221875,-12.5912,4,0.00101327,10,0.000279368,-1.89993,-1.10968,-0.0531685,26.1191,-0.0221875,
2,0,0,1,0,4908.1,-0.0238717,-0.0242052,-12.6401,4,0.000887119,10,0.000305956,-1.89825,-0.9957,-0.0592548,29.2532,-0.0242052,
2,0,0,1,0,4908.11,-0.0258602,-0.0262034,-12.7087,4,0.000761604,10,0.000333011,-1.8959,-0.934435,-0.0631397,31.3019,-0.0262034,
2,0,0,1,0,4908.12,-0.0278578,-0.0282249,-12.766,4,0.000634212,10,0.000360318,-1.89395,-0.990862,-0.0595441,29.6708,-0.0282249,
2,0,0,1,0,4908.13,-0.0298554,-0.0302135,-12.8277,4,0.000506273,10,0.000387569,-1.89185,-0.940902,-0.0627058,31.3936,-0.0302135,
2,0,0,1,0,4908.14,-0.031853,-0.0322046,-12.8909,4,0.000377588,10,0.000415146,-1.88972,-0.804906,-0.0733005,36.9054,-0.0322046,
2,0,0,1,0,4908.15,-0.0338597,-0.0341871,-12.9743,4,0.00024829,10,0.000443555,-1.88691,-0.845518,-0.0697797,35.2973,-0.0341871,
2,0,0,1,0,4908.16,-0.0358573,-0.0362008,-13.0319,4,0.000118216,10,0.000471767,-1.88499,-0.865492,-0.0681693,34.7027,-0.0362008,
2,0,0,1,0,4908.17,-0.0378548,-0.0382085,-13.1139,4,-1.2556e-05,10,0.000501062,-1.88227,-0.814502,-0.0724369,37.0493,-0.0382085,
2,0,0,1,0,4908.18,-0.0398524,-0.040184,-13.1795,4,-0.000144101,10,0.000529606,-1.8801,-0.7759,-0.0760407,39.149,-0.040184,
2,0,0,1,0,4908.19,-0.0418591,-0.0422073,-13.2704,4,-0.000276277,10,0.000560109,-1.87711,-0.764054,-0.0772196,39.9603,-0.0422073,
2,0,0,1,0,4908.2,-0.0438567,-0.0442106,-13.3404,4,-0.000409406,10,0.000589787,-1.87483,-0.821312,-0.0718362,37.412,-0.0442106,
2,0,0,1,0,4908.21,-0.0458543,-0.0461766,-13.4189,4,-0.000543182,10,0.000619641,-1.87228,-0.825494,-0.0714724,37.4182,-0.0461766,
2,0,0,1,0,4908.22,-0.0478519,-0.0481877,-13.4892,4,-0.000677742,10,0.000650015,-1.87001,-0.738709,-0.0798691,42.0903,-0.0481877,
2,0,0,1,0,4908.23,-0.0498585,-0.0501927,-13.588,4,-0.000813088,10,0.000682017,-1.86685,-0.645119,-0.091456,48.4908,-0.0501927,
2,0,0,1,0,4908.24,-0.051838,-0.0521768,-13.6827,4,-0.000948148,10,0.000713919,-1.86383,-0.787368,-0.0749331,39.9692,-0.0521768,
2,0,0,1,0,4908.25,-0.0538355,-0.054177,-13.7472,4,-0.00108522,10,0.000744784,-1.86178,-0.817057,-0.0722104,38.7776,-0.054177,
2,0,0,1,0,4908.26,-0.0558331,-0.0561701,-13.8375,4,-0.0012232,10,0.000777255,-1.85894,-0.685511,-0.0860672,46.4874,-0.0561701,
2,0,0,1,0,4908.27,-0.0578126,-0.0581747,-13.9331,4,-0.00136061,10,0.000810552,-1.85595,-0.676304,-0.0872389,47.4344,-0.0581747,
2,0,0,1,0,4908.28,-0.0598192,-0.060171,-14.0273,4,-0.00150049,10,0.000844038,-1.85303,-0.688933,-0.0856397,46.8794,-0.060171,
2,0,0,1,0,4908.29,-0.0618168,-0.0621613,-14.12,4,-0.00164117,10,0.000877716,-1.85017,-0.657902,-0.089679,49.4363,-0.0621613,
2,0,0,1,0,4908.3,-0.0638144,-0.0641369,-14.2234,4,-0.00178296,10,0.000912242,-1.847,-0.690591,-0.0854341,47.3918,-0.0641369,
2,0,0,1,0,4908.31,-0.065812,-0.0661271,-14.3079,4,-0.00192561,10,0.000946141,-1.84442,-0.650187,-0.0907432,50.7324,-0.0661271,
2,0,0,1,0,4908.32,-0.0678187,-0.0681704,-14.428,4,-0.00206945,10,0.000983562,-1.84079,-0.580484,-0.101639,57.2146,-0.0681704,
2,0,0,1,0,4908.33,-0.0698163,-0.070191,-14.5404,4,-0.00221428,10,0.00102061,-1.83742,-0.620386,-0.0951021,53.9463,-0.070191,
2,0,0,1,0,4908.34,-0.0718138,-0.0721388,-14.6421,4,-0.00236026,10,0.00105626,-1.8344,-0.599371,-0.0984365,56.2857,-0.0721388,
2,0,0,1,0,4908.35,-0.0738114,-0.074143,-14.7629,4,-0.00250729,10,0.00109456,-1.83083,-0.519691,-0.113529,65.4533,-0.074143,
2,0,0,1,0,4908.36,-0.0758181,-0.0761428,-14.9041,4,-0.00265575,10,0.00113484,-1.82669,-0.523198,-0.112768,65.5429,-0.07614278,
2,0,0,1,0,4908.37,-0.0778157,-0.0781192,-15.0235,4,-0.00280542,10,0.00117362,-1.82323,-0.537909,-0.109684,64.3446,-0.0781192,
2,0,0,1,0,4908.38,-0.0798133,-0.0801156,-15.1598,4,-0.00295638,10,0.00121453,-1.81931,-0.525372,-0.112301,66.4291,-0.0801156,
2,0,0,1,0,4908.39,-0.0818109,-0.0821475,-15.2911,4,-0.00310862,10,0.00125612,-1.81556,-0.474502,-0.124341,74.2862,-0.0821475,
2,0,0,1,0,4908.4,-0.0837994,-0.0841306,-15.458,4,-0.00326089,10,0.00130049,-1.81085,-0.469729,-0.125604,75.696,-0.0841306,
2,0,0,1,0,4908.41,-0.0857969,-0.0861491,-15.594,4,-0.00341609,10,0.00134341,-1.80704,-0.46969,-0.125615,76.5361,-0.0861491,
2,0,0,1,0,4908.42,-0.0877945,-0.0881708,-15.7673,4,-0.00357292,10,0.00139021,-1.80224,-0.445588,-0.132409,81.4186,-0.0881708,
2,0,0,1,0,4908.43,-0.0897921,-0.0901384,-15.9188,4,-0.0037313,10,0.00143489,-1.79809,-0.446883,-0.132026,82.0757,-0.0901384,
2,0,0,1,0,4908.44,-0.0917806,-0.0921293,-16.0922,4,-0.00388979,10,0.00148256,-1.79339,-0.420133,-0.140432,88.2077,-0.09212929,
2,0,0,1,0,4908.45,-0.0937782,-0.0941378,-16.2716,4,-0.00405156,10,0.00153177,-1.78857,-0.425693,-0.138597,87.9879,-0.0941378,
2,0,0,1,0,4908.46,-0.0957758,-0.0961151,-16.4429,4,-0.00421516,10,0.00158041,-1.78402,-0.455884,-0.129419,83.0198,-0.0961151,
2,0,0,1,0,4908.47,-0.0977734,-0.0981349,-16.6034,4,-0.0043804,10,0.00162937,-1.7798,-0.420709,-0.140239,90.9847,-0.09813486,
2,0,0,1,0,4908.47,-0.0997412,-0.100111,-16.8064,4,-0.00454411,10,0.0016825,-1.77453,0.0900461,0.65522,-414.26,-0.100111,
2,0,0,1,1,4908.48,-0.0996711,-0.100065,-15.8037,4,-0.00459327,10,0.0015814,-1.80124,-0.00980216,-6.01908,3146.33,-0.100065,
2,0,0,1,1,4908.49,-0.0976826,-0.0980994,-10.4781,4,-0.00472113,10,0.0010279,-1.97972,-0.01026,-5.75049,2342.25,-0.0980994,
2,0,0,1,1,4908.5,-0.095685,-0.0960713,-6.44887,4,-0.00480447,10,0.000619552,-2.19052,-0.00803008,-7.34737,1782.87,-0.0960713,
2,0,0,1,1,4908.51,-0.0936874,-0.0940767,-3.30624,4,-0.00485219,10,0.00031104,-2.48067,-0.0043861,-13.4516,1409.72,-0.0940767,
2,0,0,1,1,4908.52,-0.0916898,-0.0920511,-0.781432,4,-0.00487189,10,7.19317e-05,-3.10711,-0.00915065,-6.44763,1134.53,-0.0920511,
2,1,0,1,1,4908.53,-0.0897013,-0.090093,1.21336,4,-0.0048691,10,-0.000109315,-2.91601,0.00697519,8.45855,926.656,-0.090093,
2,1,0,1,1,4908.54,-0.0877037,-0.0880915,2.88776,4,-0.00484811,10,-0.000254387,-2.53944,0.00735753,8.019,756.441,-0.0880915,
2,1,0,1,1,4908.55,-0.0857062,-0.0860994,4.23427,4,-0.00481204,10,-0.000364568,-2.37322,0.0149278,3.95236,615.503,-0.0860994,
2,1,0,1,1,4908.56,-0.0837086,-0.0841022,5.34316,4,-0.00476381,10,-0.000449371,-2.2722,0.0231015,2.55394,517.811,-0.0841022,
2,1,0,1,1,4908.57,-0.0817019,-0.0821267,6.29141,4,-0.00470534,10,-0.000516693,-2.20125,0.0326913,1.80476,435.02,-0.08212667,
2,1,0,1,1,4908.58,-0.0797043,-0.0800826,7.09177,4,-0.00463821,10,-0.000567927,-2.14925,0.0452977,1.30249,355.236,-0.0800826,
2,1,0,1,1,4908.59,-0.0777067,-0.0780628,7.73504,4,-0.00456385,10,-0.000603819,-2.11154,0.058945,1.00093,299.758,-0.0780628,
2,1,0,1,1,4908.6,-0.0757091,-0.0760968,8.28654,4,-0.00448363,10,-0.000630579,-2.08163,0.0736682,0.800888,257.501,-0.0760968,
2,1,0,1,1,4908.61,-0.0737025,-0.0740701,8.76318,4,-0.00439824,10,-0.000649089,-2.05734,0.093071,0.633925,215.665,-0.0740701,
2,1,0,1,1,4908.62,-0.0717049,-0.0720347,9.1626,4,-0.00430855,10,-0.000660025,-2.03798,0.120499,0.489629,174.031,-0.0720347,
2,1,0,1,1,4908.63,-0.0697073,-0.0700626,9.4606,4,-0.00421535,10,-0.000662834,-2.02408,0.148808,0.396484,146.237,-0.0700626,
2,1,0,1,1,4908.64,-0.0677097,-0.0680524,9.74496,4,-0.00411931,10,-0.000663168,-2.01122,0.173159,0.340728,129.2,-0.0680524,
2,1,0,1,1,4908.65,-0.0657212,-0.0660724,9.97613,4,-0.00402167,10,-0.000659147,-2.00104,0.21548,0.273807,106.378,-0.0660724,
2,1,0,1,1,4908.66,-0.0637236,-0.0640746,10.1681,4,-0.00392096,10,-0.000651518,-1.99276,0.268776,0.219514,86.9442,-0.0640746,
2,1,0,1,1,4908.67,-0.061726,-0.0620776,10.3235,4,-0.00381847,10,-0.000640856,-1.98617,0.303434,0.194441,78.3366,-0.0620776,
2,1,0,1,1,4908.68,-0.0597284,-0.0600957,10.4798,4,-0.00371443,10,-0.000629791,-1.97965,0.367606,0.160498,65.4855,-0.0600957,
2,1,0,1,1,4908.69,-0.0577399,-0.0580523,10.5871,4,-0.00361014,10,-0.000614603,-1.97522,0.446202,0.132227,54.6424,-0.0580523,
2,1,0,1,1,4908.7,-0.0557423,-0.0560933,10.6985,4,-0.00350372,10,-0.000600114,-1.97068,0.519549,0.11356,47.3352,-0.0560933,
2,1,0,1,1,4908.71,-0.0537447,-0.0540891,10.7747,4,-0.00339629,10,-0.000582792,-1.9676,0.705647,0.0836112,35.1387,-0.0540891,
2,1,0,1,1,4908.72,-0.0517472,-0.052098,10.8389,4,-0.00328818,10,-0.000564684,-1.96502,0.784286,0.0752276,31.8204,-0.052098,
2,1,0,1,1,4908.73,-0.049745,-0.0500756,10.9024,4,-0.00317946,10,-0.000545942,-1.96248,0.757741,0.077863,33.1407,-0.0500756,
2,1,0,1,1,4908.74,-0.0477429,-0.0480384,10.9734,4,-0.00307006,10,-0.000527146,-1.95966,1.04206,0.0566185,24.1969,-0.0480384,
2,1,0,1,1,4908.75,-0.0457453,-0.0460837,10.999,4,-0.00296015,10,-0.000506873,-1.95865,1.53595,0.0384127,16.4991,-0.0460837,
2,1,0,1,1,4908.76,-0.0437477,-0.0441073,11.0383,4,-0.00285006,10,-0.000486869,-1.9571,1.9045,0.0309792,13.3302,-0.04410731,
2,1,0,1,1,4908.77,-0.0417501,-0.0420823,11.0523,4,-0.00273958,10,-0.000465106,-1.95655,1.93855,0.0304352,13.1425,-0.0420823,
2,1,0,1,1,4908.78,-0.0397435,-0.0400851,11.0912,4,-0.00262878,10,-0.00044459,-1.95502,2.71156,0.0217587,9.40133,-0.0400851,
2,1,0,1,1,4908.79,-0.0377459,-0.0380722,11.09,4,-0.00251786,10,-0.000422221,-1.95507,4.68552,0.012592,5.45582,-0.0380722,
2,1,0,1,1,4908.8,-0.0357483,-0.0361028,11.1129,4,-0.00240689,10,-0.000401206,-1.95417,5.33707,0.0110548,4.78871,-0.0361028,
2,1,0,1,1,4908.81,-0.0337507,-0.0340787,11.1091,4,-0.00229572,10,-0.000378584,-1.95432,11.2077,0.00526423,2.28404,-0.0340787,
2,1,0,1,1,4908.82,-0.0317622,-0.0321049,11.122,4,-0.00218567,10,-0.000357071,-1.95382,19.0549,0.00309631,1.34274,-0.0321049,
2,1,0,1,1,4908.83,-0.0297646,-0.0301636,11.1144,4,-0.00207445,10,-0.000335249,-1.95411,-13.7258,-0.00429847,-1.86515,-0.0301636,
2,1,0,1,1,4908.84,-0.027767,-0.0280982,11.1145,4,-0.00196336,10,-0.000312298,-1.95411,-3.68371,-0.0160165,-6.93848,-0.0280982,
2,1,0,1,1,4908.85,-0.0257694,-0.0261036,11.0862,4,-0.00185235,10,-0.000289389,-1.95522,-7.00955,-0.00841709,-3.64865,-0.0261036,
2,1,0,1,1,4908.86,-0.0237809,-0.0241099,11.1,4,-0.00174254,10,-0.000267619,-1.95468,-14.4061,-0.00409549,-1.77139,-0.0241099,
2,1,0,1,1,4908.87,-0.0217833,-0.0220979,11.0791,4,-0.0016316,10,-0.000244825,-1.9555,-2.2576,-0.026134,-11.2983,-0.0220979,
2,1,0,1,1,4908.88,-0.0197858,-0.0201501,11.0552,4,-0.00152089,10,-0.000222764,-1.95643,-1.99822,-0.0295262,-12.7378,-0.0201501,
2,1,0,1,1,4908.89,-0.0177882,-0.0181702,11.0291,4,-0.00141038,10,-0.000200401,-1.95746,-7.40359,-0.00796911,-3.43611,-0.0181702,
2,1,0,1,1,4908.9,-0.0157815,-0.0160819,11.0413,4,-0.00130008,10,-0.000177565,-1.95698,-3.43409,-0.0171807,-7.38511,-0.0160819,
2,1,0,1,1,4908.91,-0.0137839,-0.0141419,10.9993,4,-0.00118982,10,-0.000155552,-1.95863,-1.53371,-0.0384687,-16.5269,-0.0141419,
2,1,0,1,1,4908.92,-0.0117863,-0.0120953,10.9754,4,-0.00107999,10,-0.00013275,-1.95958,-2.35538,-0.025049,-10.7316,-0.0120953,
2,1,0,1,1,4908.93,-0.00978874,-0.0101145,10.9561,4,-0.000970285,10,-0.000110816,-1.96034,-4.44442,-0.0132751,-5.6803,-0.0101145,
2,1,0,1,1,4908.94,-0.00778208,-0.00809994,10.9527,4,-0.000860807,10,-8.87161e-05,-1.96048,-1.93011,-0.0305682,-13.0393,-0.00809994,
2,1,0,1,1,4908.95,-0.00578449,-0.00611139,10.9039,4,-0.000751535,10,-6.6638e-05,-1.96242,-1.42833,-0.041307,-17.6,-0.00611139,
2,1,0,1,1,4908.96,-0.0037869,-0.00411155,10.8825,4,-0.000642616,10,-4.4744e-05,-1.96327,-1.8296,-0.0322475,-13.6887,-0.00411155,
2,1,0,1,1,4908.97,-0.00178931,-0.00215771,10.8498,4,-0.000533893,10,-2.34107e-05,-1.96458,-1.25092,-0.0471652,-19.964,-0.002157707,
2,1,0,1,1,4908.98,-2.55332e-05,-0.000439847,10.8092,4,-0.000439643,10,-4.75439e-06,-1.96621, , , ,-0.000439847,