File: Figure_codes/Fig_3-5/rawdata_trumpetplot_data/before 10th/20221101_1-115_002_TrumpetPlot_ParaChange_08_CV_C01_4.csv
mode,ox/red,error,control changes,counter inc.,time/s,control/V,Ewe/V,<I>/mA,cycle number,(Q-Qo)/C,I Range,P/W,log(|I|),Tafel slope mV/dec,alpha_eff,dI/d(E-IR),E-IR/V,
2,0,0,0,0,6095.7,2.44065e-05,-0.0002108,-2.40584,5,0.0000000E+000,11,5.07151e-07,-2.61873, , , ,-0.0002108,
2,0,0,1,0,6095.73,0.00129787,0.000920635,0.112819,5,-2.72185e-05,11,1.03865e-07,-3.94762, , , ,0.0009206353,
2,1,0,1,0,6095.77,0.00279427,0.00249841,1.11382,5,-9.73934e-07,11,2.78278e-06,-2.95318,0.00962009,6.133,491.589,0.00249841,
2,1,0,1,0,6095.81,0.00429425,0.00399544,1.40389,5,4.72035e-05,11,5.60917e-06,-2.85267,0.016703,3.53229,163.992,0.00399544,
2,1,0,1,0,6095.85,0.00579422,0.00547927,1.52568,5,0.000102605,11,8.35962e-06,-2.81654,0.0479994,1.22918,70.3406,0.00547927,
2,1,0,1,0,6095.88,0.00729063,0.00701188,1.59938,5,0.000161275,11,1.12147e-05,-2.79605,0.0936288,0.630148,38.7028,0.00701188,
2,1,0,1,0,6095.92,0.00878703,0.00846013,1.64734,5,0.000222175,11,1.39367e-05,-2.78322,0.13554,0.435296,27.7679,0.008460125,
2,1,0,1,0,6095.96,0.010287,0.0100177,1.67726,5,0.000284726,11,1.68022e-05,-2.7754,0.18413,0.320426,20.9422,0.0100177,
2,1,0,1,0,6096,0.011787,0.0114817,1.70647,5,0.000348488,11,1.95932e-05,-2.7679,0.202203,0.291786,19.4771,0.0114817,
2,1,0,1,0,6096.03,0.0132825,0.0129709,1.7307,5,0.000413,11,2.24486e-05,-2.76178,0.210764,0.279934,19.0219,0.0129709,
2,1,0,1,0,6096.07,0.014778,0.0144898,1.76134,5,0.000478539,11,2.55215e-05,-2.75416,0.250204,0.235807,16.1731,0.0144898,
2,1,0,1,0,6096.11,0.0162816,0.0160001,1.78624,5,0.000545542,11,2.858e-05,-2.74806,0.302089,0.195307,13.5319,0.0160001,
2,1,0,1,0,6096.15,0.017778,0.0174905,1.80893,5,0.00061282,11,3.1639e-05,-2.74258,0.418318,0.141041,9.90812,0.0174905,
2,1,0,1,0,6096.18,0.0192744,0.0189749,1.82173,5,0.00068066,11,3.4567e-05,-2.73952,0.361719,0.16311,11.57,0.01897485,
2,1,0,1,0,6096.22,0.0207743,0.0204994,1.84011,5,0.000749425,11,3.77213e-05,-2.73516,0.333916,0.176691,12.6612,0.0204994,
2,1,0,1,0,6096.26,0.0222743,0.021977,1.85644,5,0.000818968,11,4.07991e-05,-2.73132,0.345997,0.170522,12.3773,0.021977,
2,1,0,1,0,6096.3,0.0237707,0.0234899,1.87319,5,0.000888986,11,4.40009e-05,-2.72742,0.453157,0.130198,9.54319,0.0234899,
2,1,0,1,0,6096.33,0.0252671,0.0249517,1.88223,5,0.000959515,11,4.6965e-05,-2.72533,0.413079,0.14283,10.5723,0.0249517,
2,1,0,1,0,6096.37,0.0267671,0.0264999,1.90984,5,0.00103087,11,5.06106e-05,-2.719,0.304564,0.193719,14.4265,0.02649989,
2,1,0,1,0,6096.41,0.0282671,0.0279812,1.93442,5,0.00110298,11,5.41273e-05,-2.71345,0.341003,0.173019,12.9884,0.0279812,
2,1,0,1,0,6096.45,0.0297626,0.0295059,1.94843,5,0.00117564,11,5.74902e-05,-2.71032,0.40618,0.145256,10.9923,0.0295059,
2,1,0,1,0,6096.48,0.0312581,0.0309673,1.95387,5,0.00124883,11,6.0506e-05,-2.7091,0.379664,0.155401,11.9009,0.0309673,
2,1,0,1,0,6096.52,0.0327616,0.0324525,1.97744,5,0.001323,11,6.41731e-05,-2.7039,0.351517,0.167844,12.9876,0.0324525,
2,1,0,1,0,6096.56,0.034258,0.0339623,1.99654,5,0.00139765,11,6.7807e-05,-2.69972,0.329591,0.17901,13.9914,0.0339623,
2,1,0,1,0,6096.6,0.0357545,0.0354849,2.01743,5,0.00147304,11,7.15883e-05,-2.6952,0.395947,0.14901,11.7637,0.0354849,
2,1,0,1,0,6096.63,0.0372544,0.0369904,2.04112,5,0.00154945,11,7.5502e-05,-2.69013,0.343358,0.171832,13.7063,0.0369904,
2,1,0,1,0,6096.67,0.0387544,0.0385077,2.06244,5,0.00162653,11,7.94198e-05,-2.68562,0.286691,0.205797,16.6158,0.0385077,
2,1,0,1,0,6096.71,0.0402508,0.039936,2.09336,5,0.00170437,11,8.36002e-05,-2.67916,0.266842,0.221105,18.0191,0.039936,
2,1,0,1,0,6096.75,0.0417472,0.0415021,2.12317,5,0.00178331,11,8.81159e-05,-2.67302,0.288229,0.204698,16.865,0.0415021,
2,1,0,1,0,6096.78,0.0432472,0.0429865,2.1476,5,0.00186343,11,9.23179e-05,-2.66805,0.276144,0.213656,17.8625,0.0429865,
2,1,0,1,0,6096.82,0.0447472,0.0444472,2.16872,5,0.00194432,11,9.63936e-05,-2.6638,0.264303,0.223229,18.9453,0.0444472,
2,1,0,1,0,6096.86,0.0462427,0.0459372,2.20085,5,0.00202619,11,0.000101101,-2.65741,0.222399,0.265289,22.7801,0.0459372,
2,1,0,1,0,6096.9,0.0477382,0.0474281,2.22838,5,0.0021093,11,0.000105688,-2.65201,0.21948,0.268817,23.4662,0.0474281,
2,1,0,1,0,6096.93,0.0492417,0.048946,2.26186,5,0.00219403,11,0.000110709,-2.64553,0.232018,0.254291,22.5057,0.048946,
2,1,0,1,0,6096.97,0.0507381,0.0504398,2.2909,5,0.00227948,11,0.000115553,-2.63999,0.220228,0.267905,24.0449,0.0504398,
2,1,0,1,0,6097.01,0.0522345,0.0519661,2.33889,5,0.0023663,11,0.000121543,-2.63099,0.198987,0.296502,27.0044,0.0519661,
2,1,0,1,0,6097.05,0.0537345,0.053454,2.38394,5,0.00245488,11,0.000127431,-2.6227,0.211401,0.27909,25.8338,0.05345403,
2,1,0,1,0,6097.08,0.0552345,0.0549565,2.42105,5,0.00254503,11,0.000133052,-2.616,0.213284,0.276626,26.0701,0.0549565,
2,1,0,1,0,6097.12,0.0567309,0.0564554,2.45123,5,0.00263632,11,0.000138385,-2.61062,0.212723,0.277356,26.6338,0.0564554,
2,1,0,1,0,6097.16,0.0582273,0.0579406,2.49608,5,0.00272907,11,0.000144624,-2.60274,0.195167,0.302305,29.5438,0.0579406,
2,1,0,1,0,6097.2,0.0597309,0.0594331,2.5421,5,0.00282405,11,0.000151085,-2.59481,0.186043,0.31713,31.5288,0.0594331,
2,1,0,1,0,6097.23,0.0612264,0.0609666,2.58858,5,0.0029203,11,0.000157817,-2.58694,0.19732,0.299006,30.2062,0.0609666,
2,1,0,1,0,6097.27,0.0627219,0.0624358,2.63706,5,0.00301821,11,0.000164647,-2.57888,0.197479,0.298766,30.7268,0.0624358,
2,1,0,1,0,6097.31,0.0642218,0.0639202,2.68406,5,0.00311798,11,0.000171566,-2.57121,0.183428,0.321651,33.6689,0.0639202,
2,1,0,1,0,6097.35,0.0657218,0.0654414,2.73437,5,0.00321966,11,0.000178941,-2.56314,0.183306,0.321867,34.2281,0.0654414,
2,1,0,1,0,6097.38,0.0672182,0.0669172,2.78483,5,0.00332306,11,0.000186353,-2.5552,0.200252,0.294629,31.9416,0.0669172,
2,1,0,1,0,6097.42,0.0687146,0.0684386,2.8285,5,0.0034282,11,0.000193578,-2.54844,0.217449,0.271329,29.9717,0.0684386,
2,1,0,1,0,6097.46,0.0702146,0.069962,2.86814,5,0.00353522,11,0.000200661,-2.5424,0.221218,0.266705,29.9802,0.06996204,
2,1,0,1,0,6097.5,0.0717146,0.0714411,2.92032,5,0.00364406,11,0.000208631,-2.53457,0.199805,0.295288,33.7025,0.0714411,
2,1,0,1,0,6097.53,0.073211,0.0729262,2.96953,5,0.00375449,11,0.000216556,-2.52731,0.210242,0.280629,32.5409,0.0729262,
2,1,0,1,0,6097.57,0.0747074,0.0743918,3.02243,5,0.0038667,11,0.000224844,-2.51964,0.228607,0.258085,30.3536,0.0743918,
2,1,0,1,0,6097.61,0.0762109,0.0758663,3.06295,5,0.00398125,11,0.000232375,-2.51386,0.228596,0.258097,30.8086,0.0758663,
2,1,0,1,0,6097.65,0.0777064,0.0773553,3.1099,5,0.00409675,11,0.000240567,-2.50725,0.227601,0.259225,31.4414,0.0773553,
2,1,0,1,0,6097.68,0.079202,0.078913,3.15799,5,0.00421406,11,0.000249206,-2.50059,0.235734,0.250282,30.786,0.078913,
2,1,0,1,0,6097.72,0.0807019,0.0803854,3.19819,5,0.00433345,11,0.000257088,-2.4951,0.272891,0.216203,26.9511,0.0803854,
2,1,0,1,0,6097.76,0.0822019,0.0819206,3.23236,5,0.00445439,11,0.000264797,-2.49048,0.272689,0.216364,27.3771,0.0819206,
2,1,0,1,0,6097.79,0.0836983,0.083452,3.28023,5,0.00457644,11,0.000273741,-2.4841,0.274673,0.214801,27.5567,0.083452,
2,1,0,1,0,6097.83,0.0851947,0.084914,3.32278,5,0.00470016,11,0.000282151,-2.4785,0.271658,0.217185,28.1842,0.084914,
2,1,0,1,0,6097.87,0.0866947,0.0864126,3.37067,5,0.00482586,11,0.000291269,-2.47228,0.296246,0.199159,26.1179,0.0864126,
2,1,0,1,0,6097.91,0.0881947,0.0878998,3.40931,5,0.00495307,11,0.000299678,-2.46733,0.315704,0.186884,24.8064,0.0878998,
2,1,0,1,0,6097.94,0.0896911,0.0893822,3.44414,5,0.0050812,11,0.000307845,-2.46292,0.29323,0.201207,27.0161,0.0893822,
2,1,0,1,0,6097.98,0.0911875,0.0908928,3.48485,5,0.0052108,11,0.000316748,-2.45782,0.287648,0.205112,27.846,0.0908928,
2,1,0,1,0,6098.02,0.0926901,0.0923971,3.51732,5,0.00534272,11,0.00032499,-2.45379,0.280346,0.210454,28.923,0.0923971,
2,1,0,1,0,6098.06,0.0941856,0.0938945,3.55598,5,0.00547535,11,0.000333886,-2.44904,0.315545,0.186978,26.0364,0.0938945,
2,1,0,1,0,6098.09,0.0956821,0.0953867,3.5968,5,0.00560945,11,0.000343087,-2.44408,0.289201,0.20401,28.7361,0.0953867,
2,1,0,1,0,6098.13,0.097182,0.0968552,3.6451,5,0.00574551,11,0.000353047,-2.43829,0.277037,0.212968,30.3017,0.0968552,
2,1,0,1,0,6098.17,0.098682,0.0983912,3.68976,5,0.00588328,11,0.00036304,-2.433,0.268561,0.219689,31.6334,0.09839122,
2,1,0,1,0,6098.21,0.100178,0.0998676,3.73967,5,0.00602236,11,0.000373471,-2.42717,0.288188,0.204728,29.7985,0.0998676,
2,1,0,1,0,6098.24,0.101675,0.101396,3.78162,5,0.00616316,11,0.000383439,-2.42232,0.279159,0.211349,31.2012,0.1013956,
2,1,0,1,0,6098.28,0.103175,0.102848,3.8306,5,0.00630597,11,0.00039397,-2.41673,0.241997,0.243805,36.5434,0.102848,
2,1,0,1,0,6098.32,0.104675,0.104362,3.89333,5,0.00645094,11,0.000406316,-2.40968,0.219631,0.268633,40.8435,0.104362,
2,1,0,1,0,6098.36,0.106171,0.105912,3.9503,5,0.00659783,11,0.000418383,-2.40337,0.222721,0.264906,40.8967,0.105912,
2,1,0,1,0,6098.39,0.107667,0.107355,4.0121,5,0.00674705,11,0.000430721,-2.39663,0.202412,0.291484,45.7754,0.107355,
2,1,0,1,0,6098.43,0.10917,0.108902,4.0822,5,0.00689941,11,0.000444559,-2.38911,0.190333,0.309984,49.5425,0.108902,
2,1,0,1,0,6098.47,0.110666,0.110393,4.16533,5,0.00705381,11,0.000459825,-2.38035,0.173835,0.339402,55.1694,0.110393,
2,1,0,1,0,6098.51,0.112162,0.111913,4.25351,5,0.00721129,11,0.000476025,-2.37125,0.17433,0.338439,56.0472,0.111913,
2,1,0,1,0,6098.54,0.113662,0.1134,4.33625,5,0.00737237,11,0.00049173,-2.36289,0.168322,0.350519,59.2436,0.1134,
2,1,0,1,0,6098.58,0.115162,0.114873,4.42054,5,0.00753663,11,0.000507801,-2.35452,0.16068,0.36719,63.4484,0.114873,
2,1,0,1,0,6098.62,0.116658,0.116384,4.5212,5,0.00770409,11,0.000526198,-2.34475,0.149441,0.394804,69.7506,0.116384,
2,1,0,1,0,6098.66,0.118155,0.117893,4.6303,5,0.0078755,11,0.000545879,-2.33439,0.151192,0.390232,70.5893,0.117893,
2,1,0,1,0,6098.69,0.119655,0.119392,4.73454,5,0.00805138,11,0.000565267,-2.32472,0.160208,0.368272,68.1221,0.119392,
2,1,0,1,0,6098.73,0.121155,0.120893,4.83856,5,0.00823113,11,0.00058495,-2.31528,0.15425,0.382496,72.336,0.120893,
2,1,0,1,0,6098.77,0.122651,0.122363,4.95425,5,0.00841443,11,0.000606217,-2.30502,0.147602,0.399724,77.2247,0.122363,
2,1,0,1,0,6098.81,0.124147,0.123842,5.07336,5,0.00860199,11,0.000628297,-2.2947,0.151646,0.389065,76.8624,0.123842,
2,1,0,1,0,6098.84,0.12565,0.12538,5.18241,5,0.00879487,11,0.000649768,-2.28547,0.161274,0.365836,73.8002,0.12538,
2,1,0,1,0,6098.88,0.127146,0.126853,5.2811,5,0.00899085,11,0.000669922,-2.27728,0.16444,0.358793,74.0138,0.1268528,
2,1,0,1,0,6098.92,0.128642,0.128356,5.39526,5,0.00919077,11,0.000692515,-2.26799,0.172541,0.341947,72.0615,0.1283561,
2,1,0,1,0,6098.96,0.130142,0.129863,5.50228,5,0.00939544,11,0.000714544,-2.25946,0.177433,0.332519,71.4371,0.129863,
2,1,0,1,0,6098.99,0.131642,0.131323,5.60993,5,0.0096042,11,0.000736711,-2.25104,0.195564,0.301691,65.9909,0.131323,
2,1,0,1,0,6099.03,0.133139,0.132855,5.70974,5,0.00981619,11,0.000758568,-2.24338,0.204789,0.288101,64.1835,0.132855,
2,1,0,1,0,6099.07,0.134635,0.134302,5.80662,5,0.0100316,11,0.000779841,-2.23608,0.220699,0.267332,60.5255,0.134302,
2,1,0,1,0,6099.11,0.136135,0.135821,5.89926,5,0.0102512,11,0.000801241,-2.2292,0.225042,0.262174,60.2074,0.135821,
2,1,0,1,0,6099.14,0.137635,0.137343,5.98547,5,0.0104741,11,0.000822061,-2.2229,0.259577,0.227293,52.9412,0.137343,
2,1,0,1,0,6099.18,0.13913,0.138829,6.05474,5,0.0106994,11,0.000840571,-2.2179,0.298436,0.197698,46.6291,0.138829,
2,1,0,1,0,6099.22,0.140626,0.140352,6.11066,5,0.0109271,11,0.000857642,-2.21391,0.403936,0.146063,34.7767,0.140352,
2,1,0,1,0,6099.26,0.14213,0.141801,6.16813,5,0.0111584,11,0.000874647,-2.20985,0.433134,0.136217,32.7548,0.1418009,
2,1,0,1,0,6099.29,0.143626,0.14338,6.20408,5,0.0113898,11,0.000889539,-2.20732,0.575131,0.102585,24.8617,0.14338,
2,1,0,1,0,6099.33,0.145122,0.144837,6.24631,5,0.0116229,11,0.000904696,-2.20438,0.865753,0.0681488,16.5578,0.144837,
2,1,0,1,0,6099.37,0.146622,0.146309,6.25723,5,0.0118577,11,0.00091549,-2.20362,3.41484,0.0172775,4.21017,0.1463093,
2,1,0,1,0,6099.41,0.148122,0.147848,6.26455,5,0.0120926,11,0.000926199,-2.20311,-1.95049,-0.0302489,-7.36282,0.147848,
2,1,0,1,0,6099.44,0.149619,0.149337,6.24084,5,0.0123265,11,0.000931988,-2.20476,-0.61044,-0.0966517,-23.434,0.149337,
2,1,0,1,0,6099.48,0.151115,0.150829,6.19274,5,0.0125592,11,0.000934046,-2.20812,-0.337716,-0.174703,-42.03,0.150829,
2,1,0,1,0,6099.52,0.152615,0.152299,6.11177,5,0.0127902,11,0.000930817,-2.21383,-0.23678,-0.249177,-59.2592,0.152299,
2,1,0,1,0,6099.56,0.154115,0.153815,6.01028,5,0.0130178,11,0.00092447,-2.22111,-0.183645,-0.321272,-75.1889,0.153815,
2,1,0,1,0,6099.59,0.155611,0.155311,5.88534,5,0.0132406,11,0.000914059,-2.23023,-0.143811,-0.41026,-93.8645,0.1553113,
2,1,0,1,0,6099.63,0.157106,0.15679,5.7312,5,0.0134582,11,0.000898596,-2.24175,-0.11385,-0.518224,-115.256,0.15679,
2,1,0,1,0,6099.67,0.15861,0.158358,5.5462,5,0.0136704,11,0.000878284,-2.256,-0.0962481,-0.612999,-132.022,0.158358,
2,1,0,1,0,6099.71,0.160106,0.159803,5.33555,5,0.0138739,11,0.000852637,-2.27282,-0.0835106,-0.706497,-146.549,0.159803,
2,1,0,1,0,6099.74,0.161602,0.16132,5.11741,5,0.0140695,11,0.000825541,-2.29095,-0.0772109,-0.76414,-151.871,0.16132,
2,1,0,1,0,6099.78,0.163102,0.162866,4.88059,5,0.014257,11,0.000794882,-2.31153,-0.0712959,-0.827537,-157.233,0.162866,
2,1,0,1,0,6099.82,0.164602,0.164344,4.64072,5,0.0144356,11,0.000762673,-2.33341,-0.0674039,-0.87532,-158.404,0.164344,
2,1,0,1,0,6099.85,0.166099,0.165784,4.39594,5,0.0146048,11,0.000728778,-2.35695,-0.0656174,-0.899151,-154.831,0.165784,
2,1,0,1,0,6099.89,0.167595,0.167312,4.17884,5,0.0147653,11,0.000699171,-2.37894,-0.0696229,-0.847422,-138.63,0.167312,
2,1,0,1,0,6099.93,0.169095,0.168803,3.984,5,0.0149185,11,0.000672513,-2.39968,-0.0698927,-0.844152,-131.26,0.168803,
2,1,0,1,0,6099.97,0.170595,0.170299,3.78592,5,0.0150642,11,0.000644738,-2.42183,-0.0698972,-0.844097,-124.901,0.170299,
2,1,0,1,0,6100,0.172091,0.171796,3.6071,5,0.0152025,11,0.000619684,-2.44284,-0.0761781,-0.774501,-109.398,0.171796,
2,1,0,1,0,6100.04,0.173586,0.173306,3.45144,5,0.0153346,11,0.000598156,-2.462,-0.0801608,-0.736021,-99.4053,0.173306,
2,1,0,1,0,6100.08,0.17509,0.174806,3.3117,5,0.0154618,11,0.000578906,-2.47995,-0.0848713,-0.69517,-90.1,0.174806,
2,1,0,1,0,6100.12,0.176586,0.176275,3.18075,5,0.0155834,11,0.000560687,-2.49747,-0.0885788,-0.666074,-82.9688,0.176275,
2,1,0,1,0,6100.15,0.178083,0.177789,3.062,5,0.0157005,11,0.00054439,-2.514,-0.0946811,-0.623144,-74.8362,0.177789,
2,1,0,1,0,6100.19,0.179582,0.179281,2.96018,5,0.0158136,11,0.000530706,-2.52868,-0.100463,-0.587281,-68.2139,0.179281,
2,1,0,1,0,6100.23,0.181082,0.180829,2.8706,5,0.015923,11,0.000519089,-2.54203,-0.107533,-0.548668,-61.5171,0.180829,
2,1,0,1,0,6100.27,0.182579,0.182282,2.78307,5,0.0160289,11,0.000507303,-2.55548,-0.111092,-0.53109,-57.6584,0.182282,
2,1,0,1,0,6100.3,0.184075,0.183805,2.70704,5,0.0161316,11,0.000497566,-2.56751,-0.115696,-0.509958,-53.7817,0.183805,
2,1,0,1,0,6100.34,0.185579,0.185298,2.62978,5,0.0162318,11,0.000487293,-2.58008,-0.132647,-0.444789,-45.659,0.185298,
2,1,0,1,0,6100.38,0.187074,0.186775,2.56089,5,0.0163289,11,0.000478309,-2.59161,-0.140228,-0.420743,-42.0849,0.186775,
2,1,0,1,0,6100.42,0.18857,0.188296,2.4969,5,0.0164237,11,0.000470157,-2.6026,-0.150104,-0.39306,-38.4334,0.188296,
2,1,0,1,0,6100.45,0.19007,0.189713,2.43794,5,0.0165165,11,0.000462509,-2.61298,-0.155163,-0.380245,-36.3194,0.189713,
2,1,0,1,0,6100.49,0.19157,0.191252,2.38712,5,0.0166072,11,0.000456543,-2.62212,-0.173009,-0.341022,-31.9047,0.191252,
2,1,0,1,0,6100.53,0.193066,0.192776,2.3407,5,0.0166958,11,0.000451231,-2.63065,-0.200054,-0.29492,-26.9697,0.1927758,
2,1,0,1,0,6100.57,0.194563,0.194295,2.30644,5,0.0167829,11,0.000448131,-2.63706,-0.192087,-0.307152,-27.6004,0.194295,
2,1,0,1,0,6100.6,0.196063,0.195781,2.26682,5,0.0168687,11,0.0004438,-2.64458,-0.188845,-0.312425,-27.56,0.195781,
2,1,0,1,0,6100.64,0.197563,0.197261,2.22337,5,0.016953,11,0.000438585,-2.65299,-0.218465,-0.270066,-23.4682,0.1972613,
2,1,0,1,0,6100.68,0.199059,0.198754,2.1931,5,0.0170357,11,0.000435886,-2.65894,-0.24334,-0.242459,-20.7901,0.198754,
2,1,0,1,0,6100.72,0.200555,0.200242,2.16322,5,0.0171173,11,0.000433166,-2.6649,-0.270193,-0.218363,-18.4582,0.200242,
2,1,0,1,0,6100.75,0.202059,0.201767,2.13216,5,0.0171983,11,0.000430199,-2.67118,-0.264994,-0.222647,-18.5611,0.201767,
2,1,0,1,0,6100.79,0.203554,0.203259,2.10548,5,0.0172778,11,0.000427958,-2.67665,-0.316217,-0.186581,-15.3956,0.203259,
2,1,0,1,0,6100.83,0.20505,0.204742,2.08283,5,0.0173563,11,0.000426443,-2.68135,-0.402351,-0.146638,-11.9992,0.204742,
2,1,0,1,0,6100.87,0.20655,0.206234,2.0655,5,0.0174343,11,0.000425975,-2.68497,-0.408499,-0.144431,-11.637,0.206234,
2,1,0,1,0,6100.9,0.20805,0.20777,2.05262,5,0.0175119,11,0.000426473,-2.68769,-0.363715,-0.162215,-12.9157,0.20777,
2,1,0,1,0,6100.94,0.209546,0.209257,2.03216,5,0.0175883,11,0.000425244,-2.69204,-0.31797,-0.185552,-14.6986,0.209257,
2,1,0,1,0,6100.98,0.211043,0.210763,2.00703,5,0.0176639,11,0.000423007,-2.69745,-0.357224,-0.165162,-12.9651,0.210763,
2,1,0,1,0,6101.02,0.212543,0.212267,1.99382,5,0.0177391,11,0.000423222,-2.70031,-0.486935,-0.121166,-9.43567,0.212267,
2,1,0,1,0,6101.05,0.214043,0.21374,1.9753,5,0.0178137,11,0.0004222,-2.70437,-0.49378,-0.119486,-9.24759,0.21374,
2,1,0,1,0,6101.09,0.215539,0.215275,1.96475,5,0.0178877,11,0.000422961,-2.70669,-0.479942,-0.122932,-9.43509,0.215275,
2,1,0,1,0,6101.13,0.217035,0.216741,1.94642,5,0.017961,11,0.000421869,-2.71076,-0.510231,-0.115634,-8.81707,0.216741,
2,1,0,1,0,6101.17,0.218538,0.218247,1.93889,5,0.0180342,11,0.000423157,-2.71245,-0.842121,-0.0700612,-5.28883,0.218247,
2,1,0,1,0,6101.2,0.220034,0.219816,1.93541,5,0.0181067,11,0.000425433,-2.71323,-0.689778,-0.0855348,-6.4246,0.219816,
2,1,0,1,0,6101.24,0.22153,0.221242,1.91806,5,0.0181788,11,0.000424357,-2.71714,-0.479814,-0.122964,-9.19266,0.221242,
2,1,0,1,0,6101.28,0.22303,0.222737,1.89871,5,0.0182507,11,0.000422912,-2.72154,-0.565911,-0.104257,-7.75158,0.222737,
2,1,0,1,0,6101.32,0.22453,0.224275,1.89344,5,0.0183221,11,0.000424652,-2.72275,-0.678937,-0.0869006,-6.43861,0.224275,
2,1,0,1,0,6101.35,0.226026,0.225734,1.88216,5,0.0183929,11,0.000424868,-2.72534,-0.652008,-0.0904896,-6.67824,0.225734,
2,1,0,1,0,6101.39,0.227523,0.22723,1.87602,5,0.0184635,11,0.000426286,-2.72676,-0.484544,-0.121764,-8.90969,0.22723,
2,1,0,1,0,6101.43,0.229023,0.228778,1.86808,5,0.018534,11,0.000427376,-2.7286,-0.63833,-0.0924286,-6.74551,0.228778,
2,1,0,1,0,6101.47,0.230523,0.230216,1.86209,5,0.0186039,11,0.000428683,-2.73,-0.829539,-0.0711239,-5.16696,0.230216,
2,1,0,1,0,6101.5,0.232019,0.231779,1.85674,5,0.0186735,11,0.000430352,-2.73125,-0.9727,-0.0606559,-4.37771,0.231779,
2,1,0,1,0,6101.54,0.233515,0.233239,1.84858,5,0.0187429,11,0.000431162,-2.73316,-0.897017,-0.0657736,-4.73309,0.233239,
2,1,0,1,0,6101.58,0.235018,0.23473,1.83925,5,0.0188124,11,0.000431727,-2.73536,-0.82874,-0.0711924,-5.10898,0.23473,
2,1,0,1,0,6101.62,0.236514,0.236213,1.82551,5,0.0188811,11,0.000431207,-2.73862,-0.918228,-0.0642542,-4.60005,0.236213,
2,1,0,1,0,6101.65,0.23801,0.237726,1.82149,5,0.0189496,11,0.000433016,-2.73957,-1.69488,-0.0348108,-2.47996,0.237726,
2,1,0,1,0,6101.69,0.23951,0.23923,1.81674,5,0.0190181,11,0.000434617,-2.74071,-0.909898,-0.0648424,-4.60206,0.23923,
2,1,0,1,0,6101.73,0.24101,0.240719,1.81134,5,0.0190863,11,0.000436024,-2.742,-1.00241,-0.0588584,-4.16063,0.240719,
2,1,0,1,0,6101.77,0.242506,0.242178,1.80249,5,0.019154,11,0.000436523,-2.74413,-1.01522,-0.0581153,-4.08921,0.242178,
2,1,0,1,0,6101.8,0.244003,0.243714,1.80237,5,0.0192216,11,0.000439262,-2.74416,-1.34579,-0.0438404,-3.07076,0.243714,
2,1,0,1,0,6101.84,0.245503,0.245239,1.80079,5,0.0192892,11,0.000441624,-2.74454,-0.901685,-0.065433,-4.5777,0.245239,
2,1,0,1,0,6101.88,0.247003,0.246677,1.78838,5,0.0193566,11,0.000441152,-2.74754,-0.826891,-0.0713516,-4.97409,0.246677,
2,1,0,1,0,6101.91,0.248499,0.248201,1.7762,5,0.0194235,11,0.000440856,-2.75051,-0.982482,-0.060052,-4.18451,0.248201,
2,1,0,1,0,6101.95,0.249995,0.249748,1.77154,5,0.0194902,11,0.000442439,-2.75165,-1.03747,-0.0568694,-3.95662,0.249748,
2,1,0,1,0,6101.99,0.251498,0.251237,1.77113,5,0.0195571,11,0.000444975,-2.75175,-1.33916,-0.0440574,-3.0495,0.251237,
2,1,0,1,0,6102.03,0.252994,0.252722,1.76584,5,0.0196234,11,0.000446267,-2.75305,-0.833769,-0.070763,-4.8725,0.252722,
2,1,0,1,0,6102.06,0.25449,0.254266,1.76352,5,0.0196896,11,0.000448401,-2.75362,-1.02863,-0.0573581,-3.93854,0.254266,
2,1,0,1,0,6102.1,0.25599,0.255741,1.75903,5,0.0197556,11,0.000449857,-2.75473,-1.43879,-0.0410066,-2.80988,0.255741,
2,1,0,1,0,6102.14,0.25749,0.257199,1.75185,5,0.0198216,11,0.000450575,-2.7565,-2.5208,-0.0234053,-1.59725,0.257199,
2,1,0,1,0,6102.18,0.258987,0.258717,1.74817,5,0.0198873,11,0.000452281,-2.75742,-1.01965,-0.0578628,-3.94623,0.258717,
2,1,0,1,0,6102.21,0.260483,0.260239,1.74231,5,0.0199528,11,0.000453416,-2.75887,-0.827808,-0.0712726,-4.85997,0.260239,
2,1,0,1,0,6102.25,0.261983,0.261679,1.73401,5,0.0200181,11,0.000453754,-2.76095,-1.38704,-0.0425368,-2.89124,0.261679,
2,1,0,1,0,6102.29,0.263483,0.263217,1.73082,5,0.0200833,11,0.000455582,-2.76175,-2.15547,-0.0273722,-1.84987,0.2632167,
2,1,0,1,0,6102.33,0.264978,0.26472,1.73015,5,0.0201483,11,0.000458005,-2.76192,-1.40289,-0.0420561,-2.83912,0.26472,
2,1,0,1,0,6102.36,0.266474,0.266176,1.7277,5,0.0202131,11,0.000459872,-2.76253,-0.899734,-0.0655749,-4.40726,0.2661759,
2,1,0,1,0,6102.4,0.267977,0.267722,1.71692,5,0.020278,11,0.000459659,-2.76525,-1.47355,-0.0400393,-2.68304,0.267722,
2,1,0,1,0,6102.44,0.269474,0.269161,1.7181,5,0.0203423,11,0.000462445,-2.76495,-3.40021,-0.0173519,-1.1607,0.269161,
2,1,0,1,0,6102.48,0.27097,0.270668,1.71502,5,0.0204066,11,0.000464201,-2.76573,-1.99552,-0.0295662,-1.9774,0.270668,
2,1,0,1,0,6102.51,0.27247,0.272201,1.70313,5,0.020471,11,0.000463595,-2.76875,-0.845781,-0.069758,-4.64933,0.272201,
2,1,0,1,0,6102.55,0.27397,0.27372,1.69343,5,0.0205351,11,0.000463525,-2.77123,-1.32179,-0.0446363,-2.97244,0.27372,
2,1,0,1,0,6102.59,0.275467,0.275174,1.6966,5,0.0205988,11,0.000466858,-2.77042,-0.80007,-0.0737435,-4.89392,0.275174,
2,1,0,1,0,6102.63,0.276963,0.276687,1.69551,5,0.0206624,11,0.000469127,-2.7707,-1.47129,-0.0401008,-2.65249,0.2766872,
2,1,0,1,0,6102.66,0.278463,0.278154,1.69534,5,0.0207261,11,0.000471566,-2.77074,-0.849203,-0.0694769,-4.5622,0.278154,
2,1,0,1,0,6102.7,0.279963,0.279691,1.69074,5,0.0207896,11,0.000472886,-2.77192,-1.34337,-0.0439194,-2.88489,0.279691,
2,1,0,1,0,6102.74,0.281459,0.281194,1.68497,5,0.0208526,11,0.000473802,-2.77341,-2.37528,-0.0248391,-1.62994,0.2811937,
2,1,0,1,0,6102.78,0.282954,0.282643,1.678,5,0.0209156,11,0.000474275,-2.77521,-4.07611,-0.0144746,-0.948525,0.282643,
2,1,0,1,0,6102.81,0.284458,0.284185,1.67211,5,0.0209789,11,0.00047519,-2.77673,-2.03423,-0.0290036,-1.89874,0.284185,
2,1,0,1,0,6102.85,0.285954,0.285689,1.66558,5,0.0210417,11,0.000475838,-2.77843,-1.03378,-0.0570722,-3.732,0.285689,
2,1,0,1,0,6102.89,0.28745,0.287167,1.66198,5,0.0211042,11,0.000477265,-2.77937,-1.30579,-0.0451835,-2.94102,0.287167,
2,1,0,1,0,6102.93,0.28895,0.28869,1.66374,5,0.0211668,11,0.000480305,-2.77891,-3.3777,-0.0174675,-1.13133,0.28869,
2,1,0,1,0,6102.96,0.29045,0.290208,1.66398,5,0.0212293,11,0.000482901,-2.77885,-1.78141,-0.0331198,-2.14149,0.290208,
2,1,0,1,0,6103,0.291947,0.291638,1.65678,5,0.0212915,11,0.000483181,-2.78073,-0.949165,-0.0621599,-4.00652,0.291638,
2,1,0,1,0,6103.04,0.293443,0.29315,1.64642,5,0.0213534,11,0.000482648,-2.78346,-1.22688,-0.0480895,-3.09931,0.29315,
2,1,0,1,0,6103.08,0.294943,0.294688,1.64695,5,0.0214154,11,0.000485335,-2.78332,-3.39452,-0.017381,-1.11957,0.294688,
2,1,0,1,0,6103.11,0.296443,0.296175,1.64838,5,0.0214773,11,0.000488207,-2.78294,-2.51761,-0.0234349,-1.50675,0.296175,
2,1,0,1,0,6103.15,0.297939,0.297671,1.63675,5,0.021539,11,0.000487214,-2.78602,-0.818496,-0.0720834,-4.61052,0.297671,
2,1,0,1,0,6103.19,0.299434,0.299152,1.63207,5,0.0216005,11,0.000488236,-2.78726,-0.00804418,-7.33449,-348.886,0.299152,
2,1,0,0,0,6103.2,0.299962,0.299823,1.55494,5,0.0216246,11,0.000466206,-2.80829,0.00097607,60.4465,2517.54,0.299823,
2,0,0,1,0,6103.23,0.298689,0.298376,-0.118047,5,0.0216381,11,-3.52224e-05,-3.92794,0.00570844,10.3356,646.283,0.298376,
2,0,0,1,0,6103.27,0.297189,0.296917,-0.417074,5,0.0216266,11,-0.000123836,-3.37979,-0.00994533,-5.93243,179.55,0.296917,
2,0,0,1,0,6103.31,0.295692,0.295366,-0.5076,5,0.0216091,11,-0.000149928,-3.29448,-0.0199396,-2.95894,53.089,0.295366,
2,0,0,1,0,6103.35,0.294196,0.293881,-0.559421,5,0.0215889,11,-0.000164403,-3.25226,-0.0371309,-1.58897,34.0086,0.293881,
2,0,0,1,0,6103.38,0.292696,0.292388,-0.598368,5,0.0215669,11,-0.000174956,-3.22303,-0.0479155,-1.23134,28.9392,0.292388,
2,0,0,1,0,6103.42,0.291196,0.290858,-0.643548,5,0.0215434,11,-0.000187181,-3.19142,-0.0568093,-1.03856,25.9005,0.290858,
2,0,0,1,0,6103.46,0.2897,0.289393,-0.680312,5,0.0215184,11,-0.000196877,-3.16729,-0.068442,-0.862044,22.796,0.289393,
2,0,0,1,0,6103.5,0.288205,0.287945,-0.708649,5,0.0214922,11,-0.000204052,-3.14957,-0.088786,-0.664519,18.2751,0.287945,
2,0,0,1,0,6103.53,0.286701,0.286392,-0.735158,5,0.0214648,11,-0.000210543,-3.13362,-0.0916275,-0.643911,18.4273,0.286392,
2,0,0,1,0,6103.57,0.285205,0.284901,-0.764994,5,0.0214367,11,-0.000217947,-3.11634,-0.103834,-0.568217,16.8243,0.2849009,
2,0,0,1,0,6103.61,0.283708,0.283403,-0.788009,5,0.0214075,11,-0.000223324,-3.10347,-0.120203,-0.490837,14.9895,0.283403,
2,0,0,1,0,6103.65,0.282208,0.281894,-0.808815,5,0.0213773,11,-0.000228,-3.09215,-0.154075,-0.382931,12.0113,0.2818937,
2,0,0,1,0,6103.68,0.280709,0.280402,-0.826927,5,0.0213464,11,-0.000231872,-3.08253,-0.149065,-0.395802,12.8359,0.280402,
2,0,0,1,0,6103.72,0.279212,0.278911,-0.845907,5,0.021315,11,-0.000235932,-3.07268,-0.174491,-0.338126,11.2479,0.278911,
2,0,0,1,0,6103.76,0.277716,0.277392,-0.865584,5,0.0212828,11,-0.000240106,-3.06269,-0.160089,-0.368546,12.4356,0.277392,
2,0,0,1,0,6103.8,0.276216,0.275957,-0.88741,5,0.0212497,11,-0.000244887,-3.05188,-0.169275,-0.348545,12.0154,0.275957,
2,0,0,1,0,6103.83,0.274716,0.274398,-0.907236,5,0.0212161,11,-0.000248944,-3.04228,-0.179215,-0.329214,11.5371,0.274398,
2,0,0,1,0,6103.87,0.27322,0.272932,-0.917487,5,0.021182,11,-0.000250412,-3.0374,-0.186932,-0.315622,11.2593,0.272932,
2,0,0,1,0,6103.91,0.271725,0.271408,-0.934396,5,0.0211473,11,-0.000253602,-3.02947,-0.160483,-0.367639,13.3248,0.271408,
2,0,0,1,0,6103.95,0.270221,0.269957,-0.945385,5,0.0211117,11,-0.000255214,-3.02439,-0.213413,-0.27646,10.2199,0.269957,
2,0,0,1,0,6103.98,0.268725,0.268388,-0.960335,5,0.0210757,11,-0.000257742,-3.01758,-0.29437,-0.200428,7.55142,0.268388,
2,0,0,1,0,6104.02,0.267228,0.26692,-0.965437,5,0.0210394,11,-0.000257695,-3.01528,-0.256166,-0.230319,8.79669,0.26692,
2,0,0,1,0,6104.06,0.265728,0.265409,-0.985527,5,0.0210025,11,-0.000261568,-3.00633,-0.273388,-0.21581,8.33659,0.265409,
2,0,0,1,0,6104.1,0.264228,0.263906,-1.00266,5,0.020965,11,-0.000264608,-2.99885,-0.250398,-0.235625,9.20242,0.263906,
2,0,0,1,0,6104.13,0.262732,0.26244,-1.02028,5,0.020927,11,-0.000267763,-2.99128,-0.352608,-0.167325,6.59135,0.26244,
2,0,0,1,0,6104.17,0.261236,0.260941,-1.0301,5,0.0208886,11,-0.000268794,-2.98712,-0.304879,-0.19352,7.74955,0.260941,
2,0,0,1,0,6104.21,0.259736,0.259479,-1.04051,5,0.0208497,11,-0.000269992,-2.98275,-0.279638,-0.210987,8.5939,0.259479,
2,0,0,1,0,6104.25,0.258236,0.257954,-1.05301,5,0.0208103,11,-0.000271627,-2.97757,-0.257714,-0.228936,9.41011,0.257954,
2,0,0,1,0,6104.28,0.256741,0.256408,-1.0613,5,0.0207704,11,-0.000272125,-2.97416,-0.37177,-0.1587,6.60663,0.256408,
2,0,0,1,0,6104.32,0.255241,0.254909,-1.07569,5,0.0207301,11,-0.000274202,-2.96831,-0.335223,-0.176002,7.42903,0.254909,
2,0,0,1,0,6104.36,0.253741,0.25344,-1.08563,5,0.0206894,11,-0.000275142,-2.96432,-0.337887,-0.174614,7.42425,0.25344,
2,0,0,1,0,6104.4,0.252245,0.251956,-1.10149,5,0.0206483,11,-0.000277528,-2.95802,-0.304202,-0.19395,8.29386,0.251956,
2,0,0,1,0,6104.43,0.250748,0.250436,-1.11684,5,0.0206068,11,-0.000279697,-2.95201,-0.318653,-0.185154,8.00341,0.250436,
2,0,0,1,0,6104.47,0.249248,0.248953,-1.12901,5,0.0205647,11,-0.000281072,-2.9473,-0.388466,-0.151879,6.63487,0.248953,
2,0,0,1,0,6104.51,0.247748,0.247413,-1.13106,5,0.0205223,11,-0.000279838,-2.94651,-0.330457,-0.178541,7.89691,0.247413,
2,0,0,1,0,6104.55,0.246252,0.24593,-1.14419,5,0.0204797,11,-0.00028139,-2.9415,-0.279744,-0.210907,9.41346,0.24593,
2,0,0,1,0,6104.58,0.244756,0.244462,-1.15957,5,0.0204364,11,-0.000283471,-2.9357,-0.304617,-0.193686,8.74258,0.244462,
2,0,0,1,0,6104.62,0.243252,0.242943,-1.16299,5,0.0203925,11,-0.000282541,-2.93442,-0.47579,-0.124004,5.66675,0.242943,
2,0,0,1,0,6104.66,0.241756,0.241455,-1.1703,5,0.0203485,11,-0.000282576,-2.9317,-0.416903,-0.14152,6.51505,0.241455,
2,0,0,1,0,6104.7,0.240261,0.239961,-1.18539,5,0.0203042,11,-0.000284449,-2.92614,-0.366688,-0.1609,7.45221,0.239961,
2,0,0,1,0,6104.73,0.238761,0.238448,-1.20268,5,0.0202593,11,-0.000286777,-2.91985,-0.340801,-0.173121,8.07293,0.2384478,
2,0,0,1,0,6104.77,0.237261,0.236954,-1.21478,5,0.0202139,11,-0.000287848,-2.9155,-0.583139,-0.101176,4.75259,0.236954,
2,0,0,1,0,6104.81,0.235765,0.23548,-1.21992,5,0.0201683,11,-0.000287267,-2.91367,-0.433115,-0.136222,6.49388,0.23548,
2,0,0,1,0,6104.85,0.234268,0.233986,-1.22862,5,0.0201224,11,-0.000287481,-2.91058,-0.361059,-0.163408,7.87989,0.233986,
2,0,0,1,0,6104.88,0.232768,0.232451,-1.24035,5,0.0200758,11,-0.000288321,-2.90645,-0.341594,-0.172719,8.39429,0.232451,
2,0,0,1,0,6104.92,0.231268,0.230959,-1.25442,5,0.0200287,11,-0.000289721,-2.90156,-0.489488,-0.120534,5.91593,0.230959,
2,0,0,1,0,6104.96,0.229772,0.229472,-1.26623,5,0.0199813,11,-0.000290563,-2.89749,-0.483785,-0.121955,6.02544,0.229472,
2,0,0,1,0,6105,0.228275,0.227967,-1.27542,5,0.0199338,11,-0.000290755,-2.89435,-0.42885,-0.137577,6.85319,0.2279675,
2,0,0,1,0,6105.03,0.226772,0.226479,-1.29328,5,0.0198855,11,-0.0002929,-2.88831,-0.308775,-0.191078,9.56258,0.226479,
2,0,0,1,0,6105.07,0.225276,0.224961,-1.30732,5,0.0198369,11,-0.000294096,-2.88362,-0.319922,-0.18442,9.33784,0.224961,
2,0,0,1,0,6105.11,0.223781,0.223434,-1.30976,5,0.0197879,11,-0.000292646,-2.88281,-0.417677,-0.141257,7.22354,0.223434,
2,0,0,1,0,6105.15,0.222281,0.221981,-1.31648,5,0.0197383,11,-0.000292233,-2.88059,-0.341946,-0.172542,8.9338,0.221981,
2,0,0,1,0,6105.18,0.220781,0.220457,-1.32993,5,0.0196884,11,-0.000293192,-2.87617,-0.349633,-0.168749,8.80633,0.220457,
2,0,0,1,0,6105.22,0.219284,0.219013,-1.34881,5,0.0196379,11,-0.000295407,-2.87005,-0.385418,-0.153081,8.0723,0.219013,
2,0,0,1,0,6105.26,0.217788,0.217489,-1.35987,5,0.019587,11,-0.000295756,-2.8665,-0.485833,-0.121441,6.45115,0.217489,
2,0,0,1,0,6105.29,0.216288,0.216002,-1.36722,5,0.0195356,11,-0.000295321,-2.86416,-0.39902,-0.147862,7.9253,0.216002,
2,0,0,1,0,6105.33,0.214788,0.214488,-1.39068,5,0.0194838,11,-0.000298284,-2.85677,-0.387283,-0.152343,8.22881,0.214488,
2,0,0,1,0,6105.37,0.213292,0.212961,-1.40506,5,0.0194315,11,-0.000299224,-2.8523,-0.294012,-0.200672,10.9426,0.212961,
2,0,0,1,0,6105.41,0.211796,0.211502,-1.41562,5,0.0193787,11,-0.000299408,-2.84905,-0.459765,-0.128327,7.06433,0.211502,
2,0,0,1,0,6105.44,0.210293,0.209984,-1.42743,5,0.019325,11,-0.000299738,-2.84545,-0.332437,-0.177477,9.91996,0.209984,
2,0,0,1,0,6105.48,0.208797,0.208503,-1.43992,5,0.0192713,11,-0.000300229,-2.84166,-0.27128,-0.217487,12.3317,0.208503,
2,0,0,1,0,6105.52,0.207301,0.20699,-1.45526,5,0.0192168,11,-0.000301224,-2.83706,-0.281506,-0.209587,11.9644,0.20699,
2,0,0,1,0,6105.56,0.205801,0.205491,-1.4774,5,0.0191614,11,-0.000303593,-2.8305,-0.33459,-0.176335,10.1598,0.205491,
2,0,0,1,0,6105.59,0.204301,0.20396,-1.49736,5,0.0191055,11,-0.000305401,-2.82467,-0.461643,-0.127804,7.45458,0.20396,
2,0,0,1,0,6105.63,0.202804,0.202503,-1.50826,5,0.0190493,11,-0.000305426,-2.82152,-0.308987,-0.190947,11.2273,0.2025028,
2,0,0,1,0,6105.67,0.201308,0.200948,-1.53537,5,0.0189923,11,-0.00030853,-2.81379,-0.24808,-0.237827,14.1365,0.200948,
2,0,0,1,0,6105.71,0.199808,0.19949,-1.54889,5,0.0189345,11,-0.000308988,-2.80998,-0.266557,-0.221341,13.3761,0.19949,
2,0,0,1,0,6105.74,0.198308,0.198028,-1.56679,5,0.0188759,11,-0.000310268,-2.80499,-0.289328,-0.203921,12.5033,0.198028,
2,0,0,1,0,6105.78,0.196812,0.196489,-1.57874,5,0.0188168,11,-0.000310206,-2.80169,-0.251763,-0.234347,14.5624,0.196489,
2,0,0,1,0,6105.82,0.195316,0.194981,-1.60528,5,0.0187569,11,-0.000312999,-2.79445,-0.217224,-0.271609,17.1165,0.194981,
2,0,0,1,0,6105.86,0.193813,0.19349,-1.64037,5,0.0186957,11,-0.000317394,-2.78506,-0.221232,-0.266688,17.0031,0.19349,
2,0,0,1,0,6105.89,0.192317,0.192013,-1.66605,5,0.0186339,11,-0.000319903,-2.77831,-0.242212,-0.243589,15.724,0.192013,
2,0,0,1,0,6105.93,0.190821,0.190525,-1.68182,5,0.0185712,11,-0.000320429,-2.77422,-0.215672,-0.273564,17.9542,0.190525,
2,0,0,1,0,6105.97,0.189321,0.189005,-1.71231,5,0.0185075,11,-0.000323636,-2.76642,-0.20416,-0.288989,19.294,0.189005,
2,0,0,1,0,6106.01,0.187821,0.187539,-1.73925,5,0.0184426,11,-0.000326178,-2.75964,-0.192836,-0.30596,20.7933,0.1875394,
2,0,0,1,0,6106.04,0.186324,0.186002,-1.77251,5,0.0183767,11,-0.000329691,-2.75141,-0.211615,-0.278808,19.2992,0.186002,
2,0,0,1,0,6106.08,0.184828,0.184481,-1.80314,5,0.0183096,11,-0.000332645,-2.74397,-0.187851,-0.314079,22.1951,0.184481,
2,0,0,1,0,6106.12,0.183328,0.182974,-1.8384,5,0.0182412,11,-0.00033638,-2.73556,-0.171688,-0.343647,24.7981,0.182974,
2,0,0,1,0,6106.16,0.181828,0.181585,-1.88015,5,0.0181713,11,-0.000341408,-2.72581,-0.151323,-0.389894,28.639,0.181585,
2,0,0,1,0,6106.19,0.180332,0.180061,-1.92502,5,0.0181,11,-0.00034662,-2.71557,-0.14793,-0.398837,29.9082,0.180061,
2,0,0,1,0,6106.23,0.178836,0.178506,-1.97151,5,0.018027,11,-0.000351926,-2.7052,-0.152435,-0.387049,29.6823,0.178506,
2,0,0,1,0,6106.27,0.177333,0.177048,-2.01434,5,0.0179521,11,-0.000356634,-2.69587,-0.135614,-0.435058,34.2151,0.177048,
2,0,0,1,0,6106.31,0.175837,0.175472,-2.06446,5,0.0178757,11,-0.000362255,-2.68519,-0.126495,-0.46642,37.5964,0.175472,
2,0,0,1,0,6106.34,0.174341,0.174027,-2.11831,5,0.0177972,11,-0.000368642,-2.67401,-0.123461,-0.477884,39.6658,0.174027,
2,0,0,1,0,6106.38,0.172841,0.172569,-2.18162,5,0.0177164,11,-0.00037648,-2.66122,-0.121545,-0.485417,41.4282,0.172569,
2,0,0,1,0,6106.42,0.171341,0.171028,-2.23695,5,0.0176332,11,-0.000382581,-2.65034,-0.113186,-0.521264,45.8445,0.171028,
2,0,0,1,0,6106.46,0.169844,0.169545,-2.3235,5,0.0175477,11,-0.000393937,-2.63386,-0.10482,-0.562871,51.1268,0.169545,
2,0,0,1,0,6106.49,0.168348,0.168037,-2.40463,5,0.0174593,11,-0.000404068,-2.61895,-0.10183,-0.579398,54.2962,0.168037,
2,0,0,1,0,6106.53,0.166848,0.166532,-2.49316,5,0.0173674,11,-0.000415191,-2.60325,-0.096441,-0.611773,59.2713,0.166532,
2,0,0,1,0,6106.57,0.165348,0.16505,-2.57927,5,0.0172723,11,-0.00042571,-2.5885,-0.0929964,-0.634433,63.9218,0.16505,
2,0,0,1,0,6106.61,0.163852,0.163581,-2.67586,5,0.017174,11,-0.00043772,-2.57254,-0.0862738,-0.68387,71.7497,0.163581,
2,0,0,1,0,6106.64,0.162357,0.162074,-2.78527,5,0.0170717,11,-0.00045142,-2.55513,-0.0805314,-0.732634,79.9751,0.162074,
2,0,0,1,0,6106.68,0.160853,0.160552,-2.90738,5,0.0169643,11,-0.000466788,-2.5365,-0.0800603,-0.736944,83.8732,0.160552,
2,0,0,1,0,6106.72,0.159357,0.159057,-3.0394,5,0.0168528,11,-0.000483436,-2.51721,-0.0781726,-0.754741,89.8399,0.159057,
2,0,0,1,0,6106.76,0.157861,0.157527,-3.17957,5,0.0167363,11,-0.000500868,-2.49763,-0.0760403,-0.775905,96.5282,0.157527,
2,0,0,1,0,6106.79,0.156361,0.156055,-3.33482,5,0.016614,11,-0.000520416,-2.47693,-0.0726165,-0.812488,105.744,0.156055,
2,0,0,1,0,6106.83,0.154861,0.15457,-3.50273,5,0.0164857,11,-0.000541419,-2.45559,-0.0723534,-0.815442,111.203,0.15457,
2,0,0,1,0,6106.87,0.153364,0.153072,-3.66878,5,0.0163514,11,-0.000561587,-2.43548,-0.0744393,-0.792592,113.414,0.153072,
2,0,0,1,0,6106.91,0.151868,0.151549,-3.83523,5,0.016211,11,-0.000581227,-2.41621,-0.074856,-0.78818,118.375,0.1515494,
2,0,0,1,0,6106.94,0.150368,0.150065,-4.02546,5,0.0160633,11,-0.000604079,-2.39518,-0.0746431,-0.790428,124.149,0.150065,
2,0,0,1,0,6106.98,0.148868,0.148571,-4.21339,5,0.0159085,11,-0.000625987,-2.37537,-0.0765972,-0.770263,126.66,0.148571,
2,0,0,1,0,6107.02,0.147372,0.147055,-4.39185,5,0.0157473,11,-0.000645842,-2.35735,-0.0802701,-0.735018,126.281,0.147055,
2,0,0,1,0,6107.06,0.145877,0.145586,-4.58902,5,0.015579,11,-0.000668095,-2.33828,-0.0826483,-0.713868,127.806,0.145586,
2,0,0,1,0,6107.09,0.144373,0.144087,-4.79042,5,0.0154024,11,-0.000690237,-2.31963,-0.0864497,-0.682478,127.312,0.144087,
2,0,0,1,0,6107.13,0.142877,0.142556,-4.98301,5,0.0152196,11,-0.000710358,-2.30251,-0.0916749,-0.643579,124.645,0.142556,
2,0,0,1,0,6107.17,0.14138,0.141082,-5.16456,5,0.0150297,11,-0.000728625,-2.28697,-0.102272,-0.576895,115.733,0.141082,
2,0,0,1,0,6107.21,0.13988,0.139588,-5.32978,5,0.0148327,11,-0.000743974,-2.27329,-0.111587,-0.528733,109.778,0.139588,
2,0,0,1,0,6107.24,0.13838,0.138093,-5.48502,5,0.0146297,11,-0.000757445,-2.26082,-0.122154,-0.482997,103.378,0.138093,
2,0,0,1,0,6107.28,0.136884,0.136614,-5.63548,5,0.0144214,11,-0.000769886,-2.24907,-0.132651,-0.444776,97.7059,0.136614,
2,0,0,1,0,6107.32,0.135388,0.135072,-5.7774,5,0.0142076,11,-0.000780366,-2.23827,-0.155258,-0.380012,85.5302,0.135072,
2,0,0,1,0,6107.35,0.133888,0.133578,-5.90754,5,0.0139883,11,-0.000789117,-2.22859,-0.175768,-0.33567,77.1082,0.133578,
2,0,0,1,0,6107.39,0.132389,0.132078,-6.00999,5,0.0137648,11,-0.000793786,-2.22113,-0.202968,-0.290686,68.0168,0.132078,
2,0,0,1,0,6107.43,0.130893,0.130571,-6.10757,5,0.0135381,11,-0.000797471,-2.21413,-0.23223,-0.254059,60.3211,0.130571,
2,0,0,1,0,6107.47,0.129393,0.129075,-6.18632,5,0.0133074,11,-0.000798497,-2.20857,-0.300438,-0.19638,47.239,0.129075,
2,0,0,1,0,6107.5,0.127893,0.127563,-6.24206,5,0.0130741,11,-0.000796254,-2.20467,-0.465655,-0.126703,30.7846,0.127563,
2,0,0,1,0,6107.54,0.126397,0.126052,-6.27656,5,0.0128397,11,-0.000791175,-2.20228,-0.711321,-0.0829443,20.2975,0.126052,
2,0,0,1,0,6107.58,0.1249,0.124598,-6.30003,5,0.0126043,11,-0.000784972,-2.20066,-1.25814,-0.0468945,11.517,0.124598,
2,0,0,1,0,6107.62,0.1234,0.123109,-6.31376,5,0.0123674,11,-0.000777282,-2.19971,-23.5232,-0.00250816,0.616591,0.123109,
2,0,0,1,0,6107.65,0.1219,0.121613,-6.3084,5,0.0121306,11,-0.000767183,-2.20008,1.03792,0.0568442,-13.9422,0.1216128,
2,0,0,1,0,6107.69,0.120404,0.120054,-6.27613,5,0.0118951,11,-0.000753473,-2.20231,0.597529,0.0987399,-24.1293,0.120054,
2,0,0,1,0,6107.73,0.118908,0.118655,-6.24093,5,0.011661,11,-0.00074052,-2.20475,0.458899,0.128569,-31.2312,0.118655,
2,0,0,1,0,6107.77,0.117404,0.117084,-6.18521,5,0.0114274,11,-0.000724191,-2.20865,0.356642,0.165432,-39.808,0.117084,
2,0,0,1,0,6107.8,0.115909,0.115555,-6.11396,5,0.0111972,11,-0.000706499,-2.21368,0.273688,0.215574,-51.2949,0.115555,
2,0,0,1,0,6107.84,0.114413,0.11414,-6.02936,5,0.0109698,11,-0.000688193,-2.21973,0.22776,0.259045,-60.9026,0.1141403,
2,0,0,1,0,6107.88,0.112913,0.112591,-5.9268,5,0.0107454,11,-0.000667305,-2.22718,0.204174,0.288969,-66.9098,0.112591,
2,0,0,1,0,6107.92,0.111413,0.111095,-5.83095,5,0.0105247,11,-0.000647788,-2.23426,0.191295,0.308424,-70.0971,0.111095,
2,0,0,1,0,6107.95,0.109917,0.109598,-5.72261,5,0.0103084,11,-0.000627188,-2.24241,0.171422,0.344179,-76.7304,0.1095982,
2,0,0,1,0,6107.99,0.10842,0.108109,-5.61006,5,0.0100965,11,-0.000606498,-2.25103,0.159966,0.368829,-80.5495,0.108109,
2,0,0,1,0,6108.03,0.10692,0.106587,-5.48052,5,0.00988861,11,-0.000584152,-2.26118,0.152853,0.385992,-82.4971,0.106587,
2,0,0,1,0,6108.07,0.10542,0.1051,-5.36071,5,0.00968526,11,-0.000563411,-2.27078,0.157631,0.374291,-78.2386,0.1051,
2,0,0,1,0,6108.1,0.103924,0.103609,-5.24598,5,0.00948688,11,-0.000543533,-2.28017,0.156525,0.376937,-77.1316,0.103609,
2,0,0,1,0,6108.14,0.102427,0.102108,-5.12535,5,0.00929279,11,-0.000523341,-2.29028,0.152582,0.386676,-77.3785,0.1021083,
2,0,0,1,0,6108.18,0.100924,0.100602,-5.0015,5,0.00910212,11,-0.000503163,-2.3009,0.156491,0.37702,-73.8779,0.100602,
2,0,0,1,0,6108.22,0.0994284,0.099144,-4.90301,5,0.00891669,11,-0.000486104,-2.30954,0.172006,0.343012,-65.7664,0.099144,
2,0,0,1,0,6108.25,0.0979329,0.097633,-4.80712,5,0.00873495,11,-0.000469334,-2.31811,0.176255,0.334742,-62.8454,0.097633,
2,0,0,1,0,6108.29,0.0964329,0.0961313,-4.71734,5,0.00855625,11,-0.000453484,-2.3263,0.179858,0.328036,-60.3528,0.0961313,
2,0,0,1,0,6108.33,0.094933,0.0946048,-4.62629,5,0.00838087,11,-0.000437669,-2.33477,0.192283,0.306839,-55.4688,0.0946048,
2,0,0,1,0,6108.37,0.0934366,0.0930931,-4.5551,5,0.00820918,11,-0.000424048,-2.3415,0.218039,0.270593,-48.1855,0.09309312,
2,0,0,1,0,6108.4,0.0919401,0.0916728,-4.4832,5,0.00804013,11,-0.000410987,-2.34841,0.243109,0.242689,-42.5207,0.09167283,
2,0,0,1,0,6108.44,0.0904402,0.0901278,-4.42134,5,0.00787285,11,-0.000398485,-2.35445,0.241018,0.244795,-42.2681,0.0901278,
2,0,0,1,0,6108.48,0.0889402,0.0886001,-4.36094,5,0.00770793,11,-0.00038638,-2.36042,0.25801,0.228673,-39.014,0.0886001,
2,0,0,1,0,6108.52,0.0874438,0.0871312,-4.30166,5,0.00754583,11,-0.000374809,-2.36636,0.282008,0.209214,-35.2372,0.0871312,
2,0,0,1,0,6108.55,0.0859483,0.0855962,-4.25964,5,0.00738557,11,-0.000364609,-2.37063,0.33893,0.174077,-28.9215,0.0855962,
2,0,0,1,0,6108.59,0.0844447,0.0841655,-4.21602,5,0.00722615,11,-0.000354843,-2.3751,0.3362,0.175491,-28.8346,0.0841655,
2,0,0,1,0,6108.63,0.0829492,0.0826266,-4.17238,5,0.00706926,11,-0.000344749,-2.37962,0.321006,0.183797,-29.8785,0.0826266,
2,0,0,1,0,6108.67,0.0814528,0.0811329,-4.12347,5,0.00691414,11,-0.000334549,-2.38474,0.339575,0.173747,-27.9675,0.0811329,
2,0,0,1,0,6108.7,0.0799528,0.0796159,-4.08045,5,0.0067601,11,-0.000324869,-2.38929,0.401467,0.146961,-23.4312,0.0796159,
2,0,0,1,0,6108.74,0.0784529,0.0781474,-4.04749,5,0.00660743,11,-0.000316301,-2.39281,0.384383,0.153493,-24.2689,0.0781474,
2,0,0,1,0,6108.78,0.0769565,0.0766199,-4.01091,5,0.00645645,11,-0.000307315,-2.39676,0.346082,0.17048,-26.6903,0.0766199,
2,0,0,1,0,6108.82,0.0754601,0.075187,-3.96618,5,0.00630697,11,-0.000298205,-2.40163,0.34894,0.169083,-26.2253,0.075187,
2,0,0,1,0,6108.85,0.0739601,0.0736611,-3.93142,5,0.00615868,11,-0.000289593,-2.40545,0.353422,0.166939,-25.634,0.0736611,
2,0,0,1,0,6108.89,0.0724601,0.0721686,-3.90072,5,0.00601171,11,-0.00028151,-2.40886,0.378609,0.155834,-23.6762,0.0721686,
2,0,0,1,0,6108.93,0.0709637,0.0706423,-3.86209,5,0.00586651,11,-0.000272827,-2.41318,0.316368,0.186492,-28.0227,0.0706423,
2,0,0,1,0,6108.97,0.0694682,0.0691808,-3.81731,5,0.00572276,11,-0.000264085,-2.41824,0.317963,0.185556,-27.6242,0.0691808,
2,0,0,1,0,6109,0.0679646,0.0676393,-3.77376,5,0.00557996,11,-0.000255254,-2.42323,0.331552,0.177951,-26.269,0.0676393,
2,0,0,1,0,6109.04,0.0664691,0.0661471,-3.73172,5,0.0054394,11,-0.000246842,-2.42809,0.323906,0.182151,-26.5775,0.0661471,
2,0,0,1,0,6109.08,0.0649727,0.0646372,-3.69305,5,0.00530019,11,-0.000238708,-2.43262,0.279401,0.211166,-30.4165,0.0646372,
2,0,0,1,0,6109.12,0.0634727,0.0631869,-3.64874,5,0.00516229,11,-0.000230552,-2.43786,0.258353,0.22837,-32.5054,0.0631869,
2,0,0,1,0,6109.15,0.0619728,0.0617018,-3.59945,5,0.00502636,11,-0.000222093,-2.44376,0.251062,0.235002,-32.987,0.0617018,
2,0,0,1,0,6109.19,0.0604764,0.0601593,-3.55421,5,0.00489255,11,-0.000213819,-2.44926,0.261644,0.225498,-31.2036,0.0601593,
2,0,0,1,0,6109.23,0.05898,0.0586705,-3.50775,5,0.00476043,11,-0.000205801,-2.45497,0.254482,0.231844,-31.6554,0.0586705,
2,0,0,1,0,6109.27,0.05748,0.057163,-3.45449,5,0.0046298,11,-0.000197469,-2.46162,0.222702,0.264928,-35.6728,0.057163,
2,0,0,1,0,6109.3,0.05598,0.0556539,-3.39528,5,0.00450119,11,-0.000188961,-2.46912,0.225935,0.261137,-34.689,0.0556539,
2,0,0,1,0,6109.34,0.0544836,0.0541843,-3.34593,5,0.00437492,11,-0.000181297,-2.47548,0.245902,0.239933,-31.3922,0.0541843,
2,0,0,1,0,6109.38,0.0529881,0.0526834,-3.30381,5,0.00425033,11,-0.000174056,-2.48099,0.244445,0.241363,-31.1123,0.0526834,
2,0,0,1,0,6109.42,0.0514846,0.0511835,-3.24851,5,0.00412689,11,-0.00016627,-2.48832,0.226563,0.260413,-33.0426,0.0511835,
2,0,0,1,0,6109.45,0.049989,0.0497122,-3.19546,5,0.00400607,11,-0.000158854,-2.49547,0.222863,0.264736,-33.0808,0.0497122,
2,0,0,1,0,6109.49,0.0484926,0.0481476,-3.15594,5,0.0038872,11,-0.000151951,-2.50087,0.222495,0.265174,-32.6189,0.0481476,
2,0,0,1,0,6109.53,0.0469927,0.0466737,-3.11568,5,0.00376959,11,-0.00014542,-2.50645,0.25272,0.23346,-28.302,0.0466737,
2,0,0,1,0,6109.56,0.0454927,0.0451581,-3.068,5,0.00365364,11,-0.000138545,-2.51314,0.234496,0.251604,-30.0755,0.0451581,
2,0,0,1,0,6109.6,0.0439963,0.0436638,-3.02473,5,0.00353948,11,-0.000132071,-2.51931,0.25241,0.233747,-27.6341,0.0436638,
2,0,0,1,0,6109.64,0.0424999,0.0421753,-2.98149,5,0.00342706,11,-0.000125745,-2.52557,0.286445,0.205973,-24.1015,0.0421753,
2,0,0,1,0,6109.68,0.0409999,0.040739,-2.94878,5,0.00331557,11,-0.00012013,-2.53036,0.328398,0.17966,-20.7451,0.04073903,
2,0,0,1,0,6109.71,0.0394999,0.0391679,-2.92147,5,0.00320523,11,-0.000114428,-2.5344,0.316078,0.186663,-21.2757,0.03916787,
2,0,0,1,0,6109.75,0.0380044,0.0376978,-2.89366,5,0.00309637,11,-0.000109085,-2.53855,0.324391,0.18188,-20.5094,0.0376978,
2,0,0,1,0,6109.79,0.0365089,0.0362037,-2.86327,5,0.00298879,11,-0.000103661,-2.54314,0.363644,0.162247,-18.1014,0.0362037,
2,0,0,1,0,6109.83,0.0350054,0.0346743,-2.84045,5,0.00288161,11,-9.84908e-05,-2.54661,0.487085,0.121129,-13.393,0.0346743,
2,0,0,1,0,6109.86,0.033509,0.0331622,-2.81485,5,0.00277579,11,-9.33465e-05,-2.55054,0.488583,0.120757,-13.2586,0.03316218,
2,0,0,1,0,6109.9,0.0320125,0.0317139,-2.79379,5,0.00267071,11,-8.86021e-05,-2.55381,0.464018,0.12715,-13.8762,0.0317139,
2,0,0,1,0,6109.94,0.0305126,0.0302361,-2.77154,5,0.00256616,11,-8.38006e-05,-2.55728,0.577655,0.102137,-11.0907,0.0302361,
2,0,0,1,0,6109.98,0.0290126,0.0287256,-2.75632,5,0.00246224,11,-7.91769e-05,-2.55967,0.786992,0.074969,-8.08957,0.0287256,
2,0,0,1,0,6110.01,0.0275162,0.0271785,-2.75109,5,0.00235902,11,-7.47705e-05,-2.56049,0.878209,0.0671822,-7.21501,0.0271785,
2,0,0,1,0,6110.05,0.0260198,0.0257578,-2.73948,5,0.00225624,11,-7.05632e-05,-2.56233,0.730319,0.0807866,-8.62623,0.0257578,
2,0,0,1,0,6110.09,0.0245198,0.0242081,-2.72425,5,0.00215361,11,-6.59489e-05,-2.56475,0.9144,0.0645232,-6.86189,0.0242081,
2,0,0,1,0,6110.13,0.0230198,0.0226855,-2.72191,5,0.00205148,11,-6.17478e-05,-2.56513,1.28431,0.0459391,-4.87207,0.0226855,
2,0,0,1,0,6110.16,0.0215243,0.0212355,-2.71317,5,0.00194978,11,-5.76155e-05,-2.56652,2.68363,0.0219852,-2.3271,0.0212355,
2,0,0,1,0,6110.2,0.0200288,0.019699,-2.71053,5,0.00184819,11,-5.33948e-05,-2.56695,1.373,0.0429715,-4.54176,0.019699,
2,0,0,1,0,6110.24,0.0185253,0.0182149,-2.70263,5,0.00174617,11,-4.92282e-05,-2.56821,3.3615,0.0175517,-1.85688,0.0182149,
2,0,0,1,0,6110.28,0.0170289,0.0167222,-2.69234,5,0.00164506,11,-4.50219e-05,-2.56987,20.7737,0.00284013,-0.300551,0.0167222,
2,0,0,1,0,6110.31,0.0155325,0.0151904,-2.70031,5,0.00154387,11,-4.10189e-05,-2.56859,-3.74188,-0.0157675,1.66388,0.01519045,
2,0,0,1,0,6110.35,0.0140325,0.0137553,-2.7114,5,0.00144218,11,-3.7296e-05,-2.56681,-9.93232,-0.0059402,0.626139,0.0137553,
2,0,0,1,0,6110.39,0.0125325,0.012189,-2.7105,5,0.00134048,11,-3.30382e-05,-2.56695,-36.0972,-0.00163448,0.172511,0.012189,
2,0,0,1,0,6110.43,0.0110361,0.0107661,-2.70564,5,0.00123923,11,-2.91292e-05,-2.56773,-3.60288,-0.0163758,1.72994,0.0107661,
2,0,0,1,0,6110.46,0.0095397,0.00918595,-2.71389,5,0.00113772,11,-2.49297e-05,-2.56641,-0.971582,-0.0607257,6.4231,0.00918595,
2,0,0,1,0,6110.5,0.00803616,0.00770072,-2.72007,5,0.00103543,11,-2.09465e-05,-2.56542,-1.51929,-0.0388339,4.12794,0.00770072,
2,0,0,1,0,6110.54,0.00654064,0.00625827,-2.72298,5,0.000933427,11,-1.70412e-05,-2.56495,-1.78048,-0.0331371,3.52712,0.006258267,
2,0,0,1,0,6110.58,0.00504513,0.00473384,-2.71772,5,0.000831316,11,-1.28652e-05,-2.5658,-1.30646,-0.0451603,4.82236,0.00473384,
2,0,0,1,0,6110.61,0.00354515,0.00321085,-2.73575,5,0.000728755,11,-8.78409e-06,-2.56292,-0.402921,-0.146431,15.7644,0.00321085,
2,0,0,1,0,6110.65,0.00204518,0.00170458,-2.80769,5,0.000625329,11,-4.78593e-06,-2.55165,-0.701712,-0.0840801,9.01823,0.00170458,
2,0,0,1,0,6110.69,0.000548773,0.000198896,-2.77827,5,0.000520959,11,-5.52587e-07,-2.55623, , , ,0.000198896,
2,0,0,1,0,6110.7,0.000177222,-0.000198584,-2.76606,5,0.000495135,11,5.49294e-07,-2.55814, , , ,-0.000198584,