File: Figure_codes/Fig_3-5/rawdata_trumpetplot_data/before 10th/20221101_1-115_002_TrumpetPlot_ParaChange_05_CV_C01_0.csv
mode,ox/red,error,control changes,counter inc.,time/s,control/V,Ewe/V,<I>/mA,cycle number,(Q-Qo)/C,I Range,P/W,log(|I|),Tafel slope mV/dec,alpha_eff,dI/d(E-IR),E-IR/V,
2,1,0,0,0,958.886,2.44065e-05,-0.000401673,0.0161509,1,0.0000000E+000,11,-6.48739e-09,-4.7918, , , ,-0.000401673,
2,1,0,1,0,959.141,0.00129787,0.000976856,0.169109,1,4.28789e-05,11,1.65196e-07,-3.77183, , , ,0.000976856,
2,1,0,1,0,959.441,0.00279606,0.00250702,0.186987,1,0.000104429,11,4.68782e-07,-3.72819,0.043383,1.35998,9.56184,0.00250702,
2,1,0,1,0,959.74,0.00429469,0.00400688,0.196013,1,0.000167986,11,7.85402e-07,-3.70771,0.28879,0.204301,1.61942,0.00400688,
2,1,0,1,0,960.04,0.00579255,0.00552925,0.201651,1,0.000233738,11,1.11498e-06,-3.6954,0.0970143,0.608158,4.8161,0.00552925,
2,1,0,1,0,960.34,0.0072904,0.00700306,0.209306,1,0.000301697,11,1.46578e-06,-3.67922,0.115711,0.509892,4.12625,0.00700306,
2,1,0,0,0,960.639,0.00878882,0.00849089,0.215844,1,0.000371392,11,1.83271e-06,-3.66586,0.176299,0.334659,2.78899,0.00849089,
2,1,0,0,0,960.939,0.010287,0.00999773,0.21929,1,0.000442467,11,2.19241e-06,-3.65898,0.170263,0.346522,2.94722,0.009997732,
2,1,0,0,0,961.239,0.0117852,0.0115014,0.220759,1,0.000514521,11,2.53904e-06,-3.65608,0.249188,0.236769,2.05271,0.0115014,
2,1,0,1,0,961.538,0.0132836,0.012985,0.224799,1,0.000587618,11,2.91903e-06,-3.6482,0.208949,0.282366,2.49749,0.01298504,
2,1,0,1,0,961.838,0.0147815,0.0144726,0.22871,1,0.000661661,11,3.31002e-06,-3.64071,0.3637,0.162222,1.44902,0.0144726,
2,1,0,1,0,962.137,0.0162793,0.0159664,0.230213,1,0.000736836,11,3.67569e-06,-3.63787,0.888887,0.0663751,0.594722,0.0159664,
2,1,0,1,0,962.437,0.017778,0.0174842,0.232211,1,0.000812493,11,4.06002e-06,-3.63412,0.455847,0.129429,1.17834,0.0174842,
2,1,0,1,0,962.737,0.0192761,0.01899,0.236772,1,0.000888357,11,4.4963e-06,-3.62567,0.380835,0.154923,1.42743,0.01898998,
2,1,0,1,0,963.036,0.0207747,0.02046,0.23875,1,0.000965308,11,4.88484e-06,-3.62206,0.392576,0.150289,1.38482,0.02046,
2,1,0,1,0,963.336,0.0222725,0.0219751,0.239964,1,0.00104296,11,5.27322e-06,-3.61985,0.44594,0.132305,1.23073,0.02197508,
2,1,0,1,0,963.636,0.0237704,0.0235059,0.239741,1,0.00112101,11,5.63534e-06,-3.62026,0.431111,0.136856,1.2862,0.0235059,
2,1,0,0,0,963.935,0.0252689,0.0249686,0.242573,1,0.00119928,11,6.05671e-06,-3.61516,0.419445,0.140662,1.33604,0.0249686,
2,1,0,0,0,964.235,0.0267671,0.0264902,0.244344,1,0.00127837,11,6.47274e-06,-3.612,0.307909,0.191615,1.81822,0.0264902,
2,1,0,1,0,964.535,0.0282657,0.0279604,0.245693,1,0.00135808,11,6.86966e-06,-3.60961,0.479084,0.123152,1.1841,0.0279604,
2,1,0,1,0,964.834,0.0297635,0.0294329,0.248119,1,0.00143821,11,7.30287e-06,-3.60534,0.97532,0.060493,0.583781,0.0294329,
2,1,0,1,0,965.134,0.0312613,0.0309446,0.246602,1,0.00151864,11,7.63101e-06,-3.608,0.673065,0.0876586,0.848848,0.0309446,
2,1,0,1,0,965.434,0.0327598,0.0324635,0.249969,1,0.00159952,11,8.11488e-06,-3.60211,0.515866,0.114371,1.11641,0.0324635,
2,1,0,1,0,965.733,0.034258,0.0339491,0.252519,1,0.00168104,11,8.5728e-06,-3.59771,0.741753,0.0795413,0.783501,0.0339491,
2,1,0,1,0,966.033,0.0357567,0.0354692,0.255245,1,0.00176305,11,9.05334e-06,-3.59304,0.692238,0.0852308,0.841769,0.0354692,
2,1,0,1,0,966.332,0.0372545,0.0369503,0.254186,1,0.00184552,11,9.39227e-06,-3.59485,0.552432,0.1068,1.06769,0.0369503,
2,1,0,1,0,966.632,0.0387524,0.0384354,0.256801,1,0.00192829,11,9.87023e-06,-3.5904,0.53044,0.111228,1.12599,0.0384354,
2,1,0,0,0,966.932,0.0402508,0.039915,0.258191,1,0.00201187,11,1.03057e-05,-3.58806,0.582434,0.101299,1.029,0.039915,
2,1,0,0,0,967.231,0.041749,0.0414685,0.260406,1,0.00209627,11,1.07987e-05,-3.58435,0.67317,0.087645,0.890978,0.0414685,
2,1,0,0,0,967.531,0.0432472,0.0429774,0.264326,1,0.00218091,11,1.13601e-05,-3.57786,0.48822,0.120847,1.24236,0.04297743,
2,1,0,1,0,967.831,0.0447456,0.0444377,0.267162,1,0.00226606,11,1.18721e-05,-3.57323,0.394884,0.149411,1.5424,0.0444377,
2,1,0,1,0,968.13,0.0462435,0.045974,0.269314,1,0.00235198,11,1.23814e-05,-3.56974,0.25996,0.226958,2.36477,0.045974,
2,1,0,1,0,968.43,0.0477413,0.0474413,0.270989,1,0.00243869,11,1.28561e-05,-3.56705,0.322184,0.183125,1.93762,0.0474413,
2,1,0,1,0,968.73,0.0492399,0.0489995,0.273128,1,0.00252613,11,1.33831e-05,-3.56363,0.304296,0.19389,2.07409,0.0489995,
2,1,0,1,0,969.029,0.0507381,0.0504639,0.275671,1,0.00261403,11,1.39114e-05,-3.55961,0.293991,0.200686,2.1652,0.0504639,
2,1,0,1,0,969.329,0.0522367,0.0519382,0.278337,1,0.00270301,11,1.44563e-05,-3.55543,0.224552,0.262745,2.84851,0.0519382,
2,1,0,1,0,969.628,0.0537345,0.0534828,0.281359,1,0.00279305,11,1.50478e-05,-3.55074,0.292388,0.201786,2.22222,0.0534828,
2,1,0,1,0,969.928,0.0552323,0.0549628,0.28419,1,0.0028839,11,1.56199e-05,-3.54639,0.339992,0.173534,1.92198,0.0549628,
2,1,0,0,0,970.228,0.0567309,0.0564308,0.285022,1,0.00297564,11,1.6084e-05,-3.54512,0.295364,0.199754,2.2478,0.0564308,
2,1,0,0,0,970.527,0.0582291,0.0579175,0.291641,1,0.00306828,11,1.68911e-05,-3.53515,0.260028,0.226899,2.57428,0.0579175,
2,1,0,1,0,970.827,0.0597277,0.0594312,0.2952,1,0.0031623,11,1.75441e-05,-3.52988,0.246298,0.239547,2.76045,0.0594312,
2,1,0,1,0,971.127,0.0612255,0.06091,0.298503,1,0.00325751,11,1.81818e-05,-3.52505,0.345345,0.170844,1.98766,0.06091,
2,1,0,1,0,971.426,0.0627233,0.0624334,0.302776,1,0.00335395,11,1.89034e-05,-3.51888,0.264403,0.223145,2.65298,0.0624334,
2,1,0,1,0,971.726,0.0642218,0.0639258,0.307978,1,0.00345138,11,1.96877e-05,-3.51148,0.222582,0.265071,3.20872,0.0639258,
2,1,0,1,0,972.026,0.06572,0.0654252,0.313055,1,0.00355059,11,2.04817e-05,-3.50438,0.203805,0.289493,3.53926,0.0654252,
2,1,0,1,0,972.325,0.0672187,0.0669164,0.319502,1,0.00365146,11,2.13799e-05,-3.49553,0.220778,0.267237,3.30274,0.0669164,
2,1,0,1,0,972.625,0.0687165,0.0684157,0.323695,1,0.00375374,11,2.21458e-05,-3.48986,0.198089,0.297846,3.75662,0.0684157,
2,1,0,1,0,972.924,0.0702144,0.0699402,0.329577,1,0.00385718,11,2.30507e-05,-3.48204,0.193107,0.305529,3.90998,0.0699402,
2,1,0,0,0,973.224,0.0717128,0.0714144,0.334394,1,0.00396267,11,2.38805e-05,-3.47574,0.156921,0.375986,4.89845,0.0714144,
2,1,0,0,0,973.524,0.073211,0.0729339,0.340896,1,0.00406995,11,2.48629e-05,-3.46738,0.181851,0.324442,4.30941,0.0729339,
2,1,0,0,0,973.823,0.0747092,0.0744111,0.346322,1,0.00417903,11,2.57702e-05,-3.46052,0.187974,0.313874,4.25593,0.0744111,
2,1,0,1,0,974.123,0.0762076,0.0758788,0.3511,1,0.00428957,11,2.6641e-05,-3.45457,0.193912,0.304261,4.19867,0.0758788,
2,1,0,1,0,974.423,0.0777054,0.0774014,0.358688,1,0.00440222,11,2.77629e-05,-3.44528,0.172805,0.341426,4.78024,0.0774014,
2,1,0,1,0,974.722,0.0792033,0.0789045,0.369058,1,0.00451697,11,2.91203e-05,-3.43291,0.199974,0.295038,4.2071,0.0789045,
2,1,0,1,0,975.022,0.0807019,0.080431,0.374179,1,0.00463379,11,3.00956e-05,-3.42692,0.229181,0.257439,3.73364,0.080431,
2,1,0,1,0,975.322,0.0822001,0.0818774,0.376651,1,0.00475221,11,3.08392e-05,-3.42406,0.201204,0.293235,4.33428,0.0818774,
2,1,0,1,0,975.621,0.0836986,0.0833729,0.385288,1,0.00487254,11,3.21225e-05,-3.41421,0.179502,0.328687,4.95254,0.0833729,
2,1,0,1,0,975.921,0.0851965,0.0848985,0.391909,1,0.00499505,11,3.32725e-05,-3.40681,0.216336,0.272724,4.18943,0.0848985,
2,1,0,1,0,976.22,0.0866944,0.0864007,0.398004,1,0.0051197,11,3.43878e-05,-3.40011,0.265211,0.222464,3.44698,0.0864007,
2,1,0,0,0,976.52,0.0881929,0.0879143,0.406338,1,0.00524642,11,3.57229e-05,-3.39111,0.203344,0.290149,4.60019,0.0879143,
2,1,0,0,0,976.82,0.0896911,0.0894413,0.41235,1,0.00537456,11,3.68811e-05,-3.38473,0.195788,0.301347,4.85954,0.0894413,
2,1,0,1,0,977.119,0.0911897,0.0908575,0.422218,1,0.00550539,11,3.83617e-05,-3.37446,0.201643,0.292597,4.78131,0.0908575,
2,1,0,1,0,977.419,0.0926875,0.0924179,0.427991,1,0.00563854,11,3.95541e-05,-3.36856,0.209169,0.282068,4.68902,0.0924179,
2,1,0,1,0,977.719,0.0941853,0.093886,0.433662,1,0.00577364,11,4.07147e-05,-3.36285,0.203456,0.289989,4.91496,0.093886,
2,1,0,1,0,978.018,0.0956838,0.0953986,0.440624,1,0.00591038,11,4.20349e-05,-3.35593,0.218648,0.26984,4.65916,0.0953986,
2,1,0,1,0,978.318,0.097182,0.0969055,0.447665,1,0.00604969,11,4.33812e-05,-3.34905,0.170353,0.346339,6.04911,0.0969055,
2,1,0,1,0,978.618,0.0986806,0.0983787,0.455879,1,0.00619149,11,4.48488e-05,-3.34115,0.195016,0.302539,5.39398,0.0983787,
2,1,0,1,0,978.917,0.100179,0.0998832,0.464566,1,0.0063355,11,4.64024e-05,-3.33295,0.193924,0.304243,5.52624,0.0998832,
2,1,0,1,0,979.217,0.101676,0.101361,0.469777,1,0.0064818,11,4.76171e-05,-3.32811,0.174153,0.338783,6.25095,0.101361,
2,1,0,0,0,979.517,0.103175,0.102859,0.482848,1,0.00663098,11,4.9665e-05,-3.31619,0.16478,0.358054,6.74482,0.102859,
2,1,0,0,0,979.816,0.104673,0.104409,0.49509,1,0.00678315,11,5.16918e-05,-3.30532,0.177121,0.333105,6.40418,0.104409,
2,1,0,0,0,980.116,0.106171,0.105919,0.502998,1,0.00693859,11,5.3277e-05,-3.29843,0.160913,0.366657,7.1891,0.105919,
2,1,0,1,0,980.415,0.10767,0.107346,0.511233,1,0.00709705,11,5.4879e-05,-3.29138,0.142447,0.41419,8.33491,0.107346,
2,1,0,1,0,980.715,0.109167,0.108877,0.525882,1,0.00725889,11,5.72566e-05,-3.27911,0.142125,0.415128,8.56449,0.108877,
2,1,0,1,0,981.015,0.110665,0.110349,0.539328,1,0.00742492,11,5.95142e-05,-3.26815,0.129294,0.456323,9.65854,0.110349,
2,1,0,1,0,981.314,0.112164,0.111879,0.556748,1,0.00759545,11,6.22886e-05,-3.25434,0.139973,0.42151,9.15042,0.111879,
2,1,0,1,0,981.614,0.113662,0.113357,0.573772,1,0.00777074,11,6.50408e-05,-3.24126,0.116355,0.507069,11.3615,0.113357,
2,1,0,1,0,981.914,0.115161,0.114848,0.591688,1,0.00795054,11,6.79541e-05,-3.22791,0.105875,0.557259,12.8541,0.114848,
2,1,0,1,0,982.213,0.116658,0.116329,0.613107,1,0.00813662,11,7.13222e-05,-3.21246,0.0978516,0.602954,14.3788,0.116329,
2,1,0,1,0,982.513,0.118156,0.117882,0.633947,1,0.00832938,11,7.4731e-05,-3.19795,0.0955859,0.617246,15.254,0.117882,
2,1,0,0,0,982.813,0.119655,0.119374,0.656449,1,0.00852874,11,7.83633e-05,-3.1828,0.0981859,0.600901,15.4569,0.119374,
2,1,0,0,0,983.112,0.121153,0.120828,0.67811,1,0.0087345,11,8.19348e-05,-3.1687,0.0919185,0.641873,17.1103,0.120828,
2,1,0,1,0,983.412,0.122652,0.122369,0.70795,1,0.00894853,11,8.66314e-05,-3.15,0.0821902,0.717847,19.7638,0.122369,
2,1,0,1,0,983.711,0.124149,0.123839,0.736134,1,0.00917087,11,9.11619e-05,-3.13304,0.087521,0.674124,19.385,0.123839,
2,1,0,1,0,984.011,0.125647,0.125329,0.765112,1,0.00940165,11,9.58911e-05,-3.11627,0.0932969,0.63239,18.8259,0.125329,
2,1,0,1,0,984.311,0.127146,0.126856,0.787445,1,0.00964113,11,9.98918e-05,-3.10378,0.0923394,0.638947,19.7508,0.126856,
2,1,0,1,0,984.61,0.128644,0.128386,0.823628,1,0.00988878,11,0.000105742,-3.08427,0.0980607,0.601668,19.3124,0.128386,
2,1,0,1,0,984.91,0.130143,0.12981,0.853894,1,0.0101458,11,0.000110844,-3.0686,0.108197,0.545301,18.0662,0.12981,
2,1,0,1,0,985.21,0.13164,0.131372,0.879474,1,0.0104115,11,0.000115538,-3.05578,0.124875,0.472472,16.0922,0.131372,
2,1,0,1,0,985.509,0.133138,0.132857,0.903353,1,0.0106844,11,0.000120017,-3.04414,0.136479,0.4323,15.2323,0.132857,
2,1,0,0,0,985.809,0.134637,0.134371,0.925175,1,0.0109637,11,0.000124316,-3.03378,0.141506,0.416943,15.0678,0.134371,
2,1,0,0,0,986.109,0.136135,0.135815,0.947324,1,0.0112505,11,0.000128661,-3.0235,0.166666,0.354002,13.03,0.135815,
2,1,0,0,0,986.408,0.137633,0.137354,0.963251,1,0.011543,11,0.000132306,-3.01626,0.258635,0.228121,8.52965,0.1373536,
2,1,0,1,0,986.708,0.139132,0.138847,0.978937,1,0.0118398,11,0.000135922,-3.00925,0.299171,0.197212,7.48654,0.138847,
2,1,0,1,0,987.007,0.140629,0.140317,0.984705,1,0.012139,11,0.000138171,-3.00669,0.47923,0.123114,4.71393,0.140317,
2,1,0,1,0,987.307,0.142127,0.141878,0.991151,1,0.0124413,11,0.000140622,-3.00386,0.637245,0.0925861,3.56435,0.141878,
2,1,0,1,0,987.607,0.143626,0.143332,0.994986,1,0.0127455,11,0.000142613,-3.00218,-15.2462,-0.00386981,-0.149531,0.143332,
2,1,0,1,0,987.906,0.145124,0.144844,0.990188,1,0.013049,11,0.000143423,-3.00428,-0.449559,-0.13124,-5.06697,0.144844,
2,1,0,1,0,988.206,0.146623,0.146354,0.977972,1,0.0133504,11,0.00014313,-3.00967,-0.353008,-0.167135,-6.38902,0.146354,
2,1,0,1,0,988.506,0.14812,0.147874,0.971101,1,0.013649,11,0.000143601,-3.01274,-0.278296,-0.212005,-7.99131,0.147874,
2,1,0,1,0,988.805,0.149618,0.149316,0.954908,1,0.0139438,11,0.000142583,-3.02004,-0.174209,-0.338674,-12.5506,0.149316,
2,1,0,0,0,989.105,0.151117,0.150788,0.933346,1,0.0142329,11,0.000140737,-3.02996,-0.129673,-0.45499,-16.4791,0.150788,
2,1,0,0,0,989.405,0.152615,0.152347,0.903118,1,0.0145147,11,0.000137587,-3.04426,-0.111808,-0.527691,-18.5969,0.1523467,
2,1,0,1,0,989.704,0.154114,0.153816,0.878027,1,0.0147878,11,0.000135054,-3.05649,-0.0985934,-0.598417,-20.4442,0.153816,
2,1,0,1,0,990.004,0.155612,0.155334,0.845919,1,0.015052,11,0.0001314,-3.07267,-0.0847637,-0.696053,-22.8787,0.155334,
2,1,0,1,0,990.303,0.157109,0.156813,0.807738,1,0.0153062,11,0.000126664,-3.09273,-0.0709013,-0.832142,-26.153,0.156813,
2,1,0,1,0,990.603,0.158608,0.158303,0.770721,1,0.0155491,11,0.000122007,-3.1131,-0.0704567,-0.837393,-25.1994,0.158303,
2,1,0,1,0,990.903,0.160106,0.159784,0.733498,1,0.0157798,11,0.000117201,-3.1346,-0.0668501,-0.882571,-25.2687,0.159784,
2,1,0,1,0,991.202,0.161605,0.161298,0.697482,1,0.0159999,11,0.000112502,-3.15647,-0.0669809,-0.880848,-23.9321,0.161298,
2,1,0,1,0,991.502,0.163102,0.162852,0.663041,1,0.0162092,11,0.000107978,-3.17846,-0.0663379,-0.889386,-22.9044,0.162852,
2,1,0,1,0,991.802,0.1646,0.164313,0.629552,1,0.016408,11,0.000103444,-3.20097,-0.0651731,-0.905282,-22.1608,0.164313,
2,1,0,0,0,992.101,0.166099,0.165828,0.596227,1,0.0165964,11,9.88709e-05,-3.22459,-0.0684497,-0.861947,-20.0546,0.165828,
2,1,0,0,0,992.401,0.167597,0.16733,0.567615,1,0.0167763,11,9.49791e-05,-3.24595,-0.077254,-0.763714,-16.8745,0.16733,
2,1,0,0,0,992.701,0.169095,0.168839,0.54135,1,0.0169484,11,9.1401e-05,-3.26652,-0.0756539,-0.779867,-16.5364,0.168839,
2,1,0,1,0,993,0.170594,0.170292,0.517585,1,0.0171129,11,8.81407e-05,-3.28602,-0.0767253,-0.768978,-15.6326,0.170292,
2,1,0,1,0,993.3,0.172091,0.171815,0.494332,1,0.0172702,11,8.49335e-05,-3.30598,-0.0882896,-0.668255,-13.0266,0.171815,
2,1,0,1,0,993.599,0.173589,0.173304,0.476623,1,0.017422,11,8.26007e-05,-3.32183,-0.0969594,-0.608502,-11.3474,0.173304,
2,1,0,1,0,993.899,0.175088,0.174788,0.46181,1,0.0175685,11,8.07189e-05,-3.33554,-0.0987969,-0.597185,-10.7531,0.174788,
2,1,0,1,0,994.199,0.176586,0.176306,0.44578,1,0.0177103,11,7.85935e-05,-3.35088,-0.103698,-0.568958,-9.87843,0.176306,
2,1,0,1,0,994.498,0.178085,0.177757,0.429966,1,0.0178477,11,7.64296e-05,-3.36657,-0.119228,-0.494849,-8.35193,0.177757,
2,1,0,1,0,994.798,0.179582,0.179278,0.418763,1,0.017981,11,7.5075e-05,-3.37803,-0.124693,-0.473162,-7.77112,0.179278,
2,1,0,1,0,995.098,0.18108,0.18083,0.407218,1,0.0181111,11,7.36371e-05,-3.39017,-0.128864,-0.457847,-7.32954,0.18083,
2,1,0,0,0,995.397,0.182579,0.182337,0.396792,1,0.018238,11,7.23499e-05,-3.40144,-0.123354,-0.478296,-7.43192,0.182337,
2,1,0,0,0,995.697,0.184077,0.183762,0.388573,1,0.018362,11,7.14051e-05,-3.41053,-0.149994,-0.393349,-5.98413,0.1837623,
2,1,0,1,0,995.997,0.185576,0.185288,0.381938,1,0.018483,11,7.07683e-05,-3.41801,-0.154847,-0.38102,-5.66211,0.185288,
2,1,0,1,0,996.296,0.187074,0.18679,0.372708,1,0.0186018,11,6.96181e-05,-3.42863,-0.191799,-0.307613,-4.47625,0.18679,
2,1,0,1,0,996.596,0.188571,0.188259,0.365853,1,0.0187184,11,6.88751e-05,-3.43669,-0.177891,-0.331665,-4.72622,0.188259,
2,1,0,1,0,996.896,0.19007,0.189773,0.358769,1,0.018833,11,6.80846e-05,-3.44518,-0.194288,-0.303673,-4.25014,0.189773,
2,1,0,1,0,997.195,0.191568,0.19128,0.352616,1,0.0189453,11,6.74482e-05,-3.4527,-0.200497,-0.294269,-4.05083,0.19128,
2,1,0,1,0,997.495,0.193067,0.192749,0.346591,1,0.0190561,11,6.68052e-05,-3.46018,-0.275705,-0.213997,-2.89214,0.192749,
2,1,0,1,0,997.794,0.194564,0.194324,0.340219,1,0.0191655,11,6.61127e-05,-3.46824,-0.24,-0.245833,-3.27615,0.194324,
2,1,0,1,0,998.094,0.196062,0.195798,0.337289,1,0.0192732,11,6.60407e-05,-3.472,-0.227304,-0.259564,-3.43074,0.195798,
2,1,0,0,0,998.394,0.197561,0.197254,0.330229,1,0.0193793,11,6.5139e-05,-3.48118,-0.281167,-0.20984,-2.7202,0.197254,
2,1,0,0,0,998.693,0.199059,0.198764,0.328125,1,0.0194842,11,6.52194e-05,-3.48396,-0.283984,-0.207758,-2.65427,0.198764,
2,1,0,0,0,998.993,0.200557,0.200283,0.324606,1,0.0195879,11,6.50131e-05,-3.48864,-0.290403,-0.203166,-2.56259,0.200283,
2,1,0,1,0,999.293,0.202056,0.201787,0.320666,1,0.0196906,11,6.47062e-05,-3.49395,-0.311293,-0.189532,-2.36306,0.201787,
2,1,0,1,0,999.592,0.203553,0.203247,0.314268,1,0.019792,11,6.3874e-05,-3.5027,-0.359489,-0.164122,-2.02966,0.203247,
2,1,0,1,0,999.892,0.205051,0.204745,0.312904,1,0.0198924,11,6.40657e-05,-3.50459,-0.526345,-0.112094,-1.38169,0.204745,
2,1,0,1,0,1000.19,0.20655,0.206303,0.309886,1,0.0199921,11,6.39305e-05,-3.5088,-0.310607,-0.189951,-2.30446,0.206303,
2,1,0,1,0,1000.49,0.208048,0.207744,0.306897,1,0.0200913,11,6.37562e-05,-3.51301,-0.266917,-0.221043,-2.64759,0.207744,
2,1,0,1,0,1000.79,0.209547,0.209288,0.306422,1,0.0201893,11,6.41303e-05,-3.51368,-0.391405,-0.150739,-1.79696,0.209288,
2,1,0,1,0,1001.09,0.211044,0.210754,0.303756,1,0.0202861,11,6.40178e-05,-3.51747,-0.43342,-0.136127,-1.61083,0.210754,
2,1,0,1,0,1001.39,0.212542,0.212218,0.301549,1,0.0203826,11,6.39941e-05,-3.52064,-0.437071,-0.134989,-1.57854,0.212218,
2,1,0,0,0,1001.69,0.214041,0.213756,0.299184,1,0.0204784,11,6.39523e-05,-3.52406,-0.421908,-0.139841,-1.62602,0.213756,
2,1,0,0,0,1001.99,0.215539,0.215247,0.296523,1,0.0205735,11,6.38256e-05,-3.52794,-0.54175,-0.108906,-1.25901,0.215247,
2,1,0,1,0,1002.29,0.217038,0.216732,0.2948,1,0.0206678,11,6.38924e-05,-3.53047,-0.539071,-0.109447,-1.25687,0.216732,
2,1,0,1,0,1002.59,0.218535,0.218248,0.291676,1,0.0207617,11,6.36576e-05,-3.5351,-1.84626,-0.0319565,-0.364346,0.218248,
2,1,0,1,0,1002.89,0.220033,0.219784,0.289845,1,0.0208552,11,6.37033e-05,-3.53783,-0.581767,-0.101415,-1.15194,0.219784,
2,1,0,1,0,1003.19,0.221532,0.221278,0.289232,1,0.0209482,11,6.40008e-05,-3.53875,-0.4448,-0.132644,-1.49726,0.2212784,
2,1,0,1,0,1003.49,0.22303,0.222731,0.284214,1,0.0210405,11,6.33033e-05,-3.54635,-0.628697,-0.0938448,-1.05324,0.222731,
2,1,0,1,0,1003.79,0.224529,0.224241,0.285017,1,0.0211323,11,6.39124e-05,-3.54513,-0.637877,-0.0924943,-1.02912,0.224241,
2,1,0,1,0,1004.09,0.226026,0.225705,0.284987,1,0.0212238,11,6.43229e-05,-3.54518,-0.758514,-0.0777837,-0.862894,0.225705,
2,1,0,1,0,1004.39,0.227524,0.227232,0.282381,1,0.0213148,11,6.41662e-05,-3.54916,-0.623209,-0.0946713,-1.04253,0.227232,
2,1,0,0,0,1004.69,0.229023,0.228738,0.280065,1,0.0214055,11,6.40617e-05,-3.55274,-1.33491,-0.0441978,-0.486739,0.2287384,
2,1,0,0,0,1004.99,0.230521,0.230237,0.278416,1,0.0214957,11,6.41016e-05,-3.55531,-1.02283,-0.0576833,-0.631627,0.230237,
2,1,0,0,0,1005.29,0.232019,0.23173,0.278389,1,0.0215856,11,6.45111e-05,-3.55535,-0.644141,-0.0915949,-0.996585,0.23173,
2,1,0,1,0,1005.59,0.233518,0.23321,0.276978,1,0.0216754,11,6.4594e-05,-3.55756,-0.667452,-0.0883959,-0.954216,0.23321,
2,1,0,1,0,1005.88,0.235015,0.234723,0.27842,1,0.0217647,11,6.53517e-05,-3.5553,-2.0291,-0.029077,-0.314381,0.234723,
2,1,0,1,0,1006.18,0.236513,0.236242,0.275816,1,0.0218535,11,6.51593e-05,-3.55938,-0.88882,-0.0663802,-0.713085,0.236242,
2,1,0,1,0,1006.48,0.238012,0.237747,0.274688,1,0.0219421,11,6.53062e-05,-3.56116,-0.551008,-0.107076,-1.14646,0.237747,
2,1,0,1,0,1006.78,0.23951,0.239219,0.273899,1,0.0220305,11,6.5522e-05,-3.56241,-1.10983,-0.0531614,-0.567346,0.239219,
2,1,0,1,0,1007.08,0.241009,0.240714,0.273554,1,0.0221186,11,6.58482e-05,-3.56296,-1.16377,-0.0506971,-0.540321,0.240714,
2,1,0,1,0,1007.38,0.242506,0.242199,0.27158,1,0.0222062,11,6.57763e-05,-3.5661,-0.830593,-0.0710336,-0.755331,0.242199,
2,1,0,1,0,1007.68,0.244004,0.243701,0.270615,1,0.0222938,11,6.59492e-05,-3.56765,4.28614,0.0137653,0.145701,0.243701,
2,1,0,0,0,1007.98,0.245503,0.245237,0.271216,1,0.0223813,11,6.65123e-05,-3.56668,-0.964506,-0.0611712,-0.646352,0.245237,
2,1,0,0,0,1008.28,0.247001,0.246741,0.270658,1,0.0224685,11,6.67825e-05,-3.56758,-1.70302,-0.0346444,-0.364566,0.246741,
2,1,0,1,0,1008.58,0.2485,0.248257,0.267695,1,0.0225554,11,6.64573e-05,-3.57236,-1.07541,-0.0548626,-0.574617,0.248257,
2,1,0,1,0,1008.88,0.249997,0.249703,0.269038,1,0.0226419,11,6.71794e-05,-3.57019,-1.47226,-0.0400745,-0.420253,0.249703,
2,1,0,1,0,1009.18,0.251495,0.251193,0.267656,1,0.0227284,11,6.72333e-05,-3.57242,-1.51277,-0.0390013,-0.40795,0.251193,
2,1,0,1,0,1009.48,0.252994,0.252752,0.268339,1,0.0228147,11,6.78233e-05,-3.57132,-0.630718,-0.0935442,-0.975191,0.252752,
2,1,0,1,0,1009.78,0.254492,0.254213,0.265931,1,0.0229008,11,6.76029e-05,-3.57523,-7.88205,-0.00748537,-0.0779865,0.254213,
2,1,0,1,0,1010.08,0.255991,0.255747,0.264955,1,0.0229865,11,6.77615e-05,-3.57683,-2.32553,-0.0253706,-0.264976,0.255747,
2,1,0,1,0,1010.38,0.257488,0.257216,0.265685,1,0.0230722,11,6.83383e-05,-3.57563,-1.19999,-0.0491671,-0.509721,0.257216,
2,1,0,1,0,1010.68,0.258986,0.258716,0.265799,1,0.0231578,11,6.87665e-05,-3.57545,-0.851486,-0.0692906,-0.715368,0.258716,
2,1,0,0,0,1010.98,0.260485,0.260213,0.264649,1,0.0232432,11,6.88652e-05,-3.57733,-1.60952,-0.036657,-0.376789,0.260213,
2,1,0,0,0,1011.28,0.261983,0.261706,0.263474,1,0.0233281,11,6.89529e-05,-3.57926,-0.905552,-0.0651536,-0.667899,0.261706,
2,1,0,0,0,1011.58,0.263481,0.26323,0.263867,1,0.0234132,11,6.94578e-05,-3.57861,-6.50473,-0.00907033,-0.0928868,0.2632302,
2,1,0,1,0,1011.88,0.264979,0.26471,0.26236,1,0.023498,11,6.94493e-05,-3.5811,-3.73457,-0.0157983,-0.161788,0.26471,
2,1,0,1,0,1012.18,0.266477,0.266209,0.261209,1,0.0235827,11,6.95362e-05,-3.58301,-1.50309,-0.0392525,-0.400854,0.266209,
2,1,0,1,0,1012.48,0.267976,0.267689,0.259318,1,0.0236671,11,6.94165e-05,-3.58617,-0.960557,-0.0614227,-0.626987,0.267689,
2,1,0,1,0,1012.78,0.269474,0.269219,0.260938,1,0.0237515,11,7.02494e-05,-3.58346,4.1031,0.0143794,0.146028,0.2692194,
2,1,0,1,0,1013.08,0.270972,0.270664,0.261869,1,0.0238357,11,7.08784e-05,-3.58192,-1.41466,-0.0417062,-0.421901,0.270664,
2,1,0,1,0,1013.38,0.27247,0.272213,0.259715,1,0.0239199,11,7.0698e-05,-3.5855,-1.67725,-0.0351767,-0.35495,0.272213,
2,1,0,1,0,1013.68,0.273968,0.273656,0.257095,1,0.0240038,11,7.03555e-05,-3.58991,-3.22873,-0.0182734,-0.184449,0.273656,
2,1,0,1,0,1013.97,0.275466,0.275172,0.258419,1,0.0240875,11,7.11096e-05,-3.58768,-1.63232,-0.036145,-0.364406,0.275172,
2,1,0,0,0,1014.27,0.276965,0.276719,0.258412,1,0.0241713,11,7.15074e-05,-3.58769,-1.32023,-0.0446891,-0.450484,0.276719,
2,1,0,0,0,1014.57,0.278463,0.278226,0.256947,1,0.0242548,11,7.14895e-05,-3.59016,-0.502287,-0.117463,-1.18112,0.278226,
2,1,0,1,0,1014.87,0.279961,0.279668,0.257167,1,0.0243383,11,7.19214e-05,-3.58978,-1.43492,-0.0411173,-0.412753,0.279668,
2,1,0,1,0,1015.17,0.281459,0.281197,0.257158,1,0.0244213,11,7.2312e-05,-3.5898,3.58021,0.0164795,0.165693,0.281197,
2,1,0,1,0,1015.47,0.282957,0.28262,0.257238,1,0.0245045,11,7.27006e-05,-3.58967,-1.74997,-0.0337148,-0.337136,0.28262,
2,1,0,1,0,1015.77,0.284456,0.284174,0.25685,1,0.0245877,11,7.29902e-05,-3.59032,-2.03693,-0.0289652,-0.290051,0.284174,
2,1,0,1,0,1016.07,0.285954,0.285718,0.255537,1,0.0246707,11,7.30116e-05,-3.59255,-1.73683,-0.0339699,-0.338946,0.285718,
2,1,0,1,0,1016.37,0.287452,0.287143,0.256138,1,0.0247534,11,7.35483e-05,-3.59153,-1.04478,-0.0564714,-0.562676,0.287143,
2,1,0,1,0,1016.67,0.28895,0.288685,0.255559,1,0.024836,11,7.37762e-05,-3.59251,1.82154,0.0323902,0.322655,0.288685,
2,1,0,1,0,1016.97,0.290448,0.29021,0.254007,1,0.0249186,11,7.37155e-05,-3.59515,-3.63287,-0.0162406,-0.161436,0.29021,
2,1,0,0,0,1017.27,0.291947,0.291652,0.254664,1,0.0250011,11,7.42734e-05,-3.59403,-1.42841,-0.0413047,-0.411927,0.291652,
2,1,0,0,0,1017.57,0.293445,0.293152,0.253229,1,0.0250834,11,7.42346e-05,-3.59649,-4.80479,-0.0122794,-0.122028,0.293152,
2,1,0,0,0,1017.87,0.294943,0.294679,0.254223,1,0.0251656,11,7.49141e-05,-3.59478,-1.80437,-0.0326983,-0.322671,0.294679,
2,1,0,1,0,1018.17,0.296441,0.296207,0.255417,1,0.0252478,11,7.56562e-05,-3.59275,2.64143,0.0223364,0.220565,0.296207,
2,1,0,1,0,1018.47,0.297939,0.297702,0.252871,1,0.02533,11,7.52802e-05,-3.5971,-6.12843,-0.00962726,-0.0948025,0.297702,
2,1,0,1,0,1018.77,0.299437,0.299194,0.251356,1,0.0254119,11,7.52042e-05,-3.59971,-0.00166959,-35.338,-128.876,0.2991935,
2,1,0,1,0,1018.94,0.299737,0.299472,0.0449177,1,0.0254456,11,1.34516e-05,-4.34758,0.000641799,91.9291,210.231,0.299472,
2,1,0,1,0,1019.24,0.29824,0.29794,0.00401874,1,0.0254447,11,1.19734e-06,-5.39591,0.00341988,17.2521,69.2104,0.29794,
2,1,0,1,0,1019.54,0.296741,0.296443,-0.0119066,1,0.0254369,11,-3.52963e-06,-4.92421,-0.00857931,-6.87701,8.62138,0.296443,
2,0,0,1,0,1019.84,0.295243,0.294963,-0.0232878,1,0.0254252,11,-6.86903e-06,-4.63287,-0.00684886,-8.61457,5.89616,0.294963,
2,0,0,1,0,1020.14,0.293744,0.293473,-0.0320196,1,0.0254108,11,-9.39688e-06,-4.49458,-0.0129638,-4.55114,5.09284,0.293473,
2,0,0,1,0,1020.44,0.292246,0.291949,-0.0386425,1,0.0253942,11,-1.12816e-05,-4.41294,-0.0194833,-3.02823,4.27105,0.291949,
2,0,0,1,0,1020.74,0.290749,0.290469,-0.0460129,1,0.0253755,11,-1.33653e-05,-4.33712,-0.0265457,-2.22258,3.72639,0.290469,
2,0,0,0,0,1021.04,0.28925,0.288978,-0.0500024,1,0.025355,11,-1.44496e-05,-4.30101,-0.0310768,-1.89852,3.67962,0.288978,
2,0,0,0,0,1021.34,0.287752,0.287466,-0.0545224,1,0.025333,11,-1.56733e-05,-4.26342,-0.0427085,-1.38146,2.96472,0.287466,
2,0,0,1,0,1021.64,0.286253,0.285902,-0.0598254,1,0.0253098,11,-1.71042e-05,-4.22311,-0.0452411,-1.30412,3.0542,0.285902,
2,0,0,1,0,1021.94,0.284755,0.284469,-0.0639853,1,0.0252849,11,-1.82018e-05,-4.19392,-0.0388193,-1.51986,3.73071,0.2844691,
2,0,0,1,0,1022.24,0.283257,0.282999,-0.0675983,1,0.0252588,11,-1.91302e-05,-4.17006,-0.0545588,-1.0814,2.86633,0.282999,
2,0,0,1,0,1022.54,0.281759,0.281458,-0.0716636,1,0.0252316,11,-2.01703e-05,-4.1447,-0.0703622,-0.838518,2.34819,0.281458,
2,0,0,1,0,1022.83,0.280261,0.279999,-0.0735815,1,0.0252032,11,-2.06028e-05,-4.13323,-0.0765475,-0.770763,2.26181,0.279999,
2,0,0,1,0,1023.13,0.278763,0.278479,-0.0795827,1,0.025174,11,-2.21621e-05,-4.09918,-0.0855247,-0.689859,2.09473,0.278479,
2,0,0,1,0,1023.43,0.277264,0.276996,-0.0836303,1,0.0251435,11,-2.31653e-05,-4.07764,-0.0777745,-0.758603,2.41269,0.276996,
2,0,0,1,0,1023.73,0.275766,0.275498,-0.0844046,1,0.0251121,11,-2.32533e-05,-4.07363,-0.121007,-0.487575,1.60673,0.275498,
2,0,0,1,0,1024.03,0.274268,0.273957,-0.0885928,1,0.0250797,11,-2.42706e-05,-4.0526,-0.117026,-0.504162,1.7499,0.273957,
2,0,0,0,0,1024.33,0.27277,0.272503,-0.0913359,1,0.0250466,11,-2.48893e-05,-4.03936,-0.0762579,-0.77369,2.8004,0.272503,
2,0,0,0,0,1024.63,0.271272,0.271013,-0.0953253,1,0.0250125,11,-2.58344e-05,-4.02079,-0.151128,-0.390398,1.44422,0.271013,
2,0,0,1,0,1024.93,0.269773,0.26946,-0.0985979,1,0.0249773,11,-2.65682e-05,-4.00613,-0.118756,-0.496817,1.87362,0.26946,
2,0,0,1,0,1025.23,0.268275,0.268003,-0.101768,1,0.0249414,11,-2.72741e-05,-3.99239,-0.112848,-0.522828,2.0175,0.268003,
2,0,0,1,0,1025.53,0.266778,0.26652,-0.102959,1,0.0249049,11,-2.74407e-05,-3.98733,-0.115646,-0.510178,2.05582,0.26652,
2,0,0,1,0,1025.83,0.265279,0.264964,-0.105878,1,0.0248674,11,-2.80538e-05,-3.9752,-0.116132,-0.508043,2.09251,0.264964,
2,0,0,1,0,1026.13,0.263781,0.26349,-0.108395,1,0.0248291,11,-2.8561e-05,-3.96499,-0.1491,-0.395707,1.68518,0.26349,
2,0,0,1,0,1026.43,0.262282,0.262012,-0.110649,1,0.0247901,11,-2.89915e-05,-3.95605,-0.179953,-0.327863,1.41632,0.262012,
2,0,0,1,0,1026.73,0.260784,0.260527,-0.112939,1,0.0247506,11,-2.94236e-05,-3.94716,-0.179542,-0.328614,1.46187,0.2605274,
2,0,0,1,0,1027.03,0.259286,0.259001,-0.115548,1,0.02471,11,-2.99271e-05,-3.93724,-0.133398,-0.442287,1.99818,0.259001,
2,0,0,0,0,1027.33,0.257788,0.257518,-0.119285,1,0.0246687,11,-3.07181e-05,-3.92341,-0.204589,-0.288383,1.32477,0.257518,
2,0,0,0,0,1027.63,0.25629,0.256016,-0.120759,1,0.0246267,11,-3.09163e-05,-3.91808,-0.165447,-0.35661,1.67526,0.256016,
2,0,0,1,0,1027.93,0.254791,0.254485,-0.121554,1,0.0245841,11,-3.09337e-05,-3.91523,-0.180483,-0.326901,1.55153,0.2544845,
2,0,0,1,0,1028.23,0.253293,0.253008,-0.125545,1,0.0245408,11,-3.17639e-05,-3.9012,-0.171072,-0.344884,1.67767,0.253008,
2,0,0,1,0,1028.53,0.251795,0.251503,-0.126531,1,0.0244967,11,-3.18229e-05,-3.8978,-0.183864,-0.320889,1.59911,0.2515032,
2,0,0,1,0,1028.83,0.250297,0.249982,-0.128945,1,0.024452,11,-3.22337e-05,-3.8896,-0.290172,-0.203328,1.02363,0.249982,
2,0,0,1,0,1029.13,0.248799,0.248508,-0.130513,1,0.0244065,11,-3.24334e-05,-3.88435,-0.223771,-0.263662,1.3645,0.248508,
2,0,0,1,0,1029.43,0.247301,0.247012,-0.133637,1,0.0243606,11,-3.30099e-05,-3.87407,-0.213223,-0.276705,1.45435,0.247012,
2,0,0,1,0,1029.73,0.245802,0.245542,-0.137967,1,0.0243138,11,-3.38766e-05,-3.86023,-0.202266,-0.291694,1.56477,0.245542,
2,0,0,1,0,1030.03,0.244304,0.243963,-0.140988,1,0.0242661,11,-3.43958e-05,-3.85082,-0.160391,-0.367852,1.98742,0.243963,
2,0,0,0,0,1030.33,0.242806,0.242477,-0.141297,1,0.024218,11,-3.42614e-05,-3.84987,-0.217389,-0.271403,1.48744,0.242477,
2,0,0,0,0,1030.63,0.241308,0.241018,-0.143911,1,0.0241692,11,-3.4685e-05,-3.84191,-0.209721,-0.281326,1.58318,0.241018,
2,0,0,0,0,1030.92,0.23981,0.239513,-0.145272,1,0.0241198,11,-3.47945e-05,-3.83782,-0.1937,-0.304594,1.73406,0.239513,
2,0,0,1,0,1031.22,0.238311,0.238056,-0.147942,1,0.0240695,11,-3.52185e-05,-3.82991,-0.228497,-0.258209,1.4973,0.238056,
2,0,0,1,0,1031.52,0.236813,0.236495,-0.150716,1,0.0240186,11,-3.56436e-05,-3.82184,-0.196165,-0.300768,1.76533,0.236495,
2,0,0,1,0,1031.82,0.235316,0.234983,-0.150858,1,0.0239672,11,-3.5449e-05,-3.82143,-0.172801,-0.341434,2.04709,0.234983,
2,0,0,1,0,1032.12,0.233817,0.233555,-0.155722,1,0.0239151,11,-3.63695e-05,-3.80765,-0.307214,-0.192048,1.16643,0.233555,
2,0,0,1,0,1032.42,0.232319,0.23201,-0.15951,1,0.023862,11,-3.70079e-05,-3.79721,-0.265954,-0.221843,1.34855,0.23201,
2,0,0,1,0,1032.72,0.23082,0.230496,-0.161305,1,0.0238083,11,-3.71802e-05,-3.79235,-0.233496,-0.252681,1.56358,0.230496,
2,0,0,1,0,1033.02,0.229322,0.229015,-0.160325,1,0.023754,11,-3.67169e-05,-3.795,-0.234409,-0.251697,1.59041,0.229015,
2,0,0,1,0,1033.32,0.227824,0.227506,-0.162524,1,0.023699,11,-3.69752e-05,-3.78908,-0.240662,-0.245157,1.58392,0.227506,
2,0,0,0,0,1033.62,0.226326,0.226039,-0.164976,1,0.0236432,11,-3.72909e-05,-3.78258,-0.22758,-0.259249,1.68788,0.226039,
2,0,0,0,0,1033.92,0.224828,0.224519,-0.16872,1,0.0235866,11,-3.78808e-05,-3.77283,-0.332633,-0.177372,1.16924,0.224519,
2,0,0,1,0,1034.22,0.223329,0.223025,-0.171393,1,0.0235292,11,-3.82248e-05,-3.76601,-0.357101,-0.165219,1.10406,0.223025,
2,0,0,1,0,1034.52,0.221831,0.221584,-0.175405,1,0.0234713,11,-3.8867e-05,-3.75596,-0.234669,-0.251418,1.7074,0.221584,
2,0,0,1,0,1034.82,0.220333,0.220055,-0.17736,1,0.0234124,11,-3.90289e-05,-3.75115,-0.204134,-0.289026,1.9893,0.220055,
2,0,0,1,0,1035.12,0.218835,0.218567,-0.180154,1,0.0233525,11,-3.93757e-05,-3.74436,-0.191848,-0.307536,2.15423,0.218567,
2,0,0,1,0,1035.42,0.217337,0.217033,-0.183215,1,0.023292,11,-3.97635e-05,-3.73704,-0.206174,-0.286166,2.04074,0.217033,
2,0,0,1,0,1035.72,0.215839,0.215531,-0.184595,1,0.0232309,11,-3.97859e-05,-3.73378,-0.23462,-0.251471,1.82395,0.215531,
2,0,0,1,0,1036.02,0.21434,0.214004,-0.187605,1,0.0231687,11,-4.01482e-05,-3.72676,-0.158735,-0.371688,2.71137,0.214004,
2,0,0,1,0,1036.32,0.212842,0.212507,-0.192229,1,0.0231055,11,-4.08501e-05,-3.71618,-0.192979,-0.305733,2.29364,0.2125068,
2,0,0,0,0,1036.62,0.211344,0.211,-0.194045,1,0.0230414,11,-4.09434e-05,-3.7121,-0.174256,-0.338582,2.58581,0.211,
2,0,0,0,0,1036.92,0.209846,0.209565,-0.196208,1,0.0229765,11,-4.11183e-05,-3.70728,-0.237836,-0.24807,1.92103,0.209565,
2,0,0,0,0,1037.22,0.208348,0.208013,-0.200413,1,0.0229106,11,-4.16885e-05,-3.69807,-0.211681,-0.278721,2.18243,0.208013,
2,0,0,1,0,1037.52,0.206849,0.206533,-0.208928,1,0.0228434,11,-4.31505e-05,-3.68,-0.243597,-0.242204,1.94333,0.206533,
2,0,0,1,0,1037.82,0.205351,0.205039,-0.208559,1,0.0227749,11,-4.27627e-05,-3.68077,-0.22752,-0.259318,2.10323,0.205039,
2,0,0,1,0,1038.12,0.203854,0.203504,-0.211124,1,0.0227057,11,-4.29647e-05,-3.67546,-0.197189,-0.299206,2.49882,0.203504,
2,0,0,1,0,1038.42,0.202355,0.202106,-0.213597,1,0.0226355,11,-4.31692e-05,-3.67041,-0.173511,-0.340037,2.88798,0.202106,
2,0,0,1,0,1038.72,0.200857,0.200515,-0.22188,1,0.0225638,11,-4.44902e-05,-3.65388,-0.187937,-0.313935,2.71118,0.200515,
2,0,0,1,0,1039.02,0.199358,0.199103,-0.224157,1,0.0224907,11,-4.46302e-05,-3.64945,-0.23075,-0.255688,2.22892,0.199103,
2,0,0,1,0,1039.31,0.19786,0.19755,-0.229764,1,0.0224165,11,-4.53898e-05,-3.63872,-0.187348,-0.314922,2.80286,0.19755,
2,0,0,1,0,1039.61,0.196363,0.196047,-0.235621,1,0.0223411,11,-4.61929e-05,-3.62779,-0.161098,-0.366237,3.34055,0.196047,
2,0,0,0,0,1039.91,0.194864,0.194578,-0.239475,1,0.0222639,11,-4.65966e-05,-3.62074,-0.132953,-0.443765,4.15513,0.194578,
2,0,0,0,0,1040.21,0.193366,0.193079,-0.244355,1,0.0221849,11,-4.71799e-05,-3.61198,-0.146813,-0.401872,3.8414,0.193079,
2,0,0,1,0,1040.51,0.191867,0.191576,-0.249352,1,0.0221044,11,-4.77698e-05,-3.60319,-0.160326,-0.368,3.6296,0.191576,
2,0,0,1,0,1040.81,0.190369,0.190043,-0.256261,1,0.0220224,11,-4.87007e-05,-3.59132,-0.143257,-0.411847,4.1466,0.1900429,
2,0,0,1,0,1041.11,0.188871,0.188562,-0.263436,1,0.0219383,11,-4.96741e-05,-3.57932,-0.118676,-0.497152,5.1139,0.188562,
2,0,0,1,0,1041.41,0.187373,0.187058,-0.270503,1,0.0218521,11,-5.05998e-05,-3.56783,-0.125077,-0.471711,4.98643,0.187058,
2,0,0,1,0,1041.71,0.185875,0.185587,-0.277798,1,0.0217638,11,-5.15557e-05,-3.55627,-0.117804,-0.500832,5.43853,0.185587,
2,0,0,1,0,1042.01,0.184377,0.184076,-0.283048,1,0.0216734,11,-5.21025e-05,-3.54814,-0.123733,-0.476834,5.31201,0.184076,
2,0,0,1,0,1042.31,0.182878,0.182599,-0.293921,1,0.0215805,11,-5.36697e-05,-3.53177,-0.117504,-0.502111,5.75856,0.182599,
2,0,0,1,0,1042.61,0.181381,0.181062,-0.304652,1,0.0214849,11,-5.51608e-05,-3.5162,-0.107041,-0.551191,6.52306,0.181062,
2,0,0,0,0,1042.91,0.179882,0.179599,-0.312899,1,0.0213862,11,-5.61964e-05,-3.5046,-0.126554,-0.466205,5.68166,0.179599,
2,0,0,0,0,1043.21,0.178384,0.178102,-0.322432,1,0.0212847,11,-5.74257e-05,-3.49156,-0.104319,-0.565574,7.17134,0.178102,
2,0,0,0,0,1043.51,0.176886,0.176579,-0.334331,1,0.0211802,11,-5.90358e-05,-3.47582,-0.0927531,-0.636097,8.33357,0.176579,
2,0,0,1,0,1043.81,0.175387,0.175105,-0.348182,1,0.0210718,11,-6.09684e-05,-3.45819,-0.095037,-0.620811,8.44511,0.175105,
2,0,0,1,0,1044.11,0.173889,0.173544,-0.362789,1,0.0209594,11,-6.296e-05,-3.44035,-0.0858349,-0.687366,9.66092,0.173544,
2,0,0,1,0,1044.41,0.172392,0.172086,-0.376336,1,0.0208429,11,-6.47619e-05,-3.42442,-0.0845025,-0.698204,10.2523,0.172086,
2,0,0,1,0,1044.71,0.170893,0.170611,-0.391679,1,0.0207221,11,-6.68248e-05,-3.40707,-0.0783338,-0.753187,11.5312,0.170611,
2,0,0,1,0,1045.01,0.169395,0.16908,-0.409023,1,0.0205958,11,-6.91576e-05,-3.38825,-0.0716064,-0.823949,13.1954,0.1690799,
2,0,0,1,0,1045.31,0.167896,0.167594,-0.429846,1,0.0204636,11,-7.20396e-05,-3.36669,-0.0709582,-0.831475,14.0303,0.167594,
2,0,0,1,0,1045.61,0.166398,0.166115,-0.449983,1,0.0203256,11,-7.47489e-05,-3.3468,-0.0720193,-0.819225,14.5381,0.1661149,
2,0,0,1,0,1045.91,0.164901,0.164635,-0.471248,1,0.0201812,11,-7.75838e-05,-3.32675,-0.0665169,-0.886993,16.4829,0.164635,
2,0,0,0,0,1046.21,0.163402,0.16314,-0.500707,1,0.0200292,11,-8.16852e-05,-3.30042,-0.0625993,-0.942503,18.4006,0.16314,
2,0,0,0,0,1046.51,0.161904,0.161617,-0.528824,1,0.0198691,11,-8.54669e-05,-3.27669,-0.0633502,-0.931331,19.212,0.161617,
2,0,0,1,0,1046.81,0.160405,0.160104,-0.559202,1,0.0197001,11,-8.95306e-05,-3.25243,-0.0629313,-0.937531,20.3702,0.1601042,
2,0,0,1,0,1047.11,0.158907,0.158628,-0.586917,1,0.0195221,11,-9.31017e-05,-3.23142,-0.0624522,-0.944722,21.7479,0.158628,
2,0,0,1,0,1047.41,0.157409,0.157105,-0.622901,1,0.0193345,11,-9.78607e-05,-3.20558,-0.0600438,-0.982616,24.054,0.157105,
2,0,0,1,0,1047.7,0.155911,0.155636,-0.659319,1,0.019136,11,-0.000102614,-3.1809,-0.062451,-0.94474,24.4062,0.155636,
2,0,0,1,0,1048,0.154413,0.154124,-0.696936,1,0.0189262,11,-0.000107415,-3.15681,-0.0693532,-0.850717,23.048,0.154124,
2,0,0,1,0,1048.3,0.152915,0.152584,-0.732908,1,0.0187056,11,-0.00011183,-3.13495,-0.0698576,-0.844576,24.121,0.152584,
2,0,0,1,0,1048.6,0.151416,0.151153,-0.770166,1,0.0184751,11,-0.000116413,-3.11342,-0.0772137,-0.764113,22.8847,0.151153,
2,0,0,1,0,1048.9,0.149919,0.149651,-0.804253,1,0.0182332,11,-0.000120358,-3.09461,-0.0771749,-0.764498,23.8789,0.1496515,
2,0,0,0,0,1049.2,0.14842,0.148143,-0.838468,1,0.0179811,11,-0.000124213,-3.07651,-0.0867727,-0.679937,22.1558,0.148143,
2,0,0,0,0,1049.5,0.146922,0.146665,-0.87088,1,0.0177191,11,-0.000127728,-3.06004,-0.0974051,-0.605718,20.4803,0.146665,
2,0,0,0,0,1049.8,0.145424,0.145134,-0.894178,1,0.0174489,11,-0.000129775,-3.04858,-0.112203,-0.525832,18.3512,0.145134,
2,0,0,1,0,1050.1,0.143925,0.143628,-0.922473,1,0.01717,11,-0.000132493,-3.03505,-0.121314,-0.486339,17.3881,0.143628,
2,0,0,1,0,1050.4,0.142427,0.142102,-0.945126,1,0.0168839,11,-0.000134305,-3.02451,-0.163752,-0.360302,13.253,0.142102,
2,0,0,1,0,1050.7,0.14093,0.140636,-0.961023,1,0.0165922,11,-0.000135154,-3.01727,-0.24184,-0.243963,9.12105,0.140636,
2,0,0,1,0,1051,0.139431,0.139147,-0.969688,1,0.0162964,11,-0.000134929,-3.01337,-0.30647,-0.192515,7.29512,0.139147,
2,0,0,1,0,1051.3,0.137933,0.137639,-0.98481,1,0.0159974,11,-0.000135548,-3.00665,-0.4354,-0.135507,5.17858,0.137639,
2,0,0,1,0,1051.6,0.136434,0.13615,-0.990773,1,0.0156955,11,-0.000134894,-3.00403,-1.28011,-0.0460899,1.76926,0.13615,
2,0,0,1,0,1051.9,0.134936,0.134629,-0.991091,1,0.0153929,11,-0.00013343,-3.00389,0.805897,0.0732103,-2.80782,0.134629,
2,0,0,1,0,1052.2,0.133439,0.133139,-0.98171,1,0.015091,11,-0.000130704,-3.00802,0.519039,0.113672,-4.3535,0.133139,
2,0,0,0,0,1052.5,0.13194,0.131645,-0.975599,1,0.0147916,11,-0.000128433,-3.01073,0.338397,0.174351,-6.65277,0.131645,
2,0,0,0,0,1052.8,0.130442,0.130163,-0.96544,1,0.0144946,11,-0.000125665,-3.01527,0.238023,0.247875,-9.28789,0.130163,
2,0,0,1,0,1053.1,0.128943,0.128669,-0.949039,1,0.0142014,11,-0.000122112,-3.02272,0.158409,0.372455,-13.7048,0.128669,
2,0,0,1,0,1053.4,0.127445,0.127145,-0.930588,1,0.0139143,11,-0.00011832,-3.03124,0.149355,0.395033,-14.2776,0.127145,
2,0,0,1,0,1053.7,0.125947,0.125651,-0.907141,1,0.0136341,11,-0.000113983,-3.04233,0.140565,0.419733,-14.7996,0.125651,
2,0,0,1,0,1054,0.124449,0.124127,-0.883918,1,0.0133599,11,-0.000109718,-3.05359,0.131356,0.449162,-15.4265,0.124127,
2,0,0,1,0,1054.3,0.122951,0.122658,-0.858072,1,0.0130932,11,-0.00010525,-3.06648,0.117962,0.500159,-16.7096,0.122658,
2,0,0,1,0,1054.6,0.121453,0.121138,-0.831674,1,0.0128343,11,-0.000100747,-3.08005,0.10622,0.555453,-18.0101,0.121138,
2,0,0,1,0,1054.9,0.119954,0.119691,-0.80375,1,0.0125838,11,-9.62018e-05,-3.09488,0.109408,0.539265,-16.9525,0.119691,
2,0,0,1,0,1055.2,0.118456,0.118212,-0.778275,1,0.0123408,11,-9.20017e-05,-3.10887,0.117591,0.501737,-15.2529,0.118212,
2,0,0,0,0,1055.5,0.116958,0.116615,-0.7575,1,0.0121046,11,-8.83361e-05,-3.12062,0.115284,0.51178,-15.0979,0.116615,
2,0,0,0,0,1055.79,0.11546,0.115156,-0.731403,1,0.0118759,11,-8.42255e-05,-3.13584,0.104052,0.567022,-16.2345,0.115156,
2,0,0,0,0,1056.09,0.113962,0.113654,-0.705361,1,0.0116543,11,-8.01667e-05,-3.15159,0.113708,0.518875,-14.3754,0.113654,
2,0,0,1,0,1056.39,0.112463,0.112141,-0.689962,1,0.011439,11,-7.73732e-05,-3.16117,0.120785,0.488472,-13.1641,0.1121412,
2,0,0,1,0,1056.69,0.110965,0.110647,-0.671839,1,0.0112291,11,-7.43373e-05,-3.17274,0.13167,0.448091,-11.7784,0.1106475,
2,0,0,1,0,1056.99,0.109468,0.109139,-0.651889,1,0.0110246,11,-7.11463e-05,-3.18583,0.121725,0.484701,-12.3885,0.1091387,
2,0,0,1,0,1057.29,0.107969,0.107695,-0.637663,1,0.0108249,11,-6.86731e-05,-3.19541,0.142661,0.413568,-10.356,0.1076951,
2,0,0,1,0,1057.59,0.106471,0.106205,-0.624561,1,0.0106301,11,-6.63317e-05,-3.20442,0.191576,0.307972,-7.5517,0.106205,
2,0,0,1,0,1057.89,0.104972,0.104727,-0.611902,1,0.0104388,11,-6.40824e-05,-3.21332,0.17308,0.340884,-8.1588,0.1047266,
2,0,0,1,0,1058.19,0.103474,0.103198,-0.60147,1,0.0102506,11,-6.20705e-05,-3.22079,0.180132,0.327537,-7.67565,0.103198,
2,0,0,1,0,1058.49,0.101977,0.101701,-0.592192,1,0.0100663,11,-6.02265e-05,-3.22754,0.202826,0.29089,-6.7113,0.1017009,
2,0,0,0,0,1058.79,0.100478,0.100179,-0.582372,1,0.00988532,11,-5.83414e-05,-3.2348,0.228599,0.258094,-5.85128,0.100179,
2,0,0,0,0,1059.09,0.0989798,0.0986795,-0.571404,1,0.00970678,11,-5.63858e-05,-3.24306,0.26504,0.222608,-4.96252,0.0986795,
2,0,0,1,0,1059.39,0.0974812,0.0971925,-0.563373,1,0.00953066,11,-5.47556e-05,-3.2492,0.270731,0.217929,-4.80156,0.0971925,
2,0,0,1,0,1059.69,0.0959834,0.0956711,-0.555619,1,0.00935707,11,-5.31567e-05,-3.25522,0.259343,0.227498,-4.95224,0.0956711,
2,0,0,1,0,1059.99,0.0944855,0.0942387,-0.545327,1,0.00918613,11,-5.13909e-05,-3.26334,0.275952,0.213805,-4.58196,0.0942387,
2,0,0,1,0,1060.29,0.0929871,0.092685,-0.539444,1,0.00901702,11,-4.99984e-05,-3.26805,0.332169,0.177621,-3.75012,0.092685,
2,0,0,1,0,1060.59,0.0914889,0.0912132,-0.537746,1,0.00884963,11,-4.90495e-05,-3.26942,0.292672,0.201591,-4.20934,0.0912132,
2,0,0,1,0,1060.89,0.0899907,0.0897191,-0.530087,1,0.0086845,11,-4.75589e-05,-3.27565,0.269914,0.218588,-4.50396,0.0897191,
2,0,0,1,0,1061.19,0.0884923,0.0882015,-0.519073,1,0.00852139,11,-4.57831e-05,-3.28477,0.27652,0.213366,-4.32148,0.0882015,
2,0,0,1,0,1061.49,0.0869945,0.0867153,-0.515783,1,0.00836025,11,-4.47263e-05,-3.28753,0.298538,0.19763,-3.97144,0.0867153,
2,0,0,0,0,1061.79,0.0854961,0.0851954,-0.508213,1,0.0082009,11,-4.32974e-05,-3.29395,0.257485,0.22914,-4.55197,0.0851954,
2,0,0,0,0,1062.09,0.083998,0.0836949,-0.50167,1,0.0080434,11,-4.19872e-05,-3.29958,0.220607,0.267444,-5.23026,0.08369492,
2,0,0,0,0,1062.39,0.0824998,0.082186,-0.495429,1,0.00788786,11,-4.07173e-05,-3.30502,0.271404,0.217388,-4.2227,0.082186,
2,0,0,1,0,1062.69,0.0810013,0.080698,-0.489299,1,0.00773455,11,-3.94854e-05,-3.31043,0.356479,0.165508,-3.17058,0.080698,
2,0,0,1,0,1062.99,0.0795035,0.0792032,-0.484126,1,0.00758269,11,-3.83443e-05,-3.31504,0.290531,0.203076,-3.83367,0.0792032,
2,0,0,1,0,1063.29,0.0780056,0.0777315,-0.479255,1,0.00743245,11,-3.72532e-05,-3.31943,0.265636,0.222108,-4.13345,0.07773155,
2,0,0,1,0,1063.59,0.076507,0.0761894,-0.471466,1,0.00728417,11,-3.59207e-05,-3.32655,0.276055,0.213725,-3.93021,0.0761894,
2,0,0,1,0,1063.89,0.0750088,0.0747048,-0.4662,1,0.00713826,11,-3.48274e-05,-3.33143,0.257881,0.228788,-4.15559,0.0747048,
2,0,0,1,0,1064.18,0.0735103,0.0732251,-0.460969,1,0.00699362,11,-3.37545e-05,-3.33633,0.351074,0.168056,-3.0039,0.0732251,
2,0,0,1,0,1064.48,0.0720124,0.0717249,-0.4541,1,0.00685071,11,-3.25703e-05,-3.34285,0.324607,0.181758,-3.22306,0.0717249,
2,0,0,1,0,1064.78,0.0705146,0.0702569,-0.447387,1,0.00670955,11,-3.1432e-05,-3.34932,0.267251,0.220766,-3.87566,0.0702569,
2,0,0,0,0,1065.08,0.069016,0.0687252,-0.441119,1,0.00657026,11,-3.0316e-05,-3.35544,0.287115,0.205492,-3.56038,0.0687252,
2,0,0,0,0,1065.38,0.0675179,0.0672353,-0.439223,1,0.00643237,11,-2.95313e-05,-3.35731,0.368548,0.160088,-2.72796,0.0672353,
2,0,0,1,0,1065.68,0.0660192,0.0657335,-0.437746,1,0.00629573,11,-2.87746e-05,-3.35878,0.333334,0.177,-2.99313,0.06573347,
2,0,0,1,0,1065.98,0.0645214,0.0642226,-0.430515,1,0.00616052,11,-2.76488e-05,-3.36601,0.332355,0.177521,-2.96899,0.0642226,
2,0,0,1,0,1066.28,0.0630235,0.0627617,-0.42191,1,0.00602685,11,-2.64798e-05,-3.37478,0.360988,0.16344,-2.70324,0.0627617,
2,0,0,1,0,1066.58,0.0615251,0.0612482,-0.419952,1,0.00589464,11,-2.57213e-05,-3.3768,0.437864,0.134745,-2.2172,0.0612482,
2,0,0,1,0,1066.88,0.0600269,0.0597414,-0.417058,1,0.00576344,11,-2.49156e-05,-3.3798,0.478305,0.123352,-2.0095,0.0597414,
2,0,0,1,0,1067.18,0.0585287,0.0582367,-0.412649,1,0.00563326,11,-2.40313e-05,-3.38442,0.32848,0.179615,-2.88472,0.0582367,
2,0,0,1,0,1067.48,0.0570303,0.0567253,-0.40944,1,0.00550404,11,-2.32256e-05,-3.38781,0.401094,0.147098,-2.35881,0.0567253,
2,0,0,1,0,1067.78,0.0555325,0.0552751,-0.405613,1,0.0053762,11,-2.24203e-05,-3.39189,0.588175,0.10031,-1.59551,0.0552751,
2,0,0,0,0,1068.08,0.0540341,0.0537618,-0.405136,1,0.00524879,11,-2.17808e-05,-3.3924,0.535494,0.110179,-1.73357,0.0537618,
2,0,0,0,0,1068.38,0.052536,0.0522666,-0.401875,1,0.00512191,11,-2.10047e-05,-3.39591,0.571699,0.103201,-1.61806,0.0522666,
2,0,0,0,0,1068.68,0.0510378,0.0507428,-0.400295,1,0.004996,11,-2.03121e-05,-3.39762,0.561943,0.104993,-1.63661,0.05074279,
2,0,0,1,0,1068.98,0.0495394,0.0492633,-0.397103,1,0.00487095,11,-1.95626e-05,-3.4011,0.874906,0.0674358,-1.04654,0.0492633,
2,0,0,1,0,1069.28,0.0480415,0.0477768,-0.394144,1,0.00474624,11,-1.8831e-05,-3.40434,1.97282,0.0299064,-0.461525,0.0477768,
2,0,0,1,0,1069.58,0.0465436,0.0462407,-0.393927,1,0.00462183,11,-1.82155e-05,-3.40458,1.3515,0.0436553,-0.672514,0.0462407,
2,0,0,1,0,1069.88,0.045045,0.0447324,-0.39252,1,0.0044978,11,-1.75583e-05,-3.40614,1.00895,0.0584767,-0.897389,0.0447324,
2,0,0,1,0,1070.18,0.0435468,0.0432913,-0.390172,1,0.00437435,11,-1.68911e-05,-3.40874,1.58577,0.0372058,-0.569092,0.0432913,
2,0,0,1,0,1070.48,0.0420483,0.0417533,-0.392329,1,0.004251,11,-1.63811e-05,-3.40635,3.41819,0.0172606,-0.263313,0.0417533,
2,0,0,1,0,1070.78,0.0405504,0.0402586,-0.394084,1,0.00412765,11,-1.58653e-05,-3.40441,2.67838,0.0220283,-0.335747,0.04025856,
2,0,0,1,0,1071.08,0.0390526,0.0387425,-0.390698,1,0.00400443,11,-1.51366e-05,-3.40816,1.36084,0.0433557,-0.660136,0.0387425,
2,0,0,0,0,1071.38,0.0375541,0.0372534,-0.389091,1,0.0038815,11,-1.44949e-05,-3.40995,38.7776,0.0015215,-0.0231996,0.0372534,
2,0,0,0,0,1071.68,0.0360559,0.035755,-0.388957,1,0.00375876,11,-1.39072e-05,-3.4101,5.38084,0.0109648,-0.167862,0.035755,
2,0,0,1,0,1071.98,0.0345572,0.0342838,-0.39005,1,0.00363566,11,-1.33724e-05,-3.40888,6.95831,0.00847907,-0.129506,0.0342838,
2,0,0,1,0,1072.28,0.0330594,0.0327878,-0.389826,1,0.00351247,11,-1.27816e-05,-3.40913,2.27795,0.0259004,-0.394099,0.03278783,
2,0,0,1,0,1072.57,0.0315615,0.0312824,-0.391941,1,0.00338917,11,-1.22609e-05,-3.40678,-2.35705,-0.0250313,0.383428,0.0312824,
2,0,0,1,0,1072.87,0.0300631,0.0297595,-0.393009,1,0.003266,11,-1.16957e-05,-3.4056,-1.98897,-0.0296635,0.45382,0.0297595,
2,0,0,1,0,1073.17,0.0285649,0.0282632,-0.394051,1,0.00314234,11,-1.11372e-05,-3.40445,-2.67643,-0.0220443,0.338425,0.0282632,
2,0,0,1,0,1073.47,0.0270667,0.0267956,-0.394265,1,0.00301828,11,-1.05646e-05,-3.40421,-1.94103,-0.0303962,0.467153,0.0267956,
2,0,0,1,0,1073.77,0.0255683,0.0252557,-0.395318,1,0.00289402,11,-9.98402e-06,-3.40305,-1.24936,-0.0472243,0.729587,0.0252557,
2,0,0,1,0,1074.07,0.0240706,0.0238033,-0.396203,1,0.00276977,11,-9.43092e-06,-3.40208,-0.728526,-0.0809854,1.25782,0.0238033,
2,0,0,0,0,1074.37,0.0225722,0.022291,-0.396716,1,0.00264482,11,-8.84321e-06,-3.40152,-0.448768,-0.131471,2.03527,0.022291,
2,0,0,0,0,1074.67,0.021074,0.0208202,-0.398424,1,0.00251944,11,-8.29529e-06,-3.39965,-1.22453,-0.0481819,0.752115,0.0208202,
2,0,0,0,0,1074.97,0.0195758,0.0193113,-0.39979,1,0.00239359,11,-7.72046e-06,-3.39817,-1.12829,-0.0522913,0.817609,0.0193113,
2,0,0,1,0,1075.27,0.0180774,0.0177937,-0.399708,1,0.00226748,11,-7.11228e-06,-3.39826,-1.27338,-0.0463335,0.725492,0.0177937,
2,0,0,1,0,1075.57,0.0165795,0.0162542,-0.404648,1,0.00214079,11,-6.57722e-06,-3.39292,-0.635454,-0.0928469,1.4616,0.0162542,
2,0,0,1,0,1075.87,0.0150817,0.0147677,-0.408092,1,0.00201341,11,-6.0266e-06,-3.38924,-0.903805,-0.0652796,1.0337,0.0147677,
2,0,0,1,0,1076.17,0.013583,0.0132691,-0.408415,1,0.00188528,11,-5.4193e-06,-3.3889,-0.924733,-0.0638022,1.01483,0.0132691,
2,0,0,1,0,1076.47,0.0120848,0.0117972,-0.408529,1,0.00175679,11,-4.81952e-06,-3.38878,-0.904491,-0.06523,1.04299,0.0117972,
2,0,0,1,0,1076.77,0.0105863,0.0102848,-0.412555,1,0.00162787,11,-4.24303e-06,-3.38452,-0.954573,-0.0618077,0.994514,0.0102848,
2,0,0,1,0,1077.07,0.00908845,0.00882173,-0.414775,1,0.00149803,11,-3.65903e-06,-3.38219,-0.551385,-0.107003,1.73003,0.00882173,
2,0,0,1,0,1077.37,0.0075906,0.00728346,-0.41571,1,0.00136746,11,-3.0278e-06,-3.38121,-1.31968,-0.044708,0.72605,0.00728346,
2,0,0,0,0,1077.67,0.00609208,0.00576565,-0.420767,1,0.00123629,11,-2.426e-06,-3.37596,-0.677531,-0.0870808,1.4255,0.00576565,
2,0,0,0,0,1077.97,0.00459389,0.00427684,-0.422886,1,0.00110461,11,-1.80861e-06,-3.37378,-0.585636,-0.100745,1.65606,0.00427684,
2,0,0,1,0,1078.27,0.00309525,0.00277052,-0.423747,1,0.000971889,11,-1.174e-06,-3.37289,-0.48249,-0.122282,2.02323,0.00277052,
2,0,0,1,0,1078.57,0.00159739,0.00120693,-0.429046,1,0.000835919,11,-5.1783e-07,-3.3675, , , ,0.00120693,
2,0,0,1,0,1078.85,0.000199195,-0.000151629,-0.428454,1,0.000710379,11,6.49659e-08,-3.3681, , , ,-0.000151629,