File: Figure_codes/Fig_3-5/rawdata_trumpetplot_data/before 10th/20221101_1-115_002_TrumpetPlot_ParaChange_12_CV_C01_2.csv
mode,ox/red,error,control changes,counter inc.,time/s,control/V,Ewe/V,<I>/mA,cycle number,(Q-Qo)/C,I Range,P/W,log(|I|),Tafel slope mV/dec,alpha_eff,dI/d(E-IR),E-IR/V,
2,1,0,0,0,3673.35,2.44065e-05,-0.000325324,7.30338,3,0.0000000E+000,10,-2.37596e-06,-2.13648, , , ,-0.000325324,
2,1,0,1,0,3673.36,0.00179726,0.00139651,7.71794,3,6.53501e-05,10,1.07782e-05,-2.1125, , , ,0.00139651,
2,1,0,1,0,3673.37,0.00379485,0.00348657,8.46067,3,0.000146665,10,2.94987e-05,-2.0726,0.0627134,0.940788,305.894,0.003486573,
2,1,0,1,0,3673.38,0.00579244,0.00551062,8.97642,3,0.000234046,10,4.94657e-05,-2.0469,0.0902254,0.653918,227.232,0.00551062,
2,1,0,1,0,3673.39,0.00779002,0.00745514,9.36245,3,0.000325917,10,6.97984e-05,-2.02861,0.121044,0.487426,177.354,0.00745514,
2,1,0,1,0,3673.4,0.00977853,0.00947168,9.67893,3,0.000420287,10,9.16757e-05,-2.01417,0.174356,0.338389,126.976,0.00947168,
2,1,0,1,0,3673.41,0.0117761,0.0114654,9.87166,3,0.000518154,10,0.000113183,-2.00561,0.252534,0.233632,89.8703,0.0114654,
2,1,0,1,0,3673.42,0.0137737,0.0134462,10.0361,3,0.000617675,10,0.000134947,-1.99843,0.340165,0.173445,67.7316,0.0134462,
2,1,0,1,0,3673.43,0.0157713,0.0154538,10.1418,3,0.000718587,10,0.00015673,-1.99388,0.448329,0.1316,52.0797,0.0154538,
2,1,0,1,0,3673.44,0.017778,0.0174597,10.2451,3,0.000820524,10,0.000178877,-1.98948,0.679761,0.0867952,34.5881,0.0174597,
2,1,0,1,0,3673.45,0.0197755,0.0194622,10.2804,3,0.000923169,10,0.00020008,-1.98799,1.0715,0.0550632,22.1113,0.0194622,
2,1,0,1,0,3673.46,0.0217731,0.0214672,10.3338,3,0.00102625,10,0.000221837,-1.98574,1.32664,0.0444733,17.9053,0.0214672,
2,1,0,1,0,3673.47,0.0237707,0.0234583,10.352,3,0.0011297,10,0.000242841,-1.98498,1.73662,0.0339741,13.7379,0.0234583,
2,1,0,1,0,3673.48,0.0257774,0.0254677,10.3887,3,0.00123342,10,0.000264577,-1.98344,1.85315,0.0318377,12.8949,0.0254677,
2,1,0,1,0,3673.49,0.027775,0.0274884,10.404,3,0.00133741,10,0.000285988,-1.9828,1.95976,0.0301057,12.2351,0.0274884,
2,1,0,1,0,3673.5,0.0297726,0.0295142,10.4382,3,0.00144159,10,0.000308076,-1.98137,2.90551,0.0203063,8.25804,0.0295142,
2,1,0,1,0,3673.51,0.0317701,0.0314655,10.4368,3,0.00154601,10,0.000328399,-1.98143,1.80206,0.0327402,13.3711,0.0314655,
2,1,0,1,0,3673.52,0.0337587,0.0334545,10.4909,3,0.00164957,10,0.000350968,-1.97919,1.51892,0.0388433,15.8693,0.0334545,
2,1,0,1,0,3673.53,0.0357562,0.0354483,10.5,3,0.00175455,10,0.000372207,-1.97881,2.71153,0.0217589,8.9238,0.0354483,
2,1,0,1,0,3673.54,0.0377538,0.0374413,10.5265,3,0.00185972,10,0.000394126,-1.97772,1.76121,0.0334996,13.7634,0.0374413,
2,1,0,1,0,3673.55,0.0397514,0.0394312,10.5548,3,0.00196514,10,0.000416189,-1.97655,0.942806,0.0625792,25.8345,0.03943117,
2,1,0,1,0,3673.56,0.0417399,0.0414403,10.6298,3,0.00206996,10,0.000440502,-1.97347,0.909143,0.0648963,26.8675,0.04144033,
2,1,0,1,0,3673.57,0.0437375,0.0434133,10.6618,3,0.00217647,10,0.000462864,-1.97217,1.05205,0.0560812,23.366,0.0434133,
2,1,0,1,0,3673.58,0.0457351,0.0453879,10.722,3,0.00228327,10,0.000486651,-1.96972,0.903712,0.0652863,27.3047,0.0453879,
2,1,0,1,0,3673.59,0.0477327,0.0474225,10.7713,3,0.00239075,10,0.000510801,-1.96773,0.707742,0.0833637,35.1145,0.0474225,
2,1,0,1,0,3673.6,0.0497393,0.0494449,10.8645,3,0.00249889,10,0.000537193,-1.96399,0.647148,0.0911692,38.5966,0.0494449,
2,1,0,1,0,3673.61,0.0517369,0.0513909,10.9245,3,0.00260785,10,0.000561417,-1.9616,0.593482,0.0994133,42.4796,0.0513909,
2,1,0,1,0,3673.62,0.0537345,0.0534306,11.0338,3,0.00271762,10,0.000589543,-1.95727,0.509121,0.115886,49.8614,0.0534306,
2,1,0,1,0,3673.63,0.0557321,0.0554279,11.1257,3,0.00282843,10,0.000616676,-1.95367,0.498225,0.11842,51.4645,0.0554279,
2,1,0,1,0,3673.64,0.0577297,0.0574025,11.2382,3,0.00294025,10,0.000645102,-1.9493,0.437658,0.134809,59.156,0.0574025,
2,1,0,1,0,3673.65,0.0597364,0.0594371,11.3629,3,0.00305339,10,0.000675378,-1.94451,0.379062,0.155648,69.113,0.0594371,
2,1,0,1,0,3673.66,0.0617339,0.0614551,11.5183,3,0.0031678,10,0.000707859,-1.93861,0.373566,0.157937,70.9049,0.0614551,
2,1,0,1,0,3673.67,0.0637315,0.0634168,11.6451,3,0.00328365,10,0.000738494,-1.93386,0.358044,0.164784,75.0361,0.0634168,
2,1,0,1,0,3673.68,0.0657291,0.0654583,11.8187,3,0.00340098,10,0.000773631,-1.92743,0.312388,0.188868,87.1268,0.0654583,
2,1,0,1,0,3673.69,0.0677176,0.0674601,11.9974,3,0.00351893,10,0.000809344,-1.92091,0.317291,0.185949,87.0177,0.0674601,
2,1,0,1,0,3673.7,0.0697152,0.0694341,12.1647,3,0.00363976,10,0.000844641,-1.9149,0.315492,0.187009,88.8324,0.0694341,
2,1,0,1,0,3673.71,0.0717128,0.0713992,12.3473,3,0.00376238,10,0.000881588,-1.90843,0.291628,0.202313,97.5778,0.0713992,
2,1,0,1,0,3673.72,0.0737104,0.0734273,12.5543,3,0.00388687,10,0.000921828,-1.90121,0.282622,0.208759,102.25,0.0734273,
2,1,0,1,0,3673.73,0.0756989,0.0753915,12.7555,3,0.00401224,10,0.000961656,-1.8943,0.284203,0.207598,103.352,0.0753915,
2,1,0,1,0,3673.74,0.0776965,0.0773618,12.9609,3,0.00414077,10,0.00100268,-1.88736,0.271343,0.217437,110.09,0.0773618,
2,1,0,1,0,3673.75,0.0796941,0.0793712,13.1936,3,0.0042716,10,0.00104719,-1.87964,0.253821,0.232447,119.766,0.0793712,
2,1,0,1,0,3673.76,0.0816916,0.0814152,13.4464,3,0.00440479,10,0.00109474,-1.87139,0.255036,0.23134,121.301,0.0814152,
2,1,0,1,0,3673.77,0.0836983,0.0833804,13.6799,3,0.00454044,10,0.00114064,-1.86392,0.258969,0.227827,121.693,0.0833804,
2,1,0,1,0,3673.78,0.0856959,0.0853872,13.9298,3,0.0046785,10,0.00118942,-1.85606,0.267727,0.220374,119.698,0.0853872,
2,1,0,1,0,3673.79,0.0876935,0.0873731,14.1579,3,0.00481901,10,0.00123702,-1.849,0.275526,0.214136,118.376,0.0873731,
2,1,0,1,0,3673.8,0.0896911,0.0893807,14.4025,3,0.00496183,10,0.00128731,-1.84156,0.264333,0.223203,125.504,0.0893807,
2,1,0,1,0,3673.81,0.0916978,0.0913762,14.6603,3,0.00510721,10,0.0013396,-1.83386,0.263676,0.223759,127.993,0.0913762,
2,1,0,1,0,3673.82,0.0936953,0.0933795,14.9143,3,0.00525512,10,0.00139269,-1.8264,0.28611,0.206214,119.921,0.09337952,
2,1,0,1,0,3673.83,0.0956929,0.0954106,15.1441,3,0.0054055,10,0.00144491,-1.81976,0.288424,0.20456,120.981,0.0954106,
2,1,0,1,0,3673.84,0.0976905,0.097367,15.3967,3,0.00555822,10,0.00149914,-1.81257,0.27383,0.215462,129.475,0.097367,
2,1,0,1,0,3673.85,0.099679,0.0993471,15.6538,3,0.00571196,10,0.00155515,-1.80538,0.284566,0.207333,126.627,0.0993471,
2,1,0,1,0,3673.86,0.101677,0.101377,15.9046,3,0.00586978,10,0.00161237,-1.79848,0.305821,0.192923,119.68,0.101377,
2,1,0,1,0,3673.87,0.103674,0.103406,16.1396,3,0.00603006,10,0.00166893,-1.79211,0.296986,0.198662,125.238,0.1034063,
2,1,0,1,0,3673.88,0.105672,0.105367,16.4042,3,0.00619282,10,0.00172845,-1.78505,0.290671,0.202979,129.89,0.105367,
2,1,0,1,0,3673.89,0.107656,0.107389,16.6568,3,0.00635649,10,0.00178876,-1.77841,0.301756,0.195522,127.113,0.107389,
2,1,0,1,0,3673.9,0.109658,0.109386,16.9151,3,0.00652441,10,0.00185027,-1.77173,0.29118,0.202624,133.797,0.109386,
2,1,0,1,0,3673.91,0.111655,0.111339,17.1854,3,0.00669502,10,0.0019134,-1.76484,0.284734,0.207211,139.014,0.111339,
2,1,0,1,0,3673.92,0.113653,0.113366,17.4683,3,0.00686831,10,0.00198031,-1.75775,0.286291,0.206084,140.448,0.113366,
2,1,0,1,0,3673.93,0.115651,0.115308,17.7428,3,0.00704441,10,0.0020459,-1.75098,0.264657,0.22293,154.635,0.115308,
2,1,0,1,0,3673.94,0.117657,0.117337,18.0824,3,0.00722358,10,0.00212173,-1.74274,0.258332,0.228389,161.037,0.117337,
2,1,0,1,0,3673.95,0.119655,0.119359,18.3952,3,0.00740604,10,0.00219563,-1.7353,0.257996,0.228685,164.314,0.1193591,
2,1,0,1,0,3673.96,0.121652,0.121358,18.7431,3,0.00759172,10,0.00227463,-1.72716,0.24189,0.243912,178.462,0.121358,
2,1,0,1,0,3673.97,0.12365,0.123334,19.1046,3,0.00778101,10,0.00235626,-1.71886,0.224768,0.262493,196.007,0.123334,
2,1,0,1,0,3673.98,0.125657,0.125366,19.5288,3,0.00797424,10,0.00244825,-1.70932,0.218496,0.270028,205.643,0.125366,
2,1,0,1,0,3673.99,0.127654,0.127342,19.9287,3,0.00817159,10,0.00253776,-1.70052,0.211794,0.278572,216.968,0.127342,
2,1,0,1,0,3674,0.129652,0.129342,20.3913,3,0.00837321,10,0.00263745,-1.69055,0.204822,0.288054,229.205,0.129342,
2,1,0,1,0,3674.01,0.131649,0.131385,20.8554,3,0.00857954,10,0.00274009,-1.68078,0.197477,0.298769,243.418,0.131385,
2,1,0,1,0,3674.02,0.133638,0.133358,21.369,3,0.00878866,10,0.00284973,-1.67022,0.18944,0.311444,259.664,0.133358,
2,1,0,1,0,3674.03,0.135636,0.135328,21.8793,3,0.00900495,10,0.00296089,-1.65997,0.187468,0.31472,268.938,0.135328,
2,1,0,1,0,3674.04,0.137633,0.137309,22.4316,3,0.00922651,10,0.00308007,-1.64914,0.186925,0.315634,276.233,0.137309,
2,1,0,1,0,3674.05,0.139631,0.13931,22.9791,3,0.00945362,10,0.00320121,-1.63867,0.18997,0.310576,278.584,0.13931,
2,1,0,1,0,3674.06,0.141619,0.141307,23.5453,3,0.00968392,10,0.00332711,-1.6281,0.191562,0.307995,283.009,0.141307,
2,1,0,1,0,3674.07,0.143617,0.143339,24.1194,3,0.00992234,10,0.00345725,-1.61763,0.191517,0.308067,289.985,0.143339,
2,1,0,1,0,3674.08,0.145614,0.145299,24.7028,3,0.0101665,10,0.00358929,-1.60725,0.199307,0.296025,285.125,0.145299,
2,1,0,1,0,3674.09,0.147612,0.1473,25.249,3,0.0104163,10,0.00371918,-1.59776,0.206897,0.285166,281.194,0.1473,
2,1,0,1,0,3674.1,0.149619,0.149337,25.8385,3,0.0106718,10,0.00385866,-1.58773,0.2114,0.279092,281.084,0.149337,
2,1,0,1,0,3674.11,0.151616,0.151295,26.3717,3,0.010933,10,0.00398991,-1.57886,0.22885,0.25781,265.255,0.1512948,
2,1,0,1,0,3674.12,0.153614,0.153321,26.8951,3,0.0111994,10,0.00412357,-1.57033,0.244706,0.241105,252.935,0.153321,
2,1,0,1,0,3674.13,0.155611,0.155344,27.3959,3,0.011471,10,0.00425579,-1.56231,0.249079,0.236872,253.271,0.155344,
2,1,0,1,0,3674.14,0.157618,0.157311,27.9056,3,0.0117475,10,0.00438986,-1.55431,0.278449,0.211888,230.338,0.157311,
2,1,0,1,0,3674.15,0.159616,0.159348,28.3182,3,0.0120288,10,0.00451244,-1.54793,0.321005,0.183798,203.076,0.159348,
2,1,0,1,0,3674.16,0.161613,0.161322,28.7202,3,0.012314,10,0.00463319,-1.54181,0.364369,0.161924,181.207,0.1613217,
2,1,0,1,0,3674.17,0.163611,0.163301,29.0345,3,0.0126029,10,0.00474135,-1.53709,0.453721,0.130036,147.244,0.163301,
2,1,0,1,0,3674.18,0.165618,0.165328,29.3101,3,0.0128947,10,0.00484579,-1.53298,0.607744,0.0970804,110.844,0.165328,
2,1,0,1,0,3674.19,0.167597,0.167309,29.4788,3,0.0131858,10,0.00493206,-1.53049,0.970896,0.0607686,69.837,0.167309,
2,1,0,1,0,3674.2,0.169595,0.169258,29.5845,3,0.0134812,10,0.0050074,-1.52894,7.44741,0.00792222,9.11982,0.169258,
2,1,0,1,0,3674.21,0.171592,0.17128,29.515,3,0.0137768,10,0.00505532,-1.52996,-1.06969,-0.0551564,-63.4071,0.17128,
2,1,0,1,0,3674.22,0.173572,0.173295,29.3285,3,0.0140681,10,0.00508249,-1.53271,-0.494211,-0.119382,-136.239,0.1732955,
2,1,0,1,0,3674.23,0.175578,0.175284,28.9695,3,0.0143598,10,0.00507788,-1.53806,-0.293024,-0.201349,-226.92,0.175284,
2,1,0,1,0,3674.24,0.177576,0.17725,28.4311,3,0.0146469,10,0.00503942,-1.54621,-0.198919,-0.296603,-327.721,0.17725,
2,1,0,1,0,3674.25,0.179573,0.179268,27.6638,3,0.0149274,10,0.00495924,-1.55809,-0.148182,-0.398159,-428.363,0.179268,
2,1,0,1,0,3674.26,0.181571,0.181243,26.7208,3,0.0151994,10,0.00484295,-1.57315,-0.118159,-0.499328,-518.53,0.181243,
2,1,0,1,0,3674.27,0.183578,0.183285,25.5809,3,0.0154609,10,0.00468859,-1.59208,-0.0960331,-0.614371,-610.659,0.183285,
2,1,0,1,0,3674.28,0.185575,0.185279,24.2561,3,0.0157101,10,0.00449414,-1.61518,-0.0785023,-0.75157,-708.698,0.185279,
2,1,0,1,0,3674.29,0.187573,0.187215,22.7961,3,0.0159452,10,0.00426776,-1.64214,-0.0704715,-0.837218,-742.9,0.187215,
2,1,0,1,0,3674.3,0.18957,0.189282,21.2822,3,0.0161655,10,0.00402833,-1.67198,-0.0642943,-0.917656,-759.98,0.189282,
2,1,0,1,0,3674.31,0.191577,0.191263,19.7195,3,0.0163703,10,0.00377161,-1.7051,-0.0592837,-0.995215,-765.722,0.191263,
2,1,0,1,0,3674.32,0.193575,0.193273,18.2262,3,0.0165598,10,0.00352263,-1.7393,-0.0574912,-1.02624,-729.604,0.193273,
2,1,0,1,0,3674.33,0.195572,0.195275,16.7925,3,0.0167347,10,0.00327915,-1.77488,-0.0569342,-1.03628,-680.545,0.195275,
2,1,0,1,0,3674.34,0.19757,0.197276,15.5019,3,0.0168959,10,0.00305815,-1.80962,-0.0591567,-0.997351,-605.407,0.197276,
2,1,0,1,0,3674.35,0.199558,0.199264,14.3775,3,0.0170436,10,0.00286491,-1.84232,-0.0640562,-0.921066,-518.887,0.199264,
2,1,0,1,0,3674.36,0.201556,0.201292,13.4183,3,0.0171823,10,0.00270099,-1.8723,-0.0689321,-0.855914,-449.72,0.201292,
2,1,0,1,0,3674.37,0.203553,0.203242,12.5885,3,0.0173121,10,0.0025585,-1.90003,-0.077582,-0.760486,-375.64,0.203242,
2,1,0,1,0,3674.38,0.205551,0.205269,11.9243,3,0.0174343,10,0.00244768,-1.92357,-0.0941217,-0.626848,-293.281,0.205269,
2,1,0,1,0,3674.39,0.20754,0.207268,11.4075,3,0.0175497,10,0.00236442,-1.94281,-0.110132,-0.53572,-239.283,0.207268,
2,1,0,1,0,3674.4,0.209537,0.209221,10.9785,3,0.0176614,10,0.00229694,-1.95946,-0.124883,-0.472443,-202.765,0.209221,
2,1,0,1,0,3674.41,0.211535,0.211267,10.5967,3,0.0177692,10,0.00223874,-1.97483,-0.154982,-0.380689,-158.286,0.211267,
2,1,0,1,0,3674.42,0.213532,0.213283,10.3357,3,0.0178738,10,0.00220442,-1.98566,-0.193347,-0.305151,-123.266,0.213283,
2,1,0,1,0,3674.43,0.215539,0.21523,10.1082,3,0.017976,10,0.00217559,-1.99533,-0.212971,-0.277033,-109.409,0.21523,
2,1,0,1,0,3674.44,0.217537,0.217208,9.90624,3,0.0180759,10,0.00215171,-2.00409,-0.244245,-0.24156,-93.5131,0.217208,
2,1,0,1,0,3674.45,0.219534,0.219244,9.73288,3,0.0181741,10,0.00213387,-2.01176,-0.292894,-0.201438,-76.6553,0.219244,
2,1,0,1,0,3674.46,0.221532,0.221244,9.59685,3,0.0182707,10,0.00212324,-2.01787,-0.321056,-0.183768,-68.811,0.221244,
2,1,0,1,0,3674.47,0.223534,0.223246,9.45748,3,0.018366,10,0.00211135,-2.02422,-0.378024,-0.156075,-57.7447,0.223246,
2,1,0,1,0,3674.48,0.225536,0.225269,9.36444,3,0.0184601,10,0.00210951,-2.02852,-0.397647,-0.148373,-54.1354,0.225269,
2,1,0,1,0,3674.49,0.227534,0.22724,9.24128,3,0.0185531,10,0.00209999,-2.03427,-0.376244,-0.156813,-56.6264,0.22724,
2,1,0,1,0,3674.5,0.229531,0.229196,9.14203,3,0.0186451,10,0.00209532,-2.03896,-0.428136,-0.137807,-49.1689,0.229196,
2,1,0,1,0,3674.51,0.231529,0.231251,9.04407,3,0.018736,10,0.00209145,-2.04364,-0.535962,-0.110083,-38.9401,0.231251,
2,1,0,1,0,3674.52,0.233517,0.233198,8.98621,3,0.0188253,10,0.00209556,-2.04642,-0.509499,-0.1158,-40.511,0.233198,
2,1,0,1,0,3674.53,0.235515,0.235193,8.88436,3,0.0189147,10,0.00208954,-2.05137,-0.47475,-0.124276,-43.1591,0.2351931,
2,1,0,1,0,3674.54,0.237513,0.237244,8.81157,3,0.0190031,10,0.00209049,-2.05495,-0.549991,-0.107274,-36.8831,0.237244,
2,1,0,1,0,3674.55,0.23951,0.239224,8.7357,3,0.0190909,10,0.00208979,-2.0587,-0.720798,-0.0818537,-27.9703,0.239224,
2,1,0,1,0,3674.56,0.241499,0.241225,8.70024,3,0.0191771,10,0.00209871,-2.06047,-0.588547,-0.100247,-33.9151,0.241225,
2,1,0,1,0,3674.57,0.243496,0.243159,8.60222,3,0.0192636,10,0.00209171,-2.06539,-0.588052,-0.100331,-33.8042,0.243159,
2,1,0,1,0,3674.58,0.245494,0.245181,8.5665,3,0.0193494,10,0.00210034,-2.0672,-0.691934,-0.0852683,-28.4364,0.245181,
2,1,0,1,0,3674.59,0.247491,0.247159,8.48848,3,0.0194347,10,0.00209801,-2.07117,-0.725792,-0.0812906,-27.0057,0.247159,
2,1,0,1,0,3674.6,0.249498,0.249179,8.45853,3,0.0195195,10,0.00210769,-2.07271,-0.853149,-0.0691556,-22.7842,0.249179,
2,1,0,1,0,3674.61,0.251496,0.251236,8.39559,3,0.0196037,10,0.00210927,-2.07595,-0.780007,-0.0756404,-24.8231,0.251236,
2,1,0,1,0,3674.62,0.253493,0.253171,8.35944,3,0.0196875,10,0.00211637,-2.07782,-0.712447,-0.0828131,-26.9615,0.253171,
2,1,0,1,0,3674.63,0.255491,0.255188,8.28904,3,0.0197707,10,0.00211526,-2.0815,-0.834702,-0.0706839,-22.9314,0.2551879,
2,1,0,1,0,3674.64,0.257497,0.257233,8.26629,3,0.0198535,10,0.00212636,-2.08269,-1.18867,-0.0496353,-15.9942,0.257233,
2,1,0,1,0,3674.65,0.259495,0.259221,8.22454,3,0.019936,10,0.00213197,-2.08489,-0.888407,-0.066411,-21.3137,0.259221,
2,1,0,1,0,3674.66,0.261493,0.261244,8.1808,3,0.020018,10,0.00213718,-2.0872,-0.791316,-0.0745593,-23.7944,0.261244,
2,1,0,1,0,3674.67,0.26349,0.263186,8.13018,3,0.0200996,10,0.00213975,-2.0899,-1.21523,-0.0485507,-15.4434,0.263186,
2,1,0,1,0,3674.68,0.265479,0.265164,8.12026,3,0.02018,10,0.0021532,-2.09043,-1.24619,-0.0473444,-14.9663,0.265164,
2,1,0,1,0,3674.69,0.267476,0.267222,8.06979,3,0.0202609,10,0.00215642,-2.09314,-0.83522,-0.0706401,-22.2633,0.2672216,
2,1,0,1,0,3674.7,0.269474,0.269169,8.03111,3,0.0203414,10,0.00216172,-2.09522,-1.01999,-0.0578439,-18.1362,0.269169,
2,1,0,1,0,3674.71,0.271471,0.271174,7.9981,3,0.0204215,10,0.00216888,-2.09701,-2.08561,-0.0282891,-8.84701,0.271174,
2,1,0,1,0,3674.72,0.27346,0.27318,7.99561,3,0.0205005,10,0.00218424,-2.09715,-1.02281,-0.0576843,-17.9245,0.27318,
2,1,0,1,0,3674.73,0.275458,0.275187,7.92617,3,0.0205801,10,0.00218118,-2.10094,-0.867029,-0.0680485,-21.1238,0.2751871,
2,1,0,1,0,3674.74,0.277455,0.277106,7.91268,3,0.0206593,10,0.00219265,-2.10168,-1.18753,-0.0496831,-15.3092,0.2771062,
2,1,0,1,0,3674.75,0.279453,0.279186,7.86495,3,0.0207382,10,0.00219578,-2.1043,-1.0863,-0.0543127,-16.7004,0.279186,
2,1,0,1,0,3674.76,0.281455,0.281153,7.84511,3,0.0208167,10,0.00220567,-2.1054,-1.36344,-0.043273,-13.2379,0.2811527,
2,1,0,1,0,3674.77,0.283457,0.283159,7.81235,3,0.020895,10,0.00221214,-2.10722,-1.29173,-0.045675,-13.9343,0.283159,
2,1,0,1,0,3674.78,0.285455,0.285172,7.78911,3,0.020973,10,0.00222123,-2.10851,-0.962886,-0.0612741,-18.5928,0.285172,
2,1,0,1,0,3674.79,0.287452,0.287163,7.73792,3,0.0210507,10,0.00222204,-2.11138,-1.13999,-0.0517547,-15.6689,0.287163,
2,1,0,1,0,3674.8,0.28945,0.289192,7.72611,3,0.021128,10,0.00223433,-2.11204,-2.02526,-0.029132,-8.77737,0.289192,
2,1,0,1,0,3674.81,0.291456,0.291191,7.70256,3,0.0212052,10,0.00224292,-2.11336,-1.10441,-0.0534222,-16.0421,0.291191,
2,1,0,1,0,3674.82,0.293454,0.293138,7.66281,3,0.0212821,10,0.00224626,-2.11561,-1.11168,-0.0530729,-15.8881,0.293138,
2,1,0,1,0,3674.83,0.295452,0.295193,7.63897,3,0.0213586,10,0.00225497,-2.11696,-1.86017,-0.0317176,-9.46168,0.2951932,
2,1,0,1,0,3674.84,0.297449,0.29717,7.62466,3,0.0214349,10,0.00226582,-2.11778,-1.65535,-0.0356419,-10.5966,0.29717,
2,1,0,1,0,3674.84,0.299438,0.299149,7.59706,3,0.0215104,10,0.00227265,-2.11935,-0.0435209,-1.35567,-379.381,0.2991491,
2,1,0,1,0,3674.85,0.299746,0.299515,6.73499,3,0.0215419,10,0.00201723,-2.17166,0.00287267,20.5384,3385.06,0.299515,
2,1,0,1,0,3674.86,0.29774,0.297506,2.03588,3,0.0215827,10,0.000605687,-2.69125,0.00334511,17.6377,1769.31,0.297506,
2,0,0,1,0,3674.87,0.295742,0.295473,-0.416832,3,0.0215893,10,-0.000123162,-3.38004,0.0556292,1.06059,918.464,0.295473,
2,0,0,1,0,3674.88,0.293745,0.293418,-1.71895,3,0.0215779,10,-0.00050437,-2.76474,-0.00520257,-11.3406,508.743,0.293418,
2,0,0,1,0,3674.89,0.291747,0.291466,-2.45516,3,0.0215566,10,-0.000715594,-2.60992,-0.0174439,-3.38227,298.146,0.291466,
2,0,0,1,0,3674.9,0.289745,0.289453,-2.90109,3,0.0215296,10,-0.000839728,-2.53744,-0.0353001,-1.67138,183.206,0.289453,
2,0,0,1,0,3674.91,0.287743,0.28743,-3.1946,3,0.021499,10,-0.000918223,-2.49558,-0.061844,-0.954013,116.409,0.28743,
2,0,0,1,0,3674.92,0.285745,0.285481,-3.36345,3,0.0214661,10,-0.000960202,-2.47321,-0.0911852,-0.647035,84.8533,0.285481,
2,0,0,1,0,3674.93,0.283748,0.283458,-3.53162,3,0.0214315,10,-0.00100107,-2.45203,-0.11035,-0.534662,73.2264,0.283458,
2,0,0,1,0,3674.94,0.28175,0.28144,-3.65938,3,0.0213955,10,-0.0010299,-2.43659,-0.13647,-0.43233,61.6177,0.28144,
2,0,0,1,0,3674.95,0.279761,0.279508,-3.775,3,0.0213586,10,-0.00105514,-2.42308,-0.165004,-0.357567,52.5028,0.279508,
2,0,0,1,0,3674.96,0.277764,0.27748,-3.86727,3,0.0213204,10,-0.00107309,-2.4126,-0.179673,-0.328374,49.6558,0.27748,
2,0,0,1,0,3674.97,0.275766,0.275458,-3.97613,3,0.0212811,10,-0.00109526,-2.40054,-0.206458,-0.285772,44.1097,0.275458,
2,0,0,1,0,3674.98,0.273769,0.273471,-4.04412,3,0.0212409,10,-0.00110595,-2.39318,-0.201381,-0.292977,46.526,0.273471,
2,0,0,1,0,3674.99,0.27178,0.27143,-4.16351,3,0.0212002,10,-0.0011301,-2.38054,-0.19602,-0.300989,48.6383,0.27143,
2,0,0,1,0,3675,0.269783,0.269472,-4.23862,3,0.0211582,10,-0.00114219,-2.37278,-0.233218,-0.252982,41.9114,0.269472,
2,0,0,1,0,3675.01,0.267785,0.267516,-4.32758,3,0.0211153,10,-0.00115769,-2.36376,-0.268993,-0.219337,36.9092,0.267516,
2,0,0,1,0,3675.02,0.265787,0.265483,-4.38586,3,0.0210718,10,-0.00116437,-2.35795,-0.251191,-0.234881,40.4081,0.2654829,
2,0,0,1,0,3675.03,0.263781,0.263503,-4.48972,3,0.0210273,10,-0.00118305,-2.34778,-0.255386,-0.231023,40.2753,0.263503,
2,0,0,1,0,3675.04,0.261783,0.261427,-4.54922,3,0.0209821,10,-0.00118929,-2.34206,-0.304256,-0.193916,34.4961,0.261427,
2,0,0,1,0,3675.05,0.259786,0.259513,-4.62736,3,0.0209362,10,-0.00120086,-2.33467,-0.29234,-0.20182,36.3909,0.259513,
2,0,0,1,0,3675.06,0.257788,0.257503,-4.69202,3,0.0208896,10,-0.00120821,-2.32864,-0.260838,-0.226194,41.5822,0.257503,
2,0,0,1,0,3675.07,0.255781,0.255493,-4.79451,3,0.0208421,10,-0.00122496,-2.31926,-0.31312,-0.188426,35.0189,0.255493,
2,0,0,1,0,3675.08,0.253784,0.253481,-4.83284,3,0.0207941,10,-0.00122504,-2.3158,-0.3694,-0.159718,30.2638,0.253481,
2,0,0,1,0,3675.09,0.251786,0.251467,-4.91637,3,0.0207453,10,-0.0012363,-2.30836,-0.328661,-0.179516,34.3377,0.251467,
2,0,0,1,0,3675.1,0.249789,0.249481,-4.97021,3,0.0206959,10,-0.00123997,-2.30362,-0.327002,-0.180427,35.1099,0.249481,
2,0,0,1,0,3675.11,0.2478,0.247473,-5.05657,3,0.0206462,10,-0.00125137,-2.29614,-0.329751,-0.178923,35.1945,0.247473,
2,0,0,1,0,3675.12,0.245802,0.245487,-5.11078,3,0.0205954,10,-0.00125463,-2.29151,-0.362883,-0.162587,32.4975,0.245487,
2,0,0,1,0,3675.13,0.243805,0.243457,-5.18709,3,0.0205439,10,-0.00126283,-2.28508,-0.398331,-0.148118,29.8842,0.243457,
2,0,0,1,0,3675.14,0.241807,0.241525,-5.22919,3,0.0204918,10,-0.00126298,-2.28157,-0.338094,-0.174508,35.8029,0.241525,
2,0,0,1,0,3675.15,0.239819,0.239534,-5.32756,3,0.0204396,10,-0.00127613,-2.27347,-0.33121,-0.178135,36.8683,0.239534,
2,0,0,1,0,3675.16,0.237821,0.237489,-5.37798,3,0.0203861,10,-0.00127721,-2.26938,-0.417667,-0.141261,29.6997,0.237489,
2,0,0,1,0,3675.17,0.235824,0.235499,-5.44738,3,0.0203318,10,-0.00128285,-2.26381,-0.411012,-0.143548,30.4651,0.235499,
2,0,0,1,0,3675.18,0.233826,0.233533,-5.49851,3,0.0202772,10,-0.00128408,-2.25975,-0.341065,-0.172988,37.2721,0.2335325,
2,0,0,1,0,3675.19,0.231824,0.23154,-5.59497,3,0.0202217,10,-0.00129546,-2.2522,-0.348263,-0.169412,36.8376,0.23154,
2,0,0,1,0,3675.2,0.229822,0.229544,-5.64543,3,0.0201655,10,-0.00129588,-2.2483,-0.395358,-0.149232,32.9694,0.2295441,
2,0,0,1,0,3675.21,0.227824,0.227524,-5.72735,3,0.0201086,10,-0.00130311,-2.24205,-0.39185,-0.150568,33.5654,0.2275243,
2,0,0,1,0,3675.22,0.225827,0.225557,-5.77928,3,0.0200511,10,-0.00130355,-2.23813,-0.362162,-0.162911,36.8852,0.2255566,
2,0,0,1,0,3675.23,0.223829,0.223487,-5.87626,3,0.0199928,10,-0.00131327,-2.2309,-0.359118,-0.164291,37.5441,0.223487,
2,0,0,1,0,3675.24,0.221822,0.221479,-5.93237,3,0.0199337,10,-0.00131389,-2.22677,-0.381106,-0.154813,35.9229,0.221479,
2,0,0,1,0,3675.25,0.219825,0.219607,-6.01563,3,0.019874,10,-0.00132108,-2.22072,-0.342739,-0.172143,40.3922,0.219607,
2,0,0,1,0,3675.26,0.217827,0.2175,-6.09308,3,0.0198134,10,-0.00132525,-2.21516,-0.368118,-0.160275,38.1105,0.2175,
2,0,0,1,0,3675.27,0.21583,0.215541,-6.17061,3,0.019752,10,-0.00133002,-2.20967,-0.330487,-0.178524,43.036,0.215541,
2,0,0,1,0,3675.28,0.213841,0.213587,-6.26148,3,0.0196905,10,-0.00133737,-2.20332,-0.315787,-0.186835,45.6549,0.213587,
2,0,0,1,0,3675.29,0.211844,0.211548,-6.35291,3,0.0196274,10,-0.00134395,-2.19703,-0.359888,-0.16394,40.582,0.211548,
2,0,0,1,0,3675.3,0.209846,0.209559,-6.42496,3,0.0195635,10,-0.00134641,-2.19213,-0.336238,-0.175471,44.1078,0.209559,
2,0,0,1,0,3675.31,0.207848,0.20754,-6.52968,3,0.0194987,10,-0.00135517,-2.18511,-0.26282,-0.224488,57.2871,0.20754,
2,0,0,1,0,3675.32,0.20586,0.20556,-6.65404,3,0.0194335,10,-0.0013678,-2.17691,-0.262372,-0.224872,58.326,0.20556,
2,0,0,1,0,3675.33,0.203862,0.203526,-6.76379,3,0.0193664,10,-0.00137661,-2.16981,-0.334074,-0.176608,46.5016,0.203526,
2,0,0,1,0,3675.34,0.201865,0.201553,-6.84035,3,0.0192985,10,-0.0013787,-2.16492,-0.299066,-0.197281,52.8766,0.201553,
2,0,0,1,0,3675.35,0.199867,0.199574,-6.97276,3,0.0192294,10,-0.00139158,-2.1566,-0.253764,-0.2325,63.2037,0.199574,
2,0,0,1,0,3675.36,0.19786,0.197567,-7.09232,3,0.019159,10,-0.00140121,-2.14921,-0.256933,-0.229632,63.6215,0.197567,
2,0,0,1,0,3675.37,0.195863,0.195576,-7.22711,3,0.0190874,10,-0.00141345,-2.14104,-0.249402,-0.236566,66.7159,0.195576,
2,0,0,1,0,3675.38,0.193865,0.193526,-7.36188,3,0.0190145,10,-0.00142472,-2.13301,-0.225896,-0.261183,75.1785,0.193526,
2,0,0,1,0,3675.39,0.191868,0.191605,-7.52572,3,0.01894,10,-0.00144196,-2.12345,-0.213768,-0.276,81.0029,0.191605,
2,0,0,1,0,3675.4,0.189861,0.18959,-7.68074,3,0.018864,10,-0.00145619,-2.1146,-0.215485,-0.273801,82.19,0.18959,
2,0,0,1,0,3675.41,0.187863,0.187537,-7.86001,3,0.0187863,10,-0.00147404,-2.10458,-0.208867,-0.282477,86.5913,0.187537,
2,0,0,1,0,3675.42,0.185866,0.185543,-8.0312,3,0.0187068,10,-0.00149013,-2.09522,-0.195598,-0.301638,94.7195,0.185543,
2,0,0,1,0,3675.43,0.183868,0.183576,-8.23524,3,0.0186254,10,-0.00151179,-2.08432,-0.175191,-0.336776,108.363,0.183576,
2,0,0,1,0,3675.44,0.18188,0.181566,-8.46207,3,0.0185428,10,-0.00153643,-2.07252,-0.167096,-0.353091,116.663,0.181566,
2,0,0,1,0,3675.45,0.179882,0.179582,-8.70114,3,0.018457,10,-0.00156257,-2.06042,-0.169161,-0.348779,118.343,0.179582,
2,0,0,1,0,3675.46,0.177885,0.177609,-8.93041,3,0.0183688,10,-0.00158612,-2.04913,-0.160515,-0.367567,128.454,0.177609,
2,0,0,1,0,3675.47,0.175887,0.175598,-9.21296,3,0.0182781,10,-0.00161778,-2.0356,-0.150683,-0.391549,140.725,0.175598,
2,0,0,1,0,3675.48,0.173908,0.173606,-9.49372,3,0.0181856,10,-0.00164817,-2.02256,-0.139125,-0.424078,157.631,0.173606,
2,0,0,1,0,3675.49,0.171901,0.171604,-9.84255,3,0.0180888,10,-0.00168902,-2.00689,-0.134813,-0.437642,167.782,0.171604,
2,0,0,1,0,3675.5,0.169903,0.169631,-10.1607,3,0.0179888,10,-0.00172357,-1.99308,-0.131977,-0.447048,177.885,0.169631,
2,0,0,1,0,3675.51,0.167906,0.167585,-10.5574,3,0.0178852,10,-0.00176926,-1.97644,-0.123813,-0.476526,196.18,0.167585,
2,0,0,1,0,3675.52,0.165908,0.165624,-10.9467,3,0.0177777,10,-0.00181304,-1.96072,-0.120673,-0.488925,209.326,0.165624,
2,0,0,1,0,3675.53,0.163901,0.16359,-11.3937,3,0.0176659,10,-0.0018639,-1.94333,-0.115386,-0.511328,227.378,0.16359,
2,0,0,1,0,3675.54,0.161904,0.161635,-11.8538,3,0.0175496,10,-0.00191599,-1.92614,-0.110141,-0.535676,248.414,0.161635,
2,0,0,1,0,3675.55,0.159906,0.159599,-12.3852,3,0.0174283,10,-0.00197665,-1.9071,-0.106679,-0.55306,267.226,0.159599,
2,0,0,1,0,3675.56,0.157909,0.157634,-12.9228,3,0.0173018,10,-0.00203708,-1.88864,-0.102961,-0.573034,289.701,0.157634,
2,0,0,1,0,3675.57,0.155902,0.155612,-13.5401,3,0.0171693,10,-0.002107,-1.86838,-0.100061,-0.58964,311.477,0.155612,
2,0,0,1,0,3675.58,0.153904,0.153639,-14.1673,3,0.0170307,10,-0.00217665,-1.84871,-0.101176,-0.583141,322.617,0.153639,
2,0,0,1,0,3675.59,0.151907,0.15161,-14.8313,3,0.0168856,10,-0.00224857,-1.82882,-0.10071,-0.585841,339.081,0.15161,
2,0,0,1,0,3675.6,0.149909,0.149666,-15.5144,3,0.0167338,10,-0.00232198,-1.80927,-0.0990879,-0.595431,361.045,0.149666,
2,0,0,1,0,3675.61,0.147921,0.14764,-16.2647,3,0.0165764,10,-0.00240131,-1.78875,-0.101869,-0.579177,367.137,0.14764,
2,0,0,1,0,3675.62,0.145923,0.145639,-16.9931,3,0.0164101,10,-0.00247485,-1.76973,-0.104288,-0.565739,375.412,0.145639,
2,0,0,1,0,3675.63,0.143926,0.143647,-17.7635,3,0.0162362,10,-0.00255168,-1.75047,-0.105993,-0.556641,385.409,0.143647,
2,0,0,1,0,3675.64,0.141928,0.1417,-18.511,3,0.0160549,10,-0.00262301,-1.73257,-0.106896,-0.551939,399.492,0.1417,
2,0,0,1,0,3675.65,0.139939,0.139672,-19.3514,3,0.0158675,10,-0.00270286,-1.71329,-0.112529,-0.52431,394.97,0.139672,
2,0,0,1,0,3675.66,0.137942,0.137636,-20.1162,3,0.01567,10,-0.00276871,-1.69645,-0.116703,-0.505557,397.182,0.137636,
2,0,0,1,0,3675.67,0.135944,0.135697,-20.9304,3,0.0154646,10,-0.00284019,-1.67922,-0.120183,-0.49092,400.313,0.135697,
2,0,0,1,0,3675.68,0.133947,0.1337,-21.692,3,0.0152514,10,-0.00290021,-1.6637,-0.130506,-0.452086,382.689,0.1337,
2,0,0,1,0,3675.69,0.13194,0.131679,-22.4679,3,0.0150305,10,-0.00295856,-1.64844,-0.138888,-0.424803,371.892,0.1316791,
2,0,0,1,0,3675.7,0.129942,0.129676,-23.1884,3,0.0148021,10,-0.00300698,-1.63473,-0.14794,-0.398811,360.742,0.129676,
2,0,0,1,0,3675.71,0.127945,0.127705,-23.9017,3,0.0145665,10,-0.00305236,-1.62157,-0.162566,-0.362931,337.986,0.127705,
2,0,0,1,0,3675.72,0.125947,0.12565,-24.5491,3,0.0143242,10,-0.00308459,-1.60996,-0.171322,-0.344381,330.043,0.12565,
2,0,0,1,0,3675.73,0.123941,0.123701,-25.2232,3,0.0140753,10,-0.00312013,-1.5982,-0.182482,-0.32332,317.681,0.1237006,
2,0,0,1,0,3675.74,0.121943,0.121667,-25.8144,3,0.01382,10,-0.00314076,-1.58814,-0.211307,-0.279215,280.973,0.121667,
2,0,0,1,0,3675.75,0.119945,0.119674,-26.3546,3,0.013559,10,-0.00315396,-1.57914,-0.241041,-0.244771,251.423,0.119674,
2,0,0,1,0,3675.76,0.117948,0.117621,-26.8316,3,0.013293,10,-0.00315597,-1.57135,-0.269049,-0.219291,229.473,0.117621,
2,0,0,1,0,3675.77,0.115946,0.115654,-27.277,3,0.0130223,10,-0.0031547,-1.5642,-0.318814,-0.185061,196.572,0.115654,
2,0,0,1,0,3675.78,0.113962,0.113679,-27.6065,3,0.0127505,10,-0.00313829,-1.55899,-0.405471,-0.14551,156.661,0.113679,
2,0,0,1,0,3675.79,0.111964,0.111681,-27.8995,3,0.0124728,10,-0.00311583,-1.5544,-0.527909,-0.111762,121.477,0.111681,
2,0,0,1,0,3675.8,0.109967,0.109646,-28.0964,3,0.0121927,10,-0.00308067,-1.55135,-0.810973,-0.0727521,79.6711,0.109646,
2,0,0,1,0,3675.81,0.107969,0.107637,-28.2216,3,0.011911,10,-0.0030377,-1.54942,-1.74301,-0.0338496,37.2136,0.107637,
2,0,0,1,0,3675.82,0.10598,0.105693,-28.2435,3,0.0116315,10,-0.00298515,-1.54908,10.104,0.00583929,-6.4285,0.105693,
2,0,0,1,0,3675.83,0.103983,0.103672,-28.1961,3,0.0113492,10,-0.00292315,-1.54981,1.16452,0.0506648,-55.6252,0.103672,
2,0,0,1,0,3675.84,0.101985,0.101691,-28.0209,3,0.0110681,10,-0.00284948,-1.55252,0.57971,0.101775,-111.114,0.101691,
2,0,0,1,0,3675.85,0.0999877,0.0996948,-27.7542,3,0.0107892,10,-0.00276695,-1.55667,0.406075,0.145293,-157.099,0.0996948,
2,0,0,1,0,3675.86,0.0979811,0.0976898,-27.3923,3,0.0105134,10,-0.00267595,-1.56237,0.31313,0.18842,-201.102,0.0976898,
2,0,0,1,0,3675.87,0.0959835,0.0956752,-26.9459,3,0.0102416,10,-0.00257805,-1.56951,0.246633,0.239222,-251.029,0.0956752,
2,0,0,1,0,3675.88,0.0939859,0.0936971,-26.39,3,0.00997492,10,-0.00247266,-1.57856,0.210985,0.27964,-287.797,0.0936971,
2,0,0,1,0,3675.89,0.0919883,0.0917077,-25.804,3,0.00971397,10,-0.00236643,-1.58831,0.194144,0.303898,-305.663,0.0917077,
2,0,0,1,0,3675.9,0.0899816,0.0896861,-25.164,3,0.00945919,10,-0.00225686,-1.59922,0.17574,0.335724,-329.305,0.0896861,
2,0,0,1,0,3675.91,0.087984,0.0876707,-24.4746,3,0.00921101,10,-0.00214571,-1.61128,0.162177,0.363801,-347.313,0.0876707,
2,0,0,1,0,3675.92,0.0859865,0.0856821,-23.7734,3,0.00896987,10,-0.00203695,-1.62391,0.157837,0.373805,-346.927,0.0856821,
2,0,0,1,0,3675.93,0.0839889,0.0837101,-23.1006,3,0.00873552,10,-0.00193375,-1.63638,0.157948,0.373541,-336.756,0.0837101,
2,0,0,1,0,3675.94,0.0820004,0.0817215,-22.4396,3,0.00851018,10,-0.0018338,-1.64899,0.161873,0.364484,-319.439,0.0817215,
2,0,0,1,0,3675.95,0.0800028,0.0797165,-21.8249,3,0.00828893,10,-0.00173981,-1.66105,0.167056,0.353175,-300.882,0.0797165,
2,0,0,1,0,3675.96,0.0780052,0.0777028,-21.2304,3,0.0080738,10,-0.00164967,-1.67304,0.174669,0.337782,-280.226,0.0777028,
2,0,0,1,0,3675.97,0.0760076,0.0757011,-20.6996,3,0.00786424,10,-0.00156698,-1.68404,0.184077,0.320517,-259.04,0.07570105,
2,0,0,1,0,3675.98,0.0740191,0.0737074,-20.1955,3,0.00766201,10,-0.00148856,-1.69475,0.192565,0.30639,-241.779,0.0737074,
2,0,0,1,0,3675.99,0.0720215,0.071764,-19.7478,3,0.00746238,10,-0.00141718,-1.70448,0.201943,0.292161,-225.148,0.071764,
2,0,0,1,0,3676,0.0700239,0.069746,-19.3036,3,0.0072672,10,-0.00134634,-1.71436,0.21542,0.273883,-206.584,0.06974595,
2,0,0,1,0,3676.01,0.0680263,0.067721,-18.9125,3,0.0070762,10,-0.00128077,-1.72325,0.236042,0.249955,-184.63,0.067721,
2,0,0,1,0,3676.02,0.0660197,0.0656916,-18.555,3,0.00688904,10,-0.00121891,-1.73154,0.239337,0.246514,-178.51,0.0656916,
2,0,0,1,0,3676.03,0.0640221,0.0637387,-18.2016,3,0.00670529,10,-0.00116015,-1.73989,0.231559,0.254795,-180.893,0.0637387,
2,0,0,1,0,3676.04,0.0620245,0.0616989,-17.8327,3,0.00652517,10,-0.00110026,-1.74878,0.238355,0.247529,-172.493,0.06169891,
2,0,0,1,0,3676.05,0.0600269,0.0597546,-17.5144,3,0.00634845,10,-0.00104657,-1.7566,0.246529,0.239323,-163.466,0.05975461,
2,0,0,1,0,3676.06,0.0580248,0.0576732,-17.1747,3,0.00617508,10,-0.000990519,-1.76511,0.236381,0.249597,-167.303,0.0576732,
2,0,0,1,0,3676.07,0.0560227,0.0557254,-16.8403,3,0.0060049,10,-0.000938435,-1.77365,0.228965,0.257681,-169.328,0.0557254,
2,0,0,1,0,3676.08,0.0540251,0.0537187,-16.5051,3,0.00583821,10,-0.000886631,-1.78238,0.233351,0.252838,-162.915,0.0537187,
2,0,0,1,0,3676.09,0.0520275,0.0517006,-16.1846,3,0.00567476,10,-0.000836755,-1.7909,0.215229,0.274127,-172.835,0.0517006,
2,0,0,1,0,3676.1,0.0500299,0.0497008,-15.8106,3,0.00551479,10,-0.000785801,-1.80105,0.211925,0.2784,-172.1,0.0497008,
2,0,0,1,0,3676.11,0.0480414,0.0477214,-15.4998,3,0.00535978,10,-0.000739673,-1.80967,0.211043,0.279564,-168.828,0.0477214,
2,0,0,1,0,3676.12,0.0460438,0.0457403,-15.142,3,0.00520666,10,-0.0006926,-1.81982,0.199506,0.29573,-174.87,0.0457403,
2,0,0,1,0,3676.13,0.0440462,0.043768,-14.8085,3,0.00505693,10,-0.000648137,-1.82949,0.199411,0.295871,-170.862,0.043768,
2,0,0,1,0,3676.14,0.0420486,0.0417352,-14.4577,3,0.00491073,10,-0.000603393,-1.8399,0.212274,0.277943,-157.2,0.0417352,
2,0,0,1,0,3676.15,0.0400601,0.0397719,-14.1803,3,0.004769,10,-0.000563977,-1.84831,0.217676,0.271044,-149.749,0.0397719,
2,0,0,1,0,3676.16,0.0380625,0.0377426,-13.8598,3,0.0046289,10,-0.000523104,-1.85824,0.214772,0.27471,-148.812,0.0377426,
2,0,0,1,0,3676.17,0.036065,0.0357697,-13.5847,3,0.00449175,10,-0.00048592,-1.86695,0.227586,0.259242,-137.466,0.03576966,
2,0,0,1,0,3676.18,0.0340674,0.0338011,-13.318,3,0.00435728,10,-0.000450161,-1.87556,0.266729,0.221198,-115.253,0.0338011,
2,0,0,1,0,3676.19,0.0320607,0.0317336,-13.1195,3,0.00422505,10,-0.000416329,-1.88208,0.290431,0.203147,-103.896,0.0317336,
2,0,0,1,0,3676.2,0.0300631,0.0297181,-12.8938,3,0.00409507,10,-0.000383178,-1.88962,0.302687,0.194921,-98.3067,0.0297181,
2,0,0,1,0,3676.21,0.0280655,0.0277539,-12.7283,3,0.00396699,10,-0.000353259,-1.89523,0.348734,0.169183,-84.0358,0.0277539,
2,0,0,1,0,3676.22,0.0260679,0.0257783,-12.5627,3,0.00384056,10,-0.000323845,-1.90092,0.421468,0.139987,-68.7855,0.02577832,
2,0,0,1,0,3676.23,0.0240613,0.0237637,-12.4538,3,0.00371547,10,-0.00029595,-1.9047,0.493076,0.119657,-58.118,0.0237637,
2,0,0,1,0,3676.24,0.0220637,0.0217552,-12.3289,3,0.00359161,10,-0.000268217,-1.90908,0.550902,0.107097,-51.6201,0.0217552,
2,0,0,1,0,3676.25,0.0200661,0.0197632,-12.2473,3,0.0034687,10,-0.000242047,-1.91196,0.654275,0.0901761,-43.0856,0.0197632,
2,0,0,1,0,3676.26,0.0180685,0.0177651,-12.1569,3,0.0033467,10,-0.000215969,-1.91518,0.9205,0.0640956,-30.4844,0.0177651,
2,0,0,1,0,3676.27,0.01608,0.0157915,-12.1263,3,0.00322657,10,-0.000191492,-1.91627,1.37592,0.0428803,-20.2765,0.0157915,
2,0,0,1,0,3676.28,0.0140824,0.0137619,-12.0758,3,0.00310564,10,-0.000166186,-1.91809,1.43271,0.0411808,-19.426,0.0137619,
2,0,0,1,0,3676.29,0.0120848,0.0117705,-12.0481,3,0.00298506,10,-0.000141812,-1.91908,1.43648,0.0410725,-19.2951,0.0117705,
2,0,0,1,0,3676.3,0.0100873,0.00978777,-11.9991,3,0.00286495,10,-0.000117444,-1.92085,3.10047,0.0190294,-8.93434,0.00978777,
2,0,0,1,0,3676.31,0.00810328,0.00776857,-12.0124,3,0.00274615,10,-9.3319e-05,-1.92037,46.0019,0.00128256,-0.600544,0.00776857,
2,0,0,1,0,3676.32,0.00610116,0.0057939,-11.9967,3,0.00262612,10,-6.95076e-05,-1.92094,8.40574,0.00701902,-3.28878,0.0057939,
2,0,0,1,0,3676.33,0.00410357,0.00383484,-11.9995,3,0.00250615,10,-4.6016e-05,-1.92084,-1.44657,-0.0407863,19.157,0.00383484,
2,0,0,1,0,3676.34,0.00210598,0.00178035,-12.0736,3,0.00238608,10,-2.14952e-05,-1.91816,-1.33874,-0.0440714,20.7114,0.00178035,
2,0,0,1,0,3676.35,0.00010174,-0.000251577,-12.0841,3,0.00226525,10,3.04008e-06,-1.91779,-7.60473,-0.00775833,3.65792,-0.000251577,
2,0,0,1,0,3676.36,-0.00189827,-0.00226616,-12.0884,3,0.00214436,10,2.73942e-05,-1.91763,-3.56781,-0.0165368,7.80889,-0.00226616,
2,0,0,1,0,3676.37,-0.00389586,-0.00425731,-12.1154,3,0.00202333,10,5.15789e-05,-1.91666,-2.56384,-0.0230123,10.876,-0.004257313,
2,0,0,1,0,3676.38,-0.00589345,-0.00623892,-12.1316,3,0.00190208,10,7.5688e-05,-1.91608,-2.00131,-0.0294806,13.9713,-0.00623892,
2,0,0,1,0,3676.39,-0.00789103,-0.00826045,-12.1713,3,0.00178049,10,0.00010054,-1.91466,-1.35996,-0.0433838,20.6104,-0.00826045,
2,0,0,1,0,3676.4,-0.0098977,-0.0102542,-12.2143,3,0.00165848,10,0.000125248,-1.91313,-1.05342,-0.0560079,26.7192,-0.0102542,
2,0,0,1,0,3676.41,-0.0118953,-0.0122054,-12.2767,3,0.00153596,10,0.000149843,-1.91092,-1.27679,-0.0462096,22.1062,-0.0122054,
2,0,0,1,0,3676.42,-0.0138929,-0.0142044,-12.3017,3,0.00141299,10,0.000174738,-1.91004,-1.22231,-0.0482693,23.2144,-0.0142044,
2,0,0,1,0,3676.43,-0.0158905,-0.0162155,-12.3698,3,0.00128959,10,0.000200583,-1.90764,-0.825889,-0.0714381,34.4887,-0.0162155,
2,0,0,1,0,3676.44,-0.017879,-0.0181974,-12.4394,3,0.00116677,10,0.000226365,-1.9052,-0.842234,-0.0700518,34.004,-0.0181974,
2,0,0,1,0,3676.45,-0.0198766,-0.0202294,-12.5063,3,0.00104206,10,0.000252995,-1.90287,-1.08631,-0.0543124,26.4807,-0.0202294,
2,0,0,1,0,3676.46,-0.0218741,-0.0222551,-12.5468,3,0.000916871,10,0.000279231,-1.90147,-0.970333,-0.0608039,29.8187,-0.0222551,
2,0,0,1,0,3676.47,-0.0238717,-0.0242346,-12.6257,3,0.000791002,10,0.000305979,-1.89874,-0.816882,-0.0722259,35.5642,-0.0242346,
2,0,0,1,0,3676.48,-0.0258602,-0.0262086,-12.6874,3,0.000665687,10,0.00033252,-1.89663,-0.893728,-0.0660156,32.6949,-0.0262086,
2,0,0,1,0,3676.49,-0.0278578,-0.0281885,-12.755,3,0.000538433,10,0.000359544,-1.89432,-0.838938,-0.070327,35.0128,-0.02818848,
2,0,0,1,0,3676.5,-0.0298554,-0.0301762,-12.8263,3,0.000410559,10,0.00038705,-1.8919,-0.812257,-0.0726371,36.3632,-0.0301762,
2,0,0,1,0,3676.51,-0.031853,-0.0321812,-12.9002,3,0.00028192,10,0.000415143,-1.8894,-0.851082,-0.0693235,34.8915,-0.0321812,
2,0,0,1,0,3676.52,-0.0338597,-0.0342105,-12.9671,3,0.000152622,10,0.000443612,-1.88716,-0.827468,-0.0713019,36.0979,-0.0342105,
2,0,0,1,0,3676.53,-0.0358573,-0.0361861,-13.0447,3,2.24982e-05,10,0.000472038,-1.88456,-0.781914,-0.0754559,38.4108,-0.0361861,
2,0,0,1,0,3676.54,-0.0378548,-0.0381989,-13.1203,3,-0.000108394,10,0.000501182,-1.88206,-0.789612,-0.0747203,38.2651,-0.0381989,
2,0,0,1,0,3676.55,-0.0398524,-0.0402335,-13.1996,3,-0.000240047,10,0.000531066,-1.87944,-0.748607,-0.078813,40.6068,-0.0402335,
2,0,0,1,0,3676.56,-0.0418591,-0.0422272,-13.2839,3,-0.000372385,10,0.000560942,-1.87667,-0.724197,-0.0814696,42.2329,-0.0422272,
2,0,0,1,0,3676.57,-0.0438567,-0.0441837,-13.3664,3,-0.000505692,10,0.000590578,-1.87398,-0.880998,-0.0669695,34.8999,-0.0441837,
2,0,0,1,0,3676.58,-0.0458543,-0.0462034,-13.4227,3,-0.000639684,10,0.000620173,-1.87216,-0.773314,-0.076295,40.0373,-0.0462034,
2,0,0,1,0,3676.59,-0.0478519,-0.0481833,-13.5266,3,-0.000774486,10,0.000651755,-1.86881,-0.659808,-0.08942,47.171,-0.0481833,
2,0,0,1,0,3676.6,-0.0498585,-0.0502074,-13.6115,3,-0.000910139,10,0.0006834,-1.86609,-0.655303,-0.0900347,47.8668,-0.0502074,
2,0,0,1,0,3676.61,-0.051838,-0.0522063,-13.7191,3,-0.00104548,10,0.000716225,-1.86267,-0.737834,-0.0799638,42.7397,-0.0522063,
2,0,0,1,0,3676.62,-0.0538355,-0.0541397,-13.7796,3,-0.00118285,10,0.000746022,-1.86076,-0.796624,-0.0740625,39.8799,-0.0541397,
2,0,0,1,0,3676.63,-0.0558331,-0.0561303,-13.8756,3,-0.00132115,10,0.000778844,-1.85775,-0.716083,-0.0823927,44.5978,-0.0561303,
2,0,0,1,0,3676.64,-0.0578126,-0.0581807,-13.9598,3,-0.00145889,10,0.000812193,-1.85512,-0.670874,-0.087945,47.9542,-0.0581807,
2,0,0,1,0,3676.65,-0.0598192,-0.0601502,-14.0684,3,-0.00159905,10,0.000846217,-1.85176,-0.677406,-0.0870969,47.7745,-0.0601502,
2,0,0,1,0,3676.66,-0.0618168,-0.0621726,-14.1505,3,-0.00174013,10,0.000879775,-1.84923,-0.682887,-0.086398,47.7616,-0.0621726,
2,0,0,1,0,3676.67,-0.0638144,-0.0641976,-14.2617,3,-0.00188225,10,0.000915568,-1.84583,-0.682627,-0.0864308,48.0574,-0.0641976,
2,0,0,1,0,3676.68,-0.065812,-0.0662035,-14.3442,3,-0.00202527,10,0.000949639,-1.84332,-0.626487,-0.094176,52.803,-0.0662035,
2,0,0,1,0,3676.69,-0.0678187,-0.0681808,-14.472,3,-0.00216945,10,0.000986715,-1.83947,-0.563955,-0.104618,59.0438,-0.0681808,
2,0,0,1,0,3676.7,-0.0698163,-0.0701745,-14.5787,3,-0.00231473,10,0.00102305,-1.83628,-0.605405,-0.0974554,55.4595,-0.07017453,
2,0,0,1,0,3676.71,-0.0718138,-0.0721431,-14.6918,3,-0.00246114,10,0.00105991,-1.83293,-0.604755,-0.0975602,55.9313,-0.07214313,
2,0,0,1,0,3676.72,-0.0738114,-0.0741603,-14.8016,3,-0.00260861,10,0.00109769,-1.82969,-0.508666,-0.11599,67.1129,-0.0741603,
2,0,0,1,0,3676.73,-0.0758181,-0.0761541,-14.961,3,-0.00275753,10,0.00113934,-1.82504,-0.517127,-0.114092,66.5001,-0.0761541,
2,0,0,1,0,3676.74,-0.0778157,-0.0781817,-15.0691,3,-0.00290774,10,0.00117812,-1.82191,-0.553313,-0.10663,62.7836,-0.0781817,
2,0,0,1,0,3676.75,-0.0798133,-0.0801789,-15.2137,3,-0.0030592,10,0.00121981,-1.81777,-0.509402,-0.115822,68.7341,-0.0801789,
2,0,0,1,0,3676.76,-0.0818109,-0.0821805,-15.3439,3,-0.00321204,10,0.00126097,-1.81406,-0.451037,-0.13081,78.4634,-0.0821805,
2,0,0,1,0,3676.77,-0.0837994,-0.084168,-15.5267,3,-0.00336492,10,0.00130685,-1.80892,-0.450655,-0.130921,79.1923,-0.084168,
2,0,0,1,0,3676.78,-0.0857969,-0.0861173,-15.6557,3,-0.00352077,10,0.00134822,-1.80533,-0.461204,-0.127926,78.2933,-0.0861173,
2,0,0,1,0,3676.79,-0.0877945,-0.0881493,-15.8384,3,-0.00367825,10,0.00139614,-1.80029,-0.42797,-0.13786,85.1575,-0.0881493,
2,0,0,1,0,3676.8,-0.0897921,-0.0901741,-16.0011,3,-0.00383741,10,0.00144289,-1.79585,-0.427919,-0.137876,86.124,-0.0901741,
2,0,0,1,0,3676.81,-0.0917806,-0.0920451,-16.1739,3,-0.00399665,10,0.00148873,-1.79119,-0.419794,-0.140545,88.7177,-0.0920451,
2,0,0,1,0,3676.82,-0.0937782,-0.0940962,-16.3491,3,-0.00415927,10,0.00153839,-1.78651,-0.427336,-0.138065,88.1215,-0.0940962,
2,0,0,1,0,3676.83,-0.0957758,-0.0961576,-16.5363,3,-0.00432376,10,0.00159009,-1.78156,-0.444332,-0.132784,85.6166,-0.0961576,
2,0,0,1,0,3676.84,-0.0977734,-0.0981375,-16.6951,3,-0.00448994,10,0.00163841,-1.77741,-0.395242,-0.149275,97.444,-0.0981375,
2,0,0,1,0,3676.85,-0.0997412,-0.100075,-16.918,3,-0.00465463,10,0.00169306,-1.77165,0.0893101,0.66062,-419.915,-0.100075,
2,0,0,1,1,3676.85,-0.0996711,-0.100064,-15.886,3,-0.00470408,10,0.00158962,-1.79899,-0.00955228,-6.17653,3225.48,-0.1000644,
2,0,0,1,1,3676.86,-0.0976826,-0.0980461,-10.375,3,-0.0048318,10,0.00101723,-1.98401,-0.0098205,-6.00784,2418.08,-0.0980461,
2,0,0,1,1,3676.87,-0.095685,-0.0960697,-6.22651,3,-0.00491345,10,0.00059818,-2.20575,-0.00731852,-8.06174,1865.54,-0.0960697,
2,0,0,1,1,3676.88,-0.0936874,-0.0940831,-2.98184,3,-0.00495839,10,0.00028054,-2.52552,-0.00345191,-17.092,1428.91,-0.0940831,
2,0,0,1,1,3676.89,-0.0916898,-0.092001,-0.412613,3,-0.0049746,10,3.79608e-05,-3.38446,-0.015133,-3.89876,1158.53,-0.092001,
2,1,0,1,1,3676.9,-0.0897013,-0.0901043,1.62766,3,-0.00496794,10,-0.00014666,-2.78844,0.00438099,13.4673,938.763,-0.0901043,
2,1,0,1,1,3676.91,-0.0877037,-0.0880437,3.30228,3,-0.00494282,10,-0.000290745,-2.48119,0.00880478,6.70091,754.201,-0.0880437,
2,1,0,1,1,3676.92,-0.0857062,-0.0860795,4.6632,3,-0.00490253,10,-0.000401406,-2.33132,0.0163557,3.6073,621.457,-0.0860795,
2,1,0,1,1,3676.93,-0.0837086,-0.0841022,5.75177,3,-0.00485013,10,-0.000483736,-2.2402,0.0253497,2.32744,510.977,-0.0841022,
2,1,0,1,1,3676.94,-0.0817019,-0.0820703,6.71181,3,-0.00478749,10,-0.00055084,-2.17316,0.034925,1.68934,433.832,-0.0820703,
2,1,0,1,1,3676.95,-0.0797043,-0.0801077,7.48469,3,-0.00471632,10,-0.000599582,-2.12583,0.048156,1.22519,353.425,-0.0801077,
2,1,0,1,1,3676.96,-0.0777067,-0.0780984,8.11558,3,-0.00463806,10,-0.000633813,-2.09068,0.0644671,0.915196,287.63,-0.0780984,
2,1,0,1,1,3676.97,-0.0757091,-0.0760586,8.64934,3,-0.00455411,10,-0.000657857,-2.06302,0.079901,0.738414,248.076,-0.0760586,
2,1,0,1,1,3676.98,-0.0737025,-0.0740467,9.12071,3,-0.00446512,10,-0.000675358,-2.03997,0.0998632,0.590808,208.889,-0.0740467,
2,1,0,1,1,3676.99,-0.0717049,-0.0720702,9.48247,3,-0.00437201,10,-0.000683404,-2.02308,0.132086,0.44668,164.626,-0.0720702,
2,1,0,1,1,3677,-0.0697073,-0.0700782,9.77402,3,-0.00427565,10,-0.000684946,-2.00993,0.163437,0.360996,137.441,-0.0700782,
2,1,0,1,1,3677.01,-0.0677097,-0.0680593,10.0337,3,-0.00417658,10,-0.000682889,-1.99854,0.189659,0.311084,121.594,-0.06805931,
2,1,0,1,1,3677.02,-0.0657212,-0.0660748,10.2608,3,-0.00407606,10,-0.000677981,-1.98882,0.238067,0.247829,98.931,-0.0660748,
2,1,0,1,1,3677.03,-0.0637236,-0.0640945,10.426,3,-0.00397266,10,-0.000668248,-1.98188,0.300077,0.196616,79.9601,-0.0640945,
2,1,0,1,1,3677.04,-0.061726,-0.0620585,10.582,3,-0.00386757,10,-0.0006567,-1.97543,0.337543,0.174793,72.1071,-0.0620585,
2,1,0,1,1,3677.05,-0.0597284,-0.0600702,10.7162,3,-0.0037611,10,-0.000643722,-1.96996,0.400303,0.147388,61.5676,-0.0600702,
2,1,0,1,1,3677.06,-0.0577399,-0.0580948,10.826,3,-0.00365446,10,-0.000628934,-1.96553,0.511602,0.115324,48.6645,-0.0580948,
2,1,0,1,1,3677.07,-0.0557423,-0.0560959,10.9096,3,-0.00354582,10,-0.000611982,-1.96219,0.64267,0.0918045,39.0695,-0.0560959,
2,1,0,1,1,3677.08,-0.0537447,-0.0540605,10.9836,3,-0.0034363,10,-0.000593779,-1.95926,0.812042,0.0726564,31.1107,-0.0540605,
2,1,0,1,1,3677.09,-0.0517472,-0.0520954,11.034,3,-0.0033262,10,-0.000574821,-1.95727,0.89376,0.0660132,28.443,-0.0520954,
2,1,0,1,1,3677.1,-0.049745,-0.0500669,11.0972,3,-0.00321553,10,-0.000555602,-1.95479,0.932174,0.0632929,27.3913,-0.0500669,
2,1,0,1,1,3677.11,-0.0477429,-0.0480714,11.1442,3,-0.00310427,10,-0.00053572,-1.95295,1.25779,0.0469075,20.3898,-0.0480714,
2,1,0,1,1,3677.12,-0.0457453,-0.0460586,11.1789,3,-0.00299254,10,-0.000514885,-1.9516,1.83838,0.0320934,13.9931,-0.0460586,
2,1,0,1,1,3677.13,-0.0437477,-0.0440839,11.2,3,-0.00288071,10,-0.000493741,-1.95078,2.74155,0.0215207,9.40451,-0.0440839,
2,1,0,1,1,3677.14,-0.0417501,-0.0421283,11.2159,3,-0.00276858,10,-0.000472506,-1.95017,1.81957,0.0324253,14.2088,-0.0421283,
2,1,0,1,1,3677.15,-0.0397435,-0.0401224,11.2563,3,-0.00265621,10,-0.000451631,-1.9486,4.2271,0.0139576,6.11621,-0.0401224,
2,1,0,1,1,3677.16,-0.0377459,-0.0381104,11.2405,3,-0.00254374,10,-0.000428379,-1.94922,266.342,0.00022152,0.0973152,-0.0381104,
2,1,0,1,1,3677.17,-0.0357483,-0.0361019,11.2567,3,-0.00243129,10,-0.000406389,-1.94859,6.62235,0.00890923,3.91103,-0.0361019,
2,1,0,1,1,3677.18,-0.0337507,-0.0340891,11.2562,3,-0.00231866,10,-0.000383713,-1.94861,468.865,0.000125836,0.055282,-0.03408907,
2,1,0,1,1,3677.19,-0.0317622,-0.0321709,11.2569,3,-0.00220724,10,-0.000362146,-1.94858,-17.4864,-0.00337406,-1.48181,-0.0321709,
2,1,0,1,1,3677.2,-0.0297646,-0.0301079,11.2503,3,-0.00209465,10,-0.000338723,-1.94884,-5.90843,-0.00998573,-4.38349,-0.0301079,
2,1,0,1,1,3677.21,-0.027767,-0.0281053,11.2391,3,-0.00198223,10,-0.000315879,-1.94927,-2.73393,-0.0215807,-9.45932,-0.0281053,
2,1,0,1,1,3677.22,-0.0257694,-0.0260988,11.2124,3,-0.00186988,10,-0.000292629,-1.9503,-5.66642,-0.0104122,-4.56334,-0.02609878,
2,1,0,1,1,3677.23,-0.0237809,-0.0240691,11.2207,3,-0.00175889,10,-0.000270072,-1.94998,-5.76401,-0.0102359,-4.47553,-0.0240691,
2,1,0,1,1,3677.24,-0.0217833,-0.0221378,11.1946,3,-0.00164675,10,-0.000247825,-1.95099,-1.96034,-0.0300968,-13.1495,-0.0221378,
2,1,0,1,1,3677.25,-0.0197858,-0.0201666,11.1694,3,-0.00153494,10,-0.000225249,-1.95197,-2.4062,-0.02452,-10.692,-0.0201666,
2,1,0,1,1,3677.26,-0.0177882,-0.0181251,11.1517,3,-0.00142332,10,-0.000202127,-1.95266,-3.85186,-0.0153173,-6.66886,-0.0181251,
2,1,0,1,1,3677.27,-0.0157815,-0.0161392,11.1425,3,-0.00131188,10,-0.000179831,-1.95302,-2.55738,-0.0230705,-10.0224,-0.0161392,
2,1,0,1,1,3677.28,-0.0137839,-0.0140795,11.1112,3,-0.00120055,10,-0.00015644,-1.95424,-1.606,-0.0367373,-15.9294,-0.0140795,
2,1,0,1,1,3677.29,-0.0117863,-0.0121074,11.0783,3,-0.00108967,10,-0.00013413,-1.95553,-1.89068,-0.0312056,-13.4995,-0.0121074,
2,1,0,1,1,3677.3,-0.00978874,-0.0101518,11.0582,3,-0.000978924,10,-0.000112261,-1.95632,-2.62401,-0.0224847,-9.70448,-0.0101518,
2,1,0,1,1,3677.31,-0.00778207,-0.00816154,11.04,3,-0.000868448,10,-9.01035e-05,-1.95703,-1.70801,-0.0345431,-14.8674,-0.00816154,
2,1,0,1,1,3677.32,-0.00578449,-0.00613915,10.9985,3,-0.00075819,10,-6.75215e-05,-1.95867,-1.51037,-0.0390632,-16.7787,-0.00613915,
2,1,0,1,1,3677.33,-0.0037869,-0.00410461,10.9719,3,-0.00064835,10,-4.50356e-05,-1.95972,-1.861,-0.0317034,-13.5745,-0.00410461,
2,1,0,1,1,3677.34,-0.00178931,-0.00211606,10.9439,3,-0.000538728,10,-2.3158e-05,-1.96083,-1.12253,-0.0525599,-22.4187,-0.002116062,
2,1,0,1,1,3677.35,-2.55332e-05,-0.000306236,10.8868,3,-0.000443735,10,-3.33393e-06,-1.9631, , , ,-0.000306236,