File: Figure_codes/Fig_3-5/rawdata_trumpetplot_data/before 10th/20221101_1-115_002_TrumpetPlot_ParaChange_10_CV_C01_5.csv
mode,ox/red,error,control changes,counter inc.,time/s,control/V,Ewe/V,<I>/mA,cycle number,(Q-Qo)/C,I Range,P/W,log(|I|),Tafel slope mV/dec,alpha_eff,dI/d(E-IR),E-IR/V,
2,0,0,0,0,7352.53,2.44065e-05,0.000190034,-5.84459,6,0.0000000E+000,11,-1.11067e-06,-2.23325, , , ,0.000190034,
2,0,0,1,0,7352.55,0.0012943,0.000872065,-2.38765,6,-6.5052e-05,11,-2.08219e-06,-2.62203, , , ,0.000872065,
2,0,0,1,0,7352.57,0.00279784,0.00246483,0.130333,6,-8.38913e-05,11,3.21249e-07,-3.88495,-0.0125418,-4.70426,1312.86,0.00246483,
2,1,0,1,0,7352.59,0.00429425,0.0039759,1.43467,6,-6.80694e-05,11,5.70411e-06,-2.84325,0.0063579,9.2798,713.39,0.0039759,
2,1,0,1,0,7352.6,0.00579065,0.00545984,2.16538,6,-3.37871e-05,11,1.18226e-05,-2.66447,0.0099305,5.94129,408.717,0.00545984,
2,1,0,1,0,7352.62,0.0072942,0.00695035,2.60678,6,1.13848e-05,11,1.81181e-05,-2.5839,0.0225217,2.61969,247.568,0.00695035,
2,1,0,1,0,7352.64,0.00878347,0.00847495,2.88267,6,6.25921e-05,11,2.44305e-05,-2.54021,0.0412841,1.42912,154.836,0.00847495,
2,1,0,1,0,7352.66,0.010287,0.00996819,3.05544,6,0.000118527,11,3.04572e-05,-2.51493,0.0698416,0.844769,98.5973,0.00996819,
2,1,0,1,0,7352.68,0.0117905,0.0114986,3.16655,6,0.00017713,11,3.64109e-05,-2.49941,0.103467,0.570231,69.7017,0.0114986,
2,1,0,1,0,7352.7,0.013278,0.0129802,3.23639,6,0.000236789,11,4.20091e-05,-2.48994,0.143607,0.410843,51.8584,0.0129802,
2,1,0,1,0,7352.72,0.0147816,0.0144933,3.30243,6,0.000298404,11,4.7863e-05,-2.48117,0.186922,0.31564,40.6191,0.0144933,
2,1,0,1,0,7352.74,0.0162851,0.0159971,3.35413,6,0.000361215,11,5.36561e-05,-2.47442,0.238548,0.24733,32.3108,0.0159971,
2,1,0,1,0,7352.75,0.0177744,0.0174688,3.40112,6,0.000424157,11,5.94135e-05,-2.46838,0.323705,0.182265,24.1322,0.0174688,
2,1,0,1,0,7352.77,0.0192779,0.0189795,3.42757,6,0.000488417,11,6.50534e-05,-2.46501,0.354571,0.166398,22.2987,0.0189795,
2,1,0,1,0,7352.79,0.0207743,0.0204973,3.47045,6,0.000553027,11,7.11349e-05,-2.45961,0.341467,0.172784,23.3765,0.0204973,
2,1,0,1,0,7352.81,0.0222707,0.0219765,3.50648,6,0.000618344,11,7.70602e-05,-2.45513,0.415858,0.141876,19.4147,0.0219765,
2,1,0,1,0,7352.83,0.0237743,0.0234929,3.54575,6,0.000684652,11,8.32999e-05,-2.45029,0.450684,0.130912,18.0877,0.0234929,
2,1,0,1,0,7352.85,0.0252636,0.0249221,3.57274,6,0.00075083,11,8.90402e-05,-2.447,0.385132,0.153194,21.3794,0.0249221,
2,1,0,1,0,7352.87,0.0267671,0.0264709,3.61422,6,0.000818352,11,9.56716e-05,-2.44199,0.323855,0.18218,25.6751,0.0264709,
2,1,0,1,0,7352.88,0.0282706,0.0280163,3.65542,6,0.000886629,11,0.000102411,-2.43706,0.34146,0.172787,24.5942,0.0280163,
2,1,0,1,0,7352.9,0.0297581,0.0294761,3.68949,6,0.000954924,11,0.000108752,-2.43303,0.352808,0.16723,24.0266,0.0294761,
2,1,0,1,0,7352.92,0.0312617,0.0309779,3.71629,6,0.00102456,11,0.000115123,-2.42989,0.33614,0.175522,25.5122,0.0309779,
2,1,0,1,0,7352.94,0.0327652,0.0324929,3.76002,6,0.00109486,11,0.000122174,-2.42481,0.294608,0.200266,29.4111,0.0324929,
2,1,0,1,0,7352.96,0.0342545,0.0339749,3.80287,6,0.00116519,11,0.000129202,-2.41989,0.278127,0.212134,31.4968,0.0339749,
2,1,0,1,0,7352.98,0.035758,0.0355101,3.84615,6,0.00123717,11,0.000136577,-2.41497,0.298298,0.197789,29.6376,0.0355101,
2,1,0,1,0,7353,0.0372544,0.0369575,3.88681,6,0.00130961,11,0.000143647,-2.41041,0.295536,0.199637,30.3236,0.0369575,
2,1,0,1,0,7353.02,0.0387508,0.0384567,3.93053,6,0.00138272,11,0.000151155,-2.40555,0.270827,0.217852,33.5442,0.0384567,
2,1,0,1,0,7353.03,0.0402544,0.0399636,3.98179,6,0.00145723,11,0.000159126,-2.39992,0.241377,0.244431,38.0736,0.0399636,
2,1,0,1,0,7353.05,0.0417437,0.0414766,4.04695,6,0.00153203,11,0.000167854,-2.39287,0.261196,0.225884,35.6381,0.0414766,
2,1,0,1,0,7353.07,0.0432472,0.0429899,4.097,6,0.00160866,11,0.00017613,-2.38753,0.279179,0.211334,33.7968,0.0429899,
2,1,0,1,0,7353.09,0.0447507,0.0444726,4.14925,6,0.00168626,11,0.000184528,-2.38203,0.25768,0.228966,37.1582,0.0444726,
2,1,0,1,0,7353.11,0.0462382,0.0459863,4.21383,6,0.00176411,11,0.000193779,-2.37532,0.237525,0.248395,40.8881,0.0459863,
2,1,0,1,0,7353.13,0.0477418,0.0474809,4.28186,6,0.00184403,11,0.000203307,-2.36837,0.238517,0.247362,41.34,0.0474809,
2,1,0,1,0,7353.15,0.0492453,0.0490147,4.34804,6,0.00192522,11,0.000213118,-2.36171,0.244081,0.241723,40.994,0.0490147,
2,1,0,1,0,7353.17,0.0507346,0.0504173,4.40763,6,0.00200666,11,0.000222221,-2.3558,0.232713,0.253531,43.7009,0.0504173,
2,1,0,1,0,7353.18,0.0522381,0.0519538,4.48931,6,0.00209028,11,0.000233237,-2.34782,0.206066,0.286316,50.1296,0.0519538,
2,1,0,1,0,7353.2,0.0537345,0.053493,4.57335,6,0.00217489,11,0.000244642,-2.33977,0.199915,0.295126,52.561,0.053493,
2,1,0,1,0,7353.22,0.0552309,0.0549352,4.64826,6,0.00226099,11,0.000255353,-2.33271,0.202284,0.291669,52.7417,0.0549352,
2,1,0,1,0,7353.24,0.0567345,0.0564325,4.71563,6,0.00234902,11,0.000266115,-2.32646,0.197485,0.298757,55.0137,0.0564325,
2,1,0,1,0,7353.26,0.0582237,0.05792,4.79615,6,0.00243746,11,0.000277793,-2.31911,0.193461,0.304972,57.134,0.05792,
2,1,0,1,0,7353.28,0.0597273,0.0594865,4.87936,6,0.00252845,11,0.000290256,-2.31164,0.189196,0.311846,59.3771,0.05948649,
2,1,0,1,0,7353.3,0.0612308,0.0609211,4.96376,6,0.00262109,11,0.000302398,-2.30419,0.1922,0.306971,59.4436,0.0609211,
2,1,0,1,0,7353.32,0.0627183,0.0624423,5.05327,6,0.00271434,11,0.000315538,-2.29643,0.197225,0.299151,58.9914,0.0624423,
2,1,0,1,0,7353.33,0.0642219,0.0639543,5.12716,6,0.0028101,11,0.000327904,-2.29012,0.193062,0.305601,61.3354,0.0639543,
2,1,0,1,0,7353.35,0.0657254,0.0654349,5.21997,6,0.00290758,11,0.000341568,-2.28233,0.194705,0.303022,61.7547,0.0654349,
2,1,0,1,0,7353.37,0.0672147,0.0669438,5.31603,6,0.00300577,11,0.000355876,-2.27441,0.211592,0.278839,57.8341,0.0669438,
2,1,0,1,0,7353.39,0.0687182,0.0684142,5.40932,6,0.00310671,11,0.000370075,-2.26686,0.227438,0.259411,54.718,0.0684142,
2,1,0,1,0,7353.41,0.0702146,0.0699538,5.4899,6,0.00320865,11,0.00038404,-2.26044,0.232008,0.254301,54.5375,0.0699538,
2,1,0,1,0,7353.43,0.071711,0.0713953,5.58172,6,0.0033122,11,0.000398508,-2.25323,0.217254,0.271571,59.1527,0.0713953,
2,1,0,1,0,7353.45,0.0732146,0.0729021,5.67229,6,0.00341802,11,0.000413522,-2.24624,0.226816,0.260123,57.5608,0.07290215,
2,1,0,1,0,7353.47,0.0747038,0.0744182,5.76929,6,0.00352442,11,0.000429341,-2.23888,0.235467,0.250566,56.2723,0.0744182,
2,1,0,1,0,7353.48,0.0762074,0.0758862,5.84351,6,0.00363352,11,0.000443442,-2.23333,0.244749,0.241063,54.9698,0.0758862,
2,1,0,1,0,7353.5,0.0777109,0.077448,5.93015,6,0.00374417,11,0.000459278,-2.22693,0.227631,0.259191,59.9695,0.077448,
2,1,0,1,0,7353.52,0.0791984,0.0789256,6.02304,6,0.00385524,11,0.000475372,-2.22018,0.233335,0.252856,59.3211,0.0789256,
2,1,0,1,0,7353.54,0.0807019,0.0804225,6.09908,6,0.00396917,11,0.000490503,-2.21474,0.248338,0.237579,56.4544,0.08042255,
2,1,0,1,0,7353.56,0.0822055,0.0819223,6.17127,6,0.00408464,11,0.000505565,-2.20963,0.260958,0.22609,54.4373,0.08192227,
2,1,0,1,0,7353.58,0.0836947,0.0834554,6.24418,6,0.00420021,11,0.000521111,-2.20452,0.268707,0.21957,53.6067,0.0834554,
2,1,0,1,0,7353.6,0.0851983,0.0848917,6.3232,6,0.00431851,11,0.000536787,-2.19906,0.26941,0.218997,54.066,0.0848917,
2,1,0,1,0,7353.62,0.0866947,0.0864259,6.40596,6,0.0044377,11,0.000553641,-2.19342,0.296141,0.199229,49.7826,0.0864259,
2,1,0,1,0,7353.63,0.0881911,0.0879191,6.4779,6,0.00455827,11,0.000569531,-2.18857,0.320301,0.184201,46.559,0.0879191,
2,1,0,1,0,7353.65,0.0896946,0.0894123,6.54311,6,0.00468076,11,0.000585035,-2.18422,0.325269,0.181388,46.3861,0.0894123,
2,1,0,1,0,7353.67,0.0911839,0.0908691,6.61753,6,0.00480329,11,0.000601329,-2.1793,0.307416,0.191922,49.6207,0.0908691,
2,1,0,1,0,7353.69,0.0926857,0.0923763,6.70309,6,0.0049286,11,0.000619207,-2.17372,0.319095,0.184898,48.3406,0.0923763,
2,1,0,1,0,7353.71,0.0941892,0.0938979,6.77603,6,0.00505538,11,0.000636254,-2.16902,0.341449,0.172793,45.6891,0.0938979,
2,1,0,1,0,7353.73,0.0956785,0.0953625,6.84553,6,0.00518209,11,0.000652807,-2.16459,0.328887,0.179393,47.9679,0.09536247,
2,1,0,1,0,7353.75,0.097182,0.0969072,6.9289,6,0.00531158,11,0.00067146,-2.15934,0.308068,0.191516,51.7656,0.0969072,
2,1,0,1,0,7353.77,0.0986856,0.0984089,7.01092,6,0.0054426,11,0.000689937,-2.15423,0.293133,0.201274,55.0539,0.09840893,
2,1,0,1,0,7353.78,0.100175,0.0999008,7.09552,6,0.00557373,11,0.000708849,-2.14902,0.308473,0.191265,52.9068,0.0999008,
2,1,0,1,0,7353.8,0.101678,0.101379,7.16949,6,0.00570783,11,0.000726834,-2.14451,0.289627,0.20371,57.0181,0.101379,
2,1,0,1,0,7353.82,0.103175,0.102869,7.25796,6,0.0058427,11,0.000746618,-2.13919,0.267135,0.220862,62.5983,0.102869,
2,1,0,1,0,7353.84,0.104671,0.10441,7.34712,6,0.00597924,11,0.000767114,-2.13388,0.235788,0.250224,71.8899,0.10441,
2,1,0,1,0,7353.86,0.106175,0.105871,7.46038,6,0.00611849,11,0.000789839,-2.12724,0.228294,0.258438,75.2351,0.105871,
2,1,0,1,0,7353.88,0.107662,0.107358,7.56989,6,0.00625839,11,0.00081269,-2.12091,0.223932,0.263472,77.8942,0.107358,
2,1,0,1,0,7353.9,0.109166,0.108887,7.67638,6,0.00640183,11,0.000835854,-2.11484,0.217386,0.271407,81.5256,0.108887,
2,1,0,1,0,7353.91,0.110669,0.110353,7.80758,6,0.00654757,11,0.000861591,-2.10748,0.20306,0.290555,88.6826,0.110353,
2,1,0,1,0,7353.93,0.112159,0.111854,7.93899,6,0.0066942,11,0.000888005,-2.10023,0.202222,0.291759,90.5155,0.111854,
2,1,0,1,0,7353.95,0.113662,0.113368,8.08662,6,0.00684501,11,0.000916766,-2.09223,0.196123,0.300832,95.0021,0.113368,
2,1,0,1,0,7353.97,0.115166,0.114835,8.2322,6,0.00699848,11,0.000945342,-2.08448,0.190346,0.309961,99.7086,0.114835,
2,1,0,1,0,7353.99,0.116655,0.116295,8.38871,6,0.00715315,11,0.000975566,-2.0763,0.180507,0.326857,107.154,0.116295,
2,1,0,1,0,7354.01,0.118158,0.117821,8.56686,6,0.0073126,11,0.00100936,-2.06718,0.180374,0.327098,109.335,0.117821,
2,1,0,1,0,7354.03,0.119655,0.119333,8.74137,6,0.00747444,11,0.00104313,-2.05842,0.179682,0.328359,111.944,0.119333,
2,1,0,1,0,7354.05,0.121151,0.120873,8.90567,6,0.00763941,11,0.00107646,-2.05033,0.178558,0.330425,114.918,0.120873,
2,1,0,1,0,7354.06,0.122655,0.12237,9.09052,6,0.00780852,11,0.00111241,-2.04141,0.174896,0.337343,119.626,0.12237,
2,1,0,1,0,7354.08,0.124142,0.123873,9.26753,6,0.00797922,11,0.001148,-2.03304,0.168704,0.349726,126.466,0.123873,
2,1,0,1,0,7354.1,0.125646,0.125354,9.44917,6,0.0081552,11,0.00118449,-2.02461,0.179517,0.32866,121.093,0.125354,
2,1,0,1,0,7354.12,0.127149,0.126835,9.62252,6,0.00833462,11,0.00122047,-2.01671,0.183743,0.3211,120.612,0.126835,
2,1,0,1,0,7354.14,0.128639,0.128314,9.80822,6,0.00851536,11,0.00125853,-2.00841,0.185369,0.318284,121.819,0.128314,
2,1,0,1,0,7354.16,0.130142,0.129828,9.9813,6,0.00870142,11,0.00129586,-2.00081,0.190659,0.309453,120.507,0.129828,
2,1,0,1,0,7354.18,0.131646,0.131348,10.1579,6,0.00889095,11,0.00133422,-1.99319,0.203645,0.28972,114.721,0.131348,
2,1,0,1,0,7354.2,0.133135,0.132861,10.3262,6,0.00908159,11,0.00137196,-1.98606,0.215248,0.274103,110.45,0.1328612,
2,1,0,1,0,7354.21,0.134639,0.134308,10.4808,6,0.00927724,11,0.00140766,-1.9796,0.228864,0.257794,105.502,0.134308,
2,1,0,1,0,7354.23,0.136135,0.135824,10.6439,6,0.00947494,11,0.00144569,-1.9729,0.236122,0.249871,103.762,0.1358235,
2,1,0,1,0,7354.25,0.137631,0.137359,10.7993,6,0.00967555,11,0.00148338,-1.96661,0.261134,0.225938,95.1195,0.137359,
2,1,0,1,0,7354.27,0.139135,0.138905,10.9418,6,0.00988005,11,0.00151987,-1.96091,0.284123,0.207657,88.5841,0.138905,
2,1,0,1,0,7354.29,0.140622,0.140328,11.0699,6,0.0100848,11,0.00155341,-1.95586,0.307975,0.191574,82.7422,0.140328,
2,1,0,1,0,7354.31,0.142126,0.141777,11.1959,6,0.0102942,11,0.00158733,-1.95094,0.319554,0.184632,80.6244,0.141777,
2,1,0,1,0,7354.33,0.143629,0.143384,11.3229,6,0.0105059,11,0.00162353,-1.94604,0.365105,0.161597,71.2798,0.143384,
2,1,0,1,0,7354.35,0.145119,0.144779,11.4227,6,0.0107175,11,0.00165377,-1.94223,0.463067,0.127411,56.6685,0.144779,
2,1,0,1,0,7354.36,0.146622,0.146353,11.4957,6,0.0109329,11,0.00168244,-1.93946,0.565072,0.104411,46.78,0.146353,
2,1,0,1,0,7354.38,0.148126,0.147855,11.5597,6,0.0111496,11,0.00170916,-1.93705,0.735133,0.0802576,36.1345,0.147855,
2,1,0,1,0,7354.4,0.149615,0.149309,11.6012,6,0.011365,11,0.00173216,-1.9355,1.31483,0.0448728,20.2612,0.149309,
2,1,0,1,0,7354.42,0.151119,0.150775,11.6133,6,0.0115832,11,0.001751,-1.93504,-9.30687,-0.0063394,-2.86369,0.150775,
2,1,0,1,0,7354.44,0.152615,0.152324,11.5824,6,0.0118002,11,0.00176428,-1.9362,-1.04355,-0.0565376,-25.4943,0.152324,
2,1,0,1,0,7354.46,0.154111,0.153854,11.5242,6,0.0120163,11,0.00177304,-1.93839,-0.550365,-0.107202,-48.095,0.153854,
2,1,0,1,0,7354.48,0.155615,0.155352,11.4269,6,0.0122322,11,0.0017752,-1.94207,-0.345139,-0.170945,-75.9748,0.155352,
2,1,0,1,0,7354.5,0.157103,0.15684,11.2845,6,0.0124436,11,0.00176986,-1.94752,-0.23011,-0.256399,-112.419,0.15684,
2,1,0,1,0,7354.51,0.158606,0.158315,11.0851,6,0.0126541,11,0.00175494,-1.95526,-0.167288,-0.352685,-151.953,0.158315,
2,1,0,1,0,7354.53,0.16011,0.159833,10.828,6,0.0128603,11,0.00173067,-1.96545,-0.133393,-0.442302,-186.225,0.159833,
2,1,0,1,0,7354.55,0.161599,0.161317,10.5334,6,0.0130591,11,0.00169921,-1.97743,-0.107553,-0.548568,-224.366,0.161317,
2,1,0,1,0,7354.57,0.163102,0.162851,10.1768,6,0.0132539,11,0.0016573,-1.99239,-0.0908637,-0.649324,-256.633,0.162851,
2,1,0,1,0,7354.59,0.164606,0.164328,9.77831,6,0.0134416,11,0.00160685,-2.00974,-0.0780164,-0.756251,-287.183,0.164328,
2,1,0,1,0,7354.61,0.166095,0.16582,9.33982,6,0.0136193,11,0.00154873,-2.02966,-0.0715835,-0.824212,-299.414,0.16582,
2,1,0,1,0,7354.63,0.167599,0.167311,8.87637,6,0.0137905,11,0.00148511,-2.05176,-0.066492,-0.887324,-306.571,0.167311,
2,1,0,1,0,7354.65,0.169095,0.168783,8.41511,6,0.0139521,11,0.00142033,-2.07494,-0.0626461,-0.941799,-308.618,0.168783,
2,1,0,1,0,7354.66,0.170592,0.17031,7.94699,6,0.014105,11,0.00135345,-2.0998,-0.0600034,-0.983278,-304.604,0.17031,
2,1,0,1,0,7354.68,0.172095,0.171802,7.48488,6,0.0142499,11,0.00128592,-2.12581,-0.0596445,-0.989194,-289.393,0.171802,
2,1,0,1,0,7354.7,0.173583,0.173277,7.06943,6,0.0143851,11,0.00122497,-2.15062,-0.0607929,-0.970507,-268.273,0.1732769,
2,1,0,1,0,7354.72,0.175086,0.174793,6.68309,6,0.0145142,11,0.00116816,-2.17502,-0.0651743,-0.905265,-236.9,0.174793,
2,1,0,1,0,7354.74,0.17659,0.176288,6.33933,6,0.0146366,11,0.00111755,-2.19796,-0.068348,-0.86323,-214.249,0.176288,
2,1,0,1,0,7354.76,0.178079,0.17783,6.03171,6,0.0147517,11,0.00107262,-2.21956,-0.0731736,-0.806302,-190.871,0.17783,
2,1,0,1,0,7354.78,0.179582,0.179301,5.76402,6,0.0148626,11,0.0010335,-2.23927,-0.0816703,-0.722417,-163.626,0.179301,
2,1,0,1,0,7354.8,0.181086,0.180868,5.5392,6,0.014969,11,0.00100186,-2.25655,-0.0935811,-0.630469,-137.1,0.180868,
2,1,0,1,0,7354.81,0.182575,0.182277,5.34929,6,0.0150703,11,0.000975053,-2.2717,-0.0988238,-0.597022,-125.06,0.1822769,
2,1,0,1,0,7354.83,0.184079,0.183762,5.17813,6,0.0151694,11,0.000951544,-2.28583,-0.108038,-0.546103,-110.703,0.183762,
2,1,0,1,0,7354.85,0.185582,0.185336,5.0199,6,0.0152653,11,0.000930366,-2.29931,-0.11756,-0.501872,-98.6692,0.185336,
2,1,0,1,0,7354.87,0.18707,0.186797,4.88835,6,0.0153575,11,0.000913127,-2.31084,-0.128252,-0.460033,-87.9586,0.186797,
2,1,0,1,0,7354.89,0.188573,0.188325,4.76751,6,0.0154482,11,0.000897842,-2.32171,-0.138649,-0.425535,-79.3046,0.1883252,
2,1,0,1,0,7354.91,0.19007,0.189805,4.66121,6,0.0155364,11,0.000884721,-2.3315,-0.144732,-0.40765,-74.1644,0.189805,
2,1,0,1,0,7354.93,0.191566,0.191269,4.55612,6,0.0156225,11,0.000871446,-2.3414,-0.154695,-0.381396,-67.9645,0.191269,
2,1,0,1,0,7354.94,0.19307,0.192795,4.46977,6,0.0157073,11,0.00086175,-2.34971,-0.179943,-0.327881,-57.1782,0.192795,
2,1,0,1,0,7354.96,0.194559,0.194295,4.39399,6,0.0157897,11,0.000853731,-2.35714,-0.190265,-0.310093,-53.1005,0.194295,
2,1,0,1,0,7354.98,0.196063,0.195806,4.30828,6,0.0158713,11,0.000843589,-2.3657,-0.195811,-0.301311,-50.6314,0.195806,
2,1,0,1,0,7355,0.197566,0.197295,4.22862,6,0.0159516,11,0.000834284,-2.3738,-0.217492,-0.271275,-44.8269,0.197295,
2,1,0,1,0,7355.02,0.199055,0.198797,4.16405,6,0.0160296,11,0.0008278,-2.38048,-0.233541,-0.252633,-41.0847,0.198797,
2,1,0,1,0,7355.04,0.200559,0.200284,4.09828,6,0.0161073,11,0.000820819,-2.3874,-0.261099,-0.225968,-36.1706,0.200284,
2,1,0,1,0,7355.06,0.202062,0.201787,4.04347,6,0.0161839,11,0.000815919,-2.39325,-0.256055,-0.23042,-36.3443,0.201787,
2,1,0,1,0,7355.08,0.20355,0.20324,3.97978,6,0.0162586,11,0.000808851,-2.40014,-0.272565,-0.216462,-33.7514,0.20324,
2,1,0,1,0,7355.09,0.205053,0.204755,3.92912,6,0.0163331,11,0.000804506,-2.4057,-0.336919,-0.175116,-27.0018,0.204755,
2,1,0,1,0,7355.11,0.20655,0.206251,3.88726,6,0.0164063,11,0.000801751,-2.41036,-0.344574,-0.171226,-26.055,0.2062511,
2,1,0,1,0,7355.13,0.208046,0.207785,3.85685,6,0.016479,11,0.000801396,-2.41377,-0.297692,-0.198191,-29.7823,0.2077854,
2,1,0,1,0,7355.15,0.20955,0.209275,3.81331,6,0.0165512,11,0.000798031,-2.4187,-0.28033,-0.210466,-31.3571,0.209275,
2,1,0,1,0,7355.17,0.211039,0.210764,3.77364,6,0.0166218,11,0.000795349,-2.42324,-0.302777,-0.194863,-28.7323,0.210764,
2,1,0,1,0,7355.19,0.212543,0.212252,3.74268,6,0.0166924,11,0.00079439,-2.42682,-0.368861,-0.159952,-23.3541,0.212252,
2,1,0,1,0,7355.21,0.214046,0.21376,3.71341,6,0.0167625,11,0.000793779,-2.43023,-0.390961,-0.15091,-21.8604,0.21376,
2,1,0,1,0,7355.23,0.215535,0.215271,3.68521,6,0.0168312,11,0.000793321,-2.43354,-0.384729,-0.153355,-22.0185,0.215271,
2,1,0,1,0,7355.24,0.217039,0.216762,3.65041,6,0.0169001,11,0.00079127,-2.43766,-0.456793,-0.129161,-18.4185,0.216762,
2,1,0,1,0,7355.26,0.218543,0.21824,3.6314,6,0.0169685,11,0.000792516,-2.43993,-0.700471,-0.084229,-11.9223,0.2182398,
2,1,0,1,0,7355.28,0.22003,0.219772,3.60991,6,0.0170357,11,0.000793357,-2.4425,-0.675608,-0.0873288,-12.2766,0.219772,
2,1,0,1,0,7355.3,0.221534,0.221234,3.57993,6,0.0171033,11,0.000792004,-2.44613,-0.598899,-0.0985142,-13.7368,0.221234,
2,1,0,1,0,7355.32,0.22303,0.222725,3.55215,6,0.0171701,11,0.000791152,-2.44951,-0.638659,-0.0923811,-12.8224,0.222725,
2,1,0,1,0,7355.34,0.224526,0.224232,3.53451,6,0.0172363,11,0.000792549,-2.45167,-0.678558,-0.086949,-11.9947,0.224232,
2,1,0,1,0,7355.36,0.22603,0.225783,3.51282,6,0.0173026,11,0.000793136,-2.45434,-0.876617,-0.0673042,-9.22895,0.225783,
2,1,0,1,0,7355.38,0.227519,0.227235,3.4946,6,0.0173679,11,0.000794096,-2.4566,-0.642067,-0.0918908,-12.5403,0.227235,
2,1,0,1,0,7355.39,0.229023,0.228751,3.47578,6,0.0174335,11,0.000795088,-2.45895,-0.664892,-0.0887362,-12.0576,0.228751,
2,1,0,1,0,7355.41,0.230526,0.230246,3.45746,6,0.0174988,11,0.000796065,-2.46124,-0.811226,-0.0727294,-9.84632,0.230246,
2,1,0,1,0,7355.43,0.232016,0.231762,3.44687,6,0.0175631,11,0.000798853,-2.46258,-0.817503,-0.072171,-9.70647,0.2317618,
2,1,0,1,0,7355.45,0.233519,0.233222,3.43185,6,0.0176279,11,0.000800382,-2.46447,-0.627816,-0.0939767,-12.5793,0.233222,
2,1,0,1,0,7355.47,0.235023,0.234784,3.42282,6,0.0176924,11,0.000803625,-2.46562,-0.6676,-0.0883762,-11.8007,0.234784,
2,1,0,1,0,7355.49,0.23651,0.236217,3.39734,6,0.0177558,11,0.000802511,-2.46886,-0.688918,-0.0856416,-11.3913,0.236217,
2,1,0,1,0,7355.51,0.238014,0.237751,3.39408,6,0.0178197,11,0.000806948,-2.46928,-0.922753,-0.0639391,-8.45788,0.237751,
2,1,0,1,0,7355.53,0.23951,0.239247,3.387,6,0.0178831,11,0.000810331,-2.47018,-0.822183,-0.0717602,-9.45899,0.239247,
2,1,0,1,0,7355.54,0.241006,0.240735,3.37423,6,0.0179463,11,0.000812296,-2.47182,-0.750881,-0.0785743,-10.3268,0.240735,
2,1,0,1,0,7355.56,0.24251,0.242228,3.35181,6,0.0180094,11,0.000811902,-2.47472,-1.34688,-0.0438051,-5.73847,0.242228,
2,1,0,1,0,7355.58,0.243999,0.243733,3.35234,6,0.0180717,11,0.000817075,-2.47465,-1.70509,-0.0346022,-4.51867,0.243733,
2,1,0,1,0,7355.6,0.245503,0.245246,3.34406,6,0.0181346,11,0.000820117,-2.47573,-1.45931,-0.0404302,-5.25737,0.245246,
2,1,0,1,0,7355.62,0.247006,0.246728,3.33006,6,0.0181973,11,0.000821618,-2.47755,-1.41366,-0.0417356,-5.41094,0.246728,
2,1,0,1,0,7355.64,0.248496,0.248237,3.31088,6,0.0182591,11,0.000821883,-2.48006,-1.57647,-0.0374253,-4.83948,0.248237,
2,1,0,1,0,7355.66,0.249999,0.249728,3.29828,6,0.0183212,11,0.000823673,-2.48171,-2.16927,-0.0271981,-3.50721,0.249728,
2,1,0,1,0,7355.68,0.251503,0.251248,3.28968,6,0.0183833,11,0.000826526,-2.48285,-2.63317,-0.0224065,-2.88005,0.251248,
2,1,0,1,0,7355.69,0.25299,0.252744,3.27576,6,0.0184445,11,0.000827928,-2.48469,-1.06775,-0.0552563,-7.07679,0.252744,
2,1,0,1,0,7355.71,0.254494,0.254209,3.26986,6,0.0185063,11,0.000831228,-2.48547,-1.09709,-0.0537786,-6.87671,0.254209,
2,1,0,1,0,7355.73,0.25599,0.255708,3.25692,6,0.0185674,11,0.00083282,-2.48719,-0.916119,-0.0644021,-8.20963,0.255708,
2,1,0,1,0,7355.75,0.257487,0.25719,3.25434,6,0.0186284,11,0.000836981,-2.48754,-1.07311,-0.0549805,-6.98711,0.25719,
2,1,0,1,0,7355.77,0.25899,0.258719,3.25587,6,0.0186896,11,0.000842353,-2.48733,-1.18858,-0.0496392,-6.28859,0.258719,
2,1,0,1,0,7355.79,0.260479,0.260198,3.24399,6,0.0187501,11,0.000844081,-2.48892,-0.854073,-0.0690808,-8.73793,0.2601985,
2,1,0,1,0,7355.81,0.261983,0.261685,3.2322,6,0.0188109,11,0.00084582,-2.4905,-1.00101,-0.0589406,-7.43524,0.261685,
2,1,0,1,0,7355.83,0.263486,0.263196,3.22691,6,0.0188716,11,0.00084931,-2.49121,-2.24816,-0.0262437,-3.29689,0.263196,
2,1,0,1,0,7355.84,0.264974,0.264672,3.22069,6,0.0189315,11,0.000852429,-2.49205,-1.3711,-0.0430312,-5.40071,0.2646724,
2,1,0,1,0,7355.86,0.266477,0.266148,3.21188,6,0.0189919,11,0.000854835,-2.49324,-1.82631,-0.0323057,-4.03827,0.266148,
2,1,0,1,0,7355.88,0.267981,0.267659,3.19319,6,0.0190521,11,0.000854687,-2.49577,-1.95123,-0.0302374,-3.77735,0.267659,
2,1,0,1,0,7355.9,0.26947,0.269197,3.19423,6,0.0191115,11,0.000859877,-2.49563,-12.8625,-0.00458698,-0.571314,0.269197,
2,1,0,1,0,7355.92,0.270974,0.270695,3.18934,6,0.0191715,11,0.000863339,-2.4963,-2.64857,-0.0222762,-2.76343,0.270695,
2,1,0,1,0,7355.94,0.27247,0.272177,3.18037,6,0.0192311,11,0.000865625,-2.49752,-1.55719,-0.0378887,-4.69407,0.272177,
2,1,0,1,0,7355.96,0.273967,0.273728,3.1608,6,0.0192904,11,0.000865199,-2.5002,-1.36042,-0.043369,-5.36221,0.273728,
2,1,0,1,0,7355.97,0.27547,0.27518,3.1491,6,0.0193499,11,0.000866569,-2.50181,-1.7694,-0.0333446,-4.11597,0.27518,
2,1,0,1,0,7355.99,0.276959,0.276681,3.14653,6,0.0194086,11,0.000870585,-2.50217,-2.19831,-0.0268387,-3.30133,0.276681,
2,1,0,1,0,7356.01,0.278463,0.278205,3.14112,6,0.0194678,11,0.000873875,-2.50292,-1.11653,-0.0528422,-6.47816,0.278205,
2,1,0,1,0,7356.03,0.279967,0.279699,3.1346,6,0.0195269,11,0.000876744,-2.50382,-1.23937,-0.0476048,-5.82633,0.279699,
2,1,0,1,0,7356.05,0.281454,0.281172,3.12738,6,0.0195852,11,0.000879333,-2.50482,-0.894973,-0.0659238,-8.05317,0.281172,
2,1,0,1,0,7356.07,0.282958,0.282671,3.12354,6,0.019644,11,0.000882934,-2.50535,-1.23638,-0.0477198,-5.81075,0.282671,
2,1,0,1,0,7356.09,0.284461,0.284175,3.11987,6,0.0197027,11,0.00088659,-2.50586,-1.15687,-0.0509997,-6.19716,0.284175,
2,1,0,1,0,7356.11,0.28595,0.285685,3.11053,6,0.0197607,11,0.000888629,-2.50717,-0.86515,-0.0681962,-8.27347,0.2856845,
2,1,0,1,0,7356.12,0.287454,0.287188,3.09903,6,0.019819,11,0.000890002,-2.50877,-1.04102,-0.0566751,-6.86458,0.287188,
2,1,0,1,0,7356.14,0.28895,0.288613,3.09909,6,0.0198769,11,0.000894438,-2.50877,-2.72659,-0.0216388,-2.60973,0.2886129,
2,1,0,1,0,7356.16,0.290447,0.290165,3.09252,6,0.0199347,11,0.000897339,-2.50969,-2.64959,-0.0222676,-2.6813,0.290165,
2,1,0,1,0,7356.18,0.29195,0.291676,3.08323,6,0.0199928,11,0.000899304,-2.51099,-1.53297,-0.0384873,-4.62135,0.291676,
2,1,0,1,0,7356.2,0.29344,0.293178,3.06829,6,0.02005,11,0.000899557,-2.5131,-3.1846,-0.0185267,-2.22321,0.293178,
2,1,0,1,0,7356.22,0.294943,0.294656,3.06512,6,0.0201077,11,0.000903157,-2.51355,-7.25621,-0.00813097,-0.973607,0.294656,
2,1,0,1,0,7356.24,0.296447,0.296175,3.0558,6,0.0201653,11,0.000905051,-2.51487,-7.64782,-0.00771462,-0.92149,0.296175,
2,1,0,1,0,7356.26,0.297934,0.297705,3.04796,6,0.0202222,11,0.000907394,-2.51599,-2.54694,-0.023165,-2.75864,0.297705,
2,1,0,1,0,7356.27,0.299438,0.299167,3.03466,6,0.0202796,11,0.000907869,-2.51789,-0.0200316,-2.94535,-307.67,0.299167,
2,1,0,1,0,7356.28,0.300012,0.299689,3.03618,6,0.0203009,11,0.00090991,-2.51767,0.000362541,162.74,4094.35,0.2996892,
2,1,0,1,0,7356.3,0.298737,0.298477,0.459018,6,0.0203252,11,0.000137006,-3.33817,0.00562186,10.4948,1160.78,0.298477,
2,0,0,1,0,7356.32,0.29724,0.29695,-0.624734,6,0.0203219,11,-0.000185515,-3.20431,0.0934351,0.631455,562.636,0.29695,
2,0,0,1,0,7356.33,0.295744,0.295499,-1.0204,6,0.020306,11,-0.000301528,-2.99123,-0.00801805,-7.3584,206.668,0.295499,
2,0,0,1,0,7356.35,0.29424,0.29392,-1.18318,6,0.0202852,11,-0.00034776,-2.92695,-0.0274776,-2.1472,92.0127,0.29392,
2,0,0,1,0,7356.37,0.292751,0.292437,-1.26941,6,0.0202624,11,-0.000371223,-2.8964,-0.0501871,-1.1756,57.0763,0.292437,
2,0,0,1,0,7356.39,0.291248,0.290938,-1.34432,6,0.0202379,11,-0.000391112,-2.8715,-0.0652603,-0.904072,46.7678,0.2909376,
2,0,0,1,0,7356.41,0.289744,0.289454,-1.39728,6,0.0202121,11,-0.000404447,-2.85472,-0.0829158,-0.711566,38.4769,0.289454,
2,0,0,1,0,7356.43,0.288257,0.287973,-1.44651,6,0.0201856,11,-0.000416556,-2.83968,-0.0977114,-0.603819,33.914,0.2879729,
2,0,0,1,0,7356.45,0.286753,0.286467,-1.48434,6,0.020158,11,-0.000425215,-2.82847,-0.109157,-0.540505,31.4336,0.2864674,
2,0,0,1,0,7356.47,0.285249,0.284947,-1.52923,6,0.0201296,11,-0.000435751,-2.81553,-0.114356,-0.515931,30.9193,0.284947,
2,0,0,1,0,7356.48,0.28376,0.283445,-1.5715,6,0.0201006,11,-0.000445434,-2.80369,-0.127162,-0.463974,28.5032,0.283445,
2,0,0,1,0,7356.5,0.282257,0.28193,-1.61166,6,0.0200705,11,-0.000454375,-2.79273,-0.165495,-0.356507,22.4216,0.28193,
2,0,0,1,0,7356.52,0.28076,0.280441,-1.65065,6,0.0200399,11,-0.000462912,-2.78234,-0.183525,-0.321481,20.7172,0.280441,
2,0,0,1,0,7356.54,0.279264,0.278968,-1.68287,6,0.0200087,11,-0.000469467,-2.77395,-0.199635,-0.29554,19.4585,0.278968,
2,0,0,1,0,7356.56,0.27776,0.277479,-1.71723,6,0.0199767,11,-0.000476496,-2.76517,-0.201491,-0.292817,19.5777,0.277479,
2,0,0,1,0,7356.58,0.276271,0.275952,-1.75454,6,0.0199443,11,-0.000484167,-2.75584,-0.222304,-0.265402,18.0981,0.275952,
2,0,0,1,0,7356.6,0.274767,0.27446,-1.78458,6,0.0199111,11,-0.000489798,-2.74846,-0.257095,-0.229488,15.9331,0.27446,
2,0,0,1,0,7356.62,0.273264,0.272953,-1.80697,6,0.0198774,11,-0.000493217,-2.74305,-0.241866,-0.243936,17.2414,0.272953,
2,0,0,1,0,7356.63,0.271776,0.271448,-1.84253,6,0.0198435,11,-0.00050015,-2.73459,-0.211628,-0.278791,19.9882,0.271448,
2,0,0,1,0,7356.65,0.270273,0.269965,-1.86883,6,0.0198087,11,-0.000504518,-2.72843,-0.221631,-0.266208,19.364,0.269965,
2,0,0,1,0,7356.67,0.268769,0.268455,-1.89766,6,0.0197733,11,-0.000509436,-2.72178,-0.259708,-0.227178,16.7463,0.268455,
2,0,0,1,0,7356.69,0.26728,0.266946,-1.91204,6,0.0197379,11,-0.00051041,-2.7185,-0.259224,-0.227602,17.0068,0.266946,
2,0,0,1,0,7356.71,0.265777,0.26547,-1.93724,6,0.0197017,11,-0.000514278,-2.71282,-0.239225,-0.24663,18.6704,0.26547,
2,0,0,1,0,7356.73,0.26428,0.263976,-1.96851,6,0.0196652,11,-0.00051964,-2.70586,-0.233436,-0.252746,19.3416,0.263976,
2,0,0,1,0,7356.75,0.262784,0.262475,-1.98676,6,0.0196282,11,-0.000521476,-2.70185,-0.319012,-0.184946,14.3049,0.262475,
2,0,0,1,0,7356.77,0.26128,0.260963,-2.00205,6,0.0195905,11,-0.00052246,-2.69853,-0.324225,-0.181972,14.2803,0.260963,
2,0,0,1,0,7356.78,0.259791,0.259468,-2.02494,6,0.019553,11,-0.000525407,-2.69359,-0.288375,-0.204595,16.2442,0.259468,
2,0,0,1,0,7356.8,0.258287,0.257961,-2.04455,6,0.0195147,11,-0.000527413,-2.6894,-0.311347,-0.189499,15.178,0.257961,
2,0,0,1,0,7356.82,0.256786,0.256503,-2.07064,6,0.0194758,11,-0.000531126,-2.6839,-0.383836,-0.153712,12.4341,0.256503,
2,0,0,1,0,7356.84,0.255296,0.25502,-2.09439,6,0.0194369,11,-0.000534111,-2.67894,-0.49913,-0.118206,9.67173,0.25502,
2,0,0,1,0,7356.86,0.253793,0.253497,-2.11246,6,0.0193974,11,-0.000535502,-2.67521,-0.527638,-0.111819,9.23363,0.2534968,
2,0,0,1,0,7356.88,0.252289,0.251968,-2.13848,6,0.0193574,11,-0.00053883,-2.66989,-0.412434,-0.143053,11.9024,0.251968,
2,0,0,1,0,7356.9,0.2508,0.250503,-2.16098,6,0.0193174,11,-0.00054133,-2.66535,-0.466442,-0.12649,10.6502,0.250503,
2,0,0,1,0,7356.92,0.249296,0.249003,-2.18318,6,0.0192767,11,-0.00054362,-2.66091,-0.477865,-0.123466,10.4918,0.249003,
2,0,0,1,0,7356.93,0.2478,0.24753,-2.19576,6,0.0192358,11,-0.000543517,-2.65841,-0.396128,-0.148942,12.7712,0.24753,
2,0,0,1,0,7356.95,0.246304,0.246009,-2.22073,6,0.0191946,11,-0.000546321,-2.6535,-0.319214,-0.184829,15.9911,0.246009,
2,0,0,1,0,7356.97,0.2448,0.244478,-2.24434,6,0.0191527,11,-0.000548693,-2.64891,-0.30354,-0.194373,16.9624,0.2444784,
2,0,0,1,0,7356.99,0.243313,0.243029,-2.25851,6,0.0191108,11,-0.000548882,-2.64618,-0.373366,-0.158022,13.9039,0.243029,
2,0,0,1,0,7357.01,0.241809,0.241492,-2.2635,6,0.0190682,11,-0.000546618,-2.64522,-0.378663,-0.155811,13.8164,0.241492,
2,0,0,1,0,7357.03,0.240306,0.239985,-2.28933,6,0.0190253,11,-0.000549405,-2.64029,-0.4054,-0.145535,13.0346,0.239985,
2,0,0,1,0,7357.05,0.238816,0.238513,-2.30985,6,0.0189825,11,-0.00055093,-2.63642,-0.333335,-0.176999,15.9528,0.2385129,
2,0,0,1,0,7357.07,0.237313,0.236987,-2.32896,6,0.0189388,11,-0.000551933,-2.63284,-0.476353,-0.123858,11.2424,0.236987,
2,0,0,1,0,7357.08,0.235809,0.235476,-2.34361,6,0.0188948,11,-0.000551864,-2.63011,-0.42999,-0.137212,12.6022,0.235476,
2,0,0,1,0,7357.1,0.23432,0.234009,-2.3655,6,0.0188509,11,-0.000553548,-2.62608,-0.477356,-0.123597,11.4469,0.234009,
2,0,0,1,0,7357.12,0.232816,0.232519,-2.3853,6,0.0188062,11,-0.000554627,-2.62246,-0.468568,-0.125916,11.734,0.232519,
2,0,0,1,0,7357.14,0.23132,0.231034,-2.40681,6,0.0187613,11,-0.000556055,-2.61856,-0.52581,-0.112208,10.5352,0.231034,
2,0,0,1,0,7357.16,0.229824,0.229528,-2.43096,6,0.018716,11,-0.000557973,-2.61422,-0.603374,-0.0977835,9.26738,0.229528,
2,0,0,1,0,7357.18,0.22832,0.228005,-2.44839,6,0.0186703,11,-0.000558245,-2.61112,-0.542917,-0.108672,10.3741,0.228005,
2,0,0,1,0,7357.2,0.226833,0.226535,-2.47041,6,0.0186246,11,-0.000559634,-2.60723,-0.373584,-0.15793,15.1858,0.226535,
2,0,0,1,0,7357.22,0.225329,0.225016,-2.48952,6,0.018578,11,-0.000560182,-2.60388,-0.414337,-0.142396,13.8121,0.225016,
2,0,0,1,0,7357.23,0.223825,0.223519,-2.51163,6,0.018531,11,-0.000561399,-2.60004,-0.454733,-0.129747,12.6833,0.223519,
2,0,0,1,0,7357.25,0.222336,0.222046,-2.52498,6,0.0184842,11,-0.000560662,-2.59774,-0.392322,-0.150387,14.8312,0.222046,
2,0,0,1,0,7357.27,0.220833,0.220544,-2.54842,6,0.0184366,11,-0.000562039,-2.59373,-0.348512,-0.169291,16.8294,0.220544,
2,0,0,1,0,7357.29,0.219329,0.219008,-2.57721,6,0.0183884,11,-0.000564429,-2.58885,-0.328823,-0.179428,17.9682,0.219008,
2,0,0,1,0,7357.31,0.21784,0.217543,-2.59528,6,0.0183404,11,-0.000564583,-2.58582,-0.410231,-0.143822,14.5231,0.217543,
2,0,0,1,0,7357.33,0.216336,0.216017,-2.60689,6,0.0182914,11,-0.000563134,-2.58388,-0.429431,-0.137391,14.0146,0.216017,
2,0,0,1,0,7357.35,0.21484,0.214543,-2.63193,6,0.0182424,11,-0.000564664,-2.57972,-0.377771,-0.156179,16.0786,0.214543,
2,0,0,1,0,7357.36,0.213343,0.213016,-2.65422,6,0.0181929,11,-0.00056539,-2.57606,-0.355427,-0.165997,17.2373,0.213016,
2,0,0,1,0,7357.38,0.21184,0.211537,-2.67749,6,0.0181427,11,-0.000566389,-2.57227,-0.425248,-0.138742,14.5118,0.211537,
2,0,0,1,0,7357.4,0.210352,0.210053,-2.70212,6,0.0180925,11,-0.000567589,-2.5683,-0.419075,-0.140786,14.8734,0.210053,
2,0,0,1,0,7357.42,0.208849,0.208555,-2.72432,6,0.0180415,11,-0.00056817,-2.56474,-0.350271,-0.168441,17.9962,0.208555,
2,0,0,1,0,7357.44,0.207345,0.207049,-2.7528,6,0.0179899,11,-0.000569964,-2.56023,-0.355638,-0.165899,17.8624,0.207049,
2,0,0,1,0,7357.46,0.205856,0.205567,-2.79836,6,0.0179381,11,-0.00057525,-2.5531,-0.375849,-0.156978,17.0639,0.205567,
2,0,0,1,0,7357.48,0.204353,0.204052,-2.81925,6,0.0178854,11,-0.000575273,-2.54987,-0.533603,-0.110569,12.16,0.204052,
2,0,0,1,0,7357.5,0.202849,0.202539,-2.84479,6,0.0178322,11,-0.00057618,-2.54595,-0.388056,-0.15204,16.8798,0.202539,
2,0,0,1,0,7357.51,0.20136,0.201031,-2.87503,6,0.0177791,11,-0.000577971,-2.54136,-0.312723,-0.188665,21.133,0.201031,
2,0,0,1,0,7357.53,0.199856,0.199565,-2.9042,6,0.0177248,11,-0.000579577,-2.53697,-0.302297,-0.195172,22.1264,0.199565,
2,0,0,1,0,7357.55,0.19836,0.198048,-2.94609,6,0.0176702,11,-0.000583467,-2.53075,-0.290769,-0.202911,23.2546,0.198048,
2,0,0,1,0,7357.57,0.196863,0.196568,-2.96583,6,0.0176149,11,-0.000582986,-2.52785,-0.283419,-0.208172,24.1442,0.196568,
2,0,0,1,0,7357.59,0.19536,0.195041,-3.00562,6,0.0175588,11,-0.000586217,-2.52207,-0.243712,-0.242089,28.4295,0.195041,
2,0,0,1,0,7357.61,0.193872,0.193548,-3.05139,6,0.0175025,11,-0.000590591,-2.5155,-0.223218,-0.264316,31.4054,0.193548,
2,0,0,1,0,7357.63,0.192369,0.192051,-3.08374,6,0.0174448,11,-0.000592237,-2.51092,-0.248741,-0.237194,28.5265,0.192051,
2,0,0,1,0,7357.65,0.190865,0.190542,-3.11937,6,0.0173864,11,-0.000594371,-2.50593,-0.24427,-0.241536,29.4838,0.1905417,
2,0,0,1,0,7357.66,0.189376,0.189076,-3.1635,6,0.0173279,11,-0.000598141,-2.49983,-0.240828,-0.244988,30.3629,0.189076,
2,0,0,1,0,7357.68,0.187872,0.187548,-3.21355,6,0.0172678,11,-0.000602694,-2.49302,-0.223272,-0.264251,33.1999,0.187548,
2,0,0,1,0,7357.7,0.186369,0.186087,-3.26271,6,0.0172068,11,-0.000607149,-2.48642,-0.241768,-0.244036,31.1391,0.186087,
2,0,0,1,0,7357.72,0.18488,0.184548,-3.32182,6,0.0171454,11,-0.000613034,-2.47862,-0.22727,-0.259603,33.665,0.1845476,
2,0,0,1,0,7357.74,0.183376,0.183082,-3.37339,6,0.0170825,11,-0.000617608,-2.47193,-0.219081,-0.269307,35.5578,0.183082,
2,0,0,1,0,7357.76,0.18188,0.181583,-3.44494,6,0.0170188,11,-0.000625542,-2.46282,-0.186945,-0.315601,42.3761,0.181583,
2,0,0,1,0,7357.78,0.180383,0.180021,-3.51297,6,0.0169538,11,-0.000632409,-2.45432,-0.18468,-0.319472,43.7283,0.180021,
2,0,0,1,0,7357.8,0.17888,0.178534,-3.58171,6,0.0168872,11,-0.000639459,-2.44591,-0.18223,-0.323767,45.2156,0.178534,
2,0,0,1,0,7357.81,0.177392,0.177036,-3.64904,6,0.01682,11,-0.000646011,-2.43782,-0.158666,-0.37185,53.0399,0.177036,
2,0,0,1,0,7357.83,0.175889,0.175601,-3.73147,6,0.0167507,11,-0.000655251,-2.42812,-0.150809,-0.391223,56.9863,0.175601,
2,0,0,1,0,7357.85,0.174385,0.174097,-3.81878,6,0.0166798,11,-0.00066484,-2.41808,-0.139513,-0.422899,63.0543,0.174097,
2,0,0,1,0,7357.87,0.172896,0.17254,-3.91106,6,0.0166079,11,-0.000674816,-2.40771,-0.134894,-0.43738,66.7345,0.17254,
2,0,0,1,0,7357.89,0.171392,0.171082,-4.00184,6,0.0165335,11,-0.000684644,-2.39774,-0.128601,-0.458784,71.8408,0.1710822,
2,0,0,1,0,7357.91,0.169889,0.169583,-4.11471,6,0.0164572,11,-0.000697783,-2.38566,-0.118406,-0.498287,80.2312,0.169583,
2,0,0,1,0,7357.93,0.1684,0.168055,-4.2415,6,0.0163795,11,-0.000712808,-2.37248,-0.112534,-0.524287,86.7303,0.1680555,
2,0,0,1,0,7357.95,0.166896,0.16657,-4.35918,6,0.0162986,11,-0.000726107,-2.3606,-0.111797,-0.52774,89.9072,0.16657,
2,0,0,1,0,7357.96,0.165392,0.165091,-4.49555,6,0.0162152,11,-0.000742174,-2.34722,-0.108536,-0.543597,95.6916,0.165091,
2,0,0,1,0,7357.98,0.163905,0.163616,-4.6386,6,0.0161301,11,-0.00075895,-2.33361,-0.103617,-0.569402,103.57,0.163616,
2,0,0,1,0,7358,0.162401,0.162077,-4.80579,6,0.0160412,11,-0.000778907,-2.31823,-0.0988963,-0.596585,112.231,0.162077,
2,0,0,1,0,7358.02,0.160905,0.160607,-4.98633,6,0.0159495,11,-0.000800841,-2.30222,-0.0970879,-0.607697,118.427,0.160607,
2,0,0,1,0,7358.04,0.159409,0.159088,-5.18026,6,0.0158544,11,-0.000824118,-2.28565,-0.0956106,-0.617087,124.832,0.159088,
2,0,0,1,0,7358.06,0.157905,0.157547,-5.38267,6,0.0157552,11,-0.000848023,-2.269,-0.0899538,-0.655892,137.973,0.157547,
2,0,0,1,0,7358.08,0.156416,0.156105,-5.60462,6,0.0156531,11,-0.000874908,-2.25145,-0.084284,-0.700014,153.197,0.156105,
2,0,0,1,0,7358.1,0.154912,0.154596,-5.84816,6,0.0155455,11,-0.000904101,-2.23298,-0.0831037,-0.709956,161.934,0.154596,
2,0,0,1,0,7358.11,0.153409,0.153095,-6.09749,6,0.0154333,11,-0.000933497,-2.21485,-0.0836098,-0.705659,167.875,0.153095,
2,0,0,1,0,7358.13,0.151919,0.151611,-6.35088,6,0.0153176,11,-0.000962862,-2.19717,-0.0812362,-0.726277,180.167,0.151611,
2,0,0,1,0,7358.15,0.150416,0.150127,-6.62675,6,0.0151957,11,-0.000994854,-2.1787,-0.0788031,-0.748701,193.815,0.150127,
2,0,0,1,0,7358.17,0.148912,0.148627,-6.92079,6,0.0150684,11,-0.00102862,-2.15984,-0.0783686,-0.752852,203.221,0.148627,
2,0,0,1,0,7358.19,0.147425,0.147103,-7.21669,6,0.0149368,11,-0.0010616,-2.14166,-0.0833162,-0.708146,198.941,0.147103,
2,0,0,1,0,7358.21,0.145921,0.145631,-7.49516,6,0.0147983,11,-0.00109152,-2.12522,-0.0841652,-0.701002,205.716,0.145631,
2,0,0,1,0,7358.23,0.144425,0.144175,-7.82319,6,0.014655,11,-0.00112791,-2.10662,-0.0849825,-0.694261,212.378,0.144175,
2,0,0,1,0,7358.25,0.142929,0.142646,-8.1471,6,0.0145055,11,-0.00116215,-2.089,-0.0879076,-0.671159,213.227,0.142646,
2,0,0,1,0,7358.26,0.141425,0.141149,-8.47737,6,0.014349,11,-0.00119657,-2.07174,-0.0913126,-0.646132,213.294,0.141149,
2,0,0,1,0,7358.28,0.139936,0.139621,-8.78642,6,0.0141883,11,-0.00122676,-2.05619,-0.0983646,-0.599809,205.596,0.1396205,
2,0,0,1,0,7358.3,0.138432,0.138153,-9.09087,6,0.0140202,11,-0.00125594,-2.04139,-0.103877,-0.567981,201.421,0.138153,
2,0,0,1,0,7358.32,0.136929,0.136655,-9.40172,6,0.0138462,11,-0.0012848,-2.02679,-0.109772,-0.53748,196.836,0.136655,
2,0,0,1,0,7358.34,0.135439,0.135184,-9.69338,6,0.0136686,11,-0.00131039,-2.01352,-0.12137,-0.486118,183.473,0.135184,
2,0,0,1,0,7358.36,0.133936,0.133641,-9.96742,6,0.0134838,11,-0.00133206,-2.00142,-0.131648,-0.448165,173.865,0.133641,
2,0,0,1,0,7358.38,0.132432,0.132161,-10.2228,6,0.013294,11,-0.00135105,-1.99043,-0.139767,-0.422131,168.167,0.132161,
2,0,0,1,0,7358.39,0.130945,0.130634,-10.4722,6,0.0131017,11,-0.00136803,-1.97996,-0.15157,-0.389258,158.699,0.130634,
2,0,0,1,0,7358.41,0.129441,0.129137,-10.6997,6,0.0129026,11,-0.00138173,-1.97063,-0.16222,-0.363704,151.527,0.129137,
2,0,0,1,0,7358.43,0.127945,0.127651,-10.9125,6,0.0127005,11,-0.00139299,-1.96208,-0.189121,-0.31197,132.523,0.127651,
2,0,0,1,0,7358.45,0.126448,0.126153,-11.0879,6,0.0124948,11,-0.00139877,-1.95515,-0.220386,-0.267712,115.663,0.126153,
2,0,0,1,0,7358.47,0.124945,0.124663,-11.2534,6,0.0122847,11,-0.00140288,-1.94872,-0.245235,-0.240586,105.444,0.124663,
2,0,0,1,0,7358.49,0.123456,0.123152,-11.3936,6,0.012074,11,-0.00140315,-1.94334,-0.292984,-0.201376,89.3442,0.123152,
2,0,0,1,0,7358.51,0.121952,0.121632,-11.5021,6,0.0118587,11,-0.00139903,-1.93922,-0.403868,-0.146087,65.4378,0.121632,
2,0,0,1,0,7358.53,0.120449,0.120176,-11.5812,6,0.0116415,11,-0.00139179,-1.93625,-0.526856,-0.111985,50.5573,0.120176,
2,0,0,1,0,7358.54,0.118959,0.11866,-11.6432,6,0.0114254,11,-0.00138157,-1.93393,-0.76015,-0.0776163,35.2315,0.11866,
2,0,0,1,0,7358.56,0.117456,0.117164,-11.6858,6,0.011206,11,-0.00136915,-1.93234,-1.46958,-0.0401475,18.2815,0.1171636,
2,0,0,1,0,7358.58,0.115952,0.115584,-11.7074,6,0.0109859,11,-0.00135319,-1.93154,10.565,0.00558448,-2.54512,0.115584,
2,0,0,1,0,7358.6,0.114465,0.114138,-11.6902,6,0.0107682,11,-0.0013343,-1.93218,1.29369,0.0456061,-20.7768,0.114138,
2,0,0,1,0,7358.62,0.112961,0.11266,-11.6505,6,0.0105487,11,-0.00131254,-1.93365,0.726545,0.0812063,-36.8725,0.11266,
2,0,0,1,0,7358.64,0.111465,0.111171,-11.5935,6,0.0103313,11,-0.00128886,-1.93579,0.52754,0.11184,-50.5096,0.111171,
2,0,0,1,0,7358.66,0.109968,0.109669,-11.5171,6,0.0101153,11,-0.00126307,-1.93866,0.401142,0.14708,-65.936,0.109669,
2,0,0,1,0,7358.68,0.108465,0.108161,-11.411,6,0.00989978,11,-0.00123423,-1.94267,0.318299,0.18536,-82.2978,0.1081612,
2,0,0,1,0,7358.69,0.106976,0.106657,-11.2719,6,0.00968895,11,-0.00120223,-1.948,0.271552,0.21727,-95.4574,0.106657,
2,0,0,1,0,7358.71,0.105472,0.105172,-11.1211,6,0.00947855,11,-0.00116963,-1.95385,0.253989,0.232294,-100.669,0.105172,
2,0,0,1,0,7358.73,0.103968,0.103686,-10.9576,6,0.00927105,11,-0.00113614,-1.96028,0.223634,0.263824,-112.614,0.103686,
2,0,0,1,0,7358.75,0.102479,0.10217,-10.7786,6,0.00906891,11,-0.00110125,-1.96744,0.198943,0.296567,-124.441,0.1021705,
2,0,0,1,0,7358.77,0.100976,0.100717,-10.5655,6,0.00886825,11,-0.00106413,-1.97611,0.181883,0.324385,-133.717,0.100717,
2,0,0,1,0,7358.79,0.0994721,0.0991561,-10.3574,6,0.00867155,11,-0.001027,-1.98475,0.171661,0.343701,-138.967,0.0991561,
2,0,0,1,0,7358.81,0.0979846,0.0976622,-10.1458,6,0.00848078,11,-0.000990858,-1.99371,0.166879,0.353549,-139.988,0.0976622,
2,0,0,1,0,7358.83,0.0964811,0.0961975,-9.92892,6,0.00829194,11,-0.000955138,-2.0031,0.156858,0.376135,-145.823,0.0961975,
2,0,0,1,0,7358.84,0.0949847,0.094662,-9.71642,6,0.00810809,11,-0.000919776,-2.01249,0.15863,0.371936,-141.163,0.09466204,
2,0,0,1,0,7358.86,0.0934883,0.0931841,-9.51222,6,0.00792826,11,-0.000886388,-2.02172,0.165046,0.357477,-132.987,0.0931841,
2,0,0,1,0,7358.88,0.0919847,0.0916905,-9.31855,6,0.00775118,11,-0.000854423,-2.03065,0.17203,0.342964,-124.942,0.09169054,
2,0,0,1,0,7358.9,0.0904955,0.0901813,-9.14814,6,0.00757935,11,-0.000824991,-2.03867,0.173355,0.340342,-121.544,0.0901813,
2,0,0,1,0,7358.92,0.0889919,0.0886829,-8.97872,6,0.00740901,11,-0.000796259,-2.04679,0.181939,0.324284,-113.662,0.0886829,
2,0,0,1,0,7358.94,0.0874884,0.0871495,-8.80938,6,0.00724191,11,-0.000767732,-2.05505,0.196529,0.30021,-103.362,0.0871495,
2,0,0,1,0,7358.96,0.0860009,0.0856668,-8.67001,6,0.00707945,11,-0.000742732,-2.06198,0.216129,0.272985,-92.4105,0.0856668,
2,0,0,1,0,7358.98,0.0844973,0.084225,-8.53789,6,0.00691781,11,-0.000719104,-2.06865,0.232745,0.253496,-84.5124,0.084225,
2,0,0,1,0,7358.99,0.0829938,0.0826912,-8.41603,6,0.00675851,11,-0.000695931,-2.07489,0.250813,0.235235,-77.296,0.0826912,
2,0,0,1,0,7359.01,0.0815045,0.0812266,-8.29995,6,0.00660314,11,-0.000674177,-2.08092,0.27,0.218518,-70.8703,0.0812266,
2,0,0,1,0,7359.03,0.080001,0.0796918,-8.19536,6,0.00644809,11,-0.000653103,-2.08643,0.314416,0.18765,-60.082,0.0796918,
2,0,0,1,0,7359.05,0.0785046,0.0782048,-8.10938,6,0.00629565,11,-0.000634193,-2.09101,0.336691,0.175235,-55.488,0.0782048,
2,0,0,1,0,7359.07,0.0770082,0.0766954,-8.01916,6,0.00614484,11,-0.000615032,-2.09587,0.334206,0.176538,-55.2626,0.0766954,
2,0,0,1,0,7359.09,0.0755046,0.0751906,-7.92689,6,0.0059948,11,-0.000596027,-2.1009,0.347163,0.169949,-52.6695,0.0751906,
2,0,0,1,0,7359.11,0.0740154,0.0737072,-7.85873,6,0.00584795,11,-0.000579245,-2.10465,0.358528,0.164562,-50.523,0.0737072,
2,0,0,1,0,7359.13,0.0725118,0.0722225,-7.78361,6,0.00570085,11,-0.000562151,-2.10882,0.393632,0.149886,-45.548,0.0722225,
2,0,0,1,0,7359.14,0.0710083,0.0707293,-7.71058,6,0.0055551,11,-0.000545363,-2.11291,0.361341,0.163281,-49.1427,0.0707293,
2,0,0,1,0,7359.16,0.0695208,0.0691586,-7.63703,6,0.00541224,11,-0.000528167,-2.11708,0.360182,0.163806,-48.8676,0.0691586,
2,0,0,1,0,7359.18,0.0680173,0.067755,-7.56949,6,0.00526927,11,-0.000512871,-2.12093,0.36504,0.161626,-47.7909,0.067755,
2,0,0,1,0,7359.2,0.0665137,0.0662161,-7.49678,6,0.00512757,11,-0.000496408,-2.12513,0.365719,0.161326,-47.2307,0.0662161,
2,0,0,1,0,7359.22,0.0650244,0.0647277,-7.44008,6,0.00498861,11,-0.000481579,-2.12842,0.34799,0.169545,-49.1564,0.0647277,
2,0,0,1,0,7359.24,0.0635209,0.0631755,-7.37036,6,0.00484946,11,-0.000465626,-2.13251,0.322992,0.182667,-52.4629,0.0631755,
2,0,0,1,0,7359.26,0.0620245,0.0616999,-7.29189,6,0.00471252,11,-0.000449909,-2.13716,0.324671,0.181723,-51.6658,0.0616999,
2,0,0,1,0,7359.28,0.0605281,0.0601886,-7.21835,6,0.00457698,11,-0.000434462,-2.14156,0.330928,0.178286,-50.1355,0.0601886,
2,0,0,1,0,7359.29,0.0590246,0.0587223,-7.13457,6,0.00444212,11,-0.000418959,-2.14663,0.310777,0.189847,-52.8196,0.0587223,
2,0,0,1,0,7359.31,0.0575353,0.0572206,-7.05669,6,0.0043102,11,-0.000403788,-2.1514,0.285379,0.206743,-56.8511,0.0572206,
2,0,0,1,0,7359.33,0.0560317,0.0556939,-6.95823,6,0.00417851,11,-0.000387531,-2.1575,0.285103,0.206943,-56.222,0.05569391,
2,0,0,1,0,7359.35,0.0545282,0.0541945,-6.87447,6,0.00404851,11,-0.000372559,-2.16276,0.294738,0.200178,-53.6822,0.0541945,
2,0,0,1,0,7359.37,0.0530407,0.0527091,-6.78739,6,0.00392148,11,-0.000357757,-2.1683,0.269633,0.218816,-57.9019,0.0527091,
2,0,0,1,0,7359.39,0.0515372,0.0511886,-6.68989,6,0.00379473,11,-0.000342446,-2.17458,0.241018,0.244795,-63.8336,0.0511886,
2,0,0,1,0,7359.41,0.0500336,0.0497315,-6.57474,6,0.00366985,11,-0.000326972,-2.18212,0.229813,0.256731,-66.0107,0.0497315,
2,0,0,1,0,7359.42,0.0485444,0.0482284,-6.48456,6,0.00354828,11,-0.00031274,-2.18812,0.225707,0.261401,-66.2351,0.0482284,
2,0,0,1,0,7359.44,0.0470408,0.046728,-6.38554,6,0.00342719,11,-0.000298383,-2.1948,0.220447,0.267638,-66.7336,0.046728,
2,0,0,1,0,7359.46,0.0455444,0.0452127,-6.2899,6,0.00330856,11,-0.000284384,-2.20136,0.2095,0.281622,-69.1119,0.0452127,
2,0,0,1,0,7359.48,0.044048,0.043734,-6.19365,6,0.00319178,11,-0.000270873,-2.20805,0.203538,0.289872,-70.0737,0.043734,
2,0,0,1,0,7359.5,0.0425445,0.0422667,-6.09197,6,0.0030763,11,-0.000257487,-2.21524,0.219208,0.269151,-64.1192,0.0422667,
2,0,0,1,0,7359.52,0.0410552,0.0407376,-6.00879,6,0.00296382,11,-0.000244784,-2.22121,0.227513,0.259325,-60.7852,0.0407376,
2,0,0,1,0,7359.54,0.0395517,0.0392539,-5.92931,6,0.00285167,11,-0.000232749,-2.227,0.22762,0.259204,-59.8308,0.0392539,
2,0,0,1,0,7359.56,0.0380481,0.0377147,-5.84122,6,0.00274117,11,-0.0002203,-2.2335,0.233241,0.252957,-57.5885,0.0377147,
2,0,0,1,0,7359.57,0.0365606,0.0362446,-5.74942,6,0.00263355,11,-0.000208386,-2.24038,0.245332,0.24049,-54.0133,0.0362446,
2,0,0,1,0,7359.59,0.0350571,0.0347749,-5.67708,6,0.00252624,11,-0.00019742,-2.24588,0.295703,0.199524,-44.203,0.0347749,
2,0,0,1,0,7359.61,0.0335535,0.03322,-5.60728,6,0.00242024,11,-0.000186273,-2.25125,0.314923,0.187347,-41.0066,0.03322,
2,0,0,1,0,7359.63,0.0320643,0.0317383,-5.54142,6,0.00231657,11,-0.000175875,-2.25638,0.323969,0.182116,-39.3881,0.0317383,
2,0,0,1,0,7359.65,0.0305607,0.0302614,-5.47416,6,0.00221297,11,-0.000165656,-2.26168,0.360104,0.163842,-35.089,0.0302614,
2,0,0,1,0,7359.67,0.0290643,0.0287828,-5.43093,6,0.00211101,11,-0.000156317,-2.26513,0.41986,0.140523,-29.8112,0.0287828,
2,0,0,1,0,7359.69,0.0275679,0.0272654,-5.38122,6,0.00200992,11,-0.000146721,-2.26912,0.456039,0.129375,-27.186,0.0272654,
2,0,0,1,0,7359.71,0.0260644,0.0257749,-5.33497,6,0.00190907,11,-0.000137508,-2.27287,0.45709,0.129078,-26.8942,0.0257749,
2,0,0,1,0,7359.72,0.0245751,0.0242806,-5.2922,6,0.0018101,11,-0.000128498,-2.27636,0.482216,0.122352,-25.3299,0.0242806,
2,0,0,1,0,7359.74,0.0230716,0.0227536,-5.26232,6,0.00171083,11,-0.000119737,-2.27882,0.576213,0.102393,-21.0743,0.02275363,
2,0,0,1,0,7359.76,0.021568,0.0213023,-5.23628,6,0.00161205,11,-0.000111545,-2.28098,0.652472,0.0904253,-18.4969,0.0213023,
2,0,0,1,0,7359.78,0.0200805,0.0197787,-5.21186,6,0.0015148,11,-0.000103084,-2.28301,0.628405,0.0938885,-19.1185,0.0197787,
2,0,0,1,0,7359.8,0.018577,0.0182197,-5.19048,6,0.00141695,11,-9.4569e-05,-2.28479,0.731438,0.080663,-16.3588,0.0182197,
2,0,0,1,0,7359.82,0.0170735,0.0167548,-5.1737,6,0.00131956,11,-8.66841e-05,-2.2862,1.01493,0.0581319,-11.754,0.0167548,
2,0,0,1,0,7359.84,0.0155842,0.0152424,-5.1709,6,0.00122343,11,-7.8817e-05,-2.28643,1.83464,0.0321588,-6.48146,0.0152424,
2,0,0,1,0,7359.86,0.0140806,0.0137533,-5.16663,6,0.00112633,11,-7.10581e-05,-2.28679,2.06453,0.0285779,-5.75186,0.0137533,
2,0,0,1,0,7359.87,0.0125842,0.012245,-5.15584,6,0.00102991,11,-6.31333e-05,-2.2877,1.84062,0.0320544,-6.44493,0.012245,
2,0,0,1,0,7359.89,0.0110878,0.0107726,-5.14298,6,0.000933749,11,-5.54032e-05,-2.28879,3.26281,0.0180826,-3.63125,0.0107726,
2,0,0,1,0,7359.91,0.00958429,0.00924219,-5.13994,6,0.000837137,11,-4.75043e-05,-2.28904,-2.42127,-0.0243674,4.88688,0.00924219,
2,0,0,1,0,7359.93,0.0080968,0.00779088,-5.14199,6,0.000741574,11,-4.00606e-05,-2.28887,-2.20653,-0.0267388,5.36677,0.007790877,
2,0,0,1,0,7359.95,0.00659326,0.00627241,-5.14614,6,0.000644883,11,-3.22787e-05,-2.28852,-2.27328,-0.0259537,5.20755,0.00627241,
2,0,0,1,0,7359.97,0.00508972,0.00474066,-5.13834,6,0.000548116,11,-2.43591e-05,-2.28918,-1.76273,-0.0334708,6.72383,0.00474066,
2,0,0,1,0,7359.99,0.00360044,0.00327195,-5.1469,6,0.000452367,11,-1.68404e-05,-2.28845,-0.569982,-0.103512,20.945,0.00327195,
2,0,0,1,0,7360.01,0.0020969,0.00172384,-5.22317,6,0.000355192,11,-9.00389e-06,-2.28207,-0.783776,-0.0752766,15.2061,0.00172384,
2,0,0,1,0,7360.02,0.000593362,0.000251727,-5.20792,6,0.000256982,11,-1.31097e-06,-2.28334, , , ,0.000251727,
2,0,0,1,0,7360.03,0.000199195,-0.000187895,-5.20626,6,0.000231474,11,9.7823e-07,-2.28347, , , ,-0.000187895,