File: Figure_codes/Fig_3-5/rawdata_trumpetplot_data/before 10th/20221101_1-115_002_TrumpetPlot_ParaChange_16_CV_C01_7.csv
mode,ox/red,error,control changes,counter inc.,time/s,control/V,Ewe/V,<I>/mA,cycle number,(Q-Qo)/C,I Range,P/W,log(|I|),Tafel slope mV/dec,alpha_eff,dI/d(E-IR),E-IR/V,
2,1,0,1,0,9840.48,2.44065e-05,-0.00091703,69.9665,8,0.0000000E+000,10,-6.41614e-05,-1.15511, , , ,-0.0009170305,
2,1,0,1,0,9840.48,0.00312067,0.00284105,61.4491,8,0.000199684,10,0.00017458,-1.21148, , , ,0.00284105,
2,1,0,1,0,9840.48,0.00711584,0.00679319,58.0521,8,0.000437441,10,0.000394359,-1.23618, , , ,0.00679319,
2,1,0,1,0,9840.49,0.011111,0.01074,56.6502,8,0.000666431,10,0.000608424,-1.2468,-0.36498,-0.161653,-368.855,0.01074,
2,1,0,1,0,9840.49,0.0151062,0.0147367,55.9347,8,0.000891393,10,0.000824292,-1.25232,-0.803444,-0.0734339,-162.614,0.0147367,
2,1,0,1,0,9840.5,0.0191014,0.0187461,55.5824,8,0.00111436,10,0.00104195,-1.25506,-1.55405,-0.0379654,-82.9467,0.0187461,
2,1,0,1,0,9840.5,0.0231465,0.0227947,55.4501,8,0.00133641,10,0.00126397,-1.2561,-3.17299,-0.0185944,-40.3556,0.0227947,
2,1,0,1,0,9840.5,0.0271416,0.0267925,55.3187,8,0.00155791,10,0.00148212,-1.25713,-6.77264,-0.00871152,-18.8457,0.0267925,
2,1,0,1,0,9840.51,0.0311368,0.0307679,55.2877,8,0.00177912,10,0.00170109,-1.25737,-14.2677,-0.0041352,-8.93726,0.0307679,
2,1,0,1,0,9840.51,0.035132,0.0347656,55.2805,8,0.00200024,10,0.00192186,-1.25743,25.0175,0.00235835,5.09522,0.0347656,
2,1,0,1,0,9840.52,0.0391272,0.0387284,55.3077,8,0.00222142,10,0.00214198,-1.25721,9.65118,0.00611324,13.2158,0.0387284,
2,1,0,1,0,9840.52,0.0431223,0.0427707,55.4001,8,0.00244284,10,0.0023695,-1.25649,5.7361,0.0102857,22.262,0.0427707,
2,1,0,1,0,9840.52,0.0471175,0.0467567,55.499,8,0.00266463,10,0.00259495,-1.25571,4.25102,0.013879,30.088,0.0467567,
2,1,0,1,0,9840.53,0.0511127,0.0507492,55.6364,8,0.00288691,10,0.0028235,-1.25464,3.84678,0.0153375,33.3198,0.0507492,
2,1,0,1,0,9840.53,0.0551079,0.0547448,55.7896,8,0.00310976,10,0.00305419,-1.25345,2.88639,0.0204408,44.5566,0.0547448,
2,1,0,1,0,9840.54,0.059103,0.0587117,55.9313,8,0.00333321,10,0.00328382,-1.25235,2.24902,0.0262337,57.4313,0.0587117,
2,1,0,1,0,9840.54,0.0631481,0.0627063,56.2097,8,0.00355739,10,0.0035247,-1.25019,1.79942,0.0327884,72.1282,0.0627063,
2,1,0,1,0,9840.54,0.0671433,0.0667698,56.5564,8,0.00378296,10,0.00377626,-1.24752,1.45673,0.0405017,89.5377,0.0667698,
2,1,0,1,0,9840.55,0.0711385,0.0707961,56.9473,8,0.00400999,10,0.00403165,-1.24453,1.30876,0.0450809,100.305,0.07079614,
2,1,0,1,0,9840.55,0.0751337,0.074744,57.3668,8,0.00423865,10,0.00428783,-1.24134,1.19739,0.0492737,110.452,0.074744,
2,1,0,1,0,9840.56,0.0791288,0.0787821,57.8222,8,0.00446905,10,0.00455535,-1.23791,1.08154,0.0545517,123.325,0.0787821,
2,1,0,1,0,9840.56,0.083124,0.0828074,58.3278,8,0.00470141,10,0.00482997,-1.23412,0.974882,0.0605202,138.09,0.0828074,
2,1,0,1,0,9840.56,0.0871192,0.086768,58.917,8,0.00493596,10,0.00511211,-1.22976,0.872966,0.0675857,155.778,0.086768,
2,1,0,1,0,9840.57,0.0911143,0.0907572,59.5781,8,0.005173,10,0.00540714,-1.22491,0.791662,0.0745268,173.643,0.0907572,
2,1,0,1,0,9840.57,0.0951095,0.0947783,60.314,8,0.00541285,10,0.00571646,-1.21958,0.732961,0.0804954,189.822,0.0947783,
2,1,0,1,0,9840.58,0.0991047,0.0987463,61.0955,8,0.00565573,10,0.00603296,-1.21399,0.6745,0.0874722,209.067,0.09874633,
2,1,0,1,0,9840.58,0.103114,0.102784,61.9573,8,0.00590189,10,0.00636824,-1.20791,0.639362,0.0922796,223.607,0.102784,
2,1,0,1,0,9840.58,0.107145,0.106825,62.9372,8,0.00615184,10,0.00672323,-1.20109,0.606427,0.0972912,239.183,0.106825,
2,1,0,1,0,9840.59,0.11114,0.110812,63.8992,8,0.00640559,10,0.00708077,-1.1945,0.582798,0.101236,252.69,0.110812,
2,1,0,1,0,9840.59,0.115135,0.114776,64.9297,8,0.00666334,10,0.0074524,-1.18756,0.573509,0.102876,260.964,0.114776,
2,1,0,1,0,9840.6,0.119131,0.118784,66.0002,8,0.00692529,10,0.00783976,-1.18045,0.557192,0.105888,272.967,0.118784,
2,1,0,1,0,9840.6,0.123126,0.122795,67.105,8,0.00719159,10,0.00824018,-1.17325,0.544545,0.108347,284.027,0.1227953,
2,1,0,1,0,9840.6,0.127121,0.126776,68.257,8,0.00746242,10,0.00865335,-1.16585,0.533769,0.110535,294.722,0.126776,
2,1,0,1,0,9840.61,0.131116,0.130734,69.4619,8,0.00773796,10,0.009081,-1.15825,0.52593,0.112182,304.319,0.1307335,
2,1,0,1,0,9840.61,0.135111,0.134711,70.6943,8,0.00801839,10,0.00952331,-1.15062,0.517397,0.114032,314.81,0.134711,
2,1,0,1,0,9840.62,0.139106,0.138781,71.9697,8,0.00830385,10,0.00998802,-1.14285,0.508832,0.115952,326.049,0.138781,
2,1,0,1,0,9840.62,0.143102,0.142732,73.2801,8,0.00859444,10,0.0104594,-1.13501,0.501628,0.117617,336.783,0.142732,
2,1,0,1,0,9840.62,0.147147,0.146811,74.7041,8,0.00889058,10,0.0109674,-1.12666,0.493208,0.119625,348.88,0.146811,
2,1,0,1,0,9840.63,0.151142,0.150796,76.1116,8,0.00919235,10,0.0114774,-1.11855,0.487671,0.120983,359.447,0.150796,
2,1,0,1,0,9840.63,0.155137,0.154799,77.5583,8,0.00949982,10,0.012006,-1.11037,0.484402,0.1218,368.922,0.154799,
2,1,0,1,0,9840.64,0.159132,0.158782,79.0493,8,0.0098132,10,0.0125516,-1.1021,0.480891,0.122689,378.719,0.158782,
2,1,0,1,0,9840.64,0.163127,0.162774,80.5929,8,0.0101326,10,0.0131184,-1.0937,0.476626,0.123787,389.535,0.162774,
2,1,0,1,0,9840.64,0.167123,0.166753,82.1548,8,0.0104583,10,0.0136996,-1.08537,0.473272,0.124664,399.891,0.166753,
2,1,0,1,0,9840.65,0.171118,0.170788,83.7865,8,0.0107903,10,0.0143097,-1.07683,0.477121,0.123658,404.341,0.170788,
2,1,0,1,0,9840.65,0.175113,0.174713,85.4197,8,0.0111289,10,0.0149239,-1.06844,0.479507,0.123043,410.02,0.174713,
2,1,0,1,0,9840.66,0.179108,0.178764,87.0583,8,0.011474,10,0.0155628,-1.06019,0.486182,0.121354,412.199,0.178764,
2,1,0,1,0,9840.66,0.183103,0.182717,88.7001,8,0.0118257,10,0.016207,-1.05208,0.503926,0.117081,405.024,0.182717,
2,1,0,1,0,9840.66,0.187146,0.186747,90.3648,8,0.0121839,10,0.0168754,-1.044,0.520035,0.113454,399.461,0.186747,
2,1,0,1,0,9840.67,0.191143,0.190814,91.9411,8,0.0125487,10,0.0175437,-1.03649,0.550301,0.107214,383.89,0.190814,
2,1,0,1,0,9840.67,0.195139,0.19477,93.4524,8,0.0129196,10,0.0182018,-1.02941,0.594697,0.0992102,360.986,0.19477,
2,1,0,1,0,9840.68,0.199134,0.198769,94.8625,8,0.0132964,10,0.0188557,-1.02291,0.648641,0.0909595,335.81,0.198769,
2,1,0,1,0,9840.68,0.203129,0.202806,96.1618,8,0.0136786,10,0.0195022,-1.017,0.737168,0.080036,299.357,0.202806,
2,1,0,1,0,9840.68,0.207124,0.206789,97.3057,8,0.0140657,10,0.0201218,-1.01186,0.875025,0.0674266,254.97,0.206789,
2,1,0,1,0,9840.69,0.211119,0.210846,98.2648,8,0.014457,10,0.0207187,-1.0076,1.14306,0.0516158,196.865,0.210846,
2,1,0,1,0,9840.69,0.215115,0.214811,98.9527,8,0.0148516,10,0.0212561,-1.00457,1.82213,0.0323797,124.214,0.214811,
2,1,0,1,0,9840.7,0.21911,0.218812,99.3128,8,0.0152482,10,0.0217308,-1.00299,6.3189,0.00933707,35.9116,0.2188119,
2,1,0,1,0,9840.7,0.223105,0.222785,99.2927,8,0.0156456,10,0.0221209,-1.00308,-3.67962,-0.0160342,-61.6104,0.222785,
2,1,0,1,0,9840.7,0.227108,0.226801,98.8377,8,0.0160419,10,0.0224165,-1.00508,-1.28365,-0.0459628,-175.602,0.226801,
2,1,0,1,0,9840.71,0.231145,0.230907,97.961,8,0.0164357,10,0.0226199,-1.00895,-0.750419,-0.0786227,-297.255,0.2309069,
2,1,0,1,0,9840.71,0.23514,0.234887,96.49,8,0.0168246,10,0.0226642,-1.01552,-0.517478,-0.114015,-424.428,0.234887,
2,1,0,1,0,9840.72,0.239136,0.238911,94.4992,8,0.0172065,10,0.0225769,-1.02457,-0.389783,-0.151366,-552.139,0.238911,
2,1,0,1,0,9840.72,0.243131,0.24288,92.0134,8,0.0175794,10,0.0223482,-1.03615,-0.315237,-0.187161,-665.102,0.24288,
2,1,0,1,0,9840.72,0.247126,0.246935,89.1113,8,0.0179415,10,0.0220047,-1.05007,-0.264951,-0.222683,-766.824,0.246935,
2,1,0,1,0,9840.73,0.251121,0.250914,85.8305,8,0.0182911,10,0.021536,-1.06636,-0.232547,-0.253712,-842.413,0.250914,
2,1,0,1,0,9840.73,0.255116,0.254877,82.2557,8,0.018627,10,0.0209651,-1.08483,-0.207503,-0.284333,-906.204,0.254877,
2,1,0,1,0,9840.74,0.259111,0.25892,78.5013,8,0.0189482,10,0.0203255,-1.10512,-0.191245,-0.308505,-940.063,0.25892,
2,1,0,1,0,9840.74,0.263107,0.262898,74.6452,8,0.0192541,10,0.0196241,-1.127,-0.18274,-0.322863,-938.185,0.2628983,
2,1,0,1,0,9840.74,0.267102,0.266894,70.8079,8,0.0195446,10,0.0188982,-1.14992,-0.174825,-0.337481,-932.197,0.266894,
2,1,0,1,0,9840.75,0.271147,0.27096,67.1677,8,0.0198201,10,0.0181997,-1.17284,-0.172184,-0.342658,-898.35,0.27096,
2,1,0,1,0,9840.75,0.275142,0.274929,63.5778,8,0.0200812,10,0.0174794,-1.19669,-0.171501,-0.344021,-855.407,0.2749286,
2,1,0,1,0,9840.76,0.279137,0.278951,60.2245,8,0.0203284,10,0.0167997,-1.22023,-0.172545,-0.34194,-807.407,0.278951,
2,1,0,1,0,9840.76,0.283132,0.28291,57.1074,8,0.0205627,10,0.0161563,-1.24331,-0.179059,-0.3295,-739.065,0.28291,
2,1,0,1,0,9840.76,0.287128,0.286903,54.2951,8,0.0207852,10,0.0155774,-1.26524,-0.186666,-0.316073,-674.526,0.286903,
2,1,0,1,0,9840.77,0.291123,0.290903,51.772,8,0.020997,10,0.0150606,-1.28591,-0.198825,-0.296744,-604.487,0.290903,
2,1,0,1,0,9840.77,0.295118,0.294863,49.4912,8,0.0211992,10,0.0145931,-1.30547,-0.207046,-0.28496,-562.504,0.294863,
2,1,0,1,0,9840.78,0.298913,0.298679,47.5755,8,0.0213835,10,0.0142098,-1.32262,-0.093802,-0.628985,-1156.57,0.2986789,
2,1,0,1,0,9840.78,0.300012,0.299804,47.0382,8,0.0214356,10,0.0141022,-1.32755,0.000856517,68.8836,105999,0.299804,
2,1,0,1,0,9840.78,0.298714,0.298705,42.7479,8,0.0214923,10,0.012769,-1.36909,0.0233092,2.53119,3243.51,0.298705,
2,1,0,1,0,9840.78,0.294718,0.294687,30.8342,8,0.0216373,10,0.00908644,-1.51097,0.0249149,2.36806,2515.6,0.294687,
2,1,0,1,0,9840.79,0.290723,0.290642,21.5069,8,0.0217405,10,0.00625079,-1.66742,0.0216189,2.72909,2179.79,0.290642,
2,1,0,1,0,9840.79,0.286728,0.286649,13.9468,8,0.0218103,10,0.00399785,-1.85552,0.0149245,3.95323,1752.36,0.286649,
2,1,0,1,0,9840.79,0.282733,0.282636,7.71991,8,0.0218527,10,0.00218192,-2.11239,0.0146777,4.01971,1444.71,0.282636,
2,1,0,1,0,9840.8,0.278738,0.278551,2.55766,8,0.0218725,10,0.00071244,-2.59216,0.0380894,1.54899,1197.06,0.278551,
2,0,0,1,0,9840.8,0.274742,0.274561,-1.72569,8,0.0218735,10,-0.000473807,-2.76304,-0.490248,-0.120347,993.697,0.274561,
2,0,0,1,0,9840.81,0.270747,0.270586,-5.2815,8,0.021859,10,-0.0014291,-2.27724,-0.0255496,-2.30923,836.095,0.270586,
2,0,0,1,0,9840.81,0.266702,0.266486,-8.32827,8,0.0218313,10,-0.00221936,-2.07945,-0.0183047,-3.22322,702.177,0.266486,
2,0,0,1,0,9840.81,0.262707,0.262525,-10.8415,8,0.0217926,10,-0.00284617,-1.96491,-0.035957,-1.64085,592.361,0.262525,
2,0,0,1,0,9840.82,0.258712,0.25851,-12.9959,8,0.0217446,10,-0.00335956,-1.8862,-0.0543691,-1.08518,504.643,0.25851,
2,0,0,1,0,9840.82,0.254717,0.254459,-14.8349,8,0.0216887,10,-0.00377488,-1.82871,-0.0748219,-0.788539,431.367,0.254459,
2,0,0,1,0,9840.83,0.250722,0.250471,-16.4098,8,0.021626,10,-0.00411018,-1.7849,-0.0975548,-0.604788,372.728,0.250471,
2,0,0,1,0,9840.83,0.246726,0.246487,-17.7596,8,0.0215574,10,-0.00437752,-1.75057,-0.122179,-0.482898,326.1,0.246487,
2,0,0,1,0,9840.83,0.242731,0.242504,-18.9621,8,0.0214838,10,-0.00459836,-1.72211,-0.149471,-0.394726,286.547,0.242504,
2,0,0,1,0,9840.84,0.238736,0.238523,-20.0316,8,0.0214057,10,-0.00477799,-1.69828,-0.177914,-0.331621,255.369,0.238523,
2,0,0,1,0,9840.84,0.234741,0.234525,-20.9792,8,0.0213235,10,-0.00492014,-1.67821,-0.206631,-0.285533,231.399,0.234525,
2,0,0,1,0,9840.85,0.230746,0.230491,-21.8445,8,0.0212378,10,-0.00503498,-1.66066,-0.239566,-0.246279,208.197,0.230491,
2,0,0,1,0,9840.85,0.226701,0.226437,-22.6798,8,0.0211487,10,-0.00513554,-1.64436,-0.270677,-0.217972,191.235,0.2264373,
2,0,0,1,0,9840.85,0.222705,0.222454,-23.377,8,0.0210565,10,-0.00520032,-1.63121,-0.302467,-0.195063,176.88,0.2224544,
2,0,0,1,0,9840.86,0.21871,0.218459,-24.0516,8,0.0209616,10,-0.00525428,-1.61886,-0.337906,-0.174605,163.257,0.2184588,
2,0,0,1,0,9840.86,0.214715,0.214443,-24.6832,8,0.0208641,10,-0.00529313,-1.6076,-0.3634,-0.162355,155.894,0.214443,
2,0,0,1,0,9840.87,0.21072,0.210489,-25.2835,8,0.0207641,10,-0.00532189,-1.59716,-0.390589,-0.151054,148.683,0.210489,
2,0,0,1,0,9840.87,0.206725,0.206448,-25.8724,8,0.0206617,10,-0.00534129,-1.58716,-0.406396,-0.145179,146.37,0.206448,
2,0,0,1,0,9840.87,0.202729,0.202474,-26.4282,8,0.0205571,10,-0.00535103,-1.57793,-0.420481,-0.140316,144.698,0.202474,
2,0,0,1,0,9840.88,0.198734,0.198482,-27.0194,8,0.0204501,10,-0.00536286,-1.56832,-0.426822,-0.138231,145.757,0.1984818,
2,0,0,1,0,9840.88,0.194739,0.194496,-27.5976,8,0.0203408,10,-0.00536762,-1.55913,-0.424807,-0.138887,149.647,0.194496,
2,0,0,1,0,9840.89,0.190744,0.190494,-28.1977,8,0.0202292,10,-0.00537149,-1.54979,-0.41795,-0.141165,155.624,0.190494,
2,0,0,1,0,9840.89,0.186735,0.186466,-28.8238,8,0.0201151,10,-0.00537466,-1.54025,-0.409818,-0.143966,162.276,0.186466,
2,0,0,1,0,9840.89,0.182704,0.18246,-29.5128,8,0.0199983,10,-0.0053849,-1.52999,-0.398309,-0.148126,170.802,0.18246,
2,0,0,1,0,9840.9,0.178709,0.178422,-30.206,8,0.0198788,10,-0.00538942,-1.51991,-0.382853,-0.154106,181.962,0.178422,
2,0,0,1,0,9840.9,0.174713,0.174459,-30.9364,8,0.0197564,10,-0.00539715,-1.50953,-0.368724,-0.160011,193.818,0.174459,
2,0,0,1,0,9840.91,0.170718,0.17048,-31.7327,8,0.019631,10,-0.00540978,-1.49849,-0.34829,-0.169399,210.614,0.17048,
2,0,0,1,0,9840.91,0.166723,0.166465,-32.6129,8,0.0195023,10,-0.00542891,-1.48661,-0.324962,-0.18156,232.082,0.166465,
2,0,0,1,0,9840.91,0.162728,0.162459,-33.5681,8,0.0193699,10,-0.00545343,-1.47407,-0.302359,-0.195132,256.954,0.162459,
2,0,0,1,0,9840.92,0.158733,0.158499,-34.6405,8,0.0192333,10,-0.00549049,-1.46042,-0.283795,-0.207896,282.539,0.158499,
2,0,0,1,0,9840.92,0.154737,0.154523,-35.8329,8,0.0190923,10,-0.005537,-1.44572,-0.263943,-0.223533,314.202,0.154523,
2,0,0,1,0,9840.93,0.150742,0.150474,-37.131,8,0.0189463,10,-0.00558725,-1.43026,-0.245917,-0.239918,349.934,0.150474,
2,0,0,1,0,9840.93,0.146747,0.146503,-38.5815,8,0.0187948,10,-0.00565229,-1.41362,-0.233063,-0.253151,383.662,0.146503,
2,0,0,1,0,9840.93,0.142702,0.142481,-40.2459,8,0.018637,10,-0.00573427,-1.39528,-0.219566,-0.268711,423.94,0.142481,
2,0,0,1,0,9840.94,0.138707,0.138456,-41.9969,8,0.0184724,10,-0.00581475,-1.37678,-0.210387,-0.280435,461.445,0.138456,
2,0,0,1,0,9840.94,0.134712,0.134485,-43.9093,8,0.0183004,10,-0.00590515,-1.35744,-0.205009,-0.287792,495.103,0.134485,
2,0,0,1,0,9840.95,0.130717,0.130517,-45.958,8,0.0181205,10,-0.0059983,-1.33764,-0.19945,-0.295813,532.277,0.130517,
2,0,0,1,0,9840.95,0.126721,0.126511,-48.1526,8,0.0179321,10,-0.00609183,-1.31738,-0.19705,-0.299416,563.937,0.126511,
2,0,0,1,0,9840.95,0.122726,0.122529,-50.4747,8,0.0177346,10,-0.00618462,-1.29693,-0.195402,-0.301942,595.78,0.122529,
2,0,0,1,0,9840.96,0.118731,0.11856,-52.8901,8,0.0175277,10,-0.00627065,-1.27663,-0.196987,-0.299512,618.819,0.11856,
2,0,0,1,0,9840.96,0.114736,0.114573,-55.4572,8,0.0173107,10,-0.0063539,-1.25604,-0.200428,-0.294371,636.437,0.1145729,
2,0,0,1,0,9840.97,0.110741,0.110541,-58.035,8,0.0170835,10,-0.00641526,-1.23631,-0.205212,-0.287507,650.145,0.110541,
2,0,0,1,0,9840.97,0.106745,0.106569,-60.6323,8,0.0168459,10,-0.00646152,-1.2173,-0.215024,-0.274388,648.041,0.106569,
2,0,0,1,0,9840.97,0.102703,0.102537,-63.3072,8,0.0165978,10,-0.00649135,-1.19855,-0.226205,-0.260825,641.347,0.102537,
2,0,0,1,0,9840.98,0.0987052,0.0984982,-65.8743,8,0.0163392,10,-0.0064885,-1.18128,-0.237722,-0.248189,635.178,0.0984982,
2,0,0,1,0,9840.98,0.09471,0.0946097,-68.2526,8,0.0160707,10,-0.00645736,-1.16588,-0.254275,-0.232032,616.717,0.0946097,
2,0,0,1,0,9840.99,0.0907148,0.0905886,-70.7827,8,0.0157924,10,-0.0064121,-1.15007,-0.269942,-0.218566,601.831,0.0905886,
2,0,0,1,0,9840.99,0.0867197,0.0865973,-73.1377,8,0.0155043,10,-0.00633352,-1.13586,-0.286884,-0.205658,584.577,0.0865973,
2,0,0,1,0,9840.99,0.0827245,0.0825825,-75.4528,8,0.0152069,10,-0.00623109,-1.12232,-0.311107,-0.189646,556.063,0.0825825,
2,0,0,1,0,9841,0.0787293,0.0785933,-77.6154,8,0.0149005,10,-0.00610005,-1.11005,-0.335427,-0.175895,530.596,0.0785933,
2,0,0,1,0,9841,0.0747341,0.0746359,-79.6534,8,0.0145857,10,-0.005945,-1.0988,-0.365496,-0.161424,500.121,0.0746359,
2,0,0,1,0,9841.01,0.070739,0.0706392,-81.6049,8,0.014263,10,-0.00576451,-1.08828,-0.40048,-0.147323,467.541,0.0706392,
2,0,0,1,0,9841.01,0.0667438,0.0665863,-83.4529,8,0.0139327,10,-0.00555682,-1.07856,-0.439244,-0.134322,435.754,0.0665863,
2,0,0,1,0,9841.01,0.0627403,0.062508,-85.136,8,0.0135953,10,-0.00532168,-1.06989,-0.496416,-0.118852,393.064,0.062508,
2,0,0,1,0,9841.02,0.0587035,0.0584742,-86.6959,8,0.0132513,10,-0.00506948,-1.062,-0.574979,-0.102612,345.254,0.0584742,
2,0,0,1,0,9841.02,0.0547083,0.0544807,-87.9563,8,0.0129018,10,-0.00479192,-1.05573,-0.681056,-0.0866302,295.786,0.0544807,
2,0,0,1,0,9841.03,0.0507132,0.0504194,-89.0346,8,0.0125477,10,-0.00448907,-1.05044,-0.849785,-0.0694293,240.076,0.0504194,
2,0,0,1,0,9841.03,0.046718,0.0464641,-89.8815,8,0.0121897,10,-0.00417626,-1.04633,-1.07985,-0.054637,190.788,0.0464641,
2,0,0,1,0,9841.03,0.0427228,0.0424812,-90.5355,8,0.0118287,10,-0.00384605,-1.04318,-1.48494,-0.0397323,139.779,0.0424812,
2,0,0,1,0,9841.04,0.0387276,0.0384739,-91.0102,8,0.0114656,10,-0.00350151,-1.04091,-2.30247,-0.0256246,90.6081,0.0384739,
2,0,0,1,0,9841.04,0.0347325,0.0344836,-91.2621,8,0.011101,10,-0.00314704,-1.03971,-4.69899,-0.0125559,44.5388,0.0344836,
2,0,0,1,0,9841.05,0.0307373,0.0304816,-91.3297,8,0.0107357,10,-0.00278388,-1.03939,-397.49,-0.000148431,0.527229,0.0304816,
2,0,0,1,0,9841.05,0.0267421,0.026434,-91.2502,8,0.0103705,10,-0.00241211,-1.03977,7.09203,0.0083192,-29.5532,0.026434,
2,0,0,1,0,9841.05,0.022747,0.0224649,-91.0186,8,0.0100059,10,-0.00204473,-1.04087,3.43315,0.0171854,-60.9256,0.0224649,
2,0,0,1,0,9841.06,0.0187018,0.0184343,-90.7878,8,0.00964233,10,-0.00167361,-1.04197,2.35497,0.0250534,-88.5276,0.0184343,
2,0,0,1,0,9841.06,0.0147067,0.0144292,-90.3517,8,0.0092801,10,-0.0013037,-1.04406,1.88366,0.031322,-110.179,0.0144292,
2,0,0,1,0,9841.07,0.0107115,0.0104643,-89.8364,8,0.00891972,10,-0.000940076,-1.04655,1.51326,0.0389886,-136.476,0.0104643,
2,0,0,1,0,9841.07,0.00671632,0.00644113,-89.2531,8,0.00856158,10,-0.000574891,-1.04938,1.37565,0.0428888,-149.219,0.00644113,
2,0,0,1,0,9841.07,0.00272115,0.00244764,-88.606,8,0.00820592,10,-0.000216876,-1.05254,1.22594,0.0481263,-166.215,0.00244764,
2,0,0,1,0,9841.08,-0.00127403,-0.0016169,-87.9573,8,0.00785277,10,0.000142218,-1.05573,1.09385,0.0539381,-184.748,-0.0016169,
2,0,0,1,0,9841.08,-0.0052692,-0.00558494,-87.1688,8,0.0075026,10,0.000486833,-1.05964,0.979209,0.0602527,-204.48,-0.00558494,
2,0,0,1,0,9841.09,-0.00926438,-0.00958162,-86.2929,8,0.00715572,10,0.000826826,-1.06402,0.856883,0.0688542,-231.358,-0.00958162,
2,0,0,1,0,9841.09,-0.0132596,-0.0135698,-85.3307,8,0.00681253,10,0.00115792,-1.06889,0.790084,0.0746756,-248.18,-0.0135698,
2,0,0,1,0,9841.09,-0.0172547,-0.0175792,-84.2643,8,0.00647343,10,0.0014813,-1.07436,0.713767,0.0826601,-271.298,-0.0175792,
2,0,0,1,0,9841.1,-0.0212915,-0.021666,-83.1778,8,0.00613869,10,0.00180213,-1.07999,0.643471,0.0916902,-296.759,-0.021666,
2,0,0,1,0,9841.1,-0.025295,-0.0256224,-81.9411,8,0.00580854,10,0.00209953,-1.0865,0.590647,0.0998904,-318.426,-0.02562239,
2,0,0,1,0,9841.11,-0.0292902,-0.0295894,-80.5768,8,0.00548361,10,0.00238422,-1.09379,0.538253,0.109614,-343.96,-0.0295894,
2,0,0,1,0,9841.11,-0.0332854,-0.0336369,-79.1511,8,0.00516428,10,0.0026624,-1.10154,0.509701,0.115754,-357.12,-0.03363695,
2,0,0,1,0,9841.11,-0.0372805,-0.0376124,-77.6929,8,0.00485073,10,0.00292222,-1.10962,0.494268,0.119368,-361.731,-0.0376124,
2,0,0,1,0,9841.12,-0.0412757,-0.0416091,-76.232,8,0.00454303,10,0.00317194,-1.11786,0.48833,0.12082,-359.525,-0.0416091,
2,0,0,1,0,9841.12,-0.0452709,-0.0455824,-74.7916,8,0.00424113,10,0.00340918,-1.12615,0.491515,0.120037,-350.715,-0.0455824,
2,0,0,1,0,9841.13,-0.0492661,-0.0495886,-73.4161,8,0.00394487,10,0.0036406,-1.13421,0.508276,0.116079,-333.153,-0.0495886,
2,0,0,1,0,9841.13,-0.0532612,-0.053544,-72.1054,8,0.00365397,10,0.00386081,-1.14203,0.539322,0.109397,-308.642,-0.05354397,
2,0,0,1,0,9841.13,-0.0572564,-0.0575725,-70.9137,8,0.00336808,10,0.00408268,-1.14927,0.589011,0.100168,-278.19,-0.0575725,
2,0,0,1,0,9841.14,-0.0612544,-0.0615999,-69.848,8,0.00308671,10,0.00430263,-1.15585,0.648189,0.0910228,-248.976,-0.0615999,
2,0,0,1,0,9841.14,-0.0652967,-0.0656241,-68.9551,8,0.00280913,10,0.00452512,-1.16143,0.720857,0.0818471,-220.819,-0.0656241,
2,0,0,1,0,9841.15,-0.0692919,-0.0695975,-68.1085,8,0.00253511,10,0.00474018,-1.1668,0.820549,0.0719031,-191.666,-0.06959746,
2,0,0,1,0,9841.15,-0.0732871,-0.0735857,-67.3777,8,0.00226424,10,0.00495803,-1.17148,0.928066,0.0635731,-167.734,-0.0735857,
2,0,0,1,0,9841.15,-0.0772822,-0.077611,-66.7792,8,0.00199601,10,0.0051828,-1.17536,1.1046,0.0534129,-139.633,-0.07761097,
2,0,0,1,0,9841.16,-0.0812774,-0.0816055,-66.2745,8,0.00172998,10,0.00540837,-1.17865,1.35371,0.0435839,-113.063,-0.0816055,
2,0,0,1,0,9841.16,-0.0852726,-0.0855969,-65.8745,8,0.00146572,10,0.00563865,-1.18128,1.68785,0.0349558,-90.1152,-0.0855969,
2,0,0,1,0,9841.17,-0.0892678,-0.0895554,-65.5721,8,0.00120288,10,0.00587233,-1.18328,2.21857,0.0265937,-68.2169,-0.08955539,
2,0,0,1,0,9841.17,-0.0932629,-0.0935934,-65.3389,8,0.000941098,10,0.00611529,-1.18483,3.18158,0.0185442,-47.4003,-0.0935934,
2,0,0,1,0,9841.17,-0.0972581,-0.0975848,-65.1845,8,0.00068007,10,0.00636101,-1.18586,5.97565,0.00987341,-25.1889,-0.0975848,
2,0,0,1,0,9841.18,-0.101253,-0.101573,-65.1172,8,0.000419509,10,0.00661415,-1.1863,17.0647,0.00345742,-8.80679,-0.101573,
2,0,0,1,0,9841.18,-0.105298,-0.105587,-65.1683,8,0.000158968,10,0.0068809,-1.18596,-26.2696,-0.00224594,5.71756,-0.105587,
2,0,0,1,0,9841.19,-0.109294,-0.109662,-65.1974,8,-0.000101754,10,0.00714966,-1.18577,-8.33788,-0.00707614,18.0226,-0.109662,
2,0,0,1,0,9841.19,-0.113289,-0.113579,-65.2759,8,-0.000362691,10,0.00741397,-1.18525,-5.65483,-0.0104336,26.6223,-0.113579,
2,0,0,1,0,9841.19,-0.117284,-0.117615,-65.4063,8,-0.00062406,10,0.00769275,-1.18438,-3.92575,-0.015029,38.4197,-0.117615,
2,0,0,1,0,9841.2,-0.121279,-0.121556,-65.5934,8,-0.000886063,10,0.0079733,-1.18314,-3.09195,-0.0190818,48.9018,-0.121556,
2,0,0,1,0,9841.2,-0.125274,-0.12559,-65.8094,8,-0.00114887,10,0.00826501,-1.18171,-2.54659,-0.0231682,59.5676,-0.12559,
2,0,0,1,0,9841.21,-0.129269,-0.129573,-66.0581,8,-0.00141263,10,0.00855934,-1.18007,-2.28045,-0.0258721,66.7683,-0.129573,
2,0,0,1,0,9841.21,-0.133265,-0.133558,-66.356,8,-0.00167747,10,0.00886238,-1.17812,-2.00329,-0.0294515,76.3393,-0.133558,
2,0,0,1,0,9841.21,-0.13726,-0.137565,-66.6623,8,-0.00194353,10,0.00917042,-1.17612,-1.76451,-0.033437,87.1091,-0.137565,
2,0,0,1,0,9841.22,-0.141255,-0.141547,-67.0275,8,-0.00221094,10,0.00948755,-1.17375,-1.66476,-0.0354406,92.8034,-0.141547,
2,0,0,1,0,9841.22,-0.145286,-0.145589,-67.4532,8,-0.00247986,10,0.00982048,-1.171,-1.55776,-0.037875,99.7128,-0.145589,
2,0,0,1,0,9841.23,-0.149295,-0.149574,-67.8424,8,-0.00275054,10,0.0101475,-1.1685,-1.50793,-0.0391265,103.611,-0.149574,
2,0,0,1,0,9841.23,-0.15329,-0.153592,-68.2604,8,-0.00302278,10,0.0104843,-1.16583,-1.49204,-0.0395431,105.393,-0.153592,
2,0,0,1,0,9841.23,-0.157286,-0.157555,-68.6861,8,-0.00329669,10,0.0108218,-1.16313,-1.4294,-0.041276,110.706,-0.157555,
2,0,0,1,0,9841.24,-0.161281,-0.161602,-69.1408,8,-0.00357238,10,0.0111733,-1.16027,-1.39516,-0.042289,114.154,-0.161602,
2,0,0,1,0,9841.24,-0.165276,-0.16558,-69.6143,8,-0.00384991,10,0.0115268,-1.1573,-1.35315,-0.0436021,118.484,-0.1655802,
2,0,0,1,0,9841.25,-0.169271,-0.169547,-70.0817,8,-0.00412935,10,0.0118822,-1.1544,-1.31252,-0.0449515,123.006,-0.169547,
2,0,0,1,0,9841.25,-0.173266,-0.173542,-70.5803,8,-0.00441073,10,0.0122486,-1.15132,-1.28188,-0.0460261,126.851,-0.173542,
2,0,0,1,0,9841.25,-0.177261,-0.177536,-71.1009,8,-0.00469413,10,0.012623,-1.14813,-1.24015,-0.047575,132.072,-0.177536,
2,0,0,1,0,9841.26,-0.181257,-0.181509,-71.6349,8,-0.00497967,10,0.0130023,-1.14488,-1.17281,-0.0503065,140.768,-0.181509,
2,0,0,1,0,9841.26,-0.185252,-0.185536,-72.1934,8,-0.00526737,10,0.0133945,-1.1415,-1.15515,-0.0510758,144.018,-0.185536,
2,0,0,1,0,9841.27,-0.189297,-0.189529,-72.8308,8,-0.00555755,10,0.0138036,-1.13768,-1.1207,-0.0526455,149.635,-0.189529,
2,0,0,1,0,9841.27,-0.193292,-0.193581,-73.4116,8,-0.00585009,10,0.0142111,-1.13424,-1.09254,-0.0540028,154.532,-0.193581,
2,0,0,1,0,9841.27,-0.197287,-0.197567,-74.0378,8,-0.00614504,10,0.0146275,-1.13055,-1.40351,-0.0420375,120.569,-0.197567,
2,0,0,1,0,9841.28,-0.199984,-0.200227,-74.4636,8,-0.00634552,10,0.0149096,-1.12806,0.0666485,0.885241,-2383.19,-0.200227,
2,0,0,1,1,9841.28,-0.199984,-0.200513,-74.1551,8,-0.00639006,10,0.0148691,-1.12986,-0.0346318,-1.70363,4265.68,-0.200513,
2,0,0,1,1,9841.28,-0.196688,-0.197223,-64.7335,8,-0.00660205,10,0.0127669,-1.18887,-0.055187,-1.06909,2486.83,-0.197223,
2,0,0,1,1,9841.28,-0.192693,-0.193151,-55.198,8,-0.00684054,10,0.0106615,-1.25808,-0.0560777,-1.05211,2255.56,-0.193151,
2,0,0,1,1,9841.29,-0.188698,-0.189129,-46.8644,8,-0.00704356,10,0.00886341,-1.32916,-0.0542168,-1.08822,1990.29,-0.189129,
2,0,0,1,1,9841.29,-0.184653,-0.185086,-39.3591,8,-0.00721508,10,0.00728484,-1.40495,-0.0503993,-1.17065,1785.89,-0.1850864,
2,0,0,1,1,9841.3,-0.180657,-0.181093,-32.6304,8,-0.00735823,10,0.00590913,-1.48638,-0.0454674,-1.29763,1624.18,-0.1810929,
2,0,0,1,1,9841.3,-0.176662,-0.177064,-26.4695,8,-0.00747569,10,0.0046868,-1.57726,-0.0395537,-1.49164,1489.76,-0.1770644,
2,0,0,1,1,9841.3,-0.172667,-0.173067,-20.7769,8,-0.00756948,10,0.00359578,-1.68242,-0.0327019,-1.80418,1377.91,-0.173067,
2,0,0,1,1,9841.31,-0.168672,-0.169059,-15.4828,8,-0.00764136,10,0.00261752,-1.81015,-0.0247091,-2.38778,1284.36,-0.169059,
2,0,0,1,1,9841.31,-0.164677,-0.165082,-10.5685,8,-0.0076929,10,0.00174468,-1.97598,-0.0146778,-4.01968,1197.25,-0.165082,
2,0,0,1,1,9841.32,-0.160682,-0.161119,-5.98997,8,-0.00772545,10,0.000965098,-2.22258,-0.0191479,-3.08128,1120.2,-0.161119,
2,0,0,1,1,9841.32,-0.156686,-0.157139,-1.70785,8,-0.00774034,10,0.00026837,-2.76755,-0.0671122,-0.879125,1050.85,-0.157139,
2,1,0,1,1,9841.32,-0.152691,-0.153188,2.29604,8,-0.00773869,10,-0.000351727,-2.63902,0.0757036,0.779355,984.363,-0.153188,
2,1,0,1,1,9841.33,-0.148696,-0.149194,6.12739,8,-0.00772141,10,-0.000914169,-2.21272,0.0180398,3.27055,927.761,-0.149194,
2,1,0,1,1,9841.33,-0.14467,-0.145141,9.73839,8,-0.00768932,10,-0.00141344,-2.01151,0.0188494,3.13007,872.968,-0.145141,
2,1,0,1,1,9841.34,-0.140656,-0.141176,13.1024,8,-0.00764318,10,-0.00184974,-1.88265,0.0321505,1.83512,823.616,-0.141176,
2,1,0,1,1,9841.34,-0.136661,-0.137141,16.3047,8,-0.00758404,10,-0.00223604,-1.78769,0.044625,1.32213,781.368,-0.137141,
2,1,0,1,1,9841.34,-0.132665,-0.133135,19.3537,8,-0.00751238,10,-0.00257665,-1.71324,0.0572139,1.03122,740.903,-0.133135,
2,1,0,1,1,9841.35,-0.12867,-0.129126,22.2523,8,-0.00742882,10,-0.00287334,-1.65263,0.0703659,0.838474,701.717,-0.129126,
2,1,0,1,1,9841.35,-0.124675,-0.125135,24.987,8,-0.00733404,10,-0.00312676,-1.60229,0.0844567,0.698583,662.074,-0.125135,
2,1,0,1,1,9841.36,-0.12068,-0.121095,27.5645,8,-0.00722862,10,-0.00333792,-1.55965,0.0996785,0.591903,622.528,-0.121095,
2,1,0,1,1,9841.36,-0.116685,-0.117072,29.9886,8,-0.00711324,10,-0.00351082,-1.52304,0.115207,0.512123,588.753,-0.1170719,
2,1,0,1,1,9841.36,-0.112689,-0.113042,32.2645,8,-0.00698849,10,-0.00364726,-1.49127,0.131399,0.449014,557.448,-0.113042,
2,1,0,1,1,9841.37,-0.108694,-0.109093,34.4317,8,-0.00685483,10,-0.00375627,-1.46304,0.148274,0.397911,528.812,-0.109093,
2,1,0,1,1,9841.37,-0.104699,-0.105114,36.4733,8,-0.0067128,10,-0.00383384,-1.43803,0.166121,0.355163,500.66,-0.105114,
2,1,0,1,1,9841.38,-0.100654,-0.101036,38.4683,8,-0.00656262,10,-0.0038867,-1.4149,0.18677,0.315896,469.495,-0.101036,
2,1,0,1,1,9841.38,-0.0966588,-0.0970493,40.2716,8,-0.00640492,10,-0.00390833,-1.395,0.207216,0.284726,443.737,-0.0970493,
2,1,0,1,1,9841.38,-0.0926637,-0.0930113,41.9822,8,-0.00624023,10,-0.00390481,-1.37694,0.229894,0.25664,417.818,-0.0930113,
2,1,0,1,1,9841.39,-0.0886685,-0.0890411,43.6053,8,-0.00606885,10,-0.00388266,-1.36046,0.253785,0.23248,393.26,-0.0890411,
2,1,0,1,1,9841.39,-0.0846733,-0.0850667,45.1408,8,-0.00589117,10,-0.00383998,-1.34543,0.278586,0.211784,370.961,-0.0850667,
2,1,0,1,1,9841.4,-0.0806781,-0.0810361,46.5689,8,-0.00570759,10,-0.00377376,-1.3319,0.305084,0.193389,349.795,-0.0810361,
2,1,0,1,1,9841.4,-0.076683,-0.0770256,47.9122,8,-0.00551846,10,-0.00369047,-1.31955,0.334343,0.176465,328.664,-0.0770256,
2,1,0,1,1,9841.4,-0.0726878,-0.0730459,49.2003,8,-0.00532409,10,-0.00359388,-1.30803,0.362513,0.162753,311.292,-0.0730459,
2,1,0,1,1,9841.41,-0.0686926,-0.0690588,50.402,8,-0.00512474,10,-0.0034807,-1.29755,0.388237,0.151969,298.055,-0.0690588,
2,1,0,1,1,9841.41,-0.0646974,-0.0650897,51.5329,8,-0.00492073,10,-0.00335426,-1.28792,0.427318,0.13807,276.893,-0.0650897,
2,1,0,1,1,9841.42,-0.0606523,-0.0610548,52.6724,8,-0.00471226,10,-0.0032159,-1.27842,0.467031,0.12633,258.625,-0.0610548,
2,1,0,1,1,9841.42,-0.0566571,-0.0570253,53.6363,8,-0.00449953,10,-0.00305863,-1.27054,0.506838,0.116408,242.883,-0.0570253,
2,1,0,1,1,9841.42,-0.052662,-0.0529576,54.5662,8,-0.00428301,10,-0.00288969,-1.26308,0.562633,0.104864,222.793,-0.0529576,
2,1,0,1,1,9841.43,-0.0486668,-0.0490033,55.44,8,-0.00406291,10,-0.00271675,-1.25618,0.606738,0.0972413,209.849,-0.0490033,
2,1,0,1,1,9841.43,-0.0446716,-0.0450194,56.245,8,-0.00383944,10,-0.00253211,-1.24992,0.660668,0.0893035,195.544,-0.0450194,
2,1,0,1,1,9841.44,-0.0406764,-0.0410471,56.9893,8,-0.00361287,10,-0.00233925,-1.24421,0.726695,0.0811894,180.184,-0.0410471,
2,1,0,1,1,9841.44,-0.0366813,-0.0370578,57.6753,8,-0.00338347,10,-0.00213732,-1.23901,0.794106,0.0742974,166.925,-0.0370578,
2,1,0,1,1,9841.44,-0.0326861,-0.0330399,58.3164,8,-0.0031514,10,-0.00192677,-1.23421,0.872529,0.0676195,153.609,-0.0330399,
2,1,0,1,1,9841.45,-0.0286909,-0.029039,58.9125,8,-0.00291686,10,-0.00171076,-1.22979,0.950843,0.0620502,142.418,-0.029039,
2,1,0,1,1,9841.45,-0.0246957,-0.0250699,59.4436,8,-0.00268008,10,-0.00149025,-1.2259,1.04466,0.0564776,130.835,-0.0250699,
2,1,0,1,1,9841.46,-0.0206756,-0.0210033,59.9617,8,-0.00244123,10,-0.00125939,-1.22213,1.18326,0.0498624,116.45,-0.0210033,
2,1,0,1,1,9841.46,-0.0166554,-0.0170129,60.4133,8,-0.00220037,10,-0.00102781,-1.21887,1.32366,0.0445732,104.861,-0.0170129,
2,1,0,1,1,9841.46,-0.0126603,-0.0129961,60.7807,8,-0.00195791,10,-0.000789914,-1.21623,1.55335,0.0379824,89.9446,-0.0129961,
2,1,0,1,1,9841.47,-0.0086651,-0.00903551,61.125,8,-0.00171404,10,-0.000552295,-1.21378,1.8502,0.0318885,75.922,-0.00903551,
2,1,0,1,1,9841.47,-0.00466992,-0.00502081,61.3993,8,-0.00146895,10,-0.000308274,-1.21184, , , ,-0.00502081,
2,1,0,1,1,9841.48,-0.000974387,-0.00135922,61.6017,8,-0.00124137,10,-8.37303e-05,-1.21041, , , ,-0.00135922,
2,1,0,1,1,9841.48,-0.000175352,-0.000478022,61.637,8,-0.00119207,10,-2.94639e-05,-1.21016, , , ,-0.000478022,