File: Figure_codes/Fig_3-5/rawdata_trumpetplot_data/before 10th/20221101_1-115_002_TrumpetPlot_ParaChange_06_CV_C01_7.csv
mode,ox/red,error,control changes,counter inc.,time/s,control/V,Ewe/V,<I>/mA,cycle number,(Q-Qo)/C,I Range,P/W,log(|I|),Tafel slope mV/dec,alpha_eff,dI/d(E-IR),E-IR/V,
2,0,0,1,0,9700.39,2.44065e-05,-0.000363498,-0.553176,8,0.0000000E+000,11,2.01078e-07,-3.25714, , , ,-0.000363498,
2,1,0,1,0,9700.51,0.00129787,0.000945044,0.276303,8,1.17909e-05,11,2.61119e-07,-3.55861, , , ,0.000945044,
2,1,0,1,0,9700.66,0.00279606,0.00251763,0.352865,8,6.27201e-05,11,8.88383e-07,-3.45239,0.0142041,4.15372,44.3418,0.00251763,
2,1,0,1,0,9700.81,0.00429425,0.0040128,0.363218,8,0.000118151,11,1.45752e-06,-3.43983,0.0864239,0.682682,9.82459,0.0040128,
2,1,0,1,0,9700.96,0.00579244,0.00546662,0.379581,8,0.000176182,11,2.07502e-06,-3.4207,0.0762766,0.773501,11.4633,0.00546662,
2,1,0,1,0,9701.11,0.00729063,0.00697558,0.398307,8,0.000236647,11,2.77842e-06,-3.39978,0.095709,0.616452,9.51438,0.00697558,
2,1,0,1,0,9701.26,0.00878882,0.00846545,0.412643,8,0.000299457,11,3.49321e-06,-3.38443,0.120921,0.487924,7.79345,0.00846545,
2,1,0,1,0,9701.41,0.010287,0.0100253,0.42286,8,0.000364018,11,4.23929e-06,-3.3738,0.170363,0.346319,5.67133,0.0100253,
2,1,0,1,0,9701.56,0.0117852,0.0114887,0.430965,8,0.000430053,11,4.95121e-06,-3.36556,0.149828,0.393785,6.65329,0.0114887,
2,1,0,1,0,9701.71,0.0132838,0.0129607,0.441314,8,0.000497275,11,5.71975e-06,-3.35525,0.156373,0.377303,6.5117,0.0129607,
2,1,0,1,0,9701.86,0.0147814,0.0144939,0.449915,8,0.000566045,11,6.52101e-06,-3.34687,0.17827,0.330959,5.81177,0.01449385,
2,1,0,1,0,9702.01,0.0162789,0.0159658,0.456066,8,0.000636258,11,7.28147e-06,-3.34097,0.23196,0.254354,4.49909,0.0159658,
2,1,0,1,0,9702.16,0.017778,0.0174948,0.46542,8,0.000707402,11,8.14243e-06,-3.33215,0.231835,0.254492,4.62254,0.0174948,
2,1,0,1,0,9702.31,0.0192761,0.0189454,0.473304,8,0.000779292,11,8.96695e-06,-3.32486,0.219838,0.26838,4.92368,0.0189454,
2,1,0,1,0,9702.46,0.0207743,0.0204756,0.479689,8,0.000852565,11,9.82192e-06,-3.31904,0.218841,0.269602,5.02235,0.0204756,
2,1,0,1,0,9702.61,0.0222725,0.0219676,0.484904,8,0.000926895,11,1.06522e-05,-3.31434,0.2366,0.249366,4.72221,0.0219676,
2,1,0,1,0,9702.76,0.0237707,0.023467,0.494567,8,0.00100228,11,1.1606e-05,-3.30578,0.264066,0.223429,4.30357,0.023467,
2,1,0,1,0,9702.91,0.0252689,0.0249622,0.497359,8,0.00107845,11,1.24152e-05,-3.30333,0.241345,0.244463,4.77396,0.0249622,
2,1,0,1,0,9703.06,0.0267671,0.026486,0.509148,8,0.00115587,11,1.34853e-05,-3.29316,0.195458,0.301855,5.95647,0.026486,
2,1,0,1,0,9703.21,0.0282662,0.0280055,0.51562,8,0.00123464,11,1.44402e-05,-3.28767,0.217584,0.27116,5.43123,0.0280055,
2,1,0,1,0,9703.36,0.0297635,0.0294689,0.524616,8,0.0013144,11,1.54599e-05,-3.28016,0.269664,0.218791,4.46231,0.0294689,
2,1,0,1,0,9703.51,0.031261,0.030952,0.524872,8,0.0013951,11,1.62459e-05,-3.27995,0.243038,0.24276,5.01216,0.030952,
2,1,0,1,0,9703.66,0.0327599,0.0324338,0.539138,8,0.00147697,11,1.74863e-05,-3.2683,0.230012,0.256509,5.38662,0.0324338,
2,1,0,1,0,9703.81,0.034258,0.0339756,0.546931,8,0.00156029,11,1.85823e-05,-3.26207,0.219157,0.269214,5.7185,0.0339756,
2,1,0,1,0,9703.96,0.0357562,0.0354549,0.55519,8,0.00164491,11,1.96842e-05,-3.25556,0.290241,0.203279,4.39232,0.0354549,
2,1,0,1,0,9704.11,0.0372544,0.0369925,0.561311,8,0.0017308,11,2.07643e-05,-3.2508,0.228228,0.258514,5.70293,0.0369925,
2,1,0,1,0,9704.26,0.0387526,0.0384474,0.571924,8,0.00181773,11,2.1989e-05,-3.24266,0.206777,0.285332,6.42831,0.0384474,
2,1,0,1,0,9704.41,0.0402508,0.0399532,0.582036,8,0.0019064,11,2.32542e-05,-3.23505,0.197692,0.298444,6.79825,0.0399532,
2,1,0,1,0,9704.56,0.041749,0.0414367,0.595889,8,0.00199693,11,2.46916e-05,-3.22483,0.217501,0.271264,6.28371,0.0414367,
2,1,0,1,0,9704.71,0.0432472,0.0429721,0.604299,8,0.00208866,11,2.5968e-05,-3.21875,0.213732,0.276046,6.51438,0.0429721,
2,1,0,1,0,9704.86,0.0447458,0.0444391,0.615401,8,0.00218182,11,2.73479e-05,-3.21084,0.189231,0.311788,7.47206,0.0444391,
2,1,0,1,0,9705.01,0.0462433,0.0459539,0.625717,8,0.00227687,11,2.87541e-05,-3.20362,0.16909,0.348926,8.50391,0.0459539,
2,1,0,1,0,9705.16,0.0477409,0.0474028,0.638748,8,0.00237363,11,3.02784e-05,-3.19467,0.180865,0.326211,8.14912,0.0474028,
2,1,0,1,0,9705.31,0.0492399,0.0489295,0.649231,8,0.00247222,11,3.17666e-05,-3.1876,0.197254,0.299107,7.59663,0.0489295,
2,1,0,1,0,9705.46,0.0507381,0.0504141,0.658845,8,0.00257238,11,3.32151e-05,-3.18122,0.1846,0.31961,8.2648,0.0504141,
2,1,0,1,0,9705.61,0.0522363,0.0518859,0.671917,8,0.00267442,11,3.4863e-05,-3.17268,0.163739,0.360331,9.47333,0.0518859,
2,1,0,1,0,9705.76,0.0537345,0.0534352,0.689782,8,0.00277853,11,3.68586e-05,-3.16129,0.183208,0.322039,8.6307,0.0534352,
2,1,0,1,0,9705.91,0.0552327,0.0548943,0.698886,8,0.00288463,11,3.83648e-05,-3.15559,0.207322,0.284582,7.75543,0.0548943,
2,1,0,1,0,9706.06,0.0567309,0.0564541,0.711601,8,0.00299239,11,4.01728e-05,-3.14776,0.210819,0.279861,7.79089,0.0564541,
2,1,0,1,0,9706.21,0.0582291,0.0578963,0.726234,8,0.00310202,11,4.20463e-05,-3.13892,0.188982,0.312199,8.83059,0.0578963,
2,1,0,1,0,9706.36,0.0597282,0.0594481,0.739847,8,0.00321375,11,4.39825e-05,-3.13086,0.199886,0.295168,8.51882,0.05944806,
2,1,0,1,0,9706.51,0.0612255,0.0609505,0.751462,8,0.00332753,11,4.5802e-05,-3.12409,0.222393,0.265296,7.74934,0.0609505,
2,1,0,1,0,9706.66,0.062723,0.0624371,0.766087,8,0.00344317,11,4.78323e-05,-3.11572,0.211012,0.279605,8.34839,0.0624371,
2,1,0,1,0,9706.81,0.0642218,0.0638918,0.77683,8,0.00356046,11,4.96331e-05,-3.10967,0.197243,0.299123,9.08454,0.0638918,
2,1,0,1,0,9706.96,0.06572,0.0653944,0.789501,8,0.0036798,11,5.1629e-05,-3.10265,0.205688,0.286842,8.82272,0.0653944,
2,1,0,1,0,9707.11,0.0672182,0.0668588,0.802738,8,0.00380131,11,5.36701e-05,-3.09543,0.2181,0.270518,8.44366,0.06685885,
2,1,0,1,0,9707.26,0.0687164,0.0684314,0.813743,8,0.00392439,11,5.56856e-05,-3.08951,0.272126,0.216811,6.88273,0.0684314,
2,1,0,1,0,9707.41,0.0702146,0.0699287,0.823814,8,0.00404895,11,5.76083e-05,-3.08417,0.25144,0.234648,7.55189,0.0699287,
2,1,0,1,0,9707.55,0.0717128,0.0713656,0.836388,8,0.00417533,11,5.96893e-05,-3.07759,0.239799,0.24604,8.01123,0.07136558,
2,1,0,1,0,9707.7,0.073211,0.072917,0.847598,8,0.00430359,11,6.18042e-05,-3.07181,0.259999,0.226924,7.50745,0.072917,
2,1,0,1,0,9707.85,0.0747092,0.0743814,0.858014,8,0.00443338,11,6.38203e-05,-3.06651,0.30991,0.190378,6.37294,0.0743814,
2,1,0,1,0,9708,0.0762078,0.0758635,0.862891,8,0.00456475,11,6.54619e-05,-3.06404,0.284327,0.207508,7.03559,0.0758635,
2,1,0,1,0,9708.15,0.0777053,0.0774033,0.879234,8,0.00469744,11,6.80556e-05,-3.0559,0.262216,0.225005,7.70914,0.0774033,
2,1,0,1,0,9708.3,0.0792029,0.0788999,0.890884,8,0.00483194,11,7.02906e-05,-3.05018,0.301935,0.195406,6.77358,0.0788999,
2,1,0,1,0,9708.45,0.0807019,0.0803949,0.900111,8,0.00496819,11,7.23644e-05,-3.0457,0.392743,0.150226,5.25106,0.0803949,
2,1,0,1,0,9708.6,0.0822001,0.0819028,0.905228,8,0.00510564,11,7.41407e-05,-3.04324,0.335005,0.176117,6.24384,0.0819028,
2,1,0,1,0,9708.75,0.0836983,0.0834139,0.916297,8,0.00524409,11,7.64319e-05,-3.03796,0.32561,0.181198,6.49892,0.0834139,
2,1,0,1,0,9708.9,0.0851965,0.0848677,0.926517,8,0.00538439,11,7.86314e-05,-3.03315,0.34955,0.168788,6.11394,0.0848677,
2,1,0,1,0,9709.05,0.0866947,0.086365,0.936078,8,0.00552621,11,8.08444e-05,-3.02869,0.493087,0.119654,4.36455,0.086365,
2,1,0,1,0,9709.2,0.0881929,0.0879111,0.946745,8,0.00566945,11,8.32294e-05,-3.02377,0.349996,0.168573,6.2372,0.0879111,
2,1,0,1,0,9709.35,0.0896911,0.089367,0.95641,8,0.00581367,11,8.54715e-05,-3.01936,0.309431,0.190672,7.12894,0.089367,
2,1,0,1,0,9709.5,0.0911902,0.0908982,0.969296,8,0.00595995,11,8.81072e-05,-3.01354,0.2649,0.222726,8.3997,0.0908982,
2,1,0,1,0,9709.65,0.0926875,0.0923879,0.981266,8,0.00610809,11,9.06572e-05,-3.00821,0.273738,0.215535,8.2265,0.0923879,
2,1,0,1,0,9709.8,0.094185,0.0938919,0.991655,8,0.00625783,11,9.31084e-05,-3.00364,0.306385,0.192568,7.46036,0.0938919,
2,1,0,1,0,9709.95,0.0956838,0.0953849,1.00024,8,0.00640892,11,9.54079e-05,-2.99989,0.243275,0.242524,9.5106,0.0953849,
2,1,0,1,0,9710.1,0.097182,0.0968588,1.01657,8,0.0065622,11,9.84637e-05,-2.99286,0.190256,0.310109,12.2975,0.0968588,
2,1,0,1,0,9710.25,0.0986802,0.098424,1.03152,8,0.0067178,11,0.000101526,-2.98652,0.215558,0.273708,11.0502,0.098424,
2,1,0,1,0,9710.4,0.100178,0.0998576,1.04859,8,0.00687595,11,0.00010471,-2.97939,0.224454,0.26286,10.7633,0.0998576,
2,1,0,1,0,9710.55,0.101677,0.101391,1.06033,8,0.00703631,11,0.000107508,-2.97456,0.218304,0.270265,11.2668,0.101391,
2,1,0,1,0,9710.7,0.103175,0.102898,1.08657,8,0.00719934,11,0.000111805,-2.96394,0.182009,0.324159,13.7541,0.102898,
2,1,0,1,0,9710.85,0.104673,0.104385,1.11136,8,0.00736562,11,0.000116009,-2.95414,0.178643,0.330267,14.2837,0.104385,
2,1,0,1,0,9711,0.106171,0.105931,1.13086,8,0.00753534,11,0.000119793,-2.94659,0.182823,0.322716,14.2027,0.105931,
2,1,0,1,0,9711.15,0.10767,0.107376,1.15077,8,0.00770837,11,0.000123566,-2.93901,0.166928,0.353445,15.8974,0.1073764,
2,1,0,1,0,9711.3,0.109167,0.10888,1.17503,8,0.00788447,11,0.000127938,-2.92995,0.161277,0.365831,16.8251,0.10888,
2,1,0,1,0,9711.45,0.110665,0.110379,1.19947,8,0.00806455,11,0.000132397,-2.92101,0.157529,0.374535,17.5562,0.110379,
2,1,0,1,0,9711.6,0.112164,0.111908,1.22849,8,0.00824875,11,0.000137478,-2.91063,0.180779,0.326366,15.6129,0.111908,
2,1,0,1,0,9711.75,0.113662,0.113356,1.25237,8,0.00843651,11,0.000141963,-2.90227,0.175863,0.335489,16.3913,0.113356,
2,1,0,1,0,9711.9,0.11516,0.114843,1.27768,8,0.00862773,11,0.000146733,-2.89358,0.170075,0.346906,17.2971,0.114843,
2,1,0,1,0,9712.05,0.116658,0.116368,1.3044,8,0.0088231,11,0.000151791,-2.88459,0.168285,0.350597,17.8093,0.116368,
2,1,0,1,0,9712.2,0.118157,0.11788,1.33162,8,0.00902272,11,0.000156971,-2.87562,0.181677,0.324752,16.8432,0.11788,
2,1,0,1,0,9712.35,0.119655,0.119327,1.35545,8,0.00922594,11,0.000161742,-2.86792,0.214565,0.274974,14.5458,0.1193267,
2,1,0,1,0,9712.5,0.121153,0.120837,1.37369,8,0.00943224,11,0.000165992,-2.86211,0.208187,0.283399,15.2497,0.120837,
2,1,0,1,0,9712.65,0.122652,0.122319,1.40024,8,0.00964231,11,0.000171275,-2.8538,0.184018,0.320621,17.4912,0.1223189,
2,1,0,1,0,9712.8,0.124149,0.123893,1.42538,8,0.00985591,11,0.000176595,-2.84607,0.213858,0.275883,15.3207,0.1238926,
2,1,0,1,0,9712.95,0.125647,0.125361,1.44646,8,0.010073,11,0.000181329,-2.83969,0.237125,0.248814,13.9992,0.125361,
2,1,0,1,0,9713.1,0.127146,0.126845,1.46062,8,0.0102932,11,0.000185272,-2.83546,0.238981,0.246882,14.117,0.126845,
2,1,0,1,0,9713.25,0.128644,0.128326,1.48374,8,0.010516,11,0.000190403,-2.82864,0.257052,0.229526,13.3113,0.128326,
2,1,0,1,0,9713.4,0.130142,0.129816,1.50815,8,0.0107422,11,0.000195783,-2.82156,0.273717,0.215551,12.6655,0.129816,
2,1,0,1,0,9713.55,0.13164,0.131347,1.52497,8,0.0109715,11,0.000200301,-2.81674,0.357835,0.164881,9.77553,0.131347,
2,1,0,1,0,9713.7,0.133139,0.132872,1.53995,8,0.0112033,11,0.000204617,-2.81249,0.424954,0.138838,8.33973,0.132872,
2,1,0,1,0,9713.85,0.134637,0.134296,1.55144,8,0.0114366,11,0.000208352,-2.80927,0.469359,0.125703,7.61683,0.134296,
2,1,0,1,0,9714,0.136135,0.135827,1.56429,8,0.011672,11,0.000212472,-2.80568,0.513354,0.11493,7.00026,0.135827,
2,1,0,1,0,9714.15,0.137633,0.13737,1.57348,8,0.011909,11,0.000216149,-2.80314,1.28078,0.0460657,2.81331,0.13737,
2,1,0,1,0,9714.3,0.139132,0.138811,1.5783,8,0.0121471,11,0.000219086,-2.80181,-30.2118,-0.00195288,-0.119571,0.138811,
2,1,0,1,0,9714.45,0.140629,0.140373,1.56885,8,0.0123843,11,0.000220224,-2.80442,-1.03802,-0.056839,-3.47339,0.140373,
2,1,0,1,0,9714.6,0.142127,0.14185,1.56247,8,0.012621,11,0.000221637,-2.80619,-0.565611,-0.104312,-6.32914,0.14185,
2,1,0,1,0,9714.75,0.143626,0.143362,1.5483,8,0.0128565,11,0.000221967,-2.81014,-0.274549,-0.214898,-12.912,0.143362,
2,1,0,1,0,9714.9,0.145124,0.144861,1.52494,8,0.0130889,11,0.000220905,-2.81675,-0.180708,-0.326494,-19.3615,0.1448613,
2,1,0,1,0,9715.05,0.146622,0.146309,1.48872,8,0.0133166,11,0.000217812,-2.82719,-0.147478,-0.400061,-23.2306,0.146309,
2,1,0,1,0,9715.2,0.14812,0.147836,1.45388,8,0.0135393,11,0.000214936,-2.83747,-0.122329,-0.482306,-27.2376,0.147836,
2,1,0,1,0,9715.35,0.149619,0.149304,1.4095,8,0.0137559,11,0.000210444,-2.85094,-0.100997,-0.584175,-32.0076,0.1493044,
2,1,0,1,0,9715.5,0.151117,0.150809,1.3626,8,0.0139655,11,0.000205493,-2.86563,-0.0854113,-0.690775,-36.4743,0.150809,
2,1,0,1,0,9715.65,0.152615,0.152317,1.29885,8,0.014167,11,0.000197837,-2.88644,-0.0787318,-0.749379,-38.0009,0.152317,
2,1,0,1,0,9715.8,0.154114,0.153766,1.24769,8,0.0143598,11,0.000191852,-2.90389,-0.0769348,-0.766883,-37.3472,0.1537663,
2,1,0,1,0,9715.94,0.155612,0.155315,1.1909,8,0.0145442,11,0.000184964,-2.92413,-0.073761,-0.799881,-37.0642,0.155315,
2,1,0,1,0,9716.09,0.157109,0.15681,1.13284,8,0.0147204,11,0.00017764,-2.94583,-0.0665089,-0.887099,-39.1519,0.15681,
2,1,0,1,0,9716.24,0.158608,0.158334,1.07518,8,0.014888,11,0.000170238,-2.96852,-0.0701436,-0.841132,-35.4356,0.158334,
2,1,0,1,0,9716.39,0.160106,0.159859,1.02619,8,0.0150471,11,0.000164045,-2.98877,-0.0714306,-0.825977,-33.1713,0.159859,
2,1,0,1,0,9716.54,0.161604,0.161359,0.977082,8,0.0151992,11,0.000157661,-3.01007,-0.0750985,-0.785635,-30.0145,0.1613591,
2,1,0,1,0,9716.69,0.163102,0.162811,0.935328,8,0.0153444,11,0.000152281,-3.02904,-0.0764872,-0.771371,-28.1928,0.162811,
2,1,0,1,0,9716.84,0.164601,0.164317,0.894732,8,0.0154833,11,0.000147019,-3.04831,-0.0792817,-0.744182,-26.0003,0.164317,
2,1,0,1,0,9716.99,0.166099,0.1658,0.859564,8,0.0156162,11,0.000142516,-3.06572,-0.0856932,-0.688503,-23.1213,0.1658,
2,1,0,1,0,9717.14,0.167597,0.167273,0.825242,8,0.0157442,11,0.000138041,-3.08342,-0.101605,-0.58068,-18.7392,0.167273,
2,1,0,1,0,9717.29,0.169095,0.16877,0.798489,8,0.0158679,11,0.000134761,-3.09773,-0.105823,-0.557533,-17.4222,0.16877,
2,1,0,1,0,9717.44,0.170594,0.170271,0.770803,8,0.0159876,11,0.000131246,-3.11306,-0.106853,-0.55216,-16.701,0.170271,
2,1,0,1,0,9717.59,0.172091,0.171824,0.74473,8,0.0161031,11,0.000127963,-3.128,-0.121898,-0.484013,-14.1918,0.171824,
2,1,0,1,0,9717.74,0.173589,0.173261,0.726455,8,0.0162156,11,0.000125867,-3.13879,-0.143292,-0.411747,-11.7099,0.173261,
2,1,0,1,0,9717.89,0.175088,0.174786,0.71138,8,0.0163254,11,0.000124339,-3.1479,-0.14565,-0.405081,-11.2304,0.174786,
2,1,0,1,0,9718.04,0.176586,0.176291,0.691094,8,0.0164326,11,0.000121833,-3.16046,-0.147883,-0.398963,-10.7791,0.176291,
2,1,0,1,0,9718.19,0.178084,0.177755,0.675981,8,0.0165372,11,0.000120159,-3.17007,-0.165492,-0.356512,-9.46012,0.1777551,
2,1,0,1,0,9718.34,0.179582,0.179298,0.664954,8,0.0166398,11,0.000119225,-3.17721,-0.179615,-0.32848,-8.54778,0.179298,
2,1,0,1,0,9718.49,0.181081,0.180794,0.653626,8,0.0167407,11,0.000118172,-3.18467,-0.18095,-0.326058,-8.33604,0.180794,
2,1,0,1,0,9718.64,0.182579,0.182304,0.642923,8,0.0168399,11,0.000117208,-3.19184,-0.184667,-0.319493,-8.00683,0.182304,
2,1,0,1,0,9718.79,0.184077,0.183765,0.633166,8,0.0169375,11,0.000116354,-3.19848,-0.215367,-0.273951,-6.78021,0.183765,
2,1,0,1,0,9718.94,0.185576,0.185291,0.625016,8,0.0170336,11,0.00011581,-3.20411,-0.25905,-0.227756,-5.55506,0.185291,
2,1,0,1,0,9719.09,0.187074,0.186786,0.616855,8,0.0171284,11,0.00011522,-3.20982,-0.300332,-0.196449,-4.71669,0.186786,
2,1,0,1,0,9719.24,0.188571,0.188274,0.6094,8,0.0172223,11,0.000114734,-3.2151,-0.300783,-0.196155,-4.65469,0.188274,
2,1,0,1,0,9719.39,0.19007,0.189772,0.602822,8,0.017315,11,0.000114398,-3.21981,-0.345149,-0.17094,-4.01998,0.189772,
2,1,0,1,0,9719.54,0.191568,0.191289,0.594907,8,0.0174066,11,0.000113799,-3.22555,-0.353846,-0.166739,-3.87213,0.191289,
2,1,0,1,0,9719.69,0.193066,0.192744,0.588967,8,0.0174973,11,0.00011352,-3.22991,-0.513789,-0.114833,-2.63424,0.192744,
2,1,0,1,0,9719.84,0.194564,0.194256,0.584212,8,0.0175874,11,0.000113487,-3.23343,-0.459043,-0.128528,-2.93575,0.1942561,
2,1,0,1,0,9719.99,0.196063,0.195769,0.57753,8,0.0176766,11,0.000113063,-3.23843,-0.326104,-0.180924,-4.10149,0.195769,
2,1,0,1,0,9720.14,0.197561,0.197279,0.571606,8,0.017765,11,0.000112766,-3.2429,-0.389495,-0.151478,-3.3998,0.197279,
2,1,0,1,0,9720.29,0.199059,0.198761,0.571705,8,0.0178527,11,0.000113632,-3.24283,-0.448481,-0.131555,-2.92582,0.198761,
2,1,0,1,0,9720.44,0.200557,0.200236,0.56785,8,0.0179399,11,0.000113704,-3.24577,-0.544495,-0.108357,-2.39227,0.200236,
2,1,0,1,0,9720.59,0.202056,0.201779,0.563224,8,0.0180266,11,0.000113647,-3.24932,-0.428904,-0.13756,-3.01435,0.201779,
2,1,0,1,0,9720.74,0.203553,0.203264,0.557533,8,0.0181126,11,0.000113326,-3.25373,-0.65285,-0.0903729,-1.9748,0.203264,
2,1,0,1,0,9720.89,0.205051,0.204746,0.553928,8,0.0181979,11,0.000113414,-3.25655,18.3675,0.0032122,0.0701717,0.204746,
2,1,0,1,0,9721.04,0.20655,0.206258,0.55067,8,0.0182829,11,0.00011358,-3.25911,-0.923859,-0.0638625,-1.37941,0.206258,
2,1,0,1,0,9721.19,0.208048,0.207784,0.549077,8,0.0183679,11,0.000114089,-3.26037,-0.463665,-0.127247,-2.72075,0.207784,
2,1,0,1,0,9721.34,0.209546,0.209275,0.545997,8,0.018452,11,0.000114263,-3.26281,-0.708395,-0.0832869,-1.77824,0.209275,
2,1,0,1,0,9721.49,0.211044,0.210737,0.544028,8,0.0185355,11,0.000114647,-3.26438,-0.696089,-0.0847593,-1.7958,0.210737,
2,1,0,1,0,9721.64,0.212543,0.212244,0.543429,8,0.0186188,11,0.000115339,-3.26486,-0.761022,-0.0775273,-1.63459,0.212244,
2,1,0,1,0,9721.79,0.214041,0.213748,0.538547,8,0.0187018,11,0.000115114,-3.26878,-0.726655,-0.081194,-1.70659,0.213748,
2,1,0,1,0,9721.94,0.215539,0.215226,0.538025,8,0.0187844,11,0.000115797,-3.2692,-0.637151,-0.0925997,-1.93789,0.215226,
2,1,0,1,0,9722.09,0.217038,0.216752,0.532247,8,0.0188665,11,0.000115366,-3.27389,-0.76551,-0.0770728,-1.60738,0.216752,
2,1,0,1,0,9722.24,0.218535,0.218247,0.531649,8,0.0189483,11,0.000116031,-3.27438,-3.21278,-0.0183642,-0.380731,0.218247,
2,1,0,1,0,9722.39,0.220033,0.219737,0.530138,8,0.01903,11,0.000116491,-3.27561,-1.43611,-0.0410831,-0.85127,0.219737,
2,1,0,1,0,9722.54,0.221532,0.221247,0.526493,8,0.0191113,11,0.000116485,-3.27861,-0.766202,-0.0770032,-1.58958,0.221247,
2,1,0,1,0,9722.69,0.22303,0.222755,0.522138,8,0.0191922,11,0.000116309,-3.28221,-1.50357,-0.0392399,-0.804867,0.222755,
2,1,0,1,0,9722.84,0.224528,0.224263,0.525294,8,0.0192728,11,0.000117804,-3.2796,-0.762665,-0.0773603,-1.5825,0.224263,
2,1,0,1,0,9722.99,0.226026,0.225776,0.52168,8,0.0193532,11,0.000117783,-3.2826,-1.28212,-0.0460175,-0.935212,0.225776,
2,1,0,1,0,9723.14,0.227525,0.227223,0.520451,8,0.0194334,11,0.000118258,-3.28362,-0.84337,-0.0699574,-1.4173,0.227223,
2,1,0,1,0,9723.29,0.229023,0.228728,0.517081,8,0.0195133,11,0.000118271,-3.28644,-0.768094,-0.0768135,-1.55645,0.228728,
2,1,0,1,0,9723.44,0.230521,0.230228,0.517174,8,0.0195928,11,0.000119068,-3.28636,-1.10334,-0.053474,-1.08428,0.230228,
2,1,0,1,0,9723.59,0.232019,0.231671,0.516132,8,0.0196722,11,0.000119573,-3.28724,-1.39501,-0.0422937,-0.850363,0.231671,
2,1,0,1,0,9723.74,0.233518,0.233245,0.517174,8,0.0197516,11,0.000120628,-3.28636,-0.792356,-0.0744615,-1.49111,0.233245,
2,1,0,1,0,9723.89,0.235015,0.234752,0.512849,8,0.0198306,11,0.000120392,-3.29001,-1.32849,-0.0444112,-0.886439,0.234752,
2,1,0,1,0,9724.04,0.236513,0.236186,0.51146,8,0.0199092,11,0.0001208,-3.29119,-1.57589,-0.0374392,-0.747275,0.236186,
2,1,0,1,0,9724.18,0.238012,0.237758,0.510595,8,0.0199878,11,0.000121398,-3.29192,-4.75925,-0.0123969,-0.245632,0.237758,
2,1,0,1,0,9724.33,0.23951,0.239224,0.509591,8,0.0200662,11,0.000121906,-3.29278,-2.47737,-0.0238155,-0.473958,0.239224,
2,1,0,1,0,9724.48,0.241008,0.240704,0.505276,8,0.0201444,11,0.000121622,-3.29647,-1.2263,-0.0481121,-0.952756,0.240704,
2,1,0,1,0,9724.63,0.242506,0.242218,0.504014,8,0.0202222,11,0.000122081,-3.29756,-1.48471,-0.0397383,-0.786221,0.2422183,
2,1,0,1,0,9724.78,0.244005,0.243684,0.504195,8,0.0203,11,0.000122864,-3.2974,-11.791,-0.00500383,-0.0981602,0.243684,
2,1,0,1,0,9724.93,0.245503,0.24525,0.504673,8,0.0203777,11,0.000123771,-3.29699,-1.3655,-0.0432075,-0.850999,0.24525,
2,1,0,1,0,9725.08,0.247001,0.246765,0.50337,8,0.0204552,11,0.000124214,-3.29811,-0.917426,-0.0643104,-1.25955,0.2467653,
2,1,0,1,0,9725.23,0.2485,0.248205,0.49892,8,0.0205324,11,0.000123834,-3.30197,-3.10888,-0.0189779,-0.371884,0.248205,
2,1,0,1,0,9725.38,0.249997,0.249702,0.50046,8,0.0206094,11,0.000124966,-3.30063,-2.58879,-0.0227906,-0.443875,0.249702,
2,1,0,1,0,9725.53,0.251495,0.251206,0.500479,8,0.0206864,11,0.000125723,-3.30061,-1.67637,-0.035195,-0.68774,0.251206,
2,1,0,1,0,9725.68,0.252994,0.252717,0.496014,8,0.0207632,11,0.000125351,-3.30451,-0.737365,-0.0800146,-1.5513,0.252717,
2,1,0,1,0,9725.83,0.254492,0.254177,0.497043,8,0.0208399,11,0.000126337,-3.30361,-3.65143,-0.016158,-0.314546,0.2541765,
2,1,0,1,0,9725.98,0.25599,0.2557,0.494884,8,0.0209162,11,0.000126542,-3.3055,-1.67045,-0.0353199,-0.684489,0.2557,
2,1,0,1,0,9726.13,0.257488,0.257187,0.49495,8,0.0209925,11,0.000127295,-3.30544,-1.95861,-0.0301234,-0.581989,0.257187,
2,1,0,1,0,9726.28,0.258987,0.258758,0.495467,8,0.0210688,11,0.000128206,-3.30499,-1.30765,-0.0451192,-0.868581,0.258758,
2,1,0,1,0,9726.43,0.260485,0.260244,0.494294,8,0.0211448,11,0.000128637,-3.30601,-1.29036,-0.0457236,-0.881582,0.260244,
2,1,0,1,0,9726.58,0.261983,0.2617,0.492621,8,0.0212206,11,0.000128919,-3.30749,-1.59564,-0.0369758,-0.708286,0.2617,
2,1,0,1,0,9726.73,0.263481,0.263228,0.492325,8,0.0212963,11,0.000129594,-3.30775,-1.79891,-0.0327977,-0.6275,0.263228,
2,1,0,1,0,9726.88,0.26498,0.264737,0.49039,8,0.021372,11,0.000129824,-3.30946,-4.79302,-0.0123096,-0.235785,0.264737,
2,1,0,1,0,9727.03,0.266477,0.266186,0.49042,8,0.0214474,11,0.000130543,-3.30943,-3.68266,-0.016021,-0.306692,0.266186,
2,1,0,1,0,9727.18,0.267976,0.267668,0.48553,8,0.0215226,11,0.000129961,-3.31378,-4.14119,-0.0142471,-0.272063,0.267668,
2,1,0,1,0,9727.33,0.269474,0.269217,0.489197,8,0.0215978,11,0.0001317,-3.31052,6.90185,0.00854843,0.162554,0.269217,
2,1,0,1,0,9727.48,0.270972,0.27066,0.489128,8,0.0216729,11,0.000132388,-3.31058,-1.56493,-0.0377014,-0.713713,0.27066,
2,1,0,1,0,9727.63,0.27247,0.272167,0.486544,8,0.0217479,11,0.000132421,-3.31288,-1.15203,-0.0512142,-0.968649,0.272167,
2,1,0,1,0,9727.78,0.273968,0.273687,0.481464,8,0.0218226,11,0.00013177,-3.31744,-1.04591,-0.0564104,-1.06709,0.273687,
2,1,0,1,0,9727.93,0.275467,0.275213,0.485571,8,0.0218971,11,0.000133635,-3.31375,-1.01518,-0.0581179,-1.09857,0.275213,
2,1,0,1,0,9728.08,0.276965,0.2767,0.482547,8,0.0219716,11,0.00013352,-3.31646,-1.08308,-0.0544744,-1.02742,0.2767,
2,1,0,1,0,9728.23,0.278463,0.278188,0.482884,8,0.022046,11,0.000134333,-3.31616,-0.759657,-0.0776666,-1.45821,0.278188,
2,1,0,1,0,9728.38,0.279962,0.279673,0.482824,8,0.0221203,11,0.000135033,-3.31621,-2.60494,-0.0226493,-0.425838,0.279673,
2,1,0,1,0,9728.53,0.281459,0.281152,0.481694,8,0.0221942,11,0.000135429,-3.31723,-3.7133,-0.0158889,-0.298428,0.281152,
2,1,0,1,0,9728.68,0.282957,0.282673,0.481075,8,0.0222682,11,0.000135987,-3.31779,-1.69407,-0.0348274,-0.652282,0.282673,
2,1,0,1,0,9728.83,0.284456,0.284182,0.479767,8,0.0223422,11,0.000136341,-3.31897,-2.31887,-0.0254435,-0.475301,0.284182,
2,1,0,1,0,9728.98,0.285954,0.285666,0.477493,8,0.022416,11,0.000136404,-3.32103,-2.07493,-0.0284347,-0.529414,0.285666,
2,1,0,1,0,9729.13,0.287452,0.287137,0.47661,8,0.0224894,11,0.000136852,-3.32184,-1.17508,-0.0502091,-0.93542,0.287137,
2,1,0,1,0,9729.28,0.28895,0.28865,0.475163,8,0.0225629,11,0.000137156,-3.32316,10.6211,0.005555,0.102987,0.2886503,
2,1,0,1,0,9729.43,0.290449,0.290157,0.474284,8,0.0226363,11,0.000137617,-3.32396,-3.80583,-0.0155025,-0.287665,0.290157,
2,1,0,1,0,9729.58,0.291947,0.291628,0.473356,8,0.0227095,11,0.000138044,-3.32481,-1.4556,-0.0405331,-0.752598,0.291628,
2,1,0,1,0,9729.73,0.293445,0.293127,0.472431,8,0.0227825,11,0.000138482,-3.32566,-2.20418,-0.0267673,-0.496045,0.293127,
2,1,0,1,0,9729.88,0.294943,0.294609,0.475015,8,0.0228555,11,0.000139943,-3.32329,-2.07771,-0.0283967,-0.523662,0.294609,
2,1,0,1,0,9730.03,0.296442,0.296168,0.47504,8,0.0229284,11,0.000140692,-3.32327,-4.0039,-0.0147356,-0.271097,0.296168,
2,1,0,1,0,9730.18,0.297939,0.297656,0.472824,8,0.0230013,11,0.000140739,-3.3253,-1.01796,-0.0579592,-1.06277,0.297656,
2,1,0,1,0,9730.33,0.299437,0.299155,0.467702,8,0.0230738,11,0.000139916,-3.33003,-0.0011334,-52.056,-271.586,0.299155,
2,1,0,1,0,9730.41,0.299738,0.299388,0.11506,8,0.0231056,11,3.44476e-05,-3.93908,0.00145021,40.6838,416.701,0.299388,
2,0,0,1,0,9730.56,0.29824,0.297985,-0.0502468,8,0.0231021,11,-1.49728e-05,-4.29889,0.00543045,10.8647,140.035,0.297985,
2,0,0,1,0,9730.71,0.296741,0.296424,-0.0770915,8,0.0230903,11,-2.28518e-05,-4.11299,-0.00893822,-6.60086,16.4746,0.296424,
2,0,0,1,0,9730.86,0.295243,0.294938,-0.0972597,8,0.0230749,11,-2.86856e-05,-4.01207,-0.0191057,-3.08809,10.9259,0.2949385,
2,0,0,1,0,9731.01,0.293745,0.293422,-0.112272,8,0.0230572,11,-3.29431e-05,-3.94973,-0.0264997,-2.22644,9.3523,0.293422,
2,0,0,1,0,9731.16,0.292246,0.291938,-0.125083,8,0.0230375,11,-3.65164e-05,-3.9028,-0.0350234,-1.68459,8.00483,0.291938,
2,0,0,1,0,9731.31,0.290748,0.290446,-0.134519,8,0.0230161,11,-3.90703e-05,-3.87122,-0.0447595,-1.31816,6.83537,0.2904456,
2,0,0,1,0,9731.46,0.28925,0.288915,-0.145682,8,0.022993,11,-4.20899e-05,-3.83659,-0.0577174,-1.02222,5.76851,0.2889154,
2,0,0,1,0,9731.61,0.287752,0.287458,-0.152193,8,0.0229686,11,-4.37492e-05,-3.81761,-0.069677,-0.846765,5.05589,0.287458,
2,0,0,1,0,9731.76,0.286253,0.285941,-0.160089,8,0.0229432,11,-4.5776e-05,-3.79564,-0.0733863,-0.803965,5.05619,0.285941,
2,0,0,1,0,9731.91,0.284755,0.284461,-0.168256,8,0.0229164,11,-4.78624e-05,-3.77403,-0.0699328,-0.843667,5.45166,0.2844615,
2,0,0,1,0,9732.06,0.283258,0.28298,-0.176948,8,0.0228886,11,-5.00729e-05,-3.75215,-0.0844188,-0.698897,4.78549,0.28298,
2,0,0,1,0,9732.21,0.281759,0.281446,-0.180283,8,0.0228598,11,-5.07399e-05,-3.74405,-0.102093,-0.577907,4.07947,0.281446,
2,0,0,1,0,9732.36,0.280261,0.279971,-0.185503,8,0.0228301,11,-5.19355e-05,-3.73165,-0.0998345,-0.590978,4.31767,0.279971,
2,0,0,1,0,9732.51,0.278763,0.278501,-0.193281,8,0.0227996,11,-5.3829e-05,-3.71381,-0.133121,-0.443206,3.33455,0.278501,
2,0,0,1,0,9732.66,0.277264,0.276992,-0.199378,8,0.0227681,11,-5.52261e-05,-3.70032,-0.134096,-0.439984,3.42264,0.2769922,
2,0,0,1,0,9732.81,0.275766,0.275442,-0.203298,8,0.0227358,11,-5.59969e-05,-3.69187,-0.231981,-0.254331,1.99787,0.275442,
2,0,0,1,0,9732.96,0.274268,0.273967,-0.209244,8,0.0227027,11,-5.73259e-05,-3.67935,-0.159579,-0.369724,3.02969,0.273967,
2,0,0,1,0,9733.11,0.27277,0.272475,-0.214276,8,0.0226691,11,-5.83848e-05,-3.66903,-0.147747,-0.399332,3.35179,0.272475,
2,0,0,1,0,9733.26,0.271272,0.270981,-0.220933,8,0.0226346,11,-5.98686e-05,-3.65574,-0.182723,-0.322894,2.76874,0.270981,
2,0,0,1,0,9733.41,0.269773,0.269454,-0.225245,8,0.0225992,11,-6.06932e-05,-3.64734,-0.189518,-0.311316,2.70369,0.269454,
2,0,0,1,0,9733.56,0.268275,0.267992,-0.229402,8,0.0225633,11,-6.1478e-05,-3.6394,-0.181669,-0.324767,2.8877,0.267992,
2,0,0,1,0,9733.71,0.266778,0.266447,-0.23168,8,0.022527,11,-6.17304e-05,-3.63511,-0.162523,-0.363025,3.29245,0.266447,
2,0,0,1,0,9733.86,0.265279,0.265003,-0.237308,8,0.0224898,11,-6.28875e-05,-3.62469,-0.147995,-0.398663,3.67385,0.265003,
2,0,0,1,0,9734.01,0.263781,0.263524,-0.238303,8,0.0224519,11,-6.27985e-05,-3.62287,-0.21646,-0.272567,2.54587,0.263524,
2,0,0,1,0,9734.16,0.262283,0.261981,-0.243285,8,0.0224135,11,-6.37359e-05,-3.61389,-0.184411,-0.319937,3.06097,0.261981,
2,0,0,1,0,9734.31,0.260784,0.26049,-0.244925,8,0.0223746,11,-6.38007e-05,-3.61097,-0.231539,-0.254817,2.4716,0.26049,
2,0,0,1,0,9734.46,0.259286,0.258968,-0.252578,8,0.0223351,11,-6.54097e-05,-3.5976,-0.202118,-0.291908,2.87212,0.258968,
2,0,0,1,0,9734.61,0.257788,0.257483,-0.260285,8,0.0222948,11,-6.7019e-05,-3.58455,-0.267421,-0.220626,2.20175,0.257483,
2,0,0,1,0,9734.76,0.25629,0.255988,-0.261415,8,0.022254,11,-6.69191e-05,-3.58267,-0.2868,-0.205718,2.08461,0.255988,
2,0,0,1,0,9734.91,0.254791,0.254488,-0.261247,8,0.0222127,11,-6.64843e-05,-3.58295,-0.255905,-0.230554,2.35499,0.254488,
2,0,0,1,0,9735.06,0.253293,0.252975,-0.269067,8,0.022171,11,-6.80672e-05,-3.57014,-0.223098,-0.264458,2.76471,0.2529749,
2,0,0,1,0,9735.21,0.251796,0.251481,-0.26974,8,0.0221286,11,-6.78345e-05,-3.56906,-0.229884,-0.256651,2.71659,0.251481,
2,0,0,1,0,9735.36,0.250297,0.250036,-0.275334,8,0.0220856,11,-6.88433e-05,-3.56014,-0.374551,-0.157522,1.68665,0.250036,
2,0,0,1,0,9735.51,0.248799,0.248491,-0.276133,8,0.0220422,11,-6.86165e-05,-3.55888,-0.322374,-0.183017,1.9811,0.248491,
2,0,0,1,0,9735.66,0.247301,0.247023,-0.281271,8,0.0219983,11,-6.94804e-05,-3.55088,-0.243631,-0.24217,2.67617,0.247023,
2,0,0,1,0,9735.81,0.245802,0.2455,-0.283473,8,0.0219539,11,-6.95926e-05,-3.54749,-0.311793,-0.189228,2.09166,0.2455,
2,0,0,1,0,9735.96,0.244304,0.243987,-0.289136,8,0.0219087,11,-7.05454e-05,-3.5389,-0.327724,-0.180029,2.02641,0.243987,
2,0,0,1,0,9736.11,0.242806,0.242501,-0.292022,8,0.0218632,11,-7.08156e-05,-3.53459,-0.439672,-0.134191,1.52314,0.242501,
2,0,0,1,0,9736.26,0.241308,0.240988,-0.296248,8,0.0218173,11,-7.13922e-05,-3.52834,-0.333963,-0.176666,2.03667,0.240988,
2,0,0,1,0,9736.41,0.23981,0.239502,-0.29703,8,0.0217709,11,-7.11392e-05,-3.5272,-0.210028,-0.280915,3.25477,0.239502,
2,0,0,1,0,9736.56,0.238311,0.23801,-0.302071,8,0.0217238,11,-7.1896e-05,-3.51989,-0.28357,-0.208062,2.46167,0.23801,
2,0,0,1,0,9736.71,0.236814,0.236527,-0.304483,8,0.0216763,11,-7.20185e-05,-3.51644,-0.324269,-0.181948,2.16561,0.236527,
2,0,0,1,0,9736.86,0.235316,0.23499,-0.305854,8,0.0216283,11,-7.18726e-05,-3.51449,-0.256301,-0.230198,2.76987,0.23499,
2,0,0,1,0,9737,0.233817,0.233487,-0.310944,8,0.0215799,11,-7.26014e-05,-3.50732,-0.326206,-0.180867,2.19896,0.233487,
2,0,0,1,0,9737.15,0.232319,0.231985,-0.317698,8,0.0215308,11,-7.37013e-05,-3.49799,-0.335455,-0.175881,2.16317,0.231985,
2,0,0,1,0,9737.3,0.230821,0.23054,-0.319126,8,0.0214812,11,-7.35714e-05,-3.49604,-0.478328,-0.123346,1.52202,0.23054,
2,0,0,1,0,9737.45,0.229322,0.228999,-0.319746,8,0.0214313,11,-7.32216e-05,-3.49519,-0.381847,-0.154512,1.93831,0.228999,
2,0,0,1,0,9737.6,0.227824,0.227514,-0.323873,8,0.0213809,11,-7.36855e-05,-3.48963,-0.40871,-0.144357,1.83006,0.227514,
2,0,0,1,0,9737.75,0.226326,0.226034,-0.329051,8,0.0213298,11,-7.43768e-05,-3.48274,-0.413749,-0.142599,1.83453,0.226034,
2,0,0,1,0,9737.9,0.224828,0.224529,-0.33138,8,0.0212783,11,-7.44042e-05,-3.47967,-0.501729,-0.117593,1.51822,0.224529,
2,0,0,1,0,9738.05,0.223329,0.223076,-0.336956,8,0.0212262,11,-7.51668e-05,-3.47243,-0.279458,-0.211123,2.76069,0.223076,
2,0,0,1,0,9738.2,0.221831,0.221541,-0.340296,8,0.0211739,11,-7.53895e-05,-3.46814,-0.295046,-0.199969,2.63617,0.2215412,
2,0,0,1,0,9738.35,0.220334,0.220076,-0.343666,8,0.0211207,11,-7.56325e-05,-3.46386,-0.294222,-0.200529,2.67239,0.220076,
2,0,0,1,0,9738.5,0.218835,0.218501,-0.345753,8,0.0210669,11,-7.55474e-05,-3.46123,-0.302048,-0.195333,2.62914,0.218501,
2,0,0,1,0,9738.65,0.217337,0.217042,-0.350213,8,0.0210127,11,-7.6011e-05,-3.45567,-0.350473,-0.168344,2.30316,0.2170421,
2,0,0,1,0,9738.8,0.215839,0.215616,-0.350922,8,0.0209581,11,-7.56644e-05,-3.45479,-0.323923,-0.182142,2.50999,0.215616,
2,0,0,1,0,9738.95,0.21434,0.21401,-0.356104,8,0.0209029,11,-7.621e-05,-3.44842,-0.255049,-0.231328,3.20974,0.2140104,
2,0,0,1,0,9739.1,0.212842,0.212559,-0.360244,8,0.020847,11,-7.6573e-05,-3.4434,-0.335777,-0.175712,2.46908,0.212559,
2,0,0,1,0,9739.25,0.211344,0.211029,-0.365359,8,0.0207906,11,-7.71011e-05,-3.43728,-0.379024,-0.155663,2.2223,0.211029,
2,0,0,1,0,9739.4,0.209846,0.209552,-0.363641,8,0.0207337,11,-7.6202e-05,-3.43933,-0.345487,-0.170773,2.44983,0.209552,
2,0,0,1,0,9739.55,0.208348,0.208066,-0.373933,8,0.0206762,11,-7.78026e-05,-3.42721,-0.278316,-0.21199,3.09784,0.208066,
2,0,0,1,0,9739.7,0.206849,0.206526,-0.382614,8,0.0206178,11,-7.90198e-05,-3.41724,-0.280509,-0.210332,3.08741,0.206526,
2,0,0,1,0,9739.85,0.205352,0.205029,-0.380997,8,0.0205587,11,-7.81153e-05,-3.41908,-0.383721,-0.153757,2.28432,0.205029,
2,0,0,1,0,9740,0.203854,0.203547,-0.3845,8,0.0204992,11,-7.82638e-05,-3.4151,-0.300869,-0.196099,2.95304,0.203547,
2,0,0,1,0,9740.15,0.202355,0.202016,-0.387995,8,0.0204391,11,-7.83812e-05,-3.41117,-0.25287,-0.233321,3.56632,0.202016,
2,0,0,1,0,9740.3,0.200857,0.200508,-0.394679,8,0.0203782,11,-7.91363e-05,-3.40376,-0.321766,-0.183363,2.82753,0.200508,
2,0,0,1,0,9740.45,0.199359,0.199011,-0.400841,8,0.0203165,11,-7.97716e-05,-3.39703,-0.364734,-0.161762,2.52257,0.199011,
2,0,0,1,0,9740.6,0.19786,0.197537,-0.404751,8,0.0202541,11,-7.99532e-05,-3.39281,-0.287249,-0.205396,3.2372,0.197537,
2,0,0,1,0,9740.75,0.196362,0.196095,-0.411346,8,0.0201912,11,-8.06628e-05,-3.38579,-0.274445,-0.21498,3.44046,0.196095,
2,0,0,1,0,9740.9,0.194864,0.194545,-0.41749,8,0.0201272,11,-8.12203e-05,-3.37935,-0.239053,-0.246807,3.99245,0.194545,
2,0,0,1,0,9741.05,0.193366,0.193012,-0.422077,8,0.0200622,11,-8.1466e-05,-3.37461,-0.234373,-0.251735,4.15724,0.193012,
2,0,0,1,0,9741.2,0.191867,0.191556,-0.428839,8,0.0199965,11,-8.21467e-05,-3.36771,-0.291856,-0.202154,3.38866,0.191556,
2,0,0,1,0,9741.35,0.190369,0.19005,-0.434117,8,0.01993,11,-8.25037e-05,-3.36239,-0.210405,-0.280411,4.75062,0.1900495,
2,0,0,1,0,9741.5,0.188872,0.188504,-0.440376,8,0.0198624,11,-8.30126e-05,-3.35618,-0.17712,-0.333107,5.72228,0.188504,
2,0,0,1,0,9741.65,0.187373,0.187064,-0.449562,8,0.0197936,11,-8.4097e-05,-3.34721,-0.198031,-0.297933,5.22212,0.187064,
2,0,0,1,0,9741.8,0.185875,0.185526,-0.455313,8,0.0197238,11,-8.44722e-05,-3.34169,-0.208156,-0.283441,5.02406,0.185526,
2,0,0,1,0,9741.95,0.184377,0.184065,-0.460285,8,0.0196529,11,-8.47222e-05,-3.33697,-0.192418,-0.306624,5.55225,0.184065,
2,0,0,1,0,9742.1,0.182878,0.182562,-0.472594,8,0.0195809,11,-8.62776e-05,-3.32551,-0.18138,-0.325284,5.99886,0.182562,
2,0,0,1,0,9742.25,0.18138,0.181085,-0.482707,8,0.0195074,11,-8.74108e-05,-3.31632,-0.173417,-0.34022,6.40673,0.1810848,
2,0,0,1,0,9742.4,0.179882,0.179571,-0.489496,8,0.0194323,11,-8.78991e-05,-3.31025,-0.20622,-0.286102,5.47467,0.179571,
2,0,0,1,0,9742.55,0.178384,0.178054,-0.501271,8,0.0193558,11,-8.92533e-05,-3.29993,-0.169363,-0.348363,6.85212,0.178054,
2,0,0,1,0,9742.7,0.176886,0.176575,-0.512682,8,0.019278,11,-9.05268e-05,-3.29015,-0.152552,-0.386752,7.77129,0.176575,
2,0,0,1,0,9742.85,0.175387,0.17507,-0.527433,8,0.0191981,11,-9.23379e-05,-3.27783,-0.136963,-0.430773,8.85424,0.17507,
2,0,0,1,0,9743,0.17389,0.173567,-0.54028,8,0.0191162,11,-9.37746e-05,-3.26738,-0.124126,-0.475324,9.99349,0.173567,
2,0,0,1,0,9743.15,0.172392,0.172065,-0.555496,8,0.0190323,11,-9.55815e-05,-3.25532,-0.124078,-0.475508,10.2948,0.172065,
2,0,0,1,0,9743.3,0.170893,0.170618,-0.568243,8,0.0189463,11,-9.69521e-05,-3.24547,-0.1139,-0.517998,11.5149,0.170618,
2,0,0,1,0,9743.45,0.169395,0.169071,-0.58671,8,0.0188576,11,-9.91959e-05,-3.23158,-0.102126,-0.577715,13.2332,0.169071,
2,0,0,1,0,9743.6,0.167897,0.167566,-0.605752,8,0.018766,11,-0.000101503,-3.21771,-0.105943,-0.556902,13.2164,0.167566,
2,0,0,1,0,9743.75,0.166398,0.166065,-0.625536,8,0.0186716,11,-0.00010388,-3.20375,-0.105617,-0.558622,13.7634,0.166065,
2,0,0,1,0,9743.9,0.1649,0.164603,-0.646374,8,0.018574,11,-0.000106395,-3.18952,-0.0937168,-0.629556,16.034,0.164603,
2,0,0,1,0,9744.05,0.163402,0.163063,-0.676309,8,0.0184727,11,-0.000110281,-3.16985,-0.0864974,-0.682101,18.0133,0.163063,
2,0,0,1,0,9744.2,0.161904,0.161585,-0.706907,8,0.0183673,11,-0.000114226,-3.15064,-0.0824832,-0.715297,19.6479,0.161585,
2,0,0,1,0,9744.35,0.160405,0.160059,-0.738295,8,0.0182573,11,-0.000118171,-3.13177,-0.0835124,-0.706482,20.2727,0.160059,
2,0,0,1,0,9744.5,0.158907,0.158576,-0.764792,8,0.0181427,11,-0.000121278,-3.11646,-0.0750829,-0.785798,23.6522,0.158576,
2,0,0,1,0,9744.65,0.15741,0.157097,-0.806065,8,0.0180231,11,-0.00012663,-3.09363,-0.0694194,-0.849906,26.8789,0.157097,
2,0,0,1,0,9744.8,0.155911,0.155614,-0.846363,8,0.017897,11,-0.000131706,-3.07244,-0.0689535,-0.855649,28.3821,0.155614,
2,0,0,1,0,9744.95,0.154413,0.154109,-0.890402,8,0.0177644,11,-0.000137219,-3.05041,-0.0698592,-0.844556,29.4139,0.154109,
2,0,0,1,0,9745.1,0.152915,0.152638,-0.939264,8,0.0176251,11,-0.000143368,-3.02721,-0.0698145,-0.845096,31.0655,0.152638,
2,0,0,1,0,9745.24,0.151417,0.151117,-0.990899,8,0.0174789,11,-0.000149741,-3.00397,-0.0670535,-0.879894,34.0602,0.151117,
2,0,0,1,0,9745.39,0.149918,0.149608,-1.04629,8,0.0173245,11,-0.000156533,-2.98035,-0.065391,-0.902265,36.7062,0.149608,
2,0,0,1,0,9745.54,0.14842,0.148132,-1.1012,8,0.0171618,11,-0.000163122,-2.95813,-0.0689737,-0.855398,36.672,0.148132,
2,0,0,1,0,9745.69,0.146922,0.146609,-1.15685,8,0.0169907,11,-0.000169604,-2.93672,-0.0723199,-0.81582,36.7355,0.146609,
2,0,0,1,0,9745.84,0.145424,0.145126,-1.21034,8,0.0168117,11,-0.000175653,-2.91709,-0.073814,-0.799306,37.7454,0.1451264,
2,0,0,1,0,9745.99,0.143925,0.143627,-1.26864,8,0.0166239,11,-0.000182212,-2.89666,-0.0750534,-0.786107,38.79,0.143627,
2,0,0,1,0,9746.14,0.142428,0.142113,-1.32672,8,0.0164276,11,-0.000188545,-2.87722,-0.0856624,-0.688751,35.4215,0.1421131,
2,0,0,1,0,9746.29,0.14093,0.140619,-1.37429,8,0.0162233,11,-0.000193251,-2.86192,-0.100148,-0.589128,31.4659,0.140619,
2,0,0,1,0,9746.44,0.139431,0.139148,-1.41251,8,0.0160121,11,-0.000196548,-2.85001,-0.11062,-0.533359,29.4724,0.139148,
2,0,0,1,0,9746.59,0.137933,0.137607,-1.46099,8,0.0157945,11,-0.000201043,-2.83535,-0.125556,-0.469909,26.725,0.137607,
2,0,0,1,0,9746.74,0.136435,0.136141,-1.50006,8,0.0155706,11,-0.000204219,-2.82389,-0.149085,-0.395748,23.0486,0.136141,
2,0,0,1,0,9746.89,0.134936,0.1346,-1.53291,8,0.0153413,11,-0.000206329,-2.81448,-0.19996,-0.295059,17.5364,0.1346,
2,0,0,1,0,9747.04,0.133438,0.133142,-1.5554,8,0.0151078,11,-0.000207088,-2.80816,-0.238965,-0.246899,14.9587,0.133142,
2,0,0,1,0,9747.19,0.13194,0.131627,-1.5767,8,0.0148715,11,-0.000207537,-2.80225,-0.299998,-0.196668,12.0996,0.131627,
2,0,0,1,0,9747.34,0.130442,0.130156,-1.5938,8,0.0146319,11,-0.000207442,-2.79757,-0.376445,-0.156729,9.71012,0.130156,
2,0,0,1,0,9747.49,0.128943,0.128605,-1.60487,8,0.0143901,11,-0.000206395,-2.79456,-1.10891,-0.0532055,3.31509,0.128605,
2,0,0,1,0,9747.64,0.127445,0.127133,-1.60681,8,0.0141475,11,-0.000204279,-2.79403,-2.76849,-0.0213113,1.33201,0.127133,
2,0,0,1,0,9747.79,0.125948,0.12563,-1.60373,8,0.0139053,11,-0.000201477,-2.79487,3.64653,0.0161798,-1.01214,0.12563,
2,0,0,1,0,9747.94,0.124449,0.124153,-1.60137,8,0.013663,11,-0.000198814,-2.79551,1.28026,0.0460845,-2.86783,0.124153,
2,0,0,1,0,9748.09,0.122951,0.122646,-1.59537,8,0.0134215,11,-0.000195666,-2.79714,0.604683,0.0975718,-6.05849,0.122646,
2,0,0,1,0,9748.24,0.121453,0.121165,-1.58267,8,0.0131815,11,-0.000191765,-2.80061,0.401133,0.147083,-9.06419,0.121165,
2,0,0,1,0,9748.39,0.119955,0.11968,-1.5634,8,0.0129437,11,-0.000187108,-2.80593,0.377783,0.156174,-9.56063,0.11968,
2,0,0,1,0,9748.54,0.118456,0.118155,-1.54955,8,0.0127082,11,-0.000183087,-2.80979,0.380931,0.154884,-9.37575,0.118155,
2,0,0,1,0,9748.69,0.116958,0.116656,-1.53934,8,0.0124745,11,-0.000179572,-2.81267,0.29289,0.201441,-12.0578,0.116656,
2,0,0,1,0,9748.84,0.11546,0.115171,-1.51781,8,0.0122436,11,-0.000174808,-2.81878,0.229615,0.256951,-15.201,0.115171,
2,0,0,1,0,9748.99,0.113962,0.113636,-1.4916,8,0.012016,11,-0.000169499,-2.82635,0.237367,0.24856,-14.4978,0.1136355,
2,0,0,1,0,9749.14,0.112463,0.11214,-1.47273,8,0.0117918,11,-0.000165152,-2.83188,0.227677,0.259139,-14.9018,0.11214,
2,0,0,1,0,9749.29,0.110966,0.110621,-1.45152,8,0.0115707,11,-0.000160568,-2.83818,0.224918,0.262318,-14.8369,0.110621,
2,0,0,1,0,9749.44,0.109468,0.109211,-1.42883,8,0.0113529,11,-0.000156044,-2.84502,0.188293,0.313342,-17.4312,0.109211,
2,0,0,1,0,9749.59,0.107969,0.107685,-1.40258,8,0.0111386,11,-0.000151036,-2.85307,0.209794,0.281228,-15.4172,0.107685,
2,0,0,1,0,9749.74,0.106471,0.106199,-1.3778,8,0.0109285,11,-0.000146321,-2.86081,0.216641,0.27234,-14.6971,0.106199,
2,0,0,1,0,9749.89,0.104973,0.104714,-1.35653,8,0.0107214,11,-0.000142048,-2.86757,0.213943,0.275774,-14.6021,0.1047143,
2,0,0,1,0,9750.04,0.103474,0.103182,-1.33671,8,0.0105173,11,-0.000137924,-2.87396,0.189363,0.311571,-16.2123,0.103182,
2,0,0,1,0,9750.19,0.101976,0.101688,-1.31447,8,0.0103169,11,-0.000133665,-2.88125,0.191821,0.307579,-15.7789,0.101688,
2,0,0,1,0,9750.34,0.100478,0.100174,-1.29072,8,0.0101203,11,-0.000129296,-2.88917,0.213298,0.276608,-13.9487,0.100174,
2,0,0,1,0,9750.49,0.0989799,0.0986859,-1.27061,8,0.00992658,11,-0.000125391,-2.89599,0.251216,0.234858,-11.6374,0.09868589,
2,0,0,1,0,9750.64,0.0974808,0.0971887,-1.25405,8,0.00973546,11,-0.000121879,-2.90169,0.242769,0.24303,-11.8775,0.0971887,
2,0,0,1,0,9750.79,0.0959833,0.0956836,-1.23482,8,0.00954722,11,-0.000118152,-2.9084,0.244425,0.241383,-11.6467,0.0956836,
2,0,0,1,0,9750.94,0.0944857,0.094182,-1.21419,8,0.0093619,11,-0.000114355,-2.91571,0.293542,0.200993,-9.55792,0.094182,
2,0,0,1,0,9751.09,0.0929871,0.0926861,-1.2001,8,0.00917869,11,-0.000111233,-2.92078,0.336772,0.175193,-8.22547,0.0926861,
2,0,0,1,0,9751.24,0.0914889,0.0911326,-1.19192,8,0.00899756,11,-0.000108623,-2.92375,0.299148,0.197227,-9.15526,0.0911326,
2,0,0,1,0,9751.39,0.0899907,0.0896523,-1.17625,8,0.00881831,11,-0.000105453,-2.9295,0.291849,0.20216,-9.25675,0.0896523,
2,0,0,1,0,9751.54,0.0884925,0.0881571,-1.1585,8,0.00864131,11,-0.00010213,-2.93611,0.323308,0.182488,-8.27562,0.0881571,
2,0,0,1,0,9751.69,0.0869943,0.086681,-1.15229,8,0.00846625,11,-9.98816e-05,-2.93844,0.382848,0.154108,-6.9296,0.086681,
2,0,0,1,0,9751.84,0.0854962,0.0851742,-1.14075,8,0.00829263,11,-9.71624e-05,-2.94281,0.343232,0.171895,-7.65313,0.0851742,
2,0,0,1,0,9751.99,0.083998,0.0837013,-1.13239,8,0.00812031,11,-9.47825e-05,-2.946,0.316835,0.186217,-8.21131,0.08370129,
2,0,0,1,0,9752.14,0.0824998,0.0822072,-1.12308,8,0.00794971,11,-9.23254e-05,-2.94959,0.379329,0.155538,-6.81179,0.0822072,
2,0,0,1,0,9752.29,0.0810011,0.0807276,-1.11281,8,0.00778064,11,-8.98347e-05,-2.95358,0.467314,0.126253,-5.4848,0.0807276,
2,0,0,1,0,9752.44,0.0795036,0.0791884,-1.10094,8,0.0076128,11,-8.71818e-05,-2.95824,0.538957,0.109471,-4.70739,0.0791884,
2,0,0,1,0,9752.59,0.0780061,0.0776442,-1.09604,8,0.00744607,11,-8.51008e-05,-2.96018,0.439162,0.134347,-5.73989,0.0776442,
2,0,0,1,0,9752.74,0.076507,0.0762127,-1.0849,8,0.00728062,11,-8.26834e-05,-2.96461,0.396614,0.148759,-6.30131,0.0762127,
2,0,0,1,0,9752.89,0.0750088,0.0747292,-1.07489,8,0.00711704,11,-8.03258e-05,-2.96864,0.433343,0.136151,-5.72201,0.0747292,
2,0,0,1,0,9753.04,0.0735106,0.0732319,-1.0676,8,0.00695446,11,-7.81827e-05,-2.97159,0.599316,0.0984456,-4.09052,0.0732319,
2,0,0,1,0,9753.19,0.0720124,0.0717155,-1.05722,8,0.00679307,11,-7.5819e-05,-2.97584,0.407218,0.144886,-5.99211,0.0717155,
2,0,0,1,0,9753.34,0.0705142,0.0701875,-1.048,8,0.00663306,11,-7.35566e-05,-2.97964,0.344969,0.17103,-7.007,0.0701875,
2,0,0,1,0,9753.48,0.0690161,0.0687167,-1.0361,8,0.00647475,11,-7.11976e-05,-2.9846,0.362216,0.162886,-6.62371,0.06871669,
2,0,0,1,0,9753.63,0.0675179,0.0672268,-1.03123,8,0.00631779,11,-6.93262e-05,-2.98665,0.454149,0.129913,-5.22707,0.0672268,
2,0,0,1,0,9753.78,0.0660188,0.0657392,-1.02811,8,0.00616194,11,-6.75869e-05,-2.98796,0.384603,0.153405,-6.1168,0.0657392,
2,0,0,1,0,9753.93,0.0645213,0.0642227,-1.01246,8,0.00600746,11,-6.50231e-05,-2.99462,0.323494,0.182384,-7.17148,0.0642227,
2,0,0,1,0,9754.08,0.0630237,0.0627007,-0.997305,8,0.00585487,11,-6.25317e-05,-3.00117,0.343855,0.171584,-6.7006,0.0627007,
2,0,0,1,0,9754.23,0.0615251,0.0612292,-0.986563,8,0.00570409,11,-6.04064e-05,-3.00588,0.321319,0.183618,-7.09086,0.0612292,
2,0,0,1,0,9754.38,0.0600269,0.0597234,-0.978534,8,0.00555465,11,-5.84413e-05,-3.00942,0.328219,0.179758,-6.86379,0.0597234,
2,0,0,1,0,9754.53,0.0585287,0.0582261,-0.96528,8,0.00540691,11,-5.62045e-05,-3.01535,0.244971,0.240845,-9.05501,0.0582261,
2,0,0,1,0,9754.68,0.0570305,0.0566821,-0.956242,8,0.00526089,11,-5.42018e-05,-3.01943,0.275092,0.214473,-7.99932,0.0566821,
2,0,0,1,0,9754.83,0.0555323,0.0552018,-0.942566,8,0.0051171,11,-5.20313e-05,-3.02569,0.284364,0.207481,-7.64321,0.0552018,
2,0,0,1,0,9754.98,0.0540342,0.0537119,-0.9326,8,0.00497462,11,-5.00918e-05,-3.0303,0.29883,0.197436,-7.16673,0.0537119,
2,0,0,1,0,9755.13,0.052536,0.0521881,-0.921534,8,0.0048337,11,-4.80931e-05,-3.03549,0.258295,0.228421,-8.19826,0.0521881,
2,0,0,1,0,9755.28,0.0510378,0.0506824,-0.907441,8,0.00469475,11,-4.59912e-05,-3.04218,0.255284,0.231115,-8.19878,0.0506824,
2,0,0,1,0,9755.43,0.0495391,0.0492493,-0.895243,8,0.00455785,11,-4.40901e-05,-3.04806,0.287427,0.205269,-7.18404,0.0492493,
2,0,0,1,0,9755.58,0.0480416,0.0477452,-0.884818,8,0.00442245,11,-4.22458e-05,-3.05315,0.385172,0.153178,-5.28534,0.0477452,
2,0,0,1,0,9755.73,0.0465441,0.046255,-0.872123,8,0.00428866,11,-4.03401e-05,-3.05942,0.287532,0.205195,-6.99528,0.046255,
2,0,0,1,0,9755.88,0.045045,0.0447239,-0.862843,8,0.00415631,11,-3.85897e-05,-3.06407,0.298174,0.197871,-6.66618,0.0447239,
2,0,0,1,0,9756.03,0.0435468,0.0432192,-0.848145,8,0.00402592,11,-3.66562e-05,-3.07153,0.289978,0.203464,-6.76932,0.0432192,
2,0,0,1,0,9756.18,0.0420486,0.0417696,-0.844432,8,0.00389696,11,-3.52716e-05,-3.07344,0.331931,0.177748,-5.8533,0.0417696,
2,0,0,1,0,9756.33,0.0405504,0.0402225,-0.836793,8,0.00376913,11,-3.36579e-05,-3.07738,0.343303,0.17186,-5.59458,0.0402225,
2,0,0,1,0,9756.48,0.0390523,0.0387188,-0.824736,8,0.00364259,11,-3.19328e-05,-3.08368,0.281583,0.20953,-6.74446,0.0387188,
2,0,0,1,0,9756.63,0.0375541,0.0372459,-0.815071,8,0.00351738,11,-3.03581e-05,-3.0888,0.345223,0.170904,-5.46281,0.03724594,
2,0,0,1,0,9756.78,0.0360559,0.0357486,-0.81088,8,0.00339371,11,-2.89878e-05,-3.09104,0.369871,0.159515,-5.0596,0.0357486,
2,0,0,1,0,9756.93,0.0345568,0.0342304,-0.803303,8,0.00327072,11,-2.74974e-05,-3.09512,0.445949,0.132302,-4.15043,0.0342304,
2,0,0,1,0,9757.08,0.0330593,0.0327538,-0.798334,8,0.00314873,11,-2.61484e-05,-3.09782,0.398123,0.148195,-4.60759,0.0327538,
2,0,0,1,0,9757.23,0.0315618,0.0312562,-0.792854,8,0.00302765,11,-2.47816e-05,-3.10081,0.503606,0.117155,-3.62529,0.03125618,
2,0,0,1,0,9757.38,0.0300631,0.0297478,-0.786058,8,0.0029077,11,-2.33835e-05,-3.10455,0.670335,0.0880157,-2.7027,0.0297478,
2,0,0,1,0,9757.53,0.0285649,0.0282335,-0.782845,8,0.00278817,11,-2.21025e-05,-3.10632,1.26519,0.0466333,-1.42173,0.0282335,
2,0,0,1,0,9757.68,0.0270667,0.026715,-0.778082,8,0.00266912,11,-2.07865e-05,-3.10897,0.73158,0.0806473,-2.44905,0.026715,
2,0,0,1,0,9757.83,0.0255685,0.0252761,-0.775147,8,0.00255066,11,-1.95927e-05,-3.11062,0.619251,0.0952764,-2.88671,0.0252761,
2,0,0,1,0,9757.98,0.0240704,0.0237427,-0.769597,8,0.00243305,11,-1.82723e-05,-3.11374,1.18686,0.0497112,-1.50239,0.02374272,
2,0,0,1,0,9758.13,0.0225722,0.0222476,-0.769225,8,0.00231571,11,-1.71134e-05,-3.11395,3.01449,0.0195722,-0.586688,0.0222476,
2,0,0,1,0,9758.28,0.021074,0.0207545,-0.767739,8,0.00219845,11,-1.5934e-05,-3.11479,2.83782,0.0207906,-0.623,0.0207545,
2,0,0,1,0,9758.43,0.0195758,0.0192402,-0.767217,8,0.00208147,11,-1.47614e-05,-3.11508,1.39534,0.0422837,-1.26504,0.0192402,
2,0,0,1,0,9758.58,0.0180772,0.0177945,-0.760844,8,0.00196481,11,-1.35389e-05,-3.1187,8.59316,0.00686593,-0.205355,0.0177945,
2,0,0,1,0,9758.73,0.0165796,0.0162583,-0.76614,8,0.00184829,11,-1.24561e-05,-3.11569,-2.27324,-0.0259541,0.776124,0.0162583,
2,0,0,1,0,9758.88,0.0150821,0.0147821,-0.767039,8,0.00173159,11,-1.13385e-05,-3.11518,-15.8166,-0.00373026,0.111409,0.0147821,
2,0,0,1,0,9759.03,0.013583,0.0132426,-0.765828,8,0.00161461,11,-1.01415e-05,-3.11587,3.49483,0.0168821,-0.504072,0.0132426,
2,0,0,1,0,9759.18,0.0120848,0.0117951,-0.765488,8,0.00149801,11,-9.02902e-06,-3.11606,-3.9707,-0.0148588,0.445314,0.0117951,
2,0,0,1,0,9759.33,0.0105866,0.010265,-0.767221,8,0.00138127,11,-7.87549e-06,-3.11508,-1.37419,-0.0429345,1.28501,0.010265,
2,0,0,1,0,9759.48,0.00908846,0.00877509,-0.769965,8,0.00126419,11,-6.75651e-06,-3.11353,-1.36588,-0.0431956,1.29671,0.00877509,
2,0,0,1,0,9759.63,0.00759027,0.00726719,-0.772057,8,0.00114677,11,-5.61068e-06,-3.11235,-5.35315,-0.0110216,0.331352,0.00726719,
2,0,0,1,0,9759.78,0.00609208,0.00580489,-0.772319,8,0.00102913,11,-4.48322e-06,-3.1122,-2.12094,-0.0278179,0.838393,0.00580489,
2,0,0,1,0,9759.93,0.00459389,0.00428851,-0.775994,8,0.000911446,11,-3.32786e-06,-3.11014,-2.041,-0.0289073,0.87483,0.00428851,
2,0,0,1,0,9760.08,0.0030948,0.00280917,-0.78063,8,0.000793075,11,-2.19293e-06,-3.10755,-0.553489,-0.106596,3.2318,0.00280917,
2,0,0,1,0,9760.23,0.00159728,0.00121082,-0.790687,8,0.000672321,11,-9.57381e-07,-3.102, , , ,0.00121082,
2,0,0,1,0,9760.37,0.000199195,-0.000128724,-0.784231,8,0.000560631,11,1.00949e-07,-3.10556, , , ,-0.000128724,