File: Figure_codes/Fig_3-5/rawdata_trumpetplot_data/before 10th/20221101_1-115_002_TrumpetPlot_ParaChange_11_CV_C01_7.csv
mode,ox/red,error,control changes,counter inc.,time/s,control/V,Ewe/V,<I>/mA,cycle number,(Q-Qo)/C,I Range,P/W,log(|I|),Tafel slope mV/dec,alpha_eff,dI/d(E-IR),E-IR/V,
2,0,0,1,0,9823.39,2.44065e-05,0.000476344,-7.22551,8,0.0000000E+000,11,-3.44183e-06,-2.14113, , , ,0.000476344,
2,0,0,1,0,9823.41,0.00179726,0.00135644,-2.80446,8,-9.08641e-05,11,-3.80406e-06,-2.55215, , , ,0.00135644,
2,0,0,1,0,9823.43,0.00379485,0.00346434,0.228114,8,-0.000112629,11,7.90263e-07,-3.64185,-0.0220416,-2.67675,1125.32,0.00346434,
2,1,0,1,0,9823.45,0.00579244,0.00547017,1.8248,8,-9.03173e-05,11,9.98194e-06,-2.73879,0.00366202,16.1113,635.367,0.005470166,
2,1,0,1,0,9823.47,0.00779002,0.0074179,2.74008,8,-4.36864e-05,11,2.03256e-05,-2.56224,0.0155203,3.80148,370.288,0.0074179,
2,1,0,1,0,9823.49,0.00978761,0.0094925,3.31422,8,1.72006e-05,11,3.14602e-05,-2.47962,0.032594,1.81015,224.426,0.0094925,
2,1,0,1,0,9823.51,0.0117852,0.0115066,3.6577,8,8.72852e-05,11,4.20878e-05,-2.43679,0.0580147,1.01698,142.424,0.0115066,
2,1,0,1,0,9823.53,0.0137828,0.0134466,3.87738,8,0.000162857,11,5.21376e-05,-2.41146,0.0904859,0.652035,97.9071,0.01344661,
2,1,0,1,0,9823.55,0.0157804,0.0154499,4.04377,8,0.000242238,11,6.24759e-05,-2.39321,0.128909,0.457685,71.8114,0.0154499,
2,1,0,1,0,9823.57,0.017778,0.0174765,4.16677,8,0.000324117,11,7.28205e-05,-2.3802,0.187008,0.315495,51.0436,0.0174765,
2,1,0,1,0,9823.59,0.0197755,0.0194724,4.24909,8,0.00040837,11,8.27399e-05,-2.3717,0.234797,0.251281,41.6714,0.0194724,
2,1,0,1,0,9823.61,0.0217731,0.021462,4.33285,8,0.000494268,11,9.29917e-05,-2.36323,0.271388,0.217401,36.6716,0.021462,
2,1,0,1,0,9823.63,0.0237707,0.023482,4.39613,8,0.000581671,11,0.00010323,-2.35693,0.282232,0.209048,35.9321,0.02348195,
2,1,0,1,0,9823.65,0.0257683,0.025459,4.47647,8,0.000670054,11,0.000113967,-2.34906,0.276799,0.213151,37.1819,0.02545904,
2,1,0,1,0,9823.67,0.0277659,0.0274623,4.54413,8,0.000760309,11,0.000124792,-2.34255,0.305731,0.19298,34.2244,0.0274623,
2,1,0,1,0,9823.69,0.0297635,0.0294379,4.61265,8,0.000852005,11,0.000135787,-2.33605,0.311682,0.189295,34.0713,0.0294379,
2,1,0,1,0,9823.71,0.0317611,0.0314633,4.68045,8,0.000945093,11,0.000147262,-2.32971,0.270897,0.217795,39.8901,0.0314633,
2,1,0,1,0,9823.73,0.0337586,0.033492,4.77437,8,0.0010392,11,0.000159903,-2.32108,0.252625,0.233547,43.4464,0.033492,
2,1,0,1,0,9823.75,0.0357562,0.0354568,4.85395,8,0.00113555,11,0.000172105,-2.3139,0.293889,0.200756,37.993,0.0354568,
2,1,0,1,0,9823.77,0.0377538,0.0374518,4.92481,8,0.00123348,11,0.000184443,-2.30761,0.273434,0.215774,41.5667,0.0374518,
2,1,0,1,0,9823.79,0.0397514,0.0394311,5.01915,8,0.00133303,11,0.00019791,-2.29937,0.217397,0.271393,53.2771,0.0394311,
2,1,0,1,0,9823.81,0.041749,0.041433,5.13691,8,0.00143411,11,0.000212838,-2.2893,0.228697,0.257984,51.5771,0.041433,
2,1,0,1,0,9823.83,0.0437466,0.0434749,5.22771,8,0.00153789,11,0.000227274,-2.28169,0.253525,0.232718,47.5177,0.04347486,
2,1,0,1,0,9823.85,0.0457442,0.045456,5.32808,8,0.00164351,11,0.000242194,-2.27343,0.229703,0.256853,53.4633,0.045456,
2,1,0,1,0,9823.87,0.0477418,0.0474563,5.44058,8,0.00175124,11,0.00025819,-2.26436,0.206423,0.285821,60.7715,0.0474563,
2,1,0,1,0,9823.89,0.0497484,0.049434,5.56983,8,0.00186134,11,0.000275339,-2.25416,0.217747,0.270956,58.7611,0.04943401,
2,1,0,1,0,9823.91,0.0517369,0.0514411,5.67473,8,0.00197325,11,0.000291914,-2.24605,0.219504,0.268788,59.6511,0.0514411,
2,1,0,1,0,9823.93,0.0537345,0.0533731,5.8048,8,0.00208809,11,0.00030982,-2.23621,0.212877,0.277155,62.7327,0.0533731,
2,1,0,1,0,9823.95,0.0557321,0.0554553,5.92655,8,0.00220554,11,0.000328658,-2.2272,0.22564,0.261478,60.4726,0.0554553,
2,1,0,1,0,9823.97,0.0577206,0.0574082,6.04881,8,0.00232478,11,0.000347251,-2.21833,0.212432,0.277736,65.6488,0.0574082,
2,1,0,1,0,9823.99,0.0597273,0.059447,6.1886,8,0.00244741,11,0.000367894,-2.20841,0.207975,0.283688,68.4926,0.059447,
2,1,0,1,0,9824.01,0.0617249,0.0614564,6.32609,8,0.00257272,11,0.000388779,-2.19886,0.224086,0.263292,64.9164,0.0614564,
2,1,0,1,0,9824.03,0.0637224,0.0634493,6.44841,8,0.00270059,11,0.000409147,-2.19055,0.22107,0.266883,67.2566,0.0634493,
2,1,0,1,0,9824.05,0.06572,0.0653845,6.59028,8,0.00283111,11,0.000430902,-2.1811,0.208087,0.283535,72.9411,0.0653845,
2,1,0,1,0,9824.07,0.0677176,0.0674085,6.7372,8,0.00296398,11,0.000454145,-2.17152,0.231604,0.254745,66.8583,0.06740851,
2,1,0,1,0,9824.09,0.0697152,0.0694388,6.86134,8,0.00310012,11,0.000476443,-2.16359,0.245395,0.240429,64.4112,0.0694388,
2,1,0,1,0,9824.11,0.0717128,0.071387,6.99346,8,0.00323882,11,0.000499242,-2.15531,0.235939,0.250065,68.2851,0.071387,
2,1,0,1,0,9824.13,0.0737104,0.0734368,7.13434,8,0.00338021,11,0.000523923,-2.14665,0.240985,0.244828,68.1259,0.0734368,
2,1,0,1,0,9824.15,0.075708,0.0754201,7.26822,8,0.00352366,11,0.00054817,-2.13857,0.265026,0.22262,63.0771,0.0754201,
2,1,0,1,0,9824.17,0.0777056,0.0774481,7.38737,8,0.00367023,11,0.000572138,-2.13151,0.279358,0.211198,60.8988,0.0774481,
2,1,0,1,0,9824.19,0.0797031,0.0793911,7.51005,8,0.00381931,11,0.000596231,-2.12436,0.274137,0.215221,63.0944,0.0793911,
2,1,0,1,0,9824.21,0.0817007,0.0814135,7.63756,8,0.00397089,11,0.0006218,-2.11705,0.285415,0.206717,61.5829,0.0814135,
2,1,0,1,0,9824.23,0.0836983,0.0834203,7.75818,8,0.0041241,11,0.000647189,-2.11024,0.29942,0.197048,59.6379,0.0834203,
2,1,0,1,0,9824.25,0.0856959,0.0853751,7.87382,8,0.00428048,11,0.000672228,-2.10381,0.312413,0.188853,58.0229,0.0853751,
2,1,0,1,0,9824.27,0.0876935,0.0873801,7.98794,8,0.00443916,11,0.000697986,-2.09757,0.340038,0.17351,54.0494,0.0873801,
2,1,0,1,0,9824.29,0.0896911,0.08939,8.09082,8,0.00459999,11,0.000723239,-2.09201,0.320753,0.183942,58.1688,0.08939,
2,1,0,1,0,9824.31,0.0916887,0.0913545,8.21913,8,0.0047623,11,0.000750854,-2.08517,0.317892,0.185598,59.4559,0.0913545,
2,1,0,1,0,9824.33,0.0936862,0.0933648,8.32715,8,0.00492792,11,0.000777462,-2.0795,0.366013,0.161196,52.3698,0.0933648,
2,1,0,1,0,9824.35,0.0956838,0.0953989,8.43093,8,0.00509563,11,0.000804301,-2.07412,0.342274,0.172376,56.7876,0.0953989,
2,1,0,1,0,9824.37,0.0976814,0.0974056,8.55662,8,0.00526558,11,0.000833463,-2.0677,0.291421,0.202456,67.6774,0.09740565,
2,1,0,1,0,9824.39,0.099679,0.0993943,8.70133,8,0.00543727,11,0.000864862,-2.06041,0.295396,0.199732,67.7437,0.0993943,
2,1,0,1,0,9824.41,0.101677,0.101386,8.82629,8,0.00561266,11,0.000894866,-2.05422,0.305354,0.193218,66.6129,0.101386,
2,1,0,1,0,9824.43,0.103674,0.103391,8.96759,8,0.00579064,11,0.000927172,-2.04732,0.275855,0.213881,74.9084,0.103391,
2,1,0,1,0,9824.45,0.105672,0.105357,9.12372,8,0.00597161,11,0.000961248,-2.03983,0.258793,0.227982,81.2131,0.105357,
2,1,0,1,0,9824.47,0.107667,0.107358,9.28976,8,0.0061548,11,0.000997333,-2.032,0.240199,0.24563,89.1524,0.107358,
2,1,0,1,0,9824.49,0.109667,0.10934,9.47877,8,0.00634251,11,0.00103641,-2.02325,0.223363,0.264144,97.78,0.10934,
2,1,0,1,0,9824.51,0.111665,0.111383,9.6833,8,0.00653417,11,0.00107856,-2.01398,0.213478,0.276375,104.491,0.111383,
2,1,0,1,0,9824.53,0.113662,0.113366,9.89951,8,0.00673012,11,0.00112227,-2.00439,0.211019,0.279596,107.978,0.113366,
2,1,0,1,0,9824.55,0.11566,0.115344,10.111,8,0.00693026,11,0.00116624,-1.99521,0.197683,0.298457,118.022,0.115344,
2,1,0,1,0,9824.57,0.117657,0.117346,10.3692,8,0.00713423,11,0.00121679,-1.98425,0.191928,0.307407,124.268,0.1173459,
2,1,0,1,0,9824.59,0.119655,0.119354,10.6093,8,0.00734406,11,0.00126626,-1.97431,0.204587,0.288387,119.366,0.119354,
2,1,0,1,0,9824.61,0.121652,0.121339,10.8458,8,0.00755867,11,0.00131602,-1.96474,0.20644,0.285798,121.007,0.121339,
2,1,0,1,0,9824.63,0.12365,0.123345,11.0923,8,0.00777814,11,0.00136818,-1.95498,0.203035,0.290591,125.861,0.123345,
2,1,0,1,0,9824.65,0.125648,0.125378,11.3542,8,0.00800167,11,0.00142356,-1.94484,0.212265,0.277955,122.981,0.125378,
2,1,0,1,0,9824.67,0.127645,0.127356,11.5855,8,0.00823116,11,0.00147548,-1.93609,0.224804,0.262451,118.699,0.1273558,
2,1,0,1,0,9824.69,0.129643,0.129356,11.8264,8,0.00846538,11,0.00152982,-1.92715,0.231947,0.254368,117.331,0.129356,
2,1,0,1,0,9824.71,0.13164,0.131365,12.0558,8,0.00870433,11,0.00158371,-1.9188,0.244476,0.241333,113.506,0.131365,
2,1,0,1,0,9824.73,0.133638,0.133347,12.2794,8,0.00894668,11,0.00163743,-1.91082,0.259465,0.227391,108.917,0.1333473,
2,1,0,1,0,9824.75,0.135636,0.13538,12.4932,8,0.00919447,11,0.00169133,-1.90333,0.277747,0.212423,103.505,0.1353801,
2,1,0,1,0,9824.77,0.137633,0.137344,12.6932,8,0.00944639,11,0.00174333,-1.89643,0.301904,0.195426,96.7378,0.137344,
2,1,0,1,0,9824.79,0.139631,0.139341,12.8763,8,0.00970219,11,0.0017942,-1.89021,0.328559,0.179572,90.2284,0.139341,
2,1,0,1,0,9824.81,0.141628,0.14139,13.0582,8,0.00996026,11,0.0018463,-1.88412,0.352395,0.167426,85.2483,0.1413902,
2,1,0,1,0,9824.83,0.143626,0.143354,13.2185,8,0.0102231,11,0.00189492,-1.87882,0.401991,0.146769,75.6493,0.143354,
2,1,0,1,0,9824.85,0.145623,0.14534,13.357,8,0.010489,11,0.00194131,-1.87429,0.528667,0.111601,58.0679,0.14534,
2,1,0,1,0,9824.87,0.147621,0.147283,13.4466,8,0.010757,11,0.00198046,-1.87139,0.711549,0.0829176,43.5006,0.147283,
2,1,0,1,0,9824.89,0.149619,0.149286,13.5287,8,0.0110255,11,0.00201964,-1.86875,1.3586,0.043427,22.8678,0.149286,
2,1,0,1,0,9824.91,0.151616,0.151325,13.5391,8,0.0112963,11,0.0020488,-1.86841,-3.17716,-0.01857,-9.79039,0.151325,
2,1,0,1,0,9824.93,0.153614,0.153298,13.4894,8,0.0115668,11,0.00206789,-1.87001,-0.754191,-0.0782295,-41.0829,0.153298,
2,1,0,1,0,9824.95,0.155611,0.155344,13.374,8,0.0118355,11,0.00207757,-1.87374,-0.411801,-0.143273,-74.5839,0.155344,
2,1,0,1,0,9824.97,0.157609,0.157321,13.1893,8,0.0120999,11,0.00207496,-1.87978,-0.237115,-0.248824,-127.394,0.157321,
2,1,0,1,0,9824.99,0.159607,0.159324,12.8669,8,0.0123607,11,0.00205001,-1.89053,-0.162385,-0.363333,-181.794,0.159324,
2,1,0,1,0,9825.01,0.161604,0.161338,12.459,8,0.0126141,11,0.00201012,-1.90452,-0.123719,-0.476888,-230.764,0.161338,
2,1,0,1,0,9825.03,0.163602,0.16333,11.9426,8,0.0128582,11,0.00195058,-1.9229,-0.0971377,-0.607385,-281.852,0.16333,
2,1,0,1,0,9825.05,0.165606,0.165311,11.3392,8,0.0130912,11,0.0018745,-1.94542,-0.0818896,-0.720482,-317.703,0.165311,
2,1,0,1,0,9825.06,0.167597,0.167308,10.6787,8,0.0133103,11,0.00178663,-1.97148,-0.0718037,-0.821684,-341.362,0.1673082,
2,1,0,1,0,9825.08,0.169595,0.169294,9.97978,8,0.0135169,11,0.00168951,-2.00088,-0.0664973,-0.887254,-344.929,0.169294,
2,1,0,1,0,9825.1,0.171592,0.171372,9.27689,8,0.0137094,11,0.0015898,-2.0326,-0.0621152,-0.949847,-343.917,0.171372,
2,1,0,1,0,9825.12,0.173581,0.173279,8.60915,8,0.0138872,11,0.00149179,-2.06504,-0.0620631,-0.950645,-320.273,0.173279,
2,1,0,1,0,9825.14,0.175587,0.175301,8.01872,8,0.0140535,11,0.00140569,-2.09589,-0.0658112,-0.896504,-281.111,0.175301,
2,1,0,1,0,9825.16,0.177585,0.177274,7.48615,8,0.0142083,11,0.0013271,-2.12574,-0.0696176,-0.847487,-248.413,0.177274,
2,1,0,1,0,9825.18,0.179582,0.179303,7.0245,8,0.0143532,11,0.00125951,-2.15338,-0.0793102,-0.743914,-205.059,0.179303,
2,1,0,1,0,9825.2,0.18158,0.181321,6.6562,8,0.0144899,11,0.00120691,-2.17677,-0.0913136,-0.646125,-168.481,0.181321,
2,1,0,1,0,9825.22,0.183578,0.183308,6.34972,8,0.0146194,11,0.00116395,-2.19725,-0.0994051,-0.593531,-147.31,0.183308,
2,1,0,1,0,9825.24,0.185575,0.185288,6.07185,8,0.0147435,11,0.00112504,-2.21668,-0.11137,-0.529763,-126.01,0.185288,
2,1,0,1,0,9825.26,0.187573,0.187299,5.84683,8,0.0148626,11,0.0010951,-2.23308,-0.128367,-0.45962,-105.124,0.187299,
2,1,0,1,0,9825.28,0.18957,0.189261,5.65423,8,0.0149777,11,0.00107012,-2.24763,-0.146932,-0.401546,-88.818,0.189261,
2,1,0,1,0,9825.3,0.191568,0.191292,5.49214,8,0.0150887,11,0.0010506,-2.26026,-0.16185,-0.364535,-78.1977,0.191292,
2,1,0,1,0,9825.32,0.193566,0.193256,5.34184,8,0.015197,11,0.00103234,-2.27231,-0.176553,-0.334177,-69.8022,0.193256,
2,1,0,1,0,9825.34,0.195563,0.195269,5.21459,8,0.0153027,11,0.00101825,-2.28278,-0.190068,-0.310414,-63.173,0.1952685,
2,1,0,1,0,9825.36,0.197561,0.19725,5.08952,8,0.0154058,11,0.00100391,-2.29332,-0.217532,-0.271224,-54.0407,0.19725,
2,1,0,1,0,9825.38,0.199558,0.199282,4.99772,8,0.0155062,11,0.000995954,-2.30123,-0.251414,-0.234673,-45.7699,0.199282,
2,1,0,1,0,9825.4,0.201556,0.201246,4.90662,8,0.0156053,11,0.000987436,-2.30922,-0.247158,-0.238714,-45.7185,0.201246,
2,1,0,1,0,9825.42,0.203553,0.203209,4.81817,8,0.0157025,11,0.000979095,-2.31712,-0.266851,-0.221097,-41.609,0.203209,
2,1,0,1,0,9825.44,0.205551,0.205282,4.73866,8,0.0157981,11,0.000972763,-2.32434,-0.36782,-0.160404,-29.782,0.205282,
2,1,0,1,0,9825.46,0.207549,0.207269,4.69726,8,0.015892,11,0.000973595,-2.32816,-0.372592,-0.15835,-28.927,0.207269,
2,1,0,1,0,9825.48,0.209546,0.209265,4.62345,8,0.0159851,11,0.000967527,-2.33503,-0.305078,-0.193393,-34.9242,0.209265,
2,1,0,1,0,9825.5,0.211544,0.211259,4.5579,8,0.0160769,11,0.000962898,-2.34123,-0.363244,-0.162425,-28.9408,0.2112589,
2,1,0,1,0,9825.52,0.213541,0.213249,4.50815,8,0.0161675,11,0.000961359,-2.346,-0.512098,-0.115212,-20.3084,0.213249,
2,1,0,1,0,9825.54,0.215539,0.215312,4.47559,8,0.0162568,11,0.000963649,-2.34915,-0.456859,-0.129143,-22.4916,0.215312,
2,1,0,1,0,9825.56,0.217537,0.217286,4.41735,8,0.0163457,11,0.000959829,-2.35484,-0.432432,-0.136437,-23.5807,0.217286,
2,1,0,1,0,9825.58,0.219534,0.219289,4.38181,8,0.0164337,11,0.000960883,-2.35835,-0.566515,-0.104145,-17.8095,0.2192892,
2,1,0,1,0,9825.6,0.221532,0.221273,4.34635,8,0.0165211,11,0.000961729,-2.36188,-0.552024,-0.106879,-18.1285,0.221273,
2,1,0,1,0,9825.62,0.223525,0.223211,4.3107,8,0.0166072,11,0.000962198,-2.36545,-0.626679,-0.094147,-15.8532,0.223211,
2,1,0,1,0,9825.64,0.225527,0.225259,4.28316,8,0.0166932,11,0.00096482,-2.36824,-0.750872,-0.0785753,-13.1368,0.225259,
2,1,0,1,0,9825.66,0.227525,0.227281,4.25725,8,0.0167786,11,0.000967589,-2.37087,-0.605997,-0.0973602,-16.1514,0.227281,
2,1,0,1,0,9825.68,0.229522,0.229264,4.21847,8,0.0168635,11,0.000967143,-2.37484,-0.695361,-0.084848,-14.0042,0.229264,
2,1,0,1,0,9825.7,0.23152,0.231285,4.20117,8,0.0169477,11,0.000971667,-2.37663,-1.3645,-0.0432394,-7.09482,0.231285,
2,1,0,1,0,9825.72,0.233517,0.233244,4.19024,8,0.0170313,11,0.000977346,-2.37776,-0.850562,-0.0693659,-11.3127,0.233244,
2,1,0,1,0,9825.74,0.235515,0.235226,4.15658,8,0.0171148,11,0.000977737,-2.38126,-0.695241,-0.0848627,-13.7867,0.235226,
2,1,0,1,0,9825.76,0.237512,0.237224,4.13536,8,0.0171977,11,0.000981007,-2.38349,-1.05639,-0.0558508,-9.02058,0.237224,
2,1,0,1,0,9825.78,0.23951,0.239234,4.12043,8,0.0172803,11,0.000985746,-2.38506,-1.54184,-0.038266,-6.15716,0.239234,
2,1,0,1,0,9825.8,0.241508,0.241265,4.11048,8,0.0173623,11,0.000991715,-2.38611,-1.03019,-0.0572709,-9.16846,0.241265,
2,1,0,1,0,9825.82,0.243505,0.243243,4.08367,8,0.0174441,11,0.000993325,-2.38895,-1.03846,-0.0568147,-9.0746,0.243243,
2,1,0,1,0,9825.84,0.245503,0.245191,4.07485,8,0.0175257,11,0.000999117,-2.38989,-1.13225,-0.0521085,-8.27132,0.245191,
2,1,0,1,0,9825.86,0.2475,0.247205,4.05091,8,0.017607,11,0.0010014,-2.39245,-1.17166,-0.0503559,-7.97622,0.247205,
2,1,0,1,0,9825.88,0.249498,0.249245,4.04252,8,0.0176875,11,0.00100758,-2.39335,-1.39531,-0.0422844,-6.66288,0.249245,
2,1,0,1,0,9825.9,0.251496,0.251209,4.02423,8,0.0177682,11,0.00101092,-2.39532,-1.12912,-0.052253,-8.21049,0.251209,
2,1,0,1,0,9825.92,0.253493,0.253217,4.0099,8,0.0178485,11,0.00101538,-2.39687,-0.913302,-0.0646008,-10.0949,0.253217,
2,1,0,1,0,9825.94,0.255491,0.255195,3.98399,8,0.0179285,11,0.00101669,-2.39968,-1.60635,-0.0367293,-5.73146,0.255195,
2,1,0,1,0,9825.96,0.257488,0.257219,3.98696,8,0.0180079,11,0.00102552,-2.39936,-2.61874,-0.0225299,-3.49682,0.2572194,
2,1,0,1,0,9825.98,0.259486,0.259216,3.96993,8,0.0180875,11,0.00102907,-2.40122,-0.959515,-0.0614894,-9.52194,0.259216,
2,1,0,1,0,9826,0.261484,0.261215,3.94892,8,0.0181668,11,0.00103152,-2.40352,-1.08256,-0.0545006,-8.4087,0.261215,
2,1,0,1,0,9826.02,0.263481,0.263156,3.9368,8,0.0182457,11,0.00103599,-2.40486,-7.16163,-0.00823835,-1.26883,0.263156,
2,1,0,1,0,9826.04,0.265479,0.265198,3.94386,8,0.0183241,11,0.0010459,-2.40408,-1.92076,-0.030717,-4.70806,0.265198,
2,1,0,1,0,9826.06,0.267476,0.267169,3.9179,8,0.0184027,11,0.00104674,-2.40695,-0.920168,-0.0641187,-9.81977,0.2671693,
2,1,0,1,0,9826.08,0.269474,0.269193,3.90463,8,0.0184808,11,0.0010511,-2.40842,-1.67804,-0.0351601,-5.36142,0.269193,
2,1,0,1,0,9826.1,0.271471,0.271158,3.89652,8,0.0185588,11,0.00105657,-2.40932,-7.39084,-0.00798285,-1.21571,0.271158,
2,1,0,1,0,9826.12,0.273469,0.273235,3.89972,8,0.0186363,11,0.00106554,-2.40897,-1.33539,-0.044182,-6.69545,0.273235,
2,1,0,1,0,9826.14,0.275467,0.275181,3.86958,8,0.0187139,11,0.00106484,-2.41234,-0.942587,-0.0625937,-9.48062,0.275181,
2,1,0,1,0,9826.16,0.277464,0.27718,3.86232,8,0.0187913,11,0.00107056,-2.41315,-1.4574,-0.0404831,-6.09424,0.27718,
2,1,0,1,0,9826.18,0.279462,0.279211,3.84503,8,0.0188684,11,0.00107357,-2.4151,-1.3759,-0.042881,-6.44196,0.2792106,
2,1,0,1,0,9826.2,0.281464,0.281196,3.83645,8,0.0189451,11,0.00107879,-2.41607,-2.42271,-0.0243529,-3.64747,0.281196,
2,1,0,1,0,9826.22,0.283457,0.283196,3.83049,8,0.0190215,11,0.00108478,-2.41675,-1.80862,-0.0326216,-4.87192,0.283196,
2,1,0,1,0,9826.24,0.285455,0.285167,3.8171,8,0.019098,11,0.00108851,-2.41827,-1.00548,-0.0586785,-8.73205,0.285167,
2,1,0,1,0,9826.26,0.287452,0.287181,3.79569,8,0.0191741,11,0.00109005,-2.42071,-1.29345,-0.0456143,-6.77078,0.287181,
2,1,0,1,0,9826.28,0.28945,0.289204,3.78976,8,0.01925,11,0.00109602,-2.42139,-2.89799,-0.020359,-3.01105,0.289204,
2,1,0,1,0,9826.3,0.291447,0.291193,3.78361,8,0.0193255,11,0.00110176,-2.42209,-1.08391,-0.0544323,-8.01693,0.291193,
2,1,0,1,0,9826.32,0.293445,0.293163,3.75803,8,0.019401,11,0.00110171,-2.42504,-1.14265,-0.0516345,-7.59395,0.293163,
2,1,0,1,0,9826.34,0.295442,0.295177,3.75335,8,0.0194762,11,0.0011079,-2.42558,-3.2043,-0.0184128,-2.69665,0.295177,
2,1,0,1,0,9826.36,0.29744,0.297124,3.74735,8,0.0195512,11,0.00111343,-2.42628,-2.7446,-0.0214967,-3.14364,0.297124,
2,1,0,1,0,9826.38,0.299438,0.299149,3.74087,8,0.0196258,11,0.00111908,-2.42703,-0.0259522,-2.27341,-299.363,0.299149,
2,1,0,1,0,9826.39,0.299737,0.299532,3.02648,8,0.0196559,11,0.000906528,-2.51906,0.000830391,71.0508,2264.03,0.299532,
2,1,0,1,0,9826.41,0.29774,0.297481,-0.0366187,8,0.0196796,11,-1.08934e-05,-4.4363,0.0088598,6.65929,988.976,0.297481,
2,0,0,1,0,9826.43,0.295742,0.295421,-1.03964,8,0.0196672,11,-0.00030713,-2.98312,-0.00251884,-23.4235,346.296,0.295421,
2,0,0,1,0,9826.45,0.293745,0.293477,-1.42312,8,0.0196422,11,-0.000417652,-2.84676,-0.0211073,-2.79524,142.001,0.293477,
2,0,0,1,0,9826.47,0.291747,0.291443,-1.60446,8,0.0196118,11,-0.00046761,-2.79467,-0.0476294,-1.23873,76.004,0.291443,
2,0,0,1,0,9826.49,0.289754,0.289423,-1.73126,8,0.0195787,11,-0.000501065,-2.76164,-0.074116,-0.796049,53.0794,0.289423,
2,0,0,1,0,9826.51,0.287752,0.287439,-1.817,8,0.0195433,11,-0.000522275,-2.74065,-0.109486,-0.53888,37.99,0.287439,
2,0,0,1,0,9826.53,0.285754,0.285411,-1.88368,8,0.0195064,11,-0.000537622,-2.72499,-0.131159,-0.449835,33.0369,0.285411,
2,0,0,1,0,9826.55,0.283757,0.283468,-1.9482,8,0.0194681,11,-0.000552251,-2.71037,-0.134845,-0.437539,33.2774,0.283468,
2,0,0,1,0,9826.57,0.281759,0.281452,-2.01542,8,0.0194285,11,-0.000567244,-2.69563,-0.156865,-0.37612,29.4525,0.281452,
2,0,0,1,0,9826.59,0.279761,0.279471,-2.06589,8,0.0193878,11,-0.000577358,-2.68489,-0.174798,-0.337532,27.2595,0.279471,
2,0,0,1,0,9826.61,0.277764,0.277458,-2.12428,8,0.019346,11,-0.000589399,-2.67279,-0.181601,-0.324889,26.8775,0.277458,
2,0,0,1,0,9826.63,0.275766,0.275427,-2.17459,8,0.0193031,11,-0.000598941,-2.66262,-0.230307,-0.25618,21.666,0.275427,
2,0,0,1,0,9826.65,0.273769,0.273484,-2.21039,8,0.0192593,11,-0.000604506,-2.65553,-0.214743,-0.274747,23.8202,0.273484,
2,0,0,1,0,9826.67,0.271771,0.271459,-2.26912,8,0.0192147,11,-0.000615972,-2.64414,-0.20722,-0.284722,25.1225,0.271459,
2,0,0,1,0,9826.69,0.269774,0.269434,-2.31214,8,0.019169,11,-0.000622969,-2.63599,-0.266913,-0.221046,19.9174,0.269434,
2,0,0,1,0,9826.71,0.267776,0.26745,-2.34896,8,0.0191225,11,-0.00062823,-2.62912,-0.293124,-0.20128,18.4489,0.26745,
2,0,0,1,0,9826.73,0.265778,0.265463,-2.3854,8,0.0190753,11,-0.000633235,-2.62244,-0.269481,-0.21894,20.4183,0.265463,
2,0,0,1,0,9826.75,0.263781,0.263443,-2.43078,8,0.0190274,11,-0.000640372,-2.61425,-0.277134,-0.212893,20.1521,0.263443,
2,0,0,1,0,9826.77,0.261783,0.261465,-2.46597,8,0.0189785,11,-0.000644764,-2.60801,-0.354874,-0.166256,15.9758,0.261465,
2,0,0,1,0,9826.79,0.259786,0.259494,-2.49387,8,0.0189291,11,-0.000647144,-2.60313,-0.312104,-0.18904,18.4643,0.2594941,
2,0,0,1,0,9826.81,0.257788,0.257462,-2.53987,8,0.0188789,11,-0.000653921,-2.59519,-0.287476,-0.205235,20.3008,0.257462,
2,0,0,1,0,9826.83,0.25579,0.255466,-2.57564,8,0.018828,11,-0.000657989,-2.58911,-0.385446,-0.153069,15.3537,0.255466,
2,0,0,1,0,9826.85,0.253793,0.253501,-2.60069,8,0.0187764,11,-0.000659277,-2.58491,-0.441827,-0.133536,13.5616,0.2535013,
2,0,0,1,0,9826.87,0.251795,0.25153,-2.62903,8,0.0187241,11,-0.000661278,-2.58021,-0.369926,-0.159491,16.3906,0.25153,
2,0,0,1,0,9826.89,0.249798,0.249509,-2.66611,8,0.0186713,11,-0.000665221,-2.57412,-0.34173,-0.172651,17.9561,0.249509,
2,0,0,1,0,9826.91,0.2478,0.247516,-2.70109,8,0.018618,11,-0.000668564,-2.56846,-0.39835,-0.148111,15.5912,0.247516,
2,0,0,1,0,9826.93,0.245802,0.245494,-2.72873,8,0.0185638,11,-0.000669885,-2.56404,-0.423164,-0.139426,14.8622,0.245494,
2,0,0,1,0,9826.95,0.243805,0.243431,-2.76181,8,0.018509,11,-0.000672309,-2.55881,-0.476244,-0.123886,13.3208,0.2434309,
2,0,0,1,0,9826.97,0.241807,0.241516,-2.78172,8,0.0184535,11,-0.000671828,-2.55569,-0.370568,-0.159215,17.3726,0.241516,
2,0,0,1,0,9826.99,0.23981,0.239493,-2.83021,8,0.0183979,11,-0.000677817,-2.54818,-0.355745,-0.165849,18.2411,0.239493,
2,0,0,1,0,9827.01,0.237812,0.237496,-2.85504,8,0.0183412,11,-0.00067806,-2.54439,-0.569269,-0.103642,11.5409,0.237496,
2,0,0,1,0,9827.03,0.235815,0.235487,-2.87645,8,0.018284,11,-0.000677367,-2.54114,-0.480445,-0.122803,13.8154,0.235487,
2,0,0,1,0,9827.05,0.233817,0.233486,-2.91044,8,0.0182263,11,-0.000679546,-2.53604,-0.40211,-0.146726,16.6582,0.233486,
2,0,0,1,0,9827.07,0.231815,0.231553,-2.94198,8,0.018168,11,-0.000681225,-2.53136,-0.431765,-0.136648,15.6882,0.231553,
2,0,0,1,0,9827.09,0.229822,0.229481,-2.97327,8,0.0181091,11,-0.000682309,-2.52677,-0.527081,-0.111937,12.9667,0.229481,
2,0,0,1,0,9827.11,0.227824,0.227499,-2.99455,8,0.0180496,11,-0.000681257,-2.52367,-0.504158,-0.117027,13.7016,0.2274988,
2,0,0,1,0,9827.13,0.225827,0.225566,-3.02691,8,0.0179895,11,-0.000682768,-2.519,-0.443109,-0.13315,15.7232,0.225566,
2,0,0,1,0,9827.15,0.223829,0.223515,-3.05719,8,0.0179287,11,-0.000683328,-2.51468,-0.459314,-0.128452,15.3293,0.223515,
2,0,0,1,0,9827.17,0.221831,0.221517,-3.08899,8,0.0178675,11,-0.000684262,-2.51018,-0.461282,-0.127904,15.4135,0.221517,
2,0,0,1,0,9827.19,0.219834,0.219528,-3.11864,8,0.0178055,11,-0.000684629,-2.50603,-0.438163,-0.134653,16.4038,0.219528,
2,0,0,1,0,9827.21,0.217836,0.217538,-3.15425,8,0.0177428,11,-0.000686169,-2.5011,-0.449302,-0.131315,16.149,0.217538,
2,0,0,1,0,9827.23,0.215839,0.215488,-3.18388,8,0.0176795,11,-0.000686089,-2.49704,-0.409293,-0.144151,17.9472,0.215488,
2,0,0,1,0,9827.25,0.213841,0.21352,-3.22636,8,0.0176158,11,-0.000688893,-2.49129,-0.405778,-0.1454,18.2727,0.21352,
2,0,0,1,0,9827.27,0.211843,0.211503,-3.2567,8,0.0175511,11,-0.000688802,-2.48722,-0.523931,-0.11261,14.3041,0.211503,
2,0,0,1,0,9827.29,0.209846,0.209536,-3.28334,8,0.0174858,11,-0.00068798,-2.48368,-0.443089,-0.133156,17.0995,0.209536,
2,0,0,1,0,9827.31,0.207848,0.207539,-3.32448,8,0.0174198,11,-0.00068996,-2.47828,-0.304418,-0.193812,25.2139,0.207539,
2,0,0,1,0,9827.33,0.205851,0.205541,-3.38407,8,0.0173531,11,-0.000695567,-2.47056,-0.352538,-0.167358,22.0014,0.205541,
2,0,0,1,0,9827.35,0.203853,0.203518,-3.41295,8,0.0172852,11,-0.000694597,-2.46687,-0.484337,-0.121816,16.2432,0.203518,
2,0,0,1,0,9827.37,0.201856,0.201515,-3.44947,8,0.0172168,11,-0.000695121,-2.46225,-0.409545,-0.144062,19.4038,0.201515,
2,0,0,1,0,9827.39,0.199858,0.199559,-3.48977,8,0.0171476,11,-0.000696415,-2.4572,-0.341064,-0.172988,23.6038,0.199559,
2,0,0,1,0,9827.41,0.19786,0.197535,-3.54343,8,0.0170777,11,-0.00069995,-2.45058,-0.360734,-0.163556,22.5663,0.197535,
2,0,0,1,0,9827.43,0.195863,0.195502,-3.58132,8,0.0170065,11,-0.000700156,-2.44596,-0.317232,-0.185984,26.0931,0.195502,
2,0,0,1,0,9827.45,0.193865,0.193571,-3.64686,8,0.0169344,11,-0.000705925,-2.43808,-0.296798,-0.198788,28.2136,0.193571,
2,0,0,1,0,9827.47,0.191868,0.191559,-3.69258,8,0.0168612,11,-0.000707346,-2.43267,-0.321153,-0.183713,26.5301,0.191559,
2,0,0,1,0,9827.49,0.18987,0.189523,-3.75424,8,0.0167872,11,-0.000711516,-2.42548,-0.281435,-0.20964,30.7065,0.189523,
2,0,0,1,0,9827.51,0.187872,0.187594,-3.81432,8,0.0167117,11,-0.000715544,-2.41858,-0.268726,-0.219555,32.7234,0.187594,
2,0,0,1,0,9827.53,0.185875,0.185541,-3.88455,8,0.0166348,11,-0.000720744,-2.41066,-0.284034,-0.207721,31.4328,0.1855409,
2,0,0,1,0,9827.55,0.183877,0.18356,-3.94112,8,0.0165566,11,-0.000723432,-2.40438,-0.229116,-0.257511,39.8266,0.18356,
2,0,0,1,0,9827.57,0.18188,0.18158,-4.0423,8,0.0164773,11,-0.000734001,-2.39337,-0.204931,-0.287902,45.3006,0.18158,
2,0,0,1,0,9827.59,0.179882,0.179527,-4.1238,8,0.0163957,11,-0.000740336,-2.3847,-0.230872,-0.255552,41.126,0.179527,
2,0,0,1,0,9827.61,0.177885,0.177602,-4.20592,8,0.0163125,11,-0.000746978,-2.37614,-0.205984,-0.286429,47.1352,0.177602,
2,0,0,1,0,9827.63,0.175887,0.17556,-4.31082,8,0.0162274,11,-0.000756806,-2.36544,-0.181107,-0.325775,54.8746,0.17556,
2,0,0,1,0,9827.65,0.173896,0.173551,-4.42817,8,0.0161406,11,-0.000768516,-2.35378,-0.163209,-0.361499,62.5456,0.173551,
2,0,0,1,0,9827.67,0.171892,0.171607,-4.55806,8,0.0160508,11,-0.000782194,-2.34122,-0.16297,-0.362031,64.3647,0.171607,
2,0,0,1,0,9827.69,0.169894,0.169557,-4.6853,8,0.0159585,11,-0.000794423,-2.32926,-0.155163,-0.380245,69.6979,0.169557,
2,0,0,1,0,9827.71,0.167897,0.167589,-4.8381,8,0.0158634,11,-0.000810812,-2.31532,-0.13632,-0.432804,81.8481,0.167589,
2,0,0,1,0,9827.73,0.165899,0.165594,-5.00965,8,0.0157651,11,-0.000829566,-2.30019,-0.129634,-0.455128,89.0606,0.165594,
2,0,0,1,0,9827.75,0.163901,0.16359,-5.19421,8,0.0156637,11,-0.000849723,-2.28448,-0.121912,-0.483957,98.265,0.1635903,
2,0,0,1,0,9827.77,0.161904,0.161615,-5.40064,8,0.0155579,11,-0.000872824,-2.26755,-0.114689,-0.514435,108.586,0.161615,
2,0,0,1,0,9827.79,0.159906,0.159589,-5.6287,8,0.0154477,11,-0.000898278,-2.24959,-0.110402,-0.534413,117.502,0.159589,
2,0,0,1,0,9827.81,0.157909,0.157589,-5.87368,8,0.0153329,11,-0.000925627,-2.23109,-0.101285,-0.582514,133.94,0.157589,
2,0,0,1,0,9827.83,0.155911,0.155602,-6.16278,8,0.0152131,11,-0.000958938,-2.21022,-0.094491,-0.624398,150.355,0.155602,
2,0,0,1,0,9827.85,0.153913,0.153581,-6.47632,8,0.0150868,11,-0.000994639,-2.18867,-0.0933586,-0.631972,159.728,0.153581,
2,0,0,1,0,9827.87,0.151916,0.151612,-6.80004,8,0.0149541,11,-0.00103097,-2.16749,-0.0894228,-0.659787,175.522,0.151612,
2,0,0,1,0,9827.89,0.149918,0.149638,-7.16845,8,0.0148145,11,-0.00107267,-2.14457,-0.0850143,-0.694001,194.567,0.149638,
2,0,0,1,0,9827.91,0.147921,0.147596,-7.58141,8,0.0146679,11,-0.00111899,-2.12025,-0.0857724,-0.687867,203.191,0.147596,
2,0,0,1,0,9827.93,0.145923,0.145623,-7.98411,8,0.0145122,11,-0.00116267,-2.09777,-0.0877372,-0.672463,209.536,0.145623,
2,0,0,1,0,9827.95,0.143926,0.143685,-8.40086,8,0.0143484,11,-0.00120708,-2.07568,-0.0862635,-0.683951,224.849,0.143685,
2,0,0,1,0,9827.97,0.141928,0.141643,-8.87914,8,0.0141757,11,-0.00125767,-2.05163,-0.0857741,-0.687854,238.316,0.141643,
2,0,0,1,0,9827.99,0.13993,0.13961,-9.37197,8,0.0139942,11,-0.00130842,-2.02817,-0.0909588,-0.648645,236.511,0.13961,
2,0,0,1,0,9828.01,0.137933,0.137654,-9.82246,8,0.0138024,11,-0.0013521,-2.00778,-0.0977188,-0.603773,231.451,0.137654,
2,0,0,1,0,9828.03,0.135935,0.135656,-10.2873,8,0.0136014,11,-0.00139552,-1.9877,-0.103233,-0.57152,229.199,0.135656,
2,0,0,1,0,9828.05,0.133938,0.133638,-10.743,8,0.0133911,11,-0.00143567,-1.96888,-0.111355,-0.529839,221.823,0.133638,
2,0,0,1,0,9828.07,0.13194,0.13163,-11.1802,8,0.0131732,11,-0.00147165,-1.95155,-0.119996,-0.491682,214.197,0.13163,
2,0,0,1,0,9828.09,0.129942,0.12967,-11.593,8,0.0129455,11,-0.00150326,-1.9358,-0.132103,-0.446623,201.727,0.12967,
2,0,0,1,0,9828.11,0.127945,0.127687,-11.9756,8,0.0127099,11,-0.00152914,-1.9217,-0.152735,-0.386289,180.168,0.127687,
2,0,0,1,0,9828.13,0.125947,0.125656,-12.3161,8,0.0124671,11,-0.0015476,-1.90953,-0.169484,-0.348115,167.274,0.125656,
2,0,0,1,0,9828.15,0.12395,0.123623,-12.6554,8,0.0122187,11,-0.0015645,-1.89772,-0.183689,-0.321195,158.271,0.123623,
2,0,0,1,0,9828.17,0.121952,0.121707,-12.9412,8,0.0119628,11,-0.00157503,-1.88803,-0.232672,-0.253576,127.735,0.121707,
2,0,0,1,0,9828.19,0.119955,0.119652,-13.1627,8,0.0117018,11,-0.00157494,-1.88066,-0.291628,-0.202313,103.833,0.119652,
2,0,0,1,0,9828.21,0.117957,0.117649,-13.3625,8,0.0114366,11,-0.00157209,-1.87411,-0.341865,-0.172583,89.8655,0.117649,
2,0,0,1,0,9828.23,0.115955,0.115635,-13.5236,8,0.0111678,11,-0.00156381,-1.86891,-0.470039,-0.125522,66.0965,0.115635,
2,0,0,1,0,9828.25,0.113962,0.1137,-13.6236,8,0.0108976,11,-0.001549,-1.86571,-0.771852,-0.0764395,40.583,0.1137,
2,0,0,1,0,9828.27,0.111964,0.111673,-13.6844,8,0.0106245,11,-0.00152819,-1.86377,-1.46332,-0.0403192,21.5056,0.111673,
2,0,0,1,0,9828.29,0.109967,0.109648,-13.7107,8,0.0103506,11,-0.00150335,-1.86294,-27.8256,-0.00212035,1.13258,0.109648,
2,0,0,1,0,9828.31,0.107969,0.107643,-13.689,8,0.0100766,11,-0.00147353,-1.86363,1.61206,0.036599,-19.5277,0.107643,
2,0,0,1,0,9828.33,0.105971,0.105643,-13.6325,8,0.00980487,11,-0.00144018,-1.86543,0.792426,0.0744549,-39.5471,0.105643,
2,0,0,1,0,9828.35,0.103974,0.103655,-13.5313,8,0.00953335,11,-0.00140258,-1.86866,0.504153,0.117028,-61.7042,0.103655,
2,0,0,1,0,9828.37,0.101976,0.101692,-13.3886,8,0.00926422,11,-0.00136151,-1.87326,0.36624,0.161097,-84.0151,0.101692,
2,0,0,1,0,9828.39,0.0999786,0.0996684,-13.1963,8,0.00899845,11,-0.00131526,-1.87955,0.314956,0.187328,-96.4615,0.0996684,
2,0,0,1,0,9828.41,0.0979811,0.0976831,-13.002,8,0.00873782,11,-0.00127007,-1.88599,0.271507,0.217305,-110.04,0.0976831,
2,0,0,1,0,9828.43,0.0959835,0.0956731,-12.7567,8,0.00848038,11,-0.00122047,-1.89426,0.224854,0.262392,-130.465,0.0956731,
2,0,0,1,0,9828.45,0.0939859,0.0936992,-12.4822,8,0.0082282,11,-0.00116957,-1.90371,0.205064,0.287715,-140.081,0.0936992,
2,0,0,1,0,9828.47,0.0919883,0.0916863,-12.1982,8,0.00798157,11,-0.00111841,-1.9137,0.208537,0.282924,-134.773,0.0916863,
2,0,0,1,0,9828.49,0.0899907,0.0896293,-11.9337,8,0.00774151,11,-0.00106961,-1.92322,0.195337,0.302042,-140.435,0.0896293,
2,0,0,1,0,9828.51,0.0879931,0.0876655,-11.6336,8,0.00750598,11,-0.00101986,-1.93429,0.18499,0.318936,-144.94,0.0876655,
2,0,0,1,0,9828.53,0.0859955,0.0856708,-11.36,8,0.00727622,11,-0.000973218,-1.94462,0.195079,0.302442,-134.171,0.0856708,
2,0,0,1,0,9828.55,0.083998,0.0837257,-11.105,8,0.00705173,11,-0.00092977,-1.95448,0.209156,0.282087,-122.356,0.0837257,
2,0,0,1,0,9828.57,0.0820004,0.0816829,-10.872,8,0.00683322,11,-0.000888058,-1.96369,0.222945,0.26464,-112.334,0.0816829,
2,0,0,1,0,9828.59,0.0800028,0.0796883,-10.6514,8,0.00661819,11,-0.000848793,-1.97259,0.239703,0.246137,-102.454,0.0796883,
2,0,0,1,0,9828.61,0.0780052,0.07768,-10.4619,8,0.00640728,11,-0.00081268,-1.98039,0.260648,0.226359,-92.4483,0.07768,
2,0,0,1,0,9828.63,0.0760076,0.0756779,-10.2807,8,0.00620006,11,-0.000778018,-1.98798,0.278491,0.211856,-85.1093,0.0756779,
2,0,0,1,0,9828.65,0.07401,0.0737491,-10.1273,8,0.00599736,11,-0.000746883,-1.9945,0.298651,0.197555,-78.0546,0.0737491,
2,0,0,1,0,9828.67,0.0720124,0.0716811,-9.9687,8,0.00579655,11,-0.000714568,-2.00136,0.326881,0.180494,-70.3325,0.0716811,
2,0,0,1,0,9828.69,0.0700148,0.0697086,-9.84317,8,0.00559852,11,-0.000686154,-2.00686,0.342979,0.172022,-66.0395,0.0697086,
2,0,0,1,0,9828.71,0.0680173,0.0677058,-9.70617,8,0.00540329,11,-0.000657163,-2.01295,0.373705,0.157878,-59.9108,0.0677058,
2,0,0,1,0,9828.73,0.0660106,0.0657272,-9.60464,8,0.00521052,11,-0.000631286,-2.01752,0.396914,0.148647,-55.6627,0.0657272,
2,0,0,1,0,9828.75,0.0640221,0.0637267,-9.48468,8,0.00502068,11,-0.000604428,-2.02298,0.368288,0.160201,-59.2994,0.0637267,
2,0,0,1,0,9828.77,0.0620245,0.0616981,-9.36572,8,0.00483232,11,-0.000577847,-2.02846,0.373302,0.158049,-57.7879,0.0616981,
2,0,0,1,0,9828.79,0.0600269,0.0597304,-9.25374,8,0.00464631,11,-0.00055273,-2.03368,0.381645,0.154594,-55.8342,0.0597304,
2,0,0,1,0,9828.81,0.0580361,0.0577235,-9.1438,8,0.00446347,11,-0.000527813,-2.03887,0.360835,0.16351,-58.2962,0.0577235,
2,0,0,1,0,9828.83,0.0560317,0.0556916,-9.0183,8,0.00428182,11,-0.000502243,-2.04488,0.346066,0.170488,-60.0419,0.0556916,
2,0,0,1,0,9828.85,0.0540342,0.0537495,-8.90519,8,0.00410268,11,-0.000478649,-2.05036,0.347341,0.169862,-59.0002,0.0537495,
2,0,0,1,0,9828.87,0.0520366,0.0517019,-8.7829,8,0.00392589,11,-0.000454093,-2.05636,0.31901,0.184947,-63.3497,0.0517019,
2,0,0,1,0,9828.89,0.050039,0.0497134,-8.6495,8,0.00375161,11,-0.000429996,-2.06301,0.301949,0.195397,-65.9781,0.0497134,
2,0,0,1,0,9828.91,0.0480414,0.047754,-8.52242,8,0.0035808,11,-0.00040698,-2.06944,0.293443,0.201061,-66.8236,0.047754,
2,0,0,1,0,9828.93,0.0460438,0.0457394,-8.38395,8,0.0034119,11,-0.000383477,-2.07655,0.267108,0.220885,-72.2039,0.0457394,
2,0,0,1,0,9828.95,0.0440462,0.0437187,-8.23106,8,0.0032459,11,-0.000359851,-2.08454,0.2407,0.245118,-78.6979,0.0437187,
2,0,0,1,0,9828.97,0.0420486,0.0417676,-8.07138,8,0.00308308,11,-0.000337122,-2.09305,0.254629,0.23171,-73.0926,0.0417676,
2,0,0,1,0,9828.99,0.040051,0.0396882,-7.93646,8,0.00292388,11,-0.000314984,-2.10037,0.250715,0.235327,-72.7714,0.0396882,
2,0,0,1,0,9829.01,0.0380535,0.0377331,-7.77778,8,0.00276694,11,-0.000293479,-2.10914,0.212409,0.277766,-84.2337,0.0377331,
2,0,0,1,0,9829.03,0.0360559,0.0357731,-7.60668,8,0.00261331,11,-0.000272115,-2.1188,0.216803,0.272136,-80.8963,0.0357731,
2,0,0,1,0,9829.05,0.0340583,0.0337837,-7.45829,8,0.00246278,11,-0.000251969,-2.12736,0.247451,0.238431,-69.4675,0.0337837,
2,0,0,1,0,9829.07,0.0320607,0.0317318,-7.32594,8,0.0023158,11,-0.000232466,-2.13514,0.244447,0.241361,-68.9351,0.0317318,
2,0,0,1,0,9829.09,0.0300631,0.0297472,-7.18003,8,0.00217096,11,-0.000213585,-2.14387,0.243984,0.241819,-67.8507,0.0297472,
2,0,0,1,0,9829.11,0.0280655,0.0277355,-7.05479,8,0.00202882,11,-0.000195668,-2.15152,0.273078,0.216055,-59.5255,0.0277355,
2,0,0,1,0,9829.13,0.0260679,0.0257206,-6.94034,8,0.00188902,11,-0.00017851,-2.15862,0.295862,0.199417,-54.0603,0.0257206,
2,0,0,1,0,9829.15,0.0240704,0.0237416,-6.83888,8,0.00175205,11,-0.000162366,-2.16502,0.321163,0.183707,-49.0619,0.0237416,
2,0,0,1,0,9829.17,0.0220728,0.0217761,-6.74682,8,0.00161632,11,-0.000146919,-2.1709,0.361447,0.163233,-43.0182,0.0217761,
2,0,0,1,0,9829.19,0.0200752,0.0197541,-6.66734,8,0.00148226,11,-0.000131707,-2.17605,0.398643,0.148002,-38.5201,0.0197541,
2,0,0,1,0,9829.21,0.0180776,0.0177473,-6.59163,8,0.00134975,11,-0.000116984,-2.18101,0.518019,0.113895,-29.3768,0.01774733,
2,0,0,1,0,9829.23,0.01608,0.0157927,-6.55097,8,0.00121917,11,-0.000103457,-2.18369,0.683423,0.0863301,-22.0606,0.0157927,
2,0,0,1,0,9829.25,0.0140824,0.0137777,-6.50406,8,0.00108874,11,-8.96111e-05,-2.18682,0.693168,0.0851165,-21.6154,0.0137777,
2,0,0,1,0,9829.27,0.0120848,0.0117399,-6.46337,8,0.000959192,11,-7.58795e-05,-2.18954,0.776661,0.0759662,-19.1685,0.0117399,
2,0,0,1,0,9829.29,0.0100872,0.00976481,-6.42714,8,0.000830521,11,-6.27598e-05,-2.19198,1.29816,0.045449,-11.4237,0.00976481,
2,0,0,1,0,9829.31,0.00809193,0.00773907,-6.41766,8,0.000702918,11,-4.96667e-05,-2.19262,2.45653,0.0240176,-6.01304,0.007739068,
2,0,0,1,0,9829.33,0.00609208,0.00574748,-6.40298,8,0.000574868,11,-3.6801e-05,-2.19362,1.74849,0.0337435,-8.42939,0.00574748,
2,0,0,1,0,9829.35,0.00409449,0.00377021,-6.38421,8,0.000447185,11,-2.40698e-05,-2.19489,-1.47488,-0.0400033,10.0275,0.00377021,
2,0,0,1,0,9829.37,0.0020969,0.00176344,-6.44293,8,0.000319471,11,-1.13617e-05,-2.19092,-1.4143,-0.0417168,10.4283,0.00176344,
2,0,0,1,0,9829.39,9.14991e-05,-0.000280208,-6.42645,8,0.000190881,11,1.80074e-06,-2.19203,2.43738,0.0242063,-6.07503,-0.0002802081,
2,0,0,1,0,9829.41,-0.00189827,-0.00227057,-6.41843,8,6.31304e-05,11,1.45735e-05,-2.19257,141.922,0.00041572,-0.104261,-0.002270571,
2,0,0,1,0,9829.43,-0.00389586,-0.00429051,-6.42603,8,-6.52022e-05,11,2.75709e-05,-2.19206,-2.54326,-0.0231986,5.82145,-0.00429051,
2,0,0,1,0,9829.45,-0.00589345,-0.0062258,-6.44145,8,-0.000193742,11,4.01032e-05,-2.19102,-2.44313,-0.0241493,6.06766,-0.0062258,
2,0,0,1,0,9829.47,-0.00789103,-0.00824449,-6.45002,8,-0.000322556,11,5.31771e-05,-2.19044,-1.16325,-0.0507201,12.8012,-0.00824449,
2,0,0,1,0,9829.49,-0.00988862,-0.0102286,-6.49269,8,-0.000451309,11,6.64112e-05,-2.18758,-0.810062,-0.0728339,18.4381,-0.01022861,
2,0,0,1,0,9829.51,-0.0118862,-0.0122241,-6.5234,8,-0.000581333,11,7.97427e-05,-2.18553,-1.22137,-0.0483065,12.2867,-0.0122241,
2,0,0,1,0,9829.53,-0.0138838,-0.0142356,-6.54192,8,-0.000711907,11,9.31285e-05,-2.18429,-1.11168,-0.0530726,13.5684,-0.0142356,
2,0,0,1,0,9829.55,-0.0158814,-0.0162697,-6.57829,8,-0.000843032,11,0.000107027,-2.18189,-0.679698,-0.0868033,22.3125,-0.0162697,
2,0,0,1,0,9829.57,-0.017879,-0.0182313,-6.63108,8,-0.000974415,11,0.000120893,-2.17842,-0.691818,-0.0852826,22.039,-0.0182313,
2,0,0,1,0,9829.59,-0.0198766,-0.0202164,-6.66527,8,-0.00110723,11,0.000134748,-2.17618,-0.841509,-0.0701122,18.2444,-0.02021639,
2,0,0,1,0,9829.61,-0.0218741,-0.0222459,-6.70432,8,-0.00124071,11,0.000149143,-2.17365,-0.714426,-0.0825838,21.6229,-0.0222459,
2,0,0,1,0,9829.63,-0.0238717,-0.0242675,-6.75287,8,-0.00137514,11,0.000163875,-2.17051,-0.589236,-0.10013,26.405,-0.0242675,
2,0,0,1,0,9829.65,-0.0258693,-0.0262533,-6.81014,8,-0.00150998,11,0.000178788,-2.16684,-0.6496,-0.0908251,24.1058,-0.0262533,
2,0,0,1,0,9829.67,-0.0278669,-0.0282427,-6.84869,8,-0.00164639,11,0.000193426,-2.16439,-0.65588,-0.0899554,24.075,-0.0282427,
2,0,0,1,0,9829.69,-0.0298645,-0.0302087,-6.90536,8,-0.00178376,11,0.000208602,-2.16081,-0.621799,-0.094886,25.5497,-0.0302087,
2,0,0,1,0,9829.71,-0.0318621,-0.0322324,-6.95063,8,-0.0019222,11,0.000224035,-2.15798,-0.567903,-0.103891,28.2277,-0.0322324,
2,0,0,1,0,9829.73,-0.0338597,-0.0342319,-7.01893,8,-0.00206102,11,0.000240271,-2.15373,-0.574861,-0.102634,28.0646,-0.0342319,
2,0,0,1,0,9829.75,-0.0358573,-0.0362307,-7.06284,8,-0.0022017,11,0.000255891,-2.15102,-0.578984,-0.101903,28.1333,-0.0362307,
2,0,0,1,0,9829.77,-0.0378548,-0.0381643,-7.12956,8,-0.0023436,11,0.000272095,-2.14694,-0.56873,-0.10374,28.8248,-0.0381643,
2,0,0,1,0,9829.79,-0.0398524,-0.0401813,-7.17671,8,-0.00248658,11,0.00028837,-2.14407,-0.532261,-0.110848,31.1138,-0.0401813,
2,0,0,1,0,9829.81,-0.04185,-0.0422029,-7.25522,8,-0.00262999,11,0.000306191,-2.13935,-0.49753,-0.118586,33.5305,-0.0422029,
2,0,0,1,0,9829.83,-0.0438476,-0.0442726,-7.3139,8,-0.00277557,11,0.000323805,-2.13585,-0.604552,-0.0975929,27.8464,-0.04427259,
2,0,0,1,0,9829.85,-0.0458452,-0.0462316,-7.3674,8,-0.00292234,11,0.000340607,-2.13269,-0.542457,-0.108764,31.3055,-0.0462316,
2,0,0,1,0,9829.87,-0.0478428,-0.0481955,-7.4367,8,-0.00307029,11,0.000358416,-2.12862,-0.428436,-0.13771,40.0228,-0.04819547,
2,0,0,1,0,9829.89,-0.0498495,-0.0502209,-7.52706,8,-0.00321975,11,0.000378016,-2.12337,-0.450679,-0.130914,38.3842,-0.0502209,
2,0,0,1,0,9829.91,-0.051838,-0.0521765,-7.58951,8,-0.00337006,11,0.000395994,-2.11979,-0.53259,-0.110779,32.8225,-0.0521765,
2,0,0,1,0,9829.93,-0.0538355,-0.054181,-7.65704,8,-0.00352234,11,0.000414867,-2.11594,-0.503046,-0.117286,35.0609,-0.054181,
2,0,0,1,0,9829.95,-0.0558331,-0.0561964,-7.73046,8,-0.00367611,11,0.000434424,-2.11179,-0.452699,-0.13033,39.3473,-0.0561964,
2,0,0,1,0,9829.97,-0.0578216,-0.0582007,-7.81521,8,-0.00383072,11,0.000454851,-2.10706,-0.420959,-0.140156,42.7477,-0.0582007,
2,0,0,1,0,9829.99,-0.0598283,-0.0601723,-7.90042,8,-0.00398783,11,0.000475387,-2.10235,-0.408529,-0.144421,44.5469,-0.0601723,
2,0,0,1,0,9830.01,-0.0618259,-0.0621839,-7.99265,8,-0.0041466,11,0.000497014,-2.09731,-0.410025,-0.143894,44.8679,-0.0621839,
2,0,0,1,0,9830.03,-0.0638235,-0.0641664,-8.07962,8,-0.00430724,11,0.00051844,-2.09261,-0.438208,-0.134639,42.4416,-0.0641664,
2,0,0,1,0,9830.05,-0.0658211,-0.0661783,-8.16218,8,-0.0044696,11,0.000540159,-2.08819,-0.394724,-0.149472,47.688,-0.0661783,
2,0,0,1,0,9830.07,-0.0678187,-0.0681816,-8.2711,8,-0.00463315,11,0.000563937,-2.08244,-0.357234,-0.165158,53.2877,-0.0681816,
2,0,0,1,0,9830.09,-0.0698162,-0.0701409,-8.37333,8,-0.00479949,11,0.000587314,-2.0771,-0.387744,-0.152162,49.7034,-0.0701409,
2,0,0,1,0,9830.11,-0.0718138,-0.0721692,-8.4693,8,-0.00496784,11,0.000611222,-2.07215,-0.371422,-0.158849,52.5653,-0.0721692,
2,0,0,1,0,9830.13,-0.0738114,-0.0741825,-8.58578,8,-0.00513827,11,0.000636914,-2.06622,-0.331375,-0.178046,59.6779,-0.0741825,
2,0,0,1,0,9830.15,-0.075809,-0.0761831,-8.70884,8,-0.00531033,11,0.000663467,-2.06004,-0.345456,-0.170789,57.9913,-0.0761831,
2,0,0,1,0,9830.17,-0.0778066,-0.078153,-8.81604,8,-0.00548554,11,0.000689,-2.05473,-0.357153,-0.165195,56.8761,-0.078153,
2,0,0,1,0,9830.19,-0.0798042,-0.0801806,-8.9362,8,-0.005663,11,0.00071651,-2.04885,-0.333441,-0.176943,61.734,-0.0801806,
2,0,0,1,0,9830.21,-0.0818018,-0.0821809,-9.06469,8,-0.0058429,11,0.000744944,-2.04265,-0.313592,-0.188142,66.581,-0.0821809,
2,0,0,1,0,9830.23,-0.0837994,-0.0841515,-9.20058,8,-0.00602458,11,0.000774243,-2.03618,-0.323149,-0.182578,65.5123,-0.0841515,
2,0,0,1,0,9830.25,-0.0857969,-0.0861506,-9.32476,8,-0.00620966,11,0.000803334,-2.03036,-0.326068,-0.180944,65.8964,-0.0861506,
2,0,0,1,0,9830.27,-0.0877945,-0.0881453,-9.46376,8,-0.00639742,11,0.000834186,-2.02394,-0.331021,-0.178236,65.7782,-0.0881453,
2,0,0,1,0,9830.29,-0.0897921,-0.0901694,-9.5891,8,-0.00658784,11,0.000864643,-2.01822,-0.343098,-0.171962,64.3747,-0.0901694,
2,0,0,1,0,9830.31,-0.0917897,-0.0921536,-9.7218,8,-0.00677983,11,0.000895898,-2.01225,-0.345275,-0.170878,64.8076,-0.0921536,
2,0,0,1,0,9830.33,-0.0937873,-0.0941643,-9.848,8,-0.00697544,11,0.00092733,-2.00665,-0.356215,-0.16563,63.6533,-0.09416426,
2,0,0,1,0,9830.35,-0.0957849,-0.0961138,-9.97387,8,-0.00717359,11,0.000958627,-2.00114,-0.384483,-0.153453,59.6842,-0.0961138,
2,0,0,1,0,9830.37,-0.0977825,-0.0981335,-10.0849,8,-0.00737407,11,0.000989668,-1.99633,-0.384339,-0.15351,60.4767,-0.0981335,
2,0,0,1,0,9830.39,-0.0997501,-0.100121,-10.2162,8,-0.00757285,11,0.00102285,-1.99071,0.00656954,8.98084,-2974.71,-0.100121,
2,0,0,1,1,9830.4,-0.0987313,-0.0991478,-7.06784,8,-0.00770636,11,0.000700761,-2.15071,-0.00690273,-8.54734,2158.12,-0.0991478,
2,0,0,1,1,9830.42,-0.0967337,-0.0971358,-3.77477,8,-0.0078119,11,0.000366665,-2.42311,-0.00616482,-9.57043,1363.34,-0.0971358,
2,0,0,1,1,9830.44,-0.0947361,-0.0951117,-1.56527,8,-0.00786367,11,0.000148875,-2.80541,-0.00130792,-45.1097,946.663,-0.09511169,
2,0,0,1,1,9830.46,-0.0927386,-0.0931448,0.00335348,8,-0.00787827,11,-3.12359e-07,-5.4745,-0.0304136,-1.93992,672.974,-0.0931448,
2,1,0,1,1,9830.48,-0.090741,-0.0910727,1.15288,8,-0.00786614,11,-0.000104996,-2.93821,0.00145228,40.6259,496.042,-0.0910727,
2,1,0,1,1,9830.5,-0.0887434,-0.0891129,2.00334,8,-0.00783413,11,-0.000178524,-2.69824,0.0109046,5.41054,380.675,-0.0891129,
2,1,0,1,1,9830.52,-0.0867458,-0.0871125,2.66043,8,-0.00778717,11,-0.000231757,-2.57505,0.0201127,2.93347,291.71,-0.0871125,
2,1,0,1,1,9830.54,-0.0847482,-0.0850672,3.18351,8,-0.00772845,11,-0.000270812,-2.49709,0.0305591,1.93068,234.053,-0.0850672,
2,1,0,1,1,9830.56,-0.0827529,-0.083101,3.59933,8,-0.00766084,11,-0.000299108,-2.44378,0.0425428,1.38684,191.959,-0.083101,
2,1,0,1,1,9830.58,-0.080753,-0.081145,3.93643,8,-0.00758525,11,-0.000319421,-2.4049,0.0587958,1.00347,152.614,-0.081145,
2,1,0,1,1,9830.6,-0.0787554,-0.0790961,4.21053,8,-0.00750363,11,-0.000333037,-2.37566,0.0793133,0.743885,121.3,-0.0790961,
2,1,0,1,1,9830.62,-0.0767579,-0.0770785,4.42969,8,-0.00741713,11,-0.000341434,-2.35363,0.0990874,0.595434,102.56,-0.0770785,
2,1,0,1,1,9830.64,-0.0747603,-0.0750761,4.62283,8,-0.00732654,11,-0.000347064,-2.33509,0.114947,0.513279,92.3713,-0.0750761,
2,1,0,1,1,9830.66,-0.0727627,-0.0730941,4.79773,8,-0.00723261,11,-0.000350686,-2.31896,0.145636,0.405119,75.4101,-0.0730941,
2,1,0,1,1,9830.68,-0.0707651,-0.0711422,4.91948,8,-0.00713535,11,-0.000349983,-2.30808,0.187559,0.314568,60.3549,-0.0711422,
2,1,0,1,1,9830.7,-0.0687675,-0.0691343,5.03673,8,-0.00703575,11,-0.00034821,-2.29785,0.210489,0.280299,55.0328,-0.0691343,
2,1,0,1,1,9830.72,-0.0667699,-0.0670666,5.14377,8,-0.00693394,11,-0.000344975,-2.28872,0.242872,0.242926,48.6827,-0.0670666,
2,1,0,1,1,9830.74,-0.0647723,-0.0650726,5.23446,8,-0.00683053,11,-0.00034062,-2.28113,0.291424,0.202454,41.2899,-0.0650726,
2,1,0,1,1,9830.76,-0.0627748,-0.0630719,5.30871,8,-0.00672512,11,-0.00033483,-2.27501,0.331673,0.177886,36.8413,-0.0630719,
2,1,0,1,1,9830.78,-0.0607772,-0.0611293,5.37974,8,-0.00661823,11,-0.00032886,-2.26924,0.376565,0.156679,32.8523,-0.0611293,
2,1,0,1,1,9830.8,-0.0587796,-0.0591629,5.43713,8,-0.00651004,11,-0.000321676,-2.26463,0.460564,0.128104,27.1689,-0.0591629,
2,1,0,1,1,9830.82,-0.056782,-0.0570968,5.48929,8,-0.00640135,11,-0.000313421,-2.26048,0.540001,0.109259,23.3845,-0.0570968,
2,1,0,1,1,9830.84,-0.0547844,-0.0551325,5.53138,8,-0.00629113,11,-0.000304959,-2.25717,0.630778,0.0935352,20.1844,-0.0551325,
2,1,0,1,1,9830.86,-0.0527868,-0.0531151,5.56966,8,-0.00618012,11,-0.000295833,-2.25417,0.810634,0.0727826,15.8013,-0.0531151,
2,1,0,1,1,9830.88,-0.0507892,-0.0511341,5.59456,8,-0.00606856,11,-0.000286073,-2.25223,0.774983,0.0761307,16.6464,-0.0511341,
2,1,0,1,1,9830.9,-0.0487916,-0.049139,5.63585,8,-0.00595685,11,-0.00027694,-2.24904,0.881827,0.0669065,14.6848,-0.049139,
2,1,0,1,1,9830.92,-0.046794,-0.0471361,5.65327,8,-0.00584393,11,-0.000266473,-2.2477,2.25042,0.0262174,5.77832,-0.0471361,
2,1,0,1,1,9830.94,-0.0447965,-0.0451389,5.65896,8,-0.0057308,11,-0.000255439,-2.24726,2.22127,0.0265613,5.87232,-0.0451389,
2,1,0,1,1,9830.96,-0.0427989,-0.0431555,5.67664,8,-0.00561744,11,-0.000244979,-2.24591,1.24876,0.0472469,10.473,-0.0431555,
2,1,0,1,1,9830.98,-0.0408013,-0.0411477,5.70076,8,-0.00550429,11,-0.000234573,-2.24407,3.38805,0.0174142,3.86321,-0.04114772,
2,1,0,1,1,9831,-0.0388037,-0.039156,5.69209,8,-0.00539031,11,-0.00022288,-2.24473,57.7776,0.00102116,0.227208,-0.039156,
2,1,0,1,1,9831.02,-0.0368061,-0.0371771,5.70167,8,-0.00527638,11,-0.000211972,-2.244,3.12579,0.0188752,4.19923,-0.0371771,
2,1,0,1,1,9831.04,-0.0348085,-0.0351443,5.70894,8,-0.00516224,11,-0.000200637,-2.24344,3.5032,0.0168418,3.7526,-0.0351443,
2,1,0,1,1,9831.06,-0.0328109,-0.0331165,5.7169,8,-0.00504865,11,-0.000189324,-2.24284,-6.51321,-0.00905852,-2.01684,-0.0331165,
2,1,0,1,1,9831.08,-0.0308134,-0.0311704,5.70093,8,-0.00493453,11,-0.0001777,-2.24405,-3.07026,-0.0192166,-4.28109,-0.0311704,
2,1,0,1,1,9831.1,-0.0288158,-0.0291442,5.6999,8,-0.0048205,11,-0.000166119,-2.24413,-8.91089,-0.00662111,-1.47237,-0.0291442,
2,1,0,1,1,9831.12,-0.0268182,-0.0271825,5.69505,8,-0.00470656,11,-0.000154806,-2.2445,-4.16036,-0.0141815,-3.15116,-0.0271825,
2,1,0,1,1,9831.14,-0.0248138,-0.0251332,5.68726,8,-0.00459289,11,-0.000142939,-2.2451,-4.92933,-0.0119692,-2.6578,-0.0251332,
2,1,0,1,1,9831.16,-0.022823,-0.0232069,5.68449,8,-0.00447973,11,-0.000131919,-2.24531,-3.48917,-0.0169094,-3.74823,-0.0232069,
2,1,0,1,1,9831.18,-0.0208254,-0.0211537,5.67234,8,-0.00436617,11,-0.000119991,-2.24624,-1.71402,-0.034422,-7.61589,-0.0211537,
2,1,0,1,1,9831.2,-0.0188278,-0.0191915,5.65391,8,-0.00425297,11,-0.000108507,-2.24765,-1.67247,-0.0352772,-7.78821,-0.0191915,
2,1,0,1,1,9831.22,-0.0168393,-0.0171968,5.64153,8,-0.00414057,11,-9.70161e-05,-2.2486,-3.85761,-0.0152944,-3.37076,-0.0171968,
2,1,0,1,1,9831.24,-0.0148326,-0.0151991,5.64045,8,-0.00402762,11,-8.57299e-05,-2.24869,-2.13641,-0.0276164,-6.06724,-0.0151991,
2,1,0,1,1,9831.26,-0.0128351,-0.0131976,5.61726,8,-0.00391504,11,-7.41341e-05,-2.25048,-1.59648,-0.0369564,-8.11163,-0.0131976,
2,1,0,1,1,9831.28,-0.0108375,-0.0111778,5.60783,8,-0.00380283,11,-6.2683e-05,-2.25121,-3.34284,-0.0176496,-3.86385,-0.0111778,
2,1,0,1,1,9831.3,-0.00883989,-0.00916102,5.60166,8,-0.00369072,11,-5.1317e-05,-2.25168,-2.55316,-0.0231087,-5.04842,-0.00916102,
2,1,0,1,1,9831.32,-0.0068423,-0.00720506,5.58777,8,-0.0035793,11,-4.02602e-05,-2.25276,-2.06231,-0.0286087,-6.24039,-0.00720506,
2,1,0,1,1,9831.34,-0.00484471,-0.00516852,5.57675,8,-0.00346772,11,-2.88236e-05,-2.25362,-2.04266,-0.0288839,-6.28461,-0.00516852,
2,1,0,1,1,9831.36,-0.00284713,-0.00320295,5.56262,8,-0.00335637,11,-1.78168e-05,-2.25472,-1.61281,-0.0365821,-7.93935,-0.00320295,
2,1,0,1,1,9831.38,-0.000849538,-0.00120417,5.54528,8,-0.00324525,11,-6.67746e-06,-2.25608, , , ,-0.00120417,
2,1,0,0,1,9831.39,-2.55332e-05,-0.000325324,5.54353,8,-0.0032004,11,-1.80344e-06,-2.25621, , , ,-0.000325324,