File: Figure_codes/Fig_3-5/rawdata_trumpetplot_data/before 10th/20221101_1-115_002_TrumpetPlot_ParaChange_07_CV_C01_4.csv
mode,ox/red,error,control changes,counter inc.,time/s,control/V,Ewe/V,<I>/mA,cycle number,(Q-Qo)/C,I Range,P/W,log(|I|),Tafel slope mV/dec,alpha_eff,dI/d(E-IR),E-IR/V,
2,0,0,0,0,6065.6,2.44065e-05,-0.000325324,-1.18507,5,0.0000000E+000,11,3.85533e-07,-2.92625, , , ,-0.000325324,
2,1,0,1,0,6065.67,0.00129787,0.000960537,0.429825,5,-4.60469e-06,11,4.12863e-07,-3.36671, , , ,0.000960537,
2,1,0,1,0,6065.74,0.00279606,0.00253002,0.715781,5,4.16784e-05,11,1.81094e-06,-3.14522,0.00547172,10.7827,154.619,0.00253002,
2,1,0,1,0,6065.82,0.00429425,0.00401721,0.754156,5,9.748e-05,11,3.0296e-06,-3.12254,0.0555673,1.06178,30.3604,0.00401721,
2,1,0,1,0,6065.89,0.00579244,0.00551344,0.782027,5,0.00015583,11,4.31166e-06,-3.10678,0.090965,0.648601,19.8189,0.00551344,
2,1,0,1,0,6065.97,0.00729063,0.00698199,0.816876,5,0.000216325,11,5.70343e-06,-3.08784,0.114393,0.515767,16.3113,0.00698199,
2,1,0,1,0,6066.04,0.00878882,0.00845791,0.840515,5,0.0002789,11,7.109e-06,-3.07545,0.135079,0.436782,14.2036,0.00845791,
2,1,0,1,0,6066.12,0.010287,0.00998309,0.857524,5,0.00034309,11,8.56074e-06,-3.06675,0.17841,0.330698,10.9809,0.00998309,
2,1,0,1,0,6066.19,0.0117852,0.011512,0.871619,5,0.000408506,11,1.00341e-05,-3.05967,0.212313,0.277892,9.45822,0.01151205,
2,1,0,1,0,6066.27,0.0132847,0.0129426,0.885377,5,0.000474893,11,1.14591e-05,-3.05287,0.193762,0.304497,10.5932,0.0129426,
2,1,0,1,0,6066.34,0.0147802,0.0144765,0.899582,5,0.000542352,11,1.30228e-05,-3.04596,0.234591,0.251502,8.8251,0.0144765,
2,1,0,1,0,6066.41,0.0162798,0.0160328,0.91205,5,0.000611268,11,1.46228e-05,-3.03998,0.335641,0.175783,6.23709,0.0160328,
2,1,0,1,0,6066.49,0.017778,0.0174622,0.924804,5,0.000680703,11,1.61491e-05,-3.03395,0.352207,0.167515,6.04902,0.0174622,
2,1,0,1,0,6066.56,0.0192761,0.0190002,0.932986,5,0.000750557,11,1.77269e-05,-3.03012,0.363014,0.162528,5.91605,0.01900016,
2,1,0,1,0,6066.64,0.0207743,0.0204629,0.943439,5,0.000821435,11,1.93055e-05,-3.02529,0.29451,0.200333,7.34122,0.0204629,
2,1,0,1,0,6066.71,0.0222725,0.0219544,0.954065,5,0.000893156,11,2.09459e-05,-3.02042,0.354943,0.166224,6.17671,0.0219544,
2,1,0,1,0,6066.79,0.0237707,0.0234419,0.962753,5,0.000965532,11,2.25688e-05,-3.01649,0.41897,0.140822,5.29796,0.0234419,
2,1,0,1,0,6066.86,0.0252689,0.0249975,0.969042,5,0.00103839,11,2.42236e-05,-3.01366,0.403608,0.146181,5.55665,0.0249975,
2,1,0,1,0,6066.94,0.0267671,0.0265124,0.978514,5,0.00111208,11,2.59427e-05,-3.00943,0.29803,0.197967,7.56997,0.0265124,
2,1,0,1,0,6067.01,0.0282653,0.0279769,0.993401,5,0.0011866,11,2.77923e-05,-3.00288,0.305547,0.193096,7.47507,0.0279769,
2,1,0,1,0,6067.09,0.0297644,0.029468,1.00272,5,0.00126194,11,2.95483e-05,-2.99882,0.386876,0.152504,5.95204,0.029468,
2,1,0,1,0,6067.16,0.0312599,0.0309601,1.00415,5,0.00133769,11,3.10886e-05,-2.9982,0.317339,0.185921,7.33583,0.0309601,
2,1,0,1,0,6067.24,0.0327599,0.0324571,1.01784,5,0.00141429,11,3.30362e-05,-2.99232,0.326948,0.180457,7.17679,0.0324571,
2,1,0,1,0,6067.31,0.034258,0.0339721,1.03249,5,0.0014918,11,3.50761e-05,-2.98611,0.290313,0.203229,8.19066,0.0339721,
2,1,0,1,0,6067.39,0.0357562,0.0354602,1.0465,5,0.00157015,11,3.71092e-05,-2.98026,0.404313,0.145927,5.92844,0.0354602,
2,1,0,1,0,6067.46,0.0372544,0.0369172,1.0532,5,0.00164942,11,3.88812e-05,-2.97749,0.303297,0.194529,8.02443,0.0369172,
2,1,0,1,0,6067.54,0.0387526,0.0384498,1.06507,5,0.0017293,11,4.09518e-05,-2.97262,0.2635,0.223909,9.35769,0.0384498,
2,1,0,1,0,6067.61,0.0402508,0.039952,1.08087,5,0.00181037,11,4.31829e-05,-2.96623,0.270976,0.217731,9.18787,0.039952,
2,1,0,1,0,6067.69,0.041749,0.0414854,1.09983,5,0.00189262,11,4.56269e-05,-2.95867,0.28213,0.209123,8.94511,0.0414854,
2,1,0,1,0,6067.76,0.0432472,0.0429639,1.11527,5,0.00197585,11,4.79163e-05,-2.95262,0.266112,0.221711,9.60509,0.0429639,
2,1,0,1,0,6067.84,0.0447449,0.0444169,1.1232,5,0.00205999,11,4.98891e-05,-2.94954,0.227509,0.25933,11.3919,0.0444169,
2,1,0,1,0,6067.91,0.0462445,0.0459349,1.14229,5,0.0021456,11,5.2471e-05,-2.94222,0.201809,0.292356,12.9972,0.0459349,
2,1,0,1,0,6067.99,0.04774,0.0474516,1.15856,5,0.00223236,11,5.49756e-05,-2.93608,0.209002,0.282294,12.803,0.0474516,
2,1,0,1,0,6068.06,0.0492399,0.0489572,1.1771,5,0.00232062,11,5.76273e-05,-2.92919,0.228251,0.258487,11.9118,0.0489572,
2,1,0,1,0,6068.14,0.0507381,0.0504402,1.19,5,0.00241006,11,6.0024e-05,-2.92445,0.216938,0.271967,12.7135,0.0504402,
2,1,0,1,0,6068.21,0.0522363,0.0519399,1.21851,5,0.00250105,11,6.32891e-05,-2.91417,0.17771,0.332002,15.77,0.0519399,
2,1,0,1,0,6068.29,0.0537345,0.0534657,1.24632,5,0.00259376,11,6.66354e-05,-2.90437,0.189886,0.310713,15.0457,0.05346569,
2,1,0,1,0,6068.36,0.0552327,0.054956,1.26416,5,0.00268823,11,6.94732e-05,-2.8982,0.211674,0.27873,13.7138,0.054956,
2,1,0,1,0,6068.44,0.0567309,0.0564234,1.27866,5,0.00278423,11,7.21463e-05,-2.89324,0.204881,0.287972,14.4426,0.0564234,
2,1,0,1,0,6068.51,0.0582291,0.0579277,1.30867,5,0.00288175,11,7.58085e-05,-2.88317,0.18726,0.315069,16.0982,0.05792772,
2,1,0,1,0,6068.59,0.0597291,0.0594529,1.33146,5,0.00298129,11,7.91591e-05,-2.87567,0.18463,0.319558,16.621,0.0594529,
2,1,0,1,0,6068.66,0.0612246,0.0609553,1.35764,5,0.00308247,11,8.27553e-05,-2.86722,0.205644,0.286903,15.1564,0.0609553,
2,1,0,1,0,6068.74,0.0627241,0.0624403,1.38477,5,0.00318586,11,8.64653e-05,-2.85862,0.185232,0.318519,17.1829,0.0624403,
2,1,0,1,0,6068.81,0.0642219,0.0639744,1.405,5,0.00329073,11,8.98844e-05,-2.85232,0.182313,0.32362,17.7932,0.06397444,
2,1,0,1,0,6068.89,0.06572,0.0654487,1.43477,5,0.00339764,11,9.39036e-05,-2.84322,0.181023,0.325925,18.2332,0.0654487,
2,1,0,1,0,6068.96,0.0672182,0.0669587,1.46339,5,0.00350677,11,9.79866e-05,-2.83464,0.195361,0.302005,17.1657,0.0669587,
2,1,0,1,0,6069.04,0.0687164,0.0684641,1.48761,5,0.00361784,11,0.000101848,-2.82751,0.213394,0.276484,16.0055,0.0684641,
2,1,0,1,0,6069.11,0.0702146,0.069939,1.50708,5,0.00373042,11,0.000105404,-2.82186,0.210369,0.28046,16.5356,0.069939,
2,1,0,1,0,6069.19,0.0717128,0.071389,1.53393,5,0.00384486,11,0.000109506,-2.81419,0.189748,0.310939,18.6087,0.071389,
2,1,0,1,0,6069.26,0.073211,0.0729085,1.56093,5,0.0039614,11,0.000113805,-2.80662,0.210443,0.280361,17.0595,0.0729085,
2,1,0,1,0,6069.34,0.0747092,0.074391,1.58663,5,0.00407988,11,0.000118031,-2.79952,0.228149,0.258603,15.9797,0.074391,
2,1,0,1,0,6069.41,0.0762087,0.0759193,1.60566,5,0.00420025,11,0.0001219,-2.79435,0.225747,0.261355,16.4045,0.0759193,
2,1,0,1,0,6069.49,0.0777042,0.0774107,1.63221,5,0.00432201,11,0.00012635,-2.78722,0.221761,0.266052,16.9596,0.0774107,
2,1,0,1,0,6069.56,0.0792037,0.0788858,1.65843,5,0.00444601,11,0.000130826,-2.7803,0.252038,0.234092,15.1151,0.0788858,
2,1,0,1,0,6069.64,0.0807019,0.0803888,1.67797,5,0.00457167,11,0.00013489,-2.77522,0.294834,0.200113,13.0685,0.0803888,
2,1,0,1,0,6069.71,0.0822001,0.0819411,1.69607,5,0.0046988,11,0.000138978,-2.77056,0.286444,0.205974,13.6575,0.0819411,
2,1,0,1,0,6069.79,0.0836983,0.0834251,1.72069,5,0.00482722,11,0.000143549,-2.7643,0.270153,0.218395,14.6907,0.0834251,
2,1,0,1,0,6069.86,0.0851965,0.0849348,1.74237,5,0.00495756,11,0.000147988,-2.75886,0.276502,0.21338,14.5151,0.0849348,
2,1,0,1,0,6069.94,0.0866947,0.086378,1.76353,5,0.00508965,11,0.00015233,-2.75362,0.339453,0.173809,11.9477,0.086378,
2,1,0,1,0,6070.01,0.0881929,0.0878959,1.78784,5,0.0052233,11,0.000157144,-2.74767,0.326279,0.180827,12.6041,0.0878959,
2,1,0,1,0,6070.09,0.0896911,0.0894064,1.80335,5,0.00535802,11,0.000161231,-2.74392,0.333575,0.176872,12.467,0.0894064,
2,1,0,1,0,6070.16,0.0911893,0.0909121,1.82516,5,0.00549449,11,0.000165929,-2.7387,0.351314,0.167941,11.8952,0.0909121,
2,1,0,1,0,6070.24,0.0926884,0.0923515,1.82451,5,0.00563265,11,0.000168496,-2.73885,0.320562,0.184052,13.2397,0.0923515,
2,1,0,1,0,6070.31,0.0941839,0.0938824,1.86098,5,0.00577121,11,0.000174713,-2.73026,0.349448,0.168838,12.3097,0.0938824,
2,1,0,1,0,6070.39,0.0956838,0.0953866,1.88157,5,0.00591218,11,0.000179477,-2.72548,0.257966,0.228713,16.8286,0.09538658,
2,1,0,1,0,6070.46,0.097182,0.0968716,1.90802,5,0.0060548,11,0.000184833,-2.71942,0.247491,0.238393,17.7524,0.0968716,
2,1,0,1,0,6070.53,0.0986802,0.0983951,1.93343,5,0.0061994,11,0.00019024,-2.71367,0.257814,0.228847,17.2869,0.0983951,
2,1,0,1,0,6070.61,0.100178,0.0999062,1.96188,5,0.00634602,11,0.000196005,-2.70733,0.257875,0.228793,17.5245,0.0999062,
2,1,0,1,0,6070.68,0.101677,0.101389,1.98473,5,0.00649448,11,0.00020123,-2.7023,0.245959,0.239877,18.6533,0.101389,
2,1,0,1,0,6070.76,0.103175,0.102862,2.01923,5,0.00664503,11,0.000207702,-2.69481,0.224655,0.262624,20.7177,0.102862,
2,1,0,1,0,6070.83,0.104673,0.104351,2.05741,5,0.00679816,11,0.000214692,-2.68668,0.198393,0.29739,23.8514,0.104351,
2,1,0,1,0,6070.91,0.106171,0.105906,2.09218,5,0.00695406,11,0.000221575,-2.6794,0.2095,0.281623,22.9345,0.105906,
2,1,0,1,0,6070.98,0.107669,0.107393,2.12767,5,0.00711261,11,0.000228496,-2.67209,0.184425,0.319914,26.6194,0.1073925,
2,1,0,1,0,6071.06,0.109168,0.10888,2.16679,5,0.00727396,11,0.00023592,-2.66418,0.165185,0.357176,30.2862,0.10888,
2,1,0,1,0,6071.13,0.110664,0.110375,2.21312,5,0.00743847,11,0.000244273,-2.655,0.152906,0.385857,33.36,0.110375,
2,1,0,1,0,6071.21,0.112164,0.111872,2.26369,5,0.00760705,11,0.000253244,-2.64518,0.156617,0.376715,33.2957,0.111872,
2,1,0,1,0,6071.28,0.113662,0.113399,2.31729,5,0.00777918,11,0.000262778,-2.63502,0.151223,0.390152,35.269,0.113399,
2,1,0,1,0,6071.36,0.11516,0.114895,2.36745,5,0.00795503,11,0.000272009,-2.62572,0.146363,0.403107,37.3047,0.114895,
2,1,0,1,0,6071.43,0.116658,0.116404,2.43164,5,0.00813533,11,0.000283053,-2.6141,0.13745,0.429248,40.6511,0.116404,
2,1,0,1,0,6071.51,0.118157,0.117858,2.49443,5,0.0083203,11,0.000293988,-2.60303,0.145522,0.405437,39.3818,0.117858,
2,1,0,1,0,6071.58,0.119655,0.11938,2.55147,5,0.00850978,11,0.000304594,-2.59321,0.15019,0.392837,39.1227,0.11938,
2,1,0,1,0,6071.66,0.121153,0.120819,2.60621,5,0.00870355,11,0.000314881,-2.58399,0.148134,0.398289,40.601,0.120819,
2,1,0,1,0,6071.73,0.122653,0.122313,2.67513,5,0.00890224,11,0.000327205,-2.57265,0.143431,0.411348,42.8724,0.122313,
2,1,0,1,0,6071.81,0.124149,0.123833,2.73685,5,0.00910517,11,0.000338913,-2.56275,0.150246,0.392689,41.9058,0.123833,
2,1,0,1,0,6071.88,0.125648,0.125325,2.79694,5,0.00931324,11,0.000350525,-2.55332,0.161731,0.364804,39.7584,0.125325,
2,1,0,1,0,6071.96,0.127146,0.126835,2.84869,5,0.00952562,11,0.000361315,-2.54535,0.168877,0.349366,38.8768,0.126835,
2,1,0,1,0,6072.03,0.128644,0.128328,2.9127,5,0.00974214,11,0.000373782,-2.5357,0.176703,0.333893,37.9689,0.128328,
2,1,0,1,0,6072.11,0.130142,0.129837,2.97129,5,0.00996304,11,0.000385783,-2.52706,0.18265,0.323022,37.4199,0.129837,
2,1,0,1,0,6072.18,0.13164,0.131379,3.02691,5,0.0101884,11,0.000397673,-2.519,0.216025,0.273117,32.1531,0.131379,
2,1,0,1,0,6072.26,0.133139,0.132847,3.07389,5,0.0104176,11,0.000408357,-2.51231,0.229978,0.256546,30.7481,0.132847,
2,1,0,1,0,6072.33,0.134637,0.134335,3.1197,5,0.0106499,11,0.000419085,-2.50589,0.253635,0.232618,28.3193,0.134335,
2,1,0,1,0,6072.41,0.136135,0.135814,3.16389,5,0.0108858,11,0.0004297,-2.49978,0.25565,0.230785,28.4408,0.135814,
2,1,0,1,0,6072.48,0.137633,0.137339,3.20214,5,0.0111247,11,0.000439777,-2.49456,0.327787,0.179995,22.4275,0.137339,
2,1,0,1,0,6072.56,0.139133,0.138868,3.2343,5,0.0113667,11,0.00044914,-2.49022,0.417516,0.141312,17.7699,0.138868,
2,1,0,1,0,6072.63,0.140628,0.140312,3.25198,5,0.0116097,11,0.000456292,-2.48785,0.569532,0.103594,13.1339,0.140312,
2,1,0,1,0,6072.71,0.142128,0.141809,3.27121,5,0.011855,11,0.000463889,-2.48529,0.664021,0.0888526,11.3135,0.141809,
2,1,0,1,0,6072.78,0.143626,0.14331,3.28453,5,0.0121011,11,0.000470707,-2.48353,4.53286,0.0130161,1.6611,0.14331,
2,1,0,1,0,6072.86,0.145124,0.144815,3.27585,5,0.0123475,11,0.000474392,-2.48468,-0.800095,-0.0737413,-9.39626,0.1448148,
2,1,0,1,0,6072.93,0.146622,0.14634,3.25353,5,0.0125928,11,0.000476122,-2.48765,-0.453405,-0.130126,-16.4876,0.14634,
2,1,0,1,0,6073.01,0.14812,0.147803,3.22611,5,0.0128361,11,0.00047683,-2.49132,-0.315332,-0.187105,-23.4856,0.147803,
2,1,0,1,0,6073.08,0.149619,0.149295,3.18558,5,0.0130769,11,0.000475591,-2.49681,-0.211321,-0.279197,-34.5381,0.149295,
2,1,0,1,0,6073.16,0.151117,0.15085,3.12591,5,0.0133139,11,0.000471542,-2.50502,-0.155152,-0.380273,-46.1371,0.15085,
2,1,0,1,0,6073.23,0.152615,0.15232,3.04807,5,0.0135458,11,0.000464282,-2.51598,-0.126502,-0.466396,-55.2612,0.15232,
2,1,0,1,0,6073.31,0.154113,0.153845,2.96452,5,0.0137714,11,0.000456077,-2.52804,-0.109839,-0.537148,-61.9233,0.153845,
2,1,0,1,0,6073.38,0.155613,0.155327,2.86528,5,0.0139904,11,0.000445056,-2.54283,-0.0983449,-0.599929,-66.7774,0.155327,
2,1,0,1,0,6073.46,0.157108,0.156834,2.75497,5,0.0142014,11,0.000432073,-2.55988,-0.0825983,-0.714301,-76.4423,0.156834,
2,1,0,1,0,6073.53,0.158608,0.158323,2.63865,5,0.0144044,11,0.00041776,-2.57862,-0.0768783,-0.767446,-78.9042,0.158323,
2,1,0,1,0,6073.61,0.160106,0.159815,2.51694,5,0.0145976,11,0.000402245,-2.59913,-0.0730866,-0.807262,-79.3062,0.159815,
2,1,0,1,0,6073.68,0.161604,0.161331,2.40037,5,0.0147823,11,0.000387253,-2.61972,-0.0717952,-0.821782,-76.8209,0.1613307,
2,1,0,1,0,6073.76,0.163102,0.162811,2.28307,5,0.0149583,11,0.000371709,-2.64148,-0.0692602,-0.85186,-75.9045,0.162811,
2,1,0,1,0,6073.83,0.164601,0.164273,2.17593,5,0.0151257,11,0.000357447,-2.66236,-0.0686018,-0.860036,-72.9669,0.164273,
2,1,0,1,0,6073.91,0.166099,0.165818,2.06385,5,0.0152846,11,0.000342223,-2.68532,-0.0701278,-0.841321,-68.003,0.165818,
2,1,0,1,0,6073.98,0.167597,0.167322,1.97114,5,0.0154362,11,0.000329815,-2.70528,-0.0761492,-0.774794,-59.6229,0.167322,
2,1,0,1,0,6074.06,0.169095,0.168806,1.88136,5,0.015581,11,0.000317586,-2.72553,-0.0754387,-0.782092,-57.4771,0.168806,
2,1,0,1,0,6074.13,0.170593,0.170258,1.8017,5,0.0157194,11,0.000306753,-2.74432,-0.0772335,-0.763917,-53.7825,0.1702576,
2,1,0,1,0,6074.21,0.172092,0.171821,1.71856,5,0.0158518,11,0.000295285,-2.76484,-0.0831046,-0.709948,-47.8922,0.1718214,
2,1,0,1,0,6074.28,0.173588,0.173278,1.65445,5,0.0159785,11,0.000286681,-2.78135,-0.0890379,-0.662639,-42.8837,0.173278,
2,1,0,1,0,6074.36,0.175088,0.174812,1.59566,5,0.0161009,11,0.000278939,-2.79706,-0.0943895,-0.625069,-38.9307,0.174812,
2,1,0,1,0,6074.43,0.176586,0.176278,1.54035,5,0.0162188,11,0.000271529,-2.81238,-0.0966067,-0.610724,-36.6661,0.176278,
2,1,0,1,0,6074.51,0.178084,0.177801,1.48419,5,0.0163326,11,0.000263889,-2.82851,-0.106552,-0.553721,-32.2396,0.177801,
2,1,0,1,0,6074.58,0.179582,0.179315,1.44137,5,0.0164427,11,0.00025846,-2.84123,-0.115529,-0.510694,-28.8382,0.179315,
2,1,0,1,0,6074.65,0.181081,0.180771,1.40205,5,0.0165498,11,0.000253451,-2.85323,-0.123717,-0.476895,-26.1653,0.180771,
2,1,0,1,0,6074.73,0.182579,0.182286,1.36657,5,0.0166541,11,0.000249106,-2.86437,-0.125855,-0.468792,-24.9854,0.182286,
2,1,0,1,0,6074.8,0.184077,0.183804,1.33344,5,0.0167557,11,0.000245091,-2.87503,-0.140403,-0.420219,-21.9059,0.183804,
2,1,0,1,0,6074.88,0.185577,0.185284,1.30119,5,0.0168548,11,0.000241091,-2.88566,-0.164783,-0.358046,-18.2207,0.185284,
2,1,0,1,0,6074.95,0.187073,0.186797,1.27544,5,0.0169517,11,0.000238248,-2.89434,-0.172481,-0.342066,-17.0118,0.186797,
2,1,0,1,0,6075.03,0.188572,0.188282,1.25312,5,0.017047,11,0.000235939,-2.90201,-0.189041,-0.312101,-15.2484,0.188282,
2,1,0,1,0,6075.1,0.19007,0.189774,1.22913,5,0.0171404,11,0.000233257,-2.9104,-0.195471,-0.301835,-14.4962,0.189774,
2,1,0,1,0,6075.18,0.191568,0.191274,1.20551,5,0.0172321,11,0.000230583,-2.91883,-0.208738,-0.282651,-13.348,0.191274,
2,1,0,1,0,6075.25,0.193066,0.19278,1.18629,5,0.0173224,11,0.000228692,-2.92581,-0.274071,-0.215272,-9.99329,0.19278,
2,1,0,1,0,6075.33,0.194564,0.194269,1.17518,5,0.0174116,11,0.000228301,-2.92989,-0.25678,-0.229768,-10.5314,0.1942687,
2,1,0,1,0,6075.4,0.196063,0.19574,1.15767,5,0.0174995,11,0.000226602,-2.93641,-0.22796,-0.258817,-11.7107,0.19574,
2,1,0,1,0,6075.48,0.197561,0.197266,1.13976,5,0.0175862,11,0.000224836,-2.94319,-0.272805,-0.216272,-9.65868,0.197266,
2,1,0,1,0,6075.55,0.199059,0.198753,1.13018,5,0.0176718,11,0.000224627,-2.94685,-0.297848,-0.198088,-8.73787,0.198753,
2,1,0,1,0,6075.63,0.200557,0.200234,1.12141,5,0.0177566,11,0.000224544,-2.95024,-0.352713,-0.167275,-7.29895,0.200234,
2,1,0,1,0,6075.7,0.202057,0.201772,1.10931,5,0.0178406,11,0.000223828,-2.95495,-0.290575,-0.203046,-8.76479,0.201772,
2,1,0,1,0,6075.78,0.203552,0.203239,1.09539,5,0.0179237,11,0.000222625,-2.96043,-0.39064,-0.151034,-6.46936,0.203239,
2,1,0,1,0,6075.85,0.205052,0.204813,1.08411,5,0.018006,11,0.00022204,-2.96493,-0.725078,-0.0813705,-3.47878,0.204813,
2,1,0,1,0,6075.93,0.20655,0.206273,1.07586,5,0.0180877,11,0.000221921,-2.96824,-0.512637,-0.115091,-4.85274,0.206273,
2,1,0,1,0,6076,0.208048,0.207751,1.06855,5,0.018169,11,0.000221992,-2.97121,-0.370478,-0.159254,-6.64676,0.207751,
2,1,0,1,0,6076.08,0.209546,0.209257,1.06,5,0.0182495,11,0.000221811,-2.9747,-0.422568,-0.139622,-5.78435,0.209257,
2,1,0,1,0,6076.15,0.211044,0.210778,1.05535,5,0.0183292,11,0.000222445,-2.9766,-0.467686,-0.126153,-5.18831,0.210778,
2,1,0,1,0,6076.23,0.212543,0.212245,1.04786,5,0.0184085,11,0.000222404,-2.9797,-0.568513,-0.103779,-4.24162,0.212245,
2,1,0,1,0,6076.3,0.214041,0.213733,1.04206,5,0.0184873,11,0.000222722,-2.98211,-0.582678,-0.101257,-4.11443,0.213733,
2,1,0,1,0,6076.38,0.215539,0.215249,1.03308,5,0.0185656,11,0.000222369,-2.98587,-0.497104,-0.118688,-4.80055,0.215249,
2,1,0,1,0,6076.45,0.217037,0.216728,1.02695,5,0.0186433,11,0.000222568,-2.98845,-0.74039,-0.0796877,-3.20285,0.216728,
2,1,0,1,0,6076.53,0.218536,0.218243,1.02337,5,0.0187208,11,0.000223344,-2.98997,-1.97882,-0.0298158,-1.18984,0.218243,
2,1,0,1,0,6076.6,0.220032,0.219742,1.01996,5,0.0187978,11,0.000224127,-2.99142,-0.807976,-0.073022,-2.89925,0.219742,
2,1,0,1,0,6076.68,0.221532,0.22126,1.01282,5,0.0188746,11,0.000224098,-2.99447,-0.59737,-0.0987662,-3.90336,0.22126,
2,1,0,1,0,6076.75,0.22303,0.22276,1.00103,5,0.0189508,11,0.00022299,-2.99955,-0.608371,-0.0969804,-3.813,0.22276,
2,1,0,1,0,6076.83,0.224528,0.224245,1.00403,5,0.0190266,11,0.000225148,-2.99825,-0.664251,-0.0888218,-3.47958,0.224245,
2,1,0,1,0,6076.9,0.226026,0.22575,0.997778,5,0.0191021,11,0.000225248,-3.00097,-0.830057,-0.0710795,-2.77322,0.22575,
2,1,0,1,0,6076.98,0.227525,0.227277,0.992309,5,0.0191774,11,0.000225529,-3.00335,-0.451886,-0.130564,-5.05435,0.227277,
2,1,0,1,0,6077.05,0.229023,0.228768,0.98901,5,0.0192523,11,0.000226254,-3.0048,-0.686557,-0.085936,-3.32373,0.228768,
2,1,0,1,0,6077.13,0.230521,0.230215,0.987214,5,0.0193267,11,0.000227272,-3.00559,-1.25886,-0.0468677,-1.81004,0.230215,
2,1,0,1,0,6077.2,0.232019,0.231752,0.983295,5,0.019401,11,0.000227881,-3.00732,-1.02752,-0.0574199,-2.19815,0.231752,
2,1,0,1,0,6077.28,0.233517,0.233221,0.980523,5,0.0194752,11,0.000228679,-3.00854,-0.704587,-0.083737,-3.19346,0.233221,
2,1,0,1,0,6077.35,0.235016,0.23474,0.976867,5,0.019549,11,0.00022931,-3.01016,-1.04465,-0.056478,-2.14805,0.23474,
2,1,0,1,0,6077.43,0.236512,0.236221,0.97169,5,0.0196223,11,0.000229534,-3.01247,-1.26279,-0.046722,-1.77125,0.236221,
2,1,0,1,0,6077.5,0.238012,0.237701,0.968033,5,0.0196956,11,0.000230102,-3.01411,-3.25946,-0.0181012,-0.682798,0.2377011,
2,1,0,1,0,6077.58,0.23951,0.239214,0.964671,5,0.0197687,11,0.000230763,-3.01562,-1.30279,-0.0452876,-1.70677,0.239214,
2,1,0,1,0,6077.65,0.241008,0.240725,0.962227,5,0.0198415,11,0.000231632,-3.01672,-0.857526,-0.0688026,-2.58616,0.240725,
2,1,0,1,0,6077.73,0.242506,0.242202,0.955027,5,0.0199139,11,0.000231309,-3.01998,-1.0465,-0.0563782,-2.11124,0.242202,
2,1,0,1,0,6077.8,0.244005,0.243708,0.954904,5,0.0199862,11,0.000232718,-3.02004,-1.98236,-0.0297624,-1.10804,0.243708,
2,1,0,1,0,6077.88,0.245503,0.245225,0.954807,5,0.0200584,11,0.000234142,-3.02008,-1.10416,-0.0534341,-1.98826,0.245225,
2,1,0,1,0,6077.95,0.247001,0.246676,0.952238,5,0.0201304,11,0.000234895,-3.02125,-0.660595,-0.0893135,-3.31429,0.246676,
2,1,0,1,0,6078.03,0.248501,0.248221,0.942505,5,0.0202021,11,0.000233949,-3.02572,-1.34396,-0.0439001,-1.6234,0.2482207,
2,1,0,1,0,6078.1,0.249997,0.249727,0.945119,5,0.0202733,11,0.000236022,-3.02451,-1.34774,-0.0437768,-1.61586,0.249727,
2,1,0,1,0,6078.18,0.251496,0.251187,0.942799,5,0.0203448,11,0.000236819,-3.02558,-1.59221,-0.0370553,-1.36484,0.251187,
2,1,0,1,0,6078.25,0.252994,0.25273,0.93883,5,0.0204159,11,0.000237271,-3.02741,-0.712502,-0.0828068,-3.03216,0.25273,
2,1,0,1,0,6078.33,0.254492,0.254187,0.935294,5,0.0204869,11,0.000237739,-3.02905,-1.10894,-0.0532042,-1.94907,0.254187,
2,1,0,1,0,6078.4,0.25599,0.255722,0.933029,5,0.0205574,11,0.000238596,-3.0301,-1.95686,-0.0301503,-1.10057,0.255722,
2,1,0,1,0,6078.48,0.257488,0.257241,0.932698,5,0.020628,11,0.000239928,-3.03026,-1.90399,-0.0309876,-1.12655,0.257241,
2,1,0,1,0,6078.55,0.258987,0.258732,0.931382,5,0.0206985,11,0.000240978,-3.03087,-1.52956,-0.0385731,-1.40022,0.2587319,
2,1,0,1,0,6078.63,0.260485,0.26021,0.929801,5,0.0207687,11,0.000241943,-3.03161,-1.02404,-0.0576148,-2.08811,0.26021,
2,1,0,1,0,6078.7,0.261983,0.261697,0.924651,5,0.0208385,11,0.000241978,-3.03402,-1.16303,-0.0507295,-1.83108,0.261697,
2,1,0,1,0,6078.77,0.263481,0.263179,0.924211,5,0.0209084,11,0.000243233,-3.03423,15.309,0.00385393,0.138528,0.263179,
2,1,0,1,0,6078.85,0.264981,0.264698,0.923311,5,0.0209782,11,0.000244399,-3.03465,-1.59414,-0.0370105,-1.33482,0.264698,
2,1,0,1,0,6078.92,0.266476,0.266209,0.91925,5,0.0210476,11,0.000244713,-3.03657,-1.30959,-0.0450522,-1.6199,0.266209,
2,1,0,1,0,6079,0.267976,0.26773,0.911981,5,0.021117,11,0.000244165,-3.04001,-1.56642,-0.0376656,-1.34772,0.26773,
2,1,0,1,0,6079.07,0.269474,0.269229,0.91364,5,0.0211862,11,0.000245978,-3.03922,-5.05455,-0.0116726,-0.416066,0.269229,
2,1,0,1,0,6079.15,0.270972,0.270683,0.916654,5,0.0212553,11,0.000248122,-3.03779,-1.48823,-0.0396445,-1.41163,0.270683,
2,1,0,1,0,6079.22,0.27247,0.272219,0.911484,5,0.0213243,11,0.000248123,-3.04025,-0.666251,-0.0885552,-3.13824,0.272219,
2,1,0,1,0,6079.3,0.273968,0.273705,0.904155,5,0.021393,11,0.000247472,-3.04376,-1.00483,-0.0587164,-2.08096,0.2737048,
2,1,0,1,0,6079.37,0.275467,0.275151,0.905951,5,0.0214615,11,0.000249273,-3.0429,-1.04072,-0.0566917,-2.00634,0.275151,
2,1,0,1,0,6079.45,0.276965,0.276682,0.905177,5,0.0215299,11,0.000250446,-3.04327,-0.946978,-0.0623035,-2.20492,0.276682,
2,1,0,1,0,6079.52,0.278463,0.27815,0.903736,5,0.0215981,11,0.000251375,-3.04396,-0.824189,-0.0715855,-2.51804,0.27815,
2,1,0,1,0,6079.6,0.279961,0.279658,0.90091,5,0.0216663,11,0.000251947,-3.04532,-2.2427,-0.0263076,-0.9246,0.279658,
2,1,0,1,0,6079.67,0.28146,0.281176,0.900022,5,0.0217343,11,0.000253064,-3.04575,-2.22204,-0.0265521,-0.929822,0.281176,
2,1,0,1,0,6079.75,0.282956,0.28267,0.898315,5,0.021802,11,0.000253927,-3.04657,-2.99123,-0.0197243,-0.690375,0.28267,
2,1,0,1,0,6079.82,0.284456,0.284238,0.895675,5,0.0218698,11,0.000254585,-3.04785,-2.63212,-0.0224154,-0.782809,0.284238,
2,1,0,1,0,6079.9,0.285954,0.285655,0.893064,5,0.0219374,11,0.000255108,-3.04912,-1.22881,-0.048014,-1.67392,0.285655,
2,1,0,1,0,6079.97,0.287452,0.287179,0.888971,5,0.0220047,11,0.000255294,-3.05111,-1.76415,-0.0334438,-1.1629,0.287179,
2,1,0,1,0,6080.05,0.28895,0.288657,0.888055,5,0.022072,11,0.000256343,-3.05156,-7.52259,-0.00784304,-0.271335,0.288657,
2,1,0,1,0,6080.12,0.290449,0.290139,0.886785,5,0.0221391,11,0.000257291,-3.05218,-1.54617,-0.0381588,-1.32142,0.290139,
2,1,0,1,0,6080.2,0.291947,0.291646,0.88509,5,0.0222061,11,0.000258133,-3.05301,-1.39461,-0.0423058,-1.46113,0.291646,
2,1,0,1,0,6080.27,0.293445,0.293136,0.8797,5,0.0222729,11,0.000257872,-3.05567,-1.37804,-0.0428145,-1.47836,0.293136,
2,1,0,1,0,6080.35,0.294943,0.29468,0.883689,5,0.0223396,11,0.000260405,-3.0537,-2.02728,-0.029103,-1.00282,0.29468,
2,1,0,1,0,6080.42,0.296441,0.296187,0.885298,5,0.0224062,11,0.000262213,-3.05291,-3.76782,-0.0156589,-0.537724,0.296187,
2,1,0,1,0,6080.5,0.29794,0.297726,0.877714,5,0.0224728,11,0.000261319,-3.05665,-3.22592,-0.0182894,-0.62656,0.297726,
2,1,0,1,0,6080.57,0.299436,0.299163,0.872947,5,0.0225391,11,0.000261153,-3.05901,-0.00111207,-53.0541,-510.615,0.299163,
2,1,0,1,0,6080.62,0.299739,0.299467,0.326019,5,0.02257,11,9.76319e-05,-3.48676,0.00180239,32.7342,841.047,0.2994667,
2,0,0,1,0,6080.69,0.298239,0.297971,-0.149449,5,0.0225675,11,-4.45316e-05,-3.82551,0.00676397,8.72269,278.643,0.297971,
2,0,0,1,0,6080.77,0.296741,0.296454,-0.207779,5,0.0225532,11,-6.1597e-05,-3.6824,-0.0116769,-5.05272,34.9042,0.296454,
2,0,0,1,0,6080.84,0.295243,0.294942,-0.244904,5,0.0225354,11,-7.22322e-05,-3.611,-0.0248849,-2.37092,21.5675,0.294942,
2,0,0,1,0,6080.92,0.293745,0.293399,-0.275209,5,0.0225153,11,-8.07461e-05,-3.56034,-0.0364012,-1.62082,16.9042,0.293399,
2,0,0,1,0,6080.99,0.292246,0.291928,-0.297646,5,0.0224934,11,-8.68911e-05,-3.5263,-0.0488829,-1.20697,13.7921,0.291928,
2,0,0,1,0,6081.06,0.290748,0.290435,-0.317956,5,0.0224698,11,-9.23454e-05,-3.49763,-0.0532236,-1.10853,13.481,0.2904349,
2,0,0,1,0,6081.14,0.28925,0.288926,-0.333579,5,0.0224447,11,-9.63798e-05,-3.4768,-0.0720665,-0.818688,10.6755,0.288926,
2,0,0,1,0,6081.21,0.287752,0.28749,-0.351326,5,0.0224185,11,-0.000101003,-3.45429,-0.0829619,-0.71117,9.73851,0.2874898,
2,0,0,1,0,6081.29,0.286254,0.28595,-0.36226,5,0.0223912,11,-0.000103588,-3.44098,-0.093013,-0.63432,9.00203,0.28595,
2,0,0,1,0,6081.36,0.284754,0.284419,-0.377205,5,0.0223628,11,-0.000107284,-3.42342,-0.0882925,-0.668233,9.79068,0.284419,
2,0,0,1,0,6081.44,0.283259,0.28298,-0.391658,5,0.0223334,11,-0.000110832,-3.40709,-0.106252,-0.555283,8.42596,0.2829802,
2,0,0,1,0,6081.51,0.281759,0.281455,-0.403063,5,0.0223031,11,-0.000113444,-3.39463,-0.134318,-0.439257,6.8248,0.281455,
2,0,0,1,0,6081.59,0.280261,0.279949,-0.40709,5,0.0222721,11,-0.000113964,-3.39031,-0.132081,-0.446696,7.15645,0.279949,
2,0,0,1,0,6081.66,0.278763,0.278495,-0.421838,5,0.0222403,11,-0.00011748,-3.37485,-0.141628,-0.416583,6.83708,0.278495,
2,0,0,1,0,6081.74,0.277264,0.27695,-0.431288,5,0.0222076,11,-0.000119445,-3.36523,-0.173036,-0.340969,5.75671,0.27695,
2,0,0,1,0,6081.81,0.275766,0.275432,-0.441263,5,0.0221743,11,-0.000121538,-3.3553,-0.217486,-0.271282,4.66729,0.275432,
2,0,0,1,0,6081.89,0.274268,0.273966,-0.450449,5,0.0221403,11,-0.000123408,-3.34635,-0.22349,-0.263994,4.64391,0.2739656,
2,0,0,1,0,6081.96,0.27277,0.272486,-0.459466,5,0.0221057,11,-0.000125198,-3.33775,-0.177034,-0.33327,5.98972,0.272486,
2,0,0,1,0,6082.04,0.271272,0.270962,-0.470182,5,0.0220704,11,-0.000127401,-3.32773,-0.190512,-0.309691,5.63694,0.270962,
2,0,0,1,0,6082.11,0.269774,0.269486,-0.477594,5,0.0220344,11,-0.000128705,-3.32094,-0.187778,-0.3142,5.82375,0.269486,
2,0,0,1,0,6082.19,0.268274,0.267942,-0.486307,5,0.0219978,11,-0.000130302,-3.31309,-0.217581,-0.271163,5.11588,0.267942,
2,0,0,1,0,6082.26,0.266779,0.266438,-0.489924,5,0.0219609,11,-0.000130534,-3.30987,-0.218656,-0.26983,5.15854,0.266438,
2,0,0,1,0,6082.34,0.265279,0.26497,-0.498961,5,0.0219232,11,-0.00013221,-3.30193,-0.168778,-0.349571,6.76244,0.26497,
2,0,0,1,0,6082.41,0.263781,0.263502,-0.505642,5,0.021885,11,-0.000133237,-3.29616,-0.213824,-0.275928,5.45387,0.263502,
2,0,0,1,0,6082.49,0.262283,0.261999,-0.511664,5,0.0218462,11,-0.000134056,-3.29102,-0.294205,-0.20054,4.00444,0.261999,
2,0,0,1,0,6082.56,0.260784,0.260474,-0.514854,5,0.021807,11,-0.000134106,-3.28832,-0.254368,-0.231948,4.70046,0.260474,
2,0,0,1,0,6082.64,0.259286,0.258999,-0.527406,5,0.0217672,11,-0.000136598,-3.27785,-0.235435,-0.2506,5.14281,0.2589992,
2,0,0,1,0,6082.71,0.257788,0.25746,-0.539763,5,0.0217269,11,-0.000138968,-3.2678,-0.289679,-0.203673,4.23862,0.25746,
2,0,0,1,0,6082.79,0.25629,0.255969,-0.542765,5,0.021686,11,-0.000138931,-3.26539,-0.353238,-0.167026,3.5072,0.255969,
2,0,0,1,0,6082.86,0.25479,0.254474,-0.543016,5,0.0216446,11,-0.000138184,-3.26519,-0.263661,-0.223773,4.77282,0.254474,
2,0,0,1,0,6082.94,0.253294,0.253003,-0.553964,5,0.021603,11,-0.000140155,-3.25652,-0.269061,-0.219281,4.74879,0.253003,
2,0,0,1,0,6083.01,0.251795,0.251469,-0.558764,5,0.0215607,11,-0.000140511,-3.25277,-0.291983,-0.202066,4.42075,0.2514686,
2,0,0,1,0,6083.09,0.250297,0.250004,-0.563212,5,0.021518,11,-0.000140805,-3.24933,-0.330833,-0.178338,3.91935,0.250004,
2,0,0,1,0,6083.16,0.248799,0.248473,-0.571938,5,0.0214747,11,-0.000142111,-3.24265,-0.316502,-0.186413,4.17096,0.248473,
2,0,0,1,0,6083.24,0.247301,0.247,-0.578439,5,0.0214312,11,-0.000142875,-3.23774,-0.275424,-0.214215,4.8381,0.247,
2,0,0,1,0,6083.31,0.245802,0.245508,-0.585865,5,0.0213871,11,-0.000143834,-3.2322,-0.308205,-0.191431,4.35124,0.245508,
2,0,0,1,0,6083.39,0.244304,0.244002,-0.59331,5,0.0213423,11,-0.000144769,-3.22672,-0.352861,-0.167205,3.8386,0.244002,
2,0,0,1,0,6083.46,0.242806,0.242494,-0.597982,5,0.0212972,11,-0.000145007,-3.22331,-0.487179,-0.121105,2.82149,0.242494,
2,0,0,1,0,6083.54,0.241308,0.240991,-0.602283,5,0.0212518,11,-0.000145145,-3.2202,-0.342299,-0.172364,4.06352,0.240991,
2,0,0,1,0,6083.61,0.23981,0.239479,-0.6106,5,0.0212059,11,-0.000146226,-3.21424,-0.251902,-0.234218,5.54163,0.2394792,
2,0,0,1,0,6083.69,0.23831,0.238019,-0.615011,5,0.0211593,11,-0.000146384,-3.21112,-0.33717,-0.174986,4.20027,0.238019,
2,0,0,1,0,6083.76,0.236815,0.236491,-0.620977,5,0.0211125,11,-0.000146856,-3.20692,-0.344399,-0.171313,4.1538,0.236491,
2,0,0,1,0,6083.84,0.235315,0.235011,-0.62202,5,0.0210652,11,-0.000146182,-3.2062,-0.339648,-0.173709,4.25695,0.235011,
2,0,0,1,0,6083.91,0.233817,0.233536,-0.632876,5,0.0210175,11,-0.000147799,-3.19868,-0.303355,-0.194491,4.80665,0.233536,
2,0,0,1,0,6083.99,0.232319,0.232015,-0.640247,5,0.0209692,11,-0.000148547,-3.19365,-0.382077,-0.154419,3.84233,0.232015,
2,0,0,1,0,6084.06,0.230821,0.230502,-0.646486,5,0.0209203,11,-0.000149016,-3.18944,-0.510473,-0.115579,2.89947,0.230502,
2,0,0,1,0,6084.14,0.229322,0.229023,-0.649057,5,0.0208711,11,-0.000148649,-3.18772,-0.415076,-0.142143,3.62202,0.229023,
2,0,0,1,0,6084.21,0.227824,0.227523,-0.657846,5,0.0208216,11,-0.000149675,-3.18188,-0.399313,-0.147754,3.81015,0.227523,
2,0,0,1,0,6084.29,0.226326,0.226002,-0.663187,5,0.0207715,11,-0.000149882,-3.17836,-0.451766,-0.130599,3.39323,0.2260021,
2,0,0,1,0,6084.36,0.224828,0.224552,-0.670576,5,0.0207208,11,-0.000150579,-3.17355,-0.425089,-0.138794,3.62493,0.224552,
2,0,0,1,0,6084.44,0.22333,0.223025,-0.681377,5,0.0206697,11,-0.000151964,-3.16661,-0.446746,-0.132066,3.49995,0.223025,
2,0,0,1,0,6084.51,0.22183,0.221528,-0.684908,5,0.0206182,11,-0.000151726,-3.16437,-0.291972,-0.202074,5.403,0.221528,
2,0,0,1,0,6084.59,0.220335,0.220057,-0.691616,5,0.0205661,11,-0.000152195,-3.16013,-0.290844,-0.202858,5.45824,0.220057,
2,0,0,1,0,6084.66,0.218835,0.218504,-0.699189,5,0.0205133,11,-0.000152775,-3.15541,-0.290933,-0.202796,5.53185,0.218504,
2,0,0,1,0,6084.74,0.217337,0.216992,-0.706097,5,0.02046,11,-0.000153218,-3.15114,-0.430941,-0.13691,3.77792,0.216992,
2,0,0,1,0,6084.81,0.215839,0.215557,-0.710913,5,0.0204065,11,-0.000153242,-3.14818,-0.335287,-0.175969,4.90371,0.215557,
2,0,0,1,0,6084.89,0.21434,0.214062,-0.719668,5,0.0203523,11,-0.000154054,-3.14287,-0.247015,-0.238852,6.69656,0.214062,
2,0,0,1,0,6084.96,0.212842,0.212525,-0.727374,5,0.0202974,11,-0.000154585,-3.13824,-0.32921,-0.179217,5.08919,0.212525,
2,0,0,1,0,6085.04,0.211344,0.211031,-0.736656,5,0.0202419,11,-0.000155457,-3.13274,-0.390318,-0.151159,4.34436,0.211031,
2,0,0,1,0,6085.11,0.209846,0.209525,-0.741364,5,0.020186,11,-0.000155334,-3.12997,-0.320035,-0.184355,5.35604,0.209525,
2,0,0,1,0,6085.18,0.208348,0.208032,-0.752947,5,0.0201294,11,-0.000156637,-3.12324,-0.246519,-0.239333,7.04158,0.208032,
2,0,0,1,0,6085.26,0.20685,0.206565,-0.768303,5,0.0200721,11,-0.000158704,-3.11447,-0.27296,-0.216149,6.42749,0.2065645,
2,0,0,1,0,6085.33,0.20535,0.205029,-0.769367,5,0.0200137,11,-0.000157743,-3.11387,-0.329811,-0.17889,5.35679,0.2050294,
2,0,0,1,0,6085.41,0.203855,0.20349,-0.778132,5,0.0199551,11,-0.000158342,-3.10895,-0.304019,-0.194067,5.93237,0.20349,
2,0,0,1,0,6085.48,0.202355,0.202086,-0.786761,5,0.0198959,11,-0.000158993,-3.10416,-0.293523,-0.201007,6.2057,0.202086,
2,0,0,1,0,6085.56,0.200857,0.200491,-0.798921,5,0.0198357,11,-0.000160176,-3.0975,-0.247593,-0.238295,7.43171,0.200491,
2,0,0,1,0,6085.63,0.199359,0.199005,-0.809899,5,0.0197748,11,-0.000161174,-3.09157,-0.308554,-0.191215,6.04,0.1990054,
2,0,0,1,0,6085.71,0.19786,0.197523,-0.823619,5,0.0197131,11,-0.000162684,-3.08427,-0.270071,-0.218461,7.00838,0.197523,
2,0,0,1,0,6085.78,0.196362,0.196048,-0.833226,5,0.0196507,11,-0.000163352,-3.07924,-0.234552,-0.251544,8.17679,0.196048,
2,0,0,1,0,6085.86,0.194864,0.194514,-0.848608,5,0.0195872,11,-0.000165066,-3.07129,-0.193703,-0.30459,10.0343,0.1945139,
2,0,0,1,0,6085.93,0.193366,0.193044,-0.860009,5,0.0195227,11,-0.00016602,-3.0655,-0.205591,-0.286978,9.62894,0.193044,
2,0,0,1,0,6086.01,0.191866,0.191521,-0.872536,5,0.0194572,11,-0.000167109,-3.05922,-0.232886,-0.253343,8.644,0.1915208,
2,0,0,1,0,6086.08,0.19037,0.190067,-0.884482,5,0.0193909,11,-0.000168111,-3.05331,-0.199595,-0.295599,10.2532,0.190067,
2,0,0,1,0,6086.16,0.188871,0.188544,-0.900582,5,0.0193232,11,-0.000169799,-3.04548,-0.166558,-0.35423,12.4714,0.188544,
2,0,0,1,0,6086.23,0.187373,0.187058,-0.92152,5,0.0192543,11,-0.000172378,-3.0355,-0.184846,-0.319185,11.4679,0.187058,
2,0,0,1,0,6086.31,0.185875,0.185586,-0.938206,5,0.0191841,11,-0.000174117,-3.0277,-0.194547,-0.303269,11.0724,0.185586,
2,0,0,1,0,6086.38,0.184377,0.184035,-0.953542,5,0.0191127,11,-0.000175486,-3.02066,-0.17241,-0.342207,12.7753,0.184035,
2,0,0,1,0,6086.46,0.182878,0.182553,-0.975382,5,0.0190398,11,-0.000178059,-3.01083,-0.152387,-0.387171,14.7755,0.182553,
2,0,0,1,0,6086.53,0.18138,0.181085,-0.999411,5,0.0189652,11,-0.000180978,-3.00026,-0.152253,-0.387512,15.1184,0.1810846,
2,0,0,1,0,6086.61,0.179882,0.179551,-1.02234,5,0.0188888,11,-0.000183563,-2.9904,-0.166694,-0.353941,14.1137,0.179551,
2,0,0,1,0,6086.68,0.178384,0.178096,-1.04668,5,0.0188107,11,-0.000186409,-2.98019,-0.141694,-0.416391,17.0644,0.178096,
2,0,0,1,0,6086.76,0.176886,0.176589,-1.07625,5,0.0187308,11,-0.000190054,-2.96809,-0.130915,-0.450675,18.9555,0.176589,
2,0,0,1,0,6086.83,0.175386,0.175088,-1.10864,5,0.0186485,11,-0.00019411,-2.95521,-0.113583,-0.519445,22.4336,0.175088,
2,0,0,1,0,6086.91,0.173891,0.1736,-1.13906,5,0.018564,11,-0.000197742,-2.94345,-0.113002,-0.522113,23.196,0.1736,
2,0,0,1,0,6086.98,0.172391,0.172063,-1.17302,5,0.0184767,11,-0.000201833,-2.93069,-0.108645,-0.543052,24.9083,0.172063,
2,0,0,1,0,6087.06,0.170893,0.17056,-1.20856,5,0.018387,11,-0.000206132,-2.91773,-0.102508,-0.575564,27.2929,0.1705604,
2,0,0,1,0,6087.13,0.169395,0.169089,-1.25432,5,0.0182941,11,-0.000212091,-2.90159,-0.0920732,-0.640794,31.3662,0.169089,
2,0,0,1,0,6087.21,0.167897,0.167585,-1.30096,5,0.0181978,11,-0.000218021,-2.88574,-0.0917019,-0.643389,32.7677,0.167585,
2,0,0,1,0,6087.28,0.166398,0.166075,-1.3493,5,0.0180978,11,-0.000224085,-2.86989,-0.0924739,-0.638018,33.7406,0.166075,
2,0,0,1,0,6087.36,0.1649,0.164542,-1.40214,5,0.0179939,11,-0.000230712,-2.85321,-0.0839666,-0.70266,38.6818,0.164542,
2,0,0,1,0,6087.43,0.163402,0.163101,-1.46991,5,0.0178858,11,-0.000239745,-2.83271,-0.0789266,-0.74753,43.0047,0.1631014,
2,0,0,1,0,6087.51,0.161904,0.161561,-1.53823,5,0.0177727,11,-0.000248519,-2.81298,-0.0741325,-0.795872,47.7736,0.161561,
2,0,0,1,0,6087.58,0.160406,0.160127,-1.60894,5,0.0176543,11,-0.000257634,-2.79346,-0.0727077,-0.811468,50.9394,0.160127,
2,0,0,1,0,6087.66,0.158906,0.158621,-1.68502,5,0.0175301,11,-0.000267279,-2.7734,-0.0708673,-0.832542,54.9607,0.158621,
2,0,0,1,0,6087.73,0.157411,0.157067,-1.77116,5,0.0174003,11,-0.000278191,-2.75174,-0.0673318,-0.876257,60.8465,0.157067,
2,0,0,1,0,6087.81,0.155911,0.155587,-1.86386,5,0.0172632,11,-0.000289993,-2.72959,-0.0660646,-0.893066,65.1857,0.1555874,
2,0,0,1,0,6087.88,0.154413,0.154116,-1.96537,5,0.017119,11,-0.000302895,-2.70655,-0.06916,-0.853094,65.3252,0.154116,
2,0,0,1,0,6087.96,0.152915,0.152599,-2.0671,5,0.0169671,11,-0.000315437,-2.68464,-0.0691296,-0.853469,68.8494,0.152599,
2,0,0,1,0,6088.03,0.151417,0.151118,-2.17005,5,0.016808,11,-0.000327933,-2.66353,-0.0712592,-0.827964,70.3087,0.151118,
2,0,0,1,0,6088.11,0.149918,0.149562,-2.28266,5,0.0166407,11,-0.000341399,-2.64156,-0.0726772,-0.811809,72.0938,0.149562,
2,0,0,1,0,6088.18,0.14842,0.148118,-2.39178,5,0.0164649,11,-0.000354266,-2.62128,-0.0747241,-0.789571,73.5737,0.148118,
2,0,0,1,0,6088.26,0.146922,0.146592,-2.50344,5,0.0162811,11,-0.000366983,-2.60146,-0.0821534,-0.718168,69.8609,0.146592,
2,0,0,1,0,6088.33,0.145424,0.145078,-2.60173,5,0.0160894,11,-0.000377454,-2.58474,-0.0857997,-0.687648,69.8262,0.145078,
2,0,0,1,0,6088.41,0.143926,0.143611,-2.71117,5,0.01589,11,-0.000389353,-2.56684,-0.0886473,-0.665559,70.2055,0.143611,
2,0,0,1,0,6088.48,0.142426,0.142109,-2.81295,5,0.0156822,11,-0.000399745,-2.55084,-0.0988993,-0.596567,65.1969,0.142109,
2,0,0,1,0,6088.56,0.140931,0.140623,-2.90374,5,0.0154676,11,-0.000408334,-2.53704,-0.113845,-0.518248,58.53,0.140623,
2,0,0,1,0,6088.63,0.139431,0.139101,-2.98129,5,0.015246,11,-0.000414701,-2.5256,-0.13393,-0.44053,51.2162,0.139101,
2,0,0,1,0,6088.71,0.137933,0.137614,-3.05811,5,0.0150191,11,-0.00042084,-2.51455,-0.151705,-0.388912,46.3606,0.137614,
2,0,0,1,0,6088.78,0.136435,0.136098,-3.12874,5,0.0147867,11,-0.000425815,-2.50463,-0.170308,-0.346432,42.1414,0.136098,
2,0,0,1,0,6088.86,0.134936,0.134599,-3.18695,5,0.0145494,11,-0.00042896,-2.49662,-0.219595,-0.268677,33.2868,0.1345987,
2,0,0,1,0,6088.93,0.133438,0.133126,-3.23068,5,0.0143084,11,-0.000430088,-2.49071,-0.290803,-0.202886,25.5043,0.133126,
2,0,0,1,0,6089.01,0.13194,0.131636,-3.26544,5,0.0140645,11,-0.000429849,-2.48606,-0.349127,-0.168993,21.5212,0.131636,
2,0,0,1,0,6089.08,0.130442,0.130143,-3.29242,5,0.0138183,11,-0.000428485,-2.48249,-0.495277,-0.119125,15.2707,0.130143,
2,0,0,1,0,6089.16,0.128942,0.128649,-3.31441,5,0.0135697,11,-0.000426395,-2.47959,-1.30127,-0.0453402,5.83687,0.128649,
2,0,0,1,0,6089.23,0.127446,0.127157,-3.31767,5,0.0133211,11,-0.000421864,-2.47917,5.57794,0.0105774,-1.36541,0.127157,
2,0,0,1,0,6089.31,0.125947,0.125625,-3.30659,5,0.0130724,11,-0.00041539,-2.48062,1.16439,0.0506702,-6.53066,0.1256249,
2,0,0,1,0,6089.38,0.124449,0.124147,-3.29552,5,0.0128245,11,-0.000409128,-2.48208,0.79899,0.0738432,-9.46435,0.124147,
2,0,0,1,0,6089.45,0.122951,0.122674,-3.2761,5,0.0125777,11,-0.000401891,-2.48464,0.440632,0.133898,-17.0708,0.122674,
2,0,0,1,0,6089.53,0.121453,0.121134,-3.24371,5,0.012333,11,-0.000392925,-2.48896,0.298611,0.197582,-24.9512,0.121134,
2,0,0,1,0,6089.6,0.119955,0.119625,-3.19419,5,0.0120911,11,-0.000382105,-2.49564,0.262511,0.224752,-28.0603,0.119625,
2,0,0,1,0,6089.68,0.118456,0.118143,-3.15424,5,0.0118525,11,-0.000372653,-2.50111,0.247145,0.238726,-29.3841,0.1181434,
2,0,0,1,0,6089.75,0.116958,0.116627,-3.11509,5,0.0116171,11,-0.000363303,-2.50653,0.21249,0.27766,-33.6583,0.116627,
2,0,0,1,0,6089.83,0.11546,0.115165,-3.05801,5,0.0113854,11,-0.000352177,-2.51456,0.176536,0.33421,-39.7549,0.115165,
2,0,0,1,0,6089.9,0.113962,0.113602,-2.98877,5,0.0111583,11,-0.000339532,-2.52451,0.168976,0.349162,-40.7775,0.113602,
2,0,0,1,0,6089.98,0.112462,0.112149,-2.9291,5,0.0109358,11,-0.000328495,-2.53327,0.161013,0.366429,-41.9057,0.112149,
2,0,0,1,0,6090.05,0.110967,0.110676,-2.86971,5,0.0107183,11,-0.000317608,-2.54216,0.165404,0.356702,-39.9197,0.110676,
2,0,0,1,0,6090.13,0.109467,0.109156,-2.80736,5,0.0105048,11,-0.000306441,-2.5517,0.149223,0.39538,-43.2794,0.109156,
2,0,0,1,0,6090.2,0.107969,0.107667,-2.74077,5,0.0102964,11,-0.000295091,-2.56213,0.148514,0.397269,-42.5656,0.1076675,
2,0,0,1,0,6090.28,0.106471,0.106158,-2.67832,5,0.0100929,11,-0.000284324,-2.57214,0.158392,0.372494,-39.0341,0.106158,
2,0,0,1,0,6090.35,0.104973,0.104665,-2.62491,5,0.00989369,11,-0.000274738,-2.58089,0.161592,0.365117,-37.4207,0.104665,
2,0,0,1,0,6090.43,0.103474,0.103141,-2.57188,5,0.00969842,11,-0.000265266,-2.58975,0.164779,0.358055,-35.9087,0.103141,
2,0,0,1,0,6090.5,0.101976,0.101672,-2.51968,5,0.00950731,11,-0.000256182,-2.59865,0.162937,0.362104,-35.6071,0.1016724,
2,0,0,1,0,6090.58,0.100478,0.100141,-2.46749,5,0.00932019,11,-0.000247097,-2.60774,0.182423,0.323424,-31.1906,0.100141,
2,0,0,1,0,6090.65,0.0989799,0.0986826,-2.42662,5,0.00913646,11,-0.000239465,-2.615,0.216445,0.272587,-25.8261,0.0986826,
2,0,0,1,0,6090.73,0.0974817,0.0971802,-2.38827,5,0.00895574,11,-0.000232093,-2.62192,0.22451,0.262794,-24.5029,0.0971802,
2,0,0,1,0,6090.8,0.0959821,0.0956425,-2.34519,5,0.00877758,11,-0.000224299,-2.62982,0.221943,0.265834,-24.3641,0.09564247,
2,0,0,1,0,6090.88,0.0944866,0.0941865,-2.30769,5,0.00860281,11,-0.000217353,-2.63682,0.239661,0.246181,-22.2595,0.0941865,
2,0,0,1,0,6090.95,0.0929871,0.0926566,-2.28179,5,0.00843005,11,-0.000211423,-2.64172,0.293812,0.200808,-17.911,0.0926566,
2,0,0,1,0,6091.03,0.0914889,0.0911762,-2.26148,5,0.00825951,11,-0.000206193,-2.64561,0.305194,0.19332,-17.0317,0.0911762,
2,0,0,1,0,6091.1,0.0899907,0.0896756,-2.22902,5,0.00809079,11,-0.000199889,-2.65189,0.284703,0.207234,-18.0052,0.0896756,
2,0,0,1,0,6091.18,0.0884925,0.0881875,-2.20041,5,0.00792411,11,-0.000194049,-2.6575,0.294905,0.200064,-17.2278,0.0881875,
2,0,0,1,0,6091.25,0.0869943,0.0866777,-2.18077,5,0.00775951,11,-0.000189024,-2.66139,0.328245,0.179744,-15.3157,0.08667773,
2,0,0,1,0,6091.33,0.0854961,0.0851955,-2.16478,5,0.00759633,11,-0.000184429,-2.66459,0.366085,0.161165,-13.5975,0.0851955,
2,0,0,1,0,6091.4,0.083998,0.0836579,-2.14138,5,0.00743463,11,-0.000179144,-2.66931,0.326092,0.180931,-15.098,0.0836579,
2,0,0,1,0,6091.48,0.0824998,0.0821895,-2.12102,5,0.00727439,11,-0.000174326,-2.67345,0.368093,0.160285,-13.27,0.0821895,
2,0,0,1,0,6091.55,0.081002,0.0807215,-2.09989,5,0.00711599,11,-0.000169506,-2.6778,0.408612,0.144391,-11.8512,0.0807215,
2,0,0,1,0,6091.63,0.0795025,0.0792038,-2.08348,5,0.00695858,11,-0.00016502,-2.68121,0.43265,0.136369,-11.0688,0.0792038,
2,0,0,1,0,6091.7,0.078007,0.0777022,-2.06637,5,0.00680282,11,-0.000160561,-2.68479,0.40236,0.146635,-11.8031,0.07770218,
2,0,0,1,0,6091.78,0.076507,0.0762286,-2.04587,5,0.00664804,11,-0.000155954,-2.68912,0.34653,0.170259,-13.5768,0.0762286,
2,0,0,1,0,6091.85,0.0750088,0.0746602,-2.02433,5,0.0064952,11,-0.000151137,-2.69372,0.333631,0.176842,-13.9728,0.0746602,
2,0,0,1,0,6091.93,0.0735106,0.0732202,-2.00383,5,0.0063438,11,-0.000146721,-2.69814,0.395703,0.149102,-11.6492,0.0732202,
2,0,0,1,0,6092,0.0720124,0.0716987,-1.98499,5,0.00619376,11,-0.000142322,-2.70224,0.336851,0.175152,-13.5696,0.0716987,
2,0,0,1,0,6092.08,0.0705142,0.0701756,-1.96428,5,0.00604527,11,-0.000137844,-2.7068,0.273843,0.215452,-16.4932,0.0701756,
2,0,0,1,0,6092.15,0.0690161,0.0687513,-1.93809,5,0.00589848,11,-0.000133246,-2.71263,0.294216,0.200533,-15.1888,0.0687513,
2,0,0,1,0,6092.23,0.0675179,0.0672147,-1.92082,5,0.00575348,11,-0.000129107,-2.71651,0.319171,0.184854,-13.8481,0.0672147,
2,0,0,1,0,6092.3,0.0660179,0.0657088,-1.90257,5,0.0056098,11,-0.000125016,-2.72066,0.298617,0.197577,-14.6053,0.0657088,
2,0,0,1,0,6092.38,0.0645224,0.0642065,-1.87276,5,0.00546802,11,-0.000120243,-2.72752,0.24549,0.240336,-17.5099,0.0642065,
2,0,0,1,0,6092.45,0.0630229,0.0627102,-1.84486,5,0.00532788,11,-0.000115692,-2.73404,0.2446,0.24121,-17.3963,0.0627102,
2,0,0,1,0,6092.53,0.0615251,0.0612555,-1.82047,5,0.00519017,11,-0.000111514,-2.73982,0.244846,0.240968,-17.1581,0.0612555,
2,0,0,1,0,6092.6,0.0600269,0.0597006,-1.79544,5,0.0050541,11,-0.000107189,-2.74583,0.253816,0.232452,-16.2887,0.0597006,
2,0,0,1,0,6092.68,0.0585287,0.058189,-1.76861,5,0.00491987,11,-0.000102914,-2.75237,0.220408,0.267686,-18.4805,0.05818896,
2,0,0,1,0,6092.75,0.0570305,0.0567248,-1.74495,5,0.00478759,11,-9.89821e-05,-2.75822,0.23624,0.249746,-17.0042,0.05672479,
2,0,0,1,0,6092.83,0.0555323,0.0552177,-1.71843,5,0.00465749,11,-9.48878e-05,-2.76487,0.232159,0.254136,-17.0567,0.0552177,
2,0,0,1,0,6092.9,0.0540342,0.0537279,-1.6961,5,0.00452905,11,-9.11278e-05,-2.77055,0.264693,0.2229,-14.7321,0.0537279,
2,0,0,1,0,6092.98,0.052536,0.052208,-1.67387,5,0.00440224,11,-8.73897e-05,-2.77628,0.234707,0.251378,-16.3921,0.05220804,
2,0,0,1,0,6093.05,0.0510378,0.0507057,-1.65012,5,0.00427729,11,-8.36703e-05,-2.78249,0.23579,0.250223,-16.1082,0.0507057,
2,0,0,1,0,6093.13,0.0495382,0.0492029,-1.62078,5,0.00415428,11,-7.97469e-05,-2.79028,0.253873,0.232399,-14.7639,0.0492029,
2,0,0,1,0,6093.2,0.0480427,0.047768,-1.60229,5,0.00403301,11,-7.6538e-05,-2.79526,0.31816,0.185441,-11.5903,0.047768,
2,0,0,1,0,6093.28,0.0465432,0.0462258,-1.58371,5,0.00391281,11,-7.32083e-05,-2.80032,0.294209,0.200538,-12.4082,0.0462258,
2,0,0,1,0,6093.35,0.045045,0.0446919,-1.56386,5,0.00379429,11,-6.9892e-05,-2.8058,0.278405,0.211921,-12.9579,0.0446919,
2,0,0,1,0,6093.43,0.0435468,0.0432105,-1.54332,5,0.00367721,11,-6.66877e-05,-2.81154,0.331375,0.178046,-10.7679,0.0432105,
2,0,0,1,0,6093.5,0.0420486,0.0417735,-1.53101,5,0.00356147,11,-6.39557e-05,-2.81502,0.348205,0.16944,-10.1347,0.0417735,
2,0,0,1,0,6093.57,0.0405504,0.0402607,-1.51943,5,0.00344655,11,-6.11732e-05,-2.81832,0.377487,0.156297,-9.24783,0.0402607,
2,0,0,1,0,6093.65,0.0390523,0.0386998,-1.50439,5,0.00333271,11,-5.82197e-05,-2.82264,0.31041,0.190071,-11.1515,0.0386998,
2,0,0,1,0,6093.72,0.0375541,0.0372419,-1.48751,5,0.00322002,11,-5.53976e-05,-2.82754,0.380587,0.155024,-9.0314,0.0372419,
2,0,0,1,0,6093.8,0.0360559,0.0357584,-1.47856,5,0.00310841,11,-5.28708e-05,-2.83016,0.487869,0.120934,-6.9954,0.0357584,
2,0,0,1,0,6093.87,0.0345577,0.0342152,-1.47109,5,0.00299737,11,-5.03336e-05,-2.83236,0.579951,0.101733,-5.84263,0.0342152,
2,0,0,1,0,6093.95,0.0330582,0.0327324,-1.46506,5,0.00288682,11,-4.79549e-05,-2.83414,0.589853,0.100025,-5.70173,0.0327324,
2,0,0,1,0,6094.02,0.0315626,0.031217,-1.45635,5,0.00277716,11,-4.54629e-05,-2.83673,0.737873,0.0799596,-4.53742,0.031217,
2,0,0,1,0,6094.1,0.0300631,0.0297173,-1.44702,5,0.00266796,11,-4.30014e-05,-2.83953,0.925706,0.0637352,-3.6004,0.0297173,
2,0,0,1,0,6094.17,0.0285649,0.028223,-1.44003,5,0.0025592,11,-4.06418e-05,-2.84163,1.95296,0.0302106,-1.69834,0.028223,
2,0,0,1,0,6094.25,0.0270667,0.0267594,-1.43888,5,0.00245073,11,-3.85035e-05,-2.84198,1.42524,0.0413964,-2.32305,0.0267594,
2,0,0,1,0,6094.32,0.0255685,0.025216,-1.43344,5,0.00234253,11,-3.61455e-05,-2.84362,1.00577,0.0586616,-3.28498,0.025216,
2,0,0,1,0,6094.4,0.0240704,0.0237584,-1.42552,5,0.00223478,11,-3.38681e-05,-2.84603,2.0487,0.0287987,-1.61156,0.0237584,
2,0,0,1,0,6094.47,0.0225722,0.0222655,-1.42624,5,0.00212723,11,-3.17561e-05,-2.84581,54.8904,0.00107487,-0.0599485,0.0222655,
2,0,0,1,0,6094.55,0.021074,0.0207484,-1.42846,5,0.00201964,11,-2.96381e-05,-2.84513,-8.60393,-0.00685733,0.382627,0.0207484,
2,0,0,1,0,6094.62,0.0195758,0.0192372,-1.4284,5,0.00191215,11,-2.74784e-05,-2.84515,2.73761,0.0215516,-1.19945,0.0192372,
2,0,0,1,0,6094.7,0.018078,0.0177378,-1.42097,5,0.00180469,11,-2.52048e-05,-2.84742,-4.18347,-0.0141031,0.784305,0.0177378,
2,0,0,1,0,6094.77,0.0165785,0.0162426,-1.42742,5,0.00169721,11,-2.31851e-05,-2.84545,-2.1942,-0.0268891,1.49938,0.0162426,
2,0,0,1,0,6094.85,0.015083,0.0147449,-1.43357,5,0.00158974,11,-2.11378e-05,-2.84358,-1.62923,-0.0362134,2.01991,0.01474488,
2,0,0,1,0,6094.92,0.013583,0.0131936,-1.43017,5,0.00148174,11,-1.88692e-05,-2.84461,8.29747,0.0071106,-0.396372,0.01319361,
2,0,0,1,0,6095,0.0120848,0.011739,-1.42993,5,0.00137382,11,-1.6786e-05,-2.84468,-3.16171,-0.0186608,1.04453,0.011739,
2,0,0,1,0,6095.07,0.0105866,0.0102253,-1.43479,5,0.00126596,11,-1.46711e-05,-2.84321,-1.34602,-0.043833,2.46248,0.0102253,
2,0,0,1,0,6095.15,0.00908846,0.00876995,-1.44063,5,0.00115767,11,-1.26343e-05,-2.84145,-1.21481,-0.0485671,2.72954,0.00876995,
2,0,0,1,0,6095.22,0.00759027,0.00725226,-1.44581,5,0.00104897,11,-1.04854e-05,-2.83989,-2.89927,-0.02035,1.14584,0.00725226,
2,0,0,1,0,6095.3,0.00609208,0.00576877,-1.44919,5,0.000939986,11,-8.36005e-06,-2.83887,-1.52764,-0.0386217,2.18124,0.00576877,
2,0,0,1,0,6095.37,0.00459389,0.00429832,-1.45415,5,0.000830912,11,-6.2504e-06,-2.83739,-0.996707,-0.0591949,3.3582,0.00429832,
2,0,0,1,0,6095.45,0.00309391,0.00279784,-1.46192,5,0.000721175,11,-4.09021e-06,-2.83508,-0.387963,-0.152076,8.68434,0.002797839,
2,0,0,1,0,6095.52,0.0015984,0.00122501,-1.48726,5,0.000609816,11,-1.82191e-06,-2.82761, , , ,0.00122501,
2,0,0,1,0,6095.59,0.000199195,-0.000170778,-1.47098,5,0.000505746,11,2.5121e-07,-2.83239, , , ,-0.000170778,