File: Figure_codes/Fig_3-5/rawdata_trumpetplot_data/before 10th/20221101_1-115_002_TrumpetPlot_ParaChange_16_CV_C01_1.csv
mode,ox/red,error,control changes,counter inc.,time/s,control/V,Ewe/V,<I>/mA,cycle number,(Q-Qo)/C,I Range,P/W,log(|I|),Tafel slope mV/dec,alpha_eff,dI/d(E-IR),E-IR/V,
2,1,0,1,0,2450.71,2.44065e-05,-0.00168052,58.7768,2,0.0000000E+000,10,-9.87758e-05,-1.23079, , , ,-0.00168052,
2,1,0,1,0,2450.71,0.00312067,0.00287074,57.7692,2,0.000182065,10,0.000165841,-1.2383, , , ,0.00287074,
2,1,0,1,0,2450.71,0.00711584,0.00678576,56.8781,2,0.000410961,10,0.000385961,-1.24506, , , ,0.006785762,
2,1,0,1,0,2450.72,0.011111,0.0107888,56.6564,2,0.000637924,10,0.000611255,-1.24675,-2.03973,-0.0289254,-64.6342,0.0107888,
2,1,0,1,0,2450.72,0.0151062,0.0147303,56.6103,2,0.000864393,10,0.000833888,-1.2471,14.2005,0.00415478,9.23464,0.0147303,
2,1,0,1,0,2450.73,0.0191014,0.0187079,56.7456,2,0.00109108,10,0.00106159,-1.24607,4.34514,0.0135784,30.151,0.0187079,
2,1,0,1,0,2450.73,0.0231465,0.0227915,57.0259,2,0.00131871,10,0.00129971,-1.24393,3.14856,0.0187387,41.6441,0.0227915,
2,1,0,1,0,2450.73,0.0271416,0.0267787,57.1386,2,0.00154706,10,0.00153009,-1.24307,3.47068,0.0169995,37.849,0.0267787,
2,1,0,1,0,2450.74,0.0311368,0.0307976,57.2794,2,0.00177595,10,0.00176407,-1.242,5.71572,0.0103224,23.0471,0.0307976,
2,1,0,1,0,2450.74,0.035132,0.0348112,57.3551,2,0.00200522,10,0.0019966,-1.24143,7.027,0.00839618,18.7721,0.0348112,
2,1,0,1,0,2450.75,0.0391272,0.0387856,57.3945,2,0.00223473,10,0.00222608,-1.24113,19.7742,0.00298368,6.67601,0.0387856,
2,1,0,1,0,2450.75,0.0431223,0.0427728,57.4388,2,0.0024644,10,0.00245682,-1.24079,108.378,0.000544389,1.21876,0.0427728,
2,1,0,1,0,2450.75,0.0471175,0.0467238,57.3857,2,0.00269406,10,0.00268128,-1.2412,23.9193,0.00246663,5.52932,0.04672385,
2,1,0,1,0,2450.76,0.0511127,0.0506686,57.3744,2,0.0029235,10,0.00290708,-1.24128,14.2806,0.00413147,9.27329,0.0506686,
2,1,0,1,0,2450.76,0.0551079,0.0547681,57.4829,2,0.00315324,10,0.00314823,-1.24046,5.49696,0.0107332,24.1193,0.0547681,
2,1,0,1,0,2450.77,0.059103,0.0587839,57.5873,2,0.0033834,10,0.0033852,-1.23967,4.33903,0.0135975,30.5778,0.0587839,
2,1,0,1,0,2450.77,0.0631481,0.062842,57.7745,2,0.00361406,10,0.00363067,-1.23826,4.28903,0.013756,30.9936,0.062842,
2,1,0,1,0,2450.77,0.0671433,0.0668387,57.8689,2,0.00384534,10,0.00386788,-1.23756,3.7427,0.015764,35.6043,0.0668387,
2,1,0,1,0,2450.78,0.0711385,0.0708534,57.9814,2,0.00407706,10,0.00410818,-1.23671,3.34358,0.0176457,40.0065,0.0708534,
2,1,0,1,0,2450.78,0.0751337,0.0748257,58.1584,2,0.00430933,10,0.00435174,-1.23539,2.41981,0.0243821,55.4862,0.0748257,
2,1,0,1,0,2450.79,0.0791288,0.0788171,58.4136,2,0.00454247,10,0.00460399,-1.23349,1.80295,0.0327241,74.807,0.0788171,
2,1,0,1,0,2450.79,0.083124,0.0828148,58.7553,2,0.00477682,10,0.00486581,-1.23095,1.43816,0.0410245,94.3164,0.0828148,
2,1,0,1,0,2450.79,0.0871192,0.0867712,59.1722,2,0.00501269,10,0.00513444,-1.22788,1.17496,0.0502143,116.284,0.08677116,
2,1,0,1,0,2450.8,0.0911143,0.0908039,59.6654,2,0.00525038,10,0.00541785,-1.22428,0.988814,0.0596674,139.397,0.0908039,
2,1,0,1,0,2450.8,0.0951095,0.0947857,60.2705,2,0.0054903,10,0.00571278,-1.2199,0.841055,0.07015,165.6,0.0947857,
2,1,0,1,0,2450.81,0.0991047,0.0987972,60.9832,2,0.00573286,10,0.00602497,-1.21479,0.714534,0.0825713,197.332,0.0987972,
2,1,0,1,0,2450.81,0.103114,0.10278,61.8233,2,0.00597852,10,0.0063542,-1.20885,0.641399,0.0919864,222.71,0.10278,
2,1,0,1,0,2450.81,0.107145,0.106856,62.8331,2,0.006228,10,0.00671411,-1.20181,0.586143,0.100658,247.276,0.106856,
2,1,0,1,0,2450.82,0.11114,0.110805,63.8382,2,0.0064814,10,0.00707361,-1.19492,0.540155,0.109228,272.728,0.110805,
2,1,0,1,0,2450.82,0.115135,0.114843,64.951,2,0.00673907,10,0.00745919,-1.18741,0.511147,0.115427,293.459,0.1148433,
2,1,0,1,0,2450.83,0.119131,0.118765,66.1827,2,0.00700143,10,0.00786017,-1.17926,0.481026,0.122654,317.613,0.118765,
2,1,0,1,0,2450.83,0.123126,0.1228,67.5118,2,0.00726892,10,0.00829041,-1.17062,0.45442,0.129836,342.79,0.1228,
2,1,0,1,0,2450.83,0.127121,0.126838,68.9303,2,0.00754194,10,0.00874295,-1.16159,0.436711,0.135101,364.082,0.126838,
2,1,0,1,0,2450.84,0.131116,0.130808,70.4235,2,0.00782078,10,0.00921194,-1.15228,0.419865,0.140521,386.938,0.130808,
2,1,0,1,0,2450.84,0.135111,0.134752,72.0035,2,0.00810579,10,0.00970265,-1.14265,0.404655,0.145803,410.565,0.134752,
2,1,0,1,0,2450.85,0.139106,0.138769,73.6911,2,0.00839734,10,0.0102261,-1.13259,0.388413,0.1519,437.928,0.138769,
2,1,0,1,0,2450.85,0.143102,0.142774,75.4734,2,0.0086958,10,0.0107757,-1.12221,0.378888,0.155719,459.617,0.1427744,
2,1,0,1,0,2450.85,0.147147,0.14681,77.4315,2,0.00900183,10,0.0113677,-1.11108,0.37102,0.159021,480.879,0.14681,
2,1,0,1,0,2450.86,0.151142,0.150791,79.3752,2,0.00931562,10,0.0119691,-1.10032,0.361976,0.162994,505.395,0.150791,
2,1,0,1,0,2450.86,0.155137,0.154814,81.4068,2,0.00963735,10,0.0126029,-1.08934,0.356993,0.165269,526.082,0.154814,
2,1,0,1,0,2450.87,0.159132,0.158783,83.5642,2,0.0099675,10,0.0132686,-1.07798,0.348723,0.169189,552.739,0.158783,
2,1,0,1,0,2450.87,0.163127,0.162795,85.8407,2,0.0103065,10,0.0139744,-1.06631,0.341153,0.172943,580.143,0.162795,
2,1,0,1,0,2450.87,0.167123,0.166762,88.2028,2,0.0106548,10,0.0147089,-1.05452,0.337781,0.174669,601.934,0.166762,
2,1,0,1,0,2450.88,0.171118,0.170779,90.6684,2,0.0110128,10,0.0154842,-1.04254,0.335176,0.176027,623.351,0.170779,
2,1,0,1,0,2450.88,0.175113,0.174816,93.2146,2,0.0113807,10,0.0162954,-1.03052,0.33408,0.176604,642.785,0.174816,
2,1,0,1,0,2450.89,0.179108,0.178802,95.8186,2,0.0117591,10,0.0171325,-1.01855,0.333486,0.176919,661.983,0.178802,
2,1,0,1,0,2450.89,0.183103,0.182796,98.5095,2,0.012148,10,0.0180072,-1.00652,0.337544,0.174792,671.869,0.182796,
2,1,0,1,0,2450.89,0.187146,0.186807,101.279,2,0.0125477,10,0.0189195,-0.994482,0.345682,0.170677,673.427,0.186807,
2,1,0,1,0,2450.9,0.191143,0.190815,103.964,2,0.0129586,10,0.0198379,-0.983117,0.360965,0.163451,661.613,0.190815,
2,1,0,1,0,2450.9,0.195139,0.19477,106.572,2,0.0133799,10,0.0207571,-0.972356,0.382294,0.154331,640.333,0.19477,
2,1,0,1,0,2450.91,0.199134,0.198814,109.107,2,0.0138116,10,0.0216919,-0.962148,0.410322,0.14379,610.329,0.198814,
2,1,0,1,0,2450.91,0.203129,0.202788,111.512,2,0.0142531,10,0.0226133,-0.952678,0.452439,0.130404,565.08,0.2027881,
2,1,0,1,0,2450.91,0.207124,0.206772,113.703,2,0.0147038,10,0.0235106,-0.944228,0.516209,0.114295,504.463,0.206772,
2,1,0,1,0,2450.92,0.211119,0.210777,115.617,2,0.0151627,10,0.0243695,-0.936977,0.6267,0.0941439,422.023,0.210777,
2,1,0,1,0,2450.92,0.215115,0.214811,117.177,2,0.0156286,10,0.0251709,-0.931158,0.833169,0.070814,321.304,0.214811,
2,1,0,1,0,2450.93,0.21911,0.218826,118.28,2,0.0160997,10,0.0258828,-0.927087,1.36226,0.0433104,198.093,0.218826,
2,1,0,1,0,2450.93,0.223105,0.222811,118.856,2,0.0165742,10,0.0264825,-0.924977,5.07677,0.0116216,53.3403,0.222811,
2,1,0,1,0,2450.93,0.227108,0.226789,118.789,2,0.0170497,10,0.0269401,-0.925223,-2.25983,-0.0261082,-119.539,0.226789,
2,1,0,1,0,2450.94,0.231145,0.230903,118.035,2,0.0175236,10,0.0272547,-0.927988,-0.853556,-0.0691226,-313.781,0.230903,
2,1,0,1,0,2450.94,0.23514,0.234869,116.363,2,0.0179925,10,0.0273299,-0.934187,-0.50776,-0.116197,-519.455,0.2348686,
2,1,0,1,0,2450.95,0.239136,0.23888,113.814,2,0.0184528,10,0.0271879,-0.943804,-0.349375,-0.168873,-738.246,0.23888,
2,1,0,1,0,2450.95,0.243131,0.242919,110.411,2,0.0189012,10,0.0268208,-0.956989,-0.266345,-0.221517,-939.039,0.242919,
2,1,0,1,0,2450.95,0.247126,0.24693,106.203,2,0.0193342,10,0.0262248,-0.973862,-0.212904,-0.27712,-1129.82,0.24693,
2,1,0,1,0,2450.96,0.251121,0.250984,101.23,2,0.0197488,10,0.0254071,-0.994691,-0.177021,-0.333295,-1296.28,0.2509836,
2,1,0,1,0,2450.96,0.255116,0.254961,95.6455,2,0.0201421,10,0.0243859,-1.01934,-0.15239,-0.387164,-1425.02,0.254961,
2,1,0,1,0,2450.97,0.259111,0.258954,89.6254,2,0.0205121,10,0.0232088,-1.04757,-0.134469,-0.438763,-1516.4,0.2589536,
2,1,0,1,0,2450.97,0.263107,0.262973,83.3419,2,0.0208575,10,0.0219166,-1.07914,-0.122969,-0.479797,-1546.79,0.262973,
2,1,0,1,0,2450.97,0.267102,0.26697,76.9878,2,0.0211775,10,0.0205535,-1.11358,-0.113654,-0.519119,-1550.46,0.26697,
2,1,0,1,0,2450.98,0.271147,0.271018,70.809,2,0.0214724,10,0.0191905,-1.14991,-0.107828,-0.547168,-1507.02,0.271018,
2,1,0,1,0,2450.98,0.275142,0.274981,64.7762,2,0.0217429,10,0.0178122,-1.18858,-0.104634,-0.563872,-1427.75,0.2749806,
2,1,0,1,0,2450.99,0.279137,0.279006,59.1793,2,0.0219901,10,0.0165114,-1.22783,-0.10329,-0.571208,-1328.61,0.279006,
2,1,0,1,0,2450.99,0.283132,0.282992,54.1128,2,0.0222161,10,0.0153135,-1.2667,-0.105936,-0.556941,-1189.59,0.282992,
2,1,0,1,0,2450.99,0.287128,0.286952,49.6395,2,0.022423,10,0.0142441,-1.30417,-0.11093,-0.531869,-1046.08,0.286952,
2,1,0,1,0,2451,0.291123,0.290949,45.7801,2,0.0226133,10,0.0133197,-1.33932,-0.120249,-0.490647,-894.465,0.290949,
2,1,0,1,0,2451,0.295118,0.294924,42.5281,2,0.0227894,10,0.0125425,-1.37132,-0.126674,-0.465761,-805.195,0.294924,
2,1,0,1,0,2451.01,0.298913,0.298748,40.0192,2,0.022946,10,0.0119557,-1.39773,-0.0614007,-0.960902,-1487.31,0.2987484,
2,1,0,1,0,2451.01,0.300012,0.299727,39.3524,2,0.0229897,10,0.011795,-1.40503,0.000363093,162.493,185082,0.299727,
2,1,0,1,0,2451.01,0.298714,0.298794,34.1123,2,0.0230354,10,0.0101926,-1.46709,0.0111638,5.28496,4034.39,0.298794,
2,1,0,1,0,2451.01,0.294718,0.294796,18.9764,2,0.0231389,10,0.00559418,-1.72179,0.00820501,7.19073,3088.42,0.294796,
2,1,0,1,0,2451.02,0.290723,0.290724,7.64751,2,0.0231902,10,0.00222332,-2.11648,0.024828,2.37635,2567.82,0.290724,
2,1,0,1,0,2451.02,0.286728,0.28666,-1.00542,2,0.023202,10,-0.000288214,-2.99765,0.0892215,0.661276,1944.92,0.2866599,
2,0,0,1,0,2451.02,0.282733,0.282561,-7.57019,2,0.0231837,10,-0.00213904,-2.12089,-0.049388,-1.19462,1478.01,0.282561,
2,0,0,1,0,2451.03,0.278738,0.278614,-12.4979,2,0.0231427,10,-0.00348208,-1.90316,-0.0125942,-4.68469,1124.28,0.278614,
2,0,0,1,0,2451.03,0.274742,0.274553,-16.2537,2,0.0230845,10,-0.0044625,-1.78905,-0.0356237,-1.6562,860.404,0.274553,
2,0,0,1,0,2451.04,0.270747,0.270551,-19.1161,2,0.0230133,10,-0.00517189,-1.7186,-0.0603076,-0.978318,658.644,0.270551,
2,0,0,1,0,2451.04,0.266702,0.266478,-21.4082,2,0.0229318,10,-0.00570483,-1.66942,-0.0913239,-0.646052,505.112,0.266478,
2,0,0,1,0,2451.04,0.262707,0.262549,-23.0784,2,0.0228425,10,-0.00605922,-1.63679,-0.130417,-0.452395,390.251,0.262549,
2,0,0,1,0,2451.05,0.258712,0.258508,-24.3582,2,0.0227474,10,-0.0062968,-1.61335,-0.181669,-0.324766,300.723,0.258508,
2,0,0,1,0,2451.05,0.254717,0.254482,-25.3872,2,0.0226478,10,-0.00646058,-1.59539,-0.241851,-0.243952,237.39,0.254482,
2,0,0,1,0,2451.06,0.250722,0.250523,-26.2062,2,0.0225445,10,-0.00656528,-1.5816,-0.305905,-0.19287,194.864,0.250523,
2,0,0,1,0,2451.06,0.246726,0.246507,-26.8868,2,0.0224382,10,-0.00662778,-1.57046,-0.379144,-0.155614,161.906,0.246507,
2,0,0,1,0,2451.06,0.242731,0.242482,-27.4811,2,0.0223293,10,-0.00666368,-1.56097,-0.454945,-0.129686,138.159,0.242482,
2,0,0,1,0,2451.07,0.238736,0.238508,-27.9735,2,0.0222183,10,-0.0066719,-1.55325,-0.51796,-0.113908,123.872,0.2385079,
2,0,0,1,0,2451.07,0.234741,0.23451,-28.4186,2,0.0221055,10,-0.00666445,-1.5464,-0.548478,-0.10757,119.333,0.23451,
2,0,0,1,0,2451.08,0.230746,0.230528,-28.8661,2,0.0219909,10,-0.00665445,-1.53961,-0.580718,-0.101598,114.514,0.230528,
2,0,0,1,0,2451.08,0.226701,0.226481,-29.3906,2,0.0218744,10,-0.00665641,-1.53179,-0.594139,-0.0993034,113.625,0.226481,
2,0,0,1,0,2451.08,0.222705,0.222494,-29.8073,2,0.0217559,10,-0.00663195,-1.52568,-0.606605,-0.0972627,112.987,0.222494,
2,0,0,1,0,2451.09,0.21871,0.218501,-30.2376,2,0.0216358,10,-0.00660696,-1.51945,-0.623779,-0.0945848,111.748,0.2185012,
2,0,0,1,0,2451.09,0.214715,0.214436,-30.6844,2,0.021514,10,-0.00657982,-1.51308,-0.586115,-0.100663,120.854,0.214436,
2,0,0,1,0,2451.1,0.21072,0.210531,-31.1729,2,0.0213902,10,-0.00656288,-1.50622,-0.550005,-0.107272,130.932,0.210531,
2,0,0,1,0,2451.1,0.206725,0.206512,-31.7388,2,0.0212644,10,-0.00655444,-1.49841,-0.505797,-0.116648,144.884,0.206512,
2,0,0,1,0,2451.1,0.202729,0.202475,-32.3359,2,0.0211361,10,-0.00654723,-1.49031,-0.471149,-0.125226,158.47,0.202475,
2,0,0,1,0,2451.11,0.198734,0.198483,-32.9957,2,0.0210054,10,-0.00654908,-1.48154,-0.438669,-0.134498,173.804,0.198483,
2,0,0,1,0,2451.11,0.194739,0.194512,-33.7116,2,0.020872,10,-0.00655729,-1.47222,-0.39612,-0.148945,196.967,0.194512,
2,0,0,1,0,2451.12,0.190744,0.190488,-34.5238,2,0.0207354,10,-0.00657638,-1.46188,-0.360084,-0.16385,222.163,0.190488,
2,0,0,1,0,2451.12,0.186735,0.186501,-35.4823,2,0.0205954,10,-0.00661749,-1.44999,-0.331119,-0.178183,247.986,0.186501,
2,0,0,1,0,2451.12,0.182704,0.182486,-36.5497,2,0.0204511,10,-0.00666979,-1.43712,-0.30646,-0.192521,275.62,0.182486,
2,0,0,1,0,2451.13,0.178709,0.17849,-37.6847,2,0.0203025,10,-0.00672634,-1.42383,-0.287122,-0.205488,303.544,0.17849,
2,0,0,1,0,2451.13,0.174713,0.174498,-38.9312,2,0.0201493,10,-0.0067934,-1.4097,-0.268701,-0.219575,335.666,0.174498,
2,0,0,1,0,2451.14,0.170718,0.170558,-40.3217,2,0.0199906,10,-0.0068772,-1.39446,-0.2509,-0.235153,372.475,0.170558,
2,0,0,1,0,2451.14,0.166723,0.166504,-41.9141,2,0.019826,10,-0.00697887,-1.37764,-0.235168,-0.250884,412.646,0.166504,
2,0,0,1,0,2451.14,0.162728,0.162518,-43.6338,2,0.0196548,10,-0.00709129,-1.36018,-0.22203,-0.26573,454.922,0.1625181,
2,0,0,1,0,2451.15,0.158733,0.158507,-45.5298,2,0.0194764,10,-0.00721677,-1.3417,-0.211651,-0.278761,498.019,0.158507,
2,0,0,1,0,2451.15,0.154737,0.15453,-47.6132,2,0.0192899,10,-0.00735768,-1.32227,-0.201966,-0.292128,545.555,0.15453,
2,0,0,1,0,2451.16,0.150742,0.150527,-49.871,2,0.0190948,10,-0.00750693,-1.30215,-0.193316,-0.3052,597.23,0.150527,
2,0,0,1,0,2451.16,0.146747,0.146571,-52.334,2,0.0188902,10,-0.00767064,-1.28122,-0.189387,-0.311532,638.924,0.146571,
2,0,0,1,0,2451.16,0.142702,0.14256,-55.0534,2,0.0186752,10,-0.00784843,-1.25922,-0.185708,-0.317704,683.901,0.1425602,
2,0,0,1,0,2451.17,0.138707,0.138556,-57.8194,2,0.0184492,10,-0.00801123,-1.23793,-0.184615,-0.319585,722.587,0.138556,
2,0,0,1,0,2451.17,0.134712,0.134538,-60.8058,2,0.0182117,10,-0.0081807,-1.21606,-0.185202,-0.318571,757.305,0.134538,
2,0,0,1,0,2451.18,0.130717,0.130534,-63.9218,2,0.017962,10,-0.00834398,-1.19435,-0.185811,-0.317527,792.453,0.130534,
2,0,0,1,0,2451.18,0.126721,0.126559,-67.1715,2,0.0176995,10,-0.00850113,-1.17282,-0.1897,-0.311018,814.426,0.126559,
2,0,0,1,0,2451.18,0.122726,0.12256,-70.4957,2,0.0174238,10,-0.00863994,-1.15184,-0.195737,-0.301425,826.672,0.12256,
2,0,0,1,0,2451.19,0.118731,0.118574,-73.8076,2,0.0171348,10,-0.00875165,-1.1319,-0.201971,-0.292122,839.513,0.118574,
2,0,0,1,0,2451.19,0.114736,0.114675,-77.0324,2,0.0168329,10,-0.00883367,-1.11333,-0.209504,-0.281618,846.485,0.114675,
2,0,0,1,0,2451.2,0.110741,0.110675,-80.5062,2,0.0165174,10,-0.00891001,-1.09417,-0.218059,-0.270569,848.901,0.110675,
2,0,0,1,0,2451.2,0.106745,0.106687,-83.9321,2,0.0161881,10,-0.00895444,-1.07607,-0.227857,-0.258935,845.009,0.106687,
2,0,0,1,0,2451.2,0.102703,0.102612,-87.358,2,0.0158453,10,-0.00896394,-1.0587,-0.243386,-0.242414,822.511,0.102612,
2,0,0,1,0,2451.21,0.0987052,0.098652,-90.5718,2,0.0154891,10,-0.00893508,-1.04301,-0.259105,-0.227707,801.823,0.098652,
2,0,0,1,0,2451.21,0.09471,0.0946235,-93.7086,2,0.0151202,10,-0.00886703,-1.02822,-0.279134,-0.211368,770.587,0.0946235,
2,0,0,1,0,2451.22,0.0907148,0.0906014,-96.8297,2,0.0147388,10,-0.0087729,-1.01399,-0.301854,-0.195459,735.118,0.0906014,
2,0,0,1,0,2451.22,0.0867197,0.0865347,-99.7466,2,0.0143452,10,-0.00863154,-1.0011,-0.330732,-0.178392,690.375,0.0865347,
2,0,0,1,0,2451.22,0.0827245,0.0825497,-102.409,2,0.0139406,10,-0.00845382,-0.989663,-0.372449,-0.158411,629.375,0.0825497,
2,0,0,1,0,2451.23,0.0787293,0.0785244,-104.823,2,0.0135258,10,-0.00823116,-0.979543,-0.425368,-0.138703,563.981,0.0785244,
2,0,0,1,0,2451.23,0.0747341,0.0745309,-106.944,2,0.013102,10,-0.00797063,-0.970843,-0.50125,-0.117706,488.159,0.0745309,
2,0,0,1,0,2451.24,0.070739,0.0705575,-108.757,2,0.0126703,10,-0.00767366,-0.963541,-0.611019,-0.09656,407.162,0.07055755,
2,0,0,1,0,2451.24,0.0667438,0.066545,-110.222,2,0.0122321,10,-0.0073347,-0.957733,-0.788501,-0.0748255,319.76,0.066545,
2,0,0,1,0,2451.24,0.0627403,0.0625356,-111.333,2,0.0117888,10,-0.00696227,-0.953376,-1.14919,-0.0513407,221.462,0.0625356,
2,0,0,1,0,2451.25,0.0587035,0.0584222,-112.095,2,0.0113416,10,-0.00654884,-0.950414,-2.15097,-0.0274295,119.012,0.0584222,
2,0,0,1,0,2451.25,0.0547083,0.0544765,-112.319,2,0.0108927,10,-0.00611873,-0.949548,-19.661,-0.00300086,13.051,0.0544765,
2,0,0,1,0,2451.26,0.0507132,0.0504618,-112.136,2,0.0104437,10,-0.00565857,-0.950256,2.65014,0.0222629,-96.7225,0.0504618,
2,0,0,1,0,2451.26,0.046718,0.0464556,-111.543,2,0.00999627,10,-0.00518179,-0.952558,1.3277,0.0444378,-192.109,0.0464556,
2,0,0,1,0,2451.26,0.0427228,0.042478,-110.553,2,0.00955205,10,-0.00469606,-0.95643,0.895217,0.0659058,-282.565,0.042478,
2,0,0,1,0,2451.27,0.0387276,0.0384527,-109.24,2,0.00911251,10,-0.00420059,-0.961617,0.691389,0.0853354,-361.755,0.0384527,
2,0,0,1,0,2451.27,0.0347325,0.0344496,-107.611,2,0.00867891,10,-0.00370717,-0.968142,0.581148,0.101523,-424.399,0.0344496,
2,0,0,1,0,2451.28,0.0307373,0.030454,-105.754,2,0.00825229,10,-0.00322064,-0.975702,0.503449,0.117192,-481.825,0.030454,
2,0,0,1,0,2451.28,0.0267421,0.0264415,-103.747,2,0.00783345,10,-0.00274322,-0.984025,0.463866,0.127192,-513.47,0.0264415,
2,0,0,1,0,2451.28,0.022747,0.0224925,-101.55,2,0.00742303,10,-0.00228412,-0.993318,0.427989,0.137854,-545.109,0.0224925,
2,0,0,1,0,2451.29,0.0187018,0.0184184,-99.3797,2,0.00702134,10,-0.00183042,-1.0027,0.398523,0.148047,-572.555,0.01841842,
2,0,0,1,0,2451.29,0.0147067,0.0144196,-97.0138,2,0.0066288,10,-0.0013989,-1.01317,0.380013,0.155258,-586.325,0.0144196,
2,0,0,1,0,2451.3,0.0107115,0.010441,-94.5857,2,0.00624581,10,-0.000987568,-1.02417,0.356987,0.165272,-609.041,0.010441,
2,0,0,1,0,2451.3,0.00671632,0.00643159,-92.1335,2,0.00587261,10,-0.000592565,-1.03558,0.344,0.171511,-615.798,0.00643159,
2,0,0,1,0,2451.3,0.00272115,0.00242007,-89.6361,2,0.00550934,10,-0.000216925,-1.04752,0.331561,0.177946,-621.55,0.00242007,
2,0,0,1,0,2451.31,-0.00127403,-0.00158297,-87.1594,2,0.00515588,10,0.00013797,-1.05969,0.318985,0.184961,-628.012,-0.00158297,
2,0,0,1,0,2451.31,-0.0052692,-0.00562418,-84.6004,2,0.00481263,10,0.000475808,-1.07263,0.309883,0.190395,-628.023,-0.00562418,
2,0,0,1,0,2451.32,-0.00926438,-0.00960495,-82.0624,2,0.00447957,10,0.000788205,-1.08586,0.303384,0.194473,-622.922,-0.00960495,
2,0,0,1,0,2451.32,-0.0132596,-0.0135581,-79.6014,2,0.00415649,10,0.00107925,-1.09908,0.306102,0.192746,-599.492,-0.0135581,
2,0,0,1,0,2451.32,-0.0172547,-0.0175834,-77.1924,2,0.00384318,10,0.00135731,-1.11243,0.310358,0.190103,-574.092,-0.0175834,
2,0,0,1,0,2451.33,-0.0212915,-0.021665,-74.9841,2,0.00353915,10,0.00162453,-1.12503,0.321931,0.183269,-537.847,-0.021665,
2,0,0,1,0,2451.33,-0.025295,-0.0256012,-72.8791,2,0.00324367,10,0.00186579,-1.1374,0.340827,0.173108,-494.276,-0.0256012,
2,0,0,1,0,2451.34,-0.0292902,-0.0296254,-70.9597,2,0.00295626,10,0.00210221,-1.14899,0.365833,0.161276,-449.086,-0.0296254,
2,0,0,1,0,2451.34,-0.0332854,-0.0336009,-69.2753,2,0.002676,10,0.00232771,-1.15942,0.408766,0.144337,-392.584,-0.0336009,
2,0,0,1,0,2451.34,-0.0372805,-0.0375817,-67.8361,2,0.002402,10,0.00254939,-1.16854,0.467755,0.126134,-335.902,-0.03758166,
2,0,0,1,0,2451.35,-0.0412757,-0.04159,-66.6021,2,0.00213329,10,0.00276998,-1.17651,0.544878,0.108281,-283.122,-0.04159,
2,0,0,1,0,2451.35,-0.0452709,-0.0456302,-65.5836,2,0.00186908,10,0.00299259,-1.1832,0.658559,0.0895896,-230.665,-0.0456302,
2,0,0,1,0,2451.36,-0.0492661,-0.0495144,-64.7698,2,0.00160852,10,0.00320704,-1.18863,0.816609,0.07225,-183.642,-0.04951442,
2,0,0,1,0,2451.36,-0.0532612,-0.0535938,-64.1427,2,0.00135077,10,0.00343765,-1.19285,1.04969,0.0562072,-141.381,-0.0535938,
2,0,0,1,0,2451.36,-0.0572564,-0.0575205,-63.6766,2,0.00109519,10,0.00366271,-1.19602,1.52118,0.0387856,-96.8609,-0.05752049,
2,0,0,1,0,2451.37,-0.0612544,-0.0615469,-63.3333,2,0.000841264,10,0.00389797,-1.19837,2.27062,0.0259841,-64.521,-0.0615469,
2,0,0,1,0,2451.37,-0.0652967,-0.0655446,-63.2171,2,0.000588064,10,0.00414354,-1.19917,4.12618,0.0142989,-35.3756,-0.0655446,
2,0,0,1,0,2451.38,-0.0692919,-0.0695858,-63.1109,2,0.000335455,10,0.00439162,-1.1999,16.5454,0.00356595,-8.80411,-0.0695858,
2,0,0,1,0,2451.38,-0.0732871,-0.073574,-63.1087,2,8.30424e-05,10,0.00464316,-1.19991,-21.2673,-0.00277422,6.85038,-0.073574,
2,0,0,1,0,2451.38,-0.0772822,-0.0776205,-63.1918,2,-0.000169553,10,0.00490498,-1.19934,-5.64612,-0.0104497,25.8216,-0.0776205,
2,0,0,1,0,2451.39,-0.0812774,-0.0815239,-63.3266,2,-0.000422589,10,0.00516263,-1.19841,-3.40118,-0.0173469,42.9568,-0.0815239,
2,0,0,1,0,2451.39,-0.0852726,-0.0855375,-63.5228,2,-0.000676312,10,0.00543358,-1.19707,-2.49133,-0.0236821,58.8357,-0.0855375,
2,0,0,1,0,2451.4,-0.0892678,-0.0895861,-63.7965,2,-0.000930959,10,0.00571529,-1.1952,-2.03702,-0.0289639,72.2328,-0.0895861,
2,0,0,1,0,2451.4,-0.0932629,-0.0935256,-64.1276,2,-0.0011868,10,0.00599757,-1.19296,-1.74046,-0.0338991,84.9348,-0.0935256,
2,0,0,1,0,2451.4,-0.0972581,-0.0974968,-64.4804,2,-0.00144405,10,0.00628663,-1.19057,-1.48098,-0.0398384,100.43,-0.0974968,
2,0,0,1,0,2451.41,-0.101253,-0.101538,-64.8818,2,-0.0017028,10,0.00658796,-1.18788,-1.39936,-0.042162,106.925,-0.101538,
2,0,0,1,0,2451.41,-0.105298,-0.105546,-65.3994,2,-0.00196336,10,0.00690267,-1.18443,-1.29964,-0.0453971,115.879,-0.105546,
2,0,0,1,0,2451.42,-0.109294,-0.109586,-65.8449,2,-0.00222588,10,0.00721571,-1.18148,-1.23718,-0.0476892,122.574,-0.109586,
2,0,0,1,0,2451.42,-0.113289,-0.113532,-66.3385,2,-0.00249027,10,0.00753156,-1.17823,-1.23238,-0.0478749,124.04,-0.113532,
2,0,0,1,0,2451.42,-0.117284,-0.117566,-66.8464,2,-0.00275669,10,0.00785886,-1.17492,-1.17755,-0.0501042,130.782,-0.117566,
2,0,0,1,0,2451.43,-0.121279,-0.121565,-67.3863,2,-0.00302522,10,0.00819181,-1.17143,-1.14631,-0.0514694,135.42,-0.121565,
2,0,0,1,0,2451.43,-0.125274,-0.125528,-67.9297,2,-0.00329588,10,0.00852705,-1.16794,-1.09061,-0.054098,143.539,-0.125528,
2,0,0,1,0,2451.44,-0.129269,-0.129548,-68.5073,2,-0.00356882,10,0.00887496,-1.16426,-1.06225,-0.0555427,148.631,-0.129548,
2,0,0,1,0,2451.44,-0.133265,-0.133547,-69.1403,2,-0.00384417,10,0.00923351,-1.16027,-1.02327,-0.0576581,155.641,-0.133547,
2,0,0,1,0,2451.44,-0.13726,-0.137555,-69.7629,2,-0.00412204,10,0.00959622,-1.15638,-0.973481,-0.0606072,165.143,-0.137555,
2,0,0,1,0,2451.45,-0.141255,-0.141527,-70.4199,2,-0.00440249,10,0.00996631,-1.1523,-0.961097,-0.0613882,168.868,-0.141527,
2,0,0,1,0,2451.45,-0.145286,-0.145532,-71.1471,2,-0.0046856,10,0.0103542,-1.14784,-0.936507,-0.063,174.947,-0.145532,
2,0,0,1,0,2451.46,-0.149295,-0.14958,-71.8477,2,-0.00497172,10,0.010747,-1.14359,-0.93239,-0.0632783,177.393,-0.14958,
2,0,0,1,0,2451.46,-0.15329,-0.153569,-72.5646,2,-0.00526059,10,0.0111437,-1.13928,-0.940281,-0.0627472,177.697,-0.153569,
2,0,0,1,0,2451.46,-0.157286,-0.157553,-73.2628,2,-0.00555232,10,0.0115428,-1.13512,-0.926881,-0.0636543,182.069,-0.157553,
2,0,0,1,0,2451.47,-0.161281,-0.161587,-73.9999,2,-0.00584694,10,0.0119574,-1.13077,-0.923749,-0.0638702,184.517,-0.161587,
2,0,0,1,0,2451.47,-0.165276,-0.165528,-74.7514,2,-0.00614449,10,0.0123735,-1.12638,-0.898552,-0.0656612,191.628,-0.165528,
2,0,0,1,0,2451.48,-0.169271,-0.169496,-75.5034,2,-0.00644508,10,0.0127976,-1.12203,-0.879231,-0.0671041,197.882,-0.169496,
2,0,0,1,0,2451.48,-0.173266,-0.173499,-76.3186,2,-0.00674881,10,0.0132412,-1.11737,-0.865832,-0.0681426,203.076,-0.173499,
2,0,0,1,0,2451.48,-0.177261,-0.177466,-77.1422,2,-0.0070558,10,0.0136901,-1.11271,-0.838931,-0.0703276,211.847,-0.1774663,
2,0,0,1,0,2451.49,-0.181257,-0.181503,-77.9956,2,-0.00736618,10,0.0141564,-1.10793,-0.801103,-0.0736484,224.483,-0.181503,
2,0,0,1,0,2451.49,-0.185252,-0.18549,-78.8918,2,-0.00768003,10,0.0146337,-1.10297,-0.78113,-0.0755316,232.871,-0.1854904,
2,0,0,1,0,2451.5,-0.189297,-0.189503,-79.9111,2,-0.00799781,10,0.0151434,-1.09739,-0.753231,-0.0783293,244.379,-0.189503,
2,0,0,1,0,2451.5,-0.193292,-0.193543,-80.886,2,-0.0083195,10,0.0156549,-1.09213,-0.729147,-0.0809165,255.014,-0.193543,
2,0,0,1,0,2451.5,-0.197287,-0.197567,-81.9213,2,-0.00864521,10,0.016185,-1.0866,-0.839124,-0.0703114,222.601,-0.197567,
2,0,0,1,0,2451.51,-0.199984,-0.200208,-82.6449,2,-0.00886732,10,0.0165461,-1.08278,0.0619788,0.951939,-2808.77,-0.200208,
2,0,0,1,1,2451.51,-0.199984,-0.200437,-82.345,2,-0.00891678,10,0.016505,-1.08436,-0.0291291,-2.02547,5478.86,-0.2004368,
2,0,0,1,1,2451.51,-0.196688,-0.197221,-70.5568,2,-0.00914996,10,0.0139153,-1.15146,-0.0449388,-1.3129,3236.49,-0.197221,
2,0,0,1,1,2451.51,-0.192693,-0.193213,-58.0662,2,-0.0094055,10,0.0112192,-1.23608,-0.0441134,-1.33746,2959.48,-0.193213,
2,0,0,1,1,2451.52,-0.188698,-0.1892,-47.0175,2,-0.00961422,10,0.0088957,-1.32774,-0.0402971,-1.46413,2632.87,-0.1891997,
2,0,0,1,1,2451.52,-0.184653,-0.185124,-37.0257,2,-0.00978107,10,0.00685432,-1.4315,-0.0346278,-1.70383,2366.83,-0.185124,
2,0,0,1,1,2451.53,-0.180657,-0.181074,-28.0443,2,-0.00991006,10,0.00507808,-1.55216,-0.0277352,-2.12726,2153.22,-0.1810738,
2,0,0,1,1,2451.53,-0.176662,-0.177061,-19.8369,2,-0.0100048,10,0.00351235,-1.70253,-0.0192815,-3.05993,1971.72,-0.177061,
2,0,0,1,1,2451.53,-0.172667,-0.173102,-12.3549,2,-0.0100683,10,0.00213866,-1.90816,-0.0103554,-5.69752,1814.7,-0.173102,
2,0,0,1,1,2451.54,-0.168672,-0.169124,-5.47927,2,-0.0101031,10,0.000926677,-2.26128,-0.0334438,-1.76415,1667.55,-0.1691241,
2,0,0,1,1,2451.54,-0.164677,-0.16517,0.816633,2,-0.0101116,10,-0.000134883,-3.08797,-1.71626,-0.0343772,1535.53,-0.16517,
2,1,0,1,1,2451.55,-0.160682,-0.16118,6.64657,2,-0.010096,10,-0.00107129,-2.1774,0.0322558,1.82913,1416.8,-0.16118,
2,1,0,1,1,2451.55,-0.156686,-0.15718,12.0938,2,-0.0100578,10,-0.0019009,-1.91744,0.0111971,5.26921,1310.18,-0.15718,
2,1,0,1,1,2451.55,-0.152691,-0.153226,17.0445,2,-0.00999893,10,-0.00261167,-1.76842,0.0268714,2.19564,1219.73,-0.153226,
2,1,0,1,1,2451.56,-0.148696,-0.149216,21.7191,2,-0.00992089,10,-0.00324083,-1.66316,0.0403365,1.4627,1129.72,-0.149216,
2,1,0,1,1,2451.56,-0.14467,-0.1452,26.137,2,-0.00982471,10,-0.00379509,-1.58275,0.0538975,1.09467,1048.79,-0.1452,
2,1,0,1,1,2451.57,-0.140656,-0.14114,30.2142,2,-0.00971144,10,-0.00426443,-1.51979,0.0682307,0.864713,973.525,-0.14114,
2,1,0,1,1,2451.57,-0.136661,-0.137071,33.988,2,-0.00958259,10,-0.00465877,-1.46867,0.0848293,0.695514,890.254,-0.137071,
2,1,0,1,1,2451.57,-0.132665,-0.133121,37.3878,2,-0.00943944,10,-0.00497711,-1.42727,0.102466,0.575803,817.861,-0.133121,
2,1,0,1,1,2451.58,-0.12867,-0.129062,40.5042,2,-0.00928326,10,-0.00522755,-1.3925,0.121727,0.484692,750.762,-0.129062,
2,1,0,1,1,2451.58,-0.124675,-0.125059,43.3663,2,-0.00911519,10,-0.00542334,-1.36285,0.142782,0.413216,688.11,-0.125059,
2,1,0,1,1,2451.59,-0.12068,-0.121078,45.995,2,-0.00893613,10,-0.00556898,-1.33729,0.165461,0.35658,631.594,-0.1210781,
2,1,0,1,1,2451.59,-0.116685,-0.117079,48.4264,2,-0.00874699,10,-0.00566973,-1.31492,0.189748,0.310938,580.672,-0.117079,
2,1,0,1,1,2451.59,-0.112689,-0.113007,50.6441,2,-0.0085486,10,-0.00572316,-1.29547,0.217954,0.270699,529.327,-0.113007,
2,1,0,1,1,2451.6,-0.108694,-0.109097,52.6351,2,-0.00834177,10,-0.00574231,-1.27872,0.248859,0.237083,483.077,-0.109097,
2,1,0,1,1,2451.6,-0.104699,-0.105103,54.451,2,-0.00812737,10,-0.00572296,-1.26399,0.282654,0.208736,440.64,-0.105103,
2,1,0,1,1,2451.61,-0.100654,-0.101017,56.1855,2,-0.00790582,10,-0.00567571,-1.25038,0.323118,0.182596,397.438,-0.101017,
2,1,0,1,1,2451.61,-0.0966588,-0.0970164,57.6904,2,-0.00767784,10,-0.00559691,-1.2389,0.368055,0.160302,358.383,-0.0970164,
2,1,0,1,1,2451.61,-0.0926637,-0.0930049,59.0306,2,-0.00744423,10,-0.00549013,-1.22892,0.423019,0.139474,319.538,-0.09300489,
2,1,0,1,1,2451.62,-0.0886685,-0.0890146,60.2168,2,-0.00720558,10,-0.00536017,-1.22028,0.485864,0.121433,284.045,-0.0890146,
2,1,0,1,1,2451.62,-0.0846733,-0.0850232,61.2963,2,-0.00696241,10,-0.00521161,-1.21257,0.55243,0.106801,254.424,-0.0850232,
2,1,0,1,1,2451.63,-0.0806781,-0.0810032,62.2389,2,-0.00671525,10,-0.00504155,-1.20594,0.625483,0.0943272,228.328,-0.0810032,
2,1,0,1,1,2451.63,-0.076683,-0.0770267,63.0958,2,-0.00646444,10,-0.00486006,-1.2,0.716729,0.0823184,202.068,-0.0770267,
2,1,0,1,1,2451.63,-0.0726878,-0.0730289,63.8668,2,-0.00621041,10,-0.00466412,-1.19472,0.820401,0.071916,178.662,-0.0730289,
2,1,0,1,1,2451.64,-0.0686926,-0.0690333,64.5273,2,-0.00595353,10,-0.00445453,-1.19026,0.90994,0.0648394,162.948,-0.0690333,
2,1,0,1,1,2451.64,-0.0646974,-0.0650144,65.0955,2,-0.0056942,10,-0.00423214,-1.18645,1.05378,0.0559888,142.032,-0.0650144,
2,1,0,1,1,2451.65,-0.0606523,-0.0609827,65.7101,2,-0.00543259,10,-0.00400718,-1.18237,1.20513,0.0489574,125.197,-0.0609827,
2,1,0,1,1,2451.65,-0.0566571,-0.0569574,66.1495,2,-0.00516881,10,-0.0037677,-1.17947,1.39269,0.0423641,109.061,-0.0569574,
2,1,0,1,1,2451.65,-0.052662,-0.0530032,66.5342,2,-0.0049034,10,-0.00352653,-1.17695,1.77233,0.0332896,86.2624,-0.0530032,
2,1,0,1,1,2451.66,-0.0486668,-0.0490107,66.8408,2,-0.00463663,10,-0.00327592,-1.17496,2.11024,0.0279589,72.809,-0.0490107,
2,1,0,1,1,2451.66,-0.0446716,-0.0449992,67.0889,2,-0.00436872,10,-0.00301895,-1.17335,2.62109,0.0225097,58.8616,-0.0449992,
2,1,0,1,1,2451.67,-0.0406764,-0.0410503,67.3076,2,-0.00409989,10,-0.002763,-1.17194,3.2906,0.0179299,47.0335,-0.0410503,
2,1,0,1,1,2451.67,-0.0366813,-0.0370165,67.4752,2,-0.00383032,10,-0.00249769,-1.17086,4.23748,0.0139234,36.6137,-0.0370165,
2,1,0,1,1,2451.67,-0.0326861,-0.0330664,67.5908,2,-0.00356013,10,-0.00223499,-1.17011,6.58142,0.00896463,23.6144,-0.0330664,
2,1,0,1,1,2451.68,-0.0286909,-0.0290358,67.6734,2,-0.00328958,10,-0.00196495,-1.16958,9.77793,0.006034,15.9196,-0.0290358,
2,1,0,1,1,2451.68,-0.0246957,-0.0250487,67.6855,2,-0.00301884,10,-0.00169544,-1.1695,16.6548,0.00354251,9.35504,-0.0250487,
2,1,0,1,1,2451.69,-0.0206756,-0.0210107,67.73,2,-0.00274803,10,-0.00142305,-1.16922,-68.2202,-0.000864847,-2.28351,-0.0210107,
2,1,0,1,1,2451.69,-0.0166554,-0.0169758,67.7413,2,-0.00247702,10,-0.00114996,-1.16915,-15.2832,-0.00386044,-10.1853,-0.0169758,
2,1,0,1,1,2451.69,-0.0126603,-0.0130035,67.6368,2,-0.00220625,10,-0.000879518,-1.16982,-6.33434,-0.00931431,-24.549,-0.01300355,
2,1,0,1,1,2451.7,-0.0086651,-0.00901748,67.5222,2,-0.00193594,10,-0.00060888,-1.17055,-4.11321,-0.014344,-37.7557,-0.00901748,
2,1,0,1,1,2451.7,-0.00466992,-0.00501338,67.3373,2,-0.00166622,10,-0.000337588,-1.17174, , , ,-0.00501338,
2,1,0,1,1,2451.71,-0.000974387,-0.0012956,67.1493,2,-0.0014174,10,-8.69983e-05,-1.17296, , , ,-0.001295596,
2,1,0,1,1,2451.71,-0.000175352,-0.000535284,67.0986,2,-0.00136369,10,-3.59168e-05,-1.17329, , , ,-0.000535284,