File: Figure_codes/Fig_3-5/rawdata_trumpetplot_data/before 10th/20221101_1-115_002_TrumpetPlot_ParaChange_16_CV_C01_2.csv
mode,ox/red,error,control changes,counter inc.,time/s,control/V,Ewe/V,<I>/mA,cycle number,(Q-Qo)/C,I Range,P/W,log(|I|),Tafel slope mV/dec,alpha_eff,dI/d(E-IR),E-IR/V,
2,1,0,1,0,3682.34,2.44065e-05,-0.00118425,60.419,3,0.0000000E+000,10,-7.15514e-05,-1.21883, , , ,-0.00118425,
2,1,0,1,0,3682.34,0.00312067,0.0028262,57.2922,3,0.000181706,10,0.000161919,-1.2419, , , ,0.0028262,
2,1,0,1,0,3682.34,0.00711584,0.00679849,55.8958,3,0.00040755,10,0.000380007,-1.25262, , , ,0.00679849,
2,1,0,1,0,3682.35,0.011111,0.0107697,55.3873,3,0.000629969,10,0.000596505,-1.25659,-0.935358,-0.0630774,-138.314,0.0107697,
2,1,0,1,0,3682.35,0.0151062,0.0147091,55.1471,3,0.000850951,10,0.000811165,-1.25848,-2.96347,-0.0199091,-43.1611,0.0147091,
2,1,0,1,0,3682.35,0.0191014,0.0187185,55.0941,3,0.00107141,10,0.00103128,-1.2589,-11.3715,-0.00518841,-11.1971,0.0187185,
2,1,0,1,0,3682.36,0.0231465,0.0228265,55.204,3,0.00129204,10,0.00126012,-1.25803,25.4126,0.00232169,5.00042,0.0228265,
2,1,0,1,0,3682.36,0.0271416,0.0268009,55.2078,3,0.00151287,10,0.00147962,-1.258,12.4416,0.00474215,10.2115,0.0268009,
2,1,0,1,0,3682.37,0.0311368,0.0308199,55.2277,3,0.00173376,10,0.00170211,-1.25784,25.7195,0.00229398,4.94577,0.0308199,
2,1,0,1,0,3682.37,0.035132,0.0347741,55.258,3,0.00195472,10,0.00192155,-1.2576,17.4031,0.0033902,7.31222,0.0347741,
2,1,0,1,0,3682.37,0.0391272,0.0387941,55.283,3,0.00217583,10,0.00214465,-1.25741,20.0372,0.00294452,6.35233,0.03879413,
2,1,0,1,0,3682.38,0.0431223,0.0428056,55.3248,3,0.00239706,10,0.00236822,-1.25708,26.2798,0.00224507,4.84499,0.0428056,
2,1,0,1,0,3682.38,0.0471175,0.046796,55.3292,3,0.00261837,10,0.00258918,-1.25705,37.0481,0.00159252,3.43761,0.046796,
2,1,0,1,0,3682.39,0.0511127,0.0507534,55.3354,3,0.00283972,10,0.00280846,-1.257,-128.861,-0.000457859,-0.988449,0.0507534,
2,1,0,1,0,3682.39,0.0551079,0.0547363,55.3378,3,0.00306108,10,0.00302898,-1.25698,9.33009,0.00632363,13.6817,0.0547363,
2,1,0,1,0,3682.39,0.059103,0.0586396,55.3092,3,0.00328235,10,0.00324331,-1.2572,5.68646,0.0103755,22.4796,0.0586396,
2,1,0,1,0,3682.4,0.0631481,0.0627593,55.5476,3,0.003504,10,0.00348613,-1.25533,3.89937,0.0151307,32.8329,0.0627593,
2,1,0,1,0,3682.4,0.0671433,0.0668069,55.6963,3,0.00372648,10,0.0037209,-1.25417,2.75601,0.0214077,46.5231,0.06680689,
2,1,0,1,0,3682.41,0.0711385,0.0708407,55.8665,3,0.00394963,10,0.00395762,-1.25285,2.77197,0.0212845,46.4508,0.0708407,
2,1,0,1,0,3682.41,0.0751337,0.0748098,56.0615,3,0.0041735,10,0.00419395,-1.25134,2.25872,0.026121,57.2434,0.0748098,
2,1,0,1,0,3682.41,0.0791288,0.0788245,56.2938,3,0.00439821,10,0.00443733,-1.24954,1.80891,0.0326162,71.8404,0.0788245,
2,1,0,1,0,3682.42,0.083124,0.0827999,56.6118,3,0.00462404,10,0.00468746,-1.24709,1.46897,0.0401642,88.9845,0.0827999,
2,1,0,1,0,3682.42,0.0871192,0.0868019,57.0132,3,0.00485132,10,0.00494885,-1.24402,1.19448,0.0493939,110.202,0.0868019,
2,1,0,1,0,3682.43,0.0911143,0.0907784,57.4824,3,0.00508035,10,0.00521817,-1.24046,1.02137,0.0577656,129.955,0.0907784,
2,1,0,1,0,3682.43,0.0951095,0.0947677,58.0508,3,0.00531146,10,0.00550134,-1.23619,0.880766,0.0669872,152.202,0.0947677,
2,1,0,1,0,3682.43,0.0991047,0.0987951,58.6905,3,0.00554498,10,0.00579833,-1.23143,0.760634,0.0775669,178.3,0.0987951,
2,1,0,1,0,3682.44,0.103114,0.102759,59.4419,3,0.00578127,10,0.00610818,-1.22591,0.686263,0.0859729,200.107,0.1027589,
2,1,0,1,0,3682.44,0.107145,0.106803,60.3397,3,0.00602099,10,0.00644448,-1.2194,0.625478,0.0943278,222.529,0.1068033,
2,1,0,1,0,3682.45,0.11114,0.110796,61.2581,3,0.00626425,10,0.00678714,-1.21284,0.584617,0.100921,241.676,0.110796,
2,1,0,1,0,3682.45,0.115135,0.114748,62.2404,3,0.00651133,10,0.00714196,-1.20593,0.557352,0.105858,257.72,0.114748,
2,1,0,1,0,3682.45,0.119131,0.118806,63.3201,3,0.00676254,10,0.00752281,-1.19846,0.525295,0.112318,278.152,0.118806,
2,1,0,1,0,3682.46,0.123126,0.122831,64.4704,3,0.00701822,10,0.00791899,-1.19064,0.49911,0.118211,298.016,0.122831,
2,1,0,1,0,3682.46,0.127121,0.126783,65.7051,3,0.00727869,10,0.00833032,-1.1824,0.477094,0.123665,317.662,0.126783,
2,1,0,1,0,3682.47,0.131116,0.130767,67.0145,3,0.00754425,10,0.00876331,-1.17383,0.461948,0.12772,334.504,0.130767,
2,1,0,1,0,3682.47,0.135111,0.134745,68.3833,3,0.00781517,10,0.00921431,-1.16505,0.449159,0.131357,351.01,0.134745,
2,1,0,1,0,3682.47,0.139106,0.138818,69.818,3,0.0080917,10,0.009692,-1.15603,0.434617,0.135752,370.579,0.138818,
2,1,0,1,0,3682.48,0.143102,0.142759,71.3125,3,0.00837407,10,0.0101805,-1.14683,0.424762,0.138901,387.318,0.1427585,
2,1,0,1,0,3682.48,0.147147,0.146824,72.9648,3,0.00866281,10,0.010713,-1.13689,0.41451,0.142337,405.57,0.146824,
2,1,0,1,0,3682.49,0.151142,0.15081,74.6056,3,0.00895809,10,0.0112513,-1.12723,0.407048,0.144946,422.262,0.15081,
2,1,0,1,0,3682.49,0.155137,0.154797,76.2987,3,0.00926003,10,0.0118108,-1.11748,0.401565,0.146925,438.121,0.154797,
2,1,0,1,0,3682.49,0.159132,0.158794,78.0837,3,0.00956898,10,0.0123992,-1.10744,0.394507,0.149554,456.392,0.158794,
2,1,0,1,0,3682.5,0.163127,0.162782,79.9563,3,0.00988521,10,0.0130155,-1.09715,0.384575,0.153416,479.372,0.162782,
2,1,0,1,0,3682.5,0.167123,0.166786,81.897,3,0.0102091,10,0.0136593,-1.08673,0.378081,0.156051,499.442,0.166786,
2,1,0,1,0,3682.51,0.171118,0.170762,83.9516,3,0.010541,10,0.0143357,-1.07597,0.374142,0.157694,517.091,0.170762,
2,1,0,1,0,3682.51,0.175113,0.174766,86.0607,3,0.0108812,10,0.0150405,-1.0652,0.369969,0.159473,535.891,0.174766,
2,1,0,1,0,3682.51,0.179108,0.178766,88.2213,3,0.01123,10,0.0157709,-1.05443,0.368196,0.160241,552.213,0.178766,
2,1,0,1,0,3682.52,0.183103,0.182754,90.4539,3,0.0115875,10,0.0165308,-1.04357,0.370544,0.159225,562.368,0.182754,
2,1,0,1,0,3682.52,0.187146,0.186785,92.8002,3,0.0119542,10,0.0173337,-1.03245,0.374579,0.15751,569.962,0.1867855,
2,1,0,1,0,3682.53,0.191143,0.190818,95.0881,3,0.0123302,10,0.0181445,-1.02187,0.383591,0.15381,569.934,0.190818,
2,1,0,1,0,3682.53,0.195139,0.194816,97.3693,3,0.0127154,10,0.0189691,-1.01158,0.400617,0.147273,558.745,0.194816,
2,1,0,1,0,3682.53,0.199134,0.198774,99.5846,3,0.0131095,10,0.0197949,-1.00181,0.41898,0.140818,546.246,0.198774,
2,1,0,1,0,3682.54,0.203129,0.202829,101.765,3,0.0135125,10,0.0206409,-0.992403,0.446343,0.132185,523.634,0.202829,
2,1,0,1,0,3682.54,0.207124,0.206823,103.831,3,0.0139239,10,0.0214745,-0.983675,0.483823,0.121945,492.438,0.206823,
2,1,0,1,0,3682.55,0.211119,0.210826,105.753,3,0.0143433,10,0.0222954,-0.975708,0.545294,0.108199,444.535,0.210826,
2,1,0,1,0,3682.55,0.215115,0.214765,107.459,3,0.01477,10,0.0230785,-0.968757,0.645299,0.0914305,381.267,0.2147654,
2,1,0,1,0,3682.55,0.21911,0.218797,108.863,3,0.0152028,10,0.0238189,-0.96312,0.830155,0.0710711,299.924,0.218797,
2,1,0,1,0,3682.56,0.223105,0.222814,109.927,3,0.0156407,10,0.0244934,-0.958894,1.24867,0.0472504,201.131,0.2228139,
2,1,0,1,0,3682.56,0.227108,0.226812,110.547,3,0.0160818,10,0.0250734,-0.956452,3.1778,0.0185663,79.3417,0.2268116,
2,1,0,1,0,3682.57,0.231145,0.230874,110.699,3,0.0165246,10,0.0255575,-0.955856,-3.82675,-0.0154178,-65.8264,0.230874,
2,1,0,1,0,3682.57,0.23514,0.234879,110.139,3,0.0169664,10,0.0258693,-0.95806,-1.09553,-0.0538552,-228.468,0.2348792,
2,1,0,1,0,3682.57,0.239136,0.238835,108.873,3,0.0174044,10,0.0260026,-0.963081,-0.606065,-0.0973494,-408.034,0.238835,
2,1,0,1,0,3682.58,0.243131,0.242881,106.876,3,0.017836,10,0.0259581,-0.97112,-0.412466,-0.143042,-588.161,0.242881,
2,1,0,1,0,3682.58,0.247126,0.246888,104.165,3,0.018258,10,0.025717,-0.982279,-0.309275,-0.190769,-764.099,0.246888,
2,1,0,1,0,3682.59,0.251121,0.250897,100.718,3,0.0186676,10,0.0252698,-0.996893,-0.24688,-0.238982,-925.785,0.250897,
2,1,0,1,0,3682.59,0.255116,0.254854,96.6323,3,0.019062,10,0.0246271,-1.01488,-0.205182,-0.287549,-1069.68,0.254854,
2,1,0,1,0,3682.59,0.259111,0.25893,92.0177,3,0.019439,10,0.0238262,-1.03613,-0.176354,-0.334554,-1186.69,0.25893,
2,1,0,1,0,3682.6,0.263107,0.262946,86.9881,3,0.0197966,10,0.0228732,-1.06054,-0.158647,-0.371895,-1250.39,0.262946,
2,1,0,1,0,3682.6,0.267102,0.266907,81.7191,3,0.0201335,10,0.0218114,-1.08768,-0.143767,-0.410386,-1299.5,0.266907,
2,1,0,1,0,3682.61,0.271147,0.270989,76.457,3,0.0204493,10,0.020719,-1.11658,-0.134398,-0.438996,-1303.01,0.270989,
2,1,0,1,0,3682.61,0.275142,0.274988,71.1506,3,0.020744,10,0.0195656,-1.14782,-0.128788,-0.458115,-1270,0.274988,
2,1,0,1,0,3682.61,0.279137,0.278994,66.0772,3,0.0210179,10,0.0184351,-1.17995,-0.125095,-0.471641,-1219.67,0.2789942,
2,1,0,1,0,3682.62,0.283132,0.282966,61.3231,3,0.0212721,10,0.0173524,-1.21238,-0.12599,-0.468292,-1128.15,0.282966,
2,1,0,1,0,3682.62,0.287128,0.286928,57.0168,3,0.0215082,10,0.0163597,-1.244,-0.129858,-0.454343,-1020.83,0.286928,
2,1,0,1,0,3682.63,0.291123,0.29092,53.1775,3,0.0217281,10,0.0154704,-1.27427,-0.137207,-0.430007,-904.356,0.29092,
2,1,0,1,0,3682.63,0.295118,0.294911,49.8289,3,0.0219336,10,0.0146951,-1.30252,-0.142915,-0.412832,-829.73,0.294911,
2,1,0,1,0,3682.63,0.298913,0.298714,47.0815,3,0.0221175,10,0.0140639,-1.32715,-0.073559,-0.802077,-1475.16,0.298714,
2,1,0,1,0,3682.64,0.300012,0.299785,46.3494,3,0.022169,10,0.0138948,-1.33396,0.000686076,85.9964,126688,0.299785,
2,1,0,1,0,3682.64,0.298714,0.298801,41.5518,3,0.0222242,10,0.0124157,-1.38141,0.018136,3.25319,3761.56,0.2988005,
2,1,0,1,0,3682.64,0.294718,0.294737,27.7978,3,0.0223606,10,0.00819304,-1.55599,0.018084,3.26256,2868.7,0.294737,
2,1,0,1,0,3682.64,0.290723,0.290753,17.1346,3,0.0224487,10,0.00498195,-1.76613,0.0123163,4.79042,2448.71,0.290753,
2,1,0,1,0,3682.65,0.286728,0.286669,8.72576,3,0.0224991,10,0.00250141,-2.0592,0.0174803,3.37523,1924.76,0.286669,
2,1,0,1,0,3682.65,0.282733,0.282662,2.03357,3,0.0225196,10,0.000574814,-2.69174,0.0454531,1.29804,1526.74,0.282662,
2,0,0,1,0,3682.66,0.278738,0.278576,-3.30754,3,0.0225161,10,-0.000921402,-2.4805,-0.163949,-0.359869,1221.66,0.2785764,
2,0,0,1,0,3682.66,0.274742,0.274583,-7.55302,3,0.0224937,10,-0.00207393,-2.12188,-0.0194832,-3.02824,975.828,0.274583,
2,0,0,1,0,3682.66,0.270747,0.270572,-10.9392,3,0.0224562,10,-0.00295985,-1.96101,-0.0235215,-2.50834,786.971,0.270572,
2,0,0,1,0,3682.67,0.266702,0.266494,-13.7436,3,0.0224064,10,-0.00366259,-1.8619,-0.0431646,-1.36686,637.07,0.266494,
2,0,0,1,0,3682.67,0.262707,0.262499,-15.9603,3,0.0223466,10,-0.00418956,-1.79696,-0.0651502,-0.9056,520.227,0.262499,
2,0,0,1,0,3682.68,0.258712,0.258542,-17.7721,3,0.0222789,10,-0.00459484,-1.75026,-0.0917153,-0.643295,424.555,0.258542,
2,0,0,1,0,3682.68,0.254717,0.254532,-19.2841,3,0.0222045,10,-0.0049084,-1.7148,-0.122438,-0.481877,350.277,0.254532,
2,0,0,1,0,3682.68,0.250722,0.250509,-20.5304,3,0.0221247,10,-0.00514304,-1.6876,-0.15655,-0.376876,294.892,0.250509,
2,0,0,1,0,3682.69,0.246726,0.246477,-21.5724,3,0.0220404,10,-0.00531709,-1.6661,-0.193715,-0.304571,252.497,0.246477,
2,0,0,1,0,3682.69,0.242731,0.242464,-22.5133,3,0.0219521,10,-0.00545868,-1.64756,-0.232104,-0.254196,220.724,0.242464,
2,0,0,1,0,3682.7,0.238736,0.238511,-23.3292,3,0.0218603,10,-0.00556428,-1.6321,-0.268646,-0.21962,198.109,0.2385111,
2,0,0,1,0,3682.7,0.234741,0.23451,-24.0616,3,0.0217654,10,-0.00564269,-1.61868,-0.303398,-0.194464,181.675,0.23451,
2,0,0,1,0,3682.7,0.230746,0.230555,-24.7267,3,0.0216677,10,-0.00570085,-1.60683,-0.341646,-0.172693,166.063,0.230555,
2,0,0,1,0,3682.71,0.226701,0.226453,-25.4222,3,0.0215675,10,-0.00575693,-1.59479,-0.371339,-0.158884,156.864,0.2264532,
2,0,0,1,0,3682.71,0.222705,0.222439,-25.9983,3,0.0214646,10,-0.00578302,-1.58506,-0.397076,-0.148586,150.289,0.2224385,
2,0,0,1,0,3682.72,0.21871,0.218487,-26.575,3,0.0213594,10,-0.0058063,-1.57553,-0.425989,-0.138501,143.518,0.218487,
2,0,0,1,0,3682.72,0.214715,0.214463,-27.1451,3,0.0212519,10,-0.00582162,-1.56631,-0.434079,-0.13592,143.905,0.214463,
2,0,0,1,0,3682.72,0.21072,0.210485,-27.714,3,0.0211421,10,-0.00583336,-1.5573,-0.438541,-0.134537,145.565,0.210485,
2,0,0,1,0,3682.73,0.206725,0.206505,-28.2912,3,0.0210301,10,-0.00584227,-1.54835,-0.430926,-0.136915,151.418,0.206505,
2,0,0,1,0,3682.73,0.202729,0.202481,-28.905,3,0.0209156,10,-0.00585271,-1.53903,-0.421656,-0.139924,158.162,0.202481,
2,0,0,1,0,3682.74,0.198734,0.198483,-29.5648,3,0.0207986,10,-0.0058681,-1.52923,-0.403687,-0.146153,168.967,0.198483,
2,0,0,1,0,3682.74,0.194739,0.194454,-30.2493,3,0.020679,10,-0.00588211,-1.51928,-0.383774,-0.153736,182.008,0.194454,
2,0,0,1,0,3682.74,0.190744,0.190497,-30.996,3,0.0205564,10,-0.00590465,-1.50869,-0.362396,-0.162805,197.772,0.190497,
2,0,0,1,0,3682.75,0.186735,0.186508,-31.8122,3,0.0204308,10,-0.00593322,-1.49741,-0.33994,-0.17356,216.398,0.1865077,
2,0,0,1,0,3682.75,0.182704,0.182415,-32.7426,3,0.0203015,10,-0.00597273,-1.48489,-0.321103,-0.183742,235.55,0.182415,
2,0,0,1,0,3682.76,0.178709,0.17847,-33.7083,3,0.0201685,10,-0.00601592,-1.47226,-0.303202,-0.19459,256.926,0.17847,
2,0,0,1,0,3682.76,0.174713,0.174464,-34.7727,3,0.0200315,10,-0.00606656,-1.45876,-0.285688,-0.206519,281.565,0.174464,
2,0,0,1,0,3682.76,0.170718,0.170462,-35.9349,3,0.01989,10,-0.00612552,-1.44448,-0.269446,-0.218968,308.632,0.170462,
2,0,0,1,0,3682.77,0.166723,0.166505,-37.2221,3,0.0197436,10,-0.00619768,-1.4292,-0.253189,-0.233028,340.367,0.166505,
2,0,0,1,0,3682.77,0.162728,0.162506,-38.6352,3,0.0195918,10,-0.00627846,-1.41302,-0.237889,-0.248014,376.162,0.162506,
2,0,0,1,0,3682.78,0.158733,0.158484,-40.2115,3,0.0194339,10,-0.00637289,-1.39565,-0.225265,-0.261914,413.228,0.158484,
2,0,0,1,0,3682.78,0.154737,0.154482,-41.9457,3,0.0192695,10,-0.00647987,-1.37731,-0.214411,-0.275173,452.537,0.154482,
2,0,0,1,0,3682.78,0.150742,0.150563,-43.8099,3,0.0190979,10,-0.00659615,-1.35843,-0.204671,-0.288268,495.609,0.150563,
2,0,0,1,0,3682.79,0.146747,0.146566,-45.8486,3,0.0189184,10,-0.00671986,-1.33867,-0.198461,-0.297288,534.66,0.146566,
2,0,0,1,0,3682.79,0.142702,0.142502,-48.1325,3,0.0187303,10,-0.00685897,-1.31756,-0.194525,-0.303303,571.195,0.142502,
2,0,0,1,0,3682.8,0.138707,0.138515,-50.4829,3,0.0185328,10,-0.00699263,-1.29686,-0.191325,-0.308376,608.529,0.138515,
2,0,0,1,0,3682.8,0.134712,0.134488,-52.9917,3,0.0183257,10,-0.00712676,-1.27579,-0.190686,-0.30941,641.029,0.134488,
2,0,0,1,0,3682.8,0.130717,0.130556,-55.5912,3,0.0181083,10,-0.00725778,-1.25499,-0.190036,-0.310467,674.734,0.1305564,
2,0,0,1,0,3682.81,0.126721,0.126534,-58.3682,3,0.0178801,10,-0.00738558,-1.23382,-0.191479,-0.308128,702.345,0.126534,
2,0,0,1,0,3682.81,0.122726,0.122577,-61.2368,3,0.0176407,10,-0.00750621,-1.21299,-0.194224,-0.303773,725.489,0.122577,
2,0,0,1,0,3682.82,0.118731,0.118563,-64.1766,3,0.0173895,10,-0.00760899,-1.19262,-0.200046,-0.294933,737.597,0.118563,
2,0,0,1,0,3682.82,0.114736,0.114605,-67.1639,3,0.0171266,10,-0.0076973,-1.17286,-0.208689,-0.282717,738.531,0.114605,
2,0,0,1,0,3682.82,0.110741,0.110553,-70.156,3,0.0168516,10,-0.00775595,-1.15393,-0.215772,-0.273436,746.543,0.1105529,
2,0,0,1,0,3682.83,0.106745,0.106681,-72.9761,3,0.016565,10,-0.00778519,-1.13682,-0.226637,-0.260328,740.807,0.106681,
2,0,0,1,0,3682.83,0.102703,0.102624,-76.0758,3,0.0162668,10,-0.00780722,-1.11875,-0.237787,-0.248121,734.572,0.102624,
2,0,0,1,0,3682.84,0.0987052,0.0986456,-78.9866,3,0.0159564,10,-0.00779168,-1.10245,-0.250751,-0.235293,722.121,0.09864559,
2,0,0,1,0,3682.84,0.09471,0.094616,-81.8628,3,0.0156343,10,-0.00774554,-1.08691,-0.269317,-0.219073,696.924,0.094616,
2,0,0,1,0,3682.84,0.0907148,0.0906024,-84.587,3,0.0153012,10,-0.00766379,-1.0727,-0.288588,-0.204443,672.312,0.0906024,
2,0,0,1,0,3682.85,0.0867197,0.0866535,-87.2062,3,0.0149573,10,-0.00755672,-1.05945,-0.310372,-0.190094,644.97,0.0866535,
2,0,0,1,0,3682.85,0.0827245,0.0826091,-89.7681,3,0.0146031,10,-0.00741566,-1.04688,-0.334548,-0.176358,615.539,0.0826091,
2,0,0,1,0,3682.86,0.0787293,0.0785615,-92.2175,3,0.0142388,10,-0.00724475,-1.03519,-0.367705,-0.160455,574.572,0.0785615,
2,0,0,1,0,3682.86,0.0747341,0.0745616,-94.4607,3,0.0138651,10,-0.00704315,-1.02475,-0.411929,-0.143229,524.979,0.0745616,
2,0,0,1,0,3682.86,0.070739,0.0705501,-96.4587,3,0.013483,10,-0.00680517,-1.01566,-0.473194,-0.124685,466.681,0.0705501,
2,0,0,1,0,3682.87,0.0667438,0.0665598,-98.1936,3,0.0130935,10,-0.00653575,-1.00792,-0.557487,-0.105832,403.407,0.0665598,
2,0,0,1,0,3682.87,0.0627403,0.0625483,-99.6906,3,0.0126975,10,-0.00623547,-1.00135,-0.684922,-0.0861412,333.2,0.0625483,
2,0,0,1,0,3682.88,0.0587035,0.0584721,-100.951,3,0.0122959,10,-0.00590284,-0.995888,-0.889205,-0.0663514,259.645,0.0584721,
2,0,0,1,0,3682.88,0.0547083,0.0544733,-101.816,3,0.0118902,10,-0.00554623,-0.992186,-1.29495,-0.0455615,179.822,0.0544733,
2,0,0,1,0,3682.88,0.0507132,0.0504639,-102.373,3,0.0114817,10,-0.00516613,-0.989815,-2.4569,-0.024014,95.323,0.0504639,
2,0,0,1,0,3682.89,0.046718,0.0464556,-102.584,3,0.0110717,10,-0.00476562,-0.988919,-14.1351,-0.004174,16.6072,0.0464556,
2,0,0,1,0,3682.89,0.0427228,0.0424854,-102.475,3,0.0106615,10,-0.0043537,-0.989381,3.86362,0.0152707,-60.7207,0.0424854,
2,0,0,1,0,3682.9,0.0387276,0.0384898,-102.081,3,0.0102524,10,-0.00392907,-0.991055,1.7951,0.0328672,-130.245,0.0384898,
2,0,0,1,0,3682.9,0.0347325,0.0344592,-101.401,3,0.00984542,10,-0.0034942,-0.993958,1.21633,0.0485065,-191.083,0.0344592,
2,0,0,1,0,3682.9,0.0307373,0.0304678,-100.502,3,0.00944163,10,-0.00306208,-0.997825,0.946569,0.0623304,-243.526,0.0304678,
2,0,0,1,0,3682.91,0.0267421,0.0264839,-99.4176,3,0.00904188,10,-0.00263296,-1.00254,0.812735,0.0725944,-280.851,0.0264839,
2,0,0,1,0,3682.91,0.022747,0.0224162,-98.1666,3,0.00864681,10,-0.00220052,-1.00804,0.71443,0.0825833,-315.692,0.0224162,
2,0,0,1,0,3682.92,0.0187018,0.0184142,-96.8948,3,0.00825679,10,-0.00178424,-1.0137,0.647792,0.0910786,-343.481,0.0184142,
2,0,0,1,0,3682.92,0.0147067,0.014443,-95.4432,3,0.00787227,10,-0.00137848,-1.02026,0.596037,0.0989871,-367.763,0.014443,
2,0,0,1,0,3682.92,0.0107115,0.0104187,-93.8996,3,0.0074937,10,-0.000978313,-1.02734,0.547336,0.107795,-394.225,0.0104187,
2,0,0,1,0,3682.93,0.00671632,0.00643371,-92.2889,3,0.00712147,10,-0.00059376,-1.03485,0.517021,0.114115,-410.207,0.00643371,
2,0,0,1,0,3682.93,0.00272115,0.00243173,-90.5941,3,0.00675588,10,-0.000220301,-1.0429,0.48184,0.122447,-431.969,0.00243173,
2,0,0,1,0,3682.94,-0.00127403,-0.0016275,-88.8509,3,0.00639706,10,0.000144605,-1.05134,0.447416,0.131868,-455.888,-0.0016275,
2,0,0,1,0,3682.94,-0.0052692,-0.00560721,-86.9769,3,0.00604558,10,0.000487698,-1.0606,0.417168,0.14143,-478.61,-0.00560721,
2,0,0,1,0,3682.94,-0.00926438,-0.00959964,-84.9794,3,0.00570182,10,0.000815772,-1.07069,0.388527,0.151856,-502.429,-0.00959964,
2,0,0,1,0,3682.95,-0.0132596,-0.0135571,-82.9417,3,0.00536617,10,0.00112445,-1.08123,0.372438,0.158416,-511.998,-0.0135571,
2,0,0,1,0,3682.95,-0.0172547,-0.0175909,-80.8305,3,0.00503885,10,0.00142188,-1.09242,0.360988,0.16344,-515.232,-0.0175909,
2,0,0,1,0,3682.96,-0.0212915,-0.0216024,-78.7874,3,0.00471989,10,0.00170199,-1.10354,0.353538,0.166885,-512.913,-0.0216024,
2,0,0,1,0,3682.96,-0.025295,-0.0256447,-76.7125,3,0.00440909,10,0.00196727,-1.11513,0.354292,0.16653,-498.892,-0.0256447,
2,0,0,1,0,3682.96,-0.0292902,-0.0296127,-74.7066,3,0.00410648,10,0.00221226,-1.12664,0.359941,0.163916,-479.119,-0.0296127,
2,0,0,1,0,3682.97,-0.0332854,-0.0336189,-72.8342,3,0.00381163,10,0.00244861,-1.13766,0.37872,0.155788,-444.487,-0.03361892,
2,0,0,1,0,3682.97,-0.0372805,-0.0375742,-71.1349,3,0.00352393,10,0.00267284,-1.14792,0.411302,0.143447,-400.067,-0.0375742,
2,0,0,1,0,3682.98,-0.0412757,-0.041608,-69.617,3,0.00324262,10,0.00289663,-1.15728,0.455963,0.129396,-353.33,-0.041608,
2,0,0,1,0,3682.98,-0.0452709,-0.045592,-68.3138,3,0.00296694,10,0.00311456,-1.16549,0.513188,0.114968,-307.982,-0.045592,
2,0,0,1,0,3682.98,-0.0492661,-0.0496311,-67.1766,3,0.00269613,10,0.00333405,-1.17278,0.5938,0.0993601,-261.742,-0.0496311,
2,0,0,1,0,3682.99,-0.0532612,-0.0535747,-66.2071,3,0.0024295,10,0.00354702,-1.1791,0.691999,0.0852602,-221.372,-0.0535747,
2,0,0,1,0,3682.99,-0.0572564,-0.0576255,-65.4246,3,0.00216635,10,0.00377012,-1.18426,0.858228,0.0687463,-176.429,-0.0576255,
2,0,0,1,0,3683,-0.0612544,-0.0615734,-64.776,3,0.00190606,10,0.00398847,-1.18859,1.06846,0.0552199,-140.24,-0.0615734,
2,0,0,1,0,3683,-0.0652967,-0.0655859,-64.3617,3,0.00164775,10,0.00422122,-1.19137,1.3585,0.0434303,-109.404,-0.0655859,
2,0,0,1,0,3683,-0.0692919,-0.0696282,-63.9557,3,0.00139119,10,0.00445312,-1.19412,1.84273,0.0320177,-80.1356,-0.0696282,
2,0,0,1,0,3683.01,-0.0732871,-0.0735941,-63.6776,3,0.00113596,10,0.0046863,-1.19601,2.43245,0.0242554,-60.4672,-0.0735941,
2,0,0,1,0,3683.01,-0.0772822,-0.0776025,-63.4915,3,0.000881661,10,0.00492709,-1.19728,4.09833,0.0143961,-35.7717,-0.0776025,
2,0,0,1,0,3683.02,-0.0812774,-0.081561,-63.3958,3,0.00062793,10,0.00517062,-1.19794,9.62883,0.00612743,-15.1985,-0.081561,
2,0,0,1,0,3683.02,-0.0852726,-0.0856117,-63.384,3,0.00037438,10,0.00542641,-1.19802,-59.8132,-0.000986404,2.44493,-0.0856117,
2,0,0,1,0,3683.02,-0.0892678,-0.0895618,-63.4349,3,0.000120754,10,0.00568134,-1.19767,-7.59657,-0.00776667,19.2624,-0.0895618,
2,0,0,1,0,3683.03,-0.0932629,-0.0935436,-63.5304,3,-0.000133158,10,0.00594286,-1.19702,-4.34962,-0.0135644,33.6962,-0.0935436,
2,0,0,1,0,3683.03,-0.0972581,-0.0975296,-63.7034,3,-0.000387634,10,0.00621297,-1.19584,-2.87098,-0.0205505,51.2057,-0.0975296,
2,0,0,1,0,3683.04,-0.101253,-0.10158,-63.922,3,-0.00064288,10,0.00649323,-1.19435,-2.34405,-0.0251701,62.9017,-0.1015804,
2,0,0,1,0,3683.04,-0.105298,-0.105653,-64.2589,3,-0.000899235,10,0.00678917,-1.19207,-2.04771,-0.0288127,72.2829,-0.105653,
2,0,0,1,0,3683.04,-0.109294,-0.109612,-64.5412,3,-0.00115686,10,0.00707448,-1.19016,-1.82745,-0.0322853,81.3579,-0.109612,
2,0,0,1,0,3683.05,-0.113289,-0.11358,-64.8635,3,-0.00141568,10,0.0073672,-1.188,-1.76465,-0.0334344,84.7246,-0.11358,
2,0,0,1,0,3683.05,-0.117284,-0.117563,-65.2223,3,-0.00167587,10,0.00766773,-1.1856,-1.61768,-0.0364719,92.9208,-0.117563,
2,0,0,1,0,3683.06,-0.121279,-0.121575,-65.6079,3,-0.00193757,10,0.0079763,-1.18304,-1.50222,-0.0392751,100.649,-0.121575,
2,0,0,1,0,3683.06,-0.125274,-0.125609,-66.0276,3,-0.00220087,10,0.00829368,-1.18027,-1.40406,-0.042021,108.373,-0.125609,
2,0,0,1,0,3683.06,-0.129269,-0.12956,-66.4719,3,-0.00246593,10,0.00861212,-1.17736,-1.33833,-0.0440849,114.447,-0.12956,
2,0,0,1,0,3683.07,-0.133265,-0.133519,-66.9515,3,-0.00273282,10,0.00893929,-1.17424,-1.26374,-0.0466868,122.068,-0.1335188,
2,0,0,1,0,3683.07,-0.13726,-0.13759,-67.4406,3,-0.00300165,10,0.00927914,-1.17108,-1.18714,-0.0496991,130.95,-0.13759,
2,0,0,1,0,3683.08,-0.141255,-0.141538,-67.972,3,-0.00327254,10,0.00962059,-1.16767,-1.15481,-0.0510905,135.66,-0.141538,
2,0,0,1,0,3683.08,-0.145286,-0.145555,-68.5665,3,-0.00354559,10,0.00998023,-1.16389,-1.10363,-0.0534597,143.079,-0.145555,
2,0,0,1,0,3683.08,-0.149295,-0.149614,-69.135,3,-0.00382111,10,0.0103435,-1.1603,-1.09082,-0.0540879,145.936,-0.149614,
2,0,0,1,0,3683.09,-0.15329,-0.153582,-69.7288,3,-0.00409889,10,0.0107091,-1.15659,-1.09325,-0.0539676,146.875,-0.153582,
2,0,0,1,0,3683.09,-0.157286,-0.157567,-70.3112,3,-0.00437901,10,0.0110787,-1.15298,-1.06291,-0.055508,152.379,-0.157567,
2,0,0,1,0,3683.1,-0.161281,-0.161556,-70.9166,3,-0.00466156,10,0.011457,-1.14925,-1.05583,-0.05588,154.739,-0.161556,
2,0,0,1,0,3683.1,-0.165276,-0.165528,-71.56,3,-0.00494656,10,0.0118452,-1.14533,-1.02677,-0.0574616,160.53,-0.165528,
2,0,0,1,0,3683.1,-0.169271,-0.169513,-72.194,3,-0.00523411,10,0.0122378,-1.1415,-1.00324,-0.0588095,165.783,-0.169513,
2,0,0,1,0,3683.11,-0.173266,-0.173515,-72.8714,3,-0.00552429,10,0.0126443,-1.13744,-0.993546,-0.0593832,168.96,-0.173515,
2,0,0,1,0,3683.11,-0.177261,-0.177524,-73.5637,3,-0.00581721,10,0.0130593,-1.13334,-0.960476,-0.0614279,176.44,-0.177524,
2,0,0,1,0,3683.12,-0.181257,-0.181548,-74.2667,3,-0.00611296,10,0.013483,-1.12921,-0.918826,-0.0642124,186.336,-0.181548,
2,0,0,1,0,3683.12,-0.185252,-0.185533,-75.0205,3,-0.00641159,10,0.0139188,-1.12482,-0.891211,-0.066202,194.054,-0.185533,
2,0,0,1,0,3683.12,-0.189297,-0.189554,-75.86,3,-0.0067135,10,0.0143796,-1.11999,-0.856442,-0.0688897,204.023,-0.189554,
2,0,0,1,0,3683.13,-0.193292,-0.193554,-76.6744,3,-0.00701866,10,0.0148406,-1.11535,-0.840462,-0.0701995,209.741,-0.193554,
2,0,0,1,0,3683.13,-0.197287,-0.197534,-77.5283,3,-0.00732712,10,0.0153145,-1.11054,-0.992017,-0.0594748,178.33,-0.197534,
2,0,0,1,0,3683.14,-0.199984,-0.200284,-78.1144,3,-0.00753721,10,0.0156451,-1.10727,0.0671482,0.878653,-2470.79,-0.200284,
2,0,0,1,1,3683.14,-0.199984,-0.200475,-77.8075,3,-0.00758394,10,0.0155985,-1.10898,-0.0324006,-1.82095,4737.39,-0.200475,
2,0,0,1,1,3683.14,-0.196688,-0.197217,-67.6222,3,-0.007806,10,0.0133363,-1.16991,-0.0511489,-1.1535,2765.16,-0.197217,
2,0,0,1,1,3683.14,-0.192693,-0.193172,-56.8615,3,-0.00805352,10,0.010984,-1.24518,-0.0504807,-1.16876,2551.44,-0.193172,
2,0,0,1,1,3683.15,-0.188698,-0.18914,-47.3001,3,-0.00826062,10,0.00894636,-1.32514,-0.0471872,-1.25034,2283.46,-0.18914,
2,0,0,1,1,3683.15,-0.184653,-0.185111,-38.6068,3,-0.00843137,10,0.00714654,-1.41334,-0.0419593,-1.40612,2074.09,-0.185111,
2,0,0,1,1,3683.15,-0.180657,-0.181074,-30.7589,3,-0.00856913,10,0.00556963,-1.51203,-0.0359756,-1.64,1891.93,-0.181074,
2,0,0,1,1,3683.16,-0.176662,-0.177115,-23.5584,3,-0.00867691,10,0.00417255,-1.62785,-0.0289084,-2.04093,1737.85,-0.177115,
2,0,0,1,1,3683.16,-0.172667,-0.173088,-16.9301,3,-0.00875708,10,0.00293039,-1.77134,-0.0204809,-2.88073,1606.37,-0.173088,
2,0,0,1,1,3683.17,-0.168672,-0.169103,-10.7875,3,-0.00881178,10,0.00182419,-1.96708,-0.00710658,-8.30216,1485.37,-0.169103,
2,0,0,1,1,3683.17,-0.164677,-0.165106,-5.10903,3,-0.00884289,10,0.000843532,-2.29166,-0.0301027,-1.95996,1380.24,-0.165106,
2,0,0,1,1,3683.17,-0.160682,-0.161165,0.134171,3,-0.00885219,10,-2.16236e-05,-3.87234,-0.317556,-0.185794,1283.51,-0.161165,
2,1,0,1,1,3683.18,-0.156686,-0.157187,5.01695,3,-0.00884132,10,-0.0007886,-2.29956,0.0365667,1.61349,1196.52,-0.157187,
2,1,0,1,1,3683.18,-0.152691,-0.153208,9.61317,3,-0.00881153,10,-0.00147282,-2.01713,0.00751398,7.85203,1111.97,-0.153208,
2,1,0,1,1,3683.19,-0.148696,-0.14924,13.8748,3,-0.00876404,10,-0.00207067,-1.85777,0.0252455,2.33705,1038.71,-0.14924,
2,1,0,1,1,3683.19,-0.14467,-0.145198,17.8885,3,-0.00870011,10,-0.00259738,-1.74743,0.0384078,1.53614,969.838,-0.145198,
2,1,0,1,1,3683.19,-0.140656,-0.141136,21.6896,3,-0.00862044,10,-0.00306118,-1.66375,0.0517189,1.14078,904.53,-0.141136,
2,1,0,1,1,3683.2,-0.136661,-0.137127,25.2092,3,-0.00852624,10,-0.00345688,-1.59844,0.0653547,0.902765,848.559,-0.137127,
2,1,0,1,1,3683.2,-0.132665,-0.133073,28.4983,3,-0.00841846,10,-0.00379236,-1.54518,0.0799851,0.737637,793.477,-0.133073,
2,1,0,1,1,3683.21,-0.12867,-0.129076,31.5694,3,-0.00829793,10,-0.00407484,-1.50073,0.0962658,0.612886,735.005,-0.129076,
2,1,0,1,1,3683.21,-0.124675,-0.125102,34.4117,3,-0.00816566,10,-0.00430499,-1.46329,0.113342,0.520546,683.94,-0.125102,
2,1,0,1,1,3683.21,-0.12068,-0.121084,37.0008,3,-0.00802252,10,-0.00448023,-1.43179,0.132764,0.444399,631.092,-0.121084,
2,1,0,1,1,3683.22,-0.116685,-0.117098,39.4242,3,-0.00786938,10,-0.00461651,-1.40424,0.153341,0.384764,584.165,-0.1170984,
2,1,0,1,1,3683.22,-0.112689,-0.113066,41.6732,3,-0.00770693,10,-0.0047118,-1.38014,0.174769,0.337588,542.819,-0.113066,
2,1,0,1,1,3683.23,-0.108694,-0.109086,43.7679,3,-0.00753579,10,-0.00477447,-1.35884,0.197852,0.298203,504.577,-0.109086,
2,1,0,1,1,3683.23,-0.104699,-0.105046,45.7069,3,-0.00735661,10,-0.00480132,-1.34002,0.223642,0.263815,466.557,-0.105046,
2,1,0,1,1,3683.23,-0.100654,-0.101011,47.5416,3,-0.00716984,10,-0.00480222,-1.32293,0.252888,0.233305,429.095,-0.101011,
2,1,0,1,1,3683.24,-0.0966588,-0.0970122,49.163,3,-0.00697622,10,-0.00476941,-1.30836,0.283823,0.207876,395.938,-0.09701217,
2,1,0,1,1,3683.24,-0.0926637,-0.0930409,50.6528,3,-0.00677643,10,-0.00471278,-1.2954,0.319989,0.184381,362.517,-0.0930409,
2,1,0,1,1,3683.25,-0.0886685,-0.0890538,52.0387,3,-0.00657087,10,-0.00463425,-1.28367,0.360261,0.16377,330.85,-0.08905381,
2,1,0,1,1,3683.25,-0.0846733,-0.0850529,53.3266,3,-0.00635997,10,-0.00453559,-1.27306,0.403219,0.146322,302.876,-0.0850529,
2,1,0,1,1,3683.25,-0.0806781,-0.0810128,54.4564,3,-0.00614427,10,-0.00441167,-1.26395,0.451444,0.130692,276.562,-0.0810128,
2,1,0,1,1,3683.26,-0.076683,-0.0770447,55.4976,3,-0.00592421,10,-0.0042758,-1.25573,0.507168,0.116332,251.117,-0.0770447,
2,1,0,1,1,3683.26,-0.0726878,-0.0730427,56.4668,3,-0.00570017,10,-0.00412449,-1.24821,0.560207,0.105318,231.342,-0.0730427,
2,1,0,1,1,3683.27,-0.0686926,-0.0690545,57.3441,3,-0.00547245,10,-0.00395987,-1.24151,0.610447,0.0966505,215.796,-0.0690545,
2,1,0,1,1,3683.27,-0.0646974,-0.0650356,58.1526,3,-0.00524136,10,-0.00378199,-1.23543,0.686234,0.0859765,194.66,-0.0650356,
2,1,0,1,1,3683.27,-0.0606523,-0.0610071,58.9585,3,-0.00500711,10,-0.00359689,-1.22945,0.769328,0.0766903,175.815,-0.0610071,
2,1,0,1,1,3683.28,-0.0566571,-0.057002,59.5893,3,-0.00476995,10,-0.00339671,-1.22483,0.862112,0.0684366,158.697,-0.057002,
2,1,0,1,1,3683.28,-0.052662,-0.0530191,60.1634,3,-0.00453038,10,-0.00318981,-1.22067,0.995622,0.0592595,138.906,-0.0530191,
2,1,0,1,1,3683.29,-0.0486668,-0.0489757,60.7013,3,-0.00428857,10,-0.00297289,-1.2168,1.11055,0.0531267,125.621,-0.0489757,
2,1,0,1,1,3683.29,-0.0446716,-0.0450215,61.179,3,-0.00404472,10,-0.00275437,-1.2134,1.25209,0.047121,112.283,-0.0450215,
2,1,0,1,1,3683.29,-0.0406764,-0.0410163,61.5974,3,-0.00379912,10,-0.0025265,-1.21044,1.43825,0.0410219,98.433,-0.0410163,
2,1,0,1,1,3683.3,-0.0366813,-0.0370271,61.959,3,-0.00355196,10,-0.00229416,-1.2079,1.64409,0.0358862,86.6487,-0.0370271,
2,1,0,1,1,3683.3,-0.0326861,-0.0330081,62.273,3,-0.00330345,10,-0.00205552,-1.2057,1.91034,0.0308846,74.9646,-0.0330081,
2,1,0,1,1,3683.31,-0.0286909,-0.0290411,62.5637,3,-0.00305375,10,-0.00181692,-1.20368,2.17745,0.0270959,66.077,-0.0290411,
2,1,0,1,1,3683.31,-0.0246957,-0.0250392,62.7951,3,-0.00280302,10,-0.00157234,-1.20207,2.55781,0.0230666,56.466,-0.0250392,
2,1,0,1,1,3683.31,-0.0206756,-0.021033,63.0159,3,-0.00255143,10,-0.00132541,-1.20055,3.37499,0.0174815,42.9187,-0.02103295,
2,1,0,1,1,3683.32,-0.0166554,-0.0169663,63.1789,3,-0.00229897,10,-0.00107191,-1.19943,4.29425,0.0137393,33.816,-0.0169663,
2,1,0,1,1,3683.32,-0.0126603,-0.0129834,63.2528,3,-0.00204607,10,-0.000821237,-1.19892,6.85691,0.00860446,21.2181,-0.0129834,
2,1,0,1,1,3683.33,-0.0086651,-0.00901536,63.337,3,-0.00179287,10,-0.000571006,-1.19834,15.2598,0.00386637,9.54446,-0.00901536,
2,1,0,1,1,3683.33,-0.00466992,-0.0049943,63.3562,3,-0.00153948,10,-0.000316419,-1.19821, , , ,-0.0049943,
2,1,0,1,1,3683.33,-0.000974387,-0.00133536,63.328,3,-0.00130511,10,-8.45658e-05,-1.1984, , , ,-0.00133536,
2,1,0,1,1,3683.34,-0.000175352,-0.000516197,63.299,3,-0.00125446,10,-3.26747e-05,-1.1986, , , ,-0.000516197,