File: Figure_codes/Fig_3-5/rawdata_trumpetplot_data/before 10th/20221101_1-115_002_TrumpetPlot_ParaChange_06_CV_C01_4.csv
mode,ox/red,error,control changes,counter inc.,time/s,control/V,Ewe/V,<I>/mA,cycle number,(Q-Qo)/C,I Range,P/W,log(|I|),Tafel slope mV/dec,alpha_eff,dI/d(E-IR),E-IR/V,
2,0,0,1,0,6005.5,2.44065e-05,-0.000401673,-0.562024,5,0.0000000E+000,11,2.2575e-07,-3.25025, , , ,-0.000401673,
2,1,0,1,0,6005.63,0.00129787,0.000963071,0.280493,5,1.32747e-05,11,2.70134e-07,-3.55208, , , ,0.0009630706,
2,1,0,1,0,6005.78,0.00279606,0.00249854,0.352438,5,6.4408e-05,11,8.8058e-07,-3.45292,0.0155313,3.79879,41.862,0.00249854,
2,1,0,1,0,6005.93,0.00429425,0.00399901,0.367123,5,0.000120121,11,1.46813e-06,-3.43519,0.0825511,0.714708,10.3582,0.00399901,
2,1,0,1,0,6006.08,0.00579244,0.00551115,0.382775,5,0.000178554,11,2.10953e-06,-3.41706,0.0761727,0.774556,11.5109,0.005511154,
2,1,0,1,0,6006.23,0.00729063,0.00698724,0.401186,5,0.000239576,11,2.80318e-06,-3.39665,0.106616,0.553385,8.57657,0.00698724,
2,1,0,1,0,6006.38,0.00878882,0.00849938,0.413933,5,0.000302728,11,3.51817e-06,-3.38307,0.129151,0.456829,7.30172,0.00849938,
2,1,0,1,0,6006.53,0.010287,0.00997547,0.425211,5,0.000367546,11,4.24168e-06,-3.3714,0.179642,0.32843,5.40106,0.00997547,
2,1,0,1,0,6006.68,0.0117852,0.0115014,0.43105,5,0.000433778,11,4.95768e-06,-3.36547,0.179816,0.328114,5.53918,0.01150139,
2,1,0,1,0,6006.83,0.0132838,0.0129823,0.441513,5,0.000501085,11,5.73185e-06,-3.35506,0.158093,0.373199,6.46047,0.0129823,
2,1,0,1,0,6006.98,0.0147814,0.014503,0.445075,5,0.000569764,11,6.45493e-06,-3.35157,0.205323,0.287351,5.00534,0.014503,
2,1,0,1,0,6007.13,0.0162789,0.016019,0.454609,5,0.000639676,11,7.28238e-06,-3.34236,0.276711,0.213219,3.77274,0.016019,
2,1,0,1,0,6007.28,0.017778,0.0174853,0.461394,5,0.000710406,11,8.0676e-06,-3.33593,0.244656,0.241155,4.32882,0.0174853,
2,1,0,1,0,6007.43,0.0192761,0.0189645,0.467493,5,0.000781677,11,8.86579e-06,-3.33022,0.270955,0.217749,3.96163,0.0189645,
2,1,0,1,0,6007.58,0.0207743,0.0205053,0.474427,5,0.000854175,11,9.72827e-06,-3.32383,0.250704,0.235338,4.31601,0.0205053,
2,1,0,1,0,6007.73,0.0222725,0.0219634,0.479614,5,0.000927515,11,1.05339e-05,-3.31911,0.328175,0.179782,3.35606,0.0219634,
2,1,0,1,0,6007.88,0.0237707,0.0234532,0.483955,5,0.00100164,11,1.13503e-05,-3.31519,0.332481,0.177454,3.35239,0.0234532,
2,1,0,1,0,6008.03,0.0252689,0.0249845,0.488584,5,0.00107623,11,1.2207e-05,-3.31106,0.354694,0.16634,3.17811,0.0249845,
2,1,0,1,0,6008.18,0.0267671,0.0264924,0.493802,5,0.00115189,11,1.3082e-05,-3.30645,0.224301,0.263039,5.05203,0.0264924,
2,1,0,1,0,6008.33,0.0282662,0.0279968,0.500795,5,0.00122837,11,1.40207e-05,-3.30034,0.283982,0.20776,4.05515,0.0279968,
2,1,0,1,0,6008.47,0.0297635,0.0294837,0.50298,5,0.0013057,11,1.48297e-05,-3.29845,0.334579,0.176341,3.46819,0.0294837,
2,1,0,1,0,6008.62,0.031261,0.0310218,0.506141,5,0.00138362,11,1.57014e-05,-3.29573,0.323907,0.182151,3.63131,0.0310218,
2,1,0,1,0,6008.77,0.0327599,0.0325091,0.516637,5,0.00146245,11,1.67954e-05,-3.28681,0.296116,0.199246,4.00348,0.0325091,
2,1,0,1,0,6008.92,0.034258,0.0339788,0.521924,5,0.00154226,11,1.77344e-05,-3.28239,0.282554,0.20881,4.25404,0.0339788,
2,1,0,1,0,6009.07,0.0357562,0.0354157,0.528238,5,0.00162306,11,1.87079e-05,-3.27717,0.339898,0.173581,3.57098,0.0354157,
2,1,0,1,0,6009.22,0.0372544,0.0369374,0.532543,5,0.00170476,11,1.96707e-05,-3.27365,0.333795,0.176755,3.69821,0.0369374,
2,1,0,1,0,6009.37,0.0387526,0.0384442,0.540599,5,0.00178724,11,2.07829e-05,-3.26712,0.255755,0.230689,4.90052,0.0384442,
2,1,0,1,0,6009.52,0.0402508,0.0399595,0.548636,5,0.001871,11,2.19232e-05,-3.26072,0.258748,0.228021,4.89238,0.0399595,
2,1,0,1,0,6009.67,0.041749,0.0414738,0.55841,5,0.00195613,11,2.31594e-05,-3.25305,0.304274,0.193904,4.20796,0.04147378,
2,1,0,1,0,6009.82,0.0432472,0.0429584,0.566898,5,0.00204224,11,2.4353e-05,-3.2465,0.25843,0.228302,5.03038,0.0429584,
2,1,0,1,0,6009.97,0.0447458,0.0444637,0.575808,5,0.00212944,11,2.56025e-05,-3.23972,0.233648,0.252517,5.65243,0.0444637,
2,1,0,1,0,6010.12,0.0462433,0.0459589,0.582972,5,0.00221804,11,2.67927e-05,-3.23435,0.194057,0.304035,6.90206,0.0459589,
2,1,0,1,0,6010.27,0.0477409,0.0474078,0.592282,5,0.00230812,11,2.80788e-05,-3.22747,0.196638,0.300044,6.93812,0.0474078,
2,1,0,1,0,6010.42,0.0492399,0.0489709,0.601092,5,0.00239969,11,2.9436e-05,-3.22106,0.205727,0.286788,6.74996,0.0489709,
2,1,0,1,0,6010.57,0.0507381,0.050466,0.610022,5,0.00249257,11,3.07854e-05,-3.21465,0.212475,0.277679,6.649,0.050466,
2,1,0,1,0,6010.72,0.0522363,0.0519103,0.62177,5,0.00258715,11,3.22763e-05,-3.20637,0.176881,0.333558,8.09688,0.0519103,
2,1,0,1,0,6010.87,0.0537345,0.0534394,0.637719,5,0.00268359,11,3.40793e-05,-3.19537,0.190787,0.309245,7.66646,0.0534394,
2,1,0,1,0,6011.02,0.0552327,0.0549494,0.648022,5,0.00278177,11,3.56084e-05,-3.18841,0.209992,0.280963,7.07296,0.0549494,
2,1,0,1,0,6011.17,0.0567309,0.0564488,0.656588,5,0.00288165,11,3.70637e-05,-3.18271,0.196294,0.300569,7.73549,0.05644884,
2,1,0,1,0,6011.32,0.0582291,0.0579239,0.673004,5,0.00298314,11,3.8983e-05,-3.17198,0.176462,0.33435,8.77019,0.0579239,
2,1,0,1,0,6011.47,0.0597282,0.059423,0.685688,5,0.00308685,11,4.07457e-05,-3.16387,0.17942,0.328837,8.80109,0.059423,
2,1,0,1,0,6011.62,0.0612255,0.0609398,0.697966,5,0.00319249,11,4.25339e-05,-3.15617,0.200239,0.294648,7.98987,0.06093977,
2,1,0,1,0,6011.77,0.062723,0.0624692,0.710029,5,0.0033001,11,4.43549e-05,-3.14872,0.16642,0.354525,9.86041,0.0624692,
2,1,0,1,0,6011.92,0.0642218,0.0639353,0.724397,5,0.00340935,11,4.63145e-05,-3.14002,0.166999,0.353296,10.008,0.06393531,
2,1,0,1,0,6012.07,0.06572,0.0654284,0.738174,5,0.00352115,11,4.82975e-05,-3.13184,0.166898,0.35351,10.1804,0.0654284,
2,1,0,1,0,6012.22,0.0672182,0.0669161,0.752436,5,0.00363526,11,5.03501e-05,-3.12353,0.197767,0.29833,8.7342,0.0669161,
2,1,0,1,0,6012.37,0.0687164,0.0684516,0.766398,5,0.0037512,11,5.24611e-05,-3.11555,0.236957,0.24899,7.44455,0.0684516,
2,1,0,1,0,6012.52,0.0702146,0.0699181,0.778161,5,0.00386866,11,5.44076e-05,-3.10893,0.203049,0.29057,8.84416,0.0699181,
2,1,0,1,0,6012.67,0.0717128,0.071425,0.792888,5,0.00398835,11,5.6632e-05,-3.10079,0.183365,0.321762,9.94616,0.071425,
2,1,0,1,0,6012.82,0.073211,0.0728915,0.806083,5,0.00411028,11,5.87566e-05,-3.09362,0.206631,0.285533,8.98114,0.0728915,
2,1,0,1,0,6012.97,0.0747092,0.0744058,0.820884,5,0.00423418,11,6.10785e-05,-3.08572,0.227632,0.259191,8.29076,0.0744058,
2,1,0,1,0,6013.12,0.0762078,0.0758865,0.826698,5,0.00435977,11,6.27353e-05,-3.08265,0.226534,0.260447,8.44887,0.0758865,
2,1,0,1,0,6013.27,0.0777053,0.0774084,0.843321,5,0.00448718,11,6.52801e-05,-3.07401,0.212757,0.277312,9.12366,0.0774084,
2,1,0,1,0,6013.42,0.0792029,0.0789149,0.857427,5,0.00461659,11,6.76638e-05,-3.0668,0.231224,0.255164,8.51083,0.0789149,
2,1,0,1,0,6013.57,0.0807019,0.0803737,0.868286,5,0.00474797,11,6.97874e-05,-3.06134,0.296211,0.199182,6.72906,0.0803737,
2,1,0,1,0,6013.72,0.0822001,0.0819675,0.873595,5,0.00488078,11,7.16064e-05,-3.05869,0.297603,0.198251,6.78576,0.0819675,
2,1,0,1,0,6013.87,0.0836983,0.0833821,0.891169,5,0.00501507,11,7.43076e-05,-3.05004,0.282841,0.208598,7.248,0.0833821,
2,1,0,1,0,6014.02,0.0851965,0.0849091,0.89924,5,0.00515127,11,7.63536e-05,-3.04612,0.294369,0.200429,7.05729,0.0849091,
2,1,0,1,0,6014.17,0.0866947,0.0863947,0.91248,5,0.0052891,11,7.88335e-05,-3.03978,0.414214,0.142438,5.06157,0.0863947,
2,1,0,1,0,6014.32,0.0881929,0.0879196,0.920386,5,0.00542863,11,8.09199e-05,-3.03603,0.310915,0.189762,6.82612,0.0879196,
2,1,0,1,0,6014.47,0.0896911,0.0894169,0.934163,5,0.00556921,11,8.353e-05,-3.02958,0.301543,0.19566,7.13941,0.0894169,
2,1,0,1,0,6014.62,0.0911902,0.0909037,0.945606,5,0.00571184,11,8.5959e-05,-3.02429,0.275035,0.214518,7.89122,0.0909037,
2,1,0,1,0,6014.77,0.0926875,0.0923934,0.957668,5,0.00585633,11,8.84822e-05,-3.01878,0.278204,0.212075,7.90113,0.0923934,
2,1,0,1,0,6014.92,0.094185,0.0939137,0.967083,5,0.00600233,11,9.08224e-05,-3.01454,0.309345,0.190725,7.20425,0.0939137,
2,1,0,1,0,6015.07,0.0956838,0.0953785,0.974408,5,0.00614981,11,9.29376e-05,-3.01126,0.255287,0.231112,8.82354,0.0953785,
2,1,0,1,0,6015.22,0.097182,0.0968673,0.989018,5,0.00629918,11,9.58035e-05,-3.0048,0.219378,0.268942,10.3889,0.0968673,
2,1,0,1,0,6015.37,0.0986802,0.0983953,1.00424,5,0.00645068,11,9.88129e-05,-2.99816,0.241943,0.243859,9.56034,0.09839534,
2,1,0,1,0,6015.52,0.100178,0.0999011,1.01913,5,0.00660437,11,0.000101812,-2.99177,0.263601,0.223823,8.88858,0.0999011,
2,1,0,1,0,6015.67,0.101677,0.101349,1.02765,5,0.00675993,11,0.000104151,-2.98815,0.236232,0.249754,10.0785,0.101349,
2,1,0,1,0,6015.82,0.103175,0.102876,1.05178,5,0.00691784,11,0.000108203,-2.97807,0.205061,0.28772,11.8128,0.102876,
2,1,0,1,0,6015.97,0.104673,0.104394,1.07313,5,0.00707871,11,0.000112029,-2.96935,0.193428,0.305024,12.7356,0.104394,
2,1,0,1,0,6016.12,0.106171,0.105849,1.09105,5,0.00724267,11,0.000115487,-2.96215,0.195109,0.302394,12.8439,0.105849,
2,1,0,1,0,6016.27,0.10767,0.107396,1.10878,5,0.00740958,11,0.000119078,-2.95516,0.170342,0.346361,15.038,0.107396,
2,1,0,1,0,6016.42,0.109167,0.108914,1.13392,5,0.00757943,11,0.0001235,-2.94542,0.15592,0.378399,16.796,0.108914,
2,1,0,1,0,6016.57,0.110665,0.110318,1.15755,5,0.00775324,11,0.000127698,-2.93646,0.145789,0.404694,18.3449,0.110318,
2,1,0,1,0,6016.71,0.112164,0.111874,1.18884,5,0.00793151,11,0.000133,-2.92488,0.15263,0.386555,17.9002,0.111874,
2,1,0,1,0,6016.86,0.113662,0.113345,1.21558,5,0.00811371,11,0.00013778,-2.91522,0.146975,0.401428,19.0988,0.113345,
2,1,0,1,0,6017.01,0.11516,0.114867,1.24691,5,0.00829993,11,0.000143228,-2.90417,0.13948,0.423,20.5877,0.114867,
2,1,0,1,0,6017.16,0.116658,0.116364,1.27955,5,0.00849111,11,0.000148894,-2.89294,0.130642,0.451618,22.5146,0.116364,
2,1,0,1,0,6017.31,0.118157,0.117876,1.31507,5,0.00868764,11,0.000155015,-2.88105,0.135138,0.436591,22.3546,0.117876,
2,1,0,1,0,6017.46,0.119655,0.119362,1.34536,5,0.00888895,11,0.000160585,-2.87116,0.146523,0.402668,21.179,0.119362,
2,1,0,1,0,6017.61,0.121153,0.120872,1.37603,5,0.00909468,11,0.000166323,-2.86137,0.142509,0.41401,22.322,0.120872,
2,1,0,1,0,6017.76,0.122652,0.122373,1.41191,5,0.00930583,11,0.000172779,-2.85019,0.131788,0.447688,24.6417,0.122373,
2,1,0,1,0,6017.91,0.124149,0.123839,1.44818,5,0.00952228,11,0.00017934,-2.83918,0.147091,0.401112,22.6416,0.123839,
2,1,0,1,0,6018.06,0.125647,0.125339,1.47912,5,0.00974362,11,0.00018539,-2.83,0.168856,0.34941,20.1208,0.125339,
2,1,0,1,0,6018.21,0.127146,0.126822,1.50469,5,0.00996962,11,0.000190828,-2.82255,0.166389,0.354591,20.8836,0.126822,
2,1,0,1,0,6018.36,0.128644,0.128316,1.53959,5,0.0101997,11,0.000197553,-2.8126,0.17034,0.346366,20.7871,0.128316,
2,1,0,1,0,6018.51,0.130142,0.129858,1.57251,5,0.0104349,11,0.000204202,-2.80341,0.186585,0.31621,19.3562,0.1298576,
2,1,0,1,0,6018.66,0.13164,0.131308,1.59836,5,0.0106747,11,0.000209878,-2.79633,0.238323,0.247563,15.391,0.131308,
2,1,0,1,0,6018.81,0.133139,0.132826,1.62323,5,0.0109182,11,0.000215607,-2.78962,0.250475,0.235553,14.9281,0.132826,
2,1,0,1,0,6018.96,0.134637,0.134274,1.644,5,0.0111646,11,0.000220747,-2.7841,0.280191,0.210571,13.5191,0.134274,
2,1,0,1,0,6019.11,0.136135,0.135832,1.66673,5,0.0114147,11,0.000226396,-2.77813,0.288978,0.204168,13.2525,0.135832,
2,1,0,1,0,6019.26,0.137633,0.137371,1.68513,5,0.0116677,11,0.000231488,-2.77337,0.418104,0.141113,9.2293,0.1373706,
2,1,0,1,0,6019.41,0.139132,0.138816,1.69891,5,0.0119232,11,0.000235837,-2.76983,0.618804,0.0953452,6.28875,0.138816,
2,1,0,1,0,6019.56,0.140629,0.140331,1.6989,5,0.0121792,11,0.000238408,-2.76983,1.14399,0.0515739,3.41744,0.140331,
2,1,0,1,0,6019.71,0.142127,0.141874,1.7061,5,0.0124363,11,0.000242052,-2.768,2.59374,0.022747,1.50613,0.141874,
2,1,0,1,0,6019.86,0.143626,0.143366,1.70239,5,0.0126941,11,0.000244065,-2.76894,-0.939804,-0.062779,-4.14843,0.143366,
2,1,0,1,0,6020.01,0.145124,0.144826,1.68891,5,0.0129503,11,0.000244598,-2.77239,-0.306708,-0.192365,-12.6404,0.144826,
2,1,0,1,0,6020.16,0.146622,0.146313,1.66328,5,0.0132037,11,0.00024336,-2.77903,-0.241891,-0.243911,-15.8349,0.146313,
2,1,0,1,0,6020.31,0.14812,0.147822,1.64246,5,0.0134535,11,0.000242791,-2.78451,-0.193959,-0.304188,-19.4162,0.147822,
2,1,0,1,0,6020.46,0.149619,0.149337,1.61079,5,0.0136994,11,0.000240551,-2.79296,-0.150915,-0.390949,-24.4597,0.149337,
2,1,0,1,0,6020.61,0.151117,0.150817,1.57108,5,0.0139396,11,0.000236945,-2.8038,-0.1158,-0.509497,-31.052,0.150817,
2,1,0,1,0,6020.76,0.152615,0.152298,1.51687,5,0.014173,11,0.000231016,-2.81905,-0.101416,-0.581764,-34.3818,0.152298,
2,1,0,1,0,6020.91,0.154114,0.153821,1.46837,5,0.0143986,11,0.000225865,-2.83317,-0.092786,-0.635872,-36.3239,0.153821,
2,1,0,1,0,6021.06,0.155612,0.155334,1.41033,5,0.0146161,11,0.000219073,-2.85068,-0.0827434,-0.713048,-39.1071,0.155334,
2,1,0,1,0,6021.21,0.157109,0.156794,1.34888,5,0.014825,11,0.000211496,-2.87003,-0.0737282,-0.800236,-41.9498,0.156794,
2,1,0,1,0,6021.36,0.158608,0.158342,1.28554,5,0.0150245,11,0.000203555,-2.89091,-0.0718913,-0.820683,-41.1885,0.158342,
2,1,0,1,0,6021.51,0.160106,0.15982,1.22523,5,0.0152142,11,0.000195817,-2.91178,-0.069575,-0.848006,-40.5376,0.15982,
2,1,0,1,0,6021.66,0.161604,0.161377,1.1645,5,0.0153952,11,0.000187924,-2.93386,-0.0695583,-0.848209,-38.5554,0.161377,
2,1,0,1,0,6021.81,0.163102,0.162838,1.10847,5,0.0155674,11,0.000180502,-2.95528,-0.0677605,-0.870714,-37.6485,0.162838,
2,1,0,1,0,6021.96,0.164601,0.164356,1.05512,5,0.0157314,11,0.000173415,-2.9767,-0.0699031,-0.844025,-34.759,0.164356,
2,1,0,1,0,6022.11,0.166099,0.165759,1.00347,5,0.0158872,11,0.000166333,-2.9985,-0.0708927,-0.832244,-32.6972,0.165759,
2,1,0,1,0,6022.26,0.167597,0.167345,0.957833,5,0.0160361,11,0.000160289,-3.01871,-0.0827529,-0.712966,-26.7547,0.167345,
2,1,0,1,0,6022.41,0.169095,0.168808,0.920315,5,0.0161788,11,0.000155357,-3.03606,-0.0812387,-0.726255,-26.087,0.168808,
2,1,0,1,0,6022.56,0.170594,0.170324,0.881115,5,0.0163158,11,0.000150075,-3.05497,-0.0832344,-0.708842,-24.4931,0.170324,
2,1,0,1,0,6022.71,0.172091,0.171799,0.844107,5,0.0164469,11,0.000145016,-3.0736,-0.0968301,-0.609315,-20.2325,0.171799,
2,1,0,1,0,6022.86,0.173589,0.173288,0.817779,5,0.0165736,11,0.000141711,-3.08736,-0.105124,-0.56124,-17.9259,0.173288,
2,1,0,1,0,6023.01,0.175088,0.174825,0.790681,5,0.0166961,11,0.000138231,-3.102,-0.107747,-0.547578,-16.9506,0.174825,
2,1,0,1,0,6023.16,0.176586,0.176289,0.76977,5,0.0168149,11,0.000135702,-3.11364,-0.112207,-0.525812,-15.7319,0.176289,
2,1,0,1,0,6023.31,0.178084,0.177817,0.74109,5,0.0169302,11,0.000131778,-3.13013,-0.127291,-0.463505,-13.507,0.177817,
2,1,0,1,0,6023.46,0.179582,0.17933,0.726388,5,0.0170423,11,0.000130263,-3.13883,-0.136505,-0.432219,-12.3039,0.17933,
2,1,0,1,0,6023.61,0.181081,0.180807,0.710454,5,0.0171519,11,0.000128455,-3.14846,-0.14861,-0.397013,-11.0283,0.180807,
2,1,0,1,0,6023.76,0.182579,0.182304,0.694675,5,0.0172593,11,0.000126642,-3.15822,-0.146073,-0.403908,-10.9499,0.182304,
2,1,0,1,0,6023.91,0.184077,0.183767,0.681313,5,0.0173642,11,0.000125203,-3.16665,-0.173117,-0.34081,-9.09824,0.183767,
2,1,0,1,0,6024.06,0.185576,0.185267,0.669586,5,0.0174671,11,0.000124052,-3.17419,-0.184704,-0.31943,-8.34032,0.185267,
2,1,0,1,0,6024.21,0.187074,0.186786,0.657791,5,0.0175683,11,0.000122866,-3.18191,-0.227664,-0.259154,-6.62847,0.186786,
2,1,0,1,0,6024.36,0.188571,0.188275,0.645323,5,0.0176679,11,0.000121498,-3.19022,-0.231321,-0.255057,-6.43254,0.188275,
2,1,0,1,0,6024.51,0.19007,0.1898,0.63788,5,0.017766,11,0.00012107,-3.19526,-0.221114,-0.26683,-6.63056,0.1898,
2,1,0,1,0,6024.66,0.191568,0.191298,0.627,5,0.0178626,11,0.000119944,-3.20273,-0.268603,-0.219655,-5.37787,0.191298,
2,1,0,1,0,6024.81,0.193066,0.192756,0.617919,5,0.0179579,11,0.000119107,-3.20907,-0.369505,-0.159673,-3.84712,0.192756,
2,1,0,1,0,6024.95,0.194564,0.194252,0.613025,5,0.0180523,11,0.000119081,-3.21252,-0.273466,-0.215749,-5.16191,0.194252,
2,1,0,1,0,6025.1,0.196063,0.195771,0.602786,5,0.0181456,11,0.000118008,-3.21984,-0.282966,-0.208506,-4.93025,0.195771,
2,1,0,1,0,6025.25,0.197561,0.197246,0.596027,5,0.0182377,11,0.000117564,-3.22473,-0.306093,-0.192752,-4.5109,0.197246,
2,1,0,1,0,6025.4,0.199059,0.19878,0.592139,5,0.0183289,11,0.000117705,-3.22758,-0.373829,-0.157826,-3.64463,0.19878,
2,1,0,1,0,6025.55,0.200557,0.20026,0.588581,5,0.0184193,11,0.000117869,-3.23019,-0.317603,-0.185767,-4.25615,0.2002601,
2,1,0,1,0,6025.7,0.202056,0.201777,0.581921,5,0.018509,11,0.000117418,-3.23514,-0.345915,-0.170562,-3.85836,0.201777,
2,1,0,1,0,6025.85,0.203553,0.203317,0.576451,5,0.0185979,11,0.000117202,-3.23924,-0.405281,-0.145578,-3.28794,0.203317,
2,1,0,1,0,6026,0.205051,0.204776,0.569855,5,0.0186858,11,0.000116693,-3.24424,-1.09795,-0.0537363,-1.20928,0.204776,
2,1,0,1,0,6026.15,0.20655,0.206237,0.568264,5,0.0187734,11,0.000117197,-3.24545,-0.508825,-0.115953,-2.57757,0.206237,
2,1,0,1,0,6026.3,0.208048,0.207734,0.56396,5,0.0188607,11,0.000117154,-3.24875,-0.351352,-0.167923,-3.68652,0.207734,
2,1,0,1,0,6026.45,0.209546,0.209291,0.561994,5,0.0189471,11,0.00011762,-3.25027,-0.471278,-0.125192,-2.74619,0.209291,
2,1,0,1,0,6026.6,0.211044,0.210748,0.557122,5,0.0190327,11,0.000117412,-3.25405,-0.455731,-0.129462,-2.80682,0.210748,
2,1,0,1,0,6026.75,0.212543,0.212268,0.554192,5,0.019118,11,0.000117637,-3.25634,-0.620714,-0.0950519,-2.05275,0.212268,
2,1,0,1,0,6026.9,0.214041,0.213755,0.550247,5,0.0192028,11,0.000117618,-3.25944,-0.494767,-0.119248,-2.56187,0.213755,
2,1,0,1,0,6027.05,0.215539,0.215252,0.547088,5,0.0192871,11,0.000117762,-3.26194,-0.483533,-0.122019,-2.61137,0.215252,
2,1,0,1,0,6027.2,0.217038,0.216764,0.544284,5,0.0193708,11,0.000117981,-3.26417,-0.865137,-0.0681973,-1.44899,0.216764,
2,1,0,1,0,6027.35,0.218535,0.218268,0.542338,5,0.0194542,11,0.000118375,-3.26573,-1.79648,-0.0328421,-0.694066,0.218268,
2,1,0,1,0,6027.5,0.220033,0.219784,0.539128,5,0.0195374,11,0.000118491,-3.26831,-1.14741,-0.0514203,-1.08322,0.219784,
2,1,0,1,0,6027.65,0.221532,0.221264,0.53711,5,0.0196202,11,0.000118843,-3.26994,-0.616872,-0.0956438,-2.00783,0.2212636,
2,1,0,1,0,6027.8,0.22303,0.222764,0.529975,5,0.0197024,11,0.000118059,-3.27574,-0.87105,-0.0677343,-1.40985,0.222764,
2,1,0,1,0,6027.95,0.224528,0.224228,0.5309,5,0.0197842,11,0.000119043,-3.27499,-0.836339,-0.0705456,-1.46209,0.224228,
2,1,0,1,0,6028.1,0.226026,0.225748,0.530725,5,0.0198659,11,0.00011981,-3.27513,-1.04159,-0.0566439,-1.17144,0.225748,
2,1,0,1,0,6028.25,0.227525,0.227242,0.527757,5,0.0199472,11,0.000119929,-3.27757,-0.582104,-0.101357,-2.07913,0.227242,
2,1,0,1,0,6028.4,0.229023,0.228702,0.525406,5,0.0200281,11,0.000120162,-3.2795,-0.918505,-0.0642348,-1.32013,0.228702,
2,1,0,1,0,6028.55,0.230521,0.230217,0.523166,5,0.0201086,11,0.000120441,-3.28136,-1.76581,-0.0334124,-0.684624,0.230217,
2,1,0,1,0,6028.7,0.232019,0.231693,0.522809,5,0.0201891,11,0.000121131,-3.28166,-1.37913,-0.0427807,-0.873959,0.231693,
2,1,0,1,0,6028.85,0.233518,0.233244,0.520768,5,0.0202693,11,0.000121466,-3.28336,-0.844232,-0.069886,-1.41686,0.233244,
2,1,0,1,0,6029,0.235015,0.234727,0.520312,5,0.0203492,11,0.000122131,-3.28374,-1.23382,-0.0478189,-0.967549,0.234727,
2,1,0,1,0,6029.15,0.236513,0.236189,0.517173,5,0.0204287,11,0.000122151,-3.28636,-1.21528,-0.0485484,-0.97883,0.236189,
2,1,0,1,0,6029.3,0.238012,0.237717,0.51584,5,0.0205082,11,0.000122624,-3.28749,-1.49697,-0.0394129,-0.791786,0.237717,
2,1,0,1,0,6029.45,0.23951,0.239224,0.513942,5,0.0205873,11,0.000122947,-3.28909,-0.898639,-0.0656549,-1.31596,0.2392237,
2,1,0,1,0,6029.6,0.241008,0.240701,0.51076,5,0.0206663,11,0.00012294,-3.29178,-1.06216,-0.0555473,-1.11206,0.240701,
2,1,0,1,0,6029.75,0.242506,0.242207,0.509909,5,0.0207448,11,0.000123503,-3.29251,-1.12012,-0.052673,-1.05097,0.2422066,
2,1,0,1,0,6029.9,0.244005,0.243708,0.509436,5,0.0208233,11,0.000124154,-3.29291,-3.80374,-0.0155111,-0.30787,0.243708,
2,1,0,1,0,6030.05,0.245503,0.245235,0.50968,5,0.0209017,11,0.000124992,-3.2927,-1.19807,-0.0492458,-0.974576,0.245235,
2,1,0,1,0,6030.2,0.247001,0.24676,0.507657,5,0.0209798,11,0.000125269,-3.29443,-0.72065,-0.0818705,-1.61951,0.24676,
2,1,0,1,0,6030.35,0.2485,0.248161,0.504017,5,0.0210577,11,0.000125078,-3.29755,-1.37719,-0.0428409,-0.841376,0.248161,
2,1,0,1,0,6030.5,0.249997,0.24975,0.505035,5,0.0211353,11,0.000126132,-3.29668,-1.61169,-0.0366076,-0.721267,0.2497495,
2,1,0,1,0,6030.65,0.251495,0.251213,0.502488,5,0.0212128,11,0.000126232,-3.29887,-3.09825,-0.019043,-0.373259,0.251213,
2,1,0,1,0,6030.8,0.252994,0.252741,0.502151,5,0.0212902,11,0.000126914,-3.29917,-0.890066,-0.0662872,-1.29651,0.252741,
2,1,0,1,0,6030.95,0.254492,0.254198,0.498651,5,0.0213673,11,0.000126756,-3.3022,-1.46295,-0.0403293,-0.784269,0.254198,
2,1,0,1,0,6031.1,0.25599,0.255725,0.49868,5,0.0214441,11,0.000127525,-3.30218,-8.89064,-0.00663619,-0.12989,0.255725,
2,1,0,1,0,6031.25,0.257488,0.257188,0.498666,5,0.0215209,11,0.000128251,-3.30219,-1.23913,-0.0476139,-0.923326,0.257188,
2,1,0,1,0,6031.4,0.258987,0.258707,0.498515,5,0.0215976,11,0.000128969,-3.30232,-2.13111,-0.027685,-0.537651,0.258707,
2,1,0,1,0,6031.55,0.260485,0.260212,0.494926,5,0.0216741,11,0.000128786,-3.30546,-1.08156,-0.0545509,-1.05535,0.260212,
2,1,0,1,0,6031.7,0.261983,0.261678,0.495025,5,0.0217502,11,0.000129537,-3.30537,-0.892076,-0.0661379,-1.27807,0.2616778,
2,1,0,1,0,6031.85,0.263481,0.263198,0.492967,5,0.0218263,11,0.000129748,-3.30718,-6.03888,-0.00977003,-0.187661,0.263198,
2,1,0,1,0,6032,0.26498,0.264717,0.493195,5,0.0219023,11,0.000130557,-3.30698,-1.50966,-0.0390817,-0.752186,0.2647174,
2,1,0,1,0,6032.15,0.266477,0.266212,0.490549,5,0.0219782,11,0.00013059,-3.30932,-1.43399,-0.041144,-0.790376,0.266212,
2,1,0,1,0,6032.3,0.267976,0.26767,0.489028,5,0.0220538,11,0.000130898,-3.31067,-1.58612,-0.0371976,-0.713356,0.26767,
2,1,0,1,0,6032.45,0.269474,0.26923,0.489144,5,0.0221293,11,0.000131692,-3.31056,-13.5821,-0.00434395,-0.082822,0.26923,
2,1,0,1,0,6032.6,0.270972,0.27069,0.492252,5,0.0222047,11,0.000133248,-3.30781,-1.61612,-0.0365072,-0.696086,0.2706902,
2,1,0,1,0,6032.75,0.27247,0.272172,0.487987,5,0.02228,11,0.000132816,-3.31159,-1.502,-0.039281,-0.746145,0.272172,
2,1,0,1,0,6032.9,0.273968,0.273668,0.484153,5,0.022355,11,0.000132497,-3.31502,-1.58512,-0.0372211,-0.706749,0.273668,
2,1,0,1,0,6033.05,0.275467,0.275168,0.484571,5,0.0224299,11,0.000133339,-3.31464,-1.76644,-0.0334005,-0.633206,0.275168,
2,1,0,1,0,6033.19,0.276965,0.276669,0.483941,5,0.0225046,11,0.000133891,-3.31521,-1.19212,-0.0494915,-0.938417,0.276669,
2,1,0,1,0,6033.34,0.278463,0.278185,0.4841,5,0.0225794,11,0.000134669,-3.31506,-0.875947,-0.0673556,-1.26931,0.278185,
2,1,0,1,0,6033.49,0.279962,0.279675,0.482829,5,0.0226539,11,0.000135035,-3.31621,-1.89753,-0.031093,-0.586411,0.279675,
2,1,0,1,0,6033.64,0.281459,0.281163,0.483077,5,0.0227282,11,0.000135823,-3.31598,-2.92703,-0.020157,-0.379798,0.281163,
2,1,0,1,0,6033.79,0.282957,0.282687,0.48258,5,0.0228024,11,0.000136419,-3.31643,-1.778,-0.0331834,-0.623449,0.282687,
2,1,0,1,0,6033.94,0.284456,0.284184,0.481266,5,0.0228767,11,0.000136768,-3.31761,-9.68662,-0.00609087,-0.113889,0.284184,
2,1,0,1,0,6034.09,0.285954,0.285681,0.479778,5,0.0229507,11,0.000137064,-3.31896,-2.65951,-0.0221846,-0.414536,0.285681,
2,1,0,1,0,6034.24,0.287452,0.287163,0.47879,5,0.0230244,11,0.00013749,-3.31986,-1.36951,-0.0430811,-0.805685,0.287163,
2,1,0,1,0,6034.39,0.28895,0.288666,0.477341,5,0.0230981,11,0.000137792,-3.32117,8.94947,0.00659257,0.122767,0.288666,
2,1,0,1,0,6034.54,0.290449,0.290166,0.476785,5,0.0231717,11,0.000138347,-3.32168,-4.02626,-0.0146538,-0.273948,0.290166,
2,1,0,1,0,6034.69,0.291947,0.291641,0.476177,5,0.0232452,11,0.000138872,-3.32223,-1.00811,-0.0585252,-1.08936,0.291641,
2,1,0,1,0,6034.84,0.293445,0.293117,0.474434,5,0.0233185,11,0.000139065,-3.32382,-2.14231,-0.0275403,-0.511957,0.293117,
2,1,0,1,0,6034.99,0.294943,0.294641,0.475756,5,0.0233916,11,0.000140177,-3.32262,-4.49529,-0.0131248,-0.242665,0.294641,
2,1,0,1,0,6035.14,0.296442,0.296188,0.478531,5,0.0234648,11,0.000141735,-3.32009,-4.79532,-0.0123037,-0.227415,0.296188,
2,1,0,1,0,6035.29,0.297939,0.297653,0.473845,5,0.0235379,11,0.000141041,-3.32436,-2.12794,-0.0277263,-0.510275,0.2976529,
2,1,0,1,0,6035.44,0.299437,0.299108,0.470413,5,0.0236107,11,0.000140704,-3.32752,-0.00105068,-56.1543,-267.767,0.299108,
2,1,0,1,0,6035.53,0.299738,0.299459,0.106514,5,0.0236424,11,3.18966e-05,-3.97259,0.0013989,42.1759,433.768,0.299459,
2,0,0,1,0,6035.68,0.29824,0.297966,-0.0488482,5,0.0236391,11,-1.45551e-05,-4.31115,0.00521677,11.3097,149.17,0.297966,
2,0,0,1,0,6035.83,0.296741,0.296388,-0.0781044,5,0.0236272,11,-2.31492e-05,-4.10732,-0.00864567,-6.82423,16.8641,0.296388,
2,0,0,1,0,6035.98,0.295243,0.294912,-0.0988626,5,0.0236116,11,-2.91558e-05,-4.00497,-0.0191881,-3.07481,11.1088,0.294912,
2,0,0,1,0,6036.13,0.293745,0.293433,-0.114259,5,0.0235936,11,-3.35274e-05,-3.94211,-0.026045,-2.26531,9.75904,0.293433,
2,0,0,1,0,6036.28,0.292246,0.291958,-0.126217,5,0.0235736,11,-3.68499e-05,-3.89888,-0.035558,-1.65926,7.97574,0.291958,
2,0,0,1,0,6036.43,0.290748,0.29046,-0.136967,5,0.0235519,11,-3.97836e-05,-3.86338,-0.0459466,-1.2841,6.75267,0.29046,
2,0,0,1,0,6036.58,0.28925,0.288997,-0.146139,5,0.0235285,11,-4.22338e-05,-3.83523,-0.0539894,-1.09281,6.18478,0.288997,
2,0,0,1,0,6036.73,0.287752,0.287449,-0.155436,5,0.0235038,11,-4.468e-05,-3.80845,-0.0646907,-0.912033,5.53975,0.287449,
2,0,0,1,0,6036.88,0.286253,0.285968,-0.161945,5,0.023478,11,-4.63111e-05,-3.79063,-0.0798552,-0.738838,4.68239,0.285968,
2,0,0,1,0,6037.03,0.284755,0.284477,-0.169233,5,0.023451,11,-4.81431e-05,-3.77151,-0.069677,-0.846764,5.57438,0.284477,
2,0,0,1,0,6037.18,0.283258,0.282966,-0.177981,5,0.0234228,11,-5.03626e-05,-3.74963,-0.086423,-0.682689,4.71777,0.282966,
2,0,0,1,0,6037.33,0.281759,0.281471,-0.183048,5,0.0233937,11,-5.15229e-05,-3.73743,-0.0913272,-0.646029,4.60302,0.281471,
2,0,0,1,0,6037.48,0.280261,0.279979,-0.186404,5,0.0233637,11,-5.21891e-05,-3.72955,-0.0970122,-0.608171,4.47458,0.279979,
2,0,0,1,0,6037.63,0.278763,0.278464,-0.195716,5,0.0233329,11,-5.44999e-05,-3.70837,-0.111283,-0.530179,4.015,0.278464,
2,0,0,1,0,6037.77,0.277264,0.276987,-0.200304,5,0.0233011,11,-5.54817e-05,-3.69831,-0.119709,-0.492862,3.8597,0.2769869,
2,0,0,1,0,6037.92,0.275766,0.275473,-0.20592,5,0.0232685,11,-5.67252e-05,-3.6863,-0.18405,-0.320565,2.55478,0.275473,
2,0,0,1,0,6038.07,0.274268,0.273982,-0.211157,5,0.0232351,11,-5.78532e-05,-3.67539,-0.168298,-0.350569,2.90517,0.273982,
2,0,0,1,0,6038.22,0.27277,0.272462,-0.215165,5,0.0232012,11,-5.86243e-05,-3.66723,-0.153811,-0.383588,3.25768,0.272462,
2,0,0,1,0,6038.37,0.271272,0.270993,-0.222292,5,0.0231663,11,-6.02397e-05,-3.65308,-0.153897,-0.383372,3.30692,0.270993,
2,0,0,1,0,6038.52,0.269773,0.269464,-0.224267,5,0.0231307,11,-6.04318e-05,-3.64924,-0.198284,-0.297553,2.60057,0.269464,
2,0,0,1,0,6038.67,0.268275,0.267972,-0.231816,5,0.0230945,11,-6.212e-05,-3.63486,-0.162205,-0.363738,3.26378,0.267972,
2,0,0,1,0,6038.82,0.266778,0.266468,-0.234548,5,0.0230579,11,-6.24996e-05,-3.62977,-0.143082,-0.41235,3.74488,0.266468,
2,0,0,1,0,6038.97,0.265279,0.264991,-0.239117,5,0.0230202,11,-6.33638e-05,-3.62139,-0.129402,-0.455944,4.23068,0.264991,
2,0,0,1,0,6039.12,0.263781,0.263455,-0.240922,5,0.0229821,11,-6.3472e-05,-3.61812,-0.192781,-0.306048,2.9054,0.263455,
2,0,0,1,0,6039.27,0.262283,0.261968,-0.245345,5,0.0229433,11,-6.42726e-05,-3.61022,-0.201824,-0.292335,2.82455,0.261968,
2,0,0,1,0,6039.42,0.260784,0.260506,-0.249449,5,0.0229041,11,-6.49831e-05,-3.60302,-0.222692,-0.26494,2.59276,0.260506,
2,0,0,1,0,6039.57,0.259286,0.25899,-0.255933,5,0.0228641,11,-6.62839e-05,-3.59187,-0.187484,-0.314693,3.1271,0.25899,
2,0,0,1,0,6039.72,0.257788,0.25749,-0.259579,5,0.0228235,11,-6.6839e-05,-3.58573,-0.230296,-0.256192,2.58883,0.25749,
2,0,0,1,0,6039.87,0.25629,0.255995,-0.263328,5,0.0227822,11,-6.74108e-05,-3.5795,-0.320667,-0.183992,1.88924,0.255995,
2,0,0,1,0,6040.02,0.254791,0.254496,-0.263437,5,0.0227405,11,-6.70437e-05,-3.57932,-0.240607,-0.245213,2.54143,0.2544961,
2,0,0,1,0,6040.17,0.253293,0.252985,-0.271403,5,0.0226983,11,-6.86611e-05,-3.56638,-0.254618,-0.23172,2.45287,0.252985,
2,0,0,1,0,6040.32,0.251796,0.251507,-0.273316,5,0.0226555,11,-6.87408e-05,-3.56333,-0.346125,-0.170459,1.82729,0.251507,
2,0,0,1,0,6040.47,0.250297,0.250008,-0.277452,5,0.0226121,11,-6.93653e-05,-3.55681,-0.33524,-0.175993,1.90926,0.250008,
2,0,0,1,0,6040.62,0.248799,0.248497,-0.278628,5,0.0225681,11,-6.92383e-05,-3.55497,-0.281901,-0.209294,2.2915,0.248497,
2,0,0,1,0,6040.77,0.247301,0.247007,-0.285534,5,0.0225238,11,-7.05289e-05,-3.54434,-0.250871,-0.235181,2.62883,0.2470071,
2,0,0,1,0,6040.92,0.245802,0.245509,-0.288778,5,0.0224788,11,-7.08976e-05,-3.53944,-0.292832,-0.201481,2.25472,0.2455087,
2,0,0,1,0,6041.07,0.244304,0.24398,-0.294841,5,0.0224331,11,-7.19352e-05,-3.53041,-0.275195,-0.214394,2.44369,0.24398,
2,0,0,1,0,6041.22,0.242806,0.242464,-0.295211,5,0.022387,11,-7.15781e-05,-3.52987,-0.35763,-0.164975,1.89575,0.242464,
2,0,0,1,0,6041.37,0.241308,0.240983,-0.299494,5,0.0223405,11,-7.21728e-05,-3.52361,-0.362475,-0.16277,1.90224,0.240983,
2,0,0,1,0,6041.52,0.23981,0.239495,-0.301254,5,0.0222934,11,-7.21489e-05,-3.52107,-0.232582,-0.253674,2.97314,0.239495,
2,0,0,1,0,6041.67,0.238311,0.237985,-0.30588,5,0.0222457,11,-7.27948e-05,-3.51445,-0.262396,-0.224851,2.69571,0.237985,
2,0,0,1,0,6041.82,0.236814,0.236488,-0.308887,5,0.0221975,11,-7.30482e-05,-3.5102,-0.260923,-0.226121,2.7262,0.236488,
2,0,0,1,0,6041.97,0.235316,0.235075,-0.31078,5,0.0221489,11,-7.30566e-05,-3.50755,-0.306769,-0.192327,2.35523,0.235075,
2,0,0,1,0,6042.12,0.233817,0.233513,-0.316646,5,0.0220997,11,-7.39411e-05,-3.49943,-0.230938,-0.25548,3.14437,0.233513,
2,0,0,1,0,6042.27,0.232319,0.232045,-0.321042,5,0.0220499,11,-7.44961e-05,-3.49344,-0.31476,-0.187444,2.33659,0.232045,
2,0,0,1,0,6042.42,0.230821,0.230515,-0.323641,5,0.0219995,11,-7.4604e-05,-3.48994,-0.417395,-0.141353,1.77465,0.230515,
2,0,0,1,0,6042.57,0.229322,0.229033,-0.32588,5,0.0219487,11,-7.46374e-05,-3.48694,-0.311496,-0.189408,2.41515,0.229033,
2,0,0,1,0,6042.72,0.227824,0.227549,-0.330208,5,0.0218975,11,-7.51383e-05,-3.48121,-0.270704,-0.217951,2.82399,0.227549,
2,0,0,1,0,6042.87,0.226326,0.226025,-0.334782,5,0.0218455,11,-7.56691e-05,-3.47524,-0.376543,-0.156689,2.04928,0.226025,
2,0,0,1,0,6043.02,0.224828,0.224528,-0.338354,5,0.021793,11,-7.59697e-05,-3.47063,-0.527686,-0.111809,1.47826,0.224528,
2,0,0,1,0,6043.17,0.223329,0.223001,-0.343716,5,0.0217399,11,-7.66489e-05,-3.4638,-0.279724,-0.210922,2.81898,0.223001,
2,0,0,1,0,6043.32,0.221831,0.221554,-0.347672,5,0.0216864,11,-7.70282e-05,-3.45883,-0.309536,-0.190608,2.57761,0.221554,
2,0,0,1,0,6043.47,0.220334,0.220072,-0.349013,5,0.0216323,11,-7.68081e-05,-3.45716,-0.258957,-0.227837,3.09638,0.220072,
2,0,0,1,0,6043.62,0.218835,0.218545,-0.354336,5,0.0215773,11,-7.74383e-05,-3.45058,-0.266276,-0.221575,3.06415,0.218545,
2,0,0,1,0,6043.77,0.217337,0.217003,-0.359224,5,0.0215219,11,-7.79526e-05,-3.44464,-0.327496,-0.180155,2.52265,0.217003,
2,0,0,1,0,6043.92,0.215839,0.215531,-0.361141,5,0.0214661,11,-7.78371e-05,-3.44232,-0.273885,-0.215419,3.04677,0.215531,
2,0,0,1,0,6044.07,0.21434,0.21402,-0.364769,5,0.0214095,11,-7.80679e-05,-3.43798,-0.198407,-0.297369,4.23396,0.21402,
2,0,0,1,0,6044.22,0.212842,0.212505,-0.370949,5,0.0213522,11,-7.88283e-05,-3.43069,-0.315934,-0.186748,2.69846,0.212505,
2,0,0,1,0,6044.37,0.211344,0.211035,-0.375166,5,0.0212942,11,-7.91731e-05,-3.42578,-0.312232,-0.188962,2.76284,0.211035,
2,0,0,1,0,6044.52,0.209846,0.20955,-0.376936,5,0.0212357,11,-7.89871e-05,-3.42373,-0.304986,-0.193451,2.86966,0.20955,
2,0,0,1,0,6044.67,0.208348,0.208027,-0.385783,5,0.0211765,11,-8.02531e-05,-3.41366,-0.25598,-0.230487,3.46552,0.208027,
2,0,0,1,0,6044.82,0.206849,0.206551,-0.394362,5,0.0211163,11,-8.14557e-05,-3.40411,-0.26089,-0.226149,3.44456,0.206551,
2,0,0,1,0,6044.97,0.205352,0.20506,-0.394618,5,0.0210554,11,-8.09204e-05,-3.40382,-0.336119,-0.175533,2.69554,0.20506,
2,0,0,1,0,6045.12,0.203854,0.20351,-0.398214,5,0.0209938,11,-8.10407e-05,-3.39988,-0.248644,-0.237287,3.70244,0.20351,
2,0,0,1,0,6045.27,0.202355,0.202052,-0.404373,5,0.0209317,11,-8.17045e-05,-3.39322,-0.249045,-0.236905,3.75799,0.202052,
2,0,0,1,0,6045.42,0.200857,0.200541,-0.411462,5,0.0208685,11,-8.2515e-05,-3.38567,-0.246864,-0.238998,3.8335,0.200541,
2,0,0,1,0,6045.57,0.199359,0.199037,-0.416331,5,0.0208045,11,-8.28654e-05,-3.38056,-0.245349,-0.240474,3.89009,0.199037,
2,0,0,1,0,6045.72,0.19786,0.197576,-0.423482,5,0.0207395,11,-8.367e-05,-3.37316,-0.232902,-0.253326,4.17764,0.197576,
2,0,0,1,0,6045.87,0.196362,0.196097,-0.429644,5,0.0206738,11,-8.42519e-05,-3.36689,-0.219953,-0.268239,4.48244,0.196097,
2,0,0,1,0,6046.01,0.194864,0.194548,-0.435808,5,0.020607,11,-8.47855e-05,-3.3607,-0.186613,-0.316162,5.36126,0.194548,
2,0,0,1,0,6046.16,0.193366,0.19304,-0.443608,5,0.0205389,11,-8.5634e-05,-3.353,-0.200512,-0.294247,5.08639,0.1930398,
2,0,0,1,0,6046.31,0.191867,0.191555,-0.451363,5,0.0204697,11,-8.6461e-05,-3.34547,-0.2245,-0.262806,4.65294,0.191555,
2,0,0,1,0,6046.46,0.190369,0.190061,-0.456817,5,0.0203997,11,-8.68228e-05,-3.34026,-0.193458,-0.304976,5.47694,0.190061,
2,0,0,1,0,6046.61,0.188872,0.188525,-0.467239,5,0.0203283,11,-8.80862e-05,-3.33046,-0.148055,-0.398501,7.25874,0.188525,
2,0,0,1,0,6046.76,0.187373,0.187092,-0.476645,5,0.0202555,11,-8.91766e-05,-3.3218,-0.15415,-0.382744,7.11663,0.187092,
2,0,0,1,0,6046.91,0.185875,0.185592,-0.487354,5,0.0201813,11,-9.04488e-05,-3.31216,-0.169936,-0.34719,6.57705,0.185592,
2,0,0,1,0,6047.06,0.184377,0.184073,-0.492894,5,0.0201056,11,-9.07284e-05,-3.30725,-0.163202,-0.361514,6.98877,0.184073,
2,0,0,1,0,6047.21,0.182878,0.18262,-0.509337,5,0.0200284,11,-9.30153e-05,-3.29299,-0.149253,-0.395303,7.85202,0.18262,
2,0,0,1,0,6047.36,0.18138,0.181069,-0.520778,5,0.0199494,11,-9.42967e-05,-3.28335,-0.139093,-0.424177,8.61039,0.181069,
2,0,0,1,0,6047.51,0.179882,0.179556,-0.531258,5,0.0198684,11,-9.53903e-05,-3.27469,-0.16114,-0.366142,7.61116,0.179556,
2,0,0,1,0,6047.66,0.178384,0.178058,-0.544876,5,0.0197855,11,-9.70198e-05,-3.2637,-0.137929,-0.427755,9.12963,0.178058,
2,0,0,1,0,6047.81,0.176886,0.176581,-0.562608,5,0.0197006,11,-9.9346e-05,-3.24979,-0.128341,-0.459714,10.1194,0.176581,
2,0,0,1,0,6047.96,0.175387,0.175016,-0.580605,5,0.0196131,11,-0.000101615,-3.23612,-0.114813,-0.513879,11.6003,0.175016,
2,0,0,1,0,6048.11,0.17389,0.173596,-0.599154,5,0.019523,11,-0.000104011,-3.22246,-0.105755,-0.557892,13.0099,0.173596,
2,0,0,1,0,6048.26,0.172392,0.172089,-0.615026,5,0.0194302,11,-0.000105839,-3.21111,-0.103062,-0.57247,13.7597,0.172089,
2,0,0,1,0,6048.41,0.170893,0.170591,-0.63798,5,0.0193345,11,-0.000108834,-3.19519,-0.0943297,-0.625466,15.6022,0.170591,
2,0,0,1,0,6048.56,0.169395,0.169112,-0.659016,5,0.0192353,11,-0.000111447,-3.1811,-0.0866544,-0.680866,17.5269,0.169112,
2,0,0,1,0,6048.71,0.167897,0.167601,-0.686331,5,0.0191322,11,-0.00011503,-3.16347,-0.0879401,-0.670911,18.0628,0.167601,
2,0,0,1,0,6048.86,0.166398,0.166084,-0.713456,5,0.0190252,11,-0.000118494,-3.14663,-0.0865148,-0.681964,19.0973,0.166084,
2,0,0,1,0,6049.01,0.1649,0.164608,-0.743882,5,0.0189139,11,-0.000122449,-3.1285,-0.0788263,-0.748481,21.8794,0.1646082,
2,0,0,1,0,6049.16,0.163402,0.163105,-0.779931,5,0.0187977,11,-0.00012721,-3.10794,-0.0744399,-0.792585,24.1412,0.163105,
2,0,0,1,0,6049.31,0.161904,0.161592,-0.821442,5,0.018676,11,-0.000132739,-3.08542,-0.0704676,-0.837264,26.7915,0.161592,
2,0,0,1,0,6049.46,0.160405,0.160125,-0.860619,5,0.0185482,11,-0.000137807,-3.06519,-0.0697374,-0.84603,28.3503,0.160125,
2,0,0,1,0,6049.61,0.158907,0.158629,-0.90146,5,0.0184141,11,-0.000142998,-3.04505,-0.0662317,-0.890813,31.5337,0.158629,
2,0,0,1,0,6049.76,0.15741,0.157159,-0.952167,5,0.0182732,11,-0.000149642,-3.02129,-0.063667,-0.926697,34.6231,0.157159,
2,0,0,1,0,6049.91,0.155911,0.155628,-1.00628,5,0.0181243,11,-0.000156605,-2.99728,-0.0645623,-0.913846,35.9703,0.155628,
2,0,0,1,0,6050.06,0.154413,0.154094,-1.05988,5,0.0179671,11,-0.000163322,-2.97474,-0.0679715,-0.868011,35.841,0.154094,
2,0,0,1,0,6050.21,0.152915,0.152584,-1.11826,5,0.0178017,11,-0.000170628,-2.95146,-0.0680249,-0.86733,37.8639,0.152584,
2,0,0,1,0,6050.36,0.151417,0.151094,-1.17569,5,0.0176281,11,-0.00017764,-2.92971,-0.0682745,-0.864159,39.6591,0.151094,
2,0,0,1,0,6050.51,0.149918,0.149637,-1.2394,5,0.0174452,11,-0.000185461,-2.90679,-0.0693324,-0.850973,41.0033,0.149637,
2,0,0,1,0,6050.66,0.14842,0.148119,-1.29839,5,0.017253,11,-0.000192316,-2.88659,-0.0751751,-0.784834,39.7006,0.148119,
2,0,0,1,0,6050.81,0.146922,0.146622,-1.35821,5,0.0170519,11,-0.000199143,-2.86703,-0.0815989,-0.723049,38.2196,0.146622,
2,0,0,1,0,6050.96,0.145424,0.145125,-1.41201,5,0.0168424,11,-0.000204918,-2.85016,-0.0872743,-0.676029,37.2549,0.145125,
2,0,0,1,0,6051.11,0.143925,0.143608,-1.46948,5,0.0166243,11,-0.00021103,-2.83284,-0.0888298,-0.664192,37.9087,0.143608,
2,0,0,1,0,6051.26,0.142428,0.14213,-1.52304,5,0.016398,11,-0.000216469,-2.81729,-0.107598,-0.548337,32.4095,0.14213,
2,0,0,1,0,6051.41,0.14093,0.140636,-1.56571,5,0.0161645,11,-0.000220195,-2.80529,-0.128854,-0.457883,27.8937,0.140636,
2,0,0,1,0,6051.56,0.139431,0.139149,-1.59952,5,0.0159248,11,-0.000222572,-2.79601,-0.144522,-0.408242,25.5057,0.139149,
2,0,0,1,0,6051.71,0.137933,0.137673,-1.63986,5,0.0156797,11,-0.000225765,-2.78519,-0.171285,-0.344455,21.972,0.1376728,
2,0,0,1,0,6051.86,0.136435,0.136143,-1.67271,5,0.0154294,11,-0.000227728,-2.77658,-0.223564,-0.263906,17.1378,0.136143,
2,0,0,1,0,6052.01,0.134936,0.134623,-1.69485,5,0.0151751,11,-0.000228166,-2.77087,-0.349273,-0.168922,11.1096,0.134623,
2,0,0,1,0,6052.16,0.133438,0.133117,-1.70942,5,0.0149179,11,-0.000227553,-2.76715,-0.481873,-0.122439,8.1532,0.1331173,
2,0,0,1,0,6052.31,0.13194,0.131701,-1.72112,5,0.0146592,11,-0.000226673,-2.76419,-0.756734,-0.0779666,5.23082,0.131701,
2,0,0,1,0,6052.46,0.130442,0.130118,-1.72767,5,0.0143989,11,-0.000224802,-2.76254,-1.67831,-0.0351545,2.36239,0.130118,
2,0,0,1,0,6052.61,0.128943,0.128641,-1.72803,5,0.0141378,11,-0.000222296,-2.76245,1.40515,0.0419884,-2.81586,0.128641,
2,0,0,1,0,6052.76,0.127445,0.127172,-1.72261,5,0.0138775,11,-0.000219069,-2.76381,0.687508,0.0858171,-5.74785,0.127172,
2,0,0,1,0,6052.91,0.125948,0.125689,-1.70745,5,0.0136192,11,-0.000214607,-2.76765,0.520547,0.113342,-7.54097,0.125689,
2,0,0,1,0,6053.06,0.124449,0.124145,-1.69458,5,0.0133619,11,-0.000210374,-2.77094,0.422689,0.139583,-9.19895,0.124145,
2,0,0,1,0,6053.21,0.122951,0.122647,-1.6779,5,0.0131073,11,-0.00020579,-2.77523,0.272224,0.216733,-14.1556,0.122647,
2,0,0,1,0,6053.36,0.121453,0.121134,-1.65401,5,0.0128557,11,-0.000200356,-2.78146,0.220993,0.266976,-17.1916,0.121134,
2,0,0,1,0,6053.51,0.119955,0.119627,-1.62351,5,0.0126083,11,-0.000194215,-2.78955,0.208212,0.283365,-17.9792,0.119627,
2,0,0,1,0,6053.66,0.118456,0.118158,-1.60002,5,0.0123647,11,-0.000189056,-2.79587,0.210167,0.280729,-17.4976,0.118158,
2,0,0,1,0,6053.81,0.116958,0.116657,-1.57522,5,0.0121251,11,-0.00018376,-2.80266,0.180005,0.327769,-20.0656,0.116657,
2,0,0,1,0,6053.96,0.11546,0.115126,-1.54186,5,0.0118899,11,-0.000177509,-2.81196,0.157253,0.37519,-22.4935,0.115126,
2,0,0,1,0,6054.11,0.113962,0.113636,-1.50136,5,0.0116599,11,-0.000170608,-2.82352,0.159366,0.370217,-21.7664,0.113636,
2,0,0,1,0,6054.26,0.112463,0.112133,-1.47614,5,0.0114347,11,-0.000165524,-2.83087,0.15656,0.376853,-21.6867,0.112133,
2,0,0,1,0,6054.4,0.110966,0.110678,-1.44298,5,0.0112142,11,-0.000159707,-2.84074,0.160848,0.366806,-20.6669,0.110678,
2,0,0,1,0,6054.55,0.109468,0.109136,-1.40949,5,0.0109984,11,-0.000153826,-2.85094,0.14928,0.39523,-21.7424,0.109136,
2,0,0,1,0,6054.7,0.107969,0.107694,-1.37898,5,0.0107871,11,-0.000148508,-2.86044,0.158996,0.371078,-20.0048,0.107694,
2,0,0,1,0,6054.85,0.106471,0.106168,-1.35144,5,0.0105807,11,-0.000143479,-2.8692,0.174262,0.338571,-17.915,0.106168,
2,0,0,1,0,6055,0.104973,0.10468,-1.32488,5,0.0103783,11,-0.000138689,-2.87782,0.173668,0.339729,-17.5856,0.10468,
2,0,0,1,0,6055.15,0.103474,0.103187,-1.30286,5,0.0101793,11,-0.000134438,-2.8851,0.171794,0.343435,-17.4162,0.103187,
2,0,0,1,0,6055.3,0.101976,0.101675,-1.27694,5,0.00998433,11,-0.000129833,-2.89383,0.184634,0.31955,-15.9365,0.101675,
2,0,0,1,0,6055.45,0.100478,0.100185,-1.25588,5,0.00979314,11,-0.000125821,-2.90105,0.205083,0.287688,-14.108,0.1001853,
2,0,0,1,0,6055.6,0.0989799,0.0986827,-1.23562,5,0.0096048,11,-0.000121935,-2.90811,0.256688,0.229851,-11.0672,0.0986827,
2,0,0,1,0,6055.75,0.0974808,0.0971743,-1.21838,5,0.00941892,11,-0.000118395,-2.91422,0.256879,0.22968,-10.9226,0.0971743,
2,0,0,1,0,6055.9,0.0959833,0.0956814,-1.20101,5,0.0092358,11,-0.000114914,-2.92046,0.269521,0.218907,-10.2703,0.0956814,
2,0,0,1,0,6056.05,0.0944857,0.0941779,-1.18101,5,0.00905542,11,-0.000111225,-2.92775,0.314225,0.187764,-8.70273,0.0941779,
2,0,0,1,0,6056.2,0.0929871,0.0927041,-1.16911,5,0.00887693,11,-0.000108381,-2.93215,0.380959,0.154872,-7.07099,0.09270414,
2,0,0,1,0,6056.35,0.0914889,0.0911718,-1.16262,5,0.00870021,11,-0.000105999,-2.93456,0.32647,0.180721,-8.17575,0.0911718,
2,0,0,1,0,6056.5,0.0899907,0.0896968,-1.14702,5,0.00852531,11,-0.000102884,-2.94043,0.314259,0.187743,-8.38696,0.0896968,
2,0,0,1,0,6056.65,0.0884925,0.0882154,-1.12962,5,0.00835245,11,-9.96496e-05,-2.94707,0.328594,0.179553,-7.96557,0.0882154,
2,0,0,1,0,6056.8,0.0869943,0.0866853,-1.12519,5,0.00818147,11,-9.75375e-05,-2.94877,0.349541,0.168793,-7.404,0.0866853,
2,0,0,1,0,6056.95,0.0854962,0.0851996,-1.11498,5,0.0080117,11,-9.49961e-05,-2.95273,0.371458,0.158834,-6.92018,0.0851996,
2,0,0,1,0,6057.1,0.083998,0.0837236,-1.10491,5,0.00784343,11,-9.2507e-05,-2.95667,0.302098,0.195301,-8.40076,0.08372356,
2,0,0,1,0,6057.25,0.0824998,0.0822167,-1.09504,5,0.00767665,11,-9.00306e-05,-2.96057,0.361906,0.163026,-6.97829,0.0822167,
2,0,0,1,0,6057.4,0.0810011,0.0806989,-1.086,5,0.00751173,11,-8.76386e-05,-2.96417,0.445704,0.132375,-5.60545,0.0806989,
2,0,0,1,0,6057.55,0.0795036,0.0791747,-1.07605,5,0.00734796,11,-8.51959e-05,-2.96817,0.447475,0.131851,-5.52721,0.07917472,
2,0,0,1,0,6057.7,0.0780061,0.0776355,-1.06701,5,0.00718543,11,-8.28377e-05,-2.97183,0.383841,0.15371,-6.37815,0.0776355,
2,0,0,1,0,6057.85,0.076507,0.0761501,-1.05725,5,0.00702439,11,-8.05094e-05,-2.97582,0.313419,0.188246,-7.75356,0.0761501,
2,0,0,1,0,6058,0.0750088,0.0746666,-1.04086,5,0.00686549,11,-7.77177e-05,-2.98261,0.326345,0.18079,-7.36342,0.0746666,
2,0,0,1,0,6058.15,0.0735106,0.0732139,-1.03344,5,0.00670794,11,-7.56625e-05,-2.98571,0.389956,0.151299,-6.09462,0.0732139,
2,0,0,1,0,6058.3,0.0720124,0.0717198,-1.02121,5,0.00655181,11,-7.32412e-05,-2.99088,0.313283,0.188328,-7.5166,0.0717198,
2,0,0,1,0,6058.45,0.0705142,0.0702108,-1.0135,5,0.00639737,11,-7.11586e-05,-2.99418,0.265025,0.222621,-8.79085,0.0702108,
2,0,0,1,0,6058.6,0.0690161,0.068723,-0.995252,5,0.00624487,11,-6.83967e-05,-3.00207,0.299324,0.197111,-7.68293,0.068723,
2,0,0,1,0,6058.75,0.0675179,0.0672088,-0.987368,5,0.00609417,11,-6.63598e-05,-3.00552,0.292908,0.201429,-7.76709,0.0672088,
2,0,0,1,0,6058.9,0.0660188,0.0656641,-0.981286,5,0.00594493,11,-6.44353e-05,-3.0082,0.266311,0.221545,-8.41792,0.0656641,
2,0,0,1,0,6059.05,0.0645213,0.0641736,-0.963525,5,0.00579753,11,-6.18329e-05,-3.01614,0.233909,0.252235,-9.44753,0.0641736,
2,0,0,1,0,6059.2,0.0630237,0.0627159,-0.945879,5,0.00565231,11,-5.93216e-05,-3.02416,0.248351,0.237567,-8.80633,0.06271591,
2,0,0,1,0,6059.35,0.0615251,0.0612472,-0.935716,5,0.0055092,11,-5.731e-05,-3.02886,0.262396,0.224851,-8.24326,0.0612472,
2,0,0,1,0,6059.5,0.0600269,0.0597054,-0.922428,5,0.00536784,11,-5.50739e-05,-3.03507,0.247736,0.238157,-8.57918,0.0597054,
2,0,0,1,0,6059.65,0.0585287,0.0582176,-0.911416,5,0.00522827,11,-5.30605e-05,-3.04028,0.20708,0.284915,-10.0981,0.0582176,
2,0,0,1,0,6059.8,0.0570305,0.0566758,-0.897375,5,0.00509069,11,-5.08594e-05,-3.04703,0.248918,0.237026,-8.30661,0.0566758,
2,0,0,1,0,6059.95,0.0555323,0.0552559,-0.885463,5,0.00495544,11,-4.89271e-05,-3.05283,0.249114,0.23684,-8.2086,0.0552559,
2,0,0,1,0,6060.1,0.0540342,0.0537353,-0.874274,5,0.0048216,11,-4.69794e-05,-3.05835,0.291838,0.202167,-6.89018,0.0537353,
2,0,0,1,0,6060.25,0.052536,0.0521818,-0.862952,5,0.00468941,11,-4.50303e-05,-3.06401,0.25415,0.232147,-7.81072,0.0521818,
2,0,0,1,0,6060.4,0.0510378,0.050746,-0.850864,5,0.00455891,11,-4.31779e-05,-3.07014,0.254143,0.232153,-7.71494,0.050746,
2,0,0,1,0,6060.55,0.0495391,0.0492469,-0.840317,5,0.00443039,11,-4.1383e-05,-3.07556,0.292059,0.202014,-6.64736,0.0492469,
2,0,0,1,0,6060.7,0.0480416,0.0477486,-0.830342,5,0.00430326,11,-3.96476e-05,-3.08074,0.441833,0.133535,-4.32349,0.0477486,
2,0,0,1,0,6060.85,0.0465441,0.0462018,-0.819952,5,0.00417744,11,-3.78833e-05,-3.08621,0.357018,0.165258,-5.29997,0.0462018,
2,0,0,1,0,6061,0.045045,0.0447494,-0.812511,5,0.00405279,11,-3.63593e-05,-3.09017,0.348628,0.169235,-5.36857,0.0447494,
2,0,0,1,0,6061.15,0.0435468,0.043285,-0.801486,5,0.00392971,11,-3.46923e-05,-3.0961,0.351946,0.167639,-5.26938,0.043285,
2,0,0,1,0,6061.3,0.0420486,0.0417792,-0.796945,5,0.00380774,11,-3.32957e-05,-3.09857,0.402053,0.146747,-4.57016,0.0417792,
2,0,0,1,0,6061.45,0.0405504,0.0402098,-0.794485,5,0.0036867,11,-3.1946e-05,-3.09991,0.399836,0.147561,-4.55205,0.0402098,
2,0,0,1,0,6061.6,0.0390523,0.0387326,-0.78616,5,0.00356638,11,-3.045e-05,-3.10449,0.373656,0.157899,-4.82898,0.0387326,
2,0,0,1,0,6061.75,0.0375541,0.0372481,-0.778401,5,0.00344721,11,-2.89939e-05,-3.1088,0.474807,0.124261,-3.79253,0.03724806,
2,0,0,1,0,6061.9,0.0360559,0.0357433,-0.77477,5,0.00332903,11,-2.76929e-05,-3.11083,0.621292,0.0949635,-2.8802,0.0357433,
2,0,0,1,0,6062.05,0.0345568,0.0342588,-0.771936,5,0.00321117,11,-2.64456e-05,-3.11242,0.751862,0.0784718,-2.36175,0.0342588,
2,0,0,1,0,6062.2,0.0330593,0.0327499,-0.768825,5,0.00309381,11,-2.5179e-05,-3.11417,0.723472,0.0815511,-2.43773,0.0327499,
2,0,0,1,0,6062.35,0.0315618,0.0312436,-0.76531,5,0.00297707,11,-2.3911e-05,-3.11616,0.91331,0.0646002,-1.927,0.0312436,
2,0,0,1,0,6062.5,0.0300631,0.0297627,-0.763488,5,0.0028609,11,-2.27234e-05,-3.1172,2.27991,0.0258782,-0.769379,0.0297627,
2,0,0,1,0,6062.64,0.0285649,0.028241,-0.760283,5,0.00274492,11,-2.14711e-05,-3.11902,4.26689,0.0138274,-0.409445,0.028241,
2,0,0,1,0,6062.79,0.0270667,0.0267416,-0.759422,5,0.00262903,11,-2.03081e-05,-3.11952,2.14889,0.027456,-0.812708,0.0267416,
2,0,0,1,0,6062.94,0.0255685,0.0252665,-0.755802,5,0.00251351,11,-1.90965e-05,-3.12159,1.65387,0.035674,-1.05518,0.0252665,
2,0,0,1,0,6063.09,0.0240704,0.0237077,-0.754569,5,0.00239828,11,-1.78891e-05,-3.1223,39.0021,0.00151274,-0.0447742,0.0237077,
2,0,0,1,0,6063.24,0.0225722,0.0222783,-0.755948,5,0.00228301,11,-1.68412e-05,-3.12151,-2.60223,-0.0226729,0.668349,0.0222783,
2,0,0,1,0,6063.39,0.021074,0.0207556,-0.757735,5,0.00216755,11,-1.57272e-05,-3.12048,-3.6438,-0.0161919,0.479188,0.0207556,
2,0,0,1,0,6063.54,0.0195758,0.0192827,-0.758696,5,0.00205219,11,-1.46297e-05,-3.11993,2.22086,0.0265663,-0.783945,0.0192827,
2,0,0,1,0,6063.69,0.0180772,0.0177337,-0.75627,5,0.00193672,11,-1.34115e-05,-3.12132,-1.86202,-0.031686,0.936098,0.0177337,
2,0,0,1,0,6063.84,0.0165796,0.0162724,-0.75859,5,0.00182133,11,-1.23441e-05,-3.11999,-1.00059,-0.0589651,1.74501,0.01627242,
2,0,0,1,0,6063.99,0.0150821,0.0147854,-0.762706,5,0.00170548,11,-1.12769e-05,-3.11764,-1.93171,-0.0305429,0.906188,0.0147854,
2,0,0,1,0,6064.14,0.013583,0.0132415,-0.761178,5,0.00158923,11,-1.00791e-05,-3.11851,-8.31097,-0.00709905,0.210501,0.0132415,
2,0,0,1,0,6064.29,0.0120848,0.0117676,-0.763746,5,0.0014729,11,-8.98742e-06,-3.11705,-1.22122,-0.0483122,1.44259,0.0117676,
2,0,0,1,0,6064.44,0.0105866,0.0102554,-0.763807,5,0.00135655,11,-7.83315e-06,-3.11702,-1.47129,-0.0401008,1.19995,0.0102554,
2,0,0,1,0,6064.59,0.00908846,0.00875918,-0.768106,5,0.00123954,11,-6.72798e-06,-3.11458,-0.806368,-0.0731676,2.19492,0.00875918,
2,0,0,1,0,6064.74,0.00759027,0.00727673,-0.771924,5,0.00112214,11,-5.61708e-06,-3.11243,-2.04462,-0.0288562,0.867327,0.00727673,
2,0,0,1,0,6064.89,0.00609208,0.00579428,-0.776602,5,0.00100425,11,-4.49985e-06,-3.1098,-1.32185,-0.0446343,1.34897,0.005794283,
2,0,0,1,0,6065.04,0.00459389,0.00432668,-0.778882,5,0.000886323,11,-3.36997e-06,-3.10853,-0.812054,-0.0726552,2.20134,0.00432668,
2,0,0,1,0,6065.19,0.0030948,0.00279558,-0.782731,5,0.000767536,11,-2.18819e-06,-3.10639,-0.420244,-0.140395,4.27562,0.00279558,
2,0,0,1,0,6065.34,0.00159728,0.00121853,-0.794686,5,0.000646258,11,-9.68352e-07,-3.0998, , , ,0.00121853,
2,0,0,1,0,6065.48,0.000199195,-0.000187895,-0.788092,5,0.00053392,11,1.48078e-07,-3.10342, , , ,-0.000187895,