File: Figure_codes/Fig_3-5/rawdata_trumpetplot_data/before 10th/20221101_1-115_002_TrumpetPlot_ParaChange_13_CV_C01_6.csv
mode,ox/red,error,control changes,counter inc.,time/s,control/V,Ewe/V,<I>/mA,cycle number,(Q-Qo)/C,I Range,P/W,log(|I|),Tafel slope mV/dec,alpha_eff,dI/d(E-IR),E-IR/V,
2,1,0,0,0,8603.96,2.44065e-05,-0.000554371,14.0771,7,0.0000000E+000,10,-7.80395e-06,-1.85149, , , ,-0.000554371,
2,1,0,1,0,8603.97,0.00206084,0.00168945,13.5029,7,6.90343e-05,10,2.28124e-05,-1.86957, , , ,0.00168945,
2,1,0,1,0,8603.97,0.00446904,0.00414005,14.2199,7,0.000152255,10,5.8871e-05,-1.8471,0.122863,0.48021,267.324,0.00414005,
2,1,0,1,0,8603.98,0.00686614,0.00649097,14.9173,7,0.000239754,10,9.68278e-05,-1.82631,0.119972,0.491783,285.31,0.00649097,
2,1,0,1,0,8603.99,0.00926324,0.00891612,15.5866,7,0.000331395,10,0.000138972,-1.80725,0.133853,0.440781,266.961,0.00891612,
2,1,0,1,0,8603.99,0.0116603,0.0113434,16.1955,7,0.000426857,10,0.000183712,-1.79061,0.159198,0.370609,233.074,0.01134339,
2,1,0,1,0,8604,0.0140686,0.0137367,16.7243,7,0.00052572,10,0.000229737,-1.77665,0.186593,0.316197,205.481,0.0137367,
2,1,0,1,0,8604,0.0164657,0.0161619,17.1766,7,0.00062749,10,0.000277606,-1.76506,0.223074,0.264486,176.723,0.0161619,
2,1,0,1,0,8604.01,0.0188628,0.0185223,17.5705,7,0.000731803,10,0.000325447,-1.75522,0.258175,0.228527,156.368,0.0185223,
2,1,0,1,0,8604.02,0.0212682,0.0209698,17.9347,7,0.000838339,10,0.000376086,-1.74631,0.30501,0.193436,134.974,0.02096976,
2,1,0,1,0,8604.02,0.0236653,0.0233578,18.2263,7,0.000946864,10,0.000425726,-1.7393,0.345588,0.170724,121.22,0.0233578,
2,1,0,1,0,8604.03,0.0260624,0.0256992,18.5042,7,0.00105705,10,0.000475542,-1.73273,0.377529,0.156279,112.739,0.0256992,
2,1,0,1,0,8604.03,0.0284595,0.0281296,18.7498,7,0.00116884,10,0.000527426,-1.727,0.42673,0.138261,100.998,0.0281296,
2,1,0,1,0,8604.04,0.0308677,0.0305198,18.9798,7,0.00128213,10,0.00057926,-1.72171,0.468934,0.125817,93.0859,0.03051978,
2,1,0,1,0,8604.05,0.0332648,0.032963,19.1842,7,0.00139662,10,0.000632367,-1.71706,0.524587,0.112469,84.2088,0.032963,
2,1,0,1,0,8604.05,0.0356619,0.0353478,19.395,7,0.00151237,10,0.00068557,-1.71231,0.532115,0.110878,83.8404,0.0353478,
2,1,0,1,0,8604.06,0.0380673,0.0377539,19.5869,7,0.00162934,10,0.000739482,-1.70803,0.545048,0.108247,82.7386,0.0377539,
2,1,0,1,0,8604.06,0.0404644,0.0401621,19.7718,7,0.00174743,10,0.000794077,-1.70395,0.555057,0.106295,82.1041,0.0401621,
2,1,0,1,0,8604.07,0.0428615,0.0425459,19.9832,7,0.00186676,10,0.000850201,-1.69934,0.538128,0.109639,85.5199,0.0425459,
2,1,0,1,0,8604.08,0.0452586,0.0449296,20.1789,7,0.00198726,10,0.00090663,-1.6951,0.547777,0.107708,84.8784,0.0449296,
2,1,0,1,0,8604.08,0.0476668,0.0473336,20.3953,7,0.00210902,10,0.000965384,-1.69047,0.522359,0.112949,89.8968,0.0473336,
2,1,0,1,0,8604.09,0.0500639,0.0497662,20.6144,7,0.00223206,10,0.0010259,-1.68583,0.495454,0.119083,95.8287,0.0497662,
2,1,0,1,0,8604.09,0.0524611,0.052116,20.8384,7,0.00235642,10,0.00108602,-1.68114,0.470211,0.125476,102.132,0.052116,
2,1,0,1,0,8604.1,0.0548692,0.0545592,21.1015,7,0.00248226,10,0.00115128,-1.67569,0.451454,0.130689,107.602,0.0545592,
2,1,0,1,0,8604.11,0.0572664,0.0569133,21.3432,7,0.00260961,10,0.00121471,-1.67074,0.438794,0.13446,112.117,0.0569133,
2,1,0,1,0,8604.11,0.0596635,0.0593013,21.6231,7,0.00273853,10,0.00128228,-1.66508,0.421468,0.139987,118.238,0.0593013,
2,1,0,1,0,8604.12,0.0620633,0.0617445,21.9147,7,0.00286919,10,0.00135311,-1.65926,0.401416,0.14698,125.777,0.0617445,
2,1,0,1,0,8604.12,0.064466,0.0641283,22.2189,7,0.00300166,10,0.00142486,-1.65328,0.382066,0.154424,134.095,0.0641283,
2,1,0,1,0,8604.13,0.0668631,0.06651,22.5635,7,0.00313605,10,0.0015007,-1.64659,0.363522,0.162301,142.938,0.06651,
2,1,0,1,0,8604.14,0.0692602,0.0689245,22.9159,7,0.00327254,10,0.00157947,-1.63986,0.356243,0.165617,148.136,0.0689245,
2,1,0,1,0,8604.14,0.0716684,0.0713295,23.2774,7,0.00341114,10,0.00166036,-1.63307,0.35578,0.165833,150.673,0.0713295,
2,1,0,1,0,8604.15,0.0740655,0.0737759,23.6415,7,0.00355191,10,0.00174417,-1.62632,0.351411,0.167895,154.964,0.07377588,
2,1,0,1,0,8604.15,0.0764626,0.0760971,24.0173,7,0.00369493,10,0.00182765,-1.61948,0.343439,0.171792,161.109,0.0760971,
2,1,0,1,0,8604.16,0.0788653,0.0785297,24.4123,7,0.00384025,10,0.00191709,-1.61239,0.347443,0.169812,161.752,0.0785297,
2,1,0,1,0,8604.17,0.0812651,0.0809145,24.7998,7,0.00398796,10,0.00200666,-1.60555,0.337797,0.174661,169.155,0.0809145,
2,1,0,1,0,8604.17,0.0836622,0.0832994,25.2033,7,0.00413796,10,0.00209942,-1.59854,0.325483,0.181269,178.557,0.0832994,
2,1,0,1,0,8604.18,0.0860593,0.0856705,25.6529,7,0.00429061,10,0.0021977,-1.59086,0.318994,0.184957,185.131,0.0856705,
2,1,0,1,0,8604.18,0.0884675,0.0881454,26.1018,7,0.00444597,10,0.00230075,-1.58333,0.318396,0.185304,188.748,0.0881454,
2,1,0,1,0,8604.19,0.0908647,0.0905483,26.554,7,0.00460397,10,0.00240442,-1.57587,0.33299,0.177183,183.596,0.0905483,
2,1,0,1,0,8604.2,0.0932618,0.092947,26.9993,7,0.00476468,10,0.00250951,-1.56865,0.337401,0.174866,184.157,0.092947,
2,1,0,1,0,8604.2,0.09567,0.0953276,27.4404,7,0.00492803,10,0.00261583,-1.56161,0.346755,0.170149,182.216,0.0953276,
2,1,0,1,0,8604.21,0.0980671,0.0976997,27.8817,7,0.00509402,10,0.00272403,-1.55468,0.345817,0.170611,185.608,0.0976997,
2,1,0,1,0,8604.21,0.100464,0.100155,28.3299,7,0.00526269,10,0.00283737,-1.54775,0.352041,0.167594,185.239,0.100155,
2,1,0,1,0,8604.22,0.102861,0.102537,28.7561,7,0.00543398,10,0.00294858,-1.54127,0.353669,0.166823,187.314,0.102537,
2,1,0,1,0,8604.23,0.105267,0.104947,29.2185,7,0.00560798,10,0.00306638,-1.53434,0.357429,0.165068,188.132,0.104947,
2,1,0,1,0,8604.23,0.107664,0.107285,29.6686,7,0.00578469,10,0.00318299,-1.5277,0.36475,0.161755,187.227,0.107285,
2,1,0,1,0,8604.24,0.110061,0.10971,30.1055,7,0.00596405,10,0.00330287,-1.52135,0.366737,0.160878,189.123,0.10971,
2,1,0,1,0,8604.24,0.112469,0.112112,30.5703,7,0.00614614,10,0.00342729,-1.5147,0.366916,0.1608,191.837,0.1121117,
2,1,0,1,0,8604.25,0.114866,0.114527,31.0291,7,0.006331,10,0.00355368,-1.50823,0.366718,0.160886,194.91,0.1145273,
2,1,0,1,0,8604.26,0.117263,0.116927,31.5048,7,0.00651865,10,0.00368376,-1.50162,0.35961,0.164067,201.83,0.116927,
2,1,0,1,0,8604.26,0.11966,0.119334,31.9954,7,0.00670919,10,0.00381815,-1.49491,0.357615,0.164982,206.028,0.119334,
2,1,0,1,0,8604.27,0.122066,0.121751,32.4944,7,0.00690273,10,0.00395622,-1.48819,0.352972,0.167152,212.047,0.1217508,
2,1,0,1,0,8604.27,0.124463,0.12413,33.0162,7,0.0070993,10,0.00409831,-1.48127,0.345542,0.170746,220.065,0.12413,
2,1,0,1,0,8604.28,0.12686,0.126536,33.5479,7,0.00729904,10,0.00424503,-1.47434,0.332471,0.177459,232.525,0.1265364,
2,1,0,1,0,8604.29,0.129268,0.128985,34.125,7,0.00750209,10,0.00440161,-1.46693,0.323169,0.182567,243.229,0.128985,
2,1,0,1,0,8604.29,0.131665,0.13135,34.7149,7,0.00770868,10,0.00455979,-1.45948,0.316845,0.186211,252.337,0.13135,
2,1,0,1,0,8604.3,0.134062,0.133709,35.3167,7,0.00791885,10,0.00472216,-1.45202,0.313762,0.18804,259.451,0.133709,
2,1,0,1,0,8604.3,0.13646,0.136136,35.9619,7,0.00813275,10,0.00489572,-1.44416,0.302621,0.194963,273.769,0.136136,
2,1,0,1,0,8604.31,0.138868,0.138586,36.6384,7,0.00835065,10,0.00507757,-1.43606,0.303081,0.194668,278.312,0.138586,
2,1,0,1,0,8604.32,0.141265,0.140906,37.3051,7,0.00857253,10,0.00525651,-1.42823,0.301164,0.195906,285.372,0.140906,
2,1,0,1,0,8604.32,0.143662,0.14333,38.0067,7,0.00879851,10,0.0054475,-1.42014,0.301034,0.195991,290.722,0.14333,
2,1,0,1,0,8604.33,0.146067,0.145718,38.7242,7,0.00902877,10,0.00564281,-1.41202,0.303353,0.194493,293.773,0.145718,
2,1,0,1,0,8604.33,0.148465,0.148158,39.4251,7,0.00926327,10,0.00584114,-1.40423,0.304973,0.19346,297.608,0.1481581,
2,1,0,1,0,8604.34,0.150862,0.150512,40.1252,7,0.00950199,10,0.00603933,-1.39658,0.310326,0.190123,297.737,0.150512,
2,1,0,1,0,8604.35,0.153264,0.152919,40.8413,7,0.00974497,10,0.00624543,-1.3889,0.320348,0.184174,293.439,0.152919,
2,1,0,1,0,8604.35,0.155667,0.155339,41.5414,7,0.0099922,10,0.00645301,-1.38152,0.333912,0.176694,286.282,0.155339,
2,1,0,1,0,8604.36,0.158064,0.157763,42.2244,7,0.0102436,10,0.00666146,-1.37444,0.346935,0.170061,280.094,0.157763,
2,1,0,1,0,8604.36,0.160461,0.160125,42.8879,7,0.010499,10,0.00686742,-1.36767,0.358152,0.164735,275.685,0.160125,
2,1,0,1,0,8604.37,0.162867,0.162553,43.5551,7,0.0107584,10,0.00708001,-1.36096,0.376686,0.156629,265.954,0.162553,
2,1,0,1,0,8604.38,0.165264,0.164967,44.1604,7,0.0110217,10,0.00728498,-1.35497,0.40945,0.144096,248.173,0.164967,
2,1,0,1,0,8604.38,0.167661,0.167327,44.743,7,0.0112885,10,0.00748672,-1.34927,0.431541,0.136719,238.63,0.167327,
2,1,0,1,0,8604.39,0.170069,0.169736,45.3131,7,0.0115587,10,0.00769128,-1.34378,0.49282,0.119719,211.31,0.169736,
2,1,0,1,0,8604.39,0.172466,0.172124,45.7749,7,0.011832,10,0.00787897,-1.33937,0.578857,0.101925,181.781,0.172124,
2,1,0,1,0,8604.4,0.174863,0.174522,46.1628,7,0.0121079,10,0.00805643,-1.33571,0.722732,0.0816346,146.865,0.174522,
2,1,0,1,0,8604.41,0.17726,0.176939,46.4881,7,0.0123859,10,0.00822554,-1.33266,1.00314,0.0588152,106.455,0.176939,
2,1,0,1,0,8604.41,0.179668,0.17937,46.6852,7,0.0126656,10,0.00837393,-1.33082,2.10903,0.0279749,50.8247,0.17937,
2,1,0,1,0,8604.42,0.182066,0.181746,46.7323,7,0.0129459,10,0.00849343,-1.33038,-6.43311,-0.00917131,-16.6746,0.181746,
2,1,0,1,0,8604.42,0.184463,0.184162,46.6207,7,0.013226,10,0.00858576,-1.33142,-1.20773,-0.0488521,-88.5594,0.184162,
2,1,0,1,0,8604.43,0.186868,0.186571,46.3199,7,0.0135049,10,0.00864196,-1.33423,-0.600102,-0.0983166,-176.932,0.186571,
2,1,0,1,0,8604.44,0.189265,0.188929,45.7807,7,0.0137812,10,0.00864928,-1.33932,-0.381644,-0.154594,-274.866,0.1889286,
2,1,0,1,0,8604.44,0.191662,0.19131,45.0042,7,0.0140537,10,0.00860976,-1.34675,-0.282069,-0.209169,-365.713,0.19131,
2,1,0,1,0,8604.45,0.194059,0.193735,44.0036,7,0.0143207,10,0.00852506,-1.35651,-0.213971,-0.275738,-471.041,0.193735,
2,1,0,1,0,8604.45,0.196468,0.196186,42.7609,7,0.014581,10,0.00838909,-1.36895,-0.172897,-0.341244,-566.195,0.196186,
2,1,0,1,0,8604.46,0.198865,0.198598,41.2573,7,0.014833,10,0.00819363,-1.3845,-0.144208,-0.409131,-655.684,0.198598,
2,1,0,1,0,8604.47,0.201262,0.200986,39.5873,7,0.0150754,10,0.00795651,-1.40244,-0.124074,-0.475523,-731.28,0.200986,
2,1,0,1,0,8604.47,0.203667,0.203399,37.7691,7,0.0153074,10,0.00768219,-1.42286,-0.111933,-0.527099,-773.667,0.203399,
2,1,0,1,0,8604.48,0.206064,0.205781,35.8264,7,0.015528,10,0.00737237,-1.4458,-0.10269,-0.574545,-801.532,0.205781,
2,1,0,1,0,8604.48,0.208461,0.208231,33.8714,7,0.0157369,10,0.00705309,-1.47017,-0.0963969,-0.612053,-807.765,0.208231,
2,1,0,1,0,8604.49,0.210859,0.210571,31.9171,7,0.0159341,10,0.00672083,-1.49598,-0.0927997,-0.635778,-791.765,0.2105715,
2,1,0,1,0,8604.5,0.213267,0.212993,30.0345,7,0.0161197,10,0.00639716,-1.52238,-0.0902883,-0.653462,-766.699,0.212993,
2,1,0,1,0,8604.5,0.215664,0.215387,28.2587,7,0.0162944,10,0.00608655,-1.54885,-0.0916042,-0.644075,-712.092,0.215387,
2,1,0,1,0,8604.51,0.218061,0.217761,26.6269,7,0.0164588,10,0.00579831,-1.57468,-0.0951462,-0.620098,-646.607,0.217761,
2,1,0,1,0,8604.51,0.220469,0.220173,25.1767,7,0.0166139,10,0.00554325,-1.599,-0.100259,-0.588473,-579.913,0.220173,
2,1,0,1,0,8604.52,0.222866,0.222601,23.854,7,0.0167608,10,0.00530992,-1.62244,-0.108334,-0.544611,-509.46,0.222601,
2,1,0,1,0,8604.53,0.225263,0.224963,22.7123,7,0.0169003,10,0.00510943,-1.64374,-0.119007,-0.495771,-441.816,0.224963,
2,1,0,1,0,8604.53,0.227663,0.227414,21.7315,7,0.0170335,10,0.00494204,-1.66291,-0.132041,-0.44683,-380.583,0.227414,
2,1,0,1,0,8604.54,0.230066,0.229775,20.8785,7,0.0171612,10,0.00479737,-1.6803,-0.145839,-0.404557,-331.296,0.229775,
2,1,0,1,0,8604.54,0.232463,0.232202,20.1564,7,0.0172842,10,0.00468035,-1.69559,-0.168862,-0.349398,-276.119,0.232202,
2,1,0,1,0,8604.55,0.23486,0.234596,19.5628,7,0.0174033,10,0.00458935,-1.70857,-0.194384,-0.303524,-232.445,0.234596,
2,1,0,1,0,8604.56,0.237268,0.236972,19.0473,7,0.017519,10,0.00451368,-1.72017,-0.217246,-0.271581,-202.416,0.236972,
2,1,0,1,0,8604.56,0.239665,0.239377,18.598,7,0.0176318,10,0.00445195,-1.73053,-0.247385,-0.238495,-173.599,0.239377,
2,1,0,1,0,8604.57,0.242063,0.24175,18.2152,7,0.0177422,10,0.00440352,-1.73957,-0.289521,-0.203785,-145.245,0.24175,
2,1,0,1,0,8604.57,0.244465,0.24418,17.9015,7,0.0178505,10,0.00437119,-1.74711,-0.321804,-0.183342,-128.276,0.24418,
2,1,0,1,0,8604.58,0.246865,0.246603,17.611,7,0.0179569,10,0.00434293,-1.75422,-0.369638,-0.159616,-109.844,0.246603,
2,1,0,1,0,8604.59,0.249262,0.248969,17.3513,7,0.0180618,10,0.00431992,-1.76067,-0.408049,-0.144591,-98.1002,0.248969,
2,1,0,1,0,8604.59,0.251659,0.251347,17.1347,7,0.0181652,10,0.00430676,-1.76612,-0.449915,-0.131136,-87.7728,0.251347,
2,1,0,1,0,8604.6,0.254067,0.253753,16.9409,7,0.0182675,10,0.00429882,-1.77106,-0.490684,-0.12024,-79.5518,0.253753,
2,1,0,1,0,8604.6,0.256465,0.25618,16.7426,7,0.0183685,10,0.00428911,-1.77618,-0.530751,-0.111163,-72.7871,0.25618,
2,1,0,1,0,8604.61,0.258862,0.258578,16.6044,7,0.0184685,10,0.00429353,-1.77978,-0.590992,-0.0998321,-64.6741,0.258578,
2,1,0,1,0,8604.62,0.26127,0.26096,16.4509,7,0.0185676,10,0.00429301,-1.78381,-0.609252,-0.0968401,-62.1719,0.26096,
2,1,0,1,0,8604.62,0.263667,0.26339,16.3,7,0.0186658,10,0.00429326,-1.78781,-0.673719,-0.0875736,-55.7667,0.26339,
2,1,0,1,0,8604.63,0.266064,0.265755,16.1727,7,0.0187632,10,0.00429799,-1.79122,-0.719233,-0.0820318,-51.7762,0.265755,
2,1,0,1,0,8604.63,0.268461,0.268143,16.0477,7,0.0188599,10,0.00430307,-1.79459,-0.730081,-0.0808129,-50.6332,0.268143,
2,1,0,1,0,8604.64,0.270867,0.270577,15.9274,7,0.0189558,10,0.00430958,-1.79786,-0.778124,-0.0758234,-47.1709,0.270577,
2,1,0,1,0,8604.65,0.273264,0.272917,15.8247,7,0.0190511,10,0.00431883,-1.80066,-0.828045,-0.0712522,-44.0099,0.272917,
2,1,0,1,0,8604.65,0.275661,0.275339,15.7177,7,0.0191457,10,0.00432768,-1.80361,-0.839038,-0.0703186,-43.1374,0.275339,
2,1,0,1,0,8604.66,0.278069,0.277749,15.6243,7,0.0192397,10,0.00433963,-1.8062,-0.881774,-0.0669105,-40.7855,0.2777493,
2,1,0,1,0,8604.66,0.280466,0.280176,15.5158,7,0.0193331,10,0.00434713,-1.80923,-0.918043,-0.0642671,-38.9327,0.280176,
2,1,0,1,0,8604.67,0.282863,0.282579,15.429,7,0.0194259,10,0.00435991,-1.81166,-0.95332,-0.061889,-37.2755,0.282579,
2,1,0,1,0,8604.68,0.28526,0.285022,15.3328,7,0.0195182,10,0.00437017,-1.81438,-0.923521,-0.0638859,-38.226,0.285022,
2,1,0,1,0,8604.68,0.287666,0.287369,15.2417,7,0.0196099,10,0.00437999,-1.81697,-0.976516,-0.0604189,-35.9738,0.287369,
2,1,0,1,0,8604.69,0.290063,0.289779,15.1619,7,0.0197011,10,0.00439361,-1.81925,-0.943172,-0.0625549,-37.009,0.289779,
2,1,0,1,0,8604.69,0.29246,0.292141,15.0889,7,0.0197919,10,0.00440809,-1.82134,-0.985504,-0.0598678,-35.2276,0.292141,
2,1,0,1,0,8604.7,0.294868,0.294571,14.9974,7,0.0198821,10,0.0044178,-1.82398,-1.08021,-0.0546192,-31.9966,0.294571,
2,1,0,1,0,8604.71,0.297265,0.296994,14.9287,7,0.0199718,10,0.00443372,-1.82598,-1.24197,-0.0475051,-27.6939,0.296994,
2,1,0,1,0,8604.71,0.29958,0.299321,14.8503,7,0.0200582,10,0.00444501,-1.82826,-0.0659935,-0.894027,-493.511,0.299321,
2,1,0,1,0,8604.71,0.299962,0.299689,14.7189,7,0.0200775,10,0.00441109,-1.83213,0.00586125,10.0661,4268.04,0.2996892,
2,1,0,1,0,8604.72,0.297903,0.297697,9.3001,7,0.0201369,10,0.00276861,-2.03151,0.00872461,6.76248,2125.37,0.297697,
2,1,0,1,0,8604.72,0.295506,0.295269,4.88045,7,0.0201783,10,0.00144105,-2.31154,0.0060104,9.81633,1582.34,0.295269,
2,1,0,1,0,8604.73,0.293101,0.292836,1.77174,7,0.0201975,10,0.000518829,-2.7516,0.00875081,6.74223,1122.66,0.292836,
2,0,0,1,0,8604.74,0.290704,0.290455,-0.494759,7,0.0202008,10,-0.000143705,-3.30561,0.851815,0.0692639,825.038,0.2904551,
2,0,0,1,0,8604.74,0.288307,0.288023,-2.18399,7,0.0201924,10,-0.000629038,-2.66075,-0.00496398,-11.8856,620.794,0.288023,
2,0,0,1,0,8604.75,0.28591,0.285631,-3.42202,7,0.0201752,10,-0.000977437,-2.46572,-0.0144034,-4.09626,467.805,0.2856313,
2,0,0,1,0,8604.75,0.283501,0.283268,-4.40031,7,0.0201515,10,-0.00124647,-2.35652,-0.0260158,-2.26785,362.717,0.283268,
2,0,0,1,0,8604.76,0.281104,0.280798,-5.16571,7,0.0201227,10,-0.00145052,-2.28687,-0.0404023,-1.46031,282.494,0.280798,
2,0,0,1,0,8604.77,0.278707,0.278399,-5.75573,7,0.0200898,10,-0.00160239,-2.2399,-0.0569737,-1.03557,227.456,0.278399,
2,0,0,1,0,8604.77,0.276302,0.275993,-6.24848,7,0.0200537,10,-0.00172454,-2.20423,-0.0756826,-0.779572,187.147,0.275993,
2,0,0,1,0,8604.78,0.273905,0.273616,-6.64748,7,0.020015,10,-0.00181886,-2.17734,-0.0955914,-0.61721,158.49,0.273616,
2,0,0,1,0,8604.78,0.271508,0.271192,-6.99578,7,0.019974,10,-0.0018972,-2.15516,-0.117437,-0.502396,136.223,0.271192,
2,0,0,1,0,8604.79,0.269105,0.268811,-7.29532,7,0.0199311,10,-0.00196106,-2.13696,-0.142123,-0.415133,117.458,0.268811,
2,0,0,1,0,8604.8,0.266702,0.26642,-7.54429,7,0.0198865,10,-0.00200995,-2.12238,-0.164746,-0.358127,105.175,0.26642,
2,0,0,1,0,8604.8,0.264305,0.263964,-7.78517,7,0.0198404,10,-0.002055,-2.10873,-0.19784,-0.29822,90.2808,0.263964,
2,0,0,1,0,8604.81,0.261908,0.261601,-7.99912,7,0.0197931,10,-0.00209258,-2.09696,-0.218796,-0.269658,84.0058,0.261601,
2,0,0,1,0,8604.81,0.2595,0.259219,-8.19636,7,0.0197445,10,-0.00212465,-2.08638,-0.233209,-0.252992,80.7963,0.259219,
2,0,0,1,0,8604.82,0.257103,0.256797,-8.38417,7,0.0196947,10,-0.00215303,-2.07654,-0.268134,-0.220039,71.8276,0.256797,
2,0,0,1,0,8604.83,0.254706,0.254427,-8.54703,7,0.0196439,10,-0.00217459,-2.06818,-0.284312,-0.207519,69.2243,0.254427,
2,0,0,1,0,8604.83,0.2523,0.251986,-8.72155,7,0.0195921,10,-0.0021977,-2.05941,-0.302822,-0.194834,66.2664,0.251986,
2,0,0,1,0,8604.84,0.249903,0.249605,-8.87882,7,0.0195393,10,-0.0022162,-2.05164,-0.314657,-0.187506,64.8164,0.249605,
2,0,0,1,0,8604.84,0.247506,0.247207,-9.02783,7,0.0194856,10,-0.00223175,-2.04442,-0.335602,-0.175804,61.9076,0.247207,
2,0,0,1,0,8604.85,0.245109,0.244795,-9.17596,7,0.019431,10,-0.00224623,-2.03735,-0.342854,-0.172085,61.5915,0.244795,
2,0,0,1,0,8604.86,0.242701,0.242396,-9.32719,7,0.0193755,10,-0.00226088,-2.03025,-0.337562,-0.174783,63.519,0.242396,
2,0,0,1,0,8604.86,0.240304,0.240023,-9.46539,7,0.0193191,10,-0.00227191,-2.02386,-0.383031,-0.154034,56.8828,0.240023,
2,0,0,1,0,8604.87,0.237906,0.237626,-9.59503,7,0.0192619,10,-0.00228003,-2.01795,-0.376786,-0.156587,58.6735,0.237626,
2,0,0,1,0,8604.87,0.235501,0.235204,-9.74051,7,0.0192039,10,-0.002291,-2.01142,-0.393089,-0.150093,57.0309,0.235204,
2,0,0,1,0,8604.88,0.233104,0.23279,-9.87892,7,0.019145,10,-0.00229971,-2.00529,-0.397034,-0.148602,57.2444,0.23279,
2,0,0,1,0,8604.89,0.230707,0.230388,-10.0132,7,0.0190853,10,-0.00230693,-1.99943,-0.418984,-0.140817,54.9933,0.230388,
2,0,0,1,0,8604.89,0.22831,0.227992,-10.1301,7,0.0190249,10,-0.00230959,-1.99438,-0.420604,-0.140275,55.5535,0.227992,
2,0,0,1,0,8604.9,0.225902,0.225596,-10.2793,7,0.0189636,10,-0.00231898,-1.98804,-0.418194,-0.141083,56.5318,0.2255964,
2,0,0,1,0,8604.9,0.223504,0.223221,-10.4207,7,0.0189015,10,-0.00232611,-1.9821,-0.45281,-0.130297,52.912,0.223221,
2,0,0,1,0,8604.91,0.221107,0.220816,-10.5327,7,0.0188387,10,-0.00232579,-1.97746,-0.414036,-0.1425,58.7063,0.220816,
2,0,0,1,0,8604.92,0.218699,0.218439,-10.6972,7,0.018775,10,-0.00233668,-1.97073,-0.406702,-0.145069,60.4639,0.218439,
2,0,0,1,0,8604.92,0.216302,0.21604,-10.8278,7,0.0187104,10,-0.00233924,-1.96546,-0.437683,-0.134801,56.9247,0.21604,
2,0,0,1,0,8604.93,0.213905,0.213592,-10.9633,7,0.018645,10,-0.00234167,-1.96006,-0.416571,-0.141633,60.6635,0.213592,
2,0,0,1,0,8604.93,0.211505,0.211233,-11.1021,7,0.0185788,10,-0.00234513,-1.95459,-0.410015,-0.143897,62.3847,0.211233,
2,0,0,1,0,8604.94,0.209102,0.208777,-11.2552,7,0.0185117,10,-0.00234983,-1.94865,-0.401785,-0.146845,64.5174,0.208777,
2,0,0,1,0,8604.95,0.206705,0.206408,-11.4102,7,0.0184437,10,-0.00235515,-1.94271,-0.411638,-0.14333,63.8135,0.206408,
2,0,0,1,0,8604.95,0.204308,0.203999,-11.5744,7,0.0183747,10,-0.00236116,-1.9365,-0.391537,-0.150688,68.0798,0.2039991,
2,0,0,1,0,8604.96,0.2019,0.201608,-11.7424,7,0.0183048,10,-0.00236736,-1.93024,-0.394886,-0.14941,68.4339,0.201608,
2,0,0,1,0,8604.96,0.199503,0.19922,-11.9076,7,0.0182339,10,-0.00237224,-1.92417,-0.388965,-0.151685,70.4414,0.19922,
2,0,0,1,0,8604.97,0.197106,0.196778,-12.0664,7,0.0181619,10,-0.00237439,-1.91842,-0.364553,-0.161842,76.4073,0.196778,
2,0,0,1,0,8604.98,0.194709,0.194392,-12.2566,7,0.018089,10,-0.00238259,-1.91163,-0.342832,-0.172096,82.4292,0.194392,
2,0,0,1,0,8604.98,0.192303,0.191966,-12.4716,7,0.0180147,10,-0.00239412,-1.90408,-0.338234,-0.174436,84.8184,0.191966,
2,0,0,1,0,8604.99,0.189906,0.189583,-12.6534,7,0.0179393,10,-0.00239887,-1.89779,-0.336227,-0.175477,86.8457,0.189583,
2,0,0,1,0,8604.99,0.187509,0.187195,-12.8747,7,0.0178627,10,-0.00241008,-1.89026,-0.314272,-0.187736,94.4902,0.187195,
2,0,0,1,0,8605,0.185101,0.184791,-13.1327,7,0.0177846,10,-0.00242681,-1.88165,-0.295417,-0.199718,102.271,0.184791,
2,0,0,1,0,8605.01,0.182704,0.182444,-13.3648,7,0.0177051,10,-0.00243833,-1.87404,-0.294939,-0.200041,104.555,0.182444,
2,0,0,1,0,8605.01,0.180307,0.180012,-13.6444,7,0.0176241,10,-0.00245615,-1.86505,-0.264408,-0.22314,118.949,0.180012,
2,0,0,1,0,8605.02,0.177904,0.17762,-13.9391,7,0.0175414,10,-0.00247587,-1.85576,-0.253687,-0.23257,126.59,0.17762,
2,0,0,1,0,8605.02,0.175501,0.175249,-14.2504,7,0.0174568,10,-0.00249738,-1.84617,-0.239048,-0.246813,137.4,0.175249,
2,0,0,1,0,8605.03,0.173104,0.172783,-14.5885,7,0.0173703,10,-0.00252064,-1.83599,-0.225368,-0.261794,149.253,0.172783,
2,0,0,1,0,8605.04,0.170707,0.170394,-14.9518,7,0.0172817,10,-0.0025477,-1.82531,-0.209846,-0.281159,164.405,0.170394,
2,0,0,1,0,8605.04,0.168302,0.16805,-15.3683,7,0.0171907,10,-0.00258265,-1.81337,-0.201343,-0.293032,175.787,0.16805,
2,0,0,1,0,8605.05,0.165905,0.165586,-15.7996,7,0.0170971,10,-0.00261618,-1.80136,-0.194367,-0.30355,187.474,0.165586,
2,0,0,1,0,8605.05,0.163507,0.163172,-16.2594,7,0.0170009,10,-0.00265308,-1.7889,-0.18058,-0.326725,207.92,0.163172,
2,0,0,1,0,8605.06,0.161099,0.160807,-16.7949,7,0.0169018,10,-0.00270073,-1.77482,-0.172027,-0.34297,224.939,0.160807,
2,0,0,1,0,8605.07,0.158702,0.158405,-17.34,7,0.0167993,10,-0.00274673,-1.76095,-0.165429,-0.356649,241.835,0.158405,
2,0,0,1,0,8605.07,0.156305,0.155996,-17.9468,7,0.0166934,10,-0.00279963,-1.74601,-0.157283,-0.375121,263.493,0.155996,
2,0,0,1,0,8605.08,0.153908,0.153628,-18.6214,7,0.0165837,10,-0.00286077,-1.72999,-0.149274,-0.395246,287.515,0.153628,
2,0,0,1,0,8605.08,0.151503,0.151217,-19.3323,7,0.0164697,10,-0.00292338,-1.71372,-0.144123,-0.409373,309.313,0.151217,
2,0,0,1,0,8605.09,0.149105,0.148803,-20.0985,7,0.0163514,10,-0.00299071,-1.69684,-0.139711,-0.422301,331.715,0.148803,
2,0,0,1,0,8605.1,0.146708,0.146391,-20.9197,7,0.0162283,10,-0.00306246,-1.67944,-0.13559,-0.435135,355.788,0.146391,
2,0,0,1,0,8605.1,0.1443,0.144015,-21.8026,7,0.0161001,10,-0.00313991,-1.66149,-0.13111,-0.450005,383.541,0.144015,
2,0,0,1,0,8605.11,0.141903,0.141608,-22.7506,7,0.0159664,10,-0.00322167,-1.64301,-0.130242,-0.453004,402.538,0.141608,
2,0,0,1,0,8605.11,0.139506,0.139264,-23.7471,7,0.0158268,10,-0.00330713,-1.62439,-0.129851,-0.454368,421.47,0.139264,
2,0,0,1,0,8605.12,0.137109,0.136817,-24.7855,7,0.0156811,10,-0.00339108,-1.6058,-0.129455,-0.455756,441.089,0.136817,
2,0,0,1,0,8605.13,0.134701,0.134413,-25.8737,7,0.015529,10,-0.00347777,-1.58714,-0.131325,-0.449266,453.412,0.134413,
2,0,0,1,0,8605.13,0.132303,0.132034,-26.9593,7,0.0153704,10,-0.00355953,-1.56929,-0.132701,-0.444609,467.909,0.132034,
2,0,0,1,0,8605.14,0.129906,0.129621,-28.0978,7,0.0152051,10,-0.00364207,-1.55133,-0.136792,-0.431311,472.718,0.129621,
2,0,0,1,0,8605.14,0.127501,0.127208,-29.2524,7,0.015033,10,-0.00372113,-1.53384,-0.14263,-0.413658,471.262,0.127208,
2,0,0,1,0,8605.15,0.125104,0.124802,-30.3619,7,0.014854,10,-0.00378921,-1.51767,-0.149803,-0.393851,466.11,0.124802,
2,0,0,1,0,8605.16,0.122707,0.122473,-31.4421,7,0.0146685,10,-0.0038508,-1.50249,-0.154458,-0.381981,469.109,0.122473,
2,0,0,1,0,8605.16,0.12031,0.120044,-32.5927,7,0.0144763,10,-0.00391255,-1.48688,-0.159773,-0.369275,469.04,0.120044,
2,0,0,1,0,8605.17,0.117901,0.117647,-33.7094,7,0.0142772,10,-0.00396581,-1.47225,-0.167968,-0.351257,461.507,0.117647,
2,0,0,1,0,8605.17,0.115504,0.115252,-34.8083,7,0.0140716,10,-0.00401171,-1.45832,-0.180928,-0.326096,442.237,0.115252,
2,0,0,1,0,8605.18,0.113107,0.112858,-35.8421,7,0.0138595,10,-0.00404507,-1.44561,-0.195257,-0.302166,421.971,0.112858,
2,0,0,1,0,8605.19,0.110702,0.110452,-36.8386,7,0.0136413,10,-0.00406891,-1.4337,-0.208749,-0.282635,405.677,0.110452,
2,0,0,1,0,8605.19,0.108305,0.108046,-37.7909,7,0.0134173,10,-0.00408316,-1.42261,-0.224708,-0.262563,386.608,0.1080461,
2,0,0,1,0,8605.2,0.105908,0.105646,-38.6863,7,0.0131878,10,-0.00408707,-1.41244,-0.241641,-0.244164,368.17,0.105646,
2,0,0,1,0,8605.2,0.103505,0.103248,-39.5419,7,0.012953,10,-0.00408261,-1.40294,-0.263605,-0.22382,344.895,0.103248,
2,0,0,1,0,8605.21,0.101102,0.10088,-40.3403,7,0.0127132,10,-0.00406953,-1.39426,-0.287194,-0.205436,323.078,0.10088,
2,0,0,1,0,8605.22,0.0987052,0.0984505,-41.1092,7,0.0124688,10,-0.00404722,-1.38606,-0.318429,-0.185285,296.695,0.0984505,
2,0,0,1,0,8605.22,0.0963081,0.0960455,-41.7818,7,0.01222,10,-0.00401295,-1.37901,-0.367299,-0.160632,261.388,0.0960455,
2,0,0,1,0,8605.23,0.0938999,0.093615,-42.3676,7,0.0119674,10,-0.00396625,-1.37297,-0.417206,-0.141417,233.521,0.093615,
2,0,0,1,0,8605.23,0.0915028,0.0912206,-42.8985,7,0.0117116,10,-0.00391323,-1.36756,-0.499904,-0.118023,197.218,0.0912206,
2,0,0,1,0,8605.24,0.0891057,0.0888156,-43.3441,7,0.0114528,10,-0.00384963,-1.36307,-0.614696,-0.0959824,161.995,0.0888156,
2,0,0,1,0,8605.25,0.0867002,0.0863915,-43.6793,7,0.0111917,10,-0.00377352,-1.35972,-0.792337,-0.0744632,126.73,0.0863915,
2,0,0,1,0,8605.25,0.0843031,0.0840523,-43.9489,7,0.0109288,10,-0.003694,-1.35705,-1.11488,-0.0529206,90.5714,0.08405228,
2,0,0,1,0,8605.26,0.081906,0.081642,-44.108,7,0.0106645,10,-0.00360106,-1.35548,-2.04311,-0.0288775,49.6111,0.081642,
2,0,0,1,0,8605.26,0.0795089,0.0792794,-44.1726,7,0.0103996,10,-0.00350197,-1.35485,-10.547,-0.00559401,9.62825,0.0792794,
2,0,0,1,0,8605.27,0.0771007,0.07678,-44.1596,7,0.0101346,10,-0.00339058,-1.35497,3.792,0.0155591,-26.7636,0.07678,
2,0,0,1,0,8605.28,0.0747036,0.0744217,-44.041,7,0.00986996,10,-0.0032776,-1.35614,1.47585,0.0399771,-68.5788,0.0744217,
2,0,0,1,0,8605.28,0.0723065,0.0719668,-43.8335,7,0.00960631,10,-0.00315456,-1.35819,0.947194,0.0622892,-106.338,0.0719668,
2,0,0,1,0,8605.29,0.0699011,0.0696265,-43.5279,7,0.00934425,10,-0.0030307,-1.36123,0.725598,0.0813122,-137.918,0.06962651,
2,0,0,1,0,8605.29,0.067504,0.0671759,-43.1412,7,0.00908427,10,-0.00289805,-1.36511,0.59318,0.0994639,-167.279,0.06717591,
2,0,0,1,0,8605.3,0.0651069,0.0647762,-42.7287,7,0.00882665,10,-0.0027678,-1.36928,0.5109,0.115482,-192.249,0.0647762,
2,0,0,1,0,8605.31,0.0627098,0.0624062,-42.2094,7,0.00857183,10,-0.00263413,-1.37459,0.454082,0.129932,-213.949,0.0624062,
2,0,0,1,0,8605.31,0.0603016,0.0599853,-41.6976,7,0.00832014,10,-0.00250124,-1.37989,0.433984,0.13595,-221.182,0.0599853,
2,0,0,1,0,8605.32,0.0579045,0.057592,-41.1677,7,0.00807161,10,-0.00237093,-1.38544,0.415221,0.142093,-228.133,0.057592,
2,0,0,1,0,8605.32,0.0555074,0.0552188,-40.6002,7,0.00782635,10,-0.00224189,-1.39147,0.408284,0.144507,-229.002,0.0552188,
2,0,0,1,0,8605.33,0.0530992,0.0527597,-40.0609,7,0.00758446,10,-0.0021136,-1.39728,0.407756,0.144694,-226.257,0.0527597,
2,0,0,1,0,8605.34,0.0507021,0.0504066,-39.5347,7,0.00734575,10,-0.00199281,-1.40302,0.412934,0.14288,-220.386,0.0504066,
2,0,0,1,0,8605.34,0.048305,0.0479889,-38.9949,7,0.00711025,10,-0.00187132,-1.40899,0.403731,0.146137,-222.423,0.0479889,
2,0,0,1,0,8605.35,0.0459051,0.0455765,-38.4537,7,0.00687796,10,-0.00175258,-1.41506,0.409861,0.143951,-216.115,0.0455765,
2,0,0,1,0,8605.35,0.0435024,0.0431821,-37.9445,7,0.00664876,10,-0.00163852,-1.42085,0.412514,0.143025,-211.859,0.0431821,
2,0,0,1,0,8605.36,0.0411053,0.0407612,-37.452,7,0.00642262,10,-0.00152659,-1.42653,0.404387,0.1459,-213.167,0.0407612,
2,0,0,1,0,8605.37,0.0387082,0.0383678,-36.9287,7,0.00619949,10,-0.00141688,-1.43264,0.400466,0.147328,-212.341,0.0383678,
2,0,0,1,0,8605.37,0.0363,0.0359565,-36.4209,7,0.00597951,10,-0.00130957,-1.43865,0.389969,0.151294,-215.061,0.0359565,
2,0,0,1,0,8605.38,0.0339029,0.0335801,-35.9241,7,0.00576254,10,-0.00120634,-1.44461,0.378379,0.155928,-218.35,0.0335801,
2,0,0,1,0,8605.38,0.0315058,0.0312059,-35.384,7,0.00554867,10,-0.00110419,-1.45119,0.361947,0.163007,-224.929,0.0312059,
2,0,0,1,0,8605.39,0.0291087,0.0288274,-34.8142,7,0.00533816,10,-0.0010036,-1.45824,0.34175,0.172641,-234.593,0.0288274,
2,0,0,1,0,8605.4,0.0267033,0.0264022,-34.2678,7,0.00513094,10,-0.000904747,-1.46511,0.326649,0.180622,-241.26,0.0264022,
2,0,0,1,0,8605.4,0.0243062,0.0239792,-33.6702,7,0.00492715,10,-0.000807385,-1.47275,0.301504,0.195686,-256.836,0.0239792,
2,0,0,1,0,8605.41,0.0219091,0.0215551,-33.0302,7,0.0047271,10,-0.000711969,-1.48109,0.287915,0.204922,-264.145,0.0215551,
2,0,0,1,0,8605.41,0.0195009,0.0191628,-32.4021,7,0.00453086,10,-0.000620917,-1.48943,0.273657,0.215598,-272.4,0.0191628,
2,0,0,1,0,8605.42,0.0171038,0.0168098,-31.7379,7,0.00433849,10,-0.000533508,-1.49842,0.26354,0.223875,-277.078,0.0168098,
2,0,0,1,0,8605.43,0.0147067,0.0143974,-31.0528,7,0.00415015,10,-0.000447078,-1.5079,0.253846,0.232425,-281.607,0.0143974,
2,0,0,1,0,8605.43,0.012304,0.0119849,-30.3782,7,0.00396594,10,-0.000364081,-1.51744,0.247915,0.237985,-282.179,0.0119849,
2,0,0,1,0,8605.44,0.00990136,0.00956084,-29.7154,7,0.00378577,10,-0.000284104,-1.52702,0.248356,0.237562,-275.417,0.00956084,
2,0,0,1,0,8605.44,0.00750426,0.00716221,-29.0587,7,0.00360955,10,-0.000208125,-1.53672,0.249403,0.236565,-268.24,0.00716221,
2,0,0,1,0,8605.45,0.00510715,0.00478584,-28.3998,7,0.00343726,10,-0.000135917,-1.54668,0.270349,0.218236,-242.619,0.00478584,
2,0,0,1,0,8605.46,0.00270173,0.00238401,-27.8303,7,0.00326866,10,-6.63479e-05,-1.55548,0.28475,0.207199,-225.51,0.00238401,
2,0,0,1,0,8605.46,0.000304623,-3.68929e-05,-27.34,7,0.00310304,10,1.00865e-06,-1.5632,0.293292,0.201165,-214.518,-3.68929e-05,
2,0,0,1,0,8605.47,-0.00209248,-0.00246841,-26.8021,7,0.00294067,10,6.61584e-05,-1.57183,0.305341,0.193227,-202.693,-0.00246841,
2,0,0,1,0,8605.47,-0.00450068,-0.00487447,-26.3676,7,0.00278127,10,0.000128528,-1.57893,0.341835,0.172598,-177.817,-0.00487447,
2,0,0,1,0,8605.48,-0.00689779,-0.00730598,-25.9686,7,0.00262432,10,0.000189726,-1.58555,0.379891,0.155308,-157.506,-0.00730598,
2,0,0,1,0,8605.49,-0.00929489,-0.00960919,-25.5904,7,0.00246971,10,0.000245903,-1.59192,0.424527,0.138978,-139.1,-0.009609187,
2,0,0,1,0,8605.49,-0.011692,-0.012063,-25.2844,7,0.00231713,10,0.000305005,-1.59715,0.482117,0.122377,-120.959,-0.012063,
2,0,0,1,0,8605.5,-0.0140974,-0.0144033,-25.032,7,0.0021662,10,0.000360543,-1.6015,0.563832,0.104641,-102.331,-0.0144033,
2,0,0,1,0,8605.5,-0.0164945,-0.0168634,-24.8095,7,0.00201675,10,0.000418374,-1.60538,0.641108,0.0920282,-89.2113,-0.01686343,
2,0,0,1,0,8605.51,-0.0188916,-0.0192653,-24.6108,7,0.00186853,10,0.000474133,-1.60887,0.830736,0.0710213,-68.3391,-0.0192653,
2,0,0,1,0,8605.52,-0.0212998,-0.0216437,-24.4733,7,0.00172133,10,0.000529695,-1.61131,1.03741,0.0568722,-54.3889,-0.0216437,
2,0,0,1,0,8605.52,-0.0236969,-0.0240222,-24.3719,7,0.00157482,10,0.000585468,-1.61311,1.30673,0.045151,-42.9404,-0.0240222,
2,0,0,1,0,8605.53,-0.026094,-0.0264569,-24.2722,7,0.00142891,10,0.000642169,-1.61489,1.90771,0.0309272,-29.3338,-0.0264569,
2,0,0,1,0,8605.53,-0.0284912,-0.0288439,-24.1979,7,0.00128356,10,0.000697962,-1.61622,3.0294,0.0194758,-18.4292,-0.0288439,
2,0,0,1,0,8605.54,-0.0308994,-0.0312839,-24.1977,7,0.00113834,10,0.000756997,-1.61623,6.88168,0.00857349,-8.09221,-0.0312839,
2,0,0,1,0,8605.55,-0.0332965,-0.0336529,-24.1599,7,0.000993257,10,0.000813049,-1.61691,13.784,0.00428033,-4.04155,-0.0336529,
2,0,0,1,0,8605.55,-0.0356936,-0.0360854,-24.1624,7,0.000848298,10,0.000871909,-1.61686,-6.53873,-0.00902316,8.52502,-0.0360854,
2,0,0,1,0,8605.56,-0.038099,-0.0384427,-24.2152,7,0.000703136,10,0.000930897,-1.61591,-3.59866,-0.016395,15.493,-0.0384427,
2,0,0,1,0,8605.56,-0.0404961,-0.0408127,-24.2489,7,0.000557713,10,0.000989662,-1.61531,-3.39271,-0.0173902,16.4678,-0.04081272,
2,0,0,1,0,8605.57,-0.0428932,-0.0432326,-24.299,7,0.000412077,10,0.00105051,-1.61441,-2.14325,-0.0275283,26.1329,-0.0432326,
2,0,0,1,0,8605.58,-0.0452903,-0.0456461,-24.376,7,0.000266071,10,0.00111267,-1.61304,-1.65926,-0.035558,33.8363,-0.0456461,
2,0,0,1,0,8605.58,-0.0476985,-0.0479959,-24.4623,7,0.000119552,10,0.00117409,-1.6115,-1.5297,-0.0385696,36.8172,-0.0479959,
2,0,0,1,0,8605.59,-0.0500956,-0.050437,-24.5481,7,-2.74962e-05,10,0.00123813,-1.60998,-1.40283,-0.0420577,40.3091,-0.050437,
2,0,0,1,0,8605.59,-0.0524927,-0.0528335,-24.6426,7,-0.000175068,10,0.00130196,-1.60831,-1.24814,-0.0472705,45.5097,-0.0528335,
2,0,0,1,0,8605.6,-0.0548981,-0.0551918,-24.7756,7,-0.000323335,10,0.00136741,-1.60598,-1.16939,-0.0504536,48.765,-0.0551918,
2,0,0,1,0,8605.61,-0.0572953,-0.0576615,-24.8802,7,-0.000472327,10,0.00143463,-1.60415,-1.19833,-0.0492353,47.8143,-0.0576615,
2,0,0,1,0,8605.61,-0.0596924,-0.060039,-24.9902,7,-0.000621944,10,0.00150038,-1.60223,-1.0148,-0.0581395,56.7903,-0.060039,
2,0,0,1,0,8605.62,-0.062095,-0.0624334,-25.1544,7,-0.000772372,10,0.00157047,-1.59939,-0.983207,-0.0600077,58.8677,-0.0624334,
2,0,0,1,0,8605.62,-0.0644977,-0.0648225,-25.3028,7,-0.000923784,10,0.00164019,-1.59683,-0.984312,-0.0599403,59.1476,-0.0648225,
2,0,0,1,0,8605.63,-0.0668948,-0.0672391,-25.4257,7,-0.00107593,10,0.0017096,-1.59473,-0.989071,-0.059652,59.2478,-0.0672391,
2,0,0,1,0,8605.64,-0.0692919,-0.0696622,-25.5941,7,-0.00122898,10,0.00178294,-1.59186,-0.850445,-0.0693754,69.2992,-0.0696622,
2,0,0,1,0,8605.64,-0.0717001,-0.0720778,-25.7621,7,-0.00138306,10,0.00185687,-1.58902,-0.848054,-0.069571,69.9184,-0.0720778,
2,0,0,1,0,8605.65,-0.0740972,-0.0744764,-25.9203,7,-0.00153812,10,0.00193045,-1.58636,-0.882329,-0.0668685,67.6869,-0.0744764,
2,0,0,1,0,8605.65,-0.0764943,-0.0767966,-26.0884,7,-0.00169414,10,0.0020035,-1.58355,-0.787929,-0.0748799,76.2987,-0.0767966,
2,0,0,1,0,8605.66,-0.0788997,-0.0792397,-26.2815,7,-0.00185125,10,0.00208254,-1.58035,-0.775844,-0.0760462,77.9833,-0.0792397,
2,0,0,1,0,8605.67,-0.0812968,-0.0816373,-26.4673,7,-0.00200955,10,0.00216072,-1.57729,-0.782843,-0.0753663,77.8161,-0.08163733,
2,0,0,1,0,8605.67,-0.0836939,-0.0840688,-26.6502,7,-0.00216892,10,0.00224045,-1.5743,-0.743973,-0.079304,82.5482,-0.0840688,
2,0,0,1,0,8605.68,-0.086091,-0.0864357,-26.8622,7,-0.00232945,10,0.00232185,-1.57086,-0.710001,-0.0830985,87.1385,-0.0864357,
2,0,0,1,0,8605.68,-0.0884992,-0.088829,-27.0867,7,-0.00249135,10,0.00240609,-1.56724,-0.704048,-0.0838011,88.5321,-0.088829,
2,0,0,1,0,8605.69,-0.0908963,-0.0912913,-27.2801,7,-0.00265447,10,0.00249044,-1.56415,-0.706349,-0.0835281,89.0188,-0.0912913,
2,0,0,1,0,8605.7,-0.0932934,-0.0936295,-27.5141,7,-0.00281885,10,0.00257613,-1.56045,-0.663502,-0.0889221,95.5226,-0.0936295,
2,0,0,1,0,8605.7,-0.0956989,-0.0960037,-27.7769,7,-0.00298469,10,0.00266668,-1.55632,-0.649119,-0.0908924,98.4208,-0.0960037,
2,0,0,1,0,8605.71,-0.098096,-0.0984533,-27.9774,7,-0.00315194,10,0.00275447,-1.55319,-0.724031,-0.0814883,88.724,-0.0984533,
2,0,0,0,0,8605.71,-0.0999548,-0.100362,-28.1484,7,-0.00328389,10,0.00282503,-1.55055,0.0235896,2.5011,-2539.4,-0.100362,
2,0,0,1,1,8605.71,-0.0994555,-0.0999092,-26.4665,7,-0.00332996,10,0.00264424,-1.5773,-0.0179812,-3.2812,2944.47,-0.0999092,
2,0,0,1,1,8605.72,-0.0970583,-0.097501,-20.2739,7,-0.00346882,10,0.00197672,-1.69306,-0.0199374,-2.95926,2314.97,-0.097501,
2,0,0,1,1,8605.73,-0.0946501,-0.0950854,-15.242,7,-0.00357455,10,0.0014493,-1.81696,-0.0179124,-3.2938,1937.64,-0.09508542,
2,0,0,1,1,8605.73,-0.092253,-0.0926613,-10.9631,7,-0.00365243,10,0.00101586,-1.96007,-0.0146673,-4.02256,1668.69,-0.0926613,
2,0,0,1,1,8605.74,-0.0898559,-0.0902447,-7.29136,7,-0.00370661,10,0.000658006,-2.13719,-0.0106508,-5.53951,1438.82,-0.0902447,
2,0,0,1,1,8605.74,-0.0874588,-0.08781,-4.07555,7,-0.00374022,10,0.000357874,-2.38981,-0.00462483,-12.7572,1278.3,-0.08781,
2,0,0,1,1,8605.75,-0.0850534,-0.0854537,-1.22429,7,-0.00375561,10,0.00010462,-2.91212,-0.0157038,-3.75705,1125.17,-0.0854537,
2,1,0,1,1,8605.76,-0.0826563,-0.0830784,1.24762,7,-0.00375515,10,-0.00010365,-2.90392,0.021779,2.70903,985.816,-0.0830784,
2,1,0,1,1,8605.76,-0.0802592,-0.0807084,3.46966,7,-0.00374065,10,-0.000280031,-2.45971,0.00569119,10.3669,872.374,-0.0807084,
2,1,0,1,1,8605.77,-0.077851,-0.0783183,5.46906,7,-0.00371354,10,-0.000428328,-2.26209,0.0142377,4.14392,780.953,-0.0783183,
2,1,0,1,1,8605.77,-0.0754539,-0.0758952,7.20352,7,-0.00367528,10,-0.000546713,-2.14246,0.0224102,2.63273,698.943,-0.0758952,
2,1,0,1,1,8605.78,-0.0730568,-0.0735231,8.77109,7,-0.00362714,10,-0.000644878,-2.05695,0.0311411,1.8946,628.413,-0.0735231,
2,1,0,1,1,8605.79,-0.0706597,-0.0711022,10.2016,7,-0.00357001,10,-0.000725356,-1.99133,0.0407481,1.44792,563.183,-0.0711022,
2,1,0,1,1,8605.79,-0.0682542,-0.0686982,11.4986,7,-0.00350466,10,-0.000789934,-1.93935,0.0514825,1.14602,504.924,-0.0686982,
2,1,0,1,1,8605.8,-0.0658571,-0.0662869,12.6304,7,-0.00343211,10,-0.000837229,-1.89858,0.0638452,0.924111,450.057,-0.0662869,
2,1,0,1,1,8605.8,-0.06346,-0.0638384,13.6568,7,-0.00335309,10,-0.000871827,-1.86465,0.0762286,0.773988,408.887,-0.0638384,
2,1,0,1,1,8605.81,-0.0610518,-0.0614599,14.6058,7,-0.00326817,10,-0.000897671,-1.83547,0.092676,0.636627,359.155,-0.0614599,
2,1,0,1,1,8605.82,-0.0586547,-0.0590369,15.4145,7,-0.00317797,10,-0.000910023,-1.81207,0.109808,0.5373,320.922,-0.0590369,
2,1,0,1,1,8605.82,-0.0562576,-0.0566372,16.1211,7,-0.00308327,10,-0.000913052,-1.79261,0.12832,0.459787,288.114,-0.0566372,
2,1,0,1,1,8605.83,-0.053855,-0.0541739,16.7899,7,-0.00298444,10,-0.000909572,-1.77495,0.151507,0.389422,253.736,-0.05417385,
2,1,0,1,1,8605.83,-0.0514523,-0.0518134,17.3526,7,-0.00288189,10,-0.0008991,-1.76063,0.176882,0.333556,225.048,-0.05181339,
2,1,0,1,1,8605.84,-0.0490552,-0.0494455,17.8638,7,-0.00277618,10,-0.000883286,-1.74803,0.203631,0.28974,201.485,-0.0494455,
2,1,0,1,1,8605.85,-0.0466581,-0.0470309,18.3264,7,-0.00266755,10,-0.000861908,-1.73692,0.234482,0.251619,179.379,-0.0470309,
2,1,0,1,1,8605.85,-0.0442527,-0.0445878,18.7299,7,-0.00255631,10,-0.000835125,-1.72746,0.27441,0.215007,156.689,-0.0445878,
2,1,0,1,1,8605.86,-0.0418556,-0.0422411,19.0703,7,-0.00244286,10,-0.00080555,-1.71964,0.322449,0.182975,135.895,-0.0422411,
2,1,0,1,1,8605.86,-0.0394585,-0.0398414,19.3784,7,-0.00232746,10,-0.000772061,-1.71268,0.359886,0.163941,123.81,-0.0398414,
2,1,0,1,1,8605.87,-0.0370558,-0.0374343,19.6565,7,-0.00221032,10,-0.000735826,-1.70649,0.421309,0.14004,107.22,-0.0374343,
2,1,0,1,1,8605.88,-0.0346532,-0.0350038,19.9025,7,-0.00209159,10,-0.000696663,-1.70109,0.493497,0.119555,92.6581,-0.0350038,
2,1,0,1,1,8605.88,-0.0322561,-0.032638,20.0817,7,-0.0019716,10,-0.000655427,-1.6972,0.591316,0.0997774,78.1672,-0.032638,
2,1,0,1,1,8605.89,-0.0298589,-0.0302299,20.27,7,-0.00185049,10,-0.00061276,-1.69315,0.701657,0.0840867,66.4346,-0.0302299,
2,1,0,1,1,8605.89,-0.0274535,-0.0278217,20.4201,7,-0.00172836,10,-0.00056812,-1.68994,0.856856,0.0688564,54.7808,-0.0278217,
2,1,0,1,1,8605.9,-0.0250564,-0.0254273,20.5314,7,-0.00160552,10,-0.000522057,-1.68758,1.09093,0.0540823,43.3212,-0.02542728,
2,1,0,1,1,8605.91,-0.0226593,-0.023018,20.6345,7,-0.00148202,10,-0.000474966,-1.68541,1.1984,0.0492322,39.5958,-0.023018,
2,1,0,1,1,8605.91,-0.0202511,-0.0206332,20.732,7,-0.00135795,10,-0.000427767,-1.68336,1.66859,0.0353591,28.5532,-0.02063318,
2,1,0,1,1,8605.92,-0.017854,-0.0182356,20.768,7,-0.00123347,10,-0.000378717,-1.68261,2.11509,0.0278948,22.5966,-0.0182356,
2,1,0,1,1,8605.92,-0.0154569,-0.0157723,20.8132,7,-0.00110872,10,-0.000328271,-1.68166,2.711,0.0217632,17.6714,-0.0157723,
2,1,0,1,1,8605.93,-0.0130598,-0.0134394,20.8373,7,-0.000983717,10,-0.00028004,-1.68116,4.54918,0.0129694,10.5443,-0.0134394,
2,1,0,1,1,8605.94,-0.0106516,-0.0110206,20.8594,7,-0.000858586,10,-0.000229883,-1.6807,13.2353,0.00445779,3.62751,-0.0110206,
2,1,0,1,1,8605.94,-0.00825448,-0.00859332,20.8643,7,-0.000733411,10,-0.000179293,-1.6806,-50.429,-0.00116996,-0.952075,-0.00859332,
2,1,0,1,1,8605.95,-0.00585738,-0.00620846,20.8544,7,-0.000608258,10,-0.000129473,-1.6808,-11.859,-0.00497512,-4.04807,-0.00620846,
2,1,0,1,1,8605.95,-0.00345195,-0.00376953,20.8418,7,-0.000483174,10,-7.85636e-05,-1.68107,-4.94193,-0.0119387,-9.70355,-0.00376953,
2,1,0,1,1,8605.96,-0.00105485,-0.0014027,20.811,7,-0.000358201,10,-2.91916e-05,-1.68171, , , ,-0.0014027,
2,1,0,0,1,8605.96,-7.54729e-05,-0.000497109,20.7834,7,-0.000306199,10,-1.03316e-05,-1.68228, , , ,-0.000497109,