File: Figure_codes/Fig_3-5/rawdata_trumpetplot_data/before 10th/20221101_1-115_002_TrumpetPlot_ParaChange_11_CV_C01_4.csv
mode,ox/red,error,control changes,counter inc.,time/s,control/V,Ewe/V,<I>/mA,cycle number,(Q-Qo)/C,I Range,P/W,log(|I|),Tafel slope mV/dec,alpha_eff,dI/d(E-IR),E-IR/V,
2,0,0,1,0,6128.5,2.44065e-05,0.000686305,-7.23525,5,0.0000000E+000,11,-4.96559e-06,-2.14055, , , ,0.000686305,
2,0,0,1,0,6128.52,0.00179726,0.00137843,-2.8201,5,-9.28393e-05,11,-3.8873e-06,-2.54974, , , ,0.001378427,
2,1,0,1,0,6128.54,0.00379485,0.00353571,0.330833,5,-0.000113478,11,1.16973e-06,-3.48039,-0.0248015,-2.37889,1147.02,0.00353571,
2,1,0,1,0,6128.56,0.00579244,0.00551207,1.9213,5,-8.90136e-05,11,1.05903e-05,-2.71641,0.0041882,14.0872,636.067,0.005512075,
2,1,0,1,0,6128.58,0.00779002,0.00742247,2.80307,5,-4.07708e-05,11,2.08057e-05,-2.55237,0.0167669,3.51885,351.436,0.00742247,
2,1,0,1,0,6128.6,0.00978761,0.00950464,3.32443,5,2.08022e-05,11,3.15976e-05,-2.47828,0.0362935,1.62563,203.037,0.00950464,
2,1,0,1,0,6128.62,0.0117852,0.0115119,3.63337,5,9.07382e-05,11,4.18268e-05,-2.43969,0.0651192,0.906031,126.232,0.01151185,
2,1,0,1,0,6128.64,0.0137828,0.0134883,3.82729,5,0.000165493,11,5.16235e-05,-2.41711,0.105844,0.557426,82.5882,0.0134883,
2,1,0,1,0,6128.66,0.0157804,0.0155171,3.96416,5,0.000243557,11,6.15124e-05,-2.40185,0.14373,0.410491,63.2901,0.0155171,
2,1,0,1,0,6128.68,0.017778,0.017428,4.07664,5,0.000323733,11,7.10474e-05,-2.3897,0.214203,0.275439,43.5435,0.017428,
2,1,0,1,0,6128.7,0.0197755,0.0195226,4.13857,5,0.000405898,11,8.07955e-05,-2.38315,0.294184,0.200554,32.4224,0.0195226,
2,1,0,1,0,6128.72,0.0217731,0.0215043,4.2088,5,0.000489448,11,9.05075e-05,-2.37584,0.290987,0.202758,33.2623,0.0215043,
2,1,0,1,0,6128.74,0.0237707,0.0234467,4.26909,5,0.000574311,11,0.000100096,-2.36966,0.331838,0.177797,29.6123,0.0234467,
2,1,0,1,0,6128.76,0.0257683,0.0254933,4.32693,5,0.000659875,11,0.000110308,-2.36382,0.370179,0.159382,26.892,0.0254933,
2,1,0,1,0,6128.78,0.0277659,0.0274983,4.37805,5,0.000747011,11,0.000120389,-2.35872,0.352831,0.167219,28.609,0.0274983,
2,1,0,1,0,6128.8,0.0297635,0.0294895,4.44125,5,0.000835322,11,0.00013097,-2.35249,0.369171,0.159818,27.6512,0.0294895,
2,1,0,1,0,6128.82,0.0317611,0.0315106,4.48899,5,0.00092468,11,0.000141451,-2.34785,0.333887,0.176707,31.0535,0.03151058,
2,1,0,1,0,6128.84,0.0337586,0.03348,4.56517,5,0.00101475,11,0.000152842,-2.34054,0.315703,0.186884,33.2202,0.03347997,
2,1,0,1,0,6128.86,0.0357562,0.0354891,4.62116,5,0.00110665,11,0.000164001,-2.33525,0.370998,0.15903,28.687,0.0354891,
2,1,0,1,0,6128.88,0.0377538,0.0374671,4.67955,5,0.00119979,11,0.000175329,-2.3298,0.331403,0.178031,32.551,0.0374671,
2,1,0,1,0,6128.9,0.0397514,0.0394265,4.74933,5,0.00129408,11,0.000187249,-2.32337,0.263302,0.224077,41.645,0.0394265,
2,1,0,1,0,6128.92,0.041749,0.0414564,4.84568,5,0.00138951,11,0.000200884,-2.31465,0.272694,0.21636,40.7913,0.0414564,
2,1,0,1,0,6128.94,0.0437466,0.0434484,4.91338,5,0.00148713,11,0.000213479,-2.30862,0.324729,0.18169,34.8554,0.0434484,
2,1,0,1,0,6128.96,0.0457442,0.0454864,4.98615,5,0.00158608,11,0.000226802,-2.30223,0.282038,0.209191,40.7825,0.0454864,
2,1,0,1,0,6128.98,0.0477418,0.0474906,5.07823,5,0.00168681,11,0.000241168,-2.29429,0.22934,0.25726,51.0723,0.0474906,
2,1,0,1,0,6129,0.0497484,0.0494566,5.18892,5,0.0017894,11,0.000256626,-2.28492,0.234804,0.251273,50.7802,0.0494566,
2,1,0,1,0,6129.02,0.0517369,0.0514561,5.2796,5,0.00189359,11,0.000271668,-2.2774,0.242924,0.242874,50.1253,0.0514561,
2,1,0,1,0,6129.04,0.0537345,0.0534453,5.38885,5,0.00200028,11,0.000288009,-2.2685,0.223962,0.263438,55.4026,0.0534453,
2,1,0,1,0,6129.06,0.0557321,0.0554233,5.4994,5,0.00210925,11,0.000304795,-2.25968,0.229532,0.257045,55.1583,0.0554233,
2,1,0,1,0,6129.08,0.0577206,0.057445,5.60947,5,0.00221983,11,0.000322236,-2.25108,0.210327,0.280515,61.5393,0.057445,
2,1,0,1,0,6129.1,0.0597273,0.0594123,5.74488,5,0.0023336,11,0.000341317,-2.24072,0.200178,0.294738,66.0225,0.0594123,
2,1,0,1,0,6129.12,0.0617249,0.0614217,5.87202,5,0.00244984,11,0.00036067,-2.23121,0.218732,0.269736,61.7791,0.0614217,
2,1,0,1,0,6129.14,0.0637224,0.063448,5.9942,5,0.00256859,11,0.00038032,-2.22227,0.213101,0.276864,64.8539,0.063448,
2,1,0,1,0,6129.16,0.06572,0.0654635,6.13414,5,0.00268994,11,0.000401562,-2.21225,0.187077,0.315379,75.6141,0.0654635,
2,1,0,1,0,6129.18,0.0677176,0.0674259,6.29499,5,0.0028138,11,0.000424445,-2.20101,0.201255,0.293161,71.801,0.0674259,
2,1,0,1,0,6129.2,0.0697152,0.0694359,6.41937,5,0.00294109,11,0.000445735,-2.19251,0.221289,0.26662,66.8889,0.0694359,
2,1,0,1,0,6129.22,0.0717128,0.0714409,6.56355,5,0.003071,11,0.000468906,-2.18286,0.209709,0.281342,72.0573,0.0714409,
2,1,0,1,0,6129.24,0.0737104,0.0734422,6.70805,5,0.00320376,11,0.000492654,-2.1734,0.20549,0.287118,75.1995,0.0734422,
2,1,0,1,0,6129.26,0.075708,0.0753932,6.86075,5,0.00333891,11,0.000517254,-2.16363,0.216306,0.272762,72.9191,0.0753932,
2,1,0,1,0,6129.28,0.0777056,0.0773644,6.99406,5,0.00347749,11,0.000541091,-2.15527,0.231868,0.254455,69.5274,0.0773644,
2,1,0,1,0,6129.3,0.0797031,0.0794649,7.14385,5,0.00361893,11,0.000567685,-2.14607,0.229693,0.256865,71.5626,0.0794649,
2,1,0,1,0,6129.32,0.0817007,0.0814339,7.28528,5,0.00376328,11,0.000593269,-2.13755,0.238792,0.247077,70.2235,0.0814339,
2,1,0,1,0,6129.34,0.0836983,0.0834418,7.42312,5,0.00390963,11,0.000619399,-2.12941,0.253003,0.233199,67.5186,0.0834418,
2,1,0,1,0,6129.36,0.0856959,0.0854124,7.5539,5,0.00405948,11,0.000645197,-2.12183,0.25915,0.227667,67.1282,0.0854124,
2,1,0,1,0,6129.38,0.0876935,0.0873971,7.68863,5,0.00421197,11,0.000671964,-2.11415,0.275844,0.213889,64.1249,0.0873971,
2,1,0,1,0,6129.4,0.0896911,0.0894307,7.81158,5,0.00436699,11,0.000698595,-2.10726,0.273135,0.21601,65.9088,0.0894307,
2,1,0,1,0,6129.42,0.0916887,0.0913498,7.94915,5,0.00452382,11,0.000726153,-2.09968,0.271887,0.217002,67.2799,0.0913498,
2,1,0,1,0,6129.44,0.0936862,0.0933999,8.07862,5,0.00468421,11,0.000754543,-2.09266,0.319927,0.184417,58.0494,0.0933999,
2,1,0,1,0,6129.46,0.0956838,0.0953789,8.18304,5,0.00484692,11,0.000780489,-2.08709,0.317261,0.185967,59.4915,0.09537892,
2,1,0,1,0,6129.48,0.0976814,0.0973996,8.31657,5,0.00501199,11,0.00081003,-2.08006,0.282484,0.208862,67.8115,0.09739957,
2,1,0,1,0,6129.5,0.099679,0.0994167,8.45685,5,0.00517886,11,0.000840752,-2.07279,0.300946,0.196048,64.6171,0.0994167,
2,1,0,1,0,6129.52,0.101677,0.101408,8.57556,5,0.00534925,11,0.000869626,-2.06674,0.306756,0.192335,64.4328,0.101408,
2,1,0,1,0,6129.54,0.103674,0.10338,8.7122,5,0.00552214,11,0.000900666,-2.05987,0.271136,0.217603,74.0781,0.1033798,
2,1,0,1,0,6129.56,0.105672,0.105408,8.87193,5,0.00569806,11,0.000935177,-2.05198,0.252116,0.234019,81.0189,0.105408,
2,1,0,1,0,6129.58,0.107667,0.107323,9.03166,5,0.00587621,11,0.000969303,-2.04423,0.250542,0.23549,83.0147,0.1073228,
2,1,0,1,0,6129.6,0.109667,0.109306,9.19546,5,0.0060585,11,0.00100512,-2.03643,0.24738,0.238499,85.6656,0.109306,
2,1,0,1,0,6129.62,0.111665,0.111362,9.37764,5,0.00624428,11,0.00104431,-2.02791,0.237448,0.248476,90.9487,0.111362,
2,1,0,1,0,6129.64,0.113662,0.113365,9.56463,5,0.00643369,11,0.00108429,-2.01933,0.215177,0.274193,102.517,0.1133648,
2,1,0,1,0,6129.66,0.11566,0.115341,9.78562,5,0.00662718,11,0.00112869,-2.00941,0.18753,0.314616,120.376,0.115341,
2,1,0,1,0,6129.68,0.117657,0.117372,10.0471,5,0.00682463,11,0.00117925,-1.99796,0.182756,0.322835,126.462,0.117372,
2,1,0,1,0,6129.7,0.119655,0.119354,10.2931,5,0.00702809,11,0.00122853,-1.98745,0.189222,0.311802,125.299,0.119354,
2,1,0,1,0,6129.72,0.121652,0.121393,10.5508,5,0.00723657,11,0.00128079,-1.97671,0.182166,0.32388,133.463,0.121393,
2,1,0,1,0,6129.74,0.12365,0.123369,10.829,5,0.00745043,11,0.00133596,-1.96541,0.169958,0.347144,146.844,0.123369,
2,1,0,1,0,6129.76,0.125648,0.125351,11.132,5,0.00766915,11,0.00139541,-1.95343,0.174329,0.33844,146.86,0.125351,
2,1,0,1,0,6129.78,0.127645,0.127351,11.4137,5,0.00789471,11,0.00145355,-1.94257,0.17914,0.329351,146.842,0.127351,
2,1,0,1,0,6129.8,0.129643,0.129366,11.7216,5,0.00812612,11,0.00151637,-1.93101,0.176367,0.334531,152.948,0.129366,
2,1,0,1,0,6129.82,0.13164,0.131326,12.0217,5,0.00836368,11,0.00157876,-1.92003,0.182062,0.324065,152.049,0.131326,
2,1,0,1,0,6129.84,0.133638,0.133355,12.3281,5,0.00860624,11,0.00164401,-1.9091,0.189308,0.311661,149.836,0.133355,
2,1,0,1,0,6129.86,0.135636,0.135324,12.6208,5,0.0088558,11,0.00170791,-1.89891,0.198985,0.296504,146.004,0.135324,
2,1,0,1,0,6129.88,0.137633,0.137348,12.9111,5,0.00911116,11,0.00177332,-1.88904,0.214304,0.27531,138.568,0.137348,
2,1,0,1,0,6129.9,0.139631,0.139335,13.1766,5,0.00937216,11,0.00183597,-1.8802,0.225219,0.261968,134.738,0.139335,
2,1,0,1,0,6129.92,0.141628,0.14135,13.4504,5,0.00963714,11,0.00190122,-1.87127,0.234869,0.251204,131.725,0.14135,
2,1,0,1,0,6129.94,0.143626,0.143304,13.6994,5,0.00990873,11,0.00196318,-1.8633,0.265965,0.221834,118.478,0.143304,
2,1,0,1,0,6129.96,0.145624,0.145335,13.9225,5,0.010185,11,0.00202342,-1.85628,0.314541,0.187575,101.771,0.145335,
2,1,0,1,0,6129.98,0.147621,0.147311,14.1072,5,0.0104654,11,0.00207815,-1.85056,0.351213,0.167989,92.48,0.147311,
2,1,0,1,0,6130,0.149619,0.14932,14.291,5,0.0107481,11,0.00213394,-1.84494,0.430874,0.136931,76.2067,0.14932,
2,1,0,1,0,6130.02,0.151616,0.151344,14.4145,5,0.0110353,11,0.00218154,-1.8412,0.701938,0.084053,47.1891,0.151344,
2,1,0,1,0,6130.04,0.153614,0.153333,14.4804,5,0.0113244,11,0.00222033,-1.83922,1.57688,0.0374156,21.1098,0.153333,
2,1,0,1,0,6130.06,0.155611,0.155343,14.4989,5,0.0116143,11,0.0022523,-1.83866,-13.7965,-0.00427646,-2.41594,0.155343,
2,1,0,1,0,6130.08,0.157609,0.157296,14.4708,5,0.0119027,11,0.0022762,-1.83951,-0.722767,-0.0816308,-45.8982,0.157296,
2,1,0,1,0,6130.1,0.159607,0.159332,14.3158,5,0.0121907,11,0.00228096,-1.84418,-0.338054,-0.174528,-97.2293,0.159332,
2,1,0,1,0,6130.12,0.161604,0.161311,14.0804,5,0.0124749,11,0.00227133,-1.85139,-0.224005,-0.263387,-144.149,0.161311,
2,1,0,1,0,6130.14,0.163602,0.163361,13.7351,5,0.0127532,11,0.00224377,-1.86217,-0.156011,-0.37818,-201.786,0.163361,
2,1,0,1,0,6130.16,0.165606,0.165321,13.2714,5,0.0130235,11,0.00219403,-1.87708,-0.117447,-0.502352,-259.097,0.1653205,
2,1,0,1,0,6130.18,0.167597,0.167319,12.7096,5,0.0132822,11,0.00212655,-1.89587,-0.0957136,-0.616422,-304.469,0.167319,
2,1,0,1,0,6130.2,0.169595,0.169299,12.0602,5,0.01353,11,0.00204177,-1.91865,-0.0796865,-0.740401,-346.859,0.169299,
2,1,0,1,0,6130.22,0.171592,0.171311,11.3249,5,0.0137639,11,0.00194007,-1.94597,-0.0697069,-0.846401,-373.151,0.171311,
2,1,0,1,0,6130.24,0.173581,0.173303,10.5658,5,0.0139816,11,0.00183109,-1.9761,-0.0654645,-0.901252,-371.358,0.173303,
2,1,0,1,0,6130.26,0.175587,0.175345,9.8266,5,0.0141856,11,0.00172305,-2.0076,-0.0622856,-0.947249,-363.214,0.175345,
2,1,0,1,0,6130.28,0.177585,0.177285,9.11971,5,0.0143749,11,0.00161679,-2.04002,-0.0616649,-0.956783,-340.95,0.177285,
2,1,0,1,0,6130.3,0.179582,0.179328,8.46884,5,0.0145505,11,0.0015187,-2.07218,-0.0649198,-0.908814,-301.58,0.179328,
2,1,0,1,0,6130.32,0.18158,0.181281,7.91441,5,0.0147141,11,0.00143474,-2.10158,-0.0719168,-0.820393,-254.505,0.181281,
2,1,0,1,0,6130.34,0.183578,0.183327,7.45084,5,0.014867,11,0.00136594,-2.12779,-0.0801027,-0.736554,-214.84,0.183327,
2,1,0,1,0,6130.36,0.185575,0.185305,7.05005,5,0.0150118,11,0.00130641,-2.15181,-0.0879516,-0.670823,-185.265,0.185305,
2,1,0,1,0,6130.38,0.187573,0.187299,6.715,5,0.0151494,11,0.00125771,-2.17295,-0.101149,-0.583295,-153.484,0.187299,
2,1,0,1,0,6130.4,0.18957,0.189255,6.44375,5,0.0152809,11,0.00121951,-2.19086,-0.115347,-0.511502,-128.895,0.189255,
2,1,0,1,0,6130.42,0.191568,0.191251,6.20558,5,0.0154067,11,0.00118683,-2.20722,-0.130674,-0.451507,-109.61,0.191251,
2,1,0,1,0,6130.44,0.193566,0.193282,6.00238,5,0.0155288,11,0.00116015,-2.22168,-0.147227,-0.400743,-94.0469,0.193282,
2,1,0,1,0,6130.46,0.195563,0.195297,5.8251,5,0.0156471,11,0.00113762,-2.2347,-0.152915,-0.385835,-87.7302,0.195297,
2,1,0,1,0,6130.48,0.197561,0.197259,5.65346,5,0.0157619,11,0.0011152,-2.24769,-0.170932,-0.345167,-76.4113,0.197259,
2,1,0,1,0,6130.5,0.199558,0.19926,5.52233,5,0.0158732,11,0.00110038,-2.25788,-0.196046,-0.30095,-64.8565,0.19926,
2,1,0,1,0,6130.52,0.201556,0.201281,5.39259,5,0.0159823,11,0.00108543,-2.2682,-0.195737,-0.301425,-63.4577,0.201281,
2,1,0,1,0,6130.54,0.203553,0.203261,5.26841,5,0.016089,11,0.00107086,-2.27832,-0.202028,-0.292039,-60.0892,0.203261,
2,1,0,1,0,6130.56,0.205551,0.205258,5.1536,5,0.0161932,11,0.00105782,-2.28789,-0.260104,-0.226833,-45.8257,0.205258,
2,1,0,1,0,6130.58,0.207549,0.207247,5.08576,5,0.016295,11,0.00105401,-2.29364,-0.271863,-0.217021,-42.9123,0.207247,
2,1,0,1,0,6130.6,0.209546,0.209291,4.98056,5,0.0163957,11,0.00104239,-2.30272,-0.229135,-0.25749,-50.0926,0.209291,
2,1,0,1,0,6130.62,0.211544,0.21125,4.88521,5,0.0164943,11,0.001032,-2.31112,-0.266013,-0.221793,-42.3828,0.2112502,
2,1,0,1,0,6130.64,0.213541,0.213239,4.81321,5,0.0165913,11,0.00102637,-2.31756,-0.338343,-0.174379,-32.795,0.213239,
2,1,0,1,0,6130.66,0.215539,0.215275,4.75323,5,0.0166864,11,0.00102325,-2.32301,-0.330598,-0.178464,-33.061,0.215275,
2,1,0,1,0,6130.68,0.217537,0.217239,4.68099,5,0.0167807,11,0.00101689,-2.32966,-0.320748,-0.183945,-33.6404,0.217239,
2,1,0,1,0,6130.7,0.219534,0.219248,4.61957,5,0.0168737,11,0.00101283,-2.3354,-0.377763,-0.156183,-28.1833,0.219248,
2,1,0,1,0,6130.72,0.221532,0.221284,4.56698,5,0.0169656,11,0.0010106,-2.34037,-0.392248,-0.150415,-26.8023,0.221284,
2,1,0,1,0,6130.74,0.223525,0.223245,4.51244,5,0.017056,11,0.00100738,-2.34559,-0.438786,-0.134462,-23.7175,0.223245,
2,1,0,1,0,6130.76,0.225527,0.225261,4.47266,5,0.017146,11,0.00100751,-2.34943,-0.497647,-0.118558,-20.6865,0.2252607,
2,1,0,1,0,6130.78,0.227525,0.227251,4.42957,5,0.017235,11,0.00100662,-2.35364,-0.448259,-0.13162,-22.7413,0.227251,
2,1,0,1,0,6130.8,0.229522,0.229246,4.38203,5,0.0173232,11,0.00100456,-2.35832,-0.506179,-0.11656,-19.9695,0.229246,
2,1,0,1,0,6130.82,0.23152,0.23121,4.3505,5,0.0174106,11,0.00100588,-2.36146,-0.75308,-0.0783449,-13.3169,0.23121,
2,1,0,1,0,6130.84,0.233517,0.233235,4.3289,5,0.0174971,11,0.00100965,-2.36362,-0.644467,-0.0915485,-15.432,0.233235,
2,1,0,1,0,6130.86,0.235515,0.235252,4.28814,5,0.0175833,11,0.00100879,-2.36773,-0.54104,-0.109049,-18.2672,0.235252,
2,1,0,1,0,6130.88,0.237512,0.237237,4.25581,5,0.0176687,11,0.00100963,-2.37102,-0.722944,-0.0816107,-13.5717,0.237237,
2,1,0,1,0,6130.9,0.23951,0.239226,4.2342,5,0.0177537,11,0.00101293,-2.37323,-0.983781,-0.0599727,-9.91398,0.239226,
2,1,0,1,0,6130.92,0.241508,0.241276,4.21576,5,0.0178379,11,0.00101716,-2.37512,-0.740876,-0.0796354,-13.0779,0.241276,
2,1,0,1,0,6130.94,0.243505,0.243238,4.18173,5,0.0179218,11,0.00101716,-2.37864,-0.769093,-0.0767137,-12.5475,0.243238,
2,1,0,1,0,6130.96,0.245503,0.24521,4.1664,5,0.0180053,11,0.00102164,-2.38024,-0.952967,-0.0619119,-10.0557,0.24521,
2,1,0,1,0,6130.98,0.2475,0.247208,4.14181,5,0.0180885,11,0.00102389,-2.38281,-0.946988,-0.0623028,-10.0814,0.2472081,
2,1,0,1,0,6131,0.249498,0.249212,4.12605,5,0.0181708,11,0.00102826,-2.38447,-0.932669,-0.0632593,-10.1748,0.249212,
2,1,0,1,0,6131.02,0.251496,0.251229,4.10089,5,0.0182531,11,0.00103026,-2.38712,-0.850751,-0.0693505,-11.1075,0.251229,
2,1,0,1,0,6131.04,0.253493,0.253184,4.08194,5,0.018335,11,0.00103348,-2.38913,-0.879346,-0.0670953,-10.6822,0.253184,
2,1,0,1,0,6131.06,0.255491,0.255228,4.05818,5,0.0184165,11,0.00103576,-2.39167,-1.56156,-0.0377826,-6.00102,0.255228,
2,1,0,1,0,6131.08,0.257488,0.257238,4.05761,5,0.0184973,11,0.00104377,-2.39173,-1.77067,-0.0333207,-5.26352,0.257238,
2,1,0,1,0,6131.1,0.259486,0.25924,4.03706,5,0.0185783,11,0.00104657,-2.39393,-0.717397,-0.0822417,-12.9398,0.25924,
2,1,0,1,0,6131.12,0.261484,0.261258,4.0056,5,0.0186588,11,0.00104649,-2.39733,-0.896604,-0.0658038,-10.3145,0.261258,
2,1,0,1,0,6131.14,0.263481,0.263243,3.99577,5,0.0187389,11,0.00105186,-2.3984,-3.30918,-0.0178292,-2.78333,0.263243,
2,1,0,1,0,6131.16,0.265479,0.265218,3.99458,5,0.0188185,11,0.00105944,-2.39853,-1.6531,-0.0356904,-5.55019,0.265218,
2,1,0,1,0,6131.18,0.267476,0.267239,3.97359,5,0.0188982,11,0.0010619,-2.40082,-0.951745,-0.0619914,-9.61798,0.267239,
2,1,0,1,0,6131.2,0.269474,0.269185,3.95643,5,0.0189775,11,0.00106501,-2.4027,-1.25248,-0.0471064,-7.27859,0.269185,
2,1,0,1,0,6131.22,0.271471,0.2712,3.94476,5,0.0190565,11,0.00106982,-2.40398,-3.22027,-0.0183214,-2.82488,0.2712,
2,1,0,1,0,6131.24,0.273469,0.273219,3.94503,5,0.0191349,11,0.00107786,-2.40395,-1.21553,-0.0485385,-7.44424,0.273219,
2,1,0,1,0,6131.26,0.275467,0.275215,3.91487,5,0.0192135,11,0.00107743,-2.40728,-0.894536,-0.065956,-10.1031,0.2752153,
2,1,0,1,0,6131.28,0.277464,0.277181,3.905,5,0.0192917,11,0.00108239,-2.40838,-1.34528,-0.043857,-6.67794,0.277181,
2,1,0,1,0,6131.3,0.279462,0.279194,3.8883,5,0.0193697,11,0.00108559,-2.41024,-1.30629,-0.0451661,-6.85885,0.279194,
2,1,0,1,0,6131.32,0.281464,0.281223,3.87728,5,0.0194473,11,0.00109038,-2.41147,-1.65139,-0.0357274,-5.40639,0.281223,
2,1,0,1,0,6131.34,0.283457,0.283216,3.86655,5,0.0195244,11,0.00109507,-2.41268,-1.39181,-0.0423908,-6.39379,0.2832163,
2,1,0,1,0,6131.36,0.285455,0.285133,3.85228,5,0.0196017,11,0.00109841,-2.41428,-0.898865,-0.0656383,-9.85557,0.285133,
2,1,0,1,0,6131.38,0.287452,0.287108,3.82819,5,0.0196786,11,0.00109911,-2.41701,-1.40186,-0.0420868,-6.30643,0.287108,
2,1,0,1,0,6131.4,0.28945,0.289183,3.82674,5,0.0197552,11,0.00110663,-2.41717,-3.73497,-0.0157966,-2.35709,0.2891832,
2,1,0,1,0,6131.42,0.291447,0.291185,3.81859,5,0.0198314,11,0.00111191,-2.4181,-1.06553,-0.0553715,-8.23431,0.291185,
2,1,0,1,0,6131.44,0.293445,0.293132,3.79422,5,0.0199076,11,0.00111221,-2.42088,-1.07908,-0.0546761,-8.11359,0.293132,
2,1,0,1,0,6131.46,0.295442,0.295183,3.78615,5,0.0199835,11,0.00111761,-2.4218,-2.97694,-0.019819,-2.93015,0.295183,
2,1,0,1,0,6131.48,0.29744,0.297171,3.78239,5,0.0200592,11,0.00112402,-2.42223,-1.86942,-0.0315606,-4.652,0.297171,
2,1,0,1,0,6131.5,0.299438,0.299173,3.76759,5,0.0201345,11,0.00112716,-2.42394,-0.0250101,-2.35904,-312.919,0.299173,
2,1,0,1,0,6131.51,0.299737,0.299536,3.04217,5,0.0201648,11,0.00091124,-2.51682,0.00107438,54.9154,2243.06,0.299536,
2,1,0,1,0,6131.53,0.29774,0.297451,-0.0941092,5,0.0201876,11,-2.79929e-05,-4.02637,0.00858147,6.87528,1013.7,0.297451,
2,0,0,1,0,6131.55,0.295742,0.295515,-1.03416,5,0.0201747,11,-0.00030561,-2.98541,-0.00342656,-17.2185,321.984,0.295515,
2,0,0,1,0,6131.57,0.293745,0.293454,-1.38126,5,0.02015,11,-0.000405336,-2.85972,-0.0231575,-2.54777,126.748,0.293454,
2,0,0,1,0,6131.59,0.291747,0.291445,-1.55,5,0.0201206,11,-0.000451739,-2.80967,-0.0476954,-1.23702,73.6088,0.291445,
2,0,0,1,0,6131.61,0.289754,0.289425,-1.67779,5,0.0200885,11,-0.000485594,-2.77526,-0.0689978,-0.8551,55.3355,0.289425,
2,0,0,1,0,6131.63,0.287752,0.287448,-1.77122,5,0.020054,11,-0.000509132,-2.75173,-0.0966452,-0.610481,41.9273,0.287448,
2,0,0,1,0,6131.65,0.285754,0.285451,-1.84443,5,0.0200179,11,-0.000526493,-2.73414,-0.117263,-0.503142,36.1891,0.285451,
2,0,0,1,0,6131.67,0.283757,0.283428,-1.91668,5,0.0199803,11,-0.000543242,-2.71745,-0.12169,-0.484837,36.2479,0.283428,
2,0,0,1,0,6131.69,0.281759,0.281469,-1.98874,5,0.0199411,11,-0.000559771,-2.70142,-0.143888,-0.410041,31.6755,0.281469,
2,0,0,1,0,6131.71,0.279761,0.279426,-2.04345,5,0.0199009,11,-0.000570994,-2.68964,-0.159779,-0.369261,29.496,0.279426,
2,0,0,1,0,6131.73,0.277764,0.277498,-2.10589,5,0.0198593,11,-0.000584379,-2.67657,-0.16662,-0.354099,29.0252,0.277498,
2,0,0,1,0,6131.75,0.275766,0.275471,-2.15825,5,0.0198167,11,-0.000594536,-2.6659,-0.209737,-0.281305,23.6356,0.275471,
2,0,0,1,0,6131.77,0.273769,0.27349,-2.20061,5,0.019773,11,-0.000601846,-2.65746,-0.199942,-0.295085,25.4358,0.2734901,
2,0,0,1,0,6131.79,0.271771,0.271475,-2.2599,5,0.0197286,11,-0.000613505,-2.64591,-0.186436,-0.316462,27.8679,0.271475,
2,0,0,1,0,6131.81,0.269774,0.269452,-2.31314,5,0.0196829,11,-0.000623281,-2.6358,-0.240848,-0.244968,22.0226,0.269452,
2,0,0,1,0,6131.83,0.267776,0.267486,-2.34773,5,0.0196364,11,-0.000627986,-2.62935,-0.295141,-0.199905,18.329,0.267486,
2,0,0,1,0,6131.85,0.265778,0.265478,-2.38598,5,0.0195891,11,-0.000633426,-2.62233,-0.253854,-0.232417,21.6855,0.265478,
2,0,0,1,0,6131.87,0.263781,0.263492,-2.43435,5,0.0195412,11,-0.000641431,-2.61362,-0.261913,-0.225265,21.3514,0.263492,
2,0,0,1,0,6131.89,0.261783,0.261456,-2.47185,5,0.0194921,11,-0.000646282,-2.60698,-0.349457,-0.168833,16.2511,0.261456,
2,0,0,1,0,6131.91,0.259786,0.259533,-2.49869,5,0.0194425,11,-0.000648492,-2.60229,-0.301743,-0.19553,19.1521,0.259533,
2,0,0,1,0,6131.93,0.257788,0.257474,-2.54813,5,0.0193921,11,-0.000656076,-2.59378,-0.261089,-0.225976,22.4312,0.2574738,
2,0,0,1,0,6131.95,0.25579,0.255517,-2.58876,5,0.0193411,11,-0.000661474,-2.58691,-0.378583,-0.155844,15.6875,0.255517,
2,0,0,1,0,6131.97,0.253793,0.253485,-2.61071,5,0.0192891,11,-0.000661774,-2.58324,-0.443689,-0.132976,13.5758,0.253485,
2,0,0,1,0,6131.99,0.251795,0.251499,-2.64332,5,0.0192366,11,-0.000664791,-2.57785,-0.347564,-0.169753,17.5249,0.251499,
2,0,0,1,0,6132.01,0.249798,0.249519,-2.6802,5,0.0191834,11,-0.000668762,-2.57183,-0.324726,-0.181691,19.0109,0.249519,
2,0,0,1,0,6132.03,0.2478,0.247511,-2.71913,5,0.0191297,11,-0.000673014,-2.56557,-0.37276,-0.158279,16.7642,0.247511,
2,0,0,1,0,6132.05,0.245802,0.24548,-2.74791,5,0.0190751,11,-0.000674558,-2.561,-0.391965,-0.150524,16.1633,0.24548,
2,0,0,1,0,6132.07,0.243805,0.243496,-2.78403,5,0.0190198,11,-0.000677899,-2.55533,-0.449031,-0.131394,14.2346,0.243496,
2,0,0,1,0,6132.09,0.241807,0.241532,-2.80412,5,0.0189639,11,-0.000677283,-2.5522,-0.371413,-0.158853,17.4741,0.241532,
2,0,0,1,0,6132.11,0.23981,0.23952,-2.8535,5,0.0189077,11,-0.000683471,-2.54462,-0.342244,-0.172392,19.1234,0.23952,
2,0,0,1,0,6132.13,0.237812,0.23751,-2.88103,5,0.0188504,11,-0.000684273,-2.54045,-0.463067,-0.127411,14.3312,0.23751,
2,0,0,1,0,6132.15,0.235815,0.235516,-2.91089,5,0.0187926,11,-0.00068556,-2.53597,-0.505867,-0.116631,13.2348,0.235516,
2,0,0,1,0,6132.17,0.233817,0.233478,-2.93439,5,0.0187342,11,-0.000685116,-2.53248,-0.393453,-0.149955,17.2363,0.233478,
2,0,0,1,0,6132.19,0.231815,0.231513,-2.97988,5,0.0186751,11,-0.000689881,-2.5258,-0.350708,-0.168231,19.517,0.231513,
2,0,0,1,0,6132.21,0.229822,0.22954,-3.01124,5,0.0186154,11,-0.000691202,-2.52125,-0.519931,-0.113477,13.3147,0.22954,
2,0,0,1,0,6132.23,0.227824,0.227502,-3.03328,5,0.0185551,11,-0.000690078,-2.51809,-0.447121,-0.131955,15.6686,0.227502,
2,0,0,1,0,6132.25,0.225827,0.225527,-3.07412,5,0.0184941,11,-0.000693298,-2.51228,-0.387822,-0.152132,18.2244,0.225527,
2,0,0,1,0,6132.27,0.223829,0.22351,-3.10603,5,0.0184323,11,-0.00069423,-2.50779,-0.43098,-0.136897,16.5999,0.2235104,
2,0,0,1,0,6132.29,0.221831,0.221546,-3.14022,5,0.0183701,11,-0.000695701,-2.50304,-0.404704,-0.145786,17.8714,0.221546,
2,0,0,1,0,6132.31,0.219834,0.219572,-3.17642,5,0.018307,11,-0.000697452,-2.49806,-0.390792,-0.150976,18.7239,0.219572,
2,0,0,1,0,6132.33,0.217836,0.217516,-3.21567,5,0.018243,11,-0.000699459,-2.49273,-0.45267,-0.130338,16.3244,0.217516,
2,0,0,1,0,6132.35,0.215839,0.215535,-3.24232,5,0.0181784,11,-0.000698833,-2.48914,-0.351609,-0.1678,21.3323,0.215535,
2,0,0,1,0,6132.37,0.213841,0.213579,-3.29966,5,0.0181132,11,-0.000704737,-2.48153,-0.317115,-0.186052,23.8892,0.213579,
2,0,0,1,0,6132.39,0.211843,0.211519,-3.33825,5,0.018047,11,-0.000706104,-2.47648,-0.469314,-0.125715,16.35,0.211519,
2,0,0,1,0,6132.41,0.209846,0.209552,-3.3655,5,0.0179799,11,-0.000705246,-2.47295,-0.410179,-0.14384,18.9505,0.209552,
2,0,0,1,0,6132.43,0.207848,0.20754,-3.41366,5,0.0179122,11,-0.000708471,-2.46678,-0.255536,-0.230887,30.8773,0.20754,
2,0,0,1,0,6132.45,0.205851,0.205564,-3.48863,5,0.0178435,11,-0.000717137,-2.45734,-0.307199,-0.192058,25.9769,0.205564,
2,0,0,1,0,6132.47,0.203853,0.203512,-3.51828,5,0.0177736,11,-0.000716014,-2.45367,-0.447785,-0.13176,18.1254,0.203512,
2,0,0,1,0,6132.49,0.201856,0.201552,-3.56135,5,0.0177029,11,-0.000717797,-2.44839,-0.338331,-0.174385,24.2729,0.201552,
2,0,0,1,0,6132.51,0.199858,0.199518,-3.61525,5,0.0176312,11,-0.000721306,-2.44186,-0.26746,-0.220593,31.1925,0.199518,
2,0,0,1,0,6132.53,0.19786,0.197563,-3.68578,5,0.0175586,11,-0.000728174,-2.43347,-0.285061,-0.206973,29.6738,0.197563,
2,0,0,1,0,6132.55,0.195863,0.195562,-3.73264,5,0.0174845,11,-0.000729961,-2.42798,-0.289035,-0.204128,29.8382,0.195562,
2,0,0,1,0,6132.57,0.193865,0.19354,-3.80582,5,0.0174092,11,-0.000736578,-2.41955,-0.255163,-0.231225,34.297,0.19354,
2,0,0,1,0,6132.59,0.191868,0.191572,-3.86947,5,0.0173325,11,-0.000741282,-2.41235,-0.247582,-0.238305,36.0585,0.191572,
2,0,0,1,0,6132.61,0.18987,0.18956,-3.94933,5,0.0172548,11,-0.000748635,-2.40348,-0.22601,-0.261051,40.2283,0.18956,
2,0,0,1,0,6132.63,0.187872,0.187611,-4.0288,5,0.017175,11,-0.000755848,-2.39482,-0.219753,-0.268484,42.2564,0.187611,
2,0,0,1,0,6132.65,0.185875,0.18558,-4.11753,5,0.0170936,11,-0.00076413,-2.38536,-0.223971,-0.263427,42.277,0.18558,
2,0,0,1,0,6132.67,0.183877,0.183636,-4.19685,5,0.0170104,11,-0.000770694,-2.37708,-0.190926,-0.30902,50.8737,0.183636,
2,0,0,1,0,6132.69,0.18188,0.181584,-4.32081,5,0.0169258,11,-0.000784589,-2.36444,-0.172771,-0.341493,57.4749,0.181584,
2,0,0,1,0,6132.71,0.179882,0.179574,-4.43034,5,0.0168383,11,-0.000795574,-2.35356,-0.182696,-0.322942,55.8519,0.179574,
2,0,0,1,0,6132.73,0.177885,0.177587,-4.54405,5,0.0167486,11,-0.000806963,-2.34256,-0.166481,-0.354394,62.9822,0.177587,
2,0,0,1,0,6132.75,0.175887,0.175619,-4.6794,5,0.0166564,11,-0.000821794,-2.32981,-0.148101,-0.398376,72.9085,0.175619,
2,0,0,1,0,6132.77,0.173896,0.173556,-4.83791,5,0.0165617,11,-0.000839649,-2.31534,-0.138837,-0.424959,80.2372,0.173556,
2,0,0,1,0,6132.79,0.171892,0.171622,-5.00012,5,0.0164633,11,-0.000858132,-2.30102,-0.134975,-0.437117,85.3584,0.171622,
2,0,0,1,0,6132.81,0.169894,0.169629,-5.17309,5,0.0163617,11,-0.000877509,-2.28625,-0.124435,-0.474142,96.0465,0.169629,
2,0,0,1,0,6132.83,0.167897,0.167608,-5.38565,5,0.0162562,11,-0.000902679,-2.26876,-0.115609,-0.510343,107.284,0.167608,
2,0,0,1,0,6132.85,0.165899,0.165596,-5.60578,5,0.0161464,11,-0.000928296,-2.25136,-0.112134,-0.526157,115.259,0.1655964,
2,0,0,1,0,6132.86,0.163901,0.163608,-5.84671,5,0.0160325,11,-0.000956569,-2.23309,-0.105573,-0.558854,127.734,0.163608,
2,0,0,1,0,6132.88,0.161904,0.161612,-6.11473,5,0.015913,11,-0.000988214,-2.21362,-0.099397,-0.593579,141.885,0.161612,
2,0,0,1,0,6132.9,0.159906,0.159626,-6.41166,5,0.0157877,11,-0.00102347,-2.19303,-0.0961777,-0.613448,153.652,0.159626,
2,0,0,1,0,6132.92,0.157909,0.157601,-6.73107,5,0.0156564,11,-0.00106082,-2.17192,-0.0916879,-0.643488,169.441,0.157601,
2,0,0,1,0,6132.94,0.155911,0.1556,-7.09392,5,0.0155188,11,-0.00110381,-2.14911,-0.0865192,-0.68193,188.97,0.1556,
2,0,0,1,0,6132.96,0.153913,0.15362,-7.48321,5,0.0153731,11,-0.00114957,-2.12591,-0.0873571,-0.675389,197.208,0.15362,
2,0,0,1,0,6132.98,0.151916,0.151595,-7.88363,5,0.0152193,11,-0.00119512,-2.10327,-0.087396,-0.675088,207.833,0.1515954,
2,0,0,1,0,6133,0.149918,0.149652,-8.30799,5,0.0150573,11,-0.00124331,-2.0805,-0.0838938,-0.70327,228.512,0.149652,
2,0,0,1,0,6133.02,0.147921,0.147655,-8.78408,5,0.0148874,11,-0.00129701,-2.0563,-0.0842872,-0.699988,239.785,0.147655,
2,0,0,1,0,6133.04,0.145923,0.145664,-9.26424,5,0.0147069,11,-0.00134947,-2.03319,-0.0891931,-0.661486,239.013,0.145664,
2,0,0,1,0,6133.06,0.143926,0.143615,-9.74957,5,0.0145168,11,-0.00140019,-2.01101,-0.0905828,-0.651338,247.823,0.143615,
2,0,0,1,0,6133.08,0.141928,0.141683,-10.2509,5,0.0143168,11,-0.00145238,-1.98924,-0.0942689,-0.625869,250.109,0.141683,
2,0,0,1,0,6133.1,0.13993,0.139632,-10.7458,5,0.0141079,11,-0.00150046,-1.96876,-0.102914,-0.573293,239.999,0.139632,
2,0,0,1,0,6133.12,0.137933,0.137656,-11.2172,5,0.0138883,11,-0.00154412,-1.95012,-0.109031,-0.541131,236.69,0.137656,
2,0,0,1,0,6133.14,0.135935,0.135674,-11.6826,5,0.0136593,11,-0.00158503,-1.93246,-0.118506,-0.497865,226.64,0.135674,
2,0,0,1,0,6133.16,0.133938,0.133659,-12.1233,5,0.0134213,11,-0.00162038,-1.91638,-0.128329,-0.459755,217.283,0.133659,
2,0,0,1,0,6133.18,0.13194,0.131695,-12.5472,5,0.0131759,11,-0.00165241,-1.90145,-0.142091,-0.415227,203.031,0.131695,
2,0,0,1,0,6133.2,0.129942,0.129619,-12.9435,5,0.012921,11,-0.00167772,-1.88795,-0.160893,-0.366704,184.917,0.129619,
2,0,0,1,0,6133.22,0.127945,0.127612,-13.3023,5,0.0126586,11,-0.00169753,-1.87607,-0.183439,-0.321632,166.598,0.127612,
2,0,0,1,0,6133.24,0.125947,0.125638,-13.6067,5,0.0123894,11,-0.00170952,-1.86625,-0.209584,-0.28151,149.342,0.125638,
2,0,0,1,0,6133.26,0.12395,0.123686,-13.8885,5,0.012116,11,-0.00171782,-1.85734,-0.250521,-0.235509,127.369,0.123686,
2,0,0,1,0,6133.28,0.121952,0.121672,-14.1119,5,0.0118359,11,-0.00171702,-1.85042,-0.33704,-0.175053,96.1978,0.1216717,
2,0,0,1,0,6133.3,0.119955,0.119668,-14.2751,5,0.011552,11,-0.00170827,-1.84542,-0.447811,-0.131752,73.3186,0.119668,
2,0,0,1,0,6133.32,0.117957,0.117641,-14.4074,5,0.0112652,11,-0.0016949,-1.84141,-0.630158,-0.0936273,52.5459,0.117641,
2,0,0,1,0,6133.34,0.115955,0.115649,-14.4863,5,0.0109762,11,-0.00167532,-1.83904,-1.29489,-0.0455636,25.7089,0.115649,
2,0,0,1,0,6133.36,0.113962,0.113718,-14.5083,5,0.0106875,11,-0.00164985,-1.83838,16.5738,0.00355983,-2.01201,0.113718,
2,0,0,1,0,6133.38,0.111964,0.111651,-14.4782,5,0.0103976,11,-0.00161651,-1.83928,1.27388,0.0463153,-26.1284,0.111651,
2,0,0,1,0,6133.4,0.109967,0.109661,-14.4023,5,0.0101088,11,-0.00157937,-1.84157,0.61291,0.0962622,-53.9874,0.109661,
2,0,0,1,0,6133.42,0.107969,0.107671,-14.2634,5,0.00982219,11,-0.00153575,-1.84578,0.41007,0.143878,-79.967,0.1076707,
2,0,0,1,0,6133.44,0.105971,0.105653,-14.0817,5,0.00954018,11,-0.00148777,-1.85134,0.314823,0.187407,-102.81,0.105653,
2,0,0,1,0,6133.46,0.103974,0.103672,-13.8523,5,0.00926092,11,-0.0014361,-1.85848,0.245554,0.240273,-129.63,0.103672,
2,0,0,1,0,6133.48,0.101976,0.101702,-13.5697,5,0.00898674,11,-0.00138007,-1.86743,0.207174,0.284785,-150.585,0.101702,
2,0,0,1,0,6133.5,0.0999786,0.0996718,-13.2499,5,0.00871866,11,-0.00132064,-1.87779,0.19394,0.304219,-157.279,0.0996718,
2,0,0,1,0,6133.52,0.0979811,0.0976337,-12.9297,5,0.00845817,11,-0.00126238,-1.88841,0.179035,0.329544,-166.08,0.0976337,
2,0,0,1,0,6133.54,0.0959835,0.0956544,-12.5827,5,0.00820313,11,-0.00120359,-1.90023,0.162652,0.362737,-178,0.0956544,
2,0,0,1,0,6133.56,0.0939859,0.093671,-12.2244,5,0.00795524,11,-0.00114507,-1.91277,0.160775,0.366971,-175.151,0.093671,
2,0,0,1,0,6133.58,0.0919883,0.0916627,-11.8835,5,0.00771431,11,-0.00108927,-1.92506,0.172154,0.342716,-159.208,0.0916627,
2,0,0,1,0,6133.6,0.0899907,0.0896735,-11.5879,5,0.00748082,11,-0.00103913,-1.93599,0.173228,0.340591,-153.855,0.0896735,
2,0,0,1,0,6133.62,0.0879931,0.087685,-11.2715,5,0.00725235,11,-0.000988343,-1.94802,0.180231,0.327358,-144.285,0.087685,
2,0,0,1,0,6133.64,0.0859955,0.0856292,-11.0044,5,0.00702973,11,-0.000942299,-1.95843,0.199707,0.295432,-127.009,0.0856292,
2,0,0,1,0,6133.66,0.083998,0.0836875,-10.7638,5,0.00681219,11,-0.000900796,-1.96803,0.219177,0.269189,-113.224,0.0836875,
2,0,0,1,0,6133.68,0.0820004,0.0816481,-10.5536,5,0.00660024,11,-0.000861685,-1.9766,0.236228,0.249759,-102.894,0.0816481,
2,0,0,1,0,6133.7,0.0800028,0.0796779,-10.3512,5,0.00639133,11,-0.000824765,-1.98501,0.255136,0.231249,-93.5688,0.0796779,
2,0,0,1,0,6133.72,0.0780052,0.0776995,-10.1842,5,0.0061861,11,-0.000791306,-1.99207,0.28588,0.20638,-82.0469,0.0776995,
2,0,0,1,0,6133.74,0.0760076,0.0756866,-10.0238,5,0.00598419,11,-0.000758665,-1.99897,0.308034,0.191538,-75.0063,0.0756866,
2,0,0,1,0,6133.76,0.07401,0.0737183,-9.88557,5,0.0057864,11,-0.000728747,-2.005,0.313212,0.188371,-72.6305,0.07371828,
2,0,0,1,0,6133.78,0.0720124,0.0717371,-9.73691,5,0.00559032,11,-0.000698498,-2.01158,0.327089,0.180379,-68.6091,0.0717371,
2,0,0,1,0,6133.8,0.0700148,0.0696731,-9.60803,5,0.00539694,11,-0.000669421,-2.01737,0.326967,0.180446,-67.6103,0.0696731,
2,0,0,1,0,6133.82,0.0680173,0.0677257,-9.4657,5,0.00520631,11,-0.000641072,-2.02385,0.352757,0.167254,-61.913,0.0677257,
2,0,0,1,0,6133.84,0.0660106,0.065719,-9.36322,5,0.00501824,11,-0.000615341,-2.02857,0.368235,0.160224,-58.453,0.065719,
2,0,0,1,0,6133.86,0.0640221,0.063713,-9.23115,5,0.0048333,11,-0.000588144,-2.03474,0.312662,0.188702,-67.945,0.063713,
2,0,0,1,0,6133.88,0.0620245,0.0617018,-9.09028,5,0.00465018,11,-0.000560887,-2.04142,0.3001,0.196601,-69.7534,0.0617018,
2,0,0,1,0,6133.9,0.0600269,0.0597172,-8.95242,5,0.00446982,11,-0.000534613,-2.04806,0.304088,0.194023,-67.8092,0.0597172,
2,0,0,1,0,6133.92,0.0580361,0.0577357,-8.82134,5,0.0042931,11,-0.000509306,-2.05447,0.278697,0.2117,-72.7705,0.0577357,
2,0,0,1,0,6133.94,0.0560317,0.0557662,-8.66491,5,0.00411819,11,-0.000483209,-2.06224,0.261832,0.225335,-76.2274,0.0557662,
2,0,0,1,0,6133.96,0.0540342,0.053736,-8.51645,5,0.00394649,11,-0.00045764,-2.06974,0.257541,0.22909,-76.0912,0.053736,
2,0,0,1,0,6133.98,0.0520366,0.0517371,-8.35833,5,0.0037778,11,-0.000432435,-2.07788,0.230348,0.256134,-83.4646,0.0517371,
2,0,0,1,0,6134,0.050039,0.0497667,-8.18516,5,0.00361238,11,-0.000407349,-2.08697,0.228993,0.25765,-82.3779,0.0497667,
2,0,0,1,0,6134.02,0.0480414,0.0477382,-8.02891,5,0.00345106,11,-0.000383286,-2.09534,0.229116,0.257512,-80.6278,0.0477382,
2,0,0,1,0,6134.04,0.0460438,0.0457656,-7.86255,5,0.00329227,11,-0.000359834,-2.10444,0.219324,0.269009,-82.5327,0.0457656,
2,0,0,1,0,6134.06,0.0440462,0.0437058,-7.6961,5,0.00313685,11,-0.000336364,-2.11373,0.204994,0.287814,-86.3907,0.0437058,
2,0,0,1,0,6134.08,0.0420486,0.0418269,-7.52229,5,0.00298489,11,-0.000314634,-2.12365,0.223814,0.263612,-77.5862,0.0418269,
2,0,0,1,0,6134.1,0.040051,0.0397463,-7.3889,5,0.00283654,11,-0.000293682,-2.13142,0.248862,0.237079,-68.3029,0.0397463,
2,0,0,1,0,6134.12,0.0380535,0.0377487,-7.24373,5,0.00269031,11,-0.000273441,-2.14004,0.230873,0.255552,-72.238,0.0377487,
2,0,0,1,0,6134.14,0.0360559,0.0357358,-7.09919,5,0.0025471,11,-0.000253696,-2.14879,0.248558,0.237369,-65.8824,0.0357358,
2,0,0,1,0,6134.16,0.0340583,0.0337694,-6.98157,5,0.00240646,11,-0.000235763,-2.15605,0.291184,0.202621,-55.2657,0.0337694,
2,0,0,1,0,6134.18,0.0320607,0.0317642,-6.8797,5,0.0022686,11,-0.000218528,-2.16243,0.305192,0.193321,-51.8854,0.0317642,
2,0,0,1,0,6134.2,0.0300631,0.0297613,-6.7736,5,0.00213218,11,-0.000201591,-2.16918,0.326696,0.180596,-47.8125,0.0297613,
2,0,0,1,0,6134.22,0.0280655,0.0277691,-6.68868,5,0.00199765,11,-0.000185739,-2.17466,0.407617,0.144744,-37.8318,0.02776913,
2,0,0,1,0,6134.24,0.0260679,0.0257372,-6.62137,5,0.00186463,11,-0.000170415,-2.17905,0.457085,0.129079,-33.3609,0.0257372,
2,0,0,1,0,6134.26,0.0240704,0.0238119,-6.55667,5,0.0017336,11,-0.000156127,-2.18332,0.519972,0.113468,-29.0667,0.0238119,
2,0,0,1,0,6134.28,0.0220728,0.0217925,-6.50671,5,0.00160305,11,-0.000141798,-2.18664,0.63037,0.0935958,-23.7728,0.0217925,
2,0,0,1,0,6134.3,0.0200752,0.0197433,-6.45994,5,0.00147348,11,-0.00012754,-2.18977,0.630102,0.0936357,-23.6044,0.0197433,
2,0,0,1,0,6134.32,0.0180776,0.0177885,-6.4122,5,0.00134474,11,-0.000114064,-2.19299,1.10381,0.0534514,-13.4204,0.0177885,
2,0,0,1,0,6134.34,0.01608,0.0157935,-6.40694,5,0.00121737,11,-0.000101188,-2.19335,2.75333,0.0214286,-5.35351,0.0157935,
2,0,0,1,0,6134.36,0.0140824,0.0137939,-6.39081,5,0.00108948,11,-8.81542e-05,-2.19444,1.53963,0.0383208,-9.55313,0.0137939,
2,0,0,1,0,6134.38,0.0120848,0.0117777,-6.36857,5,0.00096199,11,-7.50071e-05,-2.19596,1.9206,0.0307196,-7.6436,0.0117777,
2,0,0,1,0,6134.4,0.0100872,0.00981129,-6.36037,5,0.000834921,11,-6.24034e-05,-2.19652,15.5693,0.00378951,-0.941586,0.00981129,
2,0,0,1,0,6134.42,0.00809193,0.00776943,-6.3648,5,0.000708496,11,-4.94509e-05,-2.19622,-7.6384,-0.00772413,1.91849,0.00776943,
2,0,0,1,0,6134.44,0.00609208,0.00579129,-6.36808,5,0.000581227,11,-3.68794e-05,-2.19599,64.7114,0.00091174,-0.226459,0.00579129,
2,0,0,1,0,6134.46,0.00409449,0.00382487,-6.36391,5,0.000454019,11,-2.43411e-05,-2.19628,-0.78735,-0.0749349,18.734,0.00382487,
2,0,0,1,0,6134.48,0.0020969,0.00174001,-6.44398,5,0.000326482,11,-1.12126e-05,-2.19085,-0.860342,-0.0685774,17.1249,0.00174001,
2,0,0,1,0,6134.5,9.14991e-05,-0.000232924,-6.4334,5,0.000197774,11,1.49849e-06,-2.19156,10.4111,0.00566703,-1.42457,-0.0002329236,
2,0,0,1,0,6134.52,-0.00189827,-0.00222285,-6.43833,5,6.97144e-05,11,1.43115e-05,-2.19123,-2.94626,-0.0200254,5.03581,-0.00222285,
2,0,0,1,0,6134.54,-0.00389586,-0.0042652,-6.4537,5,-5.90858e-05,11,2.75263e-05,-2.19019,-1.77472,-0.0332448,8.37525,-0.0042652,
2,0,0,1,0,6134.56,-0.00589345,-0.00625816,-6.47213,5,-0.000188324,11,4.05036e-05,-2.18895,-1.50506,-0.0392011,9.90356,-0.00625816,
2,0,0,1,0,6134.58,-0.00789103,-0.00823868,-6.49305,5,-0.000317962,11,5.34942e-05,-2.18755,-0.864297,-0.0682636,17.3342,-0.00823868,
2,0,0,1,0,6134.6,-0.00988862,-0.0102373,-6.54111,5,-0.000447681,11,6.69632e-05,-2.18435,-0.72806,-0.0810372,20.6664,-0.0102373,
2,0,0,1,0,6134.62,-0.0118862,-0.0122657,-6.57628,5,-0.000578792,11,8.0663e-05,-2.18202,-1.04665,-0.0563704,14.4525,-0.0122657,
2,0,0,1,0,6134.64,-0.0138838,-0.0141658,-6.59788,5,-0.000710504,11,9.34643e-05,-2.1806,-0.949376,-0.0621461,16.0273,-0.0141658,
2,0,0,1,0,6134.66,-0.0158814,-0.0162554,-6.64022,5,-0.000842822,11,0.00010794,-2.17782,-0.635033,-0.0929086,24.0982,-0.0162554,
2,0,0,1,0,6134.68,-0.017879,-0.0181757,-6.69451,5,-0.000975525,11,0.000121678,-2.17428,-0.649002,-0.0909089,23.7253,-0.0181757,
2,0,0,1,0,6134.7,-0.0198766,-0.0202226,-6.73434,5,-0.00110977,11,0.000136186,-2.1717,-0.765042,-0.07712,20.2708,-0.0202226,
2,0,0,1,0,6134.72,-0.0218741,-0.0221816,-6.77572,5,-0.00124468,11,0.000150296,-2.16904,-0.708107,-0.0833208,22.0414,-0.0221816,
2,0,0,1,0,6134.74,-0.0238717,-0.0242231,-6.82252,5,-0.00138056,11,0.000165262,-2.16606,-0.588226,-0.100302,26.7342,-0.0242231,
2,0,0,1,0,6134.76,-0.0258693,-0.0262242,-6.88379,5,-0.00151692,11,0.000180522,-2.16217,-0.656246,-0.0899054,24.107,-0.0262242,
2,0,0,1,0,6134.78,-0.0278669,-0.0282206,-6.91889,5,-0.00165484,11,0.000195255,-2.15996,-0.706309,-0.0835328,22.5885,-0.0282206,
2,0,0,1,0,6134.8,-0.0298645,-0.0302291,-6.97426,5,-0.00179368,11,0.000210825,-2.1565,-0.595495,-0.0990773,26.962,-0.03022909,
2,0,0,1,0,6134.82,-0.0318621,-0.0322385,-7.02722,5,-0.00193362,11,0.000226547,-2.15322,-0.571247,-0.103283,28.3384,-0.0322385,
2,0,0,1,0,6134.84,-0.0338597,-0.0342062,-7.08696,5,-0.00207398,11,0.000242418,-2.14954,-0.557915,-0.105751,29.2412,-0.0342062,
2,0,0,1,0,6134.86,-0.0358573,-0.0362107,-7.14337,5,-0.00221617,11,0.000258667,-2.1461,-0.573707,-0.10284,28.6738,-0.0362107,
2,0,0,1,0,6134.88,-0.0378548,-0.0382166,-7.20195,5,-0.00235959,11,0.000275234,-2.14255,-0.620972,-0.0950123,26.6848,-0.0382166,
2,0,0,1,0,6134.9,-0.0398524,-0.0402016,-7.24987,5,-0.00250408,11,0.000291457,-2.13967,-0.520946,-0.113255,32.1153,-0.0402016,
2,0,0,1,0,6134.92,-0.04185,-0.0422099,-7.3302,5,-0.00264899,11,0.000309407,-2.13488,-0.494659,-0.119274,34.0649,-0.0422099,
2,0,0,1,0,6134.94,-0.0438476,-0.0442197,-7.38674,5,-0.00279609,11,0.000326639,-2.13155,-0.581554,-0.101452,29.2526,-0.0442197,
2,0,0,1,0,6134.96,-0.0458452,-0.0461852,-7.44649,5,-0.00294438,11,0.000343918,-2.12805,-0.566666,-0.104118,30.2575,-0.0461852,
2,0,0,1,0,6134.98,-0.0478428,-0.0481712,-7.50631,5,-0.00309382,11,0.000361588,-2.12457,-0.463966,-0.127164,37.3253,-0.0481712,
2,0,0,1,0,6135,-0.0498495,-0.0501892,-7.59594,5,-0.00324474,11,0.000381234,-2.11942,-0.456775,-0.129166,38.2253,-0.0501892,
2,0,0,1,0,6135.02,-0.051838,-0.0521947,-7.66011,5,-0.00339648,11,0.000399817,-2.11577,-0.539858,-0.109288,32.6775,-0.0521947,
2,0,0,1,0,6135.04,-0.0538355,-0.054213,-7.72743,5,-0.0035502,11,0.000418927,-2.11197,-0.49553,-0.119064,35.9274,-0.054213,
2,0,0,1,0,6135.06,-0.0558331,-0.0561981,-7.80394,5,-0.00370545,11,0.000438566,-2.10769,-0.454807,-0.129725,39.5171,-0.0561981,
2,0,0,1,0,6135.08,-0.0578216,-0.0581738,-7.88395,5,-0.00386147,11,0.000458639,-2.10326,-0.432354,-0.136462,42.0057,-0.0581738,
2,0,0,1,0,6135.1,-0.0598283,-0.0601849,-7.97141,5,-0.00401998,11,0.000479758,-2.09846,-0.410924,-0.143579,44.6751,-0.0601849,
2,0,0,1,0,6135.12,-0.0618259,-0.062167,-8.06234,5,-0.00418013,11,0.000501211,-2.09354,-0.424542,-0.138973,43.7044,-0.062167,
2,0,0,1,0,6135.14,-0.0638235,-0.0641642,-8.14532,5,-0.00434218,11,0.000522638,-2.08909,-0.449537,-0.131246,41.7228,-0.0641642,
2,0,0,1,0,6135.16,-0.0658211,-0.0661718,-8.22944,5,-0.00450589,11,0.000544557,-2.08463,-0.379637,-0.155411,50.0103,-0.0661718,
2,0,0,1,0,6135.18,-0.0678187,-0.0681837,-8.34633,5,-0.00467084,11,0.000569084,-2.0785,-0.355933,-0.165762,53.9341,-0.0681837,
2,0,0,1,0,6135.2,-0.0698162,-0.0701824,-8.44575,5,-0.00483866,11,0.000592743,-2.07336,-0.40018,-0.147434,48.5743,-0.0701824,
2,0,0,1,0,6135.22,-0.0718138,-0.0721381,-8.53842,5,-0.00500846,11,0.000615945,-2.06862,-0.373242,-0.158075,52.7554,-0.0721381,
2,0,0,1,0,6135.24,-0.0738114,-0.0742074,-8.65808,5,-0.00518036,11,0.000642494,-2.06258,-0.322977,-0.182676,61.7604,-0.07420738,
2,0,0,1,0,6135.26,-0.075809,-0.0761901,-8.78867,5,-0.00535396,11,0.000669609,-2.05608,-0.330556,-0.178487,61.1477,-0.0761901,
2,0,0,1,0,6135.28,-0.0778066,-0.0781565,-8.89956,5,-0.00553082,11,0.000695559,-2.05063,-0.348018,-0.169531,58.9213,-0.0781565,
2,0,0,1,0,6135.3,-0.0798042,-0.0801737,-9.02339,5,-0.00570997,11,0.000723439,-2.04463,-0.321061,-0.183766,64.7518,-0.0801737,
2,0,0,1,0,6135.32,-0.0818018,-0.0821635,-9.15902,5,-0.00589172,11,0.000752538,-2.03815,-0.300005,-0.196663,70.3192,-0.0821635,
2,0,0,1,0,6135.34,-0.0837994,-0.084134,-9.30188,5,-0.00607531,11,0.000782604,-2.03143,-0.321076,-0.183757,66.6364,-0.084134,
2,0,0,1,0,6135.36,-0.0857969,-0.0861701,-9.42601,5,-0.00626243,11,0.000812241,-2.02567,-0.322591,-0.182894,67.3545,-0.0861701,
2,0,0,1,0,6135.38,-0.0877945,-0.0881461,-9.57211,5,-0.00645228,11,0.000843744,-2.01899,-0.313959,-0.187923,70.1443,-0.0881461,
2,0,0,1,0,6135.4,-0.0897921,-0.0901299,-9.70377,5,-0.00664497,11,0.0008746,-2.01306,-0.321541,-0.183491,69.5256,-0.0901299,
2,0,0,1,0,6135.42,-0.0917897,-0.0920967,-9.84678,5,-0.00683932,11,0.000906856,-2.00671,-0.330922,-0.17829,68.4698,-0.0920967,
2,0,0,1,0,6135.44,-0.0937873,-0.0941374,-9.97816,5,-0.00703749,11,0.000939317,-2.00095,-0.356118,-0.165676,64.5038,-0.0941374,
2,0,0,1,0,6135.46,-0.0957849,-0.0961255,-10.1066,5,-0.00723832,11,0.000971507,-1.99539,-0.372262,-0.15849,62.4815,-0.0961255,
2,0,0,1,0,6135.48,-0.0977825,-0.098101,-10.2258,5,-0.00744159,11,0.00100316,-1.9903,-0.365212,-0.16155,64.5193,-0.098101,
2,0,0,1,0,6135.5,-0.0997501,-0.10007,-10.3612,5,-0.00764317,11,0.00103685,-1.98459,0.00665392,8.86695,-2963.15,-0.10007,
2,0,0,1,1,6135.52,-0.0987313,-0.0991591,-7.09065,5,-0.00777815,11,0.000703102,-2.14931,-0.00650019,-9.07666,2276.36,-0.0991591,
2,0,0,1,1,6135.54,-0.0967337,-0.0971185,-3.64145,5,-0.00788226,11,0.000353652,-2.43873,-0.00571531,-10.3232,1410.24,-0.09711846,
2,0,0,1,1,6135.56,-0.0947361,-0.0951182,-1.39206,5,-0.00793079,11,0.000132411,-2.85634,-0.00297265,-19.8476,943.182,-0.0951182,
2,1,0,1,1,6135.58,-0.0927386,-0.0930876,0.160427,5,-0.00794192,11,-1.49338e-05,-3.79472,-0.109165,-0.540467,661.967,-0.0930876,
2,1,0,1,1,6135.6,-0.090741,-0.0910839,1.27851,5,-0.0079269,11,-0.000116451,-2.8933,0.0035887,16.4405,480.649,-0.0910839,
2,1,0,1,1,6135.62,-0.0887434,-0.0890942,2.07981,5,-0.00789275,11,-0.000185299,-2.68198,0.01223,4.82422,358.273,-0.0890942,
2,1,0,1,1,6135.64,-0.0867458,-0.0871063,2.70359,5,-0.00784449,11,-0.000235499,-2.56806,0.0216422,2.72615,275.902,-0.0871063,
2,1,0,1,1,6135.66,-0.0847482,-0.0850888,3.18491,5,-0.00778531,11,-0.000271001,-2.4969,0.0328997,1.79333,218.28,-0.0850888,
2,1,0,1,1,6135.68,-0.0827529,-0.0831162,3.57455,5,-0.00771792,11,-0.000297103,-2.44678,0.0464622,1.26985,174.663,-0.0831162,
2,1,0,1,1,6135.7,-0.080753,-0.0810682,3.88717,5,-0.00764307,11,-0.000315126,-2.41037,0.0630662,0.935525,140.559,-0.0810682,
2,1,0,1,1,6135.72,-0.0787554,-0.0791013,4.13887,5,-0.00756266,11,-0.00032739,-2.38312,0.0825858,0.714409,114.613,-0.0791013,
2,1,0,1,1,6135.74,-0.0767579,-0.0770928,4.3428,5,-0.00747769,11,-0.000334799,-2.36223,0.101776,0.579706,97.9982,-0.0770928,
2,1,0,1,1,6135.76,-0.0747603,-0.0751082,4.53019,5,-0.00738874,11,-0.000340254,-2.34388,0.117527,0.502012,88.5036,-0.0751082,
2,1,0,1,1,6135.78,-0.0727627,-0.0730962,4.69652,5,-0.00729662,11,-0.000343297,-2.32822,0.149881,0.393646,71.7914,-0.0730962,
2,1,0,1,1,6135.8,-0.0707651,-0.0710862,4.81894,5,-0.00720128,11,-0.00034256,-2.31705,0.184366,0.320016,60.149,-0.0710862,
2,1,0,1,1,6135.82,-0.0687675,-0.069087,4.93766,5,-0.00710357,11,-0.000341128,-2.30648,0.20093,0.293634,56.5016,-0.069087,
2,1,0,1,1,6135.84,-0.0667699,-0.0671073,5.04375,5,-0.00700361,11,-0.000338472,-2.29725,0.232402,0.253871,49.8966,-0.0671073,
2,1,0,1,1,6135.86,-0.0647723,-0.0651151,5.13585,5,-0.00690206,11,-0.000334421,-2.28939,0.270905,0.217788,43.607,-0.0651151,
2,1,0,1,1,6135.88,-0.0627748,-0.0631066,5.21821,5,-0.00679842,11,-0.000329303,-2.28248,0.301632,0.195603,39.8128,-0.0631066,
2,1,0,1,1,6135.9,-0.0607772,-0.0611002,5.29569,5,-0.00669313,11,-0.000323568,-2.27608,0.360532,0.163647,33.7582,-0.0611002,
2,1,0,1,1,6135.92,-0.0587796,-0.0590874,5.35389,5,-0.00658652,11,-0.000316347,-2.27133,0.408276,0.14451,30.2034,-0.0590874,
2,1,0,1,1,6135.94,-0.056782,-0.05713,5.4156,5,-0.00647923,11,-0.000309394,-2.26635,0.436751,0.135088,28.5235,-0.05713,
2,1,0,1,1,6135.96,-0.0547844,-0.0551184,5.4671,5,-0.00637031,11,-0.000301338,-2.26224,0.567446,0.103975,22.1562,-0.0551184,
2,1,0,1,1,6135.98,-0.0527868,-0.0530972,5.50496,5,-0.00626049,11,-0.000292298,-2.25925,0.70731,0.0834146,17.9137,-0.0530972,
2,1,0,1,1,6136,-0.0507892,-0.0511279,5.53858,5,-0.00615,11,-0.000283176,-2.2566,0.627325,0.0940501,20.3537,-0.0511279,
2,1,0,1,1,6136.02,-0.0487916,-0.0491286,5.58573,5,-0.0060392,11,-0.000274419,-2.25292,0.706392,0.0835231,18.1722,-0.0491286,
2,1,0,1,1,6136.04,-0.046794,-0.0471209,5.6114,5,-0.00592707,11,-0.000264414,-2.25093,1.27995,0.0460957,10.0847,-0.04712094,
2,1,0,1,1,6136.06,-0.0447965,-0.0451372,5.62599,5,-0.00581454,11,-0.000253941,-2.2498,1.44189,0.0409186,8.98929,-0.0451372,
2,1,0,1,1,6136.08,-0.0427989,-0.0431712,5.6469,5,-0.00570165,11,-0.000243783,-2.24819,0.922772,0.0639378,14.1085,-0.0431712,
2,1,0,1,1,6136.1,-0.0408013,-0.0411498,5.68224,5,-0.00558883,11,-0.000233823,-2.24548,1.60211,0.0368264,8.13929,-0.0411498,
2,1,0,1,1,6136.12,-0.0388037,-0.0391593,5.67956,5,-0.0054751,11,-0.000222408,-2.24569,9.17704,0.00642909,1.42643,-0.0391593,
2,1,0,1,1,6136.14,-0.0368061,-0.0371614,5.68793,5,-0.00536131,11,-0.000211371,-2.24505,2.03974,0.0289253,6.42597,-0.0371614,
2,1,0,1,1,6136.16,-0.0348085,-0.035151,5.70531,5,-0.00524721,11,-0.000200547,-2.24372,1.94753,0.0302947,6.74087,-0.035151,
2,1,0,1,1,6136.18,-0.0328109,-0.0331473,5.71499,5,-0.00513354,11,-0.000189436,-2.24298,8.4395,0.00699093,1.55746,-0.0331473,
2,1,0,1,1,6136.2,-0.0308134,-0.0311036,5.71162,5,-0.00501919,11,-0.000177652,-2.24324,-9.78178,-0.00603162,-1.34465,-0.0311036,
2,1,0,1,1,6136.22,-0.0288158,-0.0291715,5.70964,5,-0.00490486,11,-0.000166559,-2.24339,-416.996,-0.000141488,-0.0315383,-0.02917148,
2,1,0,1,1,6136.24,-0.0268182,-0.0270706,5.71149,5,-0.00479055,11,-0.000154613,-2.24325,821.381,7.18303e-05,0.016006,-0.0270706,
2,1,0,1,1,6136.26,-0.0248138,-0.0251636,5.70971,5,-0.00467646,11,-0.000143677,-2.24339,-11.2764,-0.00523215,-1.16578,-0.0251636,
2,1,0,1,1,6136.28,-0.022823,-0.0231185,5.70688,5,-0.00456274,11,-0.000131935,-2.2436,-4.73554,-0.012459,-2.77358,-0.0231185,
2,1,0,1,1,6136.3,-0.0208254,-0.0211965,5.6987,5,-0.00444859,11,-0.000120792,-2.24422,-2.25451,-0.0261698,-5.81679,-0.0211965,
2,1,0,1,1,6136.32,-0.0188278,-0.0191529,5.68382,5,-0.0043347,11,-0.000108862,-2.24536,-2.38376,-0.0247509,-5.494,-0.0191529,
2,1,0,1,1,6136.34,-0.0168393,-0.0171829,5.67665,5,-0.00422158,11,-9.75414e-05,-2.24591,-8.46167,-0.00697262,-1.54583,-0.0171829,
2,1,0,1,1,6136.36,-0.0148327,-0.0151332,5.6776,5,-0.00410781,11,-8.59202e-05,-2.24583,-2.46026,-0.0239812,-5.30285,-0.0151332,
2,1,0,1,1,6136.38,-0.0128351,-0.0131576,5.65531,5,-0.00399439,11,-7.44105e-05,-2.24754,-1.43222,-0.0411947,-9.09861,-0.0131576,
2,1,0,1,1,6136.4,-0.0108375,-0.011134,5.64122,5,-0.00388132,11,-6.2809e-05,-2.24863,-3.73584,-0.015793,-3.48136,-0.011134,
2,1,0,1,1,6136.42,-0.00883989,-0.00915928,5.64139,5,-0.00376834,11,-5.16711e-05,-2.24861,-2.58234,-0.0228475,-5.02122,-0.00915928,
2,1,0,1,1,6136.44,-0.0068423,-0.00717643,5.62134,5,-0.003656,11,-4.03412e-05,-2.25016,-2.05959,-0.0286465,-6.29287,-0.00717643,
2,1,0,1,1,6136.46,-0.00484471,-0.00515193,5.61617,5,-0.00354351,11,-2.89341e-05,-2.25056,-2.81668,-0.0209466,-4.58789,-0.00515193,
2,1,0,1,1,6136.48,-0.00284713,-0.00320377,5.60312,5,-0.00343127,11,-1.79511e-05,-2.25157,-1.55725,-0.0378873,-8.27985,-0.003203775,
2,1,0,1,1,6136.5,-0.000849538,-0.0011801,5.58328,5,-0.00331927,11,-6.58886e-06,-2.25311, , , ,-0.0011801,
2,1,0,0,1,6136.5,-2.55332e-05,-0.000401673,5.58115,5,-0.00327409,11,-2.2418e-06,-2.25328, , , ,-0.000401673,