File: Figure_codes/Fig_3-5/rawdata_trumpetplot_data/before 10th/20221101_1-115_002_TrumpetPlot_ParaChange_14_CV_C01_3.csv
mode,ox/red,error,control changes,counter inc.,time/s,control/V,Ewe/V,<I>/mA,cycle number,(Q-Qo)/C,I Range,P/W,log(|I|),Tafel slope mV/dec,alpha_eff,dI/d(E-IR),E-IR/V,
2,1,0,1,0,4911.18,2.44065e-05,-0.000764332,23.2519,4,0.0000000E+000,10,-1.77722e-05,-1.63354, , , ,-0.0007643319,
2,1,0,1,0,4911.18,0.00188327,0.00148373,22.9193,4,7.14628e-05,10,3.40061e-05,-1.6398, , , ,0.00148373,
2,1,0,1,0,4911.19,0.00428592,0.00393327,23.4177,4,0.000164151,10,9.21081e-05,-1.63046, , , ,0.00393327,
2,1,0,1,0,4911.19,0.0066858,0.00636584,24.0364,4,0.000259115,10,0.000153012,-1.61913,0.227293,0.259577,243.925,0.00636584,
2,1,0,1,0,4911.19,0.00908291,0.00873373,24.6673,4,0.000356573,10,0.000215437,-1.60788,0.227383,0.259474,249.166,0.00873373,
2,1,0,1,0,4911.2,0.01148,0.011144,25.2757,4,0.00045654,10,0.000281674,-1.5973,0.241978,0.243824,239.464,0.011144,
2,1,0,1,0,4911.2,0.0138882,0.0136254,25.8326,4,0.000558817,10,0.00035198,-1.58783,0.27339,0.215809,216.394,0.0136254,
2,1,0,1,0,4911.21,0.0162853,0.0159392,26.3289,4,0.0006632,10,0.000419661,-1.57957,0.311378,0.189481,193.752,0.0159392,
2,1,0,1,0,4911.21,0.0186824,0.0183421,26.7465,4,0.000769411,10,0.000490585,-1.57273,0.349309,0.168905,175.761,0.0183421,
2,1,0,1,0,4911.21,0.0210878,0.0208096,27.1485,4,0.000877243,10,0.00056495,-1.56625,0.40477,0.145762,153.937,0.0208096,
2,1,0,1,0,4911.22,0.023485,0.0231796,27.5119,4,0.000986618,10,0.000637716,-1.56048,0.459822,0.12831,137.211,0.0231796,
2,1,0,1,0,4911.22,0.0258821,0.0255327,27.8057,4,0.00109727,10,0.000709953,-1.55587,0.520506,0.113351,122.678,0.0255327,
2,1,0,1,0,4911.23,0.0282792,0.0279557,28.0655,4,0.00120907,10,0.000784592,-1.55183,0.609258,0.0968391,105.879,0.0279557,
2,1,0,1,0,4911.23,0.0306874,0.0303872,28.3234,4,0.00132191,10,0.00086067,-1.54785,0.683468,0.0863244,95.2168,0.0303872,
2,1,0,1,0,4911.23,0.0330845,0.0327477,28.525,4,0.00143561,10,0.000934127,-1.54477,0.745279,0.079165,88.0127,0.0327477,
2,1,0,1,0,4911.24,0.0354816,0.0351887,28.7251,4,0.00155014,10,0.0010108,-1.54174,0.850071,0.069406,77.7275,0.0351887,
2,1,0,1,0,4911.24,0.0378898,0.0375831,28.9129,4,0.00166543,10,0.00108664,-1.53891,0.923091,0.0639157,72.0137,0.0375831,
2,1,0,1,0,4911.25,0.0402869,0.040003,29.0708,4,0.00178142,10,0.00116292,-1.53654,0.998221,0.0591051,66.9956,0.040003,
2,1,0,1,0,4911.25,0.042684,0.0423624,29.2174,4,0.00189803,10,0.00123772,-1.53436,1.02836,0.0573728,65.4365,0.0423624,
2,1,0,1,0,4911.25,0.0450811,0.0447473,29.3655,4,0.00201522,10,0.00131402,-1.53216,1.02732,0.0574312,65.8641,0.0447473,
2,1,0,1,0,4911.26,0.0474865,0.047148,29.5388,4,0.00213308,10,0.00139269,-1.52961,1.04542,0.0564367,65.0364,0.047148,
2,1,0,1,0,4911.26,0.0498836,0.0496007,29.703,4,0.00225158,10,0.00147329,-1.5272,0.974497,0.060544,70.1808,0.0496007,
2,1,0,1,0,4911.27,0.0522807,0.0519432,29.8405,4,0.00237068,10,0.00155001,-1.52519,0.986711,0.0597946,69.7067,0.0519432,
2,1,0,1,0,4911.27,0.0546889,0.0543694,30.0407,4,0.00249043,10,0.0016333,-1.52229,0.929127,0.0635004,74.4923,0.0543694,
2,1,0,1,0,4911.27,0.057086,0.0567139,30.2056,4,0.00261095,10,0.00171308,-1.51991,0.840123,0.0702278,82.8773,0.0567139,
2,1,0,1,0,4911.28,0.0594831,0.0591911,30.4174,4,0.0027322,10,0.00180044,-1.51688,0.818021,0.0721253,85.7094,0.0591911,
2,1,0,1,0,4911.28,0.061883,0.061595,30.6404,4,0.00285433,10,0.00188729,-1.51371,0.748287,0.0788467,94.3376,0.061595,
2,1,0,1,0,4911.29,0.0642857,0.0639459,30.8615,4,0.00297737,10,0.00197347,-1.51058,0.696343,0.0847284,102.189,0.0639459,
2,1,0,1,0,4911.29,0.0666828,0.0663435,31.114,4,0.00310133,10,0.00206421,-1.50704,0.637386,0.0925656,112.611,0.0663435,
2,1,0,1,0,4911.29,0.0690799,0.0687623,31.3955,4,0.00322639,10,0.00215882,-1.50313,0.592326,0.0996074,122.244,0.0687623,
2,1,0,1,0,4911.3,0.0714881,0.0710962,31.7103,4,0.00335261,10,0.00225448,-1.4988,0.556012,0.106113,131.453,0.0710962,
2,1,0,1,0,4911.3,0.0738852,0.0735755,32.0387,4,0.00348014,10,0.00235726,-1.49433,0.516081,0.114323,143.102,0.0735755,
2,1,0,1,0,4911.31,0.0762823,0.0759677,32.3791,4,0.00360901,10,0.00245977,-1.48973,0.488572,0.12076,152.901,0.0759677,
2,1,0,1,0,4911.31,0.0786849,0.0783081,32.7615,4,0.00373932,10,0.00256549,-1.48464,0.460801,0.128038,163.977,0.0783081,
2,1,0,1,0,4911.31,0.0810876,0.0807565,33.1874,4,0.00387126,10,0.0026801,-1.47903,0.440159,0.134042,173.713,0.0807565,
2,1,0,1,0,4911.32,0.0834847,0.0831276,33.605,4,0.00400488,10,0.00279351,-1.4736,0.423048,0.139464,183.087,0.08312761,
2,1,0,1,0,4911.32,0.0858818,0.0855761,34.0482,4,0.00414022,10,0.00291371,-1.46791,0.415625,0.141955,188.828,0.0855761,
2,1,0,1,0,4911.33,0.0882872,0.0879694,34.5303,4,0.00427744,10,0.00303761,-1.4618,0.405254,0.145588,196.23,0.0879694,
2,1,0,1,0,4911.33,0.0906843,0.0903405,34.9971,4,0.00441652,10,0.00316166,-1.45597,0.39267,0.150253,205.336,0.0903405,
2,1,0,1,0,4911.33,0.0930814,0.0927073,35.4849,4,0.00455752,10,0.00328971,-1.44996,0.377846,0.156148,216.668,0.0927073,
2,1,0,1,0,4911.34,0.0954841,0.0950985,36.0035,4,0.00470054,10,0.00342388,-1.44365,0.363962,0.162105,228.268,0.0950985,
2,1,0,1,0,4911.34,0.0978867,0.0975152,36.5986,4,0.00484579,10,0.00356892,-1.43654,0.35233,0.167457,239.339,0.0975152,
2,1,0,1,0,4911.35,0.100284,0.0999393,37.1882,4,0.00499345,10,0.00371656,-1.42959,0.341908,0.172561,250.507,0.0999393,
2,1,0,1,0,4911.35,0.102681,0.102315,37.7843,4,0.00514344,10,0.00386588,-1.42269,0.344678,0.171174,252.551,0.102315,
2,1,0,1,0,4911.35,0.105086,0.104735,38.4177,4,0.00529592,10,0.00402369,-1.41547,0.344256,0.171384,256.885,0.1047355,
2,1,0,1,0,4911.36,0.107483,0.107171,39.0373,4,0.00545091,10,0.00418367,-1.40852,0.345719,0.170659,259.934,0.107171,
2,1,0,1,0,4911.36,0.109881,0.109527,39.6513,4,0.00560834,10,0.00434291,-1.40174,0.349649,0.168741,261.17,0.109527,
2,1,0,1,0,4911.37,0.112289,0.111984,40.2978,4,0.0057683,10,0.00451272,-1.39472,0.348656,0.169221,266.124,0.111984,
2,1,0,1,0,4911.37,0.114686,0.114341,40.9262,4,0.00593083,10,0.00467953,-1.388,0.345346,0.170843,272.997,0.114341,
2,1,0,1,0,4911.37,0.117083,0.116734,41.5821,4,0.00609591,10,0.00485405,-1.38109,0.347743,0.169666,275.501,0.116734,
2,1,0,1,0,4911.38,0.11948,0.119105,42.2659,4,0.00626368,10,0.00503409,-1.37401,0.346622,0.170214,280.749,0.119105,
2,1,0,1,0,4911.38,0.121888,0.121591,42.9443,4,0.00643417,10,0.00522163,-1.36709,0.348058,0.169512,284.067,0.121591,
2,1,0,1,0,4911.39,0.124285,0.123965,43.6283,4,0.00660738,10,0.00540837,-1.36023,0.345965,0.170538,290.493,0.123965,
2,1,0,1,0,4911.39,0.126682,0.126393,44.326,4,0.00678336,10,0.00560251,-1.35334,0.341397,0.172819,299.203,0.126393,
2,1,0,1,0,4911.39,0.129088,0.128713,45.0571,4,0.00696218,10,0.00579945,-1.34624,0.339129,0.173975,306.077,0.128713,
2,1,0,1,0,4911.4,0.131485,0.131169,45.8103,4,0.00714398,10,0.0060089,-1.33904,0.335334,0.175944,314.606,0.131169,
2,1,0,1,0,4911.4,0.133882,0.133553,46.563,4,0.00732881,10,0.00621863,-1.33196,0.33163,0.177909,323.523,0.1335531,
2,1,0,1,0,4911.41,0.136279,0.135978,47.3415,4,0.00751669,10,0.00643742,-1.32476,0.328801,0.17944,331.843,0.135978,
2,1,0,1,0,4911.41,0.138687,0.13833,48.1684,4,0.00770781,10,0.00666314,-1.31724,0.322378,0.183015,344.279,0.13833,
2,1,0,1,0,4911.41,0.141085,0.140774,48.9977,4,0.00790221,10,0.00689762,-1.30982,0.314185,0.187787,359.467,0.140774,
2,1,0,1,0,4911.42,0.143482,0.143182,49.8779,4,0.00810004,10,0.00714159,-1.30209,0.312665,0.1887,367.595,0.143182,
2,1,0,1,0,4911.42,0.145887,0.145591,50.7969,4,0.00830147,10,0.00739557,-1.29416,0.305433,0.193169,383.013,0.145591,
2,1,0,1,0,4911.43,0.148284,0.147948,51.7038,4,0.00850655,10,0.00764949,-1.28648,0.303872,0.194161,391.995,0.147948,
2,1,0,1,0,4911.43,0.150681,0.150331,52.6579,4,0.00871535,10,0.00791611,-1.27854,0.298582,0.197601,406.448,0.150331,
2,1,0,1,0,4911.43,0.153084,0.152755,53.6306,4,0.00892801,10,0.00819233,-1.27059,0.297136,0.198563,415.937,0.152755,
2,1,0,1,0,4911.44,0.155487,0.155096,54.6604,4,0.00914468,10,0.00847763,-1.26233,0.299063,0.197283,420.848,0.155096,
2,1,0,1,0,4911.44,0.157884,0.157542,55.6941,4,0.00936548,10,0.00877414,-1.25419,0.296347,0.199091,432.62,0.157542,
2,1,0,1,0,4911.45,0.160281,0.159966,56.7127,4,0.0095904,10,0.00907209,-1.24632,0.301162,0.195908,433.673,0.159966,
2,1,0,1,0,4911.45,0.162689,0.162344,57.7791,4,0.00981948,10,0.0093801,-1.23823,0.305755,0.192965,435.049,0.162344,
2,1,0,1,0,4911.45,0.165086,0.16472,58.8337,4,0.0100528,10,0.00969106,-1.23037,0.30428,0.193901,445.102,0.16472,
2,1,0,1,0,4911.46,0.167483,0.167198,59.895,4,0.0102904,10,0.0100143,-1.22261,0.314823,0.187407,437.87,0.167198,
2,1,0,1,0,4911.46,0.169886,0.169545,60.9767,4,0.0105322,10,0.0103383,-1.21484,0.321628,0.183442,436.05,0.169545,
2,1,0,1,0,4911.47,0.172286,0.172,62.0072,4,0.0107783,10,0.0106652,-1.20756,0.329481,0.179069,432.845,0.172,
2,1,0,1,0,4911.47,0.174683,0.174344,63.0304,4,0.0110285,10,0.010989,-1.20045,0.344468,0.171279,420.956,0.174344,
2,1,0,1,0,4911.47,0.17708,0.176737,64.0241,4,0.0112827,10,0.0113154,-1.19366,0.358294,0.164669,411.008,0.176737,
2,1,0,1,0,4911.48,0.179488,0.179143,65.0169,4,0.0115409,10,0.0116473,-1.18697,0.382037,0.154435,391.116,0.179143,
2,1,0,1,0,4911.48,0.181885,0.181576,65.9428,4,0.0118029,10,0.0119736,-1.18083,0.40901,0.144251,370.398,0.181576,
2,1,0,1,0,4911.49,0.184282,0.18396,66.7913,4,0.0120685,10,0.0122869,-1.17528,0.448842,0.131449,341.888,0.18396,
2,1,0,1,0,4911.49,0.186688,0.186382,67.5963,4,0.0123373,10,0.0125987,-1.17008,0.502282,0.117464,308.998,0.1863815,
2,1,0,1,0,4911.49,0.189085,0.188741,68.2982,4,0.0126092,10,0.0128907,-1.16559,0.583774,0.101067,268.49,0.188741,
2,1,0,1,0,4911.5,0.191482,0.191106,68.8875,4,0.0128837,10,0.0131648,-1.16186,0.726363,0.0812266,217.575,0.191106,
2,1,0,1,0,4911.5,0.193879,0.193548,69.3656,4,0.0131603,10,0.0134256,-1.15886,1.0165,0.0580422,156.408,0.193548,
2,1,0,1,0,4911.51,0.196287,0.195981,69.685,4,0.0134385,10,0.013657,-1.15686,1.83491,0.0321541,86.974,0.195981,
2,1,0,1,0,4911.51,0.198684,0.198365,69.8035,4,0.0137175,10,0.0138466,-1.15612,17.4733,0.00337657,9.1466,0.198365,
2,1,0,1,0,4911.51,0.201081,0.200815,69.7319,4,0.0139966,10,0.0140032,-1.15657,-1.9214,-0.0307068,-83.0306,0.200815,
2,1,0,1,0,4911.52,0.20349,0.203197,69.4539,4,0.014275,10,0.0141128,-1.1583,-0.883595,-0.0667727,-179.638,0.203197,
2,1,0,1,0,4911.52,0.205887,0.205597,68.8866,4,0.0145517,10,0.0141629,-1.16187,-0.541419,-0.108973,-290.603,0.2055971,
2,1,0,1,0,4911.53,0.208284,0.208003,68.0722,4,0.0148256,10,0.0141592,-1.16703,-0.386761,-0.152549,-401.849,0.208003,
2,1,0,1,0,4911.53,0.210681,0.210391,66.949,4,0.0150956,10,0.0140855,-1.17426,-0.296305,-0.199119,-515.806,0.210391,
2,1,0,1,0,4911.53,0.213086,0.212841,65.5787,4,0.0153607,10,0.0139578,-1.18324,-0.238223,-0.247667,-628.284,0.212841,
2,1,0,1,0,4911.54,0.215484,0.215213,63.9268,4,0.0156196,10,0.0137579,-1.19432,-0.200065,-0.294905,-729.261,0.215213,
2,1,0,1,0,4911.54,0.217881,0.217629,62.0247,4,0.0158713,10,0.0134984,-1.20744,-0.170306,-0.346436,-831.393,0.217629,
2,1,0,1,0,4911.55,0.220289,0.220046,59.9079,4,0.016115,10,0.0131825,-1.22252,-0.148793,-0.396524,-919.201,0.220046,
2,1,0,1,0,4911.55,0.222686,0.222463,57.5789,4,0.0163498,10,0.0128092,-1.23974,-0.133832,-0.440852,-983.313,0.222463,
2,1,0,1,0,4911.55,0.225083,0.224827,55.0899,4,0.0165749,10,0.0123857,-1.25893,-0.121176,-0.486895,-1040.63,0.224827,
2,1,0,1,0,4911.56,0.227483,0.227272,52.5423,4,0.0167899,10,0.0119414,-1.27949,-0.112051,-0.526545,-1074.03,0.227272,
2,1,0,1,0,4911.56,0.229886,0.229641,49.9236,4,0.0169946,10,0.0114645,-1.30169,-0.105829,-0.557504,-1081.69,0.2296408,
2,1,0,1,0,4911.57,0.232283,0.232043,47.29,4,0.0171887,10,0.0109733,-1.32523,-0.100646,-0.586214,-1079.61,0.232043,
2,1,0,1,0,4911.57,0.23468,0.23443,44.7023,4,0.0173725,10,0.0104796,-1.34967,-0.0979406,-0.602406,-1050.81,0.2344296,
2,1,0,1,0,4911.57,0.237088,0.236839,42.2137,4,0.017546,10,0.00999785,-1.37455,-0.0968434,-0.609231,-1005.17,0.236839,
2,1,0,1,0,4911.58,0.239485,0.23923,39.8471,4,0.0177099,10,0.00953262,-1.3996,-0.0969066,-0.608833,-949.78,0.23923,
2,1,0,1,0,4911.58,0.241882,0.241653,37.6298,4,0.0178645,10,0.00909337,-1.42447,-0.0986844,-0.597866,-882.501,0.241653,
2,1,0,1,0,4911.59,0.244285,0.244025,35.5886,4,0.0180107,10,0.00868452,-1.44869,-0.102049,-0.578151,-808.174,0.244025,
2,1,0,1,0,4911.59,0.246687,0.246433,33.7465,4,0.0181491,10,0.00831627,-1.47177,-0.106286,-0.555107,-736.567,0.246433,
2,1,0,1,0,4911.59,0.249085,0.248853,32.0699,4,0.0182805,10,0.0079807,-1.4939,-0.114928,-0.513364,-648.641,0.248853,
2,1,0,1,0,4911.6,0.251482,0.251183,30.6105,4,0.0184057,10,0.00768882,-1.51413,-0.123212,-0.478848,-577.663,0.251183,
2,1,0,1,0,4911.6,0.253887,0.253625,29.3617,4,0.0185255,10,0.00744687,-1.53222,-0.136961,-0.430778,-498.023,0.253625,
2,1,0,1,0,4911.61,0.256284,0.255968,28.239,4,0.0186405,10,0.00722827,-1.54915,-0.153454,-0.38448,-427.723,0.2559675,
2,1,0,1,0,4911.61,0.258681,0.258422,27.3042,4,0.0187515,10,0.00705603,-1.56377,-0.170521,-0.345999,-372.034,0.258422,
2,1,0,1,0,4911.61,0.261084,0.260796,26.4989,4,0.018859,10,0.0069108,-1.57677,-0.198262,-0.297585,-310.204,0.260796,
2,1,0,1,0,4911.62,0.263487,0.263153,25.8171,4,0.0189635,10,0.00679384,-1.58809,-0.22374,-0.263699,-267.584,0.263153,
2,1,0,1,0,4911.62,0.265884,0.265645,25.2371,4,0.0190655,10,0.0067041,-1.59796,-0.260167,-0.226778,-224.808,0.265645,
2,1,0,1,0,4911.63,0.268281,0.268006,24.7397,4,0.0191654,10,0.0066304,-1.6066,-0.301124,-0.195933,-190.311,0.268006,
2,1,0,1,0,4911.63,0.270686,0.270428,24.3334,4,0.0192635,10,0.00658044,-1.6138,-0.343085,-0.171969,-164.074,0.270428,
2,1,0,1,0,4911.63,0.273083,0.272796,23.9819,4,0.0193601,10,0.00654216,-1.62012,-0.408384,-0.144472,-135.78,0.272796,
2,1,0,1,0,4911.64,0.27548,0.275174,23.6736,4,0.0194554,10,0.00651436,-1.62573,-0.461126,-0.127948,-118.649,0.2751736,
2,1,0,1,0,4911.64,0.277889,0.277611,23.4355,4,0.0195495,10,0.00650598,-1.63012,-0.524806,-0.112422,-103.041,0.277611,
2,1,0,1,0,4911.65,0.280286,0.279996,23.1982,4,0.0196428,10,0.0064954,-1.63455,-0.606798,-0.0972318,-88.2098,0.279996,
2,1,0,1,0,4911.65,0.282683,0.28237,22.9954,4,0.0197351,10,0.0064932,-1.63836,-0.6728,-0.0876932,-78.9025,0.28237,
2,1,0,1,0,4911.65,0.28508,0.284815,22.8232,4,0.0198267,10,0.00650038,-1.64162,-0.758253,-0.0778104,-69.4277,0.284815,
2,1,0,1,0,4911.66,0.287488,0.28721,22.6782,4,0.0199178,10,0.00651341,-1.64439,-0.851584,-0.0692827,-61.3765,0.28721,
2,1,0,1,0,4911.66,0.289885,0.289608,22.5309,4,0.0200082,10,0.00652512,-1.64722,-0.931593,-0.0633324,-55.7503,0.289608,
2,1,0,1,0,4911.67,0.292282,0.291975,22.4059,4,0.020098,10,0.00654195,-1.64964,-0.988255,-0.0597012,-52.2525,0.291975,
2,1,0,1,0,4911.67,0.294688,0.29437,22.2905,4,0.0201874,10,0.00656165,-1.65188,-1.05974,-0.0556742,-48.4552,0.29437,
2,1,0,1,0,4911.67,0.297085,0.29681,22.1766,4,0.0202763,10,0.00658223,-1.65411,-1.09691,-0.0537876,-46.6548,0.29681,
2,1,0,1,0,4911.68,0.299363,0.299067,22.0725,4,0.0203604,10,0.00660117,-1.65615,-0.0883836,-0.667545,-546.114,0.299067,
2,1,0,1,0,4911.68,0.300012,0.299689,22.046,4,0.0203846,10,0.00660694,-1.65667,0.000551389,107.003,71549.7,0.2996892,
2,1,0,1,0,4911.68,0.299243,0.299136,19.688,4,0.0204108,10,0.00588938,-1.7058,0.0104813,5.62906,3005.09,0.2991356,
2,1,0,1,0,4911.68,0.296846,0.296681,12.9202,4,0.0204749,10,0.00383317,-1.88873,0.0101661,5.80358,2329.17,0.296681,
2,1,0,1,0,4911.69,0.294449,0.294299,7.74295,4,0.0205153,10,0.00227874,-2.11109,0.006235,9.46271,1968.87,0.294299,
2,1,0,1,0,4911.69,0.292041,0.291815,3.7045,4,0.0205375,10,0.00108103,-2.43127,0.0117733,5.01136,1545.35,0.291815,
2,1,0,1,0,4911.7,0.289644,0.289412,0.542786,4,0.0205455,10,0.000157089,-3.26537,0.0335474,1.75871,1205.44,0.289412,
2,0,0,1,0,4911.7,0.287247,0.287049,-1.96413,4,0.0205423,10,-0.000563803,-2.70683,-0.0537986,-1.09668,965.864,0.287049,
2,0,0,1,0,4911.7,0.284841,0.284579,-3.97353,4,0.0205301,10,-0.00113079,-2.40082,-0.00869236,-6.78757,774.557,0.284579,
2,0,0,1,0,4911.71,0.282444,0.282188,-5.59323,4,0.0205107,10,-0.00157834,-2.25234,-0.0159009,-3.71049,619.458,0.282188,
2,0,0,1,0,4911.71,0.280047,0.279821,-6.88547,4,0.0204856,10,-0.0019267,-2.16207,-0.0276849,-2.13113,506.156,0.279821,
2,0,0,1,0,4911.72,0.27765,0.277404,-7.93909,4,0.0204558,10,-0.00220233,-2.10023,-0.0412362,-1.43078,413.372,0.277404,
2,0,0,1,0,4911.72,0.275242,0.274966,-8.83953,4,0.0204221,10,-0.00243057,-2.05357,-0.0566877,-1.04079,342.397,0.274966,
2,0,0,1,0,4911.72,0.272845,0.272577,-9.56637,4,0.0203852,10,-0.00260757,-2.01925,-0.07369,-0.800651,289.577,0.272577,
2,0,0,1,0,4911.73,0.270448,0.270174,-10.1888,4,0.0203456,10,-0.00275274,-1.99188,-0.0936697,-0.629873,244.894,0.270174,
2,0,0,1,0,4911.73,0.26804,0.267744,-10.7362,4,0.0203036,10,-0.00287455,-1.96915,-0.115192,-0.51219,210.755,0.267744,
2,0,0,1,0,4911.74,0.265642,0.265423,-11.1765,4,0.0202597,10,-0.00296649,-1.9517,-0.139206,-0.423831,182.643,0.265423,
2,0,0,1,0,4911.74,0.263245,0.262999,-11.5849,4,0.0202142,10,-0.00304682,-1.93611,-0.164533,-0.358591,160.771,0.262999,
2,0,0,1,0,4911.74,0.260843,0.260577,-11.9415,4,0.0201671,10,-0.00311169,-1.92294,-0.188437,-0.313102,144.952,0.260577,
2,0,0,1,0,4911.75,0.258443,0.258178,-12.2741,4,0.0201186,10,-0.00316891,-1.91101,-0.215904,-0.273269,130.146,0.258178,
2,0,0,1,0,4911.75,0.256046,0.255768,-12.576,4,0.0200688,10,-0.00321653,-1.90046,-0.238137,-0.247756,121.011,0.255768,
2,0,0,1,0,4911.76,0.253649,0.25333,-12.8432,4,0.020018,10,-0.00325358,-1.89133,-0.263175,-0.224185,112.042,0.25333,
2,0,0,1,0,4911.76,0.25124,0.250948,-13.1068,4,0.0199661,10,-0.00328912,-1.8825,-0.288205,-0.204715,104.414,0.250948,
2,0,0,1,0,4911.76,0.248843,0.248551,-13.3528,4,0.0199131,10,-0.00331885,-1.87443,-0.299093,-0.197263,102.612,0.248551,
2,0,0,1,0,4911.77,0.246446,0.246201,-13.5749,4,0.0198592,10,-0.00334215,-1.86726,-0.326018,-0.180971,95.7765,0.246201,
2,0,0,1,0,4911.77,0.244041,0.243752,-13.8261,4,0.0198044,10,-0.00337014,-1.8593,-0.34786,-0.169609,91.2526,0.2437516,
2,0,0,1,0,4911.78,0.241644,0.241359,-14.0251,4,0.0197487,10,-0.0033851,-1.85309,-0.359808,-0.163976,89.6093,0.241359,
2,0,0,1,0,4911.78,0.239247,0.238958,-14.2282,4,0.0196922,10,-0.00339994,-1.84685,-0.377111,-0.156453,86.9453,0.238958,
2,0,0,1,0,4911.78,0.236849,0.236557,-14.4391,4,0.0196348,10,-0.00341567,-1.84046,-0.375646,-0.157063,88.5416,0.236557,
2,0,0,1,0,4911.79,0.234441,0.234145,-14.6613,4,0.0195766,10,-0.00343289,-1.83383,-0.388242,-0.151967,86.8347,0.234145,
2,0,0,1,0,4911.79,0.232044,0.231787,-14.8727,4,0.0195175,10,-0.0034473,-1.82761,-0.393391,-0.149978,86.9284,0.231787,
2,0,0,1,0,4911.8,0.229647,0.229351,-15.0624,4,0.0194576,10,-0.00345457,-1.82211,-0.404841,-0.145736,85.6988,0.2293513,
2,0,0,1,0,4911.8,0.227239,0.226979,-15.2717,4,0.0193969,10,-0.00346635,-1.81611,-0.419398,-0.140678,83.8431,0.226979,
2,0,0,1,0,4911.8,0.224842,0.224578,-15.4812,4,0.0193354,10,-0.00347675,-1.81019,-0.408408,-0.144463,87.2477,0.224578,
2,0,0,1,0,4911.81,0.222445,0.222192,-15.6771,4,0.0192731,10,-0.00348334,-1.80473,-0.408228,-0.144527,88.522,0.222192,
2,0,0,1,0,4911.81,0.220047,0.219806,-15.8952,4,0.0192099,10,-0.00349385,-1.79873,-0.418727,-0.140903,87.4268,0.219806,
2,0,0,1,0,4911.82,0.217642,0.217346,-16.1244,4,0.0191458,10,-0.00350458,-1.79252,-0.409712,-0.144004,90.5307,0.217346,
2,0,0,1,0,4911.82,0.215245,0.214945,-16.3235,4,0.0190809,10,-0.00350864,-1.78719,-0.399201,-0.147795,94.2755,0.214945,
2,0,0,1,0,4911.82,0.212848,0.212572,-16.548,4,0.0190152,10,-0.00351766,-1.78125,-0.40087,-0.14718,95.2063,0.212572,
2,0,0,1,0,4911.83,0.21044,0.210182,-16.8024,4,0.0189485,10,-0.00353158,-1.77463,-0.386452,-0.152671,100.102,0.210182,
2,0,0,1,0,4911.83,0.208042,0.207793,-17.0339,4,0.0188808,10,-0.00353953,-1.76869,-0.383714,-0.15376,102.218,0.207793,
2,0,0,1,0,4911.84,0.205645,0.20532,-17.2869,4,0.0188121,10,-0.00354935,-1.76228,-0.380558,-0.155035,104.68,0.20532,
2,0,0,1,0,4911.84,0.203246,0.202968,-17.5297,4,0.0187424,10,-0.00355798,-1.75622,-0.368,-0.160326,109.873,0.202968,
2,0,0,1,0,4911.84,0.200843,0.200564,-17.8092,4,0.0186717,10,-0.0035719,-1.74935,-0.360104,-0.163842,113.98,0.200564,
2,0,0,1,0,4911.85,0.198446,0.19812,-18.0967,4,0.0185999,10,-0.00358533,-1.7424,-0.340717,-0.173164,122.388,0.19812,
2,0,0,1,0,4911.85,0.196049,0.195774,-18.375,4,0.0185269,10,-0.00359734,-1.73577,-0.333191,-0.177075,127.249,0.195774,
2,0,0,1,0,4911.86,0.19364,0.193383,-18.7028,4,0.0184527,10,-0.00361682,-1.72809,-0.325866,-0.181056,132.296,0.193383,
2,0,0,1,0,4911.86,0.191243,0.190965,-19.0308,4,0.0183773,10,-0.00363421,-1.72054,-0.304694,-0.193637,144.001,0.190965,
2,0,0,1,0,4911.86,0.188846,0.188548,-19.3631,4,0.0183005,10,-0.00365087,-1.71303,-0.29834,-0.197761,149.843,0.188548,
2,0,0,1,0,4911.87,0.186444,0.186211,-19.7521,4,0.0182222,10,-0.00367805,-1.70439,-0.287935,-0.204908,158.199,0.1862108,
2,0,0,1,0,4911.87,0.184041,0.183761,-20.1446,4,0.0181423,10,-0.00370181,-1.69584,-0.272332,-0.216647,170.533,0.183761,
2,0,0,1,0,4911.88,0.181644,0.181337,-20.5539,4,0.0180609,10,-0.00372718,-1.68711,-0.264696,-0.222897,179.251,0.181337,
2,0,0,1,0,4911.88,0.179247,0.178963,-20.9977,4,0.0179778,10,-0.0037578,-1.67783,-0.2518,-0.234313,192.555,0.178963,
2,0,0,1,0,4911.88,0.176841,0.176547,-21.4843,4,0.0178928,10,-0.00379299,-1.66788,-0.236894,-0.249056,209.35,0.176547,
2,0,0,1,0,4911.89,0.174444,0.174144,-21.9964,4,0.0178058,10,-0.00383055,-1.65765,-0.229316,-0.257287,221.353,0.174144,
2,0,0,1,0,4911.89,0.172047,0.171784,-22.5538,4,0.0177166,10,-0.00387439,-1.64678,-0.218292,-0.270281,238.496,0.171784,
2,0,0,1,0,4911.9,0.169644,0.169348,-23.1259,4,0.0176252,10,-0.00391633,-1.6359,-0.208311,-0.28323,256.477,0.169348,
2,0,0,1,0,4911.9,0.167242,0.166944,-23.7746,4,0.0175314,10,-0.00396903,-1.62389,-0.201823,-0.292335,271.994,0.166944,
2,0,0,1,0,4911.9,0.164845,0.164566,-24.4531,4,0.0174349,10,-0.00402415,-1.61167,-0.190892,-0.309075,295.783,0.164566,
2,0,0,1,0,4911.91,0.162448,0.162147,-25.175,4,0.0173356,10,-0.00408205,-1.59903,-0.184617,-0.319581,314.945,0.162147,
2,0,0,1,0,4911.91,0.160042,0.159726,-25.972,4,0.0172332,10,-0.0041484,-1.5855,-0.178328,-0.330852,336.135,0.159726,
2,0,0,1,0,4911.92,0.157645,0.157374,-26.7886,4,0.0171276,10,-0.00421584,-1.57205,-0.171332,-0.344361,361.128,0.157374,
2,0,0,1,0,4911.92,0.155248,0.15497,-27.6785,4,0.0170186,10,-0.00428935,-1.55786,-0.165793,-0.355866,385.728,0.15497,
2,0,0,1,0,4911.92,0.152845,0.152548,-28.6414,4,0.0169059,10,-0.0043692,-1.54301,-0.161082,-0.366273,410.368,0.152548,
2,0,0,1,0,4911.93,0.150443,0.150174,-29.6565,4,0.0167892,10,-0.00445363,-1.52788,-0.158396,-0.372484,431.717,0.150174,
2,0,0,1,0,4911.93,0.148046,0.147801,-30.7172,4,0.0166684,10,-0.00454003,-1.51262,-0.154252,-0.38249,459.491,0.147801,
2,0,0,1,0,4911.94,0.145648,0.145393,-31.8134,4,0.0165432,10,-0.00462542,-1.49739,-0.151651,-0.389051,484.647,0.145393,
2,0,0,1,0,4911.94,0.14324,0.143006,-33.0262,4,0.0164134,10,-0.00472293,-1.48114,-0.149664,-0.394217,509.196,0.143006,
2,0,0,1,0,4911.94,0.140843,0.140604,-34.2947,4,0.0162786,10,-0.00482196,-1.46477,-0.147224,-0.400749,536.814,0.140604,
2,0,0,1,0,4911.95,0.138446,0.138219,-35.5963,4,0.0161387,10,-0.00492008,-1.4486,-0.148853,-0.396364,550.944,0.138219,
2,0,0,1,0,4911.95,0.136041,0.135802,-36.9616,4,0.0159935,10,-0.00501946,-1.43225,-0.149878,-0.393654,567.665,0.135802,
2,0,0,1,0,4911.96,0.133644,0.133363,-38.3385,4,0.0158428,10,-0.00511295,-1.41636,-0.151042,-0.39062,584.314,0.133363,
2,0,0,1,0,4911.96,0.131246,0.131013,-39.7387,4,0.0156865,10,-0.00520631,-1.40079,-0.153863,-0.383457,594.893,0.131013,
2,0,0,1,0,4911.96,0.128849,0.128632,-41.1981,4,0.0155245,10,-0.00529939,-1.38512,-0.156572,-0.376823,605.11,0.128632,
2,0,0,1,0,4911.97,0.126441,0.126191,-42.6794,4,0.0153566,10,-0.00538574,-1.36978,-0.162113,-0.363943,604.447,0.126191,
2,0,0,1,0,4911.97,0.124044,0.123861,-44.0885,4,0.0151829,10,-0.00546084,-1.35568,-0.16558,-0.356323,612.659,0.123861,
2,0,0,1,0,4911.98,0.121647,0.121476,-45.5035,4,0.0150036,10,-0.00552759,-1.34195,-0.171873,-0.343277,610.023,0.121476,
2,0,0,1,0,4911.98,0.119241,0.119089,-47.0445,4,0.0148184,10,-0.00560249,-1.32749,-0.176566,-0.334153,612.664,0.119089,
2,0,0,1,0,4911.98,0.116844,0.116627,-48.5135,4,0.0146271,10,-0.00565798,-1.31414,-0.180959,-0.326041,615.924,0.1166269,
2,0,0,1,0,4911.99,0.114447,0.11422,-49.9953,4,0.0144299,10,-0.00571045,-1.30107,-0.192211,-0.306955,597.482,0.11422,
2,0,0,1,0,4911.99,0.11205,0.111858,-51.4274,4,0.014227,10,-0.00575258,-1.28881,-0.200371,-0.294454,589.277,0.111858,
2,0,0,1,0,4912,0.109642,0.109427,-52.8176,4,0.0140183,10,-0.00577966,-1.27722,-0.21211,-0.278158,571.908,0.109427,
2,0,0,1,0,4912,0.107245,0.107066,-54.1474,4,0.0138042,10,-0.00579736,-1.26642,-0.223221,-0.264312,557.59,0.107066,
2,0,0,1,0,4912,0.104848,0.104655,-55.4655,4,0.0135849,10,-0.00580474,-1.25598,-0.236074,-0.249922,540.051,0.104655,
2,0,0,1,0,4912.01,0.10244,0.102276,-56.7702,4,0.0133602,10,-0.00580625,-1.24588,-0.248606,-0.237323,524.548,0.102276,
2,0,0,1,0,4912.01,0.100042,0.099828,-58.0015,4,0.0131306,10,-0.00579017,-1.23656,-0.263782,-0.22367,505.099,0.099828,
2,0,0,1,0,4912.02,0.0976454,0.0974399,-59.1969,4,0.012896,10,-0.00576814,-1.2277,-0.285472,-0.206675,476.198,0.0974399,
2,0,0,1,0,4912.02,0.0952427,0.0950243,-60.3299,4,0.0126569,10,-0.00573281,-1.21947,-0.308311,-0.191365,449.17,0.09502431,
2,0,0,1,0,4912.02,0.0928428,0.0926246,-61.3663,4,0.0124133,10,-0.00568403,-1.21207,-0.338925,-0.17408,415.624,0.0926246,
2,0,0,1,0,4912.03,0.0904457,0.0901772,-62.3363,4,0.0121658,10,-0.00562131,-1.20526,-0.377645,-0.156231,378.878,0.0901772,
2,0,0,1,0,4912.03,0.0880486,0.0878061,-63.2009,4,0.0119146,10,-0.00554943,-1.19928,-0.425203,-0.138757,341.137,0.0878061,
2,0,0,1,0,4912.04,0.0856404,0.0853778,-63.9848,4,0.0116601,10,-0.00546288,-1.19392,-0.48872,-0.120723,300.452,0.08537779,
2,0,0,1,0,4912.04,0.0832433,0.0829897,-64.6531,4,0.0114028,10,-0.00536555,-1.18941,-0.569043,-0.103683,260.792,0.0829897,
2,0,0,1,0,4912.04,0.0808462,0.0805582,-65.2263,4,0.011143,10,-0.00525452,-1.18558,-0.692365,-0.0852152,216.228,0.08055824,
2,0,0,1,0,4912.05,0.0784408,0.0781638,-65.7156,4,0.010881,10,-0.00513658,-1.18233,-0.904593,-0.0652227,166.611,0.07816384,
2,0,0,1,0,4912.05,0.0760437,0.0757716,-66.0619,4,0.0106174,10,-0.00500561,-1.18005,-1.28498,-0.0459152,117.895,0.0757716,
2,0,0,1,0,4912.06,0.0736466,0.0733252,-66.2634,4,0.0103527,10,-0.00485877,-1.17873,-2.37082,-0.0248859,64.1225,0.0733252,
2,0,0,1,0,4912.06,0.0712495,0.0709287,-66.3616,4,0.0100874,10,-0.00470694,-1.17808,-11.8564,-0.00497621,12.8416,0.0709287,
2,0,0,1,0,4912.06,0.0688413,0.068565,-66.3311,4,0.00982197,10,-0.00454799,-1.17828,4.10475,0.0143736,-37.0712,0.068565,
2,0,0,1,0,4912.07,0.0664442,0.0661463,-66.1855,4,0.00955692,10,-0.00437792,-1.17924,1.70113,0.0346827,-89.2428,0.0661463,
2,0,0,1,0,4912.07,0.0640471,0.0637497,-65.9084,4,0.00929273,10,-0.00420164,-1.18106,1.08716,0.0542698,-139.065,0.0637497,
2,0,0,1,0,4912.08,0.0616389,0.0613203,-65.5041,4,0.00902993,10,-0.00401674,-1.18373,0.802702,0.0735017,-187.269,0.0613203,
2,0,0,1,0,4912.08,0.0592417,0.0589376,-64.9922,4,0.00876896,10,-0.00383049,-1.18714,0.649343,0.0908611,-229.79,0.0589376,
2,0,0,1,0,4912.08,0.0568446,0.0565591,-64.3901,4,0.00851025,10,-0.00364185,-1.19118,0.565706,0.104294,-261.483,0.0565591,
2,0,0,1,0,4912.09,0.0544475,0.0541764,-63.7085,4,0.0082541,10,-0.0034515,-1.1958,0.500076,0.117982,-292.736,0.0541764,
2,0,0,1,0,4912.09,0.0520421,0.051729,-62.9962,4,0.00800072,10,-0.00325873,-1.20069,0.457459,0.128973,-316.407,0.051729,
2,0,0,1,0,4912.1,0.049645,0.0493356,-62.1814,4,0.00775041,10,-0.00306776,-1.20634,0.431929,0.136596,-331.077,0.0493356,
2,0,0,1,0,4912.1,0.0472479,0.0469709,-61.3564,4,0.00750343,10,-0.00288197,-1.21214,0.40724,0.144878,-346.679,0.0469709,
2,0,0,1,0,4912.1,0.0448397,0.0445712,-60.5285,4,0.00725977,10,-0.00269783,-1.21804,0.398822,0.147936,-349.196,0.0445712,
2,0,0,1,0,4912.11,0.0424426,0.0421132,-59.6626,4,0.00701949,10,-0.00251258,-1.2243,0.388976,0.15168,-353.017,0.0421132,
2,0,0,1,0,4912.11,0.0400455,0.0396976,-58.8158,4,0.00678264,10,-0.00233485,-1.23051,0.378916,0.155707,-357.27,0.0396976,
2,0,0,1,0,4912.12,0.0376456,0.0373117,-57.9465,4,0.0065492,10,-0.00216208,-1.23697,0.371838,0.158671,-358.711,0.0373117,
2,0,0,1,0,4912.12,0.035243,0.034948,-57.0904,4,0.0063192,10,-0.0019952,-1.24344,0.362292,0.162852,-362.706,0.03494804,
2,0,0,1,0,4912.12,0.0328459,0.0325324,-56.2259,4,0.00609267,10,-0.00182916,-1.25006,0.362134,0.162923,-357.417,0.0325324,
2,0,0,1,0,4912.13,0.0304488,0.0301603,-55.3566,4,0.00586956,10,-0.00166957,-1.25683,0.350332,0.168412,-363.675,0.0301603,
2,0,0,1,0,4912.13,0.0280406,0.0277033,-54.5123,4,0.00564993,10,-0.00151017,-1.26351,0.340627,0.17321,-368.006,0.0277033,
2,0,0,1,0,4912.14,0.0256435,0.0253789,-53.6103,4,0.00543377,10,-0.00136057,-1.27075,0.330955,0.178272,-372.537,0.0253789,
2,0,0,1,0,4912.14,0.0232463,0.0229305,-52.6923,4,0.00522125,10,-0.00120826,-1.27825,0.316071,0.186667,-383.534,0.0229305,
2,0,0,1,0,4912.14,0.0208437,0.0205445,-51.7743,4,0.00501242,10,-0.00106368,-1.28589,0.304212,0.193944,-391.343,0.0205445,
2,0,0,1,0,4912.15,0.018441,0.0180886,-50.8247,4,0.00480729,10,-0.00091935,-1.29392,0.290453,0.203131,-402.244,0.0180886,
2,0,0,1,0,4912.15,0.0160439,0.0157494,-49.8419,4,0.00460608,10,-0.000784979,-1.30241,0.278446,0.211891,-411.602,0.0157494,
2,0,0,1,0,4912.16,0.0136468,0.0133444,-48.8363,4,0.00440882,10,-0.00065169,-1.31126,0.265397,0.222309,-423.188,0.0133444,
2,0,0,1,0,4912.16,0.0112414,0.010951,-47.8256,4,0.0042156,10,-0.00052374,-1.32034,0.258056,0.228633,-426.243,0.010951,
2,0,0,1,0,4912.16,0.00884431,0.00854179,-46.7846,4,0.00402649,10,-0.000399625,-1.3299,0.251787,0.234325,-427.576,0.00854179,
2,0,0,1,0,4912.17,0.0064472,0.00616436,-45.7563,4,0.00384151,10,-0.000282059,-1.33955,0.253887,0.232387,-415.255,0.00616436,
2,0,0,1,0,4912.17,0.00404455,0.00375088,-44.7344,4,0.00366065,10,-0.000167793,-1.34936,0.253378,0.232854,-406.996,0.00375088,
2,0,0,1,0,4912.18,0.0016419,0.00127271,-43.8067,4,0.00348373,10,-5.57531e-05,-1.35846,0.252639,0.233534,-399.275,0.001272709,
2,0,0,1,0,4912.18,-0.000755207,-0.0011376,-42.8452,4,0.00331053,10,4.87404e-05,-1.3681,0.261582,0.22555,-377.456,-0.0011376,
2,0,0,1,0,4912.18,-0.00315231,-0.00345246,-41.9166,4,0.00314115,10,0.000144715,-1.37761,0.262442,0.224811,-368.691,-0.00345246,
2,0,0,1,0,4912.19,-0.00555774,-0.00593488,-41.0784,4,0.00297522,10,0.000243795,-1.38639,0.277613,0.212526,-341.581,-0.00593488,
2,0,0,1,0,4912.19,-0.00795485,-0.00827307,-40.2872,4,0.00281259,10,0.000333299,-1.39483,0.300842,0.196116,-309.301,-0.00827307,
2,0,0,1,0,4912.2,-0.010352,-0.0107417,-39.5646,4,0.00265296,10,0.000424991,-1.40269,0.323882,0.182165,-282.33,-0.0107417,
2,0,0,1,0,4912.2,-0.0127546,-0.0130672,-38.9427,4,0.00249603,10,0.000508872,-1.40957,0.359293,0.164211,-250.402,-0.0130672,
2,0,0,1,0,4912.2,-0.0151573,-0.0155019,-38.3774,4,0.00234147,10,0.000594921,-1.41592,0.402889,0.146442,-220.061,-0.0155019,
2,0,0,1,0,4912.21,-0.0175544,-0.0178761,-37.8826,4,0.00218903,10,0.000677194,-1.42156,0.457504,0.128961,-191.309,-0.0178761,
2,0,0,1,0,4912.21,-0.0199515,-0.0202885,-37.4637,4,0.00203842,10,0.000760084,-1.42639,0.52421,0.11255,-165.066,-0.0202885,
2,0,0,1,0,4912.22,-0.0223597,-0.0227243,-37.0952,4,0.00188935,10,0.000842964,-1.43068,0.610966,0.0965683,-140.209,-0.0227243,
2,0,0,1,0,4912.22,-0.0247568,-0.025106,-36.7921,4,0.00174162,10,0.000923701,-1.43425,0.741005,0.0796216,-114.697,-0.025106,
2,0,0,1,0,4912.22,-0.0271539,-0.027511,-36.5317,4,0.001595,10,0.00100502,-1.43733,0.907461,0.0650165,-92.99,-0.027511,
2,0,0,1,0,4912.23,-0.0295593,-0.0298767,-36.364,4,0.00144926,10,0.00108644,-1.43933,1.11222,0.0530471,-75.4201,-0.0298767,
2,0,0,1,0,4912.23,-0.0319564,-0.0323072,-36.2041,4,0.00130415,10,0.00116965,-1.44124,1.53367,0.0384699,-54.4547,-0.0323072,
2,0,0,1,0,4912.24,-0.0343535,-0.0346687,-36.0708,4,0.00115963,10,0.00125053,-1.44284,2.10013,0.0280935,-39.6593,-0.0346687,
2,0,0,1,0,4912.24,-0.0367506,-0.0370886,-36.0101,4,0.0010155,10,0.00133556,-1.44358,3.37711,0.0174705,-24.6043,-0.0370886,
2,0,0,1,0,4912.24,-0.0391588,-0.0395286,-35.9812,4,0.000871539,10,0.00142228,-1.44392,9.0518,0.00651804,-9.1644,-0.0395286,
2,0,0,1,0,4912.25,-0.0415559,-0.0418848,-35.9685,4,0.000727666,10,0.00150653,-1.44408,-318.1,-0.000185476,0.260671,-0.0418848,
2,0,0,1,0,4912.25,-0.043953,-0.0443195,-35.9824,4,0.000583786,10,0.00159472,-1.44391,-8.39361,-0.00702916,9.88351,-0.0443195,
2,0,0,1,0,4912.26,-0.0463585,-0.046698,-36.0126,4,0.000439789,10,0.00168172,-1.44354,-4.26103,-0.0138464,19.4872,-0.046698,
2,0,0,1,0,4912.26,-0.0487556,-0.0490744,-36.0755,4,0.000295618,10,0.00177038,-1.44279,-2.88456,-0.0204537,28.833,-0.0490744,
2,0,0,1,0,4912.26,-0.0511527,-0.0514751,-36.1554,4,0.000151143,10,0.0018611,-1.44183,-2.12579,-0.0277544,39.2113,-0.0514751,
2,0,0,1,0,4912.27,-0.0535498,-0.0539066,-36.2588,4,6.2996e-06,10,0.00195459,-1.44059,-1.86502,-0.031635,44.8047,-0.0539066,
2,0,0,1,0,4912.27,-0.055958,-0.0562989,-36.3891,4,-0.000139021,10,0.00204867,-1.43903,-1.67832,-0.0351541,49.9314,-0.0562989,
2,0,0,1,0,4912.28,-0.0583551,-0.0586848,-36.5061,4,-0.00028482,10,0.00214235,-1.43763,-1.42774,-0.0413241,58.9317,-0.0586848,
2,0,0,1,0,4912.28,-0.0607522,-0.0610676,-36.6343,4,-0.000431103,10,0.00223717,-1.43611,-1.37513,-0.0429049,61.4246,-0.0610676,
2,0,0,1,0,4912.28,-0.0631604,-0.0635139,-36.825,4,-0.000578037,10,0.0023389,-1.43386,-1.25575,-0.046984,67.5316,-0.0635139,
2,0,0,1,0,4912.29,-0.0655575,-0.0659115,-36.9796,4,-0.000725667,10,0.00243738,-1.43204,-1.18181,-0.0499235,72.0509,-0.0659115,
2,0,0,1,0,4912.29,-0.0679546,-0.0682847,-37.1544,4,-0.000873944,10,0.00253708,-1.42999,-1.1785,-0.0500636,72.626,-0.0682847,
2,0,0,1,0,4912.3,-0.0703573,-0.0707014,-37.3285,4,-0.00102293,10,0.00263917,-1.42796,-1.11345,-0.0529883,77.2363,-0.0707014,
2,0,0,1,0,4912.3,-0.0727571,-0.0730777,-37.5196,4,-0.00117265,10,0.00274185,-1.42574,-1.0665,-0.055321,81.0519,-0.0730777,
2,0,0,1,0,4912.3,-0.0751542,-0.075506,-37.7206,4,-0.00132313,10,0.00284813,-1.42342,-0.995651,-0.0592577,87.2936,-0.075506,
2,0,0,1,0,4912.31,-0.0775514,-0.0778644,-37.9309,4,-0.00147447,10,0.00295346,-1.42101,-0.980823,-0.0601536,89.0814,-0.0778644,
2,0,0,1,0,4912.31,-0.0799595,-0.0803097,-38.1672,4,-0.00162666,10,0.0030652,-1.41831,-0.970606,-0.0607868,90.5113,-0.0803097,
2,0,0,1,0,4912.32,-0.0823567,-0.0826797,-38.3749,4,-0.00177976,10,0.00317283,-1.41595,-0.931337,-0.0633498,94.9057,-0.0826797,
2,0,0,1,0,4912.32,-0.0847538,-0.0850996,-38.5889,4,-0.00193369,10,0.0032839,-1.41354,-0.91194,-0.0646973,97.5382,-0.0850996,
2,0,0,1,0,4912.32,-0.0871592,-0.0875141,-38.8467,4,-0.00208855,10,0.00339963,-1.41065,-0.886773,-0.0665334,100.893,-0.08751411,
2,0,0,1,0,4912.33,-0.0895563,-0.0898385,-39.0966,4,-0.00224448,10,0.00351238,-1.40786,-0.866214,-0.0681125,103.897,-0.08983852,
2,0,0,1,0,4912.33,-0.0919534,-0.0922552,-39.341,4,-0.00240138,10,0.00362941,-1.40515,-0.85074,-0.0693514,106.514,-0.0922552,
2,0,0,1,0,4912.34,-0.0943505,-0.0946931,-39.5857,4,-0.00255927,10,0.00374849,-1.40246,-0.842717,-0.0700116,108.245,-0.0946931,
2,0,0,1,0,4912.34,-0.0967587,-0.0970779,-39.8653,4,-0.00271821,10,0.00387004,-1.3994,-0.807687,-0.0730481,113.449,-0.0970779,
2,0,0,1,0,4912.34,-0.0991558,-0.0994808,-40.1404,4,-0.00287822,10,0.00399319,-1.39642,-1.1099,-0.0531578,82.6119,-0.0994808,
2,0,0,0,0,4912.34,-0.0999548,-0.100286,-40.2521,4,-0.00293044,10,0.00403671,-1.39521,0.019055,3.09631,-4441.04,-0.100286,
2,0,0,0,1,4912.35,-0.0999548,-0.1004,-40.0571,4,-0.00295451,10,0.00402174,-1.39732,-0.0205345,-2.87322,3731.68,-0.1004,
2,0,0,1,1,4912.35,-0.0979573,-0.0984427,-33.8045,4,-0.0030669,10,0.0033278,-1.47103,-0.0245592,-2.40235,2800.76,-0.0984427,
2,0,0,1,1,4912.35,-0.0955546,-0.096026,-27.2482,4,-0.00318812,10,0.00261653,-1.56466,-0.0234819,-2.51257,2591.71,-0.096026,
2,0,0,1,1,4912.36,-0.093152,-0.0935733,-21.4524,4,-0.00328474,10,0.00200737,-1.66852,-0.020926,-2.81946,2295.09,-0.0935733,
2,0,0,1,1,4912.36,-0.0907548,-0.0912383,-16.3122,4,-0.00335959,10,0.0014883,-1.78749,-0.0173407,-3.4024,2039.22,-0.09123826,
2,0,0,1,1,4912.36,-0.0883577,-0.0888258,-11.7331,4,-0.00341511,10,0.0010422,-1.93059,-0.0127955,-4.61099,1839.92,-0.0888258,
2,0,0,1,1,4912.37,-0.0859523,-0.086372,-7.56164,4,-0.00345318,10,0.000653114,-2.12138,-0.00608679,-9.69313,1648.15,-0.086372,
2,0,0,1,1,4912.37,-0.0835552,-0.0839936,-3.82647,4,-0.00347547,10,0.000321399,-2.4172,-0.0149396,-3.94922,1498.44,-0.0839936,
2,0,0,1,1,4912.38,-0.0811581,-0.0815992,-0.425502,4,-0.00348353,10,3.47206e-05,-3.3711,-0.0681537,-0.865691,1366.44,-0.0815992,
2,1,0,1,1,4912.38,-0.0787555,-0.0792154,2.66763,4,-0.00347866,10,-0.000211317,-2.57387,0.0296948,1.98688,1239.4,-0.0792154,
2,1,0,1,1,4912.38,-0.0763528,-0.0768294,5.47772,4,-0.00346201,10,-0.00042085,-2.2614,0.00689368,8.55856,1128.36,-0.0768294,
2,1,0,1,1,4912.39,-0.0739557,-0.0744202,8.03877,4,-0.00343466,10,-0.000598247,-2.09481,0.014229,4.14647,1029.07,-0.0744202,
2,1,0,1,1,4912.39,-0.0715586,-0.0720417,10.3588,4,-0.00339757,10,-0.000746264,-1.98469,0.0227379,2.59478,937.438,-0.0720417,
2,1,0,1,1,4912.4,-0.0691532,-0.0696812,12.4789,4,-0.00335164,10,-0.000869544,-1.90382,0.0312972,1.88516,859.035,-0.0696812,
2,1,0,1,1,4912.4,-0.0667561,-0.067237,14.47,4,-0.00329749,10,-0.000972922,-1.83953,0.0404225,1.45958,785.985,-0.067237,
2,1,0,1,1,4912.4,-0.0643589,-0.0648341,16.2735,4,-0.00323575,10,-0.00105508,-1.78852,0.0506228,1.16548,714.375,-0.0648341,
2,1,0,1,1,4912.41,-0.0619563,-0.0624143,17.9258,4,-0.00316716,10,-0.00111882,-1.74652,0.0612381,0.963452,656.182,-0.0624143,
2,1,0,1,1,4912.41,-0.0595536,-0.0599287,19.4459,4,-0.00309222,10,-0.00116536,-1.71117,0.0735344,0.802346,595.592,-0.0599287,
2,1,0,1,1,4912.42,-0.0571565,-0.057565,20.8166,4,-0.00301154,10,-0.00119831,-1.68159,0.0865774,0.681471,543.744,-0.057565,
2,1,0,1,1,4912.42,-0.0547594,-0.0551176,22.0606,4,-0.00292562,10,-0.00121593,-1.65638,0.100688,0.585969,496.964,-0.0551176,
2,1,0,1,1,4912.42,-0.0523512,-0.0527338,23.1895,4,-0.00283495,10,-0.00122287,-1.63471,0.11877,0.496759,443.869,-0.0527338,
2,1,0,1,1,4912.43,-0.0499541,-0.050384,24.1892,4,-0.00274007,10,-0.00121875,-1.61638,0.136155,0.433329,405.077,-0.050384,
2,1,0,1,1,4912.43,-0.047557,-0.0478973,25.1078,4,-0.00264135,10,-0.0012026,-1.60019,0.156883,0.376076,365.579,-0.0478973,
2,1,0,1,1,4912.44,-0.0451544,-0.0455156,25.9502,4,-0.00253913,10,-0.00118114,-1.58586,0.179946,0.327875,329.518,-0.0455156,
2,1,0,1,1,4912.44,-0.0427545,-0.0431043,26.7098,4,-0.00243369,10,-0.00115131,-1.57333,0.203595,0.289791,299.848,-0.0431043,
2,1,0,1,1,4912.44,-0.0403574,-0.0407003,27.3802,4,-0.00232542,10,-0.00111438,-1.56256,0.23326,0.252937,268.71,-0.0407003,
2,1,0,1,1,4912.45,-0.0379603,-0.0383558,27.9688,4,-0.00221465,10,-0.00107277,-1.55333,0.264873,0.222748,242.121,-0.03835576,
2,1,0,1,1,4912.45,-0.0355521,-0.035903,28.5332,4,-0.00210157,10,-0.00102443,-1.54465,0.301402,0.195752,216.976,-0.03590304,
2,1,0,1,1,4912.46,-0.033155,-0.0335383,29.026,4,-0.00198638,10,-0.000973482,-1.53721,0.343596,0.171713,193.638,-0.03353833,
2,1,0,1,1,4912.46,-0.0307579,-0.0311694,29.4482,4,-0.00186939,10,-0.000917881,-1.53094,0.397903,0.148277,169.783,-0.0311694,
2,1,0,1,1,4912.46,-0.0283524,-0.0286848,29.8415,4,-0.00175077,10,-0.000855998,-1.52518,0.462571,0.127548,147.998,-0.0286848,
2,1,0,1,1,4912.47,-0.0259553,-0.0263127,30.1614,4,-0.00163072,10,-0.00079363,-1.52055,0.523515,0.1127,132.3,-0.0263127,
2,1,0,1,1,4912.47,-0.0235582,-0.0239247,30.4488,4,-0.00150945,10,-0.000728477,-1.51643,0.609528,0.0967962,114.788,-0.02392468,
2,1,0,1,1,4912.48,-0.0211611,-0.0215536,30.7203,4,-0.00138706,10,-0.000662134,-1.51257,0.710169,0.0830788,99.3294,-0.0215536,
2,1,0,1,1,4912.48,-0.0187529,-0.0191391,30.9372,4,-0.0012637,10,-0.00059211,-1.50952,0.846446,0.0697032,83.9228,-0.0191391,
2,1,0,1,1,4912.48,-0.0163558,-0.0167192,31.1144,4,-0.00113958,10,-0.000520208,-1.50704,1.02621,0.0574929,69.6815,-0.0167192,
2,1,0,1,1,4912.49,-0.0139587,-0.0143068,31.2559,4,-0.00101482,10,-0.000447172,-1.50507,1.26034,0.0468129,57.0217,-0.0143068,
2,1,0,1,1,4912.49,-0.0115505,-0.0118965,31.3933,4,-0.000889523,10,-0.000373469,-1.50316,1.57679,0.0374178,45.7564,-0.0118965,
2,1,0,1,1,4912.5,-0.0091534,-0.00949997,31.4869,4,-0.000763737,10,-0.000299124,-1.50187,2.05595,0.0286972,35.1937,-0.00949997,
2,1,0,1,1,4912.5,-0.00675629,-0.00711405,31.5539,4,-0.00063763,10,-0.000224476,-1.50095,2.99245,0.0197163,24.245,-0.007114049,
2,1,0,1,1,4912.5,-0.00435919,-0.00473344,31.5928,4,-0.000511334,10,-0.000149543,-1.50041,13.523,0.00436292,5.3655,-0.00473344,
2,1,0,1,1,4912.51,-0.00195376,-0.00234752,31.6248,4,-0.000384866,10,-7.42398e-05,-1.49997, , , ,-0.00234752,
2,1,0,1,1,4912.51,-7.54729e-05,-0.000306236,31.5362,4,-0.000286844,10,-9.65753e-06,-1.50119, , , ,-0.000306236,