File: Figure_codes/Fig_3-5/rawdata_trumpetplot_data/before 10th/20221101_1-115_002_TrumpetPlot_ParaChange_08_CV_C01_3.csv
mode,ox/red,error,control changes,counter inc.,time/s,control/V,Ewe/V,<I>/mA,cycle number,(Q-Qo)/C,I Range,P/W,log(|I|),Tafel slope mV/dec,alpha_eff,dI/d(E-IR),E-IR/V,
2,0,0,0,0,4864.07,2.44065e-05,-0.0002108,-2.36848,4,0.0000000E+000,11,4.99274e-07,-2.62553, , , ,-0.0002108,
2,0,0,1,0,4864.11,0.00129787,0.000947221,0.176336,4,-2.61052e-05,11,1.67029e-07,-3.75366, , , ,0.000947221,
2,1,0,1,0,4864.14,0.00279427,0.00254476,1.17476,4,2.57543e-06,11,2.98948e-06,-2.93005,0.00864229,6.82689,492.103,0.00254476,
2,1,0,1,0,4864.18,0.00429425,0.00397016,1.44468,4,5.28579e-05,11,5.73563e-06,-2.84023,0.0188576,3.12871,151.952,0.00397016,
2,1,0,1,0,4864.22,0.00579422,0.00550125,1.54697,4,0.0001096,11,8.51029e-06,-2.81052,0.0574738,1.02655,60.3637,0.00550125,
2,1,0,1,0,4864.26,0.00729063,0.00700915,1.61094,4,0.000169053,11,1.12913e-05,-2.79292,0.11009,0.535923,33.3976,0.00700915,
2,1,0,1,0,4864.29,0.00878703,0.00850921,1.65628,4,0.000230376,11,1.40936e-05,-2.78087,0.162221,0.363702,23.3045,0.00850921,
2,1,0,1,0,4864.33,0.010287,0.0100091,1.68814,4,0.000293118,11,1.68968e-05,-2.77259,0.228105,0.258652,16.885,0.0100091,
2,1,0,1,0,4864.37,0.011787,0.0114942,1.71,4,0.000356866,11,1.96551e-05,-2.767,0.232259,0.254027,16.8617,0.0114942,
2,1,0,1,0,4864.41,0.0132825,0.012993,1.73266,4,0.000421247,11,2.25125e-05,-2.76129,0.235762,0.250252,16.9073,0.012993,
2,1,0,1,0,4864.44,0.014778,0.0145272,1.75344,4,0.00048655,11,2.54725e-05,-2.75611,0.254757,0.231593,15.8602,0.0145272,
2,1,0,1,0,4864.48,0.0162816,0.0160277,1.77781,4,0.000553247,11,2.84943e-05,-2.75011,0.341495,0.17277,11.9475,0.0160277,
2,1,0,1,0,4864.52,0.017778,0.0175079,1.7901,4,0.000620254,11,3.13409e-05,-2.74712,0.391268,0.150792,10.5783,0.0175079,
2,1,0,1,0,4864.56,0.0192744,0.0190016,1.80461,4,0.000687611,11,3.42905e-05,-2.74362,0.413143,0.142808,10.0761,0.0190016,
2,1,0,1,0,4864.59,0.0207743,0.0205076,1.82792,4,0.000755897,11,3.74863e-05,-2.73804,0.328339,0.179692,12.7559,0.0205076,
2,1,0,1,0,4864.63,0.0222743,0.0220297,1.847,4,0.000824827,11,4.06889e-05,-2.73353,0.376249,0.156811,11.2308,0.0220297,
2,1,0,1,0,4864.67,0.0237707,0.0234907,1.86158,4,0.000894208,11,4.37298e-05,-2.73012,0.414034,0.1425,10.306,0.0234907,
2,1,0,1,0,4864.71,0.0252671,0.0250008,1.86569,4,0.000963994,11,4.66438e-05,-2.72916,0.426029,0.138488,10.1232,0.02500082,
2,1,0,1,0,4864.74,0.0267671,0.0264875,1.887,4,0.00103458,11,4.99819e-05,-2.72423,0.366118,0.16115,11.8632,0.0264875,
2,1,0,1,0,4864.78,0.0282671,0.028003,1.90143,4,0.00110585,11,5.32458e-05,-2.72092,0.369655,0.159608,11.8655,0.028003,
2,1,0,1,0,4864.82,0.0297626,0.0294983,1.91539,4,0.00117752,11,5.65006e-05,-2.71774,0.485851,0.121437,9.10254,0.02949827,
2,1,0,1,0,4864.86,0.0312581,0.0309538,1.92406,4,0.00124972,11,5.95571e-05,-2.71578,0.415812,0.141891,10.719,0.0309538,
2,1,0,1,0,4864.89,0.0327616,0.0324401,1.94717,4,0.00132277,11,6.31665e-05,-2.7106,0.414249,0.142426,10.8378,0.0324401,
2,1,0,1,0,4864.93,0.034258,0.0339928,1.9738,4,0.00139619,11,6.70951e-05,-2.7047,0.353975,0.166678,12.786,0.0339928,
2,1,0,1,0,4864.97,0.0357545,0.0355219,1.98948,4,0.0014703,11,7.06698e-05,-2.70126,0.46338,0.127325,9.83671,0.03552185,
2,1,0,1,0,4865.01,0.0372544,0.0369607,2.00532,4,0.00154535,11,7.41181e-05,-2.69782,0.366978,0.160773,12.5691,0.0369607,
2,1,0,1,0,4865.04,0.0387544,0.0384444,2.01927,4,0.00162087,11,7.76297e-05,-2.69481,0.343289,0.171867,13.6172,0.0384444,
2,1,0,1,0,4865.08,0.0402508,0.0399336,2.04069,4,0.0016971,11,8.14919e-05,-2.69022,0.294701,0.200203,16.0234,0.0399336,
2,1,0,1,0,4865.12,0.0417472,0.0414757,2.06993,4,0.00177428,11,8.5852e-05,-2.68404,0.339588,0.17374,14.0482,0.0414757,
2,1,0,1,0,4865.16,0.0432472,0.0429764,2.09388,4,0.00185254,11,8.99874e-05,-2.67905,0.312012,0.189095,15.4468,0.0429764,
2,1,0,1,0,4865.19,0.0447472,0.0445116,2.11501,4,0.00193148,11,9.41427e-05,-2.67469,0.287746,0.205042,16.9197,0.0445116,
2,1,0,1,0,4865.23,0.0462427,0.0459331,2.1454,4,0.00201123,11,9.85451e-05,-2.66849,0.244488,0.241321,20.119,0.0459331,
2,1,0,1,0,4865.27,0.0477382,0.0474618,2.17104,4,0.00209203,11,0.000103042,-2.66333,0.245963,0.239873,20.3095,0.0474618,
2,1,0,1,0,4865.31,0.0492417,0.0489634,2.20107,4,0.00217439,11,0.000107772,-2.65737,0.250761,0.235284,20.1983,0.0489634,
2,1,0,1,0,4865.34,0.0507381,0.0504732,2.22059,4,0.00225743,11,0.00011208,-2.65353,0.239199,0.246656,21.5155,0.0504732,
2,1,0,1,0,4865.38,0.0522345,0.0519049,2.25913,4,0.00234156,11,0.00011726,-2.64606,0.222388,0.265303,23.5085,0.0519049,
2,1,0,1,0,4865.42,0.0537345,0.0534778,2.30706,4,0.00242737,11,0.000123377,-2.63694,0.20896,0.28235,25.3853,0.0534778,
2,1,0,1,0,4865.45,0.0552345,0.0549723,2.34255,4,0.00251459,11,0.000128776,-2.63031,0.230988,0.255425,23.2708,0.0549723,
2,1,0,1,0,4865.49,0.0567309,0.0564473,2.37235,4,0.00260293,11,0.000133913,-2.62482,0.211596,0.278834,25.8237,0.0564473,
2,1,0,1,0,4865.53,0.0582273,0.0579431,2.4152,4,0.00269248,11,0.000139944,-2.61705,0.198474,0.297269,28.0023,0.0579431,
2,1,0,1,0,4865.57,0.0597309,0.0594226,2.46263,4,0.0027842,11,0.000146336,-2.6086,0.187777,0.314202,30.0937,0.0594226,
2,1,0,1,0,4865.6,0.0612264,0.0609571,2.49759,4,0.00287715,11,0.000152246,-2.60248,0.202232,0.291743,28.4359,0.06095707,
2,1,0,1,0,4865.64,0.0627219,0.0624622,2.54351,4,0.0029717,11,0.000158873,-2.59457,0.196072,0.30091,29.9356,0.0624622,
2,1,0,1,0,4865.68,0.0642218,0.0639438,2.58333,4,0.00306797,11,0.000165188,-2.58782,0.192703,0.306171,31.0133,0.0639438,
2,1,0,1,0,4865.72,0.0657218,0.0654543,2.63799,4,0.00316615,11,0.000172668,-2.57873,0.174284,0.338529,34.8244,0.0654543,
2,1,0,1,0,4865.75,0.0672182,0.0669336,2.69081,4,0.00326598,11,0.000180106,-2.57012,0.193413,0.305046,31.944,0.0669336,
2,1,0,1,0,4865.79,0.0687146,0.0684569,2.74071,4,0.00336757,11,0.00018762,-2.56214,0.214022,0.275672,29.3473,0.0684569,
2,1,0,1,0,4865.83,0.0702146,0.0699515,2.77961,4,0.00347106,11,0.000194438,-2.55602,0.204501,0.288508,31.2792,0.06995149,
2,1,0,1,0,4865.87,0.0717146,0.071427,2.83091,4,0.00357632,11,0.000202204,-2.54807,0.192995,0.305708,33.6779,0.071427,
2,1,0,1,0,4865.9,0.073211,0.072927,2.87757,4,0.00368325,11,0.000209853,-2.54097,0.202199,0.291791,32.7798,0.072927,
2,1,0,1,0,4865.94,0.0747074,0.0744223,2.92552,4,0.00379198,11,0.000217724,-2.5338,0.224867,0.262377,29.9682,0.0744223,
2,1,0,1,0,4865.98,0.0762109,0.0759496,2.96432,4,0.00390304,11,0.000225139,-2.52808,0.212633,0.277474,32.2321,0.0759496,
2,1,0,1,0,4866.02,0.0777064,0.0774022,3.01627,4,0.00401517,11,0.000233466,-2.52053,0.209735,0.281308,33.1797,0.0774022,
2,1,0,1,0,4866.05,0.079202,0.0788981,3.07428,4,0.00412923,11,0.000242555,-2.51226,0.223253,0.264275,31.6141,0.0788981,
2,1,0,1,0,4866.09,0.0807019,0.0804385,3.12069,4,0.00424551,11,0.000251023,-2.50575,0.25434,0.231973,28.1119,0.0804385,
2,1,0,1,0,4866.13,0.0822019,0.0819076,3.16012,4,0.00436337,11,0.000258838,-2.5003,0.260311,0.226652,27.9065,0.0819076,
2,1,0,1,0,4866.17,0.0836983,0.083421,3.1997,4,0.00448233,11,0.000266922,-2.49489,0.246269,0.239576,29.9559,0.083421,
2,1,0,1,0,4866.2,0.0851947,0.0848931,3.2432,4,0.00460307,11,0.000275326,-2.48903,0.241169,0.244642,31.0206,0.0848931,
2,1,0,1,0,4866.24,0.0866947,0.0864011,3.28926,4,0.00472589,11,0.000284195,-2.4829,0.279845,0.210831,27.0908,0.0864011,
2,1,0,1,0,4866.28,0.0881947,0.0879448,3.3334,4,0.00485038,11,0.000293156,-2.47711,0.290075,0.203396,26.4679,0.0879448,
2,1,0,1,0,4866.32,0.0896911,0.0894057,3.37275,4,0.00497586,11,0.000301543,-2.47202,0.283382,0.208199,27.4334,0.0894057,
2,1,0,1,0,4866.35,0.0911875,0.0908875,3.41838,4,0.00510294,11,0.000310688,-2.46618,0.262696,0.224594,29.8888,0.0908875,
2,1,0,1,0,4866.39,0.0926901,0.0924305,3.46541,4,0.00523248,11,0.000320309,-2.46025,0.285996,0.206297,27.7837,0.0924305,
2,1,0,1,0,4866.43,0.0941856,0.0938951,3.49858,4,0.00536277,11,0.0003285,-2.45611,0.322531,0.182928,24.9576,0.0938951,
2,1,0,1,0,4866.47,0.0956821,0.0954071,3.53128,4,0.00549437,11,0.000336909,-2.45207,0.282702,0.2087,28.8562,0.0954071,
2,1,0,1,0,4866.5,0.097182,0.0968988,3.58006,4,0.00562795,11,0.000346903,-2.44611,0.253114,0.233097,32.6157,0.0968988,
2,1,0,1,0,4866.54,0.098682,0.0983982,3.62445,4,0.00576341,11,0.00035664,-2.44076,0.267962,0.220181,31.1986,0.0983982,
2,1,0,1,0,4866.58,0.100178,0.099901,3.67536,4,0.00590028,11,0.000367172,-2.4347,0.28663,0.20584,29.5473,0.099901,
2,1,0,1,0,4866.62,0.101675,0.101382,3.71612,4,0.00603877,11,0.000376748,-2.42991,0.273966,0.215355,31.3083,0.101382,
2,1,0,1,0,4866.65,0.103175,0.102895,3.77779,4,0.00617938,11,0.000388715,-2.42276,0.233656,0.252508,37.2199,0.102895,
2,1,0,1,0,4866.69,0.104675,0.104397,3.83959,4,0.00632212,11,0.000400841,-2.41572,0.218443,0.270094,40.3855,0.104397,
2,1,0,1,0,4866.73,0.106171,0.105905,3.89751,4,0.00646685,11,0.000412766,-2.40921,0.225668,0.261446,39.6565,0.1059048,
2,1,0,1,0,4866.77,0.107667,0.107383,3.9524,4,0.0066138,11,0.000424422,-2.40314,0.214965,0.274464,42.424,0.107383,
2,1,0,1,0,4866.8,0.10917,0.108901,4.01463,4,0.00676374,11,0.000437199,-2.39635,0.18636,0.316591,49.82,0.108901,
2,1,0,1,0,4866.84,0.110666,0.110345,4.0937,4,0.00691575,11,0.00045172,-2.38788,0.171147,0.344732,55.2345,0.110345,
2,1,0,1,0,4866.88,0.112162,0.111849,4.18242,4,0.00707082,11,0.000467798,-2.37857,0.173952,0.339174,55.4202,0.111849,
2,1,0,1,0,4866.92,0.113662,0.113404,4.27053,4,0.00722953,11,0.000484296,-2.36952,0.167744,0.351727,58.6277,0.1134041,
2,1,0,1,0,4866.95,0.115162,0.114881,4.36022,4,0.00739139,11,0.000500905,-2.36049,0.15927,0.37044,63.1049,0.114881,
2,1,0,1,0,4866.99,0.116658,0.116361,4.46495,4,0.0075565,11,0.000519544,-2.35018,0.14328,0.41178,71.6912,0.116361,
2,1,0,1,0,4867.03,0.118155,0.117858,4.57415,4,0.00772566,11,0.000539099,-2.33969,0.140248,0.420683,75.0632,0.117858,
2,1,0,1,0,4867.07,0.119655,0.119349,4.68481,4,0.00789943,11,0.000559128,-2.32931,0.147839,0.399082,73.0059,0.119349,
2,1,0,1,0,4867.1,0.121155,0.120888,4.79033,4,0.00807729,11,0.000579094,-2.31963,0.144436,0.408485,76.5568,0.120888,
2,1,0,1,0,4867.14,0.122651,0.122399,4.91043,4,0.00825898,11,0.000601033,-2.30888,0.137943,0.427713,82.0972,0.122399,
2,1,0,1,0,4867.18,0.124147,0.123868,5.03883,4,0.00844527,11,0.000624149,-2.29767,0.138503,0.425983,83.7518,0.123868,
2,1,0,1,0,4867.22,0.12565,0.12535,5.16133,4,0.00863725,11,0.000646973,-2.28724,0.149031,0.395891,79.6221,0.12535,
2,1,0,1,0,4867.25,0.127146,0.126843,5.27945,4,0.00883278,11,0.000669661,-2.27741,0.148395,0.397587,81.8896,0.126843,
2,1,0,1,0,4867.29,0.128642,0.12837,5.40933,4,0.00903272,11,0.000694395,-2.26686,0.150206,0.392795,82.8474,0.12837,
2,1,0,1,0,4867.33,0.130142,0.129878,5.52982,4,0.00923795,11,0.000718203,-2.25729,0.155246,0.380043,81.9361,0.1298783,
2,1,0,1,0,4867.37,0.131642,0.131371,5.64985,4,0.00944791,11,0.000742229,-2.24796,0.172172,0.342681,75.4341,0.131371,
2,1,0,1,0,4867.4,0.133139,0.132853,5.76183,4,0.00966169,11,0.000765479,-2.23944,0.187008,0.315495,70.961,0.132853,
2,1,0,1,0,4867.44,0.134635,0.134393,5.86557,4,0.00987929,11,0.000788289,-2.23169,0.193922,0.304247,69.7551,0.1343926,
2,1,0,1,0,4867.48,0.136135,0.135862,5.97518,4,0.0101015,11,0.000811799,-2.22365,0.198063,0.297885,69.3675,0.135862,
2,1,0,1,0,4867.51,0.137635,0.137419,6.07958,4,0.0103277,11,0.000835451,-2.21613,0.223337,0.264174,62.4785,0.137419,
2,1,0,1,0,4867.55,0.13913,0.138879,6.1706,4,0.0105568,11,0.000856966,-2.20967,0.256308,0.230192,55.2203,0.138879,
2,1,0,1,0,4867.59,0.140626,0.140379,6.23613,4,0.0107888,11,0.000875421,-2.20508,0.296812,0.198779,48.2975,0.140379,
2,1,0,1,0,4867.63,0.14213,0.14181,6.30705,4,0.0110248,11,0.000894405,-2.20017,0.330184,0.178688,43.8778,0.14181,
2,1,0,1,0,4867.66,0.143626,0.143353,6.3615,4,0.011262,11,0.000911937,-2.19644,0.439073,0.134374,33.3201,0.143353,
2,1,0,1,0,4867.7,0.145122,0.144884,6.40013,4,0.0115011,11,0.000927279,-2.19381,0.840292,0.0702137,17.5144,0.144884,
2,1,0,1,0,4867.74,0.146622,0.146329,6.41698,4,0.0117419,11,0.000938991,-2.19267,1.8674,0.0315948,7.90951,0.146329,
2,1,0,1,0,4867.78,0.148122,0.147858,6.43117,4,0.0119831,11,0.000950901,-2.19171,-3.26903,-0.0180481,-4.51685,0.147858,
2,1,0,1,0,4867.81,0.149619,0.149304,6.42053,4,0.0122236,11,0.000958612,-2.19243,-0.80145,-0.0736166,-18.3611,0.149304,
2,1,0,1,0,4867.85,0.151115,0.150844,6.38142,4,0.012463,11,0.000962597,-2.19508,-0.37082,-0.159107,-39.3736,0.150844,
2,1,0,1,0,4867.89,0.152615,0.152385,6.30633,4,0.0127011,11,0.000960991,-2.20022,-0.263528,-0.223885,-54.8604,0.1523851,
2,1,0,1,0,4867.93,0.154115,0.153817,6.21061,4,0.0129358,11,0.000955295,-2.20687,-0.197418,-0.298858,-72.2078,0.153817,
2,1,0,1,0,4867.96,0.155611,0.15536,6.08577,4,0.0131661,11,0.000945485,-2.21568,-0.154941,-0.38079,-90.124,0.15536,
2,1,0,1,0,4868,0.157106,0.156814,5.93511,4,0.0133913,11,0.000930709,-2.22657,-0.119762,-0.492644,-113.619,0.156814,
2,1,0,1,0,4868.04,0.15861,0.158318,5.75445,4,0.0136115,11,0.000911031,-2.24,-0.100605,-0.586449,-131.167,0.158318,
2,1,0,1,0,4868.08,0.160106,0.159838,5.5423,4,0.0138228,11,0.000885872,-2.25631,-0.0884409,-0.667112,-143.934,0.159838,
2,1,0,1,0,4868.11,0.161602,0.161329,5.32558,4,0.0140262,11,0.000859168,-2.27363,-0.0790858,-0.746025,-154.213,0.1613286,
2,1,0,1,0,4868.15,0.163102,0.162844,5.0866,4,0.0142214,11,0.000828323,-2.29357,-0.0726601,-0.812,-160.573,0.162844,
2,1,0,1,0,4868.19,0.164602,0.164292,4.83869,4,0.0144075,11,0.000794957,-2.31527,-0.0666414,-0.885336,-166.724,0.164292,
2,1,0,1,0,4868.23,0.166099,0.165831,4.58553,4,0.0145839,11,0.000760424,-2.33861,-0.0667966,-0.883278,-158.324,0.165831,
2,1,0,1,0,4868.26,0.167595,0.16732,4.3501,4,0.0147511,11,0.00072786,-2.3615,-0.0674313,-0.874964,-149.016,0.16732,
2,1,0,1,0,4868.3,0.169095,0.168833,4.13762,4,0.0149105,11,0.000698567,-2.38325,-0.067608,-0.872678,-141.291,0.168833,
2,1,0,1,0,4868.34,0.170595,0.170343,3.93124,4,0.0150619,11,0.00066966,-2.40547,-0.0683144,-0.863654,-132.888,0.170343,
2,1,0,1,0,4868.38,0.172091,0.171864,3.73716,4,0.0152055,11,0.000642285,-2.42746,-0.0727772,-0.810693,-118.76,0.171864,
2,1,0,1,0,4868.41,0.173586,0.173297,3.57476,4,0.0153424,11,0.000619495,-2.44675,-0.0779857,-0.756549,-105.865,0.173297,
2,1,0,1,0,4868.45,0.17509,0.174778,3.43053,4,0.015474,11,0.000599582,-2.46464,-0.083495,-0.706629,-94.6147,0.174778,
2,1,0,1,0,4868.49,0.176586,0.176326,3.295,4,0.0155998,11,0.000580993,-2.48215,-0.0853821,-0.691011,-88.8583,0.176326,
2,1,0,1,0,4868.53,0.178083,0.177796,3.16348,4,0.0157208,11,0.000562455,-2.49983,-0.095483,-0.617911,-76.6663,0.177796,
2,1,0,1,0,4868.56,0.179582,0.179351,3.05542,4,0.0158376,11,0.000547994,-2.51493,-0.100749,-0.585616,-70.2133,0.1793513,
2,1,0,1,0,4868.6,0.181082,0.18081,2.95499,4,0.0159506,11,0.00053429,-2.52944,-0.107736,-0.547633,-63.4739,0.18081,
2,1,0,1,0,4868.64,0.182579,0.182301,2.86776,4,0.0160597,11,0.000522797,-2.54246,-0.107737,-0.54763,-61.3314,0.182301,
2,1,0,1,0,4868.68,0.184075,0.183824,2.7855,4,0.0161655,11,0.000512043,-2.5551,-0.11525,-0.511932,-55.6398,0.183824,
2,1,0,1,0,4868.71,0.185579,0.185303,2.70874,4,0.0162687,11,0.000501938,-2.56723,-0.128331,-0.45975,-48.5573,0.185303,
2,1,0,1,0,4868.75,0.187074,0.186783,2.63752,4,0.0163686,11,0.000492645,-2.5788,-0.138615,-0.425638,-43.7135,0.186783,
2,1,0,1,0,4868.79,0.18857,0.188274,2.57222,4,0.0164661,11,0.000484283,-2.58969,-0.142082,-0.415254,-41.6561,0.188274,
2,1,0,1,0,4868.83,0.19007,0.189804,2.50414,4,0.0165614,11,0.000475296,-2.60134,-0.148746,-0.396649,-38.9035,0.189804,
2,1,0,1,0,4868.86,0.19157,0.191262,2.44206,4,0.0166544,11,0.000467074,-2.61224,-0.163447,-0.360974,-34.6767,0.191262,
2,1,0,1,0,4868.9,0.193066,0.1928,2.39632,4,0.0167453,11,0.000462012,-2.62045,-0.1918,-0.307613,-28.8717,0.1928,
2,1,0,1,0,4868.94,0.194563,0.194318,2.36023,4,0.0168345,11,0.000458634,-2.62705,-0.185306,-0.318392,-29.2991,0.194318,
2,1,0,1,0,4868.98,0.196063,0.195799,2.31735,4,0.0169223,11,0.000453736,-2.63501,-0.176871,-0.333577,-30.108,0.195799,
2,1,0,1,0,4869.01,0.197563,0.197285,2.26955,4,0.0170084,11,0.000447748,-2.64406,-0.197838,-0.298224,-26.4607,0.197285,
2,1,0,1,0,4869.05,0.199059,0.198757,2.24225,4,0.0170928,11,0.000445661,-2.64932,-0.223252,-0.264275,-23.0559,0.198757,
2,1,0,1,0,4869.09,0.200555,0.200294,2.21067,4,0.017176,11,0.000442784,-2.65548,-0.250849,-0.235201,-20.2274,0.200294,
2,1,0,1,0,4869.13,0.202059,0.20179,2.17616,4,0.0172586,11,0.000439127,-2.66231,-0.241448,-0.244359,-20.7403,0.20179,
2,1,0,1,0,4869.16,0.203554,0.203285,2.1406,4,0.0173396,11,0.000435152,-2.66946,-0.271433,-0.217365,-18.268,0.203285,
2,1,0,1,0,4869.2,0.20505,0.204782,2.11577,4,0.0174194,11,0.000433272,-2.67453,-0.361685,-0.163126,-13.5864,0.2047822,
2,1,0,1,0,4869.24,0.20655,0.206253,2.09533,4,0.0174986,11,0.000432168,-2.67875,-0.342654,-0.172185,-14.1073,0.206253,
2,1,0,1,0,4869.28,0.20805,0.207816,2.08101,4,0.0175773,11,0.000432468,-2.68173,-0.326752,-0.180565,-14.6053,0.207816,
2,1,0,1,0,4869.31,0.209546,0.20927,2.06093,4,0.0176548,11,0.000431291,-2.68594,-0.295288,-0.199805,-16.0284,0.20927,
2,1,0,1,0,4869.35,0.211043,0.21083,2.03823,4,0.0177314,11,0.000429719,-2.69075,-0.349378,-0.168871,-13.4043,0.21083,
2,1,0,1,0,4869.39,0.212543,0.212279,2.01844,4,0.0178075,11,0.000428472,-2.69498,-0.457039,-0.129092,-10.1648,0.212279,
2,1,0,1,0,4869.43,0.214043,0.213746,2.00242,4,0.0178831,11,0.00042801,-2.69844,-0.482135,-0.122372,-9.58137,0.2137461,
2,1,0,1,0,4869.46,0.215539,0.215244,1.98585,4,0.0179579,11,0.000427443,-2.70205,-0.440454,-0.133953,-10.4082,0.215244,
2,1,0,1,0,4869.5,0.217035,0.216718,1.96689,4,0.018032,11,0.000426262,-2.70622,-0.493791,-0.119484,-9.21201,0.216718,
2,1,0,1,0,4869.54,0.218538,0.218304,1.95746,4,0.018106,11,0.000427321,-2.70831,-0.720086,-0.0819346,-6.2587,0.218304,
2,1,0,1,0,4869.57,0.220034,0.219772,1.95156,4,0.0181792,11,0.000428898,-2.70962,-0.564885,-0.104446,-7.91727,0.219772,
2,1,0,1,0,4869.61,0.22153,0.221295,1.93728,4,0.0182521,11,0.00042871,-2.71281,-0.455508,-0.129526,-9.75098,0.221295,
2,1,0,1,0,4869.65,0.22303,0.222771,1.91644,4,0.0183245,11,0.000426928,-2.7175,-0.588975,-0.100174,-7.50936,0.222771,
2,1,0,1,0,4869.69,0.22453,0.224259,1.91282,4,0.0183965,11,0.000428966,-2.71833,-0.56778,-0.103914,-7.75886,0.224259,
2,1,0,1,0,4869.72,0.226026,0.225796,1.89597,4,0.018468,11,0.000428101,-2.72217,-0.619558,-0.0952291,-7.07447,0.225796,
2,1,0,1,0,4869.76,0.227523,0.227302,1.8854,4,0.0185391,11,0.000428554,-2.7246,-0.478908,-0.123197,-9.1031,0.227302,
2,1,0,1,0,4869.8,0.229023,0.228755,1.88331,4,0.01861,11,0.000430817,-2.72508,-0.639163,-0.0923082,-6.79434,0.228755,
2,1,0,1,0,4869.84,0.230523,0.230271,1.87767,4,0.0186805,11,0.000432374,-2.72638,-0.786713,-0.0749956,-5.49008,0.230271,
2,1,0,1,0,4869.87,0.232019,0.23174,1.86957,4,0.0187506,11,0.000433254,-2.72826,-0.982899,-0.0600265,-4.35857,0.23174,
2,1,0,1,0,4869.91,0.233515,0.233271,1.86315,4,0.0188204,11,0.000434619,-2.72975,-0.857946,-0.0687689,-4.9725,0.233271,
2,1,0,1,0,4869.95,0.235018,0.234708,1.8534,4,0.0188903,11,0.000435008,-2.73203,-0.790054,-0.0746784,-5.38942,0.234708,
2,1,0,1,0,4869.99,0.236514,0.236239,1.83879,4,0.0189594,11,0.000434394,-2.73547,-0.912768,-0.0646385,-4.65431,0.236239,
2,1,0,1,0,4870.02,0.23801,0.23772,1.8301,4,0.0190283,11,0.000435051,-2.73753,-1.41396,-0.0417267,-2.99019,0.2377201,
2,1,0,1,0,4870.06,0.23951,0.239253,1.8255,4,0.0190972,11,0.000436756,-2.73862,-1.10861,-0.0532199,-3.80209,0.239253,
2,1,0,1,0,4870.1,0.24101,0.24078,1.821,4,0.0191658,11,0.00043846,-2.73969,-0.75429,-0.0782193,-5.56288,0.24078,
2,1,0,1,0,4870.14,0.242506,0.242284,1.8084,4,0.0192339,11,0.000438145,-2.74271,-0.836894,-0.0704988,-4.98408,0.242284,
2,1,0,1,0,4870.17,0.244003,0.243678,1.80956,4,0.0193018,11,0.000440951,-2.74243,-1.18043,-0.0499817,-3.52213,0.243678,
2,1,0,1,0,4870.21,0.245503,0.245248,1.81135,4,0.0193697,11,0.00044423,-2.742,-1.12644,-0.0523773,-3.6799,0.245248,
2,1,0,1,0,4870.25,0.247003,0.246788,1.79978,4,0.0194374,11,0.000444166,-2.74478,-0.685394,-0.0860818,-6.02711,0.246788,
2,1,0,1,0,4870.29,0.248499,0.248232,1.78337,4,0.0195047,11,0.00044269,-2.74876,-1.14554,-0.0515041,-3.60531,0.248232,
2,1,0,1,0,4870.32,0.249995,0.24969,1.78312,4,0.0195716,11,0.000445227,-2.74882,-1.32959,-0.0443745,-3.09883,0.24969,
2,1,0,1,0,4870.36,0.251498,0.251215,1.77679,4,0.0196388,11,0.000446357,-2.75036,-1.55696,-0.0378944,-2.63516,0.251215,
2,1,0,1,0,4870.4,0.252994,0.252753,1.77226,4,0.0197055,11,0.000447945,-2.75147,-0.804842,-0.0733063,-5.07098,0.252753,
2,1,0,1,0,4870.44,0.25449,0.254224,1.76902,4,0.019772,11,0.000449727,-2.75227,-0.897326,-0.0657509,-4.54079,0.2542243,
2,1,0,1,0,4870.47,0.25599,0.255706,1.76763,4,0.0198383,11,0.000451993,-2.75261,-1.2358,-0.0477422,-3.28281,0.255706,
2,1,0,1,0,4870.51,0.25749,0.257237,1.76414,4,0.0199045,11,0.000453802,-2.75347,-1.75712,-0.0335777,-2.30158,0.257237,
2,1,0,1,0,4870.55,0.258987,0.258736,1.75778,4,0.0199705,11,0.000454801,-2.75504,-1.19467,-0.0493861,-3.38281,0.2587359,
2,1,0,1,0,4870.59,0.260483,0.260221,1.74927,4,0.0200363,11,0.000455197,-2.75714,-0.746736,-0.0790105,-5.41014,0.260221,
2,1,0,1,0,4870.62,0.261983,0.261739,1.73994,4,0.0201019,11,0.00045541,-2.75947,-1.34396,-0.0439002,-2.99838,0.261739,
2,1,0,1,0,4870.66,0.263483,0.263222,1.7376,4,0.0201673,11,0.000457375,-2.76005,-24.957,-0.00236406,-0.160465,0.263222,
2,1,0,1,0,4870.7,0.264978,0.26474,1.73695,4,0.0202325,11,0.00045984,-2.76021,-1.93372,-0.0305111,-2.06758,0.26474,
2,1,0,1,0,4870.74,0.266474,0.266195,1.73291,4,0.0202976,11,0.000461292,-2.76122,-1.39506,-0.0422921,-2.85405,0.266195,
2,1,0,1,0,4870.77,0.267977,0.26768,1.72352,4,0.0203627,11,0.00046135,-2.76358,-1.24054,-0.04756,-3.20029,0.26768,
2,1,0,1,0,4870.81,0.269474,0.269196,1.72277,4,0.0204274,11,0.000463763,-2.76377,-2.09177,-0.0282058,-1.89436,0.269196,
2,1,0,1,0,4870.85,0.27097,0.270702,1.72286,4,0.0204919,11,0.000466381,-2.76375,-1.16461,-0.0506606,-3.39799,0.270702,
2,1,0,1,0,4870.89,0.27247,0.272218,1.7134,4,0.0205565,11,0.000466418,-2.76614,-0.969395,-0.0608627,-4.06691,0.272218,
2,1,0,1,0,4870.92,0.27397,0.273738,1.70203,4,0.0206209,11,0.000465909,-2.76903,-0.998949,-0.0590621,-3.94813,0.273738,
2,1,0,1,0,4870.96,0.275467,0.275185,1.70383,4,0.0206848,11,0.000468868,-2.76857,-1.11997,-0.0526798,-3.51373,0.275185,
2,1,0,1,0,4871,0.276963,0.276698,1.70049,4,0.0207486,11,0.000470523,-2.76943,-1.36344,-0.0432728,-2.8735,0.276698,
2,1,0,1,0,4871.04,0.278463,0.278187,1.7004,4,0.0208125,11,0.000473029,-2.76945,-0.980274,-0.0601872,-3.97012,0.278187,
2,1,0,1,0,4871.07,0.279963,0.27971,1.69824,4,0.0208763,11,0.000475014,-2.77,-1.84705,-0.0319428,-2.1076,0.27971,
2,1,0,1,0,4871.11,0.281459,0.281178,1.69191,4,0.0209396,11,0.000475727,-2.77162,-1.87156,-0.0315246,-2.079,0.281178,
2,1,0,1,0,4871.15,0.282954,0.282681,1.68485,4,0.0210028,11,0.000476276,-2.77344,-22.2517,-0.00265148,-0.174308,0.2826806,
2,1,0,1,0,4871.19,0.284458,0.284236,1.67824,4,0.0210664,11,0.000477016,-2.77515,-1.75448,-0.0336282,-2.2081,0.284236,
2,1,0,1,0,4871.22,0.285954,0.285712,1.67113,4,0.0211294,11,0.000477461,-2.77699,-1.22348,-0.0482232,-3.16347,0.285712,
2,1,0,1,0,4871.26,0.28745,0.287176,1.66917,4,0.0211921,11,0.000479345,-2.7775,-1.18301,-0.0498727,-3.25895,0.287176,
2,1,0,1,0,4871.3,0.28895,0.288678,1.67028,4,0.0212549,11,0.000482173,-2.77721,-3.50123,-0.0168512,-1.09464,0.288678,
2,1,0,1,0,4871.34,0.29045,0.290176,1.67076,4,0.0213176,11,0.000484814,-2.77709,-2.54689,-0.0231655,-1.50525,0.290176,
2,1,0,1,0,4871.37,0.291947,0.291661,1.66617,4,0.02138,11,0.000485957,-2.77828,-0.987573,-0.0597424,-3.86443,0.2916612,
2,1,0,1,0,4871.41,0.293443,0.293156,1.64727,4,0.0214422,11,0.000482909,-2.78323,-1.57263,-0.0375168,-2.42816,0.2931565,
2,1,0,1,0,4871.45,0.294943,0.294672,1.65361,4,0.0215043,11,0.000487273,-2.78157,-3.33379,-0.0176976,-1.14419,0.294672,
2,1,0,1,0,4871.49,0.296443,0.296185,1.65391,4,0.0215665,11,0.000489864,-2.78149,-4.36594,-0.0135137,-0.871708,0.296185,
2,1,0,1,0,4871.52,0.297939,0.29765,1.64384,4,0.0216284,11,0.000489288,-2.78414,-0.834284,-0.0707193,-4.54142,0.29765,
2,1,0,1,0,4871.56,0.299434,0.299144,1.63976,4,0.0216902,11,0.000490524,-2.78522,-0.00775082,-7.6121,-358.195,0.299144,
2,1,0,0,0,4871.57,0.299962,0.299746,1.54949,4,0.0217144,11,0.000464455,-2.80981,0.00103611,56.9436,2540.23,0.299746,
2,0,0,1,0,4871.61,0.298689,0.298418,-0.159477,4,0.0217268,11,-4.75908e-05,-3.7973,0.00612372,9.63467,612.413,0.298418,
2,0,0,1,0,4871.64,0.297189,0.296913,-0.428051,4,0.0217143,11,-0.000127094,-3.3685,-0.00786387,-7.50267,168.721,0.296913,
2,0,0,1,0,4871.68,0.295692,0.295398,-0.501739,4,0.0216966,11,-0.000148213,-3.29952,-0.0236272,-2.49712,45.5806,0.295398,
2,0,0,1,0,4871.72,0.294196,0.293883,-0.550843,4,0.0216767,11,-0.000161883,-3.25897,-0.0406641,-1.45091,30.9048,0.293883,
2,0,0,1,0,4871.76,0.292696,0.292375,-0.587289,4,0.021655,11,-0.000171709,-3.23115,-0.0483465,-1.22036,28.2819,0.292375,
2,0,0,1,0,4871.79,0.291196,0.290884,-0.635597,4,0.0216318,11,-0.000184885,-3.19682,-0.0562807,-1.04832,25.9142,0.290884,
2,0,0,1,0,4871.83,0.2897,0.289364,-0.670417,4,0.0216072,11,-0.000193995,-3.17365,-0.068164,-0.86556,22.4842,0.289364,
2,0,0,1,0,4871.87,0.288205,0.287935,-0.700977,4,0.0215814,11,-0.000201836,-3.1543,-0.080204,-0.735624,19.8491,0.287935,
2,0,0,1,0,4871.91,0.286701,0.286421,-0.724123,4,0.0215544,11,-0.000207404,-3.14019,-0.0930326,-0.634186,17.8809,0.286421,
2,0,0,1,0,4871.94,0.285205,0.284891,-0.754023,4,0.0215267,11,-0.000214814,-3.12262,-0.10598,-0.556707,16.2717,0.284891,
2,0,0,1,0,4871.98,0.283708,0.283439,-0.775822,4,0.0214979,11,-0.000219898,-3.11024,-0.110238,-0.535204,16.1702,0.283439,
2,0,0,1,0,4872.02,0.282208,0.281875,-0.793921,4,0.0214681,11,-0.000223787,-3.10022,-0.13876,-0.425196,13.2138,0.281875,
2,0,0,1,0,4872.06,0.280709,0.280399,-0.813346,4,0.0214376,11,-0.000228061,-3.08972,-0.156916,-0.375997,12.056,0.280399,
2,0,0,1,0,4872.09,0.279212,0.278973,-0.832429,4,0.0214066,11,-0.000232225,-3.07965,-0.161502,-0.365322,11.9986,0.278973,
2,0,0,1,0,4872.13,0.277716,0.277439,-0.85823,4,0.0213747,11,-0.000238106,-3.0664,-0.149349,-0.395048,13.1719,0.277439,
2,0,0,1,0,4872.17,0.276216,0.275944,-0.87873,4,0.0213421,11,-0.00024248,-3.05614,-0.19152,-0.308062,10.4694,0.275944,
2,0,0,1,0,4872.21,0.274716,0.274344,-0.896138,4,0.0213088,11,-0.00024585,-3.04763,-0.185763,-0.317609,10.9804,0.274344,
2,0,0,1,0,4872.24,0.27322,0.272926,-0.908629,4,0.0212751,11,-0.000247989,-3.04161,-0.194191,-0.303824,10.7291,0.2729263,
2,0,0,1,0,4872.28,0.271725,0.271447,-0.922034,4,0.0212407,11,-0.000250283,-3.03525,-0.159098,-0.370841,13.3404,0.271447,
2,0,0,1,0,4872.32,0.270221,0.269921,-0.936239,4,0.0212055,11,-0.00025271,-3.02861,-0.207425,-0.284441,10.4573,0.269921,
2,0,0,1,0,4872.36,0.268725,0.268413,-0.950226,4,0.0211699,11,-0.000255053,-3.02217,-0.273767,-0.215512,8.04872,0.268413,
2,0,0,1,0,4872.39,0.267228,0.266958,-0.957452,4,0.0211338,11,-0.0002556,-3.01888,-0.257487,-0.229138,8.66973,0.2669583,
2,0,0,1,0,4872.43,0.265728,0.265421,-0.982129,4,0.0210972,11,-0.000260677,-3.00783,-0.227815,-0.258982,9.90416,0.2654205,
2,0,0,1,0,4872.47,0.264228,0.263994,-0.998539,4,0.0210599,11,-0.000263609,-3.00063,-0.238917,-0.246947,9.55004,0.263994,
2,0,0,1,0,4872.51,0.262732,0.262419,-1.01409,4,0.0210223,11,-0.000266116,-2.99392,-0.388599,-0.151827,5.94103,0.262419,
2,0,0,1,0,4872.54,0.261236,0.260957,-1.02063,4,0.0209842,11,-0.000266342,-2.99113,-0.258099,-0.228595,9.08989,0.260957,
2,0,0,1,0,4872.58,0.259736,0.259464,-1.03263,4,0.0209456,11,-0.000267931,-2.98605,-0.254859,-0.2315,9.3716,0.259464,
2,0,0,1,0,4872.62,0.258236,0.257928,-1.04431,4,0.0209064,11,-0.000269356,-2.98117,-0.263217,-0.22415,9.17137,0.257928,
2,0,0,1,0,4872.66,0.256741,0.256445,-1.05602,4,0.0208667,11,-0.000270811,-2.97633,-0.339924,-0.173568,7.19452,0.256445,
2,0,0,1,0,4872.69,0.255241,0.254913,-1.06709,4,0.0208266,11,-0.000272014,-2.9718,-0.344324,-0.17135,7.19383,0.254913,
2,0,0,1,0,4872.73,0.253741,0.253439,-1.08223,4,0.0207862,11,-0.000274278,-2.96568,-0.305673,-0.193017,8.14949,0.253439,
2,0,0,1,0,4872.77,0.252245,0.251908,-1.09825,4,0.0207454,11,-0.000276657,-2.9593,-0.259513,-0.227349,9.65835,0.251908,
2,0,0,1,0,4872.81,0.250748,0.250483,-1.10924,4,0.020704,11,-0.000277846,-2.95497,-0.324337,-0.18191,7.83227,0.250483,
2,0,0,1,0,4872.84,0.249248,0.248977,-1.11916,4,0.0206621,11,-0.000278646,-2.95111,-0.36694,-0.160789,6.98862,0.2489773,
2,0,0,1,0,4872.88,0.247748,0.24749,-1.12351,4,0.0206199,11,-0.000278058,-2.94942,-0.341001,-0.17302,7.64534,0.24749,
2,0,0,1,0,4872.92,0.246252,0.245994,-1.13864,4,0.0205774,11,-0.000280099,-2.94361,-0.281219,-0.209801,9.35193,0.245994,
2,0,0,1,0,4872.95,0.244756,0.244461,-1.15213,4,0.0205343,11,-0.000281652,-2.9385,-0.31781,-0.185645,8.36903,0.244461,
2,0,0,1,0,4872.99,0.243252,0.242907,-1.16264,4,0.0204905,11,-0.000282413,-2.93456,-0.426508,-0.138333,6.28369,0.242907,
2,0,0,1,0,4873.03,0.241756,0.241467,-1.16766,4,0.0204467,11,-0.000281951,-2.93268,-0.400773,-0.147216,6.73317,0.241467,
2,0,0,1,0,4873.07,0.240261,0.239943,-1.18883,4,0.0204025,11,-0.000285252,-2.92488,-0.350091,-0.168527,7.78167,0.239943,
2,0,0,1,0,4873.1,0.238761,0.238483,-1.2018,4,0.0203576,11,-0.000286608,-2.92017,-0.331613,-0.177918,8.27238,0.238483,
2,0,0,1,0,4873.14,0.237261,0.236972,-1.21097,4,0.0203123,11,-0.000286966,-2.91687,-0.518958,-0.113689,5.35095,0.2369716,
2,0,0,1,0,4873.18,0.235765,0.235465,-1.21453,4,0.0202668,11,-0.00028598,-2.91559,-0.431354,-0.136779,6.52671,0.235465,
2,0,0,1,0,4873.22,0.234268,0.233987,-1.22421,4,0.0202209,11,-0.000286448,-2.91215,-0.327664,-0.180063,8.69362,0.233987,
2,0,0,1,0,4873.25,0.232768,0.232452,-1.2406,4,0.0201743,11,-0.000288381,-2.90637,-0.380312,-0.155136,7.54857,0.232452,
2,0,0,1,0,4873.29,0.231268,0.230942,-1.25587,4,0.0201272,11,-0.000290033,-2.90106,-0.596713,-0.0988751,4.845,0.230942,
2,0,0,1,0,4873.33,0.229772,0.229452,-1.27085,4,0.0200799,11,-0.000291599,-2.89591,-0.413029,-0.142847,7.05058,0.229452,
2,0,0,1,0,4873.37,0.228275,0.227947,-1.2834,4,0.0200324,11,-0.000292548,-2.89164,-0.372915,-0.158213,7.86206,0.227947,
2,0,0,1,0,4873.4,0.226772,0.226493,-1.29634,4,0.0199839,11,-0.000293611,-2.88728,-0.240636,-0.245183,12.28,0.226493,
2,0,0,1,0,4873.44,0.225276,0.224957,-1.3032,4,0.0199353,11,-0.000293165,-2.88499,-0.331582,-0.177935,9.04019,0.224957,
2,0,0,1,0,4873.48,0.223781,0.223473,-1.31197,4,0.0198861,11,-0.00029319,-2.88208,-0.403389,-0.146261,7.52074,0.223473,
2,0,0,1,0,4873.52,0.222281,0.222012,-1.31494,4,0.0198365,11,-0.000291932,-2.8811,-0.326252,-0.180842,9.38727,0.222012,
2,0,0,1,0,4873.55,0.220781,0.220499,-1.33603,4,0.0197865,11,-0.000294593,-2.87418,-0.31968,-0.184559,9.65441,0.220499,
2,0,0,1,0,4873.59,0.219284,0.218996,-1.3594,4,0.0197359,11,-0.000297703,-2.86665,-0.339851,-0.173605,9.15737,0.218996,
2,0,0,1,0,4873.63,0.217788,0.217451,-1.37172,4,0.0196848,11,-0.000298282,-2.86274,-0.454856,-0.129712,6.89841,0.217451,
2,0,0,1,0,4873.67,0.216288,0.21604,-1.37608,4,0.0196331,11,-0.000297288,-2.86136,-0.322813,-0.182768,9.82153,0.21604,
2,0,0,1,0,4873.7,0.214788,0.214487,-1.39584,4,0.0195811,11,-0.000299389,-2.85517,-0.383836,-0.153711,8.36881,0.214487,
2,0,0,1,0,4873.74,0.213292,0.21299,-1.4099,4,0.0195284,11,-0.000300296,-2.85081,-0.299214,-0.197183,10.8312,0.21299,
2,0,0,1,0,4873.78,0.211796,0.21152,-1.42205,4,0.0194753,11,-0.000300791,-2.84709,-0.389267,-0.151567,8.42375,0.21152,
2,0,0,1,0,4873.82,0.210293,0.20996,-1.43741,4,0.0194213,11,-0.000301799,-2.84242,-0.296558,-0.198949,11.2224,0.20996,
2,0,0,1,0,4873.85,0.208797,0.208484,-1.44982,4,0.0193671,11,-0.000302265,-2.83868,-0.242464,-0.243335,13.8934,0.208484,
2,0,0,1,0,4873.89,0.207301,0.206978,-1.47377,4,0.0193122,11,-0.000305039,-2.83157,-0.264408,-0.22314,12.7919,0.206978,
2,0,0,1,0,4873.93,0.205801,0.205539,-1.49842,4,0.0192562,11,-0.000307984,-2.82437,-0.294001,-0.200679,11.6467,0.205539,
2,0,0,1,0,4873.97,0.204301,0.203971,-1.51318,4,0.0191997,11,-0.000308644,-2.82011,-0.399416,-0.147716,8.70355,0.203971,
2,0,0,1,0,4874,0.202804,0.202513,-1.52555,4,0.0191429,11,-0.000308945,-2.81657,-0.285396,-0.206731,12.3116,0.202513,
2,0,0,1,0,4874.04,0.201308,0.20102,-1.54644,4,0.0190853,11,-0.000310865,-2.81067,-0.230946,-0.255471,15.4059,0.20102,
2,0,0,1,0,4874.08,0.199808,0.199498,-1.56584,4,0.0190267,11,-0.000312381,-2.80525,-0.243627,-0.242173,14.8438,0.199498,
2,0,0,1,0,4874.12,0.198308,0.198014,-1.58518,4,0.0189674,11,-0.000313887,-2.79992,-0.261137,-0.225935,14.0556,0.1980139,
2,0,0,1,0,4874.15,0.196812,0.196542,-1.60487,4,0.0189074,11,-0.000315424,-2.79456,-0.234144,-0.251982,15.8789,0.1965421,
2,0,0,1,0,4874.19,0.195316,0.19503,-1.63803,4,0.0188466,11,-0.000319465,-2.78568,-0.203361,-0.290125,18.5147,0.19503,
2,0,0,1,0,4874.23,0.193813,0.193462,-1.67108,4,0.0187844,11,-0.00032329,-2.777,-0.207545,-0.284276,18.4067,0.193462,
2,0,0,1,0,4874.27,0.192317,0.191984,-1.69227,4,0.0187215,11,-0.000324889,-2.77153,-0.219234,-0.269119,17.6769,0.191984,
2,0,0,1,0,4874.3,0.190821,0.190507,-1.71233,4,0.0186576,11,-0.000326211,-2.76641,-0.204377,-0.288683,19.3595,0.190507,
2,0,0,1,0,4874.34,0.189321,0.189015,-1.74642,4,0.0185926,11,-0.0003301,-2.75785,-0.185902,-0.317371,21.6876,0.189015,
2,0,0,1,0,4874.38,0.187821,0.187548,-1.77572,4,0.0185263,11,-0.000333033,-2.75062,-0.182314,-0.323617,22.5502,0.187548,
2,0,0,1,0,4874.42,0.186324,0.186015,-1.81166,4,0.0184589,11,-0.000336997,-2.74192,-0.182673,-0.322981,22.8788,0.186015,
2,0,0,1,0,4874.45,0.184828,0.184561,-1.84934,4,0.0183902,11,-0.000341317,-2.73298,-0.171391,-0.344242,24.9376,0.184561,
2,0,0,1,0,4874.49,0.183328,0.183029,-1.89167,4,0.01832,11,-0.000346231,-2.72315,-0.158226,-0.372885,27.5603,0.183029,
2,0,0,1,0,4874.53,0.181828,0.18152,-1.94031,4,0.0182481,11,-0.000352205,-2.71213,-0.147367,-0.400362,30.1349,0.18152,
2,0,0,1,0,4874.57,0.180332,0.180026,-1.98824,4,0.0181747,11,-0.000357934,-2.70153,-0.142897,-0.412886,31.8632,0.180026,
2,0,0,1,0,4874.6,0.178836,0.178533,-2.03071,4,0.0180995,11,-0.000362548,-2.69235,-0.14159,-0.416695,33.0475,0.1785329,
2,0,0,1,0,4874.64,0.177333,0.177039,-2.07436,4,0.0180222,11,-0.000367243,-2.68312,-0.127141,-0.464052,37.8188,0.177039,
2,0,0,1,0,4874.68,0.175837,0.175532,-2.1336,4,0.0179432,11,-0.000374516,-2.67089,-0.117992,-0.500035,41.8402,0.175532,
2,0,0,1,0,4874.72,0.174341,0.174041,-2.20021,4,0.0178618,11,-0.000382927,-2.65753,-0.114351,-0.515956,44.443,0.174041,
2,0,0,1,0,4874.75,0.172841,0.172548,-2.26942,4,0.0177778,11,-0.000391582,-2.64409,-0.115914,-0.508999,45.0889,0.172548,
2,0,0,1,0,4874.79,0.171341,0.171041,-2.33534,4,0.0176912,11,-0.000399438,-2.63165,-0.106114,-0.556004,50.8799,0.171041,
2,0,0,1,0,4874.83,0.169844,0.169563,-2.42478,4,0.0176022,11,-0.000411154,-2.61533,-0.0971622,-0.607232,57.4461,0.169563,
2,0,0,1,0,4874.87,0.168348,0.168044,-2.51584,4,0.0175098,11,-0.000422771,-2.59932,-0.0942681,-0.625874,61.2759,0.168044,
2,0,0,1,0,4874.9,0.166848,0.166547,-2.60665,4,0.0174136,11,-0.000434128,-2.58392,-0.0945134,-0.62425,63.5002,0.166547,
2,0,0,1,0,4874.94,0.165348,0.165013,-2.70302,4,0.0173139,11,-0.000446035,-2.56815,-0.0876104,-0.673436,71.3672,0.165013,
2,0,0,1,0,4874.98,0.163852,0.163539,-2.81178,4,0.0172106,11,-0.000459837,-2.55102,-0.0808478,-0.729767,80.6282,0.163539,
2,0,0,1,0,4875.01,0.162357,0.162015,-2.93765,4,0.0171028,11,-0.000475943,-2.532,-0.0761121,-0.775172,89.1907,0.162015,
2,0,0,1,0,4875.05,0.160853,0.160566,-3.07519,4,0.0169895,11,-0.000493772,-2.51213,-0.0784772,-0.75181,90.1656,0.160566,
2,0,0,1,0,4875.09,0.159357,0.159045,-3.22093,4,0.0168717,11,-0.000512274,-2.49202,-0.0767503,-0.768727,96.4985,0.159045,
2,0,0,1,0,4875.13,0.157861,0.157538,-3.37184,4,0.0167485,11,-0.000531192,-2.47213,-0.0738993,-0.798384,105.012,0.157538,
2,0,0,1,0,4875.16,0.156361,0.156057,-3.53531,4,0.0166191,11,-0.00055171,-2.45157,-0.0703044,-0.839208,115.686,0.156057,
2,0,0,1,0,4875.2,0.154861,0.154554,-3.70931,4,0.016483,11,-0.000573288,-2.43071,-0.0714197,-0.826103,119.524,0.154554,
2,0,0,1,0,4875.24,0.153364,0.153065,-3.88409,4,0.0163407,11,-0.000594518,-2.41071,-0.073582,-0.801827,121.897,0.153065,
2,0,0,1,0,4875.28,0.151868,0.15156,-4.06666,4,0.0161917,11,-0.000616342,-2.39076,-0.0742982,-0.794097,126.505,0.15156,
2,0,0,1,0,4875.31,0.150368,0.150053,-4.26709,4,0.0160351,11,-0.000640289,-2.36987,-0.0756375,-0.780036,129.72,0.150053,
2,0,0,1,0,4875.35,0.148868,0.148577,-4.45765,4,0.0158712,11,-0.000662307,-2.35089,-0.0777767,-0.758581,132.023,0.148577,
2,0,0,1,0,4875.39,0.147372,0.14707,-4.66569,4,0.0157005,11,-0.000686184,-2.33108,-0.0808707,-0.72956,132.45,0.14707,
2,0,0,1,0,4875.43,0.145877,0.14559,-4.85553,4,0.0155222,11,-0.000706917,-2.31376,-0.0847728,-0.695978,131.716,0.14559,
2,0,0,1,0,4875.46,0.144373,0.144093,-5.04801,4,0.0153358,11,-0.000727381,-2.29688,-0.0904596,-0.652225,128.473,0.144093,
2,0,0,1,0,4875.5,0.142877,0.142618,-5.24639,4,0.015143,11,-0.000748231,-2.28014,-0.0967438,-0.609858,124.583,0.142618,
2,0,0,1,0,4875.54,0.14138,0.141068,-5.42627,4,0.014943,11,-0.000765472,-2.2655,-0.107363,-0.549539,116.109,0.141068,
2,0,0,1,0,4875.58,0.13988,0.139565,-5.59688,4,0.0147359,11,-0.000781129,-2.25205,-0.120356,-0.490213,106.9,0.139565,
2,0,0,1,0,4875.61,0.13838,0.138062,-5.75132,4,0.014523,11,-0.000794036,-2.24023,-0.13201,-0.446938,100.193,0.138062,
2,0,0,1,0,4875.65,0.136884,0.13658,-5.9015,4,0.014305,11,-0.000806028,-2.22904,-0.144212,-0.409121,93.8974,0.13658,
2,0,0,1,0,4875.69,0.135388,0.135092,-6.0376,4,0.0140816,11,-0.000815631,-2.21914,-0.165866,-0.355708,83.438,0.135092,
2,0,0,1,0,4875.73,0.133888,0.13359,-6.15469,4,0.013853,11,-0.000822208,-2.21079,-0.199505,-0.295732,70.7113,0.13359,
2,0,0,1,0,4875.76,0.132389,0.132127,-6.23826,4,0.0136206,11,-0.00082424,-2.20494,-0.230398,-0.256079,62.2532,0.132127,
2,0,0,1,0,4875.8,0.130893,0.130606,-6.32579,4,0.0133853,11,-0.00082619,-2.19889,-0.270259,-0.218309,53.7884,0.1306065,
2,0,0,1,0,4875.84,0.129393,0.129084,-6.39174,4,0.0131464,11,-0.00082507,-2.19438,-0.390941,-0.150918,37.5885,0.129084,
2,0,0,1,0,4875.88,0.127893,0.127566,-6.4399,4,0.0129054,11,-0.000821512,-2.19112,-0.689528,-0.0855658,21.4513,0.127566,
2,0,0,1,0,4875.91,0.126397,0.126086,-6.45914,4,0.0126639,11,-0.00081441,-2.18983,-1.53486,-0.03844,9.67371,0.1260864,
2,0,0,1,0,4875.95,0.1249,0.124626,-6.4721,4,0.0124219,11,-0.00080659,-2.18895,-24.8141,-0.00237768,0.59888,0.124626,
2,0,0,1,0,4875.99,0.1234,0.123116,-6.46085,4,0.0121793,11,-0.000795434,-2.18971,1.27553,0.0462554,-11.6251,0.123116,
2,0,0,1,0,4876.03,0.1219,0.121598,-6.43322,4,0.0119374,11,-0.000782265,-2.19157,0.528368,0.111665,-27.9169,0.121598,
2,0,0,1,0,4876.06,0.120404,0.120079,-6.37188,4,0.0116976,11,-0.000765127,-2.19573,0.380089,0.155227,-38.558,0.120079,
2,0,0,1,0,4876.1,0.118908,0.118606,-6.31363,4,0.0114602,11,-0.000748834,-2.19972,0.309667,0.190527,-46.9142,0.118606,
2,0,0,1,0,4876.14,0.117404,0.117098,-6.23366,4,0.0112241,11,-0.000729948,-2.20526,0.262798,0.224507,-54.5406,0.117098,
2,0,0,1,0,4876.18,0.115909,0.11556,-6.14579,4,0.0109923,11,-0.000710208,-2.21142,0.205387,0.287262,-68.6894,0.11556,
2,0,0,1,0,4876.21,0.114413,0.114122,-6.03286,4,0.0107642,11,-0.000688481,-2.21948,0.175874,0.335467,-78.8334,0.114122,
2,0,0,1,0,4876.25,0.112913,0.112612,-5.91063,4,0.0105402,11,-0.00066561,-2.22837,0.159059,0.370932,-85.4379,0.112612,
2,0,0,1,0,4876.29,0.111413,0.111025,-5.78465,4,0.0103209,11,-0.00064224,-2.23772,0.154289,0.382398,-86.1481,0.111025,
2,0,0,1,0,4876.33,0.109917,0.109638,-5.6518,4,0.0101069,11,-0.000619652,-2.24781,0.144538,0.408196,-89.905,0.109638,
2,0,0,1,0,4876.36,0.10842,0.108095,-5.51379,4,0.00989797,11,-0.000596013,-2.25855,0.136587,0.431958,-92.8768,0.108095,
2,0,0,1,0,4876.4,0.10692,0.106593,-5.36914,4,0.00969373,11,-0.000572315,-2.2701,0.13599,0.433855,-91.1356,0.106593,
2,0,0,1,0,4876.44,0.10542,0.105078,-5.23946,4,0.00949459,11,-0.000550554,-2.28071,0.144837,0.407356,-83.4862,0.105078,
2,0,0,1,0,4876.48,0.103924,0.103623,-5.12031,4,0.00930068,11,-0.000530581,-2.2907,0.142484,0.414081,-82.7767,0.103623,
2,0,0,1,0,4876.51,0.102427,0.102161,-5.0028,4,0.00911131,11,-0.000511093,-2.30079,0.146155,0.403681,-78.7988,0.102161,
2,0,0,1,0,4876.55,0.100924,0.100636,-4.88101,4,0.00892549,11,-0.000491208,-2.31149,0.156498,0.377003,-71.9009,0.100636,
2,0,0,1,0,4876.59,0.0994284,0.0991557,-4.77863,4,0.00874481,11,-0.000473829,-2.3207,0.168701,0.349731,-65.257,0.0991557,
2,0,0,1,0,4876.63,0.0979329,0.0976386,-4.68591,4,0.00856776,11,-0.000457526,-2.32921,0.181959,0.324249,-59.3303,0.0976386,
2,0,0,1,0,4876.66,0.0964329,0.096122,-4.59838,4,0.00839359,11,-0.000442005,-2.3374,0.183427,0.321654,-57.7301,0.096122,
2,0,0,1,0,4876.7,0.094933,0.0946624,-4.50954,4,0.00822258,11,-0.000426884,-2.34587,0.203267,0.290258,-51.2514,0.0946624,
2,0,0,1,0,4876.74,0.0934366,0.0930814,-4.43719,4,0.00805505,11,-0.00041302,-2.35289,0.229189,0.257429,-44.7614,0.0930814,
2,0,0,1,0,4876.78,0.0919401,0.0916227,-4.37819,4,0.00788996,11,-0.000401141,-2.35871,0.247793,0.238102,-40.7447,0.0916227,
2,0,0,1,0,4876.81,0.0904402,0.0901062,-4.32391,4,0.00772659,11,-0.000389612,-2.36412,0.243247,0.242551,-40.8801,0.0901062,
2,0,0,1,0,4876.85,0.0889402,0.0885904,-4.27462,4,0.00756541,11,-0.00037869,-2.3691,0.264879,0.222743,-37.0763,0.0885904,
2,0,0,1,0,4876.89,0.0874438,0.087151,-4.21338,4,0.00740689,11,-0.0003672,-2.37537,0.292323,0.201832,-33.1791,0.087151,
2,0,0,1,0,4876.93,0.0859483,0.0856198,-4.1661,4,0.00725009,11,-0.000356701,-2.38027,0.337665,0.17473,-28.3994,0.0856198,
2,0,0,1,0,4876.96,0.0844447,0.0841836,-4.12044,4,0.00709413,11,-0.000346873,-2.38506,0.32871,0.179489,-28.8994,0.0841836,
2,0,0,1,0,4877,0.0829492,0.0826547,-4.07531,4,0.0069406,11,-0.000336844,-2.38984,0.322483,0.182955,-29.155,0.0826547,
2,0,0,1,0,4877.04,0.0814528,0.0811617,-4.03115,4,0.00678878,11,-0.000327175,-2.39457,0.330986,0.178255,-28.1206,0.0811617,
2,0,0,1,0,4877.07,0.0799528,0.0796006,-3.99413,4,0.00663809,11,-0.000317935,-2.39858,0.388103,0.152021,-23.7138,0.0796006,
2,0,0,1,0,4877.11,0.0784529,0.0781508,-3.96299,4,0.00648867,11,-0.000309711,-2.40198,0.374248,0.15765,-24.3331,0.0781508,
2,0,0,1,0,4877.15,0.0769565,0.0766351,-3.92845,4,0.00634106,11,-0.000301057,-2.40578,0.316001,0.186708,-28.5611,0.0766351,
2,0,0,1,0,4877.19,0.0754601,0.0751262,-3.87574,4,0.00619506,11,-0.000291169,-2.41165,0.345177,0.170927,-25.8835,0.0751262,
2,0,0,1,0,4877.22,0.0739601,0.0736459,-3.83854,4,0.00605018,11,-0.000282693,-2.41583,0.34532,0.170856,-25.6004,0.0736459,
2,0,0,1,0,4877.26,0.0724601,0.0721632,-3.80187,4,0.00590665,11,-0.000274355,-2.42,0.32619,0.180876,-26.8358,0.0721632,
2,0,0,1,0,4877.3,0.0709637,0.0705864,-3.75917,4,0.00576508,11,-0.000265346,-2.42491,0.283516,0.208101,-30.5252,0.0705864,
2,0,0,1,0,4877.34,0.0694682,0.0691772,-3.71266,4,0.00562509,11,-0.000256832,-2.43031,0.299387,0.197069,-28.5968,0.0691772,
2,0,0,1,0,4877.37,0.0679646,0.0676484,-3.6702,4,0.00548615,11,-0.000248283,-2.43531,0.306095,0.192751,-27.6613,0.0676484,
2,0,0,1,0,4877.41,0.0664691,0.0661451,-3.62891,4,0.0053495,11,-0.000240035,-2.44022,0.27619,0.213621,-30.2119,0.06614507,
2,0,0,1,0,4877.45,0.0649727,0.0647108,-3.58904,4,0.00521434,11,-0.00023225,-2.44502,0.254314,0.231996,-32.3608,0.0647108,
2,0,0,1,0,4877.49,0.0634727,0.0631839,-3.53917,4,0.00508071,11,-0.000223618,-2.4511,0.236619,0.249346,-34.3353,0.0631839,
2,0,0,1,0,4877.52,0.0619728,0.0617117,-3.48187,4,0.00494907,11,-0.000214872,-2.45819,0.238481,0.247399,-33.6296,0.0617117,
2,0,0,1,0,4877.56,0.0604764,0.0601658,-3.43182,4,0.00481963,11,-0.000206478,-2.46448,0.237518,0.248403,-33.2765,0.0601658,
2,0,0,1,0,4877.6,0.05898,0.058707,-3.38167,4,0.00469196,11,-0.000198527,-2.47087,0.236901,0.249049,-32.9176,0.05870698,
2,0,0,1,0,4877.64,0.05748,0.0571879,-3.33361,4,0.00456582,11,-0.000190642,-2.47709,0.215246,0.274105,-35.6629,0.0571879,
2,0,0,1,0,4877.67,0.05598,0.0556511,-3.28045,4,0.0044417,11,-0.000182561,-2.48407,0.225923,0.261151,-33.4908,0.0556511,
2,0,0,1,0,4877.71,0.0544836,0.0541838,-3.23379,4,0.00431985,11,-0.000175219,-2.49029,0.251652,0.234451,-29.5621,0.0541838,
2,0,0,1,0,4877.75,0.0529881,0.0526802,-3.19199,4,0.00419959,11,-0.000168155,-2.49594,0.246371,0.239476,-29.7318,0.0526802,
2,0,0,1,0,4877.79,0.0514846,0.0511608,-3.14177,4,0.0040804,11,-0.000160736,-2.50282,0.232009,0.2543,-31.1522,0.0511608,
2,0,0,1,0,4877.82,0.049989,0.0496771,-3.08182,4,0.00396369,11,-0.000153096,-2.51119,0.234501,0.251598,-30.4237,0.0496771,
2,0,0,1,0,4877.86,0.0484926,0.0481868,-3.04792,4,0.00384875,11,-0.000146869,-2.516,0.246691,0.239165,-28.5349,0.0481868,
2,0,0,1,0,4877.9,0.0469927,0.0466872,-3.00832,4,0.00373493,11,-0.00014045,-2.52168,0.281449,0.209629,-24.6786,0.0466872,
2,0,0,1,0,4877.94,0.0454927,0.0451739,-2.975,4,0.00362253,11,-0.000134392,-2.52651,0.256084,0.230394,-26.7108,0.0451739,
2,0,0,1,0,4877.97,0.0439963,0.0436866,-2.94154,4,0.00351175,11,-0.000128506,-2.53142,0.278939,0.211516,-24.2688,0.0436866,
2,0,0,1,0,4878.01,0.0424999,0.0422089,-2.90866,4,0.00340248,11,-0.000122771,-2.53631,0.33885,0.174118,-19.7691,0.0422089,
2,0,0,1,0,4878.05,0.0409999,0.0406774,-2.87991,4,0.00329394,11,-0.000117147,-2.54062,0.389703,0.151397,-16.9885,0.0406774,
2,0,0,1,0,4878.09,0.0394999,0.0392388,-2.85689,4,0.00318625,11,-0.000112101,-2.54411,0.38878,0.151757,-16.8722,0.03923877,
2,0,0,1,0,4878.12,0.0380044,0.0376506,-2.82681,4,0.00307989,11,-0.000106431,-2.5487,0.36809,0.160287,-17.6992,0.0376506,
2,0,0,1,0,4878.16,0.0365089,0.0361891,-2.79865,4,0.00297462,11,-0.000101281,-2.55305,0.479507,0.123043,-13.4915,0.0361891,
2,0,0,1,0,4878.2,0.0350054,0.0347093,-2.78001,4,0.00286953,11,-9.6492e-05,-2.55595,0.63481,0.0929412,-10.095,0.0347093,
2,0,0,1,0,4878.24,0.033509,0.0332046,-2.76755,4,0.00276556,11,-9.18955e-05,-2.5579,0.636676,0.0926687,-10.0073,0.0332046,
2,0,0,1,0,4878.27,0.0320125,0.0316647,-2.75356,4,0.00266222,11,-8.71905e-05,-2.56011,0.616374,0.095721,-10.277,0.0316647,
2,0,0,1,0,4878.31,0.0305126,0.0302149,-2.73454,4,0.00255921,11,-8.26238e-05,-2.56312,0.757598,0.0778777,-8.31497,0.0302149,
2,0,0,1,0,4878.35,0.0290126,0.0287002,-2.72621,4,0.00245672,11,-7.82428e-05,-2.56444,1.39101,0.0424152,-4.51136,0.0287002,
2,0,0,1,0,4878.39,0.0275162,0.0272141,-2.71941,4,0.00235482,11,-7.40063e-05,-2.56553,1.3994,0.042161,-4.4733,0.0272141,
2,0,0,1,0,4878.42,0.0260198,0.0257442,-2.71048,4,0.00225313,11,-6.97791e-05,-2.56695,1.08216,0.0545204,-5.76308,0.0257442,
2,0,0,1,0,4878.46,0.0245198,0.0242191,-2.69526,4,0.00215148,11,-6.52769e-05,-2.5694,1.41986,0.0415534,-4.38961,0.0242191,
2,0,0,1,0,4878.5,0.0230198,0.0227332,-2.6944,4,0.00205021,11,-6.12524e-05,-2.56954,3.05338,0.0193229,-2.03711,0.02273318,
2,0,0,1,0,4878.54,0.0215243,0.0212422,-2.69383,4,0.00194928,11,-5.72227e-05,-2.56963,9.66176,0.00610655,-0.64228,0.0212422,
2,0,0,1,0,4878.57,0.0200288,0.0197261,-2.69464,4,0.00184834,11,-5.31547e-05,-2.5695,3.22307,0.0183055,-1.92076,0.0197261,
2,0,0,1,0,4878.61,0.0185253,0.0182376,-2.69083,4,0.00174693,11,-4.90743e-05,-2.57011,4.98208,0.0118424,-1.24388,0.0182376,
2,0,0,1,0,4878.65,0.0170289,0.0167161,-2.69021,4,0.00164627,11,-4.49697e-05,-2.57021,-5.14088,-0.0114766,1.20688,0.0167161,
2,0,0,1,0,4878.69,0.0155325,0.0152426,-2.69358,4,0.00154544,11,-4.10571e-05,-2.56967,-1.49733,-0.0394036,4.14453,0.0152426,
2,0,0,1,0,4878.72,0.0140325,0.013701,-2.70131,4,0.00144403,11,-3.70107e-05,-2.56843,-2.75473,-0.0214177,2.25642,0.013701,
2,0,0,1,0,4878.76,0.0125325,0.0122086,-2.69874,4,0.00134253,11,-3.29478e-05,-2.56884,-12.5026,-0.00471901,0.498381,0.0122086,
2,0,0,1,0,4878.8,0.0110361,0.0107247,-2.70082,4,0.00124139,11,-2.89654e-05,-2.56851,-1.81983,-0.0324207,3.42826,0.0107247,
2,0,0,1,0,4878.84,0.0095397,0.00919397,-2.70991,4,0.00114004,11,-2.49148e-05,-2.56704,-0.961353,-0.0613718,6.48609,0.00919397,
2,0,0,1,0,4878.87,0.00803616,0.0077072,-2.72123,4,0.00103776,11,-2.09731e-05,-2.56523,-1.24641,-0.047336,5.01996,0.0077072,
2,0,0,1,0,4878.91,0.00654064,0.00625418,-2.72736,4,0.000935818,11,-1.70574e-05,-2.56426,-1.40395,-0.0420243,4.46735,0.00625418,
2,0,0,1,0,4878.95,0.00504513,0.00475156,-2.72335,4,0.000833704,11,-1.29401e-05,-2.5649,-1.06276,-0.0555161,5.91901,0.00475156,
2,0,0,1,0,4878.99,0.00354515,0.0032512,-2.7352,4,0.000731015,11,-8.89268e-06,-2.56301,-0.374278,-0.157637,16.9812,0.003251204,
2,0,0,1,0,4879.02,0.00204518,0.00174003,-2.81051,4,0.000627476,11,-4.89036e-06,-2.55122,-0.601244,-0.0981299,10.5628,0.00174003,
2,0,0,1,0,4879.06,0.000548773,0.00019225,-2.77469,4,0.000522932,11,-5.33434e-07,-2.55678, , , ,0.00019225,
2,0,0,1,0,4879.07,0.000177222,-0.00020431,-2.77886,4,0.000497072,11,5.67748e-07,-2.55613, , , ,-0.00020431,