File: Figure_codes/Fig_3-5/rawdata_trumpetplot_data/before 10th/20221101_1-115_002_TrumpetPlot_ParaChange_09_CV_C01_1.csv
mode,ox/red,error,control changes,counter inc.,time/s,control/V,Ewe/V,<I>/mA,cycle number,(Q-Qo)/C,I Range,P/W,log(|I|),Tafel slope mV/dec,alpha_eff,dI/d(E-IR),E-IR/V,
2,0,0,1,0,2415.92,2.44065e-05,-0.000172625,-3.81375,2,0.0000000E+000,11,6.58349e-07,-2.41865, , , ,-0.000172625,
2,0,0,1,0,2415.94,0.0013005,0.000906311,-0.480102,2,-4.3519e-05,11,-4.35121e-07,-3.31867, , , ,0.0009063108,
2,1,0,1,0,2415.96,0.00279471,0.00248928,1.43933,2,-2.82951e-05,11,3.58289e-06,-2.84184,0.0295536,1.99637,957.607,0.00248928,
2,1,0,1,0,2415.99,0.00429425,0.00398067,2.11411,2,1.74643e-05,11,8.41557e-06,-2.67487,0.0101352,5.82127,360.124,0.00398067,
2,1,0,1,0,2416.01,0.00579379,0.00551668,2.36733,2,7.41873e-05,11,1.30598e-05,-2.62574,0.0355537,1.65946,144.435,0.00551668,
2,1,0,1,0,2416.04,0.007288,0.00698637,2.4968,2,0.000135147,11,1.74436e-05,-2.60262,0.0936642,0.62991,59.9973,0.00698637,
2,1,0,1,0,2416.06,0.00878882,0.00852768,2.56286,2,0.000198577,11,2.18552e-05,-2.59128,0.21956,0.268719,26.4952,0.00852768,
2,1,0,1,0,2416.09,0.0102896,0.00998384,2.59082,2,0.00026297,11,2.58663e-05,-2.58656,0.404276,0.14594,14.6251,0.00998384,
2,1,0,1,0,2416.11,0.0117838,0.011524,2.59357,2,0.000327646,11,2.98883e-05,-2.5861,0.433911,0.135973,13.8018,0.011524,
2,1,0,1,0,2416.14,0.0132834,0.0129811,2.61036,2,0.000392807,11,3.38853e-05,-2.5833,0.633947,0.0930677,9.53749,0.0129811,
2,1,0,1,0,2416.16,0.0147816,0.0145357,2.63494,2,0.000458531,11,3.83006e-05,-2.57923,0.526002,0.112167,11.5192,0.0145357,
2,1,0,1,0,2416.19,0.0162811,0.0160178,2.65426,2,0.000524777,11,4.25155e-05,-2.57606,0.545009,0.108255,11.1714,0.0160178,
2,1,0,1,0,2416.21,0.0177753,0.0175012,2.66402,2,0.000591088,11,4.66237e-05,-2.57446,0.704733,0.0837197,8.7056,0.0175012,
2,1,0,1,0,2416.24,0.0192761,0.0189752,2.67051,2,0.000657823,11,5.06734e-05,-2.57341,0.784148,0.0752409,7.86606,0.0189752,
2,1,0,1,0,2416.26,0.020777,0.0204924,2.6988,2,0.000724991,11,5.53049e-05,-2.56883,0.57886,0.101924,10.6808,0.02049241,
2,1,0,1,0,2416.29,0.0222712,0.0219911,2.71109,2,0.000792358,11,5.96199e-05,-2.56686,0.495412,0.119093,12.5764,0.0219911,
2,1,0,1,0,2416.31,0.0237707,0.0235222,2.71763,2,0.000860352,11,6.39248e-05,-2.56581,0.626572,0.0941632,10.01,0.0235222,
2,1,0,1,0,2416.34,0.0252703,0.0250188,2.72282,2,0.000928651,11,6.81215e-05,-2.56498,0.705872,0.0835846,8.94468,0.0250188,
2,1,0,1,0,2416.36,0.0267645,0.0264914,2.75724,2,0.000996965,11,7.30429e-05,-2.55953,0.637844,0.0924992,9.92911,0.0264914,
2,1,0,1,0,2416.39,0.0282653,0.0280156,2.77932,2,0.00106613,11,7.78642e-05,-2.55606,0.472732,0.124807,13.4548,0.0280156,
2,1,0,1,0,2416.41,0.0297648,0.0295094,2.78302,2,0.00113567,11,8.21253e-05,-2.55548,0.658047,0.0896593,9.72277,0.0295094,
2,1,0,1,0,2416.44,0.031259,0.0309823,2.78465,2,0.00120524,11,8.62747e-05,-2.55523,0.768834,0.0767395,8.37829,0.0309823,
2,1,0,1,0,2416.46,0.0327585,0.0324876,2.81291,2,0.00127532,11,9.13848e-05,-2.55084,0.740589,0.0796663,8.74812,0.0324876,
2,1,0,1,0,2416.49,0.034258,0.0340086,2.83746,2,0.00134598,11,9.64982e-05,-2.54707,0.455781,0.129448,14.2835,0.0340086,
2,1,0,1,0,2416.51,0.0357576,0.0354866,2.84172,2,0.0014171,11,0.000100843,-2.54642,0.580696,0.101602,11.2891,0.0354866,
2,1,0,1,0,2416.54,0.0372518,0.0369801,2.85882,2,0.00148834,11,0.000105719,-2.54381,0.814156,0.0724676,8.11652,0.0369801,
2,1,0,1,0,2416.56,0.0387526,0.0384583,2.88293,2,0.00156016,11,0.000110873,-2.54017,0.589263,0.100125,11.2784,0.0384583,
2,1,0,1,0,2416.59,0.0402534,0.0399537,2.90787,2,0.00163254,11,0.00011618,-2.53642,0.38605,0.15283,17.3082,0.0399537,
2,1,0,1,0,2416.61,0.0417476,0.0414976,2.93298,2,0.00170535,11,0.000121712,-2.53269,0.362619,0.162705,18.5899,0.0414976,
2,1,0,1,0,2416.64,0.0432472,0.042974,2.94742,2,0.00177899,11,0.000126663,-2.53056,0.546675,0.107925,12.4429,0.042974,
2,1,0,1,0,2416.66,0.0447467,0.0444605,2.97033,2,0.00185302,11,0.000132062,-2.52719,0.477877,0.123463,14.3428,0.0444605,
2,1,0,1,0,2416.69,0.0462463,0.0459867,3.00208,2,0.00192768,11,0.000138056,-2.52258,0.29256,0.201668,23.582,0.0459867,
2,1,0,1,0,2416.71,0.0477391,0.0474608,3.0252,2,0.00200285,11,0.000143578,-2.51925,0.28398,0.207761,24.5614,0.0474608,
2,1,0,1,0,2416.74,0.0492399,0.0489649,3.05275,2,0.00207906,11,0.000149477,-2.51531,0.405098,0.145644,17.3907,0.0489649,
2,1,0,1,0,2416.76,0.0507408,0.0504874,3.08137,2,0.00215594,11,0.00015557,-2.51126,0.382565,0.154222,18.5849,0.0504874,
2,1,0,1,0,2416.79,0.052235,0.0519592,3.12635,2,0.0022333,11,0.000162443,-2.50496,0.26656,0.221338,26.9666,0.0519592,
2,1,0,1,0,2416.81,0.0537345,0.0534465,3.17003,2,0.00231195,11,0.000169427,-2.49894,0.257683,0.228963,28.2774,0.0534465,
2,1,0,1,0,2416.84,0.0552341,0.054951,3.20467,2,0.00239172,11,0.0001761,-2.49422,0.317776,0.185665,23.1632,0.054951,
2,1,0,1,0,2416.86,0.0567283,0.0564296,3.2399,2,0.00247208,11,0.000182826,-2.48947,0.304295,0.193891,24.5591,0.0564296,
2,1,0,1,0,2416.89,0.0582291,0.0579005,3.28894,2,0.00255356,11,0.000190431,-2.48294,0.253829,0.23244,29.802,0.0579005,
2,1,0,1,0,2416.91,0.0597299,0.0594293,3.334,2,0.00263638,11,0.000198137,-2.47703,0.207878,0.28382,36.91,0.0594293,
2,1,0,1,0,2416.94,0.0612228,0.0609256,3.37468,2,0.00272005,11,0.000205604,-2.47177,0.242972,0.242827,32.0497,0.0609256,
2,1,0,1,0,2416.96,0.0627223,0.0624701,3.43604,2,0.00280539,11,0.00021465,-2.46394,0.238254,0.247635,33.1953,0.0624701,
2,1,0,1,0,2416.99,0.0642218,0.0639533,3.49066,2,0.0028919,11,0.000223239,-2.45709,0.215623,0.273625,37.2598,0.06395328,
2,1,0,1,0,2417.01,0.0657214,0.0654594,3.53794,2,0.00297987,11,0.000231592,-2.45125,0.183219,0.322019,44.5637,0.0654594,
2,1,0,1,0,2417.04,0.0672156,0.0669617,3.60308,2,0.00306903,11,0.000241268,-2.44333,0.212023,0.278271,39.1367,0.0669617,
2,1,0,1,0,2417.06,0.0687164,0.0684084,3.67431,2,0.00316009,11,0.000251354,-2.43482,0.238321,0.247565,35.4207,0.0684084,
2,1,0,1,0,2417.09,0.0702172,0.0699353,3.72722,2,0.00325249,11,0.000260664,-2.42861,0.208197,0.283386,41.1819,0.0699353,
2,1,0,1,0,2417.11,0.0717114,0.0714324,3.78724,2,0.00334612,11,0.000270532,-2.42168,0.174336,0.338426,50.0554,0.0714324,
2,1,0,1,0,2417.14,0.073211,0.0729326,3.85422,2,0.00344182,11,0.000281098,-2.41406,0.195214,0.302233,45.5775,0.0729326,
2,1,0,1,0,2417.16,0.0747105,0.074443,3.92982,2,0.00353929,11,0.000292547,-2.40563,0.217352,0.271449,41.5696,0.07444305,
2,1,0,1,0,2417.19,0.0762101,0.0759342,3.99275,2,0.00363842,11,0.000303186,-2.39873,0.197839,0.298222,46.4792,0.0759342,
2,1,0,1,0,2417.21,0.0777042,0.0774608,4.06748,2,0.00373875,11,0.00031507,-2.39067,0.182493,0.3233,51.2948,0.0774608,
2,1,0,1,0,2417.24,0.0792037,0.0789561,4.13272,2,0.00384138,11,0.000326304,-2.38376,0.198579,0.297112,47.9404,0.0789561,
2,1,0,1,0,2417.26,0.0807046,0.0804291,4.21083,2,0.00394587,11,0.000338673,-2.37563,0.225271,0.261906,42.9339,0.0804291,
2,1,0,1,0,2417.29,0.0821988,0.0819426,4.27726,2,0.00405162,11,0.00035049,-2.36883,0.218022,0.270615,45.1425,0.0819426,
2,1,0,1,0,2417.31,0.0836983,0.083444,4.34066,2,0.00415939,11,0.000362202,-2.36244,0.207062,0.284939,48.3722,0.083444,
2,1,0,1,0,2417.34,0.0851979,0.0849292,4.4083,2,0.00426897,11,0.000374394,-2.35573,0.212541,0.277594,47.8681,0.0849292,
2,1,0,1,0,2417.36,0.0866921,0.0863801,4.49388,2,0.00437998,11,0.000388181,-2.34738,0.230788,0.255646,44.7278,0.0863801,
2,1,0,1,0,2417.39,0.0881929,0.0879111,4.56758,2,0.00449322,11,0.000401541,-2.34031,0.236191,0.249798,44.3849,0.0879111,
2,1,0,1,0,2417.41,0.0896937,0.0894175,4.63027,2,0.00460805,11,0.000414027,-2.33439,0.215405,0.273902,49.4727,0.0894175,
2,1,0,1,0,2417.44,0.0911879,0.0908672,4.6883,2,0.00472413,11,0.000426013,-2.32898,0.212351,0.277842,50.9325,0.0908672,
2,1,0,1,0,2417.46,0.0926861,0.0924225,4.77284,2,0.00484262,11,0.000441118,-2.32122,0.235007,0.251057,46.6739,0.0924225,
2,1,0,1,0,2417.49,0.0941856,0.0938925,4.84417,2,0.00496293,11,0.000454831,-2.31478,0.257898,0.228773,43.1504,0.0938925,
2,1,0,1,0,2417.51,0.0956852,0.0954019,4.89568,2,0.00508474,11,0.000467057,-2.31019,0.240406,0.245419,47.017,0.09540195,
2,1,0,1,0,2417.54,0.0971794,0.0968758,4.96119,2,0.0052077,11,0.00048062,-2.30441,0.225269,0.261909,50.8593,0.0968758,
2,1,0,1,0,2417.56,0.0986802,0.098335,5.04422,2,0.00533305,11,0.000496024,-2.29721,0.245745,0.240086,47.3141,0.098335,
2,1,0,1,0,2417.59,0.100181,0.0998954,5.1367,2,0.00546038,11,0.000513133,-2.28932,0.248008,0.237896,47.5081,0.0998954,
2,1,0,1,0,2417.61,0.101675,0.101406,5.19312,2,0.00558903,11,0.000526612,-2.28457,0.231883,0.254439,51.6602,0.101406,
2,1,0,1,0,2417.64,0.103175,0.102935,5.26841,2,0.00571993,11,0.000542304,-2.27832,0.222413,0.265272,54.7223,0.102935,
2,1,0,1,0,2417.66,0.104674,0.104424,5.3627,2,0.00585297,11,0.000559996,-2.27062,0.220114,0.268043,56.0805,0.104424,
2,1,0,1,0,2417.69,0.106169,0.105926,5.45369,2,0.00598771,11,0.000577688,-2.26331,0.226633,0.260333,55.2799,0.105926,
2,1,0,1,0,2417.71,0.107668,0.107379,5.53545,2,0.00612509,11,0.000594394,-2.25685,0.1974,0.298885,64.6622,0.107379,
2,1,0,1,0,2417.74,0.109169,0.108861,5.62679,2,0.00626464,11,0.000612536,-2.24974,0.181488,0.325091,71.6855,0.108861,
2,1,0,1,0,2417.76,0.110663,0.110352,5.74582,2,0.0064064,11,0.000634064,-2.24065,0.169296,0.348502,78.2401,0.110352,
2,1,0,1,0,2417.79,0.112163,0.111862,5.87783,2,0.00655178,11,0.000657507,-2.23078,0.167803,0.351602,80.5084,0.111862,
2,1,0,1,0,2417.81,0.113662,0.113419,5.99782,2,0.00670026,11,0.000680266,-2.22201,0.158134,0.373102,87.352,0.113419,
2,1,0,1,0,2417.84,0.115162,0.11486,6.11456,2,0.00685176,11,0.000702318,-2.21363,0.150271,0.392625,94.1196,0.11486,
2,1,0,1,0,2417.86,0.116656,0.116387,6.26991,2,0.00700615,11,0.000729733,-2.20274,0.142113,0.415163,101.81,0.116387,
2,1,0,1,0,2417.89,0.118157,0.117906,6.44823,2,0.00716523,11,0.000760287,-2.19056,0.137382,0.42946,107.875,0.117906,
2,1,0,1,0,2417.91,0.119657,0.11937,6.61149,2,0.00732844,11,0.000789212,-2.1797,0.132138,0.446502,115.228,0.11937,
2,1,0,1,0,2417.94,0.121152,0.120871,6.76953,2,0.00749513,11,0.000818237,-2.16944,0.124901,0.472372,125.269,0.120871,
2,1,0,1,0,2417.96,0.122651,0.122321,6.96798,2,0.00766704,11,0.000852332,-2.15689,0.123322,0.478424,130.311,0.122321,
2,1,0,1,0,2417.99,0.124151,0.12385,7.18056,2,0.00784397,11,0.000889313,-2.14384,0.116833,0.504995,141.439,0.12385,
2,1,0,1,0,2418.01,0.125649,0.125346,7.38179,2,0.00802605,11,0.000925278,-2.13184,0.118636,0.497319,143.229,0.125346,
2,1,0,1,0,2418.04,0.127143,0.126846,7.5865,2,0.00821273,11,0.000962315,-2.11996,0.118309,0.498693,147.93,0.126846,
2,1,0,1,0,2418.06,0.128644,0.128341,7.82018,2,0.00840551,11,0.00100365,-2.10678,0.120788,0.48846,149.203,0.128341,
2,1,0,1,0,2418.09,0.130145,0.129891,8.06059,2,0.00860406,11,0.00104699,-2.09363,0.122627,0.481135,151.15,0.129891,
2,1,0,1,0,2418.11,0.131639,0.131366,8.28816,2,0.00880772,11,0.00108878,-2.08154,0.124979,0.47208,152.398,0.131366,
2,1,0,1,0,2418.14,0.133139,0.132856,8.50762,2,0.00901793,11,0.00113029,-2.07019,0.130838,0.450941,149.788,0.132856,
2,1,0,1,0,2418.16,0.134638,0.134384,8.7288,2,0.00923354,11,0.00117301,-2.05905,0.139926,0.42165,143.793,0.134384,
2,1,0,1,0,2418.19,0.136132,0.135811,8.96364,2,0.0094539,11,0.00121736,-2.04752,0.14117,0.417937,145.877,0.135811,
2,1,0,1,0,2418.21,0.137633,0.137382,9.18763,2,0.00968072,11,0.00126221,-2.0368,0.14964,0.394281,140.808,0.137382,
2,1,0,1,0,2418.24,0.139133,0.138886,9.37136,2,0.00991278,11,0.00130155,-2.0282,0.166435,0.354493,129.436,0.138886,
2,1,0,1,0,2418.26,0.140627,0.140353,9.55173,2,0.0101485,11,0.00134061,-2.01992,0.189239,0.311776,116.158,0.140353,
2,1,0,1,0,2418.29,0.142126,0.141823,9.73248,2,0.0103896,11,0.00138028,-2.01178,0.198069,0.297876,112.916,0.141823,
2,1,0,1,0,2418.31,0.143626,0.143354,9.89876,2,0.0106351,11,0.00141903,-2.00442,0.218508,0.270013,103.994,0.143354,
2,1,0,1,0,2418.34,0.145125,0.144867,10.0239,2,0.0108844,11,0.00145214,-1.99896,0.280932,0.210015,82.0195,0.144867,
2,1,0,1,0,2418.36,0.14662,0.146354,10.1295,2,0.0111356,11,0.00148249,-1.99441,0.378833,0.155741,61.5049,0.1463539,
2,1,0,1,0,2418.39,0.14812,0.147854,10.2273,2,0.0113902,11,0.00151215,-1.99024,0.510095,0.115665,46.0289,0.147854,
2,1,0,1,0,2418.41,0.149621,0.14934,10.2876,2,0.0116467,11,0.00153634,-1.98769,0.728609,0.0809763,32.3934,0.14934,
2,1,0,1,0,2418.44,0.151116,0.150812,10.307,2,0.0119033,11,0.00155442,-1.98687,4.32778,0.0136329,5.46804,0.150812,
2,1,0,1,0,2418.46,0.152615,0.152371,10.2933,2,0.0121612,11,0.0015684,-1.98745,-1.00539,-0.0586836,-23.5212,0.152371,
2,1,0,1,0,2418.49,0.154115,0.153845,10.253,2,0.0124181,11,0.00157737,-1.98915,-0.500808,-0.11781,-46.9931,0.153845,
2,1,0,1,0,2418.51,0.155614,0.155325,10.1696,2,0.0126735,11,0.0015796,-1.99269,-0.319264,-0.1848,-72.9481,0.155325,
2,1,0,1,0,2418.54,0.157107,0.156826,10.0179,2,0.0129251,11,0.00157106,-1.99923,-0.206352,-0.285919,-111.263,0.156826,
2,1,0,1,0,2418.56,0.158608,0.158341,9.82947,2,0.0131735,11,0.00155641,-2.00747,-0.145949,-0.40425,-154.309,0.158341,
2,1,0,1,0,2418.59,0.160109,0.159819,9.57805,2,0.0134162,11,0.00153075,-2.01872,-0.115472,-0.510948,-189.854,0.159819,
2,1,0,1,0,2418.61,0.161603,0.161355,9.27833,2,0.013651,11,0.00149711,-2.03253,-0.0960494,-0.614267,-220.833,0.161355,
2,1,0,1,0,2418.64,0.163102,0.162823,8.91048,2,0.0138785,11,0.00145083,-2.0501,-0.0796611,-0.740638,-256.156,0.162823,
2,1,0,1,0,2418.66,0.164602,0.164322,8.49956,2,0.0140963,11,0.00139666,-2.0706,-0.0676679,-0.871905,-287.858,0.164322,
2,1,0,1,0,2418.69,0.166096,0.165844,8.05297,2,0.0143025,11,0.00133554,-2.09404,-0.0601227,-0.981326,-306.98,0.165844,
2,1,0,1,0,2418.71,0.167597,0.167303,7.5858,2,0.014498,11,0.00126913,-2.12,-0.0553243,-1.06644,-314.538,0.167303,
2,1,0,1,0,2418.74,0.169098,0.168816,7.11305,2,0.0146817,11,0.0012008,-2.14794,-0.0533206,-1.10651,-306.398,0.168816,
2,1,0,1,0,2418.76,0.170592,0.170317,6.638,2,0.014853,11,0.00113056,-2.17796,-0.0491959,-1.19929,-310.832,0.170317,
2,1,0,1,0,2418.79,0.17209,0.171831,6.18641,2,0.0150133,11,0.00106301,-2.20856,-0.0494994,-1.19193,-288.85,0.171831,
2,1,0,1,0,2418.81,0.17359,0.173321,5.7844,2,0.0151629,11,0.00100256,-2.23774,-0.053704,-1.09862,-249.213,0.173321,
2,1,0,1,0,2418.84,0.175089,0.174816,5.42964,2,0.015303,11,0.000949186,-2.26523,-0.0580361,-1.01661,-216.675,0.174816,
2,1,0,1,0,2418.86,0.176583,0.176331,5.11823,2,0.0154344,11,0.000902501,-2.29088,-0.0614159,-0.960663,-193.083,0.176331,
2,1,0,1,0,2418.89,0.178084,0.177805,4.85818,2,0.0155592,11,0.000863808,-2.31353,-0.0679759,-0.867954,-165.555,0.1778048,
2,1,0,1,0,2418.91,0.179585,0.179322,4.64216,2,0.0156778,11,0.000832443,-2.33328,-0.0794662,-0.742454,-135.147,0.1793225,
2,1,0,1,0,2418.94,0.181079,0.180833,4.45179,2,0.0157909,11,0.000805029,-2.35147,-0.0941113,-0.626917,-109.56,0.180833,
2,1,0,1,0,2418.96,0.182579,0.182311,4.29963,2,0.0159004,11,0.000783871,-2.36657,-0.100335,-0.588027,-98.9203,0.182311,
2,1,0,1,0,2418.99,0.184078,0.183829,4.16205,2,0.0160063,11,0.000765103,-2.38069,-0.106119,-0.555979,-90.51,0.183829,
2,1,0,1,0,2419.01,0.185578,0.185345,4.03214,2,0.0161087,11,0.000747338,-2.39446,-0.120358,-0.490203,-77.4414,0.185345,
2,1,0,1,0,2419.04,0.187072,0.186827,3.92953,2,0.0162079,11,0.000734143,-2.40566,-0.13847,-0.426086,-65.3645,0.186827,
2,1,0,1,0,2419.06,0.188573,0.188292,3.83049,2,0.0163049,11,0.000721248,-2.41675,-0.139278,-0.423614,-63.4376,0.188292,
2,1,0,1,0,2419.09,0.190072,0.189779,3.74295,2,0.0163996,11,0.000710334,-2.42679,-0.139771,-0.42212,-61.6272,0.189779,
2,1,0,1,0,2419.11,0.191567,0.191298,3.64916,2,0.0164917,11,0.000698077,-2.43781,-0.161223,-0.365952,-52.2528,0.191298,
2,1,0,1,0,2419.14,0.193066,0.192802,3.56954,2,0.0165822,11,0.000688216,-2.44739,-0.189867,-0.310743,-43.4553,0.192802,
2,1,0,1,0,2419.16,0.194566,0.194322,3.50496,2,0.0166708,11,0.000681091,-2.45532,-0.166547,-0.354254,-48.5914,0.194322,
2,1,0,1,0,2419.19,0.19606,0.195751,3.44815,2,0.0167575,11,0.000674978,-2.46241,-0.168859,-0.349405,-46.926,0.195751,
2,1,0,1,0,2419.21,0.197561,0.197227,3.37281,2,0.0168428,11,0.000665209,-2.47201,-0.195328,-0.302057,-39.8695,0.1972269,
2,1,0,1,0,2419.24,0.199062,0.198812,3.32218,2,0.0169265,11,0.000660488,-2.47858,-0.223767,-0.263667,-34.2376,0.1988119,
2,1,0,1,0,2419.26,0.200556,0.200289,3.26613,2,0.0170087,11,0.000654172,-2.48597,-0.230408,-0.256067,-32.7178,0.200289,
2,1,0,1,0,2419.29,0.202055,0.20178,3.22705,2,0.01709,11,0.000651155,-2.49119,-0.21213,-0.278132,-34.937,0.20178,
2,1,0,1,0,2419.31,0.203553,0.203339,3.17475,2,0.0171701,11,0.000645551,-2.49829,-0.261858,-0.225313,-27.9336,0.203339,
2,1,0,1,0,2419.34,0.205053,0.204784,3.12547,2,0.0172489,11,0.000640045,-2.50509,-0.342093,-0.172468,-21.22,0.204784,
2,1,0,1,0,2419.36,0.206547,0.206257,3.09086,2,0.0173265,11,0.000637512,-2.50992,-0.300793,-0.196148,-23.7182,0.206257,
2,1,0,1,0,2419.38,0.208048,0.207781,3.06768,2,0.0174038,11,0.000637407,-2.51319,-0.25408,-0.232211,-27.686,0.207781,
2,1,0,1,0,2419.41,0.209549,0.209296,3.03867,2,0.0174801,11,0.00063598,-2.51732,-0.2663,-0.221555,-26.1858,0.209296,
2,1,0,1,0,2419.43,0.211043,0.210794,2.99062,2,0.0175551,11,0.000630407,-2.52424,-0.351224,-0.167984,-19.6499,0.210794,
2,1,0,1,0,2419.46,0.212543,0.212315,2.9558,2,0.0176296,11,0.000627561,-2.52932,-0.359037,-0.164329,-19.0336,0.212315,
2,1,0,1,0,2419.48,0.214042,0.213805,2.94184,2,0.0177034,11,0.000628982,-2.53138,-0.329765,-0.178915,-20.5243,0.213805,
2,1,0,1,0,2419.51,0.215536,0.215288,2.91942,2,0.0177764,11,0.000628514,-2.5347,-0.414372,-0.142384,-16.178,0.215288,
2,1,0,1,0,2419.53,0.217036,0.216759,2.87438,2,0.0178489,11,0.000623047,-2.54146,-0.489218,-0.120601,-13.611,0.216759,
2,1,0,1,0,2419.56,0.218537,0.218264,2.85676,2,0.0179208,11,0.000623527,-2.54413,-0.567516,-0.103962,-11.6416,0.218264,
2,1,0,1,0,2419.58,0.220031,0.219734,2.85191,2,0.017992,11,0.000626662,-2.54486,-0.429407,-0.137399,-15.2384,0.219734,
2,1,0,1,0,2419.61,0.22153,0.221295,2.83133,2,0.0180631,11,0.00062656,-2.54801,-0.471423,-0.125153,-13.7588,0.221295,
2,1,0,1,0,2419.63,0.22303,0.222747,2.79409,2,0.0181336,11,0.000622374,-2.55376,-0.553589,-0.106577,-11.6799,0.222747,
2,1,0,1,0,2419.66,0.224529,0.224274,2.77762,2,0.0182034,11,0.00062295,-2.55633,-0.477328,-0.123605,-13.458,0.224274,
2,1,0,1,0,2419.68,0.226024,0.22579,2.77341,2,0.0182727,11,0.000626207,-2.55699,-0.50399,-0.117066,-12.647,0.22579,
2,1,0,1,0,2419.71,0.227525,0.227255,2.76251,2,0.0183418,11,0.000627794,-2.5587,-0.482796,-0.122205,-13.0995,0.227255,
2,1,0,1,0,2419.73,0.229025,0.228778,2.73882,2,0.0184106,11,0.000626581,-2.56244,-0.809279,-0.0729044,-7.79206,0.228778,
2,1,0,1,0,2419.76,0.23052,0.230195,2.71682,2,0.0184785,11,0.000625399,-2.56594,-0.615673,-0.0958301,-10.2055,0.230195,
2,1,0,1,0,2419.78,0.232019,0.23177,2.71554,2,0.0185465,11,0.000629382,-2.56614,-0.706229,-0.0835424,-8.83479,0.23177,
2,1,0,1,0,2419.81,0.233519,0.233258,2.70721,2,0.0186142,11,0.000631479,-2.56748,-0.675957,-0.0872837,-9.15875,0.233258,
2,1,0,1,0,2419.83,0.235018,0.234744,2.68672,2,0.0186817,11,0.000630692,-2.57078,-1.04564,-0.0564249,-5.91049,0.234744,
2,1,0,1,0,2419.86,0.236511,0.236234,2.66163,2,0.0187483,11,0.000628768,-2.57485,-0.819542,-0.0719914,-7.52223,0.236234,
2,1,0,1,0,2419.88,0.238012,0.237763,2.65894,2,0.018815,11,0.000632195,-2.57529,-0.716269,-0.0823713,-8.53367,0.237763,
2,1,0,1,0,2419.91,0.239513,0.239197,2.6559,2,0.0188815,11,0.000635283,-2.57579,-0.941691,-0.0626533,-6.47183,0.239197,
2,1,0,1,0,2419.93,0.241007,0.240756,2.63834,2,0.0189474,11,0.000635197,-2.57867,-0.998346,-0.0590978,-6.08228,0.240756,
2,1,0,1,0,2419.96,0.242506,0.242237,2.61541,2,0.0190133,11,0.000633547,-2.58246,-0.781657,-0.0754807,-7.75574,0.242237,
2,1,0,1,0,2419.98,0.244006,0.243744,2.61391,2,0.0190789,11,0.000637125,-2.58271,-0.898463,-0.0656677,-6.714,0.243744,
2,1,0,1,0,2420.01,0.2455,0.245253,2.62434,2,0.0191441,11,0.000643625,-2.58098,-0.885765,-0.0666091,-6.778,0.245253,
2,1,0,1,0,2420.03,0.247001,0.246721,2.60337,2,0.0192094,11,0.000642306,-2.58446,-0.990547,-0.059563,-6.03024,0.246721,
2,1,0,1,0,2420.06,0.248502,0.24824,2.578,2,0.0192744,11,0.000639962,-2.58872,-1.10315,-0.0534834,-5.41616,0.24824,
2,1,0,1,0,2420.08,0.249995,0.249714,2.57744,2,0.0193387,11,0.000643624,-2.58881,-0.824858,-0.0715275,-7.20933,0.249714,
2,1,0,1,0,2420.11,0.251494,0.251215,2.57529,2,0.0194032,11,0.000646951,-2.58917,-1.25466,-0.0470247,-4.71817,0.251215,
2,1,0,1,0,2420.13,0.252994,0.252771,2.56193,2,0.0194676,11,0.000647582,-2.59143,-1.02073,-0.0578019,-5.7741,0.252771,
2,1,0,1,0,2420.16,0.254493,0.254193,2.54592,2,0.0195317,11,0.000647153,-2.59416,-0.838765,-0.0703415,-7.03367,0.254193,
2,1,0,1,0,2420.18,0.255988,0.255734,2.54181,2,0.0195952,11,0.000650028,-2.59486,-0.906747,-0.0650678,-6.47493,0.255734,
2,1,0,1,0,2420.21,0.257488,0.257194,2.55016,2,0.0196589,11,0.000655887,-2.59343,-1.44671,-0.0407821,-4.03428,0.257194,
2,1,0,1,0,2420.23,0.258989,0.258755,2.5382,2,0.0197225,11,0.000656771,-2.59547,-1.90231,-0.031015,-3.06571,0.258755,
2,1,0,1,0,2420.26,0.260483,0.260231,2.52443,2,0.0197857,11,0.000656934,-2.59784,-0.80954,-0.0728809,-7.19763,0.260231,
2,1,0,1,0,2420.28,0.261983,0.261746,2.51249,2,0.0198487,11,0.000657633,-2.5999,-0.790917,-0.0745969,-7.34706,0.261746,
2,1,0,1,0,2420.31,0.263482,0.263213,2.51514,2,0.0199116,11,0.000662016,-2.59944,-3.37602,-0.0174762,-1.70915,0.263213,
2,1,0,1,0,2420.33,0.264982,0.264722,2.50586,2,0.0199745,11,0.000663357,-2.60104,-16.8229,-0.00350712,-0.34293,0.2647219,
2,1,0,1,0,2420.36,0.266476,0.266192,2.48976,2,0.0200369,11,0.000662755,-2.60384,-1.07512,-0.0548776,-5.35646,0.266192,
2,1,0,1,0,2420.38,0.267976,0.267695,2.48092,2,0.0200993,11,0.00066413,-2.60539,-0.788468,-0.0748287,-7.26916,0.267695,
2,1,0,1,0,2420.41,0.269477,0.269194,2.48788,2,0.0201615,11,0.00066972,-2.60417,-1.89808,-0.031084,-3.01187,0.269194,
2,1,0,1,0,2420.43,0.270971,0.270708,2.48322,2,0.0202233,11,0.000672229,-2.60498,-2.87731,-0.0205053,-1.97993,0.270708,
2,1,0,1,0,2420.46,0.27247,0.272237,2.46493,2,0.0202854,11,0.000671045,-2.6082,-1.11071,-0.053119,-5.12387,0.272237,
2,1,0,1,0,2420.48,0.27397,0.273677,2.45412,2,0.0203472,11,0.000671637,-2.6101,-0.660823,-0.0892826,-8.59567,0.273677,
2,1,0,1,0,2420.51,0.275464,0.275206,2.46325,2,0.0204085,11,0.0006779,-2.60849,-1.0296,-0.057304,-5.49931,0.275206,
2,1,0,1,0,2420.53,0.276965,0.276709,2.44971,2,0.0204699,11,0.000677855,-2.61089,-2.38431,-0.0247451,-2.36574,0.276709,
2,1,0,1,0,2420.56,0.278466,0.278199,2.44293,2,0.0205312,11,0.000679619,-2.61209,-1.17349,-0.0502775,-4.79888,0.278199,
2,1,0,1,0,2420.58,0.27996,0.279762,2.43792,2,0.0205921,11,0.000682038,-2.61298,-0.844735,-0.0698444,-6.6481,0.279762,
2,1,0,1,0,2420.61,0.281458,0.281171,2.43418,2,0.020653,11,0.000684419,-2.61365,-1.8884,-0.0312434,-2.96649,0.281171,
2,1,0,1,0,2420.63,0.282958,0.282676,2.42732,2,0.0207138,11,0.000686145,-2.61487,2.17261,0.0271563,2.56989,0.282676,
2,1,0,1,0,2420.66,0.284457,0.284216,2.4169,2,0.0207746,11,0.000686924,-2.61674,-1.33307,-0.0442587,-4.18811,0.284216,
2,1,0,1,0,2420.68,0.285951,0.28572,2.41275,2,0.020835,11,0.00068937,-2.61749,-0.64304,-0.0917516,-8.65002,0.28572,
2,1,0,1,0,2420.71,0.287452,0.287202,2.41013,2,0.0208953,11,0.000692194,-2.61796,-0.889561,-0.0663249,-6.22974,0.287202,
2,1,0,1,0,2420.73,0.288953,0.288706,2.4035,2,0.0209555,11,0.000693905,-2.61916,37.3974,0.00157765,0.147555,0.288706,
2,1,0,1,0,2420.76,0.290447,0.290189,2.39433,2,0.0210154,11,0.000694808,-2.62082,-1.9607,-0.0300913,-2.81831,0.290189,
2,1,0,1,0,2420.78,0.291947,0.291717,2.3924,2,0.0210754,11,0.000697904,-2.62117,-0.644177,-0.0915897,-8.54677,0.291717,
2,1,0,1,0,2420.81,0.293446,0.293189,2.3856,2,0.0211352,11,0.000699432,-2.6224,-1.12548,-0.0524219,-4.87852,0.293189,
2,1,0,1,0,2420.83,0.29494,0.294699,2.38588,2,0.0211945,11,0.000703115,-2.62235,21.0093,0.00280827,0.261087,0.294699,
2,1,0,1,0,2420.86,0.29644,0.296194,2.37687,2,0.0212541,11,0.000704015,-2.62399,-4.01548,-0.0146931,-1.36343,0.2961939,
2,1,0,1,0,2420.88,0.297941,0.297686,2.36999,2,0.0213136,11,0.000705514,-2.62525,-0.740451,-0.0796812,-7.35788,0.297686,
2,1,0,1,0,2420.91,0.29944,0.299182,2.369,2,0.0213729,11,0.000708762,-2.62544,-0.0021852,-26.9998,-1136.82,0.299182,
2,1,0,1,0,2420.92,0.299736,0.299518,1.50391,2,0.021402,11,0.000450449,-2.82278,0.00238803,24.7065,2521.05,0.299518,
2,0,0,1,0,2420.95,0.298238,0.297959,-0.553249,2,0.0214064,11,-0.000164846,-3.25708,0.00894578,6.59529,879.734,0.297959,
2,0,0,1,0,2420.97,0.296744,0.296467,-0.858005,2,0.0213876,11,-0.00025437,-3.06651,-0.00678337,-8.69774,175.812,0.296467,
2,0,0,1,0,2421,0.295243,0.294932,-0.941483,2,0.0213648,11,-0.000277674,-3.02619,-0.051292,-1.15028,40.06,0.294932,
2,0,0,1,0,2421.02,0.293742,0.293446,-0.979272,2,0.0213409,11,-0.000287363,-3.0091,-0.0812902,-0.725795,27.3883,0.293446,
2,0,0,1,0,2421.05,0.292248,0.291946,-1.00435,2,0.0213162,11,-0.000293215,-2.99812,-0.0809056,-0.729245,28.7854,0.291946,
2,0,0,1,0,2421.07,0.290748,0.290419,-1.04678,2,0.0212904,11,-0.000304004,-2.98015,-0.0870238,-0.677976,27.8198,0.2904186,
2,0,0,1,0,2421.1,0.289249,0.288996,-1.09357,2,0.0212634,11,-0.000316037,-2.96115,-0.107864,-0.546985,23.2693,0.288996,
2,0,0,1,0,2421.12,0.287754,0.287455,-1.1348,2,0.0212356,11,-0.000326204,-2.94508,-0.106405,-0.554487,24.3092,0.287455,
2,0,0,1,0,2421.15,0.286254,0.285918,-1.15584,2,0.0212069,11,-0.000330474,-2.9371,-0.111119,-0.530964,24.2,0.285918,
2,0,0,1,0,2421.17,0.284754,0.284474,-1.19068,2,0.0211774,11,-0.000338716,-2.92421,-0.12316,-0.47905,22.2886,0.284474,
2,0,0,1,0,2421.2,0.28326,0.282998,-1.23321,2,0.0211471,11,-0.000348995,-2.90896,-0.152789,-0.386154,18.4121,0.282998,
2,0,0,1,0,2421.22,0.28176,0.28148,-1.26029,2,0.021116,11,-0.000354746,-2.89953,-0.155606,-0.379162,18.4495,0.28148,
2,0,0,1,0,2421.25,0.280261,0.280007,-1.27182,2,0.0210841,11,-0.000356118,-2.89558,-0.146989,-0.401389,20.1026,0.280007,
2,0,0,1,0,2421.27,0.278761,0.278469,-1.30005,2,0.0210518,11,-0.000362022,-2.88604,-0.200181,-0.294733,15.1043,0.278469,
2,0,0,1,0,2421.3,0.277267,0.276966,-1.33581,2,0.0210188,11,-0.000369976,-2.87425,-0.220149,-0.268,13.9311,0.276966,
2,0,0,1,0,2421.32,0.275766,0.275458,-1.36644,2,0.020985,11,-0.000376398,-2.86441,-0.230983,-0.25543,13.4404,0.275458,
2,0,0,1,0,2421.35,0.274265,0.273954,-1.38336,2,0.0209506,11,-0.000378977,-2.85906,-0.200762,-0.293881,15.8252,0.273954,
2,0,0,1,0,2421.37,0.272771,0.272471,-1.39589,2,0.020916,11,-0.000380339,-2.85515,-0.221353,-0.266543,14.642,0.272471,
2,0,0,1,0,2421.4,0.271272,0.271015,-1.42838,2,0.0208806,11,-0.000387112,-2.84516,-0.258552,-0.228194,12.6796,0.271015,
2,0,0,1,0,2421.42,0.269772,0.269424,-1.45857,2,0.0208445,11,-0.000392975,-2.83607,-0.223906,-0.263503,14.8263,0.269424,
2,0,0,1,0,2421.45,0.268273,0.267957,-1.4642,2,0.020808,11,-0.000392341,-2.8344,-0.259028,-0.227775,13.0512,0.267957,
2,0,0,1,0,2421.47,0.26678,0.26653,-1.47399,2,0.0207712,11,-0.000392861,-2.83151,-0.272359,-0.216626,12.5783,0.26653,
2,0,0,1,0,2421.5,0.265279,0.265046,-1.50878,2,0.0207338,11,-0.000399894,-2.82138,-0.263628,-0.2238,13.1028,0.265046,
2,0,0,1,0,2421.52,0.263778,0.263461,-1.53161,2,0.0206958,11,-0.00040352,-2.81485,-0.268474,-0.219761,13.0244,0.263461,
2,0,0,1,0,2421.55,0.262284,0.261994,-1.54518,2,0.0206575,11,-0.000404829,-2.81102,-0.267438,-0.220612,13.2706,0.261994,
2,0,0,1,0,2421.57,0.260784,0.260506,-1.54778,2,0.0206186,11,-0.000403207,-2.81029,-0.294417,-0.200396,12.2379,0.260506,
2,0,0,1,0,2421.6,0.259285,0.25896,-1.58036,2,0.0205793,11,-0.000409252,-2.80124,-0.328415,-0.179651,11.0957,0.2589604,
2,0,0,1,0,2421.62,0.257791,0.257494,-1.61142,2,0.0205397,11,-0.000414931,-2.79279,-0.319541,-0.18464,11.4942,0.257494,
2,0,0,1,0,2421.65,0.25629,0.255986,-1.61873,2,0.0204993,11,-0.000414373,-2.79082,-0.285314,-0.20679,12.9985,0.255986,
2,0,0,1,0,2421.67,0.254789,0.254507,-1.62725,2,0.0204586,11,-0.000414146,-2.78855,-0.355329,-0.166043,10.591,0.254507,
2,0,0,1,0,2421.7,0.253296,0.252968,-1.65001,2,0.0204178,11,-0.000417399,-2.78251,-0.35406,-0.166639,10.7419,0.252968,
2,0,0,1,0,2421.72,0.251797,0.25153,-1.66515,2,0.0203763,11,-0.000418836,-2.77855,-0.276527,-0.213361,13.8437,0.25153,
2,0,0,1,0,2421.75,0.250297,0.250024,-1.68335,2,0.0203343,11,-0.000420878,-2.77383,-0.337872,-0.174623,11.466,0.250024,
2,0,0,1,0,2421.77,0.248797,0.248506,-1.69485,2,0.0202919,11,-0.000421181,-2.77087,-0.356937,-0.165295,10.9999,0.248506,
2,0,0,1,0,2421.8,0.247303,0.247081,-1.71375,2,0.0202494,11,-0.000423435,-2.76605,-0.42353,-0.139305,9.33651,0.247081,
2,0,0,1,0,2421.82,0.245802,0.245539,-1.74005,2,0.0202061,11,-0.000427249,-2.75944,-0.303995,-0.194082,13.0804,0.245539,
2,0,0,1,0,2421.85,0.244302,0.243976,-1.75692,2,0.0201624,11,-0.000428646,-2.75525,-0.314026,-0.187883,12.8151,0.243976,
2,0,0,1,0,2421.87,0.242807,0.242503,-1.7626,2,0.0201184,11,-0.000427436,-2.75385,-0.529849,-0.111353,7.70322,0.242503,
2,0,0,1,0,2421.9,0.241308,0.241007,-1.77834,2,0.020074,11,-0.000428591,-2.74999,-0.504341,-0.116984,8.15718,0.2410067,
2,0,0,1,0,2421.92,0.239808,0.239507,-1.80479,2,0.0200292,11,-0.00043226,-2.74357,-0.289687,-0.203668,14.279,0.239507,
2,0,0,1,0,2421.95,0.238309,0.238002,-1.82069,2,0.0199839,11,-0.000433327,-2.73977,-0.308597,-0.191188,13.6014,0.238002,
2,0,0,1,0,2421.97,0.236815,0.236531,-1.83439,2,0.0199383,11,-0.000433892,-2.73651,-0.354996,-0.166199,11.8967,0.2365312,
2,0,0,1,0,2422,0.235315,0.235033,-1.8429,2,0.0198921,11,-0.000433141,-2.7345,-0.43694,-0.13503,9.74418,0.235033,
2,0,0,1,0,2422.02,0.233814,0.233512,-1.87805,2,0.0198455,11,-0.000438549,-2.72629,-0.319894,-0.184436,13.4459,0.233512,
2,0,0,1,0,2422.05,0.23232,0.232033,-1.8918,2,0.0197986,11,-0.00043896,-2.72312,-0.308112,-0.191489,14.1061,0.232033,
2,0,0,1,0,2422.07,0.230821,0.230529,-1.90009,2,0.019751,11,-0.000438027,-2.72123,-0.481727,-0.122476,9.11438,0.230529,
2,0,0,1,0,2422.1,0.229321,0.229024,-1.91699,2,0.019703,11,-0.000439037,-2.71738,-0.499254,-0.118176,8.87954,0.229024,
2,0,0,1,0,2422.12,0.227827,0.227552,-1.94469,2,0.0196549,11,-0.000442518,-2.71115,-0.464437,-0.127036,9.63976,0.227552,
2,0,0,1,0,2422.15,0.226326,0.226053,-1.96622,2,0.0196061,11,-0.00044447,-2.70637,-0.285104,-0.206942,15.8207,0.226053,
2,0,0,1,0,2422.17,0.224825,0.224547,-1.97776,2,0.0195567,11,-0.000444101,-2.70383,-0.362698,-0.16267,12.5737,0.224547,
2,0,0,1,0,2422.2,0.223331,0.222981,-2.00869,2,0.019507,11,-0.000447899,-2.69709,-0.520699,-0.113309,8.84936,0.222981,
2,0,0,1,0,2422.22,0.221831,0.221523,-2.02526,2,0.0194567,11,-0.000448643,-2.69352,-0.322106,-0.18317,14.444,0.221523,
2,0,0,1,0,2422.25,0.220333,0.220058,-2.04312,2,0.0194059,11,-0.000449606,-2.68971,-0.231452,-0.254912,20.3025,0.220058,
2,0,0,1,0,2422.27,0.218834,0.218539,-2.05903,2,0.0193543,11,-0.000449978,-2.68634,-0.293842,-0.200788,16.1907,0.218539,
2,0,0,1,0,2422.3,0.217339,0.217031,-2.08273,2,0.0193025,11,-0.000452016,-2.68137,-0.490629,-0.120254,9.8083,0.217031,
2,0,0,1,0,2422.32,0.215839,0.215551,-2.10841,2,0.0192501,11,-0.00045447,-2.67604,-0.348913,-0.169096,13.8959,0.215551,
2,0,0,1,0,2422.35,0.214338,0.214,-2.12947,2,0.019197,11,-0.000455708,-2.67173,-0.239039,-0.246821,20.5159,0.214,
2,0,0,1,0,2422.37,0.212844,0.212554,-2.15196,2,0.0191435,11,-0.000457408,-2.66717,-0.280461,-0.210368,17.7414,0.212554,
2,0,0,1,0,2422.4,0.211344,0.211066,-2.18302,2,0.0190892,11,-0.000460761,-2.66094,-0.38572,-0.152961,13.0441,0.211066,
2,0,0,1,0,2422.42,0.209845,0.209534,-2.2034,2,0.0190342,11,-0.000461688,-2.65691,-0.29629,-0.199129,17.162,0.2095343,
2,0,0,1,0,2422.44,0.20835,0.208021,-2.24043,2,0.0189788,11,-0.000466056,-2.64967,-0.197007,-0.299481,26.247,0.208021,
2,0,0,1,0,2422.47,0.206851,0.206547,-2.26803,2,0.0189224,11,-0.000468455,-2.64435,-0.233979,-0.25216,22.3601,0.206547,
2,0,0,1,0,2422.49,0.20535,0.205023,-2.30318,2,0.018865,11,-0.000472203,-2.63767,-0.329349,-0.179141,16.0297,0.205023,
2,0,0,1,0,2422.52,0.203856,0.203561,-2.33428,2,0.0188072,11,-0.000475169,-2.63185,-0.294761,-0.200162,18.2287,0.203561,
2,0,0,1,0,2422.54,0.202356,0.202042,-2.35915,2,0.0187486,11,-0.000476647,-2.62724,-0.221816,-0.265986,24.5517,0.202042,
2,0,0,1,0,2422.57,0.200857,0.200521,-2.39097,2,0.018689,11,-0.00047944,-2.62143,-0.204191,-0.288945,27.0824,0.200521,
2,0,0,1,0,2422.59,0.199357,0.199035,-2.43186,2,0.0186285,11,-0.000484025,-2.61406,-0.242823,-0.242976,23.0988,0.199035,
2,0,0,1,0,2422.62,0.197863,0.197528,-2.48116,2,0.0185673,11,-0.000490098,-2.60535,-0.241284,-0.244525,23.5817,0.197528,
2,0,0,1,0,2422.64,0.196362,0.196071,-2.51395,2,0.0185049,11,-0.000492913,-2.59964,-0.194647,-0.303112,29.7246,0.196071,
2,0,0,1,0,2422.67,0.194861,0.194485,-2.55223,2,0.0184415,11,-0.000496371,-2.59308,-0.172483,-0.342062,34.174,0.1944851,
2,0,0,1,0,2422.69,0.193367,0.193112,-2.60807,2,0.0183772,11,-0.00050365,-2.58368,-0.191461,-0.308157,31.3463,0.193112,
2,0,0,1,0,2422.72,0.191868,0.191538,-2.66399,2,0.0183112,11,-0.000510257,-2.57447,-0.196065,-0.300921,31.1936,0.1915383,
2,0,0,1,0,2422.74,0.190368,0.190062,-2.69798,2,0.0182442,11,-0.000512782,-2.56896,-0.168,-0.351191,37.1707,0.190062,
2,0,0,1,0,2422.77,0.18887,0.188571,-2.75446,2,0.0181758,11,-0.000519411,-2.55996,-0.150974,-0.390797,42.1458,0.188571,
2,0,0,1,0,2422.79,0.187376,0.187083,-2.82022,2,0.0181062,11,-0.000527614,-2.54972,-0.161404,-0.365542,40.2814,0.1870825,
2,0,0,1,0,2422.82,0.185875,0.185594,-2.89202,2,0.0180347,11,-0.000536742,-2.5388,-0.167626,-0.351974,39.5764,0.185594,
2,0,0,1,0,2422.84,0.184374,0.184076,-2.94983,2,0.0179617,11,-0.000542992,-2.5302,-0.140669,-0.419424,48.379,0.184076,
2,0,0,1,0,2422.87,0.18288,0.182583,-3.01796,2,0.0178873,11,-0.000551028,-2.52029,-0.1318,-0.447648,53.0079,0.182583,
2,0,0,1,0,2422.89,0.18138,0.181066,-3.10192,2,0.0178106,11,-0.000561651,-2.50837,-0.136276,-0.432945,52.5875,0.181066,
2,0,0,1,0,2422.92,0.179881,0.179577,-3.19253,2,0.0177317,11,-0.000573305,-2.49586,-0.13773,-0.428375,53.2978,0.179577,
2,0,0,1,0,2422.94,0.178387,0.178127,-3.28409,2,0.0176511,11,-0.000584984,-2.48358,-0.120256,-0.490621,62.8416,0.178127,
2,0,0,1,0,2422.97,0.176886,0.176578,-3.36745,2,0.017568,11,-0.000594619,-2.4727,-0.113168,-0.521351,68.853,0.176578,
2,0,0,1,0,2422.99,0.175385,0.175077,-3.48361,2,0.0174823,11,-0.000609898,-2.45797,-0.112733,-0.523363,71.0991,0.175077,
2,0,0,1,0,2423.02,0.173892,0.173612,-3.59893,2,0.0173941,11,-0.000624816,-2.44383,-0.104017,-0.567218,79.5958,0.173612,
2,0,0,1,0,2423.04,0.172392,0.172091,-3.72164,2,0.0173026,11,-0.000640459,-2.42927,-0.0977547,-0.603552,87.5308,0.172091,
2,0,0,1,0,2423.07,0.170893,0.170587,-3.8332,2,0.0172081,11,-0.000653896,-2.41644,-0.0973645,-0.60597,91.2085,0.170587,
2,0,0,1,0,2423.09,0.169393,0.169093,-3.98134,2,0.0171102,11,-0.000673216,-2.39997,-0.0891179,-0.662044,103.353,0.169093,
2,0,0,1,0,2423.12,0.167899,0.167562,-4.15779,2,0.0170087,11,-0.00069669,-2.38114,-0.0882436,-0.668603,108.382,0.167562,
2,0,0,1,0,2423.14,0.166398,0.166058,-4.32692,2,0.0169026,11,-0.000718519,-2.36382,-0.0861983,-0.684468,115.512,0.1660578,
2,0,0,1,0,2423.17,0.164898,0.164599,-4.48628,2,0.0167923,11,-0.000738436,-2.34811,-0.081983,-0.719661,126.748,0.164599,
2,0,0,1,0,2423.19,0.163403,0.163128,-4.69156,2,0.0166778,11,-0.000765327,-2.32868,-0.0804557,-0.733322,134.735,0.163128,
2,0,0,1,0,2423.22,0.161904,0.161567,-4.9133,2,0.0165577,11,-0.000793826,-2.30863,-0.0777065,-0.759267,145.585,0.161567,
2,0,0,1,0,2423.24,0.160404,0.160096,-5.13784,2,0.0164321,11,-0.000822547,-2.28922,-0.0751515,-0.785081,157.392,0.160096,
2,0,0,1,0,2423.27,0.158905,0.158588,-5.36343,2,0.0163006,11,-0.000850578,-2.27056,-0.0745928,-0.790961,166.155,0.158588,
2,0,0,1,0,2423.29,0.157411,0.15713,-5.62551,2,0.0161636,11,-0.000883934,-2.24984,-0.0763671,-0.772584,169.853,0.1571297,
2,0,0,1,0,2423.32,0.155911,0.155652,-5.89446,2,0.0160194,11,-0.000917487,-2.22956,-0.075464,-0.781829,180.048,0.155652,
2,0,0,1,0,2423.34,0.15441,0.154128,-6.18303,2,0.0158685,11,-0.00095298,-2.2088,-0.0741436,-0.795754,191.796,0.154128,
2,0,0,1,0,2423.37,0.152916,0.152643,-6.47317,2,0.0157109,11,-0.000988084,-2.18888,-0.0742454,-0.794662,200.597,0.152643,
2,0,0,1,0,2423.39,0.151417,0.151126,-6.76789,2,0.0155452,11,-0.00102281,-2.16955,-0.077677,-0.759556,200.799,0.151126,
2,0,0,1,0,2423.42,0.149917,0.149628,-7.07785,2,0.015372,11,-0.00105904,-2.1501,-0.0812371,-0.726269,200.418,0.149628,
2,0,0,1,0,2423.44,0.148423,0.148137,-7.39016,2,0.0151918,11,-0.00109475,-2.13135,-0.0831125,-0.709881,204.153,0.148137,
2,0,0,1,0,2423.47,0.146922,0.146647,-7.68435,2,0.0150033,11,-0.00112689,-2.11439,-0.0895502,-0.658848,197.271,0.146647,
2,0,0,1,0,2423.49,0.145421,0.14515,-7.96938,2,0.0148074,11,-0.00115675,-2.09858,-0.0962452,-0.613017,190.711,0.14515,
2,0,0,1,0,2423.52,0.143927,0.143649,-8.27058,2,0.0146051,11,-0.00118806,-2.08246,-0.0994601,-0.593203,191.045,0.143649,
2,0,0,1,0,2423.54,0.142429,0.142125,-8.55835,2,0.0143947,11,-0.00121635,-2.06761,-0.104051,-0.567029,188.771,0.142125,
2,0,0,1,0,2423.57,0.140929,0.140591,-8.81979,2,0.0141773,11,-0.00123999,-2.05454,-0.115778,-0.509594,175,0.140591,
2,0,0,1,0,2423.59,0.13943,0.139149,-9.05703,2,0.0139535,11,-0.00126028,-2.04301,-0.132626,-0.444861,157.249,0.139149,
2,0,0,1,0,2423.62,0.137935,0.137674,-9.30076,2,0.0137248,11,-0.00128047,-2.03148,-0.146508,-0.402709,145.92,0.137674,
2,0,0,1,0,2423.64,0.136435,0.136135,-9.53107,2,0.0134893,11,-0.00129751,-2.02086,-0.157887,-0.373684,138.359,0.136135,
2,0,0,1,0,2423.67,0.134934,0.134612,-9.71251,2,0.0132487,11,-0.00130742,-2.01267,-0.188394,-0.313173,118.276,0.134612,
2,0,0,1,0,2423.69,0.13344,0.133137,-9.86398,2,0.0130047,11,-0.00131326,-2.00595,-0.236031,-0.249967,96.0891,0.133137,
2,0,0,1,0,2423.72,0.13194,0.131644,-10.0047,2,0.0127563,11,-0.00131706,-1.99979,-0.296497,-0.19899,77.5432,0.131644,
2,0,0,1,0,2423.74,0.13044,0.13011,-10.1239,2,0.0125046,11,-0.00131722,-1.99465,-0.353357,-0.16697,65.7061,0.13011,
2,0,0,1,0,2423.77,0.128941,0.128671,-10.1934,2,0.0122505,11,-0.00131159,-1.99168,-0.562245,-0.104937,41.6191,0.128671,
2,0,0,1,0,2423.79,0.127447,0.127143,-10.2399,2,0.0119959,11,-0.00130193,-1.9897,-1.42144,-0.0415072,16.5332,0.127143,
2,0,0,1,0,2423.82,0.125946,0.125646,-10.2462,2,0.0117398,11,-0.00128739,-1.98944,2.71543,0.0217277,-8.66362,0.125646,
2,0,0,1,0,2423.84,0.124446,0.124161,-10.2259,2,0.0114839,11,-0.00126965,-1.9903,0.934704,0.0631216,-25.0895,0.124161,
2,0,0,1,0,2423.87,0.122952,0.122686,-10.1646,2,0.0112299,11,-0.00124706,-1.99291,0.492917,0.119696,-47.3368,0.122686,
2,0,0,1,0,2423.89,0.121453,0.121178,-10.0619,2,0.0109768,11,-0.00121928,-1.99732,0.287902,0.204931,-80.252,0.121178,
2,0,0,1,0,2423.92,0.119953,0.119665,-9.92246,2,0.0107267,11,-0.00118737,-2.00338,0.214156,0.2755,-106.47,0.119665,
2,0,0,1,0,2423.94,0.118459,0.118174,-9.76245,2,0.0104815,11,-0.00115367,-2.01044,0.188121,0.313628,-119.117,0.118174,
2,0,0,1,0,2423.97,0.116958,0.116673,-9.56966,2,0.0102398,11,-0.00111652,-2.0191,0.158473,0.372304,-138.491,0.116673,
2,0,0,1,0,2423.99,0.115457,0.115123,-9.33039,2,0.0100035,11,-0.00107414,-2.0301,0.129933,0.45408,-164.815,0.115123,
2,0,0,1,0,2424.02,0.113963,0.113661,-9.07227,2,0.00977417,11,-0.00103116,-2.04228,0.116665,0.505723,-178.585,0.113661,
2,0,0,1,0,2424.04,0.112464,0.112126,-8.7981,2,0.00955085,11,-0.000986492,-2.05561,0.107012,0.551341,-188.941,0.112126,
2,0,0,1,0,2424.07,0.110965,0.110685,-8.49982,2,0.00933453,11,-0.000940807,-2.07059,0.102749,0.574217,-190.506,0.110685,
2,0,0,1,0,2424.09,0.109466,0.109173,-8.21522,2,0.00912538,11,-0.000896882,-2.08538,0.0975835,0.60461,-193.931,0.109173,
2,0,0,1,0,2424.12,0.107972,0.107677,-7.93938,2,0.00892415,11,-0.000854887,-2.10021,0.0962795,0.612799,-189.898,0.107677,
2,0,0,1,0,2424.14,0.106471,0.106152,-7.66428,2,0.00872916,11,-0.000813581,-2.11553,0.101769,0.579744,-173.671,0.106152,
2,0,0,1,0,2424.17,0.10497,0.1047,-7.4108,2,0.00854071,11,-0.00077591,-2.13013,0.106047,0.556355,-161.205,0.1047,
2,0,0,1,0,2424.19,0.103476,0.103167,-7.17999,2,0.00835895,11,-0.000740737,-2.14388,0.108562,0.543468,-152.638,0.103167,
2,0,0,1,0,2424.22,0.101976,0.10165,-6.96932,2,0.00818202,11,-0.000708433,-2.15681,0.114809,0.513899,-139.972,0.10165,
2,0,0,1,0,2424.24,0.100477,0.100183,-6.77331,2,0.00801035,11,-0.000678567,-2.1692,0.12587,0.468739,-124.226,0.100183,
2,0,0,1,0,2424.27,0.0989825,0.0986954,-6.59943,2,0.00784389,11,-0.000651334,-2.18049,0.148177,0.398172,-102.813,0.0986954,
2,0,0,1,0,2424.29,0.0974817,0.0971953,-6.45109,2,0.00768068,11,-0.000627015,-2.19037,0.157951,0.373533,-94.3041,0.0971953,
2,0,0,1,0,2424.32,0.0959822,0.0956455,-6.32679,2,0.00752098,11,-0.000605129,-2.19882,0.166974,0.353349,-87.2417,0.09564545,
2,0,0,1,0,2424.34,0.094488,0.0942085,-6.19685,2,0.00736508,11,-0.000583796,-2.20783,0.195465,0.301845,-73.0908,0.0942085,
2,0,0,1,0,2424.37,0.0929884,0.0926843,-6.08813,2,0.00721144,11,-0.000564274,-2.21552,0.231757,0.254577,-60.6751,0.0926843,
2,0,0,1,0,2424.39,0.0914889,0.0911922,-6.00396,2,0.00706019,11,-0.000547514,-2.22156,0.238372,0.247513,-58.0766,0.0911922,
2,0,0,1,0,2424.42,0.0899894,0.0896716,-5.9223,2,0.00691097,11,-0.000531062,-2.22751,0.231058,0.255347,-58.9539,0.0896716,
2,0,0,1,0,2424.44,0.0884951,0.0882109,-5.83693,2,0.00676451,11,-0.000514881,-2.23382,0.256971,0.229598,-52.3583,0.08821094,
2,0,0,1,0,2424.47,0.0869943,0.0866538,-5.76124,2,0.00661954,11,-0.000499234,-2.23948,0.29492,0.200054,-45.0371,0.0866538,
2,0,0,1,0,2424.49,0.0854935,0.0852062,-5.69102,2,0.00647625,11,-0.00048491,-2.24481,0.288542,0.204476,-45.4716,0.0852062,
2,0,0,1,0,2424.52,0.0839993,0.0836589,-5.63279,2,0.00633514,11,-0.000471233,-2.24928,0.270178,0.218374,-47.9344,0.0836589,
2,0,0,1,0,2424.54,0.0824998,0.0822389,-5.57691,2,0.00619508,11,-0.000458639,-2.25361,0.289457,0.20383,-44.2505,0.0822389,
2,0,0,1,0,2424.57,0.0810002,0.0807014,-5.49617,2,0.00605679,11,-0.000443548,-2.25994,0.322263,0.18308,-39.3238,0.0807014,
2,0,0,1,0,2424.59,0.0795007,0.0791831,-5.42988,2,0.00592007,11,-0.000429955,-2.26521,0.322953,0.182689,-38.7798,0.0791831,
2,0,0,1,0,2424.62,0.0780078,0.0777172,-5.38555,2,0.00578531,11,-0.00041855,-2.26877,0.285837,0.206412,-43.2764,0.0777172,
2,0,0,1,0,2424.64,0.076507,0.0761641,-5.32308,2,0.0056515,11,-0.000405427,-2.27384,0.27594,0.213815,-44.2746,0.0761641,
2,0,0,1,0,2424.67,0.0750062,0.0746961,-5.24011,2,0.00551944,11,-0.000391416,-2.28066,0.288021,0.204846,-41.9446,0.0746961,
2,0,0,1,0,2424.69,0.073512,0.0732114,-5.17263,2,0.00538962,11,-0.000378696,-2.28629,0.275617,0.214065,-43.3051,0.0732114,
2,0,0,1,0,2424.72,0.0720124,0.0717334,-5.11658,2,0.0052608,11,-0.000367029,-2.29102,0.252652,0.233523,-46.6045,0.0717334,
2,0,0,1,0,2424.74,0.0705129,0.0702361,-5.05204,2,0.0051336,11,-0.000354836,-2.29653,0.2381,0.247795,-48.7707,0.0702361,
2,0,0,1,0,2424.77,0.0690187,0.06872,-4.97261,2,0.00500873,11,-0.000341718,-2.30342,0.252025,0.234104,-45.4904,0.06872002,
2,0,0,1,0,2424.79,0.0675179,0.0671933,-4.90052,2,0.00488522,11,-0.000329282,-2.30976,0.252045,0.234085,-44.8693,0.0671933,
2,0,0,1,0,2424.82,0.066017,0.0657309,-4.84986,2,0.00476333,11,-0.000318785,-2.31427,0.236567,0.249401,-47.0444,0.0657309,
2,0,0,1,0,2424.84,0.0645242,0.0642388,-4.77885,2,0.00464349,11,-0.000306988,-2.32068,0.233154,0.253052,-46.9883,0.0642388,
2,0,0,1,0,2424.87,0.0630246,0.0626876,-4.69414,2,0.00452504,11,-0.000294264,-2.32844,0.235976,0.250025,-45.8522,0.0626876,
2,0,0,1,0,2424.89,0.0615251,0.0611699,-4.62104,2,0.00440848,11,-0.000282669,-2.33526,0.230931,0.255488,-46.203,0.0611699,
2,0,0,1,0,2424.92,0.0600256,0.0597257,-4.55627,2,0.00429359,11,-0.000272126,-2.34139,0.235595,0.25043,-44.6167,0.0597257,
2,0,0,1,0,2424.94,0.0585314,0.0582218,-4.50612,2,0.00418072,11,-0.000262354,-2.3462,0.231687,0.254654,-44.6237,0.0582218,
2,0,0,1,0,2424.97,0.0570305,0.0567078,-4.43777,2,0.0040689,11,-0.000251656,-2.35284,0.250893,0.23516,-40.6721,0.0567078,
2,0,0,1,0,2424.99,0.0555297,0.0552047,-4.36412,2,0.00395886,11,-0.00024092,-2.3601,0.254584,0.231751,-39.6149,0.0552047,
2,0,0,1,0,2425.02,0.0540355,0.0537253,-4.31871,2,0.00385067,11,-0.000232024,-2.36465,0.271814,0.21706,-36.6024,0.0537253,
2,0,0,1,0,2425.04,0.052536,0.0521983,-4.27797,2,0.00374319,11,-0.000223303,-2.36876,0.303786,0.194215,-32.3466,0.0521983,
2,0,0,1,0,2425.07,0.0510364,0.0507363,-4.22312,2,0.00363696,11,-0.000214266,-2.37437,0.305157,0.193343,-31.8515,0.0507363,
2,0,0,1,0,2425.09,0.0495369,0.0492241,-4.15576,2,0.00353207,11,-0.000204563,-2.38135,0.316456,0.18644,-30.3971,0.04922406,
2,0,0,1,0,2425.12,0.0480427,0.0477129,-4.12586,2,0.00342874,11,-0.000196857,-2.38449,0.352958,0.167159,-26.94,0.0477129,
2,0,0,1,0,2425.14,0.0465432,0.0462427,-4.09929,2,0.00332594,11,-0.000189562,-2.38729,0.396366,0.148852,-23.7797,0.0462427,
2,0,0,1,0,2425.17,0.0450424,0.044713,-4.05998,2,0.00322402,11,-0.000181534,-2.39148,0.435829,0.135374,-21.4137,0.044713,
2,0,0,1,0,2425.19,0.0435482,0.0432474,-4.00913,2,0.00312331,11,-0.000173384,-2.39695,0.485568,0.121507,-19.0999,0.0432474,
2,0,0,1,0,2425.22,0.0420486,0.0417238,-3.99655,2,0.00302309,11,-0.000166751,-2.39831,0.507748,0.116199,-18.1704,0.0417238,
2,0,0,1,0,2425.24,0.0405491,0.0402486,-3.98361,2,0.0029233,11,-0.000160335,-2.39972,0.608925,0.0968921,-15.0231,0.0402486,
2,0,0,1,0,2425.27,0.0390549,0.0387313,-3.96263,2,0.00282435,11,-0.000153478,-2.40202,0.631622,0.0934103,-14.4223,0.03873134,
2,0,0,1,0,2425.29,0.0375541,0.0372493,-3.92732,2,0.00272566,11,-0.00014629,-2.4059,0.681217,0.0866097,-13.3302,0.0372493,
2,0,0,1,0,2425.32,0.0360532,0.0357854,-3.91422,2,0.00262758,11,-0.000140072,-2.40736,0.702637,0.0839693,-12.8519,0.03578537,
2,0,0,1,0,2425.34,0.034559,0.034265,-3.91241,2,0.00253012,11,-0.000134059,-2.40756,1.54356,0.0382233,-5.81749,0.034265,
2,0,0,1,0,2425.37,0.0330595,0.0327785,-3.89962,2,0.00243252,11,-0.000127824,-2.40898,2.21839,0.0265958,-4.04141,0.0327785,
2,0,0,1,0,2425.39,0.0315613,0.0312183,-3.87919,2,0.00233517,11,-0.000121102,-2.41126,1.75067,0.0337014,-5.11498,0.0312183,
2,0,0,1,0,2425.42,0.0300618,0.0297576,-3.86775,2,0.0022382,11,-0.000115095,-2.41254,1.23344,0.0478338,-7.24419,0.0297576,
2,0,0,1,0,2425.44,0.0285676,0.0282743,-3.87337,2,0.00214174,11,-0.000109517,-2.41191,-14.2792,-0.00413188,0.624064,0.0282743,
2,0,0,1,0,2425.47,0.0270667,0.0267468,-3.88083,2,0.00204479,11,-0.0001038,-2.41107,-4.04813,-0.0145746,2.1991,0.0267468,
2,0,0,1,0,2425.49,0.0255659,0.0253059,-3.86553,2,0.00194783,11,-9.78208e-05,-2.41279,3.21646,0.0183431,-2.77401,0.0253059,
2,0,0,1,0,2425.52,0.0240717,0.0237856,-3.85594,2,0.00185151,11,-9.17157e-05,-2.41387,2.21339,0.026656,-4.02944,0.0237856,
2,0,0,1,0,2425.54,0.0225722,0.022257,-3.87523,2,0.00175476,11,-8.62512e-05,-2.4117,-2.58411,-0.0228318,3.44803,0.022257,
2,0,0,1,0,2425.57,0.0210726,0.0207695,-3.87706,2,0.00165789,11,-8.05246e-05,-2.4115,-1.60827,-0.0366854,5.54634,0.0207695,
2,0,0,1,0,2425.59,0.0195784,0.0192507,-3.87799,2,0.00156124,11,-7.46542e-05,-2.41139,-2.92715,-0.0201561,3.04986,0.01925073,
2,0,0,1,0,2425.62,0.0180789,0.0177576,-3.87497,2,0.00146413,11,-6.88104e-05,-2.41173,-6.6511,-0.00887071,1.34413,0.0177576,
2,0,0,1,0,2425.64,0.0165781,0.016295,-3.89739,2,0.00136699,11,-6.35078e-05,-2.40923,-1.42227,-0.041483,6.30329,0.016295,
2,0,0,1,0,2425.67,0.0150839,0.0147851,-3.90705,2,0.00126991,11,-5.77662e-05,-2.40815,-0.860976,-0.0685268,10.4208,0.0147851,
2,0,0,1,0,2425.69,0.0135844,0.0132566,-3.90684,2,0.00117204,11,-5.17914e-05,-2.40817,-1.42857,-0.0413,6.3034,0.0132566,
2,0,0,1,0,2425.72,0.0120848,0.0117585,-3.92152,2,0.00107397,11,-4.61112e-05,-2.40655,-3.65268,-0.0161525,2.4747,0.0117585,
2,0,0,1,0,2425.74,0.0105853,0.0102658,-3.93027,2,0.000975837,11,-4.03474e-05,-2.40558,-2.39051,-0.024681,3.7888,0.0102658,
2,0,0,1,0,2425.77,0.00909108,0.0087954,-3.94558,2,0.000877739,11,-3.4703e-05,-2.40389,-0.670478,-0.0879969,13.5355,0.0087954,
2,0,0,1,0,2425.79,0.00759027,0.00731362,-3.95582,2,0.000778873,11,-2.89314e-05,-2.40276,-0.948964,-0.0621731,9.60038,0.00731362,
2,0,0,1,0,2425.82,0.00608945,0.00576654,-3.96914,2,0.000679669,11,-2.28883e-05,-2.4013,-1.58341,-0.0372613,5.77647,0.005766545,
2,0,0,1,0,2425.84,0.00459524,0.00431289,-3.9852,2,0.000580686,11,-1.71878e-05,-2.39955,-0.904788,-0.0652087,10.1371,0.00431289,
2,0,0,1,0,2425.87,0.0030957,0.00282976,-4.00738,2,0.000480765,11,-1.13399e-05,-2.39714,-0.319558,-0.18463,28.974,0.00282976,
2,0,0,1,0,2425.89,0.00159616,0.00123597,-4.07574,2,0.000379528,11,-5.03748e-06,-2.38979, , , ,0.00123597,
2,0,0,0,0,2425.91,0.000199195,-0.00014972,-4.05207,2,0.000284632,11,6.06676e-07,-2.39232, , , ,-0.0001497202,