File: Figure_codes/Fig_3-5/rawdata_trumpetplot_data/before 10th/20221101_1-115_002_TrumpetPlot_ParaChange_16_CV_C01.mpt
EC-Lab ASCII FILE
Nb header lines : 68

Cyclic Voltammetry

Run on channel : 1 (SN 65296)
User :
CE vs. WE compliance from -10 V to 10 V
Electrode connection : standard
Potential control : Ewe
Ewe ctrl range : min = -1.00 V, max = 1.00 V
Safety Limits :
	Do not start on E overload
Acquisition started on : 11/08/2022 17:30:03.488
Loaded Setting File :  NONE
Saved on :
	File : 20221101_1-115_002_TrumpetPlot_ParaChange_16_CV_C01.mpr
	Directory : C:\Users\NakamuraT\Documents\EC-Lab\Data\Yatsuzuka\20221108_1-115_001_TrumpetPlot\
	Host : 192.109.209.100
Device : SP-50e (SN .003219)
Address : 192.109.209.128
EC-Lab for windows v11.43 (software)
Internet server v11.40 (firmware)
Command interpretor v11.40 (firmware)
Electrode material : Au/Pd
Initial state :
Electrolyte : NaCl (0.2M)
Comments : Fe(CN)63-/Fe(CN)64- 5.10-3 M
Reference electrode : SCE Saturated Calomel Electrode (0.241 V)
Electrode surface area : 0.001 cm2
Characteristic mass : 0.001 g
Equivalent Weight : 0.000 g/eq.
Density : 0.000 g/cm3
Volume (V) : 0.001 cm3
Cycle Definition : Charge/Discharge alternance
Ei (V)              0.000
vs.                 Ref
dE/dt               1000.000
dE/dt unit          mV/s
E1 (V)              0.300
vs.                 Ref
Step percent        50
N                   10
E range min (V)     -1.000
E range max (V)     1.000
I Range             100 mA
I Range min         Unset
I Range max         Unset
I Range init        Unset
Bandwidth           5
E2 (V)              -0.200
vs.                 Ref
nc cycles           0
Reverse Scan        1
Ef (V)              0.000
vs.                 Ref

Number of loops : 8
Loop 0 from point number 0 to 508
Loop 1 from point number 509 to 1017
Loop 2 from point number 1018 to 1526
Loop 3 from point number 1527 to 2035
Loop 4 from point number 2036 to 2544
Loop 5 from point number 2545 to 3053
Loop 6 from point number 3054 to 3562
Loop 7 from point number 3563 to 4071

mode	ox/red	error	control changes	counter inc.	time/s	control/V	Ewe/V	<I>/mA	cycle number	(Q-Qo)/C	I Range	P/W
2	1	0	0	0	1219.08	2.44065e-05	-0.00145148	57.7662	1	0.0000000E+000	10	-8.38462e-05
2	1	0	1	0	1219.09	0.011111	0.0108249	56.5146	1	0.000633785	10	0.000611762
2	1	0	1	0	1219.1	0.0231465	0.0228435	56.9003	1	0.0013133	10	0.0012998
2	1	0	1	0	1219.11	0.035132	0.0348367	57.1857	1	0.00199783	10	0.00199216
2	1	0	1	0	1219.13	0.0471175	0.0468405	57.2416	1	0.00268474	10	0.00268122
2	1	0	1	0	1219.14	0.059103	0.0587255	57.1305	1	0.00337058	10	0.00335502
2	1	0	1	0	1219.15	0.0711385	0.0708555	57.3077	1	0.00405759	10	0.00406057
2	1	0	1	0	1219.16	0.083124	0.082837	57.6677	1	0.00474722	10	0.00477702
2	1	0	1	0	1219.17	0.0951095	0.0947666	58.6569	1	0.00544441	10	0.00555871
2	1	0	1	0	1219.19	0.107145	0.106879	60.5849	1	0.006159	10	0.00647523
2	1	0	1	0	1219.2	0.119131	0.118833	63.3899	1	0.00690197	10	0.00753278
2	1	0	1	0	1219.21	0.131116	0.130806	67.1147	1	0.00768441	10	0.00877898
2	1	0	1	0	1219.22	0.143102	0.142752	71.8406	1	0.00851779	10	0.0102554
2	1	0	1	0	1219.23	0.155137	0.1548	77.5704	1	0.00941419	10	0.0120079
2	1	0	1	0	1219.25	0.167123	0.166774	84.255	1	0.0103849	10	0.0140515
2	1	0	1	0	1219.26	0.179108	0.178731	91.9415	1	0.011442	10	0.0164328
2	1	0	1	0	1219.27	0.191143	0.190818	100.289	1	0.012596	10	0.019137
2	1	0	1	0	1219.28	0.203129	0.202769	108.434	1	0.0138498	10	0.021987
2	1	0	1	0	1219.29	0.215115	0.214779	115.219	1	0.0151943	10	0.0247466
2	1	0	1	0	1219.31	0.227108	0.226846	119.01	1	0.0166041	10	0.0269969
2	1	0	1	0	1219.32	0.239136	0.238883	117.395	1	0.0180293	10	0.0280437
2	1	0	1	0	1219.33	0.251121	0.250921	108.306	1	0.0193903	10	0.0271763
2	1	0	1	0	1219.34	0.263107	0.262932	92.443	1	0.0205985	10	0.0243062
2	1	0	1	0	1219.35	0.275142	0.274996	73.5657	1	0.0215932	10	0.0202303
2	1	0	1	0	1219.37	0.287128	0.286993	56.3593	1	0.0223673	10	0.0161747
2	1	0	1	0	1219.38	0.298913	0.298702	44.4065	1	0.0229554	10	0.0132643
2	1	0	1	0	1219.38	0.294718	0.294755	22.9558	1	0.0231748	10	0.00676634
2	0	0	1	0	1219.4	0.282733	0.282609	-4.62162	1	0.0232612	10	-0.00130611
2	0	0	1	0	1219.41	0.270747	0.27058	-17.1689	1	0.0231196	10	-0.00464555
2	0	0	1	0	1219.42	0.258712	0.258519	-23.0536	1	0.0228731	10	-0.0059598
2	0	0	1	0	1219.43	0.246726	0.246508	-26.012	1	0.0225766	10	-0.00641215
2	0	0	1	0	1219.44	0.234741	0.234524	-27.8585	1	0.0222526	10	-0.00653349
2	0	0	1	0	1219.46	0.222705	0.222485	-29.4229	1	0.0219087	10	-0.00654615
2	0	0	1	0	1219.47	0.21072	0.210498	-31.0058	1	0.0215462	10	-0.00652668
2	0	0	1	0	1219.48	0.198734	0.198505	-32.964	1	0.0211627	10	-0.00654352
2	0	0	1	0	1219.49	0.186735	0.186508	-35.5936	1	0.0207519	10	-0.00663848
2	0	0	1	0	1219.5	0.174713	0.174503	-39.199	1	0.0203036	10	-0.00684034
2	0	0	1	0	1219.52	0.162728	0.162527	-43.9371	1	0.0198056	10	-0.00714095
2	0	0	1	0	1219.53	0.150742	0.150503	-50.1548	1	0.0192419	10	-0.00754843
2	0	0	1	0	1219.54	0.138707	0.138567	-57.8819	1	0.0185942	10	-0.0080205
2	0	0	1	0	1219.55	0.126721	0.126563	-66.9909	1	0.0178449	10	-0.00847856
2	0	0	1	0	1219.56	0.114736	0.114696	-76.6352	1	0.0169822	10	-0.00878974
2	0	0	1	0	1219.58	0.102703	0.102667	-86.7533	1	0.0160005	10	-0.00890667
2	0	0	1	0	1219.59	0.0907148	0.0906098	-96.2843	1	0.0149011	10	-0.0087243
2	0	0	1	0	1219.6	0.0787293	0.0785859	-104.455	1	0.013694	10	-0.00820868
2	0	0	1	0	1219.61	0.0667438	0.0665132	-110.266	1	0.0124021	10	-0.00733413
2	0	0	1	0	1219.62	0.0547083	0.0544691	-112.767	1	0.0110598	10	-0.00614233
2	0	0	1	0	1219.64	0.0427228	0.0424769	-111.063	1	0.0097128	10	-0.00471761
2	0	0	1	0	1219.65	0.0307373	0.0304774	-105.877	1	0.00840881	10	-0.00322686
2	0	0	1	0	1219.66	0.0187018	0.0183983	-98.6269	1	0.00718167	10	-0.00181456
2	0	0	1	0	1219.67	0.00671632	0.00646764	-90.6558	1	0.00604654	10	-0.000586329
2	0	0	1	0	1219.68	-0.0052692	-0.00562842	-82.8501	1	0.00500663	10	0.000466315
2	0	0	1	0	1219.7	-0.0172547	-0.0175941	-75.5379	1	0.00405793	10	0.00132902
2	0	0	1	0	1219.71	-0.0292902	-0.0296042	-69.7034	1	0.00318857	10	0.00206351
2	0	0	1	0	1219.72	-0.0412757	-0.0416017	-65.7494	1	0.00237814	10	0.00273529
2	0	0	1	0	1219.73	-0.0532612	-0.0535132	-63.6088	1	0.00160369	10	0.00340391
2	0	0	1	0	1219.74	-0.0652967	-0.0655838	-62.8559	1	0.000846398	10	0.00412233
2	0	0	1	0	1219.76	-0.0772822	-0.0775633	-62.9119	1	9.24956e-05	10	0.00487965
2	0	0	1	0	1219.77	-0.0892678	-0.0895543	-63.6028	1	-0.00066606	10	0.0056959
2	0	0	1	0	1219.78	-0.101253	-0.101544	-64.6775	1	-0.0014355	10	0.00656763
2	0	0	1	0	1219.79	-0.113289	-0.113544	-66.1576	1	-0.00222076	10	0.00751179
2	0	0	1	0	1219.8	-0.125274	-0.12558	-67.7473	1	-0.00302402	10	0.00850767
2	0	0	1	0	1219.82	-0.13726	-0.137524	-69.5434	1	-0.0038478	10	0.00956389
2	0	0	1	0	1219.83	-0.149295	-0.149539	-71.6241	1	-0.00469474	10	0.0107106
2	0	0	1	0	1219.84	-0.161281	-0.161553	-73.727	1	-0.00556699	10	0.0119108
2	0	0	1	0	1219.85	-0.173266	-0.173469	-76.0458	1	-0.00646576	10	0.0131916
2	0	0	1	0	1219.86	-0.185252	-0.185517	-78.6033	1	-0.00739354	10	0.0145822
2	0	0	1	0	1219.88	-0.197287	-0.197564	-81.5932	1	-0.00835509	10	0.0161199
2	0	0	1	1	1219.88	-0.196688	-0.197216	-70.804	1	-0.00885886	10	0.0139637
2	0	0	1	1	1219.89	-0.184653	-0.185117	-38.1481	1	-0.00949931	10	0.00706187
2	0	0	1	1	1219.91	-0.172667	-0.17309	-13.855	1	-0.00980254	10	0.00239816
2	1	0	1	1	1219.92	-0.160682	-0.161188	5.00985	1	-0.00984917	10	-0.000807528
2	1	0	1	1	1219.93	-0.148696	-0.149218	19.9566	1	-0.00969427	10	-0.00297789
2	1	0	1	1	1219.94	-0.136661	-0.137065	32.1892	1	-0.00937726	10	-0.004412
2	1	0	1	1	1219.95	-0.124675	-0.125084	41.6199	1	-0.00893109	10	-0.00520599
2	1	0	1	1	1219.97	-0.112689	-0.113058	48.8558	1	-0.00838566	10	-0.00552356
2	1	0	1	1	1219.98	-0.100654	-0.10101	54.4301	1	-0.00776407	10	-0.00549797
2	1	0	1	1	1219.99	-0.0886685	-0.0890178	58.4434	1	-0.0070851	10	-0.0052025
2	1	0	1	1	1220	-0.076683	-0.0769811	61.3392	1	-0.00636501	10	-0.00472196
2	1	0	1	1	1220.01	-0.0646974	-0.0650579	63.3886	1	-0.00561568	10	-0.00412393
2	1	0	1	1	1220.03	-0.052662	-0.0529798	64.8601	1	-0.00484516	10	-0.00343627
2	1	0	1	1	1220.04	-0.0406764	-0.0409898	65.743	1	-0.00406104	10	-0.00269479
2	1	0	1	1	1220.05	-0.0286909	-0.0290178	66.2033	1	-0.00326902	10	-0.00192108
2	1	0	1	1	1220.06	-0.0166554	-0.0169536	66.3995	1	-0.00247315	10	-0.00112571
2	1	0	1	1	1220.07	-0.00466992	-0.00503353	66.1641	1	-0.00167753	10	-0.000333039
2	1	0	1	0	2450.71	0.00112308	0.000842184	59.2403	2	6.52615e-05	10	4.98912e-05
2	1	0	1	0	2450.72	0.0131086	0.0127389	56.6027	2	0.00075118	10	0.000721056
2	1	0	1	0	2450.73	0.0251441	0.024818	57.0805	2	0.00143283	10	0.00141662
2	1	0	1	0	2450.74	0.0371296	0.0368016	57.377	2	0.00211996	10	0.00211157
2	1	0	1	0	2450.76	0.0491151	0.0487047	57.3398	2	0.00280879	10	0.00279272
2	1	0	1	0	2450.77	0.0611006	0.0607668	57.6392	2	0.00349863	10	0.00350255
2	1	0	1	0	2450.78	0.0731361	0.0728554	58.0583	2	0.0041931	10	0.00422987
2	1	0	1	0	2450.79	0.0851216	0.084819	58.9489	2	0.00489454	10	0.00499999
2	1	0	1	0	2450.8	0.0971071	0.0968206	60.6152	2	0.00561122	10	0.0058688
2	1	0	1	0	2450.82	0.109143	0.108819	63.3178	2	0.0063542	10	0.00689019
2	1	0	1	0	2450.83	0.121128	0.120809	66.8315	2	0.00713451	10	0.00807386
2	1	0	1	0	2450.84	0.133114	0.132803	71.2125	2	0.00796249	10	0.00945727
2	1	0	1	0	2450.85	0.14513	0.144786	76.4598	2	0.00884783	10	0.0110703
2	1	0	1	0	2450.86	0.157135	0.156853	82.4831	2	0.00980134	10	0.0129378
2	1	0	1	0	2450.88	0.16912	0.168773	89.4276	2	0.0108325	10	0.015093
2	1	0	1	0	2450.89	0.181106	0.180753	97.1546	2	0.0119522	10	0.017561
2	1	0	1	0	2450.9	0.193141	0.19279	105.275	2	0.0131679	10	0.0202959
2	1	0	1	0	2450.91	0.205127	0.204839	112.626	2	0.0144773	10	0.0230702
2	1	0	1	0	2450.92	0.217112	0.216752	117.789	2	0.0158636	10	0.0255309
2	1	0	1	0	2450.94	0.229148	0.228851	118.56	2	0.0172871	10	0.0271325
2	1	0	1	0	2450.95	0.241133	0.24091	112.236	2	0.0186787	10	0.0270388
2	1	0	1	0	2450.96	0.253119	0.252973	98.5038	2	0.0199482	10	0.0249188
2	1	0	1	0	2450.97	0.265104	0.264997	80.1647	2	0.0210207	10	0.0212434
2	1	0	1	0	2450.98	0.27714	0.277003	61.9147	2	0.0218693	10	0.0171505
2	1	0	1	0	2451	0.289125	0.288941	47.6276	2	0.02252	10	0.0137616
2	1	0	0	0	2451.01	0.299812	0.299632	39.4783	2	0.0229818	10	0.011829
2	1	0	1	0	2451.01	0.292721	0.292726	12.9153	2	0.0231701	10	0.00378065
2	0	0	1	0	2451.03	0.280735	0.280601	-10.2187	2	0.0231656	10	-0.00286738
2	0	0	1	0	2451.04	0.268714	0.26852	-20.37	2	0.0229737	10	-0.00546974
2	0	0	1	0	2451.05	0.256714	0.256481	-24.9111	2	0.0226981	10	-0.00638921
2	0	0	1	0	2451.06	0.244729	0.244474	-27.2028	2	0.022384	10	-0.00665038
2	0	0	1	0	2451.07	0.232743	0.232531	-28.6435	2	0.0220484	10	-0.00666051
2	0	0	1	0	2451.09	0.220708	0.22052	-30.0136	2	0.0216961	10	-0.00661861
2	0	0	1	0	2451.1	0.208722	0.208492	-31.4397	2	0.0213276	10	-0.00655492
2	0	0	1	0	2451.11	0.196737	0.196497	-33.3392	2	0.020939	10	-0.00655104
2	0	0	1	0	2451.12	0.184701	0.184466	-36.0507	2	0.0205238	10	-0.00665014
2	0	0	1	0	2451.13	0.172716	0.172491	-39.6169	2	0.0200706	10	-0.00683356
2	0	0	1	0	2451.15	0.16073	0.160517	-44.5658	2	0.0195665	10	-0.00715358
2	0	0	1	0	2451.16	0.148745	0.148557	-51.08	2	0.0189937	10	-0.00758829
2	0	0	1	0	2451.17	0.136709	0.136547	-59.2854	2	0.0183319	10	-0.00809522
2	0	0	1	0	2451.18	0.124724	0.124552	-68.8217	2	0.0175633	10	-0.00857191
2	0	0	1	0	2451.19	0.112738	0.112636	-78.8144	2	0.0166769	10	-0.0088773
2	0	0	1	0	2451.21	0.100703	0.100655	-88.9787	2	0.0156688	10	-0.00895616
2	0	0	1	0	2451.22	0.0887173	0.0885579	-98.3218	2	0.0145435	10	-0.00870718
2	0	0	1	0	2451.23	0.0767317	0.0765245	-105.923	2	0.013315	10	-0.00810567
2	0	0	1	0	2451.24	0.0647462	0.0645737	-110.839	2	0.012011	10	-0.00715729
2	0	0	1	0	2451.25	0.0527107	0.0524437	-112.289	2	0.0106681	10	-0.00588882
2	0	0	1	0	2451.27	0.0407252	0.0404484	-109.94	2	0.00933162	10	-0.00444691
2	0	0	1	0	2451.28	0.0287397	0.0284679	-104.768	2	0.00804187	10	-0.00298253
2	0	0	1	0	2451.29	0.0167043	0.0164132	-98.1975	2	0.00682389	10	-0.00161173
2	0	0	1	0	2451.3	0.00471873	0.00441787	-90.8748	2	0.00568972	10	-0.000401473
2	0	0	1	0	2451.31	-0.00726679	-0.00758275	-83.3289	2	0.00464483	10	0.000631862
2	0	0	1	0	2451.33	-0.0192523	-0.0195972	-76.0439	2	0.00369007	10	0.00149024
2	0	0	1	0	2451.34	-0.0312878	-0.0315978	-70.0941	2	0.00281529	10	0.00221482
2	0	0	1	0	2451.35	-0.0432733	-0.0435836	-66.064	2	0.00200068	10	0.0028793
2	0	0	1	0	2451.36	-0.0552588	-0.0555715	-63.9062	2	0.00122275	10	0.00355136
2	0	0	1	0	2451.37	-0.0672943	-0.0676219	-63.1467	2	0.000461708	10	0.0042701
2	0	0	1	0	2451.39	-0.0792798	-0.0795356	-63.2535	2	-0.000296003	10	0.00503091
2	0	0	1	0	2451.4	-0.0912653	-0.0915691	-63.9438	2	-0.00105871	10	0.00585528
2	0	0	1	0	2451.41	-0.10327	-0.103538	-65.1144	2	-0.00183282	10	0.00674181
2	0	0	1	0	2451.42	-0.115286	-0.115584	-66.5933	2	-0.00262323	10	0.00769713
2	0	0	1	0	2451.43	-0.127272	-0.127561	-68.2209	2	-0.00343206	10	0.00870236
2	0	0	1	0	2451.45	-0.139257	-0.139509	-70.1	2	-0.00426194	10	0.00977959
2	0	0	1	0	2451.46	-0.151293	-0.151561	-72.1956	2	-0.0051158	10	0.010942
2	0	0	1	0	2451.47	-0.163278	-0.163555	-74.363	2	-0.00599534	10	0.0121624
2	0	0	1	0	2451.48	-0.175264	-0.175506	-76.7237	2	-0.00690189	10	0.0134654
2	0	0	1	0	2451.49	-0.187299	-0.187564	-79.435	2	-0.00783841	10	0.0148991
2	0	0	1	0	2451.51	-0.199085	-0.199326	-82.3966	2	-0.0087931	10	0.0164238
2	0	0	1	1	2451.51	-0.19469	-0.195221	-64.0976	2	-0.00928395	10	0.0125132
2	0	0	1	1	2451.52	-0.182655	-0.183095	-32.4167	2	-0.00985005	10	0.00593534
2	0	0	1	1	2451.54	-0.170669	-0.171144	-8.84303	2	-0.0100891	10	0.00151343
2	1	0	1	1	2451.55	-0.158684	-0.159188	9.43363	2	-0.0100796	10	-0.00150172
2	1	0	1	1	2451.56	-0.146698	-0.147223	23.9418	2	-0.00987501	10	-0.0035248
2	1	0	1	1	2451.57	-0.134663	-0.135096	35.7158	2	-0.00951271	10	-0.00482505
2	1	0	1	1	2451.58	-0.122677	-0.123099	44.7171	2	-0.00902697	10	-0.00550464
2	1	0	1	1	2451.6	-0.110692	-0.111072	51.6717	2	-0.00844618	10	-0.00573928
2	1	0	1	1	2451.61	-0.0986564	-0.0989962	56.9735	2	-0.00779258	10	-0.00564016
2	1	0	1	1	2451.62	-0.0866709	-0.0870242	60.7703	2	-0.00708453	10	-0.00528849
2	1	0	1	1	2451.63	-0.0746854	-0.0750564	63.4954	2	-0.00633781	10	-0.00476574
2	1	0	1	1	2451.64	-0.0626915	-0.0630484	65.3673	2	-0.00556371	10	-0.0041213
2	1	0	1	1	2451.66	-0.0506644	-0.0509873	66.6813	2	-0.00477017	10	-0.0033999
2	1	0	1	1	2451.67	-0.0386789	-0.0390153	67.3861	2	-0.00396519	10	-0.00262909
2	1	0	1	1	2451.68	-0.0266933	-0.0270423	67.6841	2	-0.00315422	10	-0.00183033
2	1	0	1	1	2451.69	-0.0146579	-0.0150077	67.7016	2	-0.00234159	10	-0.00101605
2	1	0	1	1	2451.7	-0.00267234	-0.0030283	67.25	2	-0.00153164	10	-0.000203653
2	1	0	1	0	3682.34	0.00312067	0.0028262	57.2922	3	0.000181706	10	0.000161919
2	1	0	1	0	3682.35	0.0151062	0.0147091	55.1471	3	0.000850951	10	0.000811165
2	1	0	1	0	3682.36	0.0271416	0.0268009	55.2078	3	0.00151287	10	0.00147962
2	1	0	1	0	3682.37	0.0391272	0.0387941	55.283	3	0.00217583	10	0.00214465
2	1	0	1	0	3682.39	0.0511127	0.0507534	55.3354	3	0.00283972	10	0.00280846
2	1	0	1	0	3682.4	0.0631481	0.0627593	55.5476	3	0.003504	10	0.00348613
2	1	0	1	0	3682.41	0.0751337	0.0748098	56.0615	3	0.0041735	10	0.00419395
2	1	0	1	0	3682.42	0.0871192	0.0868019	57.0132	3	0.00485132	10	0.00494885
2	1	0	1	0	3682.43	0.0991047	0.0987951	58.6905	3	0.00554498	10	0.00579833
2	1	0	1	0	3682.45	0.11114	0.110796	61.2581	3	0.00626425	10	0.00678714
2	1	0	1	0	3682.46	0.123126	0.122831	64.4704	3	0.00701822	10	0.00791899
2	1	0	1	0	3682.47	0.135111	0.134745	68.3833	3	0.00781517	10	0.00921431
2	1	0	1	0	3682.48	0.147147	0.146824	72.9648	3	0.00866281	10	0.010713
2	1	0	1	0	3682.49	0.159132	0.158794	78.0837	3	0.00956898	10	0.0123992
2	1	0	1	0	3682.51	0.171118	0.170762	83.9516	3	0.010541	10	0.0143357
2	1	0	1	0	3682.52	0.183103	0.182754	90.4539	3	0.0115875	10	0.0165308
2	1	0	1	0	3682.53	0.195139	0.194816	97.3693	3	0.0127154	10	0.0189691
2	1	0	1	0	3682.54	0.207124	0.206823	103.831	3	0.0139239	10	0.0214745
2	1	0	1	0	3682.55	0.21911	0.218797	108.863	3	0.0152028	10	0.0238189
2	1	0	1	0	3682.57	0.231145	0.230874	110.699	3	0.0165246	10	0.0255575
2	1	0	1	0	3682.58	0.243131	0.242881	106.876	3	0.017836	10	0.0259581
2	1	0	1	0	3682.59	0.255116	0.254854	96.6323	3	0.019062	10	0.0246271
2	1	0	1	0	3682.6	0.267102	0.266907	81.7191	3	0.0201335	10	0.0218114
2	1	0	1	0	3682.61	0.279137	0.278994	66.0772	3	0.0210179	10	0.0184351
2	1	0	1	0	3682.63	0.291123	0.29092	53.1775	3	0.0217281	10	0.0154704
2	1	0	1	0	3682.64	0.300012	0.299785	46.3494	3	0.022169	10	0.0138948
2	1	0	1	0	3682.64	0.290723	0.290753	17.1346	3	0.0224487	10	0.00498195
2	0	0	1	0	3682.66	0.278738	0.278576	-3.30754	3	0.0225161	10	-0.000921402
2	0	0	1	0	3682.67	0.266702	0.266494	-13.7436	3	0.0224064	10	-0.00366259
2	0	0	1	0	3682.68	0.254717	0.254532	-19.2841	3	0.0222045	10	-0.0049084
2	0	0	1	0	3682.69	0.242731	0.242464	-22.5133	3	0.0219521	10	-0.00545868
2	0	0	1	0	3682.7	0.230746	0.230555	-24.7267	3	0.0216677	10	-0.00570085
2	0	0	1	0	3682.72	0.21871	0.218487	-26.575	3	0.0213594	10	-0.0058063
2	0	0	1	0	3682.73	0.206725	0.206505	-28.2912	3	0.0210301	10	-0.00584227
2	0	0	1	0	3682.74	0.194739	0.194454	-30.2493	3	0.020679	10	-0.00588211
2	0	0	1	0	3682.75	0.182704	0.182415	-32.7426	3	0.0203015	10	-0.00597273
2	0	0	1	0	3682.76	0.170718	0.170462	-35.9349	3	0.01989	10	-0.00612552
2	0	0	1	0	3682.78	0.158733	0.158484	-40.2115	3	0.0194339	10	-0.00637289
2	0	0	1	0	3682.79	0.146747	0.146566	-45.8486	3	0.0189184	10	-0.00671986
2	0	0	1	0	3682.8	0.134712	0.134488	-52.9917	3	0.0183257	10	-0.00712676
2	0	0	1	0	3682.81	0.122726	0.122577	-61.2368	3	0.0176407	10	-0.00750621
2	0	0	1	0	3682.82	0.110741	0.110553	-70.156	3	0.0168516	10	-0.00775595
2	0	0	1	0	3682.84	0.0987052	0.0986456	-78.9866	3	0.0159564	10	-0.00779168
2	0	0	1	0	3682.85	0.0867197	0.0866535	-87.2062	3	0.0149573	10	-0.00755672
2	0	0	1	0	3682.86	0.0747341	0.0745616	-94.4607	3	0.0138651	10	-0.00704315
2	0	0	1	0	3682.87	0.0627403	0.0625483	-99.6906	3	0.0126975	10	-0.00623547
2	0	0	1	0	3682.88	0.0507132	0.0504639	-102.373	3	0.0114817	10	-0.00516613
2	0	0	1	0	3682.9	0.0387276	0.0384898	-102.081	3	0.0102524	10	-0.00392907
2	0	0	1	0	3682.91	0.0267421	0.0264839	-99.4176	3	0.00904188	10	-0.00263296
2	0	0	1	0	3682.92	0.0147067	0.014443	-95.4432	3	0.00787227	10	-0.00137848
2	0	0	1	0	3682.93	0.00272115	0.00243173	-90.5941	3	0.00675588	10	-0.000220301
2	0	0	1	0	3682.94	-0.00926438	-0.00959964	-84.9794	3	0.00570182	10	0.000815772
2	0	0	1	0	3682.96	-0.0212915	-0.0216024	-78.7874	3	0.00471989	10	0.00170199
2	0	0	1	0	3682.97	-0.0332854	-0.0336189	-72.8342	3	0.00381163	10	0.00244861
2	0	0	1	0	3682.98	-0.0452709	-0.045592	-68.3138	3	0.00296694	10	0.00311456
2	0	0	1	0	3682.99	-0.0572564	-0.0576255	-65.4246	3	0.00216635	10	0.00377012
2	0	0	1	0	3683	-0.0692919	-0.0696282	-63.9557	3	0.00139119	10	0.00445312
2	0	0	1	0	3683.02	-0.0812774	-0.081561	-63.3958	3	0.00062793	10	0.00517062
2	0	0	1	0	3683.03	-0.0932629	-0.0935436	-63.5304	3	-0.000133158	10	0.00594286
2	0	0	1	0	3683.04	-0.105298	-0.105653	-64.2589	3	-0.000899235	10	0.00678917
2	0	0	1	0	3683.05	-0.117284	-0.117563	-65.2223	3	-0.00167587	10	0.00766773
2	0	0	1	0	3683.06	-0.129269	-0.12956	-66.4719	3	-0.00246593	10	0.00861212
2	0	0	1	0	3683.08	-0.141255	-0.141538	-67.972	3	-0.00327254	10	0.00962059
2	0	0	1	0	3683.09	-0.15329	-0.153582	-69.7288	3	-0.00409889	10	0.0107091
2	0	0	1	0	3683.1	-0.165276	-0.165528	-71.56	3	-0.00494656	10	0.0118452
2	0	0	1	0	3683.11	-0.177261	-0.177524	-73.5637	3	-0.00581721	10	0.0130593
2	0	0	1	0	3683.12	-0.189297	-0.189554	-75.86	3	-0.0067135	10	0.0143796
2	0	0	1	0	3683.14	-0.199984	-0.200284	-78.1144	3	-0.00753721	10	0.0156451
2	0	0	1	1	3683.14	-0.192693	-0.193172	-56.8615	3	-0.00805352	10	0.010984
2	0	0	1	1	3683.15	-0.180657	-0.181074	-30.7589	3	-0.00856913	10	0.00556963
2	0	0	1	1	3683.17	-0.168672	-0.169103	-10.7875	3	-0.00881178	10	0.00182419
2	1	0	1	1	3683.18	-0.156686	-0.157187	5.01695	3	-0.00884132	10	-0.0007886
2	1	0	1	1	3683.19	-0.14467	-0.145198	17.8885	3	-0.00870011	10	-0.00259738
2	1	0	1	1	3683.2	-0.132665	-0.133073	28.4983	3	-0.00841846	10	-0.00379236
2	1	0	1	1	3683.21	-0.12068	-0.121084	37.0008	3	-0.00802252	10	-0.00448023
2	1	0	1	1	3683.23	-0.108694	-0.109086	43.7679	3	-0.00753579	10	-0.00477447
2	1	0	1	1	3683.24	-0.0966588	-0.0970122	49.163	3	-0.00697622	10	-0.00476941
2	1	0	1	1	3683.25	-0.0846733	-0.0850529	53.3266	3	-0.00635997	10	-0.00453559
2	1	0	1	1	3683.26	-0.0726878	-0.0730427	56.4668	3	-0.00570017	10	-0.00412449
2	1	0	1	1	3683.27	-0.0606523	-0.0610071	58.9585	3	-0.00500711	10	-0.00359689
2	1	0	1	1	3683.29	-0.0486668	-0.0489757	60.7013	3	-0.00428857	10	-0.00297289
2	1	0	1	1	3683.3	-0.0366813	-0.0370271	61.959	3	-0.00355196	10	-0.00229416
2	1	0	1	1	3683.31	-0.0246957	-0.0250392	62.7951	3	-0.00280302	10	-0.00157234
2	1	0	1	1	3683.32	-0.0126603	-0.0129834	63.2528	3	-0.00204607	10	-0.000821237
2	1	0	1	1	3683.33	-0.000974387	-0.00133536	63.328	3	-0.00130511	10	-8.45658e-05
2	1	0	1	0	4913.97	0.00511825	0.0048537	56.2538	4	0.000296116	10	0.000273039
2	1	0	1	0	4913.98	0.0171038	0.0167769	54.6194	4	0.000957513	10	0.000916345
2	1	0	1	0	4913.99	0.0291392	0.0288242	54.6267	4	0.00161292	10	0.00157457
2	1	0	1	0	4914	0.0411248	0.040793	54.7102	4	0.00226876	10	0.00223179
2	1	0	1	0	4914.02	0.0531103	0.0527682	54.8283	4	0.00292596	10	0.00289319
2	1	0	1	0	4914.03	0.0651457	0.0647773	55.191	4	0.00358525	10	0.00357512
2	1	0	1	0	4914.04	0.0771312	0.0768246	55.9639	4	0.00425202	10	0.0042994
2	1	0	1	0	4914.05	0.0891168	0.088805	57.2124	4	0.00493056	10	0.00508075
2	1	0	1	0	4914.06	0.101102	0.100788	59.2022	4	0.00562865	10	0.00596685
2	1	0	1	0	4914.08	0.113138	0.112835	62.0145	4	0.00635578	10	0.0069974
2	1	0	1	0	4914.09	0.125123	0.124804	65.3996	4	0.00711998	10	0.00816211
2	1	0	1	0	4914.1	0.137109	0.136774	69.3554	4	0.00792838	10	0.00948598
2	1	0	1	0	4914.11	0.149144	0.148755	73.8728	4	0.00878757	10	0.010989
2	1	0	1	0	4914.12	0.16113	0.160775	78.8909	4	0.00970414	10	0.0126837
2	1	0	1	0	4914.14	0.173115	0.172739	84.5134	4	0.0106845	10	0.0145988
2	1	0	1	0	4914.15	0.185101	0.184753	90.619	4	0.0117357	10	0.0167421
2	1	0	1	0	4914.16	0.197136	0.196802	96.8682	4	0.0128619	10	0.0190639
2	1	0	1	0	4914.17	0.209122	0.208851	102.392	4	0.0140589	10	0.0213847
2	1	0	1	0	4914.18	0.221107	0.220852	106.028	4	0.0153125	10	0.0234164
2	1	0	1	0	4914.2	0.233143	0.232884	105.966	4	0.0165891	10	0.0246778
2	1	0	1	0	4914.21	0.245128	0.244894	100.259	4	0.0178317	10	0.0245528
2	1	0	1	0	4914.22	0.257114	0.256894	89.1496	4	0.0189715	10	0.022902
2	1	0	1	0	4914.23	0.269124	0.268964	75.0318	4	0.0199562	10	0.0201808
2	1	0	1	0	4914.24	0.281135	0.280948	61.3988	4	0.0207718	10	0.0172499
2	1	0	1	0	4914.26	0.29312	0.292921	50.8109	4	0.0214402	10	0.0148835
2	1	0	0	0	4914.26	0.299812	0.299899	45.9449	4	0.021784	10	0.0137788
2	1	0	1	0	4914.27	0.288726	0.288694	14.1908	4	0.0220937	10	0.00409679
2	0	0	1	0	4914.29	0.27674	0.276588	-3.46789	4	0.0221452	10	-0.000959177
2	0	0	1	0	4914.3	0.264705	0.264508	-12.8019	4	0.0220411	10	-0.00338622
2	0	0	1	0	4914.31	0.252719	0.252498	-17.967	4	0.0218533	10	-0.00453662
2	0	0	1	0	4914.32	0.240734	0.240517	-21.133	4	0.0216171	10	-0.00508286
2	0	0	1	0	4914.33	0.228748	0.228539	-23.3909	4	0.021349	10	-0.00534573
2	0	0	1	0	4914.35	0.216713	0.2165	-25.3104	4	0.0210561	10	-0.0054797
2	0	0	1	0	4914.36	0.204727	0.204447	-27.0873	4	0.0207417	10	-0.00553791
2	0	0	1	0	4914.37	0.192742	0.192538	-29.0728	4	0.0204049	10	-0.00559762
2	0	0	1	0	4914.38	0.180706	0.180458	-31.5392	4	0.0200416	10	-0.00569151
2	0	0	1	0	4914.39	0.168721	0.168492	-34.6501	4	0.019645	10	-0.00583827
2	0	0	1	0	4914.41	0.156735	0.156538	-38.8121	4	0.0192049	10	-0.00607559
2	0	0	1	0	4914.42	0.144719	0.14453	-44.3395	4	0.0187069	10	-0.00640841
2	0	0	1	0	4914.43	0.132714	0.132565	-51.2664	4	0.0181336	10	-0.00679612
2	0	0	1	0	4914.44	0.120729	0.120571	-59.278	4	0.0174707	10	-0.00714718
2	0	0	1	0	4914.45	0.108743	0.108626	-67.9	4	0.0167069	10	-0.00737571
2	0	0	1	0	4914.47	0.0967076	0.0965767	-76.3419	4	0.0158407	10	-0.00737285
2	0	0	1	0	4914.48	0.0847221	0.0846132	-84.1252	4	0.0148759	10	-0.0071181
2	0	0	1	0	4914.49	0.0727366	0.0725925	-90.9354	4	0.0138236	10	-0.00660122
2	0	0	1	0	4914.5	0.0607011	0.0605155	-95.9282	4	0.0127002	10	-0.00580514
2	0	0	1	0	4914.51	0.0487156	0.0484703	-98.4565	4	0.0115311	10	-0.00477222
2	0	0	1	0	4914.53	0.0367301	0.0364676	-98.4274	4	0.0103475	10	-0.00358941
2	0	0	1	0	4914.54	0.0247445	0.0245052	-96.3533	4	0.00917742	10	-0.00236115
2	0	0	1	0	4914.55	0.0127091	0.0124027	-93.2036	4	0.00803949	10	-0.00115598
2	0	0	1	0	4914.56	0.000723562	0.000371364	-89.2671	4	0.00694475	10	-3.31505e-05
2	0	0	1	0	4914.57	-0.011262	-0.0116006	-84.3912	4	0.00590238	10	0.000978991
2	0	0	1	0	4914.59	-0.0232974	-0.0236278	-78.8514	4	0.00492327	10	0.00186308
2	0	0	1	0	4914.6	-0.035283	-0.0355913	-73.2379	4	0.00401195	10	0.00260663
2	0	0	1	0	4914.61	-0.0472685	-0.047558	-68.7949	4	0.00316156	10	0.00327175
2	0	0	1	0	4914.62	-0.059254	-0.0595416	-65.8599	4	0.00235531	10	0.00392141
2	0	0	1	0	4914.63	-0.0712895	-0.0716207	-64.3044	4	0.0015752	10	0.00460553
2	0	0	1	0	4914.65	-0.083275	-0.08358	-63.6625	4	0.000808376	10	0.00532091
2	0	0	1	0	4914.66	-0.0952605	-0.0955488	-63.7009	4	4.48128e-05	10	0.00608655
2	0	0	1	0	4914.67	-0.107296	-0.107587	-64.3382	4	-0.000722942	10	0.00692193
2	0	0	1	0	4914.68	-0.119282	-0.11961	-65.2309	4	-0.00150002	10	0.0078023
2	0	0	1	0	4914.69	-0.131267	-0.131543	-66.4197	4	-0.00228985	10	0.00873706
2	0	0	1	0	4914.71	-0.143253	-0.143566	-67.8616	4	-0.00309544	10	0.00974263
2	0	0	1	0	4914.72	-0.155288	-0.155563	-69.524	4	-0.00392018	10	0.0108153
2	0	0	1	0	4914.73	-0.167274	-0.167514	-71.3193	4	-0.00476529	10	0.011947
2	0	0	1	0	4914.74	-0.179259	-0.179517	-73.2487	4	-0.0056326	10	0.0131494
2	0	0	1	0	4914.75	-0.191295	-0.191591	-75.4902	4	-0.00652493	10	0.0144632
2	0	0	0	0	4914.76	-0.200184	-0.200456	-77.1521	4	-0.00720459	10	0.0154656
2	0	0	1	1	4914.77	-0.190695	-0.191137	-51.865	4	-0.00780891	10	0.00991332
2	0	0	1	1	4914.79	-0.17866	-0.179093	-27.8954	4	-0.00827819	10	0.00499586
2	0	0	1	1	4914.8	-0.166674	-0.167079	-9.35719	4	-0.00849563	10	0.00156339
2	1	0	1	1	4914.81	-0.154689	-0.155159	5.42253	4	-0.00851467	10	-0.000841352
2	1	0	1	1	4914.82	-0.142653	-0.143169	17.5813	4	-0.00837327	10	-0.00251708
2	1	0	1	1	4914.83	-0.130668	-0.131096	27.631	4	-0.00809908	10	-0.0036223
2	1	0	1	1	4914.85	-0.118682	-0.119054	35.7834	4	-0.0077159	10	-0.00426015
2	1	0	1	1	4914.86	-0.106697	-0.107097	42.3497	4	-0.0072451	10	-0.00453551
2	1	0	1	1	4914.87	-0.0946612	-0.0950207	47.6586	4	-0.00670308	10	-0.00452855
2	1	0	1	1	4914.88	-0.0826757	-0.0830169	51.8059	4	-0.00610488	10	-0.00430077
2	1	0	1	1	4914.89	-0.0706902	-0.0710301	55.0424	4	-0.00546273	10	-0.00390967
2	1	0	1	1	4914.91	-0.0586547	-0.0589934	57.6224	4	-0.00478597	10	-0.00339934
2	1	0	1	1	4914.92	-0.0466692	-0.0470055	59.5104	4	-0.0040826	10	-0.00279732
2	1	0	1	1	4914.93	-0.0346837	-0.035043	60.8681	4	-0.00335983	10	-0.002133
2	1	0	1	1	4914.94	-0.0226982	-0.0230392	61.8023	4	-0.00262333	10	-0.00142388
2	1	0	1	1	4914.95	-0.0106627	-0.0110216	62.3685	4	-0.00187765	10	-0.000687404
2	1	0	1	1	4914.96	-0.000175352	-0.000439847	62.4919	4	-0.00122188	10	-2.74869e-05
2	1	0	1	0	6145.6	0.00711584	0.00679531	56.1884	5	0.000416381	10	0.000381817
2	1	0	1	0	6145.61	0.0191014	0.0187461	54.5194	5	0.00107734	10	0.00102203
2	1	0	1	0	6145.62	0.0311368	0.0307891	54.3779	5	0.00173079	10	0.00167425
2	1	0	1	0	6145.63	0.0431223	0.0427738	54.4175	5	0.00238321	10	0.00232764
2	1	0	1	0	6145.65	0.0551079	0.0547363	54.6101	5	0.00303726	10	0.00298915
2	1	0	1	0	6145.66	0.0671433	0.0667783	55.0779	5	0.00369476	10	0.00367801
2	1	0	1	0	6145.67	0.0791288	0.0787895	56.0361	5	0.00436116	10	0.00441505
2	1	0	1	0	6145.68	0.0911143	0.0908092	57.5007	5	0.00504191	10	0.00522159
2	1	0	1	0	6145.69	0.103114	0.10279	59.6873	5	0.00574447	10	0.00613524
2	1	0	1	0	6145.71	0.115135	0.114809	62.5666	5	0.00647803	10	0.00718324
2	1	0	1	0	6145.72	0.127121	0.126775	65.9938	5	0.00724922	10	0.00836636
2	1	0	1	0	6145.73	0.139106	0.13876	69.8749	5	0.00806438	10	0.00969582
2	1	0	1	0	6145.74	0.151142	0.150799	74.2823	5	0.00892936	10	0.0112017
2	1	0	1	0	6145.75	0.163127	0.162761	79.1094	5	0.00984959	10	0.0128759
2	1	0	1	0	6145.77	0.175113	0.174817	84.4842	5	0.0108312	10	0.0147693
2	1	0	1	0	6145.78	0.187146	0.186833	90.262	5	0.0118797	10	0.0168639
2	1	0	1	0	6145.79	0.199134	0.198834	95.8592	5	0.0129974	10	0.0190601
2	1	0	1	0	6145.8	0.211119	0.210883	100.679	5	0.0141784	10	0.0212315
2	1	0	1	0	6145.81	0.223105	0.222828	103.516	5	0.0154065	10	0.0230663
2	1	0	1	0	6145.83	0.23514	0.234847	102.704	5	0.0166484	10	0.0241197
2	1	0	1	0	6145.84	0.247126	0.246923	96.6477	5	0.0178491	10	0.0238646
2	1	0	1	0	6145.85	0.259111	0.258902	85.7592	5	0.0189462	10	0.0222032
2	1	0	1	0	6145.86	0.271147	0.270916	72.7171	5	0.0198961	10	0.0197002
2	1	0	1	0	6145.87	0.283132	0.282911	60.5831	5	0.0206922	10	0.0171397
2	1	0	1	0	6145.89	0.295118	0.294903	51.3612	5	0.0213599	10	0.0151466
2	1	0	1	0	6145.89	0.298714	0.298755	44.0457	5	0.0216628	10	0.0131589
2	1	0	1	0	6145.91	0.286728	0.28666	13.6605	5	0.0219853	10	0.00391592
2	0	0	1	0	6145.92	0.274742	0.274569	-2.1925	5	0.0220431	10	-0.000601994
2	0	0	1	0	6145.93	0.262707	0.262506	-11.1151	5	0.0219576	10	-0.00291779
2	0	0	1	0	6145.94	0.250722	0.250486	-16.3338	5	0.0217901	10	-0.00409139
2	0	0	1	0	6145.95	0.238736	0.238493	-19.7713	5	0.0215717	10	-0.00471533
2	0	0	1	0	6145.97	0.226701	0.226495	-22.3512	5	0.0213186	10	-0.00506243
2	0	0	1	0	6145.98	0.214715	0.214478	-24.3689	5	0.0210378	10	-0.00522659
2	0	0	1	0	6145.99	0.202729	0.202422	-26.3054	5	0.0207336	10	-0.0053248
2	0	0	1	0	6146	0.190744	0.190506	-28.3247	5	0.0204058	10	-0.00539603
2	0	0	1	0	6146.01	0.178709	0.178421	-30.7992	5	0.0200511	10	-0.00549523
2	0	0	1	0	6146.03	0.166723	0.166468	-33.8568	5	0.0196639	10	-0.00563608
2	0	0	1	0	6146.04	0.154737	0.154488	-37.8759	5	0.0192342	10	-0.00585137
2	0	0	1	0	6146.05	0.142702	0.142473	-43.2739	5	0.0187485	10	-0.00616537
2	0	0	1	0	6146.06	0.130717	0.130487	-49.9142	5	0.01819	10	-0.00651318
2	0	0	1	0	6146.07	0.118731	0.118576	-57.6596	5	0.0175447	10	-0.00683705
2	0	0	1	0	6146.09	0.106745	0.106589	-65.9346	5	0.0168024	10	-0.00702791
2	0	0	1	0	6146.1	0.09471	0.0946107	-74.0077	5	0.0159617	10	-0.00700192
2	0	0	1	0	6146.11	0.0827245	0.0826282	-81.3929	5	0.0150276	10	-0.00672534
2	0	0	1	0	6146.12	0.070739	0.0705745	-87.7283	5	0.0140114	10	-0.00619138
2	0	0	1	0	6146.13	0.0587035	0.0585177	-92.5273	5	0.0129276	10	-0.00541449
2	0	0	1	0	6146.15	0.046718	0.0464778	-95.0533	5	0.0117996	10	-0.00441787
2	0	0	1	0	6146.16	0.0347325	0.0344507	-95.3121	5	0.0106552	10	-0.00328357
2	0	0	1	0	6146.17	0.022747	0.0224692	-93.7875	5	0.00951952	10	-0.00210733
2	0	0	1	0	6146.18	0.0107115	0.0104516	-91.3361	5	0.00840802	10	-0.000954607
2	0	0	1	0	6146.19	-0.00127403	-0.00157979	-88.3117	5	0.00732984	10	0.000139514
2	0	0	1	0	6146.21	-0.0132596	-0.013608	-84.3435	5	0.00629342	10	0.00114775
2	0	0	1	0	6146.22	-0.025295	-0.0256288	-79.4485	5	0.00531041	10	0.00203617
2	0	0	1	0	6146.23	-0.0372805	-0.0376283	-74.2348	5	0.00438925	10	0.00279333
2	0	0	1	0	6146.24	-0.0492661	-0.0495993	-69.8524	5	0.0035265	10	0.00346463
2	0	0	1	0	6146.25	-0.0612544	-0.0616094	-66.8348	5	0.00270802	10	0.00411765
2	0	0	1	0	6146.27	-0.0732871	-0.0735687	-65.096	5	0.00191729	10	0.00478903
2	0	0	1	0	6146.28	-0.0852726	-0.0855895	-64.2435	5	0.00114204	10	0.00549856
2	0	0	1	0	6146.29	-0.0972581	-0.097588	-64.1405	5	0.000372262	10	0.00625934
2	0	0	1	0	6146.3	-0.109294	-0.109575	-64.5835	5	-0.00039967	10	0.00707673
2	0	0	1	0	6146.31	-0.121279	-0.121573	-65.3465	5	-0.00117903	10	0.00794439
2	0	0	1	0	6146.33	-0.133265	-0.133556	-66.4161	5	-0.00196938	10	0.00887027
2	0	0	1	0	6146.34	-0.145286	-0.145585	-67.7764	5	-0.00277422	10	0.00986723
2	0	0	1	0	6146.35	-0.157286	-0.15756	-69.2932	5	-0.00359675	10	0.0109179
2	0	0	1	0	6146.36	-0.169271	-0.169519	-70.934	5	-0.00443815	10	0.0120246
2	0	0	1	0	6146.37	-0.181257	-0.181526	-72.7414	5	-0.00530032	10	0.0132044
2	0	0	1	0	6146.39	-0.193292	-0.19355	-74.8249	5	-0.00618578	10	0.0144823
2	0	0	1	1	6146.39	-0.199984	-0.20057	-75.7226	5	-0.00673669	10	0.0151877
2	0	0	1	1	6146.4	-0.188698	-0.189137	-47.3446	5	-0.00740201	10	0.00895462
2	0	0	1	1	6146.42	-0.176662	-0.177124	-25.6042	5	-0.00783157	10	0.00453511
2	0	0	1	1	6146.43	-0.164677	-0.165097	-8.70165	5	-0.00803195	10	0.00143661
2	1	0	1	1	6146.44	-0.152691	-0.153177	4.93685	5	-0.00805034	10	-0.00075621
2	1	0	1	1	6146.45	-0.140656	-0.141198	16.2008	5	-0.00792024	10	-0.00228752
2	1	0	1	1	6146.46	-0.12867	-0.129134	25.6483	5	-0.00766629	10	-0.00331207
2	1	0	1	1	6146.48	-0.116685	-0.11705	33.439	5	-0.00730946	10	-0.00391402
2	1	0	1	1	6146.49	-0.104699	-0.105055	39.7755	5	-0.00686829	10	-0.00417862
2	1	0	1	1	6146.5	-0.0926637	-0.0930134	45.0522	5	-0.00635743	10	-0.00419046
2	1	0	1	1	6146.51	-0.0806781	-0.0810403	49.2277	5	-0.00579059	10	-0.00398943
2	1	0	1	1	6146.52	-0.0686926	-0.0690556	52.6028	5	-0.00517843	10	-0.00363252
2	1	0	1	1	6146.54	-0.0566571	-0.0570423	55.3678	5	-0.00452971	10	-0.0031583
2	1	0	1	1	6146.55	-0.0446716	-0.0450278	57.4644	5	-0.0038519	10	-0.0025875
2	1	0	1	1	6146.56	-0.0326861	-0.0330474	59.0893	5	-0.00315194	10	-0.00195275
2	1	0	1	1	6146.57	-0.0206756	-0.0209863	60.2724	5	-0.00243546	10	-0.00126489
2	1	0	1	1	6146.58	-0.0086651	-0.00898143	61.0346	5	-0.00170688	10	-0.000548177
2	1	0	0	1	6146.59	2.44065e-05	-0.000306236	61.291	5	-0.00117466	10	-1.87695e-05
2	1	0	1	0	7377.23	0.00911343	0.00877402	56.7914	6	0.000541543	10	0.000498289
2	1	0	1	0	7377.24	0.021135	0.0207927	55.5416	6	0.00121265	10	0.00115486
2	1	0	1	0	7377.25	0.0331344	0.0327848	55.3647	6	0.00187778	10	0.00181512
2	1	0	1	0	7377.27	0.0451199	0.0447685	55.4639	6	0.00254261	10	0.00248303
2	1	0	1	0	7377.28	0.0571054	0.0566726	55.6689	6	0.00320943	10	0.0031549
2	1	0	1	0	7377.29	0.0691409	0.0687867	56.4448	6	0.00388158	10	0.00388265
2	1	0	1	0	7377.3	0.0811264	0.0807852	57.5527	6	0.00456522	10	0.00464941
2	1	0	1	0	7377.31	0.0931119	0.0927932	59.3066	6	0.00526581	10	0.00550325
2	1	0	1	0	7377.33	0.105147	0.104821	61.8264	6	0.00599183	10	0.00648073
2	1	0	1	0	7377.34	0.117133	0.116768	64.8861	6	0.00675178	10	0.00757662
2	1	0	1	0	7377.35	0.129118	0.128761	68.4625	6	0.00755176	10	0.00881531
2	1	0	1	0	7377.36	0.141104	0.14075	72.4741	6	0.00839752	10	0.0102007
2	1	0	1	0	7377.37	0.153139	0.15277	77.0021	6	0.00929463	10	0.0117636
2	1	0	1	0	7377.39	0.165125	0.164743	81.9382	6	0.0102483	10	0.0134987
2	1	0	1	0	7377.4	0.17711	0.176782	87.3317	6	0.0112642	10	0.0154386
2	1	0	1	0	7377.41	0.189146	0.188765	92.9157	6	0.0123459	10	0.0175393
2	1	0	1	0	7377.42	0.201131	0.20077	98.0758	6	0.0134931	10	0.0196907
2	1	0	1	0	7377.43	0.213117	0.212814	102.074	6	0.0146961	10	0.0217229
2	1	0	1	0	7377.45	0.225102	0.224824	103.437	6	0.0159327	10	0.0232552
2	1	0	1	0	7377.46	0.237138	0.236904	100.527	6	0.0171615	10	0.0238151
2	1	0	1	0	7377.47	0.249123	0.248876	92.352	6	0.0183228	10	0.0229841
2	1	0	1	0	7377.48	0.261109	0.260908	80.3529	6	0.0193605	10	0.0209647
2	1	0	1	0	7377.49	0.273144	0.272947	67.448	6	0.0202452	10	0.0184097
2	1	0	1	0	7377.51	0.28513	0.284914	56.1698	6	0.0209832	10	0.0160036
2	1	0	1	0	7377.52	0.297115	0.296928	47.9354	6	0.0216039	10	0.0142333
2	1	0	1	0	7377.52	0.296716	0.296741	35.161	6	0.0218726	10	0.0104337
2	1	0	1	0	7377.54	0.28473	0.284624	8.26241	6	0.0221128	10	0.00235168
2	0	0	1	0	7377.55	0.272745	0.27255	-6.05481	6	0.0221162	10	-0.00165024
2	0	0	1	0	7377.56	0.260709	0.260493	-14.0729	6	0.0219901	10	-0.00366591
2	0	0	1	0	7377.57	0.248724	0.248487	-18.7914	6	0.0217901	10	-0.00466942
2	0	0	1	0	7377.58	0.236738	0.236474	-21.8492	6	0.0215449	10	-0.00516676
2	0	0	1	0	7377.6	0.224703	0.224481	-24.1022	6	0.0212686	10	-0.00541049
2	0	0	1	0	7377.61	0.212717	0.212459	-25.892	6	0.0209683	10	-0.005501
2	0	0	1	0	7377.62	0.200732	0.200493	-27.5975	6	0.0206473	10	-0.00553312
2	0	0	1	0	7377.63	0.188746	0.188496	-29.4401	6	0.0203051	10	-0.00554935
2	0	0	1	0	7377.64	0.176711	0.176492	-31.7282	6	0.019938	10	-0.00559978
2	0	0	1	0	7377.66	0.164725	0.164467	-34.6226	6	0.0195404	10	-0.00569428
2	0	0	1	0	7377.67	0.15274	0.152518	-38.5856	6	0.019102	10	-0.00588502
2	0	0	1	0	7377.68	0.140704	0.140513	-43.9022	6	0.0186081	10	-0.00616881
2	0	0	1	0	7377.69	0.128719	0.128533	-50.5595	6	0.018042	10	-0.00649858
2	0	0	1	0	7377.7	0.116733	0.116562	-58.3386	6	0.0173889	10	-0.00680008
2	0	0	1	0	7377.72	0.104748	0.104552	-66.5765	6	0.0166387	10	-0.00696071
2	0	0	1	0	7377.73	0.0927124	0.0926066	-74.5695	6	0.0157905	10	-0.00690562
2	0	0	1	0	7377.74	0.0807269	0.0806335	-81.8132	6	0.0148502	10	-0.00659689
2	0	0	1	0	7377.75	0.0687414	0.0685714	-88.0554	6	0.0138292	10	-0.00603809
2	0	0	1	0	7377.76	0.0567059	0.0564955	-92.6626	6	0.0127426	10	-0.00523502
2	0	0	1	0	7377.78	0.0447204	0.0444206	-95.1083	6	0.0116136	10	-0.00422477
2	0	0	1	0	7377.79	0.0327349	0.0324837	-95.4461	6	0.0104684	10	-0.00310044
2	0	0	1	0	7377.8	0.0207244	0.0204523	-94.1301	6	0.00933012	10	-0.00192518
2	0	0	1	0	7377.81	0.00871391	0.00842091	-91.8512	6	0.00821348	10	-0.00077347
2	0	0	1	0	7377.82	-0.00327161	-0.00357229	-88.9234	6	0.00712847	10	0.00031766
2	0	0	1	0	7377.84	-0.0152571	-0.0156015	-85.0709	6	0.0060839	10	0.00132724
2	0	0	1	0	7377.85	-0.0272926	-0.027599	-80.3686	6	0.00509087	10	0.00221809
2	0	0	1	0	7377.86	-0.0392781	-0.0396176	-75.2476	6	0.00415792	10	0.00298113
2	0	0	1	0	7377.87	-0.0512636	-0.0515515	-70.816	6	0.00328306	10	0.00365067
2	0	0	1	0	7377.88	-0.0632991	-0.0636263	-67.7458	6	0.00245376	10	0.00431041
2	0	0	1	0	7377.9	-0.0752846	-0.0756344	-65.7767	6	0.00165404	10	0.00497498
2	0	0	1	0	7377.91	-0.0872702	-0.0875406	-64.8333	6	0.000871305	10	0.00567554
2	0	0	1	0	7377.92	-0.0992557	-0.0995635	-64.6421	6	9.51276e-05	10	0.006436
2	0	0	1	0	7377.93	-0.111291	-0.111576	-65.0534	6	-0.000682923	10	0.00725838
2	0	0	1	0	7377.94	-0.123277	-0.123536	-65.8128	6	-0.00146789	10	0.00813026
2	0	0	1	0	7377.96	-0.135262	-0.135556	-66.8771	6	-0.00226395	10	0.00906558
2	0	0	1	0	7377.97	-0.147298	-0.147564	-68.3075	6	-0.00307472	10	0.0100797
2	0	0	1	0	7377.98	-0.159283	-0.159573	-69.7905	6	-0.00390316	10	0.0111367
2	0	0	1	0	7377.99	-0.171269	-0.171514	-71.4479	6	-0.00475067	10	0.0122543
2	0	0	1	0	7378	-0.183254	-0.183546	-73.275	6	-0.00561891	10	0.0134493
2	0	0	1	0	7378.02	-0.19529	-0.195589	-75.3336	6	-0.00651082	10	0.0147344
2	0	0	1	1	7378.02	-0.198686	-0.19923	-71.8877	6	-0.00699188	10	0.0143222
2	0	0	1	1	7378.03	-0.186686	-0.187145	-43.2264	6	-0.00766823	10	0.00808959
2	0	0	1	1	7378.05	-0.174665	-0.175064	-22.4794	6	-0.00805479	10	0.00393534
2	0	0	1	1	7378.06	-0.162679	-0.163114	-6.16216	6	-0.00822155	10	0.00100513
2	1	0	1	1	7378.07	-0.150694	-0.151163	7.02303	6	-0.00821268	10	-0.00106162
2	1	0	1	1	7378.08	-0.138658	-0.139185	18.0271	6	-0.00805929	10	-0.0025091
2	1	0	1	1	7378.09	-0.126673	-0.127086	27.2726	6	-0.00778492	10	-0.00346598
2	1	0	1	1	7378.11	-0.114687	-0.11506	34.8863	6	-0.00740963	10	-0.00401403
2	1	0	1	1	7378.12	-0.102654	-0.102999	41.2646	6	-0.00695123	10	-0.00425022
2	1	0	1	1	7378.13	-0.0906661	-0.0910887	46.4157	6	-0.00642363	10	-0.00422795
2	1	0	1	1	7378.14	-0.0786806	-0.0790065	50.643	6	-0.00583997	10	-0.00400112
2	1	0	1	1	7378.15	-0.066695	-0.0670684	54.0621	6	-0.00521077	10	-0.00362586
2	1	0	1	1	7378.17	-0.0546596	-0.0549405	56.8668	6	-0.00454413	10	-0.00312429
2	1	0	1	1	7378.18	-0.042674	-0.0430438	59.0287	6	-0.00384809	10	-0.00254082
2	1	0	1	1	7378.19	-0.0306885	-0.0310464	60.6568	6	-0.00312935	10	-0.00188317
2	1	0	1	1	7378.2	-0.018653	-0.0190235	61.9092	6	-0.00239357	10	-0.00117773
2	1	0	1	1	7378.21	-0.00666751	-0.0070324	62.6091	6	-0.00164606	10	-0.000440292
2	1	0	1	0	8608.85	2.44065e-05	-0.000821594	66.5148	7	0.0000000E+000	10	-5.46481e-05
2	1	0	1	0	8608.86	0.011111	0.010775	54.6244	7	0.000639426	10	0.000588578
2	1	0	1	0	8608.87	0.0231465	0.022799	53.6087	7	0.00128654	10	0.00122222
2	1	0	1	0	8608.88	0.035132	0.034755	53.471	7	0.00192854	10	0.00185839
2	1	0	1	0	8608.9	0.0471175	0.0467663	53.6524	7	0.00257104	10	0.00250912
2	1	0	1	0	8608.91	0.059103	0.0587054	54.0648	7	0.00321723	10	0.00317389
2	1	0	1	0	8608.92	0.0711385	0.0707346	54.8854	7	0.00387033	10	0.0038823
2	1	0	1	0	8608.93	0.083124	0.0827755	56.2159	7	0.00453679	10	0.0046533
2	1	0	1	0	8608.94	0.0951095	0.0947624	58.091	7	0.00522215	10	0.00550484
2	1	0	1	0	8608.96	0.107145	0.106793	60.6412	7	0.00593407	10	0.00647603
2	1	0	1	0	8608.97	0.119131	0.118795	63.6632	7	0.00667961	10	0.0075629
2	1	0	1	0	8608.98	0.131116	0.130783	67.0964	7	0.00746399	10	0.00877509
2	1	0	1	0	8608.99	0.143102	0.142759	70.8997	7	0.008292	10	0.0101215
2	1	0	1	0	8609	0.155137	0.154785	75.1611	7	0.00916867	10	0.0116338
2	1	0	1	0	8609.02	0.167123	0.166798	79.8014	7	0.0100986	10	0.0133107
2	1	0	1	0	8609.03	0.179108	0.178788	84.8	7	0.0110865	10	0.0151612
2	1	0	1	0	8609.04	0.191143	0.190774	89.8765	7	0.0121352	10	0.0171461
2	1	0	1	0	8609.05	0.203129	0.2028	94.4257	7	0.0132423	10	0.0191495
2	1	0	1	0	8609.06	0.215115	0.214797	97.7428	7	0.0143974	10	0.0209949
2	1	0	1	0	8609.08	0.227108	0.226803	98.4473	7	0.0155779	10	0.0223282
2	1	0	1	0	8609.09	0.239136	0.238895	95.0129	7	0.0167433	10	0.0226981
2	1	0	1	0	8609.1	0.251121	0.250876	86.8215	7	0.0178376	10	0.0217815
2	1	0	1	0	8609.11	0.263107	0.262896	75.5077	7	0.0188122	10	0.0198507
2	1	0	1	0	8609.12	0.275142	0.274931	64.0368	7	0.0196473	10	0.0176057
2	1	0	1	0	8609.14	0.287128	0.286882	54.4854	7	0.0203549	10	0.0156309
2	1	0	1	0	8609.15	0.298913	0.298667	47.7053	7	0.0209549	10	0.014248
2	1	0	1	0	8609.15	0.294718	0.294659	31.1876	7	0.0212103	10	0.0091897
2	1	0	1	0	8609.17	0.282733	0.282588	8.4594	7	0.0214321	10	0.00239053
2	0	0	1	0	8609.18	0.270747	0.270506	-4.22406	7	0.0214494	10	-0.00114263
2	0	0	1	0	8609.19	0.258712	0.258508	-11.705	7	0.0213492	10	-0.00302583
2	0	0	1	0	8609.2	0.246726	0.24649	-16.3594	7	0.0211784	10	-0.00403242
2	0	0	1	0	8609.21	0.234741	0.23452	-19.5258	7	0.0209617	10	-0.00457919
2	0	0	1	0	8609.23	0.222705	0.222419	-21.9432	7	0.0207121	10	-0.00488059
2	0	0	1	0	8609.24	0.21072	0.210456	-23.8986	7	0.0204366	10	-0.0050296
2	0	0	1	0	8609.25	0.198734	0.198443	-25.7219	7	0.0201387	10	-0.00510431
2	0	0	1	0	8609.26	0.186735	0.186503	-27.6342	7	0.0198187	10	-0.00515387
2	0	0	1	0	8609.27	0.174713	0.17445	-29.8936	7	0.0194734	10	-0.00521493
2	0	0	1	0	8609.29	0.162728	0.162484	-32.7072	7	0.0190983	10	-0.00531441
2	0	0	1	0	8609.3	0.150742	0.150526	-36.4798	7	0.0186838	10	-0.00549116
2	0	0	1	0	8609.31	0.138707	0.138459	-41.569	7	0.0182164	10	-0.00575558
2	0	0	1	0	8609.32	0.126721	0.12649	-47.8815	7	0.0176802	10	-0.00605652
2	0	0	1	0	8609.33	0.114736	0.114525	-55.2428	7	0.0170617	10	-0.00632669
2	0	0	1	0	8609.35	0.102703	0.102496	-63.0634	7	0.0163514	10	-0.00646374
2	0	0	1	0	8609.36	0.0907148	0.0906003	-70.4575	7	0.0155492	10	-0.00638347
2	0	0	1	0	8609.37	0.0787293	0.0786145	-77.2064	7	0.0146617	10	-0.00606954
2	0	0	1	0	8609.38	0.0667438	0.0666468	-82.8932	7	0.0136996	10	-0.00552457
2	0	0	1	0	8609.39	0.0547083	0.0545094	-87.2776	7	0.0126762	10	-0.00475745
2	0	0	1	0	8609.41	0.0427228	0.0425024	-89.6169	7	0.0116126	10	-0.00380893
2	0	0	1	0	8609.42	0.0307373	0.0304742	-90.1395	7	0.0105322	10	-0.00274693
2	0	0	1	0	8609.43	0.0187018	0.018394	-89.2973	7	0.00945498	10	-0.00164254
2	0	0	1	0	8609.44	0.00671632	0.00644855	-87.5484	7	0.00839344	10	-0.000564561
2	0	0	1	0	8609.45	-0.0052692	-0.00555207	-85.2707	7	0.00735608	10	0.000473429
2	0	0	1	0	8609.47	-0.0172547	-0.0175856	-82.1121	7	0.00635107	10	0.00144399
2	0	0	1	0	8609.48	-0.0292902	-0.0296042	-78.1101	7	0.00538907	10	0.00231239
2	0	0	1	0	8609.49	-0.0412757	-0.0415953	-73.5804	7	0.00447942	10	0.0030606
2	0	0	1	0	8609.5	-0.0532612	-0.0535758	-69.5832	7	0.00362167	10	0.00372797
2	0	0	1	0	8609.51	-0.0652967	-0.065639	-66.7154	7	0.00280546	10	0.00437913
2	0	0	1	0	8609.53	-0.0772822	-0.0775685	-64.8466	7	0.00201721	10	0.00503005
2	0	0	1	0	8609.54	-0.0892678	-0.0895405	-63.9067	7	0.00124564	10	0.00572224
2	0	0	1	0	8609.55	-0.101253	-0.101571	-63.6319	7	0.000481129	10	0.00646315
2	0	0	1	0	8609.56	-0.113289	-0.113625	-63.94	7	-0.000284216	10	0.00726515
2	0	0	1	0	8609.57	-0.125274	-0.125572	-64.5767	7	-0.00105504	10	0.00810903
2	0	0	1	0	8609.59	-0.13726	-0.137558	-65.5146	7	-0.00183547	10	0.00901205
2	0	0	1	0	8609.6	-0.149295	-0.149557	-66.7704	7	-0.00262915	10	0.00998601
2	0	0	1	0	8609.61	-0.161281	-0.161601	-68.1197	7	-0.00343846	10	0.0110082
2	0	0	1	0	8609.62	-0.173266	-0.173542	-69.6053	7	-0.00426487	10	0.0120794
2	0	0	1	0	8609.63	-0.185252	-0.185543	-71.2546	7	-0.00511005	10	0.0132208
2	0	0	1	0	8609.65	-0.197287	-0.197598	-73.1314	7	-0.0059767	10	0.0144506
2	0	0	1	1	8609.65	-0.196688	-0.197167	-64.0222	7	-0.00642833	10	0.012623
2	0	0	1	1	8609.66	-0.184653	-0.185051	-38.9856	7	-0.00703523	10	0.00721433
2	0	0	1	1	8609.68	-0.172667	-0.17308	-20.568	7	-0.00738616	10	0.00355991
2	0	0	1	1	8609.69	-0.160682	-0.161095	-5.89803	7	-0.00754036	10	0.000950141
2	1	0	1	1	8609.7	-0.148696	-0.149129	6.08185	7	-0.00753604	10	-0.00090698
2	1	0	1	1	8609.71	-0.136661	-0.137122	16.119	7	-0.00740005	10	-0.00221026
2	1	0	1	1	8609.72	-0.124675	-0.125093	24.6433	7	-0.00715322	10	-0.0030827
2	1	0	1	1	8609.74	-0.112689	-0.113086	31.765	7	-0.00681274	10	-0.00359217
2	1	0	1	1	8609.75	-0.100654	-0.101013	37.788	7	-0.00639391	10	-0.00381709
2	1	0	1	1	8609.76	-0.0886685	-0.0890252	42.7422	7	-0.00590933	10	-0.00380513
2	1	0	1	1	8609.77	-0.076683	-0.0770521	46.8761	7	-0.00537031	10	-0.0036119
2	1	0	1	1	8609.78	-0.0646974	-0.0650907	50.3089	7	-0.00478618	10	-0.00327465
2	1	0	1	1	8609.8	-0.052662	-0.0530477	53.1683	7	-0.00416418	10	-0.00282046
2	1	0	1	1	8609.81	-0.0406764	-0.0410587	55.4341	7	-0.00351176	10	-0.00227606
2	1	0	1	1	8609.82	-0.0286909	-0.0290284	57.2212	7	-0.00283526	10	-0.00166104
2	1	0	1	1	8609.83	-0.0166554	-0.0170363	58.5981	7	-0.00213988	10	-0.000998294
2	1	0	1	1	8609.84	-0.00466992	-0.00502717	59.4804	7	-0.00143095	10	-0.000299018
2	1	0	1	0	9840.48	0.00112308	0.000923835	65.9162	8	7.29471e-05	10	6.08957e-05
2	1	0	1	0	9840.49	0.0131086	0.0127145	56.2285	8	0.000779262	10	0.000714917
2	1	0	1	0	9840.5	0.0251441	0.0248042	55.3737	8	0.00144723	10	0.0013735
2	1	0	1	0	9840.51	0.0371296	0.0367338	55.293	8	0.00211081	10	0.00203112
2	1	0	1	0	9840.53	0.0491151	0.0488266	55.5633	8	0.0027757	10	0.00271297
2	1	0	1	0	9840.54	0.0611006	0.0606915	56.0099	8	0.00344516	10	0.00339933
2	1	0	1	0	9840.55	0.0731361	0.0727855	57.1565	8	0.00412411	10	0.00416017
2	1	0	1	0	9840.56	0.0851216	0.0848052	58.6196	8	0.00481839	10	0.00497124
2	1	0	1	0	9840.57	0.0971071	0.0967814	60.6971	8	0.0055339	10	0.00587435
2	1	0	1	0	9840.59	0.109143	0.108788	63.4059	8	0.00627823	10	0.00689783
2	1	0	1	0	9840.6	0.121128	0.12076	66.5414	8	0.00705789	10	0.00803556
2	1	0	1	0	9840.61	0.133114	0.132742	70.0743	8	0.00787756	10	0.0093018
2	1	0	1	0	9840.62	0.14513	0.144767	74.004	8	0.0087418	10	0.0107133
2	1	0	1	0	9840.63	0.157135	0.156784	78.3116	8	0.00965576	10	0.012278
2	1	0	1	0	9840.65	0.16912	0.16876	82.9676	8	0.0106235	10	0.0140016
2	1	0	1	0	9840.66	0.181106	0.180779	87.8707	8	0.011649	10	0.0158852
2	1	0	1	0	9840.67	0.193141	0.192799	92.7027	8	0.0127334	10	0.017873
2	1	0	1	0	9840.68	0.205127	0.204816	96.7489	8	0.0138716	10	0.0198157
2	1	0	1	0	9840.69	0.217112	0.216728	99.1718	8	0.0150497	10	0.0214933
2	1	0	1	0	9840.71	0.229148	0.228865	98.5041	8	0.0162392	10	0.0225441
2	1	0	1	0	9840.72	0.241133	0.240867	93.3203	8	0.0173942	10	0.0224778
2	1	0	1	0	9840.73	0.253119	0.252909	84.0777	8	0.0184608	10	0.021264
2	1	0	1	0	9840.74	0.265104	0.264861	72.7246	8	0.0194012	10	0.0192619
2	1	0	1	0	9840.75	0.27714	0.276901	61.8782	8	0.0202065	10	0.0171341
2	1	0	1	0	9840.77	0.289125	0.288929	52.9931	8	0.0208923	10	0.0153112
2	1	0	0	0	9840.78	0.299812	0.299479	47.1285	8	0.0214262	10	0.014114
2	1	0	1	0	9840.78	0.292721	0.292699	25.9124	8	0.0216936	10	0.00758452
2	1	0	1	0	9840.8	0.280735	0.28061	5.0172	8	0.0218652	10	0.00140788
2	0	0	1	0	9840.81	0.268714	0.26856	-6.89105	8	0.0218467	10	-0.00185066
2	0	0	1	0	9840.82	0.256714	0.256507	-13.9576	8	0.0217175	10	-0.00358023
2	0	0	1	0	9840.83	0.244729	0.244492	-18.3858	8	0.0215212	10	-0.00449517
2	0	0	1	0	9840.84	0.232743	0.232507	-21.4225	8	0.0212811	10	-0.00498088
2	0	0	1	0	9840.86	0.220708	0.220507	-23.7127	8	0.0210094	10	-0.00522884
2	0	0	1	0	9840.87	0.208722	0.208463	-25.5625	8	0.0207132	10	-0.00532885
2	0	0	1	0	9840.88	0.196737	0.196523	-27.3037	8	0.0203958	10	-0.00536582
2	0	0	1	0	9840.89	0.184701	0.184435	-29.2006	8	0.020057	10	-0.00538561
2	0	0	1	0	9840.9	0.172716	0.17245	-31.3387	8	0.0196941	10	-0.00540436
2	0	0	1	0	9840.92	0.16073	0.160485	-34.0947	8	0.0193021	10	-0.0054717
2	0	0	1	0	9840.93	0.148745	0.148517	-37.838	8	0.0188713	10	-0.00561957
2	0	0	1	0	9840.94	0.136709	0.136447	-42.9388	8	0.0183873	10	-0.00585887
2	0	0	1	0	9840.95	0.124724	0.124501	-49.2959	8	0.0178345	10	-0.00613741
2	0	0	1	0	9840.96	0.112738	0.112546	-56.7383	8	0.0171984	10	-0.0063857
2	0	0	1	0	9840.98	0.100703	0.10053	-64.6015	8	0.0164698	10	-0.00649439
2	0	0	1	0	9840.99	0.0887173	0.0886057	-71.9544	8	0.0156495	10	-0.00637557
2	0	0	1	0	9841	0.0767317	0.0766581	-78.6517	8	0.0147441	10	-0.00602928
2	0	0	1	0	9841.01	0.0647462	0.0645684	-84.3205	8	0.0137648	10	-0.00544444
2	0	0	1	0	9841.02	0.0527107	0.0524575	-88.5242	8	0.0127253	10	-0.00464376
2	0	0	1	0	9841.04	0.0407252	0.0404664	-90.7972	8	0.0116474	10	-0.00367423
2	0	0	1	0	9841.05	0.0287397	0.0284711	-91.3048	8	0.0105531	10	-0.00259955
2	0	0	1	0	9841.06	0.0167043	0.0164408	-90.5679	8	0.009461	10	-0.00148901
2	0	0	1	0	9841.07	0.00471873	0.00445817	-88.9295	8	0.00838343	10	-0.000396463
2	0	0	1	0	9841.08	-0.00726679	-0.00762092	-86.7519	8	0.00732872	10	0.000661129
2	0	0	1	0	9841.1	-0.0192523	-0.019542	-83.7059	8	0.00630552	10	0.00163578
2	0	0	1	0	9841.11	-0.0312878	-0.0315893	-79.8742	8	0.00532323	10	0.00252317
2	0	0	1	0	9841.12	-0.0432733	-0.0436154	-75.5091	8	0.00439136	10	0.00329336
2	0	0	1	0	9841.13	-0.0552588	-0.0555937	-71.4971	8	0.00351043	10	0.00397479
2	0	0	1	0	9841.14	-0.0672943	-0.0675816	-68.5212	8	0.00267169	10	0.00463077
2	0	0	1	0	9841.16	-0.0792798	-0.0795876	-66.5143	8	0.00186275	10	0.00529371
2	0	0	1	0	9841.17	-0.0912653	-0.0915818	-65.447	8	0.00107187	10	0.00599376
2	0	0	1	0	9841.18	-0.10327	-0.10354	-65.1237	8	0.000289269	10	0.00674291
2	0	0	1	0	9841.19	-0.115286	-0.115621	-65.3371	8	-0.000493312	10	0.00755436
2	0	0	1	0	9841.2	-0.127272	-0.127574	-65.938	8	-0.00128062	10	0.00841199
2	0	0	1	0	9841.22	-0.139257	-0.139533	-66.8456	8	-0.00207705	10	0.00932719
2	0	0	1	0	9841.23	-0.151293	-0.151591	-68.0518	8	-0.00288645	10	0.0103161
2	0	0	1	0	9841.24	-0.163278	-0.163568	-69.3638	8	-0.00371091	10	0.0113457
2	0	0	1	0	9841.25	-0.175264	-0.175552	-70.8344	8	-0.00455217	10	0.0124351
2	0	0	1	0	9841.26	-0.187299	-0.187601	-72.5492	8	-0.00541214	10	0.0136103
2	0	0	1	0	9841.28	-0.199085	-0.199338	-74.3364	8	-0.00627858	10	0.0148181
2	0	0	1	1	9841.28	-0.19469	-0.195234	-59.7676	8	-0.00672604	10	0.0116687
2	0	0	1	1	9841.29	-0.182655	-0.183055	-35.9196	8	-0.00729001	10	0.00657525
2	0	0	1	1	9841.31	-0.170669	-0.171085	-18.0768	8	-0.00760807	10	0.00309266
2	0	0	1	1	9841.32	-0.158684	-0.159104	-3.81113	8	-0.00773503	10	0.000606368
2	1	0	1	1	9841.33	-0.146698	-0.14713	7.93284	8	-0.00770717	10	-0.00116716
2	1	0	1	1	9841.34	-0.134663	-0.13515	17.8477	8	-0.00754973	10	-0.00241211
2	1	0	1	1	9841.35	-0.122677	-0.123138	26.3033	8	-0.00728261	10	-0.00323895
2	1	0	1	1	9841.37	-0.110692	-0.111067	33.3716	8	-0.00692274	10	-0.00370647
2	1	0	1	1	9841.38	-0.0986564	-0.0990185	39.3874	8	-0.00648467	10	-0.00390008
2	1	0	1	1	9841.39	-0.0866709	-0.0870846	44.3875	8	-0.00598078	10	-0.00386547
2	1	0	1	1	9841.4	-0.0746854	-0.0750405	48.5645	8	-0.00542192	10	-0.00364431
2	1	0	1	1	9841.41	-0.0626915	-0.0630505	52.0753	8	-0.00481707	10	-0.00328338
2	1	0	1	1	9841.43	-0.0506644	-0.0510011	55.0042	8	-0.0041734	10	-0.00280527
2	1	0	1	1	9841.44	-0.0386789	-0.0390673	57.3298	8	-0.00349851	10	-0.00223972
2	1	0	1	1	9841.45	-0.0266933	-0.027038	59.1857	8	-0.00279873	10	-0.00160026
2	1	0	1	1	9841.46	-0.0146579	-0.0150098	60.6132	8	-0.00207932	10	-0.000909794
2	1	0	1	1	9841.47	-0.00267234	-0.0030739	61.5246	8	-0.00134602	10	-0.00018912
2	1	0	0	1	9841.48	2.44065e-05	-0.000401673	61.6498	8	-0.00117974	10	-2.4763e-05