File: Figure_codes/Fig_3-5/rawdata_trumpetplot_data/before 10th/20221101_1-115_002_TrumpetPlot_ParaChange_10_CV_C01_2.csv
mode,ox/red,error,control changes,counter inc.,time/s,control/V,Ewe/V,<I>/mA,cycle number,(Q-Qo)/C,I Range,P/W,log(|I|),Tafel slope mV/dec,alpha_eff,dI/d(E-IR),E-IR/V,
2,0,0,0,0,3657.65,2.44065e-05,0.000304558,-5.66184,3,0.0000000E+000,11,-1.72436e-06,-2.24704, , , ,0.000304558,
2,0,0,1,0,3657.66,0.0012943,0.000903423,-2.29698,3,-6.42825e-05,11,-2.07514e-06,-2.63884, , , ,0.000903423,
2,1,0,1,0,3657.68,0.00279784,0.00244847,0.329147,3,-8.00354e-05,11,8.05908e-07,-3.48261,-0.0151045,-3.90612,1338.83,0.00244847,
2,1,0,1,0,3657.7,0.00429425,0.00399828,1.64179,3,-6.01929e-05,11,6.56433e-06,-2.78468,0.00473717,12.4547,704.166,0.00399828,
2,1,0,1,0,3657.72,0.00579065,0.00549563,2.33816,3,-2.22016e-05,11,1.28497e-05,-2.63113,0.0118406,4.98285,380.803,0.00549563,
2,1,0,1,0,3657.74,0.0072942,0.00700727,2.73798,3,2.58896e-05,11,1.91858e-05,-2.56257,0.027283,2.16252,217.121,0.00700727,
2,1,0,1,0,3657.76,0.00878347,0.00849063,2.98132,3,7.92211e-05,11,2.53133e-05,-2.52559,0.051474,1.14621,128.904,0.00849063,
2,1,0,1,0,3657.77,0.010287,0.0100074,3.12545,3,0.000136685,11,3.12776e-05,-2.50509,0.0915349,0.644563,77.0281,0.0100074,
2,1,0,1,0,3657.79,0.0117905,0.0115262,3.21093,3,0.000196262,11,3.70098e-05,-2.49337,0.143366,0.411535,51.0702,0.0115262,
2,1,0,1,0,3657.81,0.013278,0.0129588,3.26206,3,0.000256406,11,4.22723e-05,-2.48651,0.198055,0.297897,37.832,0.01295877,
2,1,0,1,0,3657.83,0.0147816,0.014497,3.30949,3,0.000318219,11,4.79777e-05,-2.48024,0.23341,0.252774,32.5755,0.014497,
2,1,0,1,0,3657.85,0.0162851,0.0160427,3.35008,3,0.000380911,11,5.37444e-05,-2.47495,0.309072,0.190894,24.8666,0.0160427,
2,1,0,1,0,3657.87,0.0177744,0.0174828,3.37846,3,0.000443527,11,5.9065e-05,-2.47128,0.396228,0.148904,19.6028,0.0174828,
2,1,0,1,0,3657.89,0.0192779,0.0189542,3.3925,3,0.000507213,11,6.43023e-05,-2.46948,0.418105,0.141113,18.7231,0.01895423,
2,1,0,1,0,3657.91,0.0207743,0.0204864,3.41995,3,0.000571083,11,7.00627e-05,-2.46598,0.381812,0.154526,20.6476,0.0204864,
2,1,0,1,0,3657.92,0.0222707,0.0219959,3.44831,3,0.000635434,11,7.58488e-05,-2.46239,0.492919,0.119695,16.1233,0.0219959,
2,1,0,1,0,3657.94,0.0237743,0.02348,3.47004,3,0.000700636,11,8.14764e-05,-2.45967,0.556229,0.106071,14.3802,0.02347997,
2,1,0,1,0,3657.96,0.0252636,0.0249828,3.48924,3,0.000765508,11,8.71708e-05,-2.45727,0.580384,0.101657,13.8878,0.0249828,
2,1,0,1,0,3657.98,0.0267671,0.0264648,3.5174,3,0.00083149,11,9.3087e-05,-2.45378,0.511815,0.115276,15.8464,0.0264648,
2,1,0,1,0,3658,0.0282706,0.0280071,3.54862,3,0.000898018,11,9.93865e-05,-2.44994,0.533666,0.110556,15.3057,0.0280071,
2,1,0,1,0,3658.02,0.0297581,0.0295116,3.57465,3,0.000964319,11,0.000105494,-2.44677,0.689997,0.0855076,11.9141,0.0295116,
2,1,0,1,0,3658.04,0.0312617,0.0309639,3.59461,3,0.00103177,11,0.000111303,-2.44435,0.627192,0.0940702,13.201,0.0309639,
2,1,0,1,0,3658.06,0.0327652,0.0324691,3.62034,3,0.00109961,11,0.000117549,-2.44125,0.510402,0.115595,16.363,0.0324691,
2,1,0,1,0,3658.07,0.0342545,0.0339998,3.65478,3,0.00116721,11,0.000124262,-2.43714,0.499163,0.118198,16.829,0.0339998,
2,1,0,1,0,3658.09,0.035758,0.0354798,3.6864,3,0.00123618,11,0.000130793,-2.4334,0.507018,0.116367,16.6781,0.0354798,
2,1,0,1,0,3658.11,0.0372544,0.0369644,3.71097,3,0.00130529,11,0.000137174,-2.43051,0.420198,0.14041,20.3199,0.0369644,
2,1,0,1,0,3658.13,0.0387508,0.0384386,3.73504,3,0.00137475,11,0.00014357,-2.4277,0.365315,0.161504,23.5961,0.0384386,
2,1,0,1,0,3658.15,0.0402544,0.0399925,3.76858,3,0.0014453,11,0.000150715,-2.42382,0.295912,0.199383,29.3089,0.0399925,
2,1,0,1,0,3658.17,0.0417437,0.041452,3.81209,3,0.00151586,11,0.000158019,-2.41884,0.319669,0.184566,27.3906,0.041452,
2,1,0,1,0,3658.19,0.0432472,0.042977,3.84401,3,0.00158785,11,0.000165204,-2.41522,0.343744,0.171639,25.756,0.042977,
2,1,0,1,0,3658.21,0.0447507,0.0444426,3.86644,3,0.0016604,11,0.000171835,-2.41269,0.327765,0.180007,27.2665,0.04444262,
2,1,0,1,0,3658.22,0.0462382,0.045912,3.91147,3,0.00173291,11,0.000179583,-2.40766,0.281363,0.209693,32.0718,0.045912,
2,1,0,1,0,3658.24,0.0477418,0.0474291,3.95398,3,0.00180701,11,0.000187534,-2.40297,0.304961,0.193468,29.9144,0.0474291,
2,1,0,1,0,3658.26,0.0492453,0.0489244,4.00222,3,0.00188202,11,0.000195806,-2.3977,0.311818,0.189213,29.5983,0.0489244,
2,1,0,1,0,3658.28,0.0507346,0.0504677,4.04761,3,0.001957,11,0.000204274,-2.3928,0.316697,0.186298,29.5126,0.05046773,
2,1,0,1,0,3658.3,0.0522381,0.0519378,4.10322,3,0.00203374,11,0.000213112,-2.38688,0.270344,0.21824,35.004,0.0519378,
2,1,0,1,0,3658.32,0.0537345,0.053467,4.17384,3,0.00211112,11,0.000223163,-2.37946,0.265231,0.222448,36.1596,0.053467,
2,1,0,1,0,3658.34,0.0552309,0.0549901,4.23222,3,0.00218966,11,0.00023273,-2.37343,0.262841,0.224471,36.965,0.0549901,
2,1,0,1,0,3658.36,0.0567345,0.0564431,4.28368,3,0.00226969,11,0.000241784,-2.36818,0.26214,0.225071,37.6404,0.0564431,
2,1,0,1,0,3658.37,0.0582237,0.0579319,4.3486,3,0.00234988,11,0.000251923,-2.36165,0.230216,0.256281,43.5468,0.0579319,
2,1,0,1,0,3658.39,0.0597273,0.0594364,4.42097,3,0.0024322,11,0.000262766,-2.35448,0.209086,0.28218,48.5879,0.0594364,
2,1,0,1,0,3658.41,0.0612308,0.0609579,4.48974,3,0.00251596,11,0.000273685,-2.34778,0.20583,0.286645,50.1227,0.06095792,
2,1,0,1,0,3658.43,0.0627183,0.0624413,4.56393,3,0.00260011,11,0.000284978,-2.34066,0.205777,0.286718,51.03,0.0624413,
2,1,0,1,0,3658.45,0.0642219,0.063943,4.62789,3,0.00268646,11,0.000295921,-2.33462,0.198254,0.297598,53.8406,0.063943,
2,1,0,1,0,3658.47,0.0657254,0.0654376,4.70978,3,0.00277434,11,0.000308197,-2.327,0.185061,0.318813,58.6319,0.0654376,
2,1,0,1,0,3658.49,0.0672147,0.0669455,4.79729,3,0.00286283,11,0.000321157,-2.319,0.18719,0.315187,58.9852,0.0669455,
2,1,0,1,0,3658.51,0.0687182,0.0684493,4.8741,3,0.00295387,11,0.000333629,-2.31211,0.203104,0.290492,55.3141,0.0684493,
2,1,0,1,0,3658.52,0.0702146,0.0699183,4.95151,3,0.00304592,11,0.000346201,-2.30526,0.195097,0.302413,58.61,0.0699183,
2,1,0,1,0,3658.54,0.071711,0.0714406,5.04697,3,0.00313955,11,0.000360559,-2.29697,0.196941,0.299582,59.0319,0.0714406,
2,1,0,1,0,3658.56,0.0732146,0.0728974,5.13414,3,0.0032354,11,0.000374265,-2.28953,0.196687,0.299969,60.1977,0.0728974,
2,1,0,1,0,3658.58,0.0747038,0.0744411,5.22813,3,0.00333191,11,0.000389188,-2.28165,0.209443,0.2817,57.459,0.07444106,
2,1,0,1,0,3658.6,0.0762074,0.0758907,5.31567,3,0.00343115,11,0.00040341,-2.27444,0.214179,0.275471,57.191,0.0758907,
2,1,0,1,0,3658.62,0.0777109,0.0774245,5.4112,3,0.00353201,11,0.000418959,-2.26671,0.210775,0.279919,59.1365,0.0774245,
2,1,0,1,0,3658.64,0.0791984,0.0788911,5.50765,3,0.00363354,11,0.000434505,-2.25903,0.204926,0.287909,61.8256,0.0788911,
2,1,0,1,0,3658.66,0.0807019,0.0804147,5.60492,3,0.00373797,11,0.000450718,-2.25143,0.220932,0.26705,58.2578,0.0804147,
2,1,0,1,0,3658.67,0.0822055,0.0819495,5.68976,3,0.00384415,11,0.000466273,-2.24491,0.219911,0.268291,59.5194,0.0819495,
2,1,0,1,0,3658.69,0.0836947,0.083409,5.77608,3,0.00395071,11,0.000481778,-2.23837,0.222059,0.265695,59.9091,0.083409,
2,1,0,1,0,3658.71,0.0851983,0.0849183,5.86771,3,0.00406016,11,0.000498276,-2.23153,0.215025,0.274387,62.7912,0.08491829,
2,1,0,1,0,3658.73,0.0866947,0.0864143,5.95838,3,0.00417073,11,0.00051489,-2.22487,0.2291,0.257529,59.8059,0.0864143,
2,1,0,1,0,3658.75,0.0881911,0.0879198,6.04434,3,0.00428297,11,0.000531417,-2.21865,0.235868,0.25014,58.9168,0.0879198,
2,1,0,1,0,3658.77,0.0896946,0.0893779,6.12029,3,0.00439735,11,0.000547019,-2.21323,0.2323,0.253982,60.7564,0.08937791,
2,1,0,1,0,3658.79,0.0911839,0.0909063,6.21019,3,0.00451209,11,0.000564545,-2.2069,0.232645,0.253605,61.481,0.0909063,
2,1,0,1,0,3658.8,0.0926857,0.0924145,6.29798,3,0.00462982,11,0.000582025,-2.2008,0.238583,0.247294,60.7853,0.0924145,
2,1,0,1,0,3658.82,0.0941892,0.0939227,6.38183,3,0.00474917,11,0.000599399,-2.19505,0.268608,0.219651,54.7219,0.0939227,
2,1,0,1,0,3658.84,0.0956785,0.0953935,6.4573,3,0.00486874,11,0.000615984,-2.18995,0.277266,0.212792,53.7195,0.0953935,
2,1,0,1,0,3658.86,0.097182,0.0968932,6.543,3,0.00499115,11,0.000633973,-2.18422,0.276951,0.213034,54.4406,0.0968932,
2,1,0,1,0,3658.88,0.0986856,0.0984137,6.63368,3,0.00511517,11,0.000652845,-2.17825,0.28687,0.205668,53.2771,0.0984137,
2,1,0,1,0,3658.9,0.100175,0.0998984,6.72116,3,0.00523943,11,0.000671433,-2.17256,0.293363,0.201116,52.7332,0.0998984,
2,1,0,1,0,3658.92,0.101678,0.101374,6.80296,3,0.00536666,11,0.000689645,-2.1673,0.279108,0.211388,56.1684,0.101374,
2,1,0,1,0,3658.94,0.103175,0.10285,6.90665,3,0.00549482,11,0.000710352,-2.16073,0.252375,0.233779,63.0623,0.1028505,
2,1,0,1,0,3658.95,0.104671,0.104374,7.00829,3,0.00562478,11,0.000731486,-2.15439,0.244169,0.241636,66.0119,0.104374,
2,1,0,1,0,3658.97,0.106175,0.105928,7.10896,3,0.00575746,11,0.00075304,-2.14819,0.248051,0.237855,65.8672,0.105928,
2,1,0,1,0,3658.99,0.107662,0.107383,7.2073,3,0.00589057,11,0.000773942,-2.14223,0.230557,0.255902,72.0049,0.107383,
2,1,0,1,0,3659.01,0.109166,0.10889,7.31054,3,0.00602691,11,0.000796044,-2.13605,0.21638,0.272668,77.8893,0.10889,
2,1,0,1,0,3659.03,0.110669,0.110391,7.42387,3,0.00616549,11,0.000819528,-2.12937,0.204933,0.287899,83.4584,0.110391,
2,1,0,1,0,3659.05,0.112159,0.111843,7.54896,3,0.0063048,11,0.000844296,-2.12211,0.194859,0.302783,89.3328,0.111843,
2,1,0,1,0,3659.07,0.113662,0.113328,7.68961,3,0.00644807,11,0.000871451,-2.1141,0.178639,0.330276,99.2031,0.1133284,
2,1,0,1,0,3659.09,0.115166,0.114857,7.83144,3,0.006594,11,0.0008995,-2.10616,0.173095,0.340853,104.361,0.114857,
2,1,0,1,0,3659.1,0.116655,0.116361,7.99227,3,0.00674134,11,0.000929985,-2.09733,0.164705,0.358217,111.846,0.116361,
2,1,0,1,0,3659.12,0.118158,0.117854,8.16546,3,0.0068934,11,0.000962331,-2.08802,0.163276,0.361351,115.289,0.117854,
2,1,0,1,0,3659.14,0.119655,0.119314,8.34216,3,0.00704792,11,0.000995334,-2.07872,0.163836,0.360116,117.397,0.119314,
2,1,0,1,0,3659.16,0.121151,0.120901,8.52167,3,0.00720573,11,0.00103028,-2.06948,0.157769,0.373964,124.657,0.120901,
2,1,0,1,0,3659.18,0.122655,0.122394,8.72677,3,0.00736798,11,0.0010681,-2.05915,0.149366,0.395004,134.704,0.122394,
2,1,0,1,0,3659.2,0.124142,0.12384,8.94117,3,0.00753238,11,0.00110728,-2.04861,0.145765,0.404762,141.3,0.12384,
2,1,0,1,0,3659.22,0.125646,0.125373,9.16009,3,0.00770259,11,0.00114843,-2.0381,0.146249,0.403422,144.221,0.125373,
2,1,0,1,0,3659.24,0.127149,0.126873,9.38066,3,0.00787694,11,0.00119015,-2.02777,0.147074,0.401157,146.929,0.126873,
2,1,0,1,0,3659.25,0.128639,0.128357,9.61564,3,0.00805361,11,0.00123423,-2.01702,0.141386,0.417296,156.652,0.128357,
2,1,0,1,0,3659.27,0.130142,0.129818,9.85728,3,0.0082366,11,0.00127966,-2.00624,0.140972,0.418524,160.951,0.129818,
2,1,0,1,0,3659.29,0.131646,0.131409,10.1044,3,0.00842428,11,0.0013278,-1.99549,0.142485,0.414078,163.014,0.131409,
2,1,0,1,0,3659.31,0.133135,0.132836,10.3417,3,0.0086144,11,0.00137375,-1.98541,0.148737,0.396672,159.958,0.132836,
2,1,0,1,0,3659.33,0.134639,0.134332,10.5687,3,0.00881092,11,0.00141972,-1.97598,0.149627,0.394313,162.689,0.134332,
2,1,0,1,0,3659.35,0.136135,0.135838,10.814,3,0.00901092,11,0.00146896,-1.96601,0.152695,0.386392,162.917,0.135838,
2,1,0,1,0,3659.37,0.137631,0.137365,11.0453,3,0.00921537,11,0.00151723,-1.95682,0.161908,0.364405,156.962,0.137365,
2,1,0,1,0,3659.39,0.139135,0.138808,11.2742,3,0.00942529,11,0.00156495,-1.94791,0.171196,0.344634,151.475,0.138808,
2,1,0,1,0,3659.4,0.140622,0.140319,11.484,3,0.00963706,11,0.00161143,-1.93991,0.185481,0.318092,142.516,0.1403189,
2,1,0,1,0,3659.42,0.142126,0.141836,11.6917,3,0.0098551,11,0.00165829,-1.93212,0.198154,0.297748,135.799,0.141836,
2,1,0,1,0,3659.44,0.143629,0.143343,11.8971,3,0.0100771,11,0.00170537,-1.92456,0.217822,0.270863,125.599,0.143343,
2,1,0,1,0,3659.46,0.145119,0.144845,12.0725,3,0.0103002,11,0.00174864,-1.9182,0.252465,0.233696,109.995,0.144845,
2,1,0,1,0,3659.48,0.146622,0.146346,12.2312,3,0.0105288,11,0.00178998,-1.91253,0.288925,0.204205,97.4218,0.146346,
2,1,0,1,0,3659.5,0.148126,0.147847,12.3854,3,0.0107603,11,0.00183115,-1.90709,0.328941,0.179363,86.5272,0.147847,
2,1,0,1,0,3659.52,0.149615,0.149326,12.5087,3,0.0109919,11,0.00186788,-1.90279,0.400982,0.147139,71.6719,0.1493264,
2,1,0,1,0,3659.54,0.151119,0.150848,12.6117,3,0.011228,11,0.00190245,-1.89923,0.553856,0.106526,52.2671,0.150848,
2,1,0,1,0,3659.55,0.152615,0.152318,12.6794,3,0.0114644,11,0.00193131,-1.8969,0.896563,0.0658068,32.4662,0.152318,
2,1,0,1,0,3659.57,0.154111,0.153829,12.7065,3,0.0117017,11,0.00195463,-1.89597,2.13005,0.0276988,13.7031,0.153829,
2,1,0,1,0,3659.59,0.155615,0.155348,12.7101,3,0.0119406,11,0.0019745,-1.89585,-2.6425,-0.0223273,-11.0386,0.155348,
2,1,0,1,0,3659.61,0.157103,0.156799,12.6674,3,0.0121767,11,0.00198624,-1.89731,-0.676402,-0.0872262,-42.9405,0.156799,
2,1,0,1,0,3659.63,0.158606,0.158354,12.5763,3,0.0124141,11,0.00199151,-1.90045,-0.377287,-0.15638,-76.4346,0.158354,
2,1,0,1,0,3659.65,0.16011,0.159845,12.4159,3,0.0126491,11,0.00198463,-1.90602,-0.249525,-0.236449,-114.178,0.159845,
2,1,0,1,0,3659.67,0.161599,0.161368,12.2212,3,0.0128784,11,0.00197211,-1.91289,-0.180804,-0.32632,-154.921,0.161368,
2,1,0,1,0,3659.69,0.163102,0.162843,11.9539,3,0.0131058,11,0.00194662,-1.92249,-0.139993,-0.421449,-195.654,0.162843,
2,1,0,1,0,3659.7,0.164606,0.164329,11.6218,3,0.0133277,11,0.0019098,-1.93473,-0.109751,-0.537581,-242.607,0.164329,
2,1,0,1,0,3659.72,0.166095,0.165818,11.2293,3,0.0135403,11,0.00186202,-1.94965,-0.0901385,-0.654548,-285.545,0.165818,
2,1,0,1,0,3659.74,0.167599,0.167309,10.7758,3,0.0137474,11,0.00180289,-1.96755,-0.0798388,-0.738989,-309.499,0.167309,
2,1,0,1,0,3659.76,0.169095,0.16883,10.2921,3,0.0139445,11,0.00173761,-1.9875,-0.0691407,-0.853332,-341.08,0.16883,
2,1,0,1,0,3659.78,0.170592,0.1703,9.75634,3,0.014132,11,0.0016615,-2.01071,-0.0604196,-0.976504,-370.176,0.1703,
2,1,0,1,0,3659.8,0.172095,0.171829,9.18708,3,0.0143101,11,0.0015786,-2.03682,-0.0566817,-1.0409,-372.611,0.171829,
2,1,0,1,0,3659.82,0.173583,0.173291,8.63554,3,0.0144758,11,0.00149646,-2.06371,-0.0538936,-1.09475,-368.499,0.173291,
2,1,0,1,0,3659.83,0.175086,0.174755,8.09455,3,0.0146329,11,0.00141456,-2.09181,-0.0536192,-1.10035,-347.698,0.174755,
2,1,0,1,0,3659.85,0.17659,0.176316,7.58703,3,0.0147801,11,0.00133771,-2.11993,-0.0530101,-1.113,-329.777,0.176316,
2,1,0,1,0,3659.87,0.178079,0.17776,7.12179,3,0.0149168,11,0.00126597,-2.14741,-0.0548041,-1.07656,-300.342,0.17776,
2,1,0,1,0,3659.89,0.179582,0.179316,6.70306,3,0.0150465,11,0.00120197,-2.17373,-0.0610987,-0.96565,-254.07,0.179316,
2,1,0,1,0,3659.91,0.181086,0.180811,6.34946,3,0.0151691,11,0.00114805,-2.19726,-0.0677418,-0.870954,-216.862,0.180811,
2,1,0,1,0,3659.93,0.182575,0.182305,6.04178,3,0.0152842,11,0.00110145,-2.21884,-0.0728699,-0.809662,-191.76,0.182305,
2,1,0,1,0,3659.95,0.184079,0.183858,5.78031,3,0.0153953,11,0.00106276,-2.23805,-0.0822761,-0.717098,-162.479,0.183858,
2,1,0,1,0,3659.97,0.185582,0.185289,5.54126,3,0.0155016,11,0.00102673,-2.25639,-0.0944828,-0.624452,-135.804,0.185289,
2,1,0,1,0,3659.98,0.18707,0.186763,5.35032,3,0.015603,11,0.000999245,-2.27162,-0.106335,-0.554851,-116.345,0.186763,
2,1,0,1,0,3660,0.188573,0.188277,5.17857,3,0.0157021,11,0.000975005,-2.28579,-0.11473,-0.514251,-104.334,0.1882768,
2,1,0,1,0,3660.02,0.19007,0.189808,5.03268,3,0.0157977,11,0.000955245,-2.2982,-0.118206,-0.499129,-98.2774,0.189808,
2,1,0,1,0,3660.04,0.191566,0.191295,4.88841,3,0.0158906,11,0.000935131,-2.31083,-0.127873,-0.461394,-88.5028,0.191295,
2,1,0,1,0,3660.06,0.19307,0.192814,4.77379,3,0.0159815,11,0.000920454,-2.32114,-0.145163,-0.40644,-76.0225,0.192814,
2,1,0,1,0,3660.08,0.194559,0.194266,4.68164,3,0.0160696,11,0.000909484,-2.3296,-0.152834,-0.38604,-70.5282,0.194266,
2,1,0,1,0,3660.1,0.196063,0.195778,4.57381,3,0.0161566,11,0.000895453,-2.33972,-0.151065,-0.39056,-69.8003,0.195778,
2,1,0,1,0,3660.12,0.197566,0.197296,4.47947,3,0.0162418,11,0.000883781,-2.34877,-0.163209,-0.3615,-63.3535,0.197296,
2,1,0,1,0,3660.13,0.199055,0.198749,4.40291,3,0.0163243,11,0.000875073,-2.35626,-0.176692,-0.333914,-57.3711,0.198749,
2,1,0,1,0,3660.15,0.200559,0.200298,4.32533,3,0.0164062,11,0.000866357,-2.36398,-0.206438,-0.2858,-48.1872,0.200298,
2,1,0,1,0,3660.17,0.202062,0.201786,4.25493,3,0.0164868,11,0.000858586,-2.37111,-0.200524,-0.294229,-48.736,0.201786,
2,1,0,1,0,3660.19,0.20355,0.203274,4.17875,3,0.0165652,11,0.000849431,-2.37895,-0.221611,-0.266232,-43.476,0.203274,
2,1,0,1,0,3660.21,0.205053,0.204749,4.11738,3,0.0166431,11,0.000843031,-2.38538,-0.281156,-0.209848,-33.8163,0.204749,
2,1,0,1,0,3660.23,0.20655,0.206258,4.06521,3,0.0167196,11,0.000838482,-2.39092,-0.308094,-0.1915,-30.3846,0.206258,
2,1,0,1,0,3660.25,0.208046,0.207789,4.01843,3,0.0167953,11,0.000834988,-2.39594,-0.293182,-0.20124,-31.4866,0.207789,
2,1,0,1,0,3660.27,0.20955,0.209268,3.96089,3,0.0168703,11,0.000828886,-2.40221,-0.283291,-0.208266,-32.2452,0.209268,
2,1,0,1,0,3660.28,0.211039,0.210771,3.90718,3,0.0169435,11,0.000823519,-2.40814,-0.314814,-0.187413,-28.6645,0.210771,
2,1,0,1,0,3660.3,0.212543,0.212285,3.87338,3,0.0170168,11,0.000822261,-2.41191,-0.33868,-0.174206,-26.3279,0.212285,
2,1,0,1,0,3660.32,0.214046,0.213721,3.82425,3,0.0170893,11,0.000817322,-2.41745,-0.362073,-0.162951,-24.4047,0.213721,
2,1,0,1,0,3660.34,0.215535,0.215273,3.79381,3,0.0171602,11,0.000816705,-2.42092,-0.332921,-0.177219,-26.2648,0.2152731,
2,1,0,1,0,3660.36,0.217039,0.216785,3.75322,3,0.0172313,11,0.000813641,-2.4256,-0.371556,-0.158792,-23.3381,0.216785,
2,1,0,1,0,3660.38,0.218543,0.218271,3.72156,3,0.0173017,11,0.000812308,-2.42927,-0.467829,-0.126114,-18.3692,0.218271,
2,1,0,1,0,3660.4,0.22003,0.21977,3.70576,3,0.0173709,11,0.000814414,-2.43112,-0.407464,-0.144798,-20.9295,0.21977,
2,1,0,1,0,3660.42,0.221534,0.221258,3.67754,3,0.0174403,11,0.000813685,-2.43444,-0.403053,-0.146383,-20.9717,0.221258,
2,1,0,1,0,3660.43,0.22303,0.222749,3.64706,3,0.0175088,11,0.000812379,-2.43806,-0.407869,-0.144654,-20.5886,0.2227491,
2,1,0,1,0,3660.45,0.224526,0.224285,3.62669,3,0.0175767,11,0.000813412,-2.44049,-0.464718,-0.126959,-17.9412,0.224285,
2,1,0,1,0,3660.47,0.22603,0.225786,3.60304,3,0.0176446,11,0.000813514,-2.44333,-0.599122,-0.0984775,-13.8309,0.225786,
2,1,0,1,0,3660.49,0.227519,0.227237,3.58211,3,0.0177114,11,0.000813988,-2.44586,-0.581634,-0.101438,-14.1453,0.227237,
2,1,0,1,0,3660.51,0.229023,0.228722,3.56081,3,0.0177785,11,0.000814437,-2.44845,-0.602504,-0.0979246,-13.6018,0.228722,
2,1,0,1,0,3660.53,0.230526,0.230257,3.5331,3,0.0178451,11,0.000813521,-2.45184,-0.868195,-0.0679571,-9.38642,0.230257,
2,1,0,1,0,3660.55,0.232016,0.231782,3.51698,3,0.0179107,11,0.000815172,-2.45383,-1.07989,-0.0546353,-7.49925,0.231782,
2,1,0,1,0,3660.57,0.233519,0.233225,3.50021,3,0.0179767,11,0.000816339,-2.45591,-0.842694,-0.0700135,-9.55682,0.233225,
2,1,0,1,0,3660.58,0.235023,0.234751,3.48148,3,0.0180424,11,0.000817283,-2.45824,-0.948814,-0.0621829,-8.45233,0.234751,
2,1,0,1,0,3660.6,0.23651,0.236201,3.45461,3,0.018107,11,0.000815982,-2.4616,-0.77401,-0.0762264,-10.3124,0.236201,
2,1,0,1,0,3660.62,0.238014,0.237793,3.44056,3,0.018172,11,0.000818142,-2.46337,-0.975339,-0.0604918,-8.13557,0.2377934,
2,1,0,1,0,3660.64,0.23951,0.239222,3.43042,3,0.0182365,11,0.00082063,-2.46465,-0.700316,-0.0842477,-11.3004,0.2392218,
2,1,0,1,0,3660.66,0.241006,0.24074,3.4197,3,0.0183006,11,0.00082326,-2.46601,-0.580721,-0.101598,-13.57,0.24074,
2,1,0,1,0,3660.68,0.24251,0.242201,3.39773,3,0.0183648,11,0.000822932,-2.46881,-0.646202,-0.0913027,-12.1458,0.242201,
2,1,0,1,0,3660.7,0.243999,0.243755,3.39049,3,0.0184281,11,0.000826448,-2.46974,-0.918303,-0.0642489,-8.51323,0.243755,
2,1,0,1,0,3660.72,0.245503,0.245243,3.39212,3,0.0184918,11,0.000831892,-2.46953,-0.750981,-0.0785639,-10.3687,0.245243,
2,1,0,1,0,3660.73,0.247006,0.246793,3.37878,3,0.0185554,11,0.000833859,-2.47124,-0.646085,-0.0913193,-11.9987,0.246793,
2,1,0,1,0,3660.75,0.248496,0.248225,3.36029,3,0.018618,11,0.000834107,-2.47362,-0.773014,-0.0763246,-10.0132,0.248225,
2,1,0,1,0,3660.77,0.249999,0.249718,3.35473,3,0.018681,11,0.000837735,-2.47434,-1.05538,-0.0559039,-7.30148,0.2497175,
2,1,0,1,0,3660.79,0.251503,0.251226,3.34347,3,0.0187439,11,0.000839967,-2.4758,-1.94564,-0.0303243,-3.94994,0.2512261,
2,1,0,1,0,3660.81,0.25299,0.252717,3.32669,3,0.0188059,11,0.000840711,-2.47799,-1.29918,-0.0454133,-5.88437,0.2527166,
2,1,0,1,0,3660.83,0.254494,0.254202,3.31393,3,0.0188684,11,0.000842406,-2.47966,-1.43968,-0.0409814,-5.30161,0.254202,
2,1,0,1,0,3660.85,0.25599,0.255695,3.29878,3,0.0189302,11,0.000843482,-2.48165,-2.52361,-0.0233792,-3.01588,0.255695,
2,1,0,1,0,3660.86,0.257487,0.257229,3.29217,3,0.0189919,11,0.000846841,-2.48252,-2.78344,-0.0211968,-2.7241,0.257229,
2,1,0,1,0,3660.88,0.25899,0.258748,3.28556,3,0.0190539,11,0.000850131,-2.48339,-1.93525,-0.030487,-3.90872,0.258748,
2,1,0,1,0,3660.9,0.260479,0.260233,3.27562,3,0.019115,11,0.000852422,-2.48471,-0.962234,-0.0613157,-7.84026,0.260233,
2,1,0,1,0,3660.92,0.261983,0.261738,3.25405,3,0.0191764,11,0.000851707,-2.48758,-1.03495,-0.0570074,-7.26519,0.261738,
2,1,0,1,0,3660.94,0.263486,0.263189,3.25601,3,0.0192378,11,0.000856947,-2.48731,-1.62694,-0.0362643,-4.60224,0.263189,
2,1,0,1,0,3660.96,0.264974,0.264731,3.24396,3,0.0192983,11,0.000858775,-2.48892,-1.12809,-0.0523006,-6.62935,0.264731,
2,1,0,1,0,3660.98,0.266477,0.266195,3.23412,3,0.0193593,11,0.000860907,-2.49024,-0.761115,-0.0775179,-9.79563,0.266195,
2,1,0,1,0,3661,0.267981,0.267711,3.22284,3,0.0194201,11,0.000862791,-2.49176,-0.841067,-0.070149,-8.84372,0.2677114,
2,1,0,1,0,3661.01,0.26947,0.269192,3.22243,3,0.0194801,11,0.000867453,-2.49182,-1.38483,-0.0426046,-5.35811,0.2691924,
2,1,0,1,0,3661.03,0.270974,0.270704,3.22092,3,0.0195406,11,0.000871916,-2.49202,-1.00799,-0.0585325,-7.33594,0.270704,
2,1,0,1,0,3661.05,0.27247,0.272206,3.21354,3,0.0196008,11,0.000874745,-2.49302,-0.859063,-0.0686795,-8.5844,0.272206,
2,1,0,1,0,3661.07,0.273967,0.273677,3.19666,3,0.0196606,11,0.000874854,-2.4953,-1.05381,-0.0559871,-6.98731,0.2736772,
2,1,0,1,0,3661.09,0.27547,0.275212,3.18963,3,0.0197206,11,0.000877823,-2.49626,-2.31867,-0.0254456,-3.16712,0.275212,
2,1,0,1,0,3661.11,0.276959,0.276664,3.184,3,0.0197798,11,0.0008809,-2.49703,-4.67302,-0.0126257,-1.56675,0.276664,
2,1,0,1,0,3661.13,0.278463,0.278181,3.17522,3,0.0198396,11,0.000883285,-2.49823,-2.13678,-0.0276116,-3.41273,0.278181,
2,1,0,1,0,3661.15,0.279967,0.279703,3.16318,3,0.0198992,11,0.00088475,-2.49988,-2.97291,-0.0198459,-2.44893,0.279703,
2,1,0,1,0,3661.16,0.281454,0.28119,3.14781,3,0.0199579,11,0.000885132,-2.50199,-2.06575,-0.028561,-3.51788,0.28119,
2,1,0,1,0,3661.18,0.282958,0.282714,3.14382,3,0.0200171,11,0.000888803,-2.50254,-14.4072,-0.00409517,-0.502585,0.282714,
2,1,0,1,0,3661.2,0.284461,0.284209,3.13853,3,0.0200764,11,0.000892,-2.50327,-2.00883,-0.0293703,-3.59706,0.284209,
2,1,0,1,0,3661.22,0.28595,0.285634,3.12688,3,0.0201348,11,0.000893143,-2.50489,-0.993282,-0.0593991,-7.26466,0.285634,
2,1,0,1,0,3661.24,0.287454,0.287165,3.11559,3,0.0201936,11,0.00089469,-2.50646,-0.963105,-0.0612602,-7.46955,0.287165,
2,1,0,1,0,3661.26,0.28895,0.288675,3.11436,3,0.020252,11,0.00089904,-2.50663,-1.39937,-0.0421619,-5.12182,0.2886751,
2,1,0,1,0,3661.28,0.290447,0.290218,3.1084,3,0.0203102,11,0.000902115,-2.50746,-0.997597,-0.0591421,-7.18256,0.290218,
2,1,0,1,0,3661.3,0.29195,0.291707,3.10605,3,0.0203687,11,0.000906058,-2.50779,-0.74816,-0.0788602,-9.54624,0.291707,
2,1,0,1,0,3661.31,0.29344,0.293131,3.09243,3,0.0204264,11,0.000906487,-2.5097,-0.925937,-0.0637192,-7.69745,0.293131,
2,1,0,1,0,3661.33,0.294943,0.294666,3.09228,3,0.0204844,11,0.000911192,-2.50972,-1.7391,-0.0339257,-4.09212,0.294666,
2,1,0,1,0,3661.35,0.296447,0.296186,3.09195,3,0.0205425,11,0.000915794,-2.50977,-1.87606,-0.031449,-3.77974,0.296186,
2,1,0,1,0,3661.37,0.297934,0.297631,3.08231,3,0.0205998,11,0.000917392,-2.51112,-1.7661,-0.033407,-4.00672,0.297631,
2,1,0,1,0,3661.39,0.299438,0.299184,3.07051,3,0.0206576,11,0.000918646,-2.51279,-0.0189263,-3.11735,-325.492,0.299184,
2,1,0,1,0,3661.4,0.300012,0.299632,3.05419,3,0.0206791,11,0.000915134,-2.5151,0.00051616,114.306,4674.53,0.299632,
2,1,0,1,0,3661.41,0.298737,0.298455,0.355018,3,0.0207024,11,0.000105957,-3.44975,0.00566007,10.4239,1256.48,0.298455,
2,0,0,1,0,3661.43,0.29724,0.296983,-0.695715,3,0.0206973,11,-0.000206615,-3.15757,1.92885,0.0305881,547.17,0.296983,
2,0,0,1,0,3661.45,0.295744,0.295422,-1.03941,3,0.0206804,11,-0.000307065,-2.98321,-0.010141,-5.81795,179.395,0.295422,
2,0,0,1,0,3661.47,0.29424,0.293956,-1.17647,3,0.0206592,11,-0.00034583,-2.92942,-0.035014,-1.68504,73.5253,0.293956,
2,0,0,1,0,3661.49,0.292751,0.292423,-1.25146,3,0.0206365,11,-0.000365957,-2.90258,-0.0629469,-0.937297,45.4257,0.292423,
2,0,0,1,0,3661.51,0.291248,0.290942,-1.32152,3,0.0206124,11,-0.000384485,-2.87893,-0.0789434,-0.747371,38.226,0.290942,
2,0,0,1,0,3661.52,0.289744,0.289421,-1.38171,3,0.020587,11,-0.000399894,-2.85958,-0.0884935,-0.666716,35.5894,0.289421,
2,0,0,1,0,3661.54,0.288257,0.287957,-1.43226,3,0.0205609,11,-0.000412429,-2.84398,-0.109546,-0.538589,29.7539,0.287957,
2,0,0,1,0,3661.56,0.286753,0.286437,-1.47158,3,0.0205336,11,-0.000421515,-2.83222,-0.11898,-0.49588,28.4232,0.286437,
2,0,0,1,0,3661.58,0.285249,0.284969,-1.51973,3,0.0205056,11,-0.000433077,-2.81823,-0.117681,-0.501357,29.6345,0.284969,
2,0,0,1,0,3661.6,0.28376,0.283482,-1.56185,3,0.020477,11,-0.000442757,-2.80636,-0.120648,-0.489027,29.734,0.283482,
2,0,0,1,0,3661.62,0.282257,0.281941,-1.60087,3,0.0204473,11,-0.000451353,-2.79564,-0.144231,-0.409065,25.3929,0.281941,
2,0,0,1,0,3661.64,0.28076,0.280439,-1.63766,3,0.020417,11,-0.000459263,-2.78578,-0.152532,-0.386804,24.6073,0.280439,
2,0,0,1,0,3661.66,0.279264,0.278972,-1.66844,3,0.0203862,11,-0.000465447,-2.77769,-0.152317,-0.387351,25.1752,0.278972,
2,0,0,1,0,3661.67,0.27776,0.277504,-1.69911,3,0.0203545,11,-0.00047151,-2.76978,-0.156174,-0.377783,25.0231,0.277504,
2,0,0,1,0,3661.69,0.276271,0.275979,-1.73496,3,0.0203225,11,-0.000478813,-2.76071,-0.160586,-0.367404,24.8399,0.2759786,
2,0,0,1,0,3661.71,0.274767,0.274458,-1.76168,3,0.0202896,11,-0.000483508,-2.75407,-0.193473,-0.304952,20.9873,0.274458,
2,0,0,1,0,3661.73,0.273264,0.272983,-1.78292,3,0.0202562,11,-0.000486707,-2.74887,-0.197232,-0.299139,20.9187,0.2729829,
2,0,0,1,0,3661.75,0.271776,0.271518,-1.81344,3,0.0202226,11,-0.000492381,-2.7415,-0.201841,-0.29231,20.7605,0.2715176,
2,0,0,1,0,3661.77,0.270273,0.270016,-1.85236,3,0.020188,11,-0.000500166,-2.73227,-0.242086,-0.243715,17.5952,0.270016,
2,0,0,1,0,3661.79,0.268769,0.268455,-1.8776,3,0.0201528,11,-0.000504052,-2.7264,-0.35206,-0.167585,12.2661,0.268455,
2,0,0,1,0,3661.81,0.26728,0.266984,-1.89434,3,0.0201177,11,-0.000505759,-2.72254,-0.344796,-0.171116,12.7005,0.266984,
2,0,0,1,0,3661.82,0.265777,0.26546,-1.92769,3,0.0200817,11,-0.000511725,-2.71496,-0.314641,-0.187515,14.103,0.26546,
2,0,0,1,0,3661.84,0.26428,0.263981,-1.95975,3,0.0200454,11,-0.000517337,-2.7078,-0.281323,-0.209724,15.9532,0.263981,
2,0,0,1,0,3661.86,0.262784,0.262505,-1.98354,3,0.0200086,11,-0.00052069,-2.70256,-0.36597,-0.161215,12.415,0.262505,
2,0,0,1,0,3661.88,0.26128,0.260985,-2.00602,3,0.0199712,11,-0.000523542,-2.69766,-0.343875,-0.171574,13.4048,0.260985,
2,0,0,1,0,3661.9,0.259791,0.259538,-2.02707,3,0.0199338,11,-0.000526101,-2.69313,-0.256538,-0.229985,18.2412,0.259538,
2,0,0,1,0,3661.92,0.258287,0.257994,-2.0535,3,0.0198956,11,-0.000529789,-2.68751,-0.240081,-0.24575,19.613,0.257994,
2,0,0,1,0,3661.94,0.256786,0.256476,-2.074,3,0.0198568,11,-0.000531932,-2.68319,-0.271468,-0.217337,17.5253,0.256476,
2,0,0,1,0,3661.96,0.255296,0.255006,-2.0955,3,0.019818,11,-0.000534365,-2.67871,-0.284015,-0.207735,16.937,0.255006,
2,0,0,1,0,3661.97,0.253793,0.253503,-2.10732,3,0.0197785,11,-0.000534211,-2.67627,-0.308164,-0.191457,15.7849,0.253503,
2,0,0,1,0,3661.99,0.252289,0.251947,-2.13377,3,0.0197386,11,-0.000537597,-2.67085,-0.258226,-0.228482,19.0016,0.251947,
2,0,0,1,0,3662.01,0.2508,0.250454,-2.15205,3,0.0196987,11,-0.000538989,-2.66715,-0.305543,-0.193099,16.2705,0.250454,
2,0,0,1,0,3662.03,0.249296,0.248981,-2.16926,3,0.0196579,11,-0.000540104,-2.66369,-0.402815,-0.146469,12.4436,0.2489806,
2,0,0,1,0,3662.05,0.2478,0.247514,-2.18875,3,0.0196169,11,-0.000541747,-2.6598,-0.402372,-0.14663,12.5877,0.247514,
2,0,0,1,0,3662.07,0.246304,0.246023,-2.21538,3,0.0195757,11,-0.000545035,-2.65455,-0.387603,-0.152218,13.191,0.246023,
2,0,0,1,0,3662.09,0.2448,0.244528,-2.2456,3,0.0195337,11,-0.000549112,-2.64867,-0.396847,-0.148672,13.0106,0.2445278,
2,0,0,1,0,3662.11,0.243313,0.242978,-2.26649,3,0.0194917,11,-0.000550706,-2.64465,-0.476054,-0.123936,10.9283,0.242978,
2,0,0,1,0,3662.12,0.241809,0.241542,-2.27781,3,0.019449,11,-0.000550188,-2.64248,-0.458994,-0.128542,11.4621,0.241542,
2,0,0,1,0,3662.14,0.240306,0.239992,-2.30216,3,0.0194059,11,-0.000552501,-2.63786,-0.456119,-0.129352,11.6434,0.239992,
2,0,0,1,0,3662.16,0.238816,0.238526,-2.33009,3,0.0193628,11,-0.000555786,-2.63263,-0.374035,-0.157739,14.3136,0.238526,
2,0,0,1,0,3662.18,0.237313,0.237007,-2.35238,3,0.0193189,11,-0.000557531,-2.62849,-0.50497,-0.116839,10.6801,0.237007,
2,0,0,1,0,3662.2,0.235809,0.235543,-2.37198,3,0.0192745,11,-0.000558704,-2.62489,-0.34331,-0.171856,15.885,0.235543,
2,0,0,1,0,3662.22,0.23432,0.234018,-2.38785,3,0.0192304,11,-0.000558798,-2.62199,-0.359832,-0.163965,15.301,0.234018,
2,0,0,1,0,3662.24,0.232816,0.232445,-2.41205,3,0.0191853,11,-0.000560668,-2.61761,-0.299313,-0.197118,18.5398,0.232445,
2,0,0,1,0,3662.26,0.23132,0.230985,-2.43783,3,0.0191399,11,-0.000563101,-2.613,-0.322997,-0.182664,17.325,0.230985,
2,0,0,1,0,3662.27,0.229824,0.229518,-2.45067,3,0.0190942,11,-0.000562472,-2.61072,-0.370997,-0.159031,15.2278,0.229518,
2,0,0,1,0,3662.29,0.22832,0.228025,-2.46873,3,0.0190479,11,-0.000562931,-2.60753,-0.343236,-0.171894,16.6162,0.228025,
2,0,0,1,0,3662.31,0.226833,0.226538,-2.49446,3,0.0190016,11,-0.00056509,-2.60302,-0.2984,-0.197721,19.2512,0.226538,
2,0,0,1,0,3662.33,0.225329,0.225041,-2.51424,3,0.0189544,11,-0.000565807,-2.59959,-0.382047,-0.154431,15.2139,0.225041,
2,0,0,1,0,3662.35,0.223825,0.223475,-2.54294,3,0.0189067,11,-0.000568284,-2.59466,-0.449563,-0.131238,13.0332,0.223475,
2,0,0,1,0,3662.37,0.222336,0.222062,-2.56373,3,0.0188591,11,-0.000569307,-2.59113,-0.399644,-0.147631,14.8254,0.222062,
2,0,0,1,0,3662.39,0.220833,0.220524,-2.58913,3,0.0188106,11,-0.000570965,-2.58685,-0.37803,-0.156072,15.8087,0.220524,
2,0,0,1,0,3662.4,0.219329,0.219016,-2.63086,3,0.0187615,11,-0.000576199,-2.5799,-0.387336,-0.152323,15.5792,0.219016,
2,0,0,1,0,3662.42,0.21784,0.217522,-2.65107,3,0.0187124,11,-0.000576668,-2.57658,-0.493268,-0.11961,12.3402,0.217522,
2,0,0,1,0,3662.44,0.216336,0.216025,-2.67103,3,0.0186624,11,-0.000577009,-2.57332,-0.445447,-0.132451,13.8311,0.216025,
2,0,0,1,0,3662.46,0.21484,0.21452,-2.70273,3,0.0186123,11,-0.000579791,-2.5682,-0.352569,-0.167343,17.6502,0.21452,
2,0,0,1,0,3662.48,0.213343,0.213021,-2.73796,3,0.0185615,11,-0.000583242,-2.56257,-0.282065,-0.209172,22.2783,0.213021,
2,0,0,1,0,3662.5,0.21184,0.211519,-2.76293,3,0.0185099,11,-0.000584413,-2.55863,-0.313207,-0.188374,20.2736,0.211519,
2,0,0,1,0,3662.52,0.210352,0.210039,-2.79269,3,0.0184582,11,-0.000586575,-2.55398,-0.269752,-0.218719,23.8163,0.210039,
2,0,0,1,0,3662.54,0.208849,0.208559,-2.81571,3,0.0184056,11,-0.000587243,-2.55041,-0.244597,-0.241213,26.5856,0.208559,
2,0,0,1,0,3662.55,0.207345,0.207044,-2.85378,3,0.0183523,11,-0.00059086,-2.54458,-0.225899,-0.261179,29.0711,0.207044,
2,0,0,1,0,3662.57,0.205856,0.205512,-2.89459,3,0.0182987,11,-0.000594873,-2.53841,-0.254332,-0.23198,26.1459,0.205512,
2,0,0,1,0,3662.59,0.204353,0.204028,-2.92253,3,0.0182439,11,-0.000596278,-2.53424,-0.302455,-0.19507,22.3269,0.204028,
2,0,0,1,0,3662.61,0.202849,0.202523,-2.94989,3,0.0181886,11,-0.00059742,-2.53019,-0.275097,-0.214469,24.8008,0.202523,
2,0,0,1,0,3662.63,0.20136,0.201055,-2.99345,3,0.0181332,11,-0.000601849,-2.52383,-0.252062,-0.234069,27.4193,0.201055,
2,0,0,1,0,3662.65,0.199856,0.199584,-3.03367,3,0.0180764,11,-0.000605472,-2.51803,-0.272838,-0.216245,25.6925,0.199584,
2,0,0,1,0,3662.67,0.19836,0.198032,-3.08266,3,0.018019,11,-0.000610464,-2.51107,-0.285068,-0.206968,24.9096,0.198032,
2,0,0,1,0,3662.69,0.196863,0.196579,-3.11832,3,0.017961,11,-0.000612995,-2.50608,-0.259072,-0.227736,27.8332,0.196579,
2,0,0,1,0,3662.7,0.19536,0.195073,-3.17827,3,0.0179018,11,-0.000619994,-2.49781,-0.230196,-0.256303,31.8146,0.195073,
2,0,0,1,0,3662.72,0.193872,0.193553,-3.2407,3,0.0178422,11,-0.000627248,-2.48936,-0.209754,-0.281282,35.4427,0.193553,
2,0,0,1,0,3662.74,0.192369,0.192057,-3.28836,3,0.0177809,11,-0.000631555,-2.48302,-0.222129,-0.265612,33.9892,0.192057,
2,0,0,1,0,3662.76,0.190865,0.190514,-3.3413,3,0.0177186,11,-0.000636565,-2.47609,-0.208324,-0.283213,36.9419,0.190514,
2,0,0,1,0,3662.78,0.189376,0.189058,-3.39824,3,0.017656,11,-0.000642463,-2.46875,-0.189941,-0.310623,41.2543,0.189058,
2,0,0,1,0,3662.8,0.187872,0.187582,-3.46321,3,0.0175916,11,-0.000649635,-2.46052,-0.167126,-0.353027,47.7598,0.187582,
2,0,0,1,0,3662.82,0.186369,0.186025,-3.53629,3,0.0175258,11,-0.000657837,-2.45145,-0.165102,-0.357355,49.2591,0.1860245,
2,0,0,1,0,3662.84,0.18488,0.18456,-3.60719,3,0.0174593,11,-0.000665742,-2.44283,-0.165324,-0.356876,50.2383,0.18456,
2,0,0,1,0,3662.85,0.183376,0.183073,-3.67554,3,0.0173909,11,-0.000672892,-2.43468,-0.15602,-0.378156,54.4217,0.183073,
2,0,0,1,0,3662.87,0.18188,0.181573,-3.7622,3,0.0173213,11,-0.000683113,-2.42456,-0.143092,-0.412323,60.5954,0.181573,
2,0,0,1,0,3662.89,0.180383,0.180074,-3.85448,3,0.01725,11,-0.000694094,-2.41403,-0.137877,-0.427918,64.3791,0.180074,
2,0,0,1,0,3662.91,0.17888,0.178539,-3.94647,3,0.0171766,11,-0.000704599,-2.40379,-0.141149,-0.417998,64.4807,0.1785392,
2,0,0,1,0,3662.93,0.177392,0.177091,-4.04254,3,0.0171022,11,-0.000715896,-2.39335,-0.13601,-0.433793,68.7045,0.1770906,
2,0,0,1,0,3662.95,0.175889,0.175567,-4.15021,3,0.0170251,11,-0.000728639,-2.38193,-0.128129,-0.460474,74.7961,0.175567,
2,0,0,1,0,3662.97,0.174385,0.174068,-4.27707,3,0.0169457,11,-0.0007445,-2.36885,-0.121517,-0.48553,81.1606,0.174068,
2,0,0,1,0,3662.99,0.172896,0.172599,-4.40838,3,0.016865,11,-0.000760883,-2.35572,-0.123245,-0.478723,82.3632,0.1725993,
2,0,0,1,0,3663,0.171392,0.171125,-4.5366,3,0.0167809,11,-0.000776327,-2.34327,-0.112877,-0.522694,92.7148,0.171125,
2,0,0,1,0,3663.02,0.169889,0.169589,-4.69317,3,0.0166942,11,-0.00079591,-2.32853,-0.103245,-0.571458,104.928,0.169589,
2,0,0,1,0,3663.04,0.1684,0.168103,-4.86205,3,0.0166055,11,-0.000817323,-2.31318,-0.098862,-0.596791,113.137,0.168103,
2,0,0,1,0,3663.06,0.166896,0.166618,-5.03242,3,0.0165125,11,-0.000838495,-2.29822,-0.0978344,-0.60306,118.34,0.166618,
2,0,0,1,0,3663.08,0.165392,0.165065,-5.21504,3,0.0164162,11,-0.000860822,-2.28274,-0.0932157,-0.632941,128.967,0.165065,
2,0,0,1,0,3663.1,0.163905,0.163591,-5.40502,3,0.0163175,11,-0.000884213,-2.2672,-0.0887587,-0.664723,140.668,0.1635911,
2,0,0,1,0,3663.12,0.162401,0.162108,-5.62617,3,0.0162138,11,-0.000912049,-2.24979,-0.0845687,-0.697657,153.342,0.162108,
2,0,0,1,0,3663.14,0.160905,0.160601,-5.85902,3,0.0161064,11,-0.000940966,-2.23217,-0.0839391,-0.702891,160.799,0.160601,
2,0,0,1,0,3663.15,0.159409,0.159111,-6.10155,3,0.0159945,11,-0.000970822,-2.21456,-0.0837946,-0.704102,167.715,0.1591107,
2,0,0,1,0,3663.17,0.157905,0.157624,-6.35206,3,0.0158774,11,-0.00100124,-2.19709,-0.0807038,-0.731068,181.752,0.157624,
2,0,0,1,0,3663.19,0.156416,0.15612,-6.63624,3,0.0157566,11,-0.00103605,-2.17808,-0.0784268,-0.752294,195.173,0.15612,
2,0,0,1,0,3663.21,0.154912,0.154555,-6.93707,3,0.0156289,11,-0.00107216,-2.15882,-0.0800518,-0.737023,199.297,0.154555,
2,0,0,1,0,3663.23,0.153409,0.15311,-7.23387,3,0.0154955,11,-0.00110758,-2.14063,-0.08162,-0.722862,204.333,0.15311,
2,0,0,1,0,3663.25,0.151919,0.151676,-7.53537,3,0.0153581,11,-0.00114293,-2.1229,-0.0841538,-0.701098,206.84,0.151676,
2,0,0,1,0,3663.27,0.150416,0.150113,-7.87791,3,0.0152132,11,-0.00118258,-2.10359,-0.0788212,-0.74853,229.998,0.150113,
2,0,0,1,0,3663.29,0.148912,0.148569,-8.22586,3,0.0150617,11,-0.00122211,-2.08482,-0.0819342,-0.72009,230.814,0.148569,
2,0,0,1,0,3663.3,0.147425,0.147115,-8.56627,3,0.0149054,11,-0.00126023,-2.06721,-0.0873533,-0.675418,225.555,0.147115,
2,0,0,1,0,3663.32,0.145921,0.145643,-8.90413,3,0.0147411,11,-0.00129682,-2.05041,-0.0910953,-0.647673,224.917,0.145643,
2,0,0,1,0,3663.34,0.144425,0.144147,-9.24606,3,0.0145714,11,-0.00133279,-2.03404,-0.0948417,-0.622089,224.436,0.144147,
2,0,0,1,0,3663.36,0.142929,0.142624,-9.59303,3,0.0143953,11,-0.0013682,-2.01804,-0.098036,-0.60182,224.842,0.142624,
2,0,0,1,0,3663.38,0.141425,0.141141,-9.9198,3,0.0142118,11,-0.00140009,-2.0035,-0.105053,-0.56162,216.922,0.141141,
2,0,0,1,0,3663.4,0.139936,0.139625,-10.2423,3,0.0140242,11,-0.00143008,-1.9896,-0.112039,-0.526603,210.154,0.139625,
2,0,0,1,0,3663.42,0.138432,0.138137,-10.5465,3,0.0138289,11,-0.00145686,-1.97689,-0.118896,-0.496232,204.04,0.138137,
2,0,0,1,0,3663.43,0.136929,0.136685,-10.8463,3,0.0136277,11,-0.00148253,-1.96472,-0.126235,-0.467381,197.518,0.136685,
2,0,0,1,0,3663.45,0.135439,0.135137,-11.1259,3,0.0134233,11,-0.00150352,-1.95367,-0.137104,-0.430329,186.562,0.135137,
2,0,0,1,0,3663.47,0.133936,0.133653,-11.4006,3,0.0132114,11,-0.00152372,-1.94307,-0.153994,-0.383131,169.989,0.133653,
2,0,0,1,0,3663.49,0.132432,0.132124,-11.6314,3,0.0129948,11,-0.00153679,-1.93437,-0.172152,-0.34272,155.366,0.132124,
2,0,0,1,0,3663.51,0.130945,0.130614,-11.8519,3,0.0127762,11,-0.00154802,-1.92621,-0.194639,-0.303125,140.018,0.130614,
2,0,0,1,0,3663.53,0.129441,0.129146,-12.0501,3,0.0125513,11,-0.00155622,-1.91901,-0.224765,-0.262496,123.305,0.129146,
2,0,0,1,0,3663.55,0.127945,0.12761,-12.2253,3,0.0123241,11,-0.00156008,-1.91274,-0.276403,-0.213456,101.648,0.12761,
2,0,0,1,0,3663.57,0.126448,0.126156,-12.3559,3,0.0120941,11,-0.00155877,-1.90813,-0.350103,-0.168522,81.1588,0.126156,
2,0,0,1,0,3663.58,0.124945,0.124617,-12.4714,3,0.0118605,11,-0.00155414,-1.90409,-0.470151,-0.125492,60.9654,0.1246165,
2,0,0,1,0,3663.6,0.123456,0.123181,-12.5644,3,0.0116276,11,-0.00154769,-1.90086,-0.71948,-0.0820037,40.103,0.123181,
2,0,0,1,0,3663.62,0.121952,0.121621,-12.6164,3,0.011391,11,-0.00153442,-1.89907,-1.60668,-0.0367217,18.0204,0.121621,
2,0,0,1,0,3663.64,0.120449,0.120132,-12.6264,3,0.0111537,11,-0.00151683,-1.89872,6.44752,0.0091508,-4.4969,0.120132,
2,0,0,1,0,3663.66,0.118959,0.118633,-12.6106,3,0.0109191,11,-0.00149603,-1.89927,1.2524,0.0471097,-23.1314,0.118633,
2,0,0,1,0,3663.68,0.117456,0.117147,-12.5621,3,0.0106826,11,-0.00147161,-1.90094,0.671859,0.087816,-42.9223,0.117147,
2,0,0,1,0,3663.7,0.115952,0.115653,-12.4734,3,0.0104472,11,-0.00144258,-1.90402,0.414521,0.142333,-69.0358,0.115653,
2,0,0,1,0,3663.72,0.114465,0.114141,-12.3455,3,0.0102164,11,-0.00140913,-1.90849,0.299138,0.197233,-94.746,0.114141,
2,0,0,1,0,3663.73,0.112961,0.112657,-12.1721,3,0.00998597,11,-0.00137127,-1.91463,0.244806,0.241007,-114.255,0.1126566,
2,0,0,1,0,3663.75,0.111465,0.111164,-11.9804,3,0.00976008,11,-0.00133179,-1.92153,0.203181,0.290382,-135.437,0.111164,
2,0,0,1,0,3663.77,0.109968,0.109665,-11.7585,3,0.00953805,11,-0.0012895,-1.92965,0.17334,0.340371,-155.842,0.109665,
2,0,0,1,0,3663.79,0.108465,0.108152,-11.5034,3,0.00931929,11,-0.00124412,-1.93917,0.150612,0.391736,-175.485,0.108152,
2,0,0,1,0,3663.81,0.106976,0.10671,-11.227,3,0.00910779,11,-0.00119803,-1.94974,0.138597,0.425694,-186.418,0.10671,
2,0,0,1,0,3663.83,0.105472,0.105212,-10.9423,3,0.00889933,11,-0.00115126,-1.96089,0.129244,0.456501,-194.866,0.105212,
2,0,0,1,0,3663.85,0.103968,0.103662,-10.6544,3,0.00869624,11,-0.00110445,-1.97247,0.124403,0.474265,-197.16,0.103662,
2,0,0,1,0,3663.87,0.102479,0.102165,-10.3666,3,0.00850073,11,-0.00105911,-1.98436,0.120512,0.489578,-197.914,0.102165,
2,0,0,1,0,3663.88,0.100976,0.100693,-10.0664,3,0.00830862,11,-0.00101362,-1.99712,0.119385,0.4942,-194.343,0.100693,
2,0,0,1,0,3663.9,0.0994721,0.0991769,-9.79,3,0.00812204,11,-0.000970942,-2.00922,0.12307,0.479404,-183.459,0.0991769,
2,0,0,1,0,3663.92,0.0979846,0.0976802,-9.53893,3,0.00794241,11,-0.000931765,-2.0205,0.130409,0.452421,-168.447,0.0976802,
2,0,0,1,0,3663.94,0.0964811,0.096156,-9.28953,3,0.0077655,11,-0.000893244,-2.03201,0.13439,0.439021,-159.214,0.096156,
2,0,0,1,0,3663.96,0.0949847,0.094612,-9.06068,3,0.00759403,11,-0.000857249,-2.04284,0.142088,0.415236,-147.062,0.094612,
2,0,0,1,0,3663.98,0.0934883,0.0931841,-8.85095,3,0.00742674,11,-0.000824768,-2.05301,0.157627,0.374302,-129.578,0.0931841,
2,0,0,1,0,3664,0.0919847,0.09165,-8.671,3,0.00726212,11,-0.000794697,-2.06193,0.178877,0.329836,-111.734,0.09165,
2,0,0,1,0,3664.02,0.0904955,0.0902034,-8.50926,3,0.00710243,11,-0.000767565,-2.07011,0.186837,0.315783,-104.892,0.0902034,
2,0,0,1,0,3664.03,0.0889919,0.0887082,-8.35679,3,0.00694399,11,-0.000741316,-2.07796,0.199559,0.295651,-96.4461,0.0887082,
2,0,0,1,0,3664.05,0.0874884,0.0871628,-8.2052,3,0.0067884,11,-0.000715188,-2.08591,0.222765,0.264853,-84.995,0.0871628,
2,0,0,1,0,3664.07,0.0860009,0.0856658,-8.07898,3,0.00663694,11,-0.000692092,-2.09264,0.247182,0.238691,-75.3727,0.0856658,
2,0,0,1,0,3664.09,0.0844973,0.0841851,-7.96418,3,0.00648599,11,-0.000670466,-2.09886,0.262244,0.224981,-70.0498,0.0841851,
2,0,0,1,0,3664.11,0.0829938,0.0827004,-7.86513,3,0.00633705,11,-0.00065045,-2.10429,0.266012,0.221795,-68.1412,0.0827004,
2,0,0,1,0,3664.13,0.0815045,0.0812464,-7.75911,3,0.00619167,11,-0.0006304,-2.11019,0.272838,0.216246,-65.6377,0.0812464,
2,0,0,1,0,3664.15,0.080001,0.0796669,-7.67184,3,0.00604648,11,-0.000611191,-2.1151,0.301509,0.195682,-58.6474,0.0796669,
2,0,0,1,0,3664.17,0.0785046,0.0781591,-7.59256,3,0.00590366,11,-0.000593428,-2.11961,0.306733,0.19235,-57.0431,0.0781591,
2,0,0,1,0,3664.18,0.0770082,0.0766641,-7.51138,3,0.00576239,11,-0.000575853,-2.12428,0.277552,0.212573,-62.2801,0.0766641,
2,0,0,1,0,3664.2,0.0755046,0.0751988,-7.4246,3,0.00562193,11,-0.00055832,-2.12933,0.280052,0.210675,-61.0605,0.0751988,
2,0,0,1,0,3664.22,0.0740154,0.0737239,-7.34699,3,0.00548468,11,-0.000541649,-2.13389,0.298579,0.197602,-56.6499,0.07372392,
2,0,0,1,0,3664.24,0.0725118,0.0722126,-7.27017,3,0.00534743,11,-0.000524998,-2.13846,0.306061,0.192772,-54.5928,0.0722126,
2,0,0,1,0,3664.26,0.0710083,0.0707006,-7.18405,3,0.00521162,11,-0.000507917,-2.14363,0.291762,0.202219,-56.6065,0.0707006,
2,0,0,1,0,3664.28,0.0695208,0.0692391,-7.09669,3,0.00507885,11,-0.000491368,-2.14894,0.284334,0.207503,-57.4514,0.0692391,
2,0,0,1,0,3664.3,0.0680173,0.0676944,-7.00753,3,0.00494635,11,-0.000474371,-2.15443,0.28722,0.205418,-56.2075,0.0676944,
2,0,0,1,0,3664.32,0.0665137,0.0661718,-6.91795,3,0.00481543,11,-0.000457773,-2.16002,0.297628,0.198234,-53.5428,0.0661718,
2,0,0,1,0,3664.33,0.0650244,0.0647675,-6.83612,3,0.00468746,11,-0.000442758,-2.16519,0.266887,0.221067,-58.9052,0.06476754,
2,0,0,1,0,3664.35,0.0635209,0.0631758,-6.73723,3,0.00455979,11,-0.00042563,-2.17152,0.245449,0.240376,-63.1838,0.06317579,
2,0,0,1,0,3664.37,0.0620245,0.0616821,-6.63732,3,0.00443471,11,-0.000409404,-2.17801,0.235912,0.250093,-64.8158,0.0616821,
2,0,0,1,0,3664.39,0.0605281,0.0602118,-6.53716,3,0.00431146,11,-0.000393614,-2.18461,0.235926,0.250079,-63.8393,0.0602118,
2,0,0,1,0,3664.41,0.0590246,0.0586763,-6.44104,3,0.00418932,11,-0.000377937,-2.19104,0.232061,0.254243,-63.9461,0.0586763,
2,0,0,1,0,3664.43,0.0575353,0.0572338,-6.34715,3,0.0040703,11,-0.000363272,-2.19742,0.217413,0.271373,-67.2254,0.0572338,
2,0,0,1,0,3664.45,0.0560317,0.0557604,-6.23723,3,0.0039519,11,-0.00034779,-2.20501,0.212857,0.277182,-67.6216,0.0557604,
2,0,0,1,0,3664.46,0.0545282,0.0541966,-6.14507,3,0.00383542,11,-0.000333042,-2.21147,0.223499,0.263984,-63.4,0.0541966,
2,0,0,1,0,3664.48,0.0530407,0.0527091,-6.06463,3,0.00372184,11,-0.000319662,-2.2172,0.226359,0.260648,-61.6283,0.0527091,
2,0,0,1,0,3664.5,0.0515372,0.0512408,-5.97121,3,0.00360875,11,-0.000305969,-2.22394,0.212726,0.277352,-64.5542,0.0512408,
2,0,0,1,0,3664.52,0.0500336,0.0497496,-5.87416,3,0.00349741,11,-0.000292237,-2.23105,0.21917,0.269198,-61.7435,0.0497496,
2,0,0,1,0,3664.54,0.0485444,0.0482277,-5.79192,3,0.00338902,11,-0.000279331,-2.23718,0.241085,0.244727,-55.3586,0.0482277,
2,0,0,1,0,3664.56,0.0470408,0.0467113,-5.71703,3,0.00328094,11,-0.00026705,-2.24283,0.251454,0.234635,-52.289,0.0467113,
2,0,0,1,0,3664.58,0.0455444,0.0452249,-5.63924,3,0.00317483,11,-0.000255034,-2.24878,0.26233,0.224908,-49.459,0.0452249,
2,0,0,1,0,3664.6,0.044048,0.0437657,-5.56954,3,0.00307011,11,-0.000243755,-2.25418,0.289693,0.203664,-44.2728,0.0437657,
2,0,0,1,0,3664.61,0.0425445,0.0422387,-5.50255,3,0.00296617,11,-0.000232421,-2.25944,0.339595,0.173736,-37.3543,0.0422387,
2,0,0,1,0,3664.63,0.0410552,0.04077,-5.44348,3,0.00286444,11,-0.000221931,-2.26412,0.390051,0.151262,-32.1456,0.04077,
2,0,0,1,0,3664.65,0.0395517,0.0392393,-5.39245,3,0.00276258,11,-0.000211596,-2.26821,0.397425,0.148456,-31.2189,0.0392393,
2,0,0,1,0,3664.67,0.0380481,0.0377017,-5.3402,3,0.00266164,11,-0.000201335,-2.27244,0.422896,0.139514,-29.0962,0.0377017,
2,0,0,1,0,3664.69,0.0365606,0.0362388,-5.28553,3,0.00256276,11,-0.000191541,-2.27691,0.436322,0.135221,-27.9847,0.0362388,
2,0,0,1,0,3664.71,0.0350571,0.0347609,-5.25093,3,0.00246358,11,-0.000182527,-2.27976,0.543439,0.108568,-22.2856,0.0347609,
2,0,0,1,0,3664.73,0.0335535,0.0332755,-5.21966,3,0.00236504,11,-0.000173687,-2.28236,0.546967,0.107868,-21.9985,0.0332755,
2,0,0,1,0,3664.75,0.0320643,0.0317485,-5.18618,3,0.00226813,11,-0.000164654,-2.28515,0.507257,0.116312,-23.5735,0.0317485,
2,0,0,1,0,3664.76,0.0305607,0.0302376,-5.1579,3,0.00217074,11,-0.000155962,-2.28753,0.596128,0.0989721,-19.9706,0.0302376,
2,0,0,1,0,3664.78,0.0290643,0.0287315,-5.14386,3,0.0020744,11,-0.000147791,-2.28871,0.722774,0.08163,-16.4053,0.0287315,
2,0,0,1,0,3664.8,0.0275679,0.0272504,-5.13358,3,0.00197838,11,-0.000139892,-2.28958,0.909915,0.0648412,-12.9786,0.0272504,
2,0,0,1,0,3664.82,0.0260644,0.0257694,-5.11593,3,0.0018821,11,-0.000131835,-2.29108,0.884793,0.0666823,-13.2946,0.0257694,
2,0,0,1,0,3664.84,0.0245751,0.0242837,-5.10181,3,0.00178712,11,-0.000123891,-2.29228,1.24803,0.0472746,-9.41278,0.0242837,
2,0,0,1,0,3664.86,0.0230716,0.0227318,-5.09281,3,0.00169145,11,-0.000115769,-2.29304,1.90935,0.0309006,-6.14194,0.0227318,
2,0,0,1,0,3664.88,0.021568,0.0212314,-5.08595,3,0.00159583,11,-0.000107982,-2.29363,22.1811,0.00265992,-0.527559,0.0212314,
2,0,0,1,0,3664.9,0.0200805,0.0197821,-5.0824,3,0.00150132,11,-0.000100541,-2.29393,4.09292,0.0144151,-2.85544,0.0197821,
2,0,0,1,0,3664.91,0.018577,0.0182644,-5.07536,3,0.00140584,11,-9.26981e-05,-2.29453,-13.9593,-0.00422657,0.837498,0.0182644,
2,0,0,1,0,3664.93,0.0170735,0.0167462,-5.07157,3,0.00131052,11,-8.49298e-05,-2.29486,-2.9208,-0.0201999,4.00458,0.0167462,
2,0,0,1,0,3664.95,0.0155842,0.0153028,-5.072,3,0.00121615,11,-7.76156e-05,-2.29482,-1.48421,-0.0397517,7.88177,0.0153028,
2,0,0,1,0,3664.97,0.0140806,0.0137925,-5.08614,3,0.00112053,11,-7.01505e-05,-2.29361,-1.67474,-0.0352294,6.98936,0.0137925,
2,0,0,1,0,3664.99,0.0125842,0.0122848,-5.0874,3,0.00102528,11,-6.24977e-05,-2.2935,-3.98347,-0.0148112,2.94318,0.0122848,
2,0,0,1,0,3665.01,0.0110878,0.0107685,-5.08624,3,0.000930061,11,-5.47711e-05,-2.2936,-3.01575,-0.019564,3.89472,0.0107685,
2,0,0,1,0,3665.03,0.00958429,0.00928207,-5.09807,3,0.000834164,11,-4.73207e-05,-2.29259,-1.64782,-0.0358048,7.13477,0.00928207,
2,0,0,1,0,3665.05,0.0080968,0.0077827,-5.11302,3,0.000739082,11,-3.97931e-05,-2.29132,-1.79364,-0.032894,6.57603,0.0077827,
2,0,0,1,0,3665.06,0.00659326,0.00630547,-5.12602,3,0.000642723,11,-3.2322e-05,-2.29022,-2.23453,-0.0264037,5.28489,0.00630547,
2,0,0,1,0,3665.08,0.00508972,0.0048078,-5.13483,3,0.000546146,11,-2.46872e-05,-2.28947,-1.69979,-0.0347102,6.97143,0.0048078,
2,0,0,1,0,3665.1,0.00360044,0.00321878,-5.16258,3,0.00045039,11,-1.66172e-05,-2.28713,-0.483325,-0.122071,24.7271,0.00321878,
2,0,0,1,0,3665.12,0.0020969,0.00172554,-5.24417,3,0.000353047,11,-9.04903e-06,-2.28032,-0.622087,-0.0948421,19.2177,0.00172554,
2,0,0,1,0,3665.14,0.000593362,0.000247296,-5.2388,3,0.000254515,11,-1.29553e-06,-2.28077, , , ,0.000247296,
2,0,0,1,0,3665.14,0.000199195,-0.000151629,-5.23007,3,0.000228862,11,7.9303e-07,-2.28149, , , ,-0.000151629,