File: Figure_codes/Fig_3-5/rawdata_trumpetplot_data/before 10th/20221101_1-115_002_TrumpetPlot_ParaChange_05_CV_C01_3.csv
mode,ox/red,error,control changes,counter inc.,time/s,control/V,Ewe/V,<I>/mA,cycle number,(Q-Qo)/C,I Range,P/W,log(|I|),Tafel slope mV/dec,alpha_eff,dI/d(E-IR),E-IR/V,
2,0,0,1,0,4653.77,2.44065e-05,-0.000287149,-0.0147852,4,0.0000000E+000,11,4.24555e-09,-4.83017, , , ,-0.0002871489,
2,1,0,0,0,4654.03,0.00129787,0.000945044,0.162505,4,3.90445e-05,11,1.53574e-07,-3.78913, , , ,0.000945044,
2,1,0,0,0,4654.33,0.00279606,0.0025049,0.187601,4,9.89879e-05,11,4.69921e-07,-3.72677,0.0351917,1.67653,11.4279,0.0025049,
2,1,0,1,0,4654.63,0.00429469,0.00399406,0.194933,4,0.000161697,11,7.78575e-07,-3.71011,0.227081,0.25982,2.03851,0.00399406,
2,1,0,1,0,4654.93,0.00579255,0.00546887,0.201328,4,0.000226915,11,1.10104e-06,-3.6961,0.0904494,0.652298,5.11014,0.00546887,
2,1,0,1,0,4655.22,0.00729041,0.00700395,0.209858,4,0.000294354,11,1.46984e-06,-3.67807,0.13163,0.448224,3.6479,0.00700395,
2,1,0,1,0,4655.52,0.00878882,0.00848878,0.216077,4,0.000363726,11,1.83423e-06,-3.66539,0.151959,0.388263,3.25469,0.00848878,
2,1,0,1,0,4655.82,0.010287,0.00995002,0.220864,4,0.000434548,11,2.1976e-06,-3.65588,0.219059,0.269333,2.29552,0.00995002,
2,1,0,1,0,4656.12,0.0117852,0.0115003,0.221868,4,0.000506588,11,2.55156e-06,-3.6539,0.195243,0.302187,2.6284,0.01150033,
2,1,0,1,0,4656.42,0.0132836,0.0129956,0.226791,4,0.000579662,11,2.94729e-06,-3.64437,0.19671,0.299935,2.68186,0.0129956,
2,1,0,1,0,4656.72,0.0147815,0.0144703,0.2307,4,0.000653912,11,3.33831e-06,-3.63695,0.300499,0.19634,1.77053,0.0144703,
2,1,0,1,0,4657.02,0.0162793,0.0159896,0.233049,4,0.000729329,11,3.72638e-06,-3.63255,0.357406,0.165079,1.4985,0.0159896,
2,1,0,0,0,4657.32,0.017778,0.0175139,0.236103,4,0.000805397,11,4.13509e-06,-3.6269,0.308958,0.190965,1.76147,0.0175139,
2,1,0,0,0,4657.62,0.0192761,0.0190006,0.240123,4,0.000881929,11,4.56248e-06,-3.61957,0.426062,0.138478,1.28747,0.0190006,
2,1,0,1,0,4657.92,0.0207747,0.0204909,0.243015,4,0.000959643,11,4.97959e-06,-3.61437,0.293356,0.201121,1.88878,0.0204909,
2,1,0,1,0,4658.22,0.0222725,0.0220028,0.244843,4,0.00103805,11,5.38723e-06,-3.61111,0.274494,0.214941,2.04759,0.02200282,
2,1,0,1,0,4658.52,0.0237704,0.0234985,0.247028,4,0.00111718,11,5.80479e-06,-3.60725,0.396466,0.148815,1.43315,0.0234985,
2,1,0,1,0,4658.82,0.0252689,0.024977,0.248683,4,0.00119685,11,6.21137e-06,-3.60435,0.401762,0.146853,1.43173,0.024977,
2,1,0,1,0,4659.12,0.0267671,0.0264552,0.25016,4,0.00127737,11,6.61804e-06,-3.60178,0.274169,0.215196,2.10355,0.0264552,
2,1,0,1,0,4659.42,0.0282657,0.0280122,0.254665,4,0.00135885,11,7.13373e-06,-3.59403,0.411976,0.143212,1.42038,0.02801224,
2,1,0,1,0,4659.72,0.0297635,0.0294625,0.257041,4,0.00144085,11,7.57305e-06,-3.59,0.68378,0.0862851,0.866738,0.0294625,
2,1,0,1,0,4660.02,0.0312613,0.0309616,0.256515,4,0.00152339,11,7.94213e-06,-3.59089,0.287226,0.205413,2.07223,0.0309616,
2,1,0,0,0,4660.32,0.0327599,0.0324391,0.261736,4,0.00160672,11,8.4905e-06,-3.58214,0.316242,0.186566,1.89678,0.03243912,
2,1,0,0,0,4660.62,0.034258,0.0339629,0.265091,4,0.00169112,11,9.00326e-06,-3.57661,0.329932,0.178824,1.84161,0.03396292,
2,1,0,1,0,4660.92,0.0357567,0.0354392,0.266819,4,0.00177626,11,9.45587e-06,-3.57378,0.594938,0.0991701,1.03035,0.0354392,
2,1,0,1,0,4661.22,0.0372545,0.0369958,0.268539,4,0.00186216,11,9.93482e-06,-3.57099,0.259982,0.226939,2.4024,0.0369958,
2,1,0,1,0,4661.52,0.0387524,0.0384577,0.272494,4,0.00194869,11,1.04795e-05,-3.56464,0.261194,0.225886,2.4235,0.0384577,
2,1,0,1,0,4661.82,0.0402508,0.0399882,0.275349,4,0.00203646,11,1.10107e-05,-3.56012,0.304872,0.193524,2.09373,0.0399882,
2,1,0,1,0,4662.12,0.041749,0.0414653,0.27963,4,0.00212556,11,1.15949e-05,-3.55342,0.309369,0.19071,2.07264,0.0414653,
2,1,0,1,0,4662.42,0.0432472,0.0429138,0.283949,4,0.00221548,11,1.21854e-05,-3.54676,0.303231,0.194571,2.15009,0.0429138,
2,1,0,1,0,4662.72,0.0447456,0.0444727,0.288511,4,0.00230612,11,1.28309e-05,-3.53984,0.276655,0.213262,2.39269,0.0444727,
2,1,0,1,0,4663.02,0.0462435,0.0458988,0.292206,4,0.00239831,11,1.34119e-05,-3.53431,0.231255,0.255129,2.8884,0.04589878,
2,1,0,1,0,4663.31,0.0477413,0.0474254,0.295882,4,0.00249175,11,1.40323e-05,-3.52888,0.261076,0.225987,2.61209,0.0474254,
2,1,0,0,0,4663.61,0.0492399,0.0489793,0.301225,4,0.00258655,11,1.47538e-05,-3.52111,0.224042,0.263343,3.09687,0.0489793,
2,1,0,0,0,4663.91,0.0507381,0.0504777,0.303368,4,0.00268244,11,1.53133e-05,-3.51803,0.203074,0.290535,3.4657,0.0504777,
2,1,0,1,0,4664.21,0.0522367,0.051901,0.310253,4,0.00278001,11,1.61024e-05,-3.50828,0.17504,0.337065,4.06676,0.051901,
2,1,0,1,0,4664.51,0.0537345,0.0534596,0.317542,4,0.00287945,11,1.69757e-05,-3.4982,0.180672,0.326558,4.01988,0.0534596,
2,1,0,1,0,4664.81,0.0552323,0.0549172,0.321396,4,0.0029804,11,1.76501e-05,-3.49296,0.227698,0.259115,3.23569,0.0549172,
2,1,0,1,0,4665.11,0.0567309,0.0564138,0.324837,4,0.00308288,11,1.83253e-05,-3.48833,0.18063,0.326635,4.17133,0.0564138,
2,1,0,1,0,4665.41,0.0582291,0.0579228,0.332367,4,0.00318698,11,1.92516e-05,-3.47838,0.173666,0.339733,4.41107,0.0579228,
2,1,0,1,0,4665.71,0.0597277,0.0594366,0.339599,4,0.00329333,11,2.01846e-05,-3.46903,0.178449,0.330627,4.37763,0.0594366,
2,1,0,1,0,4666.01,0.0612255,0.0609227,0.345057,4,0.00340144,11,2.10218e-05,-3.46211,0.230867,0.255558,3.44335,0.0609227,
2,1,0,1,0,4666.31,0.0627233,0.0624092,0.351878,4,0.00351163,11,2.19605e-05,-3.45361,0.16803,0.351128,4.83263,0.0624092,
2,1,0,0,0,4666.61,0.0642218,0.0639396,0.35885,4,0.00362351,11,2.29447e-05,-3.44509,0.159463,0.369993,5.21546,0.0639396,
2,1,0,0,0,4666.91,0.06572,0.0654252,0.367496,4,0.00373784,11,2.40435e-05,-3.43475,0.176522,0.334237,4.78596,0.06542518,
2,1,0,1,0,4667.21,0.0672187,0.0669134,0.374646,4,0.00385453,11,2.50689e-05,-3.42638,0.178933,0.329733,4.7959,0.0669134,
2,1,0,1,0,4667.51,0.0687165,0.0684262,0.381417,4,0.00397317,11,2.60989e-05,-3.4186,0.164133,0.359466,5.34257,0.0684262,
2,1,0,1,0,4667.81,0.0702144,0.0699561,0.386943,4,0.00409352,11,2.7069e-05,-3.41235,0.19652,0.300224,4.53533,0.0699561,
2,1,0,1,0,4668.11,0.0717128,0.07139,0.395781,4,0.00421633,11,2.82548e-05,-3.40254,0.162918,0.362145,5.57712,0.07139,
2,1,0,1,0,4668.41,0.073211,0.0729626,0.400547,4,0.00434119,11,2.92249e-05,-3.39735,0.175992,0.335242,5.25081,0.0729626,
2,1,0,1,0,4668.71,0.0747092,0.0744195,0.40718,4,0.0044683,11,3.03022e-05,-3.39021,0.221498,0.266368,4.24865,0.0744195,
2,1,0,1,0,4669.01,0.0762076,0.0759076,0.412324,4,0.00459707,11,3.12985e-05,-3.38476,0.206582,0.285601,4.64412,0.0759076,
2,1,0,1,0,4669.31,0.0777054,0.0774088,0.421618,4,0.00472803,11,3.26369e-05,-3.37508,0.190268,0.310089,5.10329,0.07740882,
2,1,0,1,0,4669.61,0.0792033,0.0789131,0.429708,4,0.00486118,11,3.39096e-05,-3.36683,0.230318,0.256168,4.28701,0.0789131,
2,1,0,0,0,4669.91,0.0807019,0.0803843,0.435636,4,0.00499646,11,3.50183e-05,-3.36088,0.248225,0.237688,4.02527,0.0803843,
2,1,0,0,0,4670.21,0.0822001,0.0819506,0.438315,4,0.00513322,11,3.59202e-05,-3.35821,0.260424,0.226554,3.89901,0.0819506,
2,1,0,1,0,4670.51,0.0836986,0.0833983,0.44762,4,0.00527173,11,3.73308e-05,-3.34909,0.232904,0.253324,4.41622,0.0833983,
2,1,0,1,0,4670.81,0.0851965,0.0848774,0.452633,4,0.00541232,11,3.84183e-05,-3.34425,0.257923,0.22875,4.05969,0.0848774,
2,1,0,1,0,4671.11,0.0866944,0.0864081,0.45854,4,0.00555477,11,3.96216e-05,-3.33862,0.323378,0.182449,3.26519,0.0864081,
2,1,0,1,0,4671.41,0.0881929,0.0879132,0.465115,4,0.00569889,11,4.08897e-05,-3.33244,0.297907,0.198048,3.60219,0.08791323,
2,1,0,1,0,4671.7,0.0896911,0.0893745,0.471804,4,0.00584427,11,4.21672e-05,-3.32624,0.252416,0.233741,4.29644,0.0893745,
2,1,0,1,0,4672,0.0911897,0.0908786,0.475958,4,0.00599187,11,4.32544e-05,-3.32243,0.227754,0.259052,4.80605,0.0908786,
2,1,0,1,0,4672.3,0.0926875,0.0924167,0.485409,4,0.00614155,11,4.486e-05,-3.31389,0.259326,0.227513,4.2858,0.0924167,
2,1,0,1,0,4672.6,0.0941853,0.0939052,0.489328,4,0.00629275,11,4.59504e-05,-3.3104,0.315784,0.186836,3.56897,0.0939052,
2,1,0,0,0,4672.9,0.0956838,0.0953774,0.493513,4,0.00644528,11,4.707e-05,-3.3067,0.26997,0.218543,4.23,0.0953774,
2,1,0,0,0,4673.2,0.097182,0.0968949,0.500567,4,0.00660006,11,4.85024e-05,-3.30054,0.19192,0.30742,5.99485,0.09689486,
2,1,0,1,0,4673.5,0.0986807,0.0983925,0.508509,4,0.006757,11,5.00335e-05,-3.2937,0.248371,0.237548,4.71398,0.0983925,
2,1,0,1,0,4673.8,0.100179,0.0998778,0.516794,4,0.00691613,11,5.16163e-05,-3.28668,0.225049,0.262165,5.28252,0.0998778,
2,1,0,1,0,4674.1,0.101676,0.101352,0.520294,4,0.00707708,11,5.27331e-05,-3.28375,0.207631,0.284157,5.82515,0.101352,
2,1,0,1,0,4674.4,0.103175,0.102889,0.533402,4,0.00724088,11,5.48814e-05,-3.27295,0.185585,0.317914,6.60592,0.102889,
2,1,0,1,0,4674.7,0.104673,0.104347,0.545533,4,0.00740776,11,5.6925e-05,-3.26318,0.193698,0.304598,6.44227,0.104347,
2,1,0,1,0,4675,0.106171,0.105886,0.553123,4,0.00757758,11,5.8568e-05,-3.25718,0.189966,0.310582,6.6829,0.105886,
2,1,0,1,0,4675.3,0.10767,0.107411,0.56145,4,0.00775042,11,6.03061e-05,-3.25069,0.165415,0.356679,7.86584,0.107411,
2,1,0,1,0,4675.6,0.109167,0.108855,0.574024,4,0.00792627,11,6.24854e-05,-3.24107,0.150419,0.392239,8.86658,0.108855,
2,1,0,1,0,4675.9,0.110665,0.110386,0.590516,4,0.00810647,11,6.51847e-05,-3.22877,0.146471,0.40281,9.29373,0.110386,
2,1,0,0,0,4676.2,0.112164,0.111897,0.604134,4,0.00829126,11,6.76011e-05,-3.21887,0.144442,0.408468,9.61902,0.1118975,
2,1,0,0,0,4676.5,0.113662,0.113353,0.621713,4,0.00848036,11,7.04733e-05,-3.20641,0.132992,0.443635,10.7566,0.113353,
2,1,0,1,0,4676.8,0.115161,0.114832,0.637872,4,0.00867383,11,7.32481e-05,-3.19527,0.127828,0.461557,11.4789,0.114832,
2,1,0,1,0,4677.1,0.116658,0.116327,0.655556,4,0.00887302,11,7.62587e-05,-3.18339,0.115729,0.509811,13.0348,0.116327,
2,1,0,1,0,4677.4,0.118156,0.117853,0.675254,4,0.00907802,11,7.9581e-05,-3.17053,0.126229,0.467406,12.2914,0.117853,
2,1,0,1,0,4677.7,0.119655,0.119366,0.693392,4,0.00928857,11,8.27674e-05,-3.15902,0.136766,0.431394,11.6882,0.119366,
2,1,0,1,0,4678,0.121153,0.120824,0.710062,4,0.00950403,11,8.57926e-05,-3.1487,0.122391,0.482063,13.4323,0.120824,
2,1,0,1,0,4678.3,0.122652,0.122358,0.731323,4,0.009726,11,8.94831e-05,-3.13589,0.11339,0.520329,14.8355,0.122358,
2,1,0,1,0,4678.6,0.124149,0.123844,0.753541,4,0.00995429,11,9.33216e-05,-3.12289,0.129731,0.454788,13.3759,0.123844,
2,1,0,1,0,4678.9,0.125647,0.125311,0.772223,4,0.0101882,11,9.67684e-05,-3.11226,0.143576,0.410931,12.3758,0.125311,
2,1,0,0,0,4679.2,0.127146,0.126877,0.786792,4,0.010428,11,9.98256e-05,-3.10414,0.146287,0.403316,12.4295,0.1268768,
2,1,0,0,0,4679.5,0.128644,0.128314,0.809801,4,0.0106731,11,0.000103909,-3.09162,0.148089,0.398408,12.5819,0.128314,
2,1,0,1,0,4679.8,0.130143,0.129861,0.828384,4,0.0109243,11,0.000107575,-3.08177,0.165776,0.355901,11.475,0.129861,
2,1,0,1,0,4680.09,0.131641,0.131331,0.84583,4,0.0111808,11,0.000111083,-3.07272,0.211032,0.279578,9.18192,0.131331,
2,1,0,1,0,4680.39,0.133138,0.132858,0.858898,4,0.0114417,11,0.000114112,-3.06606,0.211055,0.279547,9.37883,0.132858,
2,1,0,1,0,4680.69,0.134637,0.134324,0.871886,4,0.0117063,11,0.000117115,-3.05954,0.236958,0.248989,8.48442,0.134324,
2,1,0,1,0,4680.99,0.136135,0.135866,0.886354,4,0.0119753,11,0.000120425,-3.05239,0.279474,0.211111,7.27601,0.135866,
2,1,0,1,0,4681.29,0.137633,0.137353,0.895286,4,0.0122478,11,0.00012297,-3.04804,0.414235,0.142431,4.95313,0.137353,
2,1,0,1,0,4681.59,0.139132,0.138835,0.902877,4,0.0125224,11,0.000125351,-3.04437,0.62981,0.093679,3.28616,0.138835,
2,1,0,1,0,4681.89,0.140629,0.140305,0.90461,4,0.0127983,11,0.000126921,-3.04354,1.27927,0.04612,1.62275,0.140305,
2,1,0,1,0,4682.19,0.142127,0.141811,0.906691,4,0.0130752,11,0.000128579,-3.04254,43.885,0.00134442,0.047421,0.141811,
2,1,0,0,0,4682.49,0.143626,0.143317,0.902945,4,0.0133525,11,0.000129408,-3.04434,-0.681933,-0.0865188,-3.04156,0.143317,
2,1,0,0,0,4682.79,0.145124,0.144827,0.89567,4,0.0136279,11,0.000129717,-3.04785,-0.271981,-0.216927,-7.58023,0.144827,
2,1,0,1,0,4683.09,0.146623,0.146364,0.881783,4,0.0139,11,0.000129061,-3.05464,-0.224382,-0.262944,-9.04455,0.146364,
2,1,0,1,0,4683.39,0.14812,0.14783,0.869065,4,0.0141683,11,0.000128473,-3.06095,-0.189321,-0.31164,-10.5141,0.14783,
2,1,0,1,0,4683.69,0.149618,0.149337,0.852028,4,0.0144315,11,0.000127239,-3.06955,-0.142564,-0.41385,-13.6824,0.149337,
2,1,0,1,0,4683.99,0.151117,0.150824,0.827374,4,0.0146887,11,0.000124788,-3.0823,-0.115498,-0.510832,-16.4005,0.150824,
2,1,0,1,0,4684.29,0.152615,0.152331,0.79712,4,0.0149383,11,0.000121426,-3.09848,-0.0971473,-0.607325,-18.9061,0.1523308,
2,1,0,1,0,4684.59,0.154114,0.153787,0.773945,4,0.0151791,11,0.000119023,-3.11129,-0.0887356,-0.664896,-19.9911,0.1537874,
2,1,0,1,0,4684.89,0.155612,0.155336,0.743595,4,0.0154116,11,0.000115507,-3.12866,-0.0814955,-0.723967,-20.8413,0.155336,
2,1,0,1,0,4685.19,0.157109,0.156801,0.70836,4,0.0156348,11,0.000111072,-3.14975,-0.0698338,-0.844863,-23.2757,0.156801,
2,1,0,0,0,4685.49,0.158608,0.158302,0.67578,4,0.0158476,11,0.000106977,-3.17019,-0.0702891,-0.83939,-22.1719,0.158302,
2,1,0,0,0,4685.79,0.160106,0.159847,0.641525,4,0.01605,11,0.000102546,-3.19279,-0.06938,-0.850389,-21.3537,0.159847,
2,1,0,1,0,4686.09,0.161605,0.16132,0.610618,4,0.0162433,11,9.85049e-05,-3.21423,-0.0694427,-0.849621,-20.2658,0.16132,
2,1,0,1,0,4686.39,0.163102,0.162788,0.582022,4,0.0164275,11,9.47459e-05,-3.23506,-0.069767,-0.845672,-19.1785,0.162788,
2,1,0,1,0,4686.69,0.1646,0.164305,0.555416,4,0.016603,11,9.12575e-05,-3.25538,-0.0717662,-0.822114,-17.7948,0.164305,
2,1,0,1,0,4686.99,0.166099,0.165814,0.527398,4,0.0167701,11,8.74499e-05,-3.27786,-0.0762987,-0.773276,-15.964,0.165814,
2,1,0,1,0,4687.29,0.167597,0.167308,0.505215,4,0.0169302,11,8.45265e-05,-3.29652,-0.0847723,-0.695982,-13.7082,0.167308,
2,1,0,1,0,4687.59,0.169095,0.168798,0.483467,4,0.0170841,11,8.16083e-05,-3.31563,-0.0850599,-0.693629,-13.1235,0.168798,
2,1,0,1,0,4687.89,0.170594,0.170295,0.463937,4,0.0172318,11,7.90063e-05,-3.33354,-0.0850204,-0.693951,-12.6664,0.170295,
2,1,0,1,0,4688.18,0.172091,0.171822,0.446278,4,0.0173738,11,7.66804e-05,-3.35039,-0.0960862,-0.614032,-10.7796,0.171822,
2,1,0,1,0,4688.48,0.173589,0.173251,0.433112,4,0.0175114,11,7.50371e-05,-3.3634,-0.11085,-0.532251,-9.01989,0.173251,
2,1,0,0,0,4688.78,0.175088,0.17478,0.420467,4,0.0176449,11,7.34891e-05,-3.37627,-0.114246,-0.516431,-8.48001,0.17478,
2,1,0,0,0,4689.08,0.176586,0.176267,0.410115,4,0.0177746,11,7.22898e-05,-3.38709,-0.120477,-0.489722,-7.81909,0.176267,
2,1,0,1,0,4689.38,0.178085,0.177795,0.394801,4,0.0179009,11,7.01935e-05,-3.40362,-0.128722,-0.458351,-7.11308,0.177795,
2,1,0,1,0,4689.68,0.179582,0.179211,0.388579,4,0.018024,11,6.96378e-05,-3.41052,-0.151112,-0.390438,-5.93468,0.179211,
2,1,0,1,0,4689.98,0.18108,0.180783,0.378443,4,0.0181445,11,6.84162e-05,-3.422,-0.161339,-0.365689,-5.42768,0.180783,
2,1,0,1,0,4690.28,0.182579,0.182299,0.370848,4,0.0182627,11,6.76052e-05,-3.4308,-0.157196,-0.375328,-5.43482,0.182299,
2,1,0,1,0,4690.58,0.184077,0.183775,0.363268,4,0.0183786,11,6.67595e-05,-3.43977,-0.179166,-0.329304,-4.68591,0.183775,
2,1,0,1,0,4690.88,0.185576,0.185302,0.357886,4,0.0184921,11,6.63169e-05,-3.44626,-0.190175,-0.31024,-4.341,0.1853015,
2,1,0,1,0,4691.18,0.187074,0.186799,0.353452,4,0.0186039,11,6.60247e-05,-3.45167,-0.22193,-0.26585,-3.64632,0.186799,
2,1,0,1,0,4691.48,0.188571,0.188314,0.348003,4,0.0187142,11,6.5534e-05,-3.45842,-0.239187,-0.246669,-3.33494,0.188314,
2,1,0,0,0,4691.78,0.19007,0.189783,0.340534,4,0.0188228,11,6.46276e-05,-3.46784,-0.252994,-0.233207,-3.11019,0.1897833,
2,1,0,0,0,4692.08,0.191568,0.191251,0.337026,4,0.0189298,11,6.44566e-05,-3.47234,-0.26854,-0.219706,-2.89427,0.191251,
2,1,0,1,0,4692.38,0.193067,0.192729,0.332218,4,0.0190356,11,6.40279e-05,-3.47858,-0.388745,-0.151771,-1.96787,0.192729,
2,1,0,1,0,4692.68,0.194564,0.194296,0.32798,4,0.0191403,11,6.37251e-05,-3.48415,-0.307293,-0.191999,-2.46642,0.194296,
2,1,0,1,0,4692.98,0.196062,0.1958,0.323586,4,0.0192437,11,6.3358e-05,-3.49001,-0.361768,-0.163088,-2.07497,0.1958,
2,1,0,1,0,4693.28,0.197561,0.197284,0.321016,4,0.0193459,11,6.33313e-05,-3.49347,-0.329619,-0.178994,-2.24678,0.197284,
2,1,0,1,0,4693.58,0.199059,0.198816,0.318664,4,0.0194472,11,6.33554e-05,-3.49667,-0.340664,-0.173191,-2.14316,0.198816,
2,1,0,1,0,4693.88,0.200557,0.200245,0.316231,4,0.0195476,11,6.33238e-05,-3.5,-0.367527,-0.160532,-1.96876,0.200245,
2,1,0,1,0,4694.18,0.202056,0.201758,0.312829,4,0.0196472,11,6.31156e-05,-3.50469,-0.3374,-0.174866,-2.12382,0.201758,
2,1,0,1,0,4694.48,0.203553,0.203294,0.307684,4,0.0197459,11,6.25503e-05,-3.51189,-0.448112,-0.131664,-1.58884,0.203294,
2,1,0,1,0,4694.78,0.205051,0.204744,0.30751,4,0.0198437,11,6.29609e-05,-3.51214,-0.970458,-0.060796,-0.734968,0.204744,
2,1,0,0,0,4695.08,0.20655,0.206276,0.303294,4,0.0199409,11,6.25621e-05,-3.51814,-0.443363,-0.133074,-1.58293,0.206276,
2,1,0,0,0,4695.38,0.208048,0.207776,0.303313,4,0.0200379,11,6.30212e-05,-3.51811,-0.397266,-0.148515,-1.75063,0.207776,
2,1,0,1,0,4695.68,0.209547,0.209224,0.300679,4,0.020134,11,6.29093e-05,-3.5219,-0.451217,-0.130757,-1.5334,0.209224,
2,1,0,1,0,4695.98,0.211044,0.210745,0.298973,4,0.0202291,11,6.30072e-05,-3.52437,-0.635671,-0.0928154,-1.08023,0.210745,
2,1,0,1,0,4696.28,0.212542,0.212251,0.296986,4,0.0203239,11,6.30356e-05,-3.52726,-0.599773,-0.0983705,-1.13896,0.212251,
2,1,0,1,0,4696.57,0.214041,0.213778,0.295227,4,0.0204183,11,6.3113e-05,-3.52984,-0.603029,-0.0978394,-1.1217,0.213778,
2,1,0,1,0,4696.87,0.215539,0.215247,0.293768,4,0.0205121,11,6.32326e-05,-3.532,-0.721007,-0.08183,-0.935545,0.215247,
2,1,0,1,0,4697.17,0.217038,0.216776,0.290935,4,0.0206052,11,6.30679e-05,-3.5362,-0.711495,-0.082924,-0.945591,0.216776,
2,1,0,1,0,4697.47,0.218535,0.218253,0.289169,4,0.0206979,11,6.3112e-05,-3.53885,-1.3932,-0.0423485,-0.479411,0.218253,
2,1,0,1,0,4697.77,0.220033,0.219749,0.288987,4,0.0207904,11,6.35046e-05,-3.53912,-0.891278,-0.0661971,-0.74548,0.219749,
2,1,0,0,0,4698.07,0.221532,0.221279,0.288521,4,0.0208825,11,6.38438e-05,-3.53982,-0.519405,-0.113592,-1.27684,0.221279,
2,1,0,0,0,4698.37,0.22303,0.222741,0.285037,4,0.0209739,11,6.34894e-05,-3.5451,-0.586898,-0.100529,-1.12043,0.222741,
2,1,0,1,0,4698.67,0.224529,0.224275,0.285886,4,0.021065,11,6.4117e-05,-3.54381,-0.837386,-0.0704574,-0.783286,0.224275,
2,1,0,1,0,4698.97,0.226026,0.225739,0.283857,4,0.0211559,11,6.40774e-05,-3.5469,-1.42885,-0.041292,-0.457349,0.225739,
2,1,0,1,0,4699.27,0.227524,0.227261,0.283418,4,0.0212464,11,6.441e-05,-3.54757,-0.513504,-0.114897,-1.26653,0.2272611,
2,1,0,1,0,4699.57,0.229023,0.228766,0.280818,4,0.0213366,11,6.42415e-05,-3.55158,-1.29994,-0.0453865,-0.500595,0.228766,
2,1,0,1,0,4699.87,0.230521,0.230262,0.28032,4,0.0214262,11,6.4547e-05,-3.55235,-1.22518,-0.0481564,-0.528894,0.230262,
2,1,0,1,0,4700.17,0.232019,0.231721,0.279775,4,0.0215158,11,6.48297e-05,-3.55319,-0.936835,-0.062978,-0.688664,0.231721,
2,1,0,1,0,4700.47,0.233518,0.233234,0.279151,4,0.0216052,11,6.51074e-05,-3.55416,-0.520456,-0.113362,-1.23184,0.233234,
2,1,0,1,0,4700.77,0.235015,0.234707,0.278249,4,0.0216941,11,6.5307e-05,-3.55557,-1.86841,-0.0315776,-0.342908,0.234707,
2,1,0,1,0,4701.07,0.236513,0.23623,0.27741,4,0.0217827,11,6.55325e-05,-3.55688,-1.58578,-0.0372056,-0.401775,0.23623,
2,1,0,0,0,4701.37,0.238012,0.237725,0.277528,4,0.0218711,11,6.59755e-05,-3.55669,-1.54276,-0.0382432,-0.411172,0.237725,
2,1,0,0,0,4701.67,0.23951,0.239241,0.275079,4,0.0219594,11,6.58101e-05,-3.56054,-0.707761,-0.0833615,-0.895404,0.239241,
2,1,0,1,0,4701.97,0.241009,0.240717,0.275035,4,0.0220474,11,6.62056e-05,-3.56061,-0.783669,-0.0752869,-0.809678,0.240717,
2,1,0,1,0,4702.27,0.242506,0.242191,0.273726,4,0.022135,11,6.62939e-05,-3.56268,-1.72693,-0.0341647,-0.367121,0.242191,
2,1,0,1,0,4702.57,0.244004,0.243736,0.272977,4,0.0222225,11,6.65343e-05,-3.56387,3.04131,0.0193995,0.20655,0.243736,
2,1,0,1,0,4702.87,0.245503,0.245239,0.272611,4,0.02231,11,6.6855e-05,-3.56446,130.514,0.000452057,0.0048169,0.245239,
2,1,0,1,0,4703.17,0.247001,0.246731,0.2704,4,0.0223971,11,6.6716e-05,-3.56799,-0.753646,-0.078286,-0.83066,0.246731,
2,1,0,1,0,4703.47,0.2485,0.248197,0.268612,4,0.022484,11,6.66688e-05,-3.57087,-1.1391,-0.0517953,-0.547074,0.248197,
2,1,0,1,0,4703.77,0.249997,0.249678,0.27103,4,0.0225706,11,6.76704e-05,-3.56698,-1.01118,-0.0583479,-0.613567,0.2496783,
2,1,0,1,0,4704.07,0.251495,0.251199,0.269753,4,0.0226572,11,6.77615e-05,-3.56903,-9.37699,-0.006292,-0.0660642,0.251199,
2,1,0,0,0,4704.37,0.252994,0.252699,0.268907,4,0.0227436,11,6.79527e-05,-3.5704,-1.19744,-0.0492718,-0.516921,0.252699,
2,1,0,0,0,4704.67,0.254492,0.254218,0.267729,4,0.0228297,11,6.80614e-05,-3.57231,-1.20221,-0.0490765,-0.514719,0.254218,
2,1,0,1,0,4704.96,0.255991,0.255683,0.268231,4,0.0229156,11,6.85819e-05,-3.57149,-3.57455,-0.0165056,-0.172638,0.255683,
2,1,0,1,0,4705.26,0.257488,0.25722,0.267871,4,0.0230014,11,6.89019e-05,-3.57207,-1.70979,-0.0345071,-0.359865,0.25722,
2,1,0,1,0,4705.56,0.258986,0.25875,0.267731,4,0.0230872,11,6.92754e-05,-3.5723,-1.52662,-0.0386474,-0.401656,0.25875,
2,1,0,1,0,4705.86,0.260485,0.260246,0.266626,4,0.0231728,11,6.93885e-05,-3.5741,-1.22445,-0.048185,-0.501506,0.260246,
2,1,0,1,0,4706.16,0.261983,0.261713,0.265889,4,0.0232579,11,6.95866e-05,-3.5753,-1.116,-0.0528675,-0.548195,0.261713,
2,1,0,1,0,4706.46,0.263481,0.263259,0.26632,4,0.0233431,11,7.01111e-05,-3.5746,-1.76658,-0.0333979,-0.345561,0.263259,
2,1,0,1,0,4706.76,0.26498,0.264657,0.265883,4,0.0234283,11,7.03678e-05,-3.57531,-1.46784,-0.0401951,-0.416064,0.264657,
2,1,0,1,0,4707.06,0.266477,0.266195,0.264085,4,0.0235131,11,7.02982e-05,-3.57826,-1.23464,-0.0477872,-0.494672,0.266195,
2,1,0,0,0,4707.36,0.267976,0.267706,0.263404,4,0.0235978,11,7.0515e-05,-3.57938,4.50816,0.0130874,0.135113,0.267706,
2,1,0,0,0,4707.66,0.269474,0.269216,0.263828,4,0.0236824,11,7.10269e-05,-3.57868,-16.5273,-0.00356985,-0.0367447,0.269216,
2,1,0,0,0,4707.96,0.270972,0.270707,0.262977,4,0.023767,11,7.11897e-05,-3.58008,-17.8784,-0.00330007,-0.0338617,0.270707,
2,1,0,1,0,4708.26,0.27247,0.27221,0.262911,4,0.0238514,11,7.15671e-05,-3.58019,-1.02808,-0.0573887,-0.589246,0.27221,
2,1,0,1,0,4708.56,0.273968,0.273706,0.260869,4,0.0239356,11,7.14015e-05,-3.58358,-0.768151,-0.0768078,-0.783819,0.273706,
2,1,0,1,0,4708.86,0.275466,0.27519,0.261883,4,0.0240196,11,7.20675e-05,-3.58189,-5.28812,-0.0111571,-0.113782,0.27519,
2,1,0,1,0,4709.16,0.276965,0.276688,0.261106,4,0.0241035,11,7.22448e-05,-3.58318,-1.44399,-0.0408591,-0.416944,0.276688,
2,1,0,1,0,4709.46,0.278463,0.27816,0.261188,4,0.0241874,11,7.26521e-05,-3.58305,-0.671906,-0.0878099,-0.890756,0.27816,
2,1,0,1,0,4709.76,0.279962,0.279692,0.259964,4,0.0242712,11,7.27099e-05,-3.58509,-3.74517,-0.0157536,-0.160185,0.279692,
2,1,0,1,0,4710.06,0.281459,0.281184,0.259471,4,0.0243546,11,7.2959e-05,-3.58591,-1.29574,-0.0455338,-0.462128,0.281184,
2,1,0,1,0,4710.36,0.282957,0.28266,0.259689,4,0.024438,11,7.34035e-05,-3.58555,-5.089,-0.0115936,-0.117361,0.28266,
2,1,0,0,0,4710.66,0.284456,0.2842,0.258876,4,0.0245214,11,7.35725e-05,-3.58691,-2.2256,-0.0265097,-0.26746,0.2842,
2,1,0,0,0,4710.96,0.285954,0.285672,0.258445,4,0.0246047,11,7.38305e-05,-3.58763,-2.0966,-0.0281408,-0.283818,0.285672,
2,1,0,0,0,4711.26,0.287452,0.287173,0.258227,4,0.0246876,11,7.41559e-05,-3.588,-2.24753,-0.026251,-0.264863,0.287173,
2,1,0,1,0,4711.56,0.28895,0.288654,0.257635,4,0.0247706,11,7.43672e-05,-3.589,2.71814,0.021706,0.217695,0.288654,
2,1,0,1,0,4711.86,0.290448,0.290157,0.257075,4,0.0248535,11,7.45923e-05,-3.58994,73.6647,0.000800926,0.0080677,0.290157,
2,1,0,1,0,4712.16,0.291947,0.291669,0.256831,4,0.0249363,11,7.49098e-05,-3.59035,-1.43205,-0.0411998,-0.41407,0.291669,
2,1,0,1,0,4712.46,0.293445,0.293134,0.25529,4,0.0250188,11,7.4834e-05,-3.59297,-2.43704,-0.0242097,-0.243117,0.293134,
2,1,0,1,0,4712.76,0.294943,0.294687,0.256878,4,0.0251012,11,7.56987e-05,-3.59027,5.2707,0.0111939,0.111968,0.294687,
2,1,0,1,0,4713.05,0.296442,0.296179,0.258582,4,0.0251838,11,7.65867e-05,-3.5874,-4.98103,-0.011845,-0.11803,0.296179,
2,1,0,1,0,4713.35,0.297939,0.297691,0.255696,4,0.0252662,11,7.61183e-05,-3.59228,-4.11564,-0.0143356,-0.14304,0.297691,
2,1,0,1,0,4713.65,0.299437,0.299162,0.254937,4,0.0253484,11,7.62673e-05,-3.59357,-0.00174777,-33.7574,-129.546,0.299162,
2,1,0,1,0,4713.82,0.299737,0.299435,0.0558514,4,0.025383,11,1.67239e-05,-4.25297,0.000551159,107.047,207.623,0.299435,
2,1,0,1,0,4714.12,0.29824,0.297936,0.00547043,4,0.0253838,11,1.62984e-06,-5.26198,0.00299356,19.709,76.4004,0.297936,
2,1,0,0,0,4714.42,0.296741,0.296441,-0.0105992,4,0.0253771,11,-3.14203e-06,-4.97473,-0.0129641,-4.55102,9.3757,0.296441,
2,0,0,0,0,4714.72,0.295243,0.29494,-0.0223392,4,0.0253663,11,-6.5887e-06,-4.65093,-0.00556486,-10.6022,6.41615,0.29494,
2,0,0,1,0,4715.02,0.293744,0.293443,-0.0307822,4,0.0253528,11,-9.03282e-06,-4.5117,-0.0122675,-4.80946,5.20793,0.293443,
2,0,0,1,0,4715.32,0.292246,0.291937,-0.0376751,4,0.0253371,11,-1.09987e-05,-4.42395,-0.0196317,-3.00535,4.22395,0.291937,
2,0,0,1,0,4715.62,0.290749,0.290424,-0.0440767,4,0.0253192,11,-1.28009e-05,-4.35579,-0.022807,-2.58693,4.18989,0.290424,
2,0,0,1,0,4715.92,0.28925,0.288983,-0.0495595,4,0.0252996,11,-1.43219e-05,-4.30487,-0.0320033,-1.84356,3.48214,0.288983,
2,0,0,1,0,4716.22,0.287752,0.287435,-0.05408,4,0.0252784,11,-1.55445e-05,-4.26696,-0.038871,-1.51784,3.1701,0.287435,
2,0,0,1,0,4716.52,0.286253,0.28596,-0.0582993,4,0.025256,11,-1.66712e-05,-4.23434,-0.0482244,-1.22345,2.76153,0.28596,
2,0,0,1,0,4716.82,0.284755,0.284435,-0.0618646,4,0.0252321,11,-1.75965e-05,-4.20856,-0.0449463,-1.31268,3.19117,0.284435,
2,0,0,1,0,4717.12,0.283257,0.282979,-0.0673495,4,0.0252068,11,-1.90585e-05,-4.17167,-0.0666408,-0.885344,2.31089,0.282979,
2,0,0,0,0,4717.42,0.281759,0.281463,-0.0711809,4,0.0251804,11,-2.00348e-05,-4.14764,-0.0688349,-0.857123,2.36908,0.281463,
2,0,0,0,0,4717.72,0.280261,0.279986,-0.0733308,4,0.025153,11,-2.05316e-05,-4.13471,-0.0722578,-0.816521,2.37072,0.2799857,
2,0,0,0,0,4718.02,0.278763,0.278484,-0.0787034,4,0.0251246,11,-2.19176e-05,-4.10401,-0.0831752,-0.709346,2.13803,0.2784842,
2,0,0,1,0,4718.32,0.277264,0.277017,-0.0816872,4,0.025095,11,-2.26287e-05,-4.08785,-0.0853767,-0.691055,2.18935,0.277017,
2,0,0,1,0,4718.62,0.275766,0.275449,-0.0838699,4,0.0250645,11,-2.31019e-05,-4.07639,-0.10333,-0.570988,1.88294,0.275449,
2,0,0,1,0,4718.92,0.274269,0.274001,-0.0868942,4,0.0250331,11,-2.38091e-05,-4.06101,-0.099817,-0.591082,2.04042,0.274001,
2,0,0,1,0,4719.22,0.27277,0.272427,-0.0901924,4,0.0250009,11,-2.45709e-05,-4.04483,-0.0856997,-0.688451,2.45883,0.272427,
2,0,0,1,0,4719.52,0.271272,0.270977,-0.0934745,4,0.0249677,11,-2.53294e-05,-4.02931,-0.110247,-0.53516,1.95663,0.270977,
2,0,0,1,0,4719.82,0.269773,0.269491,-0.0971072,4,0.0249334,11,-2.61695e-05,-4.01275,-0.103341,-0.570927,2.13329,0.269491,
2,0,0,1,0,4720.12,0.268275,0.26798,-0.0998514,4,0.0248985,11,-2.67582e-05,-4.00065,-0.113785,-0.518523,1.99632,0.26798,
2,0,0,1,0,4720.42,0.266778,0.266461,-0.10165,4,0.024863,11,-2.70858e-05,-3.99289,-0.129917,-0.454137,1.80179,0.266461,
2,0,0,0,0,4720.72,0.265279,0.264993,-0.104748,4,0.0248265,11,-2.77573e-05,-3.97986,-0.124358,-0.474437,1.93261,0.264993,
2,0,0,0,0,4721.02,0.263781,0.263511,-0.105786,4,0.0247893,11,-2.78759e-05,-3.97557,-0.15869,-0.371794,1.55945,0.263511,
2,0,0,1,0,4721.32,0.262282,0.261985,-0.108994,4,0.0247513,11,-2.85549e-05,-3.9626,-0.169652,-0.34777,1.49151,0.2619848,
2,0,0,1,0,4721.62,0.260784,0.260511,-0.111865,4,0.0247127,11,-2.91421e-05,-3.95131,-0.144103,-0.409431,1.80184,0.260511,
2,0,0,1,0,4721.91,0.259286,0.25902,-0.114556,4,0.0246733,11,-2.96722e-05,-3.94098,-0.130954,-0.450541,2.00695,0.2590197,
2,0,0,1,0,4722.21,0.257788,0.257531,-0.117968,4,0.0246331,11,-3.03803e-05,-3.92824,-0.142416,-0.41428,1.88459,0.257531,
2,0,0,1,0,4722.51,0.25629,0.255983,-0.118904,4,0.0245922,11,-3.04375e-05,-3.9248,-0.182321,-0.323605,1.48328,0.255983,
2,0,0,1,0,4722.81,0.254791,0.254496,-0.120127,4,0.0245507,11,-3.0572e-05,-3.92036,-0.138264,-0.42672,1.99656,0.2544964,
2,0,0,1,0,4723.11,0.253293,0.253005,-0.123299,4,0.0245085,11,-3.11953e-05,-3.90904,-0.25739,-0.229224,1.10371,0.253005,
2,0,0,1,0,4723.41,0.251795,0.251516,-0.125534,4,0.0244657,11,-3.15738e-05,-3.90124,-0.23171,-0.254629,1.24833,0.2515161,
2,0,0,0,0,4723.71,0.250297,0.249995,-0.127374,4,0.0244221,11,-3.18428e-05,-3.89492,-0.303562,-0.194359,0.964394,0.249995,
2,0,0,0,0,4724.01,0.248799,0.248553,-0.129432,4,0.0243778,11,-3.21706e-05,-3.88796,-0.181664,-0.324775,1.6427,0.248553,
2,0,0,0,0,4724.31,0.247301,0.247019,-0.131879,4,0.0243332,11,-3.25765e-05,-3.87983,-0.215115,-0.274271,1.41107,0.247019,
2,0,0,1,0,4724.61,0.245802,0.245494,-0.135089,4,0.0242876,11,-3.31636e-05,-3.86938,-0.213005,-0.276989,1.44456,0.245494,
2,0,0,1,0,4724.91,0.244304,0.244018,-0.136751,4,0.0242413,11,-3.33696e-05,-3.86407,-0.224705,-0.262567,1.38827,0.2440179,
2,0,0,1,0,4725.21,0.242806,0.242577,-0.138372,4,0.0241945,11,-3.35659e-05,-3.85895,-0.243244,-0.242555,1.31391,0.242577,
2,0,0,1,0,4725.51,0.241308,0.241032,-0.139927,4,0.0241472,11,-3.37269e-05,-3.8541,-0.221774,-0.266037,1.45239,0.241032,
2,0,0,1,0,4725.81,0.23981,0.239524,-0.141844,4,0.0240992,11,-3.39749e-05,-3.84819,-0.17166,-0.343702,1.90106,0.239524,
2,0,0,1,0,4726.11,0.238311,0.23807,-0.143687,4,0.0240504,11,-3.42075e-05,-3.84258,-0.260185,-0.226762,1.27268,0.23807,
2,0,0,1,0,4726.41,0.236813,0.236511,-0.146851,4,0.024001,11,-3.4732e-05,-3.83312,-0.247372,-0.238507,1.36978,0.236511,
2,0,0,1,0,4726.71,0.235316,0.235021,-0.146788,4,0.0239512,11,-3.44981e-05,-3.83331,-0.224145,-0.263223,1.53479,0.235021,
2,0,0,0,0,4727.01,0.233817,0.233528,-0.151073,4,0.0239006,11,-3.52799e-05,-3.82081,-0.212608,-0.277506,1.64033,0.233528,
2,0,0,0,0,4727.31,0.232319,0.232026,-0.154463,4,0.0238493,11,-3.58394e-05,-3.81118,-0.234594,-0.251499,1.50126,0.232026,
2,0,0,1,0,4727.61,0.23082,0.230517,-0.155444,4,0.0237973,11,-3.58325e-05,-3.80843,-0.232643,-0.253608,1.53837,0.230517,
2,0,0,1,0,4727.91,0.229322,0.229008,-0.157073,4,0.0237448,11,-3.59708e-05,-3.8039,-0.218079,-0.270544,1.66346,0.229008,
2,0,0,1,0,4728.21,0.227825,0.227515,-0.158935,4,0.0236917,11,-3.61601e-05,-3.79878,-0.240294,-0.245532,1.54076,0.227515,
2,0,0,1,0,4728.51,0.226326,0.226017,-0.16203,4,0.0236378,11,-3.66215e-05,-3.79041,-0.265636,-0.222109,1.41158,0.2260174,
2,0,0,1,0,4728.81,0.224828,0.224628,-0.163936,4,0.0235832,11,-3.68248e-05,-3.78532,-0.340128,-0.173464,1.10852,0.224628,
2,0,0,1,0,4729.11,0.223329,0.223071,-0.166668,4,0.023528,11,-3.71788e-05,-3.77815,-0.277828,-0.212361,1.38271,0.223071,
2,0,0,1,0,4729.41,0.221831,0.221549,-0.169798,4,0.0234723,11,-3.76185e-05,-3.77007,-0.273323,-0.215862,1.42506,0.221549,
2,0,0,1,0,4729.71,0.220333,0.220061,-0.171738,4,0.0234157,11,-3.77929e-05,-3.76513,-0.196432,-0.300358,2.00426,0.220061,
2,0,0,0,0,4730.01,0.218835,0.21854,-0.174913,4,0.0233582,11,-3.82256e-05,-3.75718,-0.301397,-0.195755,1.32966,0.21854,
2,0,0,0,0,4730.3,0.217337,0.217028,-0.176445,4,0.0233001,11,-3.82937e-05,-3.75339,-0.221051,-0.266907,1.8466,0.217028,
2,0,0,0,0,4730.6,0.215839,0.21559,-0.177771,4,0.0232416,11,-3.83257e-05,-3.75014,-0.228772,-0.257898,1.79876,0.21559,
2,0,0,1,0,4730.9,0.21434,0.214037,-0.181712,4,0.0231821,11,-3.8893e-05,-3.74062,-0.17593,-0.33536,2.36492,0.214037,
2,0,0,1,0,4731.2,0.212842,0.212525,-0.1839,4,0.0231217,11,-3.90833e-05,-3.73542,-0.263922,-0.223551,1.60066,0.212525,
2,0,0,1,0,4731.5,0.211344,0.211076,-0.185299,4,0.0230606,11,-3.91123e-05,-3.73213,-0.225742,-0.261361,1.90821,0.211076,
2,0,0,1,0,4731.8,0.209846,0.209532,-0.18704,4,0.0229988,11,-3.91909e-05,-3.72807,-0.219281,-0.269061,1.98413,0.209532,
2,0,0,1,0,4732.1,0.208348,0.208049,-0.192678,4,0.0229362,11,-4.00864e-05,-3.71517,-0.228033,-0.258735,1.93604,0.208049,
2,0,0,1,0,4732.4,0.206849,0.206533,-0.199337,4,0.0228724,11,-4.11697e-05,-3.70041,-0.233177,-0.253026,1.92419,0.206533,
2,0,0,1,0,4732.7,0.205351,0.205094,-0.197511,4,0.0228076,11,-4.05083e-05,-3.70441,-0.259868,-0.227039,1.74554,0.205094,
2,0,0,1,0,4733,0.203854,0.203557,-0.199552,4,0.0227422,11,-4.06203e-05,-3.69994,-0.224371,-0.262958,2.07527,0.203557,
2,0,0,0,0,4733.3,0.202355,0.202051,-0.203801,4,0.022676,11,-4.11783e-05,-3.69079,-0.213037,-0.276947,2.21077,0.202051,
2,0,0,0,0,4733.6,0.200857,0.200573,-0.207508,4,0.0226087,11,-4.16205e-05,-3.68297,-0.205175,-0.28756,2.33062,0.200573,
2,0,0,1,0,4733.9,0.199358,0.1991,-0.210925,4,0.0225402,11,-4.19951e-05,-3.67587,-0.248037,-0.237868,1.95625,0.1991,
2,0,0,1,0,4734.2,0.19786,0.197551,-0.215434,4,0.0224708,11,-4.25592e-05,-3.66669,-0.179015,-0.329582,2.75239,0.197551,
2,0,0,1,0,4734.5,0.196363,0.196044,-0.219645,4,0.0224004,11,-4.30602e-05,-3.65828,-0.19085,-0.309143,2.63311,0.196044,
2,0,0,1,0,4734.8,0.194864,0.194583,-0.224054,4,0.0223286,11,-4.3597e-05,-3.64965,-0.167234,-0.3528,3.06726,0.1945827,
2,0,0,1,0,4735.1,0.193366,0.193043,-0.227037,4,0.0222553,11,-4.3828e-05,-3.6439,-0.154108,-0.382849,3.39331,0.193043,
2,0,0,1,0,4735.4,0.191867,0.191531,-0.232557,4,0.0221809,11,-4.45419e-05,-3.63347,-0.182963,-0.322469,2.92758,0.191531,
2,0,0,1,0,4735.7,0.190369,0.190063,-0.236099,4,0.0221053,11,-4.48737e-05,-3.62691,-0.14782,-0.399133,3.68976,0.190063,
2,0,0,1,0,4736,0.188871,0.188591,-0.240972,4,0.022028,11,-4.54451e-05,-3.61803,-0.124048,-0.475622,4.479,0.188591,
2,0,0,0,0,4736.3,0.187373,0.18706,-0.247653,4,0.0219491,11,-4.63261e-05,-3.60616,-0.145725,-0.404872,3.91846,0.18706,
2,0,0,0,0,4736.6,0.185875,0.185593,-0.253326,4,0.0218685,11,-4.70155e-05,-3.59632,-0.143213,-0.411974,4.05725,0.185593,
2,0,0,0,0,4736.9,0.184377,0.184101,-0.257643,4,0.0217862,11,-4.74323e-05,-3.58898,-0.155408,-0.379647,3.84131,0.184101,
2,0,0,1,0,4737.2,0.182878,0.182596,-0.266697,4,0.0217021,11,-4.86977e-05,-3.57398,-0.133241,-0.442807,4.59012,0.182596,
2,0,0,1,0,4737.5,0.181381,0.181081,-0.274307,4,0.0216157,11,-4.96718e-05,-3.56176,-0.128982,-0.457429,4.88066,0.181081,
2,0,0,1,0,4737.8,0.179882,0.179555,-0.279665,4,0.021527,11,-5.02152e-05,-3.55336,-0.137996,-0.427548,4.68258,0.179555,
2,0,0,1,0,4738.1,0.178384,0.178066,-0.28875,4,0.021436,11,-5.14165e-05,-3.53948,-0.115965,-0.508773,5.76696,0.178066,
2,0,0,1,0,4738.39,0.176886,0.176559,-0.296623,4,0.0213429,11,-5.23715e-05,-3.5278,-0.117446,-0.502361,5.86,0.176559,
2,0,0,1,0,4738.69,0.175387,0.175079,-0.307851,4,0.0212465,11,-5.38984e-05,-3.51166,-0.102228,-0.577143,6.96032,0.175079,
2,0,0,1,0,4738.99,0.173889,0.173625,-0.319082,4,0.0211474,11,-5.54005e-05,-3.4961,-0.101542,-0.581041,7.22014,0.173625,
2,0,0,1,0,4739.29,0.172392,0.172076,-0.329756,4,0.0210446,11,-5.67432e-05,-3.48181,-0.0983048,-0.600174,7.72759,0.172076,
2,0,0,0,0,4739.59,0.170893,0.170565,-0.34308,4,0.0209387,11,-5.85173e-05,-3.4646,-0.0898901,-0.656357,8.77664,0.1705645,
2,0,0,0,0,4739.89,0.169395,0.169115,-0.356033,4,0.0208285,11,-6.02106e-05,-3.44851,-0.0813007,-0.725701,10.102,0.169115,
2,0,0,1,0,4740.19,0.167896,0.167584,-0.371331,4,0.0207137,11,-6.22293e-05,-3.43024,-0.0814199,-0.724638,10.53,0.167584,
2,0,0,1,0,4740.49,0.166398,0.1661,-0.388007,4,0.0205941,11,-6.44481e-05,-3.41116,-0.0813391,-0.725359,11.0681,0.1661002,
2,0,0,1,0,4740.79,0.164901,0.164585,-0.40394,4,0.0204698,11,-6.64825e-05,-3.39368,-0.0710151,-0.830809,13.2675,0.164585,
2,0,0,1,0,4741.09,0.163402,0.163081,-0.427501,4,0.0203393,11,-6.97174e-05,-3.36906,-0.064578,-0.913624,15.2364,0.163081,
2,0,0,1,0,4741.39,0.161904,0.161597,-0.450702,4,0.0202022,11,-7.28319e-05,-3.34611,-0.0664985,-0.887238,15.5686,0.161597,
2,0,0,1,0,4741.69,0.160405,0.160082,-0.475981,4,0.0200579,11,-7.61959e-05,-3.32241,-0.063781,-0.92504,17.1102,0.160082,
2,0,0,1,0,4741.99,0.158907,0.158605,-0.495986,4,0.0199064,11,-7.8666e-05,-3.30453,-0.0648387,-0.909951,17.7956,0.158605,
2,0,0,1,0,4742.29,0.157409,0.157106,-0.528493,4,0.0197469,11,-8.30295e-05,-3.27696,-0.0601752,-0.98047,20.3392,0.157106,
2,0,0,0,0,4742.59,0.155911,0.155597,-0.559474,4,0.0195782,11,-8.70524e-05,-3.25222,-0.0629139,-0.937789,20.4996,0.155597,
2,0,0,0,0,4742.89,0.154413,0.15409,-0.590495,4,0.0193996,11,-9.09894e-05,-3.22878,-0.0674244,-0.875054,20.1369,0.15409,
2,0,0,0,0,4743.19,0.152915,0.152587,-0.624807,4,0.0192118,11,-9.53376e-05,-3.20425,-0.0662101,-0.891103,21.7011,0.152587,
2,0,0,1,0,4743.49,0.151416,0.151147,-0.657819,4,0.0190147,11,-9.94273e-05,-3.18189,-0.0679552,-0.868219,22.2757,0.151147,
2,0,0,1,0,4743.79,0.149919,0.149573,-0.692614,4,0.018807,11,-0.000103596,-3.15951,-0.0710109,-0.830858,22.2942,0.149573,
2,0,0,1,0,4744.09,0.14842,0.148127,-0.724244,4,0.0185892,11,-0.00010728,-3.14012,-0.0759517,-0.776809,21.9068,0.148127,
2,0,0,1,0,4744.39,0.146922,0.146617,-0.75618,4,0.018362,11,-0.000110869,-3.12137,-0.0856098,-0.689173,20.2257,0.146617,
2,0,0,1,0,4744.69,0.145424,0.14515,-0.782605,4,0.0181261,11,-0.000113595,-3.10646,-0.0943365,-0.625421,19.1205,0.14515,
2,0,0,1,0,4744.99,0.143925,0.143664,-0.81255,4,0.0178814,11,-0.000116734,-3.09015,-0.0974452,-0.605469,19.0833,0.143664,
2,0,0,1,0,4745.29,0.142427,0.142101,-0.837783,4,0.0176282,11,-0.00011905,-3.07687,-0.120267,-0.490575,15.9713,0.142101,
2,0,0,1,0,4745.59,0.14093,0.140625,-0.858988,4,0.0173684,11,-0.000120796,-3.06601,-0.157659,-0.374225,12.516,0.140625,
2,0,0,0,0,4745.89,0.139431,0.139143,-0.874139,4,0.0171029,11,-0.00012163,-3.05842,-0.187457,-0.31474,10.7268,0.139143,
2,0,0,0,0,4746.19,0.137933,0.137625,-0.891438,4,0.0168327,11,-0.000122684,-3.04991,-0.242026,-0.243776,8.44765,0.137625,
2,0,0,1,0,4746.49,0.136434,0.13616,-0.904488,4,0.0165583,11,-0.000123155,-3.0436,-0.309422,-0.190678,6.68489,0.13616,
2,0,0,1,0,4746.78,0.134936,0.134627,-0.910321,4,0.016281,11,-0.000122554,-3.04081,-0.67594,-0.0872858,3.08162,0.134627,
2,0,0,1,0,4747.08,0.133439,0.13312,-0.911066,4,0.0160022,11,-0.000121281,-3.04045,-1.33966,-0.0440411,1.56671,0.13312,
2,0,0,1,0,4747.38,0.13194,0.131638,-0.912576,4,0.0157233,11,-0.00012013,-3.03973,-60.9218,-0.000968455,0.0345433,0.131638,
2,0,0,1,0,4747.68,0.130442,0.130118,-0.913093,4,0.015444,11,-0.00011881,-3.03948,0.81775,0.0721492,-2.55759,0.130118,
2,0,0,1,0,4747.98,0.128943,0.128643,-0.90488,4,0.0151654,11,-0.000116406,-3.04341,0.365374,0.161479,-5.69001,0.128643,
2,0,0,1,0,4748.28,0.127445,0.127141,-0.899349,4,0.0148894,11,-0.000114344,-3.04607,0.316013,0.186701,-6.53026,0.127141,
2,0,0,1,0,4748.58,0.125947,0.125626,-0.886243,4,0.0146169,11,-0.000111335,-3.05245,0.255808,0.230642,-7.96973,0.125626,
2,0,0,0,0,4748.88,0.124449,0.124146,-0.875249,4,0.0143472,11,-0.000108659,-3.05787,0.257605,0.229033,-7.79721,0.124146,
2,0,0,0,0,4749.18,0.122951,0.122618,-0.861069,4,0.0140816,11,-0.000105583,-3.06496,0.199481,0.295768,-9.9063,0.122618,
2,0,0,0,0,4749.48,0.121453,0.121141,-0.846353,4,0.0138202,11,-0.000102528,-3.07245,0.173611,0.339841,-11.1807,0.121141,
2,0,0,1,0,4749.78,0.119954,0.119647,-0.825652,4,0.0135645,11,-9.87866e-05,-3.0832,0.165287,0.356955,-11.5498,0.119647,
2,0,0,1,0,4750.08,0.118456,0.118186,-0.810778,4,0.0133138,11,-9.58225e-05,-3.0911,0.182939,0.322512,-10.1721,0.118186,
2,0,0,1,0,4750.38,0.116958,0.116664,-0.793365,4,0.0130675,11,-9.25572e-05,-3.10053,0.159007,0.371052,-11.4677,0.116664,
2,0,0,1,0,4750.68,0.11546,0.115125,-0.77428,4,0.012827,11,-8.91393e-05,-3.1111,0.139637,0.422523,-12.7817,0.115125,
2,0,0,1,0,4750.98,0.113962,0.113682,-0.751502,4,0.0125924,11,-8.54324e-05,-3.12407,0.142152,0.41505,-12.249,0.113682,
2,0,0,1,0,4751.28,0.112463,0.112151,-0.741199,4,0.0123629,11,-8.31261e-05,-3.13007,0.149501,0.394647,-11.3958,0.112151,
2,0,0,1,0,4751.58,0.110965,0.110674,-0.723544,4,0.0121383,11,-8.00774e-05,-3.14053,0.152068,0.387985,-10.9613,0.110674,
2,0,0,1,0,4751.88,0.109468,0.109226,-0.707238,4,0.0119186,11,-7.72486e-05,-3.15043,0.140949,0.41859,-11.532,0.109226,
2,0,0,0,0,4752.18,0.107969,0.107683,-0.690553,4,0.0117036,11,-7.43611e-05,-3.1608,0.166718,0.35389,-9.57787,0.107683,
2,0,0,0,0,4752.48,0.106471,0.106179,-0.679122,4,0.0114933,11,-7.21083e-05,-3.16805,0.19133,0.308367,-8.19349,0.106179,
2,0,0,1,0,4752.78,0.104972,0.104713,-0.66576,4,0.0112864,11,-6.97137e-05,-3.17668,0.189953,0.310604,-8.08462,0.104713,
2,0,0,1,0,4753.08,0.103474,0.103199,-0.654165,4,0.011083,11,-6.75092e-05,-3.18431,0.173748,0.339573,-8.66929,0.103199,
2,0,0,1,0,4753.38,0.101977,0.101693,-0.643492,4,0.0108833,11,-6.54384e-05,-3.19146,0.203056,0.290561,-7.31159,0.101693,
2,0,0,1,0,4753.68,0.100478,0.100178,-0.632412,4,0.0106873,11,-6.33537e-05,-3.199,0.2314,0.254969,-6.3095,0.100178,
2,0,0,1,0,4753.98,0.0989799,0.0986806,-0.623815,4,0.0104936,11,-6.15584e-05,-3.20494,0.279252,0.211278,-5.14467,0.0986806,
2,0,0,1,0,4754.28,0.0974812,0.0971574,-0.617113,4,0.0103023,11,-5.99571e-05,-3.20964,0.284832,0.20714,-4.98332,0.0971574,
2,0,0,1,0,4754.58,0.0959834,0.0956817,-0.608851,4,0.0101133,11,-5.82559e-05,-3.21549,0.31006,0.190286,-4.52971,0.0956817,
2,0,0,1,0,4754.87,0.0944855,0.094191,-0.598042,4,0.00992707,11,-5.63302e-05,-3.22327,0.312123,0.189028,-4.44992,0.094191,
2,0,0,0,0,4755.17,0.0929871,0.092702,-0.594012,4,0.0097424,11,-5.50661e-05,-3.2262,0.387825,0.152131,-3.52958,0.092702,
2,0,0,0,0,4755.47,0.0914889,0.0911602,-0.592439,4,0.00955922,11,-5.40068e-05,-3.22736,0.336781,0.175188,-4.02752,0.0911602,
2,0,0,0,0,4755.77,0.0899907,0.0896841,-0.584405,4,0.00937807,11,-5.24119e-05,-3.23329,0.307512,0.191862,-4.36459,0.0896841,
2,0,0,1,0,4756.07,0.0884923,0.0881846,-0.574818,4,0.00919887,11,-5.069e-05,-3.24047,0.364885,0.161695,-3.63973,0.0881846,
2,0,0,1,0,4756.37,0.0869946,0.0866717,-0.572786,4,0.00902145,11,-4.96443e-05,-3.24201,0.394664,0.149494,-3.33421,0.0866717,
2,0,0,1,0,4756.67,0.0854962,0.0852166,-0.567193,4,0.00884513,11,-4.83342e-05,-3.24627,0.379234,0.155577,-3.44294,0.0852166,
2,0,0,1,0,4756.97,0.083998,0.0837236,-0.561541,4,0.00867058,11,-4.70142e-05,-3.25062,0.263593,0.22383,-4.89185,0.08372356,
2,0,0,1,0,4757.27,0.0824998,0.0821775,-0.555812,4,0.00849763,11,-4.56752e-05,-3.25507,0.36664,0.160921,-3.49874,0.0821775,
2,0,0,1,0,4757.57,0.0810014,0.0807021,-0.550834,4,0.00832687,11,-4.44535e-05,-3.25898,0.410078,0.143875,-3.09222,0.0807021,
2,0,0,1,0,4757.87,0.0795035,0.079216,-0.545321,4,0.00815709,11,-4.31981e-05,-3.26335,0.33462,0.17632,-3.74207,0.079216,
2,0,0,1,0,4758.17,0.0780056,0.0777242,-0.542425,4,0.00798879,11,-4.21595e-05,-3.26566,0.361593,0.163167,-3.43016,0.0777242,
2,0,0,0,0,4758.47,0.076507,0.0762106,-0.534359,4,0.00782237,11,-4.07238e-05,-3.27217,0.295476,0.199678,-4.15738,0.0762106,
2,0,0,0,0,4758.77,0.0750088,0.074726,-0.529062,4,0.00765809,11,-3.95347e-05,-3.27649,0.297713,0.198177,-4.07862,0.074726,
2,0,0,1,0,4759.07,0.0735103,0.0732147,-0.522149,4,0.00749527,11,-3.8229e-05,-3.28221,0.342467,0.172279,-3.50281,0.07321465,
2,0,0,1,0,4759.37,0.0720124,0.0716912,-0.516063,4,0.00733423,11,-3.69972e-05,-3.2873,0.329061,0.179298,-3.60891,0.0716912,
2,0,0,1,0,4759.67,0.0705146,0.0702069,-0.508248,4,0.0071751,11,-3.56825e-05,-3.29392,0.251795,0.234318,-4.66208,0.0702069,
2,0,0,1,0,4759.97,0.0690161,0.0687389,-0.501173,4,0.00701829,11,-3.44501e-05,-3.30001,0.250168,0.235841,-4.63916,0.0687389,
2,0,0,1,0,4760.27,0.0675179,0.0671982,-0.496205,4,0.00686322,11,-3.33441e-05,-3.30434,0.292638,0.201614,-3.89992,0.06719818,
2,0,0,1,0,4760.57,0.0660192,0.0657406,-0.494079,4,0.00670977,11,-3.24811e-05,-3.3062,0.238745,0.247126,-4.72222,0.0657406,
2,0,0,1,0,4760.87,0.0645214,0.0642173,-0.484829,4,0.00655828,11,-3.11344e-05,-3.31441,0.224136,0.263232,-4.96016,0.0642173,
2,0,0,1,0,4761.17,0.0630235,0.0627195,-0.474838,4,0.00640911,11,-2.97816e-05,-3.32345,0.274681,0.214795,-3.99602,0.0627195,
2,0,0,0,0,4761.47,0.0615251,0.0612217,-0.469603,4,0.00626201,11,-2.87499e-05,-3.32827,0.246267,0.239577,-4.40167,0.0612217,
2,0,0,0,0,4761.77,0.0600269,0.0597425,-0.464288,4,0.00611657,11,-2.77377e-05,-3.33321,0.27127,0.217495,-3.95553,0.0597425,
2,0,0,0,0,4762.07,0.0585287,0.0582515,-0.457222,4,0.00597304,11,-2.66339e-05,-3.33987,0.204281,0.288818,-5.14953,0.0582515,
2,0,0,1,0,4762.37,0.0570303,0.0567307,-0.452513,4,0.0058311,11,-2.56714e-05,-3.34437,0.292245,0.201885,-3.56542,0.0567307,
2,0,0,1,0,4762.67,0.0555325,0.0552147,-0.446922,4,0.00569148,11,-2.46767e-05,-3.34977,0.283094,0.208411,-3.63396,0.0552147,
2,0,0,1,0,4762.97,0.0540342,0.0537395,-0.440781,4,0.00555298,11,-2.36873e-05,-3.35578,0.279897,0.210792,-3.62858,0.0537395,
2,0,0,1,0,4763.26,0.052536,0.0522528,-0.435846,4,0.00541591,11,-2.27742e-05,-3.36067,0.315128,0.187226,-3.18998,0.05225281,
2,0,0,1,0,4763.56,0.0510378,0.0507693,-0.430828,4,0.00528058,11,-2.18728e-05,-3.3657,0.259172,0.227648,-3.83152,0.0507693,
2,0,0,1,0,4763.86,0.0495394,0.0492018,-0.42629,4,0.00514681,11,-2.09742e-05,-3.3703,0.34064,0.173203,-2.8908,0.0492018,
2,0,0,1,0,4764.16,0.0480415,0.0477515,-0.422833,4,0.00501402,11,-2.01909e-05,-3.37383,0.704789,0.0837129,-1.37867,0.0477515,
2,0,0,1,0,4764.46,0.0465436,0.0462249,-0.416936,4,0.0048823,11,-1.92728e-05,-3.37993,0.482616,0.12225,-2.00535,0.0462249,
2,0,0,0,0,4764.76,0.045045,0.04476,-0.414995,4,0.00475163,11,-1.85751e-05,-3.38196,0.401228,0.147049,-2.3937,0.04476,
2,0,0,0,0,4765.06,0.0435468,0.0432394,-0.409726,4,0.00462225,11,-1.77163e-05,-3.38751,0.507097,0.116349,-1.87511,0.0432394,
2,0,0,1,0,4765.36,0.0420483,0.0416971,-0.410945,4,0.0044936,11,-1.71352e-05,-3.38622,0.630659,0.0935529,-1.49717,0.0416971,
2,0,0,1,0,4765.66,0.0405504,0.0402585,-0.410322,4,0.00436554,11,-1.65189e-05,-3.38688,0.624741,0.0944391,-1.5007,0.0402585,
2,0,0,1,0,4765.96,0.0390526,0.0387955,-0.405953,4,0.00423795,11,-1.57491e-05,-3.39152,0.614205,0.0960592,-1.52008,0.0387955,
2,0,0,1,0,4766.26,0.0375541,0.0372481,-0.401482,4,0.00411116,11,-1.49544e-05,-3.39633,0.978366,0.0603046,-0.951418,0.03724806,
2,0,0,1,0,4766.56,0.0360559,0.0357783,-0.402143,4,0.00398509,11,-1.4388e-05,-3.39562,1.07156,0.05506,-0.868655,0.0357783,
2,0,0,1,0,4766.86,0.0345572,0.0342774,-0.39998,4,0.00385918,11,-1.37103e-05,-3.39796,1.51151,0.0390339,-0.613227,0.0342774,
2,0,0,1,0,4767.16,0.0330594,0.0327675,-0.400888,4,0.00373342,11,-1.31361e-05,-3.39698,0.82683,0.0713569,-1.11208,0.0327675,
2,0,0,1,0,4767.46,0.0315615,0.0312559,-0.400672,4,0.00360802,11,-1.25234e-05,-3.39721,3.96686,0.0148732,-0.232319,0.0312559,
2,0,0,0,0,4767.76,0.0300631,0.0297584,-0.39993,4,0.00348321,11,-1.19013e-05,-3.39802,7.84534,0.00752039,-0.117182,0.0297584,
2,0,0,0,0,4768.06,0.0285649,0.0282579,-0.399619,4,0.00335808,11,-1.12924e-05,-3.39835,-22.7275,-0.00259597,0.0403444,0.0282579,
2,0,0,0,0,4768.36,0.0270667,0.0267914,-0.400989,4,0.00323293,11,-1.07431e-05,-3.39687,-10.8057,-0.00546006,0.0851391,0.02679139,
2,0,0,1,0,4768.66,0.0255683,0.0252641,-0.399173,4,0.00310768,11,-1.00847e-05,-3.39884,-4.49074,-0.0131382,0.204982,0.0252641,
2,0,0,1,0,4768.96,0.0240706,0.0237852,-0.398963,4,0.00298293,11,-9.48942e-06,-3.39907,-3.44442,-0.0171292,0.268083,0.0237852,
2,0,0,1,0,4769.26,0.0225722,0.0223175,-0.399756,4,0.00285765,11,-8.92157e-06,-3.3982,-0.652082,-0.0904794,1.40987,0.02231754,
2,0,0,1,0,4769.56,0.021074,0.0207768,-0.399922,4,0.00273214,11,-8.30909e-06,-3.39802,-1.41019,-0.0418385,0.655573,0.0207768,
2,0,0,1,0,4769.86,0.0195758,0.0192837,-0.40142,4,0.0026064,11,-7.74088e-06,-3.3964,-1.74426,-0.0338251,0.52971,0.0192837,
2,0,0,1,0,4770.16,0.0180774,0.0178001,-0.400791,4,0.00248057,11,-7.1341e-06,-3.39708,-1.71826,-0.034337,0.5388,0.0178001,
2,0,0,1,0,4770.46,0.0165795,0.0162914,-0.404643,4,0.0023544,11,-6.59219e-06,-3.39293,-1.12194,-0.0525873,0.826635,0.0162914,
2,0,0,1,0,4770.76,0.0150817,0.0147773,-0.40805,4,0.00222764,11,-6.02988e-06,-3.38929,-1.27599,-0.0462386,0.730163,0.0147773,
2,0,0,0,0,4771.06,0.013583,0.0132511,-0.407864,4,0.00210038,11,-5.40463e-06,-3.38948,-1.13641,-0.0519181,0.821627,0.0132511,
2,0,0,0,0,4771.36,0.0120848,0.0117686,-0.407488,4,0.00197291,11,-4.79557e-06,-3.38989,-1.44719,-0.0407686,0.649256,0.0117686,
2,0,0,1,0,4771.65,0.0105863,0.0102942,-0.409504,4,0.00184508,11,-4.21552e-06,-3.38774,-0.707461,-0.0833968,1.33799,0.0102942,
2,0,0,1,0,4771.95,0.00908846,0.00874976,-0.410809,4,0.0017165,11,-3.59448e-06,-3.38636,-0.794693,-0.0742425,1.19377,0.00874976,
2,0,0,1,0,4772.25,0.0075906,0.00727904,-0.413106,4,0.00158738,11,-3.00702e-06,-3.38394,-1.52462,-0.0386981,0.623333,0.00727904,
2,0,0,1,0,4772.55,0.00609208,0.00578792,-0.416238,4,0.00145766,11,-2.40915e-06,-3.38066,-0.586185,-0.100651,1.63,0.00578792,
2,0,0,1,0,4772.85,0.00459389,0.00426518,-0.418682,4,0.00132762,11,-1.78575e-06,-3.37812,-0.767135,-0.0769096,1.25288,0.00426518,
2,0,0,1,0,4773.15,0.00309525,0.00282466,-0.420752,4,0.00119659,11,-1.18848e-06,-3.37597,-0.457727,-0.128898,2.11378,0.00282466,
2,0,0,1,0,4773.45,0.00159739,0.00123739,-0.424614,4,0.00106262,11,-5.25414e-07,-3.37201, , , ,0.00123739,
2,0,0,0,0,4773.73,0.000199195,-0.000161173,-0.424412,4,0.000938811,11,6.84035e-08,-3.37221, , , ,-0.0001611726,