File: Figure_codes/Fig_3-5/rawdata_trumpetplot_data/before 10th/20221101_1-115_002_TrumpetPlot_ParaChange_15_CV_C01.mpt
EC-Lab ASCII FILE
Nb header lines : 68

Cyclic Voltammetry

Run on channel : 1 (SN 65296)
User :
CE vs. WE compliance from -10 V to 10 V
Electrode connection : standard
Potential control : Ewe
Ewe ctrl range : min = -1.00 V, max = 1.00 V
Safety Limits :
	Do not start on E overload
Acquisition started on : 11/08/2022 17:30:03.488
Loaded Setting File :  NONE
Saved on :
	File : 20221101_1-115_002_TrumpetPlot_ParaChange_15_CV_C01.mpr
	Directory : C:\Users\NakamuraT\Documents\EC-Lab\Data\Yatsuzuka\20221108_1-115_001_TrumpetPlot\
	Host : 192.109.209.100
Device : SP-50e (SN .003219)
Address : 192.109.209.128
EC-Lab for windows v11.43 (software)
Internet server v11.40 (firmware)
Command interpretor v11.40 (firmware)
Electrode material : Au/Pd
Initial state :
Electrolyte : NaCl (0.2M)
Comments : Fe(CN)63-/Fe(CN)64- 5.10-3 M
Reference electrode : SCE Saturated Calomel Electrode (0.241 V)
Electrode surface area : 0.001 cm2
Characteristic mass : 0.001 g
Equivalent Weight : 0.000 g/eq.
Density : 0.000 g/cm3
Volume (V) : 0.001 cm3
Cycle Definition : Charge/Discharge alternance
Ei (V)              0.000
vs.                 Ref
dE/dt               800.000
dE/dt unit          mV/s
E1 (V)              0.300
vs.                 Ref
Step percent        50
N                   10
E range min (V)     -1.000
E range max (V)     1.000
I Range             100 mA
I Range min         Unset
I Range max         Unset
I Range init        Unset
Bandwidth           5
E2 (V)              -0.200
vs.                 Ref
nc cycles           0
Reverse Scan        1
Ef (V)              0.000
vs.                 Ref

Number of loops : 8
Loop 0 from point number 0 to 634
Loop 1 from point number 635 to 1269
Loop 2 from point number 1270 to 1904
Loop 3 from point number 1905 to 2539
Loop 4 from point number 2540 to 3174
Loop 5 from point number 3175 to 3809
Loop 6 from point number 3810 to 4444
Loop 7 from point number 4445 to 5079

mode	ox/red	error	control changes	counter inc.	time/s	control/V	Ewe/V	<I>/mA	cycle number	(Q-Qo)/C	I Range	P/W
2	1	0	1	0	1217.73	2.44065e-05	-0.00116517	32.7288	1	0.0000000E+000	10	-3.81344e-05
2	1	0	1	0	1217.74	0.0121015	0.0117697	36.6453	1	0.000528896	10	0.000431303
2	1	0	1	0	1217.76	0.0249027	0.0246229	39.1675	1	0.0011378	10	0.000964416
2	1	0	1	0	1217.77	0.0377094	0.0374124	40.3299	1	0.00177508	10	0.00150884
2	1	0	1	0	1217.79	0.0505051	0.0501956	40.6709	1	0.00242369	10	0.0020415
2	1	0	1	0	1217.81	0.0633063	0.0629905	40.8533	1	0.00307594	10	0.00257337
2	1	0	1	0	1217.82	0.0761019	0.075761	41.3558	1	0.00373301	10	0.00313316
2	1	0	1	0	1217.84	0.0889087	0.0885929	42.6846	1	0.00440433	10	0.00378156
2	1	0	1	0	1217.85	0.101702	0.101318	44.8792	1	0.00510343	10	0.00454706
2	1	0	1	0	1217.87	0.114506	0.11415	48.2908	1	0.00584822	10	0.00551239
2	1	0	1	0	1217.89	0.127301	0.126943	52.5649	1	0.00665439	10	0.00667273
2	1	0	1	0	1217.9	0.140105	0.139769	57.8185	1	0.0075367	10	0.00808124
2	1	0	1	0	1217.92	0.152904	0.152539	64.2355	1	0.00851203	10	0.0097984
2	1	0	1	0	1217.93	0.165705	0.165321	71.8623	1	0.00960001	10	0.0118803
2	1	0	1	0	1217.95	0.178506	0.178134	80.2943	1	0.0108178	10	0.0143031
2	1	0	1	0	1217.97	0.191302	0.190959	88.5226	1	0.0121706	10	0.0169042
2	1	0	1	0	1217.98	0.204108	0.203768	94.896	1	0.0136427	10	0.0193368
2	1	0	1	0	1218	0.216904	0.216624	96.6499	1	0.0151836	10	0.0209367
2	1	0	1	0	1218.01	0.229705	0.229507	90.3935	1	0.0166914	10	0.020746
2	1	0	1	0	1218.03	0.242501	0.242334	75.3555	1	0.0180258	10	0.0182612
2	1	0	1	0	1218.05	0.255308	0.255148	56.2923	1	0.0190778	10	0.0143629
2	1	0	1	0	1218.06	0.268101	0.267918	40.1634	1	0.0198402	10	0.0107605
2	1	0	1	0	1218.08	0.280905	0.280663	30.7803	1	0.020398	10	0.0086389
2	1	0	1	0	1218.09	0.2937	0.29341	26.8308	1	0.0208533	10	0.00787245
2	1	0	1	0	1218.1	0.298983	0.298988	22.4408	1	0.0210919	10	0.00670953
2	0	0	1	0	1218.12	0.286187	0.286024	-6.18477	1	0.0211773	10	-0.00176899
2	0	0	1	0	1218.14	0.273386	0.2731	-15.6954	1	0.020988	10	-0.00428642
2	0	0	1	0	1218.15	0.260585	0.260358	-19.1817	1	0.0207043	10	-0.00499409
2	0	0	1	0	1218.17	0.247783	0.247539	-20.848	1	0.0203826	10	-0.00516071
2	0	0	1	0	1218.18	0.234982	0.234776	-22.065	1	0.020039	10	-0.00518035
2	0	0	1	0	1218.2	0.222187	0.221941	-23.2601	1	0.0196764	10	-0.00516238
2	0	0	1	0	1218.22	0.20938	0.209128	-24.7443	1	0.0192924	10	-0.00517473
2	0	0	1	0	1218.23	0.196587	0.19636	-26.7336	1	0.0188809	10	-0.00524941
2	0	0	1	0	1218.25	0.183783	0.183557	-29.4766	1	0.0184323	10	-0.00541063
2	0	0	1	0	1218.26	0.170987	0.170799	-33.3012	1	0.0179314	10	-0.0056878
2	0	0	1	0	1218.28	0.158183	0.15796	-38.6237	1	0.0173575	10	-0.00610102
2	0	0	1	0	1218.3	0.145385	0.14521	-45.7342	1	0.0166844	10	-0.00664107
2	0	0	1	0	1218.31	0.132584	0.13237	-54.5826	1	0.0158826	10	-0.00722508
2	0	0	1	0	1218.33	0.119782	0.119668	-64.4201	1	0.0149314	10	-0.00770903
2	0	0	1	0	1218.34	0.106987	0.10688	-74.3387	1	0.0138198	10	-0.00794529
2	0	0	1	0	1218.36	0.0941801	0.0939978	-83.4674	1	0.012554	10	-0.00784575
2	0	0	1	0	1218.38	0.0813844	0.0811531	-90.2034	1	0.0111597	10	-0.00732029
2	0	0	1	0	1218.39	0.0685832	0.0683699	-93.1707	1	0.00968608	10	-0.00637007
2	0	0	1	0	1218.41	0.0557876	0.0555369	-91.0417	1	0.00820571	10	-0.00505617
2	0	0	1	0	1218.42	0.0429808	0.0426848	-84.3316	1	0.00679869	10	-0.00359968
2	0	0	1	0	1218.44	0.030188	0.0299175	-75.4069	1	0.00552053	10	-0.00225598
2	0	0	1	0	1218.46	0.017384	0.0171056	-66.6413	1	0.00438569	10	-0.00113994
2	0	0	1	0	1218.47	0.00458834	0.00431926	-58.8274	1	0.00338396	10	-0.000254091
2	0	0	1	0	1218.49	-0.00821564	-0.00852015	-52.5604	1	0.00249558	10	0.000447822
2	0	0	1	0	1218.5	-0.0210196	-0.0213161	-48.559	1	0.00169047	10	0.00103509
2	0	0	1	0	1218.52	-0.0338153	-0.0341078	-46.8484	1	0.000929811	10	0.00159789
2	0	0	1	0	1218.54	-0.0466193	-0.0469557	-46.7302	1	0.000182549	10	0.00219425
2	0	0	1	0	1218.55	-0.0594121	-0.0597336	-47.4917	1	-0.000570546	10	0.00283685
2	0	0	1	0	1218.57	-0.0722189	-0.0725465	-48.7964	1	-0.00134049	10	0.00354
2	0	0	1	0	1218.58	-0.0850146	-0.0852862	-50.3828	1	-0.00213375	10	0.00429696
2	0	0	1	0	1218.6	-0.0978158	-0.0980906	-52.234	1	-0.00295477	10	0.00512366
2	0	0	1	0	1218.62	-0.110611	-0.110887	-54.3317	1	-0.00380737	10	0.00602466
2	0	0	1	0	1218.63	-0.123418	-0.123711	-56.7765	1	-0.00469631	10	0.00702389
2	0	0	1	0	1218.65	-0.136214	-0.136509	-59.533	1	-0.00562661	10	0.0081268
2	0	0	1	0	1218.66	-0.149015	-0.149289	-62.582	1	-0.0066036	10	0.00934281
2	0	0	1	0	1218.68	-0.161816	-0.162118	-65.8473	1	-0.00763136	10	0.010675
2	0	0	1	0	1218.7	-0.174615	-0.174853	-69.3423	1	-0.00871323	10	0.0121247
2	0	0	1	0	1218.71	-0.187419	-0.187655	-73.0847	1	-0.00985266	10	0.0137147
2	0	0	1	0	1218.73	-0.199647	-0.199912	-76.9284	1	-0.0110003	10	0.0153789
2	0	0	1	1	1218.74	-0.192535	-0.192999	-53.7349	1	-0.0116613	10	0.0103708
2	0	0	1	1	1218.75	-0.179739	-0.180192	-24.4172	1	-0.0122707	10	0.00439976
2	0	0	1	1	1218.77	-0.166932	-0.16736	-2.86885	1	-0.0124785	10	0.00048013
2	1	0	1	1	1218.79	-0.154139	-0.154604	13.4007	1	-0.0123867	10	-0.00207181
2	1	0	1	1	1218.8	-0.141335	-0.141804	25.9673	1	-0.0120664	10	-0.00368226
2	1	0	1	1	1218.82	-0.12854	-0.128896	35.3774	1	-0.0115706	10	-0.00456002
2	1	0	1	1	1218.83	-0.115736	-0.116061	42.1815	1	-0.0109465	10	-0.00489564
2	1	0	1	1	1218.85	-0.102932	-0.103279	46.9478	1	-0.0102307	10	-0.00484873
2	1	0	1	1	1218.87	-0.0901362	-0.0904748	50.1395	1	-0.0094516	10	-0.00453636
2	1	0	1	1	1218.88	-0.0773322	-0.0776746	52.2143	1	-0.00863112	10	-0.00405572
2	1	0	1	1	1218.9	-0.0645393	-0.0648988	53.4617	1	-0.00778471	10	-0.0034696
2	1	0	1	1	1218.91	-0.0517325	-0.0520944	54.1516	1	-0.00692312	10	-0.002821
2	1	0	1	1	1218.93	-0.0389369	-0.0392518	54.3818	1	-0.00605428	10	-0.00213458
2	1	0	1	1	1218.95	-0.0261357	-0.0264919	54.2692	1	-0.00518445	10	-0.0014377
2	1	0	1	1	1218.96	-0.01334	-0.0136589	53.8281	1	-0.0043192	10	-0.000735231
2	1	0	1	1	1218.98	-0.000774628	-0.00109836	53.1345	1	-0.00347925	10	-5.83608e-05
2	1	0	1	0	2449.36	0.00730727	0.00694907	35.564	2	0.000315544	10	0.000247137
2	1	0	1	0	2449.38	0.0201029	0.0197567	38.7171	2	0.000912199	10	0.00076492
2	1	0	1	0	2449.4	0.0329041	0.032595	40.3647	2	0.00154694	10	0.00131569
2	1	0	1	0	2449.41	0.0457053	0.045427	41.0682	2	0.00219936	10	0.0018656
2	1	0	1	0	2449.43	0.0585038	0.0581752	41.4551	2	0.00285951	10	0.00241166
2	1	0	1	0	2449.44	0.0713077	0.0709446	42.1714	2	0.00352781	10	0.00299183
2	1	0	1	0	2449.46	0.0841034	0.0837607	43.6767	2	0.00421378	10	0.00365839
2	1	0	1	0	2449.48	0.0969074	0.0965258	46.1211	2	0.00493085	10	0.00445188
2	1	0	1	0	2449.49	0.1097	0.109376	49.7019	2	0.0056968	10	0.00543619
2	1	0	1	0	2449.51	0.122507	0.122182	54.0296	2	0.00652593	10	0.00660147
2	1	0	1	0	2449.52	0.135303	0.134905	59.1196	2	0.00743058	10	0.00797554
2	1	0	1	0	2449.54	0.148104	0.147768	65.1757	2	0.00842435	10	0.00963087
2	1	0	1	0	2449.56	0.160899	0.160575	72.3403	2	0.00952395	10	0.0116161
2	1	0	1	0	2449.57	0.173706	0.173353	80.4106	2	0.0107462	10	0.0139395
2	1	0	1	0	2449.59	0.186507	0.186158	88.4368	2	0.0120986	10	0.0164632
2	1	0	1	0	2449.6	0.199303	0.198939	94.7979	2	0.0135688	10	0.018859
2	1	0	1	0	2449.62	0.21211	0.211846	96.7193	2	0.0151096	10	0.0204896
2	1	0	1	0	2449.64	0.224903	0.224677	90.5036	2	0.0166192	10	0.0203341
2	1	0	1	0	2449.65	0.237707	0.237573	75.4031	2	0.0179547	10	0.0179137
2	1	0	1	0	2449.67	0.250502	0.250313	56.1656	2	0.0190059	10	0.014059
2	1	0	1	0	2449.68	0.263306	0.263145	39.8229	2	0.0197648	10	0.0104792
2	1	0	1	0	2449.7	0.276099	0.275829	30.2163	2	0.0203152	10	0.00833453
2	1	0	1	0	2449.72	0.288906	0.288639	26.2809	2	0.0207615	10	0.0075857
2	1	0	0	0	2449.73	0.299862	0.299498	25.2007	2	0.0211125	10	0.00754756
2	1	0	1	0	2449.74	0.290981	0.290861	-0.289815	2	0.0212375	10	-8.42959e-05
2	0	0	1	0	2449.76	0.278188	0.277975	-14.2905	2	0.021099	10	-0.00397241
2	0	0	1	0	2449.77	0.265384	0.265116	-18.95	2	0.0208261	10	-0.00502394
2	0	0	1	0	2449.79	0.252583	0.252325	-20.8142	2	0.0205059	10	-0.00525195
2	0	0	1	0	2449.81	0.239785	0.239515	-21.9459	2	0.0201633	10	-0.00525638
2	0	0	1	0	2449.82	0.226981	0.226742	-22.9892	2	0.019804	10	-0.00521261
2	0	0	1	0	2449.84	0.214185	0.213919	-24.2222	2	0.0194266	10	-0.0051816
2	0	0	1	0	2449.85	0.201381	0.201137	-25.8756	2	0.0190263	10	-0.00520455
2	0	0	1	0	2449.87	0.188588	0.188323	-28.1509	2	0.0185949	10	-0.00530147
2	0	0	1	0	2449.89	0.175782	0.17556	-31.4434	2	0.0181195	10	-0.00552021
2	0	0	1	0	2449.9	0.162986	0.162733	-36.1142	2	0.0175807	10	-0.00587699
2	0	0	1	0	2449.92	0.150185	0.150007	-42.5587	2	0.0169531	10	-0.00638412
2	0	0	1	0	2449.93	0.137389	0.137209	-51.0199	2	0.0162058	10	-0.0070004
2	0	0	1	0	2449.95	0.124582	0.124471	-60.7642	2	0.0153117	10	-0.00756336
2	0	0	1	0	2449.97	0.111787	0.111653	-71.0173	2	0.0142557	10	-0.00792927
2	0	0	1	0	2449.98	0.0989854	0.0987972	-80.6692	2	0.0130401	10	-0.00796989
2	0	0	1	0	2450	0.0861786	0.0860098	-88.3265	2	0.011684	10	-0.00759694
2	0	0	1	0	2450.01	0.0733858	0.0731269	-92.616	2	0.0102307	10	-0.00677272
2	0	0	1	0	2450.03	0.0605818	0.0603384	-92.3599	2	0.00874418	10	-0.00557285
2	0	0	1	0	2450.05	0.0477861	0.047464	-87.521	2	0.0073004	10	-0.0041541
2	0	0	1	0	2450.06	0.0349822	0.0347147	-80.0076	2	0.00595915	10	-0.00277745
2	0	0	1	0	2450.08	0.0221893	0.0218976	-71.8728	2	0.00474504	10	-0.00157384
2	0	0	1	0	2450.09	0.00938255	0.00909745	-63.9031	2	0.00365977	10	-0.000581355
2	0	0	1	0	2450.11	-0.00341311	-0.0037462	-56.5906	2	0.00269772	10	0.000211999
2	0	0	1	0	2450.13	-0.0162143	-0.0165305	-50.9764	2	0.00184105	10	0.000842663
2	0	0	1	0	2450.14	-0.0290155	-0.0293041	-47.9517	2	0.00105335	10	0.00140518
2	0	0	1	0	2450.16	-0.0418167	-0.0420905	-47.0137	2	0.000295948	10	0.00197883
2	0	0	1	0	2450.17	-0.0546179	-0.0549172	-47.3378	2	-0.000457686	10	0.00259966
2	0	0	1	0	2450.19	-0.0674136	-0.0677089	-48.3941	2	-0.00122315	10	0.00327671
2	0	0	1	0	2450.21	-0.0802203	-0.0805175	-49.8886	2	-0.00200918	10	0.00401691
2	0	0	1	0	2450.22	-0.0930132	-0.0932976	-51.6334	2	-0.0028211	10	0.00481727
2	0	0	1	0	2450.24	-0.105817	-0.106104	-53.6289	2	-0.00366301	10	0.00569024
2	0	0	1	0	2450.25	-0.118613	-0.118921	-55.9234	2	-0.00453939	10	0.00665048
2	0	0	1	0	2450.27	-0.131417	-0.131681	-58.5462	2	-0.00545525	10	0.00770943
2	0	0	1	0	2450.29	-0.14421	-0.144513	-61.4781	2	-0.00641553	10	0.00888439
2	0	0	1	0	2450.3	-0.157017	-0.157339	-64.6128	2	-0.00742431	10	0.0101661
2	0	0	1	0	2450.32	-0.169818	-0.17006	-67.8979	2	-0.0084844	10	0.0115467
2	0	0	1	0	2450.33	-0.182613	-0.182875	-71.3753	2	-0.00959881	10	0.0130528
2	0	0	1	0	2450.35	-0.19542	-0.195646	-75.1936	2	-0.0107715	10	0.0147113
2	0	0	1	1	2450.36	-0.197337	-0.197799	-67.0204	2	-0.0114694	10	0.0132565
2	0	0	1	1	2450.38	-0.184533	-0.184975	-32.4302	2	-0.012243	10	0.00599878
2	0	0	1	1	2450.39	-0.171738	-0.172174	-8.14834	2	-0.0125554	10	0.00140293
2	1	0	1	1	2450.41	-0.158934	-0.159408	9.89747	2	-0.0125331	10	-0.00157773
2	1	0	1	1	2450.42	-0.146141	-0.14665	23.6408	2	-0.0122589	10	-0.00346693
2	1	0	1	1	2450.44	-0.133334	-0.133664	34.1001	2	-0.0117914	10	-0.00455796
2	1	0	1	1	2450.46	-0.120538	-0.120871	41.6697	2	-0.0111814	10	-0.00503667
2	1	0	1	1	2450.47	-0.107737	-0.10808	47.0373	2	-0.0104687	10	-0.00508378
2	1	0	1	1	2450.49	-0.0949359	-0.0952668	50.6723	2	-0.00968457	10	-0.00482739
2	1	0	1	1	2450.5	-0.0821347	-0.0824644	53.0115	2	-0.00885328	10	-0.00437157
2	1	0	1	1	2450.52	-0.0693335	-0.0696919	54.4163	2	-0.00799267	10	-0.00379237
2	1	0	1	1	2450.54	-0.0565378	-0.0568418	55.1645	2	-0.00711519	10	-0.00313565
2	1	0	1	1	2450.55	-0.0437311	-0.0440353	55.4274	2	-0.00623001	10	-0.00244076
2	1	0	1	1	2450.57	-0.0309382	-0.0312966	55.2749	2	-0.00534402	10	-0.00172992
2	1	0	1	1	2450.58	-0.0181342	-0.0184837	54.7857	2	-0.00446305	10	-0.00101264
2	1	0	1	1	2450.6	-0.00533856	-0.00568886	53.9837	2	-0.00359244	10	-0.000307106
2	1	0	1	0	3680.99	0.00250197	0.00211573	33.0165	3	0.000102891	10	6.98541e-05
2	1	0	1	0	3681	0.0153059	0.014935	35.5481	3	0.000650387	10	0.000530911
2	1	0	1	0	3681.02	0.0280988	0.0277574	37.5495	3	0.00123686	10	0.00104228
2	1	0	1	0	3681.04	0.0409056	0.0405947	38.684	3	0.00184784	10	0.00157036
2	1	0	1	0	3681.05	0.0537012	0.0533747	39.4057	3	0.00247283	10	0.00210327
2	1	0	1	0	3681.07	0.0665024	0.066176	40.2297	3	0.00310945	10	0.00266224
2	1	0	1	0	3681.08	0.0793092	0.0789432	41.5631	3	0.00376279	10	0.00328113
2	1	0	1	0	3681.1	0.0921048	0.0917455	43.7241	3	0.00444435	10	0.00401149
2	1	0	1	0	3681.12	0.104906	0.104475	46.6529	3	0.00516632	10	0.00487405
2	1	0	1	0	3681.13	0.117702	0.117343	50.4157	3	0.00594276	10	0.00591592
2	1	0	1	0	3681.15	0.130508	0.130141	54.6481	3	0.00678287	10	0.00711195
2	1	0	1	0	3681.16	0.143301	0.142958	59.4381	3	0.00769508	10	0.00849714
2	1	0	1	0	3681.18	0.156105	0.155753	65.0434	3	0.00869047	10	0.0101307
2	1	0	1	0	3681.2	0.168901	0.168548	71.5144	3	0.00978269	10	0.0120536
2	1	0	1	0	3681.21	0.181705	0.181351	78.4736	3	0.010983	10	0.0142313
2	1	0	1	0	3681.23	0.194503	0.194109	85.0583	3	0.0122928	10	0.0165106
2	1	0	1	0	3681.24	0.207305	0.206942	89.8161	3	0.0136962	10	0.0185867
2	1	0	1	0	3681.26	0.220106	0.219829	89.9225	3	0.0151427	10	0.0197676
2	1	0	1	0	3681.28	0.232901	0.232665	82.3395	3	0.0165311	10	0.0191575
2	1	0	1	0	3681.29	0.245708	0.245506	67.8293	3	0.0177372	10	0.0166525
2	1	0	1	0	3681.31	0.258504	0.258318	51.6197	3	0.0186888	10	0.0133343
2	1	0	1	0	3681.32	0.271305	0.271058	39.3294	3	0.0194079	10	0.0106605
2	1	0	1	0	3681.34	0.284101	0.283835	32.3975	3	0.019975	10	0.00919554
2	1	0	1	0	3681.36	0.296907	0.29665	29.1019	3	0.0204634	10	0.00863307
2	1	0	1	0	3681.36	0.295787	0.295708	15.6983	3	0.0206899	10	0.00464211
2	0	0	1	0	3681.38	0.282983	0.282762	-5.2298	3	0.020745	10	-0.00147879
2	0	0	1	0	3681.4	0.27019	0.269957	-13.3257	3	0.0205865	10	-0.00359738
2	0	0	1	0	3681.41	0.257383	0.257144	-16.9293	3	0.0203406	10	-0.00435327
2	0	0	1	0	3681.43	0.244587	0.244301	-18.9201	3	0.0200523	10	-0.00462219
2	0	0	1	0	3681.44	0.231786	0.23151	-20.3751	3	0.0197374	10	-0.00471704
2	0	0	1	0	3681.46	0.218979	0.21873	-21.7178	3	0.0194007	10	-0.00475035
2	0	0	1	0	3681.48	0.206184	0.205904	-23.1815	3	0.0190419	10	-0.00477314
2	0	0	1	0	3681.49	0.193382	0.193121	-24.9795	3	0.0186571	10	-0.00482408
2	0	0	1	0	3681.51	0.180587	0.180342	-27.3886	3	0.0182388	10	-0.00493933
2	0	0	1	0	3681.52	0.16778	0.16752	-30.7856	3	0.0177747	10	-0.0051572
2	0	0	1	0	3681.54	0.154987	0.154729	-35.5154	3	0.017246	10	-0.00549528
2	0	0	1	0	3681.56	0.142183	0.14197	-41.894	3	0.0166283	10	-0.00594767
2	0	0	1	0	3681.57	0.129388	0.129223	-49.9357	3	0.0158945	10	-0.00645287
2	0	0	1	0	3681.59	0.116584	0.116496	-58.7458	3	0.0150247	10	-0.00684367
2	0	0	1	0	3681.6	0.103785	0.103665	-67.6475	3	0.0140116	10	-0.00701264
2	0	0	1	0	3681.62	0.0909839	0.090823	-75.7406	3	0.0128626	10	-0.00687899
2	0	0	1	0	3681.64	0.0781828	0.0779242	-82.0107	3	0.0115969	10	-0.00639062
2	0	0	1	0	3681.65	0.0653871	0.0651463	-85.3872	3	0.010253	10	-0.00556266
2	0	0	1	0	3681.67	0.0525804	0.0522931	-85.1255	3	0.00888403	10	-0.00445148
2	0	0	1	0	3681.68	0.0397847	0.0395438	-81.6084	3	0.00754722	10	-0.00322711
2	0	0	1	0	3681.7	0.0269835	0.0267034	-76.466	3	0.00628215	10	-0.0020419
2	0	0	1	0	3681.72	0.0141879	0.0139128	-70.6925	3	0.00510496	10	-0.000983527
2	0	0	1	0	3681.73	0.0013811	0.00102776	-64.3958	3	0.00402467	10	-6.61831e-05
2	0	0	1	0	3681.75	-0.0114118	-0.0116738	-57.8068	3	0.00304834	10	0.000674825
2	0	0	1	0	3681.76	-0.0242158	-0.0245185	-52.5993	3	0.00216825	10	0.00128966
2	0	0	1	0	3681.78	-0.037017	-0.0373335	-49.582	3	0.00135404	10	0.00185107
2	0	0	1	0	3681.8	-0.0498154	-0.0501464	-48.3229	3	0.000573079	10	0.00242322
2	0	0	1	0	3681.81	-0.0626194	-0.0629455	-48.2228	3	-0.000197867	10	0.00303541
2	0	0	1	0	3681.83	-0.075415	-0.0757266	-48.8327	3	-0.000973645	10	0.00369794
2	0	0	1	0	3681.84	-0.088219	-0.0885501	-49.94	3	-0.00176335	10	0.00442219
2	0	0	1	0	3681.86	-0.101012	-0.101352	-51.3635	3	-0.00257333	10	0.00520581
2	0	0	1	0	3681.88	-0.113819	-0.114104	-53.1179	3	-0.00340873	10	0.00606096
2	0	0	1	0	3681.89	-0.126614	-0.126959	-55.1552	3	-0.0042746	10	0.00700246
2	0	0	1	0	3681.91	-0.139416	-0.139734	-57.5113	3	-0.00517591	10	0.00803628
2	0	0	1	0	3681.92	-0.152211	-0.152513	-60.0836	3	-0.0061168	10	0.00916351
2	0	0	1	0	3681.94	-0.165018	-0.165253	-62.8366	3	-0.00710015	10	0.0103839
2	0	0	1	0	3681.96	-0.177814	-0.178112	-65.7012	3	-0.00812825	10	0.0117022
2	0	0	1	0	3681.97	-0.190615	-0.19088	-68.7406	3	-0.00920378	10	0.0131212
2	0	0	1	0	3681.98	-0.200134	-0.200399	-71.0933	3	-0.0100365	10	0.014247
2	0	0	1	1	3682	-0.189339	-0.189772	-42.8595	3	-0.0107913	10	0.00813355
2	0	0	1	1	3682.01	-0.176532	-0.17696	-18.921	3	-0.0112733	10	0.00334827
2	0	0	1	1	3682.03	-0.163736	-0.164152	-1.04175	3	-0.0114249	10	0.000171004
2	1	0	1	1	3682.05	-0.150935	-0.151415	12.7351	3	-0.0113255	10	-0.00192829
2	1	0	1	1	3682.06	-0.138139	-0.138593	23.5906	3	-0.0110305	10	-0.00326948
2	1	0	1	1	3682.08	-0.125333	-0.12571	32.0015	3	-0.0105816	10	-0.00402291
2	1	0	1	1	3682.09	-0.11254	-0.112874	38.314	3	-0.0100161	10	-0.00432464
2	1	0	1	1	3682.11	-0.0997357	-0.100086	43.0029	3	-0.00936316	10	-0.004304
2	1	0	1	1	3682.13	-0.0869345	-0.087284	46.3662	3	-0.00864651	10	-0.00404702
2	1	0	1	1	3682.14	-0.074136	-0.0744584	48.7003	3	-0.00788456	10	-0.00362614
2	1	0	1	1	3682.16	-0.0613321	-0.0617102	50.2984	3	-0.00709155	10	-0.00310392
2	1	0	1	1	3682.17	-0.0485364	-0.0489163	51.3032	3	-0.00627794	10	-0.00250956
2	1	0	1	1	3682.19	-0.0357324	-0.036113	51.8523	3	-0.00545219	10	-0.00187254
2	1	0	1	1	3682.21	-0.0229395	-0.0232853	51.9823	3	-0.00462095	10	-0.00121042
2	1	0	1	1	3682.22	-0.0101328	-0.0104904	51.779	3	-0.00379037	10	-0.000543182
2	1	0	1	1	3682.23	2.44065e-05	-0.000344411	51.3753	3	-0.00313512	10	-1.76942e-05
2	1	0	1	0	4912.63	0.0105034	0.0101176	33.638	4	0.000429647	10	0.000340334
2	1	0	1	0	4912.64	0.0233046	0.0230068	36.0605	4	0.000988579	10	0.000829638
2	1	0	1	0	4912.66	0.0361003	0.0357412	37.5635	4	0.00157858	10	0.00134257
2	1	0	1	0	4912.67	0.048907	0.0485531	38.5709	4	0.00218808	10	0.00187273
2	1	0	1	0	4912.69	0.0617027	0.0613967	39.5369	4	0.00281278	10	0.00242743
2	1	0	1	0	4912.71	0.0745039	0.0741216	40.9227	4	0.00345594	10	0.00303326
2	1	0	1	0	4912.72	0.0873051	0.0869482	43.0495	4	0.00412661	10	0.00374308
2	1	0	1	0	4912.74	0.100103	0.0997145	45.8501	4	0.00483722	10	0.00457192
2	1	0	1	0	4912.75	0.112907	0.112567	49.4399	4	0.0055985	10	0.00556528
2	1	0	1	0	4912.77	0.125703	0.125394	53.4278	4	0.00642137	10	0.00669955
2	1	0	1	0	4912.79	0.138507	0.138169	57.8892	4	0.0073117	10	0.00799849
2	1	0	1	0	4912.8	0.1513	0.150991	62.9496	4	0.00827787	10	0.00950485
2	1	0	1	0	4912.82	0.164107	0.16374	68.7713	4	0.00933118	10	0.0112606
2	1	0	1	0	4912.83	0.176902	0.176587	75.0521	4	0.010482	10	0.0132532
2	1	0	1	0	4912.85	0.189704	0.18938	81.1647	4	0.0117332	10	0.015371
2	1	0	1	0	4912.87	0.202505	0.202189	85.908	4	0.0130733	10	0.0173697
2	1	0	1	0	4912.88	0.215306	0.214991	87.013	4	0.0144636	10	0.018707
2	1	0	1	0	4912.9	0.228107	0.22783	81.5818	4	0.0158214	10	0.0185867
2	1	0	1	0	4912.91	0.240903	0.240675	69.47	4	0.0170355	10	0.0167197
2	1	0	1	0	4912.93	0.25371	0.253482	54.7214	4	0.0180275	10	0.0138709
2	1	0	1	0	4912.95	0.266502	0.266257	42.4374	4	0.0187976	10	0.0112992
2	1	0	1	0	4912.96	0.279306	0.279061	34.8858	4	0.0194093	10	0.00973526
2	1	0	1	0	4912.98	0.292102	0.291802	30.9953	4	0.0199323	10	0.00904448
2	1	0	0	0	4912.99	0.299862	0.299746	29.3781	4	0.0202379	10	0.00880599
2	1	0	1	0	4913	0.287785	0.28759	2.15099	4	0.0204404	10	0.000618604
2	0	0	1	0	4913.02	0.274984	0.27471	-9.33981	4	0.0203684	10	-0.00256574
2	0	0	1	0	4913.03	0.262188	0.261956	-14.3467	4	0.0201736	10	-0.0037582
2	0	0	1	0	4913.05	0.249382	0.249154	-16.9742	4	0.0199209	10	-0.0042292
2	0	0	1	0	4913.07	0.236586	0.236307	-18.7018	4	0.0196349	10	-0.00441937
2	0	0	1	0	4913.08	0.223785	0.223526	-20.1275	4	0.0193239	10	-0.00449902
2	0	0	1	0	4913.1	0.210983	0.21072	-21.5563	4	0.0189903	10	-0.00454234
2	0	0	1	0	4913.11	0.198185	0.197968	-23.1921	4	0.0186324	10	-0.00459127
2	0	0	1	0	4913.13	0.185381	0.185175	-25.2383	4	0.0182457	10	-0.0046735
2	0	0	1	0	4913.15	0.172585	0.172329	-27.9839	4	0.017821	10	-0.00482245
2	0	0	1	0	4913.16	0.159781	0.159505	-31.8426	4	0.0173439	10	-0.00507908
2	0	0	1	0	4913.18	0.146989	0.146772	-37.1659	4	0.0167934	10	-0.00545492
2	0	0	1	0	4913.19	0.134182	0.133986	-44.1928	4	0.0161442	10	-0.0059212
2	0	0	1	0	4913.21	0.121386	0.121225	-52.4902	4	0.0153711	10	-0.00636311
2	0	0	1	0	4913.23	0.108585	0.108478	-61.072	4	0.0144624	10	-0.00662495
2	0	0	1	0	4913.24	0.0957893	0.0956574	-69.1801	4	0.0134181	10	-0.00661759
2	0	0	1	0	4913.26	0.0829825	0.0827363	-76.1809	4	0.0122522	10	-0.00630293
2	0	0	1	0	4913.27	0.0701813	0.0699298	-80.9454	4	0.0109914	10	-0.0056605
2	0	0	1	0	4913.29	0.0573857	0.0570808	-82.7172	4	0.00967761	10	-0.00472157
2	0	0	1	0	4913.31	0.0445789	0.044322	-81.252	4	0.00836234	10	-0.00360125
2	0	0	1	0	4913.32	0.031786	0.0314604	-77.5435	4	0.00709069	10	-0.00243955
2	0	0	1	0	4913.34	0.0189821	0.0186655	-73.0319	4	0.00588592	10	-0.00136318
2	0	0	1	0	4913.35	0.00618641	0.00591941	-67.9084	4	0.00475792	10	-0.000401978
2	0	0	1	0	4913.37	-0.00661757	-0.00694651	-62.056	4	0.00371786	10	0.000431072
2	0	0	1	0	4913.39	-0.0194105	-0.0197647	-56.1738	4	0.00277396	10	0.00111026
2	0	0	1	0	4913.4	-0.0322172	-0.0325659	-51.8802	4	0.00191267	10	0.00168953
2	0	0	1	0	4913.42	-0.0450129	-0.0453364	-49.5556	4	0.0011036	10	0.00224668
2	0	0	1	0	4913.43	-0.0578141	-0.0581642	-48.7414	4	0.000318752	10	0.002835
2	0	0	1	0	4913.45	-0.0706153	-0.0709421	-48.8858	4	-0.00046119	10	0.00346806
2	0	0	1	0	4913.47	-0.0834165	-0.0837231	-49.6284	4	-0.00124854	10	0.00415504
2	0	0	1	0	4913.48	-0.0962177	-0.096535	-50.7792	4	-0.00205137	10	0.00490197
2	0	0	1	0	4913.5	-0.109013	-0.109321	-52.2639	4	-0.00287554	10	0.00571357
2	0	0	1	0	4913.51	-0.12182	-0.122125	-54.1061	4	-0.00372625	10	0.00660769
2	0	0	1	0	4913.53	-0.134613	-0.134941	-56.2334	4	-0.00460863	10	0.00758818
2	0	0	1	0	4913.55	-0.147417	-0.147731	-58.6177	4	-0.00552725	10	0.00865968
2	0	0	1	0	4913.56	-0.160213	-0.160497	-61.1522	4	-0.00648543	10	0.00981473
2	0	0	1	0	4913.58	-0.173017	-0.173277	-63.8295	4	-0.00748549	10	0.0110602
2	0	0	1	0	4913.59	-0.185815	-0.186059	-66.6427	4	-0.00852928	10	0.0123995
2	0	0	1	0	4913.61	-0.198616	-0.198882	-69.6556	4	-0.0096196	10	0.0138533
2	0	0	1	1	4913.62	-0.194133	-0.194599	-53.4488	4	-0.0102109	10	0.0104011
2	0	0	1	1	4913.64	-0.181337	-0.181791	-27.3146	4	-0.0108424	10	0.00496553
2	0	0	1	1	4913.65	-0.16853	-0.168899	-8.16428	4	-0.0111175	10	0.00137894
2	1	0	1	1	4913.67	-0.155737	-0.156241	6.50304	4	-0.0111244	10	-0.00101604
2	1	0	1	1	4913.68	-0.142933	-0.143412	18.0719	4	-0.0109232	10	-0.00259173
2	1	0	1	1	4913.7	-0.130138	-0.130536	27.2688	4	-0.0105567	10	-0.00355956
2	1	0	1	1	4913.72	-0.117334	-0.117716	34.313	4	-0.0100611	10	-0.00403917
2	1	0	1	1	4913.73	-0.104541	-0.104905	39.6464	4	-0.00946681	10	-0.0041591
2	1	0	1	1	4913.75	-0.0917342	-0.0920898	43.6482	4	-0.00879823	10	-0.00401955
2	1	0	1	1	4913.76	-0.0789386	-0.0793362	46.5537	4	-0.00807504	10	-0.0036934
2	1	0	1	1	4913.78	-0.0661374	-0.0665043	48.6038	4	-0.00731271	10	-0.00323236
2	1	0	1	1	4913.8	-0.0533306	-0.0536935	50.0109	4	-0.0065231	10	-0.00268526
2	1	0	1	1	4913.81	-0.0405349	-0.0408721	50.868	4	-0.00571544	10	-0.00207908
2	1	0	1	1	4913.83	-0.0277337	-0.0280539	51.3022	4	-0.00489756	10	-0.00143923
2	1	0	1	1	4913.84	-0.0149381	-0.0152675	51.3114	4	-0.00407621	10	-0.000783397
2	1	0	1	1	4913.86	-0.00213132	-0.00248961	50.9851	4	-0.00325756	10	-0.000126933
2	1	0	1	0	6144.25	0.00570921	0.00536906	32.5231	5	0.000232239	10	0.000174618
2	1	0	1	0	6144.26	0.0185021	0.0181809	34.703	5	0.000769759	10	0.000630932
2	1	0	1	0	6144.28	0.0313061	0.0309683	36.4812	5	0.00134024	10	0.00112976
2	1	0	1	0	6144.3	0.0441017	0.0437643	37.7063	5	0.00193433	10	0.00165019
2	1	0	1	0	6144.31	0.0569057	0.0565687	38.8257	5	0.0025467	10	0.00219632
2	1	0	1	0	6144.33	0.0696986	0.0693412	40.2289	5	0.00317883	10	0.00278952
2	1	0	1	0	6144.34	0.0825053	0.0821595	42.2248	5	0.00383788	10	0.00346917
2	1	0	1	0	6144.36	0.0953065	0.094931	44.9462	5	0.00453464	10	0.00426679
2	1	0	1	0	6144.38	0.108102	0.107698	48.193	5	0.00527905	10	0.0051903
2	1	0	1	0	6144.39	0.120909	0.12056	52.0455	5	0.00608117	10	0.0062746
2	1	0	1	0	6144.41	0.133705	0.133373	56.1538	5	0.0069467	10	0.00748939
2	1	0	1	0	6144.42	0.146506	0.146148	60.7286	5	0.00788146	10	0.00887534
2	1	0	1	0	6144.44	0.159301	0.158934	65.9382	5	0.00889451	10	0.0104798
2	1	0	1	0	6144.46	0.172108	0.171739	71.7189	5	0.00999594	10	0.012317
2	1	0	1	0	6144.47	0.184901	0.184551	77.4898	5	0.0111907	10	0.0143008
2	1	0	1	0	6144.49	0.197705	0.197349	82.4414	5	0.0124727	10	0.0162698
2	1	0	1	0	6144.5	0.210501	0.210213	84.957	5	0.013817	10	0.0178591
2	1	0	1	0	6144.52	0.223305	0.223008	82.471	5	0.0151645	10	0.0183917
2	1	0	1	0	6144.54	0.236103	0.235848	73.4074	5	0.0164187	10	0.017313
2	1	0	1	0	6144.55	0.248904	0.24866	60.0972	5	0.017488	10	0.0149438
2	1	0	1	0	6144.57	0.261708	0.261429	47.5844	5	0.0183443	10	0.0124399
2	1	0	1	0	6144.58	0.274501	0.274244	38.9184	5	0.0190299	10	0.0106731
2	1	0	1	0	6144.6	0.287308	0.287023	33.9288	5	0.0196082	10	0.00973833
2	1	0	1	0	6144.62	0.29955	0.299264	31.2307	5	0.0201045	10	0.00934625
2	1	0	1	0	6144.63	0.292579	0.292458	12.02	5	0.0203135	10	0.00351534
2	0	0	1	0	6144.64	0.279786	0.279548	-4.16858	5	0.0203561	10	-0.00116532
2	0	0	1	0	6144.66	0.266982	0.266757	-11.3482	5	0.0202242	10	-0.00302722
2	0	0	1	0	6144.67	0.254187	0.25396	-15.0391	5	0.0200099	10	-0.00381934
2	0	0	1	0	6144.69	0.241383	0.241067	-17.3152	5	0.0197498	10	-0.00417412
2	0	0	1	0	6144.71	0.22859	0.228278	-18.9959	5	0.0194587	10	-0.00433636
2	0	0	1	0	6144.72	0.215783	0.215488	-20.4946	5	0.0191423	10	-0.00441633
2	0	0	1	0	6144.74	0.202988	0.202747	-22.0362	5	0.018802	10	-0.00446778
2	0	0	1	0	6144.75	0.190186	0.189929	-23.8099	5	0.0184355	10	-0.00452218
2	0	0	1	0	6144.77	0.17738	0.177115	-26.0751	5	0.0180372	10	-0.00461828
2	0	0	1	0	6144.79	0.164584	0.164316	-29.1592	5	0.0175964	10	-0.0047913
2	0	0	1	0	6144.8	0.151783	0.15153	-33.4994	5	0.0170965	10	-0.00507617
2	0	0	1	0	6144.82	0.138987	0.138764	-39.3802	5	0.0165146	10	-0.00546456
2	0	0	1	0	6144.83	0.12618	0.125939	-46.8733	5	0.0158254	10	-0.0059032
2	0	0	1	0	6144.85	0.113387	0.113256	-54.9799	5	0.0150095	10	-0.0062268
2	0	0	1	0	6144.87	0.100583	0.100405	-63.1758	5	0.0140623	10	-0.00634316
2	0	0	1	0	6144.88	0.0877878	0.0876036	-70.3801	5	0.0129917	10	-0.00616555
2	0	0	1	0	6144.9	0.0749839	0.0746921	-76.1252	5	0.0118161	10	-0.00568595
2	0	0	1	0	6144.91	0.0621854	0.0618993	-79.5015	5	0.0105673	10	-0.00492109
2	0	0	1	0	6144.93	0.0493842	0.0491214	-79.9968	5	0.00928735	10	-0.00392956
2	0	0	1	0	6144.95	0.036583	0.0362948	-77.9318	5	0.00802146	10	-0.00282852
2	0	0	1	0	6144.96	0.0237874	0.0235105	-74.5846	5	0.00680074	10	-0.00175352
2	0	0	1	0	6144.98	0.0109806	0.0106743	-70.8047	5	0.00563727	10	-0.000755788
2	0	0	1	0	6144.99	-0.00181504	-0.00220224	-66.2676	5	0.00453986	10	0.000145937
2	0	0	1	0	6145.01	-0.0146162	-0.0149505	-60.7248	5	0.00352376	10	0.000907863
2	0	0	1	0	6145.03	-0.0274119	-0.0277718	-55.5049	5	0.00259599	10	0.00154147
2	0	0	1	0	6145.04	-0.0402187	-0.0405391	-51.9505	5	0.00173898	10	0.00210603
2	0	0	1	0	6145.06	-0.0530115	-0.0533223	-50.0775	5	0.000924639	10	0.00267025
2	0	0	1	0	6145.07	-0.0658155	-0.0661596	-49.4693	5	0.000129463	10	0.00327287
2	0	0	1	0	6145.09	-0.0786167	-0.0789821	-49.6677	5	-0.000662717	10	0.00392286
2	0	0	1	0	6145.11	-0.0914152	-0.0917759	-50.4207	5	-0.00146289	10	0.00462741
2	0	0	1	0	6145.12	-0.104219	-0.104543	-51.5889	5	-0.0022786	10	0.00539326
2	0	0	1	0	6145.14	-0.117015	-0.117369	-53.1047	5	-0.00311599	10	0.00623284
2	0	0	1	0	6145.15	-0.129819	-0.130119	-54.9806	5	-0.00398052	10	0.00715403
2	0	0	1	0	6145.17	-0.142612	-0.142965	-57.1206	5	-0.00487717	10	0.00816624
2	0	0	1	0	6145.19	-0.155418	-0.155758	-59.4653	5	-0.00580986	10	0.00926217
2	0	0	1	0	6145.2	-0.168214	-0.168494	-61.8995	5	-0.00678091	10	0.0104297
2	0	0	1	0	6145.22	-0.181015	-0.18131	-64.4378	5	-0.0077919	10	0.0116832
2	0	0	1	0	6145.23	-0.193811	-0.19411	-67.0956	5	-0.0088444	10	0.013024
2	0	0	1	1	6145.24	-0.198935	-0.199451	-65.0576	5	-0.00947906	10	0.0129758
2	0	0	1	1	6145.26	-0.186137	-0.186583	-35.9499	5	-0.0102664	10	0.00670763
2	0	0	1	1	6145.27	-0.173336	-0.173789	-15.7417	5	-0.01067	10	0.00273573
2	0	0	1	1	6145.29	-0.160532	-0.160994	-0.380909	5	-0.0107922	10	6.1324e-05
2	1	0	1	1	6145.31	-0.147739	-0.148201	11.6488	5	-0.0106971	10	-0.00172637
2	1	0	1	1	6145.32	-0.134932	-0.135375	21.3724	5	-0.0104294	10	-0.00289327
2	1	0	1	1	6145.34	-0.122136	-0.122521	29.0601	5	-0.0100227	10	-0.00356048
2	1	0	1	1	6145.35	-0.109335	-0.10972	35.0606	5	-0.00950726	10	-0.00384685
2	1	0	1	1	6145.37	-0.0965395	-0.0969507	39.6862	5	-0.00890703	10	-0.0038476
2	1	0	1	1	6145.39	-0.0837328	-0.0841049	43.2503	5	-0.00824168	10	-0.00363757
2	1	0	1	1	6145.4	-0.0709371	-0.0713493	45.8935	5	-0.00752725	10	-0.00327447
2	1	0	1	1	6145.42	-0.0581359	-0.0584685	47.8449	5	-0.0067764	10	-0.00279742
2	1	0	1	1	6145.43	-0.0453347	-0.0457595	49.2066	5	-0.00599921	10	-0.00225167
2	1	0	1	1	6145.45	-0.0325363	-0.0329148	50.0761	5	-0.00520411	10	-0.00164824
2	1	0	1	1	6145.47	-0.0197323	-0.0200892	50.5243	5	-0.00439864	10	-0.00101499
2	1	0	1	1	6145.48	-0.00693663	-0.00730386	50.5582	5	-0.0035895	10	-0.00036927
2	1	0	1	0	7375.87	0.000903899	0.000501794	34.6906	6	3.82826e-05	10	1.74075e-05
2	1	0	1	0	7375.89	0.0137079	0.0133306	34.7025	6	0.000581197	10	0.000462605
2	1	0	1	0	7375.9	0.0265008	0.0261721	36.6647	6	0.00115329	10	0.000959593
2	1	0	1	0	7375.92	0.0393075	0.0390115	38.0803	6	0.00175204	10	0.00148557
2	1	0	1	0	7375.93	0.0521032	0.0517767	39.2556	6	0.00237084	10	0.00203252
2	1	0	1	0	7375.95	0.0649044	0.0645758	40.6406	6	0.00300961	10	0.0026244
2	1	0	1	0	7375.97	0.0777	0.0773017	42.531	6	0.0036745	10	0.00328772
2	1	0	1	0	7375.98	0.0905068	0.0901698	45.1766	6	0.00437579	10	0.00407357
2	1	0	1	0	7376	0.103302	0.102895	48.3569	6	0.00512338	10	0.00497566
2	1	0	1	0	7376.01	0.116104	0.115737	52.1273	6	0.00592753	10	0.00603307
2	1	0	1	0	7376.03	0.128905	0.128533	56.1453	6	0.00679371	10	0.00721653
2	1	0	1	0	7376.05	0.141703	0.141384	60.5512	6	0.00772723	10	0.00856098
2	1	0	1	0	7376.06	0.154507	0.154167	65.5539	6	0.00873599	10	0.0101063
2	1	0	1	0	7376.08	0.167303	0.167004	71.1015	6	0.00982952	10	0.0118742
2	1	0	1	0	7376.09	0.180107	0.179778	76.7341	6	0.0110129	10	0.0137951
2	1	0	1	0	7376.11	0.1929	0.192495	81.6777	6	0.0122823	10	0.0157225
2	1	0	1	0	7376.13	0.205706	0.205389	84.563	6	0.0136168	10	0.0173683
2	1	0	1	0	7376.14	0.218502	0.218206	82.9098	6	0.0149645	10	0.0180915
2	1	0	1	0	7376.16	0.231303	0.231049	74.8875	6	0.0162347	10	0.0173027
2	1	0	1	0	7376.17	0.244105	0.243831	62.0735	6	0.0173326	10	0.0151355
2	1	0	1	0	7376.19	0.256906	0.256639	49.0276	6	0.0182174	10	0.0125824
2	1	0	1	0	7376.21	0.269707	0.269449	39.3501	6	0.0189181	10	0.0106029
2	1	0	1	0	7376.22	0.282503	0.282203	33.5734	6	0.0194967	10	0.00947453
2	1	0	1	0	7376.24	0.295309	0.295014	30.4456	6	0.0200059	10	0.00898189
2	1	0	1	0	7376.25	0.297385	0.29731	21.6253	6	0.020266	10	0.00642941
2	0	0	1	0	7376.26	0.284581	0.2844	-1.18019	6	0.0203999	10	-0.000335646
2	0	0	1	0	7376.28	0.271788	0.271524	-10.7201	6	0.0202938	10	-0.00291076
2	0	0	1	0	7376.3	0.258981	0.258735	-15.2327	6	0.0200817	10	-0.00394125
2	0	0	1	0	7376.31	0.246185	0.24591	-17.7115	6	0.0198161	10	-0.00435544
2	0	0	1	0	7376.33	0.233384	0.233127	-19.3913	6	0.0195184	10	-0.00452065
2	0	0	1	0	7376.34	0.220588	0.220305	-20.7412	6	0.0191969	10	-0.00456938
2	0	0	1	0	7376.36	0.207782	0.207477	-22.0701	6	0.0188543	10	-0.00457904
2	0	0	1	0	7376.38	0.194986	0.194704	-23.5324	6	0.0184895	10	-0.00458184
2	0	0	1	0	7376.39	0.182185	0.181927	-25.3696	6	0.0180986	10	-0.0046154
2	0	0	1	0	7376.41	0.169384	0.169109	-27.8904	6	0.0176733	10	-0.0047165
2	0	0	1	0	7376.42	0.156585	0.156303	-31.4589	6	0.0171999	10	-0.00491713
2	0	0	1	0	7376.44	0.143781	0.143526	-36.5104	6	0.0166578	10	-0.0052402
2	0	0	1	0	7376.46	0.130986	0.130759	-43.2174	6	0.0160215	10	-0.00565106
2	0	0	1	0	7376.47	0.118182	0.11796	-51.213	6	0.0152662	10	-0.00604108
2	0	0	1	0	7376.49	0.105389	0.105225	-59.4052	6	0.0143806	10	-0.00625093
2	0	0	1	0	7376.5	0.092582	0.0924358	-67.0781	6	0.0133664	10	-0.00620042
2	0	0	1	0	7376.52	0.0797864	0.0795265	-73.5835	6	0.0122385	10	-0.00585184
2	0	0	1	0	7376.54	0.0669852	0.0667115	-78.0784	6	0.0110216	10	-0.00520873
2	0	0	1	0	7376.55	0.054184	0.053907	-80.0344	6	0.00975278	10	-0.00431442
2	0	0	1	0	7376.57	0.0413828	0.0410814	-79.279	6	0.00847505	10	-0.00325689
2	0	0	1	0	7376.58	0.0285816	0.028277	-76.6567	6	0.00722633	10	-0.00216762
2	0	0	1	0	7376.6	0.0157859	0.015479	-73.2231	6	0.00602705	10	-0.00113342
2	0	0	1	0	7376.62	0.00297917	0.00270214	-69.2209	6	0.00488682	10	-0.000187044
2	0	0	1	0	7376.63	-0.00981371	-0.0101532	-64.2813	6	0.00381741	10	0.00065266
2	0	0	1	0	7376.65	-0.0226177	-0.0229777	-58.7611	6	0.00283373	10	0.0013502
2	0	0	1	0	7376.66	-0.0354134	-0.0357896	-54.1184	6	0.00193332	10	0.00193687
2	0	0	1	0	7376.68	-0.0482173	-0.0485526	-51.2418	6	0.00109297	10	0.00248792
2	0	0	1	0	7376.7	-0.0610102	-0.0613867	-49.884	6	0.000285625	10	0.00306222
2	0	0	1	0	7376.71	-0.073817	-0.0741456	-49.6544	6	-0.000509698	10	0.00368165
2	0	0	1	0	7376.73	-0.0866126	-0.0869404	-50.1358	6	-0.00130724	10	0.00435883
2	0	0	1	0	7376.74	-0.0994138	-0.0997364	-51.1378	6	-0.00211692	10	0.0051003
2	0	0	1	0	7376.76	-0.112221	-0.112515	-52.5495	6	-0.00294597	10	0.00591263
2	0	0	1	0	7376.78	-0.125016	-0.125309	-54.3076	6	-0.00380055	10	0.00680524
2	0	0	1	0	7376.79	-0.137817	-0.138135	-56.3887	6	-0.004686	10	0.00778924
2	0	0	1	0	7376.81	-0.150613	-0.150952	-58.685	6	-0.00560656	10	0.00885861
2	0	0	1	0	7376.82	-0.16342	-0.163744	-61.1082	6	-0.00656493	10	0.0100061
2	0	0	1	0	7376.84	-0.176213	-0.17651	-63.5825	6	-0.00756265	10	0.0112229
2	0	0	1	0	7376.86	-0.189017	-0.189308	-66.1766	6	-0.00860099	10	0.0125278
2	0	0	0	0	7376.87	-0.199984	-0.200303	-68.5351	6	-0.0095237	10	0.0137278
2	0	0	1	1	7376.88	-0.190937	-0.191332	-45.2842	6	-0.0101806	10	0.00866432
2	0	0	1	1	7376.9	-0.178135	-0.178525	-22.5205	6	-0.0107108	10	0.00402046
2	0	0	1	1	7376.91	-0.165334	-0.165722	-5.57266	6	-0.010928	10	0.000923514
2	1	0	1	1	7376.93	-0.152533	-0.15299	7.60384	6	-0.0109065	10	-0.00116331
2	1	0	1	1	7376.94	-0.139737	-0.14025	18.1391	6	-0.0106966	10	-0.00254401
2	1	0	1	1	7376.96	-0.126931	-0.127335	26.6933	6	-0.0103343	10	-0.00339897
2	1	0	1	1	7376.98	-0.114138	-0.114515	33.411	6	-0.00985077	10	-0.00382607
2	1	0	1	1	7376.99	-0.101334	-0.101742	38.6932	6	-0.00927171	10	-0.00393671
2	1	0	1	1	7377.01	-0.0885381	-0.088917	42.7659	6	-0.00861812	10	-0.00380262
2	1	0	1	1	7377.02	-0.0757341	-0.0760797	45.8891	6	-0.00790725	10	-0.00349123
2	1	0	1	1	7377.04	-0.0629412	-0.063305	48.2044	6	-0.00715321	10	-0.00305158
2	1	0	1	1	7377.06	-0.0501345	-0.0505017	49.9057	6	-0.00636728	10	-0.00252032
2	1	0	1	1	7377.07	-0.0373388	-0.0376856	51.026	6	-0.00555904	10	-0.00192294
2	1	0	1	1	7377.09	-0.0245376	-0.0249321	51.6657	6	-0.00473662	10	-0.00128813
2	1	0	1	1	7377.1	-0.0117308	-0.0120619	51.8595	6	-0.00390772	10	-0.000625525
2	1	0	0	1	7377.12	-0.000125413	-0.000516197	51.6831	6	-0.0031567	10	-2.66787e-05
2	1	0	1	0	8607.51	0.00890534	0.00859269	32.1572	7	0.000357761	10	0.000276317
2	1	0	1	0	8607.52	0.0217065	0.0213929	34.188	7	0.000888474	10	0.000731379
2	1	0	1	0	8607.54	0.0345022	0.034157	35.8449	7	0.00144947	10	0.00122435
2	1	0	1	0	8607.56	0.0473089	0.0469879	37.2287	7	0.00203445	10	0.0017493
2	1	0	1	0	8607.57	0.0601018	0.05977	38.6834	7	0.00264162	10	0.00231211
2	1	0	1	0	8607.59	0.0729058	0.0725787	40.5411	7	0.00327481	10	0.00294242
2	1	0	1	0	8607.6	0.0857014	0.0853004	42.9522	7	0.00394197	10	0.00366383
2	1	0	1	0	8607.62	0.0985054	0.0981557	45.926	7	0.00465279	10	0.00450789
2	1	0	1	0	8607.64	0.111304	0.110916	49.3403	7	0.00541416	10	0.00547261
2	1	0	1	0	8607.65	0.124105	0.123697	53.0552	7	0.00623365	10	0.00656275
2	1	0	1	0	8607.67	0.136906	0.136511	57.0427	7	0.00711423	10	0.00778693
2	1	0	1	0	8607.68	0.149702	0.149326	61.485	7	0.00806201	10	0.00918129
2	1	0	1	0	8607.7	0.162509	0.162194	66.4695	7	0.0090855	10	0.0107809
2	1	0	1	0	8607.72	0.175304	0.174948	71.6522	7	0.010191	10	0.0125354
2	1	0	1	0	8607.73	0.188106	0.187742	76.4899	7	0.0113776	10	0.0143604
2	1	0	1	0	8607.75	0.200901	0.200555	80.0344	7	0.0126327	10	0.0160513
2	1	0	1	0	8607.76	0.213708	0.213368	80.4009	7	0.013922	10	0.017155
2	1	0	1	0	8607.78	0.226501	0.226254	75.2365	7	0.0151747	10	0.0170225
2	1	0	1	0	8607.8	0.239305	0.23905	64.6431	7	0.0162982	10	0.0154529
2	1	0	1	0	8607.81	0.2521	0.251856	52.3873	7	0.0172324	10	0.0131941
2	1	0	1	0	8607.83	0.264904	0.264663	42.5407	7	0.0179861	10	0.0112589
2	1	0	1	0	8607.84	0.277708	0.277407	36.2098	7	0.018611	10	0.0100449
2	1	0	1	0	8607.86	0.290504	0.290175	32.4743	7	0.0191574	10	0.00942325
2	1	0	1	0	8607.87	0.300012	0.299651	30.7265	7	0.0195328	10	0.00920724
2	1	0	1	0	8607.89	0.289383	0.289209	7.38818	7	0.0197635	10	0.00213673
2	0	0	1	0	8607.9	0.276582	0.276342	-5.45143	7	0.0197644	10	-0.00150646
2	0	0	1	0	8607.92	0.263786	0.263522	-11.592	7	0.0196221	10	-0.00305473
2	0	0	1	0	8607.93	0.25098	0.250699	-14.9681	7	0.0194071	10	-0.0037525
2	0	0	1	0	8607.95	0.238187	0.237912	-17.0989	7	0.0191494	10	-0.00406803
2	0	0	1	0	8607.97	0.225383	0.225098	-18.7207	7	0.0188622	10	-0.00421399
2	0	0	1	0	8607.98	0.212587	0.212329	-20.1386	7	0.0185509	10	-0.004276
2	0	0	1	0	8608	0.199783	0.199449	-21.5882	7	0.0182171	10	-0.00430575
2	0	0	1	0	8608.01	0.18699	0.186686	-23.1872	7	0.0178592	10	-0.00432872
2	0	0	1	0	8608.03	0.174183	0.173907	-25.2405	7	0.0174723	10	-0.0043895
2	0	0	1	0	8608.05	0.161382	0.161115	-28.056	7	0.017047	10	-0.00452024
2	0	0	1	0	8608.06	0.148587	0.148272	-32.0508	7	0.0165675	10	-0.00475222
2	0	0	1	0	8608.08	0.13578	0.135545	-37.6002	7	0.0160119	10	-0.0050965
2	0	0	1	0	8608.09	0.122984	0.122745	-44.6113	7	0.0153554	10	-0.00547584
2	0	0	1	0	8608.11	0.110183	0.109939	-52.3112	7	0.0145793	10	-0.00575104
2	0	0	1	0	8608.13	0.0973873	0.0972331	-59.8361	7	0.013681	10	-0.00581805
2	0	0	1	0	8608.14	0.0845806	0.0844171	-66.4662	7	0.0126683	10	-0.00561089
2	0	0	1	0	8608.16	0.0717877	0.0715098	-71.7673	7	0.0115596	10	-0.00513207
2	0	0	1	0	8608.17	0.0589837	0.058698	-74.9814	7	0.0103823	10	-0.00440126
2	0	0	1	0	8608.19	0.0461881	0.0458904	-75.7665	7	0.00917294	10	-0.00347695
2	0	0	1	0	8608.21	0.0333841	0.0330838	-74.4711	7	0.00796896	10	-0.00246379
2	0	0	1	0	8608.22	0.0205857	0.0202678	-72.0674	7	0.00679605	10	-0.00146065
2	0	0	1	0	8608.24	0.00778448	0.00743791	-69.1539	7	0.00566581	10	-0.000514361
2	0	0	1	0	8608.25	-0.0050195	-0.0053665	-65.5297	7	0.00458742	10	0.000351665
2	0	0	1	0	8608.27	-0.0178124	-0.0181836	-60.8275	7	0.00357613	10	0.00110606
2	0	0	1	0	8608.29	-0.0306191	-0.0309764	-56.0527	7	0.00264247	10	0.00173631
2	0	0	1	0	8608.3	-0.0434148	-0.0438328	-52.4549	7	0.00177668	10	0.00229924
2	0	0	1	0	8608.32	-0.056216	-0.0566096	-50.3775	7	0.000956161	10	0.00285185
2	0	0	1	0	8608.33	-0.0690117	-0.0693705	-49.4691	7	0.000158945	10	0.0034317
2	0	0	1	0	8608.35	-0.0818184	-0.0821686	-49.438	7	-0.000631328	10	0.00406225
2	0	0	1	0	8608.37	-0.0946141	-0.0949847	-49.9998	7	-0.00142631	10	0.00474922
2	0	0	1	0	8608.38	-0.107415	-0.10774	-51.0423	7	-0.00223437	10	0.00549931
2	0	0	1	0	8608.4	-0.120216	-0.120554	-52.4828	7	-0.00306208	10	0.00632702
2	0	0	1	0	8608.41	-0.133015	-0.133348	-54.2071	7	-0.00391519	10	0.00722842
2	0	0	1	0	8608.43	-0.145819	-0.146157	-56.1996	7	-0.00479828	10	0.00821395
2	0	0	1	0	8608.45	-0.158615	-0.158968	-58.3278	7	-0.0057146	10	0.00927223
2	0	0	1	0	8608.46	-0.171419	-0.171744	-60.5611	7	-0.00666589	10	0.010401
2	0	0	1	0	8608.48	-0.184211	-0.184483	-62.8468	7	-0.00765319	10	0.0115942
2	0	0	1	0	8608.49	-0.197018	-0.197336	-65.2379	7	-0.00867783	10	0.0128738
2	0	0	1	1	8608.5	-0.195739	-0.196192	-54.2516	7	-0.00926087	10	0.0106437
2	0	0	1	1	8608.52	-0.182935	-0.183387	-29.9566	7	-0.00991934	10	0.00549363
2	0	0	1	1	8608.54	-0.17014	-0.170544	-12.5167	7	-0.0102508	10	0.00213465
2	1	0	1	1	8608.55	-0.157336	-0.157793	0.947514	7	-0.0103376	10	-0.000149511
2	1	0	1	1	8608.57	-0.144532	-0.145061	11.6686	7	-0.0102325	10	-0.00169267
2	1	0	1	1	8608.58	-0.131736	-0.132178	20.4638	7	-0.0099724	10	-0.00270487
2	1	0	1	1	8608.6	-0.118932	-0.119335	27.5638	7	-0.00958538	10	-0.00328931
2	1	0	1	1	8608.62	-0.106139	-0.106547	33.2345	7	-0.00909666	10	-0.00354105
2	1	0	1	1	8608.63	-0.0933323	-0.0937175	37.7846	7	-0.00852665	10	-0.00354108
2	1	0	1	1	8608.65	-0.0805366	-0.0809491	41.3525	7	-0.00789218	10	-0.00334745
2	1	0	1	1	8608.66	-0.0677354	-0.0681203	44.123	7	-0.00720724	10	-0.00300567
2	1	0	1	1	8608.68	-0.0549398	-0.055317	46.2351	7	-0.00648332	10	-0.00255759
2	1	0	1	1	8608.7	-0.042133	-0.0425232	47.8145	7	-0.00573002	10	-0.00203322
2	1	0	1	1	8608.71	-0.0293374	-0.0297294	48.8639	7	-0.00495585	10	-0.00145269
2	1	0	1	1	8608.73	-0.0165361	-0.016908	49.4655	7	-0.0041685	10	-0.000836361
2	1	0	1	1	8608.74	-0.00373494	-0.00409613	49.6335	7	-0.00337524	10	-0.000203305
2	1	0	1	0	9839.13	0.00410559	0.00379648	33.5987	8	0.000176136	10	0.000127557
2	1	0	1	0	9839.15	0.016904	0.0165638	34.8179	8	0.000719691	10	0.000576715
2	1	0	1	0	9839.16	0.029708	0.0293873	36.6222	8	0.00129187	10	0.00107623
2	1	0	1	0	9839.18	0.0425036	0.0421609	38.1069	8	0.00189005	10	0.00160662
2	1	0	1	0	9839.2	0.0553076	0.0549728	39.5907	8	0.00251137	10	0.00217641
2	1	0	1	0	9839.21	0.0681005	0.0677485	41.3698	8	0.00315845	10	0.00280275
2	1	0	1	0	9839.23	0.0809072	0.0805264	43.6672	8	0.00383813	10	0.00351636
2	1	0	1	0	9839.24	0.0937029	0.0933669	46.5498	8	0.00455965	10	0.00434621
2	1	0	1	0	9839.26	0.106504	0.106088	49.8462	8	0.00533007	10	0.00528806
2	1	0	1	0	9839.28	0.1193	0.118944	53.509	8	0.00615713	10	0.00636457
2	1	0	1	0	9839.29	0.132106	0.13174	57.3935	8	0.00704425	10	0.00756101
2	1	0	1	0	9839.31	0.144902	0.144506	61.6755	8	0.00799637	10	0.00891248
2	1	0	1	0	9839.32	0.157703	0.157359	66.4696	8	0.0090214	10	0.0104596
2	1	0	1	0	9839.34	0.17051	0.170187	71.5422	8	0.0101258	10	0.0121756
2	1	0	1	0	9839.36	0.183303	0.182945	76.3553	8	0.01131	10	0.0139688
2	1	0	1	0	9839.37	0.196107	0.195723	80.1269	8	0.0125643	10	0.0156826
2	1	0	1	0	9839.39	0.208903	0.208578	81.1923	8	0.0138599	10	0.0169349
2	1	0	1	0	9839.4	0.221707	0.22143	77.2585	8	0.0151347	10	0.0171073
2	1	0	1	0	9839.42	0.234499	0.234257	67.8542	8	0.0163007	10	0.0158953
2	1	0	1	0	9839.44	0.247306	0.247047	55.9452	8	0.0172905	10	0.0138211
2	1	0	1	0	9839.45	0.260102	0.259792	45.3153	8	0.0180956	10	0.0117726
2	1	0	1	0	9839.47	0.272903	0.272604	37.904	8	0.0187562	10	0.0103328
2	1	0	1	0	9839.48	0.285704	0.285388	33.3529	8	0.0193228	10	0.00951853
2	1	0	1	0	9839.5	0.298505	0.298206	30.6638	8	0.0198328	10	0.00914413
2	1	0	1	0	9839.51	0.294183	0.294032	15.1364	8	0.0200509	10	0.00445059
2	0	0	1	0	9839.52	0.281384	0.281135	-2.71476	8	0.0201294	10	-0.000763214
2	0	0	1	0	9839.54	0.26858	0.268298	-10.9076	8	0.0200123	10	-0.00292649
2	0	0	1	0	9839.56	0.255785	0.255486	-15.1109	8	0.0198006	10	-0.00386063
2	0	0	1	0	9839.57	0.242981	0.242713	-17.6048	8	0.0195372	10	-0.00427291
2	0	0	1	0	9839.59	0.230188	0.229921	-19.3088	8	0.0192411	10	-0.0044395
2	0	0	1	0	9839.6	0.217381	0.217059	-20.7187	8	0.0189206	10	-0.00449719
2	0	0	1	0	9839.62	0.204586	0.204267	-22.0268	8	0.0185788	10	-0.00449935
2	0	0	1	0	9839.64	0.191784	0.191514	-23.4418	8	0.0182153	10	-0.00448942
2	0	0	1	0	9839.65	0.178989	0.178691	-25.1429	8	0.017827	10	-0.00449282
2	0	0	1	0	9839.67	0.166182	0.165903	-27.4776	8	0.0174068	10	-0.00455862
2	0	0	1	0	9839.68	0.153386	0.153115	-30.8103	8	0.0169419	10	-0.00471754
2	0	0	1	0	9839.7	0.140585	0.140285	-35.5408	8	0.0164128	10	-0.00498583
2	0	0	1	0	9839.72	0.127778	0.127442	-41.9246	8	0.0157948	10	-0.00534295
2	0	0	1	0	9839.73	0.114986	0.114705	-49.4768	8	0.015064	10	-0.00567526
2	0	0	1	0	9839.75	0.102182	0.10201	-57.1914	8	0.0142101	10	-0.00583411
2	0	0	1	0	9839.76	0.0893859	0.0892037	-64.3317	8	0.0132358	10	-0.00573863
2	0	0	1	0	9839.78	0.0765819	0.0763081	-70.3707	8	0.0121561	10	-0.00536986
2	0	0	1	0	9839.8	0.063789	0.063562	-74.5459	8	0.0109937	10	-0.00473829
2	0	0	1	0	9839.81	0.0509823	0.0506887	-76.5493	8	0.00978154	10	-0.00388018
2	0	0	1	0	9839.83	0.0381866	0.0378875	-76.2595	8	0.00855656	10	-0.00288928
2	0	0	1	0	9839.84	0.0253854	0.0250714	-74.4316	8	0.00734995	10	-0.00186611
2	0	0	1	0	9839.86	0.0125842	0.012302	-71.8703	8	0.00617926	10	-0.000884148
2	0	0	1	0	9839.88	-0.000216969	-0.000581942	-68.7648	8	0.00505392	10	4.00171e-05
2	0	0	1	0	9839.89	-0.0130182	-0.0133864	-64.7073	8	0.00398543	10	0.000866195
2	0	0	1	0	9839.91	-0.0258138	-0.0261611	-59.9285	8	0.00298838	10	0.00156779
2	0	0	1	0	9839.92	-0.0386206	-0.038992	-55.5854	8	0.00206612	10	0.00216739
2	0	0	1	0	9839.94	-0.0514135	-0.0517784	-52.5399	8	0.00120362	10	0.00272043
2	0	0	1	0	9839.96	-0.0642174	-0.0645563	-50.9131	8	0.000377953	10	0.00328676
2	0	0	1	0	9839.97	-0.0770131	-0.0773331	-50.3551	8	-0.000430968	10	0.00389412
2	0	0	1	0	9839.99	-0.0898171	-0.0901227	-50.6098	8	-0.00123783	10	0.00456109
2	0	0	1	0	9840	-0.10261	-0.102955	-51.3979	8	-0.00205319	10	0.00529166
2	0	0	1	0	9840.02	-0.115417	-0.115762	-52.6491	8	-0.00288506	10	0.00609477
2	0	0	1	0	9840.04	-0.128218	-0.128585	-54.2418	8	-0.00373972	10	0.00697466
2	0	0	1	0	9840.05	-0.141014	-0.141368	-56.1241	8	-0.00462253	10	0.00793415
2	0	0	1	0	9840.07	-0.15382	-0.154158	-58.2175	8	-0.0055372	10	0.00897467
2	0	0	1	0	9840.08	-0.166616	-0.166973	-60.4063	8	-0.00648608	10	0.0100862
2	0	0	1	0	9840.1	-0.179417	-0.17974	-62.6564	8	-0.00747048	10	0.0112618
2	0	0	1	0	9840.12	-0.192213	-0.192538	-64.9767	8	-0.00849153	10	0.0125105
2	0	0	0	1	9840.13	-0.199984	-0.200532	-66.1946	8	-0.00916875	10	0.0132741
2	0	0	1	1	9840.14	-0.187741	-0.188203	-38.206	8	-0.00993155	10	0.00719048
2	0	0	1	1	9840.16	-0.174934	-0.17534	-18.5444	8	-0.0103755	10	0.00325158
2	0	0	1	1	9840.17	-0.162138	-0.162561	-3.64216	8	-0.0105467	10	0.000592074
2	1	0	1	1	9840.19	-0.149337	-0.149818	8.12923	8	-0.0105065	10	-0.00121791
2	1	0	1	1	9840.21	-0.136536	-0.13699	17.7043	8	-0.0102969	10	-0.00242531
2	1	0	1	1	9840.22	-0.123734	-0.124142	25.5774	8	-0.0099476	10	-0.00317522
2	1	0	1	1	9840.24	-0.110933	-0.111315	31.9231	8	-0.00948529	10	-0.00355352
2	1	0	1	1	9840.25	-0.0981376	-0.0985402	37.0468	8	-0.00893174	10	-0.0036506
2	1	0	1	1	9840.27	-0.0853308	-0.0857241	41.1483	8	-0.00830485	10	-0.0035274
2	1	0	1	1	9840.29	-0.072538	-0.0729038	44.3506	8	-0.00761959	10	-0.00323333
2	1	0	1	1	9840.3	-0.059734	-0.0601206	46.8675	8	-0.00688867	10	-0.0028177
2	1	0	1	1	9840.32	-0.0469383	-0.0473173	48.7634	8	-0.00612272	10	-0.00230735
2	1	0	1	1	9840.33	-0.0341343	-0.0345044	50.138	8	-0.00533083	10	-0.00172998
2	1	0	1	1	9840.35	-0.0213415	-0.0216787	50.9697	8	-0.00452139	10	-0.00110496
2	1	0	1	1	9840.37	-0.0085347	-0.00888387	51.3525	8	-0.00370214	10	-0.000456209
2	1	0	1	1	9840.38	2.44065e-05	-0.000439847	51.3499	8	-0.00315243	10	-2.25861e-05