File: Figure_codes/Fig_3-5/rawdata_trumpetplot_data/before 10th/20221101_1-115_002_TrumpetPlot_ParaChange_08_CV_C01_0.csv
mode,ox/red,error,control changes,counter inc.,time/s,control/V,Ewe/V,<I>/mA,cycle number,(Q-Qo)/C,I Range,P/W,log(|I|),Tafel slope mV/dec,alpha_eff,dI/d(E-IR),E-IR/V,
2,0,0,1,0,1169.19,2.44065e-05,-0.000268062,-2.18649,1,0.0000000E+000,11,5.86113e-07,-2.66025, , , ,-0.000268062,
2,1,0,1,0,1169.22,0.00129787,0.000979601,0.456022,1,-1.90999e-05,11,4.4672e-07,-3.34101, , , ,0.000979601,
2,1,0,1,0,1169.26,0.00279427,0.002533,1.42243,1,1.94949e-05,11,3.60303e-06,-2.84697,0.00517906,11.392,465.947,0.002533,
2,1,0,1,0,1169.3,0.00429425,0.0040147,1.61689,1,7.73106e-05,11,6.49133e-06,-2.79132,0.0284538,2.07354,116.56,0.0040147,
2,1,0,1,0,1169.33,0.00579422,0.00553005,1.67035,1,0.000139442,11,9.23711e-06,-2.77719,0.108671,0.542922,34.8382,0.00553005,
2,1,0,1,0,1169.37,0.00729063,0.00700318,1.70305,1,0.000202942,11,1.19267e-05,-2.76877,0.230313,0.256173,17.025,0.00700318,
2,1,0,1,0,1169.41,0.00878703,0.00849608,1.72679,1,0.000267425,11,1.4671e-05,-2.76276,0.304059,0.194041,13.1143,0.00849608,
2,1,0,1,0,1169.45,0.010287,0.0100115,1.74733,1,0.00033278,11,1.74933e-05,-2.75763,0.481118,0.122631,8.35171,0.0100115,
2,1,0,1,0,1169.48,0.011787,0.0114884,1.76158,1,0.000398817,11,2.02377e-05,-2.7541,0.395799,0.149066,10.2342,0.0114884,
2,1,0,1,0,1169.52,0.0132825,0.0129971,1.78035,1,0.000465093,11,2.31394e-05,-2.7495,0.331669,0.177888,12.3683,0.0129971,
2,1,0,1,0,1169.56,0.014778,0.0145101,1.79418,1,0.000531997,11,2.60338e-05,-2.74613,0.384817,0.15332,10.7188,0.0145101,
2,1,0,1,0,1169.6,0.0162816,0.0160081,1.81311,1,0.000600081,11,2.90246e-05,-2.74158,0.497357,0.118627,8.34098,0.0160081,
2,1,0,1,0,1169.63,0.017778,0.017499,1.81858,1,0.000668213,11,3.18234e-05,-2.74027,0.900586,0.0655129,4.65078,0.017499,
2,1,0,1,0,1169.67,0.0192744,0.0189871,1.82735,1,0.000736492,11,3.46961e-05,-2.73818,0.730045,0.080817,5.78721,0.0189871,
2,1,0,1,0,1169.71,0.0207743,0.0204747,1.84094,1,0.000805465,11,3.76926e-05,-2.73496,0.561848,0.105011,7.53814,0.0204747,
2,1,0,1,0,1169.75,0.0222743,0.0219845,1.85359,1,0.000874925,11,4.07503e-05,-2.73199,0.79109,0.0745806,5.39134,0.0219845,
2,1,0,1,0,1169.78,0.0237707,0.0235037,1.86281,1,0.000944504,11,4.37828e-05,-2.72983,1.00691,0.0585952,4.2541,0.0235037,
2,1,0,1,0,1169.82,0.0252671,0.0250138,1.86455,1,0.00101427,11,4.66395e-05,-2.72942,0.85454,0.069043,5.02619,0.0250138,
2,1,0,1,0,1169.86,0.0267671,0.0264795,1.88006,1,0.00108462,11,4.97829e-05,-2.72583,0.501836,0.117568,8.58687,0.0264795,
2,1,0,1,0,1169.9,0.0282671,0.0280026,1.88776,1,0.00115531,11,5.28624e-05,-2.72405,0.681638,0.0865563,6.3659,0.0280026,
2,1,0,1,0,1169.93,0.0297626,0.0295024,1.89065,1,0.00122624,11,5.57786e-05,-2.72339,0.873831,0.0675188,4.98636,0.02950236,
2,1,0,1,0,1169.97,0.0312581,0.0309944,1.89288,1,0.00129743,11,5.86688e-05,-2.72288,0.796304,0.0740923,5.51171,0.0309944,
2,1,0,1,0,1170.01,0.0327616,0.0325032,1.90633,1,0.00136916,11,6.19617e-05,-2.7198,0.921172,0.0640489,4.7898,0.0325032,
2,1,0,1,0,1170.05,0.034258,0.0339575,1.91605,1,0.00144093,11,6.50644e-05,-2.71759,0.68873,0.0856649,6.41441,0.0339575,
2,1,0,1,0,1170.08,0.0357545,0.0355159,1.93066,1,0.0015131,11,6.85693e-05,-2.71429,1.52032,0.0388077,2.91113,0.0355159,
2,1,0,1,0,1170.12,0.0372544,0.0369812,1.93934,1,0.00158579,11,7.1719e-05,-2.71235,0.803056,0.0734694,5.54875,0.0369812,
2,1,0,1,0,1170.16,0.0387544,0.0385305,1.94759,1,0.00165863,11,7.50417e-05,-2.7105,0.623158,0.0946791,7.20073,0.0385305,
2,1,0,1,0,1170.2,0.0402508,0.0399678,1.95912,1,0.00173181,11,7.8302e-05,-2.70794,0.560961,0.105177,8.03661,0.0399678,
2,1,0,1,0,1170.23,0.0417472,0.0414943,1.97146,1,0.00180557,11,8.18043e-05,-2.70521,0.732053,0.0805952,6.19773,0.04149431,
2,1,0,1,0,1170.27,0.0432472,0.0429568,1.9836,1,0.0018799,11,8.52094e-05,-2.70255,0.782279,0.0754207,5.84915,0.0429568,
2,1,0,1,0,1170.31,0.0447472,0.0444414,1.98717,1,0.00195444,11,8.83126e-05,-2.70177,0.539487,0.109363,8.51945,0.0444414,
2,1,0,1,0,1170.34,0.0462427,0.0459773,2.00727,1,0.00202936,11,9.22887e-05,-2.69739,0.387208,0.152373,11.9209,0.0459773,
2,1,0,1,0,1170.38,0.0477382,0.0474772,2.02375,1,0.00210487,11,9.60817e-05,-2.69384,0.422239,0.139731,11.0146,0.04747716,
2,1,0,1,0,1170.42,0.0492417,0.0489724,2.03455,1,0.00218138,11,9.9637e-05,-2.69153,0.485594,0.121501,9.63665,0.0489724,
2,1,0,1,0,1170.46,0.0507381,0.0504594,2.0488,1,0.00225793,11,0.000103381,-2.6885,0.451878,0.130566,10.4652,0.0504594,
2,1,0,1,0,1170.49,0.0522345,0.051971,2.06856,1,0.00233511,11,0.000107505,-2.68433,0.324026,0.182084,14.724,0.051971,
2,1,0,1,0,1170.53,0.0537345,0.0534863,2.09632,1,0.00241335,11,0.000112124,-2.67854,0.360223,0.163788,13.3743,0.0534863,
2,1,0,1,0,1170.57,0.0552345,0.0549739,2.11388,1,0.00249247,11,0.000116208,-2.67492,0.403905,0.146074,12.0488,0.0549739,
2,1,0,1,0,1170.61,0.0567309,0.0564712,2.12564,1,0.00257202,11,0.000120038,-2.67251,0.367405,0.160586,13.3889,0.05647121,
2,1,0,1,0,1170.64,0.0582273,0.0579452,2.15741,1,0.00265225,11,0.000125011,-2.66607,0.307412,0.191925,16.1766,0.0579452,
2,1,0,1,0,1170.68,0.0597309,0.0594425,2.18693,1,0.00273393,11,0.000129996,-2.66017,0.257716,0.228934,19.4878,0.0594425,
2,1,0,1,0,1170.72,0.0612264,0.060945,2.21405,1,0.00281628,11,0.000134935,-2.65481,0.299678,0.196878,16.9215,0.060945,
2,1,0,1,0,1170.76,0.0627219,0.0624457,2.23693,1,0.00289964,11,0.000139687,-2.65035,0.278755,0.211655,18.4881,0.0624457,
2,1,0,1,0,1170.79,0.0642219,0.0639194,2.26186,1,0.00298406,11,0.000144577,-2.64553,0.239504,0.246342,21.8209,0.06391941,
2,1,0,1,0,1170.83,0.0657218,0.0654446,2.29654,1,0.00306981,11,0.000150296,-2.63893,0.219462,0.26884,24.1516,0.0654446,
2,1,0,1,0,1170.87,0.0672182,0.0669749,2.33093,1,0.00315673,11,0.000156114,-2.63247,0.22774,0.259067,23.6274,0.0669749,
2,1,0,1,0,1170.91,0.0687146,0.0684442,2.36368,1,0.00324491,11,0.00016178,-2.62641,0.26293,0.224394,20.7717,0.06844423,
2,1,0,1,0,1170.94,0.0702146,0.0699336,2.40207,1,0.00333442,11,0.000167985,-2.61941,0.232769,0.25347,23.8153,0.0699336,
2,1,0,1,0,1170.98,0.0717146,0.0714299,2.44694,1,0.00342545,11,0.000174784,-2.61138,0.194144,0.303899,28.9138,0.0714299,
2,1,0,1,0,1171.02,0.073211,0.0729313,2.48629,1,0.00351779,11,0.000181329,-2.60445,0.211701,0.278695,27.0066,0.07293129,
2,1,0,1,0,1171.06,0.0747074,0.0744387,2.52809,1,0.00361165,11,0.000188188,-2.59721,0.216506,0.27251,26.8345,0.0744387,
2,1,0,1,0,1171.09,0.0762109,0.0759086,2.55533,1,0.0037075,11,0.000193971,-2.59255,0.206239,0.286076,28.678,0.0759086,
2,1,0,1,0,1171.13,0.0777064,0.0774478,2.6082,1,0.00380432,11,0.000201999,-2.58366,0.202557,0.291276,29.709,0.0774478,
2,1,0,1,0,1171.17,0.079202,0.0789462,2.65556,1,0.00390293,11,0.000209646,-2.57584,0.185771,0.317594,32.9293,0.0789462,
2,1,0,1,0,1171.21,0.0807019,0.0804619,2.70114,1,0.0040036,11,0.000217339,-2.56845,0.211443,0.279036,29.3528,0.0804619,
2,1,0,1,0,1171.24,0.0822019,0.0819441,2.74404,1,0.00410593,11,0.000224858,-2.56161,0.220871,0.267124,28.589,0.0819441,
2,1,0,1,0,1171.28,0.0836983,0.0834387,2.79159,1,0.00420951,11,0.000232926,-2.55415,0.21091,0.27974,30.4551,0.0834387,
2,1,0,1,0,1171.32,0.0851947,0.0848788,2.8406,1,0.00431488,11,0.000241106,-2.54659,0.206649,0.285509,31.5816,0.0848788,
2,1,0,1,0,1171.36,0.0866947,0.0863989,2.89043,1,0.00442248,11,0.00024973,-2.53904,0.219085,0.269302,30.3012,0.0863989,
2,1,0,1,0,1171.39,0.0881947,0.0878959,2.93378,1,0.0045318,11,0.000257868,-2.53257,0.266603,0.221303,25.2842,0.0878959,
2,1,0,1,0,1171.43,0.0896911,0.0894318,2.95043,1,0.00464203,11,0.000263862,-2.53011,0.219299,0.269039,31.3078,0.0894318,
2,1,0,1,0,1171.47,0.0911875,0.0908846,3.01835,1,0.00475392,11,0.000274321,-2.52023,0.175627,0.335939,39.5798,0.0908846,
2,1,0,1,0,1171.51,0.0926901,0.0924181,3.07845,1,0.00486883,11,0.000284505,-2.51167,0.19374,0.304532,36.4886,0.0924181,
2,1,0,1,0,1171.54,0.0941856,0.0939028,3.12635,1,0.00498507,11,0.000293573,-2.50496,0.220079,0.268085,32.6901,0.0939028,
2,1,0,1,0,1171.58,0.0956821,0.0954163,3.16975,1,0.00510293,11,0.000302446,-2.49898,0.221603,0.266242,32.9958,0.0954163,
2,1,0,1,0,1171.62,0.097182,0.0968984,3.22784,1,0.00522309,11,0.000312773,-2.49109,0.197579,0.298615,37.565,0.0968984,
2,1,0,1,0,1171.66,0.098682,0.0984086,3.28469,1,0.00534536,11,0.000323241,-2.48351,0.207897,0.283794,36.3298,0.0984086,
2,1,0,1,0,1171.69,0.100178,0.0999104,3.33757,1,0.00546938,11,0.000333458,-2.47657,0.223771,0.263663,34.3263,0.0999104,
2,1,0,1,0,1171.73,0.101675,0.101382,3.37785,1,0.00559532,11,0.000342452,-2.47136,0.205353,0.28731,38.1015,0.101382,
2,1,0,1,0,1171.77,0.103175,0.102902,3.44157,1,0.00572352,11,0.000354143,-2.46324,0.194915,0.302695,40.8396,0.102902,
2,1,0,1,0,1171.81,0.104675,0.10445,3.51702,1,0.00585422,11,0.000367353,-2.45382,0.186646,0.316107,43.3155,0.1044499,
2,1,0,1,0,1171.84,0.106171,0.105908,3.58233,1,0.00598709,11,0.000379396,-2.44583,0.18774,0.314264,43.8264,0.105908,
2,1,0,1,0,1171.88,0.107667,0.107379,3.64852,1,0.00612237,11,0.000391773,-2.43788,0.173175,0.340696,48.5359,0.107379,
2,1,0,1,0,1171.92,0.10917,0.10885,3.7242,1,0.0062609,11,0.000405378,-2.42897,0.155248,0.380037,55.3061,0.10885,
2,1,0,1,0,1171.96,0.110666,0.110405,3.80691,1,0.00640194,11,0.000420303,-2.41943,0.144248,0.409019,60.8278,0.110405,
2,1,0,1,0,1171.99,0.112162,0.111901,3.89204,1,0.00654625,11,0.000435524,-2.40982,0.152062,0.388,59.0603,0.111901,
2,1,0,1,0,1172.03,0.113662,0.113385,3.98892,1,0.00669438,11,0.000452285,-2.39914,0.143217,0.411961,64.2783,0.1133852,
2,1,0,1,0,1172.07,0.115162,0.114873,4.08554,1,0.00684593,11,0.000469319,-2.38875,0.133013,0.443566,71.0097,0.114873,
2,1,0,1,0,1172.11,0.116658,0.116362,4.20413,1,0.00700113,11,0.000489199,-2.37632,0.118568,0.497605,81.7809,0.116362,
2,1,0,1,0,1172.14,0.118155,0.117848,4.33873,1,0.007161,11,0.000511311,-2.36264,0.119982,0.49174,83.0738,0.117848,
2,1,0,1,0,1172.18,0.119655,0.119352,4.46547,1,0.00732615,11,0.000532961,-2.35013,0.117917,0.500351,87.2014,0.119352,
2,1,0,1,0,1172.22,0.121155,0.120887,4.59539,1,0.00749602,11,0.000555524,-2.33768,0.111227,0.530448,95.35,0.120887,
2,1,0,1,0,1172.26,0.122651,0.122344,4.74549,1,0.00767087,11,0.000580584,-2.32372,0.102542,0.575372,106.713,0.122344,
2,1,0,1,0,1172.29,0.124147,0.12391,4.90627,1,0.00785163,11,0.000607937,-2.30925,0.102332,0.576552,110.606,0.12391,
2,1,0,1,0,1172.33,0.12565,0.125382,5.07481,1,0.00803957,11,0.000636292,-2.29458,0.103178,0.57183,113.275,0.125382,
2,1,0,1,0,1172.37,0.127146,0.126881,5.23638,1,0.00823283,11,0.000664398,-2.28097,0.104613,0.563982,115.546,0.126881,
2,1,0,1,0,1172.4,0.128642,0.12834,5.41852,1,0.00843239,11,0.000695413,-2.26612,0.104341,0.565455,119.78,0.1283399,
2,1,0,1,0,1172.44,0.130142,0.129899,5.60927,1,0.00863936,11,0.000728641,-2.25109,0.104282,0.565775,123.681,0.129899,
2,1,0,1,0,1172.48,0.131642,0.131401,5.79547,1,0.00885343,11,0.000761531,-2.23691,0.111892,0.527294,118.886,0.131401,
2,1,0,1,0,1172.52,0.133139,0.132845,5.97309,1,0.00907373,11,0.000793497,-2.2238,0.116954,0.504471,117.536,0.132845,
2,1,0,1,0,1172.55,0.134635,0.134339,6.14788,1,0.00930043,11,0.0008259,-2.21127,0.122405,0.482005,115.648,0.134339,
2,1,0,1,0,1172.59,0.136135,0.135909,6.32065,1,0.0095345,11,0.000859032,-2.19924,0.128311,0.45982,113.33,0.135909,
2,1,0,1,0,1172.63,0.137635,0.137353,6.48935,1,0.00977501,11,0.000891329,-2.1878,0.140184,0.420876,106.381,0.137353,
2,1,0,1,0,1172.67,0.13913,0.1389,6.64866,1,0.0100209,11,0.000923501,-2.17727,0.159094,0.370851,95.931,0.1389,
2,1,0,1,0,1172.7,0.140626,0.140351,6.77442,1,0.0102719,11,0.000950794,-2.16913,0.17848,0.330569,87.2611,0.140351,
2,1,0,1,0,1172.74,0.14213,0.141844,6.90771,1,0.0105293,11,0.000979817,-2.16067,0.195177,0.30229,81.1945,0.141844,
2,1,0,1,0,1172.78,0.143626,0.14335,7.02026,1,0.01079,11,0.00100636,-2.15365,0.240353,0.245473,66.9696,0.1433502,
2,1,0,1,0,1172.82,0.145122,0.144875,7.10237,1,0.0110543,11,0.00102896,-2.1486,0.344755,0.171136,47.3005,0.144875,
2,1,0,1,0,1172.85,0.146622,0.146355,7.15769,1,0.011322,11,0.00104756,-2.14523,0.475013,0.124207,34.6533,0.146355,
2,1,0,1,0,1172.89,0.148122,0.147868,7.20674,1,0.0115917,11,0.00106564,-2.14226,0.746593,0.0790256,22.1757,0.147868,
2,1,0,1,0,1172.93,0.149619,0.149342,7.22872,1,0.0118619,11,0.00107955,-2.14094,4.06897,0.0145,4.0784,0.149342,
2,1,0,1,0,1172.97,0.151115,0.150846,7.22453,1,0.0121325,11,0.00108979,-2.14119,-0.963386,-0.0612423,-17.1849,0.150846,
2,1,0,1,0,1173,0.152615,0.152335,7.17677,1,0.0124028,11,0.00109327,-2.14407,-0.430522,-0.137043,-38.2369,0.152335,
2,1,0,1,0,1173.04,0.154115,0.153839,7.11104,1,0.0126708,11,0.00109396,-2.14807,-0.282742,-0.208671,-57.6748,0.1538392,
2,1,0,1,0,1173.08,0.155611,0.155369,7.01021,1,0.012935,11,0.00108917,-2.15427,-0.198298,-0.297532,-80.9125,0.155369,
2,1,0,1,0,1173.12,0.157106,0.156827,6.8672,1,0.0131948,11,0.00107696,-2.16322,-0.141989,-0.415524,-110.627,0.156827,
2,1,0,1,0,1173.15,0.15861,0.158341,6.68051,1,0.0134498,11,0.0010578,-2.17519,-0.112977,-0.522229,-135.474,0.158341,
2,1,0,1,0,1173.19,0.160106,0.159826,6.4546,1,0.0136956,11,0.00103161,-2.19013,-0.0927346,-0.636224,-159.646,0.1598258,
2,1,0,1,0,1173.23,0.161602,0.161332,6.20001,1,0.0139326,11,0.00100026,-2.20761,-0.0797806,-0.739528,-178.082,0.161332,
2,1,0,1,0,1173.27,0.163102,0.162804,5.9225,1,0.0141601,11,0.000964205,-2.2275,-0.0688299,-0.857186,-196.944,0.162804,
2,1,0,1,0,1173.3,0.164602,0.164301,5.61026,1,0.0143764,11,0.000921773,-2.25102,-0.0607256,-0.971584,-211.61,0.164301,
2,1,0,1,0,1173.34,0.166099,0.165853,5.28392,1,0.0145801,11,0.000876353,-2.27704,-0.0567703,-1.03928,-213.918,0.165853,
2,1,0,1,0,1173.38,0.167595,0.167336,4.96727,1,0.0147717,11,0.000831201,-2.30388,-0.0554169,-1.06466,-206.255,0.167336,
2,1,0,1,0,1173.42,0.169095,0.168805,4.6632,1,0.0149523,11,0.000787173,-2.33132,-0.0550915,-1.07095,-195.09,0.168805,
2,1,0,1,0,1173.45,0.170595,0.170326,4.37478,1,0.0151219,11,0.000745141,-2.35904,-0.0556284,-1.06061,-181.646,0.170326,
2,1,0,1,0,1173.49,0.172091,0.171801,4.10339,1,0.0152806,11,0.000704968,-2.38686,-0.0582085,-1.0136,-163.802,0.171801,
2,1,0,1,0,1173.53,0.173586,0.173283,3.88209,1,0.0154301,11,0.000672702,-2.41093,-0.0626305,-0.942032,-143.696,0.173283,
2,1,0,1,0,1173.57,0.17509,0.174809,3.69235,1,0.0155726,11,0.000645455,-2.4327,-0.0689337,-0.855895,-123.69,0.174809,
2,1,0,1,0,1173.6,0.176586,0.176341,3.52139,1,0.0157075,11,0.000620963,-2.45329,-0.0751498,-0.785098,-108.069,0.176341,
2,1,0,1,0,1173.64,0.178083,0.177817,3.36667,1,0.0158363,11,0.000598652,-2.4728,-0.0820848,-0.718769,-94.6852,0.177817,
2,1,0,1,0,1173.68,0.179582,0.179308,3.23681,1,0.0159601,11,0.000580388,-2.48988,-0.0923635,-0.638781,-80.979,0.179308,
2,1,0,1,0,1173.72,0.181082,0.180817,3.11932,1,0.0160793,11,0.000564026,-2.50594,-0.0996792,-0.591899,-72.2995,0.1808169,
2,1,0,1,0,1173.75,0.182579,0.182306,3.01729,1,0.0161943,11,0.00055007,-2.52038,-0.101435,-0.581651,-68.5996,0.182306,
2,1,0,1,0,1173.79,0.184075,0.183838,2.91664,1,0.0163054,11,0.000536192,-2.53512,-0.106814,-0.552364,-63.1338,0.183838,
2,1,0,1,0,1173.83,0.185579,0.185311,2.82514,1,0.0164135,11,0.000523529,-2.54896,-0.11621,-0.507701,-56.2481,0.185311,
2,1,0,1,0,1173.87,0.187074,0.186822,2.75764,1,0.0165179,11,0.000515187,-2.55946,-0.133974,-0.440384,-47.3251,0.186822,
2,1,0,1,0,1173.9,0.18857,0.188343,2.6833,1,0.0166197,11,0.00050538,-2.57133,-0.139083,-0.424207,-44.4098,0.1883426,
2,1,0,1,0,1173.94,0.19007,0.189788,2.61655,1,0.0167192,11,0.000496591,-2.58227,-0.143756,-0.410419,-41.8604,0.189788,
2,1,0,1,0,1173.98,0.19157,0.191288,2.54862,1,0.0168161,11,0.000487522,-2.59369,-0.153595,-0.384128,-38.3254,0.191288,
2,1,0,1,0,1174.02,0.193066,0.192802,2.49411,1,0.0169106,11,0.000480868,-2.60308,-0.186676,-0.316055,-30.8427,0.192802,
2,1,0,1,0,1174.05,0.194563,0.194296,2.44875,1,0.0170033,11,0.000475783,-2.61106,-0.178435,-0.330653,-31.6366,0.1942963,
2,1,0,1,0,1174.09,0.196063,0.195792,2.40012,1,0.0170945,11,0.000469924,-2.61977,-0.170459,-0.346125,-32.5335,0.195792,
2,1,0,1,0,1174.13,0.197563,0.197287,2.34989,1,0.0171839,11,0.000463601,-2.62895,-0.184649,-0.319526,-29.462,0.197287,
2,1,0,1,0,1174.17,0.199059,0.198743,2.31836,1,0.0172713,11,0.000460759,-2.63482,-0.215564,-0.2737,-24.7745,0.198743,
2,1,0,1,0,1174.2,0.200555,0.200283,2.28845,1,0.0173574,11,0.000458337,-2.64046,-0.233479,-0.252699,-22.4628,0.2002829,
2,1,0,1,0,1174.24,0.202059,0.201845,2.25273,1,0.0174427,11,0.000454701,-2.64729,-0.21578,-0.273427,-23.9067,0.201845,
2,1,0,1,0,1174.28,0.203554,0.203296,2.21577,1,0.0175264,11,0.000450457,-2.65448,-0.254975,-0.231396,-20.0048,0.203296,
2,1,0,1,0,1174.32,0.20505,0.204769,2.18177,1,0.0176086,11,0.000446759,-2.66119,-0.348404,-0.169343,-14.5294,0.204769,
2,1,0,1,0,1174.35,0.20655,0.206272,2.15939,1,0.0176902,11,0.000445423,-2.66567,-0.316546,-0.186387,-15.7435,0.206272,
2,1,0,1,0,1174.39,0.20805,0.207805,2.1337,1,0.0177712,11,0.000443395,-2.67087,-0.30615,-0.192716,-16.0555,0.207805,
2,1,0,1,0,1174.43,0.209546,0.209275,2.10777,1,0.0178508,11,0.000441104,-2.67618,-0.262392,-0.224855,-18.5642,0.209275,
2,1,0,1,0,1174.46,0.211043,0.210742,2.08698,1,0.0179294,11,0.000439814,-2.68048,-0.300661,-0.196234,-15.9877,0.210742,
2,1,0,1,0,1174.5,0.212543,0.212309,2.07003,1,0.0180074,11,0.000439486,-2.68402,-0.39827,-0.148141,-11.9276,0.212309,
2,1,0,1,0,1174.54,0.214043,0.213739,2.05486,1,0.0180847,11,0.000439203,-2.68722,-0.375813,-0.156993,-12.5294,0.213739,
2,1,0,1,0,1174.58,0.215539,0.215299,2.03539,1,0.0181612,11,0.000438218,-2.69135,-0.362136,-0.162922,-12.9088,0.215299,
2,1,0,1,0,1174.61,0.217035,0.21677,2.00356,1,0.0182368,11,0.00043431,-2.6982,-0.437864,-0.134745,-10.6069,0.21677,
2,1,0,1,0,1174.65,0.218538,0.218273,1.99213,1,0.0183123,11,0.000434827,-2.70068,-0.702826,-0.0839468,-6.55197,0.218273,
2,1,0,1,0,1174.69,0.220034,0.21977,1.98331,1,0.018387,11,0.000435872,-2.70261,-0.522106,-0.113004,-8.75533,0.21977,
2,1,0,1,0,1174.73,0.22153,0.221266,1.96791,1,0.0184611,11,0.000435431,-2.70599,-0.396538,-0.148788,-11.4402,0.221266,
2,1,0,1,0,1174.76,0.22303,0.222739,1.94926,1,0.0185347,11,0.000434176,-2.71013,-0.479541,-0.123034,-9.37395,0.222739,
2,1,0,1,0,1174.8,0.22453,0.224263,1.9466,1,0.0186079,11,0.00043655,-2.71072,-0.632452,-0.0932877,-7.05508,0.224263,
2,1,0,1,0,1174.84,0.226026,0.22576,1.93427,1,0.0186804,11,0.000436681,-2.71348,-0.561785,-0.105022,-7.89857,0.22576,
2,1,0,1,0,1174.88,0.227523,0.227232,1.91878,1,0.0187526,11,0.00043601,-2.71697,-0.415348,-0.14205,-10.6049,0.227232,
2,1,0,1,0,1174.91,0.229023,0.228747,1.90391,1,0.0188246,11,0.000435513,-2.72035,-0.534158,-0.110454,-8.24221,0.228747,
2,1,0,1,0,1174.95,0.230523,0.230269,1.89258,1,0.0188959,11,0.000435804,-2.72294,-0.678178,-0.0869979,-6.46925,0.230269,
2,1,0,1,0,1174.99,0.232019,0.231744,1.8865,1,0.0189668,11,0.000437186,-2.72434,-0.802376,-0.0735317,-5.42048,0.231744,
2,1,0,1,0,1175.03,0.233515,0.233216,1.87613,1,0.0190376,11,0.000437543,-2.72674,-0.735978,-0.0801655,-5.87739,0.233216,
2,1,0,1,0,1175.06,0.235018,0.234741,1.87221,1,0.0191082,11,0.000439486,-2.72764,-0.621188,-0.0949793,-6.92651,0.2347413,
2,1,0,1,0,1175.1,0.236514,0.236282,1.86017,1,0.0191779,11,0.000439525,-2.73045,-0.868161,-0.0679597,-4.92533,0.236282,
2,1,0,1,0,1175.14,0.23801,0.23776,1.8556,1,0.0192476,11,0.000441187,-2.73152,-1.0746,-0.0549044,-3.95283,0.23776,
2,1,0,1,0,1175.18,0.23951,0.239243,1.84756,1,0.0193171,11,0.000442016,-2.7334,-0.703006,-0.0839253,-6.04857,0.239243,
2,1,0,1,0,1175.21,0.24101,0.240739,1.83239,1,0.0193864,11,0.000441127,-2.73698,-0.699731,-0.0843181,-6.05507,0.240739,
2,1,0,1,0,1175.25,0.242506,0.242218,1.81492,1,0.019455,11,0.000439606,-2.74114,-0.751413,-0.0785187,-5.62452,0.242218,
2,1,0,1,0,1175.29,0.244003,0.243777,1.81848,1,0.0195234,11,0.000443303,-2.74029,-1.88753,-0.0312577,-2.22651,0.243777,
2,1,0,1,0,1175.33,0.245503,0.245267,1.82436,1,0.0195918,11,0.000447455,-2.73889,-0.82891,-0.0711778,-5.04567,0.245267,
2,1,0,1,0,1175.36,0.247003,0.246733,1.81642,1,0.0196601,11,0.000448171,-2.74078,-0.71743,-0.082238,-5.79126,0.246733,
2,1,0,1,0,1175.4,0.248499,0.248295,1.80096,1,0.0197278,11,0.000447169,-2.7445,-0.932106,-0.0632976,-4.44676,0.248295,
2,1,0,1,0,1175.44,0.249995,0.249741,1.8009,1,0.0197952,11,0.000449758,-2.74451,-1.03486,-0.0570124,-3.99544,0.2497407,
2,1,0,1,0,1175.48,0.251498,0.251235,1.78904,1,0.0198629,11,0.000449469,-2.74738,-2.05733,-0.028678,-2.00684,0.251235,
2,1,0,1,0,1175.51,0.252994,0.25275,1.78204,1,0.0199299,11,0.000450409,-2.74908,-0.754171,-0.0782316,-5.45041,0.25275,
2,1,0,1,0,1175.55,0.25449,0.254237,1.77595,1,0.0199968,11,0.000451512,-2.75057,-1.16902,-0.0504696,-3.51032,0.254237,
2,1,0,1,0,1175.59,0.25599,0.25572,1.77103,1,0.0200634,11,0.000452888,-2.75177,-1.34294,-0.0439334,-3.04955,0.25572,
2,1,0,1,0,1175.63,0.25749,0.257232,1.76937,1,0.0201301,11,0.000455138,-2.75218,-1.76662,-0.0333972,-2.30074,0.257232,
2,1,0,1,0,1175.66,0.258987,0.258757,1.7696,1,0.0201964,11,0.000457895,-2.75213,-0.787835,-0.0748888,-5.14132,0.258757,
2,1,0,1,0,1175.7,0.260483,0.260223,1.76202,1,0.0202624,11,0.000458518,-2.75399,-0.816092,-0.0722958,-4.95385,0.260223,
2,1,0,1,0,1175.74,0.261983,0.26175,1.75561,1,0.0203283,11,0.000459532,-2.75557,-1.52155,-0.0387762,-2.65059,0.26175,
2,1,0,1,0,1175.78,0.263483,0.263211,1.75161,1,0.0203941,11,0.000461045,-2.75656,-3.06822,-0.0192294,-1.30924,0.263211,
2,1,0,1,0,1175.81,0.264978,0.264723,1.74043,1,0.0204596,11,0.000460733,-2.75934,-1.55359,-0.0379767,-2.58757,0.264723,
2,1,0,1,0,1175.85,0.266474,0.266211,1.7338,1,0.0205248,11,0.000461557,-2.761,-1.07424,-0.0549227,-3.73608,0.266211,
2,1,0,1,0,1175.89,0.267977,0.26773,1.72213,1,0.0205902,11,0.000461066,-2.76393,-0.986902,-0.059783,-4.04582,0.26773,
2,1,0,1,0,1175.93,0.269474,0.269207,1.72824,1,0.020655,11,0.000465256,-2.7624,-2.50034,-0.0235968,-1.59291,0.269207,
2,1,0,1,0,1175.96,0.27097,0.270699,1.73288,1,0.0207197,11,0.00046909,-2.76123,-1.30607,-0.0451736,-3.03066,0.270699,
2,1,0,1,0,1176,0.27247,0.272195,1.72467,1,0.0207846,11,0.000469448,-2.76329,-0.691701,-0.0852969,-5.69496,0.272195,
2,1,0,1,0,1176.04,0.27397,0.273675,1.71267,1,0.0208491,11,0.000468714,-2.76633,-0.924161,-0.0638417,-4.26746,0.273675,
2,1,0,1,0,1176.08,0.275467,0.275232,1.70627,1,0.0209132,11,0.00046962,-2.76795,-0.978336,-0.0603065,-4.02876,0.275232,
2,1,0,1,0,1176.11,0.276963,0.276685,1.70376,1,0.0209772,11,0.000471403,-2.76859,-1.30473,-0.0452202,-3.01824,0.276685,
2,1,0,1,0,1176.15,0.278463,0.278149,1.70152,1,0.0210412,11,0.000473277,-2.76916,-0.759225,-0.0777108,-5.15592,0.2781494,
2,1,0,1,0,1176.19,0.279963,0.279671,1.69669,1,0.0211051,11,0.000474513,-2.7704,-1.1465,-0.0514609,-3.41253,0.279671,
2,1,0,1,0,1176.23,0.281459,0.281226,1.69389,1,0.0211685,11,0.000476367,-2.77111,-2.34164,-0.025196,-1.663,0.281226,
2,1,0,1,0,1176.26,0.282954,0.282686,1.69072,1,0.0212319,11,0.000477942,-2.77193,-2.28613,-0.0258078,-1.69493,0.282686,
2,1,0,1,0,1176.3,0.284458,0.284194,1.69035,1,0.0212955,11,0.000480386,-2.77202,-2.58331,-0.0228389,-1.49797,0.284194,
2,1,0,1,0,1176.34,0.285954,0.285716,1.68011,1,0.0213586,11,0.000480035,-2.77466,-0.932584,-0.0632651,-4.14374,0.285716,
2,1,0,1,0,1176.38,0.28745,0.287169,1.6703,1,0.0214215,11,0.000479659,-2.77721,-1.68357,-0.0350446,-2.29474,0.287169,
2,1,0,1,0,1176.41,0.28895,0.288681,1.66765,1,0.0214844,11,0.000481418,-2.7779,-8.20042,-0.00719476,-0.469436,0.288681,
2,1,0,1,0,1176.45,0.29045,0.290183,1.66454,1,0.0215472,11,0.000483021,-2.77871,-1.03807,-0.0568362,-3.70694,0.290183,
2,1,0,1,0,1176.49,0.291947,0.291677,1.66368,1,0.0216097,11,0.000485256,-2.77893,-0.865552,-0.0681646,-4.42172,0.291677,
2,1,0,1,0,1176.52,0.293443,0.29318,1.65497,1,0.0216719,11,0.000485203,-2.78121,-1.19061,-0.0495543,-3.20465,0.29318,
2,1,0,1,0,1176.56,0.294943,0.294653,1.66197,1,0.0217342,11,0.000489705,-2.77938,-1.40471,-0.0420016,-2.70983,0.294653,
2,1,0,1,0,1176.6,0.296443,0.296237,1.66426,1,0.0217964,11,0.000493014,-2.77878,-1.62105,-0.0363962,-2.33991,0.2962369,
2,1,0,1,0,1176.64,0.297939,0.297693,1.65438,1,0.0218584,11,0.000492497,-2.78136,-1.40325,-0.0420453,-2.69925,0.297693,
2,1,0,1,0,1176.67,0.299434,0.299209,1.64117,1,0.0219202,11,0.000491054,-2.78485,-0.00662143,-8.91046,-398.028,0.299209,
2,1,0,1,0,1176.69,0.299962,0.299632,1.53635,1,0.0219444,11,0.000460339,-2.81351,0.00131584,44.8383,2652.83,0.299632,
2,0,0,1,0,1176.72,0.298689,0.298418,-0.300258,1,0.0219527,11,-8.96024e-05,-3.52251,0.00699864,8.43021,623.865,0.298418,
2,0,0,1,0,1176.76,0.297189,0.296916,-0.500265,1,0.0219362,11,-0.000148537,-3.3008,-0.00178465,-33.0597,140.527,0.2969164,
2,0,0,1,0,1176.8,0.295692,0.295406,-0.551643,1,0.0219163,11,-0.000162959,-3.25834,-0.0390107,-1.5124,31.8672,0.295406,
2,0,0,1,0,1176.83,0.294196,0.293879,-0.597607,1,0.0218947,11,-0.000175624,-3.22358,-0.0546288,-1.08002,24.8276,0.293879,
2,0,0,1,0,1176.87,0.292696,0.292388,-0.632137,1,0.0218717,11,-0.000184829,-3.19919,-0.0575329,-1.0255,24.9061,0.292388,
2,0,0,1,0,1176.91,0.291196,0.290913,-0.669831,1,0.0218472,11,-0.000194862,-3.17403,-0.0615644,-0.958346,24.5251,0.290913,
2,0,0,1,0,1176.95,0.2897,0.289422,-0.703756,1,0.0218215,11,-0.000203683,-3.15258,-0.0799088,-0.738342,19.9909,0.289422,
2,0,0,1,0,1176.98,0.288205,0.287891,-0.72533,1,0.0217947,11,-0.000208816,-3.13946,-0.0919536,-0.641628,18.0779,0.287891,
2,0,0,1,0,1177.02,0.286701,0.286419,-0.739905,1,0.0217667,11,-0.000211922,-3.13082,-0.10256,-0.575275,16.9207,0.286419,
2,0,0,1,0,1177.06,0.285205,0.284934,-0.773051,1,0.0217381,11,-0.000220269,-3.11179,-0.10956,-0.538518,16.3804,0.284934,
2,0,0,1,0,1177.1,0.283708,0.283398,-0.79974,1,0.0217085,11,-0.000226645,-3.09705,-0.125124,-0.471533,14.6671,0.283398,
2,0,0,1,0,1177.13,0.282208,0.281885,-0.821238,1,0.0216779,11,-0.000231495,-3.08553,-0.178016,-0.331431,10.5026,0.281885,
2,0,0,1,0,1177.17,0.280709,0.280413,-0.844655,1,0.0216465,11,-0.000236852,-3.07332,-0.161724,-0.36482,11.9239,0.2804125,
2,0,0,1,0,1177.21,0.279212,0.278931,-0.861837,1,0.0216148,11,-0.000240394,-3.06457,-0.162288,-0.363552,12.1554,0.2789315,
2,0,0,1,0,1177.25,0.277716,0.277421,-0.879144,1,0.0215821,11,-0.000243893,-3.05594,-0.158309,-0.37269,12.7363,0.277421,
2,0,0,1,0,1177.28,0.276216,0.275916,-0.895322,1,0.0215487,11,-0.000247033,-3.04802,-0.165251,-0.357033,12.4941,0.275916,
2,0,0,1,0,1177.32,0.274716,0.274431,-0.910417,1,0.0215147,11,-0.000249847,-3.04076,-0.185524,-0.318017,11.3622,0.2744315,
2,0,0,1,0,1177.36,0.27322,0.272905,-0.922459,1,0.0214802,11,-0.000251743,-3.03505,-0.198039,-0.297921,10.8079,0.272905,
2,0,0,1,0,1177.4,0.271725,0.271457,-0.943255,1,0.0214451,11,-0.000256054,-3.02537,-0.158832,-0.371462,13.6315,0.271457,
2,0,0,1,0,1177.43,0.270221,0.269966,-0.962397,1,0.021409,11,-0.000259815,-3.01665,-0.202642,-0.291154,10.8696,0.269966,
2,0,0,1,0,1177.47,0.268725,0.268419,-0.977848,1,0.0213727,11,-0.000262473,-3.00973,-0.307381,-0.191944,7.27093,0.268419,
2,0,0,1,0,1177.51,0.267228,0.266936,-0.982003,1,0.0213358,11,-0.000262132,-3.00789,-0.265374,-0.222328,8.55494,0.2669358,
2,0,0,1,0,1177.55,0.265728,0.265435,-1.00316,1,0.0212984,11,-0.000266272,-2.99863,-0.216572,-0.272426,10.683,0.265435,
2,0,0,1,0,1177.58,0.264228,0.263946,-1.01494,1,0.0212604,11,-0.000267888,-2.99356,-0.27291,-0.216188,8.58698,0.263946,
2,0,0,1,0,1177.62,0.262732,0.262402,-1.02693,1,0.021222,11,-0.00026947,-2.98846,-0.370632,-0.159187,6.39811,0.262402,
2,0,0,1,0,1177.66,0.261236,0.260929,-1.0411,1,0.0211831,11,-0.000271652,-2.98251,-0.289118,-0.204069,8.31834,0.260929,
2,0,0,1,0,1177.7,0.259736,0.259484,-1.05781,1,0.0211437,11,-0.000274485,-2.97559,-0.243652,-0.242149,10.0103,0.2594837,
2,0,0,1,0,1177.73,0.258236,0.257931,-1.0736,1,0.0211036,11,-0.000276915,-2.96916,-0.248167,-0.237744,9.89898,0.2579312,
2,0,0,1,0,1177.77,0.256741,0.256471,-1.08676,1,0.0210631,11,-0.000278723,-2.96387,-0.369203,-0.159804,6.71833,0.256471,
2,0,0,1,0,1177.81,0.255241,0.254929,-1.09772,1,0.0210221,11,-0.000279841,-2.95951,-0.327359,-0.18023,7.68284,0.254929,
2,0,0,1,0,1177.85,0.253741,0.253468,-1.10303,1,0.0209808,11,-0.000279581,-2.95741,-0.311393,-0.189471,8.19378,0.2534675,
2,0,0,1,0,1177.88,0.252245,0.251983,-1.11603,1,0.020939,11,-0.000281219,-2.95233,-0.300341,-0.196444,8.58855,0.251983,
2,0,0,1,0,1177.92,0.250748,0.25046,-1.13121,1,0.0208966,11,-0.000283322,-2.94646,-0.338971,-0.174056,7.72096,0.25046,
2,0,0,1,0,1177.96,0.249248,0.248953,-1.14145,1,0.0208538,11,-0.000284166,-2.94254,-0.453515,-0.130095,5.82299,0.248953,
2,0,0,1,0,1177.99,0.247748,0.247472,-1.1551,1,0.0208106,11,-0.000285856,-2.93738,-0.330891,-0.178307,8.04981,0.247472,
2,0,0,1,0,1178.03,0.246252,0.245925,-1.17546,1,0.020767,11,-0.000289075,-2.92979,-0.246618,-0.239236,10.8769,0.245925,
2,0,0,1,0,1178.07,0.244756,0.244451,-1.18783,1,0.0207229,11,-0.000290367,-2.92524,-0.328705,-0.179492,8.2425,0.244451,
2,0,0,1,0,1178.11,0.243252,0.242956,-1.19545,1,0.0206779,11,-0.000290442,-2.92247,-0.347868,-0.169605,7.89068,0.242956,
2,0,0,1,0,1178.14,0.241756,0.241475,-1.19475,1,0.020633,11,-0.000288502,-2.92272,-0.350147,-0.168501,7.95271,0.241475,
2,0,0,1,0,1178.18,0.240261,0.239916,-1.21247,1,0.0205876,11,-0.00029089,-2.91633,-0.319825,-0.184476,8.79733,0.239916,
2,0,0,1,0,1178.22,0.238761,0.238472,-1.22881,1,0.0205415,11,-0.000293036,-2.91052,-0.339018,-0.174032,8.37973,0.238472,
2,0,0,1,0,1178.26,0.237261,0.236964,-1.24222,1,0.0204949,11,-0.000294361,-2.9058,-0.393034,-0.150114,7.2662,0.236964,
2,0,0,1,0,1178.29,0.235765,0.235463,-1.25183,1,0.0204481,11,-0.00029476,-2.90245,-0.371122,-0.158977,7.78061,0.2354627,
2,0,0,1,0,1178.33,0.234268,0.233961,-1.27063,1,0.0204009,11,-0.000297278,-2.89598,-0.306629,-0.192415,9.52101,0.233961,
2,0,0,1,0,1178.37,0.232768,0.232471,-1.28669,1,0.0203529,11,-0.000299119,-2.89053,-0.288524,-0.204489,10.1933,0.232471,
2,0,0,1,0,1178.41,0.231268,0.230945,-1.29484,1,0.0203043,11,-0.000299037,-2.88778,-0.392425,-0.150347,7.59041,0.2309453,
2,0,0,1,0,1178.44,0.229772,0.229469,-1.30708,1,0.0202555,11,-0.000299934,-2.8837,-0.403021,-0.146394,7.4887,0.229469,
2,0,0,1,0,1178.48,0.228275,0.228006,-1.31813,1,0.0202063,11,-0.00030054,-2.88004,-0.327843,-0.179964,9.31262,0.228006,
2,0,0,1,0,1178.52,0.226772,0.22649,-1.3334,1,0.0201562,11,-0.000302002,-2.87504,-0.253578,-0.23267,12.1266,0.2264903,
2,0,0,1,0,1178.56,0.225276,0.224982,-1.35351,1,0.0201058,11,-0.000304514,-2.86854,-0.336387,-0.175393,9.25722,0.224982,
2,0,0,1,0,1178.59,0.223781,0.223479,-1.36512,1,0.0200548,11,-0.000305075,-2.86483,-0.312968,-0.188517,10.0354,0.223479,
2,0,0,1,0,1178.63,0.222281,0.221987,-1.37738,1,0.0200033,11,-0.00030576,-2.86095,-0.291321,-0.202526,10.8865,0.2219865,
2,0,0,1,0,1178.67,0.220781,0.220469,-1.39754,1,0.0199511,11,-0.000308114,-2.85464,-0.252431,-0.233727,12.6702,0.220469,
2,0,0,1,0,1178.71,0.219284,0.21902,-1.41654,1,0.0198984,11,-0.00031025,-2.84877,-0.28376,-0.207923,11.4399,0.21902,
2,0,0,1,0,1178.74,0.217788,0.217505,-1.42556,1,0.0198451,11,-0.000310066,-2.84602,-0.370585,-0.159208,8.8768,0.217505,
2,0,0,1,0,1178.78,0.216288,0.215999,-1.43189,1,0.0197911,11,-0.000309286,-2.84409,-0.286408,-0.206,11.6511,0.215999,
2,0,0,1,0,1178.82,0.214788,0.214497,-1.46156,1,0.0197366,11,-0.000313502,-2.83518,-0.302442,-0.195078,11.1534,0.214497,
2,0,0,1,0,1178.86,0.213292,0.213004,-1.48548,1,0.0196814,11,-0.000316414,-2.82813,-0.264294,-0.223236,12.9027,0.213004,
2,0,0,1,0,1178.89,0.211796,0.21149,-1.50241,1,0.0196255,11,-0.000317745,-2.82321,-0.313413,-0.18825,10.9693,0.21149,
2,0,0,1,0,1178.93,0.210293,0.210012,-1.52215,1,0.0195685,11,-0.000319669,-2.81754,-0.246607,-0.239247,14.1768,0.210012,
2,0,0,1,0,1178.97,0.208797,0.2085,-1.54156,1,0.0195113,11,-0.000321417,-2.81204,-0.210274,-0.280587,16.9267,0.2085,
2,0,0,1,0,1179.01,0.207301,0.207049,-1.56034,1,0.0194531,11,-0.000323066,-2.80678,-0.211906,-0.278425,17.0052,0.207049,
2,0,0,1,0,1179.04,0.205801,0.205493,-1.58703,1,0.0193937,11,-0.000326124,-2.79941,-0.236446,-0.249529,15.4565,0.205493,
2,0,0,1,0,1179.08,0.204301,0.204002,-1.60519,1,0.0193335,11,-0.000327462,-2.79447,-0.284588,-0.207318,13.0674,0.204002,
2,0,0,1,0,1179.12,0.202804,0.202498,-1.62943,1,0.0192729,11,-0.000329957,-2.78796,-0.236194,-0.249795,15.9273,0.202498,
2,0,0,1,0,1179.16,0.201308,0.201,-1.6609,1,0.0192112,11,-0.000333841,-2.77966,-0.189545,-0.311272,20.0984,0.201,
2,0,0,1,0,1179.19,0.199808,0.199522,-1.69288,1,0.0191483,11,-0.000337768,-2.77137,-0.212705,-0.277379,18.2451,0.199522,
2,0,0,1,0,1179.23,0.198308,0.197957,-1.72144,1,0.0190843,11,-0.000340772,-2.76411,-0.209141,-0.282107,18.8623,0.197957,
2,0,0,1,0,1179.27,0.196812,0.196513,-1.74182,1,0.0190196,11,-0.00034229,-2.759,-0.188929,-0.312287,21.3139,0.196513,
2,0,0,1,0,1179.31,0.195316,0.195023,-1.77652,1,0.0189536,11,-0.000346463,-2.75043,-0.163807,-0.36018,25.0168,0.1950233,
2,0,0,1,0,1179.34,0.193813,0.193472,-1.81811,1,0.0188858,11,-0.000351753,-2.74038,-0.165434,-0.356637,25.3195,0.193472,
2,0,0,1,0,1179.38,0.192317,0.192041,-1.84677,1,0.018817,11,-0.000354656,-2.73359,-0.183631,-0.321296,23.234,0.192041,
2,0,0,1,0,1179.42,0.190821,0.190513,-1.88493,1,0.0187469,11,-0.000359104,-2.72471,-0.168256,-0.350656,25.8932,0.190513,
2,0,0,1,0,1179.46,0.189321,0.189026,-1.93152,1,0.0186752,11,-0.000365108,-2.7141,-0.159351,-0.370252,27.8848,0.189026,
2,0,0,1,0,1179.49,0.187821,0.18754,-1.97935,1,0.0186018,11,-0.000371208,-2.70348,-0.144307,-0.408851,31.5154,0.18754,
2,0,0,1,0,1179.53,0.186324,0.186005,-2.02755,1,0.0185269,11,-0.000377135,-2.69303,-0.156152,-0.377836,29.7686,0.186005,
2,0,0,1,0,1179.57,0.184828,0.184548,-2.07551,1,0.0184501,11,-0.000383032,-2.68287,-0.136716,-0.431551,34.964,0.184548,
2,0,0,1,0,1179.61,0.183328,0.183036,-2.1201,1,0.0183713,11,-0.000388055,-2.67364,-0.130073,-0.453593,37.7768,0.183036,
2,0,0,1,0,1179.64,0.181828,0.181532,-2.18222,1,0.0182903,11,-0.000396144,-2.6611,-0.123164,-0.479036,40.9663,0.181532,
2,0,0,1,0,1179.68,0.180332,0.180006,-2.2501,1,0.0182072,11,-0.000405032,-2.6478,-0.114888,-0.513542,45.1657,0.180006,
2,0,0,1,0,1179.72,0.178836,0.178516,-2.31794,1,0.0181216,11,-0.000413788,-2.6349,-0.119998,-0.491675,44.5123,0.178516,
2,0,0,1,0,1179.76,0.177333,0.177033,-2.38121,1,0.0180331,11,-0.000421554,-2.6232,-0.10919,-0.540341,50.4598,0.177033,
2,0,0,1,0,1179.79,0.175837,0.175527,-2.46777,1,0.0179423,11,-0.000433161,-2.6077,-0.0975935,-0.604549,58.0725,0.1755273,
2,0,0,1,0,1179.83,0.174341,0.174062,-2.55509,1,0.0178483,11,-0.000444744,-2.59259,-0.0986252,-0.598224,59.5948,0.174062,
2,0,0,1,0,1179.87,0.172841,0.172542,-2.64134,1,0.0177507,11,-0.000455743,-2.57818,-0.0963867,-0.612117,63.2144,0.172542,
2,0,0,1,0,1179.91,0.171341,0.171034,-2.7282,1,0.0176496,11,-0.000466615,-2.56412,-0.092102,-0.640594,68.748,0.171034,
2,0,0,1,0,1179.94,0.169844,0.169521,-2.84649,1,0.017545,11,-0.000482541,-2.54569,-0.0871637,-0.676887,75.6689,0.169521,
2,0,0,1,0,1179.98,0.168348,0.168054,-2.97281,1,0.0174361,11,-0.000499594,-2.52683,-0.0836648,-0.705195,81.8889,0.168054,
2,0,0,1,0,1180.02,0.166848,0.166574,-3.10264,1,0.017322,11,-0.00051682,-2.50827,-0.0820939,-0.718689,86.7804,0.166574,
2,0,0,1,0,1180.05,0.165348,0.165008,-3.23023,1,0.0172033,11,-0.000533015,-2.49077,-0.0786321,-0.75033,94.7792,0.165008,
2,0,0,1,0,1180.09,0.163852,0.163569,-3.37991,1,0.0170797,11,-0.00055285,-2.47109,-0.0759736,-0.776586,102.549,0.163569,
2,0,0,1,0,1180.13,0.162357,0.16204,-3.54073,1,0.0169502,11,-0.00057374,-2.45091,-0.0737103,-0.80043,110.458,0.16204,
2,0,0,1,0,1180.17,0.160853,0.160562,-3.702,1,0.0168138,11,-0.000594401,-2.43156,-0.0739829,-0.797482,115.598,0.160562,
2,0,0,1,0,1180.2,0.159357,0.159069,-3.88568,1,0.0166717,11,-0.00061809,-2.41053,-0.0707577,-0.833832,127.023,0.159069,
2,0,0,1,0,1180.24,0.157861,0.157557,-4.07983,1,0.0165225,11,-0.000642808,-2.38936,-0.069855,-0.844606,134.933,0.157557,
2,0,0,1,0,1180.28,0.156361,0.156043,-4.29675,1,0.0163651,11,-0.000670476,-2.36686,-0.0697169,-0.846279,141.755,0.156043,
2,0,0,1,0,1180.32,0.154861,0.154563,-4.5161,1,0.0161997,11,-0.000698022,-2.34524,-0.0719071,-0.820503,144.416,0.154563,
2,0,0,1,0,1180.35,0.153364,0.153062,-4.73232,1,0.0160266,11,-0.000724338,-2.32493,-0.0751815,-0.784768,144.678,0.153062,
2,0,0,1,0,1180.39,0.151868,0.151555,-4.94599,1,0.0158455,11,-0.000749591,-2.30575,-0.0773054,-0.763206,147.382,0.1515552,
2,0,0,1,0,1180.43,0.150368,0.150034,-5.17295,1,0.0156556,11,-0.000776121,-2.28626,-0.0790602,-0.746266,150.333,0.150034,
2,0,0,1,0,1180.47,0.148868,0.148592,-5.39652,1,0.0154572,11,-0.000801881,-2.26789,-0.0830002,-0.710841,149.507,0.148592,
2,0,0,1,0,1180.5,0.147372,0.147054,-5.60948,1,0.015251,11,-0.000824894,-2.25108,-0.0885677,-0.666157,145.752,0.147054,
2,0,0,1,0,1180.54,0.145877,0.145606,-5.81282,1,0.0150368,11,-0.000846383,-2.23561,-0.0972652,-0.606589,137.741,0.145606,
2,0,0,1,0,1180.58,0.144373,0.144104,-6.02265,1,0.0148138,11,-0.000867885,-2.22021,-0.103001,-0.57281,134.664,0.144104,
2,0,0,1,0,1180.62,0.142877,0.14258,-6.23327,1,0.0145844,11,-0.000888743,-2.20528,-0.112596,-0.523995,127.011,0.14258,
2,0,0,1,0,1180.65,0.14138,0.141117,-6.41313,1,0.0143477,11,-0.000905002,-2.19293,-0.130016,-0.453791,113.012,0.141117,
2,0,0,1,0,1180.69,0.13988,0.139587,-6.57607,1,0.0141039,11,-0.000917933,-2.18203,-0.151542,-0.38933,99.5547,0.1395869,
2,0,0,1,0,1180.73,0.13838,0.138055,-6.71255,1,0.0138547,11,-0.000926702,-2.17311,-0.174171,-0.338747,88.5809,0.138055,
2,0,0,1,0,1180.77,0.136884,0.136594,-6.83846,1,0.013601,11,-0.000934091,-2.16504,-0.197266,-0.299088,79.6406,0.136594,
2,0,0,1,0,1180.8,0.135388,0.135061,-6.94688,1,0.0133429,11,-0.00093825,-2.15821,-0.248507,-0.237418,64.2042,0.135061,
2,0,0,1,0,1180.84,0.133888,0.133587,-7.03536,1,0.0130804,11,-0.00093983,-2.15271,-0.336542,-0.175313,48.0087,0.133587,
2,0,0,1,0,1180.88,0.132389,0.132064,-7.0889,1,0.0128155,11,-0.000936188,-2.14942,-0.489543,-0.120521,33.2651,0.132064,
2,0,0,1,0,1180.92,0.130893,0.130614,-7.12795,1,0.0125493,11,-0.00093101,-2.14704,-0.830724,-0.0710224,19.6891,0.130614,
2,0,0,1,0,1180.95,0.129393,0.129113,-7.14946,1,0.0122813,11,-0.000923091,-2.14573,17.4943,0.00337253,-0.9364,0.1291133,
2,0,0,1,0,1180.99,0.127893,0.127572,-7.12841,1,0.0120134,11,-0.000909388,-2.14701,0.686376,0.0859587,-23.8078,0.127572,
2,0,0,1,0,1181.03,0.126397,0.126072,-7.07128,1,0.0117476,11,-0.000891489,-2.1505,0.372046,0.158583,-43.6485,0.126072,
2,0,0,1,0,1181.07,0.1249,0.124636,-6.99453,1,0.0114843,11,-0.000871774,-2.15524,0.268882,0.219427,-59.7509,0.124636,
2,0,0,1,0,1181.1,0.1234,0.123087,-6.8923,1,0.0112236,11,-0.000848354,-2.16164,0.199621,0.29556,-79.2492,0.123087,
2,0,0,1,0,1181.14,0.1219,0.121599,-6.76091,1,0.0109672,11,-0.000822118,-2.16999,0.155456,0.379529,-99.7617,0.121599,
2,0,0,1,0,1181.18,0.120404,0.120094,-6.5923,1,0.0107172,11,-0.000791693,-2.18096,0.1305,0.452109,-116.061,0.120094,
2,0,0,1,0,1181.22,0.118908,0.118625,-6.41985,1,0.0104738,11,-0.000761556,-2.19248,0.117519,0.502047,-125.453,0.118625,
2,0,0,1,0,1181.25,0.117404,0.117067,-6.22304,1,0.0102362,11,-0.000728515,-2.206,0.106392,0.554555,-134.139,0.117067,
2,0,0,1,0,1181.29,0.115909,0.115601,-6.01462,1,0.0100072,11,-0.000695295,-2.22079,0.097881,0.602772,-140.955,0.115601,
2,0,0,1,0,1181.33,0.114413,0.114117,-5.79512,1,0.00978631,11,-0.000661323,-2.23694,0.0918512,0.642343,-145.167,0.114117,
2,0,0,1,0,1181.37,0.112913,0.112629,-5.57015,1,0.00957314,11,-0.00062736,-2.25413,0.0920558,0.640915,-139.727,0.1126289,
2,0,0,1,0,1181.4,0.111413,0.111184,-5.36715,1,0.0093678,11,-0.000596739,-2.27026,0.093726,0.629494,-132.243,0.111184,
2,0,0,1,0,1181.44,0.109917,0.109616,-5.18142,1,0.00917031,11,-0.000567967,-2.28555,0.0952612,0.61935,-125.44,0.109616,
2,0,0,1,0,1181.48,0.10842,0.108127,-5.00514,1,0.00897976,11,-0.000541188,-2.30058,0.100777,0.585449,-114.495,0.1081266,
2,0,0,1,0,1181.52,0.10692,0.106584,-4.83492,1,0.00879533,11,-0.000515326,-2.31561,0.106487,0.554059,-104.805,0.106584,
2,0,0,1,0,1181.55,0.10542,0.105068,-4.69273,1,0.00861669,11,-0.000493057,-2.32857,0.11721,0.503368,-92.2456,0.1050682,
2,0,0,1,0,1181.59,0.103924,0.10362,-4.56719,1,0.00844362,11,-0.000473252,-2.34035,0.130205,0.453132,-80.7828,0.10362,
2,0,0,1,0,1181.63,0.102427,0.102116,-4.4448,1,0.00827515,11,-0.000453887,-2.35215,0.135796,0.434474,-75.4432,0.102116,
2,0,0,1,0,1181.67,0.100924,0.100611,-4.32396,1,0.00811009,11,-0.000435037,-2.36412,0.147652,0.399589,-67.7554,0.100611,
2,0,0,1,0,1181.7,0.0994284,0.099129,-4.23529,1,0.00794979,11,-0.00041984,-2.37312,0.173125,0.340795,-56.5505,0.099129,
2,0,0,1,0,1181.74,0.0979329,0.0975979,-4.15205,1,0.00779272,11,-0.000405231,-2.38174,0.180176,0.327458,-53.1613,0.0975979,
2,0,0,1,0,1181.78,0.0964329,0.0961314,-4.07641,1,0.00763816,11,-0.000391871,-2.38972,0.181988,0.324198,-51.5764,0.0961314,
2,0,0,1,0,1181.82,0.094933,0.0946617,-4.00258,1,0.00748652,11,-0.000378891,-2.39766,0.198577,0.297114,-46.4707,0.09466169,
2,0,0,1,0,1181.85,0.0934366,0.0931412,-3.93851,1,0.00733803,11,-0.000366838,-2.40467,0.223715,0.263728,-40.6187,0.0931412,
2,0,0,1,0,1181.89,0.0919401,0.0916663,-3.88214,1,0.00719167,11,-0.000355862,-2.41093,0.243331,0.242468,-36.7318,0.0916663,
2,0,0,1,0,1181.93,0.0904402,0.0901479,-3.82663,1,0.00704683,11,-0.000344962,-2.41718,0.226418,0.26058,-38.9053,0.0901479,
2,0,0,1,0,1181.97,0.0889402,0.0886323,-3.76964,1,0.00690416,11,-0.000334112,-2.4237,0.230933,0.255486,-37.6673,0.0886323,
2,0,0,1,0,1182,0.0874438,0.0871754,-3.71784,1,0.00676409,11,-0.000324104,-2.42971,0.254877,0.231484,-33.6566,0.0871754,
2,0,0,1,0,1182.04,0.0859483,0.085645,-3.67027,1,0.00662583,11,-0.000314341,-2.4353,0.275614,0.214067,-30.6571,0.085645,
2,0,0,1,0,1182.08,0.0844447,0.0841678,-3.62752,1,0.00648852,11,-0.00030532,-2.44039,0.272736,0.216326,-30.573,0.0841678,
2,0,0,1,0,1182.11,0.0829492,0.0826559,-3.57724,1,0.00635378,11,-0.00029568,-2.44645,0.258769,0.228003,-31.7898,0.0826559,
2,0,0,1,0,1182.15,0.0814528,0.0812009,-3.52474,1,0.00622094,11,-0.000286212,-2.45287,0.260617,0.226386,-31.1358,0.0812009,
2,0,0,1,0,1182.19,0.0799528,0.0796306,-3.48163,1,0.00608943,11,-0.000277245,-2.45822,0.293936,0.200724,-27.2433,0.0796306,
2,0,0,1,0,1182.23,0.0784529,0.0781382,-3.43709,1,0.00595955,11,-0.000268568,-2.46381,0.262421,0.224829,-30.155,0.0781382,
2,0,0,1,0,1182.26,0.0769565,0.0766528,-3.388,1,0.00583163,11,-0.0002597,-2.47006,0.235678,0.250342,-33.1276,0.07665281,
2,0,0,1,0,1182.3,0.0754601,0.0751831,-3.33498,1,0.00570557,11,-0.000250734,-2.47691,0.241183,0.244627,-31.961,0.0751831,
2,0,0,1,0,1182.34,0.0739601,0.0736745,-3.29779,1,0.00558106,11,-0.000242963,-2.48178,0.240692,0.245127,-31.5722,0.07367453,
2,0,0,1,0,1182.38,0.0724601,0.0721806,-3.25598,1,0.00545812,11,-0.000235018,-2.48732,0.261439,0.225674,-28.6224,0.0721806,
2,0,0,1,0,1182.41,0.0709637,0.0706466,-3.21472,1,0.00533714,11,-0.000227109,-2.49286,0.237163,0.248774,-31.0577,0.0706466,
2,0,0,1,0,1182.45,0.0694682,0.069168,-3.16759,1,0.00521777,11,-0.000219096,-2.49927,0.248285,0.23763,-29.3274,0.069168,
2,0,0,1,0,1182.49,0.0679646,0.0676463,-3.11676,1,0.00509969,11,-0.000210837,-2.5063,0.268453,0.219778,-26.8142,0.0676463,
2,0,0,1,0,1182.53,0.0664691,0.0661316,-3.07694,1,0.00498361,11,-0.000203483,-2.51188,0.274601,0.214857,-25.8264,0.0661316,
2,0,0,1,0,1182.56,0.0649727,0.0646563,-3.03536,1,0.00486891,11,-0.000196255,-2.51779,0.24379,0.242011,-28.7169,0.0646563,
2,0,0,1,0,1182.6,0.0634727,0.0631971,-3.00175,1,0.00475543,11,-0.000189702,-2.52263,0.251845,0.234271,-27.4793,0.0631971,
2,0,0,1,0,1182.64,0.0619728,0.0616797,-2.9621,1,0.00464362,11,-0.000182702,-2.5284,0.256937,0.229628,-26.5761,0.0616797,
2,0,0,1,0,1182.68,0.0604764,0.0602077,-2.92843,1,0.00453337,11,-0.000176314,-2.53336,0.313656,0.188104,-21.4682,0.0602077,
2,0,0,1,0,1182.71,0.05898,0.058686,-2.90333,1,0.00442432,11,-0.000170385,-2.5371,0.318759,0.185093,-20.9022,0.058686,
2,0,0,1,0,1182.75,0.05748,0.0571725,-2.86898,1,0.00431614,11,-0.000164027,-2.54227,0.308047,0.191529,-21.3937,0.0571725,
2,0,0,1,0,1182.79,0.05598,0.0556752,-2.82784,1,0.00420928,11,-0.00015744,-2.54855,0.368269,0.160209,-17.7604,0.0556752,
2,0,0,1,0,1182.83,0.0544836,0.0542274,-2.80303,1,0.00410375,11,-0.000152001,-2.55237,0.513714,0.11485,-12.5964,0.0542274,
2,0,0,1,0,1182.86,0.0529881,0.0526735,-2.78678,1,0.0039989,11,-0.000146789,-2.5549,0.496118,0.118923,-12.9524,0.0526735,
2,0,0,1,0,1182.9,0.0514846,0.0512028,-2.75824,1,0.00389435,11,-0.000141229,-2.55937,0.39163,0.150652,-16.2561,0.0512028,
2,0,0,1,0,1182.94,0.049989,0.0497042,-2.73268,1,0.00379125,11,-0.000135826,-2.56341,0.470092,0.125507,-13.4315,0.0497042,
2,0,0,1,0,1182.98,0.0484926,0.0481507,-2.72296,1,0.00368913,11,-0.000131113,-2.56496,0.492249,0.119858,-12.7357,0.0481507,
2,0,0,1,0,1183.01,0.0469927,0.0466738,-2.71244,1,0.00358716,11,-0.0001266,-2.56664,0.831096,0.0709906,-7.48745,0.0466738,
2,0,0,1,0,1183.05,0.0454927,0.0451889,-2.69728,1,0.00348573,11,-0.000121887,-2.56907,0.48852,0.120773,-12.6601,0.0451889,
2,0,0,1,0,1183.09,0.0439963,0.0436919,-2.67702,1,0.00338506,11,-0.000116964,-2.57235,0.699397,0.0843584,-8.83459,0.0436919,
2,0,0,1,0,1183.13,0.0424999,0.0422091,-2.66309,1,0.00328507,11,-0.000112407,-2.57461,0.96511,0.0611329,-6.38723,0.0422091,
2,0,0,1,0,1183.16,0.0409999,0.040725,-2.6575,1,0.00318505,11,-0.000108227,-2.57553,1.17628,0.0501581,-5.21875,0.04072497,
2,0,0,1,0,1183.2,0.0394999,0.039204,-2.65319,1,0.00308516,11,-0.000104016,-2.57623,1.17876,0.0500527,-5.18055,0.039204,
2,0,0,1,0,1183.24,0.0380044,0.0376685,-2.64675,1,0.0029859,11,-9.96991e-05,-2.57729,1.17747,0.0501074,-5.18065,0.0376685,
2,0,0,1,0,1183.28,0.0365089,0.03618,-2.63861,1,0.0028871,11,-9.5465e-05,-2.57862,1.96196,0.030072,-3.09829,0.03618,
2,0,0,1,0,1183.31,0.0350054,0.034661,-2.63796,1,0.00278779,11,-9.14345e-05,-2.57873,-9.53883,-0.00618524,0.634435,0.034661,
2,0,0,1,0,1183.35,0.033509,0.0332189,-2.63721,1,0.00268908,11,-8.76054e-05,-2.57885,3.99375,0.0147731,-1.5175,0.0332189,
2,0,0,1,0,1183.39,0.0320125,0.0316626,-2.62816,1,0.00259049,11,-8.32146e-05,-2.58035,3.85678,0.0152977,-1.57033,0.0316626,
2,0,0,1,0,1183.43,0.0305126,0.0302187,-2.61778,1,0.00249181,11,-7.9106e-05,-2.58207,12.4734,0.00473006,-0.486189,0.0302187,
2,0,0,1,0,1183.46,0.0290126,0.0286809,-2.62479,1,0.0023931,11,-7.52814e-05,-2.58091,-1.98225,-0.0297642,3.05988,0.0286809,
2,0,0,1,0,1183.5,0.0275162,0.0272451,-2.63274,1,0.00229451,11,-7.17293e-05,-2.57959,-8.12943,-0.00725758,0.746524,0.0272451,
2,0,0,1,0,1183.54,0.0260198,0.0257152,-2.63952,1,0.00219575,11,-6.78759e-05,-2.57847,12.9661,0.00455033,-0.467231,0.02571523,
2,0,0,1,0,1183.58,0.0245198,0.0242272,-2.63534,1,0.0020968,11,-6.38467e-05,-2.57916,-4.40442,-0.0133956,1.37868,0.0242272,
2,0,0,1,0,1183.61,0.0230198,0.0227454,-2.65021,1,0.00199778,11,-6.02802e-05,-2.57672,-1.64323,-0.035905,3.69458,0.0227454,
2,0,0,1,0,1183.65,0.0215243,0.0211987,-2.6532,1,0.00189869,11,-5.62444e-05,-2.57623,-1.13849,-0.0518232,5.35377,0.0211987,
2,0,0,1,0,1183.69,0.0200288,0.019702,-2.65036,1,0.00179943,11,-5.22175e-05,-2.5767,-3.53837,-0.0166743,1.72488,0.019702,
2,0,0,1,0,1183.73,0.0185253,0.0182143,-2.65617,1,0.00169934,11,-4.83801e-05,-2.57574,-1.44186,-0.0409193,4.25267,0.0182143,
2,0,0,1,0,1183.76,0.0170289,0.0167416,-2.65445,1,0.00159985,11,-4.44399e-05,-2.57602,-1.08313,-0.0544716,5.68534,0.0167416,
2,0,0,1,0,1183.8,0.0155325,0.0152588,-2.67239,1,0.00149989,11,-4.07775e-05,-2.5731,-0.778666,-0.0757706,7.91144,0.0152588,
2,0,0,1,0,1183.84,0.0140325,0.0137253,-2.68922,1,0.00139916,11,-3.69103e-05,-2.57037,-1.12711,-0.0523465,5.47521,0.0137253,
2,0,0,1,0,1183.88,0.0125325,0.0121822,-2.69488,1,0.00129815,11,-3.28294e-05,-2.56946,-1.38311,-0.0426574,4.47542,0.0121822,
2,0,0,1,0,1183.91,0.0110361,0.0107412,-2.70023,1,0.00119732,11,-2.90038e-05,-2.5686,-1.00636,-0.0586273,6.17134,0.0107412,
2,0,0,1,0,1183.95,0.0095397,0.00926452,-2.71161,1,0.00109601,11,-2.51218e-05,-2.56677,-0.711985,-0.0828669,8.75091,0.00926452,
2,0,0,1,0,1183.99,0.00803616,0.0077268,-2.71988,1,0.000993729,11,-2.1016e-05,-2.56545,-0.805964,-0.0732042,7.78538,0.0077268,
2,0,0,1,0,1184.03,0.00654064,0.00618584,-2.72831,1,0.000891598,11,-1.68769e-05,-2.56411,-0.859975,-0.0686066,7.32848,0.00618584,
2,0,0,1,0,1184.06,0.00504513,0.00472821,-2.72946,1,0.000789102,11,-1.29055e-05,-2.56392,-0.690617,-0.0854308,9.16993,0.00472821,
2,0,0,1,0,1184.1,0.00354515,0.00325522,-2.75451,1,0.000685878,11,-8.96656e-06,-2.55995,-0.328737,-0.179475,19.4668,0.00325522,
2,0,0,1,0,1184.14,0.00204518,0.00168788,-2.84521,1,0.000581582,11,-4.80237e-06,-2.54589,-0.627252,-0.0940611,10.1707,0.00168788,
2,0,0,1,0,1184.17,0.000548773,0.000199748,-2.80688,1,0.000476127,11,-5.6067e-07,-2.55178, , , ,0.000199748,
2,0,0,1,0,1184.18,0.000177222,-0.000168808,-2.79058,1,0.000450038,11,4.71071e-07,-2.55431, , , ,-0.000168808,