File: Figure_codes/Fig_3-5/rawdata_trumpetplot_data/before 10th/20221101_1-115_002_TrumpetPlot_ParaChange_16_CV_C01_3.csv
mode,ox/red,error,control changes,counter inc.,time/s,control/V,Ewe/V,<I>/mA,cycle number,(Q-Qo)/C,I Range,P/W,log(|I|),Tafel slope mV/dec,alpha_eff,dI/d(E-IR),E-IR/V,
2,1,0,1,0,4913.96,2.44065e-05,-0.00103155,61.3871,4,0.0000000E+000,10,-6.33241e-05,-1.21192, , , ,-0.00103155,
2,1,0,1,0,4913.97,0.00312067,0.00284317,57.3266,4,0.000182665,10,0.000162989,-1.24164, , , ,0.00284317,
2,1,0,1,0,4913.97,0.00711584,0.00681333,55.6351,4,0.000407931,10,0.000379061,-1.25465, , , ,0.00681333,
2,1,0,1,0,4913.97,0.011111,0.010774,54.99,4,0.000628973,10,0.00059246,-1.25972,-0.747948,-0.0788825,-172.222,0.010774,
2,1,0,1,0,4913.98,0.0151062,0.01476,54.6854,4,0.000848215,10,0.000807158,-1.26213,-2.03369,-0.0290113,-62.4238,0.01476,
2,1,0,1,0,4913.98,0.0191014,0.0187821,54.5815,4,0.00106671,10,0.00102516,-1.26295,-5.37818,-0.0109703,-23.4626,0.0187821,
2,1,0,1,0,4913.99,0.0231465,0.0228202,54.6359,4,0.00128517,10,0.0012468,-1.26252,-32.5695,-0.00181151,-3.86394,0.0228202,
2,1,0,1,0,4913.99,0.0271416,0.0267967,54.6141,4,0.00150368,10,0.00146348,-1.2627,30.272,0.001949,4.15418,0.0267967,
2,1,0,1,0,4913.99,0.0311368,0.0308273,54.6233,4,0.00172217,10,0.00168389,-1.26262,39.6875,0.00148662,3.17133,0.0308273,
2,1,0,1,0,4914,0.035132,0.0347816,54.648,4,0.0019407,10,0.00190074,-1.26243,18.0014,0.00327751,6.9929,0.0347816,
2,1,0,1,0,4914,0.0391272,0.0387538,54.6864,4,0.00215936,10,0.00211931,-1.26212,14.5881,0.00404439,8.6326,0.0387538,
2,1,0,1,0,4914.01,0.0431223,0.042795,54.726,4,0.0023782,10,0.002342,-1.26181,12.6578,0.00466115,9.95549,0.042795,
2,1,0,1,0,4914.01,0.0471175,0.0467907,54.7611,4,0.00259718,10,0.00256231,-1.26153,12.092,0.00487925,10.4293,0.0467907,
2,1,0,1,0,4914.01,0.0511127,0.0507746,54.8072,4,0.00281632,10,0.00278281,-1.26116,13.4123,0.00439893,9.408,0.0507746,
2,1,0,1,0,4914.02,0.0551079,0.0547384,54.8532,4,0.00303564,10,0.00300257,-1.2608,5.98268,0.0098618,21.1413,0.0547384,
2,1,0,1,0,4914.02,0.059103,0.0586821,54.8755,4,0.00325511,10,0.0032202,-1.26062,4.12951,0.0142874,30.697,0.0586821,
2,1,0,1,0,4914.03,0.0631481,0.0627975,55.0995,4,0.00347494,10,0.00346011,-1.25885,2.97221,0.0198505,42.7607,0.0627975,
2,1,0,1,0,4914.03,0.0671433,0.066791,55.2989,4,0.00369575,10,0.00369347,-1.25728,2.16855,0.0272071,58.7702,0.066791,
2,1,0,1,0,4914.03,0.0711385,0.0708142,55.5406,4,0.00391745,10,0.00393306,-1.25539,2.00093,0.0294863,63.9945,0.0708142,
2,1,0,1,0,4914.04,0.0751337,0.0748501,55.8257,4,0.00414022,10,0.00417855,-1.25317,1.72493,0.0342042,74.6119,0.0748501,
2,1,0,1,0,4914.04,0.0791288,0.0788245,56.1252,4,0.00436413,10,0.00442404,-1.25084,1.45841,0.0404549,88.8038,0.0788245,
2,1,0,1,0,4914.05,0.083124,0.082801,56.4934,4,0.0045894,10,0.00467771,-1.248,1.23905,0.0476171,105.295,0.082801,
2,1,0,1,0,4914.05,0.0871192,0.0867839,56.9587,4,0.00481636,10,0.0049431,-1.24444,1.05055,0.056161,125.191,0.0867839,
2,1,0,1,0,4914.05,0.0911143,0.0907912,57.5042,4,0.00504531,10,0.00522087,-1.2403,0.907702,0.0649993,146.254,0.0907912,
2,1,0,1,0,4914.06,0.0951095,0.0947825,58.123,4,0.00527662,10,0.00550904,-1.23565,0.807715,0.0730455,166.134,0.0947825,
2,1,0,1,0,4914.06,0.0991047,0.098793,58.8323,4,0.00551058,10,0.00581222,-1.23038,0.71555,0.0824541,189.913,0.098793,
2,1,0,1,0,4914.07,0.103114,0.102782,59.6166,4,0.00574751,10,0.00612753,-1.22463,0.65185,0.0905116,211.239,0.102782,
2,1,0,1,0,4914.07,0.107145,0.106865,60.5568,4,0.00598802,10,0.00647139,-1.21784,0.605516,0.0974376,230.671,0.1068648,
2,1,0,1,0,4914.07,0.11114,0.110817,61.5101,4,0.00623221,10,0.00681636,-1.21105,0.566141,0.104214,250.554,0.110817,
2,1,0,1,0,4914.08,0.115135,0.114803,62.5254,4,0.00648037,10,0.0071781,-1.20394,0.543131,0.108629,265.577,0.114803,
2,1,0,1,0,4914.08,0.119131,0.118823,63.6357,4,0.0067328,10,0.00756139,-1.1963,0.520401,0.113374,282.015,0.118823,
2,1,0,1,0,4914.09,0.123126,0.122762,64.7788,4,0.00698974,10,0.00795241,-1.18857,0.499452,0.118129,299.163,0.122762,
2,1,0,1,0,4914.09,0.127121,0.1268,66.0177,4,0.00725146,10,0.00837107,-1.18034,0.483334,0.122069,314.968,0.1268,
2,1,0,1,0,4914.09,0.131116,0.130816,67.3159,4,0.00751823,10,0.00880601,-1.17188,0.470879,0.125298,329.516,0.130816,
2,1,0,1,0,4914.1,0.135111,0.134765,68.657,4,0.0077903,10,0.00925257,-1.16332,0.460443,0.128138,343.688,0.134765,
2,1,0,1,0,4914.1,0.139106,0.138797,70.0624,4,0.00806787,10,0.00972444,-1.15451,0.448554,0.131534,360.191,0.138797,
2,1,0,1,0,4914.11,0.143102,0.142777,71.5085,4,0.00835113,10,0.0102097,-1.14564,0.439416,0.134269,375.31,0.142777,
2,1,0,1,0,4914.11,0.147147,0.146867,73.0971,4,0.00864053,10,0.0107355,-1.1361,0.431557,0.136714,390.25,0.146867,
2,1,0,1,0,4914.11,0.151142,0.150793,74.6724,4,0.0089362,10,0.0112601,-1.12684,0.423518,0.139309,406.212,0.150793,
2,1,0,1,0,4914.12,0.155137,0.154807,76.3103,4,0.0092383,10,0.0118134,-1.11742,0.418674,0.140921,420.134,0.154807,
2,1,0,1,0,4914.12,0.159132,0.158798,78.0167,4,0.00954714,10,0.0123889,-1.10781,0.414514,0.142335,433.796,0.158798,
2,1,0,1,0,4914.13,0.163127,0.162783,79.7842,4,0.0098629,10,0.0129875,-1.09808,0.405379,0.145543,453.684,0.162783,
2,1,0,1,0,4914.13,0.167123,0.166798,81.6152,4,0.0101859,10,0.0136132,-1.08823,0.399849,0.147556,470.522,0.166798,
2,1,0,1,0,4914.13,0.171118,0.170752,83.5445,4,0.0105164,10,0.0142654,-1.07808,0.396819,0.148682,485.075,0.170752,
2,1,0,1,0,4914.14,0.175113,0.174729,85.5123,4,0.0108547,10,0.0149415,-1.06797,0.393888,0.149789,500.055,0.174729,
2,1,0,1,0,4914.14,0.179108,0.178747,87.5277,4,0.011201,10,0.0156453,-1.05785,0.394961,0.149382,510.554,0.178747,
2,1,0,1,0,4914.15,0.183103,0.182747,89.5909,4,0.0115554,10,0.0163725,-1.04774,0.399318,0.147752,516.647,0.182747,
2,1,0,1,0,4914.15,0.187146,0.186791,91.7331,4,0.0119182,10,0.0171349,-1.03747,0.40746,0.144799,517.822,0.186791,
2,1,0,1,0,4914.15,0.191143,0.190792,93.8112,4,0.0122895,10,0.0178984,-1.02775,0.419702,0.140576,513.844,0.190792,
2,1,0,1,0,4914.16,0.195139,0.194846,95.8641,4,0.012669,10,0.0186787,-1.01834,0.438367,0.134591,502.614,0.194846,
2,1,0,1,0,4914.16,0.199134,0.198824,97.8519,4,0.0130567,10,0.0194553,-1.00943,0.465392,0.126775,483.02,0.198824,
2,1,0,1,0,4914.17,0.203129,0.20275,99.7543,4,0.0134521,10,0.0202252,-1.00107,0.500673,0.117841,457.467,0.20275,
2,1,0,1,0,4914.17,0.207124,0.206802,101.544,4,0.0138549,10,0.0209996,-0.993344,0.556588,0.106003,418.512,0.206802,
2,1,0,1,0,4914.17,0.211119,0.210811,103.168,4,0.0142646,10,0.0217489,-0.986456,0.645371,0.0914202,366.283,0.210811,
2,1,0,1,0,4914.18,0.215115,0.214829,104.55,4,0.0146802,10,0.0224604,-0.980676,0.801603,0.0736025,298.502,0.214829,
2,1,0,1,0,4914.18,0.21911,0.21878,105.626,4,0.0151008,10,0.0231089,-0.976229,1.13872,0.0518125,212.032,0.21878,
2,1,0,1,0,4914.19,0.223105,0.222829,106.328,4,0.0155249,10,0.023693,-0.973351,2.17395,0.0271396,111.682,0.222829,
2,1,0,1,0,4914.19,0.227108,0.226845,106.567,4,0.0159508,10,0.0241742,-0.972376,-19.5839,-0.00301267,-12.4073,0.2268445,
2,1,0,1,0,4914.19,0.231145,0.230857,106.34,4,0.0163768,10,0.0245494,-0.973303,-1.57812,-0.0373864,-153.334,0.230857,
2,1,0,1,0,4914.2,0.23514,0.234855,105.426,4,0.0168005,10,0.0247599,-0.97705,-0.776051,-0.076026,-308.781,0.234855,
2,1,0,1,0,4914.2,0.239136,0.238919,103.861,4,0.017219,10,0.0248145,-0.983547,-0.498862,-0.118269,-473.094,0.238919,
2,1,0,1,0,4914.21,0.243131,0.242893,101.612,4,0.0176299,10,0.0246808,-0.993055,-0.366277,-0.16108,-630.311,0.2428927,
2,1,0,1,0,4914.21,0.247126,0.246904,98.7483,4,0.0180305,10,0.0243814,-1.00547,-0.285975,-0.206312,-784.603,0.246904,
2,1,0,1,0,4914.21,0.251121,0.250961,95.2744,4,0.0184184,10,0.0239102,-1.02102,-0.236895,-0.249056,-914.364,0.250961,
2,1,0,1,0,4914.22,0.255116,0.254929,91.2997,4,0.0187913,10,0.023275,-1.03953,-0.201179,-0.293272,-1032.75,0.254929,
2,1,0,1,0,4914.22,0.259111,0.258967,86.9139,4,0.0191473,10,0.0225079,-1.06091,-0.177604,-0.3322,-1115.45,0.258967,
2,1,0,1,0,4914.23,0.263107,0.262908,82.2205,4,0.0194852,10,0.0216164,-1.08502,-0.162193,-0.363765,-1159.01,0.262908,
2,1,0,1,0,4914.23,0.267102,0.26697,77.4172,4,0.019804,10,0.0206681,-1.11116,-0.149995,-0.393346,-1183,0.26697,
2,1,0,1,0,4914.23,0.271147,0.270988,72.6873,4,0.0201037,10,0.0196974,-1.13854,-0.143209,-0.411985,-1165.19,0.270988,
2,1,0,1,0,4914.24,0.275142,0.274967,67.9865,4,0.0203846,10,0.018694,-1.16758,-0.138953,-0.424604,-1126.81,0.274967,
2,1,0,1,0,4914.24,0.279137,0.278957,63.5201,4,0.0206471,10,0.0177194,-1.19709,-0.137465,-0.429201,-1068.27,0.2789571,
2,1,0,1,0,4914.25,0.283132,0.282979,59.3781,4,0.0208924,10,0.0168028,-1.22637,-0.140437,-0.420116,-980.574,0.282979,
2,1,0,1,0,4914.25,0.287128,0.286961,55.6241,4,0.0211219,10,0.0159619,-1.25474,-0.146333,-0.40319,-883.905,0.286961,
2,1,0,1,0,4914.25,0.291123,0.290953,52.3104,4,0.0213373,10,0.0152199,-1.28141,-0.155281,-0.379957,-785.42,0.290953,
2,1,0,1,0,4914.26,0.295118,0.294913,49.4166,4,0.0215403,10,0.0145736,-1.30613,-0.161619,-0.365057,-724.777,0.294913,
2,1,0,1,0,4914.26,0.298913,0.298695,47.0344,4,0.0217234,10,0.014049,-1.32758,-0.0804442,-0.733428,-1341,0.298695,
2,1,0,1,0,4914.26,0.300012,0.299689,46.399,4,0.0217748,10,0.0139053,-1.33349,0.000811217,72.7303,108143,0.2996892,
2,1,0,1,0,4914.26,0.298714,0.298804,41.7833,4,0.0218303,10,0.012485,-1.379,0.019766,2.98493,3559.16,0.298804,
2,1,0,1,0,4914.27,0.294718,0.294721,28.6585,4,0.021969,10,0.00844625,-1.54275,0.0200549,2.94193,2763.95,0.294721,
2,1,0,1,0,4914.27,0.290723,0.290667,18.4611,4,0.0220615,10,0.00536605,-1.73374,0.0157498,3.74609,2343.3,0.290667,
2,1,0,1,0,4914.28,0.286728,0.286665,10.4014,4,0.0221179,10,0.00298171,-1.98291,0.0118913,4.9616,1853.42,0.2866652,
2,1,0,1,0,4914.28,0.282733,0.282655,3.94149,4,0.0221456,10,0.00111408,-2.40434,0.0303891,1.94149,1486.2,0.282655,
2,0,0,1,0,4914.28,0.278738,0.27858,-1.25846,4,0.0221502,10,-0.00035058,-2.90016,0.225484,0.261659,1193.8,0.27858,
2,0,0,1,0,4914.29,0.274742,0.274576,-5.45429,4,0.0221361,10,-0.00149761,-2.26326,-0.0343752,-1.71635,964.007,0.274576,
2,0,0,1,0,4914.29,0.270747,0.270561,-8.82405,4,0.022107,10,-0.00238744,-2.05433,-0.0154158,-3.82724,784.626,0.2705608,
2,0,0,1,0,4914.3,0.266702,0.266505,-11.6272,4,0.0220656,10,-0.00309871,-1.93452,-0.0348911,-1.69097,640.16,0.266505,
2,0,0,1,0,4914.3,0.262707,0.262517,-13.8619,4,0.0220143,10,-0.00363898,-1.85818,-0.0551138,-1.07051,525.632,0.262517,
2,0,0,1,0,4914.3,0.258712,0.258529,-15.7263,4,0.0219549,10,-0.00406572,-1.80337,-0.0784898,-0.75169,435.348,0.258529,
2,0,0,1,0,4914.31,0.254717,0.254477,-17.2784,4,0.0218886,10,-0.00439696,-1.7625,-0.105024,-0.561776,364.193,0.254477,
2,0,0,1,0,4914.31,0.250722,0.250497,-18.5962,4,0.0218167,10,-0.0046583,-1.73058,-0.134154,-0.439794,310.603,0.250497,
2,0,0,1,0,4914.32,0.246726,0.24648,-19.7023,4,0.0217399,10,-0.00485623,-1.70548,-0.165739,-0.355982,268.735,0.24648,
2,0,0,1,0,4914.32,0.242731,0.242537,-20.6935,4,0.021659,10,-0.00501895,-1.68417,-0.200844,-0.29376,233.979,0.242537,
2,0,0,1,0,4914.32,0.238736,0.23852,-21.5666,4,0.0215743,10,-0.00514407,-1.66622,-0.233599,-0.25257,210.358,0.23852,
2,0,0,1,0,4914.33,0.234741,0.234514,-22.3358,4,0.0214864,10,-0.00523806,-1.651,-0.264964,-0.222671,192.991,0.234514,
2,0,0,1,0,4914.33,0.230746,0.230481,-23.0679,4,0.0213955,10,-0.00531671,-1.63699,-0.299209,-0.197187,176.642,0.230481,
2,0,0,1,0,4914.34,0.226701,0.226469,-23.7946,4,0.0213018,10,-0.00538873,-1.62352,-0.328212,-0.179762,165.898,0.226469,
2,0,0,1,0,4914.34,0.222705,0.222485,-24.399,4,0.0212053,10,-0.00542841,-1.61263,-0.35431,-0.166521,157.987,0.222485,
2,0,0,1,0,4914.34,0.21871,0.2184,-25.0091,4,0.0211065,10,-0.00546199,-1.6019,-0.383109,-0.154003,150.094,0.2184,
2,0,0,1,0,4914.35,0.214715,0.214476,-25.5965,4,0.0210052,10,-0.00548982,-1.59182,-0.395574,-0.14915,148.843,0.2144759,
2,0,0,1,0,4914.35,0.21072,0.210512,-26.1896,4,0.0209015,10,-0.00551323,-1.58187,-0.403413,-0.146252,149.437,0.210512,
2,0,0,1,0,4914.36,0.206725,0.206494,-26.7791,4,0.0207956,10,-0.00552974,-1.5722,-0.403902,-0.146075,152.779,0.206494,
2,0,0,1,0,4914.36,0.20273,0.20247,-27.3896,4,0.0206872,10,-0.00554558,-1.56241,-0.401387,-0.14699,157.358,0.20247,
2,0,0,1,0,4914.36,0.198734,0.198487,-28.0392,4,0.0205763,10,-0.00556542,-1.55223,-0.390112,-0.151239,165.768,0.1984871,
2,0,0,1,0,4914.37,0.194739,0.194493,-28.7104,4,0.0204627,10,-0.00558396,-1.54196,-0.374596,-0.157503,176.901,0.194493,
2,0,0,1,0,4914.37,0.190744,0.190487,-29.4325,4,0.0203464,10,-0.00560653,-1.53117,-0.357499,-0.165035,190.25,0.1904874,
2,0,0,1,0,4914.38,0.186735,0.186499,-30.2149,4,0.020227,10,-0.00563505,-1.51978,-0.339413,-0.17383,205.745,0.186499,
2,0,0,1,0,4914.38,0.182704,0.182454,-31.0896,4,0.0201043,10,-0.00567241,-1.50739,-0.322879,-0.182731,222.339,0.182454,
2,0,0,1,0,4914.38,0.178709,0.178479,-32.0051,4,0.019978,10,-0.00571224,-1.49478,-0.306911,-0.192238,240.856,0.178479,
2,0,0,1,0,4914.39,0.174713,0.174488,-32.9898,4,0.019848,10,-0.00575633,-1.48162,-0.291411,-0.202463,261.831,0.174488,
2,0,0,1,0,4914.39,0.170718,0.170496,-34.0695,4,0.0197138,10,-0.00580869,-1.46763,-0.275305,-0.214308,286.407,0.170496,
2,0,0,1,0,4914.4,0.166723,0.166479,-35.2723,4,0.019575,10,-0.00587209,-1.45257,-0.258273,-0.22844,316.106,0.166479,
2,0,0,1,0,4914.4,0.162728,0.162489,-36.5847,4,0.0194312,10,-0.00594462,-1.4367,-0.24223,-0.24357,349.711,0.162489,
2,0,0,1,0,4914.4,0.158733,0.158501,-38.0433,4,0.0192818,10,-0.00602992,-1.41972,-0.229812,-0.256731,383.234,0.158501,
2,0,0,1,0,4914.41,0.154737,0.154537,-39.6502,4,0.0191263,10,-0.00612744,-1.40175,-0.218381,-0.27017,420.128,0.1545375,
2,0,0,1,0,4914.41,0.150742,0.150519,-41.3888,4,0.0189641,10,-0.00622978,-1.38312,-0.207461,-0.28439,462.04,0.150519,
2,0,0,1,0,4914.42,0.146747,0.146518,-43.2949,4,0.0187946,10,-0.00634346,-1.36356,-0.200622,-0.294086,499.606,0.146518,
2,0,0,1,0,4914.42,0.142702,0.142505,-45.4342,4,0.018617,10,-0.00647461,-1.34262,-0.194435,-0.303444,539.72,0.142505,
2,0,0,1,0,4914.42,0.138707,0.138515,-47.6553,4,0.0184306,10,-0.00660096,-1.32189,-0.190126,-0.310321,578.445,0.138515,
2,0,0,1,0,4914.43,0.134712,0.1345,-50.0343,4,0.018235,10,-0.00672961,-1.30073,-0.189992,-0.31054,607.407,0.1345,
2,0,0,1,0,4914.43,0.130717,0.130556,-52.5276,4,0.0180297,10,-0.00685781,-1.27961,-0.189063,-0.312065,640.581,0.1305564,
2,0,0,1,0,4914.44,0.126721,0.126568,-55.1144,4,0.0178142,10,-0.00697573,-1.25874,-0.189931,-0.31064,669.075,0.126568,
2,0,0,1,0,4914.44,0.122726,0.122568,-57.8702,4,0.017588,10,-0.00709306,-1.23754,-0.19334,-0.305162,689.304,0.122568,
2,0,0,1,0,4914.44,0.118731,0.118579,-60.6866,4,0.0173506,10,-0.00719616,-1.21691,-0.196728,-0.299907,709.446,0.118579,
2,0,0,1,0,4914.45,0.114736,0.114521,-63.5809,4,0.0171018,10,-0.00728134,-1.19667,-0.203781,-0.289527,716.583,0.114521,
2,0,0,1,0,4914.45,0.110741,0.110567,-66.4666,4,0.0168414,10,-0.00734899,-1.1774,-0.213521,-0.27632,714.165,0.110567,
2,0,0,1,0,4914.46,0.106745,0.106604,-69.3101,4,0.0165695,10,-0.00738872,-1.1592,-0.221966,-0.265806,717.06,0.106604,
2,0,0,1,0,4914.46,0.102703,0.10261,-72.0908,4,0.0162865,10,-0.00739727,-1.14212,-0.234903,-0.251167,705.23,0.10261,
2,0,0,1,0,4914.46,0.0987052,0.0986244,-74.9797,4,0.0159921,10,-0.00739482,-1.12506,-0.247816,-0.23808,694.267,0.0986244,
2,0,0,1,0,4914.47,0.09471,0.0946129,-77.7177,4,0.0156865,10,-0.0073531,-1.10948,-0.263342,-0.224043,676.538,0.0946129,
2,0,0,1,0,4914.47,0.0907148,0.0906226,-80.4054,4,0.0153699,10,-0.00728654,-1.09471,-0.284385,-0.207466,648.07,0.0906226,
2,0,0,1,0,4914.48,0.0867197,0.0866185,-82.91,4,0.015043,10,-0.00718154,-1.08139,-0.304195,-0.193954,625.235,0.0866185,
2,0,0,1,0,4914.48,0.0827245,0.082661,-85.3251,4,0.0147063,10,-0.00705306,-1.06892,-0.330725,-0.178396,592.251,0.082661,
2,0,0,1,0,4914.48,0.0787293,0.078675,-87.6826,4,0.01436,10,-0.00689843,-1.05709,-0.35896,-0.164364,560.211,0.078675,
2,0,0,1,0,4914.49,0.0747342,0.074585,-89.9037,4,0.0140046,10,-0.00670546,-1.04622,-0.398393,-0.148095,516.845,0.074585,
2,0,0,1,0,4914.49,0.070739,0.0705491,-91.9123,4,0.0136407,10,-0.00648433,-1.03663,-0.453593,-0.130073,463.889,0.0705491,
2,0,0,1,0,4914.5,0.0667438,0.0665471,-93.6535,4,0.0132693,10,-0.00623237,-1.02848,-0.521584,-0.113117,411.365,0.0665471,
2,0,0,1,0,4914.5,0.0627403,0.0625006,-95.1858,4,0.0128914,10,-0.00594917,-1.02143,-0.627438,-0.0940331,347.465,0.0625006,
2,0,0,1,0,4914.5,0.0587035,0.0584509,-96.5407,4,0.0125077,10,-0.00564289,-1.01529,-0.775091,-0.0761201,284.95,0.0584509,
2,0,0,1,0,4914.51,0.0547083,0.05445,-97.5062,4,0.0121194,10,-0.00530921,-1.01097,-1.04002,-0.0567299,214.521,0.05445,
2,0,0,1,0,4914.51,0.0507132,0.050518,-98.221,4,0.0117278,10,-0.00496193,-1.0078,-1.64295,-0.0359111,136.828,0.050518,
2,0,0,1,0,4914.52,0.046718,0.0464884,-98.6207,4,0.011334,10,-0.00458472,-1.00603,-3.29352,-0.017914,68.5508,0.0464884,
2,0,0,1,0,4914.52,0.0427228,0.0424737,-98.7268,4,0.0109392,10,-0.0041933,-1.00557,206.545,0.000285652,-1.09488,0.0424737,
2,0,0,1,0,4914.52,0.0387276,0.0384919,-98.6001,4,0.0105445,10,-0.00379531,-1.00612,3.50602,0.0168282,-64.4299,0.03849192,
2,0,0,1,0,4914.53,0.0347325,0.0344825,-98.2034,4,0.0101509,10,-0.0033863,-1.00787,1.87288,0.0315022,-120.193,0.0344825,
2,0,0,1,0,4914.53,0.0307373,0.0304699,-97.5886,4,0.00975928,10,-0.00297352,-1.0106,1.30421,0.0452382,-171.649,0.0304699,
2,0,0,1,0,4914.54,0.0267421,0.0264849,-96.805,4,0.00937053,10,-0.00256387,-1.0141,1.08964,0.0541462,-204.038,0.0264849,
2,0,0,1,0,4914.54,0.022747,0.0225296,-95.8602,4,0.00898525,10,-0.00215969,-1.01836,0.931411,0.0633447,-236.527,0.0225296,
2,0,0,1,0,4914.54,0.0187018,0.0184237,-94.9268,4,0.00860374,10,-0.00174891,-1.02261,0.827772,0.0712757,-263.344,0.0184237,
2,0,0,1,0,4914.55,0.0147067,0.0144101,-93.79,4,0.00822642,10,-0.00135152,-1.02784,0.757516,0.0778861,-284.372,0.0144101,
2,0,0,1,0,4914.55,0.0107115,0.0104007,-92.5693,4,0.00785378,10,-0.000962785,-1.03353,0.679346,0.0868483,-313.186,0.0104007,
2,0,0,1,0,4914.56,0.00671632,0.00644325,-91.2857,4,0.00748617,10,-0.000588176,-1.0396,0.638426,0.0924148,-328.668,0.00644325,
2,0,0,1,0,4914.56,0.00272115,0.00244022,-89.921,4,0.00712388,10,-0.000219427,-1.04614,0.58899,0.100171,-350.784,0.00244022,
2,0,0,1,0,4914.56,-0.00127403,-0.00163387,-88.5169,4,0.00676705,10,0.000144625,-1.05297,0.541541,0.108948,-375.194,-0.00163387,
2,0,0,1,0,4914.57,-0.0052692,-0.00562736,-86.947,4,0.00641625,10,0.000489282,-1.06075,0.49775,0.118533,-400.941,-0.00562736,
2,0,0,1,0,4914.57,-0.00926438,-0.00960282,-85.2653,4,0.00607195,10,0.000818787,-1.06923,0.454637,0.129774,-430.675,-0.00960282,
2,0,0,1,0,4914.58,-0.0132596,-0.0135719,-83.5011,4,0.00573458,10,0.00113327,-1.07831,0.429346,0.137418,-446.848,-0.0135719,
2,0,0,1,0,4914.58,-0.0172547,-0.0175877,-81.646,4,0.00540446,10,0.00143596,-1.08807,0.407573,0.144759,-460.534,-0.0175877,
2,0,0,1,0,4914.58,-0.0212915,-0.02163,-79.7962,4,0.00508182,10,0.00172599,-1.09802,0.390471,0.1511,-469.823,-0.02163,
2,0,0,1,0,4914.59,-0.025295,-0.0256362,-77.8814,4,0.00476663,10,0.00199658,-1.10857,0.380864,0.154911,-470.476,-0.0256362,
2,0,0,1,0,4914.59,-0.0292902,-0.029618,-75.9622,4,0.00445916,10,0.00224985,-1.1194,0.378165,0.156017,-462.997,-0.029618,
2,0,0,1,0,4914.6,-0.0332854,-0.0335935,-74.1157,4,0.00415921,10,0.0024898,-1.13009,0.38681,0.15253,-442.309,-0.0335935,
2,0,0,1,0,4914.6,-0.0372805,-0.0375965,-72.4038,4,0.00386639,10,0.00272213,-1.14024,0.410091,0.14387,-407.933,-0.0375965,
2,0,0,1,0,4914.6,-0.0412757,-0.0415635,-70.8366,4,0.00358011,10,0.00294422,-1.14974,0.442628,0.133295,-369.968,-0.0415635,
2,0,0,1,0,4914.61,-0.0452709,-0.0456036,-69.4412,4,0.00329973,10,0.00316677,-1.15838,0.487466,0.121034,-329.42,-0.0456036,
2,0,0,1,0,4914.61,-0.0492661,-0.0495706,-68.2046,4,0.00302462,10,0.00338095,-1.16619,0.550719,0.107133,-286.482,-0.0495706,
2,0,0,1,0,4914.62,-0.0532612,-0.0535715,-67.1413,4,0.00275406,10,0.00359686,-1.17301,0.632781,0.0932392,-245.485,-0.0535715,
2,0,0,1,0,4914.62,-0.0572564,-0.057564,-66.2527,4,0.00248738,10,0.00381377,-1.1788,0.764796,0.0771447,-200.474,-0.057564,
2,0,0,1,0,4914.62,-0.0612544,-0.0615702,-65.5216,4,0.00222396,10,0.00403418,-1.18362,0.923271,0.0639033,-164.144,-0.0615702,
2,0,0,1,0,4914.63,-0.0652967,-0.0655817,-64.9948,4,0.00196291,10,0.00426247,-1.18712,1.12386,0.0524975,-133.541,-0.0655817,
2,0,0,1,0,4914.63,-0.0692919,-0.0695996,-64.5104,4,0.00170399,10,0.0044899,-1.19037,1.45007,0.0406877,-102.731,-0.0695996,
2,0,0,1,0,4914.64,-0.0732871,-0.0735454,-64.1185,4,0.00144679,10,0.00471562,-1.19302,1.84032,0.0320597,-80.5146,-0.0735454,
2,0,0,1,0,4914.64,-0.0772822,-0.0775908,-63.8758,4,0.00119086,10,0.00495618,-1.19466,2.63844,0.0223617,-55.908,-0.0775908,
2,0,0,1,0,4914.64,-0.0812774,-0.0815345,-63.7104,4,0.000935741,10,0.00519459,-1.19579,4.64124,0.0127121,-31.6837,-0.0815345,
2,0,0,1,0,4914.65,-0.0852726,-0.0855778,-63.6171,4,0.000681101,10,0.00544421,-1.19643,10.2717,0.00574395,-14.2934,-0.0855778,
2,0,0,1,0,4914.65,-0.0892678,-0.0896127,-63.6095,4,0.00042666,10,0.00570021,-1.19648,-49.5779,-0.00119005,2.96005,-0.0896127,
2,0,0,1,0,4914.66,-0.0932629,-0.0935362,-63.6479,4,0.000172165,10,0.00595338,-1.19622,-7.29742,-0.00808505,20.1242,-0.0935362,
2,0,0,1,0,4914.66,-0.0972581,-0.097554,-63.7578,4,-8.26521e-05,10,0.00621983,-1.19547,-3.8322,-0.0153959,38.4038,-0.097554,
2,0,0,1,0,4914.66,-0.101253,-0.101593,-63.9394,4,-0.000338053,10,0.0064958,-1.19423,-2.91609,-0.0202326,50.5775,-0.101593,
2,0,0,1,0,4914.67,-0.105298,-0.105584,-64.2229,4,-0.000594371,10,0.00678094,-1.19231,-2.42905,-0.0242893,60.899,-0.1055845,
2,0,0,1,0,4914.67,-0.109294,-0.109603,-64.4606,4,-0.000851756,10,0.0070651,-1.19071,-2.13271,-0.0276643,69.6302,-0.109603,
2,0,0,1,0,4914.68,-0.113289,-0.113556,-64.7323,4,-0.00111013,10,0.00735071,-1.18888,-2.00106,-0.0294844,74.5838,-0.113556,
2,0,0,1,0,4914.68,-0.117284,-0.117546,-65.0502,4,-0.00136972,10,0.00764638,-1.18675,-1.7914,-0.0329351,83.7106,-0.1175459,
2,0,0,1,0,4914.68,-0.121279,-0.121567,-65.4149,4,-0.00163068,10,0.00795229,-1.18432,-1.63361,-0.0361163,92.2784,-0.121567,
2,0,0,1,0,4914.69,-0.125274,-0.125567,-65.7969,4,-0.00189313,10,0.0082619,-1.18179,-1.52271,-0.0387467,99.5643,-0.125567,
2,0,0,1,0,4914.69,-0.129269,-0.129573,-66.2103,4,-0.0021572,10,0.00857908,-1.17907,-1.44198,-0.040916,105.798,-0.129573,
2,0,0,1,0,4914.7,-0.133265,-0.133524,-66.641,4,-0.00242294,10,0.00889818,-1.17626,-1.35315,-0.043602,113.499,-0.1335241,
2,0,0,1,0,4914.7,-0.13726,-0.137522,-67.1029,4,-0.00269047,10,0.00922811,-1.17326,-1.25686,-0.0469423,123.092,-0.137522,
2,0,0,1,0,4914.7,-0.141255,-0.141542,-67.61,4,-0.00295995,10,0.00956964,-1.16999,-1.20622,-0.048913,129.184,-0.141542,
2,0,0,1,0,4914.71,-0.145286,-0.145562,-68.1784,4,-0.00323151,10,0.00992418,-1.16635,-1.16812,-0.0505083,134.381,-0.145562,
2,0,0,1,0,4914.71,-0.149295,-0.149595,-68.7171,4,-0.00350539,10,0.0102797,-1.16294,-1.14999,-0.051305,137.57,-0.149595,
2,0,0,1,0,4914.72,-0.15329,-0.153532,-69.2543,4,-0.00378138,10,0.0106327,-1.15955,-1.14728,-0.0514259,139.054,-0.153532,
2,0,0,1,0,4914.72,-0.157286,-0.157573,-69.8154,4,-0.00405955,10,0.011001,-1.15605,-1.11802,-0.052772,143.872,-0.157573,
2,0,0,1,0,4914.72,-0.161281,-0.161559,-70.4029,4,-0.00434005,10,0.0113742,-1.15241,-1.09868,-0.0537008,147.601,-0.161559,
2,0,0,1,0,4914.73,-0.165276,-0.165524,-71.0089,4,-0.00462293,10,0.0117537,-1.14869,-1.07058,-0.0551105,152.768,-0.165524,
2,0,0,1,0,4914.73,-0.169271,-0.169525,-71.6149,4,-0.00490825,10,0.0121405,-1.145,-1.05291,-0.0560354,156.685,-0.169525,
2,0,0,1,0,4914.74,-0.173266,-0.17355,-72.2562,4,-0.00519605,10,0.0125401,-1.14112,-1.03149,-0.0571987,161.371,-0.17355,
2,0,0,1,0,4914.74,-0.177261,-0.177539,-72.9068,4,-0.00548641,10,0.0129438,-1.13723,-0.999572,-0.0590253,168.047,-0.177539,
2,0,0,1,0,4914.74,-0.181257,-0.181494,-73.5859,4,-0.00577947,10,0.0133554,-1.13321,-0.949764,-0.0621207,178.616,-0.181494,
2,0,0,1,0,4914.75,-0.185252,-0.185521,-74.303,4,-0.00607532,10,0.0137848,-1.12899,-0.929363,-0.0634843,184.269,-0.185521,
2,0,0,1,0,4914.75,-0.189297,-0.189541,-75.1125,4,-0.00637429,10,0.0142369,-1.12429,-0.902987,-0.0653387,191.538,-0.189541,
2,0,0,1,0,4914.76,-0.193292,-0.193574,-75.8615,4,-0.00667632,10,0.0146848,-1.11998,-0.88654,-0.0665508,196.752,-0.193574,
2,0,0,1,0,4914.76,-0.197287,-0.197558,-76.6628,4,-0.00698144,10,0.0151453,-1.11542,-1.0507,-0.0561533,166.592,-0.197558,
2,0,0,1,0,4914.76,-0.199984,-0.20036,-77.2227,4,-0.00718916,10,0.0154724,-1.11225,0.0678896,0.869058,-2419.7,-0.20036,
2,0,0,1,1,4914.76,-0.199984,-0.200456,-76.9308,4,-0.00723536,10,0.0154212,-1.1139,-0.0335311,-1.75956,4540.9,-0.200456,
2,0,0,1,1,4914.77,-0.196688,-0.197233,-67.0067,4,-0.00745514,10,0.0132159,-1.17388,-0.0528216,-1.11697,2662.67,-0.197233,
2,0,0,1,1,4914.77,-0.192693,-0.19314,-56.6026,4,-0.00770093,10,0.0109322,-1.24716,-0.0521088,-1.13225,2466.71,-0.19314,
2,0,0,1,1,4914.78,-0.188698,-0.189147,-47.3642,4,-0.00790768,10,0.00895877,-1.32455,-0.0491896,-1.19944,2199.71,-0.189147,
2,0,0,1,1,4914.78,-0.184653,-0.185072,-38.9821,4,-0.00807936,10,0.00721448,-1.40913,-0.0441187,-1.3373,2000.53,-0.185072,
2,0,0,1,1,4914.78,-0.180657,-0.181058,-31.4253,4,-0.00821922,10,0.00568979,-1.50272,-0.0383992,-1.53649,1824.03,-0.181058,
2,0,0,1,1,4914.79,-0.176662,-0.177089,-24.4914,4,-0.00833023,10,0.00433716,-1.61099,-0.0315995,-1.86712,1677.64,-0.177089,
2,0,0,1,1,4914.79,-0.172667,-0.173101,-18.0957,4,-0.00841461,10,0.00313237,-1.74243,-0.0237006,-2.48939,1550.95,-0.173101,
2,0,0,1,1,4914.8,-0.168672,-0.169083,-12.1586,4,-0.0084744,10,0.0020558,-1.91512,-0.0133693,-4.41311,1435.39,-0.169083,
2,0,0,1,1,4914.8,-0.164677,-0.165091,-6.66197,4,-0.00851138,10,0.00109983,-2.1764,-0.0210487,-2.80302,1331.07,-0.165091,
2,0,0,1,1,4914.8,-0.160682,-0.161116,-1.5641,4,-0.00852722,10,0.000252002,-2.80573,-0.0782039,-0.754438,1243.14,-0.1611159,
2,1,0,1,1,4914.81,-0.156686,-0.157135,3.15553,4,-0.00852348,10,-0.000495845,-2.50093,0.0641197,0.920154,1161.01,-0.157135,
2,1,0,1,1,4914.81,-0.152691,-0.153179,7.61232,4,-0.00850141,10,-0.00116605,-2.11848,0.0159525,3.69848,1080.04,-0.153179,
2,1,0,1,1,4914.82,-0.148696,-0.1492,11.788,4,-0.0084621,10,-0.00175877,-1.92856,0.0202642,2.91155,1015.93,-0.1492001,
2,1,0,1,1,4914.82,-0.14467,-0.145143,15.6872,4,-0.00840673,10,-0.00227689,-1.80445,0.0335772,1.75715,950.911,-0.145143,
2,1,0,1,1,4914.82,-0.140656,-0.141158,19.3873,4,-0.00833611,10,-0.00273667,-1.71248,0.0466079,1.26588,889.244,-0.141158,
2,1,0,1,1,4914.83,-0.136661,-0.137143,22.8606,4,-0.00825122,10,-0.00313518,-1.64091,0.0597937,0.986726,836.312,-0.137143,
2,1,0,1,1,4914.83,-0.132665,-0.133123,26.0842,4,-0.00815295,10,-0.00347242,-1.58362,0.0742814,0.794277,779.527,-0.133123,
2,1,0,1,1,4914.84,-0.12867,-0.129076,29.1245,4,-0.00804217,10,-0.00375927,-1.53574,0.0897492,0.657387,726.129,-0.129076,
2,1,0,1,1,4914.84,-0.124675,-0.125043,31.9494,4,-0.00791967,10,-0.00399504,-1.49554,0.105847,0.557408,678.997,-0.125043,
2,1,0,1,1,4914.84,-0.12068,-0.121049,34.5468,4,-0.00778636,10,-0.00418187,-1.46159,0.123655,0.477133,631.797,-0.121049,
2,1,0,1,1,4914.85,-0.116685,-0.117087,36.973,4,-0.00764303,10,-0.00432905,-1.43212,0.142445,0.414196,589.22,-0.117087,
2,1,0,1,1,4914.85,-0.112689,-0.113072,39.2356,4,-0.00749035,10,-0.00443645,-1.40632,0.162836,0.362328,548.181,-0.113072,
2,1,0,1,1,4914.86,-0.108694,-0.109077,41.3566,4,-0.00732891,10,-0.00451107,-1.38346,0.184432,0.319901,511.23,-0.109077,
2,1,0,1,1,4914.86,-0.104699,-0.105051,43.3168,4,-0.00715934,10,-0.00455048,-1.36334,0.207525,0.284303,476.418,-0.105051,
2,1,0,1,1,4914.86,-0.100654,-0.100996,45.199,4,-0.00698202,10,-0.00456492,-1.34487,0.234914,0.251156,439.055,-0.100996,
2,1,0,1,1,4914.87,-0.0966588,-0.0970546,46.8666,4,-0.00679769,10,-0.00454862,-1.32914,0.262052,0.225146,408.686,-0.0970546,
2,1,0,1,1,4914.87,-0.0926637,-0.0930007,48.4152,4,-0.00660693,10,-0.00450264,-1.31502,0.295586,0.199604,374.969,-0.09300065,
2,1,0,1,1,4914.88,-0.0886685,-0.0890411,49.8599,4,-0.00641022,10,-0.00443958,-1.30225,0.330542,0.178495,345.402,-0.0890411,
2,1,0,1,1,4914.88,-0.0846733,-0.0850031,51.1959,4,-0.00620795,10,-0.00435181,-1.29076,0.36795,0.160348,318.656,-0.0850031,
2,1,0,1,1,4914.88,-0.0806781,-0.0810255,52.4031,4,-0.00600061,10,-0.00424598,-1.28064,0.409274,0.144158,293.527,-0.0810255,
2,1,0,1,1,4914.89,-0.076683,-0.0770076,53.5114,4,-0.00578865,10,-0.00412079,-1.27155,0.454614,0.129781,270.083,-0.0770076,
2,1,0,1,1,4914.89,-0.0726878,-0.0730395,54.5568,4,-0.00557237,10,-0.0039848,-1.26315,0.5031,0.117273,248.831,-0.0730395,
2,1,0,1,1,4914.9,-0.0686926,-0.069027,55.5108,4,-0.00535213,10,-0.00383174,-1.25562,0.544903,0.108276,233.972,-0.069027,
2,1,0,1,1,4914.9,-0.0646974,-0.0650367,56.3816,4,-0.00512822,10,-0.00366687,-1.24886,0.609936,0.0967315,212.315,-0.0650367,
2,1,0,1,1,4914.9,-0.0606523,-0.0609456,57.2695,4,-0.0049009,10,-0.00349032,-1.24208,0.679307,0.0868532,193.372,-0.0609456,
2,1,0,1,1,4914.91,-0.0566571,-0.0570179,57.9584,4,-0.00467035,10,-0.00330466,-1.23688,0.751426,0.0785174,177.09,-0.0570179,
2,1,0,1,1,4914.91,-0.052662,-0.0529788,58.614,4,-0.00443712,10,-0.0031053,-1.232,0.859249,0.0686646,156.786,-0.0529788,
2,1,0,1,1,4914.92,-0.0486668,-0.0489821,59.2247,4,-0.00420137,10,-0.00290095,-1.2275,0.954476,0.061814,142.551,-0.0489821,
2,1,0,1,1,4914.92,-0.0446716,-0.0450427,59.7629,4,-0.0039633,10,-0.00269188,-1.22357,1.07496,0.0548855,127.727,-0.04504269,
2,1,0,1,1,4914.92,-0.0406764,-0.0410259,60.2381,4,-0.00372322,10,-0.00247132,-1.22013,1.21149,0.0487004,114.285,-0.04102587,
2,1,0,1,1,4914.93,-0.0366813,-0.03699,60.6562,4,-0.00348138,10,-0.00224367,-1.21712,1.36654,0.0431747,102.068,-0.03699,
2,1,0,1,1,4914.93,-0.0326861,-0.0330569,61.0447,4,-0.0032379,10,-0.00201795,-1.21435,1.57315,0.0375043,89.2096,-0.0330569,
2,1,0,1,1,4914.94,-0.0286909,-0.0290496,61.3952,4,-0.00299298,10,-0.00178351,-1.21187,1.74645,0.0337827,80.8189,-0.0290496,
2,1,0,1,1,4914.94,-0.0246957,-0.0250254,61.6655,4,-0.00274681,10,-0.0015432,-1.20996,2.03253,0.0290279,69.7889,-0.0250254,
2,1,0,1,1,4914.94,-0.0206756,-0.0210255,61.9465,4,-0.00249957,10,-0.00130246,-1.20798,2.53506,0.0232736,56.1728,-0.0210255,
2,1,0,1,1,4914.95,-0.0166554,-0.0169875,62.1661,4,-0.00225128,10,-0.00105605,-1.20645,3.0494,0.0193481,46.8466,-0.0169875,
2,1,0,1,1,4914.95,-0.0126603,-0.0130248,62.2954,4,-0.00200232,10,-0.000811383,-1.20554,4.38766,0.0134468,32.6459,-0.0130248,
2,1,0,1,1,4914.96,-0.0086651,-0.00897824,62.4172,4,-0.00175286,10,-0.000560397,-1.2047,7.02316,0.00840077,20.4341,-0.00897824,
2,1,0,1,1,4914.96,-0.00466992,-0.00498475,62.4701,4,-0.00150307,10,-0.000311398,-1.20433, , , ,-0.00498475,
2,1,0,1,1,4914.96,-0.000974387,-0.00128605,62.487,4,-0.00127187,10,-8.03615e-05,-1.20421, , , ,-0.00128605,
2,1,0,1,1,4914.96,-0.000175352,-0.000439847,62.4919,4,-0.00122188,10,-2.74869e-05,-1.20418, , , ,-0.000439847,