File: Figure_codes/Fig_3-5/rawdata_trumpetplot_data/before 10th/20221101_1-115_002_TrumpetPlot_ParaChange_15_CV_C01_3.csv
mode,ox/red,error,control changes,counter inc.,time/s,control/V,Ewe/V,<I>/mA,cycle number,(Q-Qo)/C,I Range,P/W,log(|I|),Tafel slope mV/dec,alpha_eff,dI/d(E-IR),E-IR/V,
2,1,0,0,0,4912.61,2.44065e-05,-0.00091703,32.9227,4,0.0000000E+000,10,-3.01912e-05,-1.4825, , , ,-0.0009170305,
2,1,0,1,0,4912.62,0.00250197,0.00218466,32.2871,4,0.000100955,10,7.05362e-05,-1.49097, , , ,0.002184659,
2,1,0,1,0,4912.62,0.00570921,0.00539769,32.6559,4,0.000230743,10,0.000176266,-1.48604, , , ,0.00539769,
2,1,0,1,0,4912.62,0.00890534,0.00856831,33.2995,4,0.000362679,10,0.00028532,-1.47756,0.418288,0.141051,184.152,0.00856831,
2,1,0,1,0,4912.63,0.0121015,0.0117357,33.9683,4,0.000497283,10,0.000398643,-1.46893,0.383577,0.153815,203.741,0.0117357,
2,1,0,1,0,4912.63,0.0153059,0.0149986,34.6468,4,0.000634602,10,0.000519654,-1.46034,0.406,0.14532,195.884,0.0149986,
2,1,0,1,0,4912.64,0.0185021,0.0181682,35.2578,4,0.000774497,10,0.000640569,-1.45275,0.449394,0.131288,179.898,0.0181682,
2,1,0,1,0,4912.64,0.0217065,0.0213801,35.8091,4,0.000916682,10,0.000765603,-1.44601,0.513129,0.114981,160.02,0.0213801,
2,1,0,1,0,4912.64,0.0249027,0.0245773,36.2784,4,0.00106095,10,0.000891625,-1.44035,0.587069,0.100499,141.827,0.0245773,
2,1,0,1,0,4912.65,0.0280988,0.0277903,36.6937,4,0.00120694,10,0.00101973,-1.43541,0.672525,0.0877291,125.327,0.0277903,
2,1,0,1,0,4912.65,0.0313061,0.0310023,37.078,4,0.00135457,10,0.0011495,-1.43088,0.758045,0.0778317,112.364,0.0310023,
2,1,0,1,0,4912.66,0.0345022,0.0341708,37.4121,4,0.00150359,10,0.0012784,-1.42699,0.855073,0.0689999,100.528,0.0341708,
2,1,0,1,0,4912.66,0.0377094,0.0373605,37.7148,4,0.00165388,10,0.00140904,-1.42349,0.978025,0.0603257,88.6197,0.0373605,
2,1,0,1,0,4912.66,0.0409056,0.0405544,37.9769,4,0.00180529,10,0.00154013,-1.42048,1.0736,0.0549554,81.3482,0.0405544,
2,1,0,1,0,4912.67,0.0441017,0.0437791,38.2103,4,0.0019577,10,0.00167281,-1.41782,1.15933,0.0508917,75.8652,0.0437791,
2,1,0,1,0,4912.67,0.0473089,0.0469434,38.4511,4,0.00211105,10,0.00180503,-1.41509,1.21518,0.0485525,72.8415,0.0469434,
2,1,0,1,0,4912.68,0.0505051,0.0501331,38.6838,4,0.00226534,10,0.00193934,-1.41247,1.20504,0.0489609,73.9154,0.0501331,
2,1,0,1,0,4912.68,0.0537012,0.0533726,38.9106,4,0.00242054,10,0.00207676,-1.40993,1.21707,0.0484769,73.6345,0.0533726,
2,1,0,1,0,4912.68,0.0569057,0.056628,39.16,4,0.00257673,10,0.00221755,-1.40716,1.15694,0.0509968,77.9842,0.056628,
2,1,0,1,0,4912.69,0.0601018,0.0597531,39.3944,4,0.00273384,10,0.00235393,-1.40457,1.06991,0.0551447,84.9071,0.0597531,
2,1,0,1,0,4912.69,0.0633063,0.0629958,39.6869,4,0.00289203,10,0.00250011,-1.40135,0.995443,0.0592701,91.934,0.0629958,
2,1,0,1,0,4912.7,0.0665024,0.0662003,39.9997,4,0.00305141,10,0.002648,-1.39794,0.888975,0.0663686,103.752,0.0662003,
2,1,0,1,0,4912.7,0.0696986,0.069407,40.3348,4,0.00321211,10,0.00279952,-1.39432,0.823809,0.0716185,112.922,0.069407,
2,1,0,1,0,4912.7,0.0729058,0.0725797,40.7252,4,0.00337427,10,0.00295582,-1.39014,0.747625,0.0789165,125.647,0.0725797,
2,1,0,1,0,4912.71,0.0761019,0.0757164,41.1233,4,0.00353801,10,0.00311371,-1.38591,0.669298,0.0881521,141.852,0.0757164,
2,1,0,1,0,4912.71,0.0793092,0.0789613,41.6031,4,0.00370348,10,0.00328503,-1.38087,0.614621,0.0959941,156.285,0.0789613,
2,1,0,1,0,4912.72,0.0825053,0.0821573,42.1435,4,0.00387103,10,0.0034624,-1.37527,0.557249,0.105877,174.512,0.0821573,
2,1,0,1,0,4912.72,0.0857014,0.0853704,42.7241,4,0.0040408,10,0.00364737,-1.36933,0.522493,0.11292,188.615,0.0853704,
2,1,0,1,0,4912.72,0.0889087,0.0885558,43.364,4,0.00421305,10,0.00384013,-1.36287,0.496223,0.118898,201.475,0.0885558,
2,1,0,1,0,4912.73,0.0921048,0.091771,44.0192,4,0.00438784,10,0.00403969,-1.35636,0.471299,0.125186,215.387,0.091771,
2,1,0,1,0,4912.73,0.0953065,0.0949479,44.7205,4,0.00456538,10,0.00424612,-1.34949,0.461514,0.12784,223.381,0.0949479,
2,1,0,1,0,4912.74,0.0985054,0.0981493,45.4766,4,0.00474586,10,0.00446349,-1.34221,0.437093,0.134983,239.843,0.0981493,
2,1,0,1,0,4912.74,0.101702,0.101305,46.2119,4,0.00492932,10,0.0046815,-1.33525,0.417448,0.141335,255.576,0.101305,
2,1,0,1,0,4912.74,0.104906,0.1045,47.0722,4,0.0051159,10,0.00491905,-1.32724,0.402771,0.146485,269.764,0.1045001,
2,1,0,1,0,4912.75,0.108102,0.10773,47.9873,4,0.00530613,10,0.00516967,-1.31887,0.385576,0.153018,286.85,0.10773,
2,1,0,1,0,4912.75,0.111304,0.110991,48.9407,4,0.00550006,10,0.00543197,-1.31033,0.379646,0.155408,296.935,0.110991,
2,1,0,1,0,4912.76,0.114506,0.114175,49.9037,4,0.00569789,10,0.00569777,-1.30187,0.378096,0.156045,303.972,0.114175,
2,1,0,1,0,4912.76,0.117702,0.11737,50.8938,4,0.00589959,10,0.00597342,-1.29334,0.377068,0.15647,310.834,0.11737,
2,1,0,1,0,4912.76,0.120909,0.120573,51.8911,4,0.00610526,10,0.00625664,-1.28491,0.378163,0.156017,316.016,0.120573,
2,1,0,1,0,4912.77,0.124105,0.123775,52.9145,4,0.00631498,10,0.0065495,-1.27643,0.374307,0.157625,325.698,0.123775,
2,1,0,1,0,4912.77,0.127301,0.12698,53.9501,4,0.00652881,10,0.00685057,-1.26801,0.373142,0.158117,333.2,0.12698,
2,1,0,1,0,4912.78,0.130508,0.130134,55.051,4,0.0067469,10,0.00716403,-1.25923,0.369213,0.159799,343.511,0.130134,
2,1,0,1,0,4912.78,0.133705,0.133377,56.1575,4,0.00696942,10,0.00749012,-1.25059,0.364954,0.161664,354.45,0.133377,
2,1,0,1,0,4912.78,0.136906,0.136558,57.3057,4,0.00719644,10,0.00782557,-1.2418,0.366416,0.161019,360.307,0.136558,
2,1,0,1,0,4912.79,0.140105,0.13973,58.4695,4,0.00742811,10,0.00816994,-1.23307,0.35875,0.16446,375.672,0.13973,
2,1,0,1,0,4912.79,0.143301,0.142994,59.6844,4,0.00766452,10,0.00853451,-1.22414,0.353981,0.166675,388.714,0.142994,
2,1,0,1,0,4912.8,0.146506,0.146188,60.9701,4,0.00790595,10,0.00891309,-1.21488,0.34928,0.168919,402.237,0.146188,
2,1,0,1,0,4912.8,0.149702,0.149352,62.2788,4,0.00815257,10,0.00930147,-1.20566,0.342472,0.172277,419.034,0.149352,
2,1,0,1,0,4912.8,0.152904,0.15257,63.6344,4,0.00840453,10,0.00970873,-1.19631,0.339276,0.1739,432.237,0.15257,
2,1,0,1,0,4912.81,0.156105,0.155778,65.0415,4,0.00866201,10,0.010132,-1.18681,0.335147,0.176042,447.264,0.155778,
2,1,0,1,0,4912.81,0.159301,0.158949,66.4859,4,0.00892523,10,0.0105678,-1.17727,0.332497,0.177445,460.791,0.158949,
2,1,0,1,0,4912.82,0.162509,0.162157,68.0058,4,0.00919432,10,0.0110276,-1.16745,0.330619,0.178453,473.74,0.162157,
2,1,0,1,0,4912.82,0.165705,0.165366,69.5306,4,0.00946956,10,0.011498,-1.15782,0.331501,0.177978,482.98,0.165366,
2,1,0,1,0,4912.82,0.168901,0.168552,71.0929,4,0.00975095,10,0.0119828,-1.14817,0.334675,0.176291,489.031,0.168552,
2,1,0,1,0,4912.83,0.172108,0.171762,72.6742,4,0.0100386,10,0.0124826,-1.13862,0.338023,0.174545,494.844,0.171762,
2,1,0,1,0,4912.83,0.175304,0.174913,74.2442,4,0.0103326,10,0.0129863,-1.12934,0.34533,0.170851,494.836,0.1749132,
2,1,0,1,0,4912.84,0.178506,0.178134,75.8485,4,0.010633,10,0.0135112,-1.12005,0.356961,0.165284,488.737,0.178134,
2,1,0,1,0,4912.84,0.181705,0.181345,77.4232,4,0.0109397,10,0.0140403,-1.11113,0.368159,0.160257,483.462,0.181345,
2,1,0,1,0,4912.84,0.184901,0.184595,78.9462,4,0.0112526,10,0.0145731,-1.10267,0.388827,0.151739,466.715,0.184595,
2,1,0,1,0,4912.85,0.188105,0.187728,80.4398,4,0.0115715,10,0.0151008,-1.09453,0.409539,0.144065,451.36,0.187728,
2,1,0,1,0,4912.85,0.191302,0.190996,81.8517,4,0.0118963,10,0.0156334,-1.08697,0.439722,0.134176,427.542,0.190996,
2,1,0,1,0,4912.86,0.194503,0.194153,83.2045,4,0.0122266,10,0.0161544,-1.07985,0.488489,0.120781,390.868,0.194153,
2,1,0,1,0,4912.86,0.197705,0.197373,84.4093,4,0.012562,10,0.0166601,-1.07361,0.554972,0.106312,348.753,0.197373,
2,1,0,1,0,4912.86,0.200901,0.200558,85.4545,4,0.0129019,10,0.0171386,-1.06826,0.676789,0.0871764,289.341,0.2005581,
2,1,0,1,0,4912.87,0.204108,0.203755,86.3014,4,0.0132455,10,0.0175844,-1.06398,0.904111,0.0652575,218.525,0.203755,
2,1,0,1,0,4912.87,0.207305,0.206967,86.9121,4,0.0135921,10,0.0179879,-1.06092,1.47741,0.0399346,134.525,0.206967,
2,1,0,1,0,4912.88,0.210501,0.210206,87.2136,4,0.0139405,10,0.0183328,-1.05942,6.1331,0.00961993,32.479,0.210206,
2,1,0,1,0,4912.88,0.213708,0.213402,87.1823,4,0.0142894,10,0.0186049,-1.05957,-2.36664,-0.0249298,-84.0339,0.213402,
2,1,0,1,0,4912.88,0.216904,0.216618,86.7191,4,0.0146373,10,0.0187849,-1.06189,-0.926951,-0.0636495,-213.223,0.216618,
2,1,0,1,0,4912.89,0.220106,0.219801,85.8336,4,0.0149824,10,0.0188663,-1.06634,-0.555426,-0.106225,-351.968,0.219801,
2,1,0,1,0,4912.89,0.223305,0.223048,84.4753,4,0.015323,10,0.0188421,-1.07327,-0.388429,-0.151894,-495.051,0.223048,
2,1,0,1,0,4912.9,0.226501,0.22625,82.6603,4,0.0156572,10,0.0187019,-1.0827,-0.296684,-0.198865,-634.017,0.22625,
2,1,0,1,0,4912.9,0.229705,0.229415,80.384,4,0.0159832,10,0.0184413,-1.09483,-0.237176,-0.24876,-771.197,0.229415,
2,1,0,1,0,4912.9,0.232901,0.232652,77.6858,4,0.0162992,10,0.0180738,-1.10966,-0.198493,-0.29724,-891.008,0.232652,
2,1,0,1,0,4912.91,0.236103,0.235851,74.6022,4,0.0166035,10,0.017595,-1.12725,-0.171783,-0.343457,-989.682,0.235851,
2,1,0,1,0,4912.91,0.239305,0.239067,71.2401,4,0.016895,10,0.0170311,-1.14728,-0.152625,-0.386569,-1065.17,0.239067,
2,1,0,1,0,4912.92,0.242501,0.242281,67.6508,4,0.0171725,10,0.0163905,-1.16973,-0.137845,-0.428016,-1121.69,0.242281,
2,1,0,1,0,4912.92,0.245708,0.245533,63.9656,4,0.0174354,10,0.0157057,-1.19405,-0.127714,-0.46197,-1146.5,0.245533,
2,1,0,1,0,4912.92,0.248904,0.248679,60.2123,4,0.0176834,10,0.0149736,-1.22031,-0.120272,-0.490554,-1148.69,0.248679,
2,1,0,1,0,4912.93,0.2521,0.251915,56.5101,4,0.0179164,10,0.0142357,-1.24787,-0.115756,-0.509694,-1123.49,0.251915,
2,1,0,1,0,4912.93,0.255308,0.255079,52.9498,4,0.018135,10,0.0135064,-1.27614,-0.114363,-0.515901,-1068.56,0.255079,
2,1,0,1,0,4912.94,0.258504,0.258317,49.6027,4,0.0183397,10,0.0128132,-1.30449,-0.114665,-0.514544,-1000.87,0.258317,
2,1,0,1,0,4912.94,0.261708,0.261492,46.5209,4,0.0185315,10,0.0121649,-1.33235,-0.11745,-0.502341,-918.212,0.261492,
2,1,0,1,0,4912.94,0.264904,0.264694,43.7199,4,0.0187116,10,0.0115724,-1.35932,-0.122805,-0.480438,-827.207,0.264694,
2,1,0,1,0,4912.95,0.268101,0.267862,41.2121,4,0.0188812,10,0.0110392,-1.38498,-0.130408,-0.452425,-735.769,0.267862,
2,1,0,1,0,4912.95,0.271305,0.271071,39.0529,4,0.0190414,10,0.0105861,-1.40835,-0.142617,-0.413695,-637.921,0.2710709,
2,1,0,1,0,4912.96,0.274501,0.274201,37.1701,4,0.0191936,10,0.0101921,-1.42981,-0.158068,-0.373258,-547.848,0.274201,
2,1,0,1,0,4912.96,0.277708,0.27745,35.5822,4,0.0193389,10,0.00987228,-1.44877,-0.177818,-0.3318,-466.078,0.27745,
2,1,0,1,0,4912.96,0.280905,0.280622,34.2216,4,0.0194783,10,0.00960334,-1.4657,-0.203248,-0.290285,-391.888,0.280622,
2,1,0,1,0,4912.97,0.284101,0.283849,33.0974,4,0.0196128,10,0.00939465,-1.48021,-0.232803,-0.253433,-330.548,0.283849,
2,1,0,1,0,4912.97,0.287308,0.287048,32.1355,4,0.0197431,10,0.00922444,-1.49301,-0.269161,-0.219199,-277.278,0.287048,
2,1,0,1,0,4912.98,0.290504,0.290261,31.3476,4,0.01987,10,0.00909898,-1.5038,-0.31406,-0.187862,-231.66,0.290261,
2,1,0,1,0,4912.98,0.2937,0.293437,30.6683,4,0.0199939,10,0.00899921,-1.51331,-0.36416,-0.162017,-195.517,0.293437,
2,1,0,1,0,4912.98,0.296907,0.296602,30.1429,4,0.0201155,10,0.00894045,-1.52082,-0.397045,-0.148598,-176.856,0.296602,
2,1,0,1,0,4912.99,0.29955,0.299307,29.7386,4,0.0202142,10,0.00890099,-1.52668,-0.0855848,-0.689375,-766.52,0.299307,
2,1,0,1,0,4912.99,0.300012,0.299804,29.6599,4,0.0202321,10,0.00889215,-1.52783,0.00361807,16.307,14656.4,0.299804,
2,1,0,1,0,4912.99,0.298983,0.298981,26.4189,4,0.0202673,10,0.00789873,-1.57809,0.0145508,4.05475,2868.71,0.298981,
2,1,0,1,0,4912.99,0.295787,0.295715,17.1347,4,0.0203527,10,0.00506699,-1.76612,0.0128539,4.59004,2385.47,0.295715,
2,1,0,1,0,4913,0.292579,0.292435,10.0232,4,0.0204059,10,0.00293113,-1.99899,0.00531701,11.0965,2025.64,0.292435,
2,1,0,1,0,4913,0.289383,0.289246,4.47534,4,0.020434,10,0.00129447,-2.34917,0.0183517,3.21497,1591.04,0.289246,
2,1,0,1,0,4913,0.286187,0.285985,0.0950197,4,0.0204424,10,2.71743e-05,-4.02219,0.0607119,0.971802,1257.67,0.285985,
2,0,0,1,0,4913.01,0.282983,0.282812,-3.39453,4,0.0204352,10,-0.000960014,-2.46922,-0.047221,-1.24945,997.834,0.2828117,
2,0,0,1,0,4913.01,0.279786,0.279572,-6.15378,4,0.0204157,10,-0.00172043,-2.21086,-0.00633708,-9.31028,798.736,0.279572,
2,0,0,1,0,4913.02,0.276582,0.27635,-8.39343,4,0.0203863,10,-0.00231952,-2.07606,-0.0240068,-2.45764,642.689,0.27635,
2,0,0,1,0,4913.02,0.273386,0.273122,-10.1798,4,0.0203488,10,-0.00278031,-1.99226,-0.0399334,-1.47746,525.168,0.273122,
2,0,0,1,0,4913.02,0.27019,0.269939,-11.6674,4,0.0203049,10,-0.00314949,-1.93303,-0.0585149,-1.00829,429.577,0.269939,
2,0,0,1,0,4913.03,0.266982,0.266758,-12.8833,4,0.0202556,10,-0.00343672,-1.88997,-0.0792623,-0.744364,358.152,0.2667582,
2,0,0,1,0,4913.03,0.263786,0.263528,-13.9012,4,0.0202019,10,-0.00366335,-1.85695,-0.103836,-0.568203,299.233,0.2635282,
2,0,0,1,0,4913.04,0.260585,0.260331,-14.7607,4,0.0201444,10,-0.00384268,-1.83089,-0.130592,-0.451788,254.763,0.260331,
2,0,0,1,0,4913.04,0.257383,0.257124,-15.5021,4,0.0200838,10,-0.00398596,-1.80961,-0.160209,-0.368269,219.36,0.257124,
2,0,0,1,0,4913.04,0.254187,0.253988,-16.1367,4,0.0200204,10,-0.00409853,-1.79218,-0.192448,-0.306576,190.848,0.253988,
2,0,0,1,0,4913.05,0.25098,0.250723,-16.7102,4,0.0199547,10,-0.00418962,-1.77702,-0.224649,-0.262632,169.753,0.250723,
2,0,0,1,0,4913.05,0.247783,0.247532,-17.2034,4,0.0198867,10,-0.0042584,-1.76439,-0.259316,-0.227522,151.79,0.247532,
2,0,0,1,0,4913.06,0.244587,0.244361,-17.6686,4,0.019817,10,-0.00431753,-1.7528,-0.288713,-0.204355,140.303,0.244361,
2,0,0,1,0,4913.06,0.241383,0.241123,-18.0895,4,0.0197453,10,-0.00436179,-1.74257,-0.314941,-0.187336,131.854,0.241123,
2,0,0,1,0,4913.06,0.238187,0.237933,-18.5046,4,0.0196721,10,-0.00440286,-1.73272,-0.343249,-0.171887,123.78,0.237933,
2,0,0,1,0,4913.07,0.234982,0.234723,-18.8923,4,0.0195973,10,-0.00443446,-1.72372,-0.368564,-0.160081,117.642,0.234723,
2,0,0,1,0,4913.07,0.231786,0.231519,-19.2583,4,0.019521,10,-0.00445866,-1.71538,-0.389619,-0.15143,113.598,0.231519,
2,0,0,1,0,4913.08,0.22859,0.228357,-19.5913,4,0.0194432,10,-0.00447381,-1.70794,-0.407172,-0.144902,110.79,0.228357,
2,0,0,1,0,4913.08,0.225383,0.225146,-19.9572,4,0.019364,10,-0.00449328,-1.6999,-0.413191,-0.142791,111.245,0.2251457,
2,0,0,1,0,4913.08,0.222187,0.221952,-20.3073,4,0.0192835,10,-0.00450723,-1.69235,-0.419831,-0.140533,111.319,0.221952,
2,0,0,1,0,4913.09,0.218979,0.218705,-20.6838,4,0.0192015,10,-0.00452364,-1.68437,-0.433953,-0.135959,109.592,0.218705,
2,0,0,1,0,4913.09,0.215783,0.21553,-21.0192,4,0.019118,10,-0.00453027,-1.67738,-0.431079,-0.136866,112.26,0.21553,
2,0,0,1,0,4913.1,0.212587,0.212282,-21.367,4,0.0190332,10,-0.00453583,-1.67026,-0.427036,-0.138162,115.457,0.212282,
2,0,0,1,0,4913.1,0.20938,0.209166,-21.7425,4,0.018947,10,-0.00454781,-1.66269,-0.421063,-0.140121,119.069,0.209166,
2,0,0,1,0,4913.1,0.206184,0.205933,-22.1584,4,0.0188592,10,-0.00456314,-1.65446,-0.40491,-0.145711,126.031,0.205933,
2,0,0,1,0,4913.11,0.202988,0.202708,-22.5459,4,0.0187697,10,-0.00457023,-1.64693,-0.401255,-0.147039,129.468,0.202708,
2,0,0,1,0,4913.11,0.199783,0.199502,-22.9777,4,0.0186786,10,-0.00458409,-1.63869,-0.389454,-0.151494,136.084,0.199502,
2,0,0,1,0,4913.12,0.196587,0.196358,-23.4008,4,0.0185858,10,-0.00459494,-1.63077,-0.372232,-0.158503,145.114,0.196358,
2,0,0,1,0,4913.12,0.193382,0.193153,-23.8975,4,0.0184912,10,-0.00461588,-1.62165,-0.360006,-0.163886,153.135,0.193153,
2,0,0,1,0,4913.12,0.190186,0.189957,-24.3962,4,0.0183946,10,-0.00463423,-1.61268,-0.339276,-0.1739,165.915,0.189957,
2,0,0,1,0,4913.13,0.18699,0.186727,-24.9339,4,0.0182959,10,-0.00465584,-1.60321,-0.327467,-0.180171,175.839,0.186727,
2,0,0,1,0,4913.13,0.183783,0.183564,-25.5235,4,0.0181949,10,-0.0046852,-1.59306,-0.308697,-0.191126,190.942,0.183564,
2,0,0,1,0,4913.14,0.180587,0.180337,-26.1511,4,0.0180915,10,-0.00471601,-1.58251,-0.292211,-0.201909,206.73,0.180337,
2,0,0,1,0,4913.14,0.17738,0.177157,-26.8403,4,0.0179855,10,-0.00475495,-1.57121,-0.278124,-0.212135,222.933,0.177157,
2,0,0,1,0,4913.14,0.174183,0.173923,-27.581,4,0.0178766,10,-0.00479696,-1.55939,-0.260329,-0.226636,244.899,0.173923,
2,0,0,1,0,4913.15,0.170987,0.17074,-28.3823,4,0.0177646,10,-0.00484601,-1.54695,-0.248015,-0.237889,264.576,0.1707405,
2,0,0,1,0,4913.15,0.16778,0.167543,-29.2843,4,0.0176492,10,-0.00490639,-1.53337,-0.234162,-0.251962,288.996,0.167543,
2,0,0,1,0,4913.16,0.164584,0.164374,-30.2224,4,0.0175301,10,-0.00496778,-1.51967,-0.221621,-0.26622,315.347,0.164374,
2,0,0,1,0,4913.16,0.161382,0.161139,-31.2756,4,0.017407,10,-0.0050397,-1.50479,-0.212293,-0.277917,340.743,0.161139,
2,0,0,1,0,4913.16,0.158183,0.157967,-32.4104,4,0.0172796,10,-0.00511978,-1.48931,-0.201963,-0.292133,371.071,0.157967,
2,0,0,1,0,4913.17,0.154987,0.154736,-33.6484,4,0.0171473,10,-0.00520661,-1.47304,-0.194063,-0.304025,400.783,0.1547358,
2,0,0,1,0,4913.17,0.151783,0.151531,-34.9879,4,0.01701,10,-0.00530177,-1.45608,-0.187852,-0.314078,430.286,0.151531,
2,0,0,1,0,4913.18,0.148587,0.148326,-36.4108,4,0.016867,10,-0.00540065,-1.43877,-0.180431,-0.326994,466.348,0.148326,
2,0,0,1,0,4913.18,0.145385,0.145109,-37.9428,4,0.0167182,10,-0.00550586,-1.42087,-0.176168,-0.334908,497.631,0.145109,
2,0,0,1,0,4913.18,0.142183,0.141975,-39.5994,4,0.016563,10,-0.00562212,-1.40231,-0.171217,-0.344592,534.21,0.141975,
2,0,0,1,0,4913.19,0.138987,0.138778,-41.3345,4,0.016401,10,-0.0057363,-1.38369,-0.168278,-0.35061,567.103,0.138778,
2,0,0,1,0,4913.19,0.13578,0.135559,-43.2306,4,0.0162317,10,-0.00586032,-1.36421,-0.168185,-0.350803,592.533,0.135559,
2,0,0,1,0,4913.2,0.132584,0.132389,-45.1567,4,0.0160547,10,-0.00597825,-1.34528,-0.16778,-0.35165,620.179,0.132389,
2,0,0,1,0,4913.2,0.129388,0.129179,-47.1814,4,0.0158699,10,-0.00609484,-1.32623,-0.169876,-0.347312,639.812,0.129179,
2,0,0,1,0,4913.2,0.12618,0.125969,-49.2781,4,0.0156767,10,-0.00620752,-1.30735,-0.172963,-0.341113,655.489,0.1259691,
2,0,0,1,0,4913.21,0.122984,0.122773,-51.4115,4,0.0154751,10,-0.00631195,-1.28894,-0.178147,-0.331187,662.826,0.122773,
2,0,0,1,0,4913.21,0.119783,0.119571,-53.5589,4,0.015265,10,-0.00640407,-1.27117,-0.184202,-0.320301,667.744,0.1195706,
2,0,0,1,0,4913.22,0.116584,0.116458,-55.613,4,0.0150464,10,-0.00647659,-1.25482,-0.189974,-0.310569,673.797,0.116458,
2,0,0,1,0,4913.22,0.113387,0.113231,-57.7836,4,0.0148194,10,-0.00654292,-1.2382,-0.197171,-0.299233,674.352,0.113231,
2,0,0,1,0,4913.22,0.110183,0.110039,-59.9919,4,0.0145836,10,-0.00660143,-1.22191,-0.204521,-0.288479,673.626,0.110039,
2,0,0,1,0,4913.23,0.106987,0.10684,-62.1436,4,0.0143391,10,-0.00663944,-1.2066,-0.21423,-0.275405,665.612,0.10684,
2,0,0,1,0,4913.23,0.103785,0.10362,-64.2612,4,0.0140861,10,-0.00665875,-1.19205,-0.229676,-0.256884,641.758,0.10362,
2,0,0,1,0,4913.24,0.100583,0.100489,-66.2654,4,0.0138248,10,-0.00665892,-1.17871,-0.24317,-0.242629,625.562,0.100489,
2,0,0,1,0,4913.24,0.0973873,0.0972321,-68.2106,4,0.0135556,10,-0.00663226,-1.16615,-0.258892,-0.227894,605.371,0.0972321,
2,0,0,1,0,4913.24,0.0941801,0.0940487,-70.1455,4,0.0132787,10,-0.0065971,-1.154,-0.277219,-0.212828,581.014,0.0940487,
2,0,0,1,0,4913.25,0.0909839,0.0908092,-72.0165,4,0.0129942,10,-0.00653976,-1.14257,-0.295414,-0.199719,559.277,0.0908092,
2,0,0,1,0,4913.25,0.0877878,0.0875707,-73.7709,4,0.0127024,10,-0.00646017,-1.13211,-0.322424,-0.182989,524.693,0.0875707,
2,0,0,1,0,4913.26,0.0845806,0.0843471,-75.4169,4,0.0124038,10,-0.0063612,-1.12253,-0.355657,-0.16589,486.21,0.0843471,
2,0,0,1,0,4913.26,0.0813844,0.0811754,-76.9001,4,0.012099,10,-0.0062424,-1.11407,-0.397137,-0.148563,444.003,0.0811754,
2,0,0,1,0,4913.26,0.0781828,0.0779475,-78.27,4,0.0117885,10,-0.00610095,-1.1064,-0.451822,-0.130582,397.142,0.0779475,
2,0,0,1,0,4913.27,0.0749839,0.0747621,-79.458,4,0.0114729,10,-0.00594044,-1.09986,-0.527199,-0.111912,345.449,0.0747621,
2,0,0,1,0,4913.27,0.0717877,0.0715586,-80.4958,4,0.0111528,10,-0.00576016,-1.09423,-0.636292,-0.0927247,289.91,0.07155858,
2,0,0,1,0,4913.28,0.0685832,0.0683551,-81.3289,4,0.010829,10,-0.00555924,-1.08976,-0.804479,-0.0733394,231.657,0.0683551,
2,0,0,1,0,4913.28,0.0653871,0.0651336,-81.9849,4,0.0105023,10,-0.00533997,-1.08627,-1.10873,-0.053214,169.428,0.0651336,
2,0,0,1,0,4913.28,0.0621854,0.0619174,-82.4335,4,0.0101733,10,-0.00510407,-1.0839,-1.78083,-0.0331305,106.035,0.0619174,
2,0,0,1,0,4913.29,0.0589837,0.0586757,-82.6785,4,0.00984301,10,-0.00485122,-1.08261,-4.56554,-0.0129229,41.4822,0.0586757,
2,0,0,1,0,4913.29,0.0557876,0.055504,-82.6915,4,0.0095122,10,-0.00458971,-1.08254,7.7761,0.00758735,-24.3633,0.055504,
2,0,0,1,0,4913.3,0.0525804,0.0523196,-82.5164,4,0.00918177,10,-0.00431723,-1.08346,2.17947,0.0270708,-86.7623,0.0523196,
2,0,0,1,0,4913.3,0.0493842,0.0491458,-82.1224,4,0.00885248,10,-0.00403597,-1.08554,1.31113,0.0449993,-143.605,0.0491458,
2,0,0,1,0,4913.3,0.0461881,0.0459031,-81.5703,4,0.00852513,10,-0.00374433,-1.08847,0.963111,0.0612598,-194.283,0.04590309,
2,0,0,1,0,4913.31,0.0429808,0.0427304,-80.8572,4,0.00820027,10,-0.00345506,-1.09228,0.783788,0.0752755,-236.756,0.0427304,
2,0,0,1,0,4913.31,0.0397847,0.0394876,-80.0234,4,0.00787857,10,-0.00315993,-1.09678,0.670834,0.0879502,-273.928,0.0394876,
2,0,0,1,0,4913.32,0.036583,0.0362873,-79.0781,4,0.00756045,10,-0.00286953,-1.10194,0.604213,0.0976476,-300.729,0.0362873,
2,0,0,1,0,4913.32,0.0333841,0.0331157,-78.0675,4,0.00724624,10,-0.00258526,-1.10753,0.559592,0.105434,-320.763,0.0331157,
2,0,0,1,0,4913.32,0.030188,0.0299069,-77.0008,4,0.0069362,10,-0.00230285,-1.1135,0.525151,0.112349,-337.199,0.0299069,
2,0,0,1,0,4913.33,0.0269835,0.0266981,-75.921,4,0.00663045,10,-0.00202694,-1.11964,0.50288,0.117324,-347.152,0.0266981,
2,0,0,1,0,4913.33,0.0237874,0.0235179,-74.7722,4,0.00632914,10,-0.00175849,-1.12626,0.480634,0.122755,-357.789,0.0235179,
2,0,0,1,0,4913.34,0.0205857,0.0202773,-73.6106,4,0.0060325,10,-0.00149263,-1.13306,0.458699,0.128625,-369.129,0.0202773,
2,0,0,1,0,4913.34,0.017384,0.0170855,-72.4134,4,0.00574053,10,-0.00123722,-1.14018,0.438951,0.134411,-379.38,0.0170855,
2,0,0,1,0,4913.34,0.0141879,0.0139043,-71.1984,4,0.00545342,10,-0.000989962,-1.14753,0.418077,0.141122,-391.431,0.0139043,
2,0,0,1,0,4913.35,0.0109806,0.0107474,-69.9274,4,0.00517127,10,-0.00075154,-1.15535,0.392097,0.150473,-409.69,0.01074744,
2,0,0,1,0,4913.35,0.00778448,0.00745488,-68.5915,4,0.00489435,10,-0.000511341,-1.16373,0.377422,0.156324,-417.783,0.00745488,
2,0,0,1,0,4913.36,0.00458834,0.00431289,-67.1806,4,0.0046229,10,-0.000289743,-1.17276,0.356829,0.165345,-432.948,0.00431289,
2,0,0,1,0,4913.36,0.0013811,0.00105745,-65.8312,4,0.00435704,10,-6.9613e-05,-1.18157,0.337397,0.174868,-448.154,0.00105745,
2,0,0,1,0,4913.36,-0.00181504,-0.00216407,-64.3373,4,0.00409684,10,0.00013923,-1.19154,0.322409,0.182997,-458.376,-0.00216407,
2,0,0,1,0,4913.37,-0.0050195,-0.00540467,-62.8285,4,0.00384267,10,0.000339567,-1.20184,0.302813,0.194839,-477.032,-0.00540467,
2,0,0,1,0,4913.37,-0.00821564,-0.00857317,-61.274,4,0.00359461,10,0.000525312,-1.21272,0.29667,0.198874,-475.325,-0.00857317,
2,0,0,1,0,4913.38,-0.0114118,-0.0117183,-59.7367,4,0.00335276,10,0.000700015,-1.22376,0.293845,0.200786,-468.492,-0.0117183,
2,0,0,1,0,4913.38,-0.0146162,-0.0149759,-58.2475,4,0.00311693,10,0.00087231,-1.23472,0.299443,0.197033,-448.726,-0.0149759,
2,0,0,1,0,4913.38,-0.0178124,-0.0181773,-56.8446,4,0.00288691,10,0.00103328,-1.24531,0.312336,0.188899,-420.13,-0.0181773,
2,0,0,1,0,4913.39,-0.0210196,-0.0213723,-55.5307,4,0.00266232,10,0.00118682,-1.25547,0.326716,0.180585,-392.567,-0.0213723,
2,0,0,1,0,4913.39,-0.0242158,-0.0245959,-54.3265,4,0.00244274,10,0.00133621,-1.26499,0.352771,0.167247,-356.006,-0.02459592,
2,0,0,1,0,4913.4,-0.0274119,-0.0277549,-53.231,4,0.00222775,10,0.00147742,-1.27384,0.390037,0.151268,-315.746,-0.0277549,
2,0,0,1,0,4913.4,-0.0306191,-0.0309329,-52.3035,4,0.00201681,10,0.0016179,-1.28147,0.439687,0.134186,-275.212,-0.0309329,
2,0,0,1,0,4913.4,-0.0338153,-0.0341714,-51.4894,4,0.00180934,10,0.00175946,-1.28828,0.510737,0.115519,-233.17,-0.0341714,
2,0,0,1,0,4913.41,-0.037017,-0.0373441,-50.818,4,0.00160484,10,0.00189776,-1.29398,0.590561,0.0999049,-198.928,-0.0373441,
2,0,0,1,0,4913.41,-0.0402187,-0.0405953,-50.2369,4,0.00140279,10,0.00203939,-1.29898,0.706714,0.0834849,-164.318,-0.0405953,
2,0,0,1,0,4913.42,-0.0434148,-0.0437257,-49.7587,4,0.00120289,10,0.00217573,-1.30313,0.874778,0.0674457,-131.528,-0.0437257,
2,0,0,1,0,4913.42,-0.0466193,-0.046944,-49.3906,4,0.00100467,10,0.00231859,-1.30636,1.09345,0.0539577,-104.384,-0.046944,
2,0,0,1,0,4913.42,-0.0498154,-0.0501846,-49.1291,4,0.000807709,10,0.00246553,-1.30866,1.50114,0.0393036,-75.5802,-0.0501846,
2,0,0,1,0,4913.43,-0.0530115,-0.0533223,-48.9084,4,0.000611674,10,0.00260791,-1.31062,2.09791,0.0281233,-53.8306,-0.0533223,
2,0,0,1,0,4913.43,-0.056216,-0.0565258,-48.7912,4,0.000416282,10,0.00275797,-1.31166,3.40387,0.0173332,-33.0915,-0.05652583,
2,0,0,1,0,4913.44,-0.0594121,-0.0597336,-48.7022,4,0.000221312,10,0.00290915,-1.31245,8.25152,0.0071502,-13.6235,-0.0597336,
2,0,0,1,0,4913.44,-0.0626194,-0.0628957,-48.7085,4,2.65386e-05,10,0.00306356,-1.3124,-42.699,-0.00138176,2.63202,-0.0628957,
2,0,0,1,0,4913.44,-0.0658155,-0.0661299,-48.734,4,-0.000168352,10,0.00322277,-1.31217,-5.8462,-0.010092,19.2303,-0.0661299,
2,0,0,1,0,4913.45,-0.0690117,-0.0693472,-48.825,4,-0.000363473,10,0.00338588,-1.31136,-3.81398,-0.0154694,29.5203,-0.06934721,
2,0,0,1,0,4913.45,-0.0722189,-0.0725316,-48.9483,4,-0.000559028,10,0.0035503,-1.31026,-2.67128,-0.0220868,42.2398,-0.0725316,
2,0,0,1,0,4913.46,-0.075415,-0.0756937,-49.0863,4,-0.000755094,10,0.00371553,-1.30904,-2.13067,-0.0276908,53.1317,-0.0756937,
2,0,0,1,0,4913.46,-0.0786167,-0.0789089,-49.2737,4,-0.000951834,10,0.00388814,-1.30738,-1.8417,-0.0320356,61.6886,-0.0789089,
2,0,0,1,0,4913.46,-0.0818184,-0.0821686,-49.5062,4,-0.00114939,10,0.00406786,-1.30534,-1.55702,-0.0378929,73.2855,-0.0821686,
2,0,0,1,0,4913.47,-0.0850146,-0.0853021,-49.7361,4,-0.00134791,10,0.00424259,-1.30333,-1.4376,-0.0410405,79.7374,-0.0853021,
2,0,0,1,0,4913.47,-0.088219,-0.0885533,-50.0287,4,-0.00154745,10,0.00443021,-1.30078,-1.33973,-0.0440388,86.0268,-0.0885533,
2,0,0,1,0,4913.48,-0.0914152,-0.0917388,-50.2968,4,-0.00174813,10,0.00461416,-1.29846,-1.23707,-0.0476933,93.6923,-0.0917388,
2,0,0,1,0,4913.48,-0.0946141,-0.0949391,-50.6048,4,-0.00194996,10,0.00480437,-1.29581,-1.16992,-0.0504309,99.7156,-0.0949391,
2,0,0,1,0,4913.48,-0.0978158,-0.0981701,-50.9417,4,-0.00215311,10,0.00500095,-1.29293,-1.08548,-0.0543539,108.153,-0.0981701,
2,0,0,1,0,4913.49,-0.101012,-0.101356,-51.3053,4,-0.00235764,10,0.00520008,-1.28984,-1.02978,-0.057294,114.785,-0.1013556,
2,0,0,1,0,4913.49,-0.104219,-0.104532,-51.6803,4,-0.00256365,10,0.00540222,-1.28667,-0.998023,-0.0591169,119.271,-0.104532,
2,0,0,1,0,4913.5,-0.107415,-0.107718,-52.0716,4,-0.00277119,10,0.00560906,-1.2834,-0.942823,-0.062578,127.272,-0.107718,
2,0,0,1,0,4913.5,-0.110611,-0.110884,-52.4581,4,-0.00298029,10,0.00581679,-1.28019,-0.914687,-0.0645029,132.214,-0.110884,
2,0,0,1,0,4913.5,-0.113819,-0.114117,-52.9294,4,-0.00319112,10,0.00604012,-1.2763,-0.87437,-0.0674771,139.465,-0.114117,
2,0,0,1,0,4913.51,-0.117015,-0.11732,-53.3712,4,-0.00340377,10,0.00626151,-1.27269,-0.837362,-0.0704594,146.827,-0.11732,
2,0,0,1,0,4913.51,-0.120216,-0.120527,-53.858,4,-0.00361827,10,0.00649133,-1.26875,-0.82323,-0.0716689,150.723,-0.1205267,
2,0,0,1,0,4913.52,-0.123418,-0.123728,-54.3439,4,-0.00383472,10,0.00672387,-1.26485,-0.79482,-0.0742306,157.521,-0.123728,
2,0,0,1,0,4913.52,-0.126614,-0.126903,-54.8567,4,-0.00405317,10,0.00696147,-1.26077,-0.773669,-0.07626,163.38,-0.126903,
2,0,0,1,0,4913.52,-0.129819,-0.130133,-55.3895,4,-0.0042737,10,0.00720799,-1.25657,-0.753589,-0.078292,169.332,-0.130133,
2,0,0,1,0,4913.53,-0.133015,-0.13331,-55.9465,4,-0.00449642,10,0.00745823,-1.25223,-0.736002,-0.0801629,175.093,-0.1333099,
2,0,0,1,0,4913.53,-0.136214,-0.136507,-56.5078,4,-0.00472139,10,0.00771371,-1.24789,-0.727053,-0.0811495,179.019,-0.136507,
2,0,0,1,0,4913.54,-0.139416,-0.139671,-57.0923,4,-0.00494865,10,0.00797416,-1.24342,-0.713552,-0.0826849,184.321,-0.139671,
2,0,0,1,0,4913.54,-0.142612,-0.142917,-57.6781,4,-0.00517827,10,0.00824319,-1.23899,-0.708999,-0.083216,187.396,-0.142917,
2,0,0,1,0,4913.54,-0.145819,-0.146127,-58.309,4,-0.00541029,10,0.00852052,-1.23426,-0.699441,-0.0843531,191.972,-0.146127,
2,0,0,1,0,4913.55,-0.149015,-0.149339,-58.9125,4,-0.00564481,10,0.00879793,-1.22979,-0.693951,-0.0850204,195.502,-0.149339,
2,0,0,1,0,4913.55,-0.152211,-0.152489,-59.553,4,-0.00588181,10,0.00908121,-1.2251,-0.698649,-0.0844487,196.281,-0.152489,
2,0,0,1,0,4913.56,-0.155418,-0.155715,-60.1801,4,-0.00612135,10,0.00937096,-1.22055,-0.688959,-0.0856364,201.147,-0.155715,
2,0,0,1,0,4913.56,-0.158615,-0.158918,-60.8196,4,-0.00636342,10,0.0096653,-1.21596,-0.687471,-0.0858218,203.807,-0.158918,
2,0,0,1,0,4913.56,-0.161816,-0.162087,-61.4768,4,-0.00660809,10,0.0099646,-1.21129,-0.685433,-0.086077,206.554,-0.162087,
2,0,0,1,0,4913.57,-0.165018,-0.165306,-62.165,4,-0.00685545,10,0.0102762,-1.20645,-0.683511,-0.086319,209.363,-0.165306,
2,0,0,1,0,4913.57,-0.168214,-0.168459,-62.8125,4,-0.00710546,10,0.0105813,-1.20195,-0.690871,-0.0853995,209.328,-0.168459,
2,0,0,1,0,4913.58,-0.171419,-0.171703,-63.4963,4,-0.00735814,10,0.0109025,-1.19725,-0.692912,-0.0851479,211.035,-0.171703,
2,0,0,1,0,4913.58,-0.174615,-0.174887,-64.1562,4,-0.00761351,10,0.0112201,-1.19276,-0.690647,-0.0854271,213.966,-0.1748874,
2,0,0,1,0,4913.58,-0.177814,-0.178107,-64.8666,4,-0.00787161,10,0.0115532,-1.18798,-0.685746,-0.0860377,217.84,-0.1781068,
2,0,0,1,0,4913.59,-0.181015,-0.181315,-65.5631,4,-0.00813256,10,0.0118875,-1.18334,-0.679892,-0.0867785,222.049,-0.181315,
2,0,0,1,0,4913.59,-0.184211,-0.184464,-66.2762,4,-0.00839632,10,0.0122256,-1.17864,-0.677812,-0.0870448,225.208,-0.184464,
2,0,0,1,0,4913.6,-0.187419,-0.187671,-66.9947,4,-0.00866296,10,0.0125729,-1.17396,-0.676669,-0.0871918,228.026,-0.1876706,
2,0,0,1,0,4913.6,-0.190615,-0.190879,-67.743,4,-0.0089325,10,0.0129308,-1.16914,-0.668845,-0.0882117,233.281,-0.1908794,
2,0,0,1,0,4913.6,-0.193811,-0.194106,-68.4799,4,-0.00920504,10,0.0132924,-1.16444,-0.668428,-0.0882668,235.736,-0.194106,
2,0,0,1,0,4913.61,-0.197018,-0.197301,-69.2709,4,-0.00948064,10,0.0136672,-1.15945,-0.685948,-0.0860123,231.079,-0.197301,
2,0,0,1,0,4913.61,-0.199647,-0.19996,-69.8916,4,-0.00971027,10,0.0139755,-1.15557,0.424031,0.139141,-366.551,-0.19996,
2,0,0,1,0,4913.61,-0.200134,-0.200418,-69.9471,4,-0.00975224,10,0.0140186,-1.15523,-0.0133391,-4.4231,10910.5,-0.200418,
2,0,0,1,1,4913.61,-0.198935,-0.199417,-66.5333,4,-0.00985359,10,0.0132679,-1.17696,-0.046865,-1.25894,2908.13,-0.199417,
2,0,0,1,1,4913.62,-0.195739,-0.196223,-57.5048,4,-0.0101004,10,0.0112837,-1.2403,-0.0494409,-1.19334,2567.34,-0.1962228,
2,0,0,1,1,4913.62,-0.192535,-0.192996,-49.6404,4,-0.0103136,10,0.00958041,-1.30416,-0.048369,-1.21979,2369.11,-0.192996,
2,0,0,1,1,4913.63,-0.189339,-0.189751,-42.5624,4,-0.0104971,10,0.00807626,-1.37097,-0.045763,-1.28925,2130.82,-0.189751,
2,0,0,1,1,4913.63,-0.186137,-0.186565,-36.0852,4,-0.0106536,10,0.00673222,-1.44267,-0.0421761,-1.3989,1948.03,-0.186565,
2,0,0,1,1,4913.63,-0.182935,-0.183373,-30.1237,4,-0.0107853,10,0.00552387,-1.52109,-0.0378334,-1.55947,1797.73,-0.183373,
2,0,0,1,1,4913.64,-0.179739,-0.180153,-24.6228,4,-0.0108941,10,0.00443588,-1.60866,-0.0329975,-1.78801,1663.93,-0.1801534,
2,0,0,1,1,4913.64,-0.176532,-0.176916,-19.4882,4,-0.0109817,10,0.00344777,-1.71023,-0.0275424,-2.14215,1544.49,-0.176916,
2,0,0,1,1,4913.65,-0.173336,-0.17374,-14.7461,4,-0.0110496,10,0.00256198,-1.83132,-0.0211721,-2.78669,1445.18,-0.17374,
2,0,0,1,1,4913.65,-0.17014,-0.17054,-10.3032,4,-0.0110992,10,0.0017571,-1.98703,-0.013467,-4.3811,1357.72,-0.17054,
2,0,0,1,1,4913.65,-0.166932,-0.167348,-6.11657,4,-0.0111315,10,0.0010236,-2.21349,-0.0125931,-4.6851,1271.71,-0.167348,
2,0,0,1,1,4913.66,-0.163736,-0.164192,-2.21286,4,-0.0111478,10,0.000363334,-2.65505,-0.0389785,-1.51365,1190.89,-0.164192,
2,1,0,1,1,4913.66,-0.160532,-0.161013,1.43895,4,-0.0111489,10,-0.000231691,-2.84195,0.103941,0.56763,1118.27,-0.161013,
2,1,0,1,1,4913.67,-0.157336,-0.15781,4.8571,4,-0.0111359,10,-0.000766496,-2.31362,0.0181935,3.24292,1046.05,-0.15781,
2,1,0,1,1,4913.67,-0.154139,-0.154628,8.1074,4,-0.0111096,10,-0.00125363,-2.09112,0.012922,4.56584,984.207,-0.154628,
2,1,0,1,1,4913.67,-0.150935,-0.151406,11.1623,4,-0.0110707,10,-0.00169004,-1.95225,0.0237455,2.48469,932.08,-0.151406,
2,1,0,1,1,4913.68,-0.147739,-0.148241,14.0088,4,-0.01102,10,-0.00207669,-1.8536,0.0339356,1.73859,876.594,-0.148241,
2,1,0,1,1,4913.68,-0.144532,-0.145034,16.7652,4,-0.0109582,10,-0.00243152,-1.77559,0.0441561,1.33617,828.056,-0.145034,
2,1,0,1,1,4913.69,-0.141335,-0.141816,19.3382,4,-0.0108857,10,-0.00274248,-1.71358,0.0546505,1.07959,783.251,-0.141816,
2,1,0,1,1,4913.69,-0.138139,-0.138597,21.7686,4,-0.0108032,10,-0.00301706,-1.66217,0.0662509,0.890554,735.179,-0.138597,
2,1,0,1,1,4913.69,-0.134932,-0.135389,24.0753,4,-0.0107112,10,-0.00325953,-1.61843,0.0783503,0.753028,690.948,-0.135389,
2,1,0,1,1,4913.7,-0.131736,-0.132137,26.2465,4,-0.0106103,10,-0.00346814,-1.58093,0.0911297,0.647429,649.916,-0.132137,
2,1,0,1,1,4913.7,-0.12854,-0.128926,28.2447,4,-0.0105011,10,-0.00364148,-1.54906,0.105559,0.55893,606.142,-0.128926,
2,1,0,1,1,4913.71,-0.125333,-0.125736,30.1269,4,-0.0103841,10,-0.00378805,-1.52105,0.120749,0.488616,567.086,-0.125736,
2,1,0,1,1,4913.71,-0.122136,-0.12254,31.8635,4,-0.0102599,10,-0.00390457,-1.49671,0.136921,0.430907,530.247,-0.12254,
2,1,0,1,1,4913.71,-0.118932,-0.119299,33.527,4,-0.010129,10,-0.00399973,-1.47461,0.154185,0.382658,495.998,-0.119299,
2,1,0,1,1,4913.72,-0.115736,-0.11607,35.0618,4,-0.00999162,10,-0.00406961,-1.45517,0.172454,0.342121,464.113,-0.1160698,
2,1,0,1,1,4913.72,-0.11254,-0.112882,36.5026,4,-0.00984834,10,-0.00412049,-1.43768,0.192415,0.306629,433.501,-0.112882,
2,1,0,1,1,4913.73,-0.109335,-0.109691,37.8269,4,-0.00969951,10,-0.00414929,-1.4222,0.214411,0.275173,403.66,-0.109691,
2,1,0,1,1,4913.73,-0.106139,-0.106524,39.0648,4,-0.00954558,10,-0.00416134,-1.40821,0.237692,0.248221,376.418,-0.106524,
2,1,0,1,1,4913.73,-0.102932,-0.103261,40.2321,4,-0.00938686,10,-0.00415442,-1.39543,0.263524,0.223888,349.694,-0.103261,
2,1,0,1,1,4913.74,-0.0997357,-0.10011,41.3104,4,-0.00922365,10,-0.00413557,-1.38394,0.292618,0.201628,323.485,-0.10011,
2,1,0,1,1,4913.74,-0.0965395,-0.0969019,42.2993,4,-0.00905629,10,-0.00409889,-1.37367,0.324449,0.181847,298.887,-0.0969019,
2,1,0,1,1,4913.75,-0.0933323,-0.0936676,43.2237,4,-0.00888514,10,-0.00404866,-1.36428,0.358781,0.164446,276.342,-0.0936676,
2,1,0,1,1,4913.75,-0.0901362,-0.0904684,44.0557,4,-0.00871048,10,-0.00398565,-1.356,0.395115,0.149323,255.945,-0.0904684,
2,1,0,1,1,4913.75,-0.0869345,-0.0872808,44.8555,4,-0.00853258,10,-0.00391503,-1.34818,0.433748,0.136024,237.397,-0.0872808,
2,1,0,1,1,4913.76,-0.0837328,-0.0840837,45.5801,4,-0.0083516,10,-0.00383254,-1.34122,0.478753,0.123237,218.543,-0.0840837,
2,1,0,1,1,4913.76,-0.0805366,-0.0809216,46.2496,4,-0.00816787,10,-0.00374259,-1.33489,0.535558,0.110165,198.27,-0.0809216,
2,1,0,1,1,4913.77,-0.0773322,-0.0776746,46.8517,4,-0.0079816,10,-0.00363919,-1.32927,0.590827,0.09986,182.127,-0.07767459,
2,1,0,1,1,4913.77,-0.074136,-0.0744531,47.3989,4,-0.00779305,10,-0.00352899,-1.32423,0.653401,0.0902968,166.718,-0.0744531,
2,1,0,1,1,4913.77,-0.0709371,-0.0713217,47.9044,4,-0.00760238,10,-0.00341662,-1.31962,0.722136,0.0817021,152.484,-0.0713217,
2,1,0,1,1,4913.78,-0.0677354,-0.0681108,48.3853,4,-0.00740972,10,-0.00329556,-1.31529,0.793084,0.0743931,140.204,-0.0681108,
2,1,0,1,1,4913.78,-0.0645393,-0.0648606,48.8056,4,-0.00721528,10,-0.00316556,-1.31153,0.886581,0.0665478,126.514,-0.0648606,
2,1,0,1,1,4913.79,-0.0613321,-0.0616529,49.1935,4,-0.00701926,10,-0.00303292,-1.30809,0.993093,0.0594103,113.868,-0.0616529,
2,1,0,1,1,4913.79,-0.0581359,-0.0584759,49.5296,4,-0.00682175,10,-0.00289629,-1.30514,1.09655,0.0538053,103.872,-0.0584759,
2,1,0,1,1,4913.79,-0.0549398,-0.0553095,49.843,4,-0.00662298,10,-0.00275679,-1.3024,1.22908,0.0480035,93.2687,-0.0553095,
2,1,0,1,1,4913.8,-0.0517325,-0.0520774,50.1334,4,-0.00642294,10,-0.00261082,-1.29987,1.38047,0.0427392,83.5008,-0.0520774,
2,1,0,1,1,4913.8,-0.0485364,-0.0489185,50.3813,4,-0.00622187,10,-0.00246457,-1.29773,1.58556,0.0372108,73.0623,-0.0489185,
2,1,0,1,1,4913.81,-0.0453347,-0.045697,50.5966,4,-0.00601989,10,-0.00231211,-1.29588,1.87329,0.0314954,62.1105,-0.045697,
2,1,0,1,1,4913.81,-0.042133,-0.0424648,50.7815,4,-0.0058171,10,-0.00215643,-1.29429,2.13077,0.0276896,54.8233,-0.0424648,
2,1,0,1,1,4913.81,-0.0389369,-0.0392571,50.9297,4,-0.00561364,10,-0.00199935,-1.29303,2.52688,0.023349,46.3761,-0.0392571,
2,1,0,1,1,4913.82,-0.0357324,-0.0360769,51.0853,4,-0.0054096,10,-0.001843,-1.2917,3.15942,0.0186743,37.1821,-0.0360769,
2,1,0,1,1,4913.82,-0.0325363,-0.0328639,51.1918,4,-0.00520502,10,-0.00168236,-1.2908,3.90753,0.0150991,30.1241,-0.0328639,
2,1,0,1,1,4913.83,-0.0293374,-0.0297124,51.2556,4,-0.00500013,10,-0.00152293,-1.29026,5.98561,0.00985697,19.7004,-0.0297124,
2,1,0,1,1,4913.83,-0.0261357,-0.026529,51.3131,4,-0.00479494,10,-0.00136129,-1.28977,9.24424,0.00638235,12.7713,-0.026529,
2,1,0,1,1,4913.83,-0.0229395,-0.0232471,51.338,4,-0.00458964,10,-0.00119346,-1.28956,19.3716,0.0030457,6.0971,-0.0232471,
2,1,0,1,1,4913.84,-0.0197323,-0.0201009,51.3548,4,-0.00438424,10,-0.00103227,-1.28942,-39.2926,-0.00150156,-3.00587,-0.0201009,
2,1,0,1,1,4913.84,-0.0165361,-0.0168815,51.3339,4,-0.00417886,10,-0.00086659,-1.2896,-13.2514,-0.00445237,-8.91066,-0.0168815,
2,1,0,1,1,4913.85,-0.01334,-0.0136928,51.2746,4,-0.00397362,10,-0.000702093,-1.2901,-7.0151,-0.00841043,-16.821,-0.0136928,
2,1,0,1,1,4913.85,-0.0101328,-0.0104268,51.2238,4,-0.00376862,10,-0.000534098,-1.29053,-4.98487,-0.0118358,-23.6419,-0.0104268,
2,1,0,1,1,4913.85,-0.00693663,-0.0073081,51.1396,4,-0.0035639,10,-0.000373733,-1.29124,-4.14443,-0.014236,-28.3885,-0.0073081,
2,1,0,1,1,4913.86,-0.00373494,-0.00408022,51.0312,4,-0.00335957,10,-0.000208219,-1.29216, , , ,-0.00408022,
2,1,0,1,1,4913.86,-0.000774628,-0.00116994,50.9191,4,-0.00317094,10,-5.95721e-05,-1.29312, , , ,-0.00116994,
2,1,0,0,1,4913.86,-0.000125413,-0.000516197,50.9104,4,-0.00313021,10,-2.62798e-05,-1.29319, , , ,-0.000516197,