File: Figure_codes/Fig_3-5/rawdata_trumpetplot_data/before 10th/20221101_1-115_002_TrumpetPlot_ParaChange_04_CV_C01_0.csv
mode,ox/red,error,control changes,counter inc.,time/s,control/V,Ewe/V,<I>/mA,cycle number,(Q-Qo)/C,I Range,P/W,log(|I|),Tafel slope mV/dec,alpha_eff,dI/d(E-IR),E-IR/V,
2,0,0,0,0,358.801,2.44065e-05,-0.000382585,-0.375388,1,0.0000000E+000,11,1.43618e-07,-3.42552, , , ,-0.000382585,
2,0,0,1,0,360.075,0.00129791,0.000953586,-0.17267,1,-0.00022547,11,-1.64656e-07,-3.76278, , , ,0.000953586,
2,0,0,1,0,361.573,0.00279612,0.00249648,-0.140802,1,-0.000421648,11,-3.51511e-07,-3.85139,-0.0192016,-3.07266,17.9646,0.00249648,
2,0,0,1,0,363.071,0.00429431,0.00398106,-0.121506,1,-0.000583853,11,-4.83721e-07,-3.9154,-0.0265643,-2.22103,10.6952,0.00398106,
2,0,0,1,0,364.569,0.00579242,0.00549307,-0.107112,1,-0.000722049,11,-5.88376e-07,-3.97016,-0.0299213,-1.97184,8.43187,0.00549307,
2,0,0,1,0,366.068,0.00729061,0.00703704,-0.0966712,1,-0.000841827,11,-6.80279e-07,-4.0147,-0.0339731,-1.73667,6.64314,0.00703704,
2,0,0,1,0,367.566,0.00878882,0.00848878,-0.0882585,1,-0.000947183,11,-7.49207e-07,-4.05424,-0.0378598,-1.55838,5.40273,0.00848878,
2,0,0,1,0,369.064,0.010287,0.0100083,-0.0805329,1,-0.00104044,11,-8.05999e-07,-4.09403,-0.040496,-1.45693,4.63531,0.0100083,
2,0,0,1,0,370.562,0.0117852,0.0114845,-0.0753323,1,-0.00112399,11,-8.6515e-07,-4.12302,-0.0438367,-1.34591,3.96566,0.0114845,
2,0,0,1,0,372.06,0.0132834,0.0130252,-0.0687985,1,-0.00119912,11,-8.96112e-07,-4.16242,-0.0465152,-1.2684,3.4278,0.0130252,
2,0,0,1,0,373.558,0.0147815,0.014515,-0.0648368,1,-0.0012665,11,-9.41107e-07,-4.18818,-0.0495941,-1.18966,3.005,0.01451502,
2,0,0,1,0,375.057,0.0162797,0.0159869,-0.0601446,1,-0.00132677,11,-9.61523e-07,-4.2208,-0.0555347,-1.0624,2.50464,0.0159869,
2,0,0,1,0,376.555,0.0177779,0.0174778,-0.0568553,1,-0.00138126,11,-9.93705e-07,-4.24523,-0.0557919,-1.0575,2.31042,0.0174778,
2,0,0,1,0,378.053,0.0192761,0.0190176,-0.0524724,1,-0.00143076,11,-9.97897e-07,-4.28007,-0.051759,-1.1399,2.35822,0.0190176,
2,0,0,1,0,379.551,0.0207743,0.0204479,-0.0496283,1,-0.00147473,11,-1.0148e-06,-4.30427,-0.0550146,-1.07244,2.09187,0.0204479,
2,0,0,1,0,381.049,0.0222725,0.0220078,-0.0462169,1,-0.00151426,11,-1.01713e-06,-4.3352,-0.0557733,-1.05785,1.93818,0.02200784,
2,0,0,1,0,382.548,0.0237707,0.0234755,-0.0442709,1,-0.00154954,11,-1.03928e-06,-4.35388,-0.0583835,-1.01056,1.74897,0.0234755,
2,0,0,1,0,384.046,0.0252689,0.0249707,-0.0412894,1,-0.00158128,11,-1.03103e-06,-4.38416,-0.0524963,-1.12389,1.82233,0.0249707,
2,0,0,1,0,385.544,0.0267671,0.0264839,-0.039298,1,-0.00160918,11,-1.04077e-06,-4.40563,-0.0510565,-1.15558,1.76784,0.0264839,
2,0,0,1,0,387.042,0.0282653,0.0279505,-0.0367761,1,-0.0016335,11,-1.02791e-06,-4.43443,-0.0529705,-1.11383,1.60453,0.0279505,
2,0,0,1,0,388.54,0.0297635,0.0294668,-0.0347546,1,-0.00165461,11,-1.02411e-06,-4.45899,-0.0566811,-1.04091,1.40113,0.0294668,
2,0,0,1,0,390.039,0.0312617,0.0309673,-0.0329225,1,-0.00167285,11,-1.01952e-06,-4.48251,-0.0531945,-1.10914,1.41036,0.0309673,
2,0,0,1,0,391.537,0.0327599,0.0324826,-0.0314061,1,-0.00168829,11,-1.02015e-06,-4.50299,-0.0544137,-1.08428,1.31394,0.0324826,
2,0,0,1,0,393.035,0.0342581,0.0339895,-0.0289741,1,-0.00170067,11,-9.84815e-07,-4.53799,-0.0481498,-1.22534,1.38646,0.0339895,
2,0,0,1,0,394.533,0.0357563,0.0354624,-0.0269388,1,-0.00171025,11,-9.55315e-07,-4.56962,-0.0579656,-1.01785,1.08115,0.0354624,
2,0,0,1,0,396.031,0.0372544,0.0369564,-0.0255672,1,-0.0017175,11,-9.44872e-07,-4.59232,-0.0477215,-1.23634,1.21079,0.0369564,
2,0,0,1,0,397.53,0.0387526,0.0384718,-0.0239237,1,-0.00172235,11,-9.20385e-07,-4.62117,-0.0436662,-1.35116,1.24077,0.0384718,
2,0,0,1,0,399.028,0.0402508,0.0399818,-0.0222652,1,-0.00172438,11,-8.90205e-07,-4.65237,-0.047032,-1.25446,1.06975,0.0399818,
2,0,0,1,0,400.526,0.041749,0.0414441,-0.0210043,1,-0.00172398,11,-8.70504e-07,-4.67769,-0.0605467,-0.974454,0.801899,0.0414441,
2,0,0,1,0,402.024,0.0432472,0.0429743,-0.0186876,1,-0.00172123,11,-8.03087e-07,-4.72845,-0.0411339,-1.43434,1.07383,0.0429743,
2,0,0,1,0,403.522,0.0447454,0.044427,-0.0169417,1,-0.00171671,11,-7.52667e-07,-4.77104,-0.0408778,-1.44333,1.00721,0.044427,
2,0,0,1,0,405.02,0.0462435,0.045991,-0.0156528,1,-0.00170942,11,-7.19887e-07,-4.80541,-0.0379804,-1.55343,0.966038,0.045991,
2,0,0,1,0,406.519,0.0477417,0.0474459,-0.014472,1,-0.00169989,11,-6.86635e-07,-4.83947,-0.0290908,-2.02813,1.15012,0.0474459,
2,0,0,1,0,408.017,0.0492399,0.0489591,-0.0130156,1,-0.0016881,11,-6.37234e-07,-4.88553,-0.0302234,-1.95213,0.956853,0.0489591,
2,0,0,1,0,409.515,0.0507381,0.0504638,-0.0114664,1,-0.00167447,11,-5.7864e-07,-4.94057,-0.0390537,-1.51074,0.674961,0.05046384,
2,0,0,1,0,411.013,0.0522363,0.0519368,-0.010378,1,-0.00165815,11,-5.38999e-07,-4.98389,-0.0204475,-2.88544,1.14067,0.05193682,
2,0,0,1,0,412.511,0.0537345,0.0534553,-0.00866398,1,-0.00163937,11,-4.63136e-07,-5.06228,-0.0241682,-2.44123,0.800309,0.0534553,
2,0,0,1,0,414.01,0.0552327,0.0549165,-0.00666876,1,-0.00161854,11,-3.66225e-07,-5.17596,-0.0159446,-3.70032,1.02713,0.05491652,
2,0,0,1,0,415.508,0.0567309,0.0564287,-0.00602555,1,-0.00159562,11,-3.40014e-07,-5.22,-0.0138077,-4.27298,0.97082,0.0564287,
2,0,0,1,0,417.006,0.0582291,0.057927,-0.00350056,1,-0.00157042,11,-2.02777e-07,-5.45586,-0.0095808,-6.15815,0.880418,0.057927,
2,0,0,1,0,418.504,0.0597273,0.0594159,-0.00210806,1,-0.00154269,11,-1.25252e-07,-5.67612,-0.00317546,-18.58,1.16667,0.0594159,
2,0,0,1,0,420.002,0.0612255,0.0609598,8.55488e-05,1,-0.00151259,11,5.21504e-09,-7.06779,-0.00596075,-9.89808,0.936042,0.0609598,
2,0,0,1,0,421.501,0.0627237,0.0624063,0.000275972,1,-0.00148009,11,1.72224e-08,-6.55913,0.00659197,8.95028,0.94421,0.0624063,
2,0,0,1,0,422.999,0.0642219,0.0639364,0.00229507,1,-0.00144535,11,1.46738e-07,-5.6392,0.00325446,18.129,1.45617,0.0639364,
2,0,0,1,0,424.497,0.0657201,0.0653967,0.00410493,1,-0.00140767,11,2.68449e-07,-5.38669,0.00930121,6.34326,1.06278,0.0653967,
2,0,0,1,0,425.995,0.0672183,0.0669194,0.00635003,1,-0.00136709,11,4.2494e-07,-5.19722,0.0120059,4.91427,1.0708,0.0669194,
2,0,0,1,0,427.493,0.0687164,0.0684526,0.00794456,1,-0.0013239,11,5.43826e-07,-5.09993,0.0126347,4.66968,1.23279,0.0684526,
2,1,0,1,0,428.992,0.0702146,0.0699096,0.00941748,1,-0.00127851,11,6.58372e-07,-5.02607,0.0168209,3.50754,1.18446,0.0699096,
2,0,0,1,0,430.49,0.0717128,0.0714313,0.0113922,1,-0.00122998,11,8.13758e-07,-4.94339,0.0210299,2.80553,1.21901,0.0714313,
2,0,0,1,0,431.988,0.073211,0.0729265,0.0135579,1,-0.00117847,11,9.8873e-07,-4.86781,0.0249111,2.36843,1.25159,0.0729265,
2,1,0,1,0,433.486,0.0747092,0.0744588,0.0148208,1,-0.0011244,11,1.10354e-06,-4.82913,0.0268902,2.19411,1.29568,0.0744588,
2,1,0,1,0,434.984,0.0762074,0.0758851,0.0174689,1,-0.00106763,11,1.32563e-06,-4.75773,0.0289987,2.03457,1.38371,0.0758851,
2,1,0,1,0,436.482,0.0777055,0.077412,0.0193671,1,-0.00100774,11,1.49924e-06,-4.71294,0.0294817,2.00124,1.47236,0.077412,
2,1,0,1,0,437.981,0.0792037,0.0789082,0.0214804,1,-0.000944719,11,1.69498e-06,-4.66796,0.0374689,1.57464,1.28114,0.0789082,
2,1,0,1,0,439.479,0.0807019,0.080396,0.0229458,1,-0.000878696,11,1.84475e-06,-4.6393,0.0476328,1.23864,1.09543,0.080396,
2,1,0,1,0,440.977,0.0822001,0.0819113,0.0250434,1,-0.000809872,11,2.05134e-06,-4.60131,0.0397767,1.48328,1.40413,0.0819113,
2,1,0,1,0,442.475,0.0836983,0.0834362,0.0268055,1,-0.000738091,11,2.23655e-06,-4.57178,0.0425021,1.38817,1.44959,0.0834362,
2,1,0,1,0,443.973,0.0851965,0.0848942,0.0292996,1,-0.000663064,11,2.48736e-06,-4.53314,0.0586562,1.00586,1.14413,0.08489421,
2,1,0,1,0,445.472,0.0866947,0.0863947,0.0303698,1,-0.000585024,11,2.62379e-06,-4.51756,0.0688296,0.85719,1.01592,0.0863947,
2,1,0,1,0,446.97,0.0881929,0.0879196,0.0329474,1,-0.000504014,11,2.89672e-06,-4.48218,0.0505905,1.16623,1.50303,0.0879196,
2,1,0,1,0,448.468,0.0896911,0.0894095,0.0347226,1,-0.000420369,11,3.10453e-06,-4.45939,0.0539823,1.09295,1.50483,0.0894095,
2,1,0,1,0,449.966,0.0911893,0.0909259,0.0373658,1,-0.000333371,11,3.39752e-06,-4.42753,0.0687941,0.857632,1.23267,0.0909259,
2,1,0,1,0,451.464,0.0926875,0.0923606,0.0388942,1,-0.00024253,11,3.59229e-06,-4.41012,0.0585013,1.00852,1.53922,0.0923606,
2,1,0,1,0,452.963,0.0941857,0.0938547,0.0410126,1,-0.000148983,11,3.84923e-06,-4.38708,0.0616054,0.957709,1.52484,0.0938547,
2,1,0,1,0,454.461,0.0956839,0.0954135,0.0433897,1,-5.2756e-05,11,4.13997e-06,-4.36261,0.0666082,0.885776,1.48324,0.0954135,
2,1,0,1,0,455.959,0.0971821,0.0969013,0.0450414,1,4.70898e-05,11,4.36457e-06,-4.34639,0.0670218,0.88031,1.55334,0.0969013,
2,1,0,1,0,457.457,0.0986803,0.0983753,0.0481164,1,0.000150542,11,4.73347e-06,-4.31771,0.0651363,0.905793,1.70045,0.0983753,
2,1,0,1,0,458.955,0.100178,0.0998979,0.0501179,1,0.0002573,11,5.00667e-06,-4.30001,0.0824737,0.715379,1.40983,0.0998979,
2,1,0,1,0,460.454,0.101677,0.101423,0.0515718,1,0.000367145,11,5.23055e-06,-4.28759,0.0734448,0.803325,1.64512,0.101423,
2,1,0,1,0,461.952,0.103175,0.102925,0.0549192,1,0.00048102,11,5.65258e-06,-4.26028,0.0675751,0.873103,1.85764,0.102925,
2,1,0,1,0,463.45,0.104673,0.104404,0.058951,1,0.000599185,11,6.15469e-06,-4.22951,0.0677305,0.871099,1.9526,0.104404,
2,1,0,1,0,464.948,0.106171,0.105904,0.060103,1,0.000721552,11,6.36516e-06,-4.2211,0.0753653,0.782854,1.84217,0.105904,
2,1,0,1,0,466.446,0.107669,0.10733,0.0626926,1,0.000847859,11,6.72882e-06,-4.20278,0.0774243,0.762035,1.88836,0.10733,
2,1,0,1,0,467.944,0.109167,0.108865,0.0661936,1,0.000979122,11,7.20614e-06,-4.17918,0.0681353,0.865924,2.27026,0.108865,
2,1,0,1,0,469.443,0.110666,0.110386,0.0697243,1,0.00111552,11,7.69661e-06,-4.15662,0.068204,0.865052,2.38851,0.110386,
2,1,0,1,0,470.941,0.112164,0.111858,0.0741045,1,0.00125813,11,8.28919e-06,-4.13016,0.0711261,0.829513,2.39482,0.1118582,
2,1,0,1,0,472.439,0.113662,0.113375,0.0783721,1,0.00140652,11,8.8854e-06,-4.10584,0.0662397,0.890704,2.74677,0.113375,
2,1,0,1,0,473.937,0.11516,0.114889,0.0839039,1,0.00156083,11,9.63963e-06,-4.07622,0.0594796,0.991937,3.21615,0.114889,
2,1,0,1,0,475.435,0.116658,0.116407,0.088592,1,0.00172319,11,1.03128e-05,-4.05261,0.0617609,0.955297,3.27618,0.116407,
2,1,0,1,0,476.934,0.118157,0.117887,0.0931772,1,0.00189387,11,1.09843e-05,-4.03069,0.0622833,0.947285,3.45137,0.117887,
2,1,0,1,0,478.432,0.119655,0.119337,0.099264,1,0.00207227,11,1.18459e-05,-4.00321,0.0611082,0.9655,3.73628,0.119337,
2,1,0,1,0,479.93,0.121153,0.120874,0.104685,1,0.00225873,11,1.26536e-05,-3.98012,0.0574485,1.02701,4.22959,0.120874,
2,1,0,1,0,481.428,0.122651,0.122376,0.111301,1,0.0024552,11,1.36206e-05,-3.9535,0.0538773,1.09508,4.7505,0.122376,
2,1,0,1,0,482.926,0.124149,0.123865,0.118324,1,0.00266208,11,1.46563e-05,-3.92693,0.0597806,0.986942,4.55459,0.123865,
2,1,0,1,0,484.425,0.125648,0.125343,0.125413,1,0.00287899,11,1.57198e-05,-3.90166,0.0629544,0.937186,4.57056,0.1253435,
2,1,0,1,0,485.923,0.127146,0.126842,0.130436,1,0.00310582,11,1.65447e-05,-3.8846,0.0672526,0.877289,4.49511,0.126842,
2,1,0,1,0,487.421,0.128644,0.12834,0.139295,1,0.00334317,11,1.78771e-05,-3.85607,0.0710953,0.829872,4.47658,0.12834,
2,1,0,1,0,488.919,0.130142,0.129839,0.146604,1,0.00359119,11,1.90349e-05,-3.83385,0.0798637,0.738759,4.16969,0.129839,
2,1,0,1,0,490.417,0.13164,0.131383,0.151394,1,0.00384904,11,1.98907e-05,-3.81989,0.0999438,0.590332,3.46634,0.131383,
2,1,0,1,0,491.916,0.133139,0.132873,0.156713,1,0.00411488,11,2.0823e-05,-3.80489,0.0998123,0.591109,3.63126,0.132873,
2,1,0,1,0,493.414,0.134637,0.134348,0.162272,1,0.00438845,11,2.1801e-05,-3.78976,0.111185,0.530647,3.35825,0.134348,
2,1,0,1,0,494.912,0.136135,0.135814,0.166378,1,0.00467004,11,2.25964e-05,-3.7789,0.137929,0.427755,2.78054,0.135814,
2,1,0,1,0,496.41,0.137633,0.137357,0.17069,1,0.00495786,11,2.34455e-05,-3.76779,0.215802,0.273399,1.79862,0.137357,
2,1,0,1,0,497.908,0.139131,0.138849,0.173198,1,0.00525005,11,2.40483e-05,-3.76146,0.309501,0.19063,1.27674,0.1388488,
2,1,0,1,0,499.407,0.14063,0.140331,0.174437,1,0.00554424,11,2.4479e-05,-3.75836,0.625528,0.0943203,0.638284,0.140331,
2,1,0,1,0,500.905,0.142128,0.141857,0.17664,1,0.00584157,11,2.50576e-05,-3.75291,1.56587,0.0376787,0.256254,0.141857,
2,1,0,1,0,502.403,0.143626,0.143329,0.175199,1,0.00613986,11,2.51111e-05,-3.75647,-0.619905,-0.0951758,-0.646943,0.143329,
2,1,0,1,0,503.901,0.145124,0.144883,0.173918,1,0.00643659,11,2.51978e-05,-3.75966,-0.241257,-0.244553,-1.66295,0.144883,
2,1,0,1,0,505.399,0.146622,0.146341,0.170926,1,0.00672916,11,2.50134e-05,-3.76719,-0.202732,-0.291024,-1.93968,0.146341,
2,1,0,1,0,506.897,0.14812,0.147841,0.166941,1,0.00701863,11,2.46807e-05,-3.77744,-0.183932,-0.32077,-2.08704,0.147841,
2,1,0,1,0,508.396,0.149619,0.149349,0.163751,1,0.0073022,11,2.4456e-05,-3.78582,-0.115765,-0.509652,-3.24565,0.149349,
2,1,0,1,0,509.894,0.151117,0.150818,0.158678,1,0.00757817,11,2.39315e-05,-3.79948,-0.0916832,-0.64352,-3.94727,0.150818,
2,1,0,1,0,511.392,0.152615,0.152318,0.151126,1,0.00784562,11,2.30192e-05,-3.82066,-0.0836841,-0.705032,-4.15233,0.152318,
2,1,0,1,0,512.89,0.154113,0.15383,0.145328,1,0.00810243,11,2.23559e-05,-3.83765,-0.0688014,-0.857541,-4.84338,0.15383,
2,1,0,1,0,514.388,0.155611,0.155341,0.138755,1,0.00834964,11,2.15543e-05,-3.85775,-0.0633003,-0.932065,-4.9953,0.155341,
2,1,0,1,0,515.887,0.15711,0.156814,0.130381,1,0.00858571,11,2.04456e-05,-3.88478,-0.0554559,-1.06391,-5.37193,0.156814,
2,1,0,1,0,517.385,0.158608,0.158308,0.122719,1,0.00880979,11,1.94274e-05,-3.91109,-0.0528885,-1.11555,-5.32441,0.158308,
2,1,0,1,0,518.883,0.160106,0.159808,0.115326,1,0.0090218,11,1.843e-05,-3.93807,-0.0530937,-1.11124,-4.99823,0.159808,
2,1,0,1,0,520.381,0.161604,0.161298,0.108047,1,0.00922349,11,1.74277e-05,-3.96639,-0.0539456,-1.09369,-4.64157,0.161298,
2,1,0,1,0,521.879,0.163102,0.162803,0.101638,1,0.00941492,11,1.6547e-05,-3.99294,-0.0537088,-1.09852,-4.34467,0.162803,
2,1,0,1,0,523.378,0.164601,0.164296,0.0960206,1,0.00959687,11,1.57758e-05,-4.01764,-0.0557585,-1.05813,-3.95275,0.1642964,
2,1,0,1,0,524.876,0.166099,0.165848,0.0902991,1,0.00976939,11,1.49759e-05,-4.04432,-0.0625321,-0.943515,-3.32127,0.165848,
2,1,0,1,0,526.374,0.167597,0.1673,0.0845679,1,0.00993462,11,1.41482e-05,-4.07279,-0.063185,-0.933767,-3.09957,0.1673,
2,1,0,1,0,527.872,0.169095,0.168822,0.0805634,1,0.0100931,11,1.36009e-05,-4.09386,-0.065965,-0.894414,-2.8203,0.168822,
2,1,0,1,0,529.37,0.170593,0.17033,0.0769314,1,0.0102448,11,1.31037e-05,-4.1139,-0.0689621,-0.855543,-2.57638,0.17033,
2,1,0,1,0,530.868,0.172091,0.171786,0.0730695,1,0.0103905,11,1.25523e-05,-4.13626,-0.0807886,-0.730301,-2.07265,0.171786,
2,1,0,1,0,532.367,0.17359,0.173295,0.0694388,1,0.0105318,11,1.20334e-05,-4.1584,-0.0868673,-0.679197,-1.84999,0.173295,
2,1,0,1,0,533.865,0.175088,0.174796,0.0676596,1,0.0106683,11,1.18267e-05,-4.16967,-0.0919122,-0.641917,-1.6933,0.174796,
2,1,0,1,0,535.363,0.176586,0.176318,0.0649729,1,0.0108012,11,1.14559e-05,-4.18727,-0.0951899,-0.619814,-1.56452,0.176318,
2,1,0,1,0,536.861,0.178084,0.177795,0.0620623,1,0.0109302,11,1.10344e-05,-4.20717,-0.095762,-0.616111,-1.5054,0.177795,
2,1,0,1,0,538.359,0.179582,0.179347,0.0599803,1,0.0110558,11,1.07573e-05,-4.22199,-0.105716,-0.558097,-1.31941,0.179347,
2,1,0,1,0,539.858,0.181081,0.180857,0.0584355,1,0.0111788,11,1.05684e-05,-4.23332,-0.139631,-0.422542,-0.975018,0.180857,
2,1,0,1,0,541.356,0.182579,0.182283,0.0572773,1,0.0112992,11,1.04407e-05,-4.24202,-0.149235,-0.395349,-0.888787,0.182283,
2,1,0,1,0,542.854,0.184077,0.183788,0.0556319,1,0.0114171,11,1.02245e-05,-4.25468,-0.158226,-0.372885,-0.811684,0.183788,
2,1,0,1,0,544.352,0.185575,0.185272,0.0547984,1,0.0115325,11,1.01526e-05,-4.26123,-0.154362,-0.382219,-0.816462,0.185272,
2,1,0,1,0,545.85,0.187073,0.186834,0.0539081,1,0.0116462,11,1.00719e-05,-4.26835,-0.17922,-0.329205,-0.687654,0.186834,
2,1,0,1,0,547.349,0.188572,0.188236,0.0527693,1,0.0117585,11,9.93308e-06,-4.27762,-0.218519,-0.27,-0.549276,0.188236,
2,1,0,1,0,548.847,0.19007,0.189786,0.0513578,1,0.0118689,11,9.74697e-06,-4.28939,-0.192809,-0.306002,-0.612058,0.189786,
2,1,0,1,0,550.345,0.191568,0.191284,0.0507696,1,0.0119777,11,9.71141e-06,-4.2944,-0.220173,-0.267971,-0.52672,0.191284,
2,1,0,1,0,551.843,0.193066,0.192755,0.0500978,1,0.0120854,11,9.65658e-06,-4.30018,-0.220522,-0.267547,-0.52075,0.1927546,
2,1,0,1,0,553.341,0.194564,0.194282,0.0488277,1,0.012192,11,9.48632e-06,-4.31133,-0.169661,-0.347751,-0.665074,0.194282,
2,1,0,1,0,554.84,0.196063,0.195747,0.0487729,1,0.0122973,11,9.54714e-06,-4.31182,-0.381003,-0.154854,-0.292959,0.195747,
2,1,0,1,0,556.338,0.197561,0.197277,0.0475219,1,0.0124013,11,9.37498e-06,-4.32311,-0.36186,-0.163046,-0.305297,0.197277,
2,1,0,1,0,557.836,0.199059,0.19878,0.047676,1,0.0125048,11,9.47702e-06,-4.3217,-0.37029,-0.159335,-0.294677,0.19878,
2,1,0,1,0,559.334,0.200557,0.200239,0.046385,1,0.0126074,11,9.28808e-06,-4.33362,-0.377963,-0.1561,-0.28496,0.200239,
2,1,0,1,0,560.832,0.202055,0.201774,0.04656,1,0.0127095,11,9.39461e-06,-4.33199,-0.826522,-0.0713834,-0.129428,0.201774,
2,1,0,1,0,562.331,0.203554,0.203268,0.0456279,1,0.0128108,11,9.27472e-06,-4.34077,-0.576758,-0.102296,-0.183991,0.203268,
2,1,0,1,0,563.829,0.205052,0.204729,0.0462223,1,0.0129114,11,9.46303e-06,-4.33515,-0.648441,-0.0909874,-0.164679,0.2047286,
2,1,0,1,0,565.327,0.20655,0.206263,0.0454061,1,0.0130117,11,9.3656e-06,-4.34289,-0.646251,-0.0912958,-0.161875,0.206263,
2,1,0,1,0,566.825,0.208048,0.207773,0.0451224,1,0.0131119,11,9.37522e-06,-4.34561,-0.92493,-0.0637886,-0.112647,0.207773,
2,1,0,1,0,568.323,0.209546,0.209312,0.0446279,1,0.0132112,11,9.34115e-06,-4.35039,-0.60476,-0.0975594,-0.171961,0.209312,
2,1,0,1,0,569.821,0.211044,0.210793,0.0447326,1,0.0133097,11,9.42931e-06,-4.34938,-0.468508,-0.125932,-0.218965,0.210793,
2,1,0,1,0,571.32,0.212543,0.21225,0.0450481,1,0.0134083,11,9.56146e-06,-4.34632,1.24112,0.0475376,0.0831539,0.21225,
2,1,0,1,0,572.818,0.214041,0.213756,0.0444532,1,0.0135066,11,9.50214e-06,-4.3521,-0.487203,-0.1211,-0.20926,0.213756,
2,1,0,1,0,574.316,0.215539,0.215215,0.0445633,1,0.0136046,11,9.59069e-06,-4.35102,-0.530769,-0.111159,-0.192746,0.215215,
2,1,0,1,0,575.814,0.217037,0.216765,0.0442979,1,0.0137021,11,9.60226e-06,-4.35362,-3.05713,-0.0192991,-0.0334933,0.216765,
2,1,0,1,0,577.312,0.218535,0.218196,0.0438287,1,0.0137997,11,9.56324e-06,-4.35824,0.925717,0.0637344,0.109546,0.218196,
2,1,0,1,0,578.811,0.220034,0.219757,0.0439383,1,0.0138973,11,9.65575e-06,-4.35716,5.72154,0.0103119,0.0177541,0.219757,
2,1,0,1,0,580.309,0.221532,0.221247,0.0441729,1,0.0139948,11,9.7731e-06,-4.35484,-2.04051,-0.0289144,-0.0499094,0.221247,
2,1,0,1,0,581.807,0.22303,0.222783,0.0441942,1,0.0140919,11,9.84573e-06,-4.35463,-1.22241,-0.0482654,-0.0829863,0.222783,
2,1,0,1,0,583.305,0.224528,0.2242,0.0440671,1,0.0141889,11,9.87985e-06,-4.35589,-0.861004,-0.0685247,-0.118596,0.2242,
2,1,0,1,0,584.803,0.226026,0.225762,0.0435585,1,0.014286,11,9.83384e-06,-4.36093,-1.4722,-0.040076,-0.0688086,0.225762,
2,1,0,1,0,586.302,0.227525,0.227226,0.0439608,1,0.014383,11,9.98904e-06,-4.35693,-1.83497,-0.0321531,-0.0552759,0.227226,
2,1,0,1,0,587.8,0.229023,0.228715,0.0441064,1,0.01448,11,1.00878e-05,-4.3555,-3.13074,-0.0188454,-0.0325286,0.228715,
2,1,0,1,0,589.298,0.230521,0.230225,0.0438482,1,0.0145768,11,1.0095e-05,-4.35805,1.04417,0.056504,0.0971463,0.2302251,
2,1,0,1,0,590.796,0.232019,0.231691,0.0439417,1,0.0146737,11,1.01809e-05,-4.35712,0.831401,0.0709646,0.122402,0.231691,
2,1,0,1,0,592.294,0.233517,0.233209,0.0441012,1,0.014771,11,1.02848e-05,-4.35555,-1.85398,-0.0318235,-0.0549667,0.233209,
2,1,0,1,0,593.793,0.235016,0.234733,0.0446163,1,0.0148681,11,1.04729e-05,-4.35051,-86.255,-0.000684018,-0.00118955,0.234733,
2,1,0,1,0,595.291,0.236514,0.236256,0.0440799,1,0.0149651,11,1.04141e-05,-4.35576,0.984762,0.0599129,0.103792,0.236256,
2,1,0,1,0,596.789,0.238012,0.237738,0.0444806,1,0.0150624,11,1.05747e-05,-4.35183,-114.001,-0.000517539,-0.000895983,0.237738,
2,1,0,1,0,598.287,0.23951,0.239218,0.0448105,1,0.0151597,11,1.07195e-05,-4.34862,-1.50787,-0.0391281,-0.0679914,0.239218,
2,1,0,1,0,599.785,0.241008,0.240758,0.044492,1,0.0152571,11,1.07118e-05,-4.35172,-2.40322,-0.0245504,-0.0427678,0.240758,
2,1,0,1,0,601.283,0.242506,0.242199,0.0446156,1,0.0153542,11,1.08059e-05,-4.35051,0.646837,0.091213,0.158356,0.242199,
2,1,0,1,0,602.782,0.244005,0.24372,0.0445628,1,0.0154518,11,1.08608e-05,-4.35103,0.831085,0.0709916,0.123622,0.24372,
2,1,0,1,0,604.28,0.245503,0.245249,0.0451887,1,0.0155495,11,1.10825e-05,-4.34497,-3.9453,-0.0149545,-0.0262604,0.245249,
2,1,0,1,0,605.778,0.247001,0.246734,0.0451037,1,0.0156472,11,1.11286e-05,-4.34579,-4.60561,-0.0128105,-0.0224945,0.246734,
2,1,0,1,0,607.276,0.248499,0.248211,0.0448237,1,0.0157451,11,1.11257e-05,-4.34849,0.926897,0.0636533,0.111678,0.248211,
2,1,0,1,0,608.774,0.249997,0.249705,0.045193,1,0.0158431,11,1.12849e-05,-4.34493,-11.6217,-0.00507672,-0.00899104,0.249705,
2,1,0,1,0,610.273,0.251496,0.251219,0.0453753,1,0.0159414,11,1.13991e-05,-4.34318,5.28948,0.0111542,0.0198631,0.251219,
2,1,0,1,0,611.771,0.252994,0.252725,0.0459722,1,0.0160398,11,1.16183e-05,-4.3375,1.5592,0.0378399,0.0674058,0.252725,
2,1,0,1,0,613.269,0.254492,0.254216,0.0461295,1,0.0161383,11,1.17268e-05,-4.33602,1.30081,0.0453564,0.0805271,0.254216,
2,1,0,1,0,614.767,0.25599,0.255711,0.0459052,1,0.0162367,11,1.17385e-05,-4.33814,0.681067,0.0866287,0.154772,0.255711,
2,1,0,1,0,616.265,0.257488,0.257243,0.0460398,1,0.0163354,11,1.18434e-05,-4.33687,0.68777,0.0857845,0.153258,0.257243,
2,1,0,1,0,617.764,0.258987,0.258697,0.0461684,1,0.0164344,11,1.19436e-05,-4.33566,0.764635,0.077161,0.13771,0.258697,
2,1,0,1,0,619.262,0.260485,0.260199,0.0465011,1,0.0165334,11,1.20995e-05,-4.33254,15.0985,0.00390766,0.00701802,0.260199,
2,1,0,1,0,620.76,0.261983,0.261748,0.0463036,1,0.0166322,11,1.21199e-05,-4.33439,13918.9,4.23883e-06,7.60816e-06,0.261748,
2,1,0,1,0,622.258,0.263481,0.26321,0.0465528,1,0.0167316,11,1.22532e-05,-4.33205,8.78226,0.00671809,0.0121458,0.26321,
2,1,0,1,0,623.756,0.264979,0.264681,0.0462789,1,0.0168313,11,1.22491e-05,-4.33462,0.626008,0.0942481,0.171047,0.264681,
2,1,0,1,0,625.255,0.266477,0.266214,0.0463739,1,0.0169309,11,1.23454e-05,-4.33373,1.73306,0.0340438,0.0624259,0.266214,
2,1,0,1,0,626.753,0.267976,0.267685,0.0474557,1,0.0170307,11,1.27032e-05,-4.32371,0.87064,0.0677662,0.125008,0.267685,
2,1,0,1,0,628.251,0.269474,0.269233,0.0467935,1,0.0171307,11,1.25984e-05,-4.32981,0.451193,0.130764,0.239137,0.269233,
2,1,0,1,0,629.749,0.270972,0.270711,0.0472034,1,0.017231,11,1.27785e-05,-4.32603,-1.95291,-0.0302113,-0.0554941,0.270711,
2,1,0,1,0,631.247,0.27247,0.272159,0.046862,1,0.0173315,11,1.27539e-05,-4.32918,0.500895,0.117789,0.214685,0.272159,
2,1,0,1,0,632.745,0.273968,0.273695,0.0464674,1,0.0174318,11,1.27179e-05,-4.33285,0.507078,0.116353,0.213484,0.273695,
2,1,0,1,0,634.244,0.275467,0.275192,0.0472901,1,0.0175323,11,1.30138e-05,-4.32523,0.579436,0.101823,0.189064,0.275192,
2,1,0,1,0,635.742,0.276965,0.276692,0.0472877,1,0.0176332,11,1.30841e-05,-4.32525,0.715934,0.0824098,0.154291,0.276692,
2,1,0,1,0,637.24,0.278463,0.278175,0.0475518,1,0.0177342,11,1.32277e-05,-4.32283,-1.36402,-0.0432543,-0.0812641,0.278175,
2,1,0,1,0,638.738,0.279961,0.279676,0.0479587,1,0.0178355,11,1.34129e-05,-4.31913,0.785842,0.0750787,0.140474,0.279676,
2,1,0,1,0,640.236,0.281459,0.281209,0.0480496,1,0.0179367,11,1.3512e-05,-4.31831,1.67605,0.0352019,0.0660653,0.281209,
2,1,0,1,0,641.735,0.282958,0.2827,0.0478408,1,0.0180383,11,1.35246e-05,-4.3202,0.838483,0.0703652,0.132441,0.2827,
2,1,0,1,0,643.233,0.284456,0.284204,0.0481618,1,0.0181402,11,1.36878e-05,-4.3173,0.669707,0.0880982,0.165255,0.284204,
2,1,0,1,0,644.731,0.285954,0.285656,0.0486109,1,0.0182421,11,1.3886e-05,-4.31327,1.3869,0.0425409,0.0802655,0.2856558,
2,1,0,1,0,646.229,0.287452,0.287132,0.0485086,1,0.0183439,11,1.39284e-05,-4.31418,1.39207,0.042383,0.0802192,0.287132,
2,1,0,1,0,647.727,0.28895,0.288704,0.0485336,1,0.0184462,11,1.40119e-05,-4.31396,0.696039,0.0847653,0.161869,0.288704,
2,1,0,1,0,649.226,0.290448,0.290184,0.0491621,1,0.0185487,11,1.4266e-05,-4.30837,0.373405,0.158005,0.301906,0.290184,
2,1,0,1,0,650.724,0.291947,0.291645,0.0489926,1,0.0186512,11,1.42884e-05,-4.30987,0.563043,0.104788,0.199809,0.291645,
2,1,0,1,0,652.222,0.293445,0.293153,0.0488691,1,0.0187538,11,1.43261e-05,-4.31097,0.395783,0.149072,0.28506,0.293153,
2,1,0,1,0,653.72,0.294943,0.294616,0.0499357,1,0.0188569,11,1.47119e-05,-4.30159,0.541509,0.108955,0.209835,0.294616,
2,1,0,1,0,655.218,0.296441,0.296168,0.0499545,1,0.0189603,11,1.47949e-05,-4.30143,0.799583,0.0737884,0.142602,0.296168,
2,1,0,1,0,656.717,0.297939,0.297664,0.0500346,1,0.0190637,11,1.48935e-05,-4.30073,0.633578,0.0931219,0.1807,0.297664,
2,1,0,1,0,658.215,0.299438,0.299176,0.049459,1,0.0191671,11,1.47969e-05,-4.30575,-0.00737621,-7.99868,-11.8358,0.299176,
2,1,0,1,0,659.064,0.299737,0.299456,0.0334644,1,0.0192107,11,1.00211e-05,-4.47542,0.00347283,16.989,22.3604,0.299456,
2,1,0,1,0,660.562,0.298239,0.297981,0.0234287,1,0.0192224,11,6.98131e-06,-4.63025,0.00868257,6.79523,8.22197,0.297981,
2,1,0,1,0,662.061,0.296741,0.296435,0.0187584,1,0.0192251,11,5.56063e-06,-4.7268,0.0166734,3.53857,2.73533,0.296435,
2,1,0,1,0,663.559,0.295243,0.294946,0.0151692,1,0.0192223,11,4.47408e-06,-4.81904,0.0207246,2.84685,1.82928,0.294946,
2,1,0,1,0,665.057,0.293745,0.293452,0.0130042,1,0.0192156,11,3.8161e-06,-4.88592,0.0225475,2.6167,1.41343,0.293452,
2,1,0,1,0,666.555,0.292246,0.291979,0.0112941,1,0.0192058,11,3.29763e-06,-4.94715,0.02043,2.88791,1.2847,0.2919789,
2,1,0,1,0,668.053,0.290748,0.290443,0.00935025,1,0.019193,11,2.71572e-06,-5.02918,0.0170972,3.45086,1.27977,0.290443,
2,1,0,1,0,669.552,0.28925,0.288938,0.00777686,1,0.0191775,11,2.24703e-06,-5.1092,0.0177567,3.32269,0.972331,0.288938,
2,1,0,1,0,671.05,0.287752,0.287461,0.00669535,1,0.0191596,11,1.92465e-06,-5.17423,0.0143839,4.10181,0.964328,0.287461,
2,1,0,1,0,672.548,0.286254,0.285983,0.00527323,1,0.0191397,11,1.50806e-06,-5.27792,0.0124374,4.74375,0.913071,0.285983,
2,1,0,1,0,674.046,0.284755,0.284499,0.00409236,1,0.0191176,11,1.16427e-06,-5.38803,0.0083832,7.03788,1.01284,0.284499,
2,1,0,1,0,675.544,0.283257,0.282941,0.00263383,1,0.0190936,11,7.45219e-07,-5.57941,0.00746073,7.90808,0.72255,0.282941,
2,1,0,1,0,677.043,0.281759,0.281498,0.00166991,1,0.0190678,11,4.70076e-07,-5.77731,0.00421174,14.0085,0.768079,0.281498,
2,1,0,1,0,678.541,0.280261,0.279987,0.000356125,1,0.0190404,11,9.97103e-08,-6.4484,0.00711635,8.29077,0.647724,0.279987,
2,1,0,1,0,680.039,0.278763,0.278482,-0.000458476,1,0.0190113,11,-1.27677e-07,-6.33868,-0.0134537,-4.38542,0.59999,0.278482,
2,1,0,1,0,681.537,0.277264,0.277014,-0.00140569,1,0.0189805,11,-3.89396e-07,-5.85211,-0.00308498,-19.1249,0.695646,0.2770144,
2,1,0,1,0,683.035,0.275766,0.275491,-0.00238761,1,0.0189483,11,-6.57764e-07,-5.62204,-0.00641377,-9.19895,0.7105,0.275491,
2,1,0,1,0,684.533,0.274268,0.273957,-0.00326216,1,0.0189145,11,-8.93693e-07,-5.48649,-0.0112359,-5.25102,0.660409,0.273957,
2,1,0,1,0,686.032,0.27277,0.272477,-0.00393047,1,0.0188797,11,-1.07096e-06,-5.40555,-0.0173174,-3.40697,0.523599,0.272477,
2,0,0,1,0,687.53,0.271272,0.271017,-0.00494234,1,0.0188431,11,-1.33946e-06,-5.30607,-0.0284634,-2.07284,0.414674,0.271017,
2,0,0,1,0,689.028,0.269774,0.269454,-0.00572585,1,0.0188052,11,-1.54285e-06,-5.24216,-0.0233965,-2.52175,0.564913,0.269454,
2,0,0,1,0,690.526,0.268275,0.267995,-0.00657874,1,0.0187661,11,-1.76307e-06,-5.18186,-0.0239253,-2.46601,0.65473,0.267995,
2,0,0,1,0,692.024,0.266777,0.266485,-0.00725103,1,0.0187259,11,-1.93229e-06,-5.1396,-0.0417372,-1.41361,0.405432,0.266485,
2,0,0,1,0,693.523,0.265279,0.265,-0.0083963,1,0.0186843,11,-2.22502e-06,-5.07591,-0.0364031,-1.62074,0.512538,0.265,
2,1,0,1,0,695.021,0.263781,0.263506,-0.00922229,1,0.0186414,11,-2.43013e-06,-5.03516,-0.0331252,-1.78112,0.614003,0.263506,
2,1,0,1,0,696.519,0.262283,0.261986,-0.0098128,1,0.0185973,11,-2.57082e-06,-5.00821,-0.0564208,-1.04571,0.40619,0.261986,
2,0,0,1,0,698.017,0.260784,0.260516,-0.0110286,1,0.0185522,11,-2.87313e-06,-4.95748,-0.0405272,-1.45581,0.606706,0.2605156,
2,0,0,1,0,699.515,0.259286,0.258993,-0.0113712,1,0.0185057,11,-2.94505e-06,-4.94419,-0.0481974,-1.22413,0.544491,0.258993,
2,0,0,1,0,701.014,0.257788,0.257492,-0.0122821,1,0.018458,11,-3.16256e-06,-4.91073,-0.0477424,-1.2358,0.577173,0.2574923,
2,0,0,1,0,702.512,0.25629,0.255966,-0.0127198,1,0.0184091,11,-3.25585e-06,-4.89552,-0.0699964,-0.842901,0.40213,0.255966,
2,0,0,1,0,704.01,0.254792,0.254484,-0.0133043,1,0.0183594,11,-3.38573e-06,-4.87601,-0.0613736,-0.961325,0.513818,0.254484,
2,0,0,1,0,705.508,0.253293,0.253019,-0.0143563,1,0.0183085,11,-3.63241e-06,-4.84296,-0.111336,-0.52993,0.293773,0.253019,
2,0,0,1,0,707.006,0.251795,0.251484,-0.0154391,1,0.0182564,11,-3.88268e-06,-4.81138,-0.0764328,-0.77192,0.448915,0.251484,
2,0,0,1,0,708.505,0.250297,0.249998,-0.0154484,1,0.0182032,11,-3.86207e-06,-4.81112,-0.0567525,-1.0396,0.633329,0.249998,
2,0,0,1,0,710.003,0.248799,0.248476,-0.0166652,1,0.018149,11,-4.1409e-06,-4.77819,-0.105696,-0.558207,0.358412,0.248476,
2,0,0,1,0,711.501,0.247301,0.247009,-0.0170083,1,0.0180939,11,-4.2012e-06,-4.76934,-0.0704494,-0.83748,0.563548,0.247009,
2,0,0,1,0,712.999,0.245802,0.245541,-0.0178265,1,0.0180376,11,-4.37714e-06,-4.74893,-0.0826552,-0.713808,0.482121,0.245541,
2,0,0,1,0,714.497,0.244304,0.244046,-0.0184982,1,0.01798,11,-4.51442e-06,-4.73287,-0.129385,-0.456002,0.323219,0.244046,
2,0,0,1,0,715.995,0.242806,0.242479,-0.0189917,1,0.0179214,11,-4.60509e-06,-4.72144,-0.137237,-0.429913,0.320489,0.242479,
2,0,0,1,0,717.494,0.241308,0.241023,-0.0199759,1,0.0178622,11,-4.81466e-06,-4.69949,-0.102952,-0.573083,0.447857,0.2410233,
2,0,0,1,0,718.992,0.23981,0.239521,-0.0201455,1,0.0178015,11,-4.82527e-06,-4.69582,-0.138489,-0.426026,0.338407,0.239521,
2,0,0,1,0,720.49,0.238312,0.238031,-0.0211185,1,0.0177399,11,-5.02684e-06,-4.67534,-0.118215,-0.49909,0.40969,0.238031,
2,0,0,1,0,721.988,0.236813,0.236556,-0.0221743,1,0.0176771,11,-5.24546e-06,-4.65415,-0.103779,-0.568514,0.484634,0.236556,
2,0,0,1,0,723.486,0.235315,0.235025,-0.0227198,1,0.0176134,11,-5.33972e-06,-4.64359,-0.15537,-0.379739,0.32883,0.235025,
2,0,0,1,0,724.985,0.233817,0.233537,-0.0228231,1,0.0175486,11,-5.33003e-06,-4.64163,-0.125657,-0.469533,0.41718,0.233537,
2,0,0,1,0,726.483,0.232319,0.232035,-0.0237263,1,0.0174826,11,-5.50533e-06,-4.62477,-0.10296,-0.57304,0.530532,0.232035,
2,0,0,1,0,727.981,0.230821,0.230551,-0.0245008,1,0.0174155,11,-5.64868e-06,-4.61082,-0.0958667,-0.615438,0.581354,0.230551,
2,0,0,1,0,729.479,0.229322,0.229016,-0.0251123,1,0.0173475,11,-5.75112e-06,-4.60011,-0.118353,-0.49851,0.491573,0.229016,
2,0,0,1,0,730.977,0.227824,0.227518,-0.0256635,1,0.0172783,11,-5.8389e-06,-4.59068,-0.10585,-0.557394,0.57119,0.227518,
2,0,0,1,0,732.476,0.226326,0.226067,-0.0265223,1,0.0172082,11,-5.99583e-06,-4.57639,-0.136672,-0.43169,0.454607,0.226067,
2,0,0,1,0,733.974,0.224828,0.224537,-0.0276921,1,0.0171367,11,-6.2179e-06,-4.55764,-0.104784,-0.563064,0.596378,0.224537,
2,0,0,1,0,735.472,0.22333,0.223025,-0.0282564,1,0.0170641,11,-6.30188e-06,-4.54888,-0.123388,-0.478165,0.526728,0.223025,
2,0,0,1,0,736.97,0.221831,0.221575,-0.0298196,1,0.0169907,11,-6.6073e-06,-4.5255,-0.12188,-0.484083,0.550226,0.221575,
2,0,0,1,0,738.468,0.220333,0.220043,-0.029758,1,0.0169158,11,-6.54805e-06,-4.5264,-0.148627,-0.396967,0.458603,0.220043,
2,0,0,1,0,739.967,0.218835,0.218538,-0.030301,1,0.0168397,11,-6.62192e-06,-4.51854,-0.129759,-0.45469,0.542456,0.218538,
2,0,0,1,0,741.465,0.217337,0.217051,-0.0315669,1,0.0167624,11,-6.85161e-06,-4.50077,-0.141081,-0.4182,0.512904,0.217051,
2,0,0,1,0,742.963,0.215839,0.215562,-0.0317983,1,0.0166842,11,-6.8545e-06,-4.4976,-0.160119,-0.368477,0.460315,0.215562,
2,0,0,1,0,744.461,0.21434,0.214048,-0.0331676,1,0.0166045,11,-7.09944e-06,-4.47929,-0.143198,-0.412018,0.529384,0.214048,
2,0,0,1,0,745.959,0.212842,0.212595,-0.0333531,1,0.0165234,11,-7.0907e-06,-4.47686,-0.128833,-0.457957,0.603576,0.212595,
2,0,0,1,0,747.457,0.211344,0.211078,-0.0343168,1,0.0164411,11,-7.24354e-06,-4.46449,-0.158213,-0.372916,0.511332,0.211078,
2,0,0,1,0,748.956,0.209846,0.209595,-0.0349293,1,0.0163575,11,-7.321e-06,-4.45681,-0.19038,-0.309907,0.430367,0.209595,
2,0,0,1,0,750.454,0.208348,0.208099,-0.0362751,1,0.0162725,11,-7.54881e-06,-4.44039,-0.11822,-0.49907,0.700018,0.208099,
2,0,0,1,0,751.952,0.20685,0.206555,-0.0381194,1,0.0161857,11,-7.87376e-06,-4.41885,-0.133768,-0.441061,0.640328,0.206555,
2,0,0,1,0,753.45,0.205351,0.205072,-0.0383337,1,0.0160975,11,-7.86118e-06,-4.41642,-0.147524,-0.399934,0.597101,0.205072,
2,0,0,1,0,754.948,0.203853,0.20353,-0.0388281,1,0.0160081,11,-7.9027e-06,-4.41085,-0.199969,-0.295046,0.452368,0.20353,
2,0,0,1,0,756.447,0.202355,0.202037,-0.0396312,1,0.0159173,11,-8.00699e-06,-4.40196,-0.120472,-0.489739,0.765083,0.202037,
2,0,0,1,0,757.945,0.200857,0.200588,-0.0410799,1,0.0158247,11,-8.24013e-06,-4.38637,-0.113794,-0.51848,0.829983,0.200588,
2,0,0,1,0,759.443,0.199359,0.199065,-0.0421952,1,0.0157304,11,-8.3996e-06,-4.37474,-0.148599,-0.397041,0.658062,0.199065,
2,0,0,1,0,760.941,0.19786,0.197565,-0.0430096,1,0.0156344,11,-8.49718e-06,-4.36643,-0.120048,-0.49147,0.829188,0.197565,
2,0,0,1,0,762.439,0.196362,0.196068,-0.0447303,1,0.0155368,11,-8.77019e-06,-4.3494,-0.154697,-0.38139,0.659748,0.196068,
2,0,0,1,0,763.938,0.194864,0.19459,-0.0461154,1,0.0154372,11,-8.9736e-06,-4.33615,-0.127594,-0.462405,0.825741,0.19459,
2,0,0,1,0,765.436,0.193366,0.193085,-0.047063,1,0.0153352,11,-9.08719e-06,-4.32732,-0.106384,-0.554593,1.01439,0.193085,
2,0,0,1,0,766.934,0.191868,0.191556,-0.0479221,1,0.0152314,11,-9.17979e-06,-4.31946,-0.126786,-0.465349,0.880645,0.191556,
2,0,0,1,0,768.432,0.190369,0.190081,-0.0493194,1,0.0151257,11,-9.37468e-06,-4.30698,-0.121737,-0.484651,0.943159,0.190081,
2,0,0,1,0,769.93,0.188871,0.188575,-0.0511897,1,0.0150174,11,-9.65313e-06,-4.29082,-0.12723,-0.463727,0.923962,0.188575,
2,0,0,1,0,771.429,0.187373,0.187078,-0.0523675,1,0.0149066,11,-9.79681e-06,-4.28094,-0.111568,-0.528826,1.09191,0.187078,
2,0,0,1,0,772.927,0.185875,0.185565,-0.0548044,1,0.0147934,11,-1.01698e-05,-4.26118,-0.118363,-0.498469,1.06305,0.185565,
2,0,0,1,0,774.425,0.184377,0.184119,-0.0555046,1,0.0146774,11,-1.02194e-05,-4.25567,-0.0924289,-0.638328,1.39265,0.184119,
2,0,0,1,0,775.923,0.182878,0.18259,-0.0584979,1,0.0145587,11,-1.06811e-05,-4.23286,-0.0986334,-0.598175,1.35126,0.18259,
2,0,0,1,0,777.421,0.18138,0.181082,-0.0602267,1,0.0144366,11,-1.09059e-05,-4.22021,-0.0993729,-0.593723,1.37963,0.181082,
2,0,0,1,0,778.92,0.179882,0.179605,-0.061779,1,0.0143113,11,-1.10958e-05,-4.20916,-0.104115,-0.566679,1.37891,0.179605,
2,0,0,1,0,780.418,0.178384,0.17808,-0.0648223,1,0.0141827,11,-1.15435e-05,-4.18828,-0.0850119,-0.69402,1.75512,0.17808,
2,0,0,1,0,781.916,0.176886,0.176598,-0.0668833,1,0.0140505,11,-1.18115e-05,-4.17468,-0.0851839,-0.692619,1.83321,0.176598,
2,0,0,1,0,783.414,0.175388,0.175082,-0.0698903,1,0.0139139,11,-1.22365e-05,-4.15558,-0.0829908,-0.710922,1.95181,0.175082,
2,0,0,1,0,784.912,0.173889,0.173604,-0.0731452,1,0.0137729,11,-1.26983e-05,-4.13581,-0.0844798,-0.698392,1.99937,0.173604,
2,0,0,1,0,786.41,0.172391,0.172088,-0.0764703,1,0.0136271,11,-1.31596e-05,-4.11651,-0.0812949,-0.725753,2.15049,0.172088,
2,0,0,1,0,787.909,0.170893,0.170602,-0.0798275,1,0.0134765,11,-1.36187e-05,-4.09785,-0.074525,-0.791681,2.47054,0.170602,
2,0,0,1,0,789.407,0.169395,0.169123,-0.0834664,1,0.01332,11,-1.41161e-05,-4.07849,-0.0673553,-0.875952,2.8693,0.169123,
2,0,0,1,0,790.905,0.167897,0.167606,-0.0879208,1,0.0131569,11,-1.4736e-05,-4.05591,-0.0704445,-0.837539,2.88913,0.167606,
2,0,0,1,0,792.403,0.166398,0.166094,-0.0926756,1,0.0129874,11,-1.53928e-05,-4.03303,-0.0720891,-0.818431,2.98692,0.166094,
2,0,0,1,0,793.901,0.1649,0.164635,-0.0972788,1,0.012811,11,-1.60155e-05,-4.01198,-0.0669519,-0.88123,3.37732,0.164635,
2,0,0,1,0,795.4,0.163402,0.163111,-0.103042,1,0.0126259,11,-1.68073e-05,-3.98699,-0.0580312,-1.01669,4.10362,0.163111,
2,0,0,1,0,796.898,0.161904,0.161642,-0.109944,1,0.0124319,11,-1.77716e-05,-3.95883,-0.0589358,-1.00109,4.28201,0.161642,
2,0,0,1,0,798.396,0.160406,0.160096,-0.115613,1,0.0122285,11,-1.85091e-05,-3.937,-0.0600162,-0.983068,4.43954,0.160096,
2,0,0,1,0,799.894,0.158907,0.158594,-0.121777,1,0.0120148,11,-1.93131e-05,-3.91444,-0.0572648,-1.0303,4.94348,0.1585945,
2,0,0,1,0,801.392,0.157409,0.15712,-0.130748,1,0.0117905,11,-2.05431e-05,-3.88356,-0.05862,-1.00648,5.15082,0.15712,
2,0,0,1,0,802.891,0.155911,0.155621,-0.138284,1,0.0115539,11,-2.15199e-05,-3.85923,-0.0594921,-0.991728,5.37245,0.155621,
2,0,0,1,0,804.389,0.154413,0.154137,-0.146264,1,0.0113053,11,-2.25446e-05,-3.83486,-0.0706835,-0.834706,4.74088,0.154137,
2,0,0,1,0,805.887,0.152915,0.152605,-0.154313,1,0.0110446,11,-2.3549e-05,-3.8116,-0.0668156,-0.883027,5.32451,0.152605,
2,0,0,1,0,807.385,0.151417,0.151127,-0.162688,1,0.0107726,11,-2.45865e-05,-3.78865,-0.0721661,-0.817558,5.18794,0.151127,
2,0,0,1,0,808.883,0.149918,0.149611,-0.171593,1,0.0104879,11,-2.56722e-05,-3.7655,-0.0809722,-0.728645,4.82439,0.1496108,
2,0,0,1,0,810.382,0.14842,0.148143,-0.177903,1,0.0101916,11,-2.6355e-05,-3.74982,-0.0845839,-0.697532,4.81201,0.1481432,
2,0,0,1,0,811.88,0.146922,0.146656,-0.185232,1,0.00988507,11,-2.71652e-05,-3.73229,-0.100652,-0.586181,4.19008,0.146656,
2,0,0,1,0,813.378,0.145424,0.145161,-0.190463,1,0.00956963,11,-2.76479e-05,-3.72019,-0.103968,-0.567484,4.20834,0.145161,
2,0,0,1,0,814.876,0.143926,0.143582,-0.195444,1,0.0092449,11,-2.80624e-05,-3.70898,-0.120501,-0.489622,3.71724,0.143582,
2,0,0,1,0,816.374,0.142427,0.14217,-0.200716,1,0.00891162,11,-2.85357e-05,-3.69742,-0.163076,-0.361795,2.82649,0.14217,
2,0,0,1,0,817.872,0.140929,0.140659,-0.203329,1,0.00857302,11,-2.86001e-05,-3.6918,-0.246782,-0.239078,1.90599,0.140659,
2,0,0,1,0,819.371,0.139431,0.139156,-0.205627,1,0.00823088,11,-2.86142e-05,-3.68692,-0.35345,-0.166926,1.34324,0.139156,
2,0,0,1,0,820.869,0.137933,0.137635,-0.209092,1,0.00788462,11,-2.87783e-05,-3.67966,-0.533029,-0.110688,0.893648,0.137635,
2,0,0,1,0,822.367,0.136435,0.136111,-0.210082,1,0.00753621,11,-2.85944e-05,-3.67761,-2.07258,-0.0284669,0.231493,0.136111,
2,0,0,1,0,823.865,0.134936,0.134649,-0.210733,1,0.00718721,11,-2.83748e-05,-3.67627,1.40942,0.0418612,-0.339721,0.134649,
2,0,0,1,0,825.363,0.133438,0.133182,-0.206231,1,0.00683936,11,-2.74662e-05,-3.68565,0.599237,0.0984586,-0.797987,0.133182,
2,0,0,1,0,826.862,0.13194,0.131615,-0.20677,1,0.00649403,11,-2.72139e-05,-3.68451,0.322475,0.18296,-1.47274,0.131615,
2,0,0,1,0,828.36,0.130442,0.130162,-0.203503,1,0.00615148,11,-2.64884e-05,-3.69143,0.229677,0.256883,-2.04389,0.130162,
2,0,0,1,0,829.858,0.128944,0.128666,-0.200572,1,0.00581325,11,-2.58067e-05,-3.69773,0.155286,0.379943,-2.95557,0.128666,
2,0,0,1,0,831.356,0.127445,0.127166,-0.195977,1,0.00548073,11,-2.49216e-05,-3.7078,0.161199,0.366006,-2.80217,0.127166,
2,0,0,1,0,832.854,0.125947,0.125676,-0.193052,1,0.00515562,11,-2.42621e-05,-3.71433,0.15411,0.382845,-2.86556,0.125676,
2,0,0,1,0,834.353,0.124449,0.124103,-0.187564,1,0.00483643,11,-2.32773e-05,-3.72685,0.142899,0.41288,-3.02534,0.1241028,
2,0,0,1,0,835.851,0.122951,0.122669,-0.183247,1,0.00452418,11,-2.24787e-05,-3.73696,0.126373,0.466871,-3.32072,0.1226691,
2,0,0,1,0,837.349,0.121453,0.121128,-0.178307,1,0.00421922,11,-2.1598e-05,-3.74883,0.128409,0.459468,-3.19189,0.121128,
2,0,0,1,0,838.847,0.119955,0.119653,-0.172736,1,0.00392249,11,-2.06684e-05,-3.76262,0.125775,0.46909,-3.17285,0.1196533,
2,0,0,1,0,840.345,0.118456,0.118186,-0.167997,1,0.00363227,11,-1.98549e-05,-3.7747,0.133675,0.44137,-2.88749,0.118186,
2,0,0,1,0,841.843,0.116958,0.116633,-0.163875,1,0.00334841,11,-1.91133e-05,-3.78549,0.137258,0.429847,-2.75747,0.116633,
2,0,0,1,0,843.342,0.11546,0.115135,-0.160119,1,0.0030712,11,-1.84353e-05,-3.79556,0.133149,0.443113,-2.76716,0.115135,
2,0,0,1,0,844.84,0.113962,0.113663,-0.154595,1,0.00280055,11,-1.75718e-05,-3.8108,0.139511,0.422905,-2.57301,0.113663,
2,0,0,1,0,846.338,0.112464,0.112167,-0.152362,1,0.00253552,11,-1.709e-05,-3.81712,0.168516,0.350114,-2.08098,0.112167,
2,0,0,1,0,847.836,0.110965,0.110622,-0.149122,1,0.0022752,11,-1.64962e-05,-3.82646,0.17246,0.342109,-1.98933,0.110622,
2,0,0,1,0,849.334,0.109467,0.109162,-0.146517,1,0.00201953,11,-1.59941e-05,-3.83411,0.164245,0.35922,-2.0434,0.109162,
2,0,0,1,0,850.833,0.107969,0.107679,-0.142997,1,0.00176831,11,-1.53978e-05,-3.84467,0.17542,0.336335,-1.88836,0.107679,
2,0,0,1,0,852.331,0.106471,0.106146,-0.14119,1,0.00152127,11,-1.49867e-05,-3.8502,0.205057,0.287725,-1.5974,0.106146,
2,0,0,1,0,853.829,0.104973,0.104654,-0.138842,1,0.00127752,11,-1.45304e-05,-3.85748,0.22445,0.262864,-1.43058,0.104654,
2,0,0,1,0,855.327,0.103474,0.103148,-0.136338,1,0.00103645,11,-1.4063e-05,-3.86538,0.227933,0.258848,-1.38195,0.103148,
2,0,0,1,0,856.825,0.101976,0.101655,-0.135247,1,0.000798772,11,-1.37486e-05,-3.86887,0.239331,0.24652,-1.30047,0.101655,
2,0,0,1,0,858.324,0.100478,0.100147,-0.13338,1,0.00056452,11,-1.33576e-05,-3.87491,0.268744,0.21954,-1.13971,0.100147,
2,0,0,1,0,859.822,0.0989798,0.0987155,-0.131685,1,0.000332293,11,-1.29994e-05,-3.88046,0.309547,0.190601,-0.975912,0.0987155,
2,0,0,1,0,861.32,0.0974816,0.0971546,-0.129752,1,0.000102429,11,-1.2606e-05,-3.88689,0.296007,0.199319,-1.01042,0.0971546,
2,0,0,1,0,862.818,0.0959834,0.0956531,-0.128054,1,-0.000124817,11,-1.22487e-05,-3.89261,0.327626,0.180084,-0.90484,0.0956531,
2,0,0,1,0,864.316,0.0944852,0.0941897,-0.125866,1,-0.000349302,11,-1.18552e-05,-3.90009,0.325525,0.181246,-0.898343,0.0941897,
2,0,0,1,0,865.815,0.0929871,0.0927084,-0.125184,1,-0.000572115,11,-1.16056e-05,-3.90245,0.40534,0.145557,-0.712223,0.0927084,
2,0,0,1,0,867.313,0.0914889,0.0912121,-0.124232,1,-0.000793008,11,-1.13315e-05,-3.90576,0.292013,0.202046,-0.980174,0.0912121,
2,0,0,1,0,868.811,0.0899907,0.0896894,-0.12346,1,-0.00101141,11,-1.1073e-05,-3.90847,0.228344,0.258382,-1.23385,0.0896894,
2,0,0,1,0,870.309,0.0884925,0.0882154,-0.121,1,-0.00122744,11,-1.06741e-05,-3.91721,0.297896,0.198056,-0.935648,0.0882154,
2,0,0,1,0,871.807,0.0869943,0.0866673,-0.119708,1,-0.00144123,11,-1.03748e-05,-3.92188,0.343241,0.171891,-0.805166,0.0866673,
2,0,0,1,0,873.306,0.0854961,0.0851986,-0.11846,1,-0.00165332,11,-1.00926e-05,-3.92643,0.274247,0.215134,-0.991971,0.0851986,
2,0,0,1,0,874.804,0.083998,0.0836611,-0.117073,1,-0.00186322,11,-9.79443e-06,-3.93154,0.239695,0.246146,-1.12511,0.0836611,
2,0,0,1,0,876.302,0.0824998,0.0821595,-0.115999,1,-0.00207094,11,-9.53042e-06,-3.93555,0.313699,0.188078,-0.84936,0.0821595,
2,0,0,1,0,877.8,0.0810016,0.0807184,-0.114319,1,-0.00227614,11,-9.22764e-06,-3.94188,0.333808,0.176748,-0.793166,0.0807184,
2,0,0,1,0,879.298,0.0795034,0.0791755,-0.113397,1,-0.00247971,11,-8.97823e-06,-3.9454,0.276847,0.213114,-0.938881,0.0791755,
2,0,0,1,0,880.796,0.0780052,0.0776654,-0.111736,1,-0.00268143,11,-8.67802e-06,-3.95181,0.305372,0.193207,-0.84231,0.0776654,
2,0,0,1,0,882.295,0.076507,0.0761989,-0.110068,1,-0.00288111,11,-8.38706e-06,-3.95834,0.288136,0.204764,-0.878154,0.0761989,
2,0,0,1,0,883.793,0.0750088,0.0747292,-0.109428,1,-0.00307832,11,-8.17743e-06,-3.96087,0.387401,0.152297,-0.649048,0.0747292,
2,0,0,1,0,885.291,0.0735106,0.0732351,-0.108164,1,-0.00327418,11,-7.92138e-06,-3.96592,0.403619,0.146177,-0.616028,0.0732351,
2,0,0,1,0,886.789,0.0720124,0.0717123,-0.106901,1,-0.00346822,11,-7.66611e-06,-3.97102,0.447315,0.131898,-0.551842,0.0717123,
2,0,0,1,0,888.287,0.0705142,0.0702023,-0.105988,1,-0.00366052,11,-7.44059e-06,-3.97474,0.365294,0.161514,-0.666243,0.0702023,
2,0,0,1,0,889.786,0.069016,0.0687134,-0.104802,1,-0.00385095,11,-7.20133e-06,-3.97963,0.288556,0.204466,-0.839575,0.0687134,
2,0,0,1,0,891.284,0.0675178,0.06723,-0.103677,1,-0.00404013,11,-6.97018e-06,-3.98432,0.505317,0.116758,-0.473232,0.06723,
2,0,0,1,0,892.782,0.0660196,0.0657082,-0.103184,1,-0.00422801,11,-6.78007e-06,-3.98639,0.458125,0.128786,-0.517622,0.0657082,
2,0,0,1,0,894.28,0.0645214,0.0642428,-0.101876,1,-0.00441464,11,-6.54482e-06,-3.99193,0.390587,0.151055,-0.600218,0.06424278,
2,0,0,1,0,895.778,0.0630233,0.0626968,-0.100372,1,-0.0045998,11,-6.29301e-06,-3.99839,0.483107,0.122126,-0.481237,0.0626968,
2,0,0,1,0,897.277,0.0615251,0.061245,-0.100802,1,-0.00478348,11,-6.17364e-06,-3.99653,0.444072,0.132861,-0.520279,0.061245,
2,0,0,1,0,898.775,0.0600269,0.0597138,-0.0997582,1,-0.00496635,11,-5.95694e-06,-4.00105,0.452911,0.130268,-0.507787,0.05971384,
2,0,0,1,0,900.273,0.0585287,0.0582144,-0.0993656,1,-0.00514823,11,-5.78451e-06,-4.00276,0.406298,0.145214,-0.560455,0.0582144,
2,0,0,1,0,901.771,0.0570305,0.0567468,-0.0982832,1,-0.00532927,11,-5.57725e-06,-4.00752,0.833678,0.0707708,-0.273464,0.0567468,
2,0,0,1,0,903.269,0.0555323,0.0552442,-0.0980153,1,-0.00550904,11,-5.41478e-06,-4.00871,0.606182,0.0973306,-0.372705,0.0552442,
2,0,0,1,0,904.767,0.0540342,0.0537364,-0.0974917,1,-0.00568873,11,-5.23886e-06,-4.01103,3.40249,0.0173403,-0.0660864,0.0537364,
2,0,0,1,0,906.266,0.052536,0.0522349,-0.0969292,1,-0.0058678,11,-5.06308e-06,-4.01355,0.954716,0.0617985,-0.2354,0.0522349,
2,0,0,1,0,907.764,0.0510378,0.0507227,-0.0968336,1,-0.0060463,11,-4.91166e-06,-4.01397,12.9912,0.00454152,-0.0171357,0.0507227,
2,0,0,1,0,909.262,0.0495396,0.0492805,-0.0962529,1,-0.00622394,11,-4.74339e-06,-4.01659,0.688371,0.0857095,-0.324256,0.0492805,
2,0,0,1,0,910.76,0.0480414,0.0477588,-0.0966043,1,-0.00640153,11,-4.61371e-06,-4.015,-3.48952,-0.0169078,0.0635437,0.04775884,
2,0,0,1,0,912.258,0.0465432,0.0462891,-0.0964481,1,-0.00657895,11,-4.4645e-06,-4.01571,2.39378,0.0246472,-0.0920178,0.04628912,
2,0,0,1,0,913.757,0.045045,0.0447176,-0.095859,1,-0.00675624,11,-4.28659e-06,-4.01837,-18.2174,-0.00323867,0.0121456,0.0447176,
2,0,0,1,0,915.255,0.0435468,0.0432977,-0.0957056,1,-0.00693308,11,-4.14383e-06,-4.01906,3.13823,0.0188004,-0.0706305,0.0432977,
2,0,0,1,0,916.753,0.0420486,0.0417792,-0.0964837,1,-0.00711019,11,-4.03101e-06,-4.01555,-2.94644,-0.0200241,0.0750767,0.0417792,
2,0,0,1,0,918.251,0.0405504,0.0402575,-0.0965719,1,-0.00728752,11,-3.88774e-06,-4.01515,2.37095,0.0248846,-0.0935745,0.0402575,
2,0,0,1,0,919.749,0.0390522,0.0387369,-0.096303,1,-0.00746507,11,-3.73048e-06,-4.01636,-22.4395,-0.00262929,0.00985586,0.0387369,
2,0,0,1,0,921.248,0.037554,0.037213,-0.0962826,1,-0.00764249,11,-3.58297e-06,-4.01645,-0.637339,-0.0925724,0.349342,0.037213,
2,0,0,1,0,922.746,0.0360558,0.0357656,-0.0965461,1,-0.00782005,11,-3.45302e-06,-4.01527,-0.962917,-0.0612722,0.231297,0.0357656,
2,0,0,1,0,924.244,0.0345576,0.0342449,-0.0965578,1,-0.00799801,11,-3.30662e-06,-4.01521,-0.875158,-0.0674164,0.25429,0.0342449,
2,0,0,1,0,925.742,0.0330594,0.0327498,-0.0970012,1,-0.00817647,11,-3.17677e-06,-4.01322,-1.46591,-0.0402481,0.152017,0.0327498,
2,0,0,1,0,927.24,0.0315613,0.0312748,-0.097392,1,-0.00835541,11,-3.04592e-06,-4.01148,-3.17702,-0.0185709,0.0708616,0.0312748,
2,0,0,1,0,928.739,0.0300631,0.0297552,-0.0980608,1,-0.00853427,11,-2.91782e-06,-4.0085,-0.956638,-0.0616743,0.235712,0.02975522,
2,0,0,1,0,930.237,0.0285649,0.0282897,-0.0979049,1,-0.00871413,11,-2.7697e-06,-4.0092,-0.621854,-0.0948776,0.361146,0.0282897,
2,0,0,1,0,931.735,0.0270667,0.0267501,-0.0986368,1,-0.00889472,11,-2.63854e-06,-4.00596,-1.27072,-0.0464303,0.178623,0.02675008,
2,0,0,1,0,933.233,0.0255685,0.0252718,-0.0985698,1,-0.00907577,11,-2.49104e-06,-4.00626,-0.775647,-0.0760656,0.291652,0.0252718,
2,0,0,1,0,934.731,0.0240703,0.0237745,-0.0995574,1,-0.00925728,11,-2.36693e-06,-4.00193,-0.849322,-0.0694672,0.269591,0.0237745,
2,0,0,1,0,936.229,0.0225722,0.0223017,-0.0999883,1,-0.00943975,11,-2.22991e-06,-4.00005,-0.432983,-0.136264,0.529782,0.0223017,
2,0,0,1,0,937.728,0.021074,0.020727,-0.100955,1,-0.00962318,11,-2.0925e-06,-3.99587,-0.447899,-0.131726,0.516906,0.020727,
2,0,0,1,0,939.226,0.0195758,0.0192318,-0.100504,1,-0.00980737,11,-1.93288e-06,-3.99782,-1.16902,-0.0504696,0.198106,0.0192318,
2,0,0,1,0,940.724,0.0180776,0.0177939,-0.101568,1,-0.00999223,11,-1.80728e-06,-3.99324,-0.504498,-0.116948,0.464393,0.0177939,
2,0,0,1,0,942.222,0.0165794,0.0162605,-0.102021,1,-0.0101781,11,-1.65891e-06,-3.99131,-0.522017,-0.113023,0.450953,0.0162605,
2,0,0,1,0,943.72,0.0150812,0.0147621,-0.103568,1,-0.0103653,11,-1.52888e-06,-3.98477,-0.450061,-0.131093,0.528298,0.0147621,
2,0,0,1,0,945.219,0.013583,0.0132649,-0.104075,1,-0.0105536,11,-1.38054e-06,-3.98265,-0.816323,-0.0722753,0.291859,0.0132649,
2,0,0,1,0,946.717,0.0120848,0.0117421,-0.10408,1,-0.0107429,11,-1.22212e-06,-3.98263,-0.399106,-0.14783,0.605161,0.0117421,
2,0,0,1,0,948.215,0.0105866,0.0102607,-0.105257,1,-0.010933,11,-1.08001e-06,-3.97775,-0.513535,-0.11489,0.471199,0.0102607,
2,0,0,1,0,949.713,0.00908843,0.00876551,-0.105919,1,-0.0111249,11,-9.2843e-07,-3.97503,-0.45941,-0.128426,0.531931,0.00876551,
2,0,0,1,0,951.211,0.00759024,0.00728945,-0.1066,1,-0.011318,11,-7.77052e-07,-3.97224,-0.610373,-0.0966621,0.404436,0.00728945,
2,0,0,1,0,952.71,0.00609203,0.00577837,-0.108771,1,-0.0115125,11,-6.28519e-07,-3.96349,-0.33998,-0.173539,0.730569,0.00577837,
2,0,0,1,0,954.208,0.00459384,0.00432342,-0.108933,1,-0.0117081,11,-4.70964e-07,-3.96284,-0.419158,-0.140758,0.596455,0.00432342,
2,0,0,1,0,955.706,0.00309563,0.00275828,-0.10996,1,-0.0119056,11,-3.03301e-07,-3.95876,-0.361019,-0.163426,0.701365,0.00275828,
2,0,0,1,0,957.204,0.00159744,0.00124085,-0.111713,1,-0.0121073,11,-1.38619e-07,-3.9519, , , ,0.00124085,
2,0,0,1,0,958.602,0.000199235,-0.00015541,-0.112116,1,-0.012295,11,1.74239e-08,-3.95033, , , ,-0.00015541,