File: Figure_codes/Fig_3-5/rawdata_trumpetplot_data/before 10th/20221101_1-115_002_TrumpetPlot_ParaChange_13_CV_C01_3.csv
mode,ox/red,error,control changes,counter inc.,time/s,control/V,Ewe/V,<I>/mA,cycle number,(Q-Qo)/C,I Range,P/W,log(|I|),Tafel slope mV/dec,alpha_eff,dI/d(E-IR),E-IR/V,
2,1,0,0,0,4909.08,2.44065e-05,-0.000535284,12.9819,4,0.0000000E+000,10,-6.94899e-06,-1.88666, , , ,-0.000535284,
2,1,0,1,0,4909.08,0.00206084,0.00167142,13.4233,4,6.69887e-05,10,2.2436e-05,-1.87214, , , ,0.00167142,
2,1,0,1,0,4909.09,0.00446904,0.00412202,14.4948,4,0.000150969,10,5.97478e-05,-1.83879,0.0823983,0.716035,401.503,0.00412202,
2,1,0,1,0,4909.09,0.00686614,0.00656944,15.4219,4,0.000240864,10,0.000101313,-1.81186,0.0967528,0.609802,363.805,0.00656944,
2,1,0,1,0,4909.1,0.00926324,0.00894899,16.2328,4,0.000335952,10,0.000145267,-1.78961,0.11881,0.496591,311.908,0.008948992,
2,1,0,1,0,4909.11,0.0116603,0.0113211,16.9106,4,0.000435547,10,0.000191447,-1.77184,0.146742,0.402066,263.641,0.0113211,
2,1,0,1,0,4909.11,0.0140685,0.0137335,17.4935,4,0.000538855,10,0.000240247,-1.75712,0.180861,0.326217,221.606,0.0137335,
2,1,0,1,0,4909.12,0.0164657,0.0161216,17.9889,4,0.000645375,10,0.00029001,-1.74499,0.226582,0.260392,181.788,0.0161216,
2,1,0,1,0,4909.12,0.0188628,0.0185616,18.3711,4,0.000754551,10,0.000340997,-1.73586,0.278624,0.211755,151.367,0.0185616,
2,1,0,1,0,4909.13,0.0212682,0.0209348,18.7072,4,0.000865809,10,0.000391631,-1.72799,0.339748,0.173658,126.505,0.0209348,
2,1,0,1,0,4909.14,0.0236653,0.0233652,18.9894,4,0.000978961,10,0.000443692,-1.72149,0.407848,0.144662,106.905,0.0233652,
2,1,0,1,0,4909.14,0.0260624,0.0257745,19.2118,4,0.00109361,10,0.000495175,-1.71643,0.494864,0.119225,89.2826,0.0257745,
2,1,0,1,0,4909.15,0.0284595,0.0281879,19.4029,4,0.0012095,10,0.000546929,-1.71213,0.588103,0.100323,75.8743,0.0281879,
2,1,0,1,0,4909.15,0.0308677,0.0305442,19.5891,4,0.00132652,10,0.000598332,-1.70799,0.66447,0.0887926,67.7842,0.0305442,
2,1,0,1,0,4909.16,0.0332648,0.032964,19.7285,4,0.00144445,10,0.000650331,-1.70491,0.79391,0.0743157,57.1654,0.032964,
2,1,0,1,0,4909.17,0.0356619,0.0353425,19.8501,4,0.00156324,10,0.000701552,-1.70224,0.840182,0.0702228,54.3989,0.0353425,
2,1,0,1,0,4909.17,0.0380673,0.0377952,19.9785,4,0.00168275,10,0.000755091,-1.69944,0.882898,0.0668254,52.1148,0.0377952,
2,1,0,1,0,4909.18,0.0404644,0.0401705,20.1085,4,0.00180303,10,0.000807768,-1.69662,0.931774,0.0633201,49.669,0.0401705,
2,1,0,1,0,4909.18,0.0428615,0.0425745,20.2311,4,0.00192406,10,0.000861329,-1.69398,0.946135,0.0623589,49.2185,0.0425745,
2,1,0,1,0,4909.19,0.0452586,0.0449445,20.3344,4,0.00204572,10,0.000913919,-1.69177,0.869522,0.0678533,53.9086,0.0449445,
2,1,0,1,0,4909.2,0.0476668,0.0473262,20.4794,4,0.00216818,10,0.000969212,-1.68868,0.814267,0.0724578,57.8844,0.0473262,
2,1,0,1,0,4909.2,0.0500639,0.0497513,20.6237,4,0.00229151,10,0.00102606,-1.68563,0.820239,0.0719303,57.8702,0.0497513,
2,1,0,1,0,4909.21,0.0524611,0.0521192,20.7456,4,0.00241561,10,0.00108124,-1.68307,0.717045,0.0822821,66.7443,0.0521192,
2,1,0,1,0,4909.21,0.0548693,0.0545783,20.9414,4,0.00254064,10,0.00114294,-1.679,0.642991,0.0917587,74.975,0.0545783,
2,1,0,1,0,4909.22,0.0572664,0.0569366,21.1177,4,0.00266682,10,0.00120237,-1.67535,0.606126,0.0973394,80.231,0.0569366,
2,1,0,1,0,4909.23,0.0596635,0.0593459,21.3051,4,0.00279409,10,0.00126437,-1.67152,0.577236,0.102211,85.0782,0.0593459,
2,1,0,1,0,4909.23,0.0620633,0.0617413,21.5199,4,0.00292258,10,0.00132866,-1.66716,0.51781,0.113941,95.8159,0.0617413,
2,1,0,1,0,4909.24,0.064466,0.0641241,21.7733,4,0.00305249,10,0.00139619,-1.66208,0.468369,0.125969,107.117,0.0641241,
2,1,0,1,0,4909.24,0.0668631,0.0665672,22.0451,4,0.00318395,10,0.00146748,-1.65669,0.443631,0.132993,114.435,0.0665672,
2,1,0,1,0,4909.25,0.0692602,0.0689616,22.3302,4,0.0033171,10,0.00153992,-1.65111,0.405692,0.14543,126.838,0.0689616,
2,1,0,1,0,4909.26,0.0716684,0.0713316,22.6487,4,0.00345202,10,0.00161557,-1.64496,0.39049,0.151092,133.611,0.07133165,
2,1,0,1,0,4909.26,0.0740655,0.0737928,22.9792,4,0.00358892,10,0.0016957,-1.63867,0.389702,0.151398,135.74,0.0737928,
2,1,0,1,0,4909.27,0.0764626,0.076131,23.2957,4,0.00372778,10,0.00177353,-1.63272,0.361544,0.163189,148.591,0.076131,
2,1,0,1,0,4909.27,0.0788653,0.0785625,23.6735,4,0.00386867,10,0.00185985,-1.62574,0.34846,0.169316,156.509,0.07856255,
2,1,0,1,0,4909.28,0.0812651,0.0808997,24.0512,4,0.00401192,10,0.00194573,-1.61886,0.350472,0.168344,157.917,0.0808997,
2,1,0,1,0,4909.29,0.0836622,0.0833344,24.4157,4,0.00415738,10,0.00203467,-1.61233,0.337661,0.174732,166.821,0.0833344,
2,1,0,1,0,4909.29,0.0860593,0.0856948,24.8402,4,0.00430515,10,0.00212868,-1.60484,0.316264,0.186553,181.096,0.0856948,
2,1,0,1,0,4909.3,0.0884675,0.0881274,25.32,4,0.00445571,10,0.00223139,-1.59654,0.303346,0.194498,192.081,0.0881274,
2,1,0,1,0,4909.3,0.0908647,0.0905271,25.7727,4,0.00460902,10,0.00233313,-1.58884,0.310369,0.190096,191.243,0.0905271,
2,1,0,1,0,4909.31,0.0932618,0.0929745,26.2511,4,0.00476514,10,0.00244068,-1.58085,0.310464,0.190038,194.629,0.0929745,
2,1,0,1,0,4909.32,0.09567,0.0953711,26.7165,4,0.00492405,10,0.00254798,-1.57322,0.310215,0.190191,198.327,0.0953711,
2,1,0,1,0,4909.32,0.0980671,0.097722,27.1973,4,0.00508584,10,0.00265777,-1.56547,0.312285,0.18893,200.466,0.097722,
2,1,0,1,0,4909.33,0.100464,0.10015,27.6628,4,0.00525048,10,0.00277044,-1.5581,0.319389,0.184728,199.525,0.10015,
2,1,0,1,0,4909.33,0.102861,0.102553,28.1402,4,0.00541794,10,0.00288587,-1.55067,0.315078,0.187255,205.8,0.1025532,
2,1,0,1,0,4909.34,0.105267,0.104957,28.6581,4,0.00558842,10,0.00300787,-1.54275,0.318569,0.185203,206.971,0.104957,
2,1,0,1,0,4909.35,0.107664,0.107338,29.1414,4,0.00576189,10,0.00312797,-1.53549,0.329296,0.17917,203.77,0.107338,
2,1,0,1,0,4909.35,0.110061,0.109716,29.6307,4,0.00593828,10,0.00325097,-1.52826,0.319715,0.184539,213.583,0.109716,
2,1,0,1,0,4909.36,0.112469,0.112128,30.1653,4,0.00611769,10,0.00338236,-1.52049,0.321805,0.183341,215.76,0.1121276,
2,1,0,1,0,4909.36,0.114866,0.114552,30.6699,4,0.00630029,10,0.00351329,-1.51329,0.325482,0.181269,216.989,0.1145517,
2,1,0,1,0,4909.37,0.117263,0.116931,31.1974,4,0.00648593,10,0.00364796,-1.50588,0.322203,0.183114,223.15,0.116931,
2,1,0,1,0,4909.38,0.11966,0.119349,31.7421,4,0.00667479,10,0.00378839,-1.49836,0.318381,0.185312,229.592,0.119349,
2,1,0,1,0,4909.38,0.122066,0.121742,32.3018,4,0.00686702,10,0.0039325,-1.49077,0.31934,0.184756,232.948,0.121742,
2,1,0,1,0,4909.39,0.124463,0.124128,32.8633,4,0.00706258,10,0.00407926,-1.48329,0.313644,0.188111,241.406,0.124128,
2,1,0,1,0,4909.39,0.12686,0.126584,33.4537,4,0.00726159,10,0.00423471,-1.47556,0.299071,0.197278,257.833,0.126584,
2,1,0,1,0,4909.4,0.129268,0.128965,34.0973,4,0.00746428,10,0.00439735,-1.46728,0.294127,0.200593,266.943,0.128965,
2,1,0,1,0,4909.41,0.131665,0.13134,34.7384,4,0.00767086,10,0.00456254,-1.45919,0.290064,0.203404,275.837,0.13134,
2,1,0,1,0,4909.41,0.134062,0.133774,35.4036,4,0.00788136,10,0.00473607,-1.45095,0.282211,0.209063,289.226,0.133774,
2,1,0,1,0,4909.42,0.13646,0.136102,36.1261,4,0.008096,10,0.00491684,-1.44218,0.276282,0.21355,301.303,0.136102,
2,1,0,1,0,4909.42,0.138868,0.138553,36.8858,4,0.00831514,10,0.00511063,-1.43314,0.268223,0.219966,316.625,0.138553,
2,1,0,1,0,4909.43,0.141265,0.140953,37.6446,4,0.00853878,10,0.0053061,-1.4243,0.26361,0.223816,329.131,0.140953,
2,1,0,1,0,4909.44,0.143662,0.143344,38.4608,4,0.00876713,10,0.00551313,-1.41498,0.256265,0.230231,345.639,0.143344,
2,1,0,1,0,4909.44,0.146067,0.145761,39.3103,4,0.00900052,10,0.00572988,-1.40549,0.254286,0.232022,355.807,0.145761,
2,1,0,1,0,4909.45,0.148465,0.148163,40.1348,4,0.0092389,10,0.00594652,-1.39648,0.258475,0.228262,357.722,0.148163,
2,1,0,1,0,4909.45,0.150862,0.150507,41.004,4,0.0094824,10,0.00617138,-1.38717,0.25716,0.229429,367.207,0.150507,
2,1,0,1,0,4909.46,0.153264,0.152946,41.8932,4,0.00973119,10,0.00640738,-1.37786,0.262409,0.22484,367.482,0.152946,
2,1,0,1,0,4909.47,0.155667,0.155368,42.7759,4,0.00998532,10,0.006646,-1.3688,0.266272,0.221578,369.758,0.155368,
2,1,0,1,0,4909.47,0.158064,0.15778,43.6519,4,0.0102447,10,0.0068874,-1.36,0.275102,0.214466,365.303,0.15778,
2,1,0,1,0,4909.48,0.160461,0.160145,44.5337,4,0.0105094,10,0.00713184,-1.35131,0.284374,0.207473,360.486,0.160145,
2,1,0,1,0,4909.48,0.162867,0.162528,45.4133,4,0.0107793,10,0.00738092,-1.34282,0.294058,0.200641,355.206,0.162528,
2,1,0,1,0,4909.49,0.165264,0.164963,46.2374,4,0.0110544,10,0.00762747,-1.33501,0.311858,0.189189,341.205,0.164963,
2,1,0,1,0,4909.5,0.167661,0.167339,47.0433,4,0.0113343,10,0.00787216,-1.3275,0.328485,0.179612,329.564,0.1673387,
2,1,0,1,0,4909.5,0.170069,0.169746,47.8457,4,0.011619,10,0.00812162,-1.32016,0.35748,0.165044,307.631,0.169746,
2,1,0,1,0,4909.51,0.172466,0.172169,48.5284,4,0.0119082,10,0.00835508,-1.314,0.395914,0.149022,281.856,0.172169,
2,1,0,1,0,4909.51,0.174863,0.174535,49.1689,4,0.0122014,10,0.00858167,-1.30831,0.457675,0.128912,247.002,0.174535,
2,1,0,1,0,4909.52,0.17726,0.176946,49.7325,4,0.0124982,10,0.00879997,-1.30336,0.557244,0.105878,205.009,0.176946,
2,1,0,1,0,4909.53,0.179668,0.179369,50.1636,4,0.012798,10,0.0089978,-1.29961,0.746673,0.0790172,154.316,0.179369,
2,1,0,1,0,4909.53,0.182066,0.181786,50.4674,4,0.0131,10,0.00917425,-1.29699,1.28116,0.0460521,90.4404,0.181786,
2,1,0,1,0,4909.54,0.184463,0.184163,50.6047,4,0.0134033,10,0.00931952,-1.29581,7.29377,0.0080891,15.9221,0.184163,
2,1,0,1,0,4909.54,0.186868,0.186566,50.5671,4,0.0137069,10,0.0094341,-1.29613,-1.58353,-0.0372586,-73.2099,0.186566,
2,1,0,1,0,4909.55,0.189265,0.188984,50.2736,4,0.0140095,10,0.00950089,-1.29866,-0.667927,-0.088333,-172.513,0.188984,
2,1,0,1,0,4909.56,0.191662,0.191347,49.7218,4,0.0143095,10,0.00951414,-1.30345,-0.411127,-0.143508,-277.176,0.191347,
2,1,0,1,0,4909.56,0.194059,0.193782,48.9211,4,0.0146055,10,0.00948003,-1.3105,-0.279712,-0.210931,-400.477,0.193782,
2,1,0,1,0,4909.57,0.196468,0.196154,47.8362,4,0.0148958,10,0.00938328,-1.32024,-0.212662,-0.277435,-514.787,0.196154,
2,1,0,1,0,4909.57,0.198865,0.198539,46.4348,4,0.0151786,10,0.00921912,-1.33316,-0.167625,-0.351976,-634.244,0.198539,
2,1,0,1,0,4909.58,0.201262,0.20099,44.775,4,0.0154522,10,0.00899931,-1.34896,-0.140755,-0.419167,-728.324,0.20099,
2,1,0,1,0,4909.59,0.203667,0.203387,42.889,4,0.0157151,10,0.00872308,-1.36765,-0.119783,-0.492556,-820.042,0.203387,
2,1,0,1,0,4909.59,0.206064,0.205802,40.794,4,0.015966,10,0.00839548,-1.3894,-0.104799,-0.562983,-892.522,0.205802,
2,1,0,1,0,4909.6,0.208461,0.208195,38.5939,4,0.016204,10,0.00803506,-1.41348,-0.0939061,-0.628287,-942.44,0.208195,
2,1,0,1,0,4909.6,0.210859,0.210564,36.2819,4,0.0164284,10,0.00763967,-1.44031,-0.0868192,-0.679573,-959.829,0.210564,
2,1,0,1,0,4909.61,0.213267,0.213015,33.9857,4,0.016639,10,0.00723944,-1.4687,-0.0826942,-0.713472,-945.103,0.213015,
2,1,0,1,0,4909.62,0.215664,0.215375,31.7338,4,0.0168358,10,0.00683467,-1.49848,-0.0796413,-0.740822,-917.399,0.215375,
2,1,0,1,0,4909.62,0.218061,0.217832,29.5813,4,0.0170195,10,0.00644377,-1.52898,-0.0797837,-0.739499,-855.415,0.2178321,
2,1,0,1,0,4909.63,0.220469,0.220213,27.6025,4,0.0171908,10,0.00607843,-1.55905,-0.080672,-0.731356,-790.175,0.220213,
2,1,0,1,0,4909.63,0.222866,0.222558,25.7964,4,0.0173507,10,0.0057412,-1.58844,-0.0837058,-0.70485,-712.838,0.222558,
2,1,0,1,0,4909.64,0.225263,0.224997,24.2023,4,0.0175004,10,0.00544546,-1.61614,-0.0904272,-0.652459,-619.704,0.224997,
2,1,0,1,0,4909.65,0.227663,0.22741,22.8156,4,0.0176412,10,0.00518848,-1.64177,-0.0985646,-0.598592,-536.309,0.22741,
2,1,0,1,0,4909.65,0.230066,0.229785,21.6214,4,0.0177744,10,0.00496828,-1.66512,-0.110235,-0.535221,-454.859,0.229785,
2,1,0,1,0,4909.66,0.232463,0.23217,20.6606,4,0.0179011,10,0.00479676,-1.68486,-0.126671,-0.465774,-377.589,0.23217,
2,1,0,1,0,4909.66,0.23486,0.23456,19.8406,4,0.0180224,10,0.0046538,-1.70245,-0.147879,-0.398974,-310.685,0.23456,
2,1,0,1,0,4909.67,0.237268,0.236985,19.1744,4,0.0181393,10,0.00454405,-1.71728,-0.175511,-0.336161,-252.923,0.236985,
2,1,0,1,0,4909.68,0.239665,0.239324,18.6347,4,0.0182526,10,0.00445974,-1.72968,-0.206517,-0.285691,-208.569,0.239324,
2,1,0,1,0,4909.68,0.242063,0.241758,18.185,4,0.018363,10,0.00439637,-1.74029,-0.249419,-0.23655,-168.57,0.241758,
2,1,0,1,0,4909.69,0.244465,0.244165,17.8299,4,0.0184709,10,0.00435345,-1.74885,-0.302258,-0.195198,-136.292,0.244165,
2,1,0,1,0,4909.69,0.246865,0.246561,17.5379,4,0.018577,10,0.00432416,-1.75602,-0.364896,-0.16169,-110.848,0.246561,
2,1,0,1,0,4909.7,0.249262,0.248999,17.2946,4,0.0186814,10,0.00430632,-1.76209,-0.40845,-0.144448,-97.6299,0.248999,
2,1,0,1,0,4909.71,0.251659,0.251397,17.0737,4,0.0187845,10,0.00429227,-1.76767,-0.484635,-0.121741,-81.2721,0.251397,
2,1,0,1,0,4909.71,0.254067,0.253747,16.9078,4,0.0188864,10,0.00429031,-1.77191,-0.573553,-0.102868,-67.9381,0.253747,
2,1,0,1,0,4909.72,0.256465,0.256159,16.7539,4,0.0189874,10,0.00429167,-1.77588,-0.615787,-0.0958124,-62.6824,0.256159,
2,1,0,1,0,4909.72,0.258862,0.258537,16.6184,4,0.0190875,10,0.00429647,-1.77941,-0.687388,-0.0858322,-55.6812,0.258537,
2,1,0,1,0,4909.73,0.26127,0.260992,16.4947,4,0.0191868,10,0.00430497,-1.78266,-0.738571,-0.079884,-51.4519,0.260992,
2,1,0,1,0,4909.74,0.263667,0.263395,16.379,4,0.0192853,10,0.00431414,-1.78571,-0.831245,-0.0709778,-45.3805,0.263395,
2,1,0,1,0,4909.74,0.266064,0.265766,16.2738,4,0.0193833,10,0.00432502,-1.78851,-0.830154,-0.0710712,-45.1287,0.265766,
2,1,0,1,0,4909.75,0.268461,0.268173,16.1532,4,0.0194806,10,0.00433185,-1.79174,-0.876111,-0.0673431,-42.5291,0.268173,
2,1,0,1,0,4909.75,0.270867,0.270539,16.0672,4,0.0195772,10,0.0043468,-1.79406,-0.958006,-0.0615862,-38.6293,0.270539,
2,1,0,1,0,4909.76,0.273264,0.272985,15.9853,4,0.0196734,10,0.00436374,-1.79628,-0.927783,-0.0635924,-39.6201,0.272985,
2,1,0,1,0,4909.77,0.275661,0.27537,15.8643,4,0.019769,10,0.00436854,-1.79958,-0.940464,-0.062735,-38.9092,0.27537,
2,1,0,1,0,4909.77,0.278069,0.277775,15.7897,4,0.0198639,10,0.00438597,-1.80163,-0.993617,-0.059379,-36.591,0.277775,
2,1,0,1,0,4909.78,0.280466,0.280162,15.708,4,0.0199584,10,0.00440079,-1.80388,-0.981241,-0.0601279,-36.8344,0.280162,
2,1,0,1,0,4909.78,0.282863,0.282522,15.6122,4,0.0200524,10,0.00441079,-1.80654,-1.0303,-0.0572649,-34.9259,0.2825222,
2,1,0,1,0,4909.79,0.28526,0.284976,15.5318,4,0.0201458,10,0.0044262,-1.80878,-1.015,-0.0581283,-35.239,0.284976,
2,1,0,1,0,4909.8,0.287666,0.287356,15.4491,4,0.0202387,10,0.00443939,-1.8111,-1.08805,-0.0542254,-32.6934,0.287356,
2,1,0,1,0,4909.8,0.290063,0.289765,15.3769,4,0.0203312,10,0.00445569,-1.81313,-0.969686,-0.0608444,-36.4709,0.289765,
2,1,0,1,0,4909.81,0.29246,0.292203,15.2824,4,0.0204232,10,0.00446556,-1.81581,-1.07643,-0.0548109,-32.7183,0.292203,
2,1,0,1,0,4909.81,0.294868,0.294573,15.2093,4,0.0205146,10,0.00448024,-1.81789,-1.18981,-0.0495879,-29.445,0.294573,
2,1,0,1,0,4909.82,0.297265,0.296951,15.1482,4,0.0206056,10,0.00449826,-1.81964,-1.20302,-0.0490431,-28.9647,0.296951,
2,1,0,1,0,4909.83,0.29958,0.299303,15.0501,4,0.0206932,10,0.00450454,-1.82246,-0.0592359,-0.996018,-555.594,0.299303,
2,1,0,1,0,4909.83,0.299962,0.299861,14.9078,4,0.0207128,10,0.00447026,-1.82659,0.00507727,11.6204,4826.14,0.299861,
2,1,0,1,0,4909.83,0.297903,0.297698,8.97745,4,0.0207718,10,0.00267257,-2.04685,0.00751285,7.85321,2263.58,0.297698,
2,1,0,1,0,4909.84,0.295506,0.295262,4.15909,4,0.0208099,10,0.00122802,-2.381,0.00270253,21.8314,1701.49,0.295262,
2,1,0,1,0,4909.84,0.293101,0.292831,0.826739,4,0.020824,10,0.000242095,-3.08263,0.0154955,3.80755,1189.02,0.292831,
2,0,0,1,0,4909.85,0.290704,0.290406,-1.50948,4,0.0208213,10,-0.000438362,-2.82117,-0.021347,-2.76385,840.592,0.290406,
2,0,0,1,0,4909.86,0.288307,0.288028,-3.16404,4,0.0208069,10,-0.000911332,-2.49976,-0.00839747,-7.02592,608.73,0.288028,
2,0,0,1,0,4909.86,0.28591,0.285619,-4.34717,4,0.020784,10,-0.00124163,-2.36179,-0.0204245,-2.88869,442.119,0.2856186,
2,0,0,1,0,4909.87,0.283501,0.283245,-5.27242,4,0.0207549,10,-0.00149339,-2.27799,-0.0346781,-1.70136,330.85,0.283245,
2,0,0,1,0,4909.87,0.281104,0.280841,-5.9429,4,0.0207211,10,-0.00166901,-2.226,-0.0538076,-1.0965,246.359,0.280841,
2,0,0,1,0,4909.88,0.278707,0.278462,-6.44346,4,0.0206839,10,-0.00179426,-2.19088,-0.0730822,-0.80731,200.242,0.2784619,
2,0,0,1,0,4909.89,0.276302,0.276066,-6.88667,4,0.0206439,10,-0.00190118,-2.16199,-0.0973272,-0.606203,160.534,0.276066,
2,0,0,1,0,4909.89,0.273905,0.273618,-7.23154,4,0.0206014,10,-0.00197868,-2.14077,-0.126366,-0.466896,130.458,0.273618,
2,0,0,1,0,4909.9,0.271508,0.27126,-7.4968,4,0.0205572,10,-0.00203358,-2.12512,-0.148573,-0.397111,115.974,0.27126,
2,0,0,1,0,4909.9,0.269105,0.268844,-7.76457,4,0.0205114,10,-0.00208746,-2.10988,-0.173981,-0.339117,102.342,0.268844,
2,0,0,1,0,4909.91,0.266702,0.266445,-7.98916,4,0.0204641,10,-0.00212867,-2.0975,-0.205381,-0.287271,89.2784,0.266445,
2,0,0,1,0,4909.92,0.264305,0.264023,-8.19216,4,0.0204155,10,-0.00216292,-2.0866,-0.236241,-0.249745,79.6964,0.264023,
2,0,0,1,0,4909.92,0.261908,0.261628,-8.37558,4,0.0203657,10,-0.00219129,-2.07698,-0.250067,-0.235937,77.13,0.261628,
2,0,0,1,0,4909.93,0.2595,0.259265,-8.57968,4,0.0203149,10,-0.00222441,-2.06653,-0.263067,-0.224278,74.8776,0.259265,
2,0,0,1,0,4909.93,0.257103,0.256799,-8.74614,4,0.0202629,10,-0.002246,-2.05818,-0.296199,-0.199191,67.8112,0.256799,
2,0,0,1,0,4909.94,0.254706,0.254395,-8.89533,4,0.02021,10,-0.00226293,-2.05084,-0.302182,-0.195246,67.8901,0.254395,
2,0,0,1,0,4909.95,0.2523,0.252003,-9.07921,4,0.0201561,10,-0.00228799,-2.04195,-0.313279,-0.18833,66.5507,0.252003,
2,0,0,1,0,4909.95,0.249903,0.249611,-9.22981,4,0.0201012,10,-0.00230387,-2.03481,-0.331889,-0.17777,63.842,0.249611,
2,0,0,1,0,4909.96,0.247506,0.247193,-9.35871,4,0.0200454,10,-0.0023134,-2.02878,-0.341089,-0.172975,63.3062,0.247193,
2,0,0,1,0,4909.96,0.245109,0.244811,-9.51797,4,0.0199888,10,-0.0023301,-2.02146,-0.337901,-0.174608,64.8687,0.244811,
2,0,0,1,0,4909.97,0.242701,0.242405,-9.68934,4,0.0199311,10,-0.00234874,-2.01371,-0.353306,-0.166994,62.9689,0.242405,
2,0,0,1,0,4909.98,0.240304,0.240051,-9.81153,4,0.0198726,10,-0.00235527,-2.00826,-0.389632,-0.151425,58.0445,0.240051,
2,0,0,1,0,4909.98,0.237906,0.237649,-9.94697,4,0.0198133,10,-0.00236389,-2.00231,-0.369825,-0.159535,62.0209,0.237649,
2,0,0,1,0,4909.99,0.235501,0.235195,-10.1201,4,0.0197531,10,-0.00238019,-1.99482,-0.385495,-0.15305,60.3462,0.235195,
2,0,0,1,0,4909.99,0.233104,0.232799,-10.2621,4,0.0196919,10,-0.00238901,-1.98876,-0.39272,-0.150234,60.1328,0.232799,
2,0,0,1,0,4910,0.230707,0.230431,-10.3954,4,0.0196299,10,-0.00239542,-1.98316,-0.403274,-0.146303,59.4543,0.230431,
2,0,0,1,0,4910.01,0.22831,0.227993,-10.5421,4,0.0195671,10,-0.00240352,-1.97707,-0.374201,-0.157669,64.9202,0.227993,
2,0,0,1,0,4910.01,0.225902,0.225649,-10.7136,4,0.0195033,10,-0.00241752,-1.97006,-0.38946,-0.151492,63.1876,0.225649,
2,0,0,1,0,4910.02,0.223504,0.223213,-10.8515,4,0.0194386,10,-0.0024222,-1.96451,-0.401803,-0.146838,62.2168,0.223213,
2,0,0,1,0,4910.02,0.221107,0.22082,-10.9888,4,0.0193731,10,-0.00242654,-1.95905,-0.37234,-0.158457,68.1395,0.22082,
2,0,0,1,0,4910.03,0.218699,0.218435,-11.1823,4,0.0193066,10,-0.00244261,-1.95147,-0.383478,-0.153855,66.9366,0.218435,
2,0,0,1,0,4910.04,0.216302,0.216039,-11.3232,4,0.019239,10,-0.00244625,-1.94603,-0.390488,-0.151093,66.7824,0.216039,
2,0,0,1,0,4910.04,0.213905,0.213564,-11.4797,4,0.0191707,10,-0.00245164,-1.94007,-0.368273,-0.160207,71.933,0.213564,
2,0,0,1,0,4910.05,0.211505,0.211163,-11.6704,4,0.0191012,10,-0.00246435,-1.93292,-0.366185,-0.161121,73.3024,0.211163,
2,0,0,1,0,4910.05,0.209102,0.208845,-11.8449,4,0.0190306,10,-0.00247375,-1.92647,-0.357849,-0.164874,76.2253,0.208845,
2,0,0,1,0,4910.06,0.206705,0.206415,-12.0349,4,0.018959,10,-0.00248417,-1.91956,-0.351529,-0.167838,78.8438,0.2064147,
2,0,0,1,0,4910.07,0.204308,0.204042,-12.2312,4,0.0188862,10,-0.00249567,-1.91253,-0.334117,-0.176585,84.2639,0.204042,
2,0,0,1,0,4910.07,0.2019,0.201582,-12.4449,4,0.0188122,10,-0.00250868,-1.90501,-0.337574,-0.174777,84.8251,0.201582,
2,0,0,1,0,4910.08,0.199503,0.199175,-12.6358,4,0.018737,10,-0.00251674,-1.8984,-0.322025,-0.183215,90.4251,0.199175,
2,0,0,1,0,4910.08,0.197106,0.196834,-12.8627,4,0.0186605,10,-0.00253181,-1.89067,-0.29719,-0.198526,99.8406,0.196834,
2,0,0,1,0,4910.09,0.194709,0.194436,-13.0999,4,0.0185826,10,-0.0025471,-1.88273,-0.289765,-0.203613,104.214,0.194436,
2,0,0,1,0,4910.1,0.192303,0.192021,-13.3694,4,0.0185031,10,-0.0025672,-1.87389,-0.28242,-0.208908,108.993,0.192021,
2,0,0,1,0,4910.1,0.189906,0.189615,-13.6139,4,0.0184221,10,-0.00258139,-1.86602,-0.271775,-0.217091,115.706,0.1896147,
2,0,0,1,0,4910.11,0.187509,0.187195,-13.9237,4,0.0183394,10,-0.00260644,-1.85625,-0.253055,-0.233151,126.795,0.187195,
2,0,0,1,0,4910.11,0.185101,0.184882,-14.2466,4,0.0182549,10,-0.00263394,-1.84629,-0.245591,-0.240237,133.617,0.184882,
2,0,0,1,0,4910.12,0.182704,0.182382,-14.5641,4,0.0181685,10,-0.00265623,-1.83672,-0.234534,-0.251563,143.383,0.182382,
2,0,0,1,0,4910.13,0.180307,0.180019,-14.9423,4,0.0180799,10,-0.0026899,-1.82558,-0.214552,-0.274991,160.407,0.180019,
2,0,0,1,0,4910.13,0.177904,0.177621,-15.3266,4,0.0179891,10,-0.00272234,-1.81455,-0.208284,-0.283267,169.65,0.177621,
2,0,0,1,0,4910.14,0.175501,0.175212,-15.7485,4,0.0178959,10,-0.00275934,-1.80276,-0.197128,-0.299298,184.29,0.175212,
2,0,0,1,0,4910.14,0.173104,0.172786,-16.2062,4,0.0178,10,-0.0028002,-1.79032,-0.187388,-0.314855,199.433,0.172786,
2,0,0,1,0,4910.15,0.170707,0.170436,-16.691,4,0.0177012,10,-0.00284476,-1.77752,-0.177601,-0.332206,216.897,0.170436,
2,0,0,1,0,4910.16,0.168302,0.168029,-17.2482,4,0.0175994,10,-0.00289819,-1.76326,-0.170724,-0.345587,232.853,0.168029,
2,0,0,1,0,4910.16,0.165905,0.165613,-17.8221,4,0.0174941,10,-0.00295158,-1.74904,-0.162391,-0.36332,253.145,0.165613,
2,0,0,1,0,4910.17,0.163507,0.163236,-18.4473,4,0.0173853,10,-0.00301127,-1.73407,-0.155543,-0.379316,273.733,0.163236,
2,0,0,1,0,4910.17,0.161099,0.160817,-19.1468,4,0.0172725,10,-0.00307913,-1.7179,-0.148849,-0.396374,296.297,0.160817,
2,0,0,1,0,4910.18,0.158702,0.158447,-19.8636,4,0.0171554,10,-0.00314734,-1.70194,-0.14412,-0.40938,318.028,0.158447,
2,0,0,1,0,4910.19,0.156305,0.156008,-20.658,4,0.0170338,10,-0.00322282,-1.68491,-0.138983,-0.424512,342.907,0.156008,
2,0,0,1,0,4910.19,0.153908,0.153604,-21.5194,4,0.0169072,10,-0.00330547,-1.66717,-0.134743,-0.437871,368.043,0.153604,
2,0,0,1,0,4910.2,0.151503,0.151266,-22.4028,4,0.0167754,10,-0.00338879,-1.6497,-0.131681,-0.448053,392.693,0.151266,
2,0,0,1,0,4910.2,0.149105,0.148842,-23.3994,4,0.0166379,10,-0.00348281,-1.6308,-0.127072,-0.464304,424.491,0.148842,
2,0,0,1,0,4910.21,0.146708,0.146474,-24.4499,4,0.0164943,10,-0.00358128,-1.61172,-0.126041,-0.468102,446.635,0.146474,
2,0,0,1,0,4910.22,0.1443,0.144059,-25.532,4,0.0163443,10,-0.00367811,-1.59291,-0.127006,-0.464544,463.199,0.144059,
2,0,0,1,0,4910.22,0.141903,0.141632,-26.6654,4,0.0161876,10,-0.00377669,-1.57405,-0.127971,-0.461041,479.935,0.141632,
2,0,0,1,0,4910.23,0.139506,0.139224,-27.8449,4,0.0160239,10,-0.00387668,-1.55525,-0.128015,-0.460883,500.941,0.139224,
2,0,0,1,0,4910.23,0.137109,0.136855,-29.0529,4,0.0158531,10,-0.00397604,-1.53681,-0.131026,-0.450291,510.689,0.136855,
2,0,0,1,0,4910.24,0.134701,0.134435,-30.3099,4,0.0156749,10,-0.00407472,-1.51842,-0.1355,-0.435425,514.53,0.134435,
2,0,0,1,0,4910.25,0.132303,0.132048,-31.5583,4,0.0154892,10,-0.00416722,-1.50089,-0.141342,-0.417428,513.21,0.1320484,
2,0,0,1,0,4910.25,0.129906,0.129728,-32.748,4,0.0152962,10,-0.00424835,-1.48481,-0.143115,-0.412255,527.473,0.129728,
2,0,0,1,0,4910.26,0.127501,0.127284,-34.0478,4,0.0150957,10,-0.00433375,-1.46791,-0.147126,-0.401017,532.073,0.127284,
2,0,0,1,0,4910.26,0.125104,0.124872,-35.3157,4,0.0148875,10,-0.00440993,-1.45203,-0.153899,-0.383368,527.701,0.124872,
2,0,0,1,0,4910.27,0.122707,0.122454,-36.5776,4,0.0146717,10,-0.00447907,-1.43678,-0.162807,-0.362391,516.509,0.122454,
2,0,0,1,0,4910.28,0.12031,0.120096,-37.7769,4,0.0144484,10,-0.00453684,-1.42277,-0.174097,-0.338891,499.128,0.120096,
2,0,0,1,0,4910.28,0.117901,0.117677,-38.9693,4,0.014218,10,-0.00458578,-1.40928,-0.185231,-0.318521,483.7,0.117677,
2,0,0,1,0,4910.29,0.115504,0.115308,-40.1144,4,0.0139806,10,-0.0046255,-1.3967,-0.200144,-0.294788,460.667,0.115308,
2,0,0,1,0,4910.29,0.113107,0.112939,-41.1934,4,0.0137366,10,-0.00465233,-1.38517,-0.212677,-0.277416,445.498,0.112939,
2,0,0,1,0,4910.3,0.110702,0.110491,-42.2498,4,0.0134861,10,-0.00466823,-1.37418,-0.228393,-0.258327,425.402,0.110491,
2,0,0,1,0,4910.31,0.108305,0.108066,-43.2672,4,0.0132295,10,-0.00467572,-1.36384,-0.248766,-0.23717,399.725,0.108066,
2,0,0,1,0,4910.31,0.105908,0.105688,-44.1997,4,0.012967,10,-0.00467136,-1.35458,-0.271022,-0.217695,374.808,0.105688,
2,0,0,1,0,4910.32,0.103505,0.103218,-45.0532,4,0.0126991,10,-0.0046503,-1.34627,-0.303818,-0.194195,340.795,0.103218,
2,0,0,1,0,4910.32,0.101102,0.100835,-45.8167,4,0.0124263,10,-0.00461995,-1.33898,-0.352987,-0.167145,298.296,0.100835,
2,0,0,1,0,4910.33,0.0987052,0.098424,-46.4905,4,0.0121493,10,-0.00457578,-1.33264,-0.419976,-0.140484,254.357,0.098424,
2,0,0,1,0,4910.34,0.0963081,0.0959766,-47.0577,4,0.0118685,10,-0.00451644,-1.32737,-0.502707,-0.117365,215.124,0.0959766,
2,0,0,1,0,4910.34,0.0938999,0.093632,-47.5247,4,0.0115847,10,-0.00444983,-1.32308,-0.633124,-0.0931886,172.512,0.09363199,
2,0,0,1,0,4910.35,0.0915028,0.0911708,-47.8991,4,0.0112983,10,-0.004367,-1.31967,-0.893514,-0.0660314,123.123,0.0911708,
2,0,0,1,0,4910.35,0.0891057,0.0887817,-48.129,4,0.0110102,10,-0.00427298,-1.31759,-1.56965,-0.0375881,70.4352,0.0887817,
2,0,0,1,0,4910.36,0.0867002,0.0864234,-48.2356,4,0.0107211,10,-0.00416868,-1.31663,-5.56425,-0.0106034,19.9147,0.0864234,
2,0,0,1,0,4910.37,0.0843031,0.0840046,-48.2238,4,0.0104317,10,-0.00405102,-1.31674,3.0423,0.0193932,-36.3939,0.0840046,
2,0,0,1,0,4910.37,0.081906,0.0816282,-48.0556,4,0.0101428,10,-0.00392269,-1.31826,1.19056,0.0495566,-92.7172,0.0816282,
2,0,0,1,0,4910.38,0.0795089,0.0792264,-47.7559,4,0.00985528,10,-0.00378352,-1.32097,0.757784,0.0778586,-144.839,0.0792264,
2,0,0,1,0,4910.38,0.0771007,0.0767864,-47.3676,4,0.00956989,10,-0.00363719,-1.32452,0.557678,0.105796,-195.068,0.0767864,
2,0,0,1,0,4910.39,0.0747036,0.0744005,-46.8253,4,0.00928731,10,-0.00348382,-1.32952,0.44123,0.133717,-243.829,0.0744005,
2,0,0,1,0,4910.4,0.0723065,0.0719859,-46.1868,4,0.00900831,10,-0.0033248,-1.33548,0.374626,0.15749,-283.413,0.0719859,
2,0,0,1,0,4910.4,0.0699011,0.0696308,-45.4666,4,0.00873342,10,-0.00316588,-1.34231,0.335199,0.176015,-311.9,0.06963075,
2,0,0,1,0,4910.41,0.067504,0.067195,-44.6814,4,0.00846302,10,-0.00300237,-1.34987,0.305465,0.193148,-336.46,0.067195,
2,0,0,1,0,4910.41,0.0651069,0.0648112,-43.8647,4,0.00819741,10,-0.00284292,-1.35789,0.291143,0.20265,-346.684,0.0648112,
2,0,0,1,0,4910.42,0.0627098,0.0624529,-42.998,4,0.0079369,10,-0.00268535,-1.36655,0.28035,0.210451,-353.288,0.0624529,
2,0,0,1,0,4910.43,0.0603016,0.0600023,-42.1693,4,0.00768145,10,-0.00253026,-1.375,0.280792,0.21012,-345.809,0.0600023,
2,0,0,1,0,4910.43,0.0579045,0.0576397,-41.3447,4,0.00743101,10,-0.00238309,-1.38358,0.276206,0.213609,-344.517,0.0576397,
2,0,0,1,0,4910.44,0.0555074,0.055188,-40.5065,4,0.00718557,10,-0.00223547,-1.39248,0.281385,0.209677,-331.738,0.055188,
2,0,0,1,0,4910.44,0.0530992,0.0527724,-39.7411,4,0.00694499,10,-0.00209724,-1.40076,0.28652,0.205919,-319.338,0.0527724,
2,0,0,1,0,4910.45,0.0507021,0.0504289,-38.9766,4,0.00670892,10,-0.00196555,-1.4092,0.287652,0.205109,-311.906,0.0504289,
2,0,0,1,0,4910.46,0.048305,0.0479698,-38.2177,4,0.00647743,10,-0.0018333,-1.41774,0.286286,0.206088,-307.579,0.0479698,
2,0,0,1,0,4910.46,0.0459051,0.0456168,-37.4886,4,0.00625043,10,-0.00171011,-1.4261,0.283542,0.208082,-304.469,0.0456168,
2,0,0,1,0,4910.47,0.0435024,0.0432012,-36.7718,4,0.00602765,10,-0.00158858,-1.43449,0.284838,0.207135,-297.171,0.0432012,
2,0,0,1,0,4910.47,0.0411053,0.0407644,-36.0561,4,0.00580924,10,-0.0014698,-1.44302,0.27311,0.21603,-303.923,0.0407644,
2,0,0,1,0,4910.48,0.0387082,0.0384378,-35.3304,4,0.00559513,10,-0.00135802,-1.45185,0.271085,0.217644,-300.032,0.0384378,
2,0,0,1,0,4910.49,0.0363,0.0360106,-34.616,4,0.00538536,10,-0.00124654,-1.46072,0.262142,0.225069,-303.8,0.0360106,
2,0,0,1,0,4910.49,0.0339029,0.0336056,-33.8727,4,0.00518,10,-0.00113831,-1.47015,0.244588,0.241222,-318.502,0.0336056,
2,0,0,1,0,4910.5,0.0315058,0.0312154,-33.1013,4,0.00497916,10,-0.00103327,-1.48016,0.239479,0.246368,-318.093,0.0312154,
2,0,0,1,0,4910.5,0.0291087,0.0287807,-32.3143,4,0.00478303,10,-0.000930028,-1.49061,0.229224,0.25739,-324.534,0.0287807,
2,0,0,1,0,4910.51,0.0267033,0.0263969,-31.5477,4,0.00459147,10,-0.000832761,-1.50103,0.221351,0.266545,-327.772,0.0263969,
2,0,0,1,0,4910.52,0.0243062,0.0239834,-30.7349,4,0.00440468,10,-0.000737129,-1.51237,0.214351,0.27525,-330.227,0.0239834,
2,0,0,1,0,4910.52,0.0219091,0.0215912,-29.9406,4,0.00422272,10,-0.000646451,-1.52374,0.214631,0.274891,-321.568,0.0215912,
2,0,0,1,0,4910.53,0.0195009,0.0191596,-29.2006,4,0.00404536,10,-0.000559473,-1.53461,0.213045,0.276937,-315.566,0.0191596,
2,0,0,1,0,4910.53,0.0171038,0.016849,-28.4553,4,0.00387246,10,-0.000479444,-1.54584,0.221076,0.266876,-296.706,0.01684902,
2,0,0,1,0,4910.54,0.0147067,0.0144133,-27.7652,4,0.00370392,10,-0.000400188,-1.5565,0.231748,0.254587,-276.304,0.0144133,
2,0,0,1,0,4910.55,0.012304,0.012003,-27.138,4,0.00353934,10,-0.000325737,-1.56642,0.247882,0.238016,-252.413,0.012003,
2,0,0,1,0,4910.55,0.00990136,0.00959372,-26.5631,4,0.00337835,10,-0.000254839,-1.57572,0.269464,0.218953,-227.221,0.00959372,
2,0,0,1,0,4910.56,0.00750426,0.00722795,-26.0273,4,0.00322067,10,-0.000188124,-1.58457,0.295396,0.199732,-203.348,0.00722795,
2,0,0,1,0,4910.56,0.00510715,0.00479856,-25.5724,4,0.00306595,10,-0.000122711,-1.59223,0.367987,0.160332,-160.645,0.00479856,
2,0,0,1,0,4910.57,0.00270173,0.00240628,-25.2048,4,0.00291368,10,-6.065e-05,-1.59852,0.414602,0.142305,-140.312,0.00240628,
2,0,0,1,0,4910.58,0.000304623,-5.91615e-05,-24.9261,4,0.0027632,10,1.47467e-06,-1.60335,0.466956,0.12635,-122.902,-5.91615e-05,
2,0,0,1,0,4910.58,-0.00209248,-0.0024578,-24.6124,4,0.00261465,10,6.04924e-05,-1.60885,0.524083,0.112578,-108.47,-0.0024578,
2,0,0,1,0,4910.59,-0.00450068,-0.00486387,-24.4078,4,0.00246765,10,0.000118716,-1.61247,0.645805,0.0913589,-87.0905,-0.00486387,
2,0,0,1,0,4910.59,-0.00689779,-0.00726039,-24.221,4,0.0023218,10,0.000175854,-1.61581,0.785923,0.0750709,-71.0158,-0.007260385,
2,0,0,1,0,4910.6,-0.00929489,-0.00961555,-24.0477,4,0.00217706,10,0.000231232,-1.61893,1.0525,0.0560568,-52.7501,-0.00961555,
2,0,0,1,0,4910.61,-0.011692,-0.0120608,-23.9627,4,0.00203306,10,0.00028901,-1.62046,1.52858,0.0385979,-36.1259,-0.0120608,
2,0,0,1,0,4910.61,-0.0140974,-0.0144213,-23.8927,4,0.00188947,10,0.000344564,-1.62173,2.20775,0.026724,-24.9337,-0.0144213,
2,0,0,1,0,4910.62,-0.0164945,-0.0168242,-23.8277,4,0.00174633,10,0.000400881,-1.62292,3.21543,0.018349,-17.0946,-0.0168242,
2,0,0,1,0,4910.62,-0.0188916,-0.0192207,-23.8149,4,0.00160341,10,0.000457739,-1.62315,90.6151,0.000651106,-0.60596,-0.0192207,
2,0,0,1,0,4910.63,-0.0212998,-0.0216597,-23.8384,4,0.00146048,10,0.000516331,-1.62272,-8.38524,-0.00703617,6.54519,-0.0216597,
2,0,0,1,0,4910.64,-0.0236969,-0.0240201,-23.8558,4,0.00131741,10,0.000573019,-1.62241,-4.30032,-0.0137199,12.7749,-0.0240201,
2,0,0,1,0,4910.64,-0.026094,-0.0264633,-23.8911,4,0.00117419,10,0.000632237,-1.62176,-2.25606,-0.0261517,24.414,-0.0264633,
2,0,0,1,0,4910.65,-0.0284912,-0.028811,-23.957,4,0.00103068,10,0.000690225,-1.62057,-1.87511,-0.0314649,29.4381,-0.028811,
2,0,0,1,0,4910.65,-0.0308994,-0.031251,-24.0462,4,0.00088663,10,0.000751469,-1.61895,-1.74271,-0.0338553,31.7516,-0.031251,
2,0,0,1,0,4910.66,-0.0332965,-0.0336444,-24.11,4,0.00074216,10,0.000811166,-1.6178,-1.49671,-0.0394197,37.1395,-0.0336444,
2,0,0,1,0,4910.67,-0.0356936,-0.0360112,-24.2161,4,0.00059722,10,0.000872052,-1.6159,-1.23937,-0.0476048,45.0228,-0.0360112,
2,0,0,1,0,4910.67,-0.038099,-0.038466,-24.3475,4,0.000451514,10,0.000936551,-1.61355,-1.22763,-0.0480602,45.6176,-0.038466,
2,0,0,1,0,4910.68,-0.0404961,-0.0408265,-24.4286,4,0.00030518,10,0.000997333,-1.6121,-1.19764,-0.0492636,47.0233,-0.0408265,
2,0,0,1,0,4910.68,-0.0428932,-0.0432389,-24.5547,4,0.000158225,10,0.00106172,-1.60987,-1.02304,-0.0576714,55.3045,-0.04323893,
2,0,0,1,0,4910.69,-0.0452903,-0.0456503,-24.6937,4,1.04342e-05,10,0.00112728,-1.60741,-1.01096,-0.0583605,56.2304,-0.0456503,
2,0,0,1,0,4910.7,-0.0476985,-0.0480606,-24.831,4,-0.000138175,10,0.00119339,-1.60501,-1.00188,-0.0588895,57.0812,-0.0480606,
2,0,0,1,0,4910.7,-0.0500956,-0.0504094,-24.9662,4,-0.000287557,10,0.00125853,-1.60265,-0.991608,-0.0594993,57.991,-0.0504094,
2,0,0,1,0,4910.71,-0.0524927,-0.0528409,-25.1107,4,-0.000437816,10,0.00132687,-1.60014,-0.909613,-0.0648628,63.5938,-0.0528409,
2,0,0,1,0,4910.71,-0.0548981,-0.0552502,-25.2771,4,-0.000588996,10,0.00139656,-1.59727,-0.934237,-0.0631531,62.2659,-0.0552502,
2,0,0,1,0,4910.72,-0.0572953,-0.0576191,-25.4194,4,-0.000741097,10,0.00146464,-1.59483,-0.957108,-0.061644,61.1651,-0.0576191,
2,0,0,1,0,4910.73,-0.0596924,-0.0600093,-25.5634,4,-0.000894042,10,0.00153404,-1.59238,-0.863831,-0.0683004,68.2075,-0.0600093,
2,0,0,1,0,4910.73,-0.062095,-0.062409,-25.7634,4,-0.001048,10,0.00160787,-1.589,-0.863873,-0.0682971,68.5772,-0.062409,
2,0,0,1,0,4910.74,-0.0644977,-0.0647991,-25.912,4,-0.00120304,10,0.00167908,-1.5865,-0.852086,-0.0692418,70.012,-0.0647991,
2,0,0,1,0,4910.74,-0.0668948,-0.0671967,-26.0672,4,-0.00135894,10,0.00175163,-1.58391,-0.862951,-0.06837,69.6051,-0.0671967,
2,0,0,1,0,4910.75,-0.0692919,-0.0696049,-26.2585,4,-0.00151594,10,0.00182772,-1.58073,-0.792288,-0.0744678,76.2757,-0.0696049,
2,0,0,1,0,4910.76,-0.0717001,-0.0720194,-26.426,4,-0.00167404,10,0.00190318,-1.57797,-0.798554,-0.0738835,76.2278,-0.0720194,
2,0,0,1,0,4910.76,-0.0740972,-0.0744456,-26.6046,4,-0.00183314,10,0.0019806,-1.57504,-0.807398,-0.0730742,75.9442,-0.0744456,
2,0,0,1,0,4910.77,-0.0764943,-0.0768316,-26.81,4,-0.00199342,10,0.00205986,-1.5717,-0.756569,-0.0779836,81.5766,-0.0768316,
2,0,0,1,0,4910.77,-0.0788997,-0.079262,-27.0031,4,-0.00215485,10,0.00214032,-1.56859,-0.774201,-0.0762076,80.3051,-0.079262,
2,0,0,1,0,4910.78,-0.0812968,-0.0816204,-27.1931,4,-0.00231747,10,0.00221951,-1.56554,-0.757454,-0.0778925,82.6793,-0.0816204,
2,0,0,1,0,4910.79,-0.0836939,-0.0840137,-27.4061,4,-0.00248126,10,0.00230249,-1.56215,-0.722259,-0.0816882,87.3836,-0.0840137,
2,0,0,1,0,4910.79,-0.086091,-0.086407,-27.6155,4,-0.00264632,10,0.00238617,-1.55885,-0.695088,-0.0848813,91.4959,-0.08640705,
2,0,0,1,0,4910.8,-0.0884992,-0.0888396,-27.8503,4,-0.00281276,10,0.00247421,-1.55517,-0.67747,-0.0870887,94.6277,-0.0888396,
2,0,0,1,0,4910.8,-0.0908963,-0.091217,-28.0643,4,-0.00298051,10,0.00255995,-1.55185,-0.685393,-0.086082,94.3544,-0.091217,
2,0,0,1,0,4910.81,-0.0932934,-0.093639,-28.3019,4,-0.00314963,10,0.00265016,-1.54818,-0.654442,-0.0901531,99.61,-0.093639,
2,0,0,1,0,4910.82,-0.0956989,-0.096062,-28.5545,4,-0.00332021,10,0.002743,-1.54433,-0.648183,-0.0910236,101.415,-0.096062,
2,0,0,1,0,4910.82,-0.098096,-0.0984204,-28.7853,4,-0.00349225,10,0.00283307,-1.54083,-0.659562,-0.0894533,100.26,-0.0984204,
2,0,0,0,0,4910.83,-0.0999548,-0.100381,-28.993,4,-0.00362806,10,0.00291035,-1.53771,0.023138,2.54992,-2652.94,-0.100381,
2,0,0,1,1,4910.83,-0.0994555,-0.0999346,-27.192,4,-0.00367544,10,0.00271742,-1.56556,-0.0164406,-3.58867,3255.5,-0.0999346,
2,0,0,1,1,4910.83,-0.0970583,-0.0974936,-20.3203,4,-0.00381653,10,0.0019811,-1.69207,-0.0176305,-3.34647,2596.93,-0.0974936,
2,0,0,1,1,4910.84,-0.0946501,-0.0950578,-14.6731,4,-0.00392054,10,0.0013948,-1.83348,-0.0151162,-3.90311,2184.17,-0.0950578,
2,0,0,1,1,4910.85,-0.092253,-0.0926359,-9.90195,4,-0.00399344,10,0.000917276,-2.00428,-0.0114994,-5.13069,1859.74,-0.09263587,
2,0,0,1,1,4910.85,-0.0898559,-0.0902288,-5.82153,4,-0.00403992,10,0.000525269,-2.23496,-0.00648601,-9.09651,1602.34,-0.0902288,
2,0,0,1,1,4910.86,-0.0874588,-0.0878768,-2.27431,4,-0.00406362,10,0.000199859,-2.64315,-0.0104127,-5.66615,1388.3,-0.0878768,
2,1,0,1,1,4910.86,-0.0850534,-0.0854516,0.806704,4,-0.00406746,10,-6.89342e-05,-3.09329,0.063728,0.925809,1195.67,-0.08545161,
2,1,0,1,1,4910.87,-0.0826563,-0.0830636,3.47641,4,-0.0040542,10,-0.000288763,-2.45887,0.00399673,14.7621,1047.18,-0.0830636,
2,1,0,1,1,4910.88,-0.0802592,-0.0806883,5.83931,4,-0.00402588,10,-0.000471163,-2.23364,0.0124588,4.7356,923.229,-0.08068826,
2,1,0,1,1,4910.88,-0.077851,-0.0782684,7.89655,4,-0.00398432,10,-0.000618051,-2.10256,0.0208902,2.82428,812.389,-0.0782684,
2,1,0,1,1,4910.89,-0.0754539,-0.0758857,9.68214,4,-0.00393133,10,-0.000734736,-2.01403,0.0301386,1.95763,714.404,-0.0758857,
2,1,0,1,1,4910.89,-0.0730568,-0.0734828,11.3218,4,-0.00386807,10,-0.00083196,-1.94608,0.039958,1.47655,635.118,-0.0734828,
2,1,0,1,1,4910.9,-0.0706597,-0.0710778,12.7394,4,-0.00379563,10,-0.000905486,-1.89485,0.0511698,1.15302,562.64,-0.0710778,
2,1,0,1,1,4910.91,-0.0682542,-0.0686633,14.003,4,-0.00371514,10,-0.000961493,-1.85378,0.064783,0.910733,490.87,-0.0686633,
2,1,0,1,1,4910.91,-0.0658571,-0.066219,15.1064,4,-0.00362762,10,-0.00100033,-1.82084,0.079844,0.738941,431.197,-0.066219,
2,1,0,1,1,4910.92,-0.06346,-0.0638363,16.0762,4,-0.00353389,10,-0.00102625,-1.79382,0.0970291,0.608065,378.362,-0.0638363,
2,1,0,1,1,4910.92,-0.0610518,-0.0614366,16.9366,4,-0.00343469,10,-0.00104053,-1.77117,0.117747,0.501074,328.499,-0.0614366,
2,1,0,1,1,4910.93,-0.0586547,-0.0590507,17.6652,4,-0.00333077,10,-0.00104314,-1.75288,0.142157,0.415033,284.559,-0.0590507,
2,1,0,1,1,4910.94,-0.0562576,-0.0566043,18.3035,4,-0.00322279,10,-0.00103606,-1.73747,0.168873,0.349376,248.43,-0.0566043,
2,1,0,1,1,4910.94,-0.053855,-0.0541898,18.8643,4,-0.00311123,10,-0.00102225,-1.72436,0.200458,0.294326,215.734,-0.0541898,
2,1,0,1,1,4910.95,-0.0514523,-0.0517911,19.3339,4,-0.00299653,10,-0.00100132,-1.71368,0.23493,0.251139,188.95,-0.0517911,
2,1,0,1,1,4910.95,-0.0490552,-0.0494275,19.7518,4,-0.00287921,10,-0.000976281,-1.70439,0.277742,0.212427,163.413,-0.0494275,
2,1,0,1,1,4910.96,-0.0466581,-0.0470129,20.1337,4,-0.00275946,10,-0.000946544,-1.69608,0.327158,0.180341,141.261,-0.0470129,
2,1,0,1,1,4910.97,-0.0442527,-0.0445803,20.4334,4,-0.0026377,10,-0.00091093,-1.68966,0.394317,0.149626,119.097,-0.0445803,
2,1,0,1,1,4910.97,-0.0418556,-0.0422241,20.6901,4,-0.00251427,10,-0.000873622,-1.68424,0.475389,0.124109,100.044,-0.04222412,
2,1,0,1,1,4910.98,-0.0394585,-0.0398128,20.9238,4,-0.00238936,10,-0.000833035,-1.67936,0.554968,0.106312,86.6607,-0.0398128,
2,1,0,1,1,4910.98,-0.0370558,-0.0373791,21.1117,4,-0.00226326,10,-0.000789137,-1.67548,0.698828,0.0844271,69.4475,-0.0373791,
2,1,0,1,1,4910.99,-0.0346532,-0.0350144,21.2679,4,-0.00213609,10,-0.000744684,-1.67227,0.829683,0.0711115,58.9261,-0.0350144,
2,1,0,1,1,4911,-0.0322561,-0.0325691,21.3831,4,-0.00200813,10,-0.000696429,-1.66993,1.11978,0.0526888,43.9236,-0.0325691,
2,1,0,1,1,4911,-0.0298589,-0.0302521,21.4838,4,-0.00187951,10,-0.00064993,-1.66789,1.37607,0.0428759,35.9188,-0.0302521,
2,1,0,1,1,4911.01,-0.0274535,-0.0277814,21.5675,4,-0.00175035,10,-0.000599176,-1.6662,1.78878,0.0329834,27.7252,-0.0277814,
2,1,0,1,1,4911.01,-0.0250564,-0.0253859,21.6104,4,-0.00162083,10,-0.0005486,-1.66534,2.74392,0.0215021,18.1287,-0.0253859,
2,1,0,1,1,4911.02,-0.0226593,-0.0229799,21.6495,4,-0.00149101,10,-0.000497503,-1.66455,3.857,0.0152969,12.9112,-0.0229799,
2,1,0,1,1,4911.03,-0.0202511,-0.0206247,21.6775,4,-0.00136104,10,-0.000447091,-1.66399,11.6428,0.00506749,4.28356,-0.0206247,
2,1,0,1,1,4911.03,-0.017854,-0.0181911,21.6607,4,-0.00123102,10,-0.00039403,-1.66433,230.924,0.000255495,0.216002,-0.01819106,
2,1,0,1,1,4911.04,-0.0154569,-0.0157935,21.6656,4,-0.00110101,10,-0.000342175,-1.66423,-8.07155,-0.00730963,-6.17556,-0.01579348,
2,1,0,1,1,4911.04,-0.0130598,-0.0134139,21.6327,4,-0.000971068,10,-0.000290179,-1.66489,-5.40236,-0.0109212,-9.22148,-0.0134139,
2,1,0,1,1,4911.05,-0.0106516,-0.0110397,21.6122,4,-0.00084132,10,-0.000238592,-1.6653,-3.6037,-0.0163721,-13.8102,-0.0110397,
2,1,0,1,1,4911.06,-0.00825448,-0.00856893,21.584,4,-0.000711733,10,-0.000184952,-1.66587,-2.54889,-0.0231474,-19.4806,-0.00856893,
2,1,0,1,1,4911.06,-0.00585738,-0.00616923,21.5247,4,-0.000582407,10,-0.000132791,-1.66706,-2.15913,-0.0273259,-22.9511,-0.00616923,
2,1,0,1,1,4911.07,-0.00345195,-0.00383951,21.471,4,-0.000453451,10,-8.2438e-05,-1.66815,-1.99488,-0.0295757,-24.778,-0.00383951,
2,1,0,1,1,4911.07,-0.00105485,-0.00140164,21.4177,4,-0.000324792,10,-3.00198e-05,-1.66923, , , ,-0.00140164,
2,1,0,0,1,4911.08,-7.54729e-05,-0.000344411,21.3896,4,-0.000271292,10,-7.3668e-06,-1.6698, , , ,-0.000344411,