File: Figure_codes/Fig_3-5/rawdata_trumpetplot_data/before 10th/20221101_1-115_002_TrumpetPlot_ParaChange_03_CV_C01.mpt
EC-Lab ASCII FILE
Nb header lines : 61

Cyclic Voltammetry

Run on channel : 1 (SN 65296)
User :
CE vs. WE compliance from -10 V to 10 V
Electrode connection : standard
Potential control : Ewe
Ewe ctrl range : min = -1.00 V, max = 1.00 V
Safety Limits :
	Do not start on E overload
Acquisition started on : 11/08/2022 17:30:03.488
Loaded Setting File :  NONE
Saved on :
	File : 20221101_1-115_002_TrumpetPlot_ParaChange_03_CV_C01.mpr
	Directory : C:\Users\NakamuraT\Documents\EC-Lab\Data\Yatsuzuka\20221108_1-115_001_TrumpetPlot\
	Host : 192.109.209.100
Device : SP-50e (SN .003219)
Address : 192.109.209.128
EC-Lab for windows v11.43 (software)
Internet server v11.40 (firmware)
Command interpretor v11.40 (firmware)
Electrode material : Au/Pd
Initial state :
Electrolyte : NaCl (0.2M)
Comments : Fe(CN)63-/Fe(CN)64- 5.10-3 M
Reference electrode : SCE Saturated Calomel Electrode (0.241 V)
Electrode surface area : 0.001 cm2
Characteristic mass : 0.001 g
Equivalent Weight : 0.000 g/eq.
Density : 0.000 g/cm3
Volume (V) : 0.001 cm3
Cycle Definition : Charge/Discharge alternance
Ei (V)              0.000
vs.                 Ref
dE/dt               5.000
dE/dt unit          mV/s
E1 (V)              0.850
vs.                 Ref
Step percent        50
N                   10
E range min (V)     -1.000
E range max (V)     1.000
I Range             100 mA
I Range min         Unset
I Range max         Unset
I Range init        Unset
Bandwidth           5
E2 (V)              0.000
vs.                 Ref
nc cycles           0
Reverse Scan        0
Ef (V)              0.000
vs.                 Eoc

Number of loops : 1
Loop 0 from point number 0 to 3406

mode	ox/red	error	control changes	counter inc.	time/s	control/V	Ewe/V	<I>/mA	cycle number	(Q-Qo)/C	I Range	P/W
2	1	0	0	0	18.6612	2.44065e-05	-0.000325324	0.772606	1	0.0000000E+000	10	-2.51347e-07
2	1	0	1	0	19.1157	0.00229644	0.0019957	0.221789	1	0.000115236	10	4.42625e-07
2	1	0	1	0	19.6151	0.00479342	0.00454498	0.215877	1	0.00023334	10	9.81157e-07
2	1	0	1	0	20.1145	0.0072904	0.00704523	0.223999	1	0.000355312	10	1.57813e-06
2	1	0	1	0	20.6139	0.00978739	0.00956263	0.231087	1	0.000481618	10	2.20979e-06
2	1	0	1	0	21.1133	0.0122845	0.0120092	0.234431	1	0.000610406	10	2.81532e-06
2	1	0	1	0	21.6127	0.0147815	0.0144737	0.238077	1	0.000741703	10	3.44586e-06
2	1	0	1	0	22.1121	0.0172784	0.0170082	0.243094	1	0.000875333	10	4.1346e-06
2	1	0	1	0	22.6115	0.0197754	0.0194533	0.245861	1	0.00101004	10	4.7828e-06
2	1	0	1	0	23.1109	0.0222725	0.021995	0.250087	1	0.00114649	10	5.50067e-06
2	1	0	1	0	23.6103	0.0247695	0.0245319	0.248098	1	0.00128393	10	6.08632e-06
2	1	0	1	0	24.1097	0.0272665	0.0269811	0.255521	1	0.00142277	10	6.89426e-06
2	1	0	1	0	24.6091	0.0297635	0.029485	0.25585	1	0.00156318	10	7.54374e-06
2	1	0	1	0	25.1085	0.0322606	0.0319929	0.257455	1	0.00170411	10	8.23672e-06
2	1	0	1	0	25.6079	0.0347576	0.0344986	0.260614	1	0.00184658	10	8.99083e-06
2	1	0	1	0	26.1073	0.0372545	0.0369936	0.26113	1	0.00199015	10	9.66013e-06
2	1	0	1	0	26.6067	0.0397516	0.0394919	0.26542	1	0.00213465	10	1.04819e-05
2	1	0	1	0	27.1061	0.0422486	0.0420042	0.267611	1	0.00228073	10	1.12408e-05
2	1	0	1	0	27.6055	0.0447456	0.0444518	0.270108	1	0.00242769	10	1.20068e-05
2	1	0	1	0	28.1049	0.0472426	0.0469573	0.274131	1	0.0025763	10	1.28724e-05
2	1	0	1	0	28.6043	0.0497397	0.049477	0.277351	1	0.00272673	10	1.37225e-05
2	1	0	1	0	29.1037	0.0522367	0.0519913	0.279315	1	0.00287839	10	1.4522e-05
2	1	0	1	0	29.6031	0.0547336	0.0544397	0.283362	1	0.00303246	10	1.54262e-05
2	1	0	1	0	30.1025	0.0572306	0.0569381	0.285669	1	0.00318819	10	1.62655e-05
2	1	0	1	0	30.6019	0.0597277	0.0594268	0.294996	1	0.00334668	10	1.75306e-05
2	1	0	1	0	31.1013	0.0622247	0.0619561	0.300012	1	0.00350772	10	1.85876e-05
2	1	0	1	0	31.6007	0.0647217	0.064501	0.306756	1	0.00367137	10	1.97861e-05
2	1	0	1	0	32.1001	0.0672187	0.0669568	0.313677	1	0.00383867	10	2.10028e-05
2	1	0	0	0	32.5994	0.0697152	0.0694261	0.317911	1	0.00400911	10	2.20713e-05
2	1	0	1	0	33.0988	0.0722122	0.0719191	0.328144	1	0.00418349	10	2.35999e-05
2	1	0	0	0	33.5982	0.0747092	0.0744545	0.336223	1	0.00436243	10	2.50333e-05
2	1	0	1	0	34.0976	0.0772062	0.0769189	0.345279	1	0.00454536	10	2.65585e-05
2	1	0	0	0	34.597	0.0797031	0.0794331	0.35506	1	0.00473364	10	2.82035e-05
2	1	0	1	0	35.0964	0.0822001	0.0819463	0.362799	1	0.00492667	10	2.97301e-05
2	1	0	0	0	35.5958	0.0846971	0.0844128	0.376832	1	0.00512463	10	3.18094e-05
2	1	0	1	0	36.0952	0.0871941	0.0869408	0.386545	1	0.00532841	10	3.36065e-05
2	1	0	0	0	36.5946	0.0896911	0.0893851	0.39884	1	0.00553753	10	3.56503e-05
2	1	0	1	0	37.094	0.0921881	0.0919099	0.411996	1	0.00575292	10	3.78665e-05
2	1	0	0	0	37.5934	0.094685	0.0943817	0.422061	1	0.00597446	10	3.98348e-05
2	1	0	1	0	38.0928	0.097182	0.0969055	0.434818	1	0.00620161	10	4.21363e-05
2	1	0	0	0	38.5922	0.099679	0.0994091	0.449454	1	0.00643604	10	4.46798e-05
2	1	0	1	0	39.0916	0.102176	0.10188	0.463895	1	0.00667692	10	4.72615e-05
2	1	0	0	0	39.591	0.104673	0.104428	0.485551	1	0.00692626	10	5.07051e-05
2	1	0	1	0	40.0904	0.10717	0.106861	0.500883	1	0.00718485	10	5.35246e-05
2	1	0	0	0	40.5898	0.109667	0.109384	0.522168	1	0.00745304	10	5.7117e-05
2	1	0	1	0	41.0892	0.112164	0.111864	0.549082	1	0.00773317	10	6.14222e-05
2	1	0	0	0	41.5886	0.114661	0.114355	0.574205	1	0.00802684	10	6.56635e-05
2	1	0	1	0	42.088	0.117158	0.11684	0.611146	1	0.00833705	10	7.14063e-05
2	1	0	0	0	42.5874	0.119655	0.119355	0.650716	1	0.00866686	10	7.76664e-05
2	1	0	1	0	43.0868	0.122152	0.121875	0.701023	1	0.00901738	10	8.5437e-05
2	1	0	0	0	43.5862	0.124649	0.124375	0.751116	1	0.00939306	10	9.34203e-05
2	1	0	1	0	44.0856	0.127146	0.126822	0.798475	1	0.00979449	10	0.000101264
2	1	0	0	0	44.585	0.129643	0.129358	0.860104	1	0.010223	10	0.000111261
2	1	0	1	0	45.0844	0.13214	0.131849	0.911636	1	0.0106799	10	0.000120198
2	1	0	0	0	45.5838	0.134637	0.134391	0.956242	1	0.0111603	10	0.00012851
2	1	0	1	0	46.0832	0.137134	0.136863	0.993706	1	0.0116622	10	0.000136001
2	1	0	0	0	46.5826	0.139631	0.139342	1.01784	1	0.0121802	10	0.000141827
2	1	0	1	0	47.0819	0.142127	0.141839	1.03909	1	0.0127076	10	0.000147383
2	1	0	1	0	47.5813	0.144624	0.14432	1.04139	1	0.0132416	10	0.000150294
2	1	0	1	0	48.0807	0.147121	0.146836	1.03283	1	0.0137716	10	0.000151658
2	1	0	1	0	48.5801	0.149618	0.149364	1.00903	1	0.0142947	10	0.000150712
2	1	0	1	0	49.0795	0.152115	0.151803	0.970802	1	0.0148031	10	0.000147371
2	1	0	1	0	49.5789	0.154612	0.154331	0.920117	1	0.0152886	10	0.000142003
2	1	0	1	0	50.0783	0.157109	0.156866	0.86146	1	0.0157484	10	0.000135134
2	1	0	1	0	50.5777	0.159606	0.159355	0.794117	1	0.0161752	10	0.000126546
2	1	0	1	0	51.0771	0.162103	0.161805	0.731892	1	0.0165698	10	0.000118424
2	1	0	1	0	51.5765	0.1646	0.164307	0.671225	1	0.0169327	10	0.000110287
2	1	0	1	0	52.0759	0.167097	0.166826	0.613618	1	0.017265	10	0.000102368
2	1	0	1	0	52.5753	0.169594	0.169287	0.567375	1	0.0175728	10	9.6049e-05
2	1	0	1	0	53.0747	0.172091	0.171806	0.523411	1	0.0178576	10	8.99252e-05
2	1	0	1	0	53.5741	0.174588	0.1743	0.49252	1	0.0181247	10	8.58463e-05
2	1	0	1	0	54.0735	0.177085	0.176805	0.463337	1	0.0183767	10	8.19202e-05
2	1	0	1	0	54.5729	0.179582	0.179334	0.440486	1	0.0186151	10	7.89941e-05
2	1	0	1	0	55.0723	0.182079	0.181767	0.422299	1	0.0188431	10	7.67599e-05
2	1	0	1	0	55.5717	0.184576	0.184267	0.400914	1	0.0190613	10	7.38754e-05
2	1	0	1	0	56.0711	0.187074	0.186807	0.387705	1	0.0192713	10	7.24259e-05
2	1	0	1	0	56.5705	0.189571	0.189308	0.37375	1	0.0194745	10	7.0754e-05
2	1	0	1	0	57.0699	0.192067	0.191802	0.362376	1	0.0196712	10	6.95047e-05
2	1	0	1	0	57.5693	0.194564	0.19429	0.351688	1	0.0198629	10	6.83295e-05
2	1	0	1	0	58.0687	0.197062	0.19675	0.342343	1	0.0200497	10	6.73561e-05
2	1	0	1	0	58.5681	0.199559	0.199248	0.334224	1	0.0202319	10	6.65933e-05
2	1	0	1	0	59.0675	0.202056	0.201764	0.329376	1	0.0204107	10	6.64562e-05
2	1	0	1	0	59.5669	0.204553	0.204271	0.322468	1	0.020586	10	6.58708e-05
2	1	0	1	0	60.0663	0.207049	0.206756	0.321164	1	0.0207588	10	6.64026e-05
2	1	0	1	0	60.5657	0.209547	0.209288	0.310574	1	0.0209292	10	6.49994e-05
2	1	0	1	0	61.0651	0.212044	0.211767	0.3066	1	0.0210966	10	6.49278e-05
2	1	0	1	0	61.5645	0.214541	0.214311	0.303376	1	0.0212622	10	6.50168e-05
2	1	0	1	0	62.0639	0.217038	0.216753	0.300236	1	0.0214257	10	6.5077e-05
2	1	0	1	0	62.5633	0.219535	0.219319	0.297158	1	0.0215878	10	6.51725e-05
2	1	0	1	0	63.0627	0.222032	0.221752	0.293276	1	0.0217483	10	6.50345e-05
2	1	0	1	0	63.5621	0.224529	0.224276	0.291646	1	0.0219072	10	6.5409e-05
2	1	0	0	0	64.0614	0.227025	0.22677	0.289871	1	0.022065	10	6.57342e-05
2	1	0	1	0	64.5608	0.229522	0.22926	0.286587	1	0.0222218	10	6.57029e-05
2	1	0	0	0	65.0602	0.232019	0.231751	0.283394	1	0.0223775	10	6.56767e-05
2	1	0	1	0	65.5596	0.234516	0.234238	0.283121	1	0.0225322	10	6.63175e-05
2	1	0	0	0	66.059	0.237013	0.236708	0.281437	1	0.0226858	10	6.66186e-05
2	1	0	1	0	66.5584	0.23951	0.23924	0.279975	1	0.0228389	10	6.69812e-05
2	1	0	0	0	67.0578	0.242007	0.241746	0.276133	1	0.022991	10	6.67541e-05
2	1	0	1	0	67.5572	0.244504	0.244213	0.275662	1	0.0231424	10	6.73201e-05
2	1	0	0	0	68.0566	0.247001	0.246741	0.274864	1	0.0232935	10	6.78201e-05
2	1	0	1	0	68.556	0.249498	0.249266	0.272449	1	0.0234436	10	6.79122e-05
2	1	0	0	0	69.0554	0.251995	0.251713	0.273265	1	0.0235934	10	6.87843e-05
2	1	0	1	0	69.5548	0.254492	0.254198	0.270781	1	0.0237425	10	6.88319e-05
2	1	0	0	0	70.0542	0.256989	0.256702	0.271274	1	0.0238909	10	6.96367e-05
2	1	0	1	0	70.5536	0.259486	0.259272	0.269789	1	0.0240392	10	6.99485e-05
2	1	0	0	0	71.053	0.261983	0.26173	0.268739	1	0.0241867	10	7.03369e-05
2	1	0	1	0	71.5524	0.26448	0.264208	0.268218	1	0.0243338	10	7.08652e-05
2	1	0	0	0	72.0518	0.266977	0.266713	0.267364	1	0.0244806	10	7.13093e-05
2	1	0	1	0	72.5512	0.269474	0.269197	0.265469	1	0.0246267	10	7.14635e-05
2	1	0	0	0	73.0506	0.271971	0.271696	0.264095	1	0.0247727	10	7.17537e-05
2	1	0	1	0	73.55	0.274468	0.274172	0.263221	1	0.0249181	10	7.21676e-05
2	1	0	0	0	74.0494	0.276965	0.276726	0.265011	1	0.0250633	10	7.33354e-05
2	1	0	1	0	74.5488	0.279462	0.279176	0.263553	1	0.0252083	10	7.35777e-05
2	1	0	0	0	75.0482	0.281959	0.281673	0.264201	1	0.0253528	10	7.44183e-05
2	1	0	1	0	75.5476	0.284456	0.284179	0.263654	1	0.0254974	10	7.49247e-05
2	1	0	0	0	76.047	0.286953	0.286675	0.261242	1	0.0256416	10	7.48915e-05
2	1	0	1	0	76.5464	0.28945	0.289147	0.26011	1	0.0257854	10	7.52098e-05
2	1	0	0	0	77.0458	0.291947	0.291703	0.26051	1	0.0259289	10	7.59916e-05
2	1	0	1	0	77.5452	0.294444	0.294155	0.260491	1	0.026072	10	7.66247e-05
2	1	0	0	0	78.0446	0.296941	0.296688	0.260145	1	0.0262153	10	7.7182e-05
2	1	0	1	0	78.5439	0.299437	0.299151	0.257772	1	0.026358	10	7.71129e-05
2	1	0	1	0	79.0433	0.301934	0.301649	0.258972	1	0.0265005	10	7.81187e-05
2	1	0	1	0	79.5427	0.304431	0.304161	0.2588	1	0.026643	10	7.87168e-05
2	1	0	1	0	80.0421	0.306928	0.306666	0.25751	1	0.0267851	10	7.89697e-05
2	1	0	1	0	80.5415	0.309425	0.309159	0.257228	1	0.0269271	10	7.95243e-05
2	1	0	1	0	81.0409	0.311922	0.311636	0.255947	1	0.0270688	10	7.97624e-05
2	1	0	1	0	81.5403	0.314419	0.314177	0.25456	1	0.0272098	10	7.99768e-05
2	1	0	1	0	82.0397	0.316916	0.316655	0.255748	1	0.0273509	10	8.09841e-05
2	1	0	1	0	82.5391	0.319413	0.319116	0.255819	1	0.0274916	10	8.16362e-05
2	1	0	1	0	83.0385	0.32191	0.321664	0.256031	1	0.0276323	10	8.23558e-05
2	1	0	1	0	83.5379	0.324407	0.324132	0.256042	1	0.0277729	10	8.29915e-05
2	1	0	1	0	84.0373	0.326904	0.326616	0.25408	1	0.0279129	10	8.29865e-05
2	1	0	1	0	84.5367	0.329401	0.329134	0.253575	1	0.028053	10	8.34603e-05
2	1	0	1	0	85.0361	0.331898	0.331637	0.253088	1	0.0281927	10	8.39333e-05
2	1	0	1	0	85.5355	0.334395	0.334154	0.25342	1	0.0283322	10	8.46815e-05
2	1	0	1	0	86.0349	0.336892	0.336574	0.25087	1	0.0284716	10	8.44365e-05
2	1	0	1	0	86.5343	0.339389	0.339121	0.251602	1	0.0286107	10	8.53237e-05
2	1	0	1	0	87.0337	0.341886	0.341631	0.251802	1	0.0287498	10	8.60235e-05
2	1	0	1	0	87.5331	0.344383	0.344122	0.250188	1	0.0288885	10	8.60954e-05
2	1	0	1	0	88.0325	0.34688	0.346615	0.250356	1	0.0290269	10	8.67773e-05
2	1	0	1	0	88.5319	0.349377	0.34912	0.249437	1	0.0291653	10	8.70836e-05
2	1	0	1	0	89.0313	0.351874	0.351597	0.249113	1	0.0293032	10	8.75873e-05
2	1	0	1	0	89.5307	0.354372	0.354113	0.249667	1	0.0294409	10	8.84104e-05
2	1	0	1	0	90.0301	0.356868	0.356633	0.248822	1	0.0295786	10	8.87381e-05
2	1	0	1	0	90.5295	0.359365	0.359106	0.249345	1	0.029716	10	8.95413e-05
2	1	0	1	0	91.0289	0.361862	0.361605	0.247921	1	0.0298534	10	8.96494e-05
2	1	0	1	0	91.5283	0.36436	0.364099	0.248724	1	0.0299903	10	9.056e-05
2	1	0	1	0	92.0277	0.366857	0.36657	0.247539	1	0.0301271	10	9.07405e-05
2	1	0	1	0	92.5271	0.369354	0.369097	0.246638	1	0.0302637	10	9.10333e-05
2	1	0	1	0	93.0265	0.37185	0.371609	0.246178	1	0.0303999	10	9.14822e-05
2	1	0	1	0	93.5259	0.374348	0.374062	0.245753	1	0.0305364	10	9.1927e-05
2	1	0	1	0	94.0253	0.376845	0.376593	0.244841	1	0.0306722	10	9.22055e-05
2	1	0	1	0	94.5247	0.379342	0.37906	0.245992	1	0.0308082	10	9.32458e-05
2	1	0	1	0	95.0241	0.381839	0.381547	0.245974	1	0.030944	10	9.38506e-05
2	1	0	0	0	95.5234	0.384335	0.384073	0.244684	1	0.0310793	10	9.39765e-05
2	1	0	1	0	96.0228	0.386832	0.386578	0.244226	1	0.0312148	10	9.44124e-05
2	1	0	0	0	96.5222	0.389329	0.389086	0.242953	1	0.0313497	10	9.45296e-05
2	1	0	1	0	97.0216	0.391826	0.391582	0.24369	1	0.0314845	10	9.54245e-05
2	1	0	0	0	97.521	0.394323	0.394045	0.244321	1	0.0316193	10	9.62734e-05
2	1	0	1	0	98.0204	0.39682	0.396562	0.24152	1	0.0317537	10	9.5778e-05
2	1	0	0	0	98.5198	0.399317	0.399058	0.242907	1	0.0318884	10	9.69341e-05
2	1	0	1	0	99.0192	0.401814	0.401524	0.24154	1	0.0320226	10	9.6984e-05
2	1	0	0	0	99.5186	0.404311	0.404041	0.242367	1	0.0321567	10	9.79261e-05
2	1	0	1	0	100.018	0.406808	0.406546	0.243582	1	0.0322909	10	9.90272e-05
2	1	0	0	0	100.517	0.409305	0.409016	0.242263	1	0.0324247	10	9.90893e-05
2	1	0	1	0	101.017	0.411802	0.411495	0.242641	1	0.0325587	10	9.98456e-05
2	1	0	0	0	101.516	0.414299	0.41407	0.240918	1	0.0326925	10	9.9757e-05
2	1	0	1	0	102.016	0.416796	0.416513	0.240123	1	0.032826	10	0.000100014
2	1	0	0	0	102.515	0.419293	0.419046	0.241145	1	0.0329595	10	0.000101051
2	1	0	1	0	103.014	0.42179	0.421509	0.24233	1	0.0330928	10	0.000102144
2	1	0	0	0	103.514	0.424287	0.424092	0.242361	1	0.0332263	10	0.000102783
2	1	0	1	0	104.013	0.426784	0.426533	0.23996	1	0.0333599	10	0.000102351
2	1	0	0	0	104.513	0.429281	0.429004	0.239587	1	0.0334931	10	0.000102784
2	1	0	1	0	105.012	0.431778	0.43151	0.240515	1	0.0336265	10	0.000103785
2	1	0	0	0	105.511	0.434275	0.434012	0.241734	1	0.0337598	10	0.000104915
2	1	0	1	0	106.011	0.436772	0.436493	0.239573	1	0.0338932	10	0.000104572
2	1	0	0	0	106.51	0.439269	0.439003	0.241306	1	0.0340265	10	0.000105934
2	1	0	1	0	107.01	0.441766	0.441532	0.239792	1	0.0341598	10	0.000105876
2	1	0	0	0	107.509	0.444263	0.444029	0.241088	1	0.0342931	10	0.00010705
2	1	0	1	0	108.008	0.44676	0.446475	0.239852	1	0.0344264	10	0.000107088
2	1	0	0	0	108.508	0.449257	0.448983	0.240692	1	0.0345598	10	0.000108066
2	1	0	1	0	109.007	0.451754	0.4515	0.241127	1	0.0346933	10	0.000108869
2	1	0	0	0	109.507	0.454251	0.454023	0.242849	1	0.0348266	10	0.000110259
2	1	0	1	0	110.006	0.456747	0.45647	0.24096	1	0.0349602	10	0.000109991
2	1	0	1	0	110.505	0.459244	0.458975	0.240495	1	0.0350939	10	0.000110381
2	1	0	1	0	111.005	0.461741	0.461477	0.242537	1	0.0352275	10	0.000111925
2	1	0	1	0	111.504	0.464238	0.46397	0.240811	1	0.0353614	10	0.000111729
2	1	0	1	0	112.003	0.466735	0.46648	0.242592	1	0.0354951	10	0.000113164
2	1	0	1	0	112.503	0.469232	0.468956	0.243495	1	0.0356293	10	0.000114188
2	1	0	1	0	113.002	0.471729	0.471439	0.243517	1	0.0357636	10	0.000114803
2	1	0	1	0	113.502	0.474226	0.473946	0.242447	1	0.0358978	10	0.000114907
2	1	0	1	0	114.001	0.476723	0.476463	0.242736	1	0.0360324	10	0.000115655
2	1	0	1	0	114.5	0.47922	0.478937	0.244107	1	0.036167	10	0.000116912
2	1	0	1	0	115	0.481717	0.481437	0.246028	1	0.036302	10	0.000118447
2	1	0	1	0	115.499	0.484214	0.483961	0.245673	1	0.0364372	10	0.000118896
2	1	0	1	0	115.999	0.486711	0.486459	0.246183	1	0.0365725	10	0.000119758
2	1	0	1	0	116.498	0.489208	0.488925	0.246477	1	0.0367083	10	0.000120509
2	1	0	1	0	116.997	0.491705	0.491425	0.246883	1	0.0368443	10	0.000121325
2	1	0	1	0	117.497	0.494202	0.493928	0.248164	1	0.0369808	10	0.000122575
2	1	0	1	0	117.996	0.496699	0.496447	0.249483	1	0.0371177	10	0.000123855
2	1	0	1	0	118.496	0.499196	0.498929	0.248956	1	0.0372548	10	0.000124211
2	1	0	1	0	118.995	0.501693	0.501397	0.251349	1	0.0373928	10	0.000126025
2	1	0	1	0	119.494	0.50419	0.503921	0.250318	1	0.037531	10	0.000126141
2	1	0	1	0	119.994	0.506687	0.506385	0.252595	1	0.0376698	10	0.00012791
2	1	0	1	0	120.493	0.509184	0.508904	0.253705	1	0.0378092	10	0.000129111
2	1	0	1	0	120.993	0.511681	0.511409	0.25562	1	0.0379493	10	0.000130726
2	1	0	1	0	121.492	0.514178	0.513893	0.256301	1	0.0380903	10	0.000131711
2	1	0	1	0	121.991	0.516675	0.516397	0.2569	1	0.0382319	10	0.000132662
2	1	0	1	0	122.491	0.519172	0.518871	0.261404	1	0.0383742	10	0.000135635
2	1	0	1	0	122.99	0.521669	0.521378	0.262129	1	0.0385173	10	0.000136668
2	1	0	1	0	123.49	0.524166	0.523923	0.26401	1	0.0386612	10	0.000138321
2	1	0	1	0	123.989	0.526663	0.526368	0.266046	1	0.0388063	10	0.000140038
2	1	0	1	0	124.488	0.529161	0.528923	0.267412	1	0.0389524	10	0.00014144
2	1	0	1	0	124.988	0.531657	0.531383	0.27079	1	0.0390995	10	0.000143893
2	1	0	1	0	125.487	0.534154	0.533924	0.272654	1	0.039248	10	0.000145576
2	1	0	1	0	125.987	0.536652	0.536391	0.275895	1	0.0393977	10	0.000147988
2	1	0	1	0	126.486	0.539148	0.53887	0.278491	1	0.0395489	10	0.00015007
2	1	0	1	0	126.985	0.541645	0.541373	0.283521	1	0.0397016	10	0.00015349
2	1	0	1	0	127.485	0.544142	0.543881	0.286339	1	0.0398558	10	0.000155734
2	1	0	0	0	127.984	0.546639	0.546369	0.28928	1	0.0400121	10	0.000158053
2	1	0	1	0	128.484	0.549136	0.548879	0.292562	1	0.0401702	10	0.000160581
2	1	0	0	0	128.983	0.551633	0.551389	0.298108	1	0.0403306	10	0.000164374
2	1	0	1	0	129.482	0.55413	0.553864	0.3027	1	0.0404936	10	0.000167655
2	1	0	0	0	129.982	0.556627	0.556367	0.309183	1	0.0406589	10	0.000172019
2	1	0	1	0	130.481	0.559124	0.558815	0.314814	1	0.0408272	10	0.000175923
2	1	0	0	0	130.981	0.561621	0.561358	0.32064	1	0.0409985	10	0.000179994
2	1	0	1	0	131.48	0.564118	0.56383	0.328848	1	0.041173	10	0.000185415
2	1	0	0	0	131.979	0.566615	0.566389	0.335929	1	0.0413514	10	0.000190266
2	1	0	1	0	132.479	0.569112	0.568836	0.34342	1	0.0415337	10	0.000195349
2	1	0	0	0	132.978	0.571609	0.57137	0.353246	1	0.0417204	10	0.000201834
2	1	0	1	0	133.478	0.574106	0.57389	0.362627	1	0.0419122	10	0.000208108
2	1	0	0	0	133.977	0.576603	0.576381	0.373736	1	0.0421092	10	0.000215414
2	1	0	1	0	134.476	0.5791	0.578852	0.385797	1	0.0423123	10	0.000223319
2	1	0	0	0	134.976	0.581597	0.581316	0.400085	1	0.0425216	10	0.000232576
2	1	0	1	0	135.475	0.584094	0.583796	0.414579	1	0.042738	10	0.000242029
2	1	0	0	0	135.975	0.586591	0.586347	0.430949	1	0.0429624	10	0.000252686
2	1	0	1	0	136.474	0.589088	0.58881	0.448751	1	0.0431952	10	0.000264229
2	1	0	0	0	136.973	0.591585	0.591307	0.468702	1	0.0434379	10	0.000277147
2	1	0	1	0	137.473	0.594082	0.593779	0.491989	1	0.0436906	10	0.000292133
2	1	0	0	0	137.972	0.596579	0.59631	0.516572	1	0.0439549	10	0.000308037
2	1	0	1	0	138.472	0.599076	0.598785	0.541847	1	0.0442317	10	0.00032445
2	1	0	0	0	138.971	0.601573	0.601314	0.571368	1	0.0445223	10	0.000343572
2	1	0	1	0	139.47	0.60407	0.603823	0.603855	1	0.0448284	10	0.000364622
2	1	0	0	0	139.97	0.606567	0.606287	0.637996	1	0.0451515	10	0.000386809
2	1	0	1	0	140.469	0.609064	0.608846	0.679512	1	0.0454937	10	0.000413719
2	1	0	1	0	140.968	0.61156	0.611295	0.723072	1	0.0458568	10	0.00044201
2	1	0	1	0	141.468	0.614057	0.613771	0.772207	1	0.0462431	10	0.000473958
2	1	0	1	0	141.967	0.616554	0.616344	0.827972	1	0.0466556	10	0.000510316
2	1	0	1	0	142.467	0.619051	0.618769	0.885838	1	0.0470964	10	0.000548129
2	1	0	1	0	142.966	0.621548	0.621303	0.954265	1	0.0475684	10	0.000592887
2	1	0	1	0	143.465	0.624045	0.623823	1.02812	1	0.0480757	10	0.000641366
2	1	0	1	0	143.965	0.626542	0.626291	1.10749	1	0.048621	10	0.000693608
2	1	0	1	0	144.464	0.629039	0.628806	1.19766	1	0.0492094	10	0.000753094
2	1	0	1	0	144.964	0.631536	0.631262	1.29762	1	0.0498453	10	0.000819139
2	1	0	1	0	145.463	0.634033	0.633826	1.40864	1	0.0505334	10	0.000892834
2	1	0	1	0	145.962	0.63653	0.636266	1.53081	1	0.0512795	10	0.000974
2	1	0	1	0	146.462	0.639027	0.638802	1.66407	1	0.0520892	10	0.00106301
2	1	0	1	0	146.961	0.641524	0.641276	1.81464	1	0.0529702	10	0.00116368
2	1	0	1	0	147.461	0.644021	0.64377	1.97975	1	0.05393	10	0.0012745
2	1	0	1	0	147.96	0.646518	0.646256	2.1601	1	0.0549756	10	0.00139598
2	1	0	1	0	148.459	0.649015	0.648774	2.35975	1	0.0561167	10	0.00153094
2	1	0	1	0	148.959	0.651512	0.651256	2.57913	1	0.0573624	10	0.00167967
2	1	0	1	0	149.458	0.654009	0.65372	2.82092	1	0.0587233	10	0.00184409
2	1	0	1	0	149.958	0.656506	0.656259	3.08421	1	0.0602106	10	0.00202404
2	1	0	1	0	150.457	0.659003	0.658766	3.37362	1	0.0618356	10	0.00222243
2	1	0	1	0	150.956	0.6615	0.661283	3.68986	1	0.0636119	10	0.00244004
2	1	0	1	0	151.456	0.663997	0.663772	4.03282	1	0.065553	10	0.00267687
2	1	0	1	0	151.955	0.666494	0.666259	4.40692	1	0.0676726	10	0.00293615
2	1	0	1	0	152.455	0.668991	0.668716	4.81079	1	0.0699866	10	0.00321705
2	1	0	1	0	152.954	0.671488	0.671247	5.24453	1	0.0725099	10	0.00352038
2	1	0	1	0	153.453	0.673985	0.673732	5.71128	1	0.0752585	10	0.00384787
2	1	0	1	0	153.953	0.676482	0.676203	6.21282	1	0.0782489	10	0.00420113
2	1	0	1	0	154.452	0.678979	0.678748	6.74585	1	0.0814967	10	0.00457874
2	1	0	1	0	154.952	0.681476	0.681189	7.31213	1	0.0850198	10	0.00498094
2	1	0	1	0	155.451	0.683973	0.683719	7.9095	1	0.0888336	10	0.00540787
2	1	0	1	0	155.95	0.68647	0.686182	8.53746	1	0.0929534	10	0.00585826
2	1	0	1	0	156.45	0.688968	0.688741	9.19557	1	0.097395	10	0.00633337
2	1	0	1	0	156.949	0.691464	0.691213	9.88185	1	0.102172	10	0.00683046
2	1	0	0	0	157.449	0.693961	0.693706	10.5939	1	0.107298	10	0.00734905
2	1	0	1	0	157.948	0.696458	0.696248	11.3223	1	0.112785	10	0.00788309
2	1	0	0	0	158.447	0.698955	0.698784	12.079	1	0.118641	10	0.0084406
2	1	0	1	0	158.947	0.701452	0.701189	12.8519	1	0.124881	10	0.00901161
2	1	0	0	0	159.446	0.703949	0.70373	13.6366	1	0.131509	10	0.00959649
2	1	0	1	0	159.946	0.706446	0.706206	14.4379	1	0.138533	10	0.0101961
2	1	0	0	0	160.445	0.708943	0.708684	15.246	1	0.14596	10	0.0108046
2	1	0	1	0	160.944	0.71144	0.711192	16.0685	1	0.153794	10	0.0114278
2	1	0	0	0	161.444	0.713937	0.713698	16.9095	1	0.162043	10	0.0120683
2	1	0	1	0	161.943	0.716434	0.716178	17.7642	1	0.170715	10	0.0127223
2	1	0	0	0	162.443	0.718931	0.718654	18.6361	1	0.179818	10	0.0133929
2	1	0	1	0	162.942	0.721428	0.72119	19.5217	1	0.189363	10	0.0140789
2	1	0	0	0	163.441	0.723925	0.7237	20.4288	1	0.199351	10	0.0147843
2	1	0	1	0	163.941	0.726422	0.726184	21.3981	1	0.209809	10	0.0155389
2	1	0	0	0	164.44	0.728919	0.728708	22.3584	1	0.22076	10	0.0162927
2	1	0	1	0	164.94	0.731416	0.731198	23.3812	1	0.232195	10	0.0170963
2	1	0	0	0	165.439	0.733913	0.733687	24.4193	1	0.244144	10	0.0179161
2	1	0	1	0	165.938	0.73641	0.736133	25.4588	1	0.256612	10	0.0187411
2	1	0	0	0	166.438	0.738907	0.738663	26.5397	1	0.269613	10	0.0196039
2	1	0	1	0	166.937	0.741404	0.741129	27.6246	1	0.283153	10	0.0204734
2	1	0	0	0	167.437	0.743901	0.743668	28.8046	1	0.297261	10	0.021421
2	1	0	1	0	167.936	0.746398	0.746198	29.9152	1	0.311933	10	0.0223226
2	1	0	0	0	168.435	0.748895	0.748661	31.0704	1	0.327176	10	0.0232612
2	1	0	1	0	168.935	0.751392	0.751172	32.2449	1	0.342998	10	0.0242215
2	1	0	0	0	169.434	0.753889	0.753613	33.3235	1	0.359393	10	0.025113
2	1	0	1	0	169.934	0.756386	0.756141	34.4701	1	0.376337	10	0.0260643
2	1	0	0	0	170.433	0.758883	0.75866	35.5912	1	0.39385	10	0.0270016
2	1	0	1	0	170.932	0.76138	0.761128	36.6941	1	0.411914	10	0.0279289
2	1	0	1	0	171.432	0.763876	0.763651	37.8635	1	0.430537	10	0.0289145
2	1	0	1	0	171.931	0.766374	0.766139	39.0433	1	0.449763	10	0.0299126
2	1	0	1	0	172.43	0.76887	0.768639	39.9215	1	0.469537	10	0.0306852
2	1	0	1	0	172.93	0.771367	0.771118	41.2593	1	0.489833	10	0.0318158
2	1	0	1	0	173.429	0.773864	0.773679	42.3814	1	0.510745	10	0.0327896
2	1	0	1	0	173.929	0.776361	0.776136	43.4138	1	0.532183	10	0.033695
2	1	0	1	0	174.428	0.778858	0.778626	44.528	1	0.55416	10	0.0346706
2	1	0	1	0	174.927	0.781355	0.781106	45.6859	1	0.576694	10	0.0356855
2	1	0	1	0	175.427	0.783852	0.783655	46.7748	1	0.599796	10	0.0366553
2	1	0	1	0	175.926	0.786349	0.786081	47.7451	1	0.623408	10	0.0375315
2	1	0	1	0	176.426	0.788846	0.788627	48.744	1	0.647516	10	0.0384408
2	1	0	1	0	176.925	0.791343	0.791115	49.8688	1	0.672145	10	0.0394519
2	1	0	1	0	177.424	0.79384	0.793623	50.1917	1	0.697128	10	0.0398333
2	1	0	1	0	177.924	0.796337	0.796081	51.3027	1	0.722513	10	0.0408411
2	1	0	1	0	178.423	0.798834	0.798604	52.246	1	0.748399	10	0.0417238
2	1	0	1	0	178.923	0.801331	0.801059	53.0256	1	0.774686	10	0.0424766
2	1	0	1	0	179.422	0.803828	0.803586	53.9956	1	0.801401	10	0.0433901
2	1	0	1	0	179.921	0.806325	0.806053	54.5914	1	0.828508	10	0.0440036
2	1	0	1	0	180.421	0.808822	0.808587	55.4641	1	0.855993	10	0.0448476
2	1	0	1	0	180.92	0.811319	0.811071	56.2564	1	0.88395	10	0.0456279
2	1	0	1	0	181.42	0.813816	0.813596	56.9736	1	0.912242	10	0.0463535
2	1	0	1	0	181.919	0.816313	0.816062	57.6405	1	0.940869	10	0.0470382
2	1	0	1	0	182.418	0.81881	0.818539	58.5977	1	0.969906	10	0.0479645
2	1	0	1	0	182.918	0.821307	0.821088	59.619	1	0.999498	10	0.0489524
2	1	0	1	0	183.417	0.823804	0.823584	60.1563	1	1.02942	10	0.0495438
2	1	0	1	0	183.917	0.826301	0.826076	61.2804	1	1.05974	10	0.0506223
2	1	0	1	0	184.416	0.828798	0.828533	61.993	1	1.09057	10	0.0513632
2	1	0	1	0	184.915	0.831295	0.831071	62.6404	1	1.12166	10	0.0520586
2	1	0	1	0	185.415	0.833792	0.83359	62.8749	1	1.153	10	0.0524119
2	1	0	1	0	185.914	0.836289	0.836065	63.4872	1	1.18461	10	0.0530794
2	1	0	1	0	186.414	0.838786	0.838553	63.77	1	1.21642	10	0.0534745
2	1	0	1	0	186.913	0.841283	0.841081	64.6432	1	1.24853	10	0.0543702
2	1	0	1	0	187.412	0.84378	0.843554	65.376	1	1.28093	10	0.0551481
2	1	0	1	0	187.912	0.846277	0.84605	65.6062	1	1.31374	10	0.0555061
2	1	0	1	0	188.411	0.848774	0.848577	65.991	1	1.3466	10	0.0559985
2	1	0	1	0	188.811	0.849223	0.849034	65.4241	1	1.37299	10	0.0555473
2	1	0	0	0	189.311	0.846726	0.846524	64.6305	1	1.40542	10	0.0547112
2	1	0	1	0	189.81	0.844229	0.844022	63.9812	1	1.43755	10	0.0540015
2	1	0	0	0	190.309	0.841732	0.841514	63.1357	1	1.46927	10	0.0531296
2	1	0	1	0	190.809	0.839235	0.839	62.3936	1	1.50063	10	0.0523482
2	1	0	0	0	191.308	0.836739	0.836531	61.77	1	1.53163	10	0.0516726
2	1	0	1	0	191.808	0.834242	0.834024	60.9212	1	1.56224	10	0.0508097
2	1	0	0	0	192.307	0.831744	0.831536	60.024	1	1.59241	10	0.0499121
2	1	0	1	0	192.806	0.829247	0.829038	59.4757	1	1.62222	10	0.0493076
2	1	0	0	0	193.306	0.82675	0.826544	58.4163	1	1.65164	10	0.0482836
2	1	0	1	0	193.805	0.824254	0.824017	58.1708	1	1.68072	10	0.0479337
2	1	0	0	0	194.305	0.821757	0.821526	57.5187	1	1.70957	10	0.0472531
2	1	0	1	0	194.804	0.81926	0.819001	56.7412	1	1.7381	10	0.0464711
2	1	0	0	0	195.303	0.816763	0.816494	56.175	1	1.7663	10	0.0458665
2	1	0	1	0	195.803	0.814266	0.814051	55.1311	1	1.79405	10	0.0448795
2	1	0	0	0	196.302	0.811769	0.811536	54.3272	1	1.82134	10	0.0440885
2	1	0	1	0	196.802	0.809272	0.809014	53.2091	1	1.84819	10	0.0430469
2	1	0	0	0	197.301	0.806775	0.806536	52.2978	1	1.87453	10	0.04218
2	1	0	1	0	197.8	0.804278	0.804073	51.311	1	1.90043	10	0.0412578
2	1	0	0	0	198.3	0.801781	0.801543	50.2467	1	1.92575	10	0.0402749
2	1	0	1	0	198.799	0.799284	0.799039	49.2411	1	1.95055	10	0.0393456
2	1	0	0	0	199.299	0.796787	0.796574	48.3843	1	1.97493	10	0.0385417
2	1	0	1	0	199.798	0.79429	0.794022	47.3457	1	1.99882	10	0.0375935
2	1	0	0	0	200.297	0.791793	0.791563	46.2169	1	2.02216	10	0.0365836
2	1	0	1	0	200.797	0.789296	0.789049	45.1034	1	2.04496	10	0.0355888
2	1	0	0	0	201.296	0.786799	0.786563	43.972	1	2.06719	10	0.0345867
2	1	0	1	0	201.796	0.784302	0.784026	42.7011	1	2.08881	10	0.0334788
2	1	0	0	0	202.295	0.781805	0.78156	41.5795	1	2.10984	10	0.0324969
2	1	0	1	0	202.794	0.779308	0.779014	40.3084	1	2.13026	10	0.0314008
2	1	0	0	0	203.294	0.776811	0.776539	39.1066	1	2.15008	10	0.0303678
2	1	0	1	0	203.793	0.774314	0.774092	37.8007	1	2.16927	10	0.0292612
2	1	0	1	0	204.292	0.771817	0.771616	36.6124	1	2.18783	10	0.0282508
2	1	0	1	0	204.792	0.76932	0.769105	35.479	1	2.20581	10	0.027287
2	1	0	1	0	205.291	0.766823	0.766602	32.0428	1	2.22218	10	0.0245641
2	1	0	1	0	205.791	0.764326	0.764085	31.0991	1	2.23795	10	0.0237624
2	1	0	1	0	206.29	0.761829	0.761573	29.9798	1	2.25319	10	0.0228318
2	1	0	1	0	206.789	0.759332	0.759058	28.9084	1	2.26787	10	0.0219432
2	1	0	1	0	207.289	0.756835	0.756609	27.9175	1	2.28207	10	0.0211227
2	1	0	1	0	207.788	0.754338	0.754088	26.7483	1	2.2957	10	0.0201706
2	1	0	1	0	208.288	0.751841	0.751605	25.6529	1	2.30877	10	0.0192808
2	1	0	1	0	208.787	0.749344	0.749097	24.6144	1	2.3213	10	0.0184386
2	1	0	1	0	209.286	0.746847	0.746596	23.5389	1	2.33331	10	0.0175741
2	1	0	1	0	209.786	0.74435	0.744079	22.4704	1	2.34478	10	0.0167197
2	1	0	1	0	210.285	0.741853	0.741553	21.429	1	2.35573	10	0.0158907
2	1	0	1	0	210.785	0.739356	0.739099	20.4063	1	2.36616	10	0.0150823
2	1	0	1	0	211.284	0.736859	0.736605	19.3697	1	2.37608	10	0.0142678
2	1	0	1	0	211.783	0.734362	0.734083	18.3851	1	2.38549	10	0.0134962
2	1	0	1	0	212.283	0.731865	0.73166	17.4281	1	2.39442	10	0.0127514
2	1	0	1	0	212.782	0.729368	0.729135	16.4756	1	2.40287	10	0.0120129
2	1	0	1	0	213.282	0.726871	0.726634	15.5695	1	2.41085	10	0.0113133
2	1	0	1	0	213.781	0.724374	0.724081	14.6428	1	2.41838	10	0.0106026
2	1	0	1	0	214.28	0.721877	0.721632	13.7669	1	2.42546	10	0.00993464
2	1	0	1	0	214.78	0.71938	0.719127	12.9527	1	2.43212	10	0.00931463
2	1	0	1	0	215.279	0.716883	0.716623	12.1473	1	2.43837	10	0.00870505
2	1	0	1	0	215.779	0.714386	0.714167	11.3689	1	2.44423	10	0.00811931
2	1	0	1	0	216.278	0.711889	0.711634	10.6108	1	2.4497	10	0.007551
2	1	0	1	0	216.777	0.709392	0.709147	9.88367	1	2.4548	10	0.00700897
2	1	0	1	0	217.277	0.706895	0.706692	9.19228	1	2.45955	10	0.00649611
2	1	0	1	0	217.776	0.704398	0.704131	8.52856	1	2.46396	10	0.00600522
2	1	0	1	0	218.276	0.701901	0.701628	7.91015	1	2.46805	10	0.00554998
2	1	0	1	0	218.775	0.699404	0.699168	7.31522	1	2.47184	10	0.00511457
2	1	0	1	0	219.274	0.696907	0.696636	6.75193	1	2.47534	10	0.00470363
2	1	0	1	0	219.774	0.69441	0.694205	6.2211	1	2.47857	10	0.00431872
2	1	0	1	0	220.273	0.691913	0.691672	5.71703	1	2.48153	10	0.00395431
2	1	0	0	0	220.773	0.689417	0.689168	5.24831	1	2.48426	10	0.00361697
2	1	0	1	0	221.272	0.686919	0.686702	4.80318	1	2.48675	10	0.00329835
2	1	0	0	0	221.771	0.684422	0.684174	4.38906	1	2.48903	10	0.00300288
2	1	0	1	0	222.271	0.681926	0.681705	4.00577	1	2.49112	10	0.00273076
2	1	0	0	0	222.77	0.679429	0.679178	3.64699	1	2.49301	10	0.00247696
2	1	0	1	0	223.27	0.676932	0.676688	3.31665	1	2.49474	10	0.00224434
2	1	0	0	0	223.769	0.674435	0.674193	3.01155	1	2.49631	10	0.00203036
2	1	0	1	0	224.268	0.671938	0.671674	2.72859	1	2.49772	10	0.00183273
2	1	0	0	0	224.768	0.669441	0.669219	2.47223	1	2.49901	10	0.00165446
2	1	0	1	0	225.267	0.666944	0.666645	2.23164	1	2.50017	10	0.00148771
2	1	0	0	0	225.767	0.664447	0.664189	2.01618	1	2.50122	10	0.00133912
2	1	0	1	0	226.266	0.66195	0.661662	1.81668	1	2.50216	10	0.00120203
2	1	0	0	0	226.765	0.659453	0.659222	1.63565	1	2.50301	10	0.00107826
2	1	0	1	0	227.265	0.656956	0.656708	1.47288	1	2.50378	10	0.00096725
2	1	0	0	0	227.764	0.654459	0.654231	1.32093	1	2.50446	10	0.000864196
2	1	0	1	0	228.264	0.651962	0.651723	1.18423	1	2.50507	10	0.000771792
2	1	0	0	0	228.763	0.649465	0.64924	1.06197	1	2.50562	10	0.000689475
2	1	0	1	0	229.262	0.646968	0.646729	0.95029	1	2.50611	10	0.00061458
2	1	0	0	0	229.762	0.644471	0.644181	0.850037	1	2.50655	10	0.000547578
2	1	0	1	0	230.261	0.641974	0.641742	0.757685	1	2.50694	10	0.000486239
2	1	0	0	0	230.761	0.639477	0.639226	0.675023	1	2.50728	10	0.000431492
2	1	0	1	0	231.26	0.63698	0.636734	0.599363	1	2.50759	10	0.000381635
2	1	0	0	0	231.759	0.634483	0.634253	0.533581	1	2.50786	10	0.000338425
2	1	0	1	0	232.259	0.631986	0.631768	0.473057	1	2.5081	10	0.000298862
2	1	0	0	0	232.758	0.629489	0.629217	0.417429	1	2.50831	10	0.000262653
2	1	0	1	0	233.258	0.626992	0.626716	0.365681	1	2.50849	10	0.000229178
2	1	0	0	0	233.757	0.624495	0.624249	0.32213	1	2.50865	10	0.000201089
2	1	0	1	0	234.256	0.621998	0.621703	0.282511	1	2.50879	10	0.000175638
2	1	0	1	0	234.756	0.619501	0.619255	0.247223	1	2.50891	10	0.000153094
2	1	0	1	0	235.255	0.617004	0.61672	0.216197	1	2.50901	10	0.000133333
2	1	0	1	0	235.754	0.614507	0.614231	0.185202	1	2.5091	10	0.000113757
2	1	0	1	0	236.254	0.61201	0.611759	0.159578	1	2.50918	10	9.76233e-05
2	1	0	1	0	236.753	0.609513	0.609236	0.134666	1	2.50924	10	8.2043e-05
2	1	0	1	0	237.253	0.607016	0.606751	0.113535	1	2.50929	10	6.88878e-05
2	1	0	1	0	237.752	0.604519	0.604271	0.0945785	1	2.50933	10	5.71511e-05
2	1	0	1	0	238.251	0.602022	0.601746	0.0769553	1	2.50936	10	4.63075e-05
2	1	0	1	0	238.751	0.599525	0.599224	0.0613363	1	2.50938	10	3.67542e-05
2	1	0	1	0	239.25	0.597028	0.596774	0.0464928	1	2.5094	10	2.77457e-05
2	1	0	1	0	239.75	0.594531	0.59423	0.0333786	1	2.5094	10	1.98345e-05
2	1	0	1	0	240.249	0.592034	0.591769	0.0219511	1	2.50941	10	1.299e-05
2	1	0	1	0	240.748	0.589537	0.589242	0.010457	1	2.5094	10	6.1617e-06
2	1	0	1	0	241.248	0.58704	0.586782	0.00309336	1	2.50939	10	1.81512e-06
2	1	0	1	0	241.747	0.584543	0.584261	-0.00673545	1	2.50938	10	-3.93526e-06
2	1	0	1	0	242.247	0.582046	0.581786	-0.0133225	1	2.50936	10	-7.75085e-06
2	0	0	1	0	242.746	0.579549	0.579289	-0.0210565	1	2.50934	10	-1.21978e-05
2	0	0	1	0	243.245	0.577052	0.576726	-0.0268539	1	2.50932	10	-1.54873e-05
2	0	0	1	0	243.745	0.574555	0.574275	-0.0313159	1	2.50929	10	-1.79839e-05
2	0	0	1	0	244.244	0.572058	0.571796	-0.0377723	1	2.50926	10	-2.15981e-05
2	0	0	1	0	244.744	0.569561	0.569263	-0.0442808	1	2.50923	10	-2.52075e-05
2	0	0	1	0	245.243	0.567064	0.566779	-0.0475685	1	2.5092	10	-2.69608e-05
2	0	0	1	0	245.742	0.564567	0.564298	-0.0508341	1	2.50916	10	-2.86856e-05
2	0	0	1	0	246.242	0.56207	0.56177	-0.0523999	1	2.50912	10	-2.94367e-05
2	0	0	1	0	246.741	0.559573	0.559322	-0.0561816	1	2.50908	10	-3.14236e-05
2	0	0	1	0	247.241	0.557076	0.556776	-0.0575622	1	2.50904	10	-3.20492e-05
2	0	0	1	0	247.74	0.554579	0.554283	-0.0627376	1	2.509	10	-3.47744e-05
2	0	0	1	0	248.239	0.552082	0.551829	-0.0663115	1	2.50896	10	-3.65926e-05
2	0	0	1	0	248.739	0.549585	0.54932	-0.0670859	1	2.50891	10	-3.68516e-05
2	0	0	1	0	249.238	0.547088	0.546856	-0.069538	1	2.50886	10	-3.80273e-05
2	0	0	1	0	249.738	0.544591	0.544319	-0.0722478	1	2.50882	10	-3.93259e-05
2	0	0	1	0	250.237	0.542094	0.541821	-0.074375	1	2.50877	10	-4.02979e-05
2	0	0	1	0	250.736	0.539597	0.539353	-0.0753324	1	2.50872	10	-4.06308e-05
2	0	0	1	0	251.236	0.5371	0.536807	-0.076586	1	2.50867	10	-4.11119e-05
2	0	0	1	0	251.735	0.534603	0.534335	-0.0775701	1	2.50862	10	-4.14484e-05
2	0	0	0	0	252.235	0.532106	0.531833	-0.0789553	1	2.50857	10	-4.19911e-05
2	0	0	1	0	252.734	0.529609	0.52932	-0.079509	1	2.50851	10	-4.20857e-05
2	0	0	0	0	253.233	0.527113	0.526861	-0.0816026	1	2.50846	10	-4.29932e-05
2	0	0	1	0	253.733	0.524616	0.524328	-0.0830457	1	2.50841	10	-4.35431e-05
2	0	0	0	0	254.232	0.522119	0.521851	-0.0827865	1	2.50835	10	-4.32022e-05
2	0	0	1	0	254.732	0.519622	0.519326	-0.0859137	1	2.5083	10	-4.46172e-05
2	0	0	0	0	255.231	0.517125	0.516852	-0.0864908	1	2.50824	10	-4.47029e-05
2	0	0	1	0	255.73	0.514628	0.514355	-0.0882149	1	2.50819	10	-4.53737e-05
2	0	0	0	0	256.23	0.512131	0.511893	-0.0894752	1	2.50813	10	-4.58018e-05
2	0	0	1	0	256.729	0.509634	0.509301	-0.0900729	1	2.50808	10	-4.58742e-05
2	0	0	0	0	257.229	0.507137	0.506846	-0.091289	1	2.50802	10	-4.62695e-05
2	0	0	1	0	257.728	0.50464	0.50438	-0.0915879	1	2.50796	10	-4.61952e-05
2	0	0	0	0	258.227	0.502143	0.501853	-0.0914201	1	2.5079	10	-4.58795e-05
2	0	0	1	0	258.727	0.499646	0.499334	-0.0933503	1	2.50784	10	-4.6613e-05
2	0	0	0	0	259.226	0.497149	0.49688	-0.0931574	1	2.50778	10	-4.62881e-05
2	0	0	1	0	259.726	0.494652	0.494423	-0.0958429	1	2.50773	10	-4.73869e-05
2	0	0	0	0	260.225	0.492155	0.49188	-0.0958649	1	2.50767	10	-4.71541e-05
2	0	0	1	0	260.724	0.489658	0.489366	-0.0964362	1	2.50761	10	-4.71926e-05
2	0	0	0	0	261.224	0.487161	0.48691	-0.0969103	1	2.50754	10	-4.71866e-05
2	0	0	1	0	261.723	0.484664	0.484398	-0.097988	1	2.50748	10	-4.74652e-05
2	0	0	0	0	262.223	0.482167	0.481907	-0.0997562	1	2.50742	10	-4.80732e-05
2	0	0	1	0	262.722	0.47967	0.479377	-0.100032	1	2.50736	10	-4.79528e-05
2	0	0	0	0	263.221	0.477173	0.47688	-0.101614	1	2.5073	10	-4.84578e-05
2	0	0	1	0	263.721	0.474676	0.474421	-0.102726	1	2.50723	10	-4.87353e-05
2	0	0	0	0	264.22	0.472179	0.471929	-0.102449	1	2.50717	10	-4.83487e-05
2	0	0	1	0	264.72	0.469682	0.469375	-0.105161	1	2.50711	10	-4.936e-05
2	0	0	1	0	265.219	0.467185	0.466884	-0.105538	1	2.50704	10	-4.9274e-05
2	0	0	1	0	265.718	0.464688	0.464393	-0.10648	1	2.50698	10	-4.94484e-05
2	0	0	1	0	266.218	0.462191	0.461937	-0.106406	1	2.50691	10	-4.9153e-05
2	0	0	1	0	266.717	0.459694	0.459446	-0.108357	1	2.50685	10	-4.97842e-05
2	0	0	1	0	267.216	0.457198	0.456916	-0.109457	1	2.50678	10	-5.00127e-05
2	0	0	1	0	267.716	0.4547	0.454415	-0.10965	1	2.50671	10	-4.98267e-05
2	0	0	1	0	268.215	0.452203	0.451915	-0.112329	1	2.50664	10	-5.07633e-05
2	0	0	1	0	268.715	0.449706	0.449442	-0.113785	1	2.50658	10	-5.11399e-05
2	0	0	1	0	269.214	0.447209	0.44693	-0.114241	1	2.50651	10	-5.10577e-05
2	0	0	1	0	269.713	0.444712	0.444457	-0.116026	1	2.50644	10	-5.15686e-05
2	0	0	1	0	270.213	0.442215	0.44197	-0.11679	1	2.50637	10	-5.16176e-05
2	0	0	1	0	270.712	0.439718	0.439456	-0.117895	1	2.5063	10	-5.18097e-05
2	0	0	1	0	271.212	0.437221	0.436965	-0.119157	1	2.50623	10	-5.20676e-05
2	0	0	1	0	271.711	0.434724	0.434453	-0.121553	1	2.50615	10	-5.28092e-05
2	0	0	1	0	272.21	0.432227	0.431946	-0.121738	1	2.50608	10	-5.25845e-05
2	0	0	1	0	272.71	0.42973	0.429467	-0.122942	1	2.50601	10	-5.27996e-05
2	0	0	1	0	273.209	0.427233	0.426959	-0.12376	1	2.50594	10	-5.28404e-05
2	0	0	1	0	273.709	0.424736	0.424461	-0.124456	1	2.50586	10	-5.28267e-05
2	0	0	1	0	274.208	0.422239	0.421955	-0.126411	1	2.50579	10	-5.33396e-05
2	0	0	1	0	274.707	0.419742	0.419495	-0.127892	1	2.50571	10	-5.365e-05
2	0	0	1	0	275.207	0.417245	0.416993	-0.128357	1	2.50564	10	-5.35238e-05
2	0	0	1	0	275.706	0.414748	0.41451	-0.129212	1	2.50556	10	-5.35596e-05
2	0	0	1	0	276.206	0.412251	0.411957	-0.131141	1	2.50548	10	-5.40244e-05
2	0	0	1	0	276.705	0.409754	0.40944	-0.132927	1	2.5054	10	-5.44256e-05
2	0	0	1	0	277.204	0.407257	0.407014	-0.13356	1	2.50532	10	-5.43607e-05
2	0	0	1	0	277.704	0.40476	0.404506	-0.136204	1	2.50524	10	-5.50955e-05
2	0	0	1	0	278.203	0.402263	0.401973	-0.137398	1	2.50516	10	-5.52302e-05
2	0	0	1	0	278.703	0.399766	0.399471	-0.138718	1	2.50508	10	-5.54138e-05
2	0	0	1	0	279.202	0.397269	0.397019	-0.140404	1	2.505	10	-5.57429e-05
2	0	0	1	0	279.701	0.394772	0.394473	-0.141468	1	2.50492	10	-5.58053e-05
2	0	0	1	0	280.201	0.392275	0.392042	-0.143635	1	2.50484	10	-5.63109e-05
2	0	0	1	0	280.7	0.389778	0.389525	-0.146683	1	2.50475	10	-5.71369e-05
2	0	0	1	0	281.2	0.387281	0.387015	-0.146773	1	2.50467	10	-5.68033e-05
2	0	0	1	0	281.699	0.384784	0.384466	-0.148847	1	2.50458	10	-5.72264e-05
2	0	0	1	0	282.198	0.382287	0.381963	-0.148964	1	2.5045	10	-5.68989e-05
2	0	0	0	0	282.698	0.379791	0.379494	-0.149972	1	2.50441	10	-5.69136e-05
2	0	0	1	0	283.197	0.377294	0.37703	-0.152127	1	2.50432	10	-5.73565e-05
2	0	0	0	0	283.697	0.374797	0.374509	-0.154782	1	2.50423	10	-5.79672e-05
2	0	0	1	0	284.196	0.3723	0.372015	-0.155948	1	2.50414	10	-5.80152e-05
2	0	0	0	0	284.695	0.369803	0.369517	-0.156292	1	2.50405	10	-5.77527e-05
2	0	0	1	0	285.195	0.367306	0.366987	-0.158069	1	2.50396	10	-5.80094e-05
2	0	0	0	0	285.694	0.364809	0.364549	-0.160599	1	2.50387	10	-5.85461e-05
2	0	0	1	0	286.194	0.362312	0.362038	-0.161463	1	2.50378	10	-5.84557e-05
2	0	0	0	0	286.693	0.359815	0.359493	-0.163384	1	2.50368	10	-5.87355e-05
2	0	0	1	0	287.192	0.357318	0.357044	-0.164484	1	2.50359	10	-5.87282e-05
2	0	0	0	0	287.692	0.354821	0.354558	-0.167987	1	2.50349	10	-5.9561e-05
2	0	0	1	0	288.191	0.352324	0.352039	-0.169693	1	2.5034	10	-5.97387e-05
2	0	0	0	0	288.691	0.349827	0.349516	-0.169132	1	2.5033	10	-5.91144e-05
2	0	0	1	0	289.19	0.34733	0.347064	-0.17289	1	2.50321	10	-6.00037e-05
2	0	0	0	0	289.689	0.344833	0.344523	-0.174402	1	2.50311	10	-6.00854e-05
2	0	0	1	0	290.189	0.342336	0.342085	-0.174518	1	2.50301	10	-5.97e-05
2	0	0	0	0	290.688	0.339839	0.339566	-0.176149	1	2.50291	10	-5.98142e-05
2	0	0	1	0	291.188	0.337342	0.337058	-0.177271	1	2.50281	10	-5.97506e-05
2	0	0	0	0	291.687	0.334845	0.334603	-0.179035	1	2.50271	10	-5.99056e-05
2	0	0	1	0	292.186	0.332348	0.332093	-0.180096	1	2.5026	10	-5.98088e-05
2	0	0	0	0	292.686	0.329851	0.329527	-0.182518	1	2.5025	10	-6.01447e-05
2	0	0	1	0	293.185	0.327354	0.327061	-0.184749	1	2.5024	10	-6.04242e-05
2	0	0	0	0	293.685	0.324857	0.32459	-0.186286	1	2.50229	10	-6.04665e-05
2	0	0	1	0	294.184	0.32236	0.3221	-0.187564	1	2.50219	10	-6.04143e-05
2	0	0	0	0	294.683	0.319863	0.319596	-0.188484	1	2.50208	10	-6.02388e-05
2	0	0	1	0	295.183	0.317366	0.31708	-0.190161	1	2.50197	10	-6.02962e-05
2	0	0	0	0	295.682	0.314869	0.314544	-0.191086	1	2.50186	10	-6.01049e-05
2	0	0	1	0	296.182	0.312372	0.312097	-0.192278	1	2.50176	10	-6.00094e-05
2	0	0	0	0	296.681	0.309875	0.309593	-0.196697	1	2.50165	10	-6.0896e-05
2	0	0	1	0	297.18	0.307378	0.3071	-0.198357	1	2.50153	10	-6.09152e-05
2	0	0	1	0	297.68	0.304882	0.304616	-0.199604	1	2.50142	10	-6.08025e-05
2	0	0	1	0	298.179	0.302385	0.302117	-0.199561	1	2.50131	10	-6.02907e-05
2	0	0	1	0	298.678	0.299888	0.299619	-0.202785	1	2.5012	10	-6.07582e-05
2	0	0	1	0	299.178	0.29739	0.297131	-0.203369	1	2.50109	10	-6.04273e-05
2	0	0	1	0	299.677	0.294893	0.294594	-0.206437	1	2.50097	10	-6.08152e-05
2	0	0	1	0	300.177	0.292396	0.292092	-0.207102	1	2.50086	10	-6.04928e-05
2	0	0	1	0	300.676	0.289899	0.289643	-0.209461	1	2.50074	10	-6.06688e-05
2	0	0	1	0	301.175	0.287403	0.287098	-0.211416	1	2.50062	10	-6.06971e-05
2	0	0	1	0	301.675	0.284905	0.284609	-0.212944	1	2.5005	10	-6.06057e-05
2	0	0	1	0	302.174	0.282408	0.282123	-0.213422	1	2.50039	10	-6.02113e-05
2	0	0	1	0	302.674	0.279911	0.279642	-0.215228	1	2.50027	10	-6.01868e-05
2	0	0	1	0	303.173	0.277414	0.277156	-0.217444	1	2.50015	10	-6.02659e-05
2	0	0	1	0	303.672	0.274917	0.274595	-0.220201	1	2.50002	10	-6.04661e-05
2	0	0	1	0	304.172	0.27242	0.272139	-0.221519	1	2.4999	10	-6.0284e-05
2	0	0	1	0	304.671	0.269923	0.269687	-0.225071	1	2.49978	10	-6.06987e-05
2	0	0	1	0	305.171	0.267426	0.267178	-0.222402	1	2.49966	10	-5.9421e-05
2	0	0	1	0	305.67	0.264929	0.264651	-0.227204	1	2.49953	10	-6.01299e-05
2	0	0	1	0	306.169	0.262432	0.262164	-0.228518	1	2.4994	10	-5.99091e-05
2	0	0	1	0	306.669	0.259935	0.259704	-0.22992	1	2.49928	10	-5.97112e-05
2	0	0	1	0	307.168	0.257438	0.257167	-0.232537	1	2.49915	10	-5.98008e-05
2	0	0	1	0	307.668	0.254941	0.254664	-0.232851	1	2.49902	10	-5.92988e-05
2	0	0	1	0	308.167	0.252444	0.252197	-0.236939	1	2.49889	10	-5.97552e-05
2	0	0	1	0	308.666	0.249947	0.249701	-0.239811	1	2.49876	10	-5.98812e-05
2	0	0	1	0	309.166	0.24745	0.247158	-0.24099	1	2.49863	10	-5.95626e-05
2	0	0	1	0	309.665	0.244953	0.244691	-0.243172	1	2.4985	10	-5.95019e-05
2	0	0	1	0	310.165	0.242456	0.242205	-0.244378	1	2.49836	10	-5.91895e-05
2	0	0	1	0	310.664	0.239959	0.239659	-0.247901	1	2.49823	10	-5.94117e-05
2	0	0	1	0	311.163	0.237462	0.23716	-0.248119	1	2.49809	10	-5.88439e-05
2	0	0	1	0	311.663	0.234965	0.234681	-0.251173	1	2.49796	10	-5.89454e-05
2	0	0	1	0	312.162	0.232468	0.232162	-0.254408	1	2.49782	10	-5.90638e-05
2	0	0	1	0	312.662	0.229971	0.229668	-0.257606	1	2.49768	10	-5.91639e-05
2	0	0	1	0	313.161	0.227474	0.227157	-0.260461	1	2.49754	10	-5.91655e-05
2	0	0	1	0	313.66	0.224977	0.224683	-0.264223	1	2.4974	10	-5.93665e-05
2	0	0	0	0	314.16	0.222481	0.222204	-0.264433	1	2.49725	10	-5.8758e-05
2	0	0	1	0	314.659	0.219984	0.219704	-0.269021	1	2.49711	10	-5.91049e-05
2	0	0	0	0	315.159	0.217487	0.217235	-0.273459	1	2.49696	10	-5.94049e-05
2	0	0	1	0	315.658	0.21499	0.214709	-0.276413	1	2.49681	10	-5.93484e-05
2	0	0	0	0	316.157	0.212493	0.212181	-0.280999	1	2.49666	10	-5.96227e-05
2	0	0	1	0	316.657	0.209996	0.209695	-0.282486	1	2.49651	10	-5.92357e-05
2	0	0	0	0	317.156	0.207499	0.207224	-0.289472	1	2.49635	10	-5.99855e-05
2	0	0	1	0	317.656	0.205002	0.204705	-0.295137	1	2.49619	10	-6.04162e-05
2	0	0	0	0	318.155	0.202505	0.202222	-0.298984	1	2.49603	10	-6.04612e-05
2	0	0	1	0	318.654	0.200008	0.199742	-0.305579	1	2.49587	10	-6.10368e-05
2	0	0	0	0	319.154	0.197511	0.197238	-0.313389	1	2.4957	10	-6.18123e-05
2	0	0	1	0	319.653	0.195014	0.194738	-0.32053	1	2.49553	10	-6.24192e-05
2	0	0	0	0	320.153	0.192517	0.192217	-0.331292	1	2.49536	10	-6.368e-05
2	0	0	1	0	320.652	0.19002	0.189704	-0.340057	1	2.49518	10	-6.45101e-05
2	0	0	0	0	321.151	0.187523	0.18725	-0.351286	1	2.49499	10	-6.57783e-05
2	0	0	1	0	321.651	0.185026	0.184722	-0.363352	1	2.4948	10	-6.7119e-05
2	0	0	0	0	322.15	0.182529	0.182242	-0.377525	1	2.4946	10	-6.88009e-05
2	0	0	1	0	322.65	0.180032	0.179736	-0.39172	1	2.4944	10	-7.04061e-05
2	0	0	0	0	323.149	0.177535	0.177229	-0.409142	1	2.49419	10	-7.25118e-05
2	0	0	1	0	323.648	0.175038	0.17475	-0.428951	1	2.49397	10	-7.49592e-05
2	0	0	0	0	324.148	0.172541	0.172244	-0.45225	1	2.49373	10	-7.78975e-05
2	0	0	1	0	324.647	0.170044	0.169756	-0.479712	1	2.49349	10	-8.14342e-05
2	0	0	0	0	325.147	0.167547	0.167278	-0.512149	1	2.49323	10	-8.56715e-05
2	0	0	1	0	325.646	0.16505	0.164758	-0.542632	1	2.49295	10	-8.94028e-05
2	0	0	0	0	326.145	0.162553	0.162245	-0.593798	1	2.49265	10	-9.63406e-05
2	0	0	1	0	326.645	0.160056	0.159736	-0.642948	1	2.49233	10	-0.000102702
2	0	0	0	0	327.144	0.157559	0.157255	-0.697033	1	2.49199	10	-0.000109612
2	0	0	1	0	327.644	0.155062	0.154794	-0.760724	1	2.49161	10	-0.000117756
2	0	0	0	0	328.143	0.152565	0.152262	-0.815881	1	2.4912	10	-0.000124228
2	0	0	1	0	328.642	0.150068	0.149794	-0.881163	1	2.49077	10	-0.000131993
2	0	0	1	0	329.142	0.147572	0.147281	-0.934051	1	2.4903	10	-0.000137568
2	0	0	1	0	329.641	0.145075	0.144815	-0.982295	1	2.48981	10	-0.000142251
2	0	0	1	0	330.14	0.142578	0.142269	-1.0254	1	2.4893	10	-0.000145882
2	0	0	1	0	330.64	0.140081	0.139795	-1.0489	1	2.48877	10	-0.000146631
2	0	0	1	0	331.139	0.137584	0.137315	-1.0644	1	2.48823	10	-0.000146158
2	0	0	1	0	331.639	0.135087	0.134791	-1.06977	1	2.48768	10	-0.000144195
2	0	0	1	0	332.138	0.13259	0.132279	-1.0576	1	2.48714	10	-0.000139899
2	0	0	1	0	332.637	0.130092	0.129748	-1.04229	1	2.4866	10	-0.000135236
2	0	0	1	0	333.137	0.127595	0.127321	-1.00898	1	2.48608	10	-0.000128464
2	0	0	1	0	333.636	0.125099	0.124771	-0.966995	1	2.48557	10	-0.000120653
2	0	0	1	0	334.136	0.122602	0.122315	-0.926048	1	2.48509	10	-0.00011327
2	0	0	1	0	334.635	0.120104	0.119854	-0.876639	1	2.48463	10	-0.000105068
2	0	0	1	0	335.134	0.117607	0.117305	-0.837805	1	2.48419	10	-9.82784e-05
2	0	0	1	0	335.634	0.11511	0.114825	-0.798502	1	2.48376	10	-9.16882e-05
2	0	0	1	0	336.133	0.112613	0.112328	-0.766323	1	2.48336	10	-8.60796e-05
2	0	0	1	0	336.633	0.110116	0.109818	-0.73543	1	2.48298	10	-8.07633e-05
2	0	0	1	0	337.132	0.107619	0.107314	-0.704841	1	2.4826	10	-7.56396e-05
2	0	0	1	0	337.631	0.105122	0.104863	-0.685764	1	2.48224	10	-7.1911e-05
2	0	0	1	0	338.131	0.102625	0.102385	-0.667377	1	2.48189	10	-6.83291e-05
2	0	0	1	0	338.63	0.100128	0.0998428	-0.650292	1	2.48155	10	-6.4927e-05
2	0	0	1	0	339.13	0.0976314	0.0973518	-0.636873	1	2.48122	10	-6.20007e-05
2	0	0	1	0	339.629	0.0951344	0.0948672	-0.624848	1	2.48089	10	-5.92775e-05
2	0	0	1	0	340.128	0.0926373	0.09239	-0.615742	1	2.48057	10	-5.68884e-05
2	0	0	1	0	340.628	0.0901403	0.089843	-0.60734	1	2.48025	10	-5.45652e-05
2	0	0	1	0	341.127	0.0876433	0.0873337	-0.59727	1	2.47994	10	-5.21618e-05
2	0	0	1	0	341.627	0.0851463	0.0848728	-0.58666	1	2.47963	10	-4.97915e-05
2	0	0	1	0	342.126	0.0826492	0.0823278	-0.576211	1	2.47933	10	-4.74382e-05
2	0	0	1	0	342.625	0.0801523	0.0798718	-0.567303	1	2.47903	10	-4.53115e-05
2	0	0	1	0	343.125	0.0776553	0.0773513	-0.555951	1	2.47874	10	-4.30036e-05
2	0	0	1	0	343.624	0.0751583	0.0748489	-0.548373	1	2.47845	10	-4.10451e-05
2	0	0	1	0	344.124	0.0726612	0.0723692	-0.542261	1	2.47816	10	-3.9243e-05
2	0	0	1	0	344.623	0.0701642	0.0698678	-0.533512	1	2.47788	10	-3.72753e-05
2	0	0	1	0	345.122	0.0676672	0.0673642	-0.525657	1	2.47761	10	-3.54105e-05
2	0	0	1	0	345.622	0.0651702	0.0648712	-0.520607	1	2.47734	10	-3.37724e-05
2	0	0	1	0	346.121	0.0626737	0.0623595	-0.510018	1	2.47707	10	-3.18045e-05
2	0	0	0	0	346.621	0.0601767	0.0598846	-0.504711	1	2.4768	10	-3.02244e-05
2	0	0	1	0	347.12	0.0576797	0.0574064	-0.49992	1	2.47654	10	-2.86986e-05
2	0	0	0	0	347.619	0.0551828	0.0549007	-0.495013	1	2.47628	10	-2.71765e-05
2	0	0	1	0	348.119	0.0526858	0.0523557	-0.491805	1	2.47602	10	-2.57488e-05
2	0	0	0	0	348.618	0.0501888	0.0499146	-0.484099	1	2.47576	10	-2.41636e-05
2	0	0	1	0	349.118	0.0476918	0.0473728	-0.483762	1	2.47551	10	-2.29172e-05
2	0	0	0	0	349.617	0.0451948	0.0448904	-0.480024	1	2.47526	10	-2.15485e-05
2	0	0	1	0	350.116	0.0426979	0.0423772	-0.478927	1	2.475	10	-2.02956e-05
2	0	0	0	0	350.616	0.0402009	0.039915	-0.476664	1	2.47475	10	-1.9026e-05
2	0	0	1	0	351.115	0.0377039	0.0373997	-0.473569	1	2.4745	10	-1.77113e-05
2	0	0	0	0	351.615	0.0352069	0.0349311	-0.47471	1	2.47425	10	-1.65821e-05
2	0	0	1	0	352.114	0.0327099	0.0324306	-0.47258	1	2.47401	10	-1.53261e-05
2	0	0	0	0	352.613	0.0302129	0.0299567	-0.474338	1	2.47376	10	-1.42096e-05
2	0	0	1	0	353.113	0.0277159	0.0274414	-0.474417	1	2.47351	10	-1.30187e-05
2	0	0	0	0	353.612	0.025219	0.0248986	-0.475358	1	2.47326	10	-1.18357e-05
2	0	0	1	0	354.112	0.022722	0.0224522	-0.474495	1	2.47301	10	-1.06535e-05
2	0	0	0	0	354.611	0.020225	0.0198966	-0.474656	1	2.47276	10	-9.44405e-06
2	0	0	1	0	355.11	0.017728	0.0174365	-0.478962	1	2.47251	10	-8.35142e-06
2	0	0	0	0	355.61	0.015231	0.0149276	-0.482905	1	2.47226	10	-7.2086e-06
2	0	0	1	0	356.109	0.0127341	0.0124165	-0.483813	1	2.472	10	-6.00728e-06
2	0	0	0	0	356.609	0.0102371	0.00993729	-0.48501	1	2.47175	10	-4.81969e-06
2	0	0	1	0	357.108	0.00774008	0.00742307	-0.490702	1	2.4715	10	-3.64252e-06
2	0	0	0	0	357.607	0.0052431	0.00493535	-0.490202	1	2.47124	10	-2.41932e-06
2	0	0	1	0	358.107	0.00274612	0.00246885	-0.494937	1	2.47098	10	-1.22192e-06
2	0	0	0	0	358.601	0.000274105	-9.98546e-05	-0.498424	1	2.47072	10	4.977e-08
2	0	0	1	0	358.651	2.44065e-05	-0.000325324	-0.493761	1	2.47069	10	1.60632e-07