File: Figure_codes/Fig_3-5/rawdata_trumpetplot_data/before 10th/20221101_1-115_002_TrumpetPlot_ParaChange_06_CV_C01_3.csv
mode,ox/red,error,control changes,counter inc.,time/s,control/V,Ewe/V,<I>/mA,cycle number,(Q-Qo)/C,I Range,P/W,log(|I|),Tafel slope mV/dec,alpha_eff,dI/d(E-IR),E-IR/V,
2,0,0,1,0,4773.87,2.44065e-05,-0.000344411,-0.524722,4,0.0000000E+000,11,1.8072e-07,-3.28007, , , ,-0.000344411,
2,1,0,1,0,4774,0.00129787,0.000932319,0.28831,4,1.55073e-05,11,2.68797e-07,-3.54014, , , ,0.000932319,
2,1,0,1,0,4774.15,0.00279606,0.0024996,0.352723,4,6.72098e-05,11,8.81666e-07,-3.45257,0.0177651,3.32112,37.954,0.0024996,
2,1,0,1,0,4774.3,0.00429425,0.00401174,0.366266,4,0.000122846,11,1.46936e-06,-3.4362,0.0953364,0.618861,8.97631,0.004011739,
2,1,0,1,0,4774.45,0.00579244,0.00547934,0.38097,4,0.0001812,11,2.08747e-06,-3.41911,0.0771701,0.764545,11.3428,0.00547934,
2,1,0,1,0,4774.6,0.00729063,0.00698618,0.399462,4,0.000241949,11,2.79071e-06,-3.39852,0.103019,0.572707,8.87909,0.00698618,
2,1,0,1,0,4774.75,0.00878882,0.00849514,0.413091,4,0.000304875,11,3.50926e-06,-3.38395,0.129504,0.455586,7.28709,0.008495138,
2,1,0,1,0,4774.9,0.010287,0.00996592,0.42087,4,0.000369466,11,4.19436e-06,-3.37585,0.178919,0.329758,5.40163,0.00996592,
2,1,0,1,0,4775.05,0.0117852,0.0115067,0.428037,4,0.000435284,11,4.92529e-06,-3.36852,0.174189,0.338713,5.69295,0.0115067,
2,1,0,1,0,4775.2,0.0132838,0.0129186,0.439081,4,0.000502308,11,5.67232e-06,-3.35746,0.161198,0.366009,6.29926,0.0129186,
2,1,0,1,0,4775.35,0.0147814,0.0144872,0.446147,4,0.000570654,11,6.46343e-06,-3.35052,0.215045,0.274361,4.78139,0.0144872,
2,1,0,1,0,4775.5,0.0162789,0.0159891,0.453716,4,0.000640293,11,7.25452e-06,-3.34322,0.278244,0.212044,3.72165,0.0159891,
2,1,0,1,0,4775.65,0.017778,0.0174619,0.458032,4,0.000710647,11,7.99812e-06,-3.3391,0.257904,0.228767,4.09281,0.0174619,
2,1,0,1,0,4775.8,0.0192761,0.019008,0.465095,4,0.000781449,11,8.84053e-06,-3.33246,0.278544,0.211816,3.82494,0.019008,
2,1,0,1,0,4775.95,0.0207743,0.0204894,0.470506,4,0.000853392,11,9.64038e-06,-3.32743,0.307162,0.192081,3.49463,0.0204894,
2,1,0,1,0,4776.1,0.0222725,0.0219782,0.473085,4,0.000926192,11,1.03976e-05,-3.32506,0.328775,0.179454,3.31343,0.0219782,
2,1,0,1,0,4776.25,0.0237707,0.0235009,0.478651,4,0.000999697,11,1.12488e-05,-3.31998,0.369636,0.159616,2.98693,0.0235009,
2,1,0,1,0,4776.4,0.0252689,0.0249802,0.48176,4,0.0010736,11,1.20345e-05,-3.31717,0.414201,0.142443,2.70141,0.0249802,
2,1,0,1,0,4776.55,0.0267671,0.0264658,0.486851,4,0.00114846,11,1.28849e-05,-3.3126,0.245213,0.240607,4.57716,0.02646585,
2,1,0,1,0,4776.7,0.0282662,0.0279908,0.495484,4,0.00122422,11,1.3869e-05,-3.30497,0.296114,0.199248,3.84723,0.0279908,
2,1,0,1,0,4776.85,0.0297635,0.0294657,0.498102,4,0.00130063,11,1.46769e-05,-3.30268,0.348304,0.169392,3.29437,0.0294657,
2,1,0,1,0,4777,0.031261,0.0309741,0.500093,4,0.00137766,11,1.549e-05,-3.30095,0.311429,0.18945,3.72719,0.0309741,
2,1,0,1,0,4777.15,0.0327599,0.0323946,0.507869,4,0.00145539,11,1.64522e-05,-3.29425,0.279839,0.210836,4.18025,0.0323946,
2,1,0,1,0,4777.3,0.034258,0.0339746,0.513824,4,0.00153409,11,1.7457e-05,-3.28919,0.308186,0.191443,3.83953,0.0339746,
2,1,0,1,0,4777.45,0.0357562,0.0354422,0.518837,4,0.00161355,11,1.83887e-05,-3.28497,0.464,0.127155,2.57039,0.0354422,
2,1,0,1,0,4777.6,0.0372544,0.0369533,0.523031,4,0.00169387,11,1.93277e-05,-3.28147,0.31345,0.188228,3.86177,0.0369533,
2,1,0,1,0,4777.75,0.0387526,0.0384643,0.530916,4,0.00177475,11,2.04213e-05,-3.27497,0.250502,0.235527,4.91485,0.0384643,
2,1,0,1,0,4777.9,0.0402508,0.0399669,0.537612,4,0.00185692,11,2.14867e-05,-3.26953,0.300434,0.196383,4.13569,0.0399669,
2,1,0,1,0,4778.04,0.041749,0.0414982,0.544701,4,0.00194029,11,2.26041e-05,-3.26384,0.298437,0.197696,4.20809,0.0414982,
2,1,0,1,0,4778.19,0.0432472,0.0429562,0.553627,4,0.00202443,11,2.37817e-05,-3.25678,0.289625,0.203712,4.38888,0.0429562,
2,1,0,1,0,4778.34,0.0447458,0.0444517,0.55852,4,0.00210942,11,2.48271e-05,-3.25296,0.22743,0.25942,5.66008,0.04445165,
2,1,0,1,0,4778.49,0.0462433,0.0459545,0.56795,4,0.00219575,11,2.60999e-05,-3.24569,0.191963,0.30735,6.7857,0.0459545,
2,1,0,1,0,4778.64,0.0477409,0.047462,0.575399,4,0.00228339,11,2.73096e-05,-3.24003,0.205576,0.286998,6.45341,0.047462,
2,1,0,1,0,4778.79,0.0492399,0.0489496,0.58282,4,0.00237246,11,2.85289e-05,-3.23447,0.229957,0.25657,5.8567,0.0489496,
2,1,0,1,0,4778.94,0.0507381,0.0504013,0.58928,4,0.00246248,11,2.97005e-05,-3.22968,0.214523,0.275029,6.38043,0.0504013,
2,1,0,1,0,4779.09,0.0522363,0.0518997,0.602206,4,0.00255411,11,3.12543e-05,-3.22026,0.174329,0.338441,7.95057,0.0518997,
2,1,0,1,0,4779.24,0.0537345,0.0534924,0.616319,4,0.00264754,11,3.29684e-05,-3.21019,0.213191,0.276747,6.63128,0.0534924,
2,1,0,1,0,4779.39,0.0552327,0.0549399,0.626926,4,0.00274251,11,3.44432e-05,-3.20278,0.220405,0.26769,6.52992,0.0549399,
2,1,0,1,0,4779.54,0.0567309,0.0564329,0.631985,4,0.00283899,11,3.56648e-05,-3.19929,0.195555,0.301706,7.4811,0.05643294,
2,1,0,1,0,4779.69,0.0582291,0.0579345,0.648472,4,0.00293706,11,3.75689e-05,-3.18811,0.191795,0.307621,7.78332,0.05793447,
2,1,0,1,0,4779.84,0.0597282,0.0594134,0.660937,4,0.00303716,11,3.92685e-05,-3.17984,0.180524,0.326826,8.40922,0.0594134,
2,1,0,1,0,4779.99,0.0612255,0.0609587,0.673767,4,0.00313916,11,4.1072e-05,-3.17149,0.21899,0.269419,7.0584,0.0609587,
2,1,0,1,0,4780.14,0.062723,0.0624227,0.683914,4,0.00324296,11,4.26917e-05,-3.165,0.181375,0.325293,8.71155,0.0624227,
2,1,0,1,0,4780.29,0.0642218,0.0639343,0.698711,4,0.0033484,11,4.46716e-05,-3.1557,0.159312,0.370343,10.1301,0.0639343,
2,1,0,1,0,4780.44,0.06572,0.0654517,0.713048,4,0.00345625,11,4.66702e-05,-3.14688,0.169876,0.347313,9.61953,0.0654517,
2,1,0,1,0,4780.59,0.0672182,0.0669564,0.728406,4,0.00356642,11,4.87714e-05,-3.13763,0.189749,0.310938,8.79857,0.0669564,
2,1,0,1,0,4780.74,0.0687164,0.0684251,0.741328,4,0.00367843,11,5.07254e-05,-3.12999,0.201275,0.293131,8.46136,0.0684251,
2,1,0,1,0,4780.89,0.0702146,0.0699393,0.754676,4,0.00379195,11,5.27815e-05,-3.12224,0.193951,0.3042,8.96382,0.0699393,
2,1,0,1,0,4781.04,0.0717128,0.0713963,0.769624,4,0.0039079,11,5.49483e-05,-3.11372,0.161598,0.365103,10.8907,0.0713963,
2,1,0,1,0,4781.19,0.073211,0.0729456,0.781065,4,0.00402616,11,5.69752e-05,-3.10731,0.199928,0.295107,9.00207,0.0729456,
2,1,0,1,0,4781.34,0.0747092,0.0744196,0.794569,4,0.00414639,11,5.91314e-05,-3.09987,0.20637,0.285894,8.88099,0.0744196,
2,1,0,1,0,4781.49,0.0762078,0.0759099,0.803063,4,0.00426836,11,6.09604e-05,-3.09525,0.213371,0.276513,8.73016,0.0759099,
2,1,0,1,0,4781.64,0.0777053,0.0773843,0.82062,4,0.00439232,11,6.35031e-05,-3.08586,0.192987,0.30572,9.78506,0.0773843,
2,1,0,1,0,4781.79,0.0792029,0.078924,0.837196,4,0.00451827,11,6.60748e-05,-3.07717,0.224143,0.263225,8.56155,0.078924,
2,1,0,1,0,4781.94,0.0807019,0.0804013,0.845864,4,0.00464638,11,6.80086e-05,-3.0727,0.248325,0.237592,7.80953,0.0804013,
2,1,0,1,0,4782.09,0.0822001,0.0818944,0.853964,4,0.00477606,11,6.99348e-05,-3.06856,0.271303,0.217469,7.27675,0.0818944,
2,1,0,1,0,4782.24,0.0836983,0.0834372,0.866724,4,0.00490726,11,7.23171e-05,-3.06212,0.253578,0.23267,7.89519,0.0834372,
2,1,0,1,0,4782.39,0.0851965,0.084925,0.880107,4,0.00504038,11,7.47431e-05,-3.05546,0.261795,0.225367,7.75522,0.084925,
2,1,0,1,0,4782.54,0.0866947,0.0863788,0.892958,4,0.00517542,11,7.71327e-05,-3.04917,0.34629,0.170377,5.92255,0.08637882,
2,1,0,1,0,4782.69,0.0881929,0.087909,0.904806,4,0.00531209,11,7.95406e-05,-3.04344,0.291928,0.202105,7.14011,0.087909,
2,1,0,1,0,4782.84,0.0896911,0.0894126,0.914557,4,0.00544998,11,8.1773e-05,-3.03879,0.289339,0.203913,7.28736,0.0894126,
2,1,0,1,0,4782.99,0.0911902,0.090871,0.927425,4,0.00559003,11,8.4276e-05,-3.03272,0.252248,0.233897,8.44275,0.090871,
2,1,0,1,0,4783.14,0.0926875,0.0924074,0.940336,4,0.00573207,11,8.6894e-05,-3.02672,0.272391,0.216601,7.92233,0.09240739,
2,1,0,1,0,4783.29,0.094185,0.0939365,0.948719,4,0.00587554,11,8.91193e-05,-3.02286,0.309771,0.190463,7.06338,0.0939365,
2,1,0,1,0,4783.44,0.0956838,0.095422,0.958508,4,0.00602049,11,9.14627e-05,-3.0184,0.267741,0.220362,8.2735,0.09542197,
2,1,0,1,0,4783.59,0.097182,0.0968917,0.971293,4,0.00616725,11,9.41102e-05,-3.01265,0.219014,0.269389,10.2185,0.0968917,
2,1,0,1,0,4783.74,0.0986802,0.0983784,0.98611,4,0.00631618,11,9.70119e-05,-3.00607,0.247939,0.237962,9.16493,0.0983784,
2,1,0,1,0,4783.89,0.100178,0.0998884,0.999924,4,0.0064672,11,9.98808e-05,-3.00003,0.254251,0.232054,9.05826,0.0998884,
2,1,0,1,0,4784.04,0.101677,0.101446,1.01052,4,0.00662017,11,0.000102514,-2.99545,0.221288,0.266621,10.5944,0.101446,
2,1,0,1,0,4784.19,0.103175,0.102883,1.03203,4,0.00677535,11,0.000106178,-2.98631,0.217517,0.271243,10.9445,0.102883,
2,1,0,1,0,4784.34,0.104673,0.104373,1.05482,4,0.00693353,11,0.000110094,-2.97682,0.198646,0.297011,12.1904,0.104373,
2,1,0,1,0,4784.49,0.106171,0.105881,1.06957,4,0.00709446,11,0.000113247,-2.97079,0.200841,0.293764,12.2577,0.105881,
2,1,0,1,0,4784.64,0.10767,0.107391,1.0895,4,0.00725838,11,0.000117003,-2.96277,0.169142,0.348819,14.8893,0.1073911,
2,1,0,1,0,4784.79,0.109167,0.108896,1.11273,4,0.00742526,11,0.000121172,-2.95361,0.156581,0.376802,16.4279,0.108896,
2,1,0,1,0,4784.94,0.110665,0.110368,1.13688,4,0.00759606,11,0.000125475,-2.94429,0.146263,0.403382,17.9772,0.110368,
2,1,0,1,0,4785.09,0.112164,0.111907,1.16647,4,0.00777103,11,0.000130537,-2.93312,0.148856,0.396355,18.0334,0.111907,
2,1,0,1,0,4785.24,0.113662,0.113366,1.19639,4,0.00795004,11,0.00013563,-2.92213,0.144444,0.408464,19.0733,0.113366,
2,1,0,1,0,4785.39,0.11516,0.114871,1.22455,4,0.00813297,11,0.000140665,-2.91202,0.133544,0.441804,21.1462,0.114871,
2,1,0,1,0,4785.54,0.116658,0.116345,1.25992,4,0.00832112,11,0.000146586,-2.89966,0.121026,0.487498,23.9412,0.116345,
2,1,0,1,0,4785.69,0.118157,0.117837,1.29712,4,0.00851483,11,0.000152848,-2.88702,0.130817,0.451012,22.7625,0.117837,
2,1,0,1,0,4785.84,0.119655,0.119367,1.33125,4,0.00871364,11,0.000158907,-2.87574,0.138348,0.426462,22.1627,0.119367,
2,1,0,1,0,4785.99,0.121153,0.120854,1.36211,4,0.00891735,11,0.000164617,-2.86579,0.125583,0.469809,25.083,0.120854,
2,1,0,1,0,4786.14,0.122652,0.122319,1.40579,4,0.00912679,11,0.000171955,-2.85208,0.122766,0.480587,26.2925,0.122319,
2,1,0,1,0,4786.29,0.124149,0.123931,1.44219,4,0.00934224,11,0.000178732,-2.84098,0.129632,0.455135,25.5785,0.1239311,
2,1,0,1,0,4786.43,0.125647,0.125321,1.4793,4,0.00956305,11,0.000185388,-2.82994,0.145315,0.406014,23.381,0.125321,
2,1,0,1,0,4786.58,0.127146,0.126841,1.50925,4,0.00978946,11,0.000191435,-2.82124,0.142765,0.413265,24.3726,0.126841,
2,1,0,1,0,4786.73,0.128644,0.128343,1.55144,4,0.0100207,11,0.000199117,-2.80926,0.15281,0.386101,23.3472,0.128343,
2,1,0,1,0,4786.88,0.130142,0.129862,1.58435,4,0.0102576,11,0.000205747,-2.80015,0.161484,0.365361,22.5489,0.129862,
2,1,0,1,0,4787.03,0.13164,0.131353,1.61668,4,0.0104997,11,0.000212355,-2.79138,0.205196,0.28753,18.0832,0.131353,
2,1,0,1,0,4787.18,0.133139,0.132826,1.6438,4,0.0107463,11,0.000218339,-2.78415,0.21516,0.274214,17.6089,0.132826,
2,1,0,1,0,4787.33,0.134637,0.134356,1.67195,4,0.0109964,11,0.000224636,-2.77678,0.246163,0.239679,15.6348,0.134356,
2,1,0,1,0,4787.48,0.136135,0.135843,1.69692,4,0.0112507,11,0.000230514,-2.77034,0.25585,0.230604,15.2269,0.135843,
2,1,0,1,0,4787.63,0.137633,0.137309,1.7196,4,0.0115085,11,0.000236116,-2.76457,0.34235,0.172338,11.5121,0.137309,
2,1,0,1,0,4787.78,0.139132,0.13886,1.73655,4,0.0117693,11,0.000241137,-2.76031,0.496439,0.118847,8.01022,0.13886,
2,1,0,1,0,4787.93,0.140629,0.140361,1.74066,4,0.0120312,11,0.00024432,-2.75929,0.861618,0.0684758,4.64376,0.140361,
2,1,0,1,0,4788.08,0.142127,0.141818,1.74969,4,0.0122946,11,0.000248137,-2.75704,1.14652,0.0514603,3.49483,0.141818,
2,1,0,1,0,4788.23,0.143626,0.143359,1.75074,4,0.0125589,11,0.000250984,-2.75678,-1.67084,-0.0353116,-2.40009,0.143359,
2,1,0,1,0,4788.38,0.145124,0.144818,1.73935,4,0.0128224,11,0.000251888,-2.75961,-0.381082,-0.154822,-10.4683,0.144818,
2,1,0,1,0,4788.53,0.146622,0.146298,1.71601,4,0.0130835,11,0.00025105,-2.76548,-0.311645,-0.189318,-12.6902,0.146298,
2,1,0,1,0,4788.68,0.14812,0.147805,1.69824,4,0.0133416,11,0.000251009,-2.77,-0.228853,-0.257808,-17.0153,0.147805,
2,1,0,1,0,4788.83,0.149619,0.149374,1.67033,4,0.0135961,11,0.000249504,-2.7772,-0.159992,-0.368767,-23.9011,0.1493744,
2,1,0,1,0,4788.98,0.151117,0.150804,1.63231,4,0.0138455,11,0.000246159,-2.7872,-0.128445,-0.459339,-29.0854,0.150804,
2,1,0,1,0,4789.13,0.152615,0.152373,1.58135,4,0.0140883,11,0.000240956,-2.80097,-0.109214,-0.540225,-33.2804,0.152373,
2,1,0,1,0,4789.28,0.154114,0.153798,1.53326,4,0.0143238,11,0.000235812,-2.81439,-0.102062,-0.578082,-34.5568,0.153798,
2,1,0,1,0,4789.43,0.155612,0.155304,1.47847,4,0.0145513,11,0.000229613,-2.83019,-0.0869013,-0.678931,-39.0013,0.155304,
2,1,0,1,0,4789.58,0.157109,0.156852,1.41577,4,0.0147706,11,0.000222065,-2.84901,-0.0763189,-0.773072,-42.5716,0.156852,
2,1,0,1,0,4789.73,0.158608,0.158304,1.3528,4,0.0149801,11,0.000214154,-2.86877,-0.0739249,-0.798108,-42.1548,0.158304,
2,1,0,1,0,4789.88,0.160106,0.159783,1.28939,4,0.0151798,11,0.000206023,-2.88962,-0.0731091,-0.807014,-40.6328,0.159783,
2,1,0,1,0,4790.03,0.161604,0.161338,1.2285,4,0.0153703,11,0.000198203,-2.91063,-0.0685553,-0.86062,-41.2244,0.161338,
2,1,0,1,0,4790.18,0.163102,0.162844,1.16882,4,0.0155519,11,0.000190335,-2.93225,-0.0673035,-0.876627,-39.946,0.162844,
2,1,0,1,0,4790.33,0.164601,0.164347,1.1104,4,0.0157245,11,0.000182491,-2.95452,-0.0693629,-0.850599,-36.9283,0.164347,
2,1,0,1,0,4790.48,0.166099,0.165806,1.0584,4,0.0158884,11,0.00017549,-2.97535,-0.0704095,-0.837955,-34.688,0.165806,
2,1,0,1,0,4790.63,0.167597,0.167322,1.00961,4,0.0160451,11,0.000168929,-2.99585,-0.0763915,-0.772338,-30.4084,0.167322,
2,1,0,1,0,4790.78,0.169095,0.168785,0.965646,4,0.016195,11,0.000162987,-3.01518,-0.0797055,-0.740225,-27.9714,0.168785,
2,1,0,1,0,4790.93,0.170594,0.170329,0.921596,4,0.0163383,11,0.000156974,-3.03546,-0.0796242,-0.74098,-26.8321,0.170329,
2,1,0,1,0,4791.08,0.172091,0.171792,0.882006,4,0.0164756,11,0.000151522,-3.05453,-0.0905328,-0.651697,-22.6408,0.171792,
2,1,0,1,0,4791.23,0.173589,0.173267,0.853585,4,0.0166076,11,0.000147898,-3.06875,-0.097287,-0.606453,-20.2079,0.173267,
2,1,0,1,0,4791.38,0.175088,0.174825,0.825022,4,0.0167354,11,0.000144235,-3.08353,-0.105271,-0.560458,-18.0463,0.174825,
2,1,0,1,0,4791.53,0.176586,0.176308,0.796223,4,0.0168588,11,0.00014038,-3.09897,-0.106238,-0.555359,-17.2561,0.176308,
2,1,0,1,0,4791.68,0.178084,0.177766,0.769764,4,0.0169785,11,0.000136838,-3.11364,-0.116931,-0.504569,-15.2688,0.177766,
2,1,0,1,0,4791.83,0.179582,0.179304,0.751817,4,0.0170946,11,0.000134804,-3.12389,-0.128387,-0.459548,-13.5309,0.179304,
2,1,0,1,0,4791.98,0.181081,0.180794,0.733653,4,0.017208,11,0.00013264,-3.13451,-0.135613,-0.435063,-12.5048,0.180794,
2,1,0,1,0,4792.13,0.182579,0.182327,0.71489,4,0.0173188,11,0.000130343,-3.14576,-0.130296,-0.452817,-12.6541,0.182327,
2,1,0,1,0,4792.28,0.184077,0.183802,0.702572,4,0.017427,11,0.000129134,-3.15331,-0.157597,-0.374373,-10.2824,0.183802,
2,1,0,1,0,4792.43,0.185576,0.185262,0.687153,4,0.0175328,11,0.000127304,-3.16295,-0.179136,-0.329359,-8.83966,0.185262,
2,1,0,1,0,4792.58,0.187074,0.186769,0.677928,4,0.0176368,11,0.000126616,-3.16882,-0.203951,-0.289285,-7.6273,0.186769,
2,1,0,1,0,4792.73,0.188571,0.188294,0.663155,4,0.0177391,11,0.000124868,-3.17838,-0.219332,-0.268998,-6.95239,0.188294,
2,1,0,1,0,4792.88,0.19007,0.189753,0.652571,4,0.0178397,11,0.000123827,-3.18537,-0.223228,-0.264304,-6.7374,0.189753,
2,1,0,1,0,4793.03,0.191568,0.191258,0.641349,4,0.0179384,11,0.000122663,-3.19291,-0.229895,-0.256639,-6.42245,0.191258,
2,1,0,1,0,4793.18,0.193066,0.192764,0.633274,4,0.018036,11,0.000122073,-3.19841,-0.344615,-0.171206,-4.21904,0.192764,
2,1,0,1,0,4793.33,0.194564,0.194297,0.624476,4,0.0181324,11,0.000121334,-3.20448,-0.264481,-0.223078,-5.44106,0.194297,
2,1,0,1,0,4793.48,0.196063,0.195774,0.617658,4,0.0182275,11,0.000120921,-3.20925,-0.245199,-0.240621,-5.80685,0.195774,
2,1,0,1,0,4793.63,0.197561,0.197276,0.606557,4,0.0183213,11,0.000119659,-3.21713,-0.301544,-0.19566,-4.65763,0.197276,
2,1,0,1,0,4793.78,0.199059,0.198758,0.605513,4,0.0184142,11,0.00012035,-3.21788,-0.3051,-0.19338,-4.55488,0.1987575,
2,1,0,1,0,4793.93,0.200557,0.200268,0.598492,4,0.0185062,11,0.000119859,-3.22294,-0.335383,-0.175918,-4.10225,0.200268,
2,1,0,1,0,4794.08,0.202056,0.201754,0.592492,4,0.0185974,11,0.000119538,-3.22732,-0.322267,-0.183078,-4.22198,0.201754,
2,1,0,1,0,4794.23,0.203553,0.203258,0.584207,4,0.0186876,11,0.000118745,-3.23343,-0.400719,-0.147235,-3.37445,0.203258,
2,1,0,1,0,4794.38,0.205051,0.204722,0.580272,4,0.0187769,11,0.000118794,-3.23637,-1.32341,-0.0445818,-1.01823,0.204722,
2,1,0,1,0,4794.53,0.20655,0.206301,0.576744,4,0.0188658,11,0.000118983,-3.23902,-0.554934,-0.106319,-2.39581,0.206301,
2,1,0,1,0,4794.67,0.208048,0.207746,0.56972,4,0.0189543,11,0.000118357,-3.24434,-0.312623,-0.188726,-4.21029,0.207746,
2,1,0,1,0,4794.82,0.209546,0.20927,0.568407,4,0.0190419,11,0.000118951,-3.24534,-0.457942,-0.128837,-2.8609,0.2092704,
2,1,0,1,0,4794.97,0.211044,0.210777,0.562839,4,0.0191285,11,0.000118634,-3.24962,-0.440716,-0.133873,-2.94569,0.210777,
2,1,0,1,0,4795.12,0.212543,0.212268,0.560686,4,0.0192148,11,0.000119016,-3.25128,-0.423691,-0.139252,-3.03952,0.212268,
2,1,0,1,0,4795.27,0.214041,0.213772,0.557715,4,0.0193006,11,0.000119224,-3.25359,-0.608937,-0.0968901,-2.10453,0.213772,
2,1,0,1,0,4795.42,0.215539,0.215227,0.554092,4,0.0193858,11,0.000119255,-3.25642,-0.457009,-0.1291,-2.79133,0.215227,
2,1,0,1,0,4795.57,0.217038,0.216738,0.551359,4,0.0194704,11,0.000119501,-3.25857,-0.692995,-0.0851377,-1.83203,0.216738,
2,1,0,1,0,4795.72,0.218535,0.218245,0.547511,4,0.0195548,11,0.000119491,-3.26161,-5.3183,-0.0110938,-0.236399,0.218245,
2,1,0,1,0,4795.87,0.220033,0.219781,0.545444,4,0.0196387,11,0.000119878,-3.26325,-0.652577,-0.0904107,-1.9235,0.219781,
2,1,0,1,0,4796.02,0.221532,0.221241,0.54212,4,0.0197223,11,0.000119939,-3.2659,-0.673885,-0.0875521,-1.85825,0.221241,
2,1,0,1,0,4796.17,0.22303,0.222785,0.535094,4,0.0198053,11,0.000119211,-3.27157,-0.713212,-0.0827243,-1.7396,0.222785,
2,1,0,1,0,4796.32,0.224528,0.224217,0.536051,4,0.0198879,11,0.000120192,-3.27079,-0.644185,-0.0915886,-1.91835,0.2242168,
2,1,0,1,0,4796.47,0.226026,0.225732,0.536099,4,0.0199702,11,0.000121015,-3.27076,-0.939877,-0.0627742,-1.30724,0.225732,
2,1,0,1,0,4796.62,0.227525,0.227245,0.532608,4,0.0200523,11,0.000121033,-3.27359,-0.546609,-0.107938,-2.23901,0.227245,
2,1,0,1,0,4796.77,0.229023,0.228741,0.529175,4,0.0201339,11,0.000121044,-3.2764,-0.710368,-0.0830555,-1.72193,0.228741,
2,1,0,1,0,4796.92,0.230521,0.230212,0.527381,4,0.0202151,11,0.00012141,-3.27788,-0.852856,-0.0691794,-1.43234,0.230212,
2,1,0,1,0,4797.07,0.232019,0.231724,0.526638,4,0.0202961,11,0.000122035,-3.27849,-0.748256,-0.07885,-1.61888,0.2317245,
2,1,0,1,0,4797.22,0.233518,0.23323,0.527227,4,0.0203769,11,0.000122965,-3.278,-0.648045,-0.0910431,-1.86027,0.23323,
2,1,0,1,0,4797.37,0.235015,0.23476,0.52333,4,0.0204574,11,0.000122857,-3.28122,-1.42285,-0.041466,-0.844054,0.23476,
2,1,0,1,0,4797.52,0.236513,0.236225,0.522563,4,0.0205374,11,0.000123442,-3.28186,-1.18292,-0.0498765,-1.01445,0.2362251,
2,1,0,1,0,4797.67,0.238012,0.23765,0.51818,4,0.0206174,11,0.000123146,-3.28552,-3.01441,-0.0195727,-0.395311,0.23765,
2,1,0,1,0,4797.82,0.23951,0.239213,0.517586,4,0.0206971,11,0.000123813,-3.28602,-1.31953,-0.044713,-0.901706,0.239213,
2,1,0,1,0,4797.97,0.241008,0.24071,0.514912,4,0.0207765,11,0.000123945,-3.28827,-0.620138,-0.0951401,-1.91636,0.24071,
2,1,0,1,0,4798.12,0.242506,0.242226,0.511859,4,0.0208555,11,0.000123986,-3.29085,-1.7625,-0.0334751,-0.671711,0.242226,
2,1,0,1,0,4798.27,0.244005,0.243688,0.511717,4,0.0209344,11,0.000124699,-3.29097,-2.49811,-0.0236178,-0.47018,0.243688,
2,1,0,1,0,4798.42,0.245503,0.245214,0.512062,4,0.0210132,11,0.000125565,-3.29068,-1.0937,-0.0539454,-1.07613,0.245214,
2,1,0,1,0,4798.57,0.247001,0.246722,0.509674,4,0.0210917,11,0.000125748,-3.29271,-0.79884,-0.0738571,-1.4642,0.246722,
2,1,0,1,0,4798.72,0.2485,0.248229,0.505922,4,0.02117,11,0.000125584,-3.29592,-1.16408,-0.0506839,-1.00312,0.248229,
2,1,0,1,0,4798.87,0.249997,0.249698,0.505639,4,0.021248,11,0.000126257,-3.29616,-1.50429,-0.0392213,-0.77414,0.2496985,
2,1,0,1,0,4799.02,0.251495,0.251194,0.506319,4,0.0213259,11,0.000127184,-3.29558,-1.05195,-0.0560864,-1.10676,0.251194,
2,1,0,1,0,4799.17,0.252994,0.252721,0.503819,4,0.0214036,11,0.000127325,-3.29773,-0.652689,-0.0903952,-1.77604,0.252721,
2,1,0,1,0,4799.32,0.254492,0.254227,0.503325,4,0.0214811,11,0.000127959,-3.29815,-1.12915,-0.0522515,-1.02607,0.254227,
2,1,0,1,0,4799.47,0.25599,0.2557,0.50164,4,0.0215583,11,0.000128269,-3.29961,93.9908,0.000627721,0.0123162,0.2557,
2,1,0,1,0,4799.62,0.257488,0.257209,0.500678,4,0.0216354,11,0.000128779,-3.30044,-1.2074,-0.0488652,-0.955366,0.257209,
2,1,0,1,0,4799.77,0.258987,0.258725,0.498954,4,0.0217124,11,0.000129092,-3.30194,-1.74658,-0.0337804,-0.65624,0.258725,
2,1,0,1,0,4799.92,0.260485,0.260213,0.498459,4,0.0217893,11,0.000129706,-3.30237,-1.02847,-0.0573669,-1.11582,0.260213,
2,1,0,1,0,4800.07,0.261983,0.261689,0.497282,4,0.0218657,11,0.000130133,-3.3034,-0.93523,-0.0630861,-1.2215,0.261689,
2,1,0,1,0,4800.22,0.263481,0.263246,0.496812,4,0.0219421,11,0.000130784,-3.30381,-2.24644,-0.0262638,-0.507654,0.263246,
2,1,0,1,0,4800.37,0.26498,0.264729,0.495193,4,0.0220184,11,0.000131092,-3.30523,-1.74617,-0.0337882,-0.652645,0.264729,
2,1,0,1,0,4800.52,0.266477,0.2662,0.49483,4,0.0220945,11,0.000131724,-3.30554,-2.04197,-0.0288936,-0.558538,0.2662,
2,1,0,1,0,4800.67,0.267976,0.267702,0.489501,4,0.0221703,11,0.00013104,-3.31025,-1.61818,-0.0364607,-0.699894,0.267702,
2,1,0,1,0,4800.82,0.269474,0.269183,0.491121,4,0.022246,11,0.000132202,-3.30881,-5.41561,-0.0108944,-0.208638,0.269183,
2,1,0,1,0,4800.97,0.270972,0.270674,0.494685,4,0.0223217,11,0.000133898,-3.30567,-1.72531,-0.0341968,-0.65202,0.270674,
2,1,0,1,0,4801.12,0.27247,0.272182,0.491081,4,0.0223972,11,0.000133663,-3.30885,-1.77378,-0.0332624,-0.634973,0.2721822,
2,1,0,1,0,4801.27,0.273968,0.273685,0.484702,4,0.0224725,11,0.000132655,-3.31453,-0.892727,-0.0660897,-1.2538,0.2736848,
2,1,0,1,0,4801.42,0.275467,0.275166,0.487065,4,0.0225475,11,0.000134024,-3.31241,-1.10218,-0.0535301,-1.0199,0.275166,
2,1,0,1,0,4801.57,0.276965,0.276697,0.486481,4,0.0226225,11,0.000134608,-3.31293,-1.86877,-0.0315716,-0.59996,0.2766974,
2,1,0,1,0,4801.72,0.278463,0.278195,0.486084,4,0.0226974,11,0.000135226,-3.31329,-0.551986,-0.106887,-2.01996,0.2781947,
2,1,0,1,0,4801.87,0.279962,0.279714,0.484564,4,0.0227722,11,0.000135539,-3.31465,-1.48771,-0.0396582,-0.750084,0.279714,
2,1,0,1,0,4802.02,0.281459,0.281157,0.484303,4,0.0228466,11,0.000136165,-3.31488,-26.4622,-0.00222959,-0.0421707,0.281157,
2,1,0,1,0,4802.17,0.282957,0.282672,0.483849,4,0.0229209,11,0.000136771,-3.31529,-2.07847,-0.0283863,-0.534165,0.282672,
2,1,0,1,0,4802.32,0.284456,0.28419,0.482409,4,0.0229954,11,0.000137096,-3.31658,-32.8138,-0.00179802,-0.0337639,0.28419,
2,1,0,1,0,4802.47,0.285954,0.285636,0.480276,4,0.0230695,11,0.000137184,-3.31851,-3.45306,-0.0170863,-0.32078,0.285636,
2,1,0,1,0,4802.62,0.287452,0.287207,0.479532,4,0.0231434,11,0.000137725,-3.31918,-1.67732,-0.0351751,-0.658889,0.287207,
2,1,0,1,0,4802.77,0.28895,0.288664,0.4772,4,0.0232173,11,0.00013775,-3.3213,16.4088,0.00359562,0.0669176,0.288664,
2,1,0,1,0,4802.91,0.290449,0.29016,0.47768,4,0.023291,11,0.000138604,-3.32086,-1.61529,-0.0365259,-0.681481,0.29016,
2,1,0,1,0,4803.06,0.291947,0.29166,0.477354,4,0.0233647,11,0.000139225,-3.32116,-1.02781,-0.0574036,-1.0687,0.29166,
2,1,0,1,0,4803.21,0.293445,0.293143,0.474454,4,0.023438,11,0.000139083,-3.32381,-0.907953,-0.0649813,-1.2062,0.293143,
2,1,0,1,0,4803.36,0.294943,0.294642,0.477289,4,0.0235113,11,0.000140629,-3.32122,4.70329,0.0125444,0.232379,0.294642,
2,1,0,1,0,4803.51,0.296442,0.296149,0.47888,4,0.0235846,11,0.00014182,-3.31977,-3.77591,-0.0156254,-0.28918,0.296149,
2,1,0,1,0,4803.66,0.297939,0.297665,0.474952,4,0.0236579,11,0.000141377,-3.32335,-1.80594,-0.03267,-0.601997,0.297665,
2,1,0,1,0,4803.81,0.299437,0.299154,0.470848,4,0.0237308,11,0.000140856,-3.32712,-0.00109455,-53.9032,-277.481,0.299154,
2,1,0,1,0,4803.9,0.299738,0.299432,0.101016,4,0.0237624,11,3.02474e-05,-3.99561,0.00130827,45.0979,453.345,0.299432,
2,0,0,1,0,4804.05,0.29824,0.297944,-0.0470804,4,0.0237588,11,-1.40273e-05,-4.32716,0.00542771,10.8701,140.619,0.297944,
2,0,0,1,0,4804.2,0.296741,0.296459,-0.0758229,4,0.0237473,11,-2.24784e-05,-4.1202,-0.00843476,-6.99486,16.9139,0.296459,
2,0,0,1,0,4804.35,0.295243,0.294988,-0.0958723,4,0.023732,11,-2.82812e-05,-4.01831,-0.0183256,-3.21955,11.2574,0.294988,
2,0,0,1,0,4804.5,0.293745,0.293461,-0.111889,4,0.0237143,11,-3.28352e-05,-3.95121,-0.0253489,-2.32752,9.67353,0.293461,
2,0,0,1,0,4804.65,0.292246,0.291955,-0.125285,4,0.0236946,11,-3.65775e-05,-3.9021,-0.033633,-1.75423,8.36754,0.291955,
2,0,0,1,0,4804.8,0.290748,0.290453,-0.135187,4,0.0236731,11,-3.92655e-05,-3.86907,-0.0444088,-1.32856,6.87743,0.290453,
2,0,0,1,0,4804.95,0.28925,0.288974,-0.145394,4,0.0236499,11,-4.20152e-05,-3.83745,-0.0586078,-1.00669,5.7113,0.288974,
2,0,0,1,0,4805.1,0.287752,0.287457,-0.154237,4,0.0236255,11,-4.43367e-05,-3.81181,-0.0661767,-0.891553,5.38087,0.287457,
2,0,0,1,0,4805.25,0.286253,0.285966,-0.161187,4,0.0235999,11,-4.60939e-05,-3.79267,-0.0675037,-0.874026,5.48782,0.285966,
2,0,0,1,0,4805.4,0.284755,0.284466,-0.168264,4,0.023573,11,-4.78654e-05,-3.77401,-0.0628612,-0.938575,6.12314,0.284466,
2,0,0,1,0,4805.55,0.283258,0.282986,-0.177665,4,0.023545,11,-5.02767e-05,-3.7504,-0.0817739,-0.721502,4.93779,0.282986,
2,0,0,1,0,4805.7,0.281759,0.281448,-0.181822,4,0.023516,11,-5.11735e-05,-3.74035,-0.0952577,-0.619373,4.39995,0.281448,
2,0,0,1,0,4805.85,0.280261,0.279974,-0.185218,4,0.0234862,11,-5.18561e-05,-3.73232,-0.10099,-0.584219,4.27595,0.279974,
2,0,0,1,0,4806,0.278763,0.278482,-0.194765,4,0.0234555,11,-5.42385e-05,-3.71049,-0.103873,-0.568,4.29418,0.278482,
2,0,0,1,0,4806.15,0.277264,0.276982,-0.199637,4,0.0234238,11,-5.52957e-05,-3.69976,-0.123764,-0.476713,3.71321,0.276982,
2,0,0,1,0,4806.3,0.275766,0.275436,-0.206096,4,0.0233913,11,-5.67661e-05,-3.68593,-0.265528,-0.222198,1.7668,0.275436,
2,0,0,1,0,4806.45,0.274268,0.273942,-0.210302,4,0.023358,11,-5.76106e-05,-3.67716,-0.165546,-0.356395,2.93989,0.273942,
2,0,0,1,0,4806.6,0.27277,0.272435,-0.215768,4,0.0233242,11,-5.87827e-05,-3.66601,-0.134441,-0.438853,3.73004,0.272435,
2,0,0,1,0,4806.75,0.271272,0.270987,-0.22082,4,0.0232894,11,-5.98395e-05,-3.65596,-0.199696,-0.295449,2.54532,0.270987,
2,0,0,1,0,4806.9,0.269773,0.269461,-0.226718,4,0.0232538,11,-6.10917e-05,-3.64451,-0.175871,-0.335473,2.93973,0.269461,
2,0,0,1,0,4807.05,0.268275,0.26792,-0.231757,4,0.0232176,11,-6.20922e-05,-3.63497,-0.170626,-0.345786,3.09162,0.26792,
2,0,0,1,0,4807.2,0.266778,0.266486,-0.235279,4,0.0231809,11,-6.26987e-05,-3.62842,-0.162666,-0.362706,3.31532,0.266486,
2,0,0,1,0,4807.35,0.265279,0.264962,-0.239187,4,0.0231435,11,-6.33754e-05,-3.62126,-0.153285,-0.384904,3.56148,0.264962,
2,0,0,1,0,4807.49,0.263781,0.263455,-0.242403,4,0.0231052,11,-6.38624e-05,-3.61546,-0.194939,-0.302659,2.88045,0.263455,
2,0,0,1,0,4807.64,0.262283,0.261965,-0.245794,4,0.0230665,11,-6.43894e-05,-3.60943,-0.261655,-0.225487,2.1723,0.261965,
2,0,0,1,0,4807.79,0.260784,0.260532,-0.248445,4,0.0230272,11,-6.47278e-05,-3.60477,-0.225673,-0.26144,2.5668,0.260532,
2,0,0,1,0,4807.94,0.259286,0.258997,-0.255081,4,0.0229873,11,-6.60652e-05,-3.59332,-0.210563,-0.280201,2.77426,0.258997,
2,0,0,1,0,4808.09,0.257788,0.257535,-0.262725,4,0.0229466,11,-6.76609e-05,-3.5805,-0.235955,-0.250048,2.53685,0.2575348,
2,0,0,1,0,4808.24,0.25629,0.256012,-0.262709,4,0.0229054,11,-6.72566e-05,-3.58053,-0.290658,-0.202988,2.07325,0.256012,
2,0,0,1,0,4808.39,0.254791,0.254487,-0.265124,4,0.0228636,11,-6.74705e-05,-3.57655,-0.213827,-0.275924,2.87017,0.254487,
2,0,0,1,0,4808.54,0.253293,0.252974,-0.271412,4,0.0228214,11,-6.86602e-05,-3.56637,-0.243849,-0.241954,2.54796,0.252974,
2,0,0,1,0,4808.69,0.251796,0.251472,-0.273359,4,0.0227785,11,-6.8742e-05,-3.56327,-0.264067,-0.223428,2.39837,0.251472,
2,0,0,1,0,4808.84,0.250297,0.250012,-0.276515,4,0.0227351,11,-6.91321e-05,-3.55828,-0.356851,-0.165335,1.78385,0.250012,
2,0,0,1,0,4808.99,0.248799,0.248496,-0.281664,4,0.0226911,11,-6.99924e-05,-3.55027,-0.252496,-0.233667,2.5791,0.248496,
2,0,0,1,0,4809.14,0.247301,0.247016,-0.283854,4,0.0226467,11,-7.01164e-05,-3.5469,-0.208275,-0.283279,3.15591,0.247016,
2,0,0,1,0,4809.29,0.245802,0.245449,-0.289947,4,0.0226016,11,-7.11673e-05,-3.53768,-0.254374,-0.231942,2.60388,0.245449,
2,0,0,1,0,4809.44,0.244304,0.24401,-0.291956,4,0.0225558,11,-7.12403e-05,-3.53468,-0.287374,-0.205307,2.33605,0.24401,
2,0,0,1,0,4809.59,0.242806,0.242544,-0.297456,4,0.0225096,11,-7.21462e-05,-3.52658,-0.33239,-0.177502,2.05608,0.242544,
2,0,0,1,0,4809.74,0.241308,0.241054,-0.301049,4,0.022463,11,-7.2569e-05,-3.52136,-0.319714,-0.18454,2.16183,0.241054,
2,0,0,1,0,4809.89,0.23981,0.239511,-0.304122,4,0.0224158,11,-7.28405e-05,-3.51695,-0.224923,-0.262312,3.10154,0.239511,
2,0,0,1,0,4810.04,0.238311,0.238026,-0.308026,4,0.022368,11,-7.33182e-05,-3.51141,-0.244067,-0.241736,2.89415,0.238026,
2,0,0,1,0,4810.19,0.236814,0.236492,-0.310362,4,0.0223196,11,-7.33983e-05,-3.50813,-0.257832,-0.228831,2.78526,0.236492,
2,0,0,1,0,4810.34,0.235316,0.235047,-0.310697,4,0.0222709,11,-7.30281e-05,-3.50766,-0.298435,-0.197698,2.42591,0.235047,
2,0,0,1,0,4810.49,0.233817,0.233488,-0.31868,4,0.0222214,11,-7.44078e-05,-3.49665,-0.246178,-0.239664,2.96537,0.233488,
2,0,0,1,0,4810.64,0.232319,0.232007,-0.322744,4,0.0221714,11,-7.48787e-05,-3.49114,-0.272859,-0.216229,2.70435,0.232007,
2,0,0,1,0,4810.79,0.230821,0.230537,-0.325664,4,0.0221208,11,-7.50776e-05,-3.48723,-0.342489,-0.172268,2.1839,0.230537,
2,0,0,1,0,4810.94,0.229322,0.229002,-0.326135,4,0.0220698,11,-7.46857e-05,-3.4866,-0.358509,-0.164571,2.11051,0.229002,
2,0,0,1,0,4811.09,0.227824,0.227517,-0.333217,4,0.0220183,11,-7.58125e-05,-3.47727,-0.290417,-0.203156,2.65696,0.227517,
2,0,0,1,0,4811.24,0.226326,0.226057,-0.336172,4,0.0219661,11,-7.5994e-05,-3.47344,-0.410523,-0.143719,1.88878,0.226057,
2,0,0,1,0,4811.39,0.224828,0.22453,-0.341008,4,0.0219132,11,-7.65664e-05,-3.46724,-0.445,-0.132584,1.76278,0.22453,
2,0,0,1,0,4811.54,0.223329,0.223033,-0.344117,4,0.0218599,11,-7.67492e-05,-3.46329,-0.281696,-0.209446,2.82169,0.223033,
2,0,0,1,0,4811.69,0.221831,0.221531,-0.349856,4,0.0218061,11,-7.7504e-05,-3.45611,-0.303622,-0.194321,2.64339,0.221531,
2,0,0,1,0,4811.84,0.220334,0.220038,-0.352508,4,0.0217515,11,-7.75654e-05,-3.45283,-0.262758,-0.224542,3.07831,0.220038,
2,0,0,1,0,4811.99,0.218835,0.218585,-0.356909,4,0.0216962,11,-7.8015e-05,-3.44744,-0.290975,-0.202767,2.81996,0.218585,
2,0,0,1,0,4812.14,0.217337,0.21702,-0.36145,4,0.0216404,11,-7.84417e-05,-3.44195,-0.313074,-0.188454,2.65271,0.21702,
2,0,0,1,0,4812.29,0.215839,0.215558,-0.364925,4,0.0215842,11,-7.86623e-05,-3.4378,-0.311616,-0.189336,2.71026,0.215558,
2,0,0,1,0,4812.44,0.21434,0.214019,-0.367756,4,0.0215272,11,-7.87067e-05,-3.43444,-0.229771,-0.256777,3.68262,0.2140189,
2,0,0,1,0,4812.59,0.212842,0.212523,-0.374297,4,0.0214694,11,-7.95466e-05,-3.42678,-0.249796,-0.236193,3.45113,0.212523,
2,0,0,1,0,4812.74,0.211344,0.21106,-0.37888,4,0.0214108,11,-7.99666e-05,-3.4215,-0.268236,-0.219955,3.25484,0.21106,
2,0,0,1,0,4812.89,0.209846,0.209554,-0.379779,4,0.0213518,11,-7.9584e-05,-3.42047,-0.305208,-0.193311,2.89615,0.2095535,
2,0,0,1,0,4813.04,0.208348,0.208038,-0.390655,4,0.0212919,11,-8.12711e-05,-3.40821,-0.238436,-0.247446,3.76003,0.2080382,
2,0,0,1,0,4813.19,0.206849,0.20654,-0.401483,4,0.0212311,11,-8.29223e-05,-3.39633,-0.256165,-0.23032,3.54102,0.20654,
2,0,0,1,0,4813.34,0.205352,0.205045,-0.39887,4,0.0211693,11,-8.17862e-05,-3.39917,-0.282956,-0.208513,3.23814,0.205045,
2,0,0,1,0,4813.49,0.203854,0.203558,-0.404685,4,0.0211071,11,-8.23769e-05,-3.39288,-0.269914,-0.218588,3.46515,0.203558,
2,0,0,1,0,4813.64,0.202355,0.202023,-0.408131,4,0.021044,11,-8.24516e-05,-3.3892,-0.215929,-0.273238,4.38854,0.202023,
2,0,0,1,0,4813.79,0.200857,0.200566,-0.415786,4,0.02098,11,-8.33923e-05,-3.38113,-0.233479,-0.2527,4.11959,0.200566,
2,0,0,1,0,4813.94,0.199359,0.199054,-0.42212,4,0.0209151,11,-8.40248e-05,-3.37456,-0.255461,-0.230955,3.80966,0.199054,
2,0,0,1,0,4814.09,0.19786,0.197543,-0.430361,4,0.0208491,11,-8.50149e-05,-3.36617,-0.222647,-0.264993,4.44421,0.197543,
2,0,0,1,0,4814.24,0.196362,0.196039,-0.437618,4,0.0207824,11,-8.579e-05,-3.3589,-0.220154,-0.267994,4.55719,0.196039,
2,0,0,1,0,4814.39,0.194864,0.194502,-0.444944,4,0.0207144,11,-8.65425e-05,-3.35169,-0.173501,-0.340057,5.88428,0.1945021,
2,0,0,1,0,4814.54,0.193366,0.193032,-0.451164,4,0.020645,11,-8.70892e-05,-3.34567,-0.196397,-0.300412,5.3036,0.193032,
2,0,0,1,0,4814.69,0.191867,0.191552,-0.459798,4,0.0205746,11,-8.80754e-05,-3.33743,-0.231751,-0.254583,4.59419,0.1915524,
2,0,0,1,0,4814.84,0.190369,0.190043,-0.467693,4,0.0205031,11,-8.88817e-05,-3.33004,-0.180654,-0.326591,5.99447,0.190043,
2,0,0,1,0,4814.99,0.188872,0.188583,-0.478757,4,0.0204302,11,-9.02854e-05,-3.31989,-0.143938,-0.409898,7.63967,0.188583,
2,0,0,1,0,4815.14,0.187373,0.187094,-0.488663,4,0.0203557,11,-9.1426e-05,-3.31099,-0.160101,-0.368518,7.03358,0.187094,
2,0,0,1,0,4815.29,0.185875,0.185557,-0.499012,4,0.0202797,11,-9.25949e-05,-3.30189,-0.154575,-0.381691,7.41923,0.185557,
2,0,0,1,0,4815.44,0.184377,0.184072,-0.50619,4,0.0202021,11,-9.31754e-05,-3.29569,-0.158709,-0.37175,7.39515,0.184072,
2,0,0,1,0,4815.59,0.182878,0.182592,-0.521181,4,0.0201229,11,-9.51633e-05,-3.28301,-0.139299,-0.423549,8.64009,0.182592,
2,0,0,1,0,4815.73,0.18138,0.181089,-0.538356,4,0.0200416,11,-9.74904e-05,-3.26893,-0.137717,-0.428414,8.96736,0.181089,
2,0,0,1,0,4815.88,0.179882,0.179558,-0.549866,4,0.0199581,11,-9.87328e-05,-3.25974,-0.143327,-0.411646,8.80415,0.1795578,
2,0,0,1,0,4816.03,0.178384,0.178097,-0.565954,4,0.0198726,11,-0.000100794,-3.24722,-0.125593,-0.46977,10.3719,0.178097,
2,0,0,1,0,4816.18,0.176886,0.176559,-0.582861,4,0.0197849,11,-0.000102909,-3.23444,-0.117244,-0.503225,11.4444,0.176559,
2,0,0,1,0,4816.33,0.175387,0.175045,-0.601553,4,0.0196943,11,-0.000105299,-3.22073,-0.10618,-0.555658,13.0364,0.175045,
2,0,0,1,0,4816.48,0.17389,0.173583,-0.62051,4,0.019601,11,-0.00010771,-3.20725,-0.100681,-0.586011,14.1723,0.173583,
2,0,0,1,0,4816.63,0.172392,0.172065,-0.641473,4,0.0195045,11,-0.000110375,-3.19282,-0.097837,-0.603044,15.0998,0.172065,
2,0,0,1,0,4816.78,0.170893,0.170581,-0.663174,4,0.019405,11,-0.000113125,-3.17837,-0.090168,-0.654334,16.9771,0.170581,
2,0,0,1,0,4816.93,0.169395,0.169082,-0.691479,4,0.0193016,11,-0.000116917,-3.16022,-0.0829262,-0.711476,19.1158,0.169082,
2,0,0,1,0,4817.08,0.167897,0.167594,-0.718182,4,0.0191939,11,-0.000120363,-3.14377,-0.0836375,-0.705426,19.8127,0.1675943,
2,0,0,1,0,4817.23,0.166398,0.166115,-0.747719,4,0.0190819,11,-0.000124207,-3.12626,-0.0861217,-0.685077,20.1516,0.166115,
2,0,0,1,0,4817.38,0.1649,0.164627,-0.779317,4,0.0189653,11,-0.000128297,-3.10829,-0.0774064,-0.76221,23.3528,0.164627,
2,0,0,1,0,4817.53,0.163402,0.16308,-0.822292,4,0.0188433,11,-0.000134099,-3.08497,-0.0703681,-0.838448,26.909,0.16308,
2,0,0,1,0,4817.68,0.161904,0.161581,-0.865309,4,0.0187152,11,-0.000139817,-3.06283,-0.0678942,-0.868999,29.258,0.161581,
2,0,0,1,0,4817.83,0.160405,0.160113,-0.907802,4,0.0185805,11,-0.000145351,-3.04201,-0.0696334,-0.847294,29.9952,0.1601131,
2,0,0,1,0,4817.98,0.158907,0.158602,-0.949964,4,0.018439,11,-0.000150666,-3.02229,-0.0659631,-0.89444,33.3548,0.158602,
2,0,0,1,0,4818.13,0.15741,0.157143,-1.00781,4,0.0182902,11,-0.000158371,-2.99662,-0.0620322,-0.951119,37.5848,0.157143,
2,0,0,1,0,4818.28,0.155911,0.155625,-1.06271,4,0.018133,11,-0.000165385,-2.97358,-0.0645814,-0.913576,37.9419,0.155625,
2,0,0,1,0,4818.43,0.154413,0.154108,-1.12231,4,0.0179668,11,-0.000172957,-2.94989,-0.0678618,-0.869413,37.9772,0.154108,
2,0,0,1,0,4818.58,0.152915,0.152598,-1.18298,4,0.0177921,11,-0.00018052,-2.92702,-0.067504,-0.874022,40.3106,0.152598,
2,0,0,1,0,4818.73,0.151417,0.151107,-1.24367,4,0.0176087,11,-0.000187928,-2.90529,-0.0709527,-0.831539,40.3169,0.151107,
2,0,0,1,0,4818.88,0.149918,0.149601,-1.30691,4,0.0174157,11,-0.000195516,-2.88375,-0.0714098,-0.826217,41.9713,0.149601,
2,0,0,1,0,4819.03,0.14842,0.14811,-1.36906,4,0.0172133,11,-0.000202772,-2.86358,-0.0788761,-0.748009,39.8346,0.14811,
2,0,0,1,0,4819.18,0.146922,0.146622,-1.42863,4,0.0170017,11,-0.000209468,-2.84508,-0.0855727,-0.689473,38.3063,0.146622,
2,0,0,1,0,4819.33,0.145424,0.145158,-1.48169,4,0.016782,11,-0.000215079,-2.82924,-0.0943484,-0.625342,36.1452,0.145158,
2,0,0,1,0,4819.48,0.143925,0.143614,-1.5359,4,0.0165536,11,-0.000220576,-2.81364,-0.0945903,-0.623743,37.3002,0.143614,
2,0,0,1,0,4819.63,0.142428,0.1421,-1.58861,4,0.0163173,11,-0.000225742,-2.79898,-0.114993,-0.513077,31.6623,0.1421,
2,0,0,1,0,4819.78,0.14093,0.140641,-1.62879,4,0.0160738,11,-0.000229075,-2.78813,-0.142196,-0.414921,26.3242,0.140641,
2,0,0,1,0,4819.93,0.139431,0.139127,-1.66274,4,0.0158245,11,-0.000231331,-2.77918,-0.159522,-0.369854,24.0021,0.139127,
2,0,0,1,0,4820.08,0.137933,0.137607,-1.70094,4,0.0155703,11,-0.000234061,-2.76931,-0.204582,-0.288393,19.0929,0.137607,
2,0,0,1,0,4820.23,0.136435,0.136152,-1.72812,4,0.0153113,11,-0.000235287,-2.76243,-0.255209,-0.231183,15.5157,0.136152,
2,0,0,1,0,4820.38,0.134936,0.134634,-1.74965,4,0.0150487,11,-0.000235562,-2.75705,-0.431475,-0.13674,9.27344,0.134634,
2,0,0,1,0,4820.53,0.133438,0.133132,-1.75741,4,0.0147839,11,-0.000233968,-2.75513,-0.674548,-0.0874659,5.99166,0.133132,
2,0,0,1,0,4820.68,0.13194,0.13165,-1.76506,4,0.0145181,11,-0.00023237,-2.75324,-1.61973,-0.0364258,2.50839,0.13165,
2,0,0,1,0,4820.83,0.130442,0.130128,-1.76797,4,0.0142512,11,-0.000230062,-2.75253,3.58558,0.0164548,-1.13211,0.130128,
2,0,0,1,0,4820.98,0.128943,0.128668,-1.76668,4,0.0139842,11,-0.000227315,-2.75284,0.737988,0.0799471,-5.48248,0.128668,
2,0,0,1,0,4821.13,0.127445,0.127143,-1.75497,4,0.0137186,11,-0.000223132,-2.75573,0.445912,0.132313,-9.0278,0.127143,
2,0,0,1,0,4821.28,0.125948,0.125647,-1.73654,4,0.0134555,11,-0.000218191,-2.76032,0.326271,0.180831,-12.2286,0.125647,
2,0,0,1,0,4821.43,0.124449,0.124151,-1.71743,4,0.0131948,11,-0.000213219,-2.76512,0.294553,0.200303,-13.3567,0.124151,
2,0,0,1,0,4821.58,0.122951,0.122677,-1.69216,4,0.0129373,11,-0.000207589,-2.77156,0.231959,0.254356,-16.7523,0.122677,
2,0,0,1,0,4821.73,0.121453,0.121098,-1.66204,4,0.012684,11,-0.000201269,-2.77936,0.187332,0.314949,-20.4206,0.121098,
2,0,0,1,0,4821.88,0.119955,0.119652,-1.62835,4,0.0124352,11,-0.000194836,-2.78825,0.177752,0.331923,-21.1401,0.119652,
2,0,0,1,0,4822.03,0.118456,0.118153,-1.59831,4,0.0121914,11,-0.000188845,-2.79634,0.173692,0.339682,-21.1894,0.118153,
2,0,0,1,0,4822.18,0.116958,0.116592,-1.5688,4,0.0119521,11,-0.000182909,-2.80443,0.154781,0.381185,-23.2583,0.116592,
2,0,0,1,0,4822.33,0.11546,0.115148,-1.53196,4,0.011718,11,-0.000176401,-2.81475,0.134921,0.437294,-26.0499,0.115148,
2,0,0,1,0,4822.48,0.113962,0.113636,-1.48769,4,0.0114897,11,-0.000169055,-2.82749,0.14436,0.4087,-23.8312,0.1136355,
2,0,0,1,0,4822.63,0.112463,0.11217,-1.45656,4,0.0112671,11,-0.000163382,-2.83667,0.1421,0.415201,-23.6217,0.1121695,
2,0,0,1,0,4822.78,0.110966,0.110683,-1.4248,4,0.0110493,11,-0.000157701,-2.84625,0.148395,0.397586,-22.0973,0.110683,
2,0,0,1,0,4822.93,0.109468,0.109161,-1.38871,4,0.0108366,11,-0.000151593,-2.85739,0.139444,0.42311,-22.9266,0.109161,
2,0,0,1,0,4823.08,0.107969,0.107665,-1.35731,4,0.0106286,11,-0.000146136,-2.86732,0.148718,0.396724,-21.0633,0.107665,
2,0,0,1,0,4823.23,0.106471,0.106174,-1.32655,4,0.0104257,11,-0.000140845,-2.87728,0.171136,0.344755,-17.9339,0.106174,
2,0,0,1,0,4823.38,0.104973,0.104706,-1.30296,4,0.0102268,11,-0.000136428,-2.88507,0.173751,0.339567,-17.2733,0.104706,
2,0,0,1,0,4823.53,0.103474,0.103185,-1.27666,4,0.0100313,11,-0.000131732,-2.89393,0.182154,0.323902,-16.1323,0.1031852,
2,0,0,1,0,4823.68,0.101976,0.101685,-1.25684,4,0.00983968,11,-0.000127801,-2.90072,0.194376,0.303536,-14.874,0.101685,
2,0,0,1,0,4823.83,0.100478,0.100156,-1.23387,4,0.00965162,11,-0.000123579,-2.90873,0.209196,0.282032,-13.5946,0.100156,
2,0,0,1,0,4823.97,0.0989799,0.0986795,-1.21596,4,0.00946631,11,-0.00011999,-2.91508,0.247223,0.238651,-11.3188,0.0986795,
2,0,0,1,0,4824.12,0.0974808,0.0971942,-1.19906,4,0.00928341,11,-0.000116542,-2.92116,0.25255,0.233617,-10.9291,0.09719418,
2,0,0,1,0,4824.27,0.0959833,0.0956457,-1.1833,4,0.00910316,11,-0.000113177,-2.92691,0.255299,0.231101,-10.6742,0.0956457,
2,0,0,1,0,4824.42,0.0944857,0.094201,-1.16226,4,0.0089255,11,-0.000109486,-2.9347,0.308495,0.191251,-8.72393,0.094201,
2,0,0,1,0,4824.57,0.0929871,0.0927052,-1.15133,4,0.00874989,11,-0.000106734,-2.9388,0.401649,0.146895,-6.61836,0.0927052,
2,0,0,1,0,4824.72,0.0914889,0.0911697,-1.14537,4,0.00857578,11,-0.000104423,-2.94105,0.352813,0.167227,-7.44002,0.0911697,
2,0,0,1,0,4824.87,0.0899907,0.0896767,-1.13054,4,0.00840341,11,-0.000101383,-2.94671,0.316092,0.186655,-8.2213,0.0896767,
2,0,0,1,0,4825.02,0.0884925,0.0881942,-1.11372,4,0.00823302,11,-9.82236e-05,-2.95322,0.362859,0.162598,-7.10438,0.0881942,
2,0,0,1,0,4825.17,0.0869943,0.0867044,-1.10851,4,0.00806454,11,-9.61124e-05,-2.95526,0.326212,0.180864,-7.82302,0.0867044,
2,0,0,1,0,4825.32,0.0854962,0.0851996,-1.09645,4,0.00789723,11,-9.34176e-05,-2.96001,0.340096,0.17348,-7.44014,0.0851996,
2,0,0,1,0,4825.47,0.083998,0.0836971,-1.08745,4,0.00773153,11,-9.10166e-05,-2.96359,0.277365,0.212716,-9.01306,0.0836971,
2,0,0,1,0,4825.62,0.0824998,0.0821785,-1.07705,4,0.00756726,11,-8.85101e-05,-2.96777,0.35139,0.167905,-7.07221,0.0821785,
2,0,0,1,0,4825.77,0.0810011,0.0807605,-1.06721,4,0.00740501,11,-8.6188e-05,-2.97175,0.403333,0.146281,-6.10365,0.0807605,
2,0,0,1,0,4825.92,0.0795036,0.0791894,-1.05557,4,0.00724391,11,-8.35902e-05,-2.97651,0.40369,0.146152,-6.02816,0.0791894,
2,0,0,1,0,4826.07,0.0780061,0.0777298,-1.04648,4,0.00708422,11,-8.13427e-05,-2.98027,0.344349,0.171338,-6.98773,0.0777298,
2,0,0,1,0,4826.22,0.076507,0.0761841,-1.03598,4,0.00692605,11,-7.89252e-05,-2.98465,0.313351,0.188287,-7.60162,0.0761841,
2,0,0,1,0,4826.37,0.0750088,0.0747419,-1.02209,4,0.00677005,11,-7.63927e-05,-2.99051,0.309043,0.190912,-7.62635,0.0747419,
2,0,0,1,0,4826.52,0.0735106,0.0732595,-1.01186,4,0.00661562,11,-7.41283e-05,-2.99488,0.330287,0.178632,-7.04277,0.0732595,
2,0,0,1,0,4826.67,0.0720124,0.0716837,-1.00027,4,0.0064627,11,-7.1703e-05,-2.99988,0.321929,0.18327,-7.15348,0.0716837,
2,0,0,1,0,4826.82,0.0705142,0.0702193,-0.989395,4,0.0063116,11,-6.94746e-05,-3.00463,0.237424,0.2485,-9.58967,0.0702193,
2,0,0,1,0,4826.97,0.0690161,0.0687146,-0.972164,4,0.00616259,11,-6.68018e-05,-3.01226,0.266402,0.22147,-8.43756,0.0687146,
2,0,0,1,0,4827.12,0.0675179,0.0672077,-0.964595,4,0.0060155,11,-6.48283e-05,-3.01565,0.287822,0.204988,-7.7082,0.0672077,
2,0,0,1,0,4827.27,0.0660188,0.0657328,-0.956179,4,0.00586988,11,-6.28523e-05,-3.01946,0.250975,0.235083,-8.70666,0.0657328,
2,0,0,1,0,4827.42,0.0645213,0.0642227,-0.939097,4,0.00572624,11,-6.03114e-05,-3.02729,0.239886,0.245951,-8.99342,0.0642227,
2,0,0,1,0,4827.57,0.0630237,0.0627045,-0.919527,4,0.0055848,11,-5.76585e-05,-3.03644,0.256597,0.229932,-8.29227,0.0627045,
2,0,0,1,0,4827.72,0.0615251,0.0612111,-0.911098,4,0.00544548,11,-5.57693e-05,-3.04044,0.249654,0.236327,-8.42535,0.0612111,
2,0,0,1,0,4827.87,0.0600269,0.0597456,-0.897062,4,0.00530794,11,-5.35955e-05,-3.04718,0.24923,0.236729,-8.30495,0.0597456,
2,0,0,1,0,4828.02,0.0585287,0.0582473,-0.887279,4,0.0051722,11,-5.16816e-05,-3.05194,0.221278,0.266633,-9.21428,0.0582473,
2,0,0,1,0,4828.17,0.0570305,0.0567309,-0.874279,4,0.00503827,11,-4.95986e-05,-3.05835,0.254879,0.231483,-7.88628,0.0567309,
2,0,0,1,0,4828.32,0.0555323,0.0552251,-0.864114,4,0.00490657,11,-4.77208e-05,-3.06343,0.267354,0.220681,-7.44712,0.0552251,
2,0,0,1,0,4828.47,0.0540342,0.0537162,-0.85154,4,0.0047763,11,-4.57415e-05,-3.0698,0.272552,0.216472,-7.17137,0.0537162,
2,0,0,1,0,4828.62,0.052536,0.0522157,-0.843605,4,0.00464731,11,-4.40494e-05,-3.07386,0.276307,0.21353,-7.0033,0.0522157,
2,0,0,1,0,4828.77,0.0510378,0.0507534,-0.831978,4,0.00452018,11,-4.22257e-05,-3.07989,0.252492,0.233671,-7.58461,0.0507534,
2,0,0,1,0,4828.92,0.0495391,0.0492594,-0.820633,4,0.00439466,11,-4.04239e-05,-3.08585,0.342107,0.172461,-5.53832,0.0492594,
2,0,0,1,0,4829.07,0.0480416,0.0477553,-0.811868,4,0.00427033,11,-3.8771e-05,-3.09051,0.481018,0.122657,-3.87947,0.0477553,
2,0,0,1,0,4829.22,0.0465441,0.0462478,-0.803109,4,0.00414725,11,-3.71421e-05,-3.09523,0.402003,0.146765,-4.61735,0.0462478,
2,0,0,1,0,4829.37,0.045045,0.04476,-0.796026,4,0.00402523,11,-3.56301e-05,-3.09907,0.411469,0.143389,-4.46213,0.04476,
2,0,0,1,0,4829.52,0.0435468,0.0432478,-0.784056,4,0.00390462,11,-3.39087e-05,-3.10565,0.400291,0.147393,-4.53857,0.0432478,
2,0,0,1,0,4829.67,0.0420486,0.0417537,-0.784444,4,0.0037848,11,-3.27535e-05,-3.10544,0.559311,0.105487,-3.22283,0.0417537,
2,0,0,1,0,4829.82,0.0405504,0.0402543,-0.782961,4,0.00366573,11,-3.15176e-05,-3.10626,0.452728,0.130321,-3.95687,0.0402543,
2,0,0,1,0,4829.97,0.0390523,0.0387454,-0.773955,4,0.00354724,11,-2.99871e-05,-3.11128,0.396249,0.148896,-4.48341,0.0387454,
2,0,0,1,0,4830.12,0.0375541,0.0372237,-0.76766,4,0.00342976,11,-2.85751e-05,-3.11483,0.568853,0.103718,-3.12392,0.0372237,
2,0,0,1,0,4830.27,0.0360559,0.0357794,-0.764924,4,0.00331311,11,-2.73685e-05,-3.11638,0.756205,0.0780212,-2.33711,0.0357794,
2,0,0,1,0,4830.42,0.0345568,0.0342517,-0.762225,4,0.00319655,11,-2.61075e-05,-3.11792,1.0589,0.0557182,-1.65741,0.0342517,
2,0,0,1,0,4830.57,0.0330593,0.0327603,-0.761499,4,0.00308044,11,-2.4947e-05,-3.11833,0.650389,0.0907149,-2.68963,0.0327603,
2,0,0,1,0,4830.72,0.0315618,0.0312561,-0.758057,4,0.00296481,11,-2.36939e-05,-3.1203,1.88386,0.0313187,-0.927354,0.03125605,
2,0,0,1,0,4830.87,0.0300631,0.0297616,-0.755911,4,0.00284968,11,-2.24971e-05,-3.12153,2.72581,0.0216449,-0.639151,0.02976159,
2,0,0,1,0,4831.02,0.0285649,0.0282388,-0.755007,4,0.00273456,11,-2.13205e-05,-3.12205,-4.43058,-0.0133166,0.391426,0.0282388,
2,0,0,1,0,4831.17,0.0270667,0.0267808,-0.754596,4,0.00261938,11,-2.02087e-05,-3.12229,5.08288,0.0116076,-0.341381,0.02678079,
2,0,0,1,0,4831.32,0.0255685,0.0252782,-0.752883,4,0.00250447,11,-1.90315e-05,-3.12327,1.46719,0.0402129,-1.18333,0.02527819,
2,0,0,1,0,4831.47,0.0240704,0.0238339,-0.749767,4,0.0023899,11,-1.78699e-05,-3.12507,9.11309,0.0064742,-0.190442,0.0238339,
2,0,0,1,0,4831.62,0.0225722,0.0222582,-0.75277,4,0.00227507,11,-1.67553e-05,-3.12334,-1.06635,-0.055329,1.62446,0.0222582,
2,0,0,1,0,4831.77,0.021074,0.0207948,-0.755593,4,0.00216018,11,-1.57124e-05,-3.12171,19.2832,0.00305965,-0.0902267,0.0207948,
2,0,0,1,0,4831.92,0.0195758,0.019324,-0.755629,4,0.00204509,11,-1.46018e-05,-3.12169,-4.04326,-0.0145922,0.429056,0.01932401,
2,0,0,1,0,4832.07,0.0180772,0.0178027,-0.752447,4,0.00192988,11,-1.33956e-05,-3.12352,-2.10136,-0.0280771,0.827879,0.0178027,
2,0,0,1,0,4832.22,0.0165796,0.0162414,-0.757977,4,0.00181471,11,-1.23106e-05,-3.12034,-0.88431,-0.0667187,1.97244,0.0162414,
2,0,0,1,0,4832.36,0.0150821,0.0147502,-0.761879,4,0.00169894,11,-1.12379e-05,-3.11811,-1.2032,-0.0490357,1.4545,0.01475025,
2,0,0,1,0,4832.51,0.013583,0.0132447,-0.761762,4,0.00158273,11,-1.00893e-05,-3.11818,-5.27944,-0.0111754,0.331358,0.0132447,
2,0,0,1,0,4832.66,0.0120848,0.0117972,-0.762491,4,0.00146637,11,-8.99529e-06,-3.11777,-1.53433,-0.0384532,1.14876,0.0117972,
2,0,0,1,0,4832.81,0.0105866,0.010284,-0.765366,4,0.00135006,11,-7.87106e-06,-3.11613,-0.948774,-0.0621855,1.86057,0.010284,
2,0,0,1,0,4832.96,0.00908846,0.00874539,-0.769534,4,0.00123299,11,-6.72988e-06,-3.11377,-0.870499,-0.0677772,2.03611,0.00874539,
2,0,0,1,0,4833.11,0.00759027,0.0073043,-0.772745,4,0.00111552,11,-5.64436e-06,-3.11196,-3.03033,-0.0194698,0.584857,0.0073043,
2,0,0,1,0,4833.26,0.00609208,0.00577944,-0.777707,4,0.000997523,11,-4.49471e-06,-3.10918,-0.839432,-0.0702856,2.12636,0.00577944,
2,0,0,1,0,4833.41,0.00459389,0.00428744,-0.781173,4,0.000879428,11,-3.34924e-06,-3.10725,-1.01406,-0.058182,1.76544,0.00428744,
2,0,0,1,0,4833.56,0.0030948,0.00276631,-0.784764,4,0.000760364,11,-2.1709e-06,-3.10526,-0.463833,-0.127201,3.889,0.00276631,
2,0,0,1,0,4833.71,0.00159728,0.00127158,-0.793503,4,0.0006389,11,-1.009e-06,-3.10045, , , ,0.00127158,
2,0,0,1,0,4833.85,0.000199195,-0.000161173,-0.789975,4,0.000526386,11,1.27322e-07,-3.10239, , , ,-0.000161173,