File: Figure_codes/Fig_3-5/rawdata_trumpetplot_data/before 10th/20221101_1-115_002_TrumpetPlot_ParaChange_14_CV_C01_5.csv
mode,ox/red,error,control changes,counter inc.,time/s,control/V,Ewe/V,<I>/mA,cycle number,(Q-Qo)/C,I Range,P/W,log(|I|),Tafel slope mV/dec,alpha_eff,dI/d(E-IR),E-IR/V,
2,1,0,1,0,7374.43,2.44065e-05,-0.00070707,25.1046,6,0.0000000E+000,10,-1.77507e-05,-1.60025, , , ,-0.00070707,
2,1,0,1,0,7374.44,0.00188327,0.00149539,23.8969,6,7.53876e-05,10,3.57353e-05,-1.62166, , , ,0.00149539,
2,1,0,1,0,7374.44,0.00428592,0.00394811,24.0209,6,0.00017111,10,9.48373e-05,-1.61941, , , ,0.00394811,
2,1,0,1,0,7374.45,0.0066858,0.00637432,24.457,6,0.000268051,10,0.000155897,-1.6116,0.347566,0.169752,163.493,0.00637432,
2,1,0,1,0,7374.45,0.00908291,0.0087507,24.9655,6,0.000366932,10,0.000218465,-1.60266,0.284793,0.207168,201.944,0.0087507,
2,1,0,1,0,7374.45,0.01148,0.0111599,25.477,6,0.000467871,10,0.000284322,-1.59385,0.287091,0.20551,203.885,0.0111599,
2,1,0,1,0,7374.46,0.0138882,0.0135437,25.9587,6,0.000570788,10,0.000351578,-1.58572,0.310335,0.190117,192.004,0.0135437,
2,1,0,1,0,7374.46,0.0162853,0.0159509,26.4095,6,0.000675581,10,0.000421255,-1.57824,0.33611,0.175538,180.407,0.0159509,
2,1,0,1,0,7374.47,0.0186824,0.0183675,26.812,6,0.000782082,10,0.000492469,-1.57167,0.370753,0.159136,166.122,0.0183675,
2,1,0,1,0,7374.47,0.0210878,0.0207672,27.2102,6,0.000890156,10,0.000565081,-1.56527,0.421357,0.140024,148.182,0.0207672,
2,1,0,1,0,7374.47,0.023485,0.0231447,27.5536,6,0.000999742,10,0.000637719,-1.55982,0.460741,0.128055,137.254,0.0231447,
2,1,0,1,0,7374.48,0.0258821,0.025574,27.8355,6,0.00111057,10,0.000711867,-1.5554,0.517547,0.113999,123.686,0.025574,
2,1,0,1,0,7374.48,0.0282792,0.0279472,28.1268,6,0.00122253,10,0.000786067,-1.55088,0.571811,0.103181,113.13,0.0279472,
2,1,0,1,0,7374.49,0.0306874,0.0303819,28.3994,6,0.00133563,10,0.000862829,-1.54669,0.608093,0.0970247,107.342,0.0303819,
2,1,0,1,0,7374.49,0.0330845,0.0327625,28.6417,6,0.00144972,10,0.000938374,-1.543,0.66044,0.0893345,99.7198,0.0327625,
2,1,0,1,0,7374.49,0.0354816,0.0351845,28.8671,6,0.00156476,10,0.00101568,-1.5396,0.718518,0.0821134,92.4239,0.0351845,
2,1,0,1,0,7374.5,0.0378898,0.0375344,29.0828,6,0.00168068,10,0.00109161,-1.53636,0.759134,0.0777202,88.1498,0.0375344,
2,1,0,1,0,7374.5,0.0402869,0.0399807,29.2866,6,0.00179742,10,0.0011709,-1.53333,0.78772,0.0748997,85.5785,0.0399807,
2,1,0,1,0,7374.51,0.042684,0.0423433,29.4862,6,0.00191498,10,0.00124854,-1.53038,0.784873,0.0751714,86.5364,0.0423433,
2,1,0,1,0,7374.51,0.0450811,0.0447992,29.6899,6,0.00203336,10,0.00133009,-1.52739,0.783124,0.0753393,87.3319,0.0447992,
2,1,0,1,0,7374.51,0.0474865,0.0471586,29.9157,6,0.00215261,10,0.00141078,-1.5241,0.790923,0.0745964,87.0547,0.0471586,
2,1,0,1,0,7374.52,0.0498836,0.0495424,30.1216,6,0.0022727,10,0.0014923,-1.52112,0.740694,0.079655,93.6815,0.0495424,
2,1,0,1,0,7374.52,0.0522807,0.051957,30.3231,6,0.0023936,10,0.0015755,-1.51823,0.736402,0.0801193,94.9562,0.051957,
2,1,0,1,0,7374.53,0.0546889,0.0543567,30.5853,6,0.00251542,10,0.00166251,-1.51449,0.693162,0.0851172,101.675,0.0543567,
2,1,0,1,0,7374.53,0.057086,0.0567426,30.8257,6,0.00263827,10,0.00174913,-1.51109,0.651115,0.0906138,109.07,0.0567426,
2,1,0,1,0,7374.53,0.0594831,0.0591592,31.0994,6,0.00276213,10,0.00183982,-1.50725,0.634752,0.0929497,112.898,0.0591592,
2,1,0,1,0,7374.54,0.061883,0.0615324,31.3675,6,0.00288709,10,0.00193012,-1.50352,0.59706,0.0988175,121.114,0.06153243,
2,1,0,1,0,7374.54,0.0642857,0.0639311,31.6662,6,0.00301319,10,0.00202446,-1.4994,0.566575,0.104134,128.888,0.0639311,
2,1,0,1,0,7374.55,0.0666828,0.0663668,31.9914,6,0.00314053,10,0.00212317,-1.49497,0.523871,0.112623,140.812,0.0663668,
2,1,0,1,0,7374.55,0.0690799,0.0687633,32.3373,6,0.00326923,10,0.00222362,-1.4903,0.498083,0.118454,149.683,0.0687633,
2,1,0,1,0,7374.55,0.0714881,0.0711047,32.7154,6,0.00339935,10,0.00232622,-1.48525,0.47184,0.125042,159.794,0.07110472,
2,1,0,1,0,7374.56,0.0738852,0.0735203,33.1016,6,0.00353102,10,0.00243364,-1.48015,0.452353,0.130429,168.677,0.0735203,
2,1,0,1,0,7374.56,0.0762823,0.0758681,33.5096,6,0.00366431,10,0.00254231,-1.47483,0.435017,0.135627,177.658,0.0758681,
2,1,0,1,0,7374.57,0.0786849,0.0783261,33.9503,6,0.00379926,10,0.00265919,-1.46916,0.421155,0.140091,185.832,0.0783261,
2,1,0,1,0,7374.57,0.0810876,0.0807417,34.4275,6,0.00393608,10,0.00277974,-1.46309,0.412189,0.143138,192.335,0.0807417,
2,1,0,1,0,7374.57,0.0834847,0.0831626,34.8934,6,0.00407476,10,0.00290183,-1.45726,0.403328,0.146283,199.243,0.0831626,
2,1,0,1,0,7374.58,0.0858818,0.0855273,35.3674,6,0.00421534,10,0.00302488,-1.4514,0.40645,0.145159,200.428,0.0855273,
2,1,0,1,0,7374.58,0.0882872,0.0879482,35.8674,6,0.00435786,10,0.00315448,-1.4453,0.388668,0.151801,212.667,0.0879482,
2,1,0,1,0,7374.59,0.0906843,0.0903256,36.3484,6,0.00450233,10,0.00328319,-1.43951,0.376006,0.156912,223.079,0.0903256,
2,1,0,1,0,7374.59,0.0930814,0.0926946,36.9206,6,0.00464888,10,0.00342234,-1.43273,0.364377,0.16192,233.65,0.0926946,
2,1,0,1,0,7374.59,0.0954841,0.0951314,37.5099,6,0.0047978,10,0.00356837,-1.42585,0.353886,0.16672,244.068,0.0951314,
2,1,0,1,0,7374.6,0.0978867,0.0975205,38.104,6,0.0049491,10,0.00371592,-1.41903,0.35787,0.164865,245.085,0.0975205,
2,1,0,1,0,7374.6,0.100284,0.0999531,38.6982,6,0.00510277,10,0.003868,-1.41231,0.356668,0.16542,249.849,0.09995307,
2,1,0,1,0,7374.61,0.102681,0.102349,39.2866,6,0.0052588,10,0.00402093,-1.40576,0.35954,0.164098,251.689,0.102349,
2,1,0,1,0,7374.61,0.105086,0.104769,39.918,6,0.00541728,10,0.00418218,-1.39883,0.363575,0.162277,252.666,0.104769,
2,1,0,1,0,7374.61,0.107483,0.107126,40.5215,6,0.00557824,10,0.00434089,-1.39231,0.362498,0.162759,257.335,0.107126,
2,1,0,1,0,7374.62,0.109881,0.109529,41.1176,6,0.00574159,10,0.00450355,-1.38597,0.368358,0.16017,257.137,0.109529,
2,1,0,1,0,7374.62,0.112289,0.111975,41.7638,6,0.0059074,10,0.0046765,-1.3792,0.369996,0.159461,259.88,0.1119749,
2,1,0,1,0,7374.63,0.114686,0.114336,42.378,6,0.00607574,10,0.00484535,-1.37286,0.367347,0.160611,265.68,0.114336,
2,1,0,1,0,7374.63,0.117083,0.116748,43.0221,6,0.00624659,10,0.00502274,-1.36631,0.369794,0.159548,267.952,0.1167478,
2,1,0,1,0,7374.63,0.11948,0.119172,43.6796,6,0.00642005,10,0.00520538,-1.35972,0.371864,0.15866,270.401,0.119172,
2,1,0,1,0,7374.64,0.121888,0.121542,44.3273,6,0.00659614,10,0.00538762,-1.35333,0.371944,0.158626,274.444,0.121542,
2,1,0,1,0,7374.64,0.124285,0.123984,44.9867,6,0.00677483,10,0.00557763,-1.34692,0.367361,0.160605,282.163,0.123984,
2,1,0,1,0,7374.65,0.126682,0.126388,45.6678,6,0.00695621,10,0.00577186,-1.34039,0.363606,0.162263,289.394,0.126388,
2,1,0,1,0,7374.65,0.129088,0.128748,46.3817,6,0.00714036,10,0.00597158,-1.33365,0.361532,0.163194,295.435,0.128748,
2,1,0,1,0,7374.65,0.131485,0.131117,47.0984,6,0.00732739,10,0.00617541,-1.32699,0.35683,0.165345,303.935,0.131117,
2,1,0,1,0,7374.66,0.133882,0.133558,47.8153,6,0.0075173,10,0.00638614,-1.32043,0.354584,0.166392,310.785,0.133558,
2,1,0,1,0,7374.66,0.136279,0.135915,48.5633,6,0.00771012,10,0.00660046,-1.31369,0.350648,0.16826,319.256,0.135915,
2,1,0,1,0,7374.67,0.138687,0.138355,49.3672,6,0.00790608,10,0.00683018,-1.30656,0.341389,0.172823,333.141,0.138355,
2,1,0,1,0,7374.67,0.141085,0.140736,50.1693,6,0.00810522,10,0.00706064,-1.29956,0.336946,0.175102,343.028,0.140736,
2,1,0,1,0,7374.67,0.143482,0.143131,51.0042,6,0.00830764,10,0.00730027,-1.29239,0.335299,0.175962,350.424,0.1431307,
2,1,0,1,0,7374.68,0.145887,0.145543,51.8661,6,0.00851346,10,0.00754876,-1.28512,0.333076,0.177137,358.619,0.145543,
2,1,0,1,0,7374.68,0.148284,0.14794,52.726,6,0.00872271,10,0.00780027,-1.27798,0.329186,0.17923,368.996,0.14794,
2,1,0,1,0,7374.69,0.150681,0.150357,53.6196,6,0.0089355,10,0.0080621,-1.27068,0.326394,0.180763,378.509,0.150357,
2,1,0,1,0,7374.69,0.153084,0.152717,54.5415,6,0.00915192,10,0.0083294,-1.26327,0.326527,0.18069,384.67,0.152717,
2,1,0,1,0,7374.69,0.155487,0.155097,55.4825,6,0.00937206,10,0.00860519,-1.25584,0.329287,0.179175,387.8,0.1550974,
2,1,0,1,0,7374.7,0.157884,0.157529,56.4147,6,0.00959595,10,0.00888695,-1.24861,0.332845,0.17726,390.18,0.157529,
2,1,0,1,0,7374.7,0.160281,0.159948,57.3387,6,0.00982354,10,0.00917119,-1.24155,0.338877,0.174105,389.646,0.159948,
2,1,0,1,0,7374.71,0.162689,0.162359,58.3037,6,0.0100549,10,0.00946613,-1.2343,0.343998,0.171512,390.061,0.162359,
2,1,0,1,0,7374.71,0.165086,0.164764,59.2491,6,0.0102901,10,0.00976212,-1.22732,0.348761,0.16917,390.833,0.164764,
2,1,0,1,0,7374.71,0.167483,0.167165,60.1733,6,0.0105291,10,0.0100589,-1.2206,0.361975,0.162995,382.482,0.167165,
2,1,0,1,0,7374.72,0.169886,0.169561,61.096,6,0.0107717,10,0.0103595,-1.21399,0.373736,0.157865,376.03,0.169561,
2,1,0,1,0,7374.72,0.172286,0.171995,61.9893,6,0.011018,10,0.0106618,-1.20768,0.386394,0.152694,369.036,0.171995,
2,1,0,1,0,7374.73,0.174683,0.174352,62.8545,6,0.0112678,10,0.0109588,-1.20166,0.405307,0.145569,356.731,0.174352,
2,1,0,1,0,7374.73,0.17708,0.176764,63.7156,6,0.011521,10,0.0112626,-1.19575,0.429382,0.137407,341.105,0.176764,
2,1,0,1,0,7374.73,0.179488,0.179161,64.5206,6,0.0117776,10,0.0115596,-1.1903,0.463611,0.127262,319.725,0.179161,
2,1,0,1,0,7374.74,0.181885,0.181573,65.2562,6,0.0120372,10,0.0118487,-1.18538,0.516015,0.114338,290.5,0.181573,
2,1,0,1,0,7374.74,0.184282,0.183936,65.9188,6,0.0122997,10,0.0121248,-1.18099,0.582341,0.101315,260.022,0.183936,
2,1,0,1,0,7374.75,0.186688,0.186376,66.5081,6,0.0125646,10,0.0123955,-1.17713,0.687709,0.0857922,222.028,0.1863762,
2,1,0,1,0,7374.75,0.189085,0.188766,67.0181,6,0.0128317,10,0.0126508,-1.17381,0.878636,0.0671495,174.944,0.188766,
2,1,0,1,0,7374.75,0.191482,0.19114,67.3804,6,0.0131006,10,0.0128791,-1.17147,1.26058,0.0468039,122.553,0.19114,
2,1,0,1,0,7374.76,0.193879,0.193553,67.6012,6,0.0133707,10,0.0130844,-1.17005,2.83573,0.0208059,54.6314,0.193553,
2,1,0,1,0,7374.76,0.196287,0.195951,67.6815,6,0.0136413,10,0.0132622,-1.16953,-9.02837,-0.00653496,-17.1635,0.195951,
2,1,0,1,0,7374.77,0.198684,0.198399,67.5444,6,0.0139118,10,0.0134007,-1.17041,-1.58049,-0.0373303,-97.8002,0.198399,
2,1,0,1,0,7374.77,0.201081,0.200766,67.2151,6,0.0141813,10,0.0134945,-1.17253,-0.799871,-0.0737619,-192.156,0.200766,
2,1,0,1,0,7374.77,0.20349,0.203172,66.6604,6,0.0144491,10,0.0135435,-1.17613,-0.530045,-0.111311,-287.375,0.203172,
2,1,0,1,0,7374.78,0.205887,0.205589,65.8294,6,0.014714,10,0.0135338,-1.18158,-0.384247,-0.153547,-391.36,0.205589,
2,1,0,1,0,7374.78,0.208284,0.208019,64.7798,6,0.0149752,10,0.0134754,-1.18856,-0.299219,-0.19718,-494.473,0.208019,
2,1,0,1,0,7374.79,0.210681,0.210416,63.4386,6,0.0152316,10,0.0133485,-1.19765,-0.244674,-0.241137,-592.238,0.210416,
2,1,0,1,0,7374.79,0.213086,0.212777,61.911,6,0.0154822,10,0.0131732,-1.20823,-0.202656,-0.291133,-697.446,0.212777,
2,1,0,1,0,7374.79,0.215484,0.215229,60.1202,6,0.0157261,10,0.0129396,-1.22098,-0.176323,-0.334613,-778.62,0.2152288,
2,1,0,1,0,7374.8,0.217881,0.217584,58.1089,6,0.0159624,10,0.0126436,-1.23576,-0.155006,-0.380631,-856.993,0.217584,
2,1,0,1,0,7374.8,0.220289,0.220014,55.9648,6,0.0161904,10,0.0123131,-1.25209,-0.138981,-0.424518,-920.963,0.220014,
2,1,0,1,0,7374.81,0.222686,0.222396,53.6676,6,0.0164095,10,0.0119355,-1.27029,-0.128505,-0.459125,-956.093,0.222396,
2,1,0,1,0,7374.81,0.225083,0.224817,51.2898,6,0.0166191,10,0.0115308,-1.28997,-0.118543,-0.497708,-991.794,0.224817,
2,1,0,1,0,7374.81,0.227483,0.227242,48.8747,6,0.0168192,10,0.0111064,-1.31092,-0.112814,-0.522983,-994.18,0.227242,
2,1,0,1,0,7374.82,0.229886,0.229607,46.4511,6,0.0170097,10,0.0106655,-1.333,-0.107584,-0.54841,-992.245,0.229607,
2,1,0,1,0,7374.82,0.232283,0.232053,44.0667,6,0.0171905,10,0.0102258,-1.35589,-0.104803,-0.56296,-968.145,0.232053,
2,1,0,1,0,7374.83,0.23468,0.234423,41.7581,6,0.0173619,10,0.00978906,-1.37926,-0.103644,-0.569259,-929.31,0.234423,
2,1,0,1,0,7374.83,0.237088,0.23684,39.5827,6,0.0175243,10,0.00937476,-1.40249,-0.103668,-0.569127,-881.734,0.23684,
2,1,0,1,0,7374.83,0.239485,0.239211,37.5259,6,0.0176782,10,0.00897661,-1.42567,-0.105298,-0.560315,-823.921,0.239211,
2,1,0,1,0,7374.84,0.241882,0.241624,35.6274,6,0.0178243,10,0.00860845,-1.44822,-0.108185,-0.54536,-762.506,0.241624,
2,1,0,1,0,7374.84,0.244285,0.243993,33.873,6,0.0179631,10,0.00826479,-1.47015,-0.113877,-0.518102,-689.692,0.243993,
2,1,0,1,0,7374.85,0.246687,0.246372,32.3145,6,0.0180953,10,0.00796139,-1.4906,-0.120448,-0.489837,-622.491,0.246372,
2,1,0,1,0,7374.85,0.249085,0.248808,30.9072,6,0.0182216,10,0.00768994,-1.50994,-0.130667,-0.45153,-549.145,0.248808,
2,1,0,1,0,7374.85,0.251482,0.251181,29.6786,6,0.0183426,10,0.0074547,-1.52756,-0.141291,-0.417577,-487.407,0.251181,
2,1,0,1,0,7374.86,0.253887,0.253593,28.6013,6,0.018459,10,0.0072531,-1.54361,-0.155435,-0.37958,-426.673,0.253593,
2,1,0,1,0,7374.86,0.256284,0.255994,27.6246,6,0.0185713,10,0.00707174,-1.5587,-0.172305,-0.342417,-372.104,0.255994,
2,1,0,1,0,7374.87,0.258681,0.258445,26.7953,6,0.0186801,10,0.00692511,-1.57194,-0.191805,-0.307604,-324.218,0.258445,
2,1,0,1,0,7374.87,0.261084,0.260829,26.0883,6,0.0187857,10,0.00680461,-1.58355,-0.215974,-0.273181,-279.989,0.260829,
2,1,0,1,0,7374.87,0.263487,0.26324,25.4737,6,0.0188888,10,0.00670569,-1.59391,-0.239828,-0.24601,-245.89,0.26324,
2,1,0,1,0,7374.88,0.265884,0.265565,24.9448,6,0.0189896,10,0.00662447,-1.60302,-0.274333,-0.215067,-210.399,0.265565,
2,1,0,1,0,7374.88,0.268281,0.267934,24.4619,6,0.0190883,10,0.00655419,-1.61151,-0.309328,-0.190736,-183.05,0.2679342,
2,1,0,1,0,7374.89,0.270686,0.270408,24.073,6,0.0191853,10,0.00650953,-1.61847,-0.348205,-0.16944,-159.836,0.270408,
2,1,0,1,0,7374.89,0.273083,0.272773,23.7287,6,0.0192809,10,0.00647254,-1.62473,-0.410743,-0.143642,-133.463,0.272773,
2,1,0,1,0,7374.89,0.27548,0.275146,23.4134,6,0.0193751,10,0.00644211,-1.63053,-0.456261,-0.129312,-118.589,0.275146,
2,1,0,1,0,7374.9,0.277889,0.277651,23.1651,6,0.0194683,10,0.00643182,-1.63517,-0.501892,-0.117555,-106.492,0.277651,
2,1,0,1,0,7374.9,0.280286,0.280016,22.9335,6,0.0195604,10,0.00642177,-1.63953,-0.577645,-0.102139,-91.5559,0.280016,
2,1,0,1,0,7374.91,0.282683,0.282406,22.7029,6,0.0196516,10,0.00641142,-1.64392,-0.62236,-0.0948004,-84.2119,0.282406,
2,1,0,1,0,7374.91,0.28508,0.284804,22.5292,6,0.0197421,10,0.0064164,-1.64725,-0.686708,-0.0859172,-75.6735,0.284804,
2,1,0,1,0,7374.91,0.287488,0.287183,22.3624,6,0.0198319,10,0.0064221,-1.65048,-0.760362,-0.0775946,-67.7689,0.287183,
2,1,0,1,0,7374.92,0.289885,0.289616,22.2071,6,0.019921,10,0.00643154,-1.65351,-0.832009,-0.0709127,-61.5274,0.289616,
2,1,0,1,0,7374.92,0.292282,0.291926,22.0577,6,0.0200095,10,0.00643921,-1.65644,-0.907806,-0.0649919,-56.0344,0.291926,
2,1,0,1,0,7374.93,0.294688,0.294417,21.9377,6,0.0200975,10,0.00645884,-1.65881,-0.948869,-0.0621793,-53.278,0.294417,
2,1,0,1,0,7374.93,0.297085,0.296801,21.8235,6,0.020185,10,0.00647723,-1.66108,-0.997513,-0.0591471,-50.4661,0.296801,
2,1,0,1,0,7374.93,0.299363,0.299033,21.7054,6,0.0202676,10,0.00649063,-1.66343,-0.0863575,-0.683206,-549.724,0.299033,
2,1,0,1,0,7374.93,0.300012,0.299632,21.6688,6,0.0202915,10,0.00649266,-1.66417,0.000531166,111.076,73323.3,0.299632,
2,1,0,1,0,7374.94,0.299243,0.299123,19.3507,6,0.0203173,10,0.00578823,-1.7133,0.0108109,5.45744,2889.99,0.299123,
2,1,0,1,0,7374.94,0.296846,0.296678,12.8033,6,0.0203804,10,0.00379844,-1.89268,0.0103644,5.69255,2287.07,0.296678,
2,1,0,1,0,7374.94,0.294449,0.294213,7.77507,6,0.0204207,10,0.00228753,-2.1093,0.00667943,8.83308,1927.16,0.294213,
2,1,0,1,0,7374.95,0.292041,0.291833,3.83107,6,0.0204433,10,0.00111803,-2.41668,0.0114468,5.15429,1512.51,0.291833,
2,1,0,1,0,7374.95,0.289644,0.289438,0.686706,6,0.0204518,10,0.000198759,-3.16323,0.0317957,1.8556,1210.25,0.289438,
2,0,0,1,0,7374.96,0.287247,0.287003,-1.82887,6,0.0204491,10,-0.000524892,-2.73782,-0.060594,-0.973694,967.059,0.287003,
2,0,0,1,0,7374.96,0.284841,0.284589,-3.87269,6,0.0204374,10,-0.00110212,-2.41199,-0.00964767,-6.11546,783.708,0.2845889,
2,0,0,1,0,7374.96,0.282444,0.282147,-5.53563,6,0.0204183,10,-0.00156186,-2.25683,-0.0150052,-3.93196,641.556,0.282147,
2,0,0,1,0,7374.97,0.280047,0.279782,-6.88084,6,0.0203933,10,-0.00192513,-2.16236,-0.0264599,-2.22979,527.24,0.279782,
2,0,0,1,0,7374.97,0.27765,0.277389,-7.99725,6,0.0203634,10,-0.00221835,-2.09706,-0.0390271,-1.51177,438.539,0.277389,
2,0,0,1,0,7374.98,0.275242,0.27497,-8.94416,6,0.0203293,10,-0.00245938,-2.04846,-0.0536507,-1.09971,365.555,0.27497,
2,0,0,1,0,7374.98,0.272845,0.272603,-9.7209,6,0.0202918,10,-0.00264995,-2.01229,-0.0699765,-0.84314,309.64,0.272603,
2,0,0,1,0,7374.98,0.270448,0.270168,-10.3952,6,0.0202515,10,-0.00280844,-1.98317,-0.0892602,-0.660989,261.725,0.270168,
2,0,0,1,0,7374.99,0.268039,0.267755,-10.9802,6,0.0202087,10,-0.00294001,-1.95939,-0.110701,-0.532968,223.939,0.267755,
2,0,0,1,0,7374.99,0.265642,0.265393,-11.4506,6,0.0201638,10,-0.00303891,-1.94117,-0.133105,-0.44326,195.635,0.265393,
2,0,0,1,0,7375,0.263245,0.262944,-11.884,6,0.0201171,10,-0.00312482,-1.92504,-0.1589,-0.371303,170.714,0.262944,
2,0,0,1,0,7375,0.260843,0.26056,-12.2749,6,0.0200687,10,-0.00319834,-1.91098,-0.183656,-0.321253,152.582,0.26056,
2,0,0,1,0,7375,0.258443,0.258153,-12.6194,6,0.0200189,10,-0.00325774,-1.89896,-0.211529,-0.278921,136.334,0.258153,
2,0,0,1,0,7375.01,0.256046,0.255769,-12.9191,6,0.0199677,10,-0.0033043,-1.88877,-0.238452,-0.247429,124.208,0.255769,
2,0,0,1,0,7375.01,0.253649,0.253382,-13.1876,6,0.0199155,10,-0.00334149,-1.87984,-0.264499,-0.223063,114.586,0.253382,
2,0,0,1,0,7375.02,0.25124,0.250945,-13.4691,6,0.0198621,10,-0.00338001,-1.87066,-0.292847,-0.20147,105.509,0.250945,
2,0,0,1,0,7375.02,0.248843,0.248538,-13.7211,6,0.0198077,10,-0.00341023,-1.86261,-0.31077,-0.189851,101.275,0.2485383,
2,0,0,1,0,7375.02,0.246446,0.246175,-13.9314,6,0.0197524,10,-0.00342956,-1.85601,-0.344748,-0.17114,92.9104,0.246175,
2,0,0,1,0,7375.03,0.244041,0.243768,-14.1613,6,0.0196962,10,-0.00345206,-1.8489,-0.370752,-0.159136,87.7953,0.243768,
2,0,0,1,0,7375.03,0.241644,0.241336,-14.3619,6,0.0196391,10,-0.00346605,-1.84279,-0.380137,-0.155207,86.8982,0.241336,
2,0,0,1,0,7375.04,0.239247,0.238984,-14.56,6,0.0195812,10,-0.0034796,-1.83684,-0.399862,-0.147551,83.8459,0.238984,
2,0,0,1,0,7375.04,0.236849,0.236536,-14.769,6,0.0195225,10,-0.0034934,-1.83065,-0.412608,-0.142993,82.324,0.236536,
2,0,0,1,0,7375.04,0.234441,0.234156,-14.9672,6,0.019463,10,-0.00350465,-1.82486,-0.432417,-0.136442,79.5565,0.234156,
2,0,0,1,0,7375.05,0.232044,0.231776,-15.1489,6,0.0194028,10,-0.00351116,-1.81962,-0.446024,-0.13228,78.1633,0.231776,
2,0,0,1,0,7375.05,0.229647,0.229338,-15.3274,6,0.0193418,10,-0.00351515,-1.81453,-0.45222,-0.130467,78.09,0.229338,
2,0,0,1,0,7375.06,0.227239,0.226946,-15.5185,6,0.0192801,10,-0.00352187,-1.80915,-0.462289,-0.127626,77.2846,0.226946,
2,0,0,1,0,7375.06,0.224842,0.224617,-15.7121,6,0.0192176,10,-0.0035292,-1.80377,-0.469172,-0.125753,77.0246,0.224617,
2,0,0,1,0,7375.06,0.222445,0.222189,-15.8898,6,0.0191544,10,-0.00353055,-1.79888,-0.467191,-0.126287,78.3197,0.222189,
2,0,0,1,0,7375.07,0.220047,0.219731,-16.0673,6,0.0190905,10,-0.00353049,-1.79406,-0.480735,-0.122729,77.0259,0.219731,
2,0,0,1,0,7375.07,0.217642,0.217361,-16.2692,6,0.0190258,10,-0.0035363,-1.78863,-0.475202,-0.124158,78.8241,0.217361,
2,0,0,1,0,7375.08,0.215245,0.21495,-16.4567,6,0.0189603,10,-0.00353736,-1.78366,-0.456779,-0.129165,82.9916,0.21495,
2,0,0,1,0,7375.08,0.212848,0.212531,-16.6511,6,0.018894,10,-0.00353888,-1.77856,-0.467332,-0.126249,82.0842,0.212531,
2,0,0,1,0,7375.08,0.21044,0.210104,-16.8663,6,0.018827,10,-0.00354368,-1.77298,-0.450522,-0.130959,86.2062,0.210104,
2,0,0,1,0,7375.09,0.208042,0.20777,-17.0565,6,0.0187591,10,-0.00354383,-1.76811,-0.450575,-0.130944,87.2126,0.2077699,
2,0,0,1,0,7375.09,0.205645,0.205351,-17.2842,6,0.0186905,10,-0.00354932,-1.76235,-0.43492,-0.135657,91.5939,0.205351,
2,0,0,1,0,7375.1,0.203246,0.20294,-17.4876,6,0.0186209,10,-0.00354893,-1.75727,-0.422412,-0.139674,95.453,0.20294,
2,0,0,1,0,7375.1,0.200843,0.200541,-17.7422,6,0.0185504,10,-0.00355804,-1.75099,-0.42462,-0.138948,96.2025,0.200541,
2,0,0,1,0,7375.1,0.198446,0.198165,-17.9734,6,0.0184789,10,-0.00356169,-1.74537,-0.397989,-0.148245,104.027,0.198165,
2,0,0,1,0,7375.11,0.196049,0.195777,-18.2052,6,0.0184065,10,-0.00356416,-1.7398,-0.397397,-0.148466,105.715,0.195777,
2,0,0,1,0,7375.11,0.19364,0.193376,-18.4825,6,0.0183332,10,-0.00357407,-1.73324,-0.382234,-0.154356,111.464,0.193376,
2,0,0,1,0,7375.12,0.191243,0.190939,-18.7573,6,0.0182587,10,-0.0035815,-1.72683,-0.360706,-0.163568,119.865,0.190939,
2,0,0,1,0,7375.12,0.188846,0.188564,-19.0435,6,0.018183,10,-0.00359092,-1.72025,-0.351174,-0.168008,125.083,0.188564,
2,0,0,1,0,7375.12,0.186444,0.186134,-19.361,6,0.0181062,10,-0.00360375,-1.71307,-0.334861,-0.176193,133.311,0.186134,
2,0,0,1,0,7375.13,0.184041,0.183773,-19.6837,6,0.0180281,10,-0.00361733,-1.70589,-0.320568,-0.184049,141.6,0.183773,
2,0,0,1,0,7375.13,0.181644,0.181385,-20.031,6,0.0179486,10,-0.00363331,-1.6983,-0.304755,-0.193598,151.703,0.181385,
2,0,0,1,0,7375.14,0.179247,0.178989,-20.3993,6,0.0178677,10,-0.00365125,-1.69039,-0.291758,-0.202222,161.4,0.1789894,
2,0,0,1,0,7375.14,0.176841,0.176561,-20.8133,6,0.0177853,10,-0.00367482,-1.68166,-0.278394,-0.21193,172.478,0.176561,
2,0,0,1,0,7375.14,0.174444,0.174145,-21.2376,6,0.0177011,10,-0.00369843,-1.6729,-0.262306,-0.224928,186.81,0.174145,
2,0,0,1,0,7375.15,0.172047,0.171718,-21.6983,6,0.0176152,10,-0.00372599,-1.66358,-0.250196,-0.235815,200.276,0.1717182,
2,0,0,1,0,7375.15,0.169644,0.169415,-22.1879,6,0.0175274,10,-0.00375896,-1.65388,-0.235067,-0.250992,218.069,0.169415,
2,0,0,1,0,7375.16,0.167242,0.166948,-22.7385,6,0.0174375,10,-0.00379616,-1.64324,-0.225588,-0.261539,232.682,0.1669485,
2,0,0,1,0,7375.16,0.164845,0.164599,-23.3194,6,0.0173453,10,-0.00383835,-1.63228,-0.214387,-0.275203,251.068,0.164599,
2,0,0,1,0,7375.16,0.162448,0.162125,-23.9305,6,0.0172508,10,-0.00387972,-1.62105,-0.20533,-0.287342,269.142,0.162125,
2,0,0,1,0,7375.17,0.160042,0.159782,-24.6063,6,0.0171536,10,-0.00393166,-1.60895,-0.19841,-0.297364,286.394,0.159782,
2,0,0,1,0,7375.17,0.157645,0.157401,-25.3082,6,0.0170538,10,-0.00398353,-1.59674,-0.186426,-0.316479,313.716,0.157401,
2,0,0,1,0,7375.18,0.155248,0.15493,-26.0885,6,0.0169509,10,-0.00404189,-1.58355,-0.180886,-0.326172,333.186,0.15493,
2,0,0,1,0,7375.18,0.152845,0.15257,-26.9278,6,0.0168448,10,-0.00410839,-1.5698,-0.174364,-0.338372,356.444,0.15257,
2,0,0,1,0,7375.18,0.150443,0.150174,-27.8077,6,0.0167353,10,-0.00417599,-1.55583,-0.168286,-0.350595,381.299,0.150174,
2,0,0,1,0,7375.19,0.148046,0.147749,-28.7486,6,0.0166221,10,-0.00424757,-1.54138,-0.164568,-0.358515,403.187,0.147749,
2,0,0,1,0,7375.19,0.145648,0.145391,-29.7255,6,0.016505,10,-0.00432183,-1.52687,-0.159365,-0.37022,430.928,0.145391,
2,0,0,1,0,7375.2,0.14324,0.14299,-30.7907,6,0.0163839,10,-0.00440275,-1.51158,-0.155582,-0.379222,457.084,0.14299,
2,0,0,1,0,7375.2,0.140843,0.14059,-31.9377,6,0.0162583,10,-0.00449012,-1.4957,-0.152124,-0.387842,484.32,0.14059,
2,0,0,1,0,7375.2,0.138446,0.138178,-33.1234,6,0.0161281,10,-0.00457691,-1.47986,-0.150556,-0.391882,507.214,0.138178,
2,0,0,1,0,7375.21,0.136041,0.135777,-34.3821,6,0.015993,10,-0.00466829,-1.46367,-0.150973,-0.390797,524.627,0.135777,
2,0,0,1,0,7375.21,0.133644,0.133395,-35.6571,6,0.0158528,10,-0.00475649,-1.44785,-0.150444,-0.392172,545.985,0.133395,
2,0,0,1,0,7375.22,0.131246,0.130975,-36.9818,6,0.0157074,10,-0.0048437,-1.43201,-0.152526,-0.38682,558.544,0.130975,
2,0,0,1,0,7375.22,0.128849,0.128604,-38.3503,6,0.0155566,10,-0.00493201,-1.41623,-0.154491,-0.381899,571.41,0.1286042,
2,0,0,1,0,7375.22,0.126441,0.126176,-39.7446,6,0.0154002,10,-0.00501481,-1.40072,-0.157295,-0.375092,581.167,0.126176,
2,0,0,1,0,7375.23,0.124044,0.12378,-41.1511,6,0.0152383,10,-0.0050937,-1.38562,-0.163974,-0.359812,576.435,0.12378,
2,0,0,1,0,7375.23,0.121647,0.121394,-42.5499,6,0.0150707,10,-0.00516532,-1.3711,-0.167111,-0.353059,585.189,0.121394,
2,0,0,1,0,7375.24,0.119241,0.119023,-43.873,6,0.0148977,10,-0.00522192,-1.3578,-0.172355,-0.342316,586.476,0.119023,
2,0,0,1,0,7375.24,0.116844,0.116652,-45.3177,6,0.0147192,10,-0.00528641,-1.34373,-0.178326,-0.330855,584.722,0.116652,
2,0,0,1,0,7375.24,0.114447,0.114204,-46.7675,6,0.0145349,10,-0.00534103,-1.33006,-0.182527,-0.32324,588.359,0.114204,
2,0,0,1,0,7375.25,0.11205,0.111846,-48.1333,6,0.0143449,10,-0.0053835,-1.31755,-0.192258,-0.306879,575.221,0.111846,
2,0,0,1,0,7375.25,0.109642,0.109426,-49.5199,6,0.0141495,10,-0.00541875,-1.30522,-0.201597,-0.292663,564.272,0.109426,
2,0,0,1,0,7375.26,0.107245,0.107041,-50.8464,6,0.0139486,10,-0.00544264,-1.29374,-0.214159,-0.275497,545.334,0.107041,
2,0,0,1,0,7375.26,0.104848,0.104689,-52.1366,6,0.0137425,10,-0.00545812,-1.28286,-0.226362,-0.260645,529.052,0.104689,
2,0,0,1,0,7375.26,0.10244,0.102191,-53.3985,6,0.0135313,10,-0.00545683,-1.27247,-0.239376,-0.246474,512.258,0.102191,
2,0,0,1,0,7375.27,0.100042,0.0998576,-54.5819,6,0.0133152,10,-0.00545042,-1.26295,-0.256128,-0.230353,489.689,0.0998576,
2,0,0,1,0,7375.27,0.0976454,0.097494,-55.7368,6,0.0130944,10,-0.00543401,-1.25386,-0.268823,-0.219475,476.675,0.097494,
2,0,0,1,0,7375.28,0.0952427,0.0950158,-56.8733,6,0.0128691,10,-0.00540387,-1.24509,-0.286895,-0.20565,455.488,0.0950158,
2,0,0,1,0,7375.28,0.0928428,0.0926087,-57.966,6,0.0126392,10,-0.00536815,-1.23683,-0.311994,-0.189106,426.405,0.0926087,
2,0,0,1,0,7375.28,0.0904457,0.0902026,-58.9797,6,0.0124052,10,-0.00532012,-1.2293,-0.339447,-0.173812,398.666,0.09020263,
2,0,0,1,0,7375.29,0.0880486,0.0878114,-59.8655,6,0.0121674,10,-0.00525688,-1.22282,-0.378363,-0.155935,363.326,0.0878114,
2,0,0,1,0,7375.29,0.0856404,0.0853895,-60.711,6,0.0119262,10,-0.00518408,-1.21673,-0.424346,-0.139038,328.536,0.08538945,
2,0,0,1,0,7375.3,0.0832433,0.0829569,-61.4727,6,0.0116817,10,-0.00509958,-1.21132,-0.474116,-0.124442,297.689,0.0829569,
2,0,0,1,0,7375.3,0.0808462,0.0805826,-62.1402,6,0.0114344,10,-0.00500742,-1.20663,-0.547449,-0.107773,260.604,0.0805826,
2,0,0,1,0,7375.3,0.0784408,0.0781257,-62.7489,6,0.0111846,10,-0.0049023,-1.20239,-0.652719,-0.0903912,220.573,0.0781257,
2,0,0,1,0,7375.31,0.0760437,0.0757419,-63.2252,6,0.0109325,10,-0.0047888,-1.19911,-0.7944,-0.0742699,182.642,0.07574188,
2,0,0,1,0,7375.31,0.0736466,0.0733507,-63.5916,6,0.0106789,10,-0.00466448,-1.1966,-1.02652,-0.057476,142.27,0.0733507,
2,0,0,1,0,7375.32,0.0712495,0.0709881,-63.8925,6,0.0104238,10,-0.00453561,-1.19455,-1.45853,-0.0404516,100.574,0.0709881,
2,0,0,1,0,7375.32,0.0688413,0.0685841,-64.1064,6,0.0101678,10,-0.00439668,-1.1931,-2.44954,-0.0240862,60.0473,0.0685841,
2,0,0,1,0,7375.32,0.0664442,0.0661378,-64.1912,6,0.00991113,10,-0.00424546,-1.19252,-9.88355,-0.00596952,14.9019,0.0661378,
2,0,0,1,0,7375.33,0.0640471,0.0637423,-64.1685,6,0.00965438,10,-0.00409025,-1.19268,4.68791,0.0125856,-31.4129,0.06374231,
2,0,0,1,0,7375.33,0.0616389,0.0613278,-64.0365,6,0.00939799,10,-0.00392722,-1.19357,2.02035,0.0292028,-72.7604,0.0613278,
2,0,0,1,0,7375.34,0.0592417,0.0589259,-63.803,6,0.00914233,10,-0.00375965,-1.19516,1.30845,0.0450914,-111.971,0.0589259,
2,0,0,1,0,7375.34,0.0568446,0.0565581,-63.4941,6,0.00888773,10,-0.00359111,-1.19727,0.991444,0.0595091,-147.077,0.0565581,
2,0,0,1,0,7375.34,0.0544475,0.054117,-63.0908,6,0.00863458,10,-0.00341428,-1.20003,0.799561,0.0737905,-181.229,0.054117,
2,0,0,1,0,7375.35,0.0520421,0.05173,-62.6249,6,0.00838314,10,-0.00323959,-1.20325,0.688337,0.0857138,-209.018,0.05173,
2,0,0,1,0,7375.35,0.049645,0.0493441,-62.0665,6,0.00813379,10,-0.00306261,-1.20714,0.625826,0.0942754,-228.08,0.0493441,
2,0,0,1,0,7375.36,0.0472479,0.0469434,-61.4845,6,0.00788672,10,-0.00288629,-1.21123,0.571863,0.103172,-247.352,0.0469434,
2,0,0,1,0,7375.36,0.0448397,0.0445246,-60.9029,6,0.00764202,10,-0.00271168,-1.21536,0.543538,0.108548,-257.662,0.0445246,
2,0,0,1,0,7375.36,0.0424426,0.0421418,-60.2532,6,0.00739978,10,-0.00253918,-1.22002,0.519031,0.113673,-267.026,0.0421418,
2,0,0,1,0,7375.37,0.0400455,0.0397538,-59.5954,6,0.00716016,10,-0.00236914,-1.22479,0.491621,0.120011,-278.938,0.0397538,
2,0,0,1,0,7375.37,0.0376456,0.0373233,-58.9157,6,0.00692321,10,-0.00219893,-1.22977,0.483859,0.121936,-280.285,0.0373233,
2,0,0,1,0,7375.38,0.035243,0.0349364,-58.2284,6,0.00668898,10,-0.00203429,-1.23486,0.475823,0.123996,-281.754,0.0349364,
2,0,0,1,0,7375.38,0.0328459,0.0325473,-57.564,6,0.00645745,10,-0.00187355,-1.23985,0.468446,0.125948,-282.872,0.0325473,
2,0,0,1,0,7375.38,0.0304488,0.0300914,-56.873,6,0.00622862,10,-0.00171139,-1.24509,0.456803,0.129159,-286.541,0.0300914,
2,0,0,1,0,7375.39,0.0280406,0.027732,-56.2026,6,0.00600254,10,-0.00155861,-1.25024,0.443932,0.132903,-291.245,0.027732,
2,0,0,1,0,7375.39,0.0256435,0.0253641,-55.4856,6,0.00577926,10,-0.00140734,-1.25582,0.43431,0.135848,-293.974,0.0253641,
2,0,0,1,0,7375.4,0.0232463,0.0229251,-54.7616,6,0.00555885,10,-0.00125542,-1.26152,0.418412,0.141009,-301.226,0.0229251,
2,0,0,1,0,7375.4,0.0208437,0.0204852,-54.049,6,0.00534131,10,-0.0011072,-1.26721,0.403063,0.146379,-308.412,0.0204852,
2,0,0,1,0,7375.4,0.018441,0.0180865,-53.2971,6,0.00512667,10,-0.000963959,-1.2733,0.385129,0.153195,-318.162,0.0180865,
2,0,0,1,0,7375.41,0.0160439,0.0157335,-52.5154,6,0.00491512,10,-0.000826249,-1.27971,0.36037,0.163721,-335.048,0.0157335,
2,0,0,1,0,7375.41,0.0136468,0.0132988,-51.6989,6,0.00470676,10,-0.000687532,-1.28652,0.345853,0.170593,-343.744,0.01329878,
2,0,0,1,0,7375.42,0.0112414,0.0109606,-50.8578,6,0.00450171,10,-0.000557431,-1.29364,0.32865,0.179522,-355.808,0.0109606,
2,0,0,1,0,7375.42,0.00884431,0.00849514,-50.0001,6,0.00430007,10,-0.000424758,-1.30103,0.310955,0.189738,-369.566,0.00849514,
2,0,0,1,0,7375.42,0.0064472,0.00611346,-49.0925,6,0.00410197,10,-0.000300125,-1.30898,0.30534,0.193227,-369.864,0.00611346,
2,0,0,1,0,7375.43,0.00404455,0.00372225,-48.1597,6,0.00390755,10,-0.000179262,-1.31732,0.288452,0.20454,-384.184,0.00372225,
2,0,0,1,0,7375.43,0.0016419,0.00128543,-47.2793,6,0.00371684,10,-6.07744e-05,-1.32533,0.279213,0.211308,-389.195,0.001285434,
2,0,0,1,0,7375.44,-0.000755207,-0.00112805,-46.303,6,0.00352977,10,5.22322e-05,-1.33439,0.274394,0.215019,-388.223,-0.00112805,
2,0,0,1,0,7375.44,-0.00315231,-0.00351503,-45.3452,6,0.00334658,10,0.000159389,-1.34347,0.264513,0.223052,-394.901,-0.00351503,
2,0,0,1,0,7375.44,-0.00555774,-0.00591579,-44.418,6,0.00316714,10,0.000262768,-1.35244,0.265064,0.222588,-386.038,-0.00591579,
2,0,0,1,0,7375.45,-0.00795485,-0.00827838,-43.5026,6,0.00299138,10,0.000360131,-1.36149,0.273781,0.215501,-366.328,-0.00827838,
2,0,0,1,0,7375.45,-0.010352,-0.0106537,-42.6258,6,0.00281925,10,0.000454122,-1.37033,0.281604,0.209514,-349.281,-0.0106537,
2,0,0,1,0,7375.46,-0.0127546,-0.0131478,-41.8164,6,0.00265046,10,0.000549792,-1.37865,0.297416,0.198375,-324.522,-0.0131478,
2,0,0,1,0,7375.46,-0.0151573,-0.0155316,-41.0594,6,0.00248481,10,0.000637717,-1.38659,0.316054,0.186677,-299.907,-0.0155316,
2,0,0,1,0,7375.46,-0.0175544,-0.0179281,-40.371,6,0.00232203,10,0.000723775,-1.39393,0.338542,0.174277,-275.345,-0.0179281,
2,0,0,1,0,7375.47,-0.0199515,-0.0202801,-39.7388,6,0.00216188,10,0.000805905,-1.40079,0.368506,0.160106,-249.028,-0.0202801,
2,0,0,1,0,7375.47,-0.0223597,-0.0227275,-39.1787,6,0.00200412,10,0.000890433,-1.40695,0.404296,0.145933,-223.778,-0.0227275,
2,0,0,1,0,7375.48,-0.0247568,-0.0251134,-38.6733,6,0.00184849,10,0.000971217,-1.41259,0.463296,0.127348,-192.829,-0.0251134,
2,0,0,1,0,7375.48,-0.0271539,-0.0274876,-38.2318,6,0.00169473,10,0.0010509,-1.41758,0.5214,0.113157,-169.396,-0.0274876,
2,0,0,1,0,7375.48,-0.0295593,-0.0299542,-37.8733,6,0.00154259,10,0.00113446,-1.42167,0.593987,0.0993288,-147.156,-0.0299542,
2,0,0,1,0,7375.49,-0.0319564,-0.0323464,-37.5493,6,0.00139179,10,0.00121458,-1.4254,0.69907,0.0843978,-123.956,-0.0323464,
2,0,0,1,0,7375.49,-0.0343535,-0.0347323,-37.2578,6,0.00124222,10,0.00129405,-1.42878,0.833881,0.0707535,-103.21,-0.0347323,
2,0,0,1,0,7375.5,-0.0367506,-0.0370928,-37.0412,6,0.00109366,10,0.00137396,-1.43132,1.01255,0.0582686,-84.4643,-0.0370928,
2,0,0,1,0,7375.5,-0.0391588,-0.039519,-36.8861,6,0.000945809,10,0.0014577,-1.43314,1.32725,0.0444528,-64.1008,-0.039519,
2,0,0,1,0,7375.5,-0.0415559,-0.0419357,-36.7393,6,0.000798576,10,0.00154069,-1.43487,1.7567,0.0335857,-48.2466,-0.04193569,
2,0,0,1,0,7375.51,-0.043953,-0.0443449,-36.6416,6,0.000651823,10,0.00162487,-1.43603,2.35939,0.0250064,-35.83,-0.0443449,
2,0,0,1,0,7375.51,-0.0463585,-0.0467171,-36.5768,6,0.000505389,10,0.00170876,-1.43679,4.20348,0.014036,-20.0725,-0.0467171,
2,0,0,1,0,7375.52,-0.0487556,-0.0491136,-36.5424,6,0.000359156,10,0.00179473,-1.4372,9.31027,0.00633709,-9.05141,-0.0491136,
2,0,0,1,0,7375.52,-0.0511527,-0.0514963,-36.5474,6,0.000212972,10,0.00188206,-1.43714,-20.5178,-0.00287555,4.10699,-0.0514963,
2,0,0,1,0,7375.52,-0.0535498,-0.053878,-36.5553,6,6.67654e-05,10,0.00196953,-1.43705,-6.58068,-0.00896564,12.8076,-0.053878,
2,0,0,1,0,7375.53,-0.055958,-0.0562671,-36.6161,6,-7.96044e-05,10,0.00206028,-1.43633,-4.12854,-0.0142908,20.4379,-0.0562671,
2,0,0,1,0,7375.53,-0.0583551,-0.0586816,-36.6649,6,-0.000226169,10,0.00215156,-1.43575,-2.53848,-0.0232423,33.3036,-0.0586816,
2,0,0,1,0,7375.54,-0.0607522,-0.0610813,-36.7433,6,-0.000372993,10,0.00224433,-1.43482,-2.23614,-0.0263848,37.8919,-0.0610813,
2,0,0,1,0,7375.54,-0.0631604,-0.0635129,-36.8762,6,-0.000520249,10,0.00234211,-1.43325,-1.84068,-0.0320533,46.1427,-0.0635129,
2,0,0,1,0,7375.54,-0.0655575,-0.0659094,-36.9814,6,-0.000667986,10,0.00243742,-1.43202,-1.57604,-0.0374356,54.061,-0.0659094,
2,0,0,1,0,7375.55,-0.0679546,-0.0683006,-37.1087,6,-0.000816194,10,0.00253455,-1.43052,-1.53008,-0.0385601,55.8962,-0.06830059,
2,0,0,1,0,7375.55,-0.0703573,-0.0707045,-37.2635,6,-0.000964939,10,0.0026347,-1.42872,-1.34252,-0.0439473,63.9526,-0.0707045,
2,0,0,1,0,7375.56,-0.0727571,-0.0730926,-37.4117,6,-0.0011143,10,0.00273452,-1.42699,-1.24316,-0.0474598,69.3461,-0.0730926,
2,0,0,1,0,7375.56,-0.0751543,-0.0755061,-37.5952,6,-0.00126434,10,0.00283866,-1.42487,-1.16285,-0.0507372,74.4919,-0.0755061,
2,0,0,1,0,7375.56,-0.0775514,-0.077874,-37.7726,6,-0.0014151,10,0.0029415,-1.42282,-1.0972,-0.0537732,79.3093,-0.077874,
2,0,0,1,0,7375.57,-0.0799595,-0.0803044,-37.9787,6,-0.00156663,10,0.00304985,-1.42046,-1.07218,-0.0550282,81.5739,-0.0803044,
2,0,0,1,0,7375.57,-0.0823567,-0.0827041,-38.174,6,-0.00171894,10,0.00315714,-1.41823,-0.994136,-0.059348,88.4682,-0.0827041,
2,0,0,1,0,7375.58,-0.0847538,-0.0850752,-38.3758,6,-0.00187205,10,0.00326482,-1.41594,-0.97157,-0.0607264,91.0381,-0.08507517,
2,0,0,1,0,7375.58,-0.0871592,-0.0874802,-38.6225,6,-0.00202604,10,0.0033787,-1.41316,-0.941511,-0.0626652,94.4647,-0.0874802,
2,0,0,1,0,7375.58,-0.0895563,-0.0898894,-38.8513,6,-0.00218101,10,0.00349232,-1.41059,-0.901076,-0.0654773,99.2799,-0.0898894,
2,0,0,1,0,7375.59,-0.0919534,-0.0923114,-39.0815,6,-0.00233691,10,0.00360767,-1.40803,-0.894372,-0.0659681,100.676,-0.0923114,
2,0,0,1,0,7375.59,-0.0943505,-0.0946973,-39.331,6,-0.00249375,10,0.00372454,-1.40526,-0.85969,-0.0686294,105.409,-0.0946973,
2,0,0,1,0,7375.6,-0.0967587,-0.097097,-39.5907,6,-0.00265163,10,0.00384413,-1.40241,-0.824645,-0.071546,110.339,-0.097097,
2,0,0,1,0,7375.6,-0.0991558,-0.0994978,-39.8641,6,-0.00281056,10,0.00396639,-1.39942,-1.18735,-0.0496905,76.6895,-0.0994978,
2,0,0,0,0,7375.6,-0.0999548,-0.100228,-39.9551,6,-0.00286242,10,0.00400463,-1.39843,0.0189433,3.11456,-4441.85,-0.100228,
2,0,0,0,1,7375.6,-0.0999548,-0.100305,-39.7611,6,-0.00288631,10,0.00398822,-1.40054,-0.0212475,-2.77679,3599.03,-0.100305,
2,0,0,1,1,7375.61,-0.0979573,-0.0984331,-33.6558,6,-0.00299805,10,0.00331285,-1.47294,-0.0250466,-2.35561,2755.09,-0.0984331,
2,0,0,1,1,7375.61,-0.0955546,-0.0960186,-27.3424,6,-0.00311919,10,0.00262538,-1.56316,-0.0244217,-2.41589,2518.16,-0.0960186,
2,0,0,1,1,7375.61,-0.0931519,-0.0936401,-21.8037,6,-0.00321672,10,0.0020417,-1.66147,-0.0223578,-2.6389,2198.52,-0.0936401,
2,0,0,1,1,7375.62,-0.0907548,-0.0912192,-16.8822,6,-0.00329345,10,0.00153998,-1.77257,-0.0189697,-3.11022,1953.89,-0.0912192,
2,0,0,1,1,7375.62,-0.0883577,-0.0888025,-12.4828,6,-0.00335163,10,0.0011085,-1.90369,-0.0147403,-4.00264,1760.06,-0.0888025,
2,0,0,1,1,7375.63,-0.0859523,-0.0863551,-8.46095,6,-0.00339302,10,0.000730646,-2.07258,-0.0092409,-6.38466,1596.04,-0.0863551,
2,0,0,1,1,7375.63,-0.0835552,-0.0839999,-4.83649,6,-0.00341917,10,0.000406265,-2.31547,-0.0103383,-5.70691,1451.62,-0.0839999,
2,0,0,1,1,7375.63,-0.0811581,-0.0816055,-1.53849,6,-0.00343151,10,0.000125549,-2.81291,-0.0315651,-1.86915,1323.96,-0.0816055,
2,1,0,1,1,7375.64,-0.0787555,-0.079192,1.46797,6,-0.00343129,10,-0.000116251,-2.83328,0.0666092,0.885763,1207.83,-0.079192,
2,1,0,1,1,7375.64,-0.0763528,-0.0767849,4.20951,6,-0.0034196,10,-0.000323227,-2.37577,0.0124364,4.74416,1106.17,-0.0767849,
2,1,0,1,1,7375.65,-0.0739557,-0.0744191,6.73544,6,-0.0033974,10,-0.000501246,-2.17163,0.0108372,5.44422,1014.87,-0.0744191,
2,1,0,1,1,7375.65,-0.0715586,-0.0720385,9.0442,6,-0.00336556,10,-0.000651531,-2.04363,0.0193801,3.04437,931.426,-0.0720385,
2,1,0,1,1,7375.65,-0.0691532,-0.0696473,11.1546,6,-0.00332491,10,-0.000776889,-1.95255,0.0275743,2.13967,859.868,-0.0696473,
2,1,0,1,1,7375.66,-0.0667561,-0.0672147,13.1234,6,-0.00327612,10,-0.000882088,-1.88195,0.03643,1.61955,786.942,-0.0672147,
2,1,0,1,1,7375.66,-0.0643589,-0.0648818,14.9363,6,-0.00321975,10,-0.000969092,-1.82576,0.0454062,1.29938,729.141,-0.0648818,
2,1,0,1,1,7375.67,-0.0619563,-0.0624111,16.6204,6,-0.00315644,10,-0.0010373,-1.77936,0.055461,1.06381,669.928,-0.0624111,
2,1,0,1,1,7375.67,-0.0595536,-0.0600252,18.1705,6,-0.00308665,10,-0.00109069,-1.74063,0.0668387,0.882722,611.211,-0.0600252,
2,1,0,1,1,7375.67,-0.0571565,-0.0575799,19.5781,6,-0.00301099,10,-0.0011273,-1.70823,0.0784653,0.751925,563.831,-0.0575799,
2,1,0,1,1,7375.68,-0.0547594,-0.055159,20.879,6,-0.00292992,10,-0.00115166,-1.68029,0.0922902,0.639288,512.621,-0.055159,
2,1,0,1,1,7375.68,-0.0523512,-0.0527571,22.0636,6,-0.00284386,10,-0.00116401,-1.65632,0.106548,0.553739,470.406,-0.0527571,
2,1,0,1,1,7375.69,-0.0499541,-0.050368,23.121,6,-0.00275336,10,-0.00116456,-1.63599,0.122387,0.482078,430.496,-0.050368,
2,1,0,1,1,7375.69,-0.047557,-0.0479376,24.1139,6,-0.00265876,10,-0.00115596,-1.61773,0.140372,0.420311,391.996,-0.0479376,
2,1,0,1,1,7375.69,-0.0451544,-0.0455665,25.0085,6,-0.0025604,10,-0.00113955,-1.60191,0.160312,0.368032,356.215,-0.0455665,
2,1,0,1,1,7375.7,-0.0427545,-0.0431499,25.8296,6,-0.00245863,10,-0.00111455,-1.58788,0.18147,0.325123,325.344,-0.0431499,
2,1,0,1,1,7375.7,-0.0403574,-0.0407141,26.5598,6,-0.00235375,10,-0.00108136,-1.57577,0.205082,0.28769,296.523,-0.0407141,
2,1,0,1,1,7375.71,-0.0379603,-0.0383568,27.2309,6,-0.00224608,10,-0.00104449,-1.56494,0.232964,0.253258,267.836,-0.0383568,
2,1,0,1,1,7375.71,-0.0355521,-0.0359391,27.8633,6,-0.00213582,10,-0.00100138,-1.55497,0.260638,0.226367,244.835,-0.0359391,
2,1,0,1,1,7375.71,-0.033155,-0.0335235,28.4079,6,-0.00202319,10,-0.000952333,-1.54656,0.29749,0.198326,218.844,-0.0335235,
2,1,0,1,1,7375.72,-0.0307579,-0.0311535,28.9006,6,-0.00190853,10,-0.000900355,-1.53909,0.34119,0.172924,194.292,-0.0311535,
2,1,0,1,1,7375.72,-0.0283524,-0.0287018,29.3439,6,-0.001792,10,-0.000842222,-1.53248,0.383144,0.153989,175.724,-0.0287018,
2,1,0,1,1,7375.73,-0.0259553,-0.0263,29.736,6,-0.00167375,10,-0.000782058,-1.52672,0.436065,0.135301,156.557,-0.0263,
2,1,0,1,1,7375.73,-0.0235582,-0.0239618,30.0882,6,-0.00155407,10,-0.000720966,-1.5216,0.495304,0.119119,139.496,-0.0239618,
2,1,0,1,1,7375.73,-0.0211611,-0.0215133,30.4099,6,-0.00143302,10,-0.000654217,-1.51699,0.570117,0.103488,122.443,-0.0215133,
2,1,0,1,1,7375.74,-0.0187529,-0.0191274,30.6795,6,-0.00131078,10,-0.000586818,-1.51315,0.669108,0.0881771,105.276,-0.0191274,
2,1,0,1,1,7375.74,-0.0163558,-0.0167542,30.9049,6,-0.00118759,10,-0.000517786,-1.50997,0.778874,0.0757504,91.1918,-0.0167542,
2,1,0,1,1,7375.75,-0.0139587,-0.0143322,31.1019,6,-0.00106355,10,-0.00044576,-1.50721,0.90197,0.0654124,79.2871,-0.0143322,
2,1,0,1,1,7375.75,-0.0115505,-0.0118891,31.2875,6,-0.000938772,10,-0.000371979,-1.50463,1.10389,0.0534475,65.117,-0.0118891,
2,1,0,1,1,7375.75,-0.0091534,-0.00952966,31.4404,6,-0.000813286,10,-0.000299617,-1.50251,1.35294,0.0436087,53.3692,-0.00952966,
2,1,0,1,1,7375.76,-0.00675629,-0.00710769,31.533,6,-0.000687324,10,-0.000224127,-1.50123,1.71394,0.0344236,42.305,-0.00710769,
2,1,0,1,1,7375.76,-0.00435919,-0.0046942,31.6163,6,-0.000561016,10,-0.000148413,-1.50009,3.36293,0.0175442,21.5947,-0.0046942,
2,1,0,1,1,7375.77,-0.00195376,-0.00229874,31.6932,6,-0.000434363,10,-7.28545e-05,-1.49903, , , ,-0.00229874,
2,1,0,1,1,7375.77,-7.54729e-05,-0.000382585,31.638,6,-0.000336079,10,-1.21042e-05,-1.49979, , , ,-0.000382585,