File: Figure_codes/Fig_3-5/rawdata_trumpetplot_data/before 10th/20221101_1-115_002_TrumpetPlot_ParaChange_04_CV_C01_1.csv
mode,ox/red,error,control changes,counter inc.,time/s,control/V,Ewe/V,<I>/mA,cycle number,(Q-Qo)/C,I Range,P/W,log(|I|),Tafel slope mV/dec,alpha_eff,dI/d(E-IR),E-IR/V,
2,0,0,1,0,1590.43,2.44065e-05,-0.000287149,-0.362085,2,0.0000000E+000,11,1.03972e-07,-3.44119, , , ,-0.0002871489,
2,0,0,1,0,1591.7,0.00129791,0.000987475,-0.168859,2,-0.000221089,11,-1.66744e-07,-3.77248, , , ,0.000987475,
2,0,0,1,0,1593.2,0.00279612,0.00253677,-0.137938,2,-0.000412996,11,-3.49918e-07,-3.86031,-0.0188448,-3.13084,17.9914,0.00253677,
2,0,0,1,0,1594.7,0.00429431,0.00399059,-0.118571,2,-0.000571241,11,-4.73168e-07,-3.92602,-0.0267933,-2.20205,10.4416,0.00399059,
2,0,0,1,0,1596.2,0.00579242,0.00549203,-0.105858,2,-0.000706204,11,-5.81373e-07,-3.97528,-0.0303434,-1.94441,8.1852,0.00549203,
2,0,0,1,0,1597.7,0.00729061,0.00702116,-0.0954652,2,-0.000823112,11,-6.70277e-07,-4.02015,-0.0341733,-1.7265,6.50243,0.00702116,
2,0,0,1,0,1599.19,0.00878882,0.00847394,-0.086568,2,-0.000926006,11,-7.33572e-07,-4.06264,-0.0383332,-1.53914,5.2735,0.00847394,
2,0,0,1,0,1600.69,0.010287,0.0100189,-0.079585,2,-0.00101709,11,-7.97357e-07,-4.09917,-0.0416369,-1.41701,4.45355,0.0100189,
2,0,0,1,0,1602.19,0.0117852,0.0114781,-0.074002,2,-0.00109873,11,-8.49402e-07,-4.13076,-0.0443946,-1.32899,3.82827,0.0114781,
2,0,0,1,0,1603.69,0.0132834,0.0129743,-0.0679301,2,-0.00117197,11,-8.81347e-07,-4.16794,-0.0473423,-1.24624,3.32592,0.0129743,
2,0,0,1,0,1605.19,0.0147815,0.014498,-0.0635222,2,-0.00123766,11,-9.20946e-07,-4.19707,-0.0489654,-1.20493,3.00042,0.014498,
2,0,0,1,0,1606.69,0.0162797,0.015973,-0.0596098,2,-0.00129644,11,-9.52149e-07,-4.22468,-0.0531142,-1.11081,2.61485,0.01597303,
2,0,0,1,0,1608.18,0.0177779,0.0174555,-0.055463,2,-0.00134957,11,-9.68134e-07,-4.256,-0.053913,-1.09436,2.37663,0.0174555,
2,0,0,1,0,1609.68,0.0192761,0.0189846,-0.0527988,2,-0.00139776,11,-1.00236e-06,-4.27738,-0.0506731,-1.16433,2.40435,0.01898461,
2,0,0,1,0,1611.18,0.0207743,0.020519,-0.0491169,2,-0.00144067,11,-1.00783e-06,-4.30877,-0.0554163,-1.06467,2.06536,0.020519,
2,0,0,1,0,1612.68,0.0222725,0.0219507,-0.0458424,2,-0.00147899,11,-1.00627e-06,-4.33873,-0.0517415,-1.14028,2.07525,0.0219507,
2,0,0,1,0,1614.18,0.0237707,0.0234904,-0.0433585,2,-0.00151322,11,-1.01851e-06,-4.36293,-0.060617,-0.973324,1.66977,0.0234904,
2,0,0,1,0,1615.67,0.0252689,0.024995,-0.0410561,2,-0.00154398,11,-1.0262e-06,-4.38662,-0.0564027,-1.04605,1.67361,0.024995,
2,0,0,1,0,1617.17,0.0267671,0.0264499,-0.0392736,2,-0.0015708,11,-1.03878e-06,-4.4059,-0.0594446,-0.992522,1.50611,0.0264499,
2,0,0,1,0,1618.67,0.0282653,0.0279536,-0.0363075,2,-0.00159416,11,-1.01493e-06,-4.44,-0.0548362,-1.07593,1.52414,0.02795363,
2,0,0,1,0,1620.17,0.0297635,0.0294774,-0.0343193,2,-0.00161426,11,-1.01164e-06,-4.46446,-0.0543332,-1.08589,1.47105,0.0294774,
2,0,0,1,0,1621.67,0.0312617,0.0309525,-0.0327107,2,-0.00163143,11,-1.01248e-06,-4.48531,-0.0568256,-1.03826,1.30197,0.0309525,
2,0,0,1,0,1623.17,0.0327599,0.0324402,-0.0307732,2,-0.00164564,11,-9.9829e-07,-4.51183,-0.0557791,-1.05774,1.27444,0.0324402,
2,0,0,1,0,1624.66,0.0342581,0.0339471,-0.0284731,2,-0.00165662,11,-9.66578e-07,-4.54557,-0.0478747,-1.23238,1.38804,0.0339471,
2,0,0,1,0,1626.16,0.0357563,0.0354528,-0.0264147,2,-0.00166495,11,-9.36475e-07,-4.57815,-0.0431283,-1.36801,1.43908,0.0354528,
2,0,0,1,0,1627.66,0.0372544,0.0369554,-0.0254437,2,-0.00167071,11,-9.40283e-07,-4.59442,-0.0477143,-1.23653,1.198,0.0369554,
2,0,0,1,0,1629.16,0.0387526,0.0384739,-0.0233403,2,-0.00167405,11,-8.97994e-07,-4.63189,-0.0457117,-1.2907,1.15412,0.0384739,
2,0,0,1,0,1630.66,0.0402508,0.0399224,-0.0214106,2,-0.00167461,11,-8.54763e-07,-4.66937,-0.0425861,-1.38543,1.14614,0.0399224,
2,0,0,1,0,1632.15,0.041749,0.0414728,-0.0193947,2,-0.00167243,11,-8.0435e-07,-4.71232,-0.0482967,-1.22162,0.954803,0.0414728,
2,0,0,1,0,1633.65,0.0432472,0.0429594,-0.0183119,2,-0.00166799,11,-7.86668e-07,-4.73727,-0.0395271,-1.49265,1.06214,0.0429594,
2,0,0,1,0,1635.15,0.0447454,0.0444429,-0.0165787,2,-0.00166153,11,-7.36807e-07,-4.78045,-0.0287656,-2.05106,1.29133,0.0444429,
2,0,0,1,0,1636.65,0.0462435,0.0459571,-0.0147508,2,-0.00165224,11,-6.77906e-07,-4.83118,-0.0265894,-2.21893,1.27973,0.0459571,
2,0,0,1,0,1638.15,0.0477417,0.0474417,-0.0133356,2,-0.00164043,11,-6.32664e-07,-4.87499,-0.0300712,-1.96201,1.00377,0.0474417,
2,0,0,1,0,1639.65,0.0492399,0.0489634,-0.011618,2,-0.00162616,11,-5.68856e-07,-4.93487,-0.0230835,-2.55594,1.13835,0.0489634,
2,0,0,1,0,1641.14,0.0507381,0.0504289,-0.00981646,2,-0.00160977,11,-4.95033e-07,-5.00805,-0.0203602,-2.89781,1.12507,0.05042886,
2,0,0,1,0,1642.64,0.0522363,0.051923,-0.00884258,2,-0.00159061,11,-4.59133e-07,-5.05342,-0.0175886,-3.35445,1.12272,0.051923,
2,0,0,1,0,1644.14,0.0537345,0.0534298,-0.00650538,2,-0.00156875,11,-3.47581e-07,-5.18673,-0.0123991,-4.75843,1.08952,0.0534298,
2,0,0,1,0,1645.64,0.0552327,0.0549293,-0.00486389,2,-0.00154465,11,-2.6717e-07,-5.31302,-0.0099224,-5.94614,1.10952,0.0549293,
2,0,0,1,0,1647.14,0.0567309,0.0564212,-0.00352919,2,-0.00151805,11,-1.99121e-07,-5.45233,-0.00623819,-9.45788,1.0926,0.05642125,
2,0,0,1,0,1648.63,0.0582291,0.0578814,-0.00117024,2,-0.00148891,11,-6.7735e-08,-5.93173,-0.00794125,-7.42956,1.37325,0.0578814,
2,0,0,1,0,1650.13,0.0597273,0.0593872,0.000631934,2,-0.00145678,11,3.75288e-08,-6.19933,-0.41191,-0.143235,0.909559,0.0593872,
2,0,0,1,0,1651.63,0.0612255,0.0609471,0.00180276,2,-0.00142194,11,1.09873e-07,-5.74406,0.00258196,22.8509,0.938667,0.0609471,
2,0,0,1,0,1653.13,0.0627237,0.0624115,0.00338677,2,-0.00138445,11,2.11373e-07,-5.47021,0.00637761,9.25112,1.10234,0.0624115,
2,0,0,1,0,1654.63,0.0642219,0.0639544,0.00504824,2,-0.00134432,11,3.22857e-07,-5.29686,0.00816978,7.22174,1.55483,0.0639544,
2,0,0,1,0,1656.13,0.0657201,0.0654454,0.00699577,2,-0.00130092,11,4.57841e-07,-5.15516,0.0108021,5.46192,1.57623,0.0654454,
2,0,0,1,0,1657.62,0.0672183,0.0669363,0.00947659,2,-0.00125423,11,6.34328e-07,-5.02335,0.0186544,3.16279,1.12939,0.0669363,
2,0,0,1,0,1659.12,0.0687164,0.0683986,0.0113888,2,-0.0012048,11,7.78974e-07,-4.94352,0.0186333,3.16638,1.39365,0.0683986,
2,0,0,1,0,1660.62,0.0702146,0.0698937,0.0136878,2,-0.00115289,11,9.56691e-07,-4.86367,0.0240913,2.44901,1.26179,0.0698937,
2,1,0,1,0,1662.12,0.0717128,0.0713751,0.0155742,2,-0.00109741,11,1.11161e-06,-4.80759,0.0226692,2.60265,1.51515,0.0713751,
2,0,0,1,0,1663.62,0.073211,0.0729106,0.0177564,2,-0.00103869,11,1.29463e-06,-4.75064,0.0303888,1.9415,1.34774,0.0729106,
2,1,0,1,0,1665.11,0.0747092,0.0743962,0.0189801,2,-0.000976894,11,1.41205e-06,-4.7217,0.0303376,1.94478,1.47364,0.07439623,
2,1,0,1,0,1666.61,0.0762074,0.0759635,0.0213636,2,-0.000912516,11,1.62286e-06,-4.67032,0.0331189,1.78146,1.51882,0.0759635,
2,1,0,1,0,1668.11,0.0777055,0.077431,0.0237709,2,-0.000844413,11,1.8406e-06,-4.62396,0.0390922,1.50925,1.39231,0.077431,
2,1,0,1,0,1669.61,0.0792037,0.0789124,0.0264566,2,-0.000773108,11,2.08775e-06,-4.57747,0.0390441,1.51111,1.50274,0.0789124,
2,1,0,1,0,1671.11,0.0807019,0.0804087,0.0282329,2,-0.000698724,11,2.27017e-06,-4.54924,0.050521,1.16783,1.26522,0.0804087,
2,1,0,1,0,1672.61,0.0822001,0.0819187,0.0297372,2,-0.000621536,11,2.43604e-06,-4.5267,0.0503663,1.17142,1.37229,0.0819187,
2,1,0,1,0,1674.1,0.0836983,0.0834277,0.0318294,2,-0.000541296,11,2.65546e-06,-4.49717,0.0482576,1.22261,1.52931,0.0834277,
2,1,0,1,0,1675.6,0.0851965,0.0849239,0.0341059,2,-0.000457969,11,2.89641e-06,-4.46717,0.060276,0.97883,1.30942,0.0849239,
2,1,0,1,0,1677.1,0.0866947,0.0863767,0.0357821,2,-0.00037154,11,3.09074e-06,-4.44633,0.064509,0.914601,1.26418,0.0863767,
2,1,0,1,0,1678.6,0.0881929,0.0879058,0.0378096,2,-0.00028198,11,3.32368e-06,-4.4224,0.0763105,0.773157,1.16355,0.0879058,
2,1,0,1,0,1680.1,0.0896911,0.0893639,0.0399379,2,-0.000190179,11,3.569e-06,-4.39861,0.0713742,0.826629,1.31031,0.08936388,
2,1,0,1,0,1681.59,0.0911893,0.0909057,0.0422161,2,-9.48447e-05,11,3.83768e-06,-4.37452,0.0707206,0.834269,1.37066,0.0909057,
2,1,0,1,0,1683.09,0.0926875,0.0923489,0.0441199,2,4.07588e-06,11,4.07442e-06,-4.35537,0.0688188,0.857324,1.46513,0.0923489,
2,1,0,1,0,1684.59,0.0941857,0.0939067,0.0467655,2,0.000105977,11,4.3916e-06,-4.33007,0.0688787,0.856578,1.52856,0.0939067,
2,1,0,1,0,1686.09,0.0956839,0.0953765,0.0480139,2,0.00020991,11,4.5794e-06,-4.31863,0.0833578,0.707792,1.32136,0.0953765,
2,1,0,1,0,1687.59,0.0971821,0.0968546,0.0502234,2,0.000317709,11,4.86437e-06,-4.29909,0.074072,0.796523,1.54151,0.0968546,
2,1,0,1,0,1689.09,0.0986803,0.0984516,0.052267,2,0.000428591,11,5.14577e-06,-4.28177,0.086258,0.683995,1.40583,0.09845157,
2,1,0,1,0,1690.58,0.100178,0.0998979,0.0542139,2,0.000542802,11,5.41585e-06,-4.26589,0.0941289,0.6268,1.32833,0.0998979,
2,1,0,1,0,1692.08,0.101677,0.101394,0.0560113,2,0.000659845,11,5.67922e-06,-4.25172,0.0876228,0.673341,1.49138,0.101394,
2,1,0,1,0,1693.58,0.103175,0.102859,0.059612,2,0.000780787,11,6.1316e-06,-4.22467,0.0732454,0.805512,1.83948,0.1028586,
2,1,0,1,0,1695.08,0.104673,0.104364,0.0616609,2,0.000905744,11,6.4352e-06,-4.20999,0.0740382,0.796886,1.91793,0.104364,
2,1,0,1,0,1696.58,0.106171,0.105884,0.0649271,2,0.00103483,11,6.87474e-06,-4.18757,0.0750792,0.785837,1.96948,0.105884,
2,1,0,1,0,1698.07,0.107669,0.107373,0.0659542,2,0.00116784,11,7.08169e-06,-4.18076,0.0772442,0.763811,1.99593,0.107373,
2,1,0,1,0,1699.57,0.109167,0.108888,0.0708275,2,0.0013056,11,7.71227e-06,-4.1498,0.0688379,0.857086,2.36571,0.108888,
2,1,0,1,0,1701.07,0.110666,0.110361,0.0743005,2,0.00144861,11,8.19987e-06,-4.12901,0.0754236,0.782249,2.26486,0.110361,
2,1,0,1,0,1702.57,0.112164,0.111919,0.0782399,2,0.00159763,11,8.7565e-06,-4.10657,0.0816244,0.722823,2.20634,0.111919,
2,1,0,1,0,1704.07,0.113662,0.113365,0.0820153,2,0.00175231,11,9.29767e-06,-4.0861,0.0688954,0.856371,2.76248,0.113365,
2,1,0,1,0,1705.57,0.11516,0.114874,0.0865144,2,0.00191243,11,9.93826e-06,-4.06291,0.0623377,0.946457,3.18846,0.114874,
2,1,0,1,0,1707.06,0.116658,0.116328,0.0915462,2,0.00208037,11,1.06494e-05,-4.03836,0.0591717,0.997098,3.54332,0.116328,
2,1,0,1,0,1708.56,0.118157,0.11791,0.0962233,2,0.00225635,11,1.13457e-05,-4.01672,0.0691931,0.852687,3.21378,0.11791,
2,1,0,1,0,1710.06,0.119655,0.1194,0.102101,2,0.00243997,11,1.21909e-05,-3.99097,0.064088,0.920609,3.6528,0.1194,
2,1,0,1,0,1711.56,0.121153,0.120865,0.107134,2,0.00263068,11,1.29488e-05,-3.97007,0.0641305,0.92,3.86008,0.120865,
2,1,0,1,0,1713.06,0.122651,0.12235,0.11275,2,0.00283126,11,1.37949e-05,-3.94788,0.0543171,1.08621,4.77128,0.12235,
2,1,0,1,0,1714.55,0.124149,0.123884,0.119111,2,0.00304132,11,1.4756e-05,-3.92405,0.0693588,0.850649,3.97526,0.123884,
2,1,0,1,0,1716.05,0.125648,0.12538,0.125152,2,0.00326018,11,1.56915e-05,-3.90256,0.07784,0.757965,3.71532,0.12538,
2,1,0,1,0,1717.55,0.127146,0.126834,0.130662,2,0.00348809,11,1.65724e-05,-3.88385,0.0700881,0.841798,4.31573,0.126834,
2,1,0,1,0,1719.05,0.128644,0.128385,0.138341,2,0.00372538,11,1.77609e-05,-3.85905,0.083731,0.704638,3.77422,0.128385,
2,1,0,1,0,1720.55,0.130142,0.129827,0.145339,2,0.00397199,11,1.88689e-05,-3.83762,0.0874198,0.674905,3.76971,0.129827,
2,1,0,1,0,1722.05,0.13164,0.131373,0.14883,2,0.00422743,11,1.95522e-05,-3.82731,0.101256,0.582679,3.35717,0.131373,
2,1,0,1,0,1723.54,0.133139,0.132865,0.152869,2,0.00448995,11,2.03109e-05,-3.81568,0.11626,0.507482,3.0422,0.132865,
2,1,0,1,0,1725.04,0.134637,0.134347,0.158175,2,0.00475878,11,2.12504e-05,-3.80086,0.136399,0.432554,2.67616,0.134347,
2,1,0,1,0,1726.54,0.136135,0.135878,0.162638,2,0.0050349,11,2.20988e-05,-3.78878,0.170118,0.346818,2.18486,0.135878,
2,1,0,1,0,1728.04,0.137633,0.137329,0.165774,2,0.00531605,11,2.27656e-05,-3.78048,0.254472,0.231852,1.48354,0.137329,
2,1,0,1,0,1729.54,0.139131,0.138842,0.168127,2,0.00560097,11,2.33432e-05,-3.77436,0.361702,0.163118,1.05645,0.138842,
2,1,0,1,0,1731.03,0.14063,0.140334,0.169491,2,0.00588749,11,2.37854e-05,-3.77085,0.702545,0.0839804,0.549158,0.140334,
2,1,0,1,0,1732.53,0.142128,0.141836,0.169454,2,0.00617615,11,2.40347e-05,-3.77095,-1.87997,-0.0313835,-0.205,0.141836,
2,1,0,1,0,1734.03,0.143626,0.143325,0.168605,2,0.00646587,11,2.41653e-05,-3.77313,-0.544124,-0.108431,-0.706769,0.1433247,
2,1,0,1,0,1735.53,0.145124,0.144832,0.165957,2,0.00675297,11,2.40358e-05,-3.78001,-0.212539,-0.277596,-1.81043,0.144832,
2,1,0,1,0,1737.03,0.146622,0.146338,0.163464,2,0.00703585,11,2.39211e-05,-3.78658,-0.15878,-0.371584,-2.37961,0.146338,
2,1,0,1,0,1738.53,0.14812,0.147834,0.16019,2,0.00731509,11,2.36815e-05,-3.79536,-0.148395,-0.397586,-2.47403,0.147834,
2,1,0,1,0,1740.02,0.149619,0.149395,0.156129,2,0.00758839,11,2.33248e-05,-3.80652,-0.106582,-0.553565,-3.35143,0.149395,
2,1,0,1,0,1741.52,0.151117,0.150827,0.151444,2,0.00785428,11,2.28419e-05,-3.81975,-0.0902169,-0.65398,-3.80312,0.150827,
2,1,0,1,0,1743.02,0.152615,0.152303,0.143675,2,0.00811082,11,2.18822e-05,-3.84262,-0.0754543,-0.78193,-4.38761,0.152303,
2,1,0,1,0,1744.52,0.154113,0.153839,0.137977,2,0.00835743,11,2.12262e-05,-3.86019,-0.0661163,-0.892367,-4.75773,0.153839,
2,1,0,1,0,1746.02,0.155611,0.155307,0.131076,2,0.00859442,11,2.03571e-05,-3.88248,-0.0606912,-0.972135,-4.91258,0.155307,
2,1,0,1,0,1747.52,0.15711,0.156852,0.123918,2,0.00882055,11,1.94368e-05,-3.90687,-0.0562921,-1.04811,-5.01291,0.156852,
2,1,0,1,0,1749.01,0.158608,0.158324,0.115715,2,0.00903521,11,1.83204e-05,-3.93661,-0.0572506,-1.03056,-4.68294,0.158324,
2,1,0,1,0,1750.51,0.160106,0.159862,0.108922,2,0.00923826,11,1.74126e-05,-3.96288,-0.0548165,-1.07632,-4.58701,0.159862,
2,1,0,1,0,1752.01,0.161604,0.161332,0.102347,2,0.00943162,11,1.65118e-05,-3.98993,-0.054839,-1.07588,-4.30168,0.161332,
2,1,0,1,0,1753.51,0.163102,0.162832,0.0969739,2,0.00961517,11,1.57904e-05,-4.01335,-0.0516999,-1.1412,-4.26449,0.162832,
2,1,0,1,0,1755.01,0.164601,0.164308,0.0907534,2,0.00978964,11,1.49115e-05,-4.04214,-0.057771,-1.02127,-3.58448,0.164308,
2,1,0,1,0,1756.5,0.166099,0.165803,0.0847517,2,0.00995529,11,1.40521e-05,-4.07185,-0.0586191,-1.0065,-3.35028,0.165803,
2,1,0,1,0,1758,0.167597,0.167304,0.0805644,2,0.0101141,11,1.34787e-05,-4.09386,-0.0603509,-0.977616,-3.06866,0.167304,
2,1,0,1,0,1759.5,0.169095,0.1688,0.0764495,2,0.0102666,11,1.29047e-05,-4.11663,-0.0710211,-0.830739,-2.49457,0.1688,
2,1,0,1,0,1761,0.170593,0.170279,0.0721097,2,0.0104131,11,1.22788e-05,-4.14201,-0.0741909,-0.795245,-2.26025,0.170279,
2,1,0,1,0,1762.5,0.172091,0.171815,0.0688886,2,0.0105537,11,1.18361e-05,-4.16185,-0.0801514,-0.736107,-1.9923,0.171815,
2,1,0,1,0,1764,0.17359,0.173295,0.066594,2,0.0106901,11,1.15404e-05,-4.17656,-0.0825957,-0.714323,-1.84958,0.173295,
2,1,0,1,0,1765.49,0.175088,0.174791,0.0642668,2,0.0108222,11,1.12333e-05,-4.19201,-0.0915265,-0.644622,-1.60781,0.174791,
2,1,0,1,0,1766.99,0.176586,0.176281,0.0617505,2,0.0109507,11,1.08854e-05,-4.20936,-0.0932877,-0.632452,-1.51728,0.176281,
2,1,0,1,0,1768.49,0.178084,0.177791,0.0596235,2,0.0110756,11,1.06005e-05,-4.22458,-0.112891,-0.52263,-1.21739,0.177791,
2,1,0,1,0,1769.99,0.179582,0.179264,0.0575826,2,0.0111975,11,1.03225e-05,-4.23971,-0.111212,-0.530517,-1.20263,0.179264,
2,1,0,1,0,1771.49,0.181081,0.180795,0.0562356,2,0.0113173,11,1.01671e-05,-4.24999,-0.126765,-0.465429,-1.01865,0.180795,
2,1,0,1,0,1772.98,0.182579,0.182298,0.0548331,2,0.0114343,11,9.99595e-06,-4.26096,-0.125423,-0.470407,-1.00904,0.182298,
2,1,0,1,0,1774.48,0.184077,0.183802,0.0531649,2,0.0115493,11,9.77178e-06,-4.27438,-0.116942,-0.504524,-1.05798,0.183802,
2,1,0,1,0,1775.98,0.185575,0.1853,0.0520798,2,0.011662,11,9.65038e-06,-4.28333,-0.225636,-0.261483,-0.534192,0.1853,
2,1,0,1,0,1777.48,0.187073,0.186797,0.0510204,2,0.0117731,11,9.53047e-06,-4.29226,-0.175774,-0.335659,-0.673305,0.186797,
2,1,0,1,0,1778.98,0.188572,0.188283,0.0503099,2,0.011883,11,9.4725e-06,-4.29835,-0.209488,-0.281639,-0.555605,0.188283,
2,1,0,1,0,1780.48,0.19007,0.189814,0.049312,2,0.0119912,11,9.36011e-06,-4.30705,-0.203396,-0.290075,-0.560884,0.189814,
2,1,0,1,0,1781.97,0.191568,0.191287,0.0488976,2,0.0120978,11,9.35347e-06,-4.31071,-0.154228,-0.382551,-0.730115,0.191287,
2,1,0,1,0,1783.47,0.193066,0.192759,0.0479401,2,0.0122034,11,9.24087e-06,-4.3193,-0.340434,-0.173308,-0.32399,0.192759,
2,1,0,1,0,1784.97,0.194564,0.194257,0.0468484,2,0.0123082,11,9.10064e-06,-4.32931,-0.294905,-0.200064,-0.370303,0.194257,
2,1,0,1,0,1786.47,0.196063,0.195832,0.0474658,2,0.0124119,11,9.29531e-06,-4.32362,-0.304508,-0.193755,-0.357656,0.195832,
2,1,0,1,0,1787.97,0.197561,0.197315,0.0463839,2,0.0125143,11,9.15226e-06,-4.33363,-0.392935,-0.150152,-0.272361,0.197315,
2,1,0,1,0,1789.46,0.199059,0.198738,0.0461323,2,0.0126163,11,9.16825e-06,-4.336,-0.380381,-0.155108,-0.275422,0.1987384,
2,1,0,1,0,1790.96,0.200557,0.200292,0.0459979,2,0.0127178,11,9.21301e-06,-4.33726,-0.556036,-0.106108,-0.188404,0.2002919,
2,1,0,1,0,1792.46,0.202055,0.201795,0.0450591,2,0.0128186,11,9.09268e-06,-4.34622,-1.81341,-0.0325354,-0.0577952,0.201795,
2,1,0,1,0,1793.96,0.203554,0.203253,0.0453109,2,0.0129187,11,9.20956e-06,-4.3438,-0.76483,-0.0771413,-0.136263,0.203253,
2,1,0,1,0,1795.46,0.205052,0.204757,0.044916,2,0.0130183,11,9.19688e-06,-4.3476,-1.65913,-0.0355608,-0.0622734,0.204757,
2,1,0,1,0,1796.96,0.20655,0.206269,0.0443585,2,0.0131175,11,9.14981e-06,-4.35302,-0.448964,-0.131414,-0.228064,0.2062694,
2,1,0,1,0,1798.45,0.208048,0.207754,0.0444734,2,0.0132168,11,9.23951e-06,-4.3519,-0.636556,-0.0926863,-0.160858,0.2077539,
2,1,0,1,0,1799.95,0.209546,0.209288,0.0440027,2,0.0133152,11,9.20925e-06,-4.35652,-0.378113,-0.156038,-0.270979,0.209288,
2,1,0,1,0,1801.45,0.211044,0.210788,0.0442905,2,0.013413,11,9.33589e-06,-4.35369,-3.88595,-0.0151829,-0.026131,0.2107878,
2,1,0,1,0,1802.95,0.212543,0.212235,0.0439196,2,0.0135108,11,9.32129e-06,-4.35734,-0.840542,-0.0701928,-0.121056,0.212235,
2,1,0,1,0,1804.45,0.214041,0.213758,0.0437613,2,0.0136085,11,9.35433e-06,-4.35891,-2.06312,-0.0285975,-0.0483741,0.213758,
2,1,0,1,0,1805.94,0.215539,0.215253,0.0438932,2,0.013706,11,9.44816e-06,-4.3576,0.936786,0.0629813,0.107868,0.2152532,
2,1,0,1,0,1807.44,0.217037,0.216739,0.0439913,2,0.0138031,11,9.53463e-06,-4.35663,45.6704,0.00129187,0.00220156,0.216739,
2,1,0,1,0,1808.94,0.218535,0.218234,0.0437695,2,0.0139002,11,9.55199e-06,-4.35883,-0.462471,-0.127575,-0.217343,0.218234,
2,1,0,1,0,1810.44,0.220034,0.219748,0.043723,2,0.0139975,11,9.60805e-06,-4.35929,-0.821216,-0.0718446,-0.122439,0.219748,
2,1,0,1,0,1811.94,0.221532,0.221241,0.0436059,2,0.0140944,11,9.64743e-06,-4.36045,-0.545816,-0.108095,-0.184015,0.221241,
2,1,0,1,0,1813.44,0.22303,0.222724,0.0431905,2,0.0141912,11,9.61955e-06,-4.36461,1.53073,0.0385438,0.0657884,0.222724,
2,1,0,1,0,1814.93,0.224528,0.224278,0.0434996,2,0.0142878,11,9.75602e-06,-4.36151,0.636897,0.0926366,0.157309,0.224278,
2,1,0,1,0,1816.43,0.226026,0.22577,0.0434371,2,0.0143846,11,9.80681e-06,-4.36214,1.33196,0.0442956,0.075329,0.22577,
2,1,0,1,0,1817.93,0.227525,0.227243,0.0430735,2,0.0144813,11,9.78815e-06,-4.36579,1.42454,0.0414168,0.0704254,0.227243,
2,1,0,1,0,1819.43,0.229023,0.228738,0.044172,2,0.0145781,11,1.01038e-05,-4.35485,1.08422,0.0544171,0.0930836,0.228738,
2,1,0,1,0,1820.93,0.230521,0.230243,0.0438088,2,0.0146749,11,1.00867e-05,-4.35844,0.934662,0.0631244,0.107052,0.2302431,
2,1,0,1,0,1822.42,0.232019,0.231711,0.0434641,2,0.0147718,11,1.00711e-05,-4.36187,0.664485,0.0887905,0.152647,0.231711,
2,1,0,1,0,1823.92,0.233517,0.233215,0.0439232,2,0.0148688,11,1.02436e-05,-4.35731,1.4757,0.039981,0.0682924,0.233215,
2,1,0,1,0,1825.42,0.235016,0.234772,0.0444895,2,0.0149658,11,1.04449e-05,-4.35174,1.02338,0.057652,0.0988493,0.234772,
2,1,0,1,0,1826.92,0.236514,0.236202,0.043736,2,0.0150626,11,1.03305e-05,-4.35916,1.14651,0.0514606,0.0882047,0.236202,
2,1,0,1,0,1828.42,0.238012,0.237753,0.0436805,2,0.0151597,11,1.03852e-05,-4.35971,2.02232,0.0291744,0.0500572,0.2377528,
2,1,0,1,0,1829.92,0.23951,0.239188,0.0440154,2,0.0152568,11,1.05279e-05,-4.3564,1.80442,0.0326974,0.0562545,0.239188,
2,1,0,1,0,1831.41,0.241008,0.240709,0.0442919,2,0.0153541,11,1.06615e-05,-4.35368,0.777976,0.0758379,0.13163,0.240709,
2,1,0,1,0,1832.91,0.242506,0.242215,0.0440571,2,0.0154512,11,1.06713e-05,-4.35598,1.48787,0.0396539,0.0692784,0.242215,
2,1,0,1,0,1834.41,0.244005,0.243735,0.0444316,2,0.0155487,11,1.08295e-05,-4.35231,0.443091,0.133156,0.231702,0.243735,
2,1,0,1,0,1835.91,0.245503,0.245203,0.0448717,2,0.0156467,11,1.10027e-05,-4.34803,0.584053,0.101018,0.177762,0.245203,
2,1,0,1,0,1837.41,0.247001,0.246742,0.0448425,2,0.0157446,11,1.10645e-05,-4.34831,-0.969422,-0.060861,-0.105846,0.246742,
2,1,0,1,0,1838.9,0.248499,0.248197,0.0447495,2,0.0158424,11,1.11067e-05,-4.34921,4.12838,0.0142913,0.0248157,0.248197,
2,1,0,1,0,1840.4,0.249997,0.249707,0.0453164,2,0.0159404,11,1.13158e-05,-4.34374,3.60041,0.016387,0.0287237,0.249707,
2,1,0,1,0,1841.9,0.251496,0.251214,0.0450905,2,0.0160386,11,1.13273e-05,-4.34592,4.76652,0.012378,0.0217752,0.2512137,
2,1,0,1,0,1843.4,0.252994,0.252741,0.0453171,2,0.016137,11,1.14535e-05,-4.34374,1.47062,0.0401192,0.0706317,0.252741,
2,1,0,1,0,1844.9,0.254492,0.254246,0.0453173,2,0.0162354,11,1.15218e-05,-4.34374,11.3418,0.00520199,0.00913131,0.2542465,
2,1,0,1,0,1846.4,0.25599,0.255716,0.045628,2,0.0163338,11,1.16678e-05,-4.34077,1.83024,0.0322361,0.05768,0.255716,
2,1,0,1,0,1847.89,0.257488,0.257238,0.0449532,2,0.0164326,11,1.15637e-05,-4.34724,0.977225,0.060375,0.107745,0.257238,
2,1,0,1,0,1849.39,0.258987,0.258717,0.045938,2,0.0165315,11,1.1885e-05,-4.33783,0.577911,0.102092,0.18185,0.258717,
2,1,0,1,0,1850.89,0.260485,0.260256,0.0461174,2,0.0166307,11,1.20023e-05,-4.33613,0.514281,0.114723,0.204198,0.260256,
2,1,0,1,0,1852.39,0.261983,0.261681,0.0452046,2,0.0167298,11,1.18292e-05,-4.34482,3.04723,0.0193618,0.0347472,0.261681,
2,1,0,1,0,1853.89,0.263481,0.263179,0.0458025,2,0.0168292,11,1.20543e-05,-4.33911,1.42714,0.0413415,0.0742082,0.263179,
2,1,0,1,0,1855.38,0.264979,0.264671,0.0460361,2,0.0169289,11,1.21844e-05,-4.3369,0.998173,0.059108,0.106391,0.264671,
2,1,0,1,0,1856.88,0.266477,0.266186,0.0459826,2,0.0170286,11,1.22399e-05,-4.33741,0.737272,0.0800248,0.144811,0.266186,
2,1,0,1,0,1858.38,0.267976,0.267699,0.0462041,2,0.0171284,11,1.23688e-05,-4.33532,1.50869,0.0391068,0.0711924,0.267699,
2,1,0,1,0,1859.88,0.269474,0.269168,0.0471026,2,0.0172284,11,1.26785e-05,-4.32695,1.31757,0.0447792,0.0813519,0.2691685,
2,1,0,1,0,1861.38,0.270972,0.270675,0.0469187,2,0.0173288,11,1.26997e-05,-4.32865,0.77787,0.0758482,0.139314,0.270675,
2,1,0,1,0,1862.88,0.27247,0.272201,0.0468564,2,0.0174292,11,1.27544e-05,-4.32923,-1.10921,-0.0531911,-0.0976345,0.272201,
2,1,0,1,0,1864.37,0.273968,0.273658,0.0466853,2,0.0175297,11,1.27758e-05,-4.33082,0.710548,0.0830345,0.1512,0.273658,
2,1,0,1,0,1865.87,0.275467,0.27519,0.0471349,2,0.0176304,11,1.29711e-05,-4.32666,1.62062,0.0364059,0.0668298,0.27519,
2,1,0,1,0,1867.37,0.276965,0.276729,0.0472943,2,0.0177315,11,1.30877e-05,-4.32519,0.560704,0.105225,0.19374,0.276729,
2,1,0,1,0,1868.87,0.278463,0.278174,0.047354,2,0.0178327,11,1.31727e-05,-4.32464,0.459547,0.128387,0.237524,0.278174,
2,1,0,1,0,1870.37,0.279961,0.27967,0.0479732,2,0.0179342,11,1.34166e-05,-4.319,0.914114,0.0645434,0.119687,0.2796697,
2,1,0,1,0,1871.86,0.281459,0.281204,0.0481883,2,0.0180355,11,1.35507e-05,-4.31706,3.1572,0.0186875,0.0348787,0.2812041,
2,1,0,1,0,1873.36,0.282958,0.282655,0.048108,2,0.0181372,11,1.35979e-05,-4.31778,10.0056,0.00589672,0.0110082,0.282655,
2,1,0,1,0,1874.86,0.284456,0.284152,0.0479493,2,0.0182392,11,1.36249e-05,-4.31922,1.34169,0.0439744,0.0819177,0.284152,
2,1,0,1,0,1876.36,0.285954,0.285648,0.0475998,2,0.0183413,11,1.35968e-05,-4.32239,0.353987,0.166673,0.31425,0.285648,
2,1,0,1,0,1877.86,0.287452,0.287162,0.0483205,2,0.0184433,11,1.38758e-05,-4.31587,0.630195,0.0936219,0.177768,0.287162,
2,1,0,1,0,1879.36,0.28895,0.28869,0.0485744,2,0.0185458,11,1.40229e-05,-4.31359,0.330175,0.178693,0.33926,0.28869,
2,1,0,1,0,1880.85,0.290448,0.290163,0.0492542,2,0.0186484,11,1.42918e-05,-4.30756,1.22492,0.0481663,0.0905792,0.2901634,
2,1,0,1,0,1882.35,0.291947,0.291673,0.048623,2,0.0187513,11,1.41821e-05,-4.31316,0.387146,0.152397,0.289514,0.291673,
2,1,0,1,0,1883.85,0.293445,0.293221,0.0491387,2,0.0188543,11,1.44085e-05,-4.30858,-3.70178,-0.0159383,-0.0303742,0.293221,
2,1,0,1,0,1885.35,0.294943,0.294645,0.0487743,2,0.0189575,11,1.43711e-05,-4.31181,0.720129,0.0819297,0.15608,0.294645,
2,1,0,1,0,1886.85,0.296441,0.296168,0.0497007,2,0.019061,11,1.47197e-05,-4.30364,1.00239,0.0588595,0.112357,0.296168,
2,1,0,1,0,1888.34,0.297939,0.297661,0.0496531,2,0.0191647,11,1.47798e-05,-4.30405,2.92347,0.0201815,0.0388763,0.297661,
2,1,0,1,0,1889.84,0.299438,0.299186,0.0496546,2,0.0192683,11,1.4856e-05,-4.30404,-0.0076926,-7.66971,-11.4337,0.299186,
2,1,0,1,0,1890.69,0.299737,0.299454,0.033539,2,0.0193121,11,1.00434e-05,-4.47445,0.00342721,17.2152,22.903,0.299454,
2,1,0,1,0,1892.19,0.298239,0.298005,0.023967,2,0.019324,11,7.1423e-06,-4.62039,0.00922133,6.39821,7.76878,0.298005,
2,1,0,1,0,1893.69,0.296741,0.296453,0.0202362,2,0.0193269,11,5.99906e-06,-4.69387,0.0174439,3.38227,2.6754,0.296453,
2,1,0,1,0,1895.19,0.295243,0.294954,0.0163455,2,0.0193244,11,4.82119e-06,-4.7866,0.0202719,2.91043,1.90185,0.294954,
2,1,0,1,0,1896.69,0.293745,0.293444,0.0142967,2,0.0193181,11,4.1953e-06,-4.84476,0.023258,2.53677,1.41171,0.293444,
2,1,0,1,0,1898.18,0.292246,0.291932,0.0119966,2,0.0193086,11,3.50219e-06,-4.92094,0.0217495,2.7127,1.29825,0.291932,
2,1,0,1,0,1899.68,0.290748,0.290471,0.0103918,2,0.019296,11,3.01852e-06,-4.98331,0.0226737,2.60213,1.04286,0.290471,
2,1,0,1,0,1901.18,0.28925,0.288982,0.00900568,2,0.0192809,11,2.60248e-06,-5.04548,0.0187204,3.15164,1.07335,0.288982,
2,1,0,1,0,1902.68,0.287752,0.287495,0.00724855,2,0.0192634,11,2.08393e-06,-5.13975,0.0183478,3.21564,0.918809,0.2874954,
2,1,0,1,0,1904.18,0.286254,0.285941,0.00597952,2,0.0192439,11,1.70979e-06,-5.22333,0.0183201,3.22051,0.769242,0.285941,
2,1,0,1,0,1905.67,0.284755,0.28446,0.00479296,2,0.0192222,11,1.3634e-06,-5.3194,0.0128845,4.57914,0.819928,0.28446,
2,1,0,1,0,1907.17,0.283257,0.282983,0.00307788,2,0.0191985,11,8.70988e-07,-5.51175,0.00833773,7.07626,0.914153,0.282983,
2,1,0,1,0,1908.67,0.281759,0.281482,0.00200772,2,0.0191731,11,5.65136e-07,-5.6973,0.00780556,7.55871,0.780893,0.281482,
2,1,0,1,0,1910.17,0.280261,0.27996,0.00164534,2,0.0191461,11,4.60629e-07,-5.78374,0.0051672,11.4182,0.525272,0.27996,
2,0,0,1,0,1911.67,0.278763,0.278497,0.000393756,2,0.0191176,11,1.0966e-07,-6.40477,0.0183379,3.21739,0.570694,0.278497,
2,0,0,1,0,1913.17,0.277264,0.277003,-0.000946763,2,0.0190871,11,-2.62256e-07,-6.02376,-0.0141957,-4.1562,0.590344,0.277003,
2,0,0,1,0,1914.66,0.275766,0.275464,-0.0013157,2,0.0190553,11,-3.62427e-07,-5.88084,-0.00622909,-9.47169,0.428898,0.275464,
2,0,0,1,0,1916.16,0.274268,0.273993,-0.00273316,2,0.0190221,11,-7.48869e-07,-5.56333,-0.00526939,-11.1968,0.766219,0.2739934,
2,0,0,1,0,1917.66,0.27277,0.272446,-0.0030743,2,0.0189876,11,-8.37582e-07,-5.51225,-0.0132159,-4.46432,0.532254,0.272446,
2,0,0,1,0,1919.16,0.271272,0.271006,-0.00404385,2,0.0189515,11,-1.09591e-06,-5.3932,-0.016018,-3.68336,0.582298,0.271006,
2,1,0,1,0,1920.66,0.269774,0.269481,-0.00537056,2,0.018914,11,-1.44727e-06,-5.26998,-0.0321229,-1.8367,0.361383,0.269481,
2,0,0,1,0,1922.15,0.268275,0.268,-0.0060119,2,0.0188754,11,-1.61119e-06,-5.22099,-0.0188426,-3.1312,0.682422,0.268,
2,0,0,1,0,1923.65,0.266777,0.266454,-0.00630952,2,0.0188357,11,-1.68119e-06,-5.2,-0.0317228,-1.85986,0.484843,0.266454,
2,0,0,1,0,1925.15,0.265279,0.265002,-0.00823436,2,0.0187944,11,-2.18212e-06,-5.08437,-0.0301389,-1.9576,0.548437,0.265002,
2,0,0,1,0,1926.65,0.263781,0.263538,-0.0085485,2,0.018752,11,-2.25285e-06,-5.06811,-0.0371054,-1.59007,0.509251,0.2635377,
2,0,0,1,0,1928.15,0.262283,0.261963,-0.00895875,2,0.0187084,11,-2.34686e-06,-5.04775,-0.0363536,-1.62295,0.569787,0.261963,
2,0,0,1,0,1929.65,0.260784,0.260546,-0.0101355,2,0.0186637,11,-2.64077e-06,-4.99415,-0.0452016,-1.30526,0.4986,0.2605463,
2,0,0,1,0,1931.14,0.259286,0.258996,-0.0112331,2,0.0186178,11,-2.90932e-06,-4.9495,-0.0581512,-1.0146,0.424222,0.258996,
2,0,0,1,0,1932.64,0.257788,0.257492,-0.0117082,2,0.0185706,11,-3.01477e-06,-4.93151,-0.0555377,-1.06234,0.466367,0.257492,
2,1,0,1,0,1934.14,0.25629,0.255983,-0.0121917,2,0.0185223,11,-3.12086e-06,-4.91394,-0.042142,-1.40003,0.647438,0.255983,
2,1,0,1,0,1935.64,0.254792,0.25454,-0.012612,2,0.0184729,11,-3.21027e-06,-4.89922,-0.0563808,-1.04646,0.509526,0.25454,
2,0,0,1,0,1937.14,0.253293,0.253016,-0.0137362,2,0.0184225,11,-3.47547e-06,-4.86213,-0.0576102,-1.02412,0.545218,0.253016,
2,1,0,1,0,1938.63,0.251795,0.251478,-0.0144652,2,0.0183709,11,-3.63768e-06,-4.83967,-0.0828072,-0.712499,0.394889,0.251478,
2,1,0,1,0,1940.13,0.250297,0.250043,-0.0147211,2,0.0183182,11,-3.68092e-06,-4.83206,-0.0815985,-0.723052,0.417948,0.250043,
2,0,0,1,0,1941.63,0.248799,0.248503,-0.0156671,2,0.0182644,11,-3.89333e-06,-4.80501,-0.0625124,-0.943813,0.574251,0.248503,
2,0,0,1,0,1943.13,0.247301,0.246998,-0.0165028,2,0.0182098,11,-4.07615e-06,-4.78244,-0.0744449,-0.792533,0.505055,0.246998,
2,0,0,1,0,1944.63,0.245802,0.245518,-0.0167779,2,0.0181539,11,-4.11929e-06,-4.77526,-0.0768547,-0.767682,0.514051,0.245518,
2,0,0,1,0,1946.13,0.244304,0.244023,-0.0180474,2,0.0180968,11,-4.40399e-06,-4.74358,-0.143482,-0.411201,0.287001,0.244023,
2,0,0,1,0,1947.62,0.242806,0.242518,-0.0188585,2,0.0180389,11,-4.57354e-06,-4.72449,-0.0843125,-0.699778,0.504107,0.242518,
2,0,0,1,0,1949.12,0.241308,0.240997,-0.0186427,2,0.0179801,11,-4.49282e-06,-4.72949,-0.0928555,-0.635396,0.471892,0.240997,
2,0,0,1,0,1950.62,0.23981,0.239551,-0.0196763,2,0.0179199,11,-4.71348e-06,-4.70606,-0.109357,-0.539517,0.41492,0.239551,
2,0,0,1,0,1952.12,0.238312,0.238066,-0.020511,2,0.0178588,11,-4.88296e-06,-4.68801,-0.103545,-0.569799,0.460496,0.238066,
2,0,0,1,0,1953.62,0.236813,0.236512,-0.0208658,2,0.0177967,11,-4.93501e-06,-4.68057,-0.096822,-0.609366,0.49387,0.236512,
2,0,0,1,0,1955.11,0.235315,0.234999,-0.0215961,2,0.0177336,11,-5.07506e-06,-4.66563,-0.0996511,-0.592066,0.503326,0.234999,
2,0,0,1,0,1956.61,0.233817,0.233536,-0.0223137,2,0.0176694,11,-5.21104e-06,-4.65143,-0.0942852,-0.625761,0.536869,0.233536,
2,0,0,1,0,1958.11,0.232319,0.232018,-0.0225646,2,0.017604,11,-5.2354e-06,-4.64657,-0.135861,-0.434266,0.387282,0.232018,
2,0,0,1,0,1959.61,0.230821,0.230521,-0.0236609,2,0.0175376,11,-5.45433e-06,-4.62597,-0.124111,-0.47538,0.441962,0.230521,
2,0,0,1,0,1961.11,0.229322,0.229052,-0.0241125,2,0.0174702,11,-5.52301e-06,-4.61776,-0.101128,-0.583422,0.542812,0.229052,
2,0,0,1,0,1962.61,0.227824,0.227525,-0.0247147,2,0.0174017,11,-5.62322e-06,-4.60704,-0.852011,-0.0692479,0.0665735,0.227525,
2,0,0,1,0,1964.1,0.226326,0.22604,-0.025519,2,0.0173321,11,-5.76831e-06,-4.59314,-0.134728,-0.43792,0.438682,0.2260396,
2,0,0,1,0,1965.6,0.224828,0.224566,-0.0257796,2,0.0172614,11,-5.7892e-06,-4.58872,-0.143775,-0.410363,0.417219,0.224566,
2,0,0,1,0,1967.1,0.22333,0.223085,-0.0273939,2,0.0171896,11,-6.11117e-06,-4.56235,-0.169977,-0.347106,0.366386,0.223085,
2,0,0,1,0,1968.6,0.221831,0.22157,-0.0278169,2,0.017117,11,-6.16339e-06,-4.55569,-0.164091,-0.359556,0.386588,0.22157,
2,0,0,1,0,1970.1,0.220333,0.220066,-0.0290452,2,0.017043,11,-6.39187e-06,-4.53693,-0.16439,-0.358903,0.398789,0.220066,
2,0,0,1,0,1971.59,0.218835,0.218563,-0.0286132,2,0.0169678,11,-6.25377e-06,-4.54343,-0.179708,-0.328311,0.371889,0.218563,
2,0,0,1,0,1973.09,0.217337,0.217074,-0.0302947,2,0.0168913,11,-6.57618e-06,-4.51863,-0.181967,-0.324235,0.377186,0.2170739,
2,0,0,1,0,1974.59,0.215839,0.215568,-0.0306738,2,0.016814,11,-6.61229e-06,-4.51323,-0.196082,-0.300894,0.360768,0.215568,
2,0,0,1,0,1976.09,0.21434,0.214075,-0.0315551,2,0.0167353,11,-6.75516e-06,-4.50093,-0.131972,-0.447066,0.546453,0.214075,
2,0,0,1,0,1977.59,0.212842,0.212548,-0.0324087,2,0.0166553,11,-6.8884e-06,-4.48934,-0.123689,-0.477004,0.597077,0.212548,
2,0,0,1,0,1979.09,0.211344,0.211034,-0.0324501,2,0.0165741,11,-6.84807e-06,-4.48878,-0.151243,-0.3901,0.502383,0.2110339,
2,0,0,1,0,1980.58,0.209846,0.209526,-0.0336356,2,0.0164917,11,-7.04753e-06,-4.4732,-0.138889,-0.4248,0.554977,0.209526,
2,0,0,1,0,1982.08,0.208348,0.208108,-0.0343562,2,0.0164079,11,-7.14981e-06,-4.464,-0.13821,-0.426888,0.575885,0.208108,
2,0,0,1,0,1983.58,0.20685,0.206543,-0.0358909,2,0.0163225,11,-7.41302e-06,-4.44502,-0.136704,-0.43159,0.60138,0.206543,
2,0,0,1,0,1985.08,0.205351,0.205012,-0.0360735,2,0.0162357,11,-7.39549e-06,-4.44281,-0.189006,-0.312159,0.439214,0.205012,
2,0,0,1,0,1986.58,0.203853,0.203523,-0.0372296,2,0.0161478,11,-7.57709e-06,-4.42911,-0.157228,-0.375252,0.548652,0.203523,
2,0,0,1,0,1988.08,0.202355,0.20209,-0.0380937,2,0.0160585,11,-7.69838e-06,-4.41915,-0.160507,-0.367585,0.545949,0.20209,
2,0,0,1,0,1989.57,0.200857,0.200595,-0.0390227,2,0.0159675,11,-7.82777e-06,-4.40868,-0.181477,-0.325111,0.496382,0.200595,
2,0,0,1,0,1991.07,0.199359,0.199079,-0.0402061,2,0.0158748,11,-8.00417e-06,-4.39571,-0.151612,-0.389151,0.610402,0.199079,
2,0,0,1,0,1992.57,0.19786,0.197558,-0.0412703,2,0.0157806,11,-8.15329e-06,-4.38436,-0.167788,-0.351634,0.570144,0.197558,
2,0,0,1,0,1994.07,0.196362,0.196084,-0.0419911,2,0.0156849,11,-8.23379e-06,-4.37684,-0.142326,-0.414543,0.682986,0.196084,
2,0,0,1,0,1995.57,0.194864,0.194571,-0.0436783,2,0.0155874,11,-8.49853e-06,-4.35973,-0.151669,-0.389004,0.649203,0.194571,
2,0,0,1,0,1997.06,0.193366,0.193054,-0.044673,2,0.0154875,11,-8.62429e-06,-4.34995,-0.10586,-0.557339,0.965363,0.193054,
2,0,0,1,0,1998.56,0.191868,0.191535,-0.0459965,2,0.0153859,11,-8.80993e-06,-4.33728,-0.123676,-0.477054,0.860041,0.191535,
2,0,0,1,0,2000.06,0.190369,0.19002,-0.0472009,2,0.0152825,11,-8.9691e-06,-4.32605,-0.109944,-0.536638,0.986454,0.19002,
2,0,0,1,0,2001.56,0.188871,0.188557,-0.0492481,2,0.0151767,11,-9.28609e-06,-4.30761,-0.124665,-0.47327,0.898981,0.188557,
2,0,0,1,0,2003.06,0.187373,0.187086,-0.0502451,2,0.0150685,11,-9.40014e-06,-4.29891,-0.118528,-0.497771,0.977733,0.187086,
2,0,0,1,0,2004.56,0.185875,0.185582,-0.0514052,2,0.0149578,11,-9.53989e-06,-4.28899,-0.106718,-0.552858,1.11697,0.185582,
2,0,0,1,0,2006.05,0.184377,0.184067,-0.0536543,2,0.0148448,11,-9.87596e-06,-4.2704,-0.109292,-0.539836,1.11686,0.184067,
2,0,0,1,0,2007.55,0.182878,0.182624,-0.055307,2,0.0147292,11,-1.01004e-05,-4.25722,-0.0908022,-0.649764,1.39338,0.182624,
2,0,0,1,0,2009.05,0.18138,0.181086,-0.0574636,2,0.0146104,11,-1.04059e-05,-4.24061,-0.0970934,-0.607662,1.35073,0.181086,
2,0,0,1,0,2010.55,0.179882,0.179616,-0.0591835,2,0.0144884,11,-1.06303e-05,-4.2278,-0.103028,-0.572663,1.3285,0.179616,
2,0,0,1,0,2012.05,0.178384,0.178084,-0.0610398,2,0.0143632,11,-1.08702e-05,-4.21439,-0.0847119,-0.696478,1.67828,0.1780839,
2,0,0,1,0,2013.54,0.176886,0.176609,-0.0633706,2,0.014235,11,-1.11918e-05,-4.19811,-0.0845099,-0.698143,1.74592,0.176609,
2,0,0,1,0,2015.04,0.175388,0.175118,-0.0664797,2,0.0141025,11,-1.16418e-05,-4.17731,-0.0804682,-0.733209,1.88503,0.175118,
2,0,0,1,0,2016.54,0.173889,0.17357,-0.0694902,2,0.0139658,11,-1.20614e-05,-4.15808,-0.0838334,-0.703777,1.89815,0.17357,
2,0,0,1,0,2018.04,0.172391,0.172102,-0.0721423,2,0.0138246,11,-1.24158e-05,-4.14181,-0.0779064,-0.757319,2.12748,0.172102,
2,0,0,1,0,2019.54,0.170893,0.170645,-0.0751304,2,0.013679,11,-1.28206e-05,-4.12418,-0.0784735,-0.751846,2.21605,0.170645,
2,0,0,1,0,2021.04,0.169395,0.169094,-0.0797105,2,0.0135276,11,-1.34785e-05,-4.09848,-0.0687124,-0.858651,2.6624,0.1690937,
2,0,0,1,0,2022.53,0.167897,0.167639,-0.0831448,2,0.0133701,11,-1.39383e-05,-4.08016,-0.0670231,-0.880294,2.86178,0.167639,
2,0,0,1,0,2024.03,0.166398,0.16614,-0.0872612,2,0.0132063,11,-1.44976e-05,-4.05918,-0.069344,-0.85083,2.94093,0.16614,
2,0,0,1,0,2025.53,0.1649,0.164639,-0.092511,2,0.0130361,11,-1.52309e-05,-4.03381,-0.0657265,-0.89766,3.25667,0.164639,
2,0,0,1,0,2027.03,0.163402,0.163085,-0.0972898,2,0.0128577,11,-1.58665e-05,-4.01193,-0.0578199,-1.02041,3.89453,0.1630854,
2,0,0,1,0,2028.53,0.161904,0.161643,-0.103703,2,0.0126707,11,-1.67628e-05,-3.98421,-0.0601378,-0.98108,3.9695,0.161643,
2,0,0,1,0,2030.02,0.160406,0.160124,-0.110344,2,0.0124744,11,-1.76687e-05,-3.95725,-0.0599707,-0.983814,4.23243,0.160124,
2,0,0,1,0,2031.52,0.158907,0.158567,-0.115331,2,0.0122687,11,-1.82877e-05,-3.93805,-0.0568206,-1.03836,4.71473,0.158567,
2,0,0,1,0,2033.02,0.157409,0.157108,-0.124162,2,0.0120522,11,-1.95069e-05,-3.90601,-0.0564356,-1.04544,5.06452,0.157108,
2,0,0,1,0,2034.52,0.155911,0.155614,-0.132321,2,0.0118239,11,-2.0591e-05,-3.87837,-0.0615911,-0.957931,4.92904,0.155614,
2,0,0,1,0,2036.02,0.154413,0.154095,-0.139116,2,0.0115837,11,-2.14372e-05,-3.85662,-0.0672387,-0.877471,4.76694,0.154095,
2,0,0,1,0,2037.52,0.152915,0.152613,-0.147105,2,0.0113325,11,-2.24501e-05,-3.83237,-0.0673542,-0.875966,5.04341,0.152613,
2,0,0,1,0,2039.01,0.151417,0.151158,-0.155419,2,0.0110696,11,-2.34929e-05,-3.80849,-0.0654752,-0.901105,5.45754,0.151158,
2,0,0,1,0,2040.51,0.149918,0.149625,-0.163121,2,0.0107944,11,-2.4407e-05,-3.78749,-0.077895,-0.757429,4.81398,0.149625,
2,0,0,1,0,2042.01,0.14842,0.148154,-0.170643,2,0.0105074,11,-2.52815e-05,-3.76791,-0.0835022,-0.706568,4.67553,0.148154,
2,0,0,1,0,2043.51,0.146922,0.146593,-0.17801,2,0.0102099,11,-2.60951e-05,-3.74955,-0.0947443,-0.622729,4.29126,0.146593,
2,0,0,1,0,2045.01,0.145424,0.145114,-0.183651,2,0.00990357,11,-2.66502e-05,-3.73601,-0.106396,-0.554533,3.95071,0.145114,
2,0,0,1,0,2046.5,0.143926,0.143605,-0.18904,2,0.0095876,11,-2.71471e-05,-3.72345,-0.108966,-0.541453,3.9551,0.143605,
2,0,0,1,0,2048,0.142427,0.142136,-0.193271,2,0.00926349,11,-2.74708e-05,-3.71383,-0.140563,-0.419741,3.17106,0.142136,
2,0,0,1,0,2049.5,0.140929,0.140601,-0.197031,2,0.0089334,11,-2.77027e-05,-3.70547,-0.220178,-0.267965,2.06847,0.140601,
2,0,0,1,0,2051,0.139431,0.139127,-0.199701,2,0.0085991,11,-2.77838e-05,-3.69962,-0.280496,-0.210341,1.63865,0.139127,
2,0,0,1,0,2052.5,0.137933,0.137635,-0.203007,2,0.0082604,11,-2.79407e-05,-3.69249,-0.418711,-0.140909,1.10203,0.137635,
2,0,0,1,0,2054,0.136435,0.136143,-0.204787,2,0.00791898,11,-2.78803e-05,-3.6887,-1.15621,-0.051029,0.404166,0.136143,
2,0,0,1,0,2055.49,0.134936,0.134612,-0.204903,2,0.00757616,11,-2.75825e-05,-3.68845,2.88572,0.0204455,-0.161945,0.134612,
2,0,0,1,0,2056.99,0.133438,0.133112,-0.202436,2,0.00723415,11,-2.69467e-05,-3.69371,0.570296,0.103455,-0.820232,0.133112,
2,0,0,1,0,2058.49,0.13194,0.131655,-0.202073,2,0.00689381,11,-2.66039e-05,-3.69449,0.477366,0.123595,-0.975498,0.131655,
2,0,0,1,0,2059.99,0.130442,0.130173,-0.200251,2,0.00655549,11,-2.60671e-05,-3.69843,0.268278,0.219921,-1.71652,0.130173,
2,0,0,1,0,2061.49,0.128944,0.128642,-0.197119,2,0.00622011,11,-2.53579e-05,-3.70527,0.182318,0.323611,-2.48758,0.128642,
2,0,0,1,0,2062.98,0.127445,0.127135,-0.194398,2,0.00588945,11,-2.47148e-05,-3.71131,0.190541,0.309644,-2.34908,0.127135,
2,0,0,1,0,2064.48,0.125947,0.125624,-0.191679,2,0.00556515,11,-2.40795e-05,-3.71743,0.171376,0.344272,-2.56061,0.125624,
2,0,0,1,0,2065.98,0.124449,0.124143,-0.187753,2,0.00524546,11,-2.33083e-05,-3.72641,0.152934,0.385788,-2.80435,0.124143,
2,0,0,1,0,2067.48,0.122951,0.122644,-0.183065,2,0.00493163,11,-2.24518e-05,-3.73739,0.149694,0.394136,-2.80135,0.122644,
2,0,0,1,0,2068.98,0.121453,0.121168,-0.178453,2,0.00462459,11,-2.16228e-05,-3.74848,0.138256,0.426746,-2.97559,0.1211676,
2,0,0,1,0,2070.48,0.119955,0.119641,-0.174243,2,0.00432526,11,-2.08466e-05,-3.75884,0.155537,0.379332,-2.58078,0.119641,
2,0,0,1,0,2071.97,0.118456,0.11816,-0.168556,2,0.0040313,11,-1.99166e-05,-3.77326,0.173358,0.340337,-2.24992,0.11816,
2,0,0,1,0,2073.47,0.116958,0.116622,-0.165411,2,0.00374293,11,-1.92905e-05,-3.78144,0.149792,0.39388,-2.55695,0.116622,
2,0,0,1,0,2074.97,0.11546,0.115137,-0.161924,2,0.00346146,11,-1.86434e-05,-3.79069,0.134872,0.437453,-2.77826,0.115137,
2,0,0,1,0,2076.47,0.113962,0.113646,-0.157142,2,0.0031861,11,-1.78586e-05,-3.80371,0.154214,0.382586,-2.35986,0.113646,
2,0,0,1,0,2077.97,0.112464,0.112165,-0.15447,2,0.00291609,11,-1.73261e-05,-3.81116,0.165959,0.35551,-2.14662,0.112165,
2,0,0,1,0,2079.46,0.110965,0.11067,-0.152169,2,0.00265056,11,-1.68405e-05,-3.81767,0.170996,0.345038,-2.04326,0.11067,
2,0,0,1,0,2080.96,0.109467,0.109182,-0.148842,2,0.00238961,11,-1.62509e-05,-3.82727,0.175132,0.336889,-1.95296,0.109182,
2,0,0,1,0,2082.46,0.107969,0.107662,-0.145645,2,0.00213307,11,-1.56805e-05,-3.8367,0.185795,0.317555,-1.81272,0.107662,
2,0,0,1,0,2083.96,0.106471,0.106216,-0.143662,2,0.00188057,11,-1.52592e-05,-3.84266,0.247875,0.238024,-1.33867,0.106216,
2,0,0,1,0,2085.46,0.104973,0.104723,-0.141421,2,0.00163128,11,-1.481e-05,-3.84949,0.192071,0.307178,-1.7043,0.104723,
2,0,0,1,0,2086.96,0.103474,0.10317,-0.139185,2,0.00138466,11,-1.43597e-05,-3.85641,0.190592,0.309562,-1.6799,0.10317,
2,0,0,1,0,2088.45,0.101976,0.101671,-0.138176,2,0.00114133,11,-1.40485e-05,-3.85957,0.250652,0.235386,-1.26114,0.101671,
2,0,0,1,0,2089.95,0.100478,0.100166,-0.135716,2,0.000901372,11,-1.35941e-05,-3.86737,0.306208,0.19268,-1.02231,0.100166,
2,0,0,1,0,2091.45,0.0989798,0.098688,-0.134217,2,0.000663334,11,-1.32456e-05,-3.87219,0.267475,0.220582,-1.15738,0.098688,
2,0,0,1,0,2092.95,0.0974816,0.097162,-0.132181,2,0.000427491,11,-1.28429e-05,-3.87883,0.308236,0.191412,-0.992265,0.097162,
2,0,0,1,0,2094.45,0.0959834,0.0956933,-0.13158,2,0.000194134,11,-1.25913e-05,-3.88081,0.326902,0.180482,-0.927846,0.09569335,
2,0,0,1,0,2095.94,0.0944852,0.0941791,-0.130148,2,-3.66728e-05,11,-1.22573e-05,-3.88556,0.370383,0.159295,-0.808916,0.0941791,
2,0,0,1,0,2097.44,0.0929871,0.0926776,-0.128418,2,-0.000266069,11,-1.19015e-05,-3.89137,0.32114,0.183721,-0.920305,0.0926776,
2,0,0,1,0,2098.94,0.0914889,0.0911549,-0.127104,2,-0.00049347,11,-1.15862e-05,-3.89584,0.370207,0.15937,-0.7935,0.0911549,
2,0,0,1,0,2100.44,0.0899907,0.0896799,-0.125535,2,-0.000718624,11,-1.12579e-05,-3.90124,0.332011,0.177705,-0.875901,0.08967986,
2,0,0,1,0,2101.94,0.0884925,0.0881783,-0.123822,2,-0.00094148,11,-1.09184e-05,-3.9072,0.242876,0.242923,-1.18061,0.0881783,
2,0,0,1,0,2103.44,0.0869943,0.0867223,-0.123568,2,-0.0011623,11,-1.07161e-05,-3.90809,0.406726,0.145061,-0.698044,0.0867223,
2,0,0,1,0,2104.93,0.0854961,0.0851911,-0.122077,2,-0.00138152,11,-1.03999e-05,-3.91337,0.331361,0.178053,-0.848825,0.0851911,
2,0,0,1,0,2106.43,0.083998,0.0837151,-0.120963,2,-0.00159864,11,-1.01264e-05,-3.91735,0.235383,0.250655,-1.17644,0.0837151,
2,0,0,1,0,2107.93,0.0824998,0.0822327,-0.118999,2,-0.0018136,11,-9.78559e-06,-3.92446,0.271294,0.217476,-1.0165,0.0822327,
2,0,0,1,0,2109.43,0.0810016,0.0807206,-0.117935,2,-0.00202604,11,-9.51976e-06,-3.92836,0.28197,0.209242,-0.961669,0.0807206,
2,0,0,1,0,2110.93,0.0795034,0.0792455,-0.11692,2,-0.00223694,11,-9.26541e-06,-3.93211,0.313718,0.188067,-0.857264,0.0792455,
2,0,0,1,0,2112.42,0.0780052,0.0777132,-0.115315,2,-0.00244561,11,-8.96151e-06,-3.93811,0.298882,0.197403,-0.888238,0.0777132,
2,0,0,1,0,2113.92,0.076507,0.0761819,-0.114349,2,-0.00265234,11,-8.71135e-06,-3.94177,0.377962,0.1561,-0.692177,0.0761819,
2,0,0,1,0,2115.42,0.0750088,0.0747143,-0.112737,2,-0.00285659,11,-8.42306e-06,-3.94793,0.268564,0.219687,-0.964454,0.0747143,
2,0,0,1,0,2116.92,0.0735106,0.073198,-0.111835,2,-0.00305928,11,-8.18613e-06,-3.95142,0.285115,0.206934,-0.896301,0.073198,
2,0,0,1,0,2118.42,0.0720124,0.0717208,-0.110033,2,-0.00326014,11,-7.89164e-06,-3.95848,0.347061,0.169999,-0.732362,0.0717208,
2,0,0,1,0,2119.92,0.0705142,0.0702097,-0.108446,2,-0.00345887,11,-7.61394e-06,-3.96479,0.260598,0.226402,-0.963198,0.0702097,
2,0,0,1,0,2121.41,0.069016,0.0687145,-0.107273,2,-0.00365543,11,-7.37119e-06,-3.96951,0.337641,0.174742,-0.731912,0.0687145,
2,0,0,1,0,2122.91,0.0675178,0.0672448,-0.106466,2,-0.00385089,11,-7.15927e-06,-3.97279,0.337337,0.174899,-0.725506,0.0672448,
2,0,0,1,0,2124.41,0.0660196,0.065722,-0.105484,2,-0.00404455,11,-6.93261e-06,-3.97681,0.299605,0.196926,-0.814389,0.065722,
2,0,0,1,0,2125.91,0.0645214,0.0642099,-0.104173,2,-0.00423658,11,-6.68896e-06,-3.98224,0.414089,0.142482,-0.579402,0.0642099,
2,0,0,1,0,2127.41,0.0630233,0.0627095,-0.102672,2,-0.00442667,11,-6.43849e-06,-3.98855,0.286588,0.205871,-0.828302,0.0627095,
2,0,0,1,0,2128.9,0.0615251,0.0612356,-0.102341,2,-0.00461529,11,-6.26688e-06,-3.98995,0.416891,0.141524,-0.565447,0.0612356,
2,0,0,1,0,2130.4,0.0600269,0.059717,-0.101511,2,-0.00480273,11,-6.06192e-06,-3.99349,0.363813,0.162171,-0.644029,0.059717,
2,0,0,1,0,2131.9,0.0585287,0.0582059,-0.100615,2,-0.00498888,11,-5.85639e-06,-3.99734,0.255737,0.230706,-0.902373,0.05820591,
2,0,0,1,0,2133.4,0.0570305,0.0566641,-0.0993444,2,-0.00517388,11,-5.62926e-06,-4.00286,0.606663,0.0972533,-0.37922,0.0566641,
2,0,0,1,0,2134.9,0.0555323,0.0552389,-0.099027,2,-0.00535731,11,-5.47014e-06,-4.00425,0.49063,0.120253,-0.464953,0.0552389,
2,0,0,1,0,2136.4,0.0540342,0.0537385,-0.0988659,2,-0.00554006,11,-5.31291e-06,-4.00495,0.551079,0.107063,-0.409554,0.05373849,
2,0,0,1,0,2137.89,0.052536,0.0521659,-0.0981324,2,-0.00572235,11,-5.11916e-06,-4.00819,0.952737,0.0619269,-0.236904,0.0521659,
2,0,0,1,0,2139.39,0.0510378,0.0507291,-0.0974824,2,-0.00590345,11,-4.94519e-06,-4.01107,0.55012,0.107249,-0.40842,0.0507291,
2,0,0,1,0,2140.89,0.0495396,0.049253,-0.0972594,2,-0.00608365,11,-4.79031e-06,-4.01207,0.517929,0.113915,-0.431584,0.049253,
2,0,0,1,0,2142.39,0.0480414,0.047726,-0.0968788,2,-0.00626356,11,-4.62364e-06,-4.01377,10.3595,0.00569524,-0.02141,0.047726,
2,0,0,1,0,2143.89,0.0465432,0.0462053,-0.0967805,2,-0.00644289,11,-4.47177e-06,-4.01421,1.50345,0.0392431,-0.147918,0.0462053,
2,0,0,1,0,2145.39,0.045045,0.0447526,-0.0961407,2,-0.0066219,11,-4.30254e-06,-4.01709,2.09923,0.0281056,-0.105545,0.0447526,
2,0,0,1,0,2146.88,0.0435468,0.0432691,-0.0961234,2,-0.00680032,11,-4.15917e-06,-4.01717,30.1264,0.00195842,-0.00736369,0.0432691,
2,0,0,1,0,2148.38,0.0420486,0.0417505,-0.0955752,2,-0.00697869,11,-3.99031e-06,-4.01966,5.45805,0.0108097,-0.040406,0.0417505,
2,0,0,1,0,2149.88,0.0405504,0.0402161,-0.0962806,2,-0.00715717,11,-3.87203e-06,-4.01646,2.51411,0.0234676,-0.0870749,0.0402161,
2,0,0,1,0,2151.38,0.0390522,0.0387496,-0.0961425,2,-0.00733562,11,-3.72548e-06,-4.01708,2.32993,0.0253227,-0.0945866,0.0387496,
2,0,0,1,0,2152.88,0.037554,0.0372681,-0.0955155,2,-0.0075138,11,-3.55968e-06,-4.01993,11.6686,0.0050563,-0.0189285,0.0372681,
2,0,0,1,0,2154.37,0.0360558,0.035756,-0.0963395,2,-0.00769202,11,-3.44472e-06,-4.0162,-3.55732,-0.0165855,0.0621578,0.035756,
2,0,0,1,0,2155.87,0.0345576,0.0342778,-0.0957273,2,-0.00787052,11,-3.28132e-06,-4.01896,-0.759781,-0.077654,0.291806,0.0342778,
2,0,0,1,0,2157.37,0.0330594,0.0328134,-0.0961866,2,-0.00804926,11,-3.15621e-06,-4.01689,-5.04629,-0.0116918,0.0437848,0.0328134,
2,0,0,1,0,2158.87,0.0315613,0.0312419,-0.0963145,2,-0.00822819,11,-3.00905e-06,-4.01631,-1.67892,-0.0351416,0.132427,0.0312419,
2,0,0,1,0,2160.37,0.0300631,0.0297924,-0.096591,2,-0.00840702,11,-2.87768e-06,-4.01506,-1.17396,-0.0502574,0.189215,0.02979237,
2,0,0,1,0,2161.87,0.0285649,0.0282378,-0.0967424,2,-0.00858673,11,-2.73179e-06,-4.01438,-1.11546,-0.052893,0.199311,0.0282378,
2,0,0,1,0,2163.36,0.0270667,0.0267553,-0.0978407,2,-0.00876707,11,-2.61776e-06,-4.00948,-1.25861,-0.0468771,0.177948,0.02675532,
2,0,0,1,0,2164.86,0.0255685,0.0252665,-0.0974839,2,-0.00894783,11,-2.46308e-06,-4.01107,-0.998123,-0.0591109,0.224942,0.0252665,
2,0,0,1,0,2166.36,0.0240703,0.0237872,-0.0984544,2,-0.00912871,11,-2.34196e-06,-4.00676,-0.546856,-0.107889,0.413361,0.0237872,
2,0,0,1,0,2167.86,0.0225722,0.0222508,-0.0984642,2,-0.00931061,11,-2.19091e-06,-4.00672,-0.608891,-0.0968975,0.372062,0.02225079,
2,0,0,1,0,2169.36,0.021074,0.0207736,-0.0986617,2,-0.00949314,11,-2.04956e-06,-4.00585,-0.731996,-0.0806016,0.310801,0.0207736,
2,0,0,1,0,2170.85,0.0195758,0.0192764,-0.0993296,2,-0.00967647,11,-1.91472e-06,-4.00292,-0.776245,-0.076007,0.294022,0.01927639,
2,0,0,1,0,2172.35,0.0180776,0.0178055,-0.0997839,2,-0.0098604,11,-1.77671e-06,-4.00094,-0.77944,-0.0756953,0.294618,0.01780555,
2,0,0,1,0,2173.85,0.0165794,0.0162775,-0.100323,2,-0.0100452,11,-1.63301e-06,-3.9986,-0.641893,-0.0919157,0.360058,0.0162775,
2,0,0,1,0,2175.35,0.0150812,0.0147865,-0.101284,2,-0.010231,11,-1.49764e-06,-3.99446,-0.616261,-0.0957387,0.377616,0.0147865,
2,0,0,1,0,2176.85,0.013583,0.0133147,-0.101413,2,-0.010418,11,-1.35028e-06,-3.99391,-0.597866,-0.0986844,0.391563,0.0133147,
2,0,0,1,0,2178.35,0.0120848,0.0117993,-0.102024,2,-0.0106057,11,-1.20382e-06,-3.9913,-0.475871,-0.123983,0.495492,0.0117993,
2,0,0,1,0,2179.84,0.0105866,0.0102448,-0.103372,2,-0.0107944,11,-1.05902e-06,-3.9856,-0.459508,-0.128398,0.518886,0.0102448,
2,0,0,1,0,2181.34,0.00908843,0.00880367,-0.104168,2,-0.0109845,11,-9.17062e-07,-3.98227,-0.598195,-0.09863,0.402259,0.00880367,
2,0,0,1,0,2182.84,0.00759024,0.00726715,-0.10485,2,-0.0111758,11,-7.61962e-07,-3.97943,-0.382632,-0.154195,0.631101,0.00726715,
2,0,0,1,0,2184.34,0.00609203,0.0057762,-0.105448,2,-0.0113683,11,-6.09088e-07,-3.97696,-0.293721,-0.200871,0.827633,0.0057762,
2,0,0,1,0,2185.84,0.00459384,0.00432131,-0.106498,2,-0.0115618,11,-4.6021e-07,-3.97266,-0.443848,-0.132929,0.55371,0.00432131,
2,0,0,1,0,2187.33,0.00309563,0.0027731,-0.107855,2,-0.0117572,11,-2.99094e-07,-3.96716,-0.36677,-0.160864,0.676294,0.0027731,
2,0,0,1,0,2188.83,0.00159744,0.00125036,-0.108822,2,-0.0119564,11,-1.36067e-07,-3.96328, , , ,0.00125036,
2,0,0,1,0,2190.23,0.000199235,-0.000170761,-0.109981,2,-0.0121418,11,1.87804e-08,-3.95868, , , ,-0.000170761,