File: Figure_codes/Fig_3-5/rawdata_trumpetplot_data/before 10th/20221101_1-115_002_TrumpetPlot_ParaChange_08_CV_C01_5.csv
mode,ox/red,error,control changes,counter inc.,time/s,control/V,Ewe/V,<I>/mA,cycle number,(Q-Qo)/C,I Range,P/W,log(|I|),Tafel slope mV/dec,alpha_eff,dI/d(E-IR),E-IR/V,
2,0,0,0,0,7327.33,2.44065e-05,-0.000268062,-2.34257,6,0.0000000E+000,11,6.27953e-07,-2.63031, , , ,-0.000268062,
2,0,0,1,0,7327.36,0.00129787,0.000967331,0.151317,6,-2.57258e-05,11,1.46373e-07,-3.82011, , , ,0.000967331,
2,1,0,1,0,7327.4,0.00279427,0.00251,1.14384,6,1.64152e-06,11,2.87103e-06,-2.94163,0.00866005,6.81289,498.358,0.00251,
2,1,0,1,0,7327.44,0.00429425,0.00398037,1.44055,6,5.10434e-05,11,5.73394e-06,-2.84147,0.0170768,3.45497,164.432,0.00398037,
2,1,0,1,0,7327.48,0.00579422,0.00545438,1.55318,6,0.000107717,11,8.47165e-06,-2.80878,0.0506271,1.16538,68.1332,0.00545438,
2,1,0,1,0,7327.51,0.00729063,0.00700642,1.61773,6,0.000167391,11,1.13345e-05,-2.79109,0.103749,0.568678,35.6117,0.00700642,
2,1,0,1,0,7327.55,0.00878703,0.00850648,1.66463,6,0.000229098,11,1.41602e-05,-2.77868,0.155202,0.380149,24.5918,0.00850648,
2,1,0,1,0,7327.59,0.010287,0.00996174,1.69307,6,0.000292367,11,1.68659e-05,-2.77132,0.220743,0.267279,17.6407,0.00996174,
2,1,0,1,0,7327.63,0.011787,0.0114982,1.71928,6,0.000356654,11,1.97687e-05,-2.76465,0.238194,0.247698,16.6494,0.0114982,
2,1,0,1,0,7327.66,0.0132825,0.0129952,1.74918,6,0.000421582,11,2.2731e-05,-2.75716,0.23561,0.250414,17.0792,0.0129952,
2,1,0,1,0,7327.7,0.014778,0.0144939,1.76998,6,0.000487461,11,2.56539e-05,-2.75203,0.255347,0.231058,15.9059,0.0144939,
2,1,0,1,0,7327.74,0.0162816,0.0160018,1.79729,6,0.000554681,11,2.87599e-05,-2.74538,0.304968,0.193463,13.4524,0.01600183,
2,1,0,1,0,7327.78,0.017778,0.0174918,1.81103,6,0.000622252,11,3.16782e-05,-2.74207,0.342314,0.172356,12.1682,0.0174918,
2,1,0,1,0,7327.81,0.0192744,0.0189873,1.82579,6,0.000690326,11,3.46669e-05,-2.73855,0.337774,0.174673,12.4695,0.0189873,
2,1,0,1,0,7327.85,0.0207743,0.0204994,1.8449,6,0.000759401,11,3.78194e-05,-2.73403,0.275719,0.213986,15.4397,0.02049944,
2,1,0,1,0,7327.89,0.0222743,0.0219869,1.86733,6,0.000829279,11,4.10568e-05,-2.72878,0.318382,0.185312,13.5208,0.0219869,
2,1,0,1,0,7327.93,0.0237707,0.0234856,1.88282,6,0.00089966,11,4.42191e-05,-2.72519,0.424682,0.138927,10.2177,0.0234856,
2,1,0,1,0,7327.96,0.0252671,0.0250552,1.89974,6,0.000970587,11,4.75985e-05,-2.7213,0.379331,0.155537,11.5333,0.0250552,
2,1,0,1,0,7328,0.0267671,0.0264641,1.92821,6,0.00104239,11,5.10282e-05,-2.71485,0.275013,0.214535,16.0622,0.0264641,
2,1,0,1,0,7328.04,0.0282671,0.0279691,1.95104,6,0.00111497,11,5.45688e-05,-2.70973,0.310329,0.190121,14.3734,0.0279691,
2,1,0,1,0,7328.07,0.0297626,0.0294991,1.96412,6,0.00118826,11,5.79397e-05,-2.70683,0.353837,0.166743,12.7443,0.0294991,
2,1,0,1,0,7328.11,0.0312581,0.0309562,1.97368,6,0.00126216,11,6.10978e-05,-2.70472,0.34924,0.168938,13.0804,0.0309562,
2,1,0,1,0,7328.15,0.0327616,0.032495,1.99582,6,0.0013371,11,6.48542e-05,-2.69988,0.320947,0.183831,14.403,0.032495,
2,1,0,1,0,7328.19,0.034258,0.033979,2.02096,6,0.00141254,11,6.86702e-05,-2.69444,0.286966,0.2056,16.2866,0.033979,
2,1,0,1,0,7328.22,0.0357545,0.0354838,2.04827,6,0.0014889,11,7.26806e-05,-2.68861,0.35046,0.16835,13.444,0.0354838,
2,1,0,1,0,7328.26,0.0372544,0.0369934,2.07425,6,0.00156641,11,7.67336e-05,-2.68314,0.293563,0.200979,16.2536,0.0369934,
2,1,0,1,0,7328.3,0.0387544,0.0384761,2.10177,6,0.00164468,11,8.0868e-05,-2.67741,0.250634,0.235403,19.2849,0.0384761,
2,1,0,1,0,7328.34,0.0402508,0.039981,2.13132,6,0.00172387,11,8.52122e-05,-2.67135,0.240159,0.24567,20.3764,0.039981,
2,1,0,1,0,7328.37,0.0417472,0.0414652,2.16429,6,0.00180431,11,8.97426e-05,-2.66468,0.256183,0.230304,19.3705,0.0414652,
2,1,0,1,0,7328.41,0.0432472,0.0429823,2.18939,6,0.00188603,11,9.41051e-05,-2.65968,0.254497,0.23183,19.8234,0.0429823,
2,1,0,1,0,7328.45,0.0447472,0.0444414,2.21061,6,0.00196867,11,9.82427e-05,-2.65549,0.223165,0.264379,22.9494,0.0444414,
2,1,0,1,0,7328.49,0.0462427,0.0459807,2.25006,6,0.00205243,11,0.000103459,-2.64781,0.207522,0.284307,25.0105,0.0459807,
2,1,0,1,0,7328.52,0.0477382,0.0474867,2.29155,6,0.00213762,11,0.000108818,-2.63987,0.210869,0.279794,25.0066,0.0474867,
2,1,0,1,0,7328.56,0.0492417,0.0489379,2.32647,6,0.00222462,11,0.000113852,-2.6333,0.225844,0.261243,23.6915,0.0489379,
2,1,0,1,0,7328.6,0.0507381,0.0504383,2.35819,6,0.0023124,11,0.000118943,-2.62742,0.214013,0.275685,25.4127,0.0504383,
2,1,0,1,0,7328.64,0.0522345,0.0519555,2.40364,6,0.00240164,11,0.000124882,-2.61913,0.188763,0.312561,29.2879,0.0519555,
2,1,0,1,0,7328.67,0.0537345,0.0534612,2.45137,6,0.00249276,11,0.000131053,-2.61059,0.199969,0.295045,28.1717,0.0534612,
2,1,0,1,0,7328.71,0.0552345,0.0549558,2.49044,6,0.00258561,11,0.000136864,-2.60372,0.206962,0.285076,27.6673,0.05495581,
2,1,0,1,0,7328.75,0.0567309,0.056448,2.52435,6,0.00267972,11,0.000142495,-2.59785,0.2027,0.291071,28.8291,0.056448,
2,1,0,1,0,7328.79,0.0582273,0.0579494,2.57612,6,0.00277528,11,0.000149285,-2.58903,0.193679,0.304628,30.7093,0.05794945,
2,1,0,1,0,7328.82,0.0597309,0.0594504,2.6261,6,0.00287322,11,0.000156122,-2.58069,0.183414,0.321677,32.943,0.0594504,
2,1,0,1,0,7328.86,0.0612264,0.0609025,2.67169,6,0.00297246,11,0.000162713,-2.57321,0.202507,0.291348,30.3079,0.0609025,
2,1,0,1,0,7328.9,0.0627219,0.0624387,2.72145,6,0.00307347,11,0.000169924,-2.5652,0.19802,0.29795,31.5765,0.0624387,
2,1,0,1,0,7328.94,0.0642218,0.0639876,2.76431,6,0.00317633,11,0.000176882,-2.55841,0.196861,0.299703,32.3348,0.0639876,
2,1,0,1,0,7328.97,0.0657218,0.0654351,2.81624,6,0.00328115,11,0.000184281,-2.55033,0.186313,0.316671,34.7382,0.0654351,
2,1,0,1,0,7329.01,0.0672182,0.0669264,2.86846,6,0.00338762,11,0.000191976,-2.54235,0.206766,0.285347,31.8967,0.06692645,
2,1,0,1,0,7329.05,0.0687146,0.0684056,2.90823,6,0.00349586,11,0.000198939,-2.53637,0.22731,0.259558,29.4928,0.0684056,
2,1,0,1,0,7329.09,0.0702146,0.0699301,2.9513,6,0.003606,11,0.000206384,-2.52999,0.228599,0.258094,29.8034,0.0699301,
2,1,0,1,0,7329.12,0.0717146,0.0714346,3.00165,6,0.00371786,11,0.000214422,-2.52264,0.215424,0.273878,32.0797,0.0714346,
2,1,0,1,0,7329.16,0.073211,0.0729182,3.05354,6,0.00383121,11,0.000222658,-2.5152,0.230702,0.255742,30.4191,0.0729182,
2,1,0,1,0,7329.2,0.0747074,0.0744344,3.10088,6,0.00394632,11,0.000230812,-2.50852,0.248479,0.237445,28.6186,0.0744344,
2,1,0,1,0,7329.24,0.0762109,0.0759094,3.13196,6,0.00406362,11,0.000237745,-2.50418,0.247992,0.237911,29.101,0.0759094,
2,1,0,1,0,7329.27,0.0777064,0.0774033,3.17553,6,0.00418177,11,0.000245797,-2.49818,0.240316,0.24551,30.4715,0.0774033,
2,1,0,1,0,7329.31,0.079202,0.0788995,3.22556,6,0.00430167,11,0.000254495,-2.49139,0.251365,0.234719,29.5341,0.07889948,
2,1,0,1,0,7329.35,0.0807019,0.0804179,3.26677,6,0.00442363,11,0.000262707,-2.48588,0.287366,0.205313,26.1403,0.0804179,
2,1,0,1,0,7329.39,0.0822019,0.0819114,3.30059,6,0.00454716,11,0.000270356,-2.48141,0.292743,0.201542,25.9909,0.0819114,
2,1,0,1,0,7329.42,0.0836983,0.0834121,3.34313,6,0.00467162,11,0.000278857,-2.47585,0.315794,0.186831,24.3996,0.0834121,
2,1,0,1,0,7329.46,0.0851947,0.0848982,3.38676,6,0.00479758,11,0.00028753,-2.47022,0.31289,0.188565,24.8768,0.0848982,
2,1,0,1,0,7329.5,0.0866947,0.0863817,3.42738,6,0.00492541,11,0.000296063,-2.46504,0.337011,0.175069,23.3225,0.0863817,
2,1,0,1,0,7329.54,0.0881947,0.087907,3.46008,6,0.00505457,11,0.000304165,-2.46091,0.324113,0.182035,24.562,0.087907,
2,1,0,1,0,7329.57,0.0896911,0.0894318,3.49101,6,0.00518461,11,0.000312208,-2.45705,0.291953,0.202087,27.6003,0.0894318,
2,1,0,1,0,7329.61,0.0911875,0.090909,3.53667,6,0.00531622,11,0.000321515,-2.45141,0.282412,0.208914,28.8303,0.090909,
2,1,0,1,0,7329.65,0.0926901,0.0924048,3.57755,6,0.00545029,11,0.000330583,-2.44641,0.295567,0.199616,27.8728,0.09240479,
2,1,0,1,0,7329.69,0.0941856,0.0939423,3.61424,6,0.00558504,11,0.00033953,-2.44198,0.351006,0.168088,23.7352,0.0939423,
2,1,0,1,0,7329.72,0.0956821,0.0953778,3.64721,6,0.00572111,11,0.000347863,-2.43804,0.312044,0.189076,26.9887,0.09537781,
2,1,0,1,0,7329.76,0.097182,0.0968917,3.69724,6,0.00585898,11,0.000358232,-2.43212,0.283014,0.20847,30.037,0.0968917,
2,1,0,1,0,7329.8,0.098682,0.0983806,3.74475,6,0.00599864,11,0.000368411,-2.42658,0.268811,0.219485,32.0166,0.0983806,
2,1,0,1,0,7329.84,0.100178,0.0998715,3.7907,6,0.00613961,11,0.000378583,-2.42128,0.292124,0.201969,29.8291,0.0998715,
2,1,0,1,0,7329.87,0.101675,0.101368,3.82861,6,0.00628235,11,0.000388098,-2.41696,0.264628,0.222954,33.4234,0.101368,
2,1,0,1,0,7329.91,0.103175,0.1029,3.89028,6,0.00642727,11,0.000400308,-2.41002,0.229642,0.256922,39.1208,0.1029,
2,1,0,1,0,7329.95,0.104675,0.104399,3.95392,6,0.00657452,11,0.000412783,-2.40297,0.212072,0.278208,42.9835,0.1043986,
2,1,0,1,0,7329.99,0.106171,0.105905,4.01861,6,0.0067238,11,0.000425592,-2.39592,0.214817,0.274653,43.0715,0.105905,
2,1,0,1,0,7330.02,0.107667,0.107393,4.08639,6,0.00687555,11,0.000438851,-2.38866,0.198913,0.296612,47.318,0.107393,
2,1,0,1,0,7330.06,0.10917,0.108886,4.16112,6,0.0070306,11,0.000453087,-2.38079,0.181208,0.325593,52.9146,0.108886,
2,1,0,1,0,7330.1,0.110666,0.110385,4.2459,6,0.00718781,11,0.000468683,-2.37203,0.170524,0.345992,57.2499,0.110385,
2,1,0,1,0,7330.13,0.112162,0.111837,4.33304,6,0.00734828,11,0.000484595,-2.36321,0.172607,0.341817,57.6864,0.111837,
2,1,0,1,0,7330.17,0.113662,0.113389,4.41703,6,0.00751246,11,0.000500844,-2.35487,0.169111,0.348884,60.1552,0.113389,
2,1,0,1,0,7330.21,0.115162,0.114876,4.50534,6,0.0076799,11,0.000517555,-2.34627,0.16688,0.353548,62.2879,0.114876,
2,1,0,1,0,7330.25,0.116658,0.116336,4.60558,6,0.00785053,11,0.000535792,-2.33672,0.152684,0.386418,69.591,0.116336,
2,1,0,1,0,7330.28,0.118155,0.11788,4.71434,6,0.00802514,11,0.000555725,-2.32658,0.159054,0.370944,68.2214,0.1178797,
2,1,0,1,0,7330.32,0.119655,0.119379,4.82166,6,0.00820413,11,0.000575606,-2.3168,0.168214,0.350743,65.9305,0.1193791,
2,1,0,1,0,7330.36,0.121155,0.12091,4.91901,6,0.00838682,11,0.000594758,-2.30812,0.168447,0.350258,67.2206,0.12091,
2,1,0,1,0,7330.4,0.122651,0.122368,5.02204,6,0.00857279,11,0.000614537,-2.29912,0.163589,0.360659,70.6062,0.122368,
2,1,0,1,0,7330.43,0.124147,0.123865,5.12959,6,0.00876274,11,0.000635378,-2.28992,0.169277,0.34854,69.6665,0.123865,
2,1,0,1,0,7330.47,0.12565,0.12537,5.22902,6,0.00895767,11,0.000655564,-2.28158,0.182769,0.322812,65.7757,0.12537,
2,1,0,1,0,7330.51,0.127146,0.126841,5.316,6,0.00915526,11,0.000674286,-2.27442,0.191443,0.308186,64.0661,0.126841,
2,1,0,1,0,7330.55,0.128642,0.128314,5.41522,6,0.00935629,11,0.00069485,-2.26638,0.200185,0.294727,62.3906,0.128314,
2,1,0,1,0,7330.58,0.130142,0.129842,5.51246,6,0.00956154,11,0.00071575,-2.25865,0.201774,0.292407,62.9039,0.129842,
2,1,0,1,0,7330.62,0.131642,0.131361,5.61031,6,0.00977033,11,0.000736977,-2.25101,0.230018,0.256502,56.0126,0.131361,
2,1,0,1,0,7330.66,0.133139,0.132817,5.6906,6,0.00998184,11,0.000755806,-2.24484,0.239277,0.246576,54.689,0.132817,
2,1,0,1,0,7330.7,0.134635,0.134341,5.77022,6,0.0101961,11,0.000775179,-2.23881,0.259063,0.227744,51.233,0.134341,
2,1,0,1,0,7330.73,0.136135,0.135875,5.84669,6,0.010414,11,0.000794417,-2.23309,0.268142,0.220032,50.0869,0.135875,
2,1,0,1,0,7330.77,0.137635,0.137402,5.91579,6,0.0106347,11,0.000812841,-2.22799,0.312294,0.188925,43.5497,0.137402,
2,1,0,1,0,7330.81,0.13913,0.138802,5.97522,6,0.0108573,11,0.000829376,-2.22365,0.364651,0.161798,37.6757,0.138802,
2,1,0,1,0,7330.85,0.140626,0.140322,6.01884,6,0.0110818,11,0.000844574,-2.22049,0.453477,0.130106,30.5669,0.140322,
2,1,0,1,0,7330.88,0.14213,0.141828,6.06342,6,0.0113093,11,0.000859963,-2.21728,0.533444,0.110602,26.1423,0.141828,
2,1,0,1,0,7330.92,0.143626,0.143372,6.10416,6,0.011537,11,0.000875164,-2.21437,0.88555,0.0666252,15.8164,0.143372,
2,1,0,1,0,7330.96,0.145122,0.144821,6.11451,6,0.0117657,11,0.000885507,-2.21364,10.8461,0.00543972,1.29368,0.1448206,
2,1,0,1,0,7331,0.146622,0.146335,6.10372,6,0.011995,11,0.000893186,-2.21441,-1.35563,-0.0435222,-10.338,0.146335,
2,1,0,1,0,7331.03,0.148122,0.147874,6.08246,6,0.0122237,11,0.000899437,-2.21592,-0.636191,-0.0927395,-21.9437,0.147874,
2,1,0,1,0,7331.07,0.149619,0.149347,6.03613,6,0.0124506,11,0.000901478,-2.21924,-0.358456,-0.164595,-38.6436,0.149347,
2,1,0,1,0,7331.11,0.151115,0.150834,5.96634,6,0.0126754,11,0.000899925,-2.22429,-0.227095,-0.259804,-60.2202,0.150834,
2,1,0,1,0,7331.15,0.152615,0.152342,5.85738,6,0.0128975,11,0.000892326,-2.2323,-0.172775,-0.341486,-77.8632,0.152342,
2,1,0,1,0,7331.18,0.154115,0.153842,5.73878,6,0.0131152,11,0.000882863,-2.24118,-0.140653,-0.419472,-93.5923,0.153842,
2,1,0,1,0,7331.22,0.155611,0.155318,5.5851,6,0.0133271,11,0.000867466,-2.25297,-0.116234,-0.507597,-110.05,0.155318,
2,1,0,1,0,7331.26,0.157106,0.156811,5.4045,6,0.0135329,11,0.000847483,-2.26724,-0.0940336,-0.627435,-131.471,0.156811,
2,1,0,1,0,7331.3,0.15861,0.158286,5.19692,6,0.0137323,11,0.000822599,-2.28425,-0.0817864,-0.721392,-145.563,0.158286,
2,1,0,1,0,7331.33,0.160106,0.15985,4.96531,6,0.0139224,11,0.000793706,-2.30405,-0.0747257,-0.789554,-152.603,0.15985,
2,1,0,1,0,7331.37,0.161602,0.161277,4.73109,6,0.0141038,11,0.000763016,-2.32504,-0.0696731,-0.846811,-156.042,0.161277,
2,1,0,1,0,7331.41,0.163102,0.162846,4.48999,6,0.014277,11,0.000731176,-2.34775,-0.0665586,-0.886437,-155.473,0.162846,
2,1,0,1,0,7331.45,0.164602,0.164339,4.25724,6,0.0144412,11,0.00069963,-2.37087,-0.0639576,-0.922486,-153.522,0.164339,
2,1,0,1,0,7331.48,0.166099,0.165817,4.03113,6,0.0145963,11,0.000668431,-2.39457,-0.0647627,-0.911018,-143.873,0.165817,
2,1,0,1,0,7331.52,0.167595,0.167288,3.82865,6,0.0147435,11,0.000640486,-2.41695,-0.0694681,-0.849311,-127.22,0.167288,
2,1,0,1,0,7331.56,0.169095,0.168806,3.65189,6,0.0148837,11,0.000616462,-2.43748,-0.0714796,-0.82541,-117.585,0.168806,
2,1,0,1,0,7331.6,0.170595,0.170333,3.47589,6,0.0150173,11,0.000592059,-2.45893,-0.0728083,-0.810347,-110.057,0.170333,
2,1,0,1,0,7331.63,0.172091,0.171844,3.31373,6,0.0151443,11,0.000569444,-2.47968,-0.0780661,-0.75577,-98.1954,0.171844,
2,1,0,1,0,7331.67,0.173586,0.173269,3.18073,6,0.0152659,11,0.000551122,-2.49747,-0.0862694,-0.683904,-85.2553,0.173269,
2,1,0,1,0,7331.71,0.17509,0.174797,3.06034,6,0.0153834,11,0.000534938,-2.51423,-0.092899,-0.635098,-76.0753,0.174797,
2,1,0,1,0,7331.75,0.176586,0.176299,2.9487,6,0.0154961,11,0.000519852,-2.53037,-0.0942002,-0.626326,-72.2815,0.176299,
2,1,0,1,0,7331.78,0.178083,0.17784,2.84714,6,0.0156047,11,0.000506338,-2.54559,-0.10239,-0.57623,-64.3251,0.17784,
2,1,0,1,0,7331.82,0.179582,0.179282,2.76239,6,0.01571,11,0.000495247,-2.55872,-0.112169,-0.525994,-56.8504,0.179282,
2,1,0,1,0,7331.86,0.181082,0.180815,2.68227,6,0.0158122,11,0.000484996,-2.5715,-0.122983,-0.479742,-50.2399,0.1808152,
2,1,0,1,0,7331.9,0.182579,0.182332,2.6136,6,0.0159113,11,0.000476542,-2.58276,-0.120901,-0.488001,-49.6347,0.182332,
2,1,0,1,0,7331.93,0.184075,0.183832,2.54348,6,0.0160078,11,0.000467573,-2.59457,-0.134334,-0.439205,-43.5945,0.183832,
2,1,0,1,0,7331.97,0.185579,0.185298,2.47854,6,0.0161022,11,0.000459269,-2.6058,-0.142933,-0.412782,-40.0029,0.185298,
2,1,0,1,0,7332.01,0.187074,0.186795,2.42236,6,0.0161939,11,0.000452485,-2.61576,-0.160786,-0.366948,-34.7622,0.186795,
2,1,0,1,0,7332.05,0.18857,0.188313,2.36946,6,0.0162837,11,0.0004462,-2.62535,-0.167012,-0.353269,-32.7553,0.1883131,
2,1,0,1,0,7332.08,0.19007,0.189844,2.32453,6,0.016372,11,0.000441299,-2.63366,-0.176049,-0.335135,-30.4645,0.189844,
2,1,0,1,0,7332.12,0.19157,0.191277,2.27749,6,0.0164584,11,0.000435632,-2.64254,-0.190183,-0.310227,-27.6596,0.1912771,
2,1,0,1,0,7332.16,0.193066,0.192761,2.24482,6,0.0165431,11,0.000432713,-2.64882,-0.241939,-0.243863,-21.3362,0.192761,
2,1,0,1,0,7332.19,0.194563,0.19427,2.21498,6,0.0166266,11,0.000430305,-2.65463,-0.225552,-0.261581,-22.5592,0.19427,
2,1,0,1,0,7332.23,0.196063,0.195795,2.17828,6,0.0167091,11,0.000426497,-2.66189,-0.218521,-0.269997,-22.932,0.195795,
2,1,0,1,0,7332.27,0.197563,0.197267,2.13908,6,0.0167903,11,0.000421971,-2.66977,-0.243757,-0.242044,-20.3169,0.197267,
2,1,0,1,0,7332.31,0.199059,0.198783,2.11845,6,0.0168701,11,0.000421111,-2.67398,-0.285623,-0.206566,-17.1349,0.198783,
2,1,0,1,0,7332.34,0.200555,0.200278,2.09436,6,0.0169491,11,0.000419454,-2.67895,-0.300473,-0.196357,-16.0631,0.2002776,
2,1,0,1,0,7332.38,0.202059,0.201798,2.07186,6,0.0170276,11,0.000418097,-2.68364,-0.310653,-0.189922,-15.3489,0.201798,
2,1,0,1,0,7332.42,0.203554,0.203247,2.04982,6,0.0171049,11,0.00041662,-2.68828,-0.366971,-0.160776,-12.866,0.2032472,
2,1,0,1,0,7332.46,0.20505,0.204741,2.03161,6,0.0171813,11,0.000415955,-2.69216,-0.519776,-0.11351,-9.02229,0.204741,
2,1,0,1,0,7332.49,0.20655,0.206268,2.01488,6,0.0172572,11,0.000415605,-2.69575,-0.446189,-0.132231,-10.3844,0.206268,
2,1,0,1,0,7332.53,0.20805,0.207807,2.00133,6,0.0173329,11,0.000415891,-2.69868,-0.392982,-0.150134,-11.683,0.207807,
2,1,0,1,0,7332.57,0.209546,0.209292,1.97979,6,0.0174076,11,0.000414355,-2.70338,-0.338553,-0.174271,-13.5075,0.209292,
2,1,0,1,0,7332.61,0.211043,0.210792,1.96154,6,0.0174814,11,0.000413478,-2.7074,-0.461157,-0.127939,-9.84076,0.2107925,
2,1,0,1,0,7332.64,0.212543,0.212271,1.949,6,0.017555,11,0.000413716,-2.71019,-0.601091,-0.0981549,-7.48782,0.212271,
2,1,0,1,0,7332.68,0.214043,0.21381,1.9405,6,0.0176282,11,0.000414897,-2.71209,-0.541287,-0.109,-8.26832,0.21381,
2,1,0,1,0,7332.72,0.215539,0.215294,1.92886,6,0.0177008,11,0.000415271,-2.7147,-0.549609,-0.107349,-8.07718,0.215294,
2,1,0,1,0,7332.76,0.217035,0.216799,1.91673,6,0.0177727,11,0.000415545,-2.71744,-0.555309,-0.106247,-7.93737,0.216799,
2,1,0,1,0,7332.79,0.218538,0.218267,1.90938,6,0.0178448,11,0.000416753,-2.71911,-1.01293,-0.0582469,-4.3245,0.218267,
2,1,0,1,0,7332.83,0.220034,0.219744,1.89648,6,0.017916,11,0.000416742,-2.72205,-0.650675,-0.0906751,-6.70602,0.219744,
2,1,0,1,0,7332.87,0.22153,0.221284,1.88611,6,0.017987,11,0.000417367,-2.72443,-0.572213,-0.103108,-7.59009,0.221284,
2,1,0,1,0,7332.91,0.22303,0.222732,1.86877,6,0.0180577,11,0.000416235,-2.72844,-0.686479,-0.0859459,-6.30134,0.222732,
2,1,0,1,0,7332.94,0.22453,0.22422,1.86519,6,0.018128,11,0.000418213,-2.72928,-0.719802,-0.081967,-5.98931,0.22422,
2,1,0,1,0,7332.98,0.226026,0.225804,1.85606,6,0.0181979,11,0.000419105,-2.73141,-0.82937,-0.0711383,-5.16347,0.225804,
2,1,0,1,0,7333.02,0.227523,0.227274,1.85561,6,0.0182675,11,0.000421733,-2.73151,-0.499664,-0.118079,-8.52554,0.227274,
2,1,0,1,0,7333.06,0.229023,0.228697,1.84663,6,0.018337,11,0.000422319,-2.73362,-0.656907,-0.0898148,-6.45671,0.228697,
2,1,0,1,0,7333.09,0.230523,0.230229,1.83913,6,0.018406,11,0.000423422,-2.73539,-1.02589,-0.0575113,-4.12174,0.230229,
2,1,0,1,0,7333.13,0.232019,0.231714,1.83378,6,0.0184747,11,0.000424911,-2.73665,-1.43496,-0.0411163,-2.93444,0.231714,
2,1,0,1,0,7333.17,0.233515,0.233234,1.82409,6,0.0185433,11,0.000425438,-2.73895,-0.982381,-0.0600582,-4.27342,0.233234,
2,1,0,1,0,7333.21,0.235018,0.234748,1.8144,6,0.018612,11,0.000425925,-2.74127,-0.998417,-0.0590935,-4.19512,0.234748,
2,1,0,1,0,7333.24,0.236514,0.236231,1.80236,6,0.0186798,11,0.000425775,-2.74416,-1.15247,-0.0511942,-3.6255,0.236231,
2,1,0,1,0,7333.28,0.23801,0.237705,1.80194,6,0.0187475,11,0.000428332,-2.74426,-2.17556,-0.0271195,-1.9069,0.237705,
2,1,0,1,0,7333.32,0.23951,0.239262,1.7972,6,0.0188153,11,0.000430003,-2.7454,-1.1003,-0.0536215,-3.76084,0.239262,
2,1,0,1,0,7333.36,0.24101,0.240739,1.79398,6,0.0188828,11,0.000431882,-2.74618,-0.932276,-0.063286,-4.42008,0.240739,
2,1,0,1,0,7333.39,0.242506,0.242208,1.78202,6,0.0189498,11,0.00043162,-2.74909,-0.81994,-0.0719565,-5.01005,0.2422082,
2,1,0,1,0,7333.43,0.244003,0.243733,1.78249,6,0.0190166,11,0.000434452,-2.74897,-1.98021,-0.0297948,-2.06936,0.2437333,
2,1,0,1,0,7333.47,0.245503,0.24522,1.78085,6,0.0190835,11,0.000436701,-2.74937,-1.05667,-0.0558359,-3.86892,0.24522,
2,1,0,1,0,7333.51,0.247003,0.246708,1.76888,6,0.0191503,11,0.000436396,-2.7523,-0.912016,-0.0646918,-4.47352,0.246708,
2,1,0,1,0,7333.54,0.248499,0.248219,1.75848,6,0.0192165,11,0.00043649,-2.75486,-1.05311,-0.0560245,-3.86638,0.248219,
2,1,0,1,0,7333.58,0.249995,0.249714,1.76096,6,0.0192825,11,0.000439735,-2.75425,-1.53468,-0.0384446,-2.64178,0.249714,
2,1,0,1,0,7333.62,0.251498,0.251248,1.75709,6,0.0193488,11,0.000441466,-2.75521,-2.4077,-0.0245047,-1.6763,0.251248,
2,1,0,1,0,7333.66,0.252994,0.252692,1.75281,6,0.0194145,11,0.000442921,-2.75627,-0.846144,-0.0697281,-4.74568,0.252692,
2,1,0,1,0,7333.69,0.25449,0.254255,1.74971,6,0.0194801,11,0.000444871,-2.75703,-1.01053,-0.0583851,-3.97258,0.254255,
2,1,0,1,0,7333.73,0.25599,0.255747,1.74102,6,0.0195456,11,0.00044526,-2.7592,-1.26393,-0.0466799,-3.17407,0.255747,
2,1,0,1,0,7333.77,0.25749,0.257243,1.73583,6,0.019611,11,0.000446531,-2.76049,-1.64823,-0.0357959,-2.42553,0.257243,
2,1,0,1,0,7333.81,0.258987,0.258719,1.73131,6,0.0196761,11,0.000447922,-2.76163,-1.11282,-0.0530186,-3.59012,0.258719,
2,1,0,1,0,7333.84,0.260483,0.260221,1.72482,6,0.019741,11,0.000448835,-2.76326,-0.925322,-0.0637616,-4.31064,0.260221,
2,1,0,1,0,7333.88,0.261983,0.261716,1.72179,6,0.0198058,11,0.000450619,-2.76402,-1.18442,-0.0498135,-3.35511,0.261716,
2,1,0,1,0,7333.92,0.263483,0.263223,1.72105,6,0.0198705,11,0.00045302,-2.76421,-58.7223,-0.00100473,-0.0671988,0.263223,
2,1,0,1,0,7333.96,0.264978,0.264736,1.71914,6,0.0199349,11,0.000455118,-2.76469,-1.45709,-0.0404917,-2.70704,0.264736,
2,1,0,1,0,7333.99,0.266474,0.266179,1.71345,6,0.0199991,11,0.000456086,-2.76613,-2.28039,-0.0258727,-1.72415,0.266179,
2,1,0,1,0,7334.03,0.267977,0.267691,1.69906,6,0.0200635,11,0.000454822,-2.76979,-2.51367,-0.0234717,-1.56449,0.267691,
2,1,0,1,0,7334.07,0.269474,0.269188,1.70088,6,0.0201274,11,0.000457855,-2.76933,-2.01242,-0.0293179,-1.94953,0.269188,
2,1,0,1,0,7334.11,0.27097,0.270676,1.70125,6,0.0201912,11,0.000460488,-2.76923,-1.31106,-0.0450018,-2.98405,0.2706764,
2,1,0,1,0,7334.14,0.27247,0.272192,1.69246,6,0.0202551,11,0.000460674,-2.77148,-0.979157,-0.0602559,-3.98296,0.272192,
2,1,0,1,0,7334.18,0.27397,0.273677,1.6867,6,0.0203188,11,0.000461612,-2.77296,-0.952246,-0.0619587,-4.09129,0.2736772,
2,1,0,1,0,7334.22,0.275467,0.275218,1.68696,6,0.020382,11,0.000464282,-2.7729,-1.60924,-0.0366633,-2.41562,0.275218,
2,1,0,1,0,7334.25,0.276963,0.276683,1.68636,6,0.0204452,11,0.000466587,-2.77305,-1.56005,-0.0378192,-2.48136,0.276683,
2,1,0,1,0,7334.29,0.278463,0.278236,1.68335,6,0.0205084,11,0.000468367,-2.77383,-0.944426,-0.0624718,-4.08011,0.2782355,
2,1,0,1,0,7334.33,0.279963,0.279687,1.67676,6,0.0205715,11,0.000468969,-2.77553,-1.37402,-0.0429398,-2.80735,0.279687,
2,1,0,1,0,7334.37,0.281459,0.281131,1.6676,6,0.0206342,11,0.000468815,-2.77791,-1.72913,-0.0341212,-2.22846,0.281131,
2,1,0,1,0,7334.4,0.282954,0.282695,1.6641,6,0.0206968,11,0.000470432,-2.77882,-2.80297,-0.0210491,-1.37118,0.282695,
2,1,0,1,0,7334.44,0.284458,0.284163,1.6607,6,0.0207596,11,0.000471911,-2.77971,-1.82801,-0.0322756,-2.09846,0.2841633,
2,1,0,1,0,7334.48,0.285954,0.285665,1.66092,6,0.020822,11,0.000474466,-2.77965,-1.06209,-0.0555507,-3.59881,0.285665,
2,1,0,1,0,7334.52,0.28745,0.287184,1.65421,6,0.0208841,11,0.000475063,-2.78141,-1.24187,-0.0475092,-3.06856,0.287184,
2,1,0,1,0,7334.55,0.28895,0.288675,1.65659,6,0.0209463,11,0.000478216,-2.78079,-3.62896,-0.0162581,-1.0442,0.288675,
2,1,0,1,0,7334.59,0.29045,0.290166,1.65324,6,0.0210084,11,0.000479713,-2.78166,-1.51643,-0.0389073,-2.49939,0.290166,
2,1,0,1,0,7334.63,0.291947,0.291665,1.64674,6,0.0210702,11,0.000480296,-2.78338,-1.12701,-0.0523508,-3.36188,0.291665,
2,1,0,1,0,7334.67,0.293443,0.293133,1.63271,6,0.0211318,11,0.000478601,-2.78709,-1.05547,-0.0558994,-3.58598,0.293133,
2,1,0,1,0,7334.7,0.294943,0.294702,1.63575,6,0.0211934,11,0.00048206,-2.78628,-1.96925,-0.0299606,-1.92063,0.294702,
2,1,0,1,0,7334.74,0.296443,0.296163,1.6372,6,0.021255,11,0.000484876,-2.7859,-1.95593,-0.0301646,-1.92708,0.296163,
2,1,0,1,0,7334.78,0.297939,0.297665,1.63108,6,0.0213163,11,0.000485514,-2.78753,-0.686004,-0.0860054,-5.4578,0.297665,
2,1,0,1,0,7334.82,0.299434,0.299152,1.62542,6,0.0213774,11,0.000486248,-2.78903,-0.00783059,-7.53455,-354.428,0.299152,
2,1,0,0,0,7334.83,0.299962,0.299746,1.54007,6,0.0214014,11,0.000461632,-2.81246,0.00110099,53.5881,2436.98,0.299746,
2,0,0,1,0,7334.86,0.298689,0.298407,-0.156203,6,0.0214141,11,-4.66119e-05,-3.80631,0.00646324,9.12855,611.205,0.298407,
2,0,0,1,0,7334.9,0.297189,0.296926,-0.448547,6,0.0214012,11,-0.000133185,-3.34819,-0.00825064,-7.15096,178.349,0.296926,
2,0,0,1,0,7334.94,0.295692,0.295369,-0.526305,6,0.0213826,11,-0.000155454,-3.27876,-0.0235203,-2.50847,48.0977,0.295369,
2,0,0,1,0,7334.98,0.294196,0.293857,-0.574919,6,0.0213618,11,-0.000168944,-3.24039,-0.0458961,-1.28551,28.6264,0.293857,
2,0,0,1,0,7335.01,0.292696,0.292363,-0.609339,6,0.0213393,11,-0.000178149,-3.21514,-0.0537642,-1.09738,26.3643,0.292363,
2,0,0,1,0,7335.05,0.291196,0.290889,-0.65195,6,0.0213154,11,-0.000189645,-3.18579,-0.0607744,-0.970804,24.5658,0.290889,
2,0,0,1,0,7335.09,0.2897,0.289398,-0.688963,6,0.0212901,11,-0.000199384,-3.1618,-0.0739708,-0.797612,21.1802,0.289398,
2,0,0,1,0,7335.13,0.288205,0.28792,-0.717784,6,0.0212638,11,-0.000206664,-3.14401,-0.0882638,-0.668451,18.4433,0.28792,
2,0,0,1,0,7335.16,0.286701,0.286385,-0.738146,6,0.0212362,11,-0.000211394,-3.13186,-0.0972708,-0.606554,17.3586,0.286385,
2,0,0,1,0,7335.2,0.285205,0.284887,-0.765846,6,0.021208,11,-0.000218179,-3.11586,-0.108322,-0.544674,16.2251,0.2848866,
2,0,0,1,0,7335.24,0.283708,0.28343,-0.788159,6,0.0211788,11,-0.000223388,-3.10339,-0.123379,-0.478201,14.6915,0.28343,
2,0,0,1,0,7335.28,0.282208,0.281867,-0.806522,6,0.0211485,11,-0.000227331,-3.09338,-0.158013,-0.373386,11.7915,0.281867,
2,0,0,1,0,7335.31,0.280709,0.28043,-0.826596,6,0.0211176,11,-0.000231802,-3.08271,-0.154734,-0.381298,12.4037,0.28043,
2,0,0,1,0,7335.35,0.279212,0.278895,-0.846164,6,0.0210862,11,-0.000235991,-3.07255,-0.155416,-0.379627,12.565,0.278895,
2,0,0,1,0,7335.39,0.277716,0.277413,-0.868111,6,0.021054,11,-0.000240825,-3.06142,-0.165219,-0.357102,11.9988,0.277413,
2,0,0,1,0,7335.43,0.276216,0.275914,-0.888283,6,0.021021,11,-0.00024509,-3.05145,-0.191899,-0.307453,10.5308,0.275914,
2,0,0,1,0,7335.46,0.274716,0.274454,-0.905987,6,0.0209874,11,-0.000248652,-3.04288,-0.194266,-0.303707,10.598,0.274454,
2,0,0,1,0,7335.5,0.27322,0.272891,-0.912253,6,0.0209535,11,-0.000248945,-3.03988,-0.208794,-0.282576,10.0662,0.2728909,
2,0,0,1,0,7335.54,0.271725,0.271403,-0.927136,6,0.0209188,11,-0.000251627,-3.03286,-0.181456,-0.325148,11.8047,0.271403,
2,0,0,1,0,7335.58,0.270221,0.269939,-0.943388,6,0.0208834,11,-0.000254657,-3.02531,-0.216532,-0.272477,10.0903,0.269939,
2,0,0,1,0,7335.61,0.268725,0.268405,-0.954251,6,0.0208476,11,-0.000256126,-3.02034,-0.306095,-0.192751,7.24066,0.268405,
2,0,0,1,0,7335.65,0.267228,0.266926,-0.965252,6,0.0208113,11,-0.000257651,-3.01536,-0.265609,-0.222131,8.43382,0.266926,
2,0,0,1,0,7335.69,0.265728,0.265427,-0.989051,6,0.0207745,11,-0.000262521,-3.00478,-0.25223,-0.233913,8.98,0.265427,
2,0,0,1,0,7335.72,0.264228,0.263963,-1.0031,6,0.0207371,11,-0.000264781,-2.99866,-0.287776,-0.205021,7.94778,0.263963,
2,0,0,1,0,7335.76,0.262732,0.262407,-1.01553,6,0.0206993,11,-0.000266481,-2.99331,-0.31465,-0.18751,7.36175,0.262407,
2,0,0,1,0,7335.8,0.261236,0.260922,-1.02211,6,0.0206611,11,-0.000266692,-2.9905,-0.309106,-0.190873,7.62599,0.2609221,
2,0,0,1,0,7335.84,0.259736,0.259451,-1.03626,6,0.0206224,11,-0.000268859,-2.98453,-0.28146,-0.209622,8.50812,0.259451,
2,0,0,1,0,7335.87,0.258236,0.257938,-1.04539,6,0.0205832,11,-0.000269646,-2.98072,-0.254696,-0.231649,9.49866,0.257938,
2,0,0,1,0,7335.91,0.256741,0.256424,-1.05761,6,0.0205435,11,-0.000271197,-2.97567,-0.365032,-0.16163,6.69246,0.256424,
2,0,0,1,0,7335.95,0.255241,0.254939,-1.06944,6,0.0205033,11,-0.000272643,-2.97084,-0.372427,-0.15842,6.64185,0.254939,
2,0,0,1,0,7335.99,0.253741,0.253464,-1.08348,6,0.0204629,11,-0.000274623,-2.96518,-0.298909,-0.197384,8.33135,0.2534644,
2,0,0,1,0,7336.02,0.252245,0.251954,-1.09783,6,0.020422,11,-0.000276602,-2.95947,-0.312066,-0.189063,8.02362,0.251954,
2,0,0,1,0,7336.06,0.250748,0.250456,-1.10915,6,0.0203807,11,-0.000277793,-2.95501,-0.346837,-0.170109,7.30946,0.250456,
2,0,0,1,0,7336.1,0.249248,0.248912,-1.11631,6,0.0203388,11,-0.000277861,-2.95222,-0.373778,-0.157848,6.87195,0.2489115,
2,0,0,1,0,7336.14,0.247748,0.247424,-1.12161,6,0.0202967,11,-0.000277512,-2.95016,-0.382024,-0.154441,6.81676,0.247424,
2,0,0,1,0,7336.17,0.246252,0.245964,-1.13366,6,0.0202543,11,-0.000278839,-2.94552,-0.305439,-0.193164,8.5864,0.245964,
2,0,0,1,0,7336.21,0.244756,0.244451,-1.15049,6,0.0202113,11,-0.000281239,-2.93912,-0.347266,-0.169899,7.63438,0.244451,
2,0,0,1,0,7336.25,0.243252,0.242946,-1.15943,6,0.0201677,11,-0.000281678,-2.93576,-0.476248,-0.123885,5.6054,0.242946,
2,0,0,1,0,7336.29,0.241756,0.24141,-1.16306,6,0.020124,11,-0.000280775,-2.9344,-0.361181,-0.163353,7.44763,0.24141,
2,0,0,1,0,7336.32,0.240261,0.239946,-1.18061,6,0.02008,11,-0.000283282,-2.92789,-0.363912,-0.162127,7.45258,0.239946,
2,0,0,1,0,7336.36,0.238761,0.238447,-1.19391,6,0.0200353,11,-0.000284685,-2.92303,-0.388732,-0.151775,7.03118,0.2384471,
2,0,0,1,0,7336.4,0.237261,0.236987,-1.20249,6,0.0199902,11,-0.000284974,-2.91992,-0.523879,-0.112621,5.27028,0.236987,
2,0,0,1,0,7336.44,0.235765,0.235461,-1.2098,6,0.0199449,11,-0.00028486,-2.91729,-0.444919,-0.132609,6.28373,0.235461,
2,0,0,1,0,7336.47,0.234268,0.233939,-1.21724,6,0.0198994,11,-0.00028476,-2.91462,-0.32812,-0.179812,8.62594,0.233939,
2,0,0,1,0,7336.51,0.232768,0.232451,-1.23176,6,0.0198532,11,-0.000286323,-2.90947,-0.345754,-0.170641,8.23519,0.232451,
2,0,0,1,0,7336.55,0.231268,0.230968,-1.24697,6,0.0198065,11,-0.000288011,-2.90414,-0.484535,-0.121766,5.91186,0.2309678,
2,0,0,1,0,7336.59,0.229772,0.229492,-1.25861,6,0.0197595,11,-0.00028884,-2.90011,-0.425057,-0.138805,6.78858,0.229492,
2,0,0,1,0,7336.62,0.228275,0.227932,-1.26922,6,0.0197123,11,-0.000289296,-2.89646,-0.40745,-0.144803,7.12,0.227932,
2,0,0,1,0,7336.66,0.226772,0.226487,-1.2818,6,0.0196644,11,-0.000290311,-2.89218,-0.338287,-0.174408,8.65322,0.226487,
2,0,0,1,0,7336.7,0.225276,0.224976,-1.29036,6,0.0196162,11,-0.0002903,-2.88929,-0.319993,-0.184379,9.27068,0.224976,
2,0,0,1,0,7336.74,0.223781,0.223425,-1.29802,6,0.0195677,11,-0.00029001,-2.88672,-0.404949,-0.145697,7.40597,0.223425,
2,0,0,1,0,7336.77,0.222281,0.222008,-1.30206,6,0.0195187,11,-0.000289067,-2.88537,-0.36942,-0.15971,8.19554,0.222008,
2,0,0,1,0,7336.81,0.220781,0.220476,-1.31641,6,0.0194692,11,-0.000290237,-2.88061,-0.309898,-0.190385,9.84076,0.220476,
2,0,0,1,0,7336.85,0.219284,0.218942,-1.33911,6,0.0194193,11,-0.000293187,-2.87318,-0.332986,-0.177184,9.23091,0.218942,
2,0,0,1,0,7336.89,0.217788,0.217445,-1.34753,6,0.019369,11,-0.000293013,-2.87046,-0.431993,-0.136576,7.15596,0.217445,
2,0,0,1,0,7336.92,0.216288,0.216008,-1.35435,6,0.0193181,11,-0.000292551,-2.86827,-0.435167,-0.13558,7.17284,0.216008,
2,0,0,1,0,7336.96,0.214788,0.214453,-1.37466,6,0.0192668,11,-0.0002948,-2.8618,-0.377427,-0.156322,8.35083,0.214453,
2,0,0,1,0,7337,0.213292,0.212966,-1.38708,6,0.0192151,11,-0.0002954,-2.8579,-0.37243,-0.158419,8.55648,0.212966,
2,0,0,1,0,7337.04,0.211796,0.211487,-1.39461,6,0.0191629,11,-0.000294941,-2.85555,-0.452508,-0.130384,7.10089,0.211487,
2,0,0,1,0,7337.07,0.210293,0.209984,-1.40726,6,0.01911,11,-0.000295502,-2.85163,-0.336614,-0.175275,9.68712,0.209984,
2,0,0,1,0,7337.11,0.208797,0.208492,-1.41694,6,0.0190569,11,-0.00029542,-2.84865,-0.270964,-0.217741,12.1813,0.208492,
2,0,0,1,0,7337.15,0.207301,0.206967,-1.43927,6,0.0190032,11,-0.000297883,-2.84186,-0.286753,-0.205752,11.5621,0.2069672,
2,0,0,1,0,7337.19,0.205801,0.205508,-1.46217,6,0.0189485,11,-0.000300487,-2.835,-0.327808,-0.179984,10.1888,0.205508,
2,0,0,1,0,7337.22,0.204301,0.203942,-1.47567,6,0.0188934,11,-0.000300951,-2.83101,-0.425409,-0.13869,7.95343,0.203942,
2,0,0,1,0,7337.26,0.202804,0.202446,-1.48596,6,0.0188381,11,-0.000300826,-2.82799,-0.342155,-0.172436,9.99276,0.202446,
2,0,0,1,0,7337.3,0.201308,0.201019,-1.50429,6,0.018782,11,-0.000302389,-2.82267,-0.254734,-0.231614,13.5585,0.2010186,
2,0,0,1,0,7337.34,0.199808,0.199493,-1.52067,6,0.0187251,11,-0.000303364,-2.81796,-0.276891,-0.21308,12.6917,0.199493,
2,0,0,1,0,7337.37,0.198308,0.198018,-1.53715,6,0.0186676,11,-0.000304383,-2.81328,-0.291565,-0.202356,12.187,0.198018,
2,0,0,1,0,7337.41,0.196812,0.196489,-1.55209,6,0.0186095,11,-0.000304969,-2.80908,-0.261725,-0.225427,13.7573,0.196489,
2,0,0,1,0,7337.45,0.195316,0.195019,-1.57989,6,0.0185508,11,-0.000308109,-2.80137,-0.227816,-0.258981,15.9661,0.195019,
2,0,0,1,0,7337.49,0.193813,0.193468,-1.61013,6,0.0184908,11,-0.000311509,-2.79314,-0.225064,-0.262148,16.3361,0.193468,
2,0,0,1,0,7337.52,0.192317,0.191985,-1.62683,6,0.0184302,11,-0.000312328,-2.78866,-0.253201,-0.233017,14.7087,0.191985,
2,0,0,1,0,7337.56,0.190821,0.190497,-1.64224,6,0.0183689,11,-0.000312841,-2.78456,-0.250936,-0.23512,15.0933,0.190497,
2,0,0,1,0,7337.6,0.189321,0.189022,-1.671,6,0.0183066,11,-0.000315855,-2.77702,-0.22806,-0.258704,16.9022,0.189022,
2,0,0,1,0,7337.64,0.187821,0.187474,-1.69596,6,0.0182433,11,-0.000317949,-2.77058,-0.214228,-0.275408,18.2987,0.187474,
2,0,0,1,0,7337.67,0.186324,0.185969,-1.72,6,0.018179,11,-0.000319866,-2.76447,-0.224526,-0.262776,17.7351,0.185969,
2,0,0,1,0,7337.71,0.184828,0.184503,-1.75662,6,0.0181137,11,-0.000324101,-2.75532,-0.205422,-0.287214,19.7868,0.184503,
2,0,0,1,0,7337.75,0.183328,0.183033,-1.79015,6,0.0180471,11,-0.000327657,-2.74711,-0.176482,-0.334312,23.4099,0.183033,
2,0,0,1,0,7337.78,0.181828,0.181531,-1.83048,6,0.0179792,11,-0.00033229,-2.73743,-0.169365,-0.34836,24.804,0.1815313,
2,0,0,1,0,7337.82,0.180332,0.180012,-1.87029,6,0.0179099,11,-0.000336673,-2.72809,-0.157213,-0.375288,27.2296,0.180012,
2,0,0,1,0,7337.86,0.178836,0.178522,-1.90945,6,0.0178393,11,-0.000340878,-2.71909,-0.161269,-0.365848,27.1431,0.178522,
2,0,0,1,0,7337.9,0.177333,0.177009,-1.94384,6,0.0177668,11,-0.000344077,-2.71134,-0.144018,-0.40967,31.185,0.177009,
2,0,0,1,0,7337.93,0.175837,0.175511,-1.9914,6,0.017693,11,-0.000349513,-2.70084,-0.135565,-0.435216,33.8675,0.175511,
2,0,0,1,0,7337.97,0.174341,0.174026,-2.04149,6,0.0176173,11,-0.000355272,-2.69005,-0.130479,-0.452179,36.2158,0.174026,
2,0,0,1,0,7338.01,0.172841,0.172551,-2.10186,6,0.0175394,11,-0.000362679,-2.6774,-0.132333,-0.445845,36.616,0.1725515,
2,0,0,1,0,7338.05,0.171341,0.171049,-2.15303,6,0.0174593,11,-0.000368274,-2.66695,-0.121127,-0.487091,41.1351,0.171049,
2,0,0,1,0,7338.08,0.169844,0.169524,-2.2288,6,0.0173773,11,-0.000377834,-2.65193,-0.110038,-0.536176,46.6697,0.169524,
2,0,0,1,0,7338.12,0.168348,0.168017,-2.3092,6,0.0172925,11,-0.000387985,-2.63654,-0.102655,-0.574742,51.4881,0.168017,
2,0,0,1,0,7338.16,0.166848,0.166537,-2.3779,6,0.0172046,11,-0.000396007,-2.62381,-0.10325,-0.571426,52.8992,0.166537,
2,0,0,1,0,7338.2,0.165348,0.165023,-2.45641,6,0.0171138,11,-0.000405364,-2.6097,-0.0943944,-0.625037,60.1397,0.165023,
2,0,0,1,0,7338.23,0.163852,0.163543,-2.54864,6,0.0170201,11,-0.000416813,-2.59369,-0.089834,-0.656767,65.7168,0.163543,
2,0,0,1,0,7338.27,0.162357,0.162035,-2.65197,6,0.0169225,11,-0.000429712,-2.57643,-0.0848824,-0.695079,72.2666,0.162035,
2,0,0,1,0,7338.31,0.160853,0.160538,-2.76418,6,0.0168204,11,-0.000443757,-2.55843,-0.0827113,-0.713325,77.1119,0.160538,
2,0,0,1,0,7338.35,0.159357,0.159095,-2.88644,6,0.0167145,11,-0.000459217,-2.53964,-0.079856,-0.738829,83.3463,0.159095,
2,0,0,1,0,7338.38,0.157861,0.15756,-3.0176,6,0.0166041,11,-0.000475452,-2.52034,-0.0767837,-0.768392,90.5929,0.15756,
2,0,0,1,0,7338.42,0.156361,0.156045,-3.16384,6,0.0164882,11,-0.000493702,-2.49979,-0.0723532,-0.815444,100.542,0.156045,
2,0,0,1,0,7338.46,0.154861,0.154513,-3.31839,6,0.0163665,11,-0.000512735,-2.47907,-0.0715507,-0.82459,106.612,0.154513,
2,0,0,1,0,7338.5,0.153364,0.153074,-3.47614,6,0.0162393,11,-0.000532107,-2.4589,-0.0738192,-0.79925,108.473,0.153074,
2,0,0,1,0,7338.53,0.151868,0.151565,-3.63619,6,0.0161061,11,-0.00055112,-2.43935,-0.0726715,-0.811872,115.666,0.151565,
2,0,0,1,0,7338.57,0.150368,0.150077,-3.81644,6,0.0159661,11,-0.000572758,-2.41834,-0.0714378,-0.825893,123.229,0.150077,
2,0,0,1,0,7338.61,0.148868,0.14856,-4.00706,6,0.0158192,11,-0.00059529,-2.39717,-0.0744203,-0.792795,123.926,0.14856,
2,0,0,1,0,7338.65,0.147372,0.147049,-4.19001,6,0.0156657,11,-0.000616135,-2.37779,-0.0770281,-0.765954,125.116,0.147049,
2,0,0,1,0,7338.68,0.145877,0.145568,-4.3751,6,0.0155053,11,-0.000636877,-2.35901,-0.0794709,-0.74241,126.667,0.145568,
2,0,0,1,0,7338.72,0.144373,0.144108,-4.57449,6,0.0153369,11,-0.000659218,-2.33966,-0.0840644,-0.701843,124.936,0.144108,
2,0,0,1,0,7338.76,0.142877,0.142598,-4.75533,6,0.0151624,11,-0.000678102,-2.32282,-0.0887927,-0.664469,123.139,0.1425983,
2,0,0,1,0,7338.8,0.14138,0.141086,-4.9432,6,0.0149807,11,-0.000697418,-2.30599,-0.0929806,-0.634541,121.935,0.141086,
2,0,0,1,0,7338.83,0.13988,0.139599,-5.11986,6,0.0147917,11,-0.000714727,-2.29074,-0.104103,-0.566745,113.049,0.139599,
2,0,0,1,0,7338.87,0.13838,0.138048,-5.28125,6,0.0145964,11,-0.000729067,-2.27726,-0.114998,-0.513053,105.786,0.138048,
2,0,0,1,0,7338.91,0.136884,0.136598,-5.43965,6,0.0143956,11,-0.000743046,-2.26443,-0.12419,-0.47508,100.701,0.136598,
2,0,0,1,0,7338.95,0.135388,0.135066,-5.58943,6,0.0141891,11,-0.000754943,-2.25263,-0.141006,-0.418422,90.9833,0.135066,
2,0,0,1,0,7338.98,0.133888,0.133617,-5.72294,6,0.0139768,11,-0.000764684,-2.24238,-0.163752,-0.360301,80.0809,0.133617,
2,0,0,1,0,7339.02,0.132389,0.132092,-5.82863,6,0.0137602,11,-0.000769917,-2.23443,-0.188594,-0.312841,70.969,0.132092,
2,0,0,1,0,7339.06,0.130893,0.130589,-5.92952,6,0.0135402,11,-0.000774329,-2.22698,-0.213987,-0.275718,63.5985,0.130589,
2,0,0,1,0,7339.1,0.129393,0.129093,-6.01549,6,0.013316,11,-0.000776554,-2.22073,-0.263113,-0.224238,52.5133,0.129093,
2,0,0,1,0,7339.13,0.127893,0.127582,-6.07906,6,0.0130888,11,-0.00077558,-2.21616,-0.368619,-0.160057,37.9255,0.127582,
2,0,0,1,0,7339.17,0.126397,0.126079,-6.12287,6,0.0128602,11,-0.000771966,-2.21304,-0.529973,-0.111326,26.6006,0.126079,
2,0,0,1,0,7339.21,0.1249,0.124602,-6.16506,6,0.01263,11,-0.000768176,-2.21006,-0.824677,-0.0715432,17.1793,0.124602,
2,0,0,1,0,7339.25,0.1234,0.123102,-6.18848,6,0.0123982,11,-0.000761816,-2.20842,-2.1809,-0.0270531,6.51266,0.123102,
2,0,0,1,0,7339.28,0.1219,0.121622,-6.18712,6,0.0121661,11,-0.000752493,-2.20851,1.90248,0.0310122,-7.46078,0.121622,
2,0,0,1,0,7339.32,0.120404,0.120082,-6.16758,6,0.0119348,11,-0.000740615,-2.20988,0.885871,0.0666011,-15.9868,0.120082,
2,0,0,1,0,7339.36,0.118908,0.118582,-6.13858,6,0.0117047,11,-0.000727923,-2.21193,0.625191,0.0943712,-22.5745,0.118582,
2,0,0,1,0,7339.4,0.117404,0.117143,-6.09678,6,0.0114745,11,-0.000714198,-2.2149,0.467653,0.126162,-29.9613,0.117143,
2,0,0,1,0,7339.43,0.115909,0.115585,-6.04273,6,0.0112471,11,-0.000698448,-2.21877,0.32877,0.179457,-42.2352,0.115585,
2,0,0,1,0,7339.47,0.114413,0.114113,-5.96953,6,0.0110222,11,-0.0006812,-2.22406,0.256866,0.229692,-53.4829,0.114113,
2,0,0,1,0,7339.51,0.112913,0.112586,-5.88727,6,0.0107997,11,-0.000662825,-2.23009,0.232436,0.253833,-58.2965,0.112586,
2,0,0,1,0,7339.55,0.111413,0.111134,-5.80173,6,0.0105804,11,-0.000644768,-2.23644,0.218611,0.269886,-60.9875,0.111134,
2,0,0,1,0,7339.58,0.109917,0.109613,-5.70681,6,0.0103652,11,-0.000625538,-2.24361,0.194162,0.30387,-67.4426,0.1096125,
2,0,0,1,0,7339.62,0.10842,0.108113,-5.60107,6,0.0101536,11,-0.000605551,-2.25173,0.175156,0.336842,-73.4033,0.1081133,
2,0,0,1,0,7339.66,0.10692,0.106614,-5.48103,6,0.00994592,11,-0.000584356,-2.26114,0.161516,0.365289,-78.1071,0.106614,
2,0,0,1,0,7339.7,0.10542,0.105133,-5.36731,6,0.00974236,11,-0.000564282,-2.27024,0.172635,0.341762,-71.5769,0.105133,
2,0,0,1,0,7339.73,0.103924,0.10361,-5.25684,6,0.00954349,11,-0.00054466,-2.27928,0.15898,0.371117,-76.17,0.10361,
2,0,0,1,0,7339.77,0.102427,0.102104,-5.14327,6,0.00934878,11,-0.000525146,-2.28876,0.154608,0.38161,-76.6491,0.102104,
2,0,0,1,0,7339.81,0.100924,0.100577,-5.02183,6,0.00915742,11,-0.000505082,-2.29914,0.160894,0.366702,-72.0797,0.100577,
2,0,0,1,0,7339.84,0.0994284,0.0991143,-4.92391,6,0.00897122,11,-0.00048803,-2.30769,0.16808,0.351023,-67.5162,0.0991143,
2,0,0,1,0,7339.88,0.0979329,0.0975909,-4.82972,6,0.00878875,11,-0.000471337,-2.31608,0.176468,0.334338,-62.9891,0.0975909,
2,0,0,1,0,7339.92,0.0964329,0.0960929,-4.7386,6,0.00860935,11,-0.000455346,-2.32435,0.177447,0.332494,-61.3791,0.0960929,
2,0,0,1,0,7339.96,0.094933,0.0946409,-4.64261,6,0.00843331,11,-0.000439381,-2.33324,0.194596,0.303192,-55.0122,0.0946409,
2,0,0,1,0,7339.99,0.0934366,0.0931703,-4.56301,6,0.00826106,11,-0.000425137,-2.34075,0.21044,0.280365,-50.0788,0.0931703,
2,0,0,1,0,7340.03,0.0919401,0.0916202,-4.49415,6,0.00809147,11,-0.000411754,-2.34735,0.22828,0.258455,-45.4288,0.0916202,
2,0,0,1,0,7340.07,0.0904402,0.0901367,-4.43003,6,0.00792383,11,-0.000399308,-2.35359,0.242071,0.24373,-42.1959,0.0901367,
2,0,0,1,0,7340.11,0.0889402,0.0886154,-4.37261,6,0.00775856,11,-0.000387481,-2.35926,0.255225,0.231168,-39.5215,0.08861544,
2,0,0,1,0,7340.14,0.0874438,0.0871456,-4.31608,6,0.00759606,11,-0.000376127,-2.36491,0.293033,0.201342,-33.9628,0.0871456,
2,0,0,1,0,7340.18,0.0859483,0.0856448,-4.274,6,0.00743541,11,-0.000366046,-2.36917,0.334576,0.176342,-29.3499,0.0856448,
2,0,0,1,0,7340.22,0.0844447,0.0841323,-4.22717,6,0.00727556,11,-0.000355641,-2.37395,0.336071,0.175558,-28.9142,0.0841323,
2,0,0,1,0,7340.26,0.0829492,0.0826321,-4.18219,6,0.00711827,11,-0.000345583,-2.3786,0.337295,0.174921,-28.5205,0.08263208,
2,0,0,1,0,7340.29,0.0814528,0.0811269,-4.12893,6,0.00696274,11,-0.000334967,-2.38416,0.366271,0.161083,-26.0504,0.0811269,
2,0,0,1,0,7340.33,0.0799528,0.0796244,-4.09332,6,0.00680827,11,-0.000325928,-2.38792,0.438165,0.134652,-21.552,0.0796244,
2,0,0,1,0,7340.37,0.0784529,0.0781539,-4.06038,6,0.00665499,11,-0.000317335,-2.39143,0.420173,0.140418,-22.2925,0.0781539,
2,0,0,1,0,7340.41,0.0769565,0.0766129,-4.02971,6,0.00650341,11,-0.000308728,-2.39473,0.360457,0.163681,-25.7374,0.0766129,
2,0,0,1,0,7340.44,0.0754601,0.0751555,-3.98917,6,0.00635318,11,-0.000299808,-2.39912,0.381995,0.154452,-24.0726,0.0751555,
2,0,0,1,0,7340.48,0.0739601,0.0736335,-3.96292,6,0.00620401,11,-0.000291804,-2.40198,0.379718,0.155379,-23.9994,0.0736335,
2,0,0,1,0,7340.52,0.0724601,0.0721966,-3.93225,6,0.00605598,11,-0.000283895,-2.40536,0.406202,0.145248,-22.221,0.0721966,
2,0,0,1,0,7340.56,0.0709637,0.0706797,-3.89363,6,0.00590964,11,-0.0002752,-2.40965,0.345801,0.170618,-25.8696,0.0706797,
2,0,0,1,0,7340.59,0.0694682,0.0692036,-3.85094,6,0.00576462,11,-0.000266499,-2.41443,0.348293,0.169398,-25.4795,0.0692036,
2,0,0,1,0,7340.63,0.0679646,0.0676647,-3.80939,6,0.00562044,11,-0.000257761,-2.41915,0.377938,0.15611,-23.3052,0.0676647,
2,0,0,1,0,7340.67,0.0664691,0.0661926,-3.7738,6,0.00547834,11,-0.000249798,-2.42322,0.367551,0.160522,-23.6901,0.0661926,
2,0,0,1,0,7340.71,0.0649727,0.0646551,-3.7422,6,0.00533743,11,-0.000241952,-2.42687,0.31136,0.189491,-27.6272,0.0646551,
2,0,0,1,0,7340.74,0.0634727,0.0631509,-3.70286,6,0.00519768,11,-0.000233839,-2.43146,0.287308,0.205355,-29.6115,0.06315089,
2,0,0,1,0,7340.78,0.0619728,0.0616604,-3.65448,6,0.00505977,11,-0.000225337,-2.43717,0.277792,0.212389,-30.2594,0.0616604,
2,0,0,1,0,7340.82,0.0604764,0.0601726,-3.61334,6,0.00492383,11,-0.000217424,-2.44209,0.295433,0.199707,-28.0908,0.0601726,
2,0,0,1,0,7340.86,0.05898,0.0586697,-3.57037,6,0.00478943,11,-0.000209472,-2.44729,0.278845,0.211587,-29.417,0.0586697,
2,0,0,1,0,7340.89,0.05748,0.0571607,-3.52083,6,0.00465632,11,-0.000201253,-2.45336,0.234462,0.251639,-34.5588,0.0571607,
2,0,0,1,0,7340.93,0.05598,0.0556595,-3.459,6,0.0045252,11,-0.000192526,-2.46105,0.235827,0.250183,-33.9215,0.0556595,
2,0,0,1,0,7340.97,0.0544836,0.0541995,-3.41828,6,0.00439635,11,-0.000185269,-2.46619,0.267236,0.220778,-29.4853,0.0541995,
2,0,0,1,0,7341.01,0.0529881,0.0526583,-3.3744,6,0.00426912,11,-0.00017769,-2.4718,0.245559,0.240268,-31.6088,0.0526583,
2,0,0,1,0,7341.04,0.0514846,0.0511128,-3.32393,6,0.00414299,11,-0.000169895,-2.47835,0.216236,0.272851,-35.3342,0.0511128,
2,0,0,1,0,7341.08,0.049989,0.0496991,-3.26561,6,0.0040196,11,-0.000162298,-2.48604,0.216428,0.272608,-34.7935,0.0496991,
2,0,0,1,0,7341.12,0.0484926,0.0482112,-3.22407,6,0.0038982,11,-0.000155436,-2.4916,0.227076,0.259825,-32.624,0.0482112,
2,0,0,1,0,7341.16,0.0469927,0.0466474,-3.17467,6,0.00377808,11,-0.00014809,-2.4983,0.241456,0.244351,-30.2433,0.0466474,
2,0,0,1,0,7341.19,0.0454927,0.0451833,-3.12741,6,0.00365975,11,-0.000141307,-2.50481,0.219643,0.268617,-32.7909,0.0451833,
2,0,0,1,0,7341.23,0.0439963,0.043695,-3.08072,6,0.00354345,11,-0.000134612,-2.51135,0.240225,0.245603,-29.6106,0.043695,
2,0,0,1,0,7341.27,0.0424999,0.0421821,-3.03509,6,0.00342894,11,-0.000128027,-2.51783,0.268416,0.219808,-26.1748,0.0421821,
2,0,0,1,0,7341.31,0.0409999,0.0406903,-3.00035,6,0.00331555,11,-0.000122085,-2.52283,0.30321,0.194585,-22.8246,0.04069031,
2,0,0,1,0,7341.34,0.0394999,0.0391839,-2.97342,6,0.00320332,11,-0.00011651,-2.52674,0.302243,0.195207,-22.586,0.0391839,
2,0,0,1,0,7341.38,0.0380044,0.0376869,-2.93823,6,0.00309278,11,-0.000110733,-2.53191,0.287378,0.205305,-23.4982,0.0376869,
2,0,0,1,0,7341.42,0.0365089,0.0361914,-2.90027,6,0.00298367,11,-0.000104965,-2.53756,0.329665,0.178969,-20.2522,0.0361914,
2,0,0,1,0,7341.46,0.0350054,0.0347081,-2.87029,6,0.00287507,11,-9.96221e-05,-2.54207,0.416438,0.141678,-15.858,0.0347081,
2,0,0,1,0,7341.49,0.033509,0.0332061,-2.8439,6,0.00276801,11,-9.4435e-05,-2.54609,0.415518,0.141991,-15.7825,0.03320615,
2,0,0,1,0,7341.53,0.0320125,0.0317155,-2.81743,6,0.00266188,11,-8.9356e-05,-2.55015,0.405618,0.145457,-16.0416,0.0317155,
2,0,0,1,0,7341.57,0.0305126,0.0301985,-2.79,6,0.00255645,11,-8.42538e-05,-2.5544,0.466175,0.126562,-13.8555,0.0301985,
2,0,0,1,0,7341.61,0.0290126,0.0287189,-2.77787,6,0.00245177,11,-7.97776e-05,-2.55629,0.647322,0.0911447,-9.89513,0.0287189,
2,0,0,1,0,7341.64,0.0275162,0.0272255,-2.76862,6,0.00234791,11,-7.5377e-05,-2.55774,0.694515,0.0849514,-9.16344,0.0272255,
2,0,0,1,0,7341.68,0.0260198,0.0257444,-2.75822,6,0.00224453,11,-7.10085e-05,-2.55937,0.553703,0.106555,-11.421,0.0257444,
2,0,0,1,0,7341.72,0.0245198,0.0242236,-2.73513,6,0.00214145,11,-6.62547e-05,-2.56302,0.699628,0.0843305,-9.00411,0.0242236,
2,0,0,1,0,7341.76,0.0230198,0.0227281,-2.72762,6,0.00203901,11,-6.19936e-05,-2.56422,0.870115,0.0678072,-7.21545,0.0227281,
2,0,0,1,0,7341.79,0.0215243,0.0212193,-2.71471,6,0.00193708,11,-5.76044e-05,-2.56628,1.70211,0.0346629,-3.68159,0.0212193,
2,0,0,1,0,7341.83,0.0200288,0.0197397,-2.70739,6,0.00183539,11,-5.34432e-05,-2.56745,1.29338,0.0456168,-4.83144,0.0197397,
2,0,0,1,0,7341.87,0.0185253,0.018234,-2.70088,6,0.00173333,11,-4.92479e-05,-2.5685,1.49161,0.0395546,-4.18679,0.018234,
2,0,0,1,0,7341.9,0.0170289,0.0166902,-2.69838,6,0.00163219,11,-4.50364e-05,-2.5689,2.9254,0.0201682,-2.13007,0.01669017,
2,0,0,1,0,7341.94,0.0155325,0.0151957,-2.70309,6,0.00153103,11,-4.10754e-05,-2.56814,-20.4192,-0.00288944,0.304268,0.0151957,
2,0,0,1,0,7341.98,0.0140325,0.0137106,-2.70454,6,0.00142951,11,-3.70807e-05,-2.56791,-268.385,-0.000219833,0.0231296,0.0137106,
2,0,0,1,0,7342.02,0.0125325,0.0121827,-2.70741,6,0.00132804,11,-3.29834e-05,-2.56745,4.93332,0.0119595,-1.25971,0.0121827,
2,0,0,1,0,7342.05,0.0110361,0.0106772,-2.70033,6,0.00122698,11,-2.88318e-05,-2.56858,-9.12992,-0.00646227,0.681299,0.0106772,
2,0,0,1,0,7342.09,0.0095397,0.00924288,-2.70292,6,0.00112581,11,-2.49828e-05,-2.56817,-1.17188,-0.0503464,5.31569,0.00924288,
2,0,0,1,0,7342.13,0.00803616,0.00775918,-2.70467,6,0.00102391,11,-2.0986e-05,-2.56789,-1.59685,-0.0369477,3.91101,0.00775918,
2,0,0,1,0,7342.17,0.00654064,0.00623611,-2.71001,6,0.000922317,11,-1.68999e-05,-2.56703,-1.96046,-0.030095,3.19004,0.00623611,
2,0,0,1,0,7342.2,0.00504513,0.0047548,-2.70966,6,0.000820654,11,-1.28839e-05,-2.56708,-1.54401,-0.0382121,4.05969,0.0047548,
2,0,0,1,0,7342.24,0.00354515,0.00327548,-2.72506,6,0.000718531,11,-8.9259e-06,-2.56462,-0.384189,-0.15357,16.4421,0.003275482,
2,0,0,1,0,7342.28,0.00204518,0.00165976,-2.80137,6,0.00061557,11,-4.6496e-06,-2.55263,-0.680504,-0.0867004,9.25183,0.00165976,
2,0,0,1,0,7342.32,0.000548773,0.000177764,-2.76289,6,0.000511671,11,-4.91141e-07,-2.55864, , , ,0.000177764,
2,0,0,1,0,7342.33,0.000177222,-0.00014743,-2.75233,6,0.00048597,11,4.05775e-07,-2.5603, , , ,-0.00014743,