File: Figure_codes/Fig_3-5/rawdata_trumpetplot_data/before 10th/20221101_1-115_002_TrumpetPlot_ParaChange_12_CV_C01_1.csv
mode,ox/red,error,control changes,counter inc.,time/s,control/V,Ewe/V,<I>/mA,cycle number,(Q-Qo)/C,I Range,P/W,log(|I|),Tafel slope mV/dec,alpha_eff,dI/d(E-IR),E-IR/V,
2,1,0,0,0,2441.72,2.44065e-05,-0.000401673,6.93894,2,0.0000000E+000,10,-2.78718e-06,-2.15871, , , ,-0.000401673,
2,1,0,1,0,2441.73,0.00179726,0.00142117,7.81752,2,6.47062e-05,10,1.111e-05,-2.10693, , , ,0.001421166,
2,1,0,1,0,2441.74,0.00379485,0.00350487,8.79313,2,0.000148299,10,3.08187e-05,-2.05586,0.0500033,1.17992,395.956,0.00350487,
2,1,0,1,0,2441.75,0.00579244,0.00549392,9.43015,2,0.000239698,10,5.18085e-05,-2.02548,0.079661,0.740638,269.479,0.00549392,
2,1,0,1,0,2441.76,0.00779002,0.00751479,9.87372,2,0.000336457,10,7.41989e-05,-2.00552,0.116253,0.507513,194.421,0.00751479,
2,1,0,1,0,2441.77,0.00977853,0.00951592,10.2121,2,0.000436012,10,9.71777e-05,-1.99088,0.181508,0.325055,128.481,0.00951592,
2,1,0,1,0,2441.78,0.0117761,0.0115053,10.3864,2,0.00053919,10,0.000119499,-1.98353,0.29733,0.198433,80.3058,0.0115053,
2,1,0,1,0,2441.79,0.0137737,0.0134627,10.5291,2,0.000643805,10,0.000141749,-1.97761,0.433029,0.13625,55.8162,0.0134627,
2,1,0,1,0,2441.8,0.0157713,0.0154781,10.6082,2,0.000749585,10,0.000164194,-1.97436,0.631236,0.0934674,38.6905,0.0154781,
2,1,0,1,0,2441.81,0.017778,0.0174857,10.6847,2,0.000856138,10,0.00018683,-1.97124,1.1415,0.0516864,21.4856,0.0174857,
2,1,0,1,0,2441.82,0.0197755,0.0195081,10.6948,2,0.000963016,10,0.000208635,-1.97083,4.56608,0.0129214,5.39349,0.0195081,
2,1,0,1,0,2441.83,0.0217731,0.0214576,10.7061,2,0.00106994,10,0.000229728,-1.97037,-28.4776,-0.0020718,-0.864594,0.0214576,
2,1,0,1,0,2441.84,0.0237707,0.0235208,10.6913,2,0.00117698,10,0.000251468,-1.97097,87.6093,0.000673444,0.281398,0.0235208,
2,1,0,1,0,2441.85,0.0257774,0.0255163,10.7073,2,0.00128394,10,0.00027321,-1.97032,-29.3981,-0.00200693,-0.837258,0.0255163,
2,1,0,1,0,2441.86,0.027775,0.0274745,10.688,2,0.00139095,10,0.000293647,-1.9711,-6.25123,-0.00943814,-3.94105,0.0274745,
2,1,0,1,0,2441.87,0.0297726,0.0294813,10.6917,2,0.00149786,10,0.000315203,-1.97096,-6.22028,-0.0094851,-3.95346,0.0294813,
2,1,0,1,0,2441.88,0.0317701,0.0315002,10.6721,2,0.00160474,10,0.000336172,-1.97175,4.2336,0.0139361,5.82127,0.0315002,
2,1,0,1,0,2441.89,0.0337587,0.0334378,10.7147,2,0.00171051,10,0.000358275,-1.97002,4.71109,0.0125236,5.22106,0.0334378,
2,1,0,1,0,2441.9,0.0357562,0.0354173,10.6925,2,0.00181756,10,0.0003787,-1.97092,-11.2241,-0.00525654,-2.19717,0.0354173,
2,1,0,1,0,2441.91,0.0377538,0.037466,10.7058,2,0.00192457,10,0.000401104,-1.97038,5.80328,0.0101667,4.24588,0.037466,
2,1,0,1,0,2441.92,0.0397514,0.0394336,10.7096,2,0.00203164,10,0.000422316,-1.97023,1.49058,0.0395819,16.5886,0.0394336,
2,1,0,1,0,2441.93,0.0417399,0.0414264,10.7715,2,0.00213786,10,0.000446226,-1.96772,1.38779,0.0425136,17.8287,0.0414264,
2,1,0,1,0,2441.94,0.0437375,0.0434757,10.7816,2,0.00224565,10,0.00046874,-1.96732,2.57484,0.022914,9.64987,0.0434757,
2,1,0,1,0,2441.95,0.0457351,0.0454365,10.8102,2,0.00235355,10,0.000491179,-1.96617,1.52424,0.0387079,16.336,0.04543652,
2,1,0,1,0,2441.96,0.0477327,0.0474329,10.8463,2,0.00246193,10,0.00051447,-1.96472,0.794012,0.0743062,31.5317,0.0474329,
2,1,0,1,0,2441.97,0.0497393,0.0494405,10.9365,2,0.00257077,10,0.000540705,-1.96112,0.78039,0.0756032,32.1909,0.0494405,
2,1,0,1,0,2441.98,0.0517369,0.0514065,10.9742,2,0.00268034,10,0.000564145,-1.95963,0.750443,0.0786202,33.7619,0.05140651,
2,1,0,1,0,2441.99,0.0537345,0.0534168,11.0707,2,0.00279055,10,0.000591362,-1.95582,0.591905,0.0996782,43.0237,0.0534168,
2,1,0,1,0,2442,0.0557321,0.0553923,11.1457,2,0.00290172,10,0.000617385,-1.95289,0.566285,0.104188,45.3808,0.0553923,
2,1,0,1,0,2442.01,0.0577297,0.057393,11.2512,2,0.00301363,10,0.000645738,-1.9488,0.480341,0.122829,53.9473,0.057393,
2,1,0,1,0,2442.02,0.0597364,0.059418,11.3629,2,0.00312681,10,0.000675158,-1.94451,0.426519,0.138329,61.4064,0.059418,
2,1,0,1,0,2442.03,0.0617339,0.0614274,11.4989,2,0.00324109,10,0.000706347,-1.93934,0.428015,0.137846,61.7927,0.0614274,
2,1,0,1,0,2442.04,0.0637315,0.0634281,11.6106,2,0.00335667,10,0.000736441,-1.93514,0.400969,0.147143,66.7963,0.0634281,
2,1,0,1,0,2442.05,0.0657291,0.0654227,11.7658,2,0.0034735,10,0.000769749,-1.92938,0.333066,0.177142,81.3863,0.0654227,
2,1,0,1,0,2442.06,0.0677176,0.0674219,11.9357,2,0.00359094,10,0.000804727,-1.92315,0.332936,0.177211,82.5033,0.0674219,
2,1,0,1,0,2442.07,0.0697152,0.0694054,12.0944,2,0.00371112,10,0.000839415,-1.91742,0.35036,0.168398,79.4934,0.0694054,
2,1,0,1,0,2442.08,0.0717128,0.0714645,12.257,2,0.00383293,10,0.000875943,-1.91161,0.316761,0.18626,89.2105,0.0714645,
2,1,0,1,0,2442.09,0.0737104,0.0734177,12.4523,2,0.00395647,10,0.00091422,-1.90475,0.285843,0.206407,100.307,0.0734177,
2,1,0,1,0,2442.1,0.0756989,0.075375,12.6493,2,0.00408079,10,0.000953441,-1.89793,0.277788,0.212393,104.93,0.075375,
2,1,0,1,0,2442.11,0.0776965,0.0773765,12.8677,2,0.00420834,10,0.000995658,-1.8905,0.268237,0.219955,110.488,0.0773765,
2,1,0,1,0,2442.12,0.0796941,0.0794154,13.0957,2,0.00433823,10,0.00104,-1.88287,0.254979,0.231391,118.334,0.0794154,
2,1,0,1,0,2442.13,0.0816916,0.0813918,13.3429,2,0.00447045,10,0.001086,-1.87475,0.250072,0.235932,122.807,0.0813918,
2,1,0,1,0,2442.14,0.0836983,0.083376,13.5821,2,0.00460515,10,0.00113242,-1.86703,0.257583,0.229052,121.449,0.083376,
2,1,0,1,0,2442.15,0.0856959,0.0854218,13.8323,2,0.00474221,10,0.00118158,-1.85911,0.268001,0.220149,118.746,0.0854218,
2,1,0,1,0,2442.16,0.0876935,0.0874226,14.0626,2,0.00488176,10,0.00122939,-1.85193,0.264488,0.223073,122.509,0.08742255,
2,1,0,1,0,2442.17,0.0896911,0.089359,14.3146,2,0.00502365,10,0.00127914,-1.84422,0.245659,0.24017,134.281,0.089359,
2,1,0,1,0,2442.18,0.0916978,0.0913728,14.5931,2,0.00516824,10,0.00133341,-1.83585,0.248728,0.237207,135.006,0.0913728,
2,1,0,1,0,2442.19,0.0936953,0.0933665,14.8557,2,0.00531553,10,0.00138702,-1.82811,0.270738,0.217923,126.256,0.0933665,
2,1,0,1,0,2442.2,0.0956929,0.0953889,15.1001,2,0.0054654,10,0.00144038,-1.82102,0.274342,0.21506,126.814,0.0953889,
2,1,0,1,0,2442.21,0.0976905,0.0973896,15.3659,2,0.00561773,10,0.00149647,-1.81344,0.255835,0.230618,138.354,0.0973896,
2,1,0,1,0,2442.22,0.099679,0.0993447,15.6474,2,0.00577129,10,0.00155449,-1.80556,0.262384,0.224861,137.231,0.0993447,
2,1,0,1,0,2442.23,0.101677,0.101376,15.9129,2,0.00592912,10,0.00161318,-1.79825,0.277321,0.21275,132.112,0.101376,
2,1,0,1,0,2442.24,0.103674,0.103363,16.1783,2,0.00608964,10,0.00167225,-1.79107,0.26518,0.22249,140.604,0.103363,
2,1,0,1,0,2442.25,0.105672,0.105381,16.476,2,0.0062529,10,0.00173626,-1.78315,0.263557,0.22386,143.852,0.105381,
2,1,0,1,0,2442.26,0.107656,0.10738,16.7561,2,0.00641744,10,0.00179928,-1.77583,0.263194,0.224169,146.685,0.10738,
2,1,0,1,0,2442.27,0.109658,0.109367,17.0607,2,0.00658652,10,0.00186588,-1.768,0.259933,0.226981,151.061,0.109367,
2,1,0,1,0,2442.28,0.111655,0.111333,17.3533,2,0.00675866,10,0.00193199,-1.76062,0.255474,0.230943,156.559,0.111333,
2,1,0,1,0,2442.29,0.113653,0.113347,17.6839,2,0.00693387,10,0.00200442,-1.75242,0.25074,0.235303,162.302,0.113347,
2,1,0,1,0,2442.3,0.115651,0.115308,17.9985,2,0.00711235,10,0.00207537,-1.74476,0.234733,0.251349,176.939,0.115308,
2,1,0,1,0,2442.31,0.117657,0.117374,18.3964,2,0.00729439,10,0.00215925,-1.73527,0.223284,0.264237,189.524,0.117374,
2,1,0,1,0,2442.32,0.119655,0.119345,18.7636,2,0.00748031,10,0.00223934,-1.72668,0.223922,0.263484,193.098,0.119345,
2,1,0,1,0,2442.33,0.121652,0.121358,19.1657,2,0.00766996,10,0.00232591,-1.71748,0.21443,0.275149,205.911,0.121358,
2,1,0,1,0,2442.34,0.12365,0.123376,19.5936,2,0.00786384,10,0.00241738,-1.70789,0.194831,0.302826,231.935,0.123376,
2,1,0,1,0,2442.35,0.125657,0.12535,20.0915,2,0.00806235,10,0.00251847,-1.69699,0.189358,0.311579,244.113,0.12535,
2,1,0,1,0,2442.36,0.127654,0.127353,20.5644,2,0.00826572,10,0.00261895,-1.68688,0.186232,0.31681,254.662,0.127353,
2,1,0,1,0,2442.37,0.129652,0.129352,21.1107,2,0.00847414,10,0.00273072,-1.6755,0.177564,0.332274,273.744,0.129352,
2,1,0,1,0,2442.38,0.131649,0.131373,21.6648,2,0.00868816,10,0.00284617,-1.66425,0.171248,0.34453,291.603,0.131373,
2,1,0,1,0,2442.39,0.133638,0.133341,22.2738,2,0.00890577,10,0.00297001,-1.65221,0.164927,0.357733,310.913,0.133341,
2,1,0,1,0,2442.4,0.135636,0.1353,22.8859,2,0.00913167,10,0.00309647,-1.64043,0.166648,0.35404,316.432,0.1353004,
2,1,0,1,0,2442.41,0.137633,0.137345,23.5409,2,0.00936381,10,0.00323323,-1.62818,0.167516,0.352206,323.463,0.137345,
2,1,0,1,0,2442.42,0.139631,0.139334,24.1907,2,0.00960257,10,0.00337059,-1.61635,0.165768,0.35592,336.177,0.139334,
2,1,0,1,0,2442.43,0.141619,0.141315,24.8754,2,0.00984543,10,0.00351526,-1.60423,0.167641,0.351942,341.547,0.141315,
2,1,0,1,0,2442.44,0.143617,0.143328,25.5549,2,0.0100977,10,0.00366275,-1.59253,0.172348,0.342332,341.368,0.143328,
2,1,0,1,0,2442.45,0.145614,0.14531,26.2393,2,0.0103567,10,0.00381283,-1.58105,0.177748,0.33193,339.687,0.14531,
2,1,0,1,0,2442.46,0.147612,0.147291,26.9009,2,0.0106225,10,0.00396225,-1.57023,0.184474,0.319828,335.848,0.147291,
2,1,0,1,0,2442.47,0.149619,0.149318,27.5855,2,0.010895,10,0.00411902,-1.55932,0.194672,0.303073,325.924,0.1493184,
2,1,0,1,0,2442.48,0.151616,0.151339,28.2203,2,0.0111742,10,0.00427083,-1.54944,0.209105,0.282154,310.522,0.151339,
2,1,0,1,0,2442.49,0.153614,0.153302,28.8226,2,0.0114595,10,0.00441858,-1.54027,0.225436,0.261716,294.188,0.153302,
2,1,0,1,0,2442.5,0.155611,0.155325,29.3929,2,0.0117507,10,0.00456544,-1.53176,0.238249,0.24764,284.095,0.1553248,
2,1,0,1,0,2442.51,0.157618,0.157361,29.9756,2,0.0120476,10,0.004717,-1.52323,0.264143,0.223364,260.703,0.157361,
2,1,0,1,0,2442.52,0.159616,0.15929,30.4266,2,0.0123498,10,0.00484664,-1.51675,0.317818,0.185641,220.327,0.15929,
2,1,0,1,0,2442.53,0.161613,0.161332,30.8506,2,0.0126563,10,0.00497719,-1.51074,0.381456,0.15467,185.91,0.161332,
2,1,0,1,0,2442.54,0.163611,0.163309,31.1737,2,0.0129666,10,0.00509093,-1.50621,0.50133,0.117687,142.988,0.163309,
2,1,0,1,0,2442.55,0.165618,0.165281,31.4152,2,0.0132796,10,0.00519232,-1.50286,0.80749,0.0730659,89.3968,0.165281,
2,1,0,1,0,2442.56,0.167597,0.16727,31.5278,2,0.0135914,10,0.00527366,-1.50131,3.27452,0.0180179,22.1218,0.16727,
2,1,0,1,0,2442.57,0.169595,0.169291,31.5039,2,0.0139066,10,0.00533332,-1.50164,-1.27716,-0.0461964,-56.6339,0.169291,
2,1,0,1,0,2442.58,0.171592,0.171332,31.2978,2,0.0142207,10,0.00536232,-1.50449,-0.481884,-0.122436,-149.101,0.171332,
2,1,0,1,0,2442.59,0.173572,0.173304,30.9055,2,0.0145287,10,0.00535605,-1.50996,-0.284161,-0.207629,-249.575,0.1733042,
2,1,0,1,0,2442.6,0.175578,0.175301,30.3074,2,0.0148349,10,0.00531291,-1.51845,-0.191515,-0.30807,-362.857,0.175301,
2,1,0,1,0,2442.61,0.177576,0.17727,29.4665,2,0.0151339,10,0.00522352,-1.53067,-0.138237,-0.426803,-488.484,0.17727,
2,1,0,1,0,2442.62,0.179573,0.179273,28.3668,2,0.0154231,10,0.00508541,-1.54719,-0.110543,-0.53373,-588.558,0.179273,
2,1,0,1,0,2442.63,0.181571,0.181328,27.0782,2,0.0157003,10,0.00491004,-1.56738,-0.0899303,-0.656064,-690.083,0.1813278,
2,1,0,1,0,2442.64,0.183578,0.183304,25.5851,2,0.0159636,10,0.00468986,-1.59201,-0.0736223,-0.801388,-796.177,0.183304,
2,1,0,1,0,2442.65,0.185575,0.185318,23.9014,2,0.0162109,10,0.00442935,-1.62158,-0.0630161,-0.936269,-870.293,0.185318,
2,1,0,1,0,2442.66,0.187573,0.18727,22.1337,2,0.0164409,10,0.00414498,-1.65495,-0.0571561,-1.03226,-889.347,0.18727,
2,1,0,1,0,2442.67,0.18957,0.189316,20.3458,2,0.0166531,10,0.00385179,-1.69152,-0.0528122,-1.11717,-885.35,0.189316,
2,1,0,1,0,2442.68,0.191577,0.191281,18.5826,2,0.0168476,10,0.0035545,-1.73089,-0.0495671,-1.19031,-863.209,0.191281,
2,1,0,1,0,2442.69,0.193575,0.193281,16.9232,2,0.0170249,10,0.00327094,-1.77152,-0.0493937,-1.19448,-789.929,0.193281,
2,1,0,1,0,2442.7,0.195572,0.195301,15.4067,2,0.0171862,10,0.00300896,-1.81229,-0.0498097,-1.18451,-714.202,0.195301,
2,1,0,1,0,2442.71,0.19757,0.197284,14.0642,2,0.0173332,10,0.00277465,-1.85188,-0.0524327,-1.12525,-621.08,0.197284,
2,1,0,1,0,2442.72,0.199558,0.199257,12.9499,2,0.0174666,10,0.00258036,-1.88773,-0.0584582,-1.00927,-512.701,0.199257,
2,1,0,1,0,2442.73,0.201556,0.201267,12.0221,2,0.0175911,10,0.00241965,-1.92002,-0.0661839,-0.891455,-420.52,0.201267,
2,1,0,1,0,2442.74,0.203553,0.203267,11.2636,2,0.0177074,10,0.00228952,-1.94832,-0.0788599,-0.748162,-331.241,0.203267,
2,1,0,1,0,2442.75,0.205551,0.20528,10.6928,2,0.0178169,10,0.00219502,-1.97091,-0.101669,-0.580312,-243.877,0.20528,
2,1,0,1,0,2442.76,0.20754,0.207269,10.2876,2,0.0179206,10,0.00213231,-1.98769,-0.12902,-0.457292,-184.224,0.207269,
2,1,0,1,0,2442.77,0.209537,0.209253,9.96098,2,0.0180217,10,0.00208436,-2.0017,-0.153669,-0.383942,-149.662,0.209253,
2,1,0,1,0,2442.78,0.211535,0.211232,9.69447,2,0.0181199,10,0.00204779,-2.01348,-0.207065,-0.284935,-108.343,0.211232,
2,1,0,1,0,2442.79,0.213532,0.213248,9.52812,2,0.0182159,10,0.00203185,-2.02099,-0.304602,-0.193695,-72.1882,0.213248,
2,1,0,1,0,2442.8,0.215539,0.215227,9.40612,2,0.0183105,10,0.00202445,-2.02659,-0.365946,-0.161226,-59.2035,0.2152269,
2,1,0,1,0,2442.81,0.217537,0.217252,9.29107,2,0.0184039,10,0.0020185,-2.03193,-0.391105,-0.150854,-54.7239,0.2172519,
2,1,0,1,0,2442.82,0.219534,0.219267,9.18501,2,0.0184963,10,0.00201397,-2.03692,-0.519664,-0.113535,-40.8092,0.219267,
2,1,0,1,0,2442.83,0.221532,0.221208,9.12962,2,0.0185879,10,0.00201955,-2.03955,-0.598818,-0.0985275,-35.0492,0.221208,
2,1,0,1,0,2442.84,0.223534,0.223251,9.04537,2,0.0186788,10,0.00201939,-2.04357,-0.650912,-0.0906421,-32.0651,0.223251,
2,1,0,1,0,2442.85,0.225536,0.225267,8.99947,2,0.018769,10,0.00202728,-2.04578,-0.664744,-0.088756,-31.1167,0.2252668,
2,1,0,1,0,2442.86,0.227534,0.227236,8.92137,2,0.0188586,10,0.00202726,-2.04957,-0.581717,-0.101424,-35.3451,0.227236,
2,1,0,1,0,2442.87,0.229531,0.229218,8.85982,2,0.0189475,10,0.00203083,-2.05257,-0.587887,-0.100359,-34.6711,0.229218,
2,1,0,1,0,2442.88,0.231529,0.231223,8.78315,2,0.0190357,10,0.00203087,-2.05635,-0.822386,-0.0717424,-24.6686,0.231223,
2,1,0,1,0,2442.89,0.233517,0.233203,8.76151,2,0.0191226,10,0.00204321,-2.05742,-0.848356,-0.0695463,-23.7101,0.233203,
2,1,0,1,0,2442.9,0.235515,0.235222,8.68834,2,0.0192099,10,0.00204369,-2.06106,-0.653146,-0.090332,-30.6697,0.235222,
2,1,0,1,0,2442.91,0.237513,0.237224,8.63819,2,0.0192965,10,0.00204919,-2.06358,-0.738563,-0.0798848,-26.9196,0.237224,
2,1,0,1,0,2442.92,0.23951,0.239208,8.58104,2,0.0193826,10,0.00205265,-2.06646,-0.99117,-0.0595256,-19.9738,0.2392078,
2,1,0,1,0,2442.93,0.241499,0.24125,8.55778,2,0.0194674,10,0.00206456,-2.06764,-0.764014,-0.0772237,-25.7056,0.24125,
2,1,0,1,0,2442.94,0.243496,0.243225,8.47778,2,0.0195525,10,0.00206201,-2.07172,-0.749903,-0.0786768,-26.1188,0.243225,
2,1,0,1,0,2442.95,0.245494,0.245181,8.4551,2,0.0196371,10,0.00207303,-2.07288,-0.930026,-0.0634391,-20.8863,0.245181,
2,1,0,1,0,2442.96,0.247491,0.24721,8.39454,2,0.0197214,10,0.00207522,-2.076,-0.861737,-0.0684663,-22.4724,0.24721,
2,1,0,1,0,2442.97,0.249498,0.249166,8.36555,2,0.0198051,10,0.00208441,-2.07751,-0.932091,-0.0632985,-20.6345,0.249166,
2,1,0,1,0,2442.98,0.251496,0.251241,8.31136,2,0.0198886,10,0.00208816,-2.08033,-0.869062,-0.0678893,-22.046,0.251241,
2,1,0,1,0,2442.99,0.253493,0.253219,8.27619,2,0.0199715,10,0.00209569,-2.08217,-0.818746,-0.0720614,-23.2454,0.253219,
2,1,0,1,0,2443,0.255491,0.255178,8.21986,2,0.020054,10,0.00209752,-2.08514,-1.22668,-0.0480975,-15.4771,0.2551775,
2,1,0,1,0,2443.01,0.257497,0.257212,8.2144,2,0.0201361,10,0.00211284,-2.08542,-1.35776,-0.0434538,-13.8923,0.257212,
2,1,0,1,0,2443.02,0.259495,0.259202,8.16395,2,0.020218,10,0.00211611,-2.0881,-0.801186,-0.0736408,-23.4732,0.2592023,
2,1,0,1,0,2443.03,0.261493,0.261199,8.1208,2,0.0202995,10,0.00212115,-2.0904,-0.954597,-0.0618062,-19.5971,0.2611995,
2,1,0,1,0,2443.04,0.26349,0.263225,8.08512,2,0.0203805,10,0.0021282,-2.09231,-1.8186,-0.0324425,-10.2563,0.263225,
2,1,0,1,0,2443.05,0.265479,0.265154,8.08024,2,0.0204605,10,0.00214251,-2.09258,-1.23919,-0.0476116,-14.9677,0.265154,
2,1,0,1,0,2443.06,0.267476,0.267211,8.02545,2,0.020541,10,0.00214449,-2.09553,-0.818199,-0.0721096,-22.6124,0.267211,
2,1,0,1,0,2443.07,0.269474,0.269141,7.99007,2,0.020621,10,0.00215046,-2.09745,-1.36133,-0.04334,-13.5289,0.269141,
2,1,0,1,0,2443.08,0.271471,0.271188,7.97165,2,0.0207009,10,0.00216181,-2.09845,-2.48084,-0.0237823,-7.40218,0.271188,
2,1,0,1,0,2443.09,0.27346,0.273153,7.96037,2,0.0207796,10,0.0021744,-2.09907,-0.998845,-0.0590683,-18.2931,0.273153,
2,1,0,1,0,2443.1,0.275458,0.275145,7.89927,2,0.0208589,10,0.00217344,-2.10241,-0.888172,-0.0664286,-20.53,0.275145,
2,1,0,1,0,2443.11,0.277455,0.277177,7.87776,2,0.0209377,10,0.00218354,-2.1036,-1.24561,-0.0473664,-14.5486,0.277177,
2,1,0,1,0,2443.12,0.279453,0.279134,7.84123,2,0.0210164,10,0.00218875,-2.10562,-1.38839,-0.0424953,-13.0219,0.2791338,
2,1,0,1,0,2443.13,0.281455,0.281161,7.82588,2,0.0210946,10,0.00220034,-2.10647,-1.42987,-0.0412624,-12.586,0.281161,
2,1,0,1,0,2443.14,0.283457,0.283185,7.79025,2,0.0211728,10,0.00220608,-2.10845,-1.47058,-0.0401202,-12.2148,0.283185,
2,1,0,1,0,2443.15,0.285455,0.285199,7.77656,2,0.0212506,10,0.00221787,-2.10921,-1.05727,-0.0558041,-16.8925,0.285199,
2,1,0,1,0,2443.16,0.287452,0.287178,7.72279,2,0.0213281,10,0.00221782,-2.11223,-1.00915,-0.058465,-17.6647,0.287178,
2,1,0,1,0,2443.17,0.28945,0.289117,7.70735,2,0.0214052,10,0.00222833,-2.1131,-1.98188,-0.0297698,-8.95179,0.289117,
2,1,0,1,0,2443.18,0.291456,0.291157,7.68717,2,0.0214824,10,0.00223817,-2.11423,-1.30323,-0.0452722,-13.5689,0.291157,
2,1,0,1,0,2443.19,0.293454,0.293175,7.65229,2,0.0215591,10,0.00224346,-2.11621,-1.087,-0.054278,-16.2142,0.293175,
2,1,0,1,0,2443.2,0.295452,0.295199,7.62163,2,0.0216355,10,0.0022499,-2.11795,-2.15185,-0.0274182,-8.17087,0.295199,
2,1,0,1,0,2443.21,0.297449,0.297161,7.61972,2,0.0217116,10,0.00226428,-2.11806,-2.1625,-0.0272832,-8.09829,0.297161,
2,1,0,1,0,2443.22,0.299438,0.29915,7.58963,2,0.0217869,10,0.00227044,-2.11978,-0.0386774,-1.52544,-422.797,0.2991499,
2,1,0,1,0,2443.22,0.299746,0.299554,6.60804,2,0.0218183,10,0.00197946,-2.17993,0.00213667,27.613,3802.56,0.299554,
2,1,0,1,0,2443.23,0.29774,0.297486,1.26362,2,0.0218539,10,0.00037591,-2.89838,0.00574161,10.2759,1946.83,0.297486,
2,0,0,1,0,2443.24,0.295742,0.295493,-1.29684,2,0.021852,10,-0.000383208,-2.88711,-0.0133391,-4.42309,944.196,0.295493,
2,0,0,1,0,2443.25,0.293745,0.293472,-2.5268,2,0.021832,10,-0.000741543,-2.59743,-0.0104359,-5.65357,460.726,0.293472,
2,0,0,1,0,2443.26,0.291747,0.291471,-3.14998,2,0.0218032,10,-0.000918127,-2.50169,-0.0286417,-2.05993,239.824,0.291471,
2,0,0,1,0,2443.27,0.289745,0.28945,-3.49141,2,0.0217698,10,-0.00101059,-2.457,-0.0578638,-1.01964,135.989,0.28945,
2,0,0,1,0,2443.28,0.287743,0.28743,-3.69955,2,0.0217337,10,-0.00106336,-2.43185,-0.107269,-0.550021,78.2558,0.28743,
2,0,0,1,0,2443.29,0.285745,0.285451,-3.80434,2,0.0216961,10,-0.00108595,-2.41972,-0.160191,-0.368311,54.733,0.285451,
2,0,0,1,0,2443.3,0.283748,0.283437,-3.91809,2,0.0216574,10,-0.00111053,-2.40693,-0.181376,-0.325292,49.5412,0.283437,
2,0,0,1,0,2443.31,0.28175,0.281459,-4.0021,2,0.0216178,10,-0.00112643,-2.39771,-0.216392,-0.272653,42.5853,0.281459,
2,0,0,1,0,2443.32,0.279761,0.279465,-4.08726,2,0.0215777,10,-0.00114224,-2.38857,-0.241323,-0.244485,38.9214,0.279465,
2,0,0,1,0,2443.33,0.277764,0.277473,-4.15724,2,0.0215364,10,-0.00115352,-2.3812,-0.240855,-0.244961,39.8374,0.277473,
2,0,0,1,0,2443.34,0.275766,0.275432,-4.24793,2,0.0214944,10,-0.00117001,-2.37182,-0.264521,-0.223044,36.8227,0.275432,
2,0,0,1,0,2443.35,0.273769,0.273487,-4.30402,2,0.0214515,10,-0.00117709,-2.36613,-0.245531,-0.240296,40.5862,0.273487,
2,0,0,1,0,2443.36,0.27178,0.27147,-4.4087,2,0.0214083,10,-0.00119683,-2.35569,-0.240794,-0.245023,41.9599,0.27147,
2,0,0,1,0,2443.37,0.269783,0.269459,-4.47302,2,0.0213639,10,-0.0012053,-2.3494,-0.273236,-0.21593,37.7821,0.269459,
2,0,0,1,0,2443.38,0.267785,0.267493,-4.55896,2,0.0213187,10,-0.00121949,-2.34113,-0.315713,-0.186879,33.1,0.267493,
2,0,0,1,0,2443.39,0.265787,0.265489,-4.60444,2,0.0212729,10,-0.00122243,-2.33682,-0.275982,-0.213782,38.6818,0.265489,
2,0,0,1,0,2443.4,0.263781,0.263472,-4.71451,2,0.0212262,10,-0.00124214,-2.32656,-0.263564,-0.223855,40.937,0.263472,
2,0,0,1,0,2443.41,0.261783,0.261489,-4.76817,2,0.0211788,10,-0.00124683,-2.32165,-0.350964,-0.168108,31.3378,0.2614893,
2,0,0,1,0,2443.42,0.259786,0.259495,-4.83915,2,0.0211308,10,-0.00125573,-2.31523,-0.329741,-0.178928,33.7625,0.259495,
2,0,0,1,0,2443.43,0.257788,0.257515,-4.90236,2,0.021082,10,-0.00126243,-2.30959,-0.297246,-0.198489,38.0745,0.257515,
2,0,0,1,0,2443.44,0.255781,0.255483,-4.9919,2,0.0210325,10,-0.00127534,-2.30173,-0.347921,-0.169579,32.8794,0.255483,
2,0,0,1,0,2443.45,0.253784,0.253499,-5.03441,2,0.0209823,10,-0.00127622,-2.29805,-0.384006,-0.153644,30.2925,0.253499,
2,0,0,1,0,2443.46,0.251786,0.251504,-5.11242,2,0.0209315,10,-0.0012858,-2.29137,-0.327923,-0.17992,35.8485,0.251504,
2,0,0,1,0,2443.47,0.249789,0.249522,-5.17698,2,0.02088,10,-0.00129177,-2.28592,-0.311908,-0.189158,38.3037,0.249522,
2,0,0,1,0,2443.48,0.2478,0.247506,-5.26556,2,0.0208284,10,-0.00130326,-2.27856,-0.368392,-0.160155,32.7634,0.247506,
2,0,0,1,0,2443.49,0.245802,0.245546,-5.30725,2,0.0207755,10,-0.00130317,-2.27513,-0.372573,-0.158358,32.9457,0.245546,
2,0,0,1,0,2443.5,0.243805,0.243528,-5.39663,2,0.0207219,10,-0.00131423,-2.26788,-0.365528,-0.16141,33.8594,0.2435279,
2,0,0,1,0,2443.51,0.241807,0.241523,-5.44345,2,0.0206677,10,-0.00131472,-2.26413,-0.364823,-0.161722,34.4959,0.241523,
2,0,0,1,0,2443.52,0.239819,0.239515,-5.53507,2,0.0206135,10,-0.00132573,-2.25688,-0.351417,-0.167892,36.139,0.239515,
2,0,0,1,0,2443.53,0.237821,0.237519,-5.58815,2,0.0205578,10,-0.00132729,-2.25273,-0.412457,-0.143045,31.2447,0.237519,
2,0,0,1,0,2443.54,0.235824,0.235549,-5.65898,2,0.0205016,10,-0.00133297,-2.24726,-0.414078,-0.142485,31.4227,0.235549,
2,0,0,1,0,2443.55,0.233826,0.233517,-5.71391,2,0.0204447,10,-0.00133429,-2.24307,-0.374199,-0.15767,35.2522,0.233517,
2,0,0,1,0,2443.56,0.231824,0.231565,-5.79943,2,0.0203871,10,-0.00134294,-2.23662,-0.331197,-0.178142,40.2748,0.231565,
2,0,0,1,0,2443.57,0.229822,0.229571,-5.87283,2,0.0203286,10,-0.00134823,-2.23115,-0.384002,-0.153645,35.2005,0.229571,
2,0,0,1,0,2443.58,0.227824,0.227517,-5.94193,2,0.0202695,10,-0.00135189,-2.22607,-0.394176,-0.149679,34.7184,0.2275165,
2,0,0,1,0,2443.59,0.225827,0.225491,-6.01449,2,0.0202097,10,-0.00135621,-2.2208,-0.366245,-0.161095,37.8288,0.225491,
2,0,0,1,0,2443.6,0.223829,0.223532,-6.09264,2,0.0201491,10,-0.0013619,-2.21519,-0.356597,-0.165453,39.3371,0.223532,
2,0,0,1,0,2443.61,0.221822,0.22153,-6.17029,2,0.0200876,10,-0.0013669,-2.20969,-0.327172,-0.180333,43.4892,0.22153,
2,0,0,1,0,2443.62,0.219825,0.219526,-6.26688,2,0.0200253,10,-0.00137574,-2.20295,-0.326357,-0.180784,44.1515,0.219526,
2,0,0,1,0,2443.63,0.217827,0.217547,-6.34615,2,0.0199622,10,-0.00138059,-2.19749,-0.358028,-0.164792,40.8305,0.217547,
2,0,0,1,0,2443.64,0.21583,0.2155,-6.43125,2,0.0198983,10,-0.00138594,-2.1917,-0.302599,-0.194977,49.0315,0.2155,
2,0,0,1,0,2443.65,0.213841,0.213553,-6.54199,2,0.019834,10,-0.00139706,-2.18429,-0.276662,-0.213257,54.4119,0.213553,
2,0,0,1,0,2443.66,0.211844,0.211565,-6.64539,2,0.0197681,10,-0.00140593,-2.17748,-0.347135,-0.169963,43.977,0.211565,
2,0,0,1,0,2443.67,0.209846,0.209536,-6.71864,2,0.0197012,10,-0.0014078,-2.17272,-0.32293,-0.182702,48.0756,0.209536,
2,0,0,1,0,2443.68,0.207848,0.207508,-6.84043,2,0.0196334,10,-0.00141944,-2.16492,-0.237364,-0.248564,66.4594,0.207508,
2,0,0,1,0,2443.69,0.20586,0.205526,-6.98512,2,0.0195649,10,-0.00143563,-2.15583,-0.248407,-0.237513,64.5747,0.2055262,
2,0,0,1,0,2443.7,0.203862,0.203581,-7.094,2,0.0194945,10,-0.0014442,-2.14911,-0.298829,-0.197437,54.6579,0.203581,
2,0,0,1,0,2443.71,0.201865,0.20154,-7.20297,2,0.0194231,10,-0.00145169,-2.14249,-0.261378,-0.225727,63.6183,0.2015404,
2,0,0,1,0,2443.72,0.199867,0.199545,-7.35076,2,0.0193503,10,-0.00146681,-2.13367,-0.230763,-0.255673,73.3278,0.199545,
2,0,0,1,0,2443.73,0.19786,0.197535,-7.49671,2,0.0192761,10,-0.00148086,-2.12513,-0.236509,-0.249462,72.9732,0.197535,
2,0,0,1,0,2443.74,0.195863,0.195555,-7.64194,2,0.0192004,10,-0.00149442,-2.1168,-0.22202,-0.265741,79.3784,0.195555,
2,0,0,1,0,2443.75,0.193865,0.193548,-7.81316,2,0.0191231,10,-0.00151222,-2.10717,-0.202521,-0.291327,88.8832,0.193548,
2,0,0,1,0,2443.76,0.191868,0.191572,-7.99598,2,0.019044,10,-0.0015318,-2.09713,-0.194842,-0.302809,94.5435,0.191572,
2,0,0,1,0,2443.77,0.189861,0.18956,-8.19015,2,0.0189631,10,-0.00155253,-2.08671,-0.187551,-0.314581,100.612,0.1895605,
2,0,0,1,0,2443.78,0.187863,0.187582,-8.39743,2,0.0188802,10,-0.0015752,-2.07585,-0.187185,-0.315196,103.25,0.187582,
2,0,0,1,0,2443.79,0.185866,0.185589,-8.60025,2,0.0187952,10,-0.00159611,-2.06549,-0.18507,-0.318798,107.152,0.185589,
2,0,0,1,0,2443.8,0.183868,0.183536,-8.83093,2,0.018708,10,-0.00162079,-2.05399,-0.162643,-0.362757,125.294,0.183536,
2,0,0,1,0,2443.81,0.18188,0.181562,-9.1048,2,0.0186192,10,-0.00165308,-2.04073,-0.147464,-0.400096,142.229,0.181562,
2,0,0,1,0,2443.82,0.179882,0.179589,-9.39235,2,0.0185266,10,-0.00168676,-2.02723,-0.152134,-0.387815,142.02,0.179589,
2,0,0,1,0,2443.83,0.177885,0.177599,-9.66762,2,0.0184313,10,-0.00171696,-2.01468,-0.146357,-0.403125,152.526,0.1775987,
2,0,0,1,0,2443.84,0.175887,0.17558,-10.0037,2,0.0183329,10,-0.00175646,-1.99984,-0.134899,-0.437364,170.796,0.17558,
2,0,0,1,0,2443.85,0.173908,0.173588,-10.3526,2,0.0182321,10,-0.00179709,-1.98495,-0.127018,-0.464503,188.033,0.1735879,
2,0,0,1,0,2443.86,0.171901,0.171611,-10.7501,2,0.0181265,10,-0.00184484,-1.96859,-0.127042,-0.464415,194.621,0.171611,
2,0,0,1,0,2443.87,0.169903,0.16958,-11.1326,2,0.0180171,10,-0.00188787,-1.9534,-0.120497,-0.489639,213.433,0.16958,
2,0,0,1,0,2443.88,0.167906,0.167634,-11.599,2,0.0179034,10,-0.00194438,-1.93558,-0.111503,-0.529133,239.533,0.167634,
2,0,0,1,0,2443.89,0.165908,0.165628,-12.0792,2,0.0177849,10,-0.00200066,-1.91796,-0.110921,-0.53191,251.173,0.165628,
2,0,0,1,0,2443.9,0.163901,0.163591,-12.6145,2,0.0176614,10,-0.00206361,-1.89913,-0.106037,-0.556409,274.094,0.163591,
2,0,0,1,0,2443.91,0.161904,0.161606,-13.1817,2,0.0175323,10,-0.00213024,-1.88003,-0.103192,-0.571751,294.412,0.161606,
2,0,0,1,0,2443.92,0.159906,0.159593,-13.7915,2,0.0173974,10,-0.00220102,-1.86039,-0.102087,-0.577941,311.176,0.159593,
2,0,0,1,0,2443.93,0.157909,0.157596,-14.4295,2,0.0172562,10,-0.00227404,-1.84075,-0.0973847,-0.605845,341.989,0.1575962,
2,0,0,1,0,2443.94,0.155902,0.155597,-15.1579,2,0.0171082,10,-0.00235852,-1.81936,-0.0948674,-0.62192,367.665,0.155597,
2,0,0,1,0,2443.95,0.153904,0.153624,-15.8898,2,0.0169529,10,-0.00244107,-1.79888,-0.097904,-0.602631,373.642,0.1536243,
2,0,0,1,0,2443.96,0.151907,0.151633,-16.639,2,0.0167901,10,-0.00252303,-1.77887,-0.0979496,-0.602351,391.628,0.151633,
2,0,0,1,0,2443.97,0.149909,0.149632,-17.4535,2,0.0166195,10,-0.00261159,-1.75812,-0.0967498,-0.60982,415.288,0.149632,
2,0,0,1,0,2443.98,0.147921,0.147667,-18.286,2,0.0164425,10,-0.00270024,-1.73788,-0.100849,-0.585035,416.972,0.147667,
2,0,0,1,0,2443.99,0.145923,0.145692,-19.0963,2,0.0162556,10,-0.00278217,-1.71905,-0.1013,-0.582426,435.092,0.145692,
2,0,0,1,0,2444,0.143926,0.143674,-20.0234,2,0.0160599,10,-0.00287684,-1.69846,-0.103271,-0.571315,445.621,0.143674,
2,0,0,1,0,2444.01,0.141928,0.141637,-20.903,2,0.0158551,10,-0.00296065,-1.67979,-0.107219,-0.550276,448.998,0.1416374,
2,0,0,1,0,2444.02,0.139939,0.139679,-21.8171,2,0.0156436,10,-0.00304739,-1.6612,-0.111932,-0.527106,447.972,0.139679,
2,0,0,1,0,2444.03,0.137942,0.137684,-22.6741,2,0.015421,10,-0.00312186,-1.64447,-0.119629,-0.49319,436.282,0.137684,
2,0,0,1,0,2444.04,0.135944,0.135734,-23.5382,2,0.0151898,10,-0.00319494,-1.62823,-0.127968,-0.461051,423.057,0.135734,
2,0,0,1,0,2444.05,0.133947,0.133675,-24.3699,2,0.0149501,10,-0.00325765,-1.61315,-0.13722,-0.429967,408.705,0.133675,
2,0,0,1,0,2444.06,0.13194,0.131685,-25.1931,2,0.0147023,10,-0.00331756,-1.59872,-0.144552,-0.408157,400.806,0.131685,
2,0,0,1,0,2444.07,0.129942,0.129681,-25.9709,2,0.0144463,10,-0.00336793,-1.58551,-0.155963,-0.378295,383.233,0.129681,
2,0,0,1,0,2444.08,0.127945,0.127654,-26.7379,2,0.0141826,10,-0.0034132,-1.57287,-0.170194,-0.346663,361.102,0.127654,
2,0,0,1,0,2444.09,0.125947,0.125658,-27.4236,2,0.0139116,10,-0.00344599,-1.56188,-0.186278,-0.316732,338.781,0.125658,
2,0,0,1,0,2444.1,0.123941,0.12367,-28.0876,2,0.013634,10,-0.0034736,-1.55149,-0.213332,-0.276564,302.559,0.12367,
2,0,0,1,0,2444.11,0.121943,0.121608,-28.649,2,0.0133501,10,-0.00348394,-1.54289,-0.252271,-0.233876,261.127,0.121608,
2,0,0,1,0,2444.12,0.119945,0.119651,-29.137,2,0.0130611,10,-0.00348628,-1.53556,-0.296669,-0.198875,225.825,0.119651,
2,0,0,1,0,2444.13,0.117948,0.117631,-29.5471,2,0.0127675,10,-0.00347565,-1.52949,-0.356099,-0.165684,190.841,0.117631,
2,0,0,1,0,2444.14,0.115946,0.115685,-29.894,2,0.0124701,10,-0.00345828,-1.52442,-0.47518,-0.124163,144.561,0.115685,
2,0,0,1,0,2444.15,0.113962,0.113665,-30.1204,2,0.0121728,10,-0.00342364,-1.52114,-0.770604,-0.0765633,89.8575,0.113665,
2,0,0,1,0,2444.16,0.111964,0.111704,-30.2517,2,0.0118708,10,-0.00337923,-1.51925,-2.01167,-0.0293289,34.5556,0.111704,
2,0,0,1,0,2444.17,0.109967,0.109649,-30.2592,2,0.0115681,10,-0.00331788,-1.51914,3.31506,0.0177976,-20.983,0.109649,
2,0,0,1,0,2444.18,0.107969,0.107678,-30.1673,2,0.0112659,10,-0.00324835,-1.52046,0.852456,0.0692118,-81.2971,0.107678,
2,0,0,1,0,2444.19,0.10598,0.105679,-29.9365,2,0.0109683,10,-0.00316365,-1.5238,0.481486,0.122537,-142.893,0.105679,
2,0,0,1,0,2444.2,0.103983,0.103668,-29.5942,2,0.0106706,10,-0.00306796,-1.52879,0.330961,0.178269,-205.381,0.103668,
2,0,0,1,0,2444.21,0.101985,0.101645,-29.1081,2,0.0103771,10,-0.00295869,-1.53599,0.243217,0.242582,-275.025,0.1016452,
2,0,0,1,0,2444.22,0.0999877,0.0997365,-28.5131,2,0.010089,10,-0.00284379,-1.54496,0.19924,0.296125,-328.823,0.0997365,
2,0,0,1,0,2444.23,0.0979811,0.0976889,-27.8071,2,0.00980736,10,-0.00271645,-1.55584,0.174156,0.338776,-367.064,0.0976889,
2,0,0,1,0,2444.24,0.0959835,0.0956856,-27.0261,2,0.00953318,10,-0.00258601,-1.56822,0.147786,0.399226,-420.095,0.0956856,
2,0,0,1,0,2444.25,0.0939859,0.0937101,-26.1357,2,0.00926739,10,-0.00244917,-1.58277,0.13397,0.440397,-449.007,0.0937101,
2,0,0,1,0,2444.26,0.0919883,0.0917137,-25.2427,2,0.00901055,10,-0.00231511,-1.59786,0.130138,0.453366,-446.311,0.0917137,
2,0,0,1,0,2444.27,0.0899816,0.0896757,-24.3351,2,0.00876263,10,-0.00218227,-1.61377,0.125592,0.469773,-445.947,0.0896757,
2,0,0,1,0,2444.28,0.087984,0.0876429,-23.4274,2,0.00852392,10,-0.00205324,-1.63028,0.119527,0.493612,-451.218,0.0876429,
2,0,0,1,0,2444.29,0.0859865,0.085683,-22.5335,2,0.00829427,10,-0.00193074,-1.64717,0.120247,0.490656,-432.051,0.085683,
2,0,0,1,0,2444.3,0.0839889,0.083691,-21.7199,2,0.00807321,10,-0.00181776,-1.66314,0.126407,0.466745,-395.792,0.083691,
2,0,0,1,0,2444.31,0.0820004,0.0816627,-20.9423,2,0.00786217,10,-0.0017102,-1.67898,0.130326,0.452712,-370.593,0.0816627,
2,0,0,1,0,2444.32,0.0800028,0.0797197,-20.2482,2,0.00765639,10,-0.00161418,-1.69361,0.137066,0.43045,-340.388,0.07971973,
2,0,0,1,0,2444.33,0.0780052,0.0777108,-19.5971,2,0.00745725,10,-0.00152291,-1.70781,0.149504,0.394637,-302.419,0.0777108,
2,0,0,1,0,2444.34,0.0760076,0.0757106,-19.0358,2,0.00726425,10,-0.00144121,-1.72043,0.16109,0.366254,-272.259,0.0757106,
2,0,0,1,0,2444.35,0.0740191,0.0737109,-18.5081,2,0.00707861,10,-0.00136425,-1.73264,0.171413,0.344198,-249.009,0.0737109,
2,0,0,1,0,2444.36,0.0720215,0.0717406,-18.0472,2,0.00689598,10,-0.00129472,-1.74359,0.181917,0.324324,-228.44,0.0717406,
2,0,0,1,0,2444.37,0.0700239,0.0697165,-17.5956,2,0.00671783,10,-0.0012267,-1.7546,0.188983,0.312198,-214.597,0.0697165,
2,0,0,1,0,2444.38,0.0680263,0.0677253,-17.1855,2,0.00654406,10,-0.0011639,-1.76484,0.205135,0.287616,-193.164,0.0677253,
2,0,0,1,0,2444.39,0.0660197,0.0657402,-16.8275,2,0.00637411,10,-0.00110625,-1.77398,0.217407,0.27138,-178.208,0.0657402,
2,0,0,1,0,2444.4,0.0640221,0.0637204,-16.4718,2,0.00620766,10,-0.00104959,-1.78326,0.208429,0.28307,-181.831,0.0637204,
2,0,0,1,0,2444.41,0.0620245,0.0617189,-16.0963,2,0.0060448,10,-0.000993447,-1.79327,0.211821,0.278536,-175.203,0.0617189,
2,0,0,1,0,2444.42,0.0600269,0.0597043,-15.7682,2,0.00588554,10,-0.000941429,-1.80222,0.21831,0.270258,-166.23,0.0597043,
2,0,0,1,0,2444.43,0.0580248,0.0577053,-15.4292,2,0.00572954,10,-0.000890345,-1.81166,0.214559,0.274982,-165.653,0.0577053,
2,0,0,1,0,2444.44,0.0560227,0.0557202,-15.1082,2,0.00557686,10,-0.000841834,-1.82079,0.210928,0.279716,-164.822,0.0557202,
2,0,0,1,0,2444.45,0.0540251,0.0537222,-14.7726,2,0.00542751,10,-0.000793619,-1.83054,0.212539,0.277596,-160.161,0.0537222,
2,0,0,1,0,2444.46,0.0520275,0.0516954,-14.4636,2,0.00528138,10,-0.000747703,-1.83972,0.206488,0.28573,-161.119,0.0516954,
2,0,0,1,0,2444.47,0.0500299,0.0497294,-14.1293,2,0.00513837,10,-0.000702644,-1.84988,0.213909,0.275819,-152.433,0.0497294,
2,0,0,1,0,2444.48,0.0480414,0.0477525,-13.8626,2,0.00499982,10,-0.000661972,-1.85816,0.227442,0.259407,-140.22,0.0477525,
2,0,0,1,0,2444.49,0.0460438,0.0457785,-13.5753,2,0.00486267,10,-0.000621459,-1.86725,0.224508,0.262797,-139.309,0.0457785,
2,0,0,1,0,2444.5,0.0440462,0.0437664,-13.3073,2,0.00472833,10,-0.000582411,-1.87591,0.235187,0.250864,-130.32,0.0437664,
2,0,0,1,0,2444.51,0.0420486,0.0417479,-13.0501,2,0.00459659,10,-0.000544813,-1.88439,0.275898,0.213847,-109.209,0.0417479,
2,0,0,1,0,2444.52,0.0400601,0.0397285,-12.8663,2,0.00446834,10,-0.00051116,-1.89055,0.299344,0.197098,-98.8604,0.0397285,
2,0,0,1,0,2444.53,0.0380625,0.0377652,-12.6563,2,0.00434077,10,-0.000477969,-1.89769,0.298639,0.197563,-97.699,0.0377652,
2,0,0,1,0,2444.54,0.036065,0.0357566,-12.4783,2,0.00421519,10,-0.00044618,-1.90385,0.34805,0.169516,-82.6351,0.03575664,
2,0,0,1,0,2444.55,0.0340674,0.0337759,-12.3267,2,0.00409114,10,-0.000416345,-1.90915,0.466905,0.126364,-60.9354,0.0337759,
2,0,0,1,0,2444.56,0.0320607,0.0317613,-12.2348,2,0.00396836,10,-0.000388593,-1.9124,0.498329,0.118396,-56.4289,0.0317613,
2,0,0,1,0,2444.57,0.0300631,0.0297389,-12.0989,2,0.00384672,10,-0.000359808,-1.91725,0.540154,0.109228,-51.7134,0.0297389,
2,0,0,1,0,2444.58,0.0280655,0.0277677,-12.0283,2,0.00372608,10,-0.000333998,-1.9198,0.79516,0.0741989,-34.8339,0.0277677,
2,0,0,1,0,2444.59,0.0260679,0.0257514,-11.96,2,0.00360608,10,-0.000307987,-1.92227,0.98689,0.0597838,-27.9332,0.0257514,
2,0,0,1,0,2444.6,0.0240613,0.0237577,-11.9163,2,0.00348669,10,-0.000283102,-1.92386,1.23854,0.0476366,-22.1536,0.0237577,
2,0,0,1,0,2444.61,0.0220637,0.021809,-11.8726,2,0.00336768,10,-0.000258931,-1.92545,1.95459,0.0301853,-14.0048,0.021809,
2,0,0,1,0,2444.62,0.0200661,0.019758,-11.8602,2,0.00324903,10,-0.000234335,-1.92591,2.30246,0.0256248,-11.8491,0.019758,
2,0,0,1,0,2444.63,0.0180685,0.0177295,-11.8243,2,0.0031305,10,-0.00020964,-1.92722,19.912,0.00296303,-1.37118,0.0177295,
2,0,0,1,0,2444.64,0.01608,0.0157772,-11.8548,2,0.00301335,10,-0.000187036,-1.92611,-3.15219,-0.0187172,8.64981,0.0157772,
2,0,0,1,0,2444.65,0.0140824,0.0137786,-11.8585,2,0.00289475,10,-0.000163393,-1.92597,-5.32024,-0.0110897,5.13517,0.0137786,
2,0,0,1,0,2444.66,0.0120848,0.0117673,-11.8754,2,0.00277613,10,-0.000139741,-1.92535,-10.1812,-0.00579499,2.68313,0.0117673,
2,0,0,1,0,2444.67,0.0100873,0.00979334,-11.8692,2,0.00265745,10,-0.000116239,-1.92558,-3.00732,-0.0196188,9.1064,0.00979334,
2,0,0,1,0,2444.68,0.00810328,0.00777811,-11.9117,2,0.00253977,10,-9.26506e-05,-1.92403,-1.67629,-0.0351968,16.3487,0.00777811,
2,0,0,1,0,2444.69,0.00610116,0.00578349,-11.9347,2,0.00242039,10,-6.90244e-05,-1.92319,-1.93088,-0.0305561,14.2382,0.00578349,
2,0,0,1,0,2444.7,0.00410357,0.00384092,-11.9678,2,0.0023009,10,-4.59672e-05,-1.92199,-0.794416,-0.0742684,34.7967,0.00384092,
2,0,0,1,0,2444.71,0.00210598,0.00172483,-12.076,2,0.00218089,10,-2.0829e-05,-1.91808,-0.755484,-0.0780956,36.7045,0.00172483,
2,0,0,1,0,2444.72,0.00010174,-0.00025765,-12.1182,2,0.00205987,10,3.12226e-06,-1.91656,-1.66165,-0.035507,16.7805,-0.00025765,
2,0,0,1,0,2444.73,-0.00189827,-0.00227744,-12.1431,2,0.00193848,10,2.76552e-05,-1.91567,-1.56479,-0.0377046,17.8845,-0.00227744,
2,0,0,1,0,2444.74,-0.00389586,-0.00426339,-12.1898,2,0.00181679,10,5.197e-05,-1.914,-1.22031,-0.0483484,22.9991,-0.00426339,
2,0,0,1,0,2444.75,-0.00589345,-0.00626409,-12.2348,2,0.00169459,10,7.66399e-05,-1.9124,-1.277,-0.0462021,22.0581,-0.00626409,
2,0,0,1,0,2444.76,-0.00789103,-0.00820579,-12.2768,2,0.001572,10,0.000100741,-1.91091,-0.921573,-0.064021,30.7216,-0.00820579,
2,0,0,1,0,2444.77,-0.0098977,-0.0102438,-12.3571,2,0.00144869,10,0.000126583,-1.90808,-0.740424,-0.0796841,38.4186,-0.0102438,
2,0,0,1,0,2444.78,-0.0118953,-0.0122306,-12.4314,2,0.00132476,10,0.000152044,-1.90548,-0.987351,-0.0597559,28.9528,-0.01223061,
2,0,0,1,0,2444.79,-0.0138929,-0.0142504,-12.4731,2,0.00120015,10,0.000177746,-1.90403,-1.01872,-0.0579156,28.2269,-0.0142504,
2,0,0,1,0,2444.8,-0.0158905,-0.0162676,-12.5454,2,0.00107504,10,0.000204083,-1.90152,-0.760144,-0.0776169,38.0123,-0.0162676,
2,0,0,1,0,2444.81,-0.017879,-0.0182459,-12.625,2,0.000950355,10,0.000230354,-1.89877,-0.75352,-0.0782991,38.571,-0.0182459,
2,0,0,1,0,2444.82,-0.0198766,-0.0202668,-12.6996,2,0.000823698,10,0.000257381,-1.89621,-0.895704,-0.0658699,32.6232,-0.0202668,
2,0,0,1,0,2444.83,-0.0218741,-0.0222646,-12.7561,2,0.000696454,10,0.000284009,-1.89428,-0.801259,-0.0736341,36.7028,-0.0222646,
2,0,0,1,0,2444.84,-0.0238717,-0.0242139,-12.8445,2,0.00056845,10,0.000311016,-1.89128,-0.67004,-0.0880545,44.1331,-0.0242139,
2,0,0,1,0,2444.85,-0.0258602,-0.0261904,-12.9293,2,0.000440822,10,0.000338624,-1.88842,-0.771716,-0.0764529,38.5531,-0.0261904,
2,0,0,1,0,2444.86,-0.0278578,-0.028198,-12.9981,2,0.0003112,10,0.000366521,-1.88612,-0.861621,-0.0684756,34.738,-0.028198,
2,0,0,1,0,2444.87,-0.0298554,-0.0302031,-13.0687,2,0.00018081,10,0.000394715,-1.88377,-0.759041,-0.0777297,39.6693,-0.0302031,
2,0,0,1,0,2444.88,-0.031853,-0.0321769,-13.1559,2,4.96859e-05,10,0.000423317,-1.88088,-0.733919,-0.0803903,41.2588,-0.0321769,
2,0,0,1,0,2444.89,-0.0338597,-0.0341862,-13.233,2,-8.22944e-05,10,0.000452388,-1.87834,-0.752813,-0.0783727,40.4882,-0.03418624,
2,0,0,1,0,2444.9,-0.0358573,-0.0362052,-13.319,2,-0.000215081,10,0.000482218,-1.87553,-0.709187,-0.0831939,43.247,-0.0362052,
2,0,0,1,0,2444.91,-0.0378548,-0.0382119,-13.4071,2,-0.000348815,10,0.000512313,-1.87266,-0.766164,-0.077007,40.2716,-0.0382119,
2,0,0,1,0,2444.92,-0.0398524,-0.0402343,-13.4813,2,-0.000483296,10,0.000542411,-1.87027,-0.727628,-0.0810854,42.6968,-0.04023432,
2,0,0,1,0,2444.93,-0.0418591,-0.0422133,-13.578,2,-0.000618615,10,0.000573172,-1.86716,-0.655661,-0.0899855,47.673,-0.0422133,
2,0,0,1,0,2444.94,-0.0438567,-0.0441698,-13.6689,2,-0.00075484,10,0.000603753,-1.86427,-0.782805,-0.07537,40.174,-0.04416978,
2,0,0,1,0,2444.95,-0.0458543,-0.0461965,-13.738,2,-0.000891953,10,0.000634648,-1.86208,-0.816654,-0.072246,38.7573,-0.0461965,
2,0,0,1,0,2444.96,-0.0478519,-0.0481538,-13.8233,2,-0.00102974,10,0.000665646,-1.85939,-0.636262,-0.0927291,50.0803,-0.0481538,
2,0,0,1,0,2444.97,-0.0498585,-0.050217,-13.9394,2,-0.00116854,10,0.000699993,-1.85576,-0.632,-0.0933545,50.7361,-0.050217,
2,0,0,1,0,2444.98,-0.051838,-0.0522007,-14.0287,2,-0.00130698,10,0.000732305,-1.85298,-0.805975,-0.0732033,40.0494,-0.0522007,
2,0,0,1,0,2444.99,-0.0538355,-0.0541762,-14.0979,2,-0.0014476,10,0.000763773,-1.85084,-0.73823,-0.0799209,44.0316,-0.0541762,
2,0,0,1,0,2445,-0.0558331,-0.0562194,-14.2056,2,-0.00158912,10,0.00079863,-1.84754,-0.661663,-0.0891692,49.4025,-0.0562194,
2,0,0,1,0,2445.01,-0.0578126,-0.0581608,-14.2948,2,-0.00173026,10,0.000831395,-1.84482,-0.635908,-0.0927807,51.805,-0.0581608,
2,0,0,1,0,2445.02,-0.0598192,-0.0601459,-14.409,2,-0.00187382,10,0.000866643,-1.84137,-0.62756,-0.0940149,52.837,-0.0601459,
2,0,0,1,0,2445.03,-0.0618168,-0.0621726,-14.5067,2,-0.00201845,10,0.000901922,-1.83843,-0.614233,-0.0960547,54.4283,-0.0621726,
2,0,0,1,0,2445.04,-0.0638144,-0.0642045,-14.6299,2,-0.00216415,10,0.000939307,-1.83476,-0.625032,-0.0943952,53.8332,-0.0642045,
2,0,0,1,0,2445.05,-0.065812,-0.0661263,-14.7196,2,-0.00231089,10,0.000973351,-1.8321,-0.600584,-0.0982377,56.5188,-0.06612628,
2,0,0,1,0,2445.06,-0.0678187,-0.0681747,-14.8543,2,-0.00245882,10,0.00101269,-1.82815,-0.539467,-0.109367,63.3664,-0.0681747,
2,0,0,1,0,2445.07,-0.0698163,-0.0701259,-14.973,2,-0.00260803,10,0.00105,-1.82469,-0.602448,-0.0979337,57.2101,-0.0701259,
2,0,0,1,0,2445.08,-0.0718138,-0.0721752,-15.0832,2,-0.00275834,10,0.00108863,-1.82151,-0.578996,-0.1019,60.0232,-0.0721752,
2,0,0,1,0,2445.09,-0.0738114,-0.0741386,-15.2139,2,-0.00290989,10,0.00112794,-1.81776,-0.471218,-0.125208,74.4318,-0.0741386,
2,0,0,1,0,2445.1,-0.0758181,-0.076194,-15.3823,2,-0.00306295,10,0.00117204,-1.81298,-0.493866,-0.119466,71.6079,-0.076194,
2,0,0,1,0,2445.11,-0.0778157,-0.0781955,-15.5044,2,-0.00321747,10,0.00121237,-1.80955,-0.512227,-0.115183,69.7582,-0.0781955,
2,0,0,1,0,2445.12,-0.0798133,-0.0801025,-15.655,2,-0.00337332,10,0.001254,-1.80535,-0.448542,-0.131537,80.4,-0.0801025,
2,0,0,1,0,2445.13,-0.0818109,-0.0821258,-15.8204,2,-0.00353079,10,0.00129926,-1.80078,-0.418429,-0.141004,87.1116,-0.0821258,
2,0,0,1,0,2445.14,-0.0837994,-0.0841378,-16.0065,2,-0.00368831,10,0.00134675,-1.7957,-0.452252,-0.130458,81.3782,-0.0841378,
2,0,0,1,0,2445.15,-0.0857969,-0.0861491,-16.1478,2,-0.00384912,10,0.00139112,-1.79189,-0.425178,-0.138766,87.6209,-0.0861491,
2,0,0,1,0,2445.16,-0.0877945,-0.0880992,-16.3536,2,-0.00401163,10,0.00144074,-1.78639,-0.390507,-0.151086,96.335,-0.0880992,
2,0,0,1,0,2445.17,-0.0897921,-0.0901121,-16.5296,2,-0.00417612,10,0.00148951,-1.78174,-0.409801,-0.143972,92.9405,-0.09011212,
2,0,0,1,0,2445.18,-0.0917806,-0.0921484,-16.7299,2,-0.00434063,10,0.00154163,-1.77651,-0.401124,-0.147087,95.9819,-0.0921484,
2,0,0,1,0,2445.19,-0.0937782,-0.0941083,-16.9131,2,-0.00450885,10,0.00159167,-1.77178,-0.40075,-0.147224,97.2427,-0.0941083,
2,0,0,1,0,2445.2,-0.0957758,-0.0961654,-17.1205,2,-0.00467903,10,0.0016464,-1.76648,-0.409482,-0.144085,96.1801,-0.0961654,
2,0,0,1,0,2445.21,-0.0977734,-0.0980975,-17.2968,2,-0.00485119,10,0.00169678,-1.76203,-0.386679,-0.152581,103.144,-0.09809754,
2,0,0,1,0,2445.22,-0.0997412,-0.100071,-17.5234,2,-0.00502176,10,0.00175359,-1.75638,0.0820113,0.719413,-472.336,-0.100071,
2,0,0,1,1,2445.22,-0.0996711,-0.100084,-16.3584,2,-0.00507287,10,0.00163722,-1.78626,-0.00812387,-7.26255,3788.92,-0.100084,
2,0,0,1,1,2445.23,-0.0976826,-0.0980667,-9.9278,2,-0.00520027,10,0.000973587,-2.00315,-0.00808265,-7.29958,2773.26,-0.0980667,
2,0,0,1,1,2445.24,-0.095685,-0.0960602,-5.19832,2,-0.00527427,10,0.000499351,-2.28414,-0.00504377,-11.6976,2081.85,-0.0960602,
2,0,0,1,1,2445.25,-0.0936874,-0.0940656,-1.59794,2,-0.00530705,10,0.000150311,-2.79644,-0.00613911,-9.61052,1593.71,-0.0940656,
2,1,0,1,1,2445.26,-0.0916898,-0.0920686,1.16322,2,-0.0053083,10,-0.000107096,-2.93434,0.0124581,4.73589,1239.93,-0.0920686,
2,1,0,1,1,2445.27,-0.0897013,-0.0900895,3.33206,2,-0.00528527,10,-0.000300183,-2.47729,0.00622903,9.47177,977.641,-0.0900895,
2,1,0,1,1,2445.28,-0.0877037,-0.088101,5.04207,2,-0.00524285,10,-0.000444211,-2.29739,0.0141128,4.18061,765.567,-0.088101,
2,1,0,1,1,2445.29,-0.0857062,-0.0861081,6.38011,2,-0.00518527,10,-0.000549379,-2.19517,0.0233193,2.53009,609.916,-0.0861081,
2,1,0,1,1,2445.3,-0.0837086,-0.0841196,7.47041,2,-0.00511565,10,-0.000628408,-2.12666,0.0341243,1.72897,494.743,-0.0841196,
2,1,0,1,1,2445.31,-0.0817019,-0.0820772,8.37437,2,-0.00503614,10,-0.000687345,-2.07705,0.0478868,1.23207,396.533,-0.0820772,
2,1,0,1,1,2445.32,-0.0797043,-0.080073,9.07499,2,-0.00494867,10,-0.000726662,-2.04215,0.0653843,0.902357,316.55,-0.080073,
2,1,0,1,1,2445.33,-0.0777067,-0.0781027,9.6325,2,-0.00485495,10,-0.000752324,-2.01626,0.0892898,0.66077,246.524,-0.0781027,
2,1,0,1,1,2445.34,-0.0757091,-0.0760716,10.0614,2,-0.00475632,10,-0.00076539,-1.99734,0.113974,0.517661,202.785,-0.0760716,
2,1,0,1,1,2445.35,-0.0737025,-0.0740527,10.4538,2,-0.00465361,10,-0.000774131,-1.98073,0.147736,0.39936,161.883,-0.0740527,
2,1,0,1,1,2445.36,-0.0717049,-0.0720121,10.7186,2,-0.00454766,10,-0.000771869,-1.96986,0.206147,0.286204,119.417,-0.0720121,
2,1,0,1,1,2445.37,-0.0697073,-0.0700461,10.9322,2,-0.00443935,10,-0.00076576,-1.96129,0.258522,0.22822,97.1777,-0.0700461,
2,1,0,1,1,2445.38,-0.0677097,-0.0680367,11.1049,2,-0.00432908,10,-0.000755542,-1.95448,0.29099,0.202756,87.8796,-0.06803675,
2,1,0,1,1,2445.39,-0.0657212,-0.0660748,11.2812,2,-0.00421826,10,-0.000745405,-1.94764,0.392731,0.15023,65.866,-0.0660748,
2,1,0,1,1,2445.4,-0.0637236,-0.0640969,11.3644,2,-0.00410501,10,-0.000728424,-1.94445,0.549506,0.107369,47.6705,-0.0640969,
2,1,0,1,1,2445.41,-0.061726,-0.0620696,11.4722,2,-0.00399082,10,-0.000712073,-1.94035,0.619028,0.0953107,42.5906,-0.0620696,
2,1,0,1,1,2445.42,-0.0597284,-0.0600639,11.5362,2,-0.00387571,10,-0.000692908,-1.93794,0.798083,0.0739272,33.2887,-0.0600639,
2,1,0,1,1,2445.43,-0.0577399,-0.0581096,11.604,2,-0.00376119,10,-0.000674303,-1.93539,1.06098,0.0556089,25.1443,-0.0581096,
2,1,0,1,1,2445.44,-0.0557423,-0.0560994,11.6359,2,-0.00364493,10,-0.000652765,-1.9342,1.32276,0.0446037,20.2702,-0.0560994,
2,1,0,1,1,2445.45,-0.0537447,-0.0541004,11.6853,2,-0.00352835,10,-0.000632177,-1.93236,2.49505,0.0236468,10.7581,-0.0541004,
2,1,0,1,1,2445.46,-0.0517472,-0.052098,11.6789,2,-0.00341146,10,-0.000608448,-1.9326,3.79242,0.0155574,7.10343,-0.052098,
2,1,0,1,1,2445.47,-0.049745,-0.0500773,11.7138,2,-0.00329457,10,-0.000586597,-1.9313,2.10473,0.028032,12.8049,-0.0500773,
2,1,0,1,1,2445.48,-0.0477429,-0.0480757,11.7304,2,-0.00317729,10,-0.000563949,-1.93069,7.38254,0.00799183,3.65577,-0.0480757,
2,1,0,1,1,2445.49,-0.0457453,-0.0460915,11.7284,2,-0.00306001,10,-0.00054058,-1.93076,-7.40958,-0.00796267,-3.64308,-0.0460915,
2,1,0,1,1,2445.5,-0.0437477,-0.0441238,11.716,2,-0.00294281,10,-0.000516956,-1.93122,-14.7549,-0.00399867,-1.82971,-0.0441238,
2,1,0,1,1,2445.51,-0.0417501,-0.042078,11.7211,2,-0.00282567,10,-0.000493198,-1.93103,-28.7979,-0.00204876,-0.936627,-0.042078,
2,1,0,1,1,2445.52,-0.0397435,-0.0401259,11.7123,2,-0.00270846,10,-0.000469965,-1.93136,-4.4345,-0.0133048,-6.07974,-0.0401259,
2,1,0,1,1,2445.53,-0.0377459,-0.0380575,11.6966,2,-0.00259152,10,-0.000445144,-1.93194,-3.0931,-0.0190747,-8.70587,-0.0380575,
2,1,0,1,1,2445.54,-0.0357483,-0.0361011,11.6772,2,-0.00247469,10,-0.000421561,-1.93266,-3.28205,-0.0179766,-8.19468,-0.0361011,
2,1,0,1,1,2445.55,-0.0337507,-0.0341238,11.6644,2,-0.00235797,10,-0.000398033,-1.93314,-2.84898,-0.0207092,-9.42256,-0.0341238,
2,1,0,1,1,2445.56,-0.0317622,-0.0321224,11.6398,2,-0.00224256,10,-0.000373897,-1.93406,-2.68989,-0.021934,-9.96763,-0.0321224,
2,1,0,1,1,2445.57,-0.0297646,-0.0300809,11.6241,2,-0.00212625,10,-0.000349662,-1.93464,-2.12959,-0.0277049,-12.5578,-0.0300809,
2,1,0,1,1,2445.58,-0.027767,-0.0280823,11.589,2,-0.00201018,10,-0.000325446,-1.93595,-1.53404,-0.0384606,-17.3961,-0.0280823,
2,1,0,1,1,2445.59,-0.0257694,-0.026133,11.5554,2,-0.00189448,10,-0.000301977,-1.93722,-2.49195,-0.0236763,-10.689,-0.026133,
2,1,0,1,1,2445.6,-0.0237809,-0.0241567,11.5471,2,-0.00178013,10,-0.000278939,-1.93753,-2.53498,-0.0232743,-10.477,-0.0241567,
2,1,0,1,1,2445.61,-0.0217833,-0.0221413,11.5136,2,-0.00166478,10,-0.000254925,-1.93879,-1.39508,-0.0422914,-18.995,-0.0221413,
2,1,0,1,1,2445.62,-0.0197858,-0.0201189,11.4704,2,-0.00154977,10,-0.000230771,-1.94042,-1.47794,-0.0399205,-17.8819,-0.0201189,
2,1,0,1,1,2445.63,-0.0177882,-0.0181277,11.4418,2,-0.00143521,10,-0.000207414,-1.94151,-2.15946,-0.0273217,-12.2047,-0.0181277,
2,1,0,1,1,2445.64,-0.0157815,-0.0161452,11.4219,2,-0.00132087,10,-0.000184409,-1.94226,-2.06758,-0.0285358,-12.7142,-0.0161452,
2,1,0,1,1,2445.65,-0.0137839,-0.0141541,11.3913,2,-0.00120678,10,-0.000161233,-1.94343,-1.26144,-0.0467721,-20.7731,-0.0141541,
2,1,0,1,1,2445.66,-0.0117863,-0.0121412,11.3387,2,-0.00109315,10,-0.000137666,-1.94544,-1.45009,-0.0406871,-18.0306,-0.0121412,
2,1,0,1,1,2445.67,-0.00978874,-0.0101432,11.319,2,-0.000979877,10,-0.00011481,-1.94619,-2.23379,-0.0264126,-11.6637,-0.01014315,
2,1,0,1,1,2445.68,-0.00778207,-0.00811209,11.2917,2,-0.000866838,10,-9.15992e-05,-1.94724,-1.43628,-0.0410782,-18.0881,-0.008112086,
2,1,0,1,1,2445.69,-0.00578449,-0.00615216,11.2468,2,-0.000754208,10,-6.9192e-05,-1.94897,-1.10569,-0.0533604,-23.4186,-0.00615216,
2,1,0,1,1,2445.7,-0.0037869,-0.00416968,11.1994,2,-0.000641948,10,-4.66978e-05,-1.95081,-1.35235,-0.0436276,-19.0842,-0.00416968,
2,1,0,1,1,2445.71,-0.00178931,-0.00214903,11.1704,2,-0.000530103,10,-2.40055e-05,-1.95193,-1.02301,-0.0576729,-25.0982,-0.00214903,
2,1,0,1,1,2445.72,-2.55332e-05,-0.000306236,11.1024,2,-0.000433137,10,-3.39996e-06,-1.95458, , , ,-0.000306236,