File: Figure_codes/Fig_3-5/rawdata_trumpetplot_data/before 10th/20221101_1-115_002_TrumpetPlot_ParaChange_04_CV_C01.mpt
EC-Lab ASCII FILE
Nb header lines : 68

Cyclic Voltammetry

Run on channel : 1 (SN 65296)
User :
CE vs. WE compliance from -10 V to 10 V
Electrode connection : standard
Potential control : Ewe
Ewe ctrl range : min = -1.00 V, max = 1.00 V
Safety Limits :
	Do not start on E overload
Acquisition started on : 11/08/2022 17:30:03.488
Loaded Setting File :  NONE
Saved on :
	File : 20221101_1-115_002_TrumpetPlot_ParaChange_04_CV_C01.mpr
	Directory : C:\Users\NakamuraT\Documents\EC-Lab\Data\Yatsuzuka\20221108_1-115_001_TrumpetPlot\
	Host : 192.109.209.100
Device : SP-50e (SN .003219)
Address : 192.109.209.128
EC-Lab for windows v11.43 (software)
Internet server v11.40 (firmware)
Command interpretor v11.40 (firmware)
Electrode material : Au/Pd
Initial state :
Electrolyte : NaCl (0.2M)
Comments : Fe(CN)63-/Fe(CN)64- 5.10-3 M
Reference electrode : SCE Saturated Calomel Electrode (0.241 V)
Electrode surface area : 0.001 cm2
Characteristic mass : 0.001 g
Equivalent Weight : 0.000 g/eq.
Density : 0.000 g/cm3
Volume (V) : 0.001 cm3
Cycle Definition : Charge/Discharge alternance
Ei (V)              0.000
vs.                 Ref
dE/dt               1.000
dE/dt unit          mV/s
E1 (V)              0.300
vs.                 Ref
Step percent        50
N                   10
E range min (V)     -1.000
E range max (V)     1.000
I Range             10 mA
I Range min         Unset
I Range max         Unset
I Range init        Unset
Bandwidth           5
E2 (V)              0.000
vs.                 Ref
nc cycles           0
Reverse Scan        0
Ef (V)              0.000
vs.                 Eoc

Number of loops : 8
Loop 0 from point number 0 to 1204
Loop 1 from point number 1205 to 2409
Loop 2 from point number 2410 to 3614
Loop 3 from point number 3615 to 4819
Loop 4 from point number 4820 to 6024
Loop 5 from point number 6025 to 7229
Loop 6 from point number 7230 to 8434
Loop 7 from point number 8435 to 9639

mode	ox/red	error	control changes	counter inc.	time/s	control/V	Ewe/V	<I>/mA	cycle number	(Q-Qo)/C	I Range	P/W
2	0	0	0	0	358.801	2.44065e-05	-0.000382585	-0.375388	1	0.0000000E+000	11	1.43618e-07
2	0	0	1	0	366.068	0.00729061	0.00703704	-0.0966712	1	-0.000841827	11	-6.80279e-07
2	0	0	1	0	373.558	0.0147815	0.014515	-0.0648368	1	-0.0012665	11	-9.41107e-07
2	0	0	1	0	381.049	0.0222725	0.0220078	-0.0462169	1	-0.00151426	11	-1.01713e-06
2	0	0	1	0	388.54	0.0297635	0.0294668	-0.0347546	1	-0.00165461	11	-1.02411e-06
2	0	0	1	0	396.031	0.0372544	0.0369564	-0.0255672	1	-0.0017175	11	-9.44872e-07
2	0	0	1	0	403.522	0.0447454	0.044427	-0.0169417	1	-0.00171671	11	-7.52667e-07
2	0	0	1	0	411.013	0.0522363	0.0519368	-0.010378	1	-0.00165815	11	-5.38999e-07
2	0	0	1	0	418.504	0.0597273	0.0594159	-0.00210806	1	-0.00154269	11	-1.25252e-07
2	0	0	1	0	425.995	0.0672183	0.0669194	0.00635003	1	-0.00136709	11	4.2494e-07
2	1	0	1	0	433.486	0.0747092	0.0744588	0.0148208	1	-0.0011244	11	1.10354e-06
2	1	0	1	0	440.977	0.0822001	0.0819113	0.0250434	1	-0.000809872	11	2.05134e-06
2	1	0	1	0	448.468	0.0896911	0.0894095	0.0347226	1	-0.000420369	11	3.10453e-06
2	1	0	1	0	455.959	0.0971821	0.0969013	0.0450414	1	4.70898e-05	11	4.36457e-06
2	1	0	1	0	463.45	0.104673	0.104404	0.058951	1	0.000599185	11	6.15469e-06
2	1	0	1	0	470.941	0.112164	0.111858	0.0741045	1	0.00125813	11	8.28919e-06
2	1	0	1	0	478.432	0.119655	0.119337	0.099264	1	0.00207227	11	1.18459e-05
2	1	0	1	0	485.923	0.127146	0.126842	0.130436	1	0.00310582	11	1.65447e-05
2	1	0	1	0	493.414	0.134637	0.134348	0.162272	1	0.00438845	11	2.1801e-05
2	1	0	1	0	500.905	0.142128	0.141857	0.17664	1	0.00584157	11	2.50576e-05
2	1	0	1	0	508.396	0.149619	0.149349	0.163751	1	0.0073022	11	2.4456e-05
2	1	0	1	0	515.887	0.15711	0.156814	0.130381	1	0.00858571	11	2.04456e-05
2	1	0	1	0	523.378	0.164601	0.164296	0.0960206	1	0.00959687	11	1.57758e-05
2	1	0	1	0	530.868	0.172091	0.171786	0.0730695	1	0.0103905	11	1.25523e-05
2	1	0	1	0	538.359	0.179582	0.179347	0.0599803	1	0.0110558	11	1.07573e-05
2	1	0	1	0	545.85	0.187073	0.186834	0.0539081	1	0.0116462	11	1.00719e-05
2	1	0	1	0	553.341	0.194564	0.194282	0.0488277	1	0.012192	11	9.48632e-06
2	1	0	1	0	560.832	0.202055	0.201774	0.04656	1	0.0127095	11	9.39461e-06
2	1	0	1	0	568.323	0.209546	0.209312	0.0446279	1	0.0132112	11	9.34115e-06
2	1	0	1	0	575.814	0.217037	0.216765	0.0442979	1	0.0137021	11	9.60226e-06
2	1	0	1	0	583.305	0.224528	0.2242	0.0440671	1	0.0141889	11	9.87985e-06
2	1	0	1	0	590.796	0.232019	0.231691	0.0439417	1	0.0146737	11	1.01809e-05
2	1	0	1	0	598.287	0.23951	0.239218	0.0448105	1	0.0151597	11	1.07195e-05
2	1	0	1	0	605.778	0.247001	0.246734	0.0451037	1	0.0156472	11	1.11286e-05
2	1	0	1	0	613.269	0.254492	0.254216	0.0461295	1	0.0161383	11	1.17268e-05
2	1	0	1	0	620.76	0.261983	0.261748	0.0463036	1	0.0166322	11	1.21199e-05
2	1	0	1	0	628.251	0.269474	0.269233	0.0467935	1	0.0171307	11	1.25984e-05
2	1	0	1	0	635.742	0.276965	0.276692	0.0472877	1	0.0176332	11	1.30841e-05
2	1	0	1	0	643.233	0.284456	0.284204	0.0481618	1	0.0181402	11	1.36878e-05
2	1	0	1	0	650.724	0.291947	0.291645	0.0489926	1	0.0186512	11	1.42884e-05
2	1	0	1	0	658.215	0.299438	0.299176	0.049459	1	0.0191671	11	1.47969e-05
2	1	0	1	0	665.057	0.293745	0.293452	0.0130042	1	0.0192156	11	3.8161e-06
2	1	0	1	0	672.548	0.286254	0.285983	0.00527323	1	0.0191397	11	1.50806e-06
2	1	0	1	0	680.039	0.278763	0.278482	-0.000458476	1	0.0190113	11	-1.27677e-07
2	0	0	1	0	687.53	0.271272	0.271017	-0.00494234	1	0.0188431	11	-1.33946e-06
2	1	0	1	0	695.021	0.263781	0.263506	-0.00922229	1	0.0186414	11	-2.43013e-06
2	0	0	1	0	702.512	0.25629	0.255966	-0.0127198	1	0.0184091	11	-3.25585e-06
2	0	0	1	0	710.003	0.248799	0.248476	-0.0166652	1	0.018149	11	-4.1409e-06
2	0	0	1	0	717.494	0.241308	0.241023	-0.0199759	1	0.0178622	11	-4.81466e-06
2	0	0	1	0	724.985	0.233817	0.233537	-0.0228231	1	0.0175486	11	-5.33003e-06
2	0	0	1	0	732.476	0.226326	0.226067	-0.0265223	1	0.0172082	11	-5.99583e-06
2	0	0	1	0	739.967	0.218835	0.218538	-0.030301	1	0.0168397	11	-6.62192e-06
2	0	0	1	0	747.457	0.211344	0.211078	-0.0343168	1	0.0164411	11	-7.24354e-06
2	0	0	1	0	754.948	0.203853	0.20353	-0.0388281	1	0.0160081	11	-7.9027e-06
2	0	0	1	0	762.439	0.196362	0.196068	-0.0447303	1	0.0155368	11	-8.77019e-06
2	0	0	1	0	769.93	0.188871	0.188575	-0.0511897	1	0.0150174	11	-9.65313e-06
2	0	0	1	0	777.421	0.18138	0.181082	-0.0602267	1	0.0144366	11	-1.09059e-05
2	0	0	1	0	784.912	0.173889	0.173604	-0.0731452	1	0.0137729	11	-1.26983e-05
2	0	0	1	0	792.403	0.166398	0.166094	-0.0926756	1	0.0129874	11	-1.53928e-05
2	0	0	1	0	799.894	0.158907	0.158594	-0.121777	1	0.0120148	11	-1.93131e-05
2	0	0	1	0	807.385	0.151417	0.151127	-0.162688	1	0.0107726	11	-2.45865e-05
2	0	0	1	0	814.876	0.143926	0.143582	-0.195444	1	0.0092449	11	-2.80624e-05
2	0	0	1	0	822.367	0.136435	0.136111	-0.210082	1	0.00753621	11	-2.85944e-05
2	0	0	1	0	829.858	0.128944	0.128666	-0.200572	1	0.00581325	11	-2.58067e-05
2	0	0	1	0	837.349	0.121453	0.121128	-0.178307	1	0.00421922	11	-2.1598e-05
2	0	0	1	0	844.84	0.113962	0.113663	-0.154595	1	0.00280055	11	-1.75718e-05
2	0	0	1	0	852.331	0.106471	0.106146	-0.14119	1	0.00152127	11	-1.49867e-05
2	0	0	1	0	859.822	0.0989798	0.0987155	-0.131685	1	0.000332293	11	-1.29994e-05
2	0	0	1	0	867.313	0.0914889	0.0912121	-0.124232	1	-0.000793008	11	-1.13315e-05
2	0	0	1	0	874.804	0.083998	0.0836611	-0.117073	1	-0.00186322	11	-9.79443e-06
2	0	0	1	0	882.295	0.076507	0.0761989	-0.110068	1	-0.00288111	11	-8.38706e-06
2	0	0	1	0	889.786	0.069016	0.0687134	-0.104802	1	-0.00385095	11	-7.20133e-06
2	0	0	1	0	897.277	0.0615251	0.061245	-0.100802	1	-0.00478348	11	-6.17364e-06
2	0	0	1	0	904.767	0.0540342	0.0537364	-0.0974917	1	-0.00568873	11	-5.23886e-06
2	0	0	1	0	912.258	0.0465432	0.0462891	-0.0964481	1	-0.00657895	11	-4.4645e-06
2	0	0	1	0	919.749	0.0390522	0.0387369	-0.096303	1	-0.00746507	11	-3.73048e-06
2	0	0	1	0	927.24	0.0315613	0.0312748	-0.097392	1	-0.00835541	11	-3.04592e-06
2	0	0	1	0	934.731	0.0240703	0.0237745	-0.0995574	1	-0.00925728	11	-2.36693e-06
2	0	0	1	0	942.222	0.0165794	0.0162605	-0.102021	1	-0.0101781	11	-1.65891e-06
2	0	0	1	0	949.713	0.00908843	0.00876551	-0.105919	1	-0.0111249	11	-9.2843e-07
2	0	0	1	0	957.204	0.00159744	0.00124085	-0.111713	1	-0.0121073	11	-1.38619e-07
2	0	0	1	0	1595.2	0.00479371	0.00444974	-0.114431	2	-0.000618391	11	-5.09187e-07
2	0	0	1	0	1602.69	0.0122846	0.011986	-0.0719206	2	-0.00112419	11	-8.62041e-07
2	0	0	1	0	1610.18	0.0197755	0.0195159	-0.0509945	2	-0.00141245	11	-9.95204e-07
2	0	0	1	0	1617.67	0.0272665	0.0269505	-0.0377715	2	-0.00157907	11	-1.01796e-06
2	0	0	1	0	1625.16	0.0347575	0.0344465	-0.0284049	2	-0.00165973	11	-9.78451e-07
2	0	0	1	0	1632.65	0.0422484	0.041969	-0.0189792	2	-0.00167121	11	-7.96536e-07
2	0	0	1	0	1640.14	0.0497393	0.0494342	-0.0112321	2	-0.00162088	11	-5.55249e-07
2	0	0	1	0	1647.64	0.0572303	0.0569037	-0.00291179	2	-0.00150867	11	-1.65692e-07
2	0	0	1	0	1655.13	0.0647213	0.0644168	0.00576324	2	-0.00133021	11	3.71249e-07
2	0	0	1	0	1662.62	0.0722122	0.0719085	0.0158697	2	-0.0010782	11	1.14117e-06
2	1	0	1	0	1670.11	0.0797031	0.079379	0.026514	2	-0.00074852	11	2.10466e-06
2	1	0	1	0	1677.6	0.0871941	0.0868984	0.0369554	2	-0.000342039	11	3.21137e-06
2	1	0	1	0	1685.09	0.0946851	0.0943807	0.0467701	2	0.000140486	11	4.41419e-06
2	1	0	1	0	1692.58	0.102176	0.101851	0.0569709	2	0.000699707	11	5.80256e-06
2	1	0	1	0	1700.07	0.109667	0.109322	0.070976	2	0.00135262	11	7.75922e-06
2	1	0	1	0	1707.56	0.117158	0.116833	0.0927554	2	0.00213819	11	1.08368e-05
2	1	0	1	0	1715.05	0.124649	0.124372	0.122309	2	0.0031133	11	1.52118e-05
2	1	0	1	0	1722.55	0.13214	0.131857	0.150792	2	0.00431405	11	1.9883e-05
2	1	0	1	0	1730.04	0.139631	0.139323	0.166932	2	0.00569633	11	2.32574e-05
2	1	0	1	0	1737.53	0.147122	0.146789	0.163565	2	0.00712935	11	2.40095e-05
2	1	0	1	0	1745.02	0.154613	0.154322	0.13523	2	0.00843757	11	2.0869e-05
2	1	0	1	0	1752.51	0.162104	0.161828	0.100314	2	0.00949384	11	1.62335e-05
2	1	0	1	0	1760	0.169595	0.169289	0.074458	2	0.0103162	11	1.26049e-05
2	1	0	1	0	1767.49	0.177085	0.176829	0.0607125	2	0.0109927	11	1.07358e-05
2	1	0	1	0	1774.98	0.184576	0.184333	0.0529699	2	0.011587	11	9.76409e-06
2	1	0	1	0	1782.47	0.192067	0.191754	0.0484383	2	0.0121332	11	9.28822e-06
2	1	0	1	0	1789.96	0.199558	0.199295	0.0459316	2	0.0126501	11	9.15395e-06
2	1	0	1	0	1797.45	0.207049	0.206756	0.044748	2	0.0131507	11	9.25192e-06
2	1	0	1	0	1804.95	0.21454	0.214284	0.0439454	2	0.013641	11	9.4168e-06
2	1	0	1	0	1812.44	0.222031	0.221747	0.0434219	2	0.0141267	11	9.62868e-06
2	1	0	1	0	1819.93	0.229522	0.229225	0.0437088	2	0.0146102	11	1.00192e-05
2	1	0	1	0	1827.42	0.237013	0.23671	0.0441306	2	0.015095	11	1.04462e-05
2	1	0	1	0	1834.91	0.244504	0.244236	0.0449041	2	0.0155813	11	1.09672e-05
2	1	0	1	0	1842.4	0.251995	0.251693	0.0449707	2	0.0160714	11	1.13188e-05
2	1	0	1	0	1849.89	0.259486	0.25922	0.0459418	2	0.0165646	11	1.1909e-05
2	1	0	1	0	1857.38	0.266977	0.266666	0.046332	2	0.0170619	11	1.23552e-05
2	1	0	1	0	1864.87	0.274468	0.274175	0.0468383	2	0.0175632	11	1.28419e-05
2	1	0	1	0	1872.36	0.281959	0.281715	0.0477571	2	0.0180694	11	1.34539e-05
2	1	0	1	0	1879.86	0.28945	0.289175	0.0490103	2	0.0185799	11	1.41726e-05
2	1	0	1	0	1887.35	0.296941	0.296668	0.0491278	2	0.0190956	11	1.45746e-05
2	1	0	1	0	1894.19	0.296242	0.295948	0.0186044	2	0.0193266	11	5.50592e-06
2	1	0	1	0	1901.68	0.288751	0.288449	0.00832426	2	0.0192753	11	2.40112e-06
2	1	0	1	0	1909.17	0.28126	0.280968	0.00181126	2	0.0191642	11	5.08906e-07
2	0	0	1	0	1916.66	0.273769	0.2735	-0.00221545	2	0.0190108	11	-6.05925e-07
2	0	0	1	0	1924.15	0.266278	0.265966	-0.00706671	2	0.0188221	11	-1.87951e-06
2	0	0	1	0	1931.64	0.258787	0.258501	-0.010804	2	0.0186022	11	-2.79283e-06
2	0	0	1	0	1939.13	0.251296	0.251036	-0.0147531	2	0.0183534	11	-3.70354e-06
2	0	0	1	0	1946.63	0.243805	0.243556	-0.0181908	2	0.0180775	11	-4.43047e-06
2	0	0	1	0	1954.12	0.236314	0.236014	-0.0216477	2	0.0177757	11	-5.10917e-06
2	0	0	1	0	1961.61	0.228823	0.228574	-0.0247138	2	0.0174475	11	-5.64894e-06
2	0	0	1	0	1969.1	0.221332	0.22106	-0.0277778	2	0.0170924	11	-6.14057e-06
2	0	0	1	0	1976.59	0.213841	0.213519	-0.0314549	2	0.0167088	11	-6.71624e-06
2	0	0	1	0	1984.08	0.20635	0.206035	-0.0357463	2	0.0162936	11	-7.36499e-06
2	0	0	1	0	1991.57	0.198859	0.198546	-0.0401116	2	0.0158436	11	-7.96402e-06
2	0	0	1	0	1999.06	0.191368	0.191079	-0.0463371	2	0.0153515	11	-8.85405e-06
2	0	0	1	0	2006.55	0.183877	0.183606	-0.0540157	2	0.0148067	11	-9.91762e-06
2	0	0	1	0	2014.04	0.176386	0.176105	-0.0651747	2	0.0141913	11	-1.14776e-05
2	0	0	1	0	2021.53	0.168895	0.168568	-0.0800932	2	0.0134759	11	-1.35011e-05
2	0	0	1	0	2029.03	0.161404	0.161094	-0.105823	2	0.0126063	11	-1.70475e-05
2	0	0	1	0	2036.52	0.153913	0.153609	-0.142031	2	0.0115014	11	-2.18171e-05
2	0	0	1	0	2044.01	0.146423	0.146131	-0.179042	2	0.0101084	11	-2.61636e-05
2	0	0	1	0	2051.5	0.138932	0.138614	-0.201974	2	0.0084866	11	-2.79965e-05
2	0	0	1	0	2058.99	0.131441	0.131153	-0.201532	2	0.00678072	11	-2.64317e-05
2	0	0	1	0	2066.48	0.12395	0.123659	-0.185566	2	0.00514006	11	-2.29468e-05
2	0	0	1	0	2073.97	0.116459	0.116122	-0.164829	2	0.00364841	11	-1.91403e-05
2	0	0	1	0	2081.46	0.108968	0.108687	-0.14769	2	0.00230361	11	-1.60519e-05
2	0	0	1	0	2088.95	0.101477	0.10118	-0.135733	2	0.00106106	11	-1.37334e-05
2	0	0	1	0	2096.44	0.0939859	0.0936776	-0.129877	2	-0.000113317	11	-1.21665e-05
2	0	0	1	0	2103.94	0.0864949	0.0862271	-0.122219	2	-0.00123553	11	-1.05386e-05
2	0	0	1	0	2111.43	0.079004	0.0787089	-0.11587	2	-0.00230675	11	-9.12e-06
2	0	0	1	0	2118.92	0.071513	0.0712033	-0.109201	2	-0.00332667	11	-7.77546e-06
2	0	0	1	0	2126.41	0.0640221	0.0637529	-0.104357	2	-0.0043002	11	-6.65308e-06
2	0	0	1	0	2133.9	0.0565311	0.0562218	-0.0984302	2	-0.00523505	11	-5.53393e-06
2	0	0	1	0	2141.39	0.0490402	0.0487938	-0.0967777	2	-0.00614369	11	-4.72215e-06
2	0	0	1	0	2148.88	0.0415492	0.0412564	-0.0963297	2	-0.00703817	11	-3.97421e-06
2	0	0	1	0	2156.37	0.0340582	0.0337751	-0.0961518	2	-0.00793006	11	-3.24754e-06
2	0	0	1	0	2163.86	0.0265673	0.026294	-0.096954	2	-0.0088273	11	-2.54931e-06
2	0	0	1	0	2171.35	0.0190764	0.0187397	-0.0994385	2	-0.00973777	11	-1.86345e-06
2	0	0	1	0	2178.84	0.0115854	0.0112904	-0.102455	2	-0.0106683	11	-1.15676e-06
2	0	0	1	0	2186.34	0.00409444	0.00380492	-0.107234	2	-0.0116268	11	-4.08016e-07
2	0	0	1	0	2824.33	0.00229673	0.00200339	-0.141846	3	-0.000359878	11	-2.84173e-07
2	0	0	1	0	2831.82	0.00978761	0.00950782	-0.0809889	3	-0.0010024	11	-7.70028e-07
2	0	0	1	0	2839.31	0.0172785	0.0169645	-0.0555216	3	-0.00135418	11	-9.41899e-07
2	0	0	1	0	2846.8	0.0247695	0.0244935	-0.040479	3	-0.00156129	11	-9.91471e-07
2	0	0	1	0	2854.29	0.0322605	0.0319387	-0.0291123	3	-0.00167146	11	-9.2981e-07
2	0	0	1	0	2861.79	0.0397514	0.0394473	-0.0192212	3	-0.00170541	11	-7.58224e-07
2	0	0	1	0	2869.28	0.0472423	0.0469518	-0.0106153	3	-0.0016718	11	-4.98408e-07
2	0	0	1	0	2876.77	0.0547333	0.0544383	-0.00182782	3	-0.00157106	11	-9.95034e-08
2	0	0	1	0	2884.26	0.0622243	0.0619397	0.008475	3	-0.00139921	11	5.24939e-07
2	0	0	1	0	2891.75	0.0697152	0.0694685	0.0181648	3	-0.00114997	11	1.26188e-06
2	1	0	1	0	2899.24	0.0772061	0.0768955	0.029512	3	-0.000819635	11	2.26934e-06
2	1	0	1	0	2906.73	0.0846971	0.0843831	0.040045	3	-0.00041035	11	3.37912e-06
2	1	0	1	0	2914.22	0.0921881	0.0919067	0.0493812	3	7.24663e-05	11	4.53847e-06
2	1	0	1	0	2921.71	0.099679	0.0993656	0.0589689	3	0.000627905	11	5.85949e-06
2	1	0	1	0	2929.2	0.10717	0.106888	0.071077	3	0.00126669	11	7.59729e-06
2	1	0	1	0	2936.69	0.114661	0.11437	0.0892933	3	0.00201952	11	1.02125e-05
2	1	0	1	0	2944.19	0.122152	0.12183	0.114076	3	0.00293725	11	1.3898e-05
2	1	0	1	0	2951.68	0.129643	0.129352	0.142311	3	0.00405567	11	1.84082e-05
2	1	0	1	0	2959.17	0.137134	0.136845	0.16089	3	0.00535511	11	2.20169e-05
2	1	0	1	0	2966.66	0.144625	0.144378	0.163177	3	0.00673895	11	2.35592e-05
2	1	0	1	0	2974.15	0.152116	0.15179	0.141672	3	0.00804891	11	2.15044e-05
2	1	0	1	0	2981.64	0.159607	0.159302	0.107672	3	0.00913842	11	1.71523e-05
2	1	0	1	0	2989.13	0.167098	0.166789	0.0806645	3	0.00998853	11	1.3454e-05
2	1	0	1	0	2996.62	0.174588	0.174295	0.0653842	3	0.010679	11	1.13961e-05
2	1	0	1	0	3004.11	0.182079	0.181807	0.056579	3	0.0112781	11	1.02865e-05
2	1	0	1	0	3011.6	0.18957	0.189254	0.0512044	3	0.0118255	11	9.69065e-06
2	1	0	1	0	3019.1	0.197061	0.196803	0.0481269	3	0.0123416	11	9.47152e-06
2	1	0	1	0	3026.59	0.204552	0.204263	0.0466148	3	0.0128398	11	9.52168e-06
2	1	0	1	0	3034.08	0.212043	0.211775	0.0456583	3	0.0133277	11	9.66929e-06
2	1	0	1	0	3041.57	0.219534	0.219249	0.0459427	3	0.0138103	11	1.00729e-05
2	1	0	1	0	3049.06	0.227025	0.226776	0.0458886	3	0.0142909	11	1.04064e-05
2	1	0	1	0	3056.55	0.234516	0.234228	0.0462258	3	0.0147724	11	1.08274e-05
2	1	0	1	0	3064.04	0.242007	0.241703	0.0457357	3	0.0152556	11	1.10545e-05
2	1	0	1	0	3071.53	0.249498	0.249218	0.0468838	3	0.0157426	11	1.16843e-05
2	1	0	1	0	3079.02	0.256989	0.256721	0.0476379	3	0.0162329	11	1.22297e-05
2	1	0	1	0	3086.51	0.26448	0.264185	0.0484435	3	0.0167277	11	1.2798e-05
2	1	0	1	0	3094	0.271971	0.271632	0.0488798	3	0.0172267	11	1.32773e-05
2	1	0	1	0	3101.5	0.279462	0.279164	0.0499769	3	0.0177304	11	1.39518e-05
2	1	0	1	0	3108.99	0.286953	0.286654	0.0502576	3	0.0182384	11	1.44065e-05
2	1	0	1	0	3116.48	0.294444	0.294167	0.0513806	3	0.0187513	11	1.51145e-05
2	1	0	1	0	3123.32	0.298739	0.298469	0.0239683	3	0.0191493	11	7.15379e-06
2	1	0	1	0	3130.81	0.291248	0.29095	0.00883507	3	0.0191292	11	2.57056e-06
2	1	0	1	0	3138.3	0.283757	0.28343	0.00195058	3	0.0190358	11	5.52854e-07
2	1	0	1	0	3145.79	0.276266	0.275983	-0.00360418	3	0.0188957	11	-9.94693e-07
2	1	0	1	0	3153.28	0.268775	0.268496	-0.00807749	3	0.0187185	11	-2.16878e-06
2	0	0	1	0	3160.77	0.261284	0.261007	-0.0121315	3	0.0185097	11	-3.1664e-06
2	0	0	1	0	3168.27	0.253793	0.253532	-0.0154665	3	0.0182716	11	-3.92124e-06
2	0	0	1	0	3175.76	0.246302	0.245988	-0.0188818	3	0.0180063	11	-4.64468e-06
2	0	0	1	0	3183.25	0.238811	0.238595	-0.0223444	3	0.0177148	11	-5.33126e-06
2	0	0	1	0	3190.74	0.23132	0.231025	-0.0255423	3	0.0173977	11	-5.9009e-06
2	0	0	1	0	3198.23	0.223829	0.223569	-0.0290877	3	0.0170546	11	-6.5031e-06
2	0	0	1	0	3205.72	0.216338	0.216025	-0.0321216	3	0.0166844	11	-6.93908e-06
2	0	0	1	0	3213.21	0.208847	0.208567	-0.0361614	3	0.0162852	11	-7.54209e-06
2	0	0	1	0	3220.7	0.201356	0.201026	-0.0409173	3	0.0158534	11	-8.22543e-06
2	0	0	1	0	3228.19	0.193865	0.193569	-0.0462439	3	0.0153844	11	-8.95137e-06
2	0	0	1	0	3235.68	0.186374	0.186075	-0.0520882	3	0.0148695	11	-9.69231e-06
2	0	0	1	0	3243.18	0.178883	0.178592	-0.0618508	3	0.0142957	11	-1.10461e-05
2	0	0	1	0	3250.67	0.171392	0.171082	-0.0738856	3	0.01364	11	-1.26405e-05
2	0	0	1	0	3258.16	0.163901	0.16361	-0.0938864	3	0.0128608	11	-1.53608e-05
2	0	0	1	0	3265.65	0.15641	0.156115	-0.125724	3	0.0118894	11	-1.96274e-05
2	0	0	1	0	3273.14	0.148919	0.148619	-0.162187	3	0.0106498	11	-2.41041e-05
2	0	0	1	0	3280.63	0.141429	0.141154	-0.193086	3	0.00914741	11	-2.72548e-05
2	0	0	1	0	3288.12	0.133938	0.133608	-0.202509	3	0.00749759	11	-2.70569e-05
2	0	0	1	0	3295.61	0.126447	0.126145	-0.192562	3	0.00584645	11	-2.42907e-05
2	0	0	1	0	3303.1	0.118956	0.118645	-0.175961	3	0.0042997	11	-2.08769e-05
2	0	0	1	0	3310.59	0.111465	0.111174	-0.158647	3	0.00289121	11	-1.76374e-05
2	0	0	1	0	3318.08	0.103974	0.103674	-0.14532	3	0.00159712	11	-1.50659e-05
2	0	0	1	0	3325.58	0.0964828	0.0961387	-0.137902	3	0.000380834	11	-1.32577e-05
2	0	0	1	0	3333.07	0.0889919	0.0886872	-0.130848	3	-0.000781424	11	-1.16045e-05
2	0	0	1	0	3340.56	0.081501	0.0812009	-0.125034	3	-0.00189481	11	-1.01529e-05
2	0	0	1	0	3348.05	0.07401	0.0737324	-0.118448	3	-0.00295922	11	-8.73349e-06
2	0	0	1	0	3355.54	0.066519	0.0662172	-0.11154	3	-0.00397344	11	-7.3859e-06
2	0	0	1	0	3363.03	0.0590281	0.0587605	-0.106721	3	-0.00494113	11	-6.27098e-06
2	0	0	1	0	3370.52	0.0515372	0.0512253	-0.101577	3	-0.00587138	11	-5.20332e-06
2	0	0	1	0	3378.01	0.0440462	0.0437473	-0.0997305	3	-0.00677674	11	-4.36294e-06
2	0	0	1	0	3385.5	0.0365552	0.0362544	-0.0992692	3	-0.00767055	11	-3.59895e-06
2	0	0	1	0	3392.99	0.0290643	0.0287468	-0.0994102	3	-0.00856348	11	-2.85773e-06
2	0	0	1	0	3400.49	0.0215734	0.021271	-0.101698	3	-0.00946479	11	-2.16322e-06
2	0	0	1	0	3407.98	0.0140824	0.0137749	-0.103835	3	-0.0103823	11	-1.43031e-06
2	0	0	1	0	3415.47	0.00659143	0.00625656	-0.107241	3	-0.0113231	11	-6.70962e-07
2	0	0	1	0	4053.69	2.44065e-05	-0.000382585	-0.369723	4	0.0000000E+000	11	1.41451e-07
2	0	0	1	0	4060.95	0.00729061	0.00701479	-0.0934033	4	-0.000829291	11	-6.55205e-07
2	0	0	1	0	4068.44	0.0147815	0.0144598	-0.061801	4	-0.00125034	11	-8.93633e-07
2	0	0	1	0	4075.93	0.0222725	0.0220015	-0.0441665	4	-0.0014964	11	-9.71727e-07
2	0	0	1	0	4083.43	0.0297635	0.0294923	-0.0313538	4	-0.00163319	11	-9.24693e-07
2	0	0	1	0	4090.92	0.0372544	0.0369543	-0.0217996	4	-0.00168689	11	-8.0559e-07
2	0	0	1	0	4098.41	0.0447454	0.0444387	-0.0123254	4	-0.00166844	11	-5.47724e-07
2	0	0	1	0	4105.9	0.0522363	0.0519612	-0.00307499	4	-0.00157885	11	-1.5978e-07
2	1	0	1	0	4113.39	0.0597273	0.0594265	0.0074397	4	-0.00141428	11	4.42116e-07
2	1	0	1	0	4120.88	0.0672183	0.0669395	0.0180569	4	-0.00116944	11	1.20872e-06
2	1	0	1	0	4128.37	0.0747092	0.074426	0.0290006	4	-0.000842618	11	2.1584e-06
2	1	0	1	0	4135.86	0.0822001	0.0818826	0.0379991	4	-0.000436749	11	3.11147e-06
2	1	0	1	0	4143.35	0.0896911	0.0894095	0.0474851	4	4.11327e-05	11	4.24562e-06
2	1	0	1	0	4150.84	0.0971821	0.0969056	0.0576113	4	0.000589073	11	5.58285e-06
2	1	0	1	0	4158.34	0.104673	0.104391	0.0700703	4	0.00121377	11	7.31469e-06
2	1	0	1	0	4165.83	0.112164	0.111879	0.0852937	4	0.00194184	11	9.54261e-06
2	1	0	1	0	4173.32	0.119655	0.119392	0.107835	4	0.00281402	11	1.28746e-05
2	1	0	1	0	4180.81	0.127146	0.126875	0.129381	4	0.00386431	11	1.64151e-05
2	1	0	1	0	4188.3	0.134637	0.134316	0.15067	4	0.00508527	11	2.02374e-05
2	1	0	1	0	4195.79	0.142128	0.14182	0.157374	4	0.00641161	11	2.23187e-05
2	1	0	1	0	4203.28	0.149619	0.149321	0.143187	4	0.00770903	11	2.13809e-05
2	1	0	1	0	4210.77	0.15711	0.156829	0.111305	4	0.00882356	11	1.74559e-05
2	1	0	1	0	4218.26	0.164601	0.164317	0.0832867	4	0.00969968	11	1.36854e-05
2	1	0	1	0	4225.75	0.172091	0.171799	0.0653448	4	0.0104033	11	1.12262e-05
2	1	0	1	0	4233.24	0.179582	0.179346	0.0566706	4	0.0110074	11	1.01636e-05
2	1	0	1	0	4240.74	0.187073	0.1868	0.0511982	4	0.0115555	11	9.56385e-06
2	1	0	1	0	4248.23	0.194564	0.194253	0.0474197	4	0.0120707	11	9.21141e-06
2	1	0	1	0	4255.72	0.202055	0.201767	0.0462966	4	0.012567	11	9.34112e-06
2	1	0	1	0	4263.21	0.209546	0.209311	0.0455375	4	0.0130523	11	9.53147e-06
2	1	0	1	0	4270.7	0.217037	0.216775	0.0452824	4	0.0135321	11	9.81609e-06
2	1	0	1	0	4278.19	0.224528	0.224221	0.0449878	4	0.0140103	11	1.00872e-05
2	1	0	1	0	4285.68	0.232019	0.231727	0.045494	4	0.01449	11	1.05422e-05
2	1	0	1	0	4293.17	0.23951	0.239193	0.0462075	4	0.0149715	11	1.10525e-05
2	1	0	1	0	4300.66	0.247001	0.246721	0.0465615	4	0.0154565	11	1.14877e-05
2	1	0	1	0	4308.15	0.254492	0.254213	0.0477561	4	0.0159451	11	1.21402e-05
2	1	0	1	0	4315.65	0.261983	0.261675	0.0485057	4	0.0164379	11	1.26927e-05
2	1	0	1	0	4323.14	0.269474	0.269187	0.0491683	4	0.016935	11	1.32354e-05
2	1	0	1	0	4330.63	0.276965	0.276678	0.0494479	4	0.0174374	11	1.36811e-05
2	1	0	1	0	4338.12	0.284456	0.284184	0.0501786	4	0.0179439	11	1.426e-05
2	1	0	1	0	4345.61	0.291947	0.291625	0.0513108	4	0.0184554	11	1.49635e-05
2	1	0	1	0	4353.1	0.299438	0.299159	0.0519555	4	0.018971	11	1.5543e-05
2	1	0	1	0	4359.94	0.293745	0.293438	0.011363	4	0.0190222	11	3.33435e-06
2	1	0	1	0	4367.43	0.286254	0.285953	0.00348495	4	0.018949	11	9.96529e-07
2	1	0	1	0	4374.92	0.278763	0.278466	-0.00232225	4	0.0188238	11	-6.46667e-07
2	1	0	1	0	4382.41	0.271272	0.270985	-0.00688405	4	0.0186588	11	-1.86547e-06
2	0	0	1	0	4389.91	0.263781	0.26349	-0.0108565	4	0.0184605	11	-2.86058e-06
2	0	0	1	0	4397.4	0.25629	0.256031	-0.0151296	4	0.0182327	11	-3.87366e-06
2	0	0	1	0	4404.89	0.248799	0.24846	-0.0184855	4	0.0179774	11	-4.59291e-06
2	0	0	1	0	4412.38	0.241308	0.241011	-0.0216172	4	0.017696	11	-5.20998e-06
2	0	0	1	0	4419.87	0.233817	0.233525	-0.0247005	4	0.0173892	11	-5.76818e-06
2	0	0	1	0	4427.36	0.226326	0.226051	-0.0276626	4	0.0170563	11	-6.25318e-06
2	0	0	1	0	4434.85	0.218835	0.218541	-0.0318589	4	0.0166974	11	-6.9625e-06
2	0	0	1	0	4442.34	0.211344	0.211025	-0.0349813	4	0.0163116	11	-7.38195e-06
2	0	0	1	0	4449.83	0.203853	0.203541	-0.0391026	4	0.0158954	11	-7.95899e-06
2	0	0	1	0	4457.32	0.196362	0.196076	-0.0436825	4	0.0154461	11	-8.56509e-06
2	0	0	1	0	4464.82	0.188871	0.188558	-0.0498666	4	0.0149561	11	-9.40278e-06
2	0	0	1	0	4472.31	0.18138	0.18111	-0.0570387	4	0.0144154	11	-1.03303e-05
2	0	0	1	0	4479.8	0.173889	0.173585	-0.067268	4	0.0138067	11	-1.16767e-05
2	0	0	1	0	4487.29	0.166398	0.166127	-0.0837556	4	0.0130987	11	-1.3914e-05
2	0	0	1	0	4494.78	0.158907	0.158658	-0.108579	4	0.012237	11	-1.7227e-05
2	0	0	1	0	4502.27	0.151417	0.151091	-0.143956	4	0.0111414	11	-2.17505e-05
2	0	0	1	0	4509.76	0.143926	0.143655	-0.178222	4	0.00977343	11	-2.56024e-05
2	0	0	1	0	4517.25	0.136435	0.136122	-0.197399	4	0.00820156	11	-2.68705e-05
2	0	0	1	0	4524.74	0.128944	0.128625	-0.196449	4	0.00656636	11	-2.52683e-05
2	0	0	1	0	4532.23	0.121453	0.121162	-0.183453	4	0.00498751	11	-2.22275e-05
2	0	0	1	0	4539.72	0.113962	0.11364	-0.165301	4	0.00352547	11	-1.87847e-05
2	0	0	1	0	4547.22	0.106471	0.106165	-0.151652	4	0.00218431	11	-1.61001e-05
2	0	0	1	0	4554.71	0.0989798	0.0986911	-0.141938	4	0.000933321	11	-1.4008e-05
2	0	0	1	0	4562.2	0.0914889	0.091174	-0.135681	4	-0.000256614	11	-1.23706e-05
2	0	0	1	0	4569.69	0.083998	0.0836737	-0.12984	4	-0.00139952	11	-1.08642e-05
2	0	0	1	0	4577.18	0.076507	0.0761798	-0.124383	4	-0.00249761	11	-9.47545e-06
2	0	0	1	0	4584.67	0.069016	0.068688	-0.117516	4	-0.00354775	11	-8.07192e-06
2	0	0	1	0	4592.16	0.0615251	0.0612207	-0.111413	4	-0.00454944	11	-6.82081e-06
2	0	0	1	0	4599.65	0.0540342	0.053747	-0.106422	4	-0.0055063	11	-5.71987e-06
2	0	0	1	0	4607.14	0.0465432	0.0462605	-0.10229	4	-0.00642945	11	-4.73199e-06
2	0	0	1	0	4614.63	0.0390522	0.0387326	-0.100695	4	-0.00733196	11	-3.90018e-06
2	0	0	1	0	4622.13	0.0315613	0.0312144	-0.100201	4	-0.00822661	11	-3.1277e-06
2	0	0	1	0	4629.62	0.0240703	0.0237788	-0.101059	4	-0.00912346	11	-2.40307e-06
2	0	0	1	0	4637.11	0.0165794	0.0162998	-0.102917	4	-0.0100319	11	-1.67752e-06
2	0	0	1	0	4644.6	0.00908843	0.00880052	-0.106013	4	-0.0109604	11	-9.32972e-07
2	0	0	1	0	4652.09	0.00159744	0.00129278	-0.11085	4	-0.0119193	11	-1.43305e-07
2	0	0	1	0	5290.08	0.00479371	0.00449008	-0.111735	5	-0.000628945	11	-5.017e-07
2	0	0	1	0	5297.58	0.0122846	0.0119288	-0.068796	5	-0.00114533	11	-8.20651e-07
2	0	0	1	0	5305.07	0.0197755	0.019465	-0.0478762	5	-0.00144211	11	-9.31909e-07
2	0	0	1	0	5312.56	0.0272665	0.0269971	-0.0336556	5	-0.00161277	11	-9.08603e-07
2	0	0	1	0	5320.05	0.0347575	0.0344412	-0.0228487	5	-0.00169119	11	-7.86936e-07
2	0	0	1	0	5327.54	0.0422484	0.0419446	-0.0129493	5	-0.0016916	11	-5.43153e-07
2	0	0	1	0	5335.03	0.0497393	0.0494395	-0.00306635	5	-0.00161743	11	-1.51599e-07
2	1	0	1	0	5342.52	0.0572303	0.0569323	0.00738498	5	-0.0014661	11	4.20444e-07
2	1	0	1	0	5350.01	0.0647213	0.0644041	0.018576	5	-0.00123231	11	1.19637e-06
2	1	0	1	0	5357.5	0.0722122	0.0718873	0.0295138	5	-0.000914905	11	2.12167e-06
2	1	0	1	0	5364.99	0.0797031	0.0793896	0.0399126	5	-0.000517644	11	3.16864e-06
2	1	0	1	0	5372.48	0.0871941	0.0868571	0.0491877	5	-4.92827e-05	11	4.2723e-06
2	1	0	1	0	5379.98	0.0946851	0.0943807	0.0573898	5	0.000486499	11	5.41649e-06
2	1	0	1	0	5387.47	0.102176	0.101883	0.0678326	5	0.00109375	11	6.91099e-06
2	1	0	1	0	5394.96	0.109667	0.10939	0.083338	5	0.00179594	11	9.11631e-06
2	1	0	1	0	5402.45	0.117158	0.116869	0.102652	5	0.00262789	11	1.19968e-05
2	1	0	1	0	5409.94	0.124649	0.124375	0.124591	5	0.00362126	11	1.5496e-05
2	1	0	1	0	5417.43	0.13214	0.131867	0.143698	5	0.00477354	11	1.8949e-05
2	1	0	1	0	5424.92	0.139631	0.139336	0.152403	5	0.00604121	11	2.12352e-05
2	1	0	1	0	5432.41	0.147122	0.146837	0.145452	5	0.00731654	11	2.13577e-05
2	1	0	1	0	5439.9	0.154613	0.154288	0.116299	5	0.00844525	11	1.79435e-05
2	1	0	1	0	5447.39	0.162104	0.161819	0.0877722	5	0.00934467	11	1.42032e-05
2	1	0	1	0	5454.89	0.169595	0.169302	0.0681661	5	0.0100612	11	1.15406e-05
2	1	0	1	0	5462.38	0.177085	0.176785	0.0581313	5	0.0106684	11	1.02767e-05
2	1	0	1	0	5469.87	0.184576	0.184294	0.0517407	5	0.0112159	11	9.53549e-06
2	1	0	1	0	5477.36	0.192067	0.191767	0.049241	5	0.0117286	11	9.44282e-06
2	1	0	1	0	5484.85	0.199558	0.199292	0.047692	5	0.0122221	11	9.50464e-06
2	1	0	1	0	5492.34	0.207049	0.206779	0.0471707	5	0.0127041	11	9.75394e-06
2	1	0	1	0	5499.83	0.21454	0.214244	0.0461838	5	0.0131814	11	9.89458e-06
2	1	0	1	0	5507.32	0.222031	0.221782	0.0465431	5	0.0136566	11	1.03224e-05
2	1	0	1	0	5514.81	0.229522	0.22922	0.0466579	5	0.0141327	11	1.06949e-05
2	1	0	1	0	5522.3	0.237013	0.236713	0.0465202	5	0.0146109	11	1.10119e-05
2	1	0	1	0	5529.79	0.244504	0.244214	0.0478571	5	0.0150927	11	1.16874e-05
2	1	0	1	0	5537.29	0.251995	0.251723	0.0485633	5	0.0155784	11	1.22245e-05
2	1	0	1	0	5544.78	0.259486	0.25924	0.0487895	5	0.0160689	11	1.26482e-05
2	1	0	1	0	5552.27	0.266977	0.266687	0.0500717	5	0.0165636	11	1.33535e-05
2	1	0	1	0	5559.76	0.274468	0.274153	0.0506899	5	0.0170635	11	1.38968e-05
2	1	0	1	0	5567.25	0.281959	0.281674	0.0513742	5	0.0175681	11	1.44708e-05
2	1	0	1	0	5574.74	0.28945	0.289168	0.052433	5	0.0180779	11	1.51619e-05
2	1	0	1	0	5582.23	0.296941	0.296654	0.0531447	5	0.0185922	11	1.57656e-05
2	1	0	1	0	5589.07	0.296242	0.295915	0.0151382	5	0.0188242	11	4.47963e-06
2	1	0	1	0	5596.56	0.288751	0.288504	0.00537507	5	0.0187748	11	1.55073e-06
2	0	0	1	0	5604.06	0.28126	0.280927	-0.00135913	5	0.0186659	11	-3.81817e-07
2	0	0	1	0	5611.55	0.273769	0.273517	-0.00582244	5	0.0185148	11	-1.59254e-06
2	0	0	1	0	5619.04	0.266278	0.265985	-0.0100684	5	0.0183289	11	-2.67803e-06
2	0	0	1	0	5626.53	0.258787	0.258507	-0.0141753	5	0.0181122	11	-3.66441e-06
2	0	0	1	0	5634.02	0.251296	0.251034	-0.0176962	5	0.0178673	11	-4.44237e-06
2	0	0	1	0	5641.51	0.243805	0.243508	-0.0214098	5	0.0175959	11	-5.21345e-06
2	0	0	1	0	5649	0.236314	0.235993	-0.024463	5	0.0172993	11	-5.77309e-06
2	0	0	1	0	5656.49	0.228823	0.228559	-0.026994	5	0.0169778	11	-6.16972e-06
2	0	0	1	0	5663.98	0.221332	0.22103	-0.0307997	5	0.0166308	11	-6.80767e-06
2	0	0	1	0	5671.47	0.213841	0.213573	-0.0343818	5	0.0162575	11	-7.34304e-06
2	0	0	1	0	5678.96	0.20635	0.206048	-0.0385955	5	0.015856	11	-7.95253e-06
2	0	0	1	0	5686.46	0.198859	0.198544	-0.0423219	5	0.0154237	11	-8.40277e-06
2	0	0	1	0	5693.95	0.191368	0.191053	-0.0470515	5	0.0149555	11	-8.98931e-06
2	0	0	1	0	5701.44	0.183877	0.183551	-0.0528822	5	0.014444	11	-9.7066e-06
2	0	0	1	0	5708.93	0.176386	0.176111	-0.0619902	5	0.0138746	11	-1.09172e-05
2	0	0	1	0	5716.42	0.168895	0.168576	-0.0747304	5	0.0132249	11	-1.25978e-05
2	0	0	1	0	5723.91	0.161404	0.161088	-0.0947934	5	0.0124529	11	-1.527e-05
2	0	0	1	0	5731.4	0.153913	0.153613	-0.125758	5	0.011489	11	-1.9318e-05
2	0	0	1	0	5738.89	0.146423	0.146106	-0.161213	5	0.0102648	11	-2.35542e-05
2	0	0	1	0	5746.38	0.138932	0.138627	-0.187851	5	0.00880029	11	-2.60412e-05
2	0	0	1	0	5753.87	0.131441	0.131087	-0.195496	5	0.00720415	11	-2.56268e-05
2	0	0	1	0	5761.37	0.12395	0.123671	-0.187246	5	0.00561494	11	-2.31569e-05
2	0	0	1	0	5768.86	0.116459	0.116163	-0.174132	5	0.00410544	11	-2.02276e-05
2	0	0	1	0	5776.35	0.108968	0.10866	-0.159098	5	0.00271456	11	-1.72876e-05
2	0	0	1	0	5783.84	0.101477	0.101187	-0.146325	5	0.00142546	11	-1.48062e-05
2	0	0	1	0	5791.33	0.0939859	0.0937338	-0.140025	5	0.000209084	11	-1.31251e-05
2	0	0	1	0	5798.82	0.0864949	0.0862102	-0.132818	5	-0.000957373	11	-1.14502e-05
2	0	0	1	0	5806.31	0.079004	0.0786803	-0.128481	5	-0.00208166	11	-1.01089e-05
2	0	0	1	0	5813.8	0.071513	0.0712054	-0.121713	5	-0.00316284	11	-8.66662e-06
2	0	0	1	0	5821.29	0.0640221	0.0636798	-0.115955	5	-0.00419821	11	-7.38397e-06
2	0	0	1	0	5828.78	0.0565311	0.0562198	-0.109526	5	-0.00518643	11	-6.15753e-06
2	0	0	1	0	5836.27	0.0490402	0.0487418	-0.105342	5	-0.00613388	11	-5.13457e-06
2	0	0	1	0	5843.77	0.0415492	0.0412617	-0.102972	5	-0.0070518	11	-4.24882e-06
2	0	0	1	0	5851.26	0.0340582	0.0337349	-0.101623	5	-0.00795409	11	-3.42824e-06
2	0	0	1	0	5858.75	0.0265673	0.0262877	-0.101395	5	-0.00885228	11	-2.66544e-06
2	0	0	1	0	5866.24	0.0190764	0.0187981	-0.102853	5	-0.00975693	11	-1.93345e-06
2	0	0	1	0	5873.73	0.0115854	0.0112734	-0.105272	5	-0.010677	11	-1.18677e-06
2	0	0	1	0	5881.22	0.00409444	0.00379853	-0.109606	5	-0.0116215	11	-4.16342e-07
2	0	0	1	0	6519.22	0.00229673	0.00199388	-0.139767	6	-0.000362138	11	-2.7868e-07
2	0	0	1	0	6526.71	0.00978761	0.00946648	-0.0804907	6	-0.0010154	11	-7.61963e-07
2	0	0	1	0	6534.2	0.0172785	0.0169677	-0.0540737	6	-0.00137227	11	-9.17505e-07
2	0	0	1	0	6541.69	0.0247695	0.0244808	-0.0386757	6	-0.00158006	11	-9.46811e-07
2	0	0	1	0	6549.18	0.0322605	0.0319312	-0.0263675	6	-0.00168449	11	-8.41947e-07
2	0	0	1	0	6556.67	0.0397514	0.0394431	-0.0157864	6	-0.00170432	11	-6.22665e-07
2	0	0	1	0	6564.16	0.0472423	0.0469571	-0.00492001	6	-0.00164474	11	-2.3103e-07
2	0	0	1	0	6571.65	0.0547333	0.0544319	0.00550281	6	-0.00150505	11	2.99529e-07
2	1	0	1	0	6579.14	0.0622243	0.0619429	0.0168012	6	-0.00128229	11	1.04071e-06
2	1	0	1	0	6586.63	0.0697152	0.0694134	0.0278369	6	-0.000975627	11	1.93225e-06
2	1	0	1	0	6594.12	0.0772061	0.0768871	0.0372912	6	-0.000589469	11	2.86721e-06
2	1	0	1	0	6601.62	0.0846971	0.0844329	0.0469635	6	-0.000132407	11	3.96527e-06
2	1	0	1	0	6609.11	0.0921881	0.0919014	0.0551933	6	0.000391197	11	5.07234e-06
2	1	0	1	0	6616.6	0.099679	0.0993582	0.0651361	6	0.000982735	11	6.47181e-06
2	1	0	1	0	6624.09	0.10717	0.106892	0.0791977	6	0.00166235	11	8.46563e-06
2	1	0	1	0	6631.58	0.114661	0.114339	0.0963373	6	0.00246092	11	1.10151e-05
2	1	0	1	0	6639.07	0.122152	0.121853	0.116737	6	0.00340664	11	1.42247e-05
2	1	0	1	0	6646.56	0.129643	0.129336	0.134589	6	0.00449882	11	1.74072e-05
2	1	0	1	0	6654.05	0.137134	0.136831	0.146743	6	0.00571067	11	2.0079e-05
2	1	0	1	0	6661.54	0.144625	0.144308	0.142816	6	0.00695687	11	2.06094e-05
2	1	0	1	0	6669.03	0.152116	0.151864	0.117571	6	0.00808889	11	1.78548e-05
2	1	0	1	0	6676.53	0.159607	0.1593	0.0879607	6	0.00900148	11	1.40121e-05
2	1	0	1	0	6684.02	0.167098	0.166776	0.0681261	6	0.00972263	11	1.13618e-05
2	1	0	1	0	6691.51	0.174588	0.17426	0.0573603	6	0.0103284	11	9.99561e-06
2	1	0	1	0	6699	0.182079	0.181773	0.0516205	6	0.0108719	11	9.38321e-06
2	1	0	1	0	6706.49	0.18957	0.189288	0.0483655	6	0.0113799	11	9.15501e-06
2	1	0	1	0	6713.98	0.197061	0.196772	0.0465901	6	0.0118688	11	9.16764e-06
2	1	0	1	0	6721.47	0.204552	0.204278	0.0453436	6	0.0123464	11	9.2627e-06
2	1	0	1	0	6728.96	0.212043	0.211755	0.0453978	6	0.0128198	11	9.6132e-06
2	1	0	1	0	6736.45	0.219534	0.219244	0.0454179	6	0.0132911	11	9.95757e-06
2	1	0	1	0	6743.94	0.227025	0.226728	0.0458702	6	0.0137636	11	1.04001e-05
2	1	0	1	0	6751.44	0.234516	0.234244	0.0459623	6	0.0142382	11	1.07664e-05
2	1	0	1	0	6758.93	0.242007	0.241733	0.0468625	6	0.0147166	11	1.13282e-05
2	1	0	1	0	6766.42	0.249498	0.249223	0.0476717	6	0.015199	11	1.18809e-05
2	1	0	1	0	6773.91	0.256989	0.256678	0.047751	6	0.015686	11	1.22566e-05
2	1	0	1	0	6781.4	0.26448	0.264189	0.0492103	6	0.0161773	11	1.30008e-05
2	1	0	1	0	6788.89	0.271971	0.271687	0.0498144	6	0.0166743	11	1.35339e-05
2	1	0	1	0	6796.38	0.279462	0.279163	0.0505362	6	0.0171758	11	1.41078e-05
2	1	0	1	0	6803.87	0.286953	0.286668	0.0511927	6	0.0176823	11	1.46753e-05
2	1	0	1	0	6811.36	0.294444	0.294138	0.0524833	6	0.0181929	11	1.54373e-05
2	1	0	1	0	6818.2	0.298739	0.298465	0.0231839	6	0.0185897	11	6.91959e-06
2	1	0	1	0	6825.7	0.291248	0.290927	0.00798027	6	0.0185698	11	2.32168e-06
2	1	0	1	0	6833.19	0.283757	0.283506	0.000857122	6	0.0184776	11	2.42999e-07
2	1	0	1	0	6840.68	0.276266	0.275957	-0.0040362	6	0.018339	11	-1.11382e-06
2	0	0	1	0	6848.17	0.268775	0.268494	-0.00846658	6	0.0181635	11	-2.27323e-06
2	1	0	1	0	6855.66	0.261284	0.261001	-0.0125364	6	0.0179566	11	-3.27202e-06
2	0	0	1	0	6863.15	0.253793	0.253481	-0.0158438	6	0.017721	11	-4.01609e-06
2	0	0	1	0	6870.64	0.246302	0.246009	-0.0192736	6	0.0174586	11	-4.74148e-06
2	0	0	1	0	6878.13	0.238811	0.238528	-0.0226678	6	0.0171706	11	-5.4069e-06
2	0	0	1	0	6885.62	0.23132	0.231021	-0.0260637	6	0.0168581	11	-6.02128e-06
2	0	0	1	0	6893.11	0.223829	0.223507	-0.0298021	6	0.0165208	11	-6.661e-06
2	0	0	1	0	6900.61	0.216338	0.216071	-0.0322716	6	0.0161583	11	-6.97295e-06
2	0	0	1	0	6908.1	0.208847	0.208543	-0.0362032	6	0.0157689	11	-7.54992e-06
2	0	0	1	0	6915.59	0.201356	0.201048	-0.0400923	6	0.0153502	11	-8.06049e-06
2	0	0	1	0	6923.08	0.193865	0.193578	-0.0454203	6	0.0148994	11	-8.79238e-06
2	0	0	1	0	6930.57	0.186374	0.18606	-0.0499604	6	0.0144098	11	-9.29565e-06
2	0	0	1	0	6938.06	0.178883	0.178567	-0.0571204	6	0.0138716	11	-1.01998e-05
2	0	0	1	0	6945.55	0.171392	0.171108	-0.0670606	6	0.0132682	11	-1.14746e-05
2	0	0	1	0	6953.04	0.163901	0.163589	-0.082927	6	0.0125681	11	-1.3566e-05
2	0	0	1	0	6960.53	0.15641	0.156108	-0.108136	6	0.011716	11	-1.68808e-05
2	0	0	1	0	6968.02	0.148919	0.148614	-0.141966	6	0.010635	11	-2.10981e-05
2	0	0	1	0	6975.51	0.141429	0.141115	-0.173389	6	0.0092945	11	-2.44677e-05
2	0	0	1	0	6983.01	0.133938	0.133636	-0.189516	6	0.00777385	11	-2.53261e-05
2	0	0	1	0	6990.5	0.126447	0.12611	-0.187578	6	0.00620502	11	-2.36554e-05
2	0	0	1	0	6997.99	0.118956	0.118649	-0.177907	6	0.00468334	11	-2.11084e-05
2	0	0	1	0	7005.48	0.111465	0.111133	-0.16432	6	0.00325333	11	-1.82614e-05
2	0	0	1	0	7012.97	0.103974	0.103669	-0.151722	6	0.00192461	11	-1.57288e-05
2	0	0	1	0	7020.46	0.0964828	0.0961578	-0.142935	6	0.000678379	11	-1.37444e-05
2	0	0	1	0	7027.95	0.0889919	0.0887022	-0.136263	6	-0.000510421	11	-1.20868e-05
2	0	0	1	0	7035.44	0.081501	0.0811977	-0.131297	6	-0.00165556	11	-1.0661e-05
2	0	0	1	0	7042.93	0.07401	0.0737091	-0.126409	6	-0.00276199	11	-9.31749e-06
2	0	0	1	0	7050.42	0.066519	0.0662056	-0.120012	6	-0.00382619	11	-7.94547e-06
2	0	0	1	0	7057.92	0.0590281	0.0587552	-0.114404	6	-0.00484561	11	-6.72186e-06
2	0	0	1	0	7065.41	0.0515372	0.0512211	-0.108904	6	-0.00582071	11	-5.57816e-06
2	0	0	1	0	7072.9	0.0440462	0.0437367	-0.104989	6	-0.00675887	11	-4.59186e-06
2	0	0	1	0	7080.39	0.0365552	0.0362597	-0.102004	6	-0.0076724	11	-3.69863e-06
2	0	0	1	0	7087.88	0.0290643	0.0287902	-0.102113	6	-0.00857452	11	-2.93985e-06
2	0	0	1	0	7095.37	0.0215734	0.0212837	-0.10297	6	-0.00947704	11	-2.19158e-06
2	0	0	1	0	7102.86	0.0140824	0.0137823	-0.105114	6	-0.0103903	11	-1.44872e-06
2	0	0	1	0	7110.35	0.00659143	0.0062693	-0.107507	6	-0.0113235	11	-6.73992e-07
2	0	0	1	0	7748.57	2.44065e-05	-0.000439847	-0.403842	7	0.0000000E+000	11	1.77629e-07
2	0	0	1	0	7755.84	0.00729061	0.00699459	-0.0921909	7	-0.000844498	11	-6.44837e-07
2	0	0	1	0	7763.33	0.0147815	0.0144641	-0.060462	7	-0.00127308	11	-8.74528e-07
2	0	0	1	0	7770.82	0.0222725	0.0219411	-0.0416617	7	-0.00152208	11	-9.14103e-07
2	0	0	1	0	7778.31	0.0297635	0.0294658	-0.0287495	7	-0.00165578	11	-8.47126e-07
2	0	0	1	0	7785.8	0.0372544	0.0369511	-0.0170218	7	-0.00169766	11	-6.28975e-07
2	0	0	1	0	7793.29	0.0447454	0.0444482	-0.00579159	7	-0.00165661	11	-2.57426e-07
2	0	0	1	0	7800.78	0.0522363	0.0519379	0.00490668	7	-0.00153325	11	2.54843e-07
2	1	0	1	0	7808.27	0.0597273	0.0594361	0.016706	7	-0.00132491	11	9.92941e-07
2	1	0	1	0	7815.77	0.0672183	0.0669459	0.0271456	7	-0.00103201	11	1.81729e-06
2	1	0	1	0	7823.26	0.0747092	0.0744238	0.0369963	7	-0.00066052	11	2.7534e-06
2	1	0	1	0	7830.75	0.0822001	0.0819261	0.0454796	7	-0.000218088	11	3.72597e-06
2	1	0	1	0	7838.24	0.0896911	0.0894116	0.0544451	7	0.000288475	11	4.86802e-06
2	1	0	1	0	7845.73	0.0971821	0.0968843	0.0630886	7	0.000861417	11	6.1123e-06
2	1	0	1	0	7853.22	0.104673	0.10441	0.0767477	7	0.00151626	11	8.01322e-06
2	1	0	1	0	7860.71	0.112164	0.111834	0.0923408	7	0.0022802	11	1.03268e-05
2	1	0	1	0	7868.2	0.119655	0.119326	0.110151	7	0.00317638	11	1.31439e-05
2	1	0	1	0	7875.69	0.127146	0.126863	0.125779	7	0.00420404	11	1.59568e-05
2	1	0	1	0	7883.18	0.134637	0.13435	0.139158	7	0.00534769	11	1.86959e-05
2	1	0	1	0	7890.67	0.142128	0.141819	0.14035	7	0.00654767	11	1.99043e-05
2	1	0	1	0	7898.17	0.149619	0.14933	0.120063	7	0.00767338	11	1.7929e-05
2	1	0	1	0	7905.66	0.15711	0.156776	0.0920042	7	0.00860196	11	1.44241e-05
2	1	0	1	0	7913.15	0.164601	0.164285	0.0708655	7	0.0093383	11	1.16421e-05
2	1	0	1	0	7920.64	0.172091	0.171832	0.0594489	7	0.00995304	11	1.02152e-05
2	1	0	1	0	7928.13	0.179582	0.179268	0.0534763	7	0.0105008	11	9.58661e-06
2	1	0	1	0	7935.62	0.187073	0.186766	0.0500364	7	0.0110106	11	9.34511e-06
2	1	0	1	0	7943.11	0.194564	0.194253	0.0476211	7	0.0114997	11	9.25054e-06
2	1	0	1	0	7950.6	0.202055	0.20183	0.0467326	7	0.0119763	11	9.43202e-06
2	1	0	1	0	7958.09	0.209546	0.209253	0.046662	7	0.0124479	11	9.76418e-06
2	1	0	1	0	7965.58	0.217037	0.216735	0.0467579	7	0.0129168	11	1.01341e-05
2	1	0	1	0	7973.08	0.224528	0.224217	0.0470795	7	0.0133868	11	1.0556e-05
2	1	0	1	0	7980.57	0.232019	0.231705	0.0475609	7	0.0138588	11	1.10201e-05
2	1	0	1	0	7988.06	0.23951	0.239259	0.0478157	7	0.0143346	11	1.14403e-05
2	1	0	1	0	7995.55	0.247001	0.246704	0.0487068	7	0.014814	11	1.20162e-05
2	1	0	1	0	8003.04	0.254492	0.254208	0.0492145	7	0.0152985	11	1.25107e-05
2	1	0	1	0	8010.53	0.261983	0.261678	0.0497263	7	0.0157873	11	1.30123e-05
2	1	0	1	0	8018.02	0.269474	0.269212	0.0507563	7	0.0162811	11	1.36642e-05
2	1	0	1	0	8025.51	0.276965	0.276631	0.051366	7	0.0167796	11	1.42094e-05
2	1	0	1	0	8033	0.284456	0.284166	0.0520694	7	0.0172833	11	1.47963e-05
2	1	0	1	0	8040.49	0.291947	0.291662	0.0530563	7	0.0177912	11	1.54745e-05
2	1	0	1	0	8047.98	0.299438	0.299195	0.0532606	7	0.0183041	11	1.59353e-05
2	1	0	1	0	8054.83	0.293745	0.293448	0.00934016	7	0.018356	11	2.74085e-06
2	1	0	1	0	8062.32	0.286254	0.285964	0.00160978	7	0.0182838	11	4.60339e-07
2	1	0	1	0	8069.81	0.278763	0.2785	-0.00425236	7	0.0181598	11	-1.18428e-06
2	0	0	1	0	8077.3	0.271272	0.270953	-0.00857125	7	0.0179963	11	-2.32241e-06
2	1	0	1	0	8084.79	0.263781	0.26351	-0.0123218	7	0.0177996	11	-3.24692e-06
2	0	0	1	0	8092.28	0.25629	0.255981	-0.0162272	7	0.0175739	11	-4.15386e-06
2	0	0	1	0	8099.77	0.248799	0.24851	-0.0198048	7	0.0173211	11	-4.92169e-06
2	0	0	1	0	8107.26	0.241308	0.241031	-0.0234154	7	0.0170426	11	-5.64383e-06
2	0	0	1	0	8114.75	0.233817	0.233539	-0.0265395	7	0.0167394	11	-6.19801e-06
2	0	0	1	0	8122.25	0.226326	0.226011	-0.0293554	7	0.0164116	11	-6.63464e-06
2	0	0	1	0	8129.74	0.218835	0.218559	-0.0328674	7	0.0160591	11	-7.18345e-06
2	0	0	1	0	8137.23	0.211344	0.211072	-0.0362993	7	0.0156809	11	-7.66176e-06
2	0	0	1	0	8144.72	0.203853	0.20352	-0.0397019	7	0.0152753	11	-8.08012e-06
2	0	0	1	0	8152.21	0.196362	0.196047	-0.0439952	7	0.0148405	11	-8.62513e-06
2	0	0	1	0	8159.7	0.188871	0.188564	-0.0484891	7	0.0143709	11	-9.1433e-06
2	0	0	1	0	8167.19	0.18138	0.18109	-0.0547974	7	0.0138591	11	-9.92326e-06
2	0	0	1	0	8174.68	0.173889	0.17357	-0.0630923	7	0.0132925	11	-1.09509e-05
2	0	0	1	0	8182.17	0.166398	0.16608	-0.074811	7	0.0126483	11	-1.24246e-05
2	0	0	1	0	8189.66	0.158907	0.158612	-0.0936653	7	0.0118862	11	-1.48564e-05
2	0	0	1	0	8197.16	0.151417	0.151111	-0.12359	7	0.0109381	11	-1.86759e-05
2	0	0	1	0	8204.65	0.143926	0.143629	-0.157682	7	0.00974172	11	-2.26478e-05
2	0	0	1	0	8212.14	0.136435	0.136067	-0.182215	7	0.00832083	11	-2.47935e-05
2	0	0	1	0	8219.63	0.128944	0.128656	-0.186746	7	0.00679334	11	-2.4026e-05
2	0	0	1	0	8227.12	0.121453	0.121136	-0.181589	7	0.00527214	11	-2.1997e-05
2	0	0	1	0	8234.61	0.113962	0.113646	-0.169514	7	0.00381554	11	-1.92646e-05
2	0	0	1	0	8242.1	0.106471	0.106181	-0.157992	7	0.00244854	11	-1.67757e-05
2	0	0	1	0	8249.59	0.0989798	0.0986371	-0.147993	7	0.00116894	11	-1.45976e-05
2	0	0	1	0	8257.08	0.0914889	0.0911612	-0.140615	7	-4.21762e-05	11	-1.28186e-05
2	0	0	1	0	8264.57	0.083998	0.0836875	-0.134262	7	-0.00120569	11	-1.1236e-05
2	0	0	1	0	8272.06	0.076507	0.0762064	-0.130475	7	-0.00233108	11	-9.94304e-06
2	0	0	1	0	8279.56	0.069016	0.0687092	-0.124438	7	-0.00341807	11	-8.55006e-06
2	0	0	1	0	8287.05	0.0615251	0.0612101	-0.119153	7	-0.0044651	11	-7.29335e-06
2	0	0	1	0	8294.54	0.0540342	0.0537195	-0.11364	7	-0.00546785	11	-6.1047e-06
2	0	0	1	0	8302.03	0.0465432	0.0462244	-0.108149	7	-0.00643036	11	-4.99913e-06
2	0	0	1	0	8309.52	0.0390522	0.038722	-0.105037	7	-0.00736073	11	-4.06726e-06
2	0	0	1	0	8317.01	0.0315613	0.0312239	-0.103491	7	-0.0082712	11	-3.23141e-06
2	0	0	1	0	8324.5	0.0240703	0.0237215	-0.103272	7	-0.00917473	11	-2.44976e-06
2	0	0	1	0	8331.99	0.0165794	0.016304	-0.104806	7	-0.0100832	11	-1.70876e-06
2	0	0	1	0	8339.48	0.00908843	0.00875491	-0.10739	7	-0.011007	11	-9.40189e-07
2	0	0	1	0	8346.97	0.00159744	0.00123977	-0.111886	7	-0.0119583	11	-1.38713e-07
2	0	0	1	0	8984.97	0.00479371	0.00451973	-0.110019	8	-0.000622108	11	-4.97255e-07
2	0	0	1	0	8992.46	0.0122846	0.0119605	-0.0680567	8	-0.00113575	11	-8.13996e-07
2	0	0	1	0	8999.95	0.0197755	0.0194767	-0.0467488	8	-0.00142701	11	-9.10512e-07
2	0	0	1	0	9007.44	0.0272665	0.0269324	-0.0312789	8	-0.00158762	11	-8.42415e-07
2	0	0	1	0	9014.93	0.0347575	0.0344359	-0.0196125	8	-0.0016483	11	-6.75375e-07
2	0	0	1	0	9022.42	0.0422484	0.0419372	-0.00798548	8	-0.0016218	11	-3.34889e-07
2	0	0	1	0	9029.91	0.0497393	0.0494214	0.00354458	8	-0.00151012	11	1.75178e-07
2	1	0	1	0	9037.41	0.0572303	0.0568932	0.0141023	8	-0.00131406	11	8.02325e-07
2	1	0	1	0	9044.9	0.0647213	0.0644285	0.0250083	8	-0.00103375	11	1.61124e-06
2	1	0	1	0	9052.39	0.0722122	0.0719106	0.0349525	8	-0.000675178	11	2.51346e-06
2	1	0	1	0	9059.88	0.0797031	0.079397	0.0440117	8	-0.000245404	11	3.4944e-06
2	1	0	1	0	9067.37	0.0871941	0.086892	0.0523312	8	0.000247677	11	4.54717e-06
2	1	0	1	0	9074.86	0.0946851	0.0943426	0.060676	8	0.000805876	11	5.72433e-06
2	1	0	1	0	9082.35	0.102176	0.101889	0.0734216	8	0.00143973	11	7.48088e-06
2	1	0	1	0	9089.84	0.109667	0.109369	0.0879892	8	0.00217719	11	9.62333e-06
2	1	0	1	0	9097.33	0.117158	0.116886	0.104639	8	0.00303721	11	1.22308e-05
2	1	0	1	0	9104.82	0.124649	0.124295	0.121519	8	0.00402187	11	1.51042e-05
2	1	0	1	0	9112.32	0.13214	0.131853	0.134738	8	0.00512118	11	1.77657e-05
2	1	0	1	0	9119.81	0.139631	0.139308	0.138241	8	0.00629563	11	1.9258e-05
2	1	0	1	0	9127.3	0.147122	0.146838	0.123951	8	0.00742945	11	1.82006e-05
2	1	0	1	0	9134.79	0.154613	0.154286	0.0950446	8	0.0083843	11	1.46641e-05
2	1	0	1	0	9142.28	0.162104	0.161804	0.0724123	8	0.00913936	11	1.17166e-05
2	1	0	1	0	9149.77	0.169595	0.169252	0.0599992	8	0.00976149	11	1.0155e-05
2	1	0	1	0	9157.26	0.177085	0.176788	0.0530617	8	0.0103103	11	9.38068e-06
2	1	0	1	0	9164.75	0.184576	0.184309	0.0495226	8	0.0108194	11	9.12748e-06
2	1	0	1	0	9172.24	0.192067	0.191741	0.0470448	8	0.0113063	11	9.02041e-06
2	1	0	1	0	9179.73	0.199558	0.199229	0.0463194	8	0.0117816	11	9.22819e-06
2	1	0	1	0	9187.22	0.207049	0.206708	0.0468778	8	0.0122514	11	9.69003e-06
2	1	0	1	0	9194.72	0.21454	0.214263	0.0461414	8	0.0127196	11	9.88639e-06
2	1	0	1	0	9202.21	0.222031	0.221774	0.0466701	8	0.0131883	11	1.03502e-05
2	1	0	1	0	9209.7	0.229522	0.229208	0.0465892	8	0.0136593	11	1.06786e-05
2	1	0	1	0	9217.19	0.237013	0.23667	0.0472605	8	0.0141339	11	1.11851e-05
2	1	0	1	0	9224.68	0.244504	0.24419	0.0486049	8	0.0146126	11	1.18688e-05
2	1	0	1	0	9232.17	0.251995	0.251689	0.048569	8	0.015096	11	1.22243e-05
2	1	0	1	0	9239.66	0.259486	0.259227	0.0496166	8	0.0155845	11	1.2862e-05
2	1	0	1	0	9247.15	0.266977	0.266715	0.050443	8	0.0160776	11	1.34539e-05
2	1	0	1	0	9254.64	0.274468	0.274169	0.0509679	8	0.0165755	11	1.39739e-05
2	1	0	1	0	9262.13	0.281959	0.28166	0.0518158	8	0.0170785	11	1.45944e-05
2	1	0	1	0	9269.63	0.28945	0.289163	0.0520632	8	0.0175863	11	1.50548e-05
2	1	0	1	0	9277.12	0.296941	0.29666	0.0530954	8	0.0180987	11	1.57512e-05
2	1	0	1	0	9283.96	0.296242	0.295949	0.0146002	8	0.0183295	11	4.32092e-06
2	1	0	1	0	9291.45	0.288751	0.288449	0.00431739	8	0.01828	11	1.24535e-06
2	1	0	1	0	9298.94	0.28126	0.280937	-0.00248647	8	0.0181713	11	-6.98542e-07
2	1	0	1	0	9306.43	0.273769	0.273448	-0.0064502	8	0.0180206	11	-1.7638e-06
2	0	0	1	0	9313.92	0.266278	0.265967	-0.0107081	8	0.0178352	11	-2.84801e-06
2	0	0	1	0	9321.41	0.258787	0.258529	-0.0149678	8	0.0176191	11	-3.86961e-06
2	0	0	1	0	9328.9	0.251296	0.250987	-0.0178869	8	0.0173752	11	-4.48939e-06
2	0	0	1	0	9336.4	0.243805	0.243483	-0.0215613	8	0.0171053	11	-5.24981e-06
2	0	0	1	0	9343.89	0.236314	0.236008	-0.0246262	8	0.0168108	11	-5.81197e-06
2	0	0	1	0	9351.38	0.228823	0.228579	-0.0276748	8	0.0164917	11	-6.32588e-06
2	0	0	1	0	9358.87	0.221332	0.221027	-0.0312655	8	0.0161484	11	-6.91053e-06
2	0	0	1	0	9366.36	0.213841	0.213543	-0.0343878	8	0.01578	11	-7.34325e-06
2	0	0	1	0	9373.85	0.20635	0.206079	-0.0379112	8	0.0153856	11	-7.81269e-06
2	0	0	1	0	9381.34	0.198859	0.198571	-0.0419442	8	0.014963	11	-8.32889e-06
2	0	0	1	0	9388.83	0.191368	0.191046	-0.0461365	8	0.0145085	11	-8.8142e-06
2	0	0	1	0	9396.32	0.183877	0.183578	-0.0514967	8	0.0140169	11	-9.45364e-06
2	0	0	1	0	9403.81	0.176386	0.176081	-0.058077	8	0.0134778	11	-1.02262e-05
2	0	0	1	0	9411.3	0.168895	0.168548	-0.068333	8	0.0128745	11	-1.15174e-05
2	0	0	1	0	9418.8	0.161404	0.161102	-0.083857	8	0.012176	11	-1.35096e-05
2	0	0	1	0	9426.29	0.153913	0.1536	-0.107679	8	0.0113279	11	-1.65396e-05
2	0	0	1	0	9433.78	0.146423	0.146097	-0.141288	8	0.0102575	11	-2.06417e-05
2	0	0	1	0	9441.27	0.138932	0.138612	-0.171067	8	0.00894011	11	-2.3712e-05
2	0	0	1	0	9448.76	0.131441	0.131144	-0.183051	8	0.00746058	11	-2.40059e-05
2	0	0	1	0	9456.25	0.12395	0.123676	-0.182158	8	0.00594582	11	-2.25286e-05
2	0	0	1	0	9463.74	0.116459	0.116158	-0.173536	8	0.00447249	11	-2.01577e-05
2	0	0	1	0	9471.23	0.108968	0.108648	-0.162575	8	0.00307308	11	-1.76635e-05
2	0	0	1	0	9478.72	0.101477	0.10117	-0.150416	8	0.00175857	11	-1.52176e-05
2	0	0	1	0	9486.21	0.0939859	0.0936786	-0.143553	8	0.000521175	11	-1.34479e-05
2	0	0	1	0	9493.71	0.0864949	0.0862208	-0.136925	8	-0.000661925	11	-1.18058e-05
2	0	0	1	0	9501.2	0.079004	0.078657	-0.133055	8	-0.00180425	11	-1.04657e-05
2	0	0	1	0	9508.69	0.071513	0.0711863	-0.127614	8	-0.00291063	11	-9.08435e-06
2	0	0	1	0	9516.18	0.0640221	0.0637338	-0.121877	8	-0.00398056	11	-7.76766e-06
2	0	0	1	0	9523.67	0.0565311	0.0561965	-0.116247	8	-0.0050097	11	-6.53264e-06
2	0	0	1	0	9531.16	0.0490402	0.0487366	-0.111684	8	-0.00599849	11	-5.44308e-06
2	0	0	1	0	9538.65	0.0415492	0.0412394	-0.10807	8	-0.00695073	11	-4.45676e-06
2	0	0	1	0	9546.14	0.0340582	0.0337465	-0.104847	8	-0.00787712	11	-3.53821e-06
2	0	0	1	0	9553.63	0.0265673	0.0262623	-0.1035	8	-0.0087895	11	-2.71813e-06
2	0	0	1	0	9561.12	0.0190764	0.0187408	-0.104718	8	-0.00970014	11	-1.96249e-06
2	0	0	1	0	9568.61	0.0115854	0.0112861	-0.106218	8	-0.0106201	11	-1.19878e-06
2	0	0	1	0	9576.11	0.00409444	0.003789	-0.10976	8	-0.0115603	11	-4.15882e-07
2	0	0	0	0	9580.17	2.44065e-05	-0.000363498	-0.111204	8	-0.0120862	11	4.04224e-08