File: Figure_codes/Fig_3-5/rawdata_trumpetplot_data/before 10th/20221101_1-115_002_TrumpetPlot_ParaChange_16_CV_C01_6.csv
mode,ox/red,error,control changes,counter inc.,time/s,control/V,Ewe/V,<I>/mA,cycle number,(Q-Qo)/C,I Range,P/W,log(|I|),Tafel slope mV/dec,alpha_eff,dI/d(E-IR),E-IR/V,
2,1,0,1,0,8608.85,2.44065e-05,-0.000821594,66.5148,7,0.0000000E+000,10,-5.46481e-05,-1.17708, , , ,-0.000821594,
2,1,0,1,0,8608.85,0.00312067,0.00282833,58.8333,7,0.000190603,10,0.0001664,-1.23038, , , ,0.00282833,
2,1,0,1,0,8608.86,0.00711584,0.00680379,55.8457,7,0.000418852,10,0.000379963,-1.25301, , , ,0.00680379,
2,1,0,1,0,8608.86,0.011111,0.010775,54.6244,7,0.000639426,10,0.000588578,-1.26261,-0.402976,-0.146411,-321.326,0.010775,
2,1,0,1,0,8608.86,0.0151062,0.0147484,54.0115,7,0.000856512,10,0.000796581,-1.26751,-0.900883,-0.0654913,-139.859,0.0147484,
2,1,0,1,0,8608.87,0.0191014,0.0187578,53.7148,7,0.00107189,10,0.00100757,-1.26991,-1.7724,-0.0332882,-70.2328,0.0187578,
2,1,0,1,0,8608.87,0.0231465,0.022799,53.6087,7,0.00128654,10,0.00122222,-1.27077,-3.70193,-0.0159376,-33.4278,0.022799,
2,1,0,1,0,8608.88,0.0271416,0.0267564,53.5019,7,0.00150074,10,0.00143152,-1.27163,-8.09796,-0.00728578,-15.2386,0.0267564,
2,1,0,1,0,8608.88,0.0311368,0.0308008,53.4749,7,0.00171468,10,0.00164707,-1.27185,-17.4821,-0.00337489,-7.05345,0.03080079,
2,1,0,1,0,8608.88,0.035132,0.034755,53.471,7,0.00192854,10,0.00185839,-1.27188,30.8206,0.0019143,3.99949,0.034755,
2,1,0,1,0,8608.89,0.0391272,0.0387443,53.4962,7,0.00214248,10,0.00207267,-1.27168,11.0965,0.00531701,11.1148,0.0387443,
2,1,0,1,0,8608.89,0.0431223,0.0428099,53.5661,7,0.00235661,10,0.00229316,-1.27111,6.67951,0.00883298,18.4836,0.0428099,
2,1,0,1,0,8608.9,0.0471175,0.0467663,53.6524,7,0.00257104,10,0.00250912,-1.27041,4.71109,0.0125236,26.2491,0.0467663,
2,1,0,1,0,8608.9,0.0511127,0.0507311,53.7663,7,0.00278588,10,0.00272762,-1.26949,3.95032,0.0149355,31.368,0.0507311,
2,1,0,1,0,8608.9,0.0551079,0.0547257,53.9157,7,0.00300125,10,0.00295057,-1.26828,3.09188,0.0190823,40.1946,0.0547257,
2,1,0,1,0,8608.91,0.059103,0.0587054,54.0648,7,0.00321723,10,0.00317389,-1.26709,2.60887,0.0226152,47.7906,0.0587054,
2,1,0,1,0,8608.91,0.0631481,0.062736,54.2943,7,0.00343389,10,0.00340621,-1.26525,2.06784,0.0285322,60.5747,0.062736,
2,1,0,1,0,8608.92,0.0671433,0.0667252,54.5307,7,0.00365146,10,0.00363857,-1.26336,1.63307,0.0361284,77.1002,0.0667252,
2,1,0,1,0,8608.92,0.0711385,0.0707346,54.8854,7,0.00387033,10,0.0038823,-1.26054,1.40654,0.0419468,90.0593,0.0707346,
2,1,0,1,0,8608.92,0.0751337,0.0747748,55.3037,7,0.00409073,10,0.00413532,-1.25725,1.21421,0.0485911,104.999,0.0747748,
2,1,0,1,0,8608.93,0.0791288,0.0787672,55.7381,7,0.00431284,10,0.00439033,-1.25385,1.0967,0.0537976,117.201,0.07876721,
2,1,0,1,0,8608.93,0.083124,0.0827755,56.2159,7,0.00453679,10,0.0046533,-1.25014,0.995063,0.0592927,130.374,0.0827755,
2,1,0,1,0,8608.94,0.0871192,0.086803,56.7686,7,0.00476279,10,0.00492769,-1.24589,0.890741,0.066237,147.104,0.086803,
2,1,0,1,0,8608.94,0.0911144,0.0907859,57.3911,7,0.00499113,10,0.0052103,-1.24116,0.801835,0.0735812,165.194,0.0907859,
2,1,0,1,0,8608.94,0.0951095,0.0947624,58.091,7,0.00522215,10,0.00550484,-1.23589,0.731472,0.0806593,183.259,0.0947624,
2,1,0,1,0,8608.95,0.0991047,0.0987559,58.8558,7,0.0054561,10,0.00581235,-1.23021,0.669107,0.0881772,203.04,0.0987559,
2,1,0,1,0,8608.95,0.103114,0.102739,59.689,7,0.00569325,10,0.00613237,-1.22411,0.63238,0.0932983,217.808,0.102739,
2,1,0,1,0,8608.96,0.107145,0.106793,60.6412,7,0.00593407,10,0.00647603,-1.21723,0.599148,0.0984731,233.28,0.106793,
2,1,0,1,0,8608.96,0.11114,0.110781,61.58,7,0.00617856,10,0.00682188,-1.21056,0.573571,0.102864,247.511,0.110781,
2,1,0,1,0,8608.96,0.115135,0.114739,62.5844,7,0.00642701,10,0.0071809,-1.20353,0.562992,0.104797,256.327,0.114739,
2,1,0,1,0,8608.97,0.119131,0.118795,63.6632,7,0.00667961,10,0.0075629,-1.19611,0.543507,0.108554,269.937,0.118795,
2,1,0,1,0,8608.97,0.123126,0.122822,64.7498,7,0.00693652,10,0.00795269,-1.18876,0.530674,0.111179,281.228,0.1228218,
2,1,0,1,0,8608.98,0.127121,0.126792,65.9019,7,0.00719793,10,0.00835584,-1.1811,0.520342,0.113387,291.897,0.126792,
2,1,0,1,0,8608.98,0.131116,0.130783,67.0964,7,0.00746399,10,0.00877509,-1.1733,0.507842,0.116178,304.447,0.130783,
2,1,0,1,0,8608.98,0.135111,0.134744,68.3186,7,0.00773494,10,0.00920551,-1.16546,0.502947,0.117309,313.012,0.134744,
2,1,0,1,0,8608.99,0.139106,0.13876,69.6021,7,0.0080109,10,0.00965797,-1.15738,0.4927,0.119748,325.618,0.13876,
2,1,0,1,0,8608.99,0.143102,0.142759,70.8997,7,0.008292,10,0.0101215,-1.14936,0.486441,0.121289,336,0.1427585,
2,1,0,1,0,8609,0.147147,0.14682,72.3182,7,0.0085786,10,0.0106177,-1.14075,0.480205,0.122864,346.9,0.14682,
2,1,0,1,0,8609,0.151142,0.150807,73.7157,7,0.0088708,10,0.0111168,-1.13244,0.471449,0.125146,360.189,0.150807,
2,1,0,1,0,8609,0.155137,0.154785,75.1611,7,0.00916867,10,0.0116338,-1.12401,0.468643,0.125895,369.617,0.154785,
2,1,0,1,0,8609.01,0.159132,0.158783,76.6717,7,0.00947248,10,0.0121742,-1.11537,0.464174,0.127107,380.569,0.158783,
2,1,0,1,0,8609.01,0.163127,0.162773,78.2146,7,0.00978239,10,0.0127312,-1.10671,0.457533,0.128952,393.867,0.1627726,
2,1,0,1,0,8609.02,0.167123,0.166798,79.8014,7,0.0100986,10,0.0133107,-1.09799,0.454829,0.129719,404.246,0.166798,
2,1,0,1,0,8609.02,0.171118,0.170749,81.449,7,0.0104212,10,0.0139073,-1.08911,0.456174,0.129336,411.192,0.170749,
2,1,0,1,0,8609.02,0.175113,0.174726,83.1162,7,0.0107505,10,0.0145225,-1.08031,0.456056,0.12937,419.576,0.174726,
2,1,0,1,0,8609.03,0.179108,0.178788,84.8,7,0.0110865,10,0.0151612,-1.0716,0.461528,0.127836,423.067,0.178788,
2,1,0,1,0,8609.03,0.183103,0.182746,86.493,7,0.0114293,10,0.0158063,-1.06302,0.472556,0.124853,421.249,0.182746,
2,1,0,1,0,8609.04,0.187146,0.1868,88.2398,7,0.0117788,10,0.0164832,-1.05434,0.485486,0.121528,417.838,0.1868,
2,1,0,1,0,8609.04,0.191143,0.190774,89.8765,7,0.0121352,10,0.0171461,-1.04635,0.509676,0.11576,405.291,0.190774,
2,1,0,1,0,8609.04,0.195139,0.194779,91.4816,7,0.0124981,10,0.0178187,-1.03867,0.543716,0.108513,386.638,0.194779,
2,1,0,1,0,8609.05,0.199134,0.19882,93.0075,7,0.0128672,10,0.0184918,-1.03148,0.586135,0.100659,364.436,0.19882,
2,1,0,1,0,8609.05,0.203129,0.2028,94.4257,7,0.0132423,10,0.0191495,-1.02491,0.647803,0.091077,334.609,0.2028,
2,1,0,1,0,8609.06,0.207124,0.206817,95.7231,7,0.0136227,10,0.0197971,-1.01898,0.740828,0.0796406,296.377,0.206817,
2,1,0,1,0,8609.06,0.211119,0.210809,96.8454,7,0.014008,10,0.0204159,-1.01392,0.904391,0.0652373,245.369,0.210809,
2,1,0,1,0,8609.06,0.215115,0.214797,97.7428,7,0.0143974,10,0.0209949,-1.00992,1.24417,0.0474213,179.798,0.214797,
2,1,0,1,0,8609.07,0.21911,0.218791,98.3494,7,0.0147897,10,0.0215179,-1.00723,2.24488,0.026282,100.154,0.218791,
2,1,0,1,0,8609.07,0.223105,0.222781,98.5935,7,0.0151837,10,0.0219648,-1.00615,27.5622,0.00214062,8.17106,0.222781,
2,1,0,1,0,8609.08,0.227108,0.226803,98.4473,7,0.0155779,10,0.0223282,-1.0068,-2.21366,-0.0266527,-101.449,0.226803,
2,1,0,1,0,8609.08,0.231145,0.230845,97.8739,7,0.0159707,10,0.0225937,-1.00933,-1.003,-0.0588235,-222.206,0.230845,
2,1,0,1,0,8609.08,0.23514,0.234882,96.7169,7,0.0163599,10,0.0227171,-1.0145,-0.62202,-0.0948523,-353.778,0.234882,
2,1,0,1,0,8609.09,0.239136,0.238895,95.0129,7,0.0167433,10,0.0226981,-1.02222,-0.441621,-0.133599,-489.535,0.238895,
2,1,0,1,0,8609.09,0.243131,0.242912,92.7484,7,0.0171188,10,0.0225297,-1.03269,-0.341204,-0.172917,-618.697,0.242912,
2,1,0,1,0,8609.1,0.247126,0.246899,90.0151,7,0.0174842,10,0.0222246,-1.04568,-0.27974,-0.21091,-732.667,0.2468989,
2,1,0,1,0,8609.1,0.251121,0.250876,86.8215,7,0.0178376,10,0.0217815,-1.06137,-0.238122,-0.247772,-830.984,0.250876,
2,1,0,1,0,8609.1,0.255116,0.254925,83.2681,7,0.0181775,10,0.0212271,-1.07952,-0.209596,-0.281494,-906.869,0.254925,
2,1,0,1,0,8609.11,0.259111,0.258895,79.4664,7,0.0185026,10,0.0205735,-1.09982,-0.190813,-0.309203,-952.639,0.258895,
2,1,0,1,0,8609.11,0.263107,0.262896,75.5077,7,0.0188122,10,0.0198507,-1.12201,-0.178822,-0.329937,-968.89,0.262896,
2,1,0,1,0,8609.12,0.267102,0.266898,71.5586,7,0.0191059,10,0.0190988,-1.14534,-0.171038,-0.344952,-962.214,0.266898,
2,1,0,1,0,8609.12,0.271147,0.270936,67.7552,7,0.0193841,10,0.0183573,-1.16906,-0.167285,-0.352692,-932.76,0.270936,
2,1,0,1,0,8609.12,0.275142,0.274931,64.0368,7,0.0196473,10,0.0176057,-1.19357,-0.167062,-0.353163,-884.887,0.274931,
2,1,0,1,0,8609.13,0.279137,0.278908,60.5722,7,0.0198961,10,0.0168941,-1.21773,-0.168444,-0.350264,-832.205,0.278908,
2,1,0,1,0,8609.13,0.283132,0.282935,57.3681,7,0.0201316,10,0.0162314,-1.24133,-0.17527,-0.336623,-758.88,0.282935,
2,1,0,1,0,8609.14,0.287128,0.286882,54.4854,7,0.0203549,10,0.0156309,-1.26372,-0.184136,-0.320416,-686.696,0.286882,
2,1,0,1,0,8609.14,0.291123,0.290902,51.9169,7,0.0205674,10,0.0151027,-1.28469,-0.196395,-0.300415,-614.213,0.290902,
2,1,0,1,0,8609.14,0.295118,0.294857,49.6204,7,0.0207701,10,0.0146309,-1.30434,-0.204241,-0.288874,-572.093,0.294857,
2,1,0,1,0,8609.15,0.298913,0.298667,47.7053,7,0.0209549,10,0.014248,-1.32143,-0.0950472,-0.620744,-1145.56,0.2986666,
2,1,0,1,0,8609.15,0.300012,0.299651,47.18,7,0.0210071,10,0.0141375,-1.32624,0.000983297,60.0022,92949.6,0.299651,
2,1,0,1,0,8609.15,0.298714,0.298737,42.941,7,0.021064,10,0.0128281,-1.36713,0.0238199,2.47692,3209.25,0.2987369,
2,1,0,1,0,8609.15,0.294718,0.294659,31.1876,7,0.0212103,10,0.0091897,-1.50602,0.0254723,2.31624,2507.39,0.294659,
2,1,0,1,0,8609.16,0.290723,0.290651,21.9821,7,0.0213151,10,0.00638912,-1.65793,0.0228891,2.57765,2135.22,0.290651,
2,1,0,1,0,8609.16,0.286728,0.286638,14.5504,7,0.021387,10,0.00417069,-1.83713,0.0167731,3.51753,1725.88,0.286638,
2,1,0,1,0,8609.17,0.282733,0.282588,8.4594,7,0.0214321,10,0.00239053,-2.07266,0.0109866,5.37019,1413.02,0.282588,
2,1,0,1,0,8609.17,0.278738,0.278574,3.42811,7,0.0214552,10,0.000954983,-2.46495,0.0300328,1.96452,1163.81,0.278574,
2,1,0,1,0,8609.17,0.274742,0.274561,-0.754224,7,0.0214599,10,-0.00020708,-3.1225,0.226779,0.260165,973.194,0.274561,
2,0,0,1,0,8609.18,0.270747,0.270506,-4.22406,7,0.0214494,10,-0.00114263,-2.37427,-0.0359203,-1.64253,810.532,0.270506,
2,0,0,1,0,8609.18,0.266702,0.266512,-7.18543,7,0.0214261,10,-0.001915,-2.14355,-0.0134796,-4.37699,682.186,0.266512,
2,0,0,1,0,8609.19,0.262707,0.262471,-9.62415,7,0.0213922,10,-0.00252606,-2.01664,-0.0317744,-1.85684,578.241,0.262471,
2,0,0,1,0,8609.19,0.258712,0.258508,-11.705,7,0.0213492,10,-0.00302583,-1.93163,-0.0499928,-1.18017,489.552,0.258508,
2,0,0,1,0,8609.19,0.254717,0.254484,-13.4885,7,0.0212986,10,-0.0034326,-1.87004,-0.0693622,-0.850608,421.443,0.254484,
2,0,0,1,0,8609.2,0.250722,0.250492,-15.0283,7,0.0212413,10,-0.00376447,-1.82309,-0.0911617,-0.647202,364.315,0.250492,
2,0,0,1,0,8609.2,0.246726,0.24649,-16.3594,7,0.0211784,10,-0.00403242,-1.78623,-0.115041,-0.512861,318.238,0.24649,
2,0,0,1,0,8609.21,0.242731,0.242509,-17.5338,7,0.0211104,10,-0.0042521,-1.75612,-0.140475,-0.420002,281.589,0.2425088,
2,0,0,1,0,8609.21,0.238736,0.238477,-18.5824,7,0.0210381,10,-0.00443149,-1.7309,-0.167447,-0.35235,251.632,0.238477,
2,0,0,1,0,8609.21,0.234741,0.23452,-19.5258,7,0.0209617,10,-0.00457919,-1.70939,-0.193272,-0.30527,230.225,0.23452,
2,0,0,1,0,8609.22,0.230746,0.230487,-20.3862,7,0.0208818,10,-0.00469875,-1.69066,-0.222415,-0.26527,209.292,0.230487,
2,0,0,1,0,8609.22,0.226701,0.226442,-21.2329,7,0.0207985,10,-0.00480801,-1.67299,-0.250141,-0.235867,193.678,0.226442,
2,0,0,1,0,8609.23,0.222705,0.222419,-21.9432,7,0.0207121,10,-0.00488059,-1.6587,-0.27933,-0.211219,179.648,0.222419,
2,0,0,1,0,8609.23,0.21871,0.218487,-22.6309,7,0.0206229,10,-0.00494457,-1.6453,-0.31123,-0.189571,166.755,0.218487,
2,0,0,1,0,8609.23,0.214715,0.214468,-23.2639,7,0.020531,10,-0.00498936,-1.63332,-0.332333,-0.177533,160.754,0.214468,
2,0,0,1,0,8609.24,0.21072,0.210456,-23.8986,7,0.0204366,10,-0.0050296,-1.62163,-0.355202,-0.166103,154.583,0.210456,
2,0,0,1,0,8609.24,0.206725,0.206469,-24.5073,7,0.0203398,10,-0.00506,-1.6107,-0.367392,-0.160592,153.377,0.206469,
2,0,0,1,0,8609.25,0.202729,0.202486,-25.1045,7,0.0202405,10,-0.00508331,-1.60025,-0.379227,-0.15558,152.38,0.202486,
2,0,0,1,0,8609.25,0.198734,0.198443,-25.7219,7,0.0201387,10,-0.00510431,-1.5897,-0.384844,-0.153309,153.88,0.198443,
2,0,0,1,0,8609.25,0.194739,0.194476,-26.3337,7,0.0200346,10,-0.00512125,-1.57949,-0.383314,-0.153921,158.28,0.194476,
2,0,0,1,0,8609.26,0.190744,0.190468,-26.9695,7,0.0199279,10,-0.00513683,-1.56913,-0.375056,-0.15731,165.912,0.190468,
2,0,0,1,0,8609.26,0.186735,0.186503,-27.6342,7,0.0198187,10,-0.00515387,-1.55855,-0.367216,-0.160668,173.686,0.186503,
2,0,0,1,0,8609.27,0.182704,0.182479,-28.3704,7,0.0197065,10,-0.005177,-1.54713,-0.35831,-0.164662,182.546,0.182479,
2,0,0,1,0,8609.27,0.178709,0.17848,-29.1118,7,0.0195915,10,-0.00519589,-1.53593,-0.346357,-0.170345,193.863,0.1784804,
2,0,0,1,0,8609.27,0.174713,0.17445,-29.8936,7,0.0194734,10,-0.00521493,-1.52442,-0.332909,-0.177226,207.477,0.1744498,
2,0,0,1,0,8609.28,0.170718,0.170467,-30.7431,7,0.0193521,10,-0.00524068,-1.51225,-0.31629,-0.186538,224.767,0.170467,
2,0,0,1,0,8609.28,0.166723,0.166503,-31.6851,7,0.0192272,10,-0.00527566,-1.49915,-0.295801,-0.199458,247.764,0.166503,
2,0,0,1,0,8609.29,0.162728,0.162484,-32.7072,7,0.0190983,10,-0.00531441,-1.48536,-0.277038,-0.212967,273.271,0.162484,
2,0,0,1,0,8609.29,0.158733,0.158497,-33.8461,7,0.0189651,10,-0.00536451,-1.47049,-0.261074,-0.22599,300.1,0.158497,
2,0,0,1,0,8609.29,0.154737,0.154481,-35.1115,7,0.0188271,10,-0.00542407,-1.45455,-0.245104,-0.240715,331.515,0.154481,
2,0,0,1,0,8609.3,0.150742,0.150526,-36.4798,7,0.0186838,10,-0.00549116,-1.43795,-0.229766,-0.256783,367.957,0.150526,
2,0,0,1,0,8609.3,0.146747,0.14651,-38.0028,7,0.0185348,10,-0.0055678,-1.42018,-0.218531,-0.269984,403.021,0.14651,
2,0,0,1,0,8609.31,0.142702,0.142464,-39.7457,7,0.0183792,10,-0.00566232,-1.40071,-0.208255,-0.283307,441.204,0.142464,
2,0,0,1,0,8609.31,0.138707,0.138459,-41.569,7,0.0182164,10,-0.00575558,-1.38123,-0.201745,-0.292449,476.027,0.138459,
2,0,0,1,0,8609.31,0.134712,0.134532,-43.5365,7,0.018046,10,-0.00585704,-1.36115,-0.197508,-0.298722,509.316,0.134532,
2,0,0,1,0,8609.32,0.130717,0.130454,-45.6462,7,0.0178675,10,-0.00595471,-1.34059,-0.193266,-0.305279,545.283,0.130454,
2,0,0,1,0,8609.32,0.126721,0.12649,-47.8815,7,0.0176802,10,-0.00605652,-1.31983,-0.192881,-0.305888,572.574,0.12649,
2,0,0,1,0,8609.33,0.122726,0.122556,-50.2406,7,0.0174838,10,-0.00615727,-1.29895,-0.192208,-0.306959,602.481,0.122556,
2,0,0,1,0,8609.33,0.118731,0.118563,-52.6797,7,0.0172777,10,-0.00624587,-1.27836,-0.194487,-0.303362,623.919,0.118563,
2,0,0,1,0,8609.33,0.114736,0.114525,-55.2428,7,0.0170617,10,-0.00632669,-1.25772,-0.199922,-0.295116,635.396,0.114525,
2,0,0,1,0,8609.34,0.110741,0.110545,-57.8294,7,0.0168353,10,-0.00639278,-1.23785,-0.205638,-0.286912,646.262,0.110545,
2,0,0,1,0,8609.34,0.106745,0.106554,-60.4079,7,0.0165985,10,-0.00643671,-1.21891,-0.21433,-0.275277,647.598,0.1065541,
2,0,0,1,0,8609.35,0.102703,0.102496,-63.0634,7,0.0163514,10,-0.00646374,-1.20022,-0.226783,-0.260161,637.381,0.102496,
2,0,0,1,0,8609.35,0.0987052,0.0985099,-65.6143,7,0.0160937,10,-0.00646365,-1.183,-0.238709,-0.247162,629.92,0.0985099,
2,0,0,1,0,8609.35,0.09471,0.0945938,-67.9967,7,0.0158262,10,-0.00643207,-1.16751,-0.255577,-0.23085,610.907,0.0945938,
2,0,0,1,0,8609.36,0.0907148,0.0906003,-70.4575,7,0.0155492,10,-0.00638347,-1.15207,-0.271729,-0.217128,595.149,0.0906003,
2,0,0,1,0,8609.36,0.0867197,0.0865824,-72.785,7,0.0152624,10,-0.0063019,-1.13796,-0.289664,-0.203685,576.347,0.0865824,
2,0,0,1,0,8609.37,0.0827245,0.0826303,-75.065,7,0.0149665,10,-0.00620264,-1.12456,-0.314712,-0.187473,546.842,0.0826303,
2,0,0,1,0,8609.37,0.0787293,0.0786145,-77.2064,7,0.0146617,10,-0.00606954,-1.11235,-0.339084,-0.173998,522.023,0.0786145,
2,0,0,1,0,8609.37,0.0747341,0.0746221,-79.1951,7,0.0143486,10,-0.0059097,-1.1013,-0.371006,-0.159027,489.768,0.0746221,
2,0,0,1,0,8609.38,0.070739,0.0706275,-81.1139,7,0.0140278,10,-0.00572887,-1.0909,-0.406429,-0.145167,457.885,0.07062754,
2,0,0,1,0,8609.38,0.0667438,0.0666468,-82.8932,7,0.0136996,10,-0.00552457,-1.08148,-0.447478,-0.13185,424.925,0.06664677,
2,0,0,1,0,8609.39,0.0627403,0.0625822,-84.5473,7,0.0133645,10,-0.00529116,-1.0729,-0.506735,-0.116432,382.412,0.0625822,
2,0,0,1,0,8609.39,0.0587035,0.0584721,-86.0576,7,0.013023,10,-0.00503197,-1.06521,-0.59124,-0.0997903,333.212,0.0584721,
2,0,0,1,0,8609.39,0.0547083,0.0545094,-87.2776,7,0.0126762,10,-0.00475745,-1.0591,-0.715786,-0.0824269,279.169,0.0545094,
2,0,0,1,0,8609.4,0.0507132,0.0504735,-88.2824,7,0.0123249,10,-0.00445592,-1.05413,-0.907334,-0.0650257,222.878,0.0504735,
2,0,0,1,0,8609.4,0.046718,0.0464259,-89.0576,7,0.0119701,10,-0.00413458,-1.05033,-1.19871,-0.0492196,170.259,0.0464259,
2,0,0,1,0,8609.41,0.0427228,0.0425024,-89.6169,7,0.0116126,10,-0.00380893,-1.04761,-1.74355,-0.0338391,117.83,0.04250237,
2,0,0,1,0,8609.41,0.0387276,0.038476,-90.0075,7,0.0112533,10,-0.00346313,-1.04572,-3.04204,-0.0193949,67.8182,0.038476,
2,0,0,1,0,8609.41,0.0347325,0.0344666,-90.1684,7,0.0108928,10,-0.0031078,-1.04495,-9.82774,-0.00600342,21.0362,0.0344666,
2,0,0,1,0,8609.42,0.0307373,0.0304742,-90.1395,7,0.0105322,10,-0.00274693,-1.04509,8.66916,0.00680573,-23.8558,0.03047418,
2,0,0,1,0,8609.42,0.0267421,0.0264743,-89.9541,7,0.010172,10,-0.00238147,-1.04598,3.81216,0.0154768,-54.1991,0.0264743,
2,0,0,1,0,8609.43,0.022747,0.0224671,-89.6255,7,0.00981281,10,-0.00201362,-1.04757,2.43764,0.0242038,-84.5045,0.0224671,
2,0,0,1,0,8609.43,0.0187018,0.018394,-89.2973,7,0.00945498,10,-0.00164254,-1.04916,1.87807,0.0314152,-109.212,0.018394,
2,0,0,1,0,8609.43,0.0147067,0.0144546,-88.7857,7,0.00909887,10,-0.00128336,-1.05166,1.57298,0.0375084,-129.671,0.0144546,
2,0,0,1,0,8609.44,0.0107115,0.0104675,-88.206,7,0.00874491,10,-0.000923295,-1.0545,1.31835,0.0447529,-153.807,0.0104675,
2,0,0,1,0,8609.44,0.00671632,0.00644855,-87.5484,7,0.00839344,10,-0.000564561,-1.05775,1.2132,0.0486316,-165.97,0.00644855,
2,0,0,1,0,8609.45,0.00272115,0.00241265,-86.8393,7,0.00804474,10,-0.000209512,-1.06128,1.08992,0.0541322,-183.227,0.00241265,
2,0,0,1,0,8609.45,-0.00127403,-0.00159145,-86.1226,7,0.0076988,10,0.00013706,-1.06488,0.98498,0.0598997,-200.878,-0.00159145,
2,0,0,1,0,8609.45,-0.0052692,-0.00555207,-85.2707,7,0.00735608,10,0.000473429,-1.0692,0.881163,0.0669569,-222.241,-0.00555207,
2,0,0,1,0,8609.46,-0.00926438,-0.00956677,-84.3313,7,0.00701694,10,0.000806778,-1.07401,0.772296,0.0763955,-250.747,-0.00956677,
2,0,0,1,0,8609.46,-0.0132596,-0.0135953,-83.2817,7,0.00668177,10,0.00113224,-1.07945,0.706504,0.0835098,-270.745,-0.0135953,
2,0,0,1,0,8609.47,-0.0172547,-0.0175856,-82.1121,7,0.00635107,10,0.00144399,-1.08559,0.63679,0.0926522,-296.244,-0.0175856,
2,0,0,1,0,8609.47,-0.0212915,-0.0216459,-80.9134,7,0.00602516,10,0.00175144,-1.09198,0.574988,0.102611,-323.043,-0.0216459,
2,0,0,1,0,8609.47,-0.025295,-0.0256394,-79.5699,7,0.0057043,10,0.00204012,-1.09925,0.530957,0.11112,-343.993,-0.0256394,
2,0,0,1,0,8609.48,-0.0292902,-0.0296042,-78.1101,7,0.00538907,10,0.00231239,-1.10729,0.492144,0.119884,-364.752,-0.0296042,
2,0,0,1,0,8609.48,-0.0332854,-0.033621,-76.596,7,0.00507978,10,0.00257524,-1.11579,0.469481,0.125671,-375.374,-0.033621,
2,0,0,1,0,8609.49,-0.0372805,-0.0376379,-75.0803,7,0.00477658,10,0.00282586,-1.12447,0.464082,0.127133,-372.586,-0.0376379,
2,0,0,1,0,8609.49,-0.0412757,-0.0415953,-73.5804,7,0.00447942,10,0.0030606,-1.13324,0.468807,0.125851,-361.84,-0.0415953,
2,0,0,1,0,8609.49,-0.0452709,-0.0455824,-72.1568,7,0.00418811,10,0.00328908,-1.14172,0.482646,0.122243,-344.91,-0.0455824,
2,0,0,1,0,8609.5,-0.0492661,-0.0495823,-70.8206,7,0.00390233,10,0.00351145,-1.14984,0.513165,0.114973,-318.569,-0.0495823,
2,0,0,1,0,8609.5,-0.0532612,-0.0535758,-69.5832,7,0.00362167,10,0.00372797,-1.1575,0.552686,0.106751,-290.81,-0.05357578,
2,0,0,1,0,8609.51,-0.0572564,-0.057617,-68.4764,7,0.00334569,10,0.00394541,-1.16446,0.619153,0.0952915,-255.667,-0.05761699,
2,0,0,1,0,8609.51,-0.0612544,-0.0615946,-67.5003,7,0.00307389,10,0.00415765,-1.17069,0.695831,0.0847907,-224.255,-0.0615946,
2,0,0,1,0,8609.51,-0.0652967,-0.065639,-66.7154,7,0.00280546,10,0.00437913,-1.17577,0.790497,0.0746366,-194.888,-0.065639,
2,0,0,1,0,8609.52,-0.0692919,-0.0696134,-65.9866,7,0.00254015,10,0.00459355,-1.18054,0.917045,0.0643371,-166.131,-0.0696134,
2,0,0,1,0,8609.52,-0.0732871,-0.0736005,-65.3614,7,0.00227755,10,0.00481063,-1.18468,1.05838,0.0557456,-142.657,-0.0736005,
2,0,0,1,0,8609.53,-0.0772822,-0.0775685,-64.8466,7,0.00201721,10,0.00503005,-1.18811,1.27901,0.0461294,-117.106,-0.0775685,
2,0,0,1,0,8609.53,-0.0812774,-0.081579,-64.4415,7,0.00175873,10,0.00525707,-1.19083,1.63072,0.0361803,-91.2596,-0.081579,
2,0,0,1,0,8609.53,-0.0852726,-0.0855555,-64.1197,7,0.00150166,10,0.0054858,-1.19301,2.14425,0.0275154,-69.0398,-0.0855555,
2,0,0,1,0,8609.54,-0.0892678,-0.0895405,-63.9067,7,0.00124564,10,0.00572224,-1.19445,2.96443,0.0199027,-49.7448,-0.0895405,
2,0,0,1,0,8609.54,-0.0932629,-0.0935754,-63.7414,7,0.000990406,10,0.00596463,-1.19558,4.82918,0.0122174,-30.4563,-0.0935754,
2,0,0,1,0,8609.55,-0.0972581,-0.0975615,-63.6464,7,0.000735658,10,0.00620944,-1.19623,14.3587,0.004109,-10.235,-0.0975615,
2,0,0,1,0,8609.55,-0.101253,-0.101571,-63.6319,7,0.000481129,10,0.00646315,-1.19632,-31.9471,-0.0018468,4.59682,-0.101571,
2,0,0,1,0,8609.55,-0.105298,-0.105632,-63.742,7,0.000226412,10,0.00673321,-1.19557,-8.0382,-0.00733995,18.2739,-0.105632,
2,0,0,1,0,8609.56,-0.109294,-0.109595,-63.8151,7,-2.87148e-05,10,0.00699381,-1.19508,-4.97293,-0.0118642,29.5727,-0.109595,
2,0,0,1,0,8609.56,-0.113289,-0.113625,-63.94,7,-0.000284216,10,0.00726515,-1.19423,-4.01454,-0.0146966,36.7276,-0.113625,
2,0,0,1,0,8609.57,-0.117284,-0.1176,-64.106,7,-0.000540324,10,0.00753886,-1.1931,-3.10102,-0.019026,47.6665,-0.1176,
2,0,0,1,0,8609.57,-0.121279,-0.121572,-64.3275,7,-0.000797219,10,0.00782044,-1.1916,-2.56003,-0.0230466,57.9249,-0.121572,
2,0,0,1,0,8609.57,-0.125274,-0.125572,-64.5767,7,-0.00105504,10,0.00810903,-1.18992,-2.22236,-0.0265484,66.9734,-0.125572,
2,0,0,1,0,8609.58,-0.129269,-0.129591,-64.8648,7,-0.00131395,10,0.0084059,-1.18799,-2.01291,-0.0293108,74.2617,-0.129591,
2,0,0,1,0,8609.58,-0.133265,-0.133588,-65.1767,7,-0.00157404,10,0.00870681,-1.18591,-1.8154,-0.0324998,82.7446,-0.133588,
2,0,0,1,0,8609.59,-0.13726,-0.137558,-65.5146,7,-0.00183547,10,0.00901205,-1.18366,-1.62731,-0.0362561,92.8286,-0.137558,
2,0,0,1,0,8609.59,-0.141255,-0.141592,-65.9022,7,-0.00209835,10,0.0093312,-1.1811,-1.52219,-0.0387599,99.7917,-0.141592,
2,0,0,1,0,8609.59,-0.145286,-0.1456,-66.3509,7,-0.00236284,10,0.00966069,-1.17815,-1.45197,-0.0406344,105.227,-0.1456,
2,0,0,1,0,8609.6,-0.149295,-0.149557,-66.7704,7,-0.00262915,10,0.00998601,-1.17542,-1.40743,-0.0419203,109.241,-0.149557,
2,0,0,1,0,8609.6,-0.15329,-0.15359,-67.2016,7,-0.00289713,10,0.0103215,-1.17262,-1.40037,-0.0421318,110.547,-0.1535902,
2,0,0,1,0,8609.61,-0.157286,-0.15759,-67.6499,7,-0.00316687,10,0.0106609,-1.16973,-1.3576,-0.0434591,114.798,-0.15759,
2,0,0,1,0,8609.61,-0.161281,-0.161601,-68.1197,7,-0.00343846,10,0.0110082,-1.16673,-1.31861,-0.0447442,118.999,-0.161601,
2,0,0,1,0,8609.61,-0.165276,-0.165554,-68.6067,7,-0.00371195,10,0.0113581,-1.16363,-1.28898,-0.0457728,122.586,-0.1655537,
2,0,0,1,0,8609.62,-0.169271,-0.169547,-69.1005,7,-0.00398741,10,0.0117158,-1.16052,-1.25567,-0.0469869,126.759,-0.1695472,
2,0,0,1,0,8609.62,-0.173266,-0.173542,-69.6053,7,-0.00426487,10,0.0120794,-1.15736,-1.22985,-0.0479733,130.389,-0.173542,
2,0,0,1,0,8609.63,-0.177261,-0.177548,-70.1412,7,-0.00454441,10,0.0124534,-1.15403,-1.19988,-0.0491715,134.661,-0.177548,
2,0,0,1,0,8609.63,-0.181257,-0.181531,-70.69,7,-0.00482612,10,0.0128324,-1.15064,-1.13227,-0.0521076,143.877,-0.181531,
2,0,0,1,0,8609.63,-0.185252,-0.185543,-71.2546,7,-0.00511005,10,0.0132208,-1.14719,-1.11578,-0.052878,147.169,-0.1855434,
2,0,0,1,0,8609.64,-0.189297,-0.18954,-71.9071,7,-0.00539651,10,0.0136293,-1.14323,-1.08959,-0.0541489,151.952,-0.18954,
2,0,0,1,0,8609.64,-0.193292,-0.193581,-72.5008,7,-0.00568538,10,0.0140348,-1.13966,-1.05438,-0.055957,158.133,-0.1935813,
2,0,0,1,0,8609.65,-0.197287,-0.197598,-73.1314,7,-0.0059767,10,0.0144506,-1.1359,-1.32621,-0.0444877,126.033,-0.197598,
2,0,0,1,0,8609.65,-0.199984,-0.200246,-73.5795,7,-0.00617473,10,0.014734,-1.13324,0.0663783,0.888845,-2364.86,-0.200246,
2,0,0,1,1,8609.65,-0.199984,-0.200418,-73.278,7,-0.00621874,10,0.0146862,-1.13503,-0.0352168,-1.67534,4147.48,-0.200418,
2,0,0,1,1,8609.65,-0.196688,-0.197167,-64.0222,7,-0.00642833,10,0.012623,-1.19367,-0.055662,-1.05997,2438.95,-0.197167,
2,0,0,1,1,8609.66,-0.192693,-0.193138,-54.6333,7,-0.00666431,10,0.0105518,-1.26254,-0.0560671,-1.05231,2231.67,-0.193138,
2,0,0,1,1,8609.66,-0.188698,-0.189109,-46.4159,7,-0.00686534,10,0.00877764,-1.33333,-0.054108,-1.09041,1973.7,-0.189109,
2,0,0,1,1,8609.66,-0.184653,-0.185051,-38.9856,7,-0.00703523,10,0.00721433,-1.4091,-0.0502924,-1.17314,1771.6,-0.1850514,
2,0,0,1,1,8609.67,-0.180657,-0.181105,-32.3207,7,-0.007177,10,0.00585342,-1.49052,-0.0453442,-1.30116,1612.67,-0.181105,
2,0,0,1,1,8609.67,-0.176662,-0.177092,-26.2061,7,-0.00729331,10,0.00464089,-1.5816,-0.039387,-1.49796,1481.25,-0.177092,
2,0,0,1,1,8609.68,-0.172667,-0.17308,-20.568,7,-0.00738616,10,0.00355991,-1.68681,-0.0326933,-1.80465,1364.03,-0.17308,
2,0,0,1,1,8609.68,-0.168672,-0.169075,-15.3209,7,-0.00745728,10,0.00259039,-1.81471,-0.0246988,-2.38878,1269.47,-0.169075,
2,0,0,1,1,8609.68,-0.164677,-0.165068,-10.4464,7,-0.00750824,10,0.00172436,-1.98103,-0.0145861,-4.04494,1186.87,-0.165068,
2,0,0,1,1,8609.69,-0.160682,-0.161095,-5.89803,7,-0.00754036,10,0.000950141,-2.22929,-0.0193526,-3.04869,1106.15,-0.161095,
2,0,0,1,1,8609.69,-0.156686,-0.157153,-1.66435,7,-0.00755499,10,0.000261558,-2.77876,-0.0678458,-0.869619,1036.97,-0.157153,
2,1,0,1,1,8609.7,-0.152691,-0.153144,2.30177,7,-0.00755323,10,-0.000352501,-2.63794,0.0744784,0.792176,976.501,-0.153144,
2,1,0,1,1,8609.7,-0.148696,-0.149129,6.08185,7,-0.00753604,10,-0.00090698,-2.21596,0.0179446,3.28789,914.65,-0.149129,
2,1,0,1,1,8609.7,-0.14467,-0.145174,9.64878,7,-0.00750422,10,-0.00140075,-2.01553,0.0189544,3.11273,862.404,-0.145174,
2,1,0,1,1,8609.71,-0.140656,-0.141151,12.9724,7,-0.00745854,10,-0.00183107,-1.88698,0.0321497,1.83517,815.175,-0.141151,
2,1,0,1,1,8609.71,-0.136661,-0.137122,16.119,7,-0.00740005,10,-0.00221026,-1.79266,0.0449276,1.31322,767.153,-0.137122,
2,1,0,1,1,8609.72,-0.132665,-0.133138,19.1172,7,-0.00732921,10,-0.00254523,-1.71857,0.0576213,1.02393,726.806,-0.133138,
2,1,0,1,1,8609.72,-0.12867,-0.129131,21.9561,7,-0.00724672,10,-0.00283521,-1.65844,0.0708674,0.832541,687.722,-0.129131,
2,1,0,1,1,8609.72,-0.124675,-0.125093,24.6433,7,-0.00715322,10,-0.0030827,-1.6083,0.0850735,0.693518,648.269,-0.1250928,
2,1,0,1,1,8609.73,-0.12068,-0.121052,27.171,7,-0.00704929,10,-0.00328909,-1.56589,0.100036,0.589789,611.333,-0.121052,
2,1,0,1,1,8609.73,-0.116685,-0.117061,29.5394,7,-0.00693559,10,-0.00345792,-1.5296,0.115874,0.509174,576.551,-0.117061,
2,1,0,1,1,8609.74,-0.112689,-0.113086,31.765,7,-0.00681274,10,-0.00359217,-1.49805,0.13267,0.444712,543.467,-0.113086,
2,1,0,1,1,8609.74,-0.108694,-0.109084,33.8733,7,-0.00668119,10,-0.00369503,-1.47014,0.150049,0.393205,513.993,-0.109084,
2,1,0,1,1,8609.74,-0.104699,-0.105069,35.8569,7,-0.0065415,10,-0.00376745,-1.44543,0.168759,0.349612,484.5,-0.105069,
2,1,0,1,1,8609.75,-0.100654,-0.101013,37.788,7,-0.00639391,10,-0.00381709,-1.42265,0.188897,0.312339,456.078,-0.101013,
2,1,0,1,1,8609.75,-0.0966588,-0.097044,39.5373,7,-0.00623904,10,-0.00383685,-1.40299,0.21032,0.280525,429.149,-0.097044,
2,1,0,1,1,8609.76,-0.0926637,-0.0930282,41.1959,7,-0.00607739,10,-0.00383238,-1.38515,0.233646,0.252518,403.303,-0.0930282,
2,1,0,1,1,8609.76,-0.0886685,-0.0890252,42.7422,7,-0.00590933,10,-0.00380513,-1.36914,0.258247,0.228463,378.875,-0.0890252,
2,1,0,1,1,8609.76,-0.0846733,-0.0850444,44.2282,7,-0.0057352,10,-0.00376137,-1.3543,0.284791,0.20717,355.545,-0.0850444,
2,1,0,1,1,8609.77,-0.0806781,-0.0810626,45.5922,7,-0.00555541,10,-0.00369582,-1.34111,0.312047,0.189074,334.768,-0.0810626,
2,1,0,1,1,8609.77,-0.076683,-0.0770521,46.8761,7,-0.00537031,10,-0.0036119,-1.32905,0.342475,0.172275,313.922,-0.0770521,
2,1,0,1,1,8609.78,-0.0726878,-0.0730236,48.099,7,-0.00518022,10,-0.00351236,-1.31786,0.373572,0.157935,295.314,-0.0730236,
2,1,0,1,1,8609.78,-0.0686926,-0.0690673,49.2438,7,-0.00498542,10,-0.00340114,-1.30765,0.400938,0.147155,281.984,-0.06906727,
2,1,0,1,1,8609.78,-0.0646974,-0.0650907,50.3089,7,-0.00478618,10,-0.00327465,-1.29835,0.440592,0.133911,262.189,-0.0650907,
2,1,0,1,1,8609.79,-0.0606523,-0.0610294,51.3943,7,-0.00458272,10,-0.00313656,-1.28909,0.481047,0.122649,244.983,-0.0610294,
2,1,0,1,1,8609.79,-0.0566571,-0.0570094,52.2977,7,-0.00437522,10,-0.00298146,-1.28152,0.523313,0.112743,229.354,-0.05700938,
2,1,0,1,1,8609.8,-0.052662,-0.0530477,53.1683,7,-0.00416418,10,-0.00282046,-1.27435,0.582804,0.101235,209.602,-0.0530477,
2,1,0,1,1,8609.8,-0.0486668,-0.0490606,53.9855,7,-0.00394978,10,-0.00264856,-1.26772,0.630597,0.0935622,196.633,-0.0490606,
2,1,0,1,1,8609.8,-0.0446716,-0.0450437,54.7449,7,-0.00373222,10,-0.00246591,-1.26166,0.694116,0.0850002,181.154,-0.0450437,
2,1,0,1,1,8609.81,-0.0406764,-0.0410587,55.4341,7,-0.00351176,10,-0.00227606,-1.25622,0.761389,0.07749,167.28,-0.0410587,
2,1,0,1,1,8609.81,-0.0366813,-0.0369995,56.0755,7,-0.00328868,10,-0.00207477,-1.25123,0.833559,0.0707808,154.62,-0.0369995,
2,1,0,1,1,8609.82,-0.0326861,-0.0330495,56.6638,7,-0.0030631,10,-0.00187271,-1.24669,0.919554,0.0641616,141.632,-0.0330495,
2,1,0,1,1,8609.82,-0.0286909,-0.0290284,57.2212,7,-0.00283526,10,-0.00166104,-1.24244,0.995666,0.0592568,132.105,-0.0290284,
2,1,0,1,1,8609.82,-0.0246957,-0.0250286,57.7045,7,-0.00260534,10,-0.00144426,-1.23879,1.09847,0.0537109,120.793,-0.0250286,
2,1,0,1,1,8609.83,-0.0206756,-0.021033,58.1848,7,-0.00237353,10,-0.0012238,-1.23519,1.25751,0.046918,106.327,-0.021033,
2,1,0,1,1,8609.83,-0.0166554,-0.0170363,58.5981,7,-0.00213988,10,-0.000998294,-1.23212,1.40799,0.0419036,95.6125,-0.01703628,
2,1,0,1,1,8609.84,-0.0126603,-0.0130163,58.9237,7,-0.00190478,10,-0.000766967,-1.22971,1.67353,0.0352548,80.9436,-0.0130163,
2,1,0,1,1,8609.84,-0.0086651,-0.00904081,59.2332,7,-0.00166841,10,-0.000535516,-1.22744,2.00743,0.0293908,67.8231,-0.00904081,
2,1,0,1,1,8609.84,-0.00466992,-0.00502717,59.4804,7,-0.00143095,10,-0.000299018,-1.22563, , , ,-0.005027168,
2,1,0,1,1,8609.85,-0.000974387,-0.00132423,59.6638,7,-0.00121052,10,-7.90084e-05,-1.22429, , , ,-0.00132423,
2,1,0,1,1,8609.85,-0.000175352,-0.000611633,59.6984,7,-0.00116278,10,-3.65135e-05,-1.22404, , , ,-0.000611633,