File: Figure_codes/Fig_3-5/rawdata_trumpetplot_data/before 10th/20221101_1-115_002_TrumpetPlot_ParaChange_11_CV_C01_1.csv
mode,ox/red,error,control changes,counter inc.,time/s,control/V,Ewe/V,<I>/mA,cycle number,(Q-Qo)/C,I Range,P/W,log(|I|),Tafel slope mV/dec,alpha_eff,dI/d(E-IR),E-IR/V,
2,0,0,1,0,2433.62,2.44065e-05,0.000609955,-6.1318,2,0.0000000E+000,11,-3.74012e-06,-2.21241, , , ,0.000609955,
2,0,0,1,0,2433.64,0.00179726,0.0013639,-1.82639,2,-7.88411e-05,11,-2.49102e-06,-2.73841, , , ,0.0013639,
2,1,0,1,0,2433.66,0.00379485,0.00343114,1.51987,2,-7.68603e-05,11,5.2149e-06,-2.81819,0.0187703,3.14326,1182.06,0.00343114,
2,1,0,1,0,2433.68,0.00579244,0.00546394,3.02012,2,-2.93015e-05,11,1.65018e-05,-2.51998,0.0103511,5.69987,547.339,0.00546394,
2,1,0,1,0,2433.7,0.00779002,0.00746313,3.72674,2,3.90532e-05,11,2.78131e-05,-2.42867,0.0301018,1.96001,270.334,0.00746313,
2,1,0,1,0,2433.72,0.00978761,0.00947081,4.10332,2,0.000117566,11,3.88617e-05,-2.38686,0.0689651,0.855505,133.205,0.00947081,
2,1,0,1,0,2433.74,0.0117852,0.0115014,4.26466,2,0.000201481,11,4.90497e-05,-2.37012,0.172065,0.342894,56.4154,0.0115014,
2,1,0,1,0,2433.76,0.0137828,0.0134926,4.33021,2,0.000287442,11,5.84257e-05,-2.36349,0.350561,0.168302,28.3817,0.0134926,
2,1,0,1,0,2433.78,0.0157804,0.0154898,4.37786,2,0.00037465,11,6.78122e-05,-2.35874,0.446642,0.132097,22.555,0.0154898,
2,1,0,1,0,2433.8,0.017778,0.0174856,4.42027,2,0.00046224,11,7.72912e-05,-2.35455,1.15327,0.0511591,8.77548,0.0174856,
2,1,0,1,0,2433.82,0.0197755,0.0194612,4.41271,2,0.000550484,11,8.58764e-05,-2.35529,3.02739,0.0194887,3.36717,0.0194612,
2,1,0,1,0,2433.84,0.0217731,0.0215367,4.43391,2,0.000638897,11,9.54918e-05,-2.35321,1.53442,0.0384511,6.64189,0.0215367,
2,1,0,1,0,2433.86,0.0237707,0.0234923,4.43948,2,0.000727689,11,0.000104294,-2.35267,0.965528,0.0611065,10.6241,0.0234923,
2,1,0,1,0,2433.88,0.0257683,0.0255011,4.47603,2,0.000816397,11,0.000114144,-2.34911,0.834994,0.0706592,12.3105,0.0255011,
2,1,0,1,0,2433.9,0.0277659,0.027517,4.48903,2,0.000906038,11,0.000123525,-2.34785,1.15321,0.0511617,8.97312,0.027517,
2,1,0,1,0,2433.92,0.0297635,0.0295168,4.51206,2,0.000996126,11,0.000133182,-2.34562,0.984507,0.0599284,10.5481,0.0295168,
2,1,0,1,0,2433.94,0.0317611,0.0315019,4.53106,2,0.00108661,11,0.000142737,-2.3438,0.615182,0.0959065,17.0141,0.0315019,
2,1,0,1,0,2433.96,0.0337586,0.0334775,4.57945,2,0.00117721,11,0.000153308,-2.33919,0.571839,0.103176,18.3939,0.0334775,
2,1,0,1,0,2433.98,0.0357562,0.0355368,4.60528,2,0.00126905,11,0.000163657,-2.33674,0.956918,0.0616563,11.0723,0.0355368,
2,1,0,1,0,2434,0.0377538,0.0374601,4.62355,2,0.00136142,11,0.000173198,-2.33502,0.746326,0.0790539,14.2949,0.0374601,
2,1,0,1,0,2434.02,0.0397514,0.0394697,4.6615,2,0.00145432,11,0.000183988,-2.33147,0.375496,0.157125,28.7079,0.0394697,
2,1,0,1,0,2434.04,0.041749,0.0415193,4.74008,2,0.00154777,11,0.000196805,-2.32421,0.423985,0.139156,25.5925,0.0415193,
2,1,0,1,0,2434.06,0.0437466,0.0434666,4.76379,2,0.00164277,11,0.000207066,-2.32205,0.649864,0.0907883,16.9129,0.04346662,
2,1,0,1,0,2434.08,0.0457442,0.0454651,4.80681,2,0.00173837,11,0.000218542,-2.31814,0.445477,0.132442,24.8788,0.0454651,
2,1,0,1,0,2434.1,0.0477418,0.0474567,4.86306,2,0.00183505,11,0.000230785,-2.31309,0.344628,0.171199,32.5491,0.0474567,
2,1,0,1,0,2434.12,0.0497484,0.0494652,4.93701,2,0.00193293,11,0.000244211,-2.30654,0.356651,0.165428,31.8019,0.0494652,
2,1,0,1,0,2434.14,0.0517369,0.0514225,4.98918,2,0.00203166,11,0.000256556,-2.30197,0.345533,0.170751,33.3372,0.0514225,
2,1,0,1,0,2434.16,0.0537345,0.0534225,5.06894,2,0.0021322,11,0.000270795,-2.29508,0.300409,0.196399,38.8319,0.0534225,
2,1,0,1,0,2434.18,0.0557321,0.0554121,5.1441,2,0.00223432,11,0.000285046,-2.28869,0.314348,0.18769,37.6764,0.0554121,
2,1,0,1,0,2434.2,0.0577206,0.0574034,5.21892,2,0.00233739,11,0.000299584,-2.28242,0.269571,0.218866,44.698,0.0574034,
2,1,0,1,0,2434.22,0.0597273,0.0594097,5.32279,2,0.00244296,11,0.000316226,-2.27386,0.242982,0.242816,50.4087,0.0594097,
2,1,0,1,0,2434.24,0.0617249,0.0614161,5.4212,2,0.00255038,11,0.000332949,-2.2659,0.257545,0.229086,48.46,0.0614161,
2,1,0,1,0,2434.26,0.0637224,0.0634571,5.51892,2,0.00265975,11,0.000350215,-2.25815,0.235383,0.250655,54.0887,0.0634571,
2,1,0,1,0,2434.28,0.06572,0.0654379,5.63873,2,0.00277124,11,0.000368986,-2.24882,0.202048,0.29201,64.3288,0.0654379,
2,1,0,1,0,2434.3,0.0677176,0.0673981,5.77245,2,0.00288484,11,0.000389052,-2.23864,0.219286,0.269055,60.4658,0.0673981,
2,1,0,1,0,2434.32,0.0697152,0.0694251,5.87982,2,0.00300141,11,0.000408207,-2.23064,0.231253,0.255132,58.648,0.0694251,
2,1,0,1,0,2434.34,0.0717128,0.0714384,6.0094,2,0.00312027,11,0.000429302,-2.22117,0.203972,0.289255,67.9061,0.0714384,
2,1,0,1,0,2434.36,0.0737104,0.0734488,6.15306,2,0.00324187,11,0.000451935,-2.21091,0.192577,0.30637,73.583,0.0734488,
2,1,0,1,0,2434.38,0.075708,0.0754036,6.30117,2,0.00336581,11,0.000475131,-2.20058,0.206327,0.285953,70.2098,0.0754036,
2,1,0,1,0,2434.4,0.0777056,0.0774156,6.43156,2,0.00349295,11,0.000497903,-2.19168,0.21537,0.273947,68.8449,0.0774156,
2,1,0,1,0,2434.42,0.0797031,0.0794467,6.57951,2,0.00362309,11,0.00052272,-2.18181,0.201166,0.293291,75.3327,0.0794467,
2,1,0,1,0,2434.44,0.0817007,0.0814257,6.73365,2,0.00375622,11,0.000548292,-2.17175,0.20311,0.290482,76.3096,0.0814257,
2,1,0,1,0,2434.46,0.0836983,0.0834539,6.8853,2,0.00389163,11,0.000574605,-2.16208,0.208071,0.283557,76.1778,0.0834539,
2,1,0,1,0,2434.48,0.0856959,0.085395,7.03603,2,0.00403081,11,0.000600841,-2.15267,0.214276,0.275345,75.5909,0.085395,
2,1,0,1,0,2434.5,0.0876935,0.0874274,7.18566,2,0.00417298,11,0.000628224,-2.14353,0.228737,0.257938,72.2776,0.0874274,
2,1,0,1,0,2434.52,0.0896911,0.0894062,7.32595,2,0.00431802,11,0.000654985,-2.13514,0.218788,0.269667,77.2283,0.08940623,
2,1,0,1,0,2434.54,0.0916887,0.0914036,7.49274,2,0.00446542,11,0.000684863,-2.12536,0.217353,0.271448,79.2704,0.0914036,
2,1,0,1,0,2434.56,0.0936862,0.0933904,7.64177,2,0.00461685,11,0.000713668,-2.11681,0.243042,0.242757,72.3304,0.0933904,
2,1,0,1,0,2434.58,0.0956838,0.0953507,7.77824,2,0.00477106,11,0.000741661,-2.10912,0.24896,0.236986,72.0179,0.09535072,
2,1,0,1,0,2434.6,0.0976814,0.0974408,7.93348,2,0.00492808,11,0.000773044,-2.10054,0.230576,0.255881,79.2842,0.0974408,
2,1,0,1,0,2434.62,0.099679,0.0994433,8.10271,2,0.00508748,11,0.00080576,-2.09137,0.243037,0.242761,76.5992,0.0994433,
2,1,0,1,0,2434.64,0.101677,0.101423,8.23851,2,0.00525096,11,0.000835573,-2.08415,0.249776,0.236212,76.0701,0.101423,
2,1,0,1,0,2434.66,0.103674,0.103387,8.4027,2,0.00541733,11,0.000868729,-2.07558,0.22623,0.260797,85.5581,0.103387,
2,1,0,1,0,2434.68,0.105672,0.105367,8.57598,2,0.00558709,11,0.000903629,-2.06672,0.215346,0.273978,91.7818,0.105367,
2,1,0,1,0,2434.7,0.107667,0.107361,8.76741,2,0.00575954,11,0.000941274,-2.05713,0.208216,0.28336,96.9928,0.107361,
2,1,0,1,0,2434.72,0.109667,0.109414,8.96849,2,0.0059368,11,0.00098128,-2.04728,0.202795,0.290934,101.844,0.109414,
2,1,0,1,0,2434.74,0.111665,0.111363,9.17507,2,0.00611811,11,0.00102177,-2.03739,0.198144,0.297763,106.662,0.111363,
2,1,0,1,0,2434.76,0.113662,0.113384,9.39191,2,0.0063037,11,0.00106489,-2.02725,0.194335,0.3036,111.327,0.1133839,
2,1,0,1,0,2434.78,0.11566,0.115362,9.62019,2,0.00649374,11,0.0011098,-2.01682,0.166699,0.353931,133.348,0.115362,
2,1,0,1,0,2434.8,0.117657,0.11735,9.92079,2,0.00668814,11,0.00116421,-2.00345,0.150938,0.390888,151.339,0.11735,
2,1,0,1,0,2434.82,0.119655,0.119371,10.227,2,0.00688955,11,0.00122081,-1.99025,0.15131,0.389929,155.711,0.119371,
2,1,0,1,0,2434.84,0.121652,0.121392,10.5501,2,0.00709719,11,0.00128069,-1.97674,0.145197,0.406345,167.44,0.121392,
2,1,0,1,0,2434.86,0.12365,0.123373,10.897,2,0.00731155,11,0.00134439,-1.96269,0.135646,0.434956,185.301,0.123373,
2,1,0,1,0,2434.88,0.125648,0.125388,11.2906,2,0.00753235,11,0.0014157,-1.94728,0.133522,0.441874,194.478,0.125388,
2,1,0,1,0,2434.9,0.127645,0.127329,11.6665,2,0.00776182,11,0.00148549,-1.93306,0.133096,0.443289,202.146,0.127329,
2,1,0,1,0,2434.92,0.129643,0.129331,12.0877,2,0.0079993,11,0.00156331,-1.91766,0.13214,0.446496,210.673,0.129331,
2,1,0,1,0,2434.94,0.13164,0.131398,12.5237,2,0.00824538,11,0.0016456,-1.90227,0.13042,0.452384,221.062,0.131398,
2,1,0,1,0,2434.96,0.133638,0.133298,12.9647,2,0.0084991,11,0.00172818,-1.88724,0.132884,0.443997,224.567,0.133298,
2,1,0,1,0,2434.98,0.135636,0.135328,13.4061,2,0.00876277,11,0.00181423,-1.8727,0.140027,0.421349,220.421,0.135328,
2,1,0,1,0,2435,0.137633,0.137332,13.8539,2,0.00903528,11,0.00190259,-1.85843,0.148888,0.396272,214.026,0.137332,
2,1,0,1,0,2435.02,0.139631,0.139417,14.2814,2,0.0093166,11,0.00199108,-1.84523,0.156836,0.37619,209.571,0.139417,
2,1,0,1,0,2435.03,0.141628,0.141386,14.7034,2,0.00960489,11,0.00207886,-1.83258,0.163218,0.361479,207.194,0.141386,
2,1,0,1,0,2435.05,0.143626,0.143368,15.1,2,0.00990297,11,0.00216487,-1.82102,0.181246,0.325525,191.591,0.143368,
2,1,0,1,0,2435.07,0.145624,0.14536,15.4648,2,0.0102086,11,0.00224796,-1.81066,0.210502,0.280282,168.831,0.14536,
2,1,0,1,0,2435.09,0.147621,0.14736,15.774,2,0.010521,11,0.00232446,-1.80206,0.235808,0.250204,153.995,0.14736,
2,1,0,1,0,2435.11,0.149619,0.149357,16.0803,2,0.0108379,11,0.00240171,-1.7937,0.274413,0.215004,134.564,0.149357,
2,1,0,1,0,2435.13,0.151616,0.151288,16.3025,2,0.0111618,11,0.00246638,-1.78774,0.400561,0.147294,93.5016,0.151288,
2,1,0,1,0,2435.15,0.153614,0.153336,16.4524,2,0.0114893,11,0.00252275,-1.78377,0.621121,0.0949896,60.8876,0.153336,
2,1,0,1,0,2435.17,0.155611,0.155301,16.5469,2,0.0118194,11,0.00256974,-1.78128,1.22658,0.0481011,31.001,0.1553006,
2,1,0,1,0,2435.19,0.157609,0.157326,16.5761,2,0.0121489,11,0.00260785,-1.78052,-1.59588,-0.0369703,-23.8047,0.157326,
2,1,0,1,0,2435.21,0.159607,0.159352,16.4504,2,0.0124792,11,0.0026214,-1.78382,-0.426666,-0.138281,-88.4993,0.1593518,
2,1,0,1,0,2435.23,0.161604,0.161318,16.2228,2,0.012806,11,0.00261703,-1.78987,-0.245017,-0.240799,-151.756,0.161318,
2,1,0,1,0,2435.25,0.163602,0.163308,15.85,2,0.0131268,11,0.00258844,-1.79997,-0.162087,-0.364001,-223.96,0.163308,
2,1,0,1,0,2435.27,0.165606,0.165364,15.3166,2,0.0134386,11,0.00253281,-1.81484,-0.115787,-0.509557,-302.966,0.165364,
2,1,0,1,0,2435.29,0.167597,0.167316,14.6357,2,0.0137367,11,0.00244879,-1.83459,-0.0878917,-0.67128,-381.111,0.167316,
2,1,0,1,0,2435.31,0.169595,0.169332,13.8043,2,0.0140212,11,0.00233752,-1.85998,-0.0705294,-0.836531,-447.739,0.169332,
2,1,0,1,0,2435.33,0.171592,0.171343,12.8327,2,0.0142875,11,0.00219879,-1.89168,-0.0578313,-1.02021,-508.468,0.171343,
2,1,0,1,0,2435.35,0.173581,0.173294,11.7898,2,0.0145323,11,0.00204311,-1.92849,-0.0513308,-1.14941,-527.191,0.1732942,
2,1,0,1,0,2435.37,0.175587,0.175323,10.7347,2,0.0147574,11,0.00188204,-1.96921,-0.0479468,-1.23053,-514.704,0.175323,
2,1,0,1,0,2435.39,0.177585,0.17733,9.71263,2,0.0149616,11,0.00172234,-2.01266,-0.0459148,-1.28499,-487.582,0.17733,
2,1,0,1,0,2435.41,0.179582,0.179339,8.77628,2,0.015146,11,0.00157393,-2.05669,-0.0467962,-1.26079,-434.046,0.179339,
2,1,0,1,0,2435.43,0.18158,0.181307,7.9862,2,0.0153132,11,0.00144796,-2.09766,-0.0519238,-1.13628,-356.597,0.181307,
2,1,0,1,0,2435.45,0.183578,0.183343,7.34863,2,0.0154655,11,0.00134732,-2.13379,-0.0587962,-1.00347,-289.407,0.183343,
2,1,0,1,0,2435.47,0.185575,0.185322,6.82421,2,0.0156068,11,0.00126468,-2.16595,-0.0680802,-0.866625,-232.697,0.185322,
2,1,0,1,0,2435.49,0.187573,0.187282,6.43194,2,0.0157391,11,0.00120459,-2.19166,-0.0864927,-0.682139,-172.439,0.187282,
2,1,0,1,0,2435.51,0.18957,0.189276,6.14253,2,0.0158646,11,0.00116263,-2.21165,-0.111176,-0.530691,-127.81,0.189276,
2,1,0,1,0,2435.53,0.191568,0.191309,5.91731,2,0.0159845,11,0.00113203,-2.22788,-0.134229,-0.439548,-101.824,0.191309,
2,1,0,1,0,2435.55,0.193566,0.193289,5.73382,2,0.0161008,11,0.00110829,-2.24156,-0.161939,-0.364334,-81.7791,0.193289,
2,1,0,1,0,2435.57,0.195563,0.195326,5.58877,2,0.0162139,11,0.00109163,-2.25268,-0.17657,-0.334144,-72.8733,0.195326,
2,1,0,1,0,2435.59,0.197561,0.197252,5.44504,2,0.0163241,11,0.00107405,-2.264,-0.207827,-0.28389,-60.5715,0.197252,
2,1,0,1,0,2435.61,0.199558,0.199315,5.34718,2,0.0164313,11,0.00106577,-2.27188,-0.243968,-0.241835,-50.4242,0.199315,
2,1,0,1,0,2435.63,0.201556,0.201288,5.24153,2,0.016537,11,0.00105506,-2.28054,-0.214342,-0.275261,-56.2435,0.201288,
2,1,0,1,0,2435.65,0.203553,0.203256,5.12551,2,0.0166406,11,0.00104179,-2.29026,-0.229775,-0.256773,-51.494,0.203256,
2,1,0,1,0,2435.67,0.205551,0.20526,5.03701,2,0.0167421,11,0.0010339,-2.29783,-0.335421,-0.175898,-34.7026,0.20526,
2,1,0,1,0,2435.69,0.207549,0.207291,4.98549,2,0.0168416,11,0.00103345,-2.30229,-0.324004,-0.182097,-35.2922,0.2072909,
2,1,0,1,0,2435.71,0.209546,0.209261,4.89579,2,0.0169402,11,0.0010245,-2.31018,-0.250552,-0.23548,-44.9859,0.209261,
2,1,0,1,0,2435.73,0.211544,0.211287,4.80573,2,0.017037,11,0.00101539,-2.31824,-0.304735,-0.193611,-36.4355,0.211287,
2,1,0,1,0,2435.75,0.213541,0.213289,4.74904,2,0.0171324,11,0.00101292,-2.32339,-0.42059,-0.140279,-26.0234,0.213289,
2,1,0,1,0,2435.77,0.215539,0.215292,4.70151,2,0.0172262,11,0.0010122,-2.32776,-0.349891,-0.168624,-30.8474,0.215292,
2,1,0,1,0,2435.79,0.217537,0.217265,4.62639,2,0.0173194,11,0.00100515,-2.33476,-0.335063,-0.176086,-31.87,0.217265,
2,1,0,1,0,2435.81,0.219534,0.219285,4.57425,2,0.0174113,11,0.00100306,-2.33968,-0.464592,-0.126993,-22.7008,0.219285,
2,1,0,1,0,2435.83,0.221532,0.221309,4.53459,2,0.0175024,11,0.00100355,-2.34346,-0.48175,-0.12247,-21.6558,0.221309,
2,1,0,1,0,2435.85,0.223525,0.223279,4.48776,2,0.017592,11,0.00100202,-2.34797,-0.483435,-0.122043,-21.3959,0.223279,
2,1,0,1,0,2435.87,0.225527,0.225265,4.44995,2,0.0176813,11,0.00100242,-2.35164,-0.53307,-0.11068,-19.2186,0.225265,
2,1,0,1,0,2435.89,0.227525,0.227271,4.41104,2,0.0177699,11,0.0010025,-2.35546,-0.473098,-0.12471,-21.4504,0.227271,
2,1,0,1,0,2435.91,0.229522,0.22923,4.36489,2,0.0178576,11,0.00100056,-2.36003,-0.537661,-0.109735,-18.7302,0.22923,
2,1,0,1,0,2435.93,0.23152,0.231261,4.3363,2,0.0179445,11,0.00100282,-2.36288,-1.03396,-0.0570624,-9.677,0.2312611,
2,1,0,1,0,2435.95,0.233517,0.233258,4.32592,2,0.0180307,11,0.00100905,-2.36392,-0.66954,-0.0881202,-14.8115,0.233258,
2,1,0,1,0,2435.97,0.235515,0.235227,4.27756,2,0.0181166,11,0.0010062,-2.3688,-0.563534,-0.104696,-17.5322,0.235227,
2,1,0,1,0,2435.99,0.237512,0.237251,4.2559,2,0.0182018,11,0.00100972,-2.37101,-0.912621,-0.064649,-10.7383,0.237251,
2,1,0,1,0,2436.01,0.23951,0.239217,4.23471,2,0.0182865,11,0.00101302,-2.37318,-1.01695,-0.0580168,-9.59241,0.239217,
2,1,0,1,0,2436.03,0.241508,0.241285,4.21721,2,0.0183706,11,0.00101755,-2.37497,-0.737642,-0.0799846,-13.137,0.241285,
2,1,0,1,0,2436.05,0.243505,0.243203,4.18235,2,0.0184544,11,0.00101716,-2.37858,-0.782692,-0.0753809,-12.3344,0.243203,
2,1,0,1,0,2436.07,0.245503,0.245255,4.16825,2,0.0185377,11,0.00102228,-2.38005,-0.982306,-0.0600627,-9.75733,0.2452547,
2,1,0,1,0,2436.09,0.2475,0.247249,4.14287,2,0.0186207,11,0.00102432,-2.3827,-1.02194,-0.0577331,-9.35006,0.247249,
2,1,0,1,0,2436.11,0.249498,0.249198,4.13138,2,0.0187029,11,0.00102953,-2.3839,-1.06959,-0.0551615,-8.88057,0.249198,
2,1,0,1,0,2436.13,0.251496,0.251231,4.10751,2,0.0187851,11,0.00103193,-2.38642,-0.880323,-0.0670209,-10.7494,0.251231,
2,1,0,1,0,2436.15,0.253493,0.253224,4.0881,2,0.018867,11,0.0010352,-2.38848,-0.845775,-0.0697585,-11.1212,0.253224,
2,1,0,1,0,2436.17,0.255491,0.25527,4.06258,2,0.0189484,11,0.00103706,-2.3912,-1.68875,-0.0349372,-5.55902,0.25527,
2,1,0,1,0,2436.19,0.257488,0.257194,4.06603,2,0.0190291,11,0.00104576,-2.39083,-1.73288,-0.0340474,-5.38413,0.2571938,
2,1,0,1,0,2436.21,0.259486,0.259204,4.04141,2,0.0191101,11,0.00104755,-2.39347,-0.691576,-0.0853123,-13.4477,0.259204,
2,1,0,1,0,2436.23,0.261484,0.261206,4.01208,2,0.0191906,11,0.00104798,-2.39663,-1.01746,-0.0579874,-9.10441,0.261206,
2,1,0,1,0,2436.25,0.263481,0.263232,4.00473,2,0.0192706,11,0.00105417,-2.39743,-9.44546,-0.00624639,-0.977577,0.263232,
2,1,0,1,0,2436.27,0.265479,0.265204,4.00817,2,0.0193501,11,0.00106298,-2.39705,-1.24436,-0.0474141,-7.38308,0.265204,
2,1,0,1,0,2436.29,0.267476,0.267232,3.9752,2,0.0194298,11,0.0010623,-2.40064,-0.733633,-0.0804217,-12.5017,0.267232,
2,1,0,1,0,2436.31,0.269474,0.269193,3.95831,2,0.0195089,11,0.00106555,-2.40249,-1.49778,-0.0393917,-6.09265,0.269193,
2,1,0,1,0,2436.33,0.271471,0.271191,3.95108,2,0.0195878,11,0.0010715,-2.40328,-5.16195,-0.0114298,-1.76409,0.271191,
2,1,0,1,0,2436.35,0.273469,0.273225,3.9512,2,0.0196663,11,0.00107957,-2.40327,-1.04716,-0.0563429,-8.64993,0.273225,
2,1,0,1,0,2436.37,0.275467,0.275185,3.91653,2,0.0197447,11,0.00107777,-2.4071,-0.781035,-0.0755408,-11.5809,0.2751849,
2,1,0,1,0,2436.39,0.277464,0.277184,3.90535,2,0.0198228,11,0.0010825,-2.40834,-1.65188,-0.0357168,-5.44394,0.277184,
2,1,0,1,0,2436.41,0.279462,0.279233,3.89449,2,0.0199006,11,0.00108747,-2.40955,-1.4258,-0.0413803,-6.28653,0.279233,
2,1,0,1,0,2436.43,0.281464,0.281196,3.88013,2,0.0199782,11,0.00109108,-2.41115,-1.408,-0.0419034,-6.34822,0.281196,
2,1,0,1,0,2436.45,0.283457,0.283212,3.86924,2,0.0200552,11,0.00109581,-2.41237,-1.48726,-0.0396702,-5.98866,0.283212,
2,1,0,1,0,2436.47,0.285455,0.285198,3.85616,2,0.0201324,11,0.00109977,-2.41384,-0.99837,-0.0590963,-8.88301,0.285198,
2,1,0,1,0,2436.49,0.287452,0.287187,3.83392,2,0.0202091,11,0.00110105,-2.41636,-1.19178,-0.0495059,-7.42161,0.287187,
2,1,0,1,0,2436.51,0.28945,0.289199,3.82647,2,0.0202856,11,0.00110661,-2.4172,-3.19248,-0.0184809,-2.76125,0.289199,
2,1,0,1,0,2436.53,0.291447,0.29118,3.8229,2,0.0203618,11,0.00111315,-2.41761,-1.06565,-0.055365,-8.2325,0.29118,
2,1,0,1,0,2436.55,0.293445,0.293178,3.79371,2,0.0204379,11,0.00111223,-2.42094,-1.11579,-0.0528771,-7.85656,0.293178,
2,1,0,1,0,2436.57,0.295442,0.295181,3.79147,2,0.0205136,11,0.00111917,-2.42119,-5.54449,-0.0106412,-1.5742,0.295181,
2,1,0,1,0,2436.59,0.29744,0.297164,3.78744,2,0.0205893,11,0.00112549,-2.42165,-2.02838,-0.0290872,-4.2942,0.297164,
2,1,0,1,0,2436.61,0.299438,0.299202,3.7742,2,0.0206645,11,0.00112925,-2.42318,-0.020982,-2.81194,-365.087,0.299202,
2,1,0,1,0,2436.62,0.299737,0.29958,2.90512,2,0.0206944,11,0.000870317,-2.53684,0.00251716,23.4391,2592.88,0.29958,
2,0,0,1,0,2436.64,0.29774,0.297453,-0.761789,2,0.0207069,11,-0.000226596,-3.11817,0.0150647,3.91645,1082.02,0.297453,
2,0,0,1,0,2436.66,0.295742,0.295464,-1.54859,2,0.020682,11,-0.000457553,-2.81006,-0.0111847,-5.27507,243.377,0.295464,
2,0,0,1,0,2436.68,0.293745,0.293456,-1.7345,2,0.0206489,11,-0.000508999,-2.76083,-0.0610325,-0.966698,63.0587,0.293456,
2,0,0,1,0,2436.7,0.291747,0.291467,-1.80062,2,0.0206137,11,-0.000524821,-2.74458,-0.117846,-0.500652,35.2598,0.291467,
2,0,0,1,0,2436.72,0.289754,0.289427,-1.87655,2,0.0205772,11,-0.000543126,-2.72664,-0.134315,-0.439267,31.9569,0.289427,
2,0,0,1,0,2436.74,0.287752,0.287448,-1.92908,2,0.0205392,11,-0.000554509,-2.71465,-0.164831,-0.357943,26.9577,0.287448,
2,0,0,1,0,2436.76,0.285754,0.285442,-1.98398,2,0.0205002,11,-0.000566311,-2.70246,-0.15824,-0.372852,28.8969,0.2854422,
2,0,0,1,0,2436.78,0.283757,0.283478,-2.04378,2,0.02046,11,-0.000579367,-2.68957,-0.156557,-0.376859,30.0472,0.283478,
2,0,0,1,0,2436.8,0.281759,0.281477,-2.10311,2,0.0204186,11,-0.000591979,-2.67714,-0.179878,-0.327999,26.8444,0.281477,
2,0,0,1,0,2436.82,0.279761,0.279472,-2.15133,2,0.0203762,11,-0.000601236,-2.66729,-0.196987,-0.299512,25.16,0.2794719,
2,0,0,1,0,2436.84,0.277764,0.277525,-2.20255,2,0.0203328,11,-0.000611263,-2.65707,-0.195609,-0.301622,25.9247,0.277525,
2,0,0,1,0,2436.86,0.275766,0.275505,-2.25418,2,0.0202883,11,-0.000621037,-2.64701,-0.235623,-0.2504,21.9571,0.275505,
2,0,0,1,0,2436.88,0.273769,0.273462,-2.29177,2,0.0202429,11,-0.000626711,-2.63983,-0.222138,-0.2656,23.8594,0.273462,
2,0,0,1,0,2436.9,0.271771,0.271485,-2.35008,2,0.0201967,11,-0.000638013,-2.62892,-0.212089,-0.278186,25.4291,0.271485,
2,0,0,1,0,2436.92,0.269774,0.269463,-2.39346,2,0.0201494,11,-0.000644949,-2.62097,-0.283714,-0.207956,19.3895,0.269463,
2,0,0,1,0,2436.94,0.267776,0.26744,-2.42852,2,0.0201012,11,-0.000649483,-2.61466,-0.288882,-0.204236,19.383,0.26744,
2,0,0,1,0,2436.96,0.265778,0.265487,-2.47052,2,0.0200524,11,-0.000655891,-2.60721,-0.250332,-0.235687,22.7498,0.265487,
2,0,0,1,0,2436.98,0.263781,0.263479,-2.51863,2,0.0200029,11,-0.000663606,-2.59884,-0.270891,-0.217799,21.3639,0.263479,
2,0,0,1,0,2437,0.261783,0.26145,-2.55677,2,0.0199523,11,-0.000668467,-2.59231,-0.395356,-0.149232,14.8389,0.26145,
2,0,0,1,0,2437.02,0.259786,0.259524,-2.57732,2,0.0199012,11,-0.000668876,-2.58883,-0.336086,-0.17555,17.7545,0.259524,
2,0,0,1,0,2437.04,0.257788,0.257526,-2.62644,2,0.0198493,11,-0.000676377,-2.58063,-0.261705,-0.225445,23.0863,0.257526,
2,0,0,1,0,2437.06,0.25579,0.255462,-2.67108,2,0.0197967,11,-0.000682361,-2.57331,-0.383322,-0.153918,15.9682,0.2554625,
2,0,0,1,0,2437.08,0.253793,0.25352,-2.69041,2,0.0197432,11,-0.000682072,-2.57018,-0.408216,-0.144532,15.2361,0.25352,
2,0,0,1,0,2437.1,0.251795,0.251502,-2.73143,2,0.0196891,11,-0.000686959,-2.56361,-0.347058,-0.170001,18.0908,0.251502,
2,0,0,1,0,2437.12,0.249798,0.249485,-2.76341,2,0.0196343,11,-0.000689428,-2.55855,-0.355656,-0.165891,17.9143,0.2494847,
2,0,0,1,0,2437.14,0.2478,0.247509,-2.80296,2,0.0195791,11,-0.000693757,-2.55238,-0.345827,-0.170606,18.6431,0.247509,
2,0,0,1,0,2437.16,0.245802,0.24554,-2.83695,2,0.0195228,11,-0.000696585,-2.54715,-0.367748,-0.160436,17.7707,0.24554,
2,0,0,1,0,2437.18,0.243805,0.243528,-2.87369,2,0.0194658,11,-0.000699826,-2.54156,-0.475304,-0.124131,13.8784,0.243528,
2,0,0,1,0,2437.2,0.241807,0.241513,-2.89283,2,0.0194082,11,-0.000698658,-2.53868,-0.335382,-0.175919,20.0027,0.241513,
2,0,0,1,0,2437.22,0.23981,0.239532,-2.95363,2,0.0193502,11,-0.00070749,-2.52964,-0.327908,-0.179929,20.602,0.239532,
2,0,0,1,0,2437.24,0.237812,0.237508,-2.97535,2,0.0192911,11,-0.000706669,-2.52646,-0.510719,-0.115524,13.4373,0.2375083,
2,0,0,1,0,2437.26,0.235815,0.235532,-3.00738,2,0.0192313,11,-0.000708335,-2.52181,-0.37981,-0.155341,18.2597,0.235532,
2,0,0,1,0,2437.28,0.233817,0.233485,-3.04881,2,0.019171,11,-0.000711851,-2.51587,-0.351841,-0.167689,19.942,0.233485,
2,0,0,1,0,2437.3,0.231815,0.231521,-3.08737,2,0.0191099,11,-0.000714791,-2.51041,-0.354222,-0.166562,20.0752,0.231521,
2,0,0,1,0,2437.32,0.229822,0.229534,-3.12813,2,0.019048,11,-0.000718012,-2.50471,-0.457664,-0.128915,15.6908,0.229534,
2,0,0,1,0,2437.34,0.227824,0.227512,-3.15027,2,0.0189854,11,-0.000716725,-2.50165,-0.418269,-0.141058,17.4121,0.227512,
2,0,0,1,0,2437.36,0.225827,0.22552,-3.19801,2,0.0189221,11,-0.000721217,-2.49512,-0.329961,-0.178809,22.292,0.22552,
2,0,0,1,0,2437.38,0.223829,0.223531,-3.23903,2,0.0188579,11,-0.000724023,-2.48959,-0.346127,-0.170458,21.5579,0.223531,
2,0,0,1,0,2437.4,0.221831,0.221552,-3.28356,2,0.018793,11,-0.00072748,-2.48365,-0.357466,-0.165051,21.1332,0.221552,
2,0,0,1,0,2437.42,0.219834,0.219557,-3.323,2,0.018727,11,-0.000729589,-2.47847,-0.327055,-0.180398,23.4483,0.219557,
2,0,0,1,0,2437.44,0.217836,0.217525,-3.378,2,0.0186601,11,-0.000734798,-2.47134,-0.383036,-0.154033,20.2186,0.217525,
2,0,0,1,0,2437.46,0.215839,0.215548,-3.40407,2,0.0185923,11,-0.000733739,-2.468,-0.316814,-0.186229,24.9114,0.2155479,
2,0,0,1,0,2437.48,0.213841,0.213526,-3.47762,2,0.0185239,11,-0.000742561,-2.45872,-0.266303,-0.221552,29.9483,0.213526,
2,0,0,1,0,2437.5,0.211843,0.211546,-3.5239,2,0.018454,11,-0.000745469,-2.45298,-0.374436,-0.15757,21.6484,0.211546,
2,0,0,1,0,2437.52,0.209846,0.20956,-3.56348,2,0.0183832,11,-0.000746761,-2.44813,-0.314869,-0.187379,26.1493,0.20956,
2,0,0,1,0,2437.54,0.207848,0.207557,-3.62822,2,0.0183114,11,-0.000753063,-2.44031,-0.222063,-0.26569,37.7278,0.207557,
2,0,0,1,0,2437.56,0.205851,0.205555,-3.71457,2,0.0182384,11,-0.000763548,-2.43009,-0.251296,-0.234783,33.8662,0.205555,
2,0,0,1,0,2437.58,0.203853,0.203528,-3.76468,2,0.0181637,11,-0.000766217,-2.42427,-0.30569,-0.193006,28.4093,0.203528,
2,0,0,1,0,2437.6,0.201856,0.201519,-3.82922,2,0.018088,11,-0.000771661,-2.41689,-0.245505,-0.240321,35.9735,0.201519,
2,0,0,1,0,2437.62,0.199858,0.199563,-3.9073,2,0.0180108,11,-0.000779753,-2.40812,-0.217228,-0.271604,41.4539,0.199563,
2,0,0,1,0,2437.64,0.19786,0.197556,-3.99352,2,0.0179323,11,-0.000788943,-2.39864,-0.22638,-0.260623,40.5604,0.197556,
2,0,0,1,0,2437.66,0.195863,0.19557,-4.06925,2,0.0178519,11,-0.000795825,-2.39049,-0.212886,-0.277144,44.1501,0.19557,
2,0,0,1,0,2437.68,0.193865,0.193523,-4.17159,2,0.0177697,11,-0.000807296,-2.3797,-0.197633,-0.298534,48.5298,0.193523,
2,0,0,1,0,2437.7,0.191868,0.191579,-4.26295,2,0.0176854,11,-0.000816692,-2.37029,-0.183723,-0.321135,53.5969,0.191579,
2,0,0,1,0,2437.72,0.18987,0.189575,-4.38315,2,0.0175997,11,-0.000830936,-2.35821,-0.179463,-0.328758,56.1244,0.189575,
2,0,0,1,0,2437.74,0.187872,0.187575,-4.48765,2,0.0175111,11,-0.000841772,-2.34798,-0.174431,-0.338242,59.3933,0.187575,
2,0,0,1,0,2437.76,0.185875,0.185629,-4.61751,2,0.0174202,11,-0.000857145,-2.33559,-0.164943,-0.3577,64.4324,0.185629,
2,0,0,1,0,2437.78,0.183877,0.183568,-4.74583,2,0.0173266,11,-0.000871184,-2.32369,-0.145573,-0.405295,75.4326,0.1835684,
2,0,0,1,0,2437.8,0.18188,0.18157,-4.9237,2,0.0172307,11,-0.000893998,-2.30771,-0.132292,-0.445985,85.5138,0.18157,
2,0,0,1,0,2437.82,0.179882,0.179612,-5.08419,2,0.0171308,11,-0.000913179,-2.29378,-0.145599,-0.405222,80.3695,0.179612,
2,0,0,1,0,2437.84,0.177885,0.177589,-5.24365,2,0.0170276,11,-0.000931216,-2.28037,-0.134847,-0.437533,89.8494,0.177589,
2,0,0,1,0,2437.86,0.175887,0.175611,-5.44366,2,0.0169208,11,-0.000955966,-2.26411,-0.116688,-0.50562,107.661,0.175611,
2,0,0,1,0,2437.88,0.173896,0.173593,-5.67387,2,0.0168102,11,-0.000984945,-2.24612,-0.109419,-0.53921,119.52,0.173593,
2,0,0,1,0,2437.9,0.171892,0.171606,-5.92233,2,0.0166943,11,-0.00101631,-2.22751,-0.108143,-0.545574,126.128,0.171606,
2,0,0,1,0,2437.92,0.169894,0.169574,-6.18075,2,0.0165735,11,-0.0010481,-2.20896,-0.102702,-0.574478,138.917,0.169574,
2,0,0,1,0,2437.94,0.167897,0.167604,-6.4782,2,0.0164471,11,-0.00108577,-2.18855,-0.0961174,-0.613833,155.349,0.167604,
2,0,0,1,0,2437.96,0.165899,0.165597,-6.79859,2,0.0163145,11,-0.00112583,-2.16758,-0.0931471,-0.633406,168.311,0.165597,
2,0,0,1,0,2437.98,0.163901,0.163611,-7.15032,2,0.0161758,11,-0.00116987,-2.14567,-0.0887991,-0.664421,185.627,0.163611,
2,0,0,1,0,2438,0.161904,0.16165,-7.5313,2,0.0160291,11,-0.00121743,-2.12313,-0.0866298,-0.681059,200.538,0.16165,
2,0,0,1,0,2438.02,0.159906,0.159606,-7.95357,2,0.0158744,11,-0.00126943,-2.09944,-0.0849262,-0.694721,215.761,0.159606,
2,0,0,1,0,2438.04,0.157909,0.157622,-8.40035,2,0.0157109,11,-0.00132408,-2.0757,-0.0836359,-0.705439,231.372,0.1576222,
2,0,0,1,0,2438.06,0.155911,0.15564,-8.87117,2,0.0155392,11,-0.00138071,-2.05202,-0.079359,-0.743457,258.233,0.15564,
2,0,0,1,0,2438.08,0.153913,0.153677,-9.41919,2,0.0153562,11,-0.00144751,-2.02599,-0.0793344,-0.743688,272.922,0.153677,
2,0,0,1,0,2438.1,0.151916,0.151663,-9.95648,2,0.0151624,11,-0.00151003,-2.00189,-0.083508,-0.706519,274.709,0.151663,
2,0,0,1,0,2438.12,0.149918,0.149644,-10.5271,2,0.0149576,11,-0.00157532,-1.97769,-0.0842276,-0.700483,287.787,0.149644,
2,0,0,1,0,2438.14,0.147921,0.147623,-11.1192,2,0.0147422,11,-0.00164145,-1.95393,-0.087007,-0.678106,293.652,0.147623,
2,0,0,1,0,2438.16,0.145923,0.1457,-11.6853,2,0.0145142,11,-0.00170254,-1.93236,-0.093948,-0.628007,286.251,0.1457,
2,0,0,1,0,2438.18,0.143926,0.143645,-12.258,2,0.0142747,11,-0.0017608,-1.91158,-0.0984518,-0.599278,286.547,0.1436445,
2,0,0,1,0,2438.2,0.141928,0.141682,-12.8366,2,0.0140238,11,-0.00181871,-1.89155,-0.101715,-0.580051,290.288,0.141682,
2,0,0,1,0,2438.22,0.13993,0.139691,-13.4057,2,0.0137627,11,-0.00187265,-1.87271,-0.114322,-0.516085,269.338,0.139691,
2,0,0,1,0,2438.24,0.137933,0.137648,-13.9231,2,0.0134895,11,-0.00191649,-1.85626,-0.127202,-0.463828,251.775,0.137648,
2,0,0,1,0,2438.26,0.135935,0.135644,-14.4245,2,0.013206,11,-0.0019566,-1.8409,-0.139231,-0.423755,238.075,0.135644,
2,0,0,1,0,2438.28,0.133938,0.133632,-14.8791,2,0.0129129,11,-0.00198832,-1.82742,-0.156628,-0.376689,218.377,0.133632,
2,0,0,1,0,2438.3,0.13194,0.131667,-15.2931,2,0.0126129,11,-0.0020136,-1.8155,-0.183432,-0.321645,191.507,0.131667,
2,0,0,1,0,2438.32,0.129942,0.129661,-15.6395,2,0.0123036,11,-0.00202784,-1.80578,-0.22478,-0.262479,159.903,0.129661,
2,0,0,1,0,2438.34,0.127945,0.127678,-15.931,2,0.0119878,11,-0.00203403,-1.79776,-0.288021,-0.204846,127.047,0.127678,
2,0,0,1,0,2438.36,0.125947,0.125669,-16.1467,2,0.0116671,11,-0.00202915,-1.79192,-0.383289,-0.153931,96.8653,0.125669,
2,0,0,1,0,2438.38,0.12395,0.123672,-16.319,2,0.0113441,11,-0.0020182,-1.78731,-0.591887,-0.0996812,63.3087,0.123672,
2,0,0,1,0,2438.4,0.121952,0.121648,-16.4013,2,0.0110168,11,-0.00199519,-1.78512,-2.48949,-0.0236996,15.1218,0.121648,
2,0,0,1,0,2438.42,0.119955,0.119665,-16.3796,2,0.0106889,11,-0.00196006,-1.7857,1.35618,0.0435047,-27.7536,0.119665,
2,0,0,1,0,2438.44,0.117957,0.117688,-16.2914,2,0.0103622,11,-0.0019173,-1.78804,0.576734,0.1023,-64.8701,0.117688,
2,0,0,1,0,2438.46,0.115955,0.115624,-16.1174,2,0.0100382,11,-0.00186356,-1.7927,0.320994,0.183804,-115.199,0.115624,
2,0,0,1,0,2438.48,0.113962,0.113679,-15.8297,2,0.00972008,11,-0.00179951,-1.80053,0.216948,0.271955,-167.518,0.113679,
2,0,0,1,0,2438.5,0.111964,0.111663,-15.454,2,0.00940722,11,-0.00172565,-1.81096,0.173203,0.34064,-204.858,0.111663,
2,0,0,1,0,2438.52,0.109967,0.109616,-14.9971,2,0.00910271,11,-0.00164392,-1.82399,0.139408,0.423219,-247.005,0.109616,
2,0,0,1,0,2438.54,0.107969,0.107664,-14.4662,2,0.00880813,11,-0.00155749,-1.83965,0.120152,0.491046,-276.827,0.107664,
2,0,0,1,0,2438.56,0.105971,0.105677,-13.9068,2,0.00852589,11,-0.00146963,-1.85677,0.111288,0.530155,-287.184,0.105677,
2,0,0,1,0,2438.58,0.103974,0.103639,-13.3101,2,0.00825389,11,-0.00137944,-1.87582,0.102379,0.576289,-299.159,0.103639,
2,0,0,1,0,2438.6,0.101976,0.101689,-12.7138,2,0.00799385,11,-0.00129286,-1.89572,0.0977868,0.603353,-299.243,0.101689,
2,0,0,1,0,2438.62,0.0999786,0.0996779,-12.1249,2,0.00774577,11,-0.00120859,-1.91632,0.101585,0.580794,-275.491,0.0996779,
2,0,0,1,0,2438.64,0.0979811,0.097686,-11.611,2,0.00750974,11,-0.00113423,-1.93513,0.107543,0.548618,-248.782,0.09768597,
2,0,0,1,0,2438.66,0.0959835,0.0956714,-11.1282,2,0.00728263,11,-0.00106465,-1.95358,0.110309,0.534864,-232.642,0.09567143,
2,0,0,1,0,2438.68,0.0939859,0.0937345,-10.6917,2,0.00706469,11,-0.00100218,-1.97095,0.124459,0.474053,-198.415,0.0937345,
2,0,0,1,0,2438.7,0.0919883,0.0916536,-10.331,2,0.00685467,11,-0.000946872,-1.98586,0.153318,0.384821,-155.743,0.0916536,
2,0,0,1,0,2438.72,0.0899907,0.0896471,-10.0551,2,0.00665198,11,-0.000901415,-1.99761,0.161933,0.364348,-142.838,0.0896471,
2,0,0,1,0,2438.74,0.0879931,0.0876911,-9.76499,2,0.00645402,11,-0.000856303,-2.01033,0.172951,0.341137,-130.4,0.0876911,
2,0,0,1,0,2438.76,0.0859955,0.0856847,-9.53846,2,0.00626119,11,-0.0008173,-2.02052,0.206236,0.28608,-106.604,0.0856847,
2,0,0,1,0,2438.78,0.083998,0.0836541,-9.33464,2,0.00607257,11,-0.000780881,-2.0299,0.234626,0.251464,-91.8173,0.0836541,
2,0,0,1,0,2438.8,0.0820004,0.0817335,-9.17567,2,0.0058884,11,-0.00074996,-2.03736,0.256019,0.230451,-82.4853,0.0817335,
2,0,0,1,0,2438.82,0.0800028,0.0797182,-9.00998,2,0.00570663,11,-0.000718259,-2.04528,0.273986,0.215339,-75.8243,0.0797182,
2,0,0,1,0,2438.84,0.0780052,0.0777132,-8.87083,2,0.00552794,11,-0.00068938,-2.05204,0.289992,0.203454,-70.402,0.0777132,
2,0,0,1,0,2438.86,0.0760076,0.0756659,-8.72469,2,0.00535211,11,-0.000660161,-2.05925,0.29154,0.202373,-68.9649,0.0756659,
2,0,0,1,0,2438.88,0.07401,0.073707,-8.59454,2,0.00518006,11,-0.000633478,-2.06578,0.287328,0.20534,-68.8184,0.073707,
2,0,0,1,0,2438.9,0.0720124,0.0716998,-8.45175,2,0.00500976,11,-0.000605989,-2.07305,0.268876,0.219432,-72.3651,0.0716998,
2,0,0,1,0,2438.92,0.0700148,0.0697394,-8.30743,2,0.00484228,11,-0.000579355,-2.08053,0.252694,0.233484,-75.6317,0.0697394,
2,0,0,1,0,2438.94,0.0680173,0.0677136,-8.15027,2,0.00467783,11,-0.000551884,-2.08883,0.272946,0.21616,-68.8954,0.0677136,
2,0,0,1,0,2438.96,0.0660106,0.0656799,-8.02775,2,0.00451625,11,-0.000527262,-2.09541,0.264886,0.222737,-69.634,0.0656799,
2,0,0,1,0,2438.98,0.0640221,0.0637251,-7.87253,2,0.0043581,11,-0.000501678,-2.10389,0.225267,0.261912,-80.4193,0.0637251,
2,0,0,1,0,2439,0.0620245,0.0617234,-7.70957,2,0.00420241,11,-0.00047586,-2.11297,0.223733,0.263708,-79.378,0.0617234,
2,0,0,1,0,2439.02,0.0600269,0.0597288,-7.55531,2,0.00404988,11,-0.00045127,-2.12175,0.232678,0.253569,-74.8175,0.0597288,
2,0,0,1,0,2439.04,0.0580361,0.0577613,-7.41313,2,0.00390109,11,-0.000428192,-2.13,0.228691,0.257991,-74.5542,0.0577613,
2,0,0,1,0,2439.06,0.0560317,0.0557142,-7.25601,2,0.00375429,11,-0.000404263,-2.1393,0.235564,0.250463,-71.0516,0.0557142,
2,0,0,1,0,2439.08,0.0540342,0.0537269,-7.12648,2,0.00361061,11,-0.000382884,-2.14712,0.247318,0.238559,-66.3299,0.0537269,
2,0,0,1,0,2439.1,0.0520366,0.0517709,-6.99445,2,0.0034695,11,-0.000362109,-2.15525,0.244576,0.241234,-65.8487,0.0517709,
2,0,0,1,0,2439.12,0.050039,0.0497372,-6.86377,2,0.00333099,11,-0.000341385,-2.16344,0.273189,0.215968,-57.9568,0.0497372,
2,0,0,1,0,2439.14,0.0480414,0.047715,-6.75938,2,0.00319545,11,-0.000322524,-2.17009,0.310715,0.189885,-50.1197,0.047715,
2,0,0,1,0,2439.16,0.0460438,0.0457452,-6.66369,2,0.00306127,11,-0.000304832,-2.17629,0.331281,0.178096,-46.3361,0.0457452,
2,0,0,1,0,2439.18,0.0440462,0.0437261,-6.57456,2,0.00292903,11,-0.00028748,-2.18213,0.351747,0.167734,-43.0615,0.0437261,
2,0,0,1,0,2439.2,0.0420486,0.04179,-6.49337,2,0.00279864,11,-0.000271358,-2.18753,0.441144,0.133743,-33.969,0.04179,
2,0,0,1,0,2439.22,0.040051,0.0398205,-6.44189,2,0.00267,11,-0.000256519,-2.19099,0.524796,0.112425,-28.239,0.0398205,
2,0,0,1,0,2439.24,0.0380535,0.0377478,-6.37922,2,0.00254188,11,-0.000240802,-2.19523,0.479471,0.123052,-30.6363,0.0377478,
2,0,0,1,0,2439.26,0.0360559,0.0357579,-6.31742,2,0.00241508,11,-0.000225898,-2.19946,0.64457,0.0915339,-22.6279,0.0357579,
2,0,0,1,0,2439.28,0.0340583,0.0337867,-6.28959,2,0.00228911,11,-0.000212505,-2.20138,1.22441,0.0481865,-11.8362,0.0337867,
2,0,0,1,0,2439.3,0.0320607,0.0317986,-6.27056,2,0.00216419,11,-0.000199395,-2.20269,1.03685,0.056903,-13.9055,0.0317986,
2,0,0,1,0,2439.32,0.0300631,0.0297687,-6.23372,2,0.00203931,11,-0.00018557,-2.20525,1.05058,0.0561597,-13.6826,0.0297687,
2,0,0,1,0,2439.34,0.0280655,0.0277509,-6.21518,2,0.00191494,11,-0.000172477,-2.20655,2.07132,0.0284842,-6.91435,0.02775087,
2,0,0,1,0,2439.36,0.0260679,0.0257745,-6.2061,2,0.0017908,11,-0.000159959,-2.20718,4.56244,0.0129317,-3.13354,0.0257745,
2,0,0,1,0,2439.38,0.0240704,0.0237694,-6.2027,2,0.00166739,11,-0.000147434,-2.20742,62.2653,0.000947559,-0.229486,0.0237694,
2,0,0,1,0,2439.4,0.0220728,0.0217574,-6.20518,2,0.00154337,11,-0.000135009,-2.20725,-23.0174,-0.00256328,0.620621,0.0217574,
2,0,0,1,0,2439.42,0.0200752,0.019784,-6.20517,2,0.00141937,11,-0.000122763,-2.20725,8.4852,0.00695328,-1.68295,0.019784,
2,0,0,1,0,2439.44,0.0180776,0.017756,-6.19845,2,0.0012953,11,-0.00011006,-2.20772,-1.95394,-0.0301953,7.32956,0.017756,
2,0,0,1,0,2439.46,0.01608,0.0157981,-6.23439,2,0.00117176,11,-9.84913e-05,-2.20521,-1.19683,-0.049297,11.9714,0.0157981,
2,0,0,1,0,2439.48,0.0140824,0.0137441,-6.24648,2,0.00104703,11,-8.58522e-05,-2.20436,-2.47984,-0.0237918,5.79954,0.0137441,
2,0,0,1,0,2439.5,0.0120848,0.0117943,-6.25761,2,0.000922066,11,-7.38041e-05,-2.20359,-2.05403,-0.028724,7.01777,0.0117943,
2,0,0,1,0,2439.52,0.0100872,0.00982083,-6.27401,2,0.000796916,11,-6.1616e-05,-2.20245,-1.03138,-0.0572048,14.0326,0.00982083,
2,0,0,1,0,2439.54,0.00809193,0.00780978,-6.31352,2,0.000671849,11,-4.93072e-05,-2.19973,-0.815013,-0.0723915,17.8263,0.00780978,
2,0,0,1,0,2439.56,0.00609208,0.00580604,-6.34558,2,0.000545341,11,-3.68427e-05,-2.19753,-1.42378,-0.0414389,10.2436,0.00580604,
2,0,0,1,0,2439.58,0.00409449,0.00379754,-6.35462,2,0.000418535,11,-2.41319e-05,-2.19691,-0.521574,-0.113119,28.2678,0.00379754,
2,0,0,1,0,2439.6,0.0020969,0.00172223,-6.46102,2,0.000291006,11,-1.11273e-05,-2.1897,-0.52383,-0.112632,28.1829,0.00172223,
2,0,0,1,0,2439.62,9.14991e-05,-0.000252445,-6.46876,2,0.000161708,11,1.63301e-06,-2.18918,-2.61005,-0.022605,5.70995,-0.000252445,
2,0,0,1,0,2439.64,-0.00189827,-0.00226725,-6.4838,2,3.28721e-05,11,1.47004e-05,-2.18817,-1.4268,-0.0413513,10.4729,-0.00226725,
2,0,0,1,0,2439.66,-0.00389586,-0.00422702,-6.51039,2,-9.69349e-05,11,2.75196e-05,-2.18639,-0.876018,-0.0673502,17.1309,-0.00422702,
2,0,0,1,0,2439.68,-0.00589345,-0.00620132,-6.55119,2,-0.000227454,11,4.0626e-05,-2.18368,-0.962902,-0.0612731,15.6433,-0.00620132,
2,0,0,1,0,2439.7,-0.00789103,-0.00824283,-6.57321,2,-0.000358639,11,5.41818e-05,-2.18222,-0.693286,-0.0851019,21.9041,-0.00824283,
2,0,0,1,0,2439.72,-0.00988862,-0.0102195,-6.63921,2,-0.000490147,11,6.78494e-05,-2.17788,-0.54733,-0.107796,27.8866,-0.0102195,
2,0,0,1,0,2439.74,-0.0118862,-0.0122341,-6.68451,2,-0.000623334,11,8.17788e-05,-2.17493,-0.788907,-0.074787,19.4923,-0.01223408,
2,0,0,1,0,2439.76,-0.0138838,-0.0142508,-6.71779,2,-0.000757353,11,9.5734e-05,-2.17277,-0.799725,-0.0737753,19.3572,-0.0142508,
2,0,0,1,0,2439.78,-0.0158814,-0.0162264,-6.76179,2,-0.000892063,11,0.000109719,-2.16994,-0.545464,-0.108165,28.5975,-0.0162264,
2,0,0,1,0,2439.8,-0.017879,-0.0182305,-6.83159,2,-0.00102736,11,0.000124543,-2.16548,-0.573882,-0.102809,27.3489,-0.0182305,
2,0,0,1,0,2439.82,-0.0198766,-0.0202205,-6.87103,2,-0.00116433,11,0.000138936,-2.16298,-0.706952,-0.0834568,22.3976,-0.02022054,
2,0,0,1,0,2439.84,-0.0218741,-0.0222612,-6.92187,2,-0.00130216,11,0.000154089,-2.15978,-0.577509,-0.102163,27.6159,-0.0222612,
2,0,0,1,0,2439.86,-0.0238717,-0.0242351,-6.98189,2,-0.00144108,11,0.000169207,-2.15603,-0.486472,-0.121281,33.073,-0.0242351,
2,0,0,1,0,2439.88,-0.0258693,-0.0262364,-7.05334,2,-0.00158064,11,0.000185054,-2.15161,-0.618752,-0.0953532,26.1738,-0.0262364,
2,0,0,1,0,2439.9,-0.0278669,-0.0281833,-7.08523,2,-0.00172187,11,0.000199685,-2.14965,-0.66688,-0.0884717,24.5207,-0.0281833,
2,0,0,1,0,2439.92,-0.0298645,-0.0301918,-7.15033,2,-0.00186415,11,0.000215881,-2.14567,-0.544454,-0.108366,30.221,-0.0301918,
2,0,0,1,0,2439.94,-0.0318621,-0.0322059,-7.2068,2,-0.00200767,11,0.000232102,-2.14226,-0.535102,-0.110259,31.0379,-0.0322059,
2,0,0,1,0,2439.96,-0.0338597,-0.0342389,-7.27595,2,-0.00215166,11,0.000249121,-2.13811,-0.538571,-0.109549,31.0785,-0.0342389,
2,0,0,1,0,2439.98,-0.0358573,-0.036234,-7.33198,2,-0.00229765,11,0.000265667,-2.13478,-0.539186,-0.109424,31.3328,-0.03623398,
2,0,0,1,0,2440,-0.0378548,-0.0381498,-7.39848,2,-0.00244496,11,0.00028225,-2.13086,-0.586762,-0.100552,28.9975,-0.0381498,
2,0,0,1,0,2440.02,-0.0398524,-0.0402025,-7.44706,2,-0.00259345,11,0.00029939,-2.12802,-0.490731,-0.120229,35.0456,-0.0402025,
2,0,0,1,0,2440.04,-0.04185,-0.042186,-7.53994,2,-0.00274244,11,0.00031808,-2.12263,-0.458587,-0.128656,37.7687,-0.042186,
2,0,0,1,0,2440.06,-0.0438476,-0.0441884,-7.59761,2,-0.00289376,11,0.000335726,-2.11932,-0.58651,-0.100595,29.8358,-0.0441884,
2,0,0,1,0,2440.08,-0.0458452,-0.0462043,-7.65983,2,-0.00304636,11,0.000353917,-2.11578,-0.538561,-0.109551,32.7606,-0.0462043,
2,0,0,1,0,2440.1,-0.0478428,-0.0481616,-7.72777,2,-0.00320021,11,0.000372182,-2.11195,-0.418448,-0.140997,42.6163,-0.0481616,
2,0,0,1,0,2440.12,-0.0498495,-0.0501996,-7.83009,2,-0.00335566,11,0.000393068,-2.10623,-0.411666,-0.14332,43.7107,-0.0501996,
2,0,0,1,0,2440.14,-0.051838,-0.0521582,-7.90246,2,-0.00351216,11,0.000412178,-2.10224,-0.532389,-0.110821,34.1575,-0.0521582,
2,0,0,1,0,2440.16,-0.0538355,-0.0541678,-7.96563,2,-0.00367068,11,0.00043148,-2.09878,-0.487345,-0.121064,37.69,-0.0541678,
2,0,0,1,0,2440.18,-0.0558331,-0.0561333,-8.05229,2,-0.00383085,11,0.000452002,-2.09408,-0.41647,-0.141667,44.5352,-0.0561333,
2,0,0,1,0,2440.2,-0.0578216,-0.0582007,-8.14524,2,-0.00399196,11,0.000474059,-2.0891,-0.416056,-0.141808,45.065,-0.0582007,
2,0,0,1,0,2440.22,-0.0598283,-0.0601667,-8.23405,2,-0.00415578,11,0.000495415,-2.08439,-0.372026,-0.158591,51.0319,-0.06016669,
2,0,0,1,0,2440.24,-0.0618259,-0.0621331,-8.34592,2,-0.00432142,11,0.000518558,-2.07853,-0.397143,-0.148561,48.2989,-0.0621331,
2,0,0,1,0,2440.26,-0.0638235,-0.0641733,-8.42756,2,-0.00448912,11,0.000540825,-2.0743,-0.434852,-0.135678,44.668,-0.0641733,
2,0,0,1,0,2440.28,-0.0658211,-0.0661684,-8.52617,2,-0.00465867,11,0.000564162,-2.06925,-0.355076,-0.166161,55.3703,-0.0661684,
2,0,0,1,0,2440.3,-0.0678187,-0.0681986,-8.65045,2,-0.00482969,11,0.000589948,-2.06296,-0.332493,-0.177447,59.8678,-0.0681986,
2,0,0,1,0,2440.32,-0.0698162,-0.070153,-8.76472,2,-0.00500388,11,0.000614871,-2.05726,-0.352406,-0.167421,57.2539,-0.070153,
2,0,0,1,0,2440.34,-0.0718138,-0.0721331,-8.87571,2,-0.00518029,11,0.000640232,-2.0518,-0.336429,-0.175371,60.8155,-0.0721331,
2,0,0,1,0,2440.36,-0.0738114,-0.0741501,-9.0078,2,-0.00535905,11,0.00066793,-2.04538,-0.292516,-0.201698,70.981,-0.0741501,
2,0,0,1,0,2440.38,-0.075809,-0.0761437,-9.16039,2,-0.00553984,11,0.000697505,-2.03809,-0.312717,-0.188669,67.3076,-0.0761437,
2,0,0,1,0,2440.4,-0.0778066,-0.0781309,-9.27574,2,-0.00572421,11,0.000724722,-2.03265,-0.33795,-0.174582,63.2769,-0.0781309,
2,0,0,1,0,2440.42,-0.0798042,-0.0801685,-9.41506,2,-0.00591103,11,0.000754791,-2.02618,-0.305668,-0.19302,70.9402,-0.0801685,
2,0,0,1,0,2440.44,-0.0818018,-0.0821427,-9.56034,2,-0.0061008,11,0.000785312,-2.01953,-0.287632,-0.205123,76.5914,-0.0821427,
2,0,0,1,0,2440.46,-0.0837994,-0.0841722,-9.72171,2,-0.00629275,11,0.000818298,-2.01226,-0.295899,-0.199393,75.5567,-0.0841722,
2,0,0,1,0,2440.48,-0.0857969,-0.0861133,-9.86034,2,-0.00648848,11,0.000849107,-2.00611,-0.305696,-0.193002,74.3292,-0.0861133,
2,0,0,1,0,2440.5,-0.0877945,-0.0881307,-10.0159,2,-0.00668724,11,0.000882713,-1.99931,-0.304831,-0.19355,75.6262,-0.08813075,
2,0,0,1,0,2440.52,-0.0897921,-0.0901411,-10.165,2,-0.00688902,11,0.000916281,-1.99289,-0.309862,-0.190407,75.5377,-0.09014114,
2,0,0,1,0,2440.54,-0.0917897,-0.0921024,-10.316,2,-0.00709269,11,0.000950124,-1.98649,-0.324775,-0.181664,73.0907,-0.0921024,
2,0,0,1,0,2440.56,-0.0937873,-0.0941096,-10.455,2,-0.00730037,11,0.000983917,-1.98068,-0.358074,-0.164771,67.1969,-0.0941096,
2,0,0,1,0,2440.58,-0.0957849,-0.0961016,-10.5847,2,-0.0075108,11,0.00101721,-1.97532,-0.391229,-0.150807,62.2667,-0.0961016,
2,0,0,1,0,2440.6,-0.0977825,-0.0981288,-10.7053,2,-0.00772364,11,0.0010505,-1.9704,-0.395395,-0.149218,62.3717,-0.0981288,
2,0,0,1,0,2440.62,-0.0997501,-0.100146,-10.837,2,-0.00793465,11,0.00108528,-1.96509,0.00508147,11.6108,-3885.51,-0.100146,
2,0,0,1,1,2440.63,-0.0987313,-0.0991473,-6.74761,2,-0.00807173,11,0.000669008,-2.17085,-0.00476958,-12.3701,2755.95,-0.09914735,
2,0,0,1,1,2440.65,-0.0967337,-0.0971315,-2.52818,2,-0.0081603,11,0.000245566,-2.59719,-0.00110328,-53.4769,1676.33,-0.0971315,
2,0,0,1,1,2440.67,-0.0947361,-0.0951212,0.00151328,2,-0.00818339,11,-1.43945e-07,-5.82008,-0.0206837,-2.85249,1016.69,-0.0951212,
2,1,0,1,1,2440.69,-0.0927386,-0.0930637,1.60747,2,-0.00816612,11,-0.000149597,-2.79386,0.00124136,47.5286,661.351,-0.0930637,
2,1,0,1,1,2440.71,-0.090741,-0.0910918,2.6664,2,-0.00812294,11,-0.000242887,-2.57408,0.0123753,4.76755,441.56,-0.0910918,
2,1,0,1,1,2440.73,-0.0887434,-0.0891166,3.35033,2,-0.00806248,11,-0.00029857,-2.47491,0.0248141,2.37768,299.795,-0.0891166,
2,1,0,1,1,2440.75,-0.0867458,-0.087078,3.8697,2,-0.00799013,11,-0.000336965,-2.41232,0.0396526,1.48792,219.088,-0.087078,
2,1,0,1,1,2440.77,-0.0847482,-0.0851033,4.2296,2,-0.00790903,11,-0.000359953,-2.3737,0.06015,0.98088,159.954,-0.0851033,
2,1,0,1,1,2440.79,-0.0827529,-0.0831175,4.50321,2,-0.00782218,11,-0.000374295,-2.34648,0.0856105,0.689168,120.218,-0.0831175,
2,1,0,1,1,2440.81,-0.080753,-0.0810343,4.71876,2,-0.00772994,11,-0.000382382,-2.32617,0.113953,0.517758,94.7842,-0.0810343,
2,1,0,1,1,2440.83,-0.0787554,-0.0791052,4.8835,2,-0.00763397,11,-0.000386311,-2.31127,0.153915,0.383328,72.7014,-0.0791052,
2,1,0,1,1,2440.85,-0.0767579,-0.0771193,5.00339,2,-0.00753519,11,-0.000385858,-2.30074,0.193456,0.30498,59.5386,-0.0771193,
2,1,0,1,1,2440.87,-0.0747603,-0.0750847,5.12288,2,-0.00743397,11,-0.00038465,-2.29049,0.203166,0.290403,58.023,-0.0750847,
2,1,0,1,1,2440.89,-0.0727627,-0.0730833,5.23757,2,-0.00733073,11,-0.000382779,-2.28087,0.252085,0.234048,47.6538,-0.0730833,
2,1,0,1,1,2440.91,-0.0707651,-0.0711061,5.31247,2,-0.00722525,11,-0.000377749,-2.2747,0.325866,0.181056,37.5344,-0.0711061,
2,1,0,1,1,2440.93,-0.0687675,-0.0691024,5.38699,2,-0.00711838,11,-0.000372254,-2.26865,0.340176,0.17344,36.4511,-0.0691024,
2,1,0,1,1,2440.95,-0.0667699,-0.0671003,5.45849,2,-0.00701002,11,-0.000366266,-2.26293,0.348477,0.169308,36.066,-0.0671003,
2,1,0,1,1,2440.97,-0.0647723,-0.0651316,5.5302,2,-0.00690068,11,-0.000360191,-2.25726,0.445154,0.132539,28.5312,-0.0651316,
2,1,0,1,1,2440.99,-0.0627748,-0.0630645,5.57364,2,-0.0067898,11,-0.000351499,-2.25386,0.491991,0.119921,26.1266,-0.0630645,
2,1,0,1,1,2441.01,-0.0607772,-0.0611202,5.63501,2,-0.0066778,11,-0.000344413,-2.24911,0.502042,0.11752,25.7968,-0.06112019,
2,1,0,1,1,2441.03,-0.0587796,-0.0591026,5.67584,2,-0.00656484,11,-0.000335457,-2.24597,0.65774,0.0897011,19.8647,-0.0591026,
2,1,0,1,1,2441.05,-0.056782,-0.0571454,5.71397,2,-0.00645168,11,-0.000326527,-2.24306,0.762052,0.0774226,17.2545,-0.0571454,
2,1,0,1,1,2441.07,-0.0547844,-0.0550802,5.74524,2,-0.00633724,11,-0.000316449,-2.24069,1.11549,0.0528913,11.8438,-0.05508022,
2,1,0,1,1,2441.09,-0.0527868,-0.05312,5.76164,2,-0.0062223,11,-0.000306059,-2.23945,1.40431,0.0420135,9.45076,-0.05312,
2,1,0,1,1,2441.11,-0.0507892,-0.0511325,5.78255,2,-0.00610698,11,-0.000295676,-2.23788,0.882936,0.0668225,15.1038,-0.0511325,
2,1,0,1,1,2441.13,-0.0487916,-0.0491438,5.8217,2,-0.00599165,11,-0.0002861,-2.23495,0.983425,0.0599944,13.6028,-0.0491438,
2,1,0,1,1,2441.15,-0.046794,-0.0471331,5.83696,2,-0.00587508,11,-0.000275114,-2.23381,5.33272,0.0110638,2.5159,-0.0471331,
2,1,0,1,1,2441.17,-0.0447965,-0.0451268,5.8318,2,-0.00575843,11,-0.00026317,-2.2342,3.63586,0.0162273,3.70127,-0.0451268,
2,1,0,1,1,2441.19,-0.0427989,-0.043097,5.8519,2,-0.00564169,11,-0.000252199,-2.2327,1.23346,0.0478329,10.927,-0.043097,
2,1,0,1,1,2441.21,-0.0408013,-0.041166,5.87508,2,-0.0055252,11,-0.000241854,-2.23099,7.18684,0.00820945,1.87608,-0.041166,
2,1,0,1,1,2441.23,-0.0388037,-0.0391149,5.85937,2,-0.00540788,11,-0.000229189,-2.23215,-8.05384,-0.0073257,-1.67871,-0.0391149,
2,1,0,1,1,2441.25,-0.0368061,-0.0371153,5.86828,2,-0.00529069,11,-0.000217803,-2.23149,3.40635,0.0173206,3.96609,-0.0371153,
2,1,0,1,1,2441.27,-0.0348085,-0.0351331,5.87516,2,-0.00517335,11,-0.000206413,-2.23098,3.45517,0.0170758,3.91593,-0.0351331,
2,1,0,1,1,2441.29,-0.0328109,-0.0331226,5.88392,2,-0.00505654,11,-0.00019489,-2.23033,-4.13745,-0.01426,-3.26604,-0.0331226,
2,1,0,1,1,2441.31,-0.0308134,-0.0311613,5.86219,2,-0.00493923,11,-0.000182674,-2.23194,-2.40245,-0.0245583,-5.6286,-0.0311613,
2,1,0,1,1,2441.33,-0.0288158,-0.0291407,5.86151,2,-0.00482205,11,-0.000170808,-2.23199,-53.3012,-0.00110692,-0.253221,-0.0291407,
2,1,0,1,1,2441.35,-0.0268182,-0.0271361,5.86117,2,-0.00470496,11,-0.000159049,-2.23202,-9.58657,-0.00615445,-1.40719,-0.0271361,
2,1,0,1,1,2441.37,-0.0248138,-0.0251423,5.85588,2,-0.00458814,11,-0.00014723,-2.23241,-5.02405,-0.0117435,-2.6838,-0.0251423,
2,1,0,1,1,2441.39,-0.022823,-0.0231554,5.85048,2,-0.00447178,11,-0.00013547,-2.23281,-2.09399,-0.0281759,-6.42513,-0.0231554,
2,1,0,1,1,2441.41,-0.0208254,-0.0211533,5.83025,2,-0.00435508,11,-0.000123329,-2.23431,-1.39612,-0.0422599,-9.61751,-0.0211533,
2,1,0,1,1,2441.43,-0.0188278,-0.0191848,5.8123,2,-0.00423877,11,-0.000111508,-2.23565,-1.9022,-0.0310167,-7.04038,-0.0191848,
2,1,0,1,1,2441.45,-0.0168393,-0.0171543,5.8021,2,-0.00412327,11,-9.95307e-05,-2.23642,-4.33539,-0.0136089,-3.08369,-0.0171543,
2,1,0,1,1,2441.47,-0.0148327,-0.015157,5.79988,2,-0.00400719,11,-8.7909e-05,-2.23658,-1.60708,-0.0367126,-8.28946,-0.015157,
2,1,0,1,1,2441.49,-0.0128351,-0.0131767,5.76912,2,-0.00389153,11,-7.60182e-05,-2.23889,-1.49742,-0.039401,-8.89112,-0.0131767,
2,1,0,1,1,2441.51,-0.0108375,-0.0111617,5.76435,2,-0.00377629,11,-6.43401e-05,-2.23925,-3.16529,-0.0186397,-4.19067,-0.0111617,
2,1,0,1,1,2441.53,-0.00883989,-0.00919572,5.75244,2,-0.00366118,11,-5.28979e-05,-2.24015,-2.20012,-0.0268168,-6.02023,-0.00919572,
2,1,0,1,1,2441.55,-0.0068423,-0.0071673,5.74031,2,-0.00354679,11,-4.11425e-05,-2.24106,-1.5991,-0.0368958,-8.25924,-0.0071673,
2,1,0,1,1,2441.57,-0.00484471,-0.00518886,5.71935,2,-0.00343229,11,-2.96769e-05,-2.24265,-1.64536,-0.0358585,-8.01083,-0.00518886,
2,1,0,1,1,2441.59,-0.00284713,-0.00317224,5.7083,2,-0.00331814,11,-1.81081e-05,-2.24349,-1.56727,-0.0376451,-8.37819,-0.00317224,
2,1,0,1,1,2441.61,-0.000849538,-0.00121122,5.68602,2,-0.00320435,11,-6.88705e-06,-2.24519, , , ,-0.00121122,
2,1,0,0,1,2441.62,-2.55332e-05,-0.000401673,5.6739,2,-0.00315839,11,-2.27905e-06,-2.24612, , , ,-0.000401673,