File: Figure_codes/Fig_3-5/rawdata_trumpetplot_data/before 10th/20221101_1-115_002_TrumpetPlot_ParaChange_13_CV_C01_7.csv
mode,ox/red,error,control changes,counter inc.,time/s,control/V,Ewe/V,<I>/mA,cycle number,(Q-Qo)/C,I Range,P/W,log(|I|),Tafel slope mV/dec,alpha_eff,dI/d(E-IR),E-IR/V,
2,1,0,0,0,9835.59,2.44065e-05,-0.000439847,14.4098,8,0.0000000E+000,10,-6.3381e-06,-1.84134, , , ,-0.000439847,
2,1,0,1,0,9835.6,0.00206084,0.00167778,13.7176,8,7.03137e-05,10,2.30152e-05,-1.86272, , , ,0.00167778,
2,1,0,1,0,9835.6,0.00446904,0.00415808,14.4279,8,0.000154781,10,5.99923e-05,-1.8408,0.122185,0.482873,273.309,0.00415808,
2,1,0,1,0,9835.61,0.00686614,0.00653763,15.1544,8,0.000243606,10,9.90739e-05,-1.81946,0.116331,0.507172,299.066,0.006537627,
2,1,0,1,0,9835.61,0.00926324,0.00889809,15.8678,8,0.000336777,10,0.000141193,-1.79948,0.131835,0.44753,275.426,0.00889809,
2,1,0,1,0,9835.62,0.0116603,0.0113519,16.4884,8,0.000433963,10,0.000187174,-1.78282,0.153708,0.383844,245.827,0.0113519,
2,1,0,1,0,9835.63,0.0140685,0.0137039,17.0401,8,0.000534607,10,0.000233516,-1.76853,0.179463,0.328759,217.814,0.0137039,
2,1,0,1,0,9835.63,0.0164657,0.0161375,17.5387,8,0.000638399,10,0.00028303,-1.756,0.214674,0.274835,187.291,0.0161375,
2,1,0,1,0,9835.64,0.0188628,0.0185393,17.948,8,0.000744931,10,0.000332744,-1.74598,0.24745,0.238432,166.573,0.0185393,
2,1,0,1,0,9835.64,0.0212682,0.0209719,18.3293,8,0.00085377,10,0.0003844,-1.73685,0.288271,0.204668,146.101,0.0209719,
2,1,0,1,0,9835.65,0.0236653,0.0233493,18.664,8,0.000964771,10,0.000435792,-1.72899,0.321952,0.183257,133.129,0.0233493,
2,1,0,1,0,9835.66,0.0260624,0.0256833,18.9491,8,0.00107764,10,0.000486674,-1.72241,0.362612,0.162708,120.172,0.0256833,
2,1,0,1,0,9835.66,0.0284595,0.0281455,19.2148,8,0.00119218,10,0.00054081,-1.71636,0.404,0.14604,109.419,0.0281455,
2,1,0,1,0,9835.67,0.0308677,0.0305336,19.4759,8,0.00130831,10,0.00059467,-1.7105,0.434433,0.135809,103.11,0.0305336,
2,1,0,1,0,9835.67,0.0332648,0.0329375,19.7065,8,0.00142589,10,0.000649082,-1.70539,0.476101,0.123923,95.2669,0.0329375,
2,1,0,1,0,9835.68,0.0356619,0.0353754,19.9339,8,0.00154485,10,0.000705169,-1.70041,0.500122,0.117971,91.7489,0.0353754,
2,1,0,1,0,9835.69,0.0380673,0.0377009,20.1485,8,0.00166514,10,0.000759617,-1.69576,0.498644,0.118321,93.09,0.0377009,
2,1,0,1,0,9835.69,0.0404644,0.040126,20.3816,8,0.00178673,10,0.000817831,-1.69076,0.525419,0.112291,89.2919,0.040126,
2,1,0,1,0,9835.7,0.0428615,0.0425755,20.606,8,0.00190974,10,0.000877312,-1.68601,0.500231,0.117945,94.828,0.0425755,
2,1,0,1,0,9835.7,0.0452586,0.0449031,20.8119,8,0.00203398,10,0.00093452,-1.68169,0.499458,0.118128,96.0922,0.0449031,
2,1,0,1,0,9835.71,0.0476668,0.0473325,21.0676,8,0.00215967,10,0.000997183,-1.67638,0.477251,0.123625,101.581,0.0473325,
2,1,0,1,0,9835.72,0.0500639,0.0497471,21.3118,8,0.00228684,10,0.0010602,-1.67138,0.485134,0.121616,101.131,0.0497471,
2,1,0,1,0,9835.72,0.0524611,0.0521075,21.5429,8,0.0024154,10,0.00112255,-1.6667,0.453405,0.130126,109.587,0.0521075,
2,1,0,1,0,9835.73,0.0548693,0.0545094,21.8318,8,0.00254555,10,0.00119004,-1.66091,0.425519,0.138654,118.143,0.0545094,
2,1,0,1,0,9835.73,0.0572664,0.0569228,22.1097,8,0.00267743,10,0.00125855,-1.65542,0.425891,0.138533,119.582,0.0569228,
2,1,0,1,0,9835.74,0.0596635,0.0593416,22.4,8,0.002811,10,0.00132925,-1.64975,0.410348,0.143781,125.838,0.0593416,
2,1,0,1,0,9835.75,0.0620633,0.0617551,22.7086,8,0.00294635,10,0.00140237,-1.64381,0.386345,0.152713,135.513,0.0617551,
2,1,0,1,0,9835.75,0.064466,0.0641389,23.0524,8,0.0030837,10,0.00147855,-1.63728,0.367614,0.160495,144.473,0.0641389,
2,1,0,1,0,9835.76,0.0668631,0.0665535,23.4182,8,0.00322314,10,0.00155856,-1.63045,0.371036,0.159014,145.253,0.0665535,
2,1,0,1,0,9835.76,0.0692602,0.068915,23.7631,8,0.00336473,10,0.00163763,-1.6241,0.355754,0.165845,153.906,0.06891498,
2,1,0,1,0,9835.77,0.0716684,0.0713603,24.1426,8,0.00350844,10,0.00172282,-1.61722,0.356438,0.165527,155.994,0.0713603,
2,1,0,1,0,9835.78,0.0740655,0.0736762,24.5308,8,0.00365449,10,0.00180733,-1.61029,0.353677,0.166819,159.581,0.0736762,
2,1,0,1,0,9835.78,0.0764626,0.076095,24.8894,8,0.0038028,10,0.00189396,-1.60399,0.356025,0.165719,161.091,0.076095,
2,1,0,1,0,9835.79,0.0788653,0.0785064,25.2808,8,0.00395334,10,0.0019847,-1.59721,0.341087,0.172976,170.896,0.0785064,
2,1,0,1,0,9835.79,0.0812651,0.0808658,25.7051,8,0.00410633,10,0.00207866,-1.58998,0.336311,0.175433,176,0.0808658,
2,1,0,1,0,9835.8,0.0836622,0.0833312,26.1321,8,0.00426193,10,0.00217762,-1.58283,0.327645,0.180073,183.712,0.0833312,
2,1,0,1,0,9835.81,0.0860593,0.0857182,26.5686,8,0.00442009,10,0.00227741,-1.57563,0.335095,0.176069,182.666,0.0857182,
2,1,0,1,0,9835.81,0.0884675,0.0881433,27.0404,8,0.00458102,10,0.00238343,-1.56799,0.338388,0.174356,183.839,0.0881433,
2,1,0,1,0,9835.82,0.0908647,0.0905303,27.4703,8,0.0047446,10,0.0024869,-1.56114,0.35531,0.166052,177.985,0.0905303,
2,1,0,1,0,9835.82,0.0932618,0.0929798,27.9003,8,0.00491076,10,0.00259417,-1.55439,0.348895,0.169105,184.207,0.0929798,
2,1,0,1,0,9835.83,0.09567,0.0953424,28.353,8,0.00507955,10,0.00270324,-1.5474,0.353297,0.166998,184.744,0.0953424,
2,1,0,1,0,9835.84,0.0980671,0.0977453,28.8001,8,0.00525103,10,0.00281507,-1.54061,0.359353,0.164184,184.405,0.0977453,
2,1,0,1,0,9835.84,0.100464,0.100149,29.2231,8,0.00542514,10,0.00292667,-1.53427,0.364326,0.161943,184.747,0.100149,
2,1,0,1,0,9835.85,0.102861,0.102551,29.6539,8,0.00560178,10,0.00304104,-1.52792,0.362806,0.162621,188.355,0.102551,
2,1,0,1,0,9835.85,0.105267,0.1049,30.1284,8,0.00578122,10,0.00316046,-1.52102,0.370434,0.159273,187.081,0.1049,
2,1,0,1,0,9835.86,0.107664,0.107343,30.5687,8,0.00596339,10,0.00328134,-1.51472,0.384582,0.153413,182.977,0.107343,
2,1,0,1,0,9835.87,0.110061,0.109707,31.0005,8,0.00614811,10,0.00340096,-1.50863,0.370596,0.159203,192.797,0.109707,
2,1,0,1,0,9835.87,0.112469,0.112145,31.4894,8,0.0063356,10,0.00353137,-1.50184,0.374229,0.157657,193.605,0.112145,
2,1,0,1,0,9835.88,0.114866,0.114522,31.939,8,0.00652595,10,0.00365772,-1.49568,0.376341,0.156773,195.442,0.114522,
2,1,0,1,0,9835.88,0.117263,0.116912,32.4141,8,0.00671902,10,0.0037896,-1.48927,0.362511,0.162754,206.094,0.116912,
2,1,0,1,0,9835.89,0.11966,0.119306,32.9181,8,0.00691504,10,0.00392731,-1.48257,0.357221,0.165164,212.219,0.119306,
2,1,0,1,0,9835.9,0.122066,0.121755,33.4326,8,0.00711418,10,0.00407058,-1.47583,0.355073,0.166163,216.82,0.121755,
2,1,0,1,0,9835.9,0.124463,0.12415,33.9538,8,0.00731639,10,0.00421538,-1.46911,0.349271,0.168923,223.942,0.1241505,
2,1,0,1,0,9835.91,0.12686,0.126527,34.505,8,0.00752181,10,0.00436581,-1.46212,0.33352,0.176901,238.412,0.126527,
2,1,0,1,0,9835.91,0.129268,0.128904,35.1041,8,0.00773064,10,0.00452507,-1.45464,0.328076,0.179836,246.362,0.1289043,
2,1,0,1,0,9835.92,0.131665,0.131314,35.6947,8,0.0079431,10,0.00468719,-1.4474,0.324147,0.182016,253.552,0.131314,
2,1,0,1,0,9835.93,0.134062,0.133726,36.3034,8,0.00815915,10,0.00485471,-1.44005,0.316573,0.186371,264.346,0.133726,
2,1,0,1,0,9835.93,0.13646,0.136135,36.9637,8,0.00837898,10,0.00503207,-1.43222,0.309775,0.190461,274.806,0.136135,
2,1,0,1,0,9835.94,0.138868,0.138557,37.6444,8,0.00860291,10,0.0052159,-1.4243,0.309416,0.190682,280,0.138557,
2,1,0,1,0,9835.94,0.141265,0.140938,38.3017,8,0.00883078,10,0.00539815,-1.41678,0.313255,0.188345,281.705,0.140938,
2,1,0,1,0,9835.95,0.143662,0.143347,38.9997,8,0.00906273,10,0.00559049,-1.40894,0.311143,0.189623,288.572,0.143347,
2,1,0,1,0,9835.96,0.146067,0.145764,39.7049,8,0.00929892,10,0.00578754,-1.40116,0.313533,0.188178,291.412,0.1457637,
2,1,0,1,0,9835.96,0.148465,0.14815,40.3849,8,0.00953924,10,0.00598301,-1.39378,0.327011,0.180422,284.379,0.14815,
2,1,0,1,0,9835.97,0.150862,0.150522,41.0682,8,0.00978369,10,0.00618165,-1.38649,0.326605,0.180647,289.516,0.150522,
2,1,0,1,0,9835.97,0.153264,0.152893,41.7585,8,0.0100323,10,0.00638457,-1.37926,0.3372,0.17497,285.042,0.152893,
2,1,0,1,0,9835.98,0.155667,0.155335,42.4341,8,0.010285,10,0.0065915,-1.37228,0.356235,0.165621,274.1,0.1553349,
2,1,0,1,0,9835.99,0.158064,0.157739,43.0867,8,0.0105416,10,0.00679644,-1.36566,0.372831,0.158248,265.903,0.157739,
2,1,0,1,0,9835.99,0.160461,0.160104,43.7037,8,0.010802,10,0.00699712,-1.35948,0.390477,0.151097,257.617,0.160104,
2,1,0,1,0,9836,0.162867,0.162568,44.3316,8,0.0110662,10,0.0072069,-1.35329,0.42243,0.139668,241.302,0.162568,
2,1,0,1,0,9836,0.165264,0.164924,44.8758,8,0.0113339,10,0.0074011,-1.34799,0.458942,0.128557,225.013,0.164924,
2,1,0,1,0,9836.01,0.167661,0.167319,45.4019,8,0.0116048,10,0.00759657,-1.34293,0.496679,0.118789,210.334,0.167319,
2,1,0,1,0,9836.02,0.170069,0.169713,45.9,8,0.0118787,10,0.00778983,-1.33819,0.589675,0.100055,178.843,0.169713,
2,1,0,1,0,9836.02,0.172466,0.172079,46.2714,8,0.0121554,10,0.00796233,-1.33469,0.72828,0.0810128,146.056,0.172079,
2,1,0,1,0,9836.03,0.174863,0.174551,46.5765,8,0.012434,10,0.00812996,-1.33183,1.02141,0.0577634,104.812,0.174551,
2,1,0,1,0,9836.03,0.17726,0.176943,46.7896,8,0.0127142,10,0.00827908,-1.32985,1.98059,0.0297892,54.2413,0.176943,
2,1,0,1,0,9836.04,0.179668,0.179324,46.8505,8,0.0129952,10,0.00840144,-1.32929,-10.8063,-0.00545976,-9.95132,0.179324,
2,1,0,1,0,9836.05,0.182066,0.181753,46.7383,8,0.013276,10,0.00849482,-1.33033,-1.29361,-0.0456089,-82.9209,0.181753,
2,1,0,1,0,9836.05,0.184463,0.184114,46.4626,8,0.0135557,10,0.00855442,-1.3329,-0.642109,-0.0918848,-165.91,0.184114,
2,1,0,1,0,9836.06,0.186868,0.186577,45.9723,8,0.013833,10,0.00857736,-1.3375,-0.407917,-0.144637,-258.221,0.1865766,
2,1,0,1,0,9836.06,0.189265,0.188931,45.2245,8,0.0141066,10,0.00854429,-1.34463,-0.291209,-0.202604,-355.91,0.188931,
2,1,0,1,0,9836.07,0.191662,0.191361,44.2464,8,0.014375,10,0.00846705,-1.35412,-0.226936,-0.259985,-446.931,0.191361,
2,1,0,1,0,9836.08,0.194059,0.193727,43.0568,8,0.014637,10,0.00834126,-1.36596,-0.181783,-0.324562,-542.546,0.193727,
2,1,0,1,0,9836.08,0.196468,0.196185,41.6488,8,0.0148911,10,0.00817086,-1.3804,-0.153276,-0.384926,-622.404,0.196185,
2,1,0,1,0,9836.09,0.198865,0.198563,40.0224,8,0.015136,10,0.00794698,-1.3977,-0.130903,-0.450714,-701.163,0.198563,
2,1,0,1,0,9836.09,0.201262,0.200941,38.2705,8,0.0153707,10,0.00769011,-1.41714,-0.116355,-0.507068,-754.324,0.200941,
2,1,0,1,0,9836.1,0.203667,0.203355,36.4103,8,0.0155946,10,0.00740423,-1.43878,-0.107112,-0.550826,-780.139,0.203355,
2,1,0,1,0,9836.11,0.206064,0.205792,34.4743,8,0.0158071,10,0.00709455,-1.4625,-0.0994081,-0.593513,-797.455,0.205792,
2,1,0,1,0,9836.11,0.208461,0.2082,32.5745,8,0.016008,10,0.00678203,-1.48712,-0.09591,-0.61516,-781.288,0.2082,
2,1,0,1,0,9836.12,0.210859,0.210579,30.6914,8,0.0161976,10,0.00646296,-1.51298,-0.0927306,-0.636252,-762.395,0.2105789,
2,1,0,1,0,9836.12,0.213267,0.21296,28.9038,8,0.0163762,10,0.00615534,-1.53905,-0.0913929,-0.645564,-729.266,0.21296,
2,1,0,1,0,9836.13,0.215664,0.21537,27.2261,8,0.0165444,10,0.00586369,-1.56501,-0.0953034,-0.619075,-659.673,0.21537,
2,1,0,1,0,9836.14,0.218061,0.217781,25.6927,8,0.0167029,10,0.00559539,-1.59019,-0.0983405,-0.599956,-603.925,0.2177812,
2,1,0,1,0,9836.14,0.220469,0.220216,24.3359,8,0.0168528,10,0.00535916,-1.61375,-0.104048,-0.567049,-540.251,0.2202159,
2,1,0,1,0,9836.15,0.222866,0.222586,23.096,8,0.0169949,10,0.00514084,-1.63646,-0.112385,-0.524982,-475.362,0.222586,
2,1,0,1,0,9836.15,0.225263,0.22495,22.0228,8,0.01713,10,0.00495402,-1.65713,-0.121546,-0.485413,-419.35,0.22495,
2,1,0,1,0,9836.16,0.227663,0.22736,21.0972,8,0.0172593,10,0.00479667,-1.67577,-0.135236,-0.436273,-360.726,0.22736,
2,1,0,1,0,9836.17,0.230066,0.229723,20.2987,8,0.0173834,10,0.00466308,-1.69253,-0.153068,-0.385449,-306.802,0.229723,
2,1,0,1,0,9836.17,0.232463,0.232156,19.6281,8,0.017503,10,0.00455677,-1.70712,-0.169563,-0.347953,-267.505,0.232156,
2,1,0,1,0,9836.18,0.23486,0.234555,19.0492,8,0.017619,10,0.00446808,-1.72012,-0.195954,-0.301092,-224.586,0.234555,
2,1,0,1,0,9836.18,0.237268,0.23693,18.5569,8,0.0177317,10,0.00439669,-1.73149,-0.225579,-0.261549,-190.036,0.23693,
2,1,0,1,0,9836.19,0.239665,0.239355,18.1351,8,0.0178417,10,0.00434072,-1.74148,-0.252114,-0.234021,-166,0.239355,
2,1,0,1,0,9836.2,0.242063,0.241725,17.7683,8,0.0179493,10,0.00429505,-1.75035,-0.295343,-0.199767,-138.92,0.241725,
2,1,0,1,0,9836.2,0.244465,0.244152,17.4615,8,0.0180549,10,0.00426327,-1.75792,-0.329599,-0.179006,-122.248,0.244152,
2,1,0,1,0,9836.21,0.246865,0.246573,17.1993,8,0.0181589,10,0.00424088,-1.76449,-0.373996,-0.157756,-105.988,0.246573,
2,1,0,1,0,9836.21,0.249262,0.248907,16.95,8,0.0182613,10,0.00421898,-1.77083,-0.413152,-0.142805,-94.6316,0.248907,
2,1,0,1,0,9836.22,0.251659,0.251352,16.7381,8,0.0183623,10,0.00420715,-1.77629,-0.459134,-0.128503,-84.0451,0.251352,
2,1,0,1,0,9836.23,0.254067,0.253798,16.5637,8,0.0184623,10,0.00420384,-1.78084,-0.518636,-0.11376,-73.5701,0.253798,
2,1,0,1,0,9836.23,0.256465,0.256145,16.3924,8,0.0185611,10,0.00419883,-1.78536,-0.548859,-0.107496,-68.8234,0.256145,
2,1,0,1,0,9836.24,0.258862,0.258542,16.2406,8,0.0186589,10,0.00419888,-1.7894,-0.626104,-0.0942335,-59.7428,0.258542,
2,1,0,1,0,9836.24,0.26127,0.260947,16.1077,8,0.0187559,10,0.00420326,-1.79297,-0.672541,-0.087727,-55.1524,0.2609472,
2,1,0,1,0,9836.25,0.263667,0.263362,15.9731,8,0.0188521,10,0.00420671,-1.79661,-0.717609,-0.0822174,-51.2559,0.263362,
2,1,0,1,0,9836.26,0.266064,0.26574,15.8506,8,0.0189476,10,0.00421213,-1.79996,-0.742212,-0.0794921,-49.1839,0.26574,
2,1,0,1,0,9836.26,0.268461,0.268193,15.7251,8,0.0190423,10,0.00421735,-1.80341,-0.811475,-0.0727071,-44.6976,0.268193,
2,1,0,1,0,9836.27,0.270867,0.270564,15.6405,8,0.0191364,10,0.00423176,-1.80575,-0.855021,-0.0690041,-42.0917,0.270564,
2,1,0,1,0,9836.27,0.273264,0.272975,15.5337,8,0.0192299,10,0.00424031,-1.80873,-0.829932,-0.0710901,-43.082,0.272975,
2,1,0,1,0,9836.28,0.275661,0.275332,15.4258,8,0.0193228,10,0.00424722,-1.81175,-0.889544,-0.0663261,-39.9978,0.275332,
2,1,0,1,0,9836.29,0.278069,0.277783,15.3481,8,0.0194151,10,0.00426343,-1.81395,-0.977297,-0.0603706,-36.1526,0.277783,
2,1,0,1,0,9836.29,0.280466,0.280189,15.2674,8,0.0195069,10,0.00427776,-1.81624,-0.93629,-0.0630147,-37.5116,0.280189,
2,1,0,1,0,9836.3,0.282863,0.282565,15.1705,8,0.0195982,10,0.00428665,-1.819,-0.995916,-0.0592419,-35.1153,0.282565,
2,1,0,1,0,9836.3,0.28526,0.284941,15.0921,8,0.019689,10,0.00430034,-1.82125,-1.06675,-0.0553083,-32.5831,0.284941,
2,1,0,1,0,9836.31,0.287666,0.287375,15.0132,8,0.0197793,10,0.00431441,-1.82353,-1.06246,-0.0555314,-32.537,0.287375,
2,1,0,1,0,9836.32,0.290063,0.289722,14.9347,8,0.0198692,10,0.00432692,-1.8258,-1.03166,-0.0571894,-33.3332,0.289722,
2,1,0,1,0,9836.32,0.29246,0.292163,14.8525,8,0.0199585,10,0.00433935,-1.8282,-1.14868,-0.0513634,-29.8121,0.2921634,
2,1,0,1,0,9836.33,0.294868,0.294508,14.7955,8,0.0200474,10,0.0043574,-1.82987,-1.22122,-0.0483125,-27.896,0.294508,
2,1,0,1,0,9836.33,0.297265,0.296943,14.7317,8,0.020136,10,0.00437446,-1.83175,-1.3068,-0.0451485,-25.9433,0.296943,
2,1,0,1,0,9836.34,0.29958,0.299298,14.6467,8,0.0202212,10,0.00438372,-1.83426,-0.0626934,-0.941087,-511.737,0.299298,
2,1,0,1,0,9836.34,0.299962,0.299823,14.5179,8,0.0202402,10,0.0043528,-1.8381,0.00565763,10.4284,4311.38,0.299823,
2,1,0,1,0,9836.35,0.297903,0.297745,9.01992,8,0.0202984,10,0.00268564,-2.0448,0.00831348,7.09691,2122.04,0.297745,
2,1,0,1,0,9836.35,0.295506,0.295247,4.54435,8,0.020338,10,0.0013417,-2.34253,0.00478678,12.3256,1621.31,0.295247,
2,1,0,1,0,9836.36,0.293101,0.292856,1.34037,8,0.0203548,10,0.000392535,-2.87278,0.0115151,5.12372,1155.45,0.292856,
2,0,0,1,0,9836.36,0.290704,0.290432,-0.977895,8,0.0203554,10,-0.000284012,-3.00971,-0.0461054,-1.27968,852.898,0.290432,
2,0,0,1,0,9836.37,0.288307,0.288021,-2.69497,8,0.0203439,10,-0.000776209,-2.56945,-0.00534869,-11.0307,637.473,0.288021,
2,0,0,1,0,9836.38,0.28591,0.285622,-3.98382,8,0.0203236,10,-0.00113786,-2.3997,-0.0167837,-3.51531,480.292,0.285622,
2,0,0,1,0,9836.38,0.283501,0.283257,-4.99762,8,0.0202964,10,-0.00141561,-2.30124,-0.0290212,-2.033,371.683,0.283257,
2,0,0,1,0,9836.39,0.281104,0.280864,-5.76566,8,0.020264,10,-0.00161936,-2.23915,-0.0443708,-1.3297,288.755,0.2808637,
2,0,0,1,0,9836.39,0.278707,0.278425,-6.36191,8,0.0202275,10,-0.00177131,-2.19641,-0.0619053,-0.953069,232.263,0.2784248,
2,0,0,1,0,9836.4,0.276302,0.276004,-6.87903,8,0.0201877,10,-0.00189864,-2.16247,-0.0819273,-0.720151,190.162,0.276004,
2,0,0,1,0,9836.41,0.273905,0.273658,-7.27602,8,0.0201452,10,-0.00199114,-2.13811,-0.106321,-0.554922,155.837,0.273658,
2,0,0,1,0,9836.41,0.271508,0.271197,-7.60146,8,0.0201005,10,-0.00206149,-2.1191,-0.132617,-0.444892,131.49,0.271197,
2,0,0,1,0,9836.42,0.269105,0.268808,-7.90269,8,0.0200539,10,-0.00212431,-2.10222,-0.156502,-0.376992,115.579,0.268808,
2,0,0,1,0,9836.42,0.266702,0.266436,-8.15311,8,0.0200057,10,-0.00217228,-2.08868,-0.187461,-0.314732,99.6784,0.266436,
2,0,0,1,0,9836.43,0.264305,0.263977,-8.37056,8,0.0199561,10,-0.00220963,-2.07725,-0.227245,-0.259631,84.6419,0.263977,
2,0,0,1,0,9836.44,0.261908,0.261596,-8.57102,8,0.0199052,10,-0.00224215,-2.06697,-0.242622,-0.243177,81.3008,0.261596,
2,0,0,1,0,9836.44,0.2595,0.259226,-8.76914,8,0.0198532,10,-0.00227319,-2.05704,-0.265675,-0.222076,75.7699,0.259226,
2,0,0,1,0,9836.45,0.257103,0.256761,-8.94511,8,0.0198,10,-0.00229675,-2.04841,-0.30929,-0.19076,66.3928,0.256761,
2,0,0,1,0,9836.45,0.254706,0.254412,-9.08656,8,0.0197459,10,-0.00231173,-2.0416,-0.322176,-0.18313,64.9935,0.254412,
2,0,0,1,0,9836.46,0.2523,0.251978,-9.25302,8,0.0196909,10,-0.00233156,-2.03372,-0.336037,-0.175576,63.3185,0.251978,
2,0,0,1,0,9836.47,0.249903,0.249574,-9.40154,8,0.0196349,10,-0.00234638,-2.0268,-0.363508,-0.162307,59.4166,0.2495743,
2,0,0,1,0,9836.47,0.247506,0.247213,-9.52648,8,0.0195781,10,-0.00235507,-2.02107,-0.382367,-0.154302,57.449,0.247213,
2,0,0,1,0,9836.48,0.245109,0.244808,-9.6622,8,0.0195206,10,-0.00236538,-2.01492,-0.376812,-0.156577,59.0819,0.244808,
2,0,0,1,0,9836.48,0.242701,0.242437,-9.81305,8,0.0194621,10,-0.00237904,-2.0082,-0.390516,-0.151082,57.7056,0.242437,
2,0,0,1,0,9836.49,0.240304,0.240037,-9.92944,8,0.0194028,10,-0.00238343,-2.00308,-0.448197,-0.131639,51.0764,0.240037,
2,0,0,1,0,9836.5,0.237906,0.237564,-10.0555,8,0.0193429,10,-0.00238882,-1.9976,-0.428042,-0.137837,54.1213,0.237564,
2,0,0,1,0,9836.5,0.235501,0.235209,-10.2021,8,0.0192821,10,-0.00239961,-1.99131,-0.448793,-0.131464,52.2699,0.235209,
2,0,0,1,0,9836.51,0.233104,0.232801,-10.3144,8,0.0192205,10,-0.0024012,-1.98656,-0.467265,-0.126267,50.8142,0.232801,
2,0,0,1,0,9836.51,0.230707,0.230415,-10.4358,8,0.0191582,10,-0.00240456,-1.98147,-0.453802,-0.130013,53.0199,0.230415,
2,0,0,1,0,9836.52,0.22831,0.227997,-10.5589,8,0.0190953,10,-0.0024074,-1.97638,-0.45891,-0.128565,53.0184,0.227997,
2,0,0,1,0,9836.53,0.225902,0.225619,-10.6957,8,0.0190314,10,-0.00241314,-1.97079,-0.481582,-0.122513,51.0492,0.225619,
2,0,0,1,0,9836.53,0.223504,0.223227,-10.8046,8,0.0189669,10,-0.00241188,-1.96639,-0.498222,-0.118421,49.9834,0.223227,
2,0,0,1,0,9836.54,0.221107,0.220793,-10.9287,8,0.0189017,10,-0.00241298,-1.96143,-0.460675,-0.128073,54.7178,0.220793,
2,0,0,1,0,9836.54,0.218699,0.218381,-11.0871,8,0.0188357,10,-0.00242121,-1.95518,-0.465278,-0.126806,54.7155,0.2183814,
2,0,0,1,0,9836.55,0.216302,0.215982,-11.1974,8,0.0187688,10,-0.00241843,-1.95088,-0.496241,-0.118894,51.967,0.215982,
2,0,0,1,0,9836.56,0.213905,0.213635,-11.3201,8,0.0187013,10,-0.00241837,-1.94615,-0.453248,-0.130172,57.6367,0.213635,
2,0,0,1,0,9836.56,0.211505,0.2112,-11.4639,8,0.0186329,10,-0.00242118,-1.94067,-0.452124,-0.130495,58.3565,0.2112003,
2,0,0,1,0,9836.57,0.209102,0.208803,-11.6026,8,0.0185636,10,-0.00242265,-1.93545,-0.465973,-0.126617,57.3438,0.208803,
2,0,0,1,0,9836.57,0.206705,0.206404,-11.7505,8,0.0184936,10,-0.00242535,-1.92994,-0.454982,-0.129675,59.4806,0.2064041,
2,0,0,1,0,9836.58,0.204308,0.204008,-11.8976,8,0.0184227,10,-0.00242721,-1.92454,-0.410542,-0.143713,66.754,0.204008,
2,0,0,1,0,9836.59,0.2019,0.201574,-12.0656,8,0.0183508,10,-0.00243212,-1.91845,-0.419917,-0.140504,66.093,0.201574,
2,0,0,1,0,9836.59,0.199503,0.199193,-12.2101,8,0.0182779,10,-0.00243217,-1.91328,-0.425548,-0.138645,66.1218,0.199193,
2,0,0,1,0,9836.6,0.197106,0.196801,-12.371,8,0.0182042,10,-0.00243462,-1.9076,-0.382931,-0.154075,74.5083,0.196801,
2,0,0,1,0,9836.6,0.194709,0.194375,-12.557,8,0.0181294,10,-0.00244077,-1.90111,-0.381337,-0.154719,75.8418,0.194375,
2,0,0,1,0,9836.61,0.192303,0.191972,-12.7424,8,0.0180534,10,-0.00244619,-1.89475,-0.375403,-0.157164,78.1179,0.191972,
2,0,0,1,0,9836.62,0.189906,0.189547,-12.9253,8,0.0179764,10,-0.00244996,-1.88856,-0.358831,-0.164423,83.1198,0.189547,
2,0,0,1,0,9836.62,0.187509,0.1872,-13.1342,8,0.0178982,10,-0.00245873,-1.8816,-0.337233,-0.174953,89.7286,0.1872,
2,0,0,1,0,9836.63,0.185101,0.184809,-13.373,8,0.0178187,10,-0.00247145,-1.87377,-0.324982,-0.181548,94.6969,0.184809,
2,0,0,1,0,9836.63,0.182704,0.182383,-13.5882,8,0.0177378,10,-0.00247825,-1.86684,-0.31096,-0.189735,100.848,0.182383,
2,0,0,1,0,9836.64,0.180307,0.180002,-13.8527,8,0.0176555,10,-0.00249351,-1.85847,-0.283833,-0.207868,112.478,0.180002,
2,0,0,1,0,9836.65,0.177904,0.177619,-14.1305,8,0.0175715,10,-0.00250985,-1.84984,-0.275484,-0.214168,118.175,0.177619,
2,0,0,1,0,9836.65,0.175501,0.175159,-14.4309,8,0.0174858,10,-0.0025277,-1.84071,-0.253972,-0.232309,130.955,0.175159,
2,0,0,1,0,9836.66,0.173104,0.172784,-14.7498,8,0.0173983,10,-0.00254852,-1.83122,-0.241369,-0.244439,140.854,0.172784,
2,0,0,1,0,9836.66,0.170707,0.170426,-15.0928,8,0.0173088,10,-0.0025722,-1.82123,-0.226949,-0.25997,153.394,0.170426,
2,0,0,1,0,9836.67,0.168302,0.167973,-15.4821,8,0.017217,10,-0.00260057,-1.81017,-0.214362,-0.275236,166.45,0.167973,
2,0,0,1,0,9836.68,0.165905,0.165628,-15.8862,8,0.0171229,10,-0.0026312,-1.79898,-0.201116,-0.293363,182.225,0.165628,
2,0,0,1,0,9836.68,0.163507,0.163249,-16.3367,8,0.0170262,10,-0.00266694,-1.78684,-0.191406,-0.308245,196.93,0.163249,
2,0,0,1,0,9836.69,0.161099,0.160785,-16.8418,8,0.0169266,10,-0.00270792,-1.77361,-0.184561,-0.319677,210.278,0.160785,
2,0,0,1,0,9836.69,0.158702,0.15838,-17.3618,8,0.016824,10,-0.00274977,-1.7604,-0.173671,-0.339724,230.727,0.1583804,
2,0,0,1,0,9836.7,0.156305,0.156014,-17.9406,8,0.016718,10,-0.00279897,-1.74616,-0.163139,-0.361656,253.91,0.156014,
2,0,0,1,0,9836.71,0.153908,0.153587,-18.5857,8,0.0166084,10,-0.00285452,-1.73082,-0.154621,-0.381577,277.131,0.153587,
2,0,0,1,0,9836.71,0.151503,0.151209,-19.2661,8,0.0164948,10,-0.00291321,-1.71521,-0.149212,-0.395411,297.836,0.151209,
2,0,0,1,0,9836.72,0.149105,0.148787,-20.0015,8,0.0163769,10,-0.00297596,-1.69894,-0.143521,-0.41109,321.488,0.1487869,
2,0,0,1,0,9836.72,0.146708,0.146386,-20.7903,8,0.0162545,10,-0.00304341,-1.68214,-0.138744,-0.425244,345.808,0.146386,
2,0,0,1,0,9836.73,0.1443,0.144012,-21.6685,8,0.016127,10,-0.00312053,-1.66417,-0.132967,-0.443721,375.82,0.1440119,
2,0,0,1,0,9836.74,0.141903,0.1417,-22.5891,8,0.0159942,10,-0.00320088,-1.6461,-0.13199,-0.447005,394.478,0.1417,
2,0,0,1,0,9836.74,0.139506,0.139178,-23.575,8,0.0158556,10,-0.00328111,-1.62755,-0.130122,-0.45342,417.435,0.139178,
2,0,0,1,0,9836.75,0.137109,0.136832,-24.5923,8,0.015711,10,-0.00336502,-1.6092,-0.129326,-0.456212,438.237,0.136832,
2,0,0,1,0,9836.75,0.134701,0.134427,-25.6642,8,0.0155602,10,-0.00344996,-1.59067,-0.13103,-0.450277,450.961,0.134427,
2,0,0,1,0,9836.76,0.132303,0.132031,-26.7568,8,0.0154028,10,-0.00353273,-1.57257,-0.13227,-0.446059,465.944,0.132031,
2,0,0,1,0,9836.77,0.129906,0.129587,-27.8902,8,0.0152388,10,-0.00361421,-1.55455,-0.135486,-0.435469,473.729,0.129587,
2,0,0,1,0,9836.77,0.127501,0.12722,-29.0415,8,0.0150678,10,-0.00369466,-1.53698,-0.141537,-0.416851,471.351,0.12722,
2,0,0,1,0,9836.78,0.125104,0.124849,-30.1543,8,0.0148901,10,-0.00376474,-1.52065,-0.146422,-0.402946,473.934,0.1248493,
2,0,0,1,0,9836.78,0.122707,0.122455,-31.2765,8,0.0147058,10,-0.00382997,-1.50478,-0.15059,-0.391792,478.394,0.1224549,
2,0,0,1,0,9836.79,0.12031,0.120077,-32.4413,8,0.0145145,10,-0.00389547,-1.4889,-0.156266,-0.377562,477.282,0.120077,
2,0,0,1,0,9836.8,0.117901,0.117634,-33.5683,8,0.0143163,10,-0.00394879,-1.47407,-0.165684,-0.3561,466.044,0.117634,
2,0,0,1,0,9836.8,0.115504,0.115269,-34.6903,8,0.0141114,10,-0.0039987,-1.45979,-0.176358,-0.334546,452.099,0.115269,
2,0,0,1,0,9836.81,0.113107,0.112848,-35.7502,8,0.0139,10,-0.00403433,-1.44672,-0.189442,-0.311442,433.805,0.112848,
2,0,0,1,0,9836.81,0.110702,0.110422,-36.7686,8,0.0136823,10,-0.00406008,-1.43452,-0.203646,-0.289718,415.085,0.110422,
2,0,0,1,0,9836.82,0.108305,0.108067,-37.7433,8,0.0134587,10,-0.00407882,-1.42316,-0.219275,-0.269069,395.686,0.1080673,
2,0,0,1,0,9836.83,0.105908,0.105661,-38.6626,8,0.0132294,10,-0.00408514,-1.41271,-0.234178,-0.251945,379.704,0.105661,
2,0,0,1,0,9836.83,0.103505,0.103242,-39.5418,8,0.0129947,10,-0.00408239,-1.40294,-0.257062,-0.229516,353.707,0.103242,
2,0,0,1,0,9836.84,0.101102,0.100842,-40.3813,8,0.0127548,10,-0.00407212,-1.39382,-0.275745,-0.213965,336.709,0.1008417,
2,0,0,1,0,9836.84,0.0987052,0.0984208,-41.1622,8,0.01251,10,-0.00405122,-1.3855,-0.308532,-0.191228,306.601,0.0984208,
2,0,0,1,0,9836.85,0.0963081,0.096055,-41.8611,8,0.0122608,10,-0.00402097,-1.37819,-0.349072,-0.16902,275.673,0.096055,
2,0,0,1,0,9836.86,0.0938999,0.093632,-42.4929,8,0.0120076,10,-0.00397869,-1.37168,-0.40003,-0.147489,244.219,0.09363199,
2,0,0,1,0,9836.86,0.0915028,0.0911973,-43.0525,8,0.0117509,10,-0.00392627,-1.366,-0.469261,-0.12573,210.837,0.0911973,
2,0,0,1,0,9836.87,0.0891057,0.0887425,-43.5208,8,0.0114911,10,-0.00386214,-1.3613,-0.567553,-0.103955,176.23,0.0887425,
2,0,0,1,0,9836.87,0.0867002,0.0863714,-43.9017,8,0.0112289,10,-0.00379185,-1.35752,-0.700708,-0.0842005,144.049,0.0863714,
2,0,0,1,0,9836.88,0.0843031,0.0840152,-44.2091,8,0.0109644,10,-0.00371423,-1.35449,-0.93024,-0.0634245,109.195,0.0840152,
2,0,0,1,0,9836.89,0.081906,0.0816102,-44.4253,8,0.0106985,10,-0.00362556,-1.35237,-1.49237,-0.0395345,68.4121,0.0816102,
2,0,0,1,0,9836.89,0.0795089,0.079202,-44.5281,8,0.0104316,10,-0.00352671,-1.35137,-3.23759,-0.0182235,31.6276,0.079202,
2,0,0,1,0,9836.9,0.0771007,0.0767715,-44.5833,8,0.0101642,10,-0.00342273,-1.35083,28.2134,0.00209121,-3.63095,0.0767715,
2,0,0,1,0,9836.9,0.0747036,0.0743994,-44.5145,8,0.00989685,10,-0.00331185,-1.3515,2.08284,0.0283267,-49.1126,0.0743994,
2,0,0,1,0,9836.91,0.0723065,0.0719573,-44.3547,8,0.00963021,10,-0.00319164,-1.35306,1.2683,0.0465189,-80.3909,0.0719573,
2,0,0,1,0,9836.92,0.0699011,0.0695809,-44.1257,8,0.00936481,10,-0.0030703,-1.35531,0.876997,0.067275,-115.654,0.0695809,
2,0,0,1,0,9836.92,0.067504,0.0672204,-43.8056,8,0.00910102,10,-0.00294463,-1.35847,0.698452,0.0844725,-144.187,0.0672204,
2,0,0,1,0,9836.93,0.0651069,0.0647879,-43.4211,8,0.00883935,10,-0.00281316,-1.3623,0.583053,0.101192,-171.26,0.0647879,
2,0,0,1,0,9836.93,0.0627098,0.062385,-42.9576,8,0.00858022,10,-0.00267991,-1.36696,0.512755,0.115065,-192.82,0.062385,
2,0,0,1,0,9836.94,0.0603016,0.0599853,-42.4964,8,0.00832387,10,-0.00254916,-1.37165,0.476758,0.123752,-205.082,0.0599853,
2,0,0,1,0,9836.95,0.0579045,0.0576174,-41.9845,8,0.00807049,10,-0.00241904,-1.37691,0.436406,0.135195,-221.314,0.0576174,
2,0,0,1,0,9836.95,0.0555074,0.0552156,-41.4306,8,0.00782028,10,-0.00228761,-1.38268,0.428964,0.137541,-222.469,0.0552156,
2,0,0,1,0,9836.96,0.0530992,0.052783,-40.9152,8,0.00757334,10,-0.00215963,-1.38812,0.422523,0.139637,-222.895,0.052783,
2,0,0,1,0,9836.96,0.0507021,0.0503897,-40.379,8,0.00732951,10,-0.00203469,-1.39384,0.416339,0.141712,-223.212,0.0503897,
2,0,0,1,0,9836.97,0.048305,0.0479507,-39.8274,8,0.00708897,10,-0.00190975,-1.39982,0.413059,0.142837,-222.109,0.0479507,
2,0,0,1,0,9836.98,0.0459051,0.0455807,-39.3049,8,0.00685164,10,-0.00179155,-1.40555,0.41868,0.140919,-216.171,0.04558073,
2,0,0,1,0,9836.98,0.0435024,0.0432022,-38.7887,8,0.00661737,10,-0.00167576,-1.41129,0.416281,0.141731,-214.542,0.04320224,
2,0,0,1,0,9836.99,0.0411053,0.0407888,-38.2746,8,0.00638622,10,-0.00156117,-1.41709,0.405172,0.145617,-217.527,0.0407888,
2,0,0,1,0,9836.99,0.0387082,0.0383689,-37.7705,8,0.00615815,10,-0.00144921,-1.42285,0.41322,0.142781,-210.476,0.0383689,
2,0,0,1,0,9837,0.0363,0.0360021,-37.2669,8,0.00593313,10,-0.00134168,-1.42868,0.406548,0.145124,-210.995,0.0360021,
2,0,0,1,0,9837.01,0.0339029,0.0335981,-36.7626,8,0.0057111,10,-0.00123515,-1.43459,0.391416,0.150735,-216.071,0.03359814,
2,0,0,1,0,9837.01,0.0315058,0.0311857,-36.2305,8,0.0054922,10,-0.00112987,-1.44093,0.383947,0.153667,-217.23,0.0311857,
2,0,0,1,0,9837.02,0.0291087,0.0287956,-35.6961,8,0.00527652,10,-0.00102789,-1.44738,0.367143,0.1607,-223.807,0.0287956,
2,0,0,1,0,9837.02,0.0267033,0.0264086,-35.1621,8,0.00506396,10,-0.000928582,-1.45392,0.350632,0.168267,-230.613,0.0264086,
2,0,0,1,0,9837.03,0.0243062,0.0240407,-34.576,8,0.00485476,10,-0.00083123,-1.46123,0.323182,0.182559,-246.22,0.0240407,
2,0,0,1,0,9837.04,0.0219091,0.0215668,-33.986,8,0.00464912,10,-0.000732969,-1.4687,0.313574,0.188153,-249.493,0.0215668,
2,0,0,1,0,9837.04,0.0195009,0.0191862,-33.3883,8,0.00444705,10,-0.000640593,-1.47641,0.294622,0.200257,-260.599,0.0191862,
2,0,0,1,0,9837.05,0.0171038,0.0167737,-32.7387,8,0.0042487,10,-0.000549151,-1.48494,0.276224,0.213595,-272.768,0.0167737,
2,0,0,1,0,9837.05,0.0147067,0.0143963,-32.0855,8,0.00405431,10,-0.000461912,-1.49369,0.267684,0.220409,-275.846,0.0143963,
2,0,0,1,0,9837.06,0.012304,0.0119849,-31.4232,8,0.00386387,10,-0.000376605,-1.50275,0.261841,0.225328,-276.124,0.0119849,
2,0,0,1,0,9837.07,0.00990136,0.00963295,-30.7391,8,0.00367748,10,-0.000296108,-1.51231,0.250362,0.235659,-282.592,0.00963295,
2,0,0,1,0,9837.07,0.00750426,0.00721205,-30.0588,8,0.00349515,10,-0.000216786,-1.52203,0.24819,0.237721,-278.876,0.00721205,
2,0,0,1,0,9837.08,0.00510715,0.00480386,-29.3878,8,0.0033169,10,-0.000141175,-1.53183,0.261101,0.225966,-259.693,0.00480386,
2,0,0,1,0,9837.08,0.00270173,0.00237871,-28.7575,8,0.00314252,10,-6.84059e-05,-1.54125,0.266963,0.221004,-248.402,0.00237871,
2,0,0,1,0,9837.09,0.000304623,-8.99133e-05,-28.2048,8,0.00297154,10,2.53599e-06,-1.54968,0.27174,0.217119,-238.939,-8.99133e-05,
2,0,0,1,0,9837.1,-0.00209248,-0.00245356,-27.6124,8,0.00280415,10,6.77487e-05,-1.5589,0.278099,0.212155,-229.134,-0.00245356,
2,0,0,1,0,9837.1,-0.00450068,-0.0048363,-27.1124,8,0.00264006,10,0.000131124,-1.56683,0.298922,0.197376,-208.997,-0.0048363,
2,0,0,1,0,9837.11,-0.00689779,-0.00727417,-26.6385,8,0.00247886,10,0.000193773,-1.57449,0.323891,0.18216,-189.533,-0.00727417,
2,0,0,1,0,9837.11,-0.00929489,-0.00968342,-26.1975,8,0.00232047,10,0.000253681,-1.58174,0.362773,0.162636,-166.694,-0.00968342,
2,0,0,1,0,9837.12,-0.011692,-0.0120821,-25.8352,8,0.00216444,10,0.000312143,-1.58779,0.416519,0.14165,-143.018,-0.0120821,
2,0,0,1,0,9837.13,-0.0140974,-0.0144669,-25.5198,8,0.00201039,10,0.000369193,-1.59312,0.461963,0.127716,-127.33,-0.01446691,
2,0,0,1,0,9837.13,-0.0164945,-0.016874,-25.2308,8,0.00185822,10,0.000425746,-1.59807,0.537245,0.109819,-108.362,-0.016874,
2,0,0,1,0,9837.14,-0.0188916,-0.019226,-25.0005,8,0.00170759,10,0.000480659,-1.60205,0.680489,0.0867024,-84.7368,-0.019226,
2,0,0,1,0,9837.14,-0.0212998,-0.0216384,-24.8124,8,0.00155816,10,0.000536902,-1.60533,0.823607,0.0716361,-69.4496,-0.0216384,
2,0,0,1,0,9837.15,-0.0236969,-0.0240222,-24.6604,8,0.00140974,10,0.000592397,-1.608,0.976869,0.0603971,-58.2036,-0.02402224,
2,0,0,1,0,9837.16,-0.026094,-0.026475,-24.5422,8,0.00126216,10,0.000649754,-1.61009,1.40418,0.0420175,-40.3064,-0.026475,
2,0,0,1,0,9837.16,-0.0284912,-0.0288397,-24.4565,8,0.00111519,10,0.000705317,-1.61161,1.86775,0.0315889,-30.1798,-0.0288397,
2,0,0,1,0,9837.17,-0.0308994,-0.0312733,-24.4124,8,0.000968557,10,0.000763456,-1.61239,2.8199,0.0209228,-19.9392,-0.0312733,
2,0,0,1,0,9837.17,-0.0332965,-0.0336592,-24.3622,8,0.000822271,10,0.000820014,-1.61328,6.34335,0.00930108,-8.86024,-0.0336592,
2,0,0,1,0,9837.18,-0.0356936,-0.0360748,-24.3603,8,0.000676127,10,0.000878795,-1.61332,-14.3289,-0.00411755,3.91967,-0.0360748,
2,0,0,1,0,9837.19,-0.038099,-0.0384342,-24.3966,8,0.000529834,10,0.000937666,-1.61267,-6.03862,-0.00977045,9.2997,-0.0384342,
2,0,0,1,0,9837.19,-0.0404961,-0.0408573,-24.4054,8,0.000383424,10,0.000997137,-1.61251,-3.63053,-0.0162511,15.4981,-0.0408573,
2,0,0,1,0,9837.2,-0.0428932,-0.0432082,-24.4603,8,0.000236849,10,0.00105689,-1.61154,-2.14214,-0.0275426,26.3123,-0.0432082,
2,0,0,1,0,9837.2,-0.0452903,-0.0456344,-24.5369,8,8.98579e-05,10,0.00111973,-1.61018,-1.78443,-0.0330639,31.6561,-0.0456344,
2,0,0,1,0,9837.21,-0.0476985,-0.0480479,-24.6029,8,-5.75767e-05,10,0.00118212,-1.60901,-1.58703,-0.0371763,35.7205,-0.0480479,
2,0,0,1,0,9837.22,-0.0500956,-0.050472,-24.698,8,-0.000205486,10,0.00124656,-1.60734,-1.45824,-0.0404597,39.0136,-0.050472,
2,0,0,1,0,9837.22,-0.0524927,-0.0528335,-24.7982,8,-0.000354011,10,0.00131018,-1.60558,-1.2722,-0.0463762,44.9056,-0.0528335,
2,0,0,1,0,9837.23,-0.0548981,-0.0552449,-24.9242,8,-0.000503178,10,0.00137694,-1.60338,-1.25456,-0.0470284,45.7385,-0.0552449,
2,0,0,1,0,9837.23,-0.0572953,-0.0576233,-25.0338,8,-0.00065305,10,0.00144253,-1.60147,-1.11333,-0.052994,51.8102,-0.0576233,
2,0,0,1,0,9837.24,-0.0596924,-0.0600803,-25.1601,8,-0.000803617,10,0.00151163,-1.59929,-0.998288,-0.0591012,58.0861,-0.0600803,
2,0,0,1,0,9837.25,-0.062095,-0.0624927,-25.3259,8,-0.000955074,10,0.00158269,-1.59644,-0.992515,-0.0594449,58.6957,-0.0624927,
2,0,0,1,0,9837.25,-0.0644977,-0.0648712,-25.4597,8,-0.00110745,10,0.0016516,-1.59415,-0.920383,-0.0641038,63.6969,-0.0648712,
2,0,0,1,0,9837.26,-0.0668948,-0.0672275,-25.5979,8,-0.0012606,10,0.00172088,-1.5918,-0.894951,-0.0659254,65.926,-0.06722746,
2,0,0,1,0,9837.26,-0.0692919,-0.0696675,-25.7739,8,-0.00141474,10,0.0017956,-1.58882,-0.857022,-0.068843,69.2393,-0.0696675,
2,0,0,1,0,9837.27,-0.0717001,-0.0720512,-25.9321,8,-0.00156992,10,0.00186844,-1.58616,-0.800619,-0.073693,74.6187,-0.0720512,
2,0,0,1,0,9837.28,-0.0740972,-0.0744266,-26.1074,8,-0.00172604,10,0.00194308,-1.58324,-0.828706,-0.0711954,72.606,-0.0744266,
2,0,0,1,0,9837.28,-0.0764943,-0.0768453,-26.3043,8,-0.00188331,10,0.00202137,-1.57997,-0.772651,-0.0763605,78.3604,-0.0768453,
2,0,0,1,0,9837.29,-0.0788997,-0.079209,-26.4854,8,-0.00204168,10,0.00209788,-1.57699,-0.783212,-0.0753308,77.8727,-0.079209,
2,0,0,1,0,9837.29,-0.0812968,-0.0816649,-26.6781,8,-0.00220118,10,0.00217867,-1.57385,-0.741844,-0.0795316,82.8182,-0.0816649,
2,0,0,1,0,9837.3,-0.0836939,-0.0840699,-26.8861,8,-0.00236187,10,0.00226031,-1.57047,-0.720024,-0.0819417,85.965,-0.0840699,
2,0,0,1,0,9837.31,-0.086091,-0.086424,-27.089,8,-0.0025238,10,0.00234114,-1.56721,-0.706543,-0.0835051,88.3026,-0.086424,
2,0,0,1,0,9837.31,-0.0884992,-0.0888417,-27.3128,8,-0.00268703,10,0.00242651,-1.56363,-0.681525,-0.0865706,92.2648,-0.0888417,
2,0,0,1,0,9837.32,-0.0908963,-0.0912404,-27.5232,8,-0.00285155,10,0.00251123,-1.5603,-0.677202,-0.0871231,93.6515,-0.0912404,
2,0,0,1,0,9837.32,-0.0932934,-0.0936295,-27.7578,8,-0.00301744,10,0.00259895,-1.55662,-0.649087,-0.0908969,98.5042,-0.0936295,
2,0,0,1,0,9837.33,-0.0956989,-0.0961045,-28.0102,8,-0.00318475,10,0.00269191,-1.55268,-0.649388,-0.0908547,99.2919,-0.0961045,
2,0,0,1,0,9837.34,-0.098096,-0.0984617,-28.2359,8,-0.0033535,10,0.00278016,-1.5492,-0.678879,-0.0869079,95.5183,-0.0984617,
2,0,0,0,0,9837.34,-0.0999548,-0.100267,-28.4181,8,-0.0034867,10,0.00284938,-1.54641,0.0235749,2.50266,-2562.21,-0.100267,
2,0,0,1,1,9837.34,-0.0994555,-0.0999145,-26.7008,8,-0.00353319,10,0.0026678,-1.57348,-0.0175904,-3.35411,3031.2,-0.0999145,
2,0,0,1,1,9837.35,-0.0970583,-0.0974957,-20.3908,8,-0.00367306,10,0.00198801,-1.69057,-0.0192347,-3.06737,2413.43,-0.0974957,
2,0,0,1,1,9837.35,-0.0946501,-0.0951013,-15.2792,8,-0.00377919,10,0.00145307,-1.8159,-0.0176836,-3.33643,1967.54,-0.0951013,
2,0,0,1,1,9837.36,-0.092253,-0.0926846,-10.9559,8,-0.00385714,10,0.00101544,-1.96035,-0.0145151,-4.06474,1678.16,-0.0926846,
2,0,0,1,1,9837.37,-0.0898559,-0.0902945,-7.21716,8,-0.00391103,10,0.00065167,-2.14163,-0.0103068,-5.72436,1456.29,-0.0902945,
2,0,0,1,1,9837.37,-0.0874588,-0.0878853,-3.92845,8,-0.00394394,10,0.000345253,-2.40578,-0.00375746,-15.7021,1282.09,-0.0878853,
2,0,0,1,1,9837.38,-0.0850534,-0.085494,-1.04136,8,-0.00395833,10,8.90298e-05,-2.9824,-0.0185526,-3.18014,1146.74,-0.085494,
2,1,0,1,1,9837.38,-0.0826563,-0.0830805,1.48966,8,-0.00395661,10,-0.000123762,-2.82691,0.0176791,3.33727,1008.68,-0.0830805,
2,1,0,1,1,9837.39,-0.0802592,-0.0806957,3.77181,8,-0.0039405,10,-0.000304369,-2.42345,0.00649769,9.08014,900.375,-0.0806957,
2,1,0,1,1,9837.4,-0.077851,-0.0782822,5.80697,8,-0.00391146,10,-0.000454583,-2.23605,0.0149348,3.95049,796.89,-0.0782822,
2,1,0,1,1,9837.4,-0.0754539,-0.0759048,7.57984,8,-0.00387107,10,-0.000575346,-2.12034,0.0232724,2.53519,712.498,-0.0759048,
2,1,0,1,1,9837.41,-0.0730568,-0.0734658,9.21307,8,-0.00382051,10,-0.000676846,-2.0356,0.0316421,1.86461,649.056,-0.0734658,
2,1,0,1,1,9837.41,-0.0706597,-0.071081,10.6856,8,-0.00376057,10,-0.000759539,-1.9712,0.0411229,1.43472,584.025,-0.071081,
2,1,0,1,1,9837.42,-0.0682542,-0.068694,12.0086,8,-0.00369226,10,-0.000824919,-1.92051,0.0522423,1.12935,520.621,-0.068694,
2,1,0,1,1,9837.43,-0.0658571,-0.0663261,13.1843,8,-0.00361651,10,-0.000874462,-1.87994,0.0639687,0.922326,468.837,-0.0663261,
2,1,0,1,1,9837.43,-0.06346,-0.0638607,14.2429,8,-0.00353404,10,-0.000909562,-1.8464,0.077771,0.758638,417.813,-0.06386067,
2,1,0,1,1,9837.44,-0.0610518,-0.0614366,15.2189,8,-0.00344546,10,-0.000934995,-1.81762,0.0934091,0.63163,371.51,-0.0614366,
2,1,0,1,1,9837.44,-0.0586547,-0.0590305,16.0566,8,-0.00335151,10,-0.000947829,-1.79435,0.110983,0.531612,331.106,-0.0590305,
2,1,0,1,1,9837.45,-0.0562576,-0.0566425,16.8025,8,-0.00325285,10,-0.000951734,-1.77463,0.129316,0.456245,297.75,-0.0566425,
2,1,0,1,1,9837.46,-0.053855,-0.0542194,17.4924,8,-0.00314987,10,-0.000948426,-1.75715,0.152965,0.385709,261.769,-0.0542194,
2,1,0,1,1,9837.46,-0.0514523,-0.0518494,18.0704,8,-0.00304312,10,-0.000936941,-1.74303,0.17642,0.334428,235.053,-0.05184944,
2,1,0,1,1,9837.47,-0.0490552,-0.0494497,18.6048,8,-0.00293305,10,-0.000920003,-1.73037,0.203197,0.290359,210.154,-0.0494497,
2,1,0,1,1,9837.47,-0.0466581,-0.0470182,19.081,8,-0.0028199,10,-0.000897155,-1.7194,0.236379,0.249599,185.205,-0.0470182,
2,1,0,1,1,9837.48,-0.0442527,-0.0446302,19.4874,8,-0.00270411,10,-0.000869727,-1.71025,0.274472,0.214958,163.145,-0.0446302,
2,1,0,1,1,9837.49,-0.0418556,-0.0422422,19.8558,8,-0.00258602,10,-0.000838753,-1.70211,0.319225,0.184822,142.928,-0.0422422,
2,1,0,1,1,9837.49,-0.0394585,-0.0398382,20.1833,8,-0.00246584,10,-0.000804068,-1.69501,0.364315,0.161948,127.289,-0.03983821,
2,1,0,1,1,9837.5,-0.0370558,-0.0374777,20.4568,8,-0.00234388,10,-0.000766673,-1.68916,0.429321,0.137426,109.571,-0.0374777,
2,1,0,1,1,9837.5,-0.0346532,-0.0350123,20.709,8,-0.00222032,10,-0.000725068,-1.68384,0.495761,0.119009,96.0073,-0.0350123,
2,1,0,1,1,9837.51,-0.0322561,-0.0326211,20.9101,8,-0.00209541,10,-0.000682109,-1.67964,0.610996,0.0965637,78.7114,-0.0326211,
2,1,0,1,1,9837.52,-0.0298589,-0.030233,21.0948,8,-0.00196935,10,-0.000637761,-1.67582,0.715788,0.0824267,67.7589,-0.030233,
2,1,0,1,1,9837.52,-0.0274535,-0.0278026,21.241,8,-0.00184232,10,-0.000590554,-1.67283,0.883475,0.0667818,55.3002,-0.0278026,
2,1,0,1,1,9837.53,-0.0250564,-0.0253923,21.3518,8,-0.00171453,10,-0.000542172,-1.67056,1.08159,0.0545494,45.4398,-0.0253923,
2,1,0,1,1,9837.53,-0.0226593,-0.023052,21.4592,8,-0.00158606,10,-0.000494677,-1.66839,1.30965,0.0450502,37.6737,-0.023052,
2,1,0,1,1,9837.54,-0.0202511,-0.0206024,21.5408,8,-0.00145706,10,-0.000443794,-1.66674,1.92283,0.0306839,25.7629,-0.0206024,
2,1,0,1,1,9837.55,-0.017854,-0.0182059,21.5779,8,-0.00132771,10,-0.000392845,-1.66599,2.45137,0.0240681,20.2597,-0.0182059,
2,1,0,1,1,9837.55,-0.0154569,-0.0158433,21.6261,8,-0.00119807,10,-0.000342629,-1.66502,4.01322,0.0147014,12.3953,-0.0158433,
2,1,0,1,1,9837.56,-0.0130598,-0.0134341,21.6395,8,-0.00106824,10,-0.000290707,-1.66475,5.98973,0.00985019,8.31853,-0.0134341,
2,1,0,1,1,9837.56,-0.0106516,-0.01101,21.6625,8,-0.000938335,10,-0.000238504,-1.66429,74.7535,0.000789261,0.666878,-0.01101,
2,1,0,1,1,9837.57,-0.00825448,-0.00862725,21.6622,8,-0.00080835,10,-0.000186885,-1.6643,-9.03228,-0.00653213,-5.5162,-0.00862725,
2,1,0,1,1,9837.58,-0.00585738,-0.00624239,21.6369,8,-0.000678478,10,-0.000135066,-1.66481,-5.40165,-0.0109226,-9.22342,-0.00624239,
2,1,0,1,1,9837.58,-0.00345195,-0.00381406,21.6129,8,-0.000548759,10,-8.24329e-05,-1.66529,-4.61433,-0.0127863,-10.781,-0.00381406,
2,1,0,1,1,9837.59,-0.00105485,-0.00142921,21.5821,8,-0.000419162,10,-3.08453e-05,-1.66591, , , ,-0.00142921,
2,1,0,0,1,9837.59,-7.54729e-05,-0.000439847,21.546,8,-0.000365229,10,-9.47697e-06,-1.66663, , , ,-0.000439847,