File: Figure_codes/Fig_3-5/rawdata_trumpetplot_data/before 10th/20221101_1-115_002_TrumpetPlot_ParaChange_07_CV_C01_0.csv
mode,ox/red,error,control changes,counter inc.,time/s,control/V,Ewe/V,<I>/mA,cycle number,(Q-Qo)/C,I Range,P/W,log(|I|),Tafel slope mV/dec,alpha_eff,dI/d(E-IR),E-IR/V,
2,0,0,1,0,1139.09,2.44065e-05,-0.000248974,-1.13351,1,0.0000000E+000,11,2.82216e-07,-2.94557, , , ,-0.000248974,
2,1,0,1,0,1139.15,0.00129787,0.000930048,0.573468,1,3.57534e-06,11,5.33352e-07,-3.24149, , , ,0.000930048,
2,1,0,1,0,1139.23,0.00279606,0.00251562,0.797832,1,5.8175e-05,11,2.00704e-06,-3.09809,0.00923182,6.39094,126.127,0.00251562,
2,1,0,1,0,1139.3,0.00429425,0.00406273,0.798416,1,0.000118391,11,3.24375e-06,-3.09777,0.147812,0.399155,12.4497,0.00406273,
2,1,0,1,0,1139.38,0.00579244,0.00549435,0.816307,1,0.000179593,11,4.48508e-06,-3.08815,0.147259,0.400656,12.8492,0.00549435,
2,1,0,1,0,1139.45,0.00729063,0.00701806,0.840662,1,0.000242218,11,5.89981e-06,-3.07538,0.163174,0.361577,11.8271,0.00701806,
2,1,0,1,0,1139.53,0.00878882,0.008515,0.856964,1,0.000306522,11,7.29705e-06,-3.06704,0.184811,0.319246,10.6342,0.008515,
2,1,0,1,0,1139.6,0.010287,0.00996916,0.873436,1,0.000371977,11,8.70743e-06,-3.05877,0.275234,0.214363,7.27372,0.009969159,
2,1,0,1,0,1139.68,0.0117852,0.0115259,0.885243,1,0.000438393,11,1.02032e-05,-3.05294,0.271784,0.217084,7.49849,0.0115259,
2,1,0,1,0,1139.75,0.0132847,0.012981,0.895162,1,0.000505565,11,1.16201e-05,-3.0481,0.227903,0.258882,9.10849,0.012981,
2,1,0,1,0,1139.83,0.0147802,0.014498,0.906791,1,0.000573564,11,1.31467e-05,-3.04249,0.302304,0.195168,6.88842,0.014498,
2,1,0,1,0,1139.9,0.0162798,0.0160229,0.913718,1,0.000642744,11,1.46404e-05,-3.03919,0.466593,0.126448,4.49548,0.0160229,
2,1,0,1,0,1139.98,0.017778,0.0175075,0.924433,1,0.000712181,11,1.61845e-05,-3.03412,0.435286,0.135543,4.88604,0.0175075,
2,1,0,1,0,1140.05,0.0192761,0.0190238,0.92838,1,0.000781822,11,1.76614e-05,-3.03227,0.488898,0.12068,4.37435,0.0190238,
2,1,0,1,0,1140.13,0.0207743,0.0205304,0.935247,1,0.000852304,11,1.92009e-05,-3.02907,0.404098,0.146004,5.31507,0.02053036,
2,1,0,1,0,1140.2,0.0222725,0.0219953,0.944804,1,0.000923344,11,2.07813e-05,-3.02466,0.521069,0.113229,4.16507,0.0219953,
2,1,0,1,0,1140.28,0.0237707,0.0234958,0.94651,1,0.000994743,11,2.2239e-05,-3.02387,0.692547,0.0851928,3.16066,0.0234958,
2,1,0,1,0,1140.35,0.0252689,0.0249999,0.950043,1,0.00106632,11,2.3751e-05,-3.02226,0.633422,0.0931449,3.4738,0.0249999,
2,1,0,1,0,1140.43,0.0267671,0.0264807,0.960329,1,0.00113858,11,2.54302e-05,-3.01758,0.390385,0.151133,5.64359,0.0264807,
2,1,0,1,0,1140.5,0.0282653,0.0279819,0.967216,1,0.0012113,11,2.70645e-05,-3.01448,0.744513,0.0792464,2.98188,0.0279819,
2,1,0,1,0,1140.58,0.0297644,0.0293897,0.970523,1,0.00128449,11,2.85234e-05,-3.01299,0.736835,0.0800722,3.02693,0.0293897,
2,1,0,1,0,1140.65,0.0312599,0.0309594,0.965589,1,0.00135768,11,2.9894e-05,-3.01521,0.669957,0.0880653,3.34706,0.0309594,
2,1,0,1,0,1140.73,0.0327599,0.0324453,0.979609,1,0.00143145,11,3.17837e-05,-3.00895,0.678127,0.0870044,3.32672,0.0324453,
2,1,0,1,0,1140.8,0.034258,0.0339612,0.985725,1,0.00150566,11,3.34764e-05,-3.00624,0.652364,0.0904403,3.48271,0.0339612,
2,1,0,1,0,1140.88,0.0357562,0.0354837,0.991051,1,0.00158023,11,3.51661e-05,-3.0039,1.10866,0.0532174,2.05573,0.0354837,
2,1,0,1,0,1140.95,0.0372544,0.0369748,0.992551,1,0.00165525,11,3.66993e-05,-3.00325,0.738046,0.0799408,3.11071,0.0369748,
2,1,0,1,0,1141.02,0.0387526,0.0384408,0.999837,1,0.00173044,11,3.84346e-05,-3.00007,0.564783,0.104465,4.10421,0.0384408,
2,1,0,1,0,1141.1,0.0402508,0.0399555,1.00747,1,0.00180626,11,4.02541e-05,-2.99677,0.51388,0.114813,4.51795,0.0399555,
2,1,0,1,0,1141.17,0.041749,0.0414912,1.0173,1,0.00188274,11,4.22088e-05,-2.99255,0.562726,0.104847,4.15006,0.0414912,
2,1,0,1,0,1141.25,0.0432472,0.0430018,1.0231,1,0.00195959,11,4.3995e-05,-2.99008,0.574275,0.102738,4.09568,0.04300179,
2,1,0,1,0,1141.32,0.0447449,0.0444488,1.02666,1,0.00203677,11,4.56337e-05,-2.98857,0.400743,0.147226,5.90382,0.0444488,
2,1,0,1,0,1141.4,0.0462445,0.0459661,1.03727,1,0.00211473,11,4.76795e-05,-2.98411,0.362472,0.162771,6.57278,0.0459661,
2,1,0,1,0,1141.47,0.04774,0.047411,1.04607,1,0.00219314,11,4.95954e-05,-2.98044,0.401562,0.146926,5.99033,0.047411,
2,1,0,1,0,1141.55,0.0492399,0.0489751,1.05186,1,0.00227239,11,5.15148e-05,-2.97804,0.387298,0.152338,6.25851,0.0489751,
2,1,0,1,0,1141.62,0.0507381,0.0504588,1.057,1,0.00235205,11,5.33352e-05,-2.97592,0.357227,0.165161,6.85944,0.0504588,
2,1,0,1,0,1141.7,0.0522363,0.0519226,1.07129,1,0.00243248,11,5.5624e-05,-2.97009,0.295694,0.199531,8.33916,0.0519226,
2,1,0,1,0,1141.77,0.0537345,0.0534393,1.08897,1,0.00251387,11,5.81938e-05,-2.96298,0.336367,0.175404,7.41271,0.0534393,
2,1,0,1,0,1141.85,0.0552327,0.0549834,1.09709,1,0.00259612,11,6.03217e-05,-2.95976,0.368644,0.160046,6.82368,0.0549834,
2,1,0,1,0,1141.92,0.0567309,0.0564286,1.10105,1,0.00267912,11,6.21306e-05,-2.95819,0.331718,0.177862,7.68438,0.0564286,
2,1,0,1,0,1142,0.0582291,0.0579389,1.12129,1,0.00276283,11,6.49662e-05,-2.95028,0.289855,0.20355,8.91155,0.0579389,
2,1,0,1,0,1142.07,0.0597291,0.0594484,1.13668,1,0.00284789,11,6.75739e-05,-2.94436,0.255515,0.230906,10.2182,0.0594484,
2,1,0,1,0,1142.15,0.0612246,0.0609397,1.14619,1,0.0029338,11,6.98482e-05,-2.94075,0.307095,0.192123,8.59674,0.0609397,
2,1,0,1,0,1142.22,0.0627241,0.062444,1.16497,1,0.00302122,11,7.27455e-05,-2.93368,0.229344,0.257255,11.6824,0.062444,
2,1,0,1,0,1142.3,0.0642219,0.0639554,1.179,1,0.00310935,11,7.54032e-05,-2.92849,0.226099,0.260948,12.0729,0.0639554,
2,1,0,1,0,1142.37,0.06572,0.0654667,1.19692,1,0.00319895,11,7.83581e-05,-2.92194,0.210206,0.280678,13.1179,0.0654667,
2,1,0,1,0,1142.45,0.0672182,0.0669616,1.21941,1,0.00329015,11,8.16533e-05,-2.91385,0.234434,0.25167,11.9342,0.0669616,
2,1,0,1,0,1142.52,0.0687164,0.0684111,1.23584,1,0.00338267,11,8.45455e-05,-2.90804,0.235467,0.250566,12.0802,0.0684111,
2,1,0,1,0,1142.6,0.0702146,0.0699636,1.25428,1,0.00347627,11,8.77536e-05,-2.90161,0.223457,0.264033,12.9519,0.0699636,
2,1,0,1,0,1142.67,0.0717128,0.0714278,1.27837,1,0.00357155,11,9.13113e-05,-2.89334,0.177119,0.333109,16.5674,0.0714278,
2,1,0,1,0,1142.75,0.073211,0.0729508,1.2956,1,0.00366858,11,9.45154e-05,-2.88753,0.194028,0.30408,15.4077,0.07295081,
2,1,0,1,0,1142.82,0.0747092,0.0744175,1.32187,1,0.00376732,11,9.83706e-05,-2.87881,0.219973,0.268215,13.8222,0.0744175,
2,1,0,1,0,1142.9,0.0762087,0.0759071,1.33828,1,0.00386761,11,0.000101585,-2.87345,0.200983,0.293557,15.4135,0.0759071,
2,1,0,1,0,1142.97,0.0777042,0.0773999,1.36509,1,0.00396928,11,0.000105658,-2.86484,0.182209,0.323803,17.2559,0.0773999,
2,1,0,1,0,1143.05,0.0792037,0.0789324,1.39157,1,0.00407326,11,0.00010984,-2.85649,0.196899,0.299646,16.2244,0.0789324,
2,1,0,1,0,1143.12,0.0807019,0.0804554,1.41429,1,0.00417899,11,0.000113787,-2.84946,0.215177,0.274192,15.0827,0.0804554,
2,1,0,1,0,1143.2,0.0822001,0.0819527,1.43139,1,0.00428627,11,0.000117306,-2.84424,0.208671,0.282742,15.8739,0.0819527,
2,1,0,1,0,1143.27,0.0836983,0.0834002,1.45975,1,0.00439517,11,0.000121743,-2.83572,0.204097,0.289078,16.5163,0.0834002,
2,1,0,1,0,1143.35,0.0851965,0.0848856,1.48483,1,0.00450618,11,0.000126041,-2.82832,0.206704,0.285432,16.5677,0.0848856,
2,1,0,1,0,1143.42,0.0866947,0.0864148,1.51139,1,0.00461915,11,0.000130606,-2.82062,0.236489,0.249483,14.6867,0.0864148,
2,1,0,1,0,1143.5,0.0881929,0.0879244,1.53781,1,0.00473396,11,0.000135211,-2.8131,0.223256,0.264271,15.8423,0.0879244,
2,1,0,1,0,1143.57,0.0896911,0.0893884,1.56234,1,0.00485029,11,0.000139655,-2.80623,0.200698,0.293974,17.9532,0.0893884,
2,1,0,1,0,1143.65,0.0911893,0.0908939,1.59151,1,0.00496882,11,0.000144659,-2.79819,0.189899,0.310692,19.2287,0.0908939,
2,1,0,1,0,1143.72,0.0926884,0.0924303,1.61766,1,0.00508983,11,0.000149521,-2.79111,0.215335,0.273992,17.2506,0.0924303,
2,1,0,1,0,1143.8,0.0941839,0.0938708,1.64007,1,0.00521218,11,0.000153954,-2.78514,0.224889,0.262352,16.8414,0.0938708,
2,1,0,1,0,1143.87,0.0956838,0.095373,1.66049,1,0.00533646,11,0.000158366,-2.77976,0.207407,0.284465,18.508,0.095373,
2,1,0,1,0,1143.95,0.097182,0.0968789,1.68895,1,0.00546278,11,0.000163624,-2.77238,0.185609,0.317873,20.9634,0.0968789,
2,1,0,1,0,1144.02,0.0986802,0.0983892,1.7203,1,0.00559124,11,0.000169259,-2.7644,0.196549,0.300179,20.1874,0.0983892,
2,1,0,1,0,1144.1,0.100178,0.0998804,1.75416,1,0.0057219,11,0.000175206,-2.75593,0.209703,0.28135,19.2263,0.0998804,
2,1,0,1,0,1144.17,0.101677,0.101418,1.77444,1,0.00585479,11,0.000179961,-2.75094,0.196977,0.299527,20.8414,0.101418,
2,1,0,1,0,1144.25,0.103175,0.102902,1.81659,1,0.00598992,11,0.00018693,-2.74074,0.185547,0.317979,22.5493,0.102902,
2,1,0,1,0,1144.32,0.104673,0.104422,1.85475,1,0.00612781,11,0.000193676,-2.73172,0.177741,0.331944,23.988,0.104422,
2,1,0,1,0,1144.4,0.106171,0.105899,1.88876,1,0.00626843,11,0.000200018,-2.72382,0.183763,0.321066,23.6256,0.105899,
2,1,0,1,0,1144.47,0.107669,0.107373,1.92275,1,0.00641179,11,0.000206452,-2.71608,0.165091,0.357379,26.9128,0.107373,
2,1,0,1,0,1144.55,0.109168,0.108869,1.96695,1,0.00655822,11,0.000214139,-2.70621,0.146877,0.401698,30.9503,0.108869,
2,1,0,1,0,1144.62,0.110664,0.110388,2.0151,1,0.00670776,11,0.000222442,-2.6957,0.138532,0.425894,33.5916,0.1103876,
2,1,0,1,0,1144.7,0.112164,0.111889,2.06933,1,0.00686155,11,0.000231534,-2.68417,0.136436,0.432436,34.8949,0.111889,
2,1,0,1,0,1144.77,0.113662,0.113421,2.12377,1,0.00701918,11,0.000240881,-2.67289,0.130883,0.450784,37.3595,0.113421,
2,1,0,1,0,1144.85,0.11516,0.114887,2.18142,1,0.00718079,11,0.000250616,-2.66126,0.118833,0.496495,42.3932,0.1148865,
2,1,0,1,0,1144.92,0.116658,0.116367,2.25375,1,0.00734734,11,0.000262263,-2.64709,0.107521,0.548729,48.2541,0.1163671,
2,1,0,1,0,1145,0.118157,0.117858,2.32726,1,0.00751949,11,0.000274287,-2.63316,0.106606,0.553439,50.2846,0.117858,
2,1,0,1,0,1145.07,0.119655,0.119405,2.40488,1,0.0076972,11,0.000287155,-2.61891,0.108352,0.544523,51.1642,0.119405,
2,1,0,1,0,1145.14,0.121153,0.120864,2.47931,1,0.00788067,11,0.00029966,-2.60567,0.0976548,0.604169,58.6969,0.120864,
2,1,0,1,0,1145.22,0.122653,0.122383,2.57365,1,0.00807077,11,0.000314972,-2.58945,0.0954185,0.618329,62.1299,0.122383,
2,1,0,1,0,1145.29,0.124149,0.12384,2.67124,1,0.00826743,11,0.000330807,-2.57329,0.0939233,0.628172,65.4492,0.12384,
2,1,0,1,0,1145.37,0.125648,0.125327,2.76654,1,0.00847192,11,0.000346721,-2.55806,0.0979718,0.602214,64.9177,0.125327,
2,1,0,1,0,1145.44,0.127146,0.12684,2.85733,1,0.00868342,11,0.000362422,-2.54404,0.0998881,0.590661,65.9962,0.12684,
2,1,0,1,0,1145.52,0.128644,0.128347,2.96594,1,0.00890213,11,0.000380671,-2.52784,0.102306,0.576701,66.7862,0.128347,
2,1,0,1,0,1145.59,0.130142,0.129911,3.0686,1,0.00912862,11,0.000398644,-2.51306,0.103333,0.570971,68.3328,0.129911,
2,1,0,1,0,1145.67,0.13164,0.131318,3.17243,1,0.00936313,11,0.000416595,-2.49861,0.115009,0.513005,63.2592,0.131318,
2,1,0,1,0,1145.74,0.133139,0.132827,3.26465,1,0.00960505,11,0.000433632,-2.48616,0.122613,0.481191,61.2494,0.132827,
2,1,0,1,0,1145.82,0.134637,0.134337,3.35542,1,0.00985335,11,0.000450756,-2.47425,0.131939,0.447175,58.5765,0.134337,
2,1,0,1,0,1145.89,0.136135,0.135824,3.4437,1,0.0101085,11,0.000467739,-2.46297,0.144629,0.407941,54.646,0.135824,
2,1,0,1,0,1145.97,0.137633,0.137338,3.52176,1,0.0103701,11,0.00048367,-2.45324,0.169486,0.348111,47.6458,0.137338,
2,1,0,1,0,1146.04,0.139133,0.138841,3.59161,1,0.0106373,11,0.000498662,-2.44471,0.205673,0.286862,40.0237,0.138841,
2,1,0,1,0,1146.12,0.140628,0.140333,3.63516,1,0.0109079,11,0.000510132,-2.43948,0.244473,0.241336,34.1972,0.140333,
2,1,0,1,0,1146.19,0.142128,0.14185,3.68448,1,0.0111833,11,0.000522643,-2.43362,0.291097,0.202682,29.06,0.14185,
2,1,0,1,0,1146.27,0.143626,0.143317,3.72473,1,0.0114616,11,0.000533816,-2.42891,0.483281,0.122082,17.6636,0.1433167,
2,1,0,1,0,1146.34,0.145124,0.144902,3.73808,1,0.0117418,11,0.000541654,-2.42735,1.91487,0.0308115,4.4814,0.144902,
2,1,0,1,0,1146.42,0.146622,0.146317,3.73545,1,0.0120224,11,0.000546561,-2.42766,-2.43165,-0.0242634,-3.5325,0.146317,
2,1,0,1,0,1146.49,0.14812,0.147837,3.73089,1,0.0123027,11,0.000551563,-2.42819,-0.761637,-0.0774647,-11.2369,0.147837,
2,1,0,1,0,1146.57,0.149619,0.149363,3.70636,1,0.0125818,11,0.000553591,-2.43105,-0.366424,-0.161016,-23.1746,0.149363,
2,1,0,1,0,1146.64,0.151117,0.150816,3.6663,1,0.0128584,11,0.000552938,-2.43577,-0.221521,-0.26634,-37.8204,0.150816,
2,1,0,1,0,1146.72,0.152615,0.152314,3.59226,1,0.0131308,11,0.00054715,-2.44463,-0.17011,-0.346835,-48.4605,0.152314,
2,1,0,1,0,1146.79,0.154113,0.153837,3.51714,1,0.0133974,11,0.000541068,-2.45381,-0.140509,-0.419901,-57.4076,0.1538374,
2,1,0,1,0,1146.87,0.155613,0.155305,3.41993,1,0.0136581,11,0.000531131,-2.46598,-0.113159,-0.521392,-69.1967,0.155305,
2,1,0,1,0,1146.94,0.157108,0.156809,3.30373,1,0.0139105,11,0.000518055,-2.48099,-0.090731,-0.650274,-83.3563,0.156809,
2,1,0,1,0,1147.02,0.158608,0.158301,3.17452,1,0.0141541,11,0.000502529,-2.49832,-0.0780614,-0.755815,-93.2485,0.158301,
2,1,0,1,0,1147.09,0.160106,0.159809,3.02579,1,0.0143866,11,0.000483547,-2.51916,-0.0712681,-0.82786,-97.5437,0.159809,
2,1,0,1,0,1147.17,0.161604,0.161315,2.8806,1,0.0146083,11,0.000464686,-2.54052,-0.0671046,-0.879225,-98.4979,0.161315,
2,1,0,1,0,1147.24,0.163102,0.16284,2.7308,1,0.0148189,11,0.000444684,-2.56371,-0.0623214,-0.946706,-100.651,0.16284,
2,1,0,1,0,1147.32,0.164601,0.16437,2.58103,1,0.0150182,11,0.000424243,-2.58821,-0.060497,-0.975254,-98.2312,0.16437,
2,1,0,1,0,1147.39,0.166099,0.16578,2.43443,1,0.0152061,11,0.00040358,-2.6136,-0.0612109,-0.96388,-91.9141,0.1657802,
2,1,0,1,0,1147.47,0.167597,0.167339,2.3072,1,0.0153842,11,0.000386084,-2.63691,-0.0661063,-0.892502,-80.3992,0.167339,
2,1,0,1,0,1147.54,0.169095,0.168814,2.18941,1,0.0155531,11,0.000369602,-2.65967,-0.0662159,-0.891025,-76.3119,0.168814,
2,1,0,1,0,1147.62,0.170593,0.170301,2.07653,1,0.0157133,11,0.000353634,-2.68266,-0.0675161,-0.873865,-71.1412,0.170301,
2,1,0,1,0,1147.69,0.172092,0.171812,1.96894,1,0.0158656,11,0.000338289,-2.70577,-0.0734459,-0.803312,-62.2003,0.171812,
2,1,0,1,0,1147.77,0.173588,0.173273,1.88734,1,0.0160104,11,0.000327025,-2.72415,-0.0791845,-0.745095,-55.0816,0.173273,
2,1,0,1,0,1147.84,0.175088,0.174789,1.81043,1,0.0161497,11,0.000316442,-2.74222,-0.0852507,-0.692077,-48.9687,0.174789,
2,1,0,1,0,1147.92,0.176586,0.176282,1.74107,1,0.0162831,11,0.000306919,-2.75918,-0.0850693,-0.693552,-47.1072,0.176282,
2,1,0,1,0,1147.99,0.178084,0.177795,1.66933,1,0.0164115,11,0.000296799,-2.77746,-0.092632,-0.636929,-41.7207,0.177795,
2,1,0,1,0,1148.07,0.179582,0.179313,1.6171,1,0.0165351,11,0.000289966,-2.79126,-0.102854,-0.573627,-36.3488,0.179313,
2,1,0,1,0,1148.14,0.181081,0.180831,1.56736,1,0.0166549,11,0.000283429,-2.80483,-0.107691,-0.547862,-33.5728,0.180831,
2,1,0,1,0,1148.22,0.182579,0.182302,1.5214,1,0.0167711,11,0.000277355,-2.81776,-0.107257,-0.550081,-32.6517,0.182302,
2,1,0,1,0,1148.29,0.184077,0.183796,1.4788,1,0.0168838,11,0.000271798,-2.83009,-0.121167,-0.486931,-28.1325,0.183796,
2,1,0,1,0,1148.37,0.185577,0.185284,1.43926,1,0.0169934,11,0.000266672,-2.84186,-0.139604,-0.422623,-23.7407,0.185284,
2,1,0,1,0,1148.44,0.187073,0.186822,1.4022,1,0.0171002,11,0.000261962,-2.85319,-0.156132,-0.377885,-20.7035,0.186822,
2,1,0,1,0,1148.52,0.188572,0.188279,1.37184,1,0.0172047,11,0.000258288,-2.8627,-0.148533,-0.397217,-21.2848,0.188279,
2,1,0,1,0,1148.59,0.19007,0.189821,1.34114,1,0.0173068,11,0.000254576,-2.87253,-0.16933,-0.348432,-18.2523,0.189821,
2,1,0,1,0,1148.67,0.191568,0.191255,1.31084,1,0.0174066,11,0.000250705,-2.88245,-0.175398,-0.336378,-17.2604,0.191255,
2,1,0,1,0,1148.74,0.193066,0.192751,1.28693,1,0.0175045,11,0.000248058,-2.89044,-0.212972,-0.277032,-13.9398,0.192751,
2,1,0,1,0,1148.82,0.194564,0.194305,1.2673,1,0.0176009,11,0.000246242,-2.89712,-0.187939,-0.313931,-15.5215,0.194305,
2,1,0,1,0,1148.89,0.196063,0.195831,1.24625,1,0.0176956,11,0.000244054,-2.90439,-0.176451,-0.33437,-16.2643,0.195831,
2,1,0,1,0,1148.97,0.197561,0.197322,1.21774,1,0.0177885,11,0.000240287,-2.91444,-0.220064,-0.268104,-12.8457,0.1973217,
2,1,0,1,0,1149.04,0.199059,0.198765,1.21097,1,0.01788,11,0.0002407,-2.91687,-0.231919,-0.254399,-11.9969,0.198765,
2,1,0,1,0,1149.12,0.200557,0.200296,1.19447,1,0.0179704,11,0.000239249,-2.92282,-0.262628,-0.224652,-10.44,0.200296,
2,1,0,1,0,1149.19,0.202057,0.201822,1.17437,1,0.0180597,11,0.000237013,-2.9302,-0.252646,-0.233528,-10.6921,0.201822,
2,1,0,1,0,1149.26,0.203552,0.203264,1.15857,1,0.0181476,11,0.000235496,-2.93608,-0.284366,-0.207479,-9.40734,0.203264,
2,1,0,1,0,1149.34,0.205052,0.204771,1.14638,1,0.0182345,11,0.000234746,-2.94067,-0.48171,-0.12248,-5.52324,0.204771,
2,1,0,1,0,1149.41,0.20655,0.206274,1.13319,1,0.0183205,11,0.000233748,-2.9457,-0.351082,-0.168052,-7.44966,0.206274,
2,1,0,1,0,1149.49,0.208048,0.207796,1.12017,1,0.0184059,11,0.000232767,-2.95071,-0.291899,-0.202125,-8.8393,0.207796,
2,1,0,1,0,1149.56,0.209546,0.209295,1.11176,1,0.0184902,11,0.000232685,-2.95399,-0.284396,-0.207457,-9.0033,0.209295,
2,1,0,1,0,1149.64,0.211044,0.210742,1.10337,1,0.0185734,11,0.000232527,-2.95728,-0.359668,-0.16404,-7.05383,0.210742,
2,1,0,1,0,1149.71,0.212543,0.212232,1.0917,1,0.0186561,11,0.000231693,-2.9619,-0.444247,-0.132809,-5.64833,0.212232,
2,1,0,1,0,1149.79,0.214041,0.21377,1.07992,1,0.0187381,11,0.000230855,-2.96661,-0.371654,-0.15875,-6.70148,0.21377,
2,1,0,1,0,1149.86,0.215539,0.215241,1.07226,1,0.0188194,11,0.000230794,-2.9697,-0.394489,-0.149561,-6.2786,0.215241,
2,1,0,1,0,1149.94,0.217037,0.216762,1.0658,1,0.0188998,11,0.000231024,-2.97232,-0.481997,-0.122407,-5.10186,0.216762,
2,1,0,1,0,1150.01,0.218536,0.218275,1.05656,1,0.0189799,11,0.00023062,-2.97611,-1.16964,-0.0504429,-2.07971,0.218275,
2,1,0,1,0,1150.09,0.220032,0.219744,1.05177,1,0.0190595,11,0.000231121,-2.97808,-0.650595,-0.0906863,-3.71839,0.219744,
2,1,0,1,0,1150.16,0.221532,0.221241,1.04269,1,0.0191386,11,0.000230684,-2.98185,-0.465173,-0.126834,-5.1709,0.221241,
2,1,0,1,0,1150.24,0.22303,0.222761,1.03089,1,0.019217,11,0.000229643,-2.98679,-0.530384,-0.11124,-4.49239,0.222761,
2,1,0,1,0,1150.31,0.224528,0.224295,1.03097,1,0.0192949,11,0.000231241,-2.98675,-0.583605,-0.101096,-4.06948,0.224295,
2,1,0,1,0,1150.39,0.226026,0.22576,1.02559,1,0.0193725,11,0.000231537,-2.98903,-0.600385,-0.0982702,-3.92883,0.22576,
2,1,0,1,0,1150.46,0.227525,0.227228,1.01787,1,0.0194497,11,0.000231289,-2.99231,-0.400728,-0.147232,-5.84383,0.227228,
2,1,0,1,0,1150.54,0.229023,0.228783,1.01355,1,0.0195264,11,0.000231883,-2.99415,-0.528307,-0.111678,-4.42825,0.228783,
2,1,0,1,0,1150.61,0.230521,0.23026,1.00734,1,0.0196025,11,0.00023195,-2.99682,-0.673027,-0.0876636,-3.45923,0.23026,
2,1,0,1,0,1150.69,0.232019,0.231745,1.00325,1,0.0196784,11,0.000232497,-2.99859,-0.669908,-0.0880718,-3.45357,0.231745,
2,1,0,1,0,1150.76,0.233517,0.233239,1.00224,1,0.0197541,11,0.000233762,-2.99903,-0.74602,-0.0790864,-3.08216,0.233239,
2,1,0,1,0,1150.84,0.235016,0.234755,0.996361,1,0.0198294,11,0.0002339,-3.00158,-0.795563,-0.0741613,-2.8817,0.234755,
2,1,0,1,0,1150.91,0.236512,0.236208,0.99058,1,0.019904,11,0.000233983,-3.00411,-1.22376,-0.048212,-1.86259,0.236208,
2,1,0,1,0,1150.99,0.238012,0.237718,0.985648,1,0.0199787,11,0.000234306,-3.00628,-1.59047,-0.037096,-1.4229,0.237718,
2,1,0,1,0,1151.06,0.23951,0.239284,0.982591,1,0.020053,11,0.000235119,-3.00763,-1.17837,-0.0500691,-1.91764,0.239284,
2,1,0,1,0,1151.14,0.241008,0.240748,0.976879,1,0.020127,11,0.000235181,-3.01016,-0.836604,-0.0705232,-2.69698,0.2407475,
2,1,0,1,0,1151.21,0.242506,0.242264,0.971715,1,0.0202005,11,0.000235411,-3.01246,-1.11168,-0.0530727,-2.02108,0.242264,
2,1,0,1,0,1151.29,0.244005,0.243741,0.969385,1,0.020274,11,0.000236279,-3.0135,-2.27319,-0.0259547,-0.980282,0.243741,
2,1,0,1,0,1151.36,0.245503,0.24525,0.972528,1,0.0203472,11,0.000238512,-3.0121,-1.00329,-0.0588063,-2.22427,0.24525,
2,1,0,1,0,1151.44,0.247001,0.246725,0.965988,1,0.0204201,11,0.000238333,-3.01503,-0.843325,-0.0699612,-2.6299,0.246725,
2,1,0,1,0,1151.51,0.248501,0.248241,0.954505,1,0.0204928,11,0.000236947,-3.02022,-1.47662,-0.039956,-1.4969,0.248241,
2,1,0,1,0,1151.59,0.249997,0.24972,0.956685,1,0.020565,11,0.000238903,-3.01923,-0.880597,-0.067,-2.50126,0.24972,
2,1,0,1,0,1151.66,0.251496,0.251261,0.955437,1,0.0206373,11,0.000240064,-3.0198,-1.16913,-0.0504651,-1.88104,0.251261,
2,1,0,1,0,1151.74,0.252994,0.252718,0.949667,1,0.0207093,11,0.000239998,-3.02243,-0.640743,-0.0920806,-3.41695,0.252718,
2,1,0,1,0,1151.81,0.254492,0.254228,0.945927,1,0.0207809,11,0.000240481,-3.02414,-1.26326,-0.0467046,-1.73074,0.254228,
2,1,0,1,0,1151.89,0.25599,0.255732,0.945365,1,0.0208523,11,0.00024176,-3.0244,-1.79935,-0.0327896,-1.21341,0.255732,
2,1,0,1,0,1151.96,0.257488,0.257233,0.942962,1,0.0209236,11,0.000242561,-3.02551,-1.65823,-0.0355802,-1.30736,0.257233,
2,1,0,1,0,1152.04,0.258987,0.258728,0.942584,1,0.0209947,11,0.000243873,-3.02568,-1.24539,-0.0473747,-1.73671,0.258728,
2,1,0,1,0,1152.11,0.260485,0.260217,0.93798,1,0.0210656,11,0.000244079,-3.02781,-1.06722,-0.0552838,-2.01886,0.260217,
2,1,0,1,0,1152.19,0.261983,0.261709,0.936214,1,0.0211362,11,0.000245015,-3.02863,-1.48082,-0.0398429,-1.45356,0.261709,
2,1,0,1,0,1152.26,0.263481,0.263209,0.933713,1,0.0212067,11,0.000245762,-3.02979,4.06766,0.0145047,0.527332,0.263209,
2,1,0,1,0,1152.34,0.264981,0.26472,0.931683,1,0.021277,11,0.000246635,-3.03073,-1.69049,-0.034901,-1.26753,0.26472,
2,1,0,1,0,1152.41,0.266476,0.266259,0.926735,1,0.0213471,11,0.000246752,-3.03304,-1.83983,-0.0320681,-1.16149,0.2662589,
2,1,0,1,0,1152.49,0.267976,0.267698,0.918498,1,0.021417,11,0.00024588,-3.03692,-3.17844,-0.0185626,-0.668631,0.267698,
2,1,0,1,0,1152.56,0.269474,0.269202,0.922649,1,0.0214867,11,0.000248378,-3.03496,-5.79993,-0.0101725,-0.36649,0.269202,
2,1,0,1,0,1152.64,0.270972,0.270715,0.924395,1,0.0215563,11,0.000250248,-3.03414,-1.28652,-0.0458603,-1.64544,0.270715,
2,1,0,1,0,1152.71,0.27247,0.27221,0.916458,1,0.0216258,11,0.000249469,-3.03789,-0.765674,-0.0770563,-2.75518,0.27221,
2,1,0,1,0,1152.79,0.273968,0.273723,0.909893,1,0.021695,11,0.000249059,-3.04101,-1.10149,-0.0535639,-1.9127,0.273723,
2,1,0,1,0,1152.86,0.275467,0.27519,0.913194,1,0.0217638,11,0.000251302,-3.03944,-1.08536,-0.0543597,-1.93922,0.27519,
2,1,0,1,0,1152.94,0.276965,0.276716,0.909697,1,0.0218327,11,0.000251728,-3.0411,-1.49329,-0.03951,-1.40713,0.276716,
2,1,0,1,0,1153.01,0.278463,0.278148,0.908054,1,0.0219014,11,0.000252573,-3.04189,-0.74797,-0.0788802,-2.78731,0.278148,
2,1,0,1,0,1153.09,0.279961,0.279719,0.908502,1,0.0219699,11,0.000254125,-3.04167,-1.46385,-0.0403047,-1.42615,0.279719,
2,1,0,1,0,1153.16,0.28146,0.281201,0.903827,1,0.0220382,11,0.000254157,-3.04391,-3.16548,-0.0186386,-0.658682,0.281201,
2,1,0,1,0,1153.24,0.282956,0.282699,0.902423,1,0.0221063,11,0.000255114,-3.04459,-3.02988,-0.0194727,-0.684134,0.282699,
2,1,0,1,0,1153.31,0.284456,0.284238,0.898602,1,0.0221746,11,0.000255417,-3.04643,-2.62351,-0.022489,-0.789338,0.284238,
2,1,0,1,0,1153.39,0.285954,0.285678,0.897301,1,0.0222424,11,0.000256339,-3.04706,-1.08519,-0.0543685,-1.90542,0.285678,
2,1,0,1,0,1153.46,0.287452,0.287121,0.896165,1,0.0223101,11,0.000257307,-3.04761,-1.87463,-0.0314729,-1.10226,0.287121,
2,1,0,1,0,1153.53,0.28895,0.28864,0.891829,1,0.0223776,11,0.000257417,-3.04972,-8.43236,-0.00699686,-0.243501,0.28864,
2,1,0,1,0,1153.61,0.290449,0.290149,0.889814,1,0.0224451,11,0.000258178,-3.0507,-2.95462,-0.0199687,-0.695828,0.290149,
2,1,0,1,0,1153.68,0.291947,0.291678,0.889387,1,0.0225124,11,0.000259414,-3.05091,-1.29458,-0.0455745,-1.5836,0.291678,
2,1,0,1,0,1153.76,0.293445,0.293206,0.885012,1,0.0225795,11,0.000259491,-3.05305,-1.33317,-0.0442556,-1.53549,0.2932061,
2,1,0,1,0,1153.83,0.294943,0.294648,0.886966,1,0.0226464,11,0.000261343,-3.05209,-4.28053,-0.0137834,-0.476218,0.294648,
2,1,0,1,0,1153.91,0.296441,0.296187,0.887231,1,0.0227133,11,0.000262787,-3.05196,-1.96138,-0.0300809,-1.03445,0.296187,
2,1,0,1,0,1153.98,0.29794,0.297695,0.883578,1,0.0227803,11,0.000263037,-3.05376,-0.688187,-0.0857325,-2.94062,0.297695,
2,1,0,1,0,1154.06,0.299436,0.299171,0.876425,1,0.0228467,11,0.000262201,-3.05729,-0.00194667,-30.3082,-556.22,0.299171,
2,1,0,1,0,1154.1,0.299739,0.299483,0.24131,1,0.0228767,11,7.22683e-05,-3.61742,0.00195978,30.1053,856.037,0.299483,
2,0,0,1,0,1154.18,0.298239,0.297935,-0.181745,1,0.0228694,11,-5.41482e-05,-3.74054,0.00673382,8.76174,296.78,0.297935,
2,0,0,1,0,1154.25,0.296741,0.29647,-0.223301,1,0.0228536,11,-6.62021e-05,-3.65111,-0.0194067,-3.04019,25.2857,0.2964699,
2,0,0,1,0,1154.33,0.295243,0.294945,-0.254689,1,0.022835,11,-7.51192e-05,-3.59399,-0.0301626,-1.95606,18.795,0.294945,
2,0,0,1,0,1154.4,0.293745,0.293406,-0.281112,1,0.0228142,11,-8.24801e-05,-3.55112,-0.0401443,-1.4697,15.7261,0.293406,
2,0,0,1,0,1154.48,0.292246,0.291964,-0.30407,1,0.0227918,11,-8.87777e-05,-3.51703,-0.0496418,-1.18852,13.905,0.291964,
2,0,0,1,0,1154.55,0.290748,0.290433,-0.325178,1,0.0227677,11,-9.44424e-05,-3.48788,-0.0601751,-0.980472,12.2593,0.290433,
2,0,0,1,0,1154.63,0.28925,0.288942,-0.339587,1,0.0227423,11,-9.81208e-05,-3.46905,-0.0746463,-0.790395,10.4702,0.288942,
2,0,0,1,0,1154.7,0.287752,0.287472,-0.354593,1,0.0227156,11,-0.000101936,-3.45027,-0.0891628,-0.661711,9.15103,0.2874718,
2,0,0,1,0,1154.78,0.286254,0.285944,-0.366592,1,0.022688,11,-0.000104825,-3.43582,-0.0994644,-0.593177,8.54473,0.285944,
2,0,0,1,0,1154.85,0.284754,0.284498,-0.384268,1,0.0226592,11,-0.000109323,-3.41537,-0.0851021,-0.693285,10.3082,0.284498,
2,0,0,1,0,1154.93,0.283259,0.282969,-0.398519,1,0.0226296,11,-0.000112768,-3.39955,-0.113412,-0.520225,8.01758,0.2829687,
2,0,0,1,0,1155,0.281759,0.28145,-0.406676,1,0.0225989,11,-0.000114459,-3.39075,-0.127808,-0.461631,7.26979,0.28145,
2,0,0,1,0,1155.08,0.280261,0.279987,-0.410339,1,0.0225674,11,-0.00011489,-3.38686,-0.128302,-0.459852,7.48093,0.2799868,
2,0,0,1,0,1155.15,0.278763,0.278464,-0.427984,1,0.0225353,11,-0.000119178,-3.36857,-0.143621,-0.410803,6.87315,0.278464,
2,0,0,1,0,1155.23,0.277264,0.276946,-0.438122,1,0.0225023,11,-0.000121336,-3.3584,-0.149482,-0.394696,6.75941,0.276946,
2,0,0,1,0,1155.3,0.275766,0.275495,-0.444701,1,0.0224685,11,-0.000122513,-3.35193,-0.230622,-0.255829,4.43416,0.275495,
2,0,0,1,0,1155.38,0.274268,0.273911,-0.455844,1,0.022434,11,-0.000124861,-3.34118,-0.171895,-0.343234,6.11923,0.273911,
2,0,0,1,0,1155.45,0.27277,0.272487,-0.465222,1,0.022399,11,-0.000126767,-3.33234,-0.172315,-0.342396,6.2802,0.272487,
2,0,0,1,0,1155.53,0.271272,0.27096,-0.47422,1,0.0223633,11,-0.000128495,-3.32402,-0.214912,-0.274531,5.08801,0.27096,
2,0,0,1,0,1155.6,0.269774,0.269478,-0.485142,1,0.0223267,11,-0.000130735,-3.31413,-0.199977,-0.295033,5.53939,0.269478,
2,0,0,1,0,1155.68,0.268274,0.267966,-0.494554,1,0.0222896,11,-0.000132524,-3.30579,-0.221725,-0.266095,5.08753,0.267966,
2,0,0,1,0,1155.75,0.266779,0.266494,-0.498918,1,0.0222522,11,-0.000132958,-3.30197,-0.198698,-0.296933,5.78663,0.266494,
2,0,0,1,0,1155.82,0.265279,0.265,-0.506381,1,0.0222139,11,-0.000134191,-3.29552,-0.167909,-0.35138,6.91394,0.265,
2,0,0,1,0,1155.9,0.263781,0.263473,-0.514577,1,0.022175,11,-0.000135577,-3.28855,-0.23027,-0.256221,5.15907,0.263473,
2,0,0,1,0,1155.97,0.262283,0.262008,-0.519733,1,0.0221356,11,-0.000136174,-3.28422,-0.255487,-0.230932,4.71155,0.262008,
2,0,0,1,0,1156.05,0.260784,0.260468,-0.526532,1,0.0220958,11,-0.000137145,-3.27857,-0.218953,-0.269465,5.5618,0.260468,
2,0,0,1,0,1156.12,0.259286,0.258999,-0.534067,1,0.0220554,11,-0.000138323,-3.2724,-0.222573,-0.265081,5.52673,0.258999,
2,0,0,1,0,1156.2,0.257788,0.257513,-0.550551,1,0.0220143,11,-0.000141774,-3.2592,-0.289982,-0.203461,4.30672,0.257513,
2,0,0,1,0,1156.27,0.25629,0.255993,-0.554356,1,0.0219726,11,-0.000141911,-3.25621,-0.280367,-0.210438,4.50657,0.255993,
2,0,0,1,0,1156.35,0.25479,0.254498,-0.553985,1,0.0219305,11,-0.000140988,-3.2565,-0.291006,-0.202745,4.41819,0.2544978,
2,0,0,1,0,1156.42,0.253294,0.253001,-0.564559,1,0.021888,11,-0.000142834,-3.24829,-0.263876,-0.22359,4.93887,0.253001,
2,0,0,1,0,1156.5,0.251795,0.251508,-0.568644,1,0.0218449,11,-0.000143018,-3.24516,-0.268124,-0.220047,4.91547,0.251508,
2,0,0,1,0,1156.57,0.250297,0.249949,-0.57878,1,0.0218012,11,-0.000144666,-3.23749,-0.303572,-0.194352,4.37536,0.249949,
2,0,0,1,0,1156.65,0.248799,0.248489,-0.584502,1,0.021757,11,-0.000145243,-3.23321,-0.317306,-0.185941,4.25524,0.248489,
2,0,0,1,0,1156.72,0.247301,0.247004,-0.59318,1,0.0217125,11,-0.000146518,-3.22681,-0.267544,-0.220524,5.10408,0.247004,
2,0,0,1,0,1156.8,0.245802,0.245501,-0.598641,1,0.0216673,11,-0.000146967,-3.22283,-0.252412,-0.233745,5.45301,0.245501,
2,0,0,1,0,1156.87,0.244304,0.243995,-0.604844,1,0.0216215,11,-0.000147579,-3.21836,-0.30138,-0.195766,4.62691,0.243995,
2,0,0,1,0,1156.95,0.242806,0.242511,-0.612787,1,0.0215753,11,-0.000148607,-3.21269,-0.434081,-0.135919,3.26043,0.242511,
2,0,0,1,0,1157.02,0.241308,0.241048,-0.617648,1,0.0215287,11,-0.000148883,-3.20926,-0.336952,-0.175099,4.23411,0.241048,
2,0,0,1,0,1157.1,0.23981,0.23955,-0.628107,1,0.0214815,11,-0.000150463,-3.20197,-0.216563,-0.272438,6.65148,0.23955,
2,0,0,1,0,1157.17,0.23831,0.23803,-0.634627,1,0.0214336,11,-0.00015106,-3.19748,-0.283303,-0.208257,5.16006,0.23803,
2,0,0,1,0,1157.25,0.236815,0.236526,-0.640474,1,0.0213855,11,-0.000151489,-3.1935,-0.301221,-0.195869,4.90212,0.236526,
2,0,0,1,0,1157.32,0.235315,0.235005,-0.641444,1,0.0213367,11,-0.000150743,-3.19284,-0.276713,-0.213217,5.36545,0.235005,
2,0,0,1,0,1157.4,0.233817,0.233521,-0.65436,1,0.0212874,11,-0.000152807,-3.18418,-0.288315,-0.204637,5.22458,0.233521,
2,0,0,1,0,1157.47,0.232319,0.232002,-0.663787,1,0.0212376,11,-0.000154,-3.17797,-0.316203,-0.186589,4.80829,0.232002,
2,0,0,1,0,1157.55,0.230821,0.230515,-0.667936,1,0.0211871,11,-0.000153969,-3.17526,-0.337448,-0.174842,4.54956,0.230515,
2,0,0,1,0,1157.62,0.229322,0.229025,-0.670756,1,0.0211362,11,-0.00015362,-3.17344,-0.31545,-0.187034,4.93633,0.2290255,
2,0,0,1,0,1157.7,0.227824,0.227567,-0.682695,1,0.0210848,11,-0.000155359,-3.16577,-0.369942,-0.159484,4.26884,0.227567,
2,0,0,1,0,1157.77,0.226326,0.226015,-0.69153,1,0.0210327,11,-0.000156296,-3.16019,-0.331456,-0.178002,4.81731,0.226015,
2,0,0,1,0,1157.85,0.224828,0.22451,-0.698411,1,0.0209801,11,-0.0001568,-3.15589,-0.387356,-0.152315,4.1461,0.22451,
2,0,0,1,0,1157.92,0.22333,0.223056,-0.708235,1,0.0209268,11,-0.000157976,-3.14982,-0.347846,-0.169615,4.68698,0.223056,
2,0,0,1,0,1158,0.22183,0.221541,-0.718351,1,0.020873,11,-0.000159144,-3.14366,-0.269422,-0.218987,6.12132,0.221541,
2,0,0,1,0,1158.07,0.220335,0.220011,-0.725801,1,0.0208186,11,-0.000159684,-3.13918,-0.225848,-0.261238,7.36932,0.220011,
2,0,0,1,0,1158.15,0.218835,0.218548,-0.735721,1,0.0207632,11,-0.000160791,-3.13329,-0.301434,-0.195731,5.59586,0.218548,
2,0,0,1,0,1158.22,0.217337,0.217087,-0.739092,1,0.0207074,11,-0.000160447,-3.1313,-0.30372,-0.194258,5.63953,0.217087,
2,0,0,1,0,1158.3,0.215839,0.215562,-0.746311,1,0.0206511,11,-0.000160876,-3.12708,-0.288069,-0.204812,6.01466,0.215562,
2,0,0,1,0,1158.37,0.21434,0.214067,-0.761431,1,0.0205938,11,-0.000162997,-3.11837,-0.22023,-0.267902,7.9432,0.214067,
2,0,0,1,0,1158.45,0.212842,0.212513,-0.77141,1,0.0205359,11,-0.000163934,-3.11271,-0.2681,-0.220067,6.63589,0.212513,
2,0,0,1,0,1158.52,0.211344,0.211063,-0.78019,1,0.0204771,11,-0.00016467,-3.1078,-0.27141,-0.217383,6.63459,0.2110634,
2,0,0,1,0,1158.6,0.209846,0.20957,-0.78376,1,0.0204177,11,-0.000164252,-3.10582,-0.263064,-0.22428,6.93681,0.20957,
2,0,0,1,0,1158.67,0.208348,0.208054,-0.805648,1,0.0203575,11,-0.000167618,-3.09385,-0.216513,-0.272501,8.5791,0.208054,
2,0,0,1,0,1158.75,0.20685,0.20652,-0.826077,1,0.0202963,11,-0.000170601,-3.08298,-0.199955,-0.295066,9.38119,0.20652,
2,0,0,1,0,1158.82,0.20535,0.205045,-0.827227,1,0.0202337,11,-0.000169619,-3.08238,-0.24955,-0.236426,7.60076,0.2050451,
2,0,0,1,0,1158.9,0.203855,0.203535,-0.840908,1,0.0201707,11,-0.000171154,-3.07525,-0.233564,-0.252607,8.32456,0.203535,
2,0,0,1,0,1158.97,0.202355,0.202072,-0.852691,1,0.0201068,11,-0.000172305,-3.06921,-0.204222,-0.288902,9.6584,0.202072,
2,0,0,1,0,1159.05,0.200857,0.200542,-0.867602,1,0.0200417,11,-0.000173991,-3.06168,-0.201248,-0.293171,9.92481,0.2005419,
2,0,0,1,0,1159.12,0.199359,0.199056,-0.883733,1,0.0199754,11,-0.000175913,-3.05368,-0.208722,-0.282672,9.72386,0.199056,
2,0,0,1,0,1159.2,0.19786,0.197522,-0.900872,1,0.0199081,11,-0.000177942,-3.04534,-0.213593,-0.276226,9.68705,0.1975224,
2,0,0,1,0,1159.27,0.196362,0.19605,-0.916189,1,0.0198398,11,-0.000179619,-3.03802,-0.188084,-0.313689,11.2263,0.19605,
2,0,0,1,0,1159.35,0.194864,0.194573,-0.935559,1,0.01977,11,-0.000182035,-3.02893,-0.149875,-0.393661,14.3636,0.194573,
2,0,0,1,0,1159.42,0.193366,0.193072,-0.955421,1,0.0196986,11,-0.000184465,-3.01981,-0.167741,-0.351733,13.0987,0.193072,
2,0,0,1,0,1159.5,0.191866,0.191568,-0.974475,1,0.0196256,11,-0.000186678,-3.01123,-0.17928,-0.329094,12.5672,0.191568,
2,0,0,1,0,1159.57,0.19037,0.190094,-0.99143,1,0.0195517,11,-0.000188465,-3.00374,-0.144751,-0.407597,15.8568,0.190094,
2,0,0,1,0,1159.65,0.188871,0.188507,-1.01389,1,0.0194756,11,-0.000191126,-2.99401,-0.127277,-0.463558,18.4029,0.188507,
2,0,0,1,0,1159.72,0.187373,0.187064,-1.04406,1,0.0193979,11,-0.000195306,-2.98128,-0.147534,-0.399909,16.2755,0.1870645,
2,0,0,1,0,1159.8,0.185875,0.185579,-1.06798,1,0.0193183,11,-0.000198195,-2.97144,-0.141925,-0.415713,17.3259,0.1855785,
2,0,0,1,0,1159.87,0.184377,0.18407,-1.08775,1,0.0192368,11,-0.000200223,-2.96347,-0.129347,-0.456138,19.5061,0.18407,
2,0,0,1,0,1159.94,0.182878,0.182571,-1.12377,1,0.0191532,11,-0.000205168,-2.94932,-0.127638,-0.462244,20.3575,0.182571,
2,0,0,1,0,1160.02,0.18138,0.181087,-1.15982,1,0.019067,11,-0.000210028,-2.93561,-0.119642,-0.49314,22.2958,0.181087,
2,0,0,1,0,1160.09,0.179882,0.179557,-1.19371,1,0.0189783,11,-0.000214338,-2.9231,-0.126073,-0.467983,21.7625,0.179557,
2,0,0,1,0,1160.17,0.178384,0.178116,-1.2299,1,0.018887,11,-0.000219066,-2.91013,-0.110415,-0.534347,25.7202,0.178116,
2,0,0,1,0,1160.24,0.176886,0.176609,-1.26818,1,0.0187931,11,-0.000223971,-2.89682,-0.103468,-0.570222,28.3356,0.176609,
2,0,0,1,0,1160.32,0.175386,0.175079,-1.3195,1,0.0186955,11,-0.000231017,-2.87959,-0.0955053,-0.617767,31.6989,0.175079,
2,0,0,1,0,1160.39,0.173891,0.173613,-1.36626,1,0.0185947,11,-0.000237201,-2.86447,-0.0932535,-0.632684,33.752,0.173613,
2,0,0,1,0,1160.47,0.172391,0.172116,-1.41544,1,0.01849,11,-0.00024362,-2.84911,-0.0908214,-0.649627,35.9035,0.172116,
2,0,0,1,0,1160.54,0.170893,0.170577,-1.46756,1,0.0183816,11,-0.000250332,-2.8334,-0.0838008,-0.704051,40.4809,0.170577,
2,0,0,1,0,1160.62,0.169395,0.169095,-1.53177,1,0.0182685,11,-0.000259015,-2.81481,-0.0775882,-0.760425,45.5139,0.169095,
2,0,0,1,0,1160.69,0.167897,0.167658,-1.60559,1,0.0181504,11,-0.00026919,-2.79436,-0.0791678,-0.745252,46.7516,0.1676576,
2,0,0,1,0,1160.77,0.166398,0.166089,-1.67158,1,0.018027,11,-0.000277632,-2.77687,-0.0768831,-0.767399,50.3773,0.166089,
2,0,0,1,0,1160.84,0.1649,0.164563,-1.74818,1,0.0178981,11,-0.000287686,-2.75741,-0.0739033,-0.798341,54.8488,0.164563,
2,0,0,1,0,1160.92,0.163402,0.163108,-1.84629,1,0.0177628,11,-0.000301144,-2.7337,-0.0686099,-0.859935,61.9683,0.163108,
2,0,0,1,0,1160.99,0.161904,0.161592,-1.94027,1,0.0176207,11,-0.000313532,-2.71214,-0.0677414,-0.87096,65.9794,0.161592,
2,0,0,1,0,1161.07,0.160406,0.160116,-2.04407,1,0.0174711,11,-0.000327288,-2.6895,-0.0692301,-0.85223,67.621,0.160116,
2,0,0,1,0,1161.14,0.158906,0.158637,-2.14472,1,0.0173134,11,-0.000340231,-2.66863,-0.0672088,-0.877861,73.6542,0.158637,
2,0,0,1,0,1161.22,0.157411,0.15708,-2.26201,1,0.0171483,11,-0.000355317,-2.64551,-0.0651604,-0.905458,80.2422,0.1570801,
2,0,0,1,0,1161.29,0.155911,0.155661,-2.381,1,0.0169736,11,-0.000370629,-2.62324,-0.064874,-0.909455,84.5971,0.155661,
2,0,0,1,0,1161.37,0.154413,0.154119,-2.51082,1,0.0167893,11,-0.000386964,-2.60018,-0.0700195,-0.842622,82.3357,0.154119,
2,0,0,1,0,1161.44,0.152915,0.152632,-2.63531,1,0.0165957,11,-0.000402233,-2.57917,-0.0737837,-0.799635,82.1986,0.152632,
2,0,0,1,0,1161.52,0.151417,0.151084,-2.7581,1,0.0163934,11,-0.000416705,-2.55939,-0.0773533,-0.762734,82.0619,0.151084,
2,0,0,1,0,1161.59,0.149918,0.149582,-2.88766,1,0.0161814,11,-0.000431943,-2.53945,-0.0793327,-0.743703,83.5138,0.149582,
2,0,0,1,0,1161.67,0.14842,0.148134,-3.01102,1,0.01596,11,-0.000446034,-2.52129,-0.0871424,-0.677053,79.2366,0.148134,
2,0,0,1,0,1161.74,0.146922,0.146616,-3.12564,1,0.0157296,11,-0.000458269,-2.50506,-0.0978255,-0.603114,73.3019,0.146616,
2,0,0,1,0,1161.82,0.145424,0.145119,-3.22724,1,0.0154912,11,-0.000468333,-2.49117,-0.105369,-0.559937,70.4958,0.145119,
2,0,0,1,0,1161.89,0.143926,0.143631,-3.33086,1,0.0152449,11,-0.000478415,-2.47744,-0.110935,-0.531841,68.9816,0.143631,
2,0,0,1,0,1161.97,0.142426,0.142174,-3.43075,1,0.0149906,11,-0.000487764,-2.46461,-0.128367,-0.459621,61.2517,0.142174,
2,0,0,1,0,1162.04,0.140931,0.140632,-3.50817,1,0.0147302,11,-0.000493361,-2.45492,-0.170714,-0.345607,47.1169,0.140632,
2,0,0,1,0,1162.12,0.139431,0.139123,-3.56552,1,0.0144638,11,-0.000496044,-2.44788,-0.201648,-0.29259,40.7104,0.139123,
2,0,0,1,0,1162.19,0.137933,0.137648,-3.63124,1,0.0141937,11,-0.000499833,-2.43995,-0.26186,-0.225311,31.8393,0.137648,
2,0,0,1,0,1162.27,0.136435,0.136148,-3.67397,1,0.0139194,11,-0.000500204,-2.43486,-0.341876,-0.172577,24.6314,0.136148,
2,0,0,1,0,1162.34,0.134936,0.134635,-3.70357,1,0.0136424,11,-0.000498631,-2.43138,-0.764609,-0.0771636,11.0896,0.134635,
2,0,0,1,0,1162.42,0.133438,0.133133,-3.71644,1,0.0133638,11,-0.000494781,-2.42987,-3.91859,-0.0150564,2.17621,0.133133,
2,0,0,1,0,1162.49,0.13194,0.131666,-3.70929,1,0.0130854,11,-0.000488386,-2.43071,1.3238,0.0445686,-6.44537,0.131666,
2,0,0,1,0,1162.57,0.130442,0.130124,-3.69732,1,0.0128074,11,-0.000481109,-2.43211,0.553593,0.106576,-15.309,0.130124,
2,0,0,1,0,1162.64,0.128942,0.128613,-3.66683,1,0.0125305,11,-0.000471602,-2.43571,0.305696,0.193002,-27.4791,0.128613,
2,0,0,1,0,1162.72,0.127446,0.12713,-3.61937,1,0.0122575,11,-0.00046013,-2.44137,0.220465,0.267616,-37.6224,0.12713,
2,0,0,1,0,1162.79,0.125947,0.125674,-3.54783,1,0.0119884,11,-0.000445869,-2.45004,0.171807,0.343409,-47.4318,0.125674,
2,0,0,1,0,1162.87,0.124449,0.124174,-3.47106,1,0.0117248,11,-0.000431014,-2.45954,0.148808,0.396483,-53.5094,0.124174,
2,0,0,1,0,1162.94,0.122951,0.122643,-3.38727,1,0.0114673,11,-0.000415424,-2.47015,0.127794,0.46168,-60.8339,0.122643,
2,0,0,1,0,1163.02,0.121453,0.121105,-3.28769,1,0.0112168,11,-0.000398156,-2.48311,0.108991,0.541328,-69.2637,0.121105,
2,0,0,1,0,1163.09,0.119955,0.119649,-3.17517,1,0.0109741,11,-0.000379907,-2.49823,0.105285,0.560384,-69.5867,0.119649,
2,0,0,1,0,1163.17,0.118456,0.118168,-3.07311,1,0.0107393,11,-0.000363145,-2.51242,0.105971,0.556757,-66.8381,0.1181684,
2,0,0,1,0,1163.24,0.116958,0.11666,-2.98017,1,0.010512,11,-0.000347666,-2.52576,0.102293,0.576776,-67.0239,0.1166599,
2,0,0,1,0,1163.32,0.11546,0.115156,-2.87599,1,0.0102924,11,-0.000331189,-2.54121,0.0963739,0.612199,-68.6334,0.115156,
2,0,0,1,0,1163.39,0.113962,0.113671,-2.77072,1,0.0100803,11,-0.00031495,-2.55741,0.100603,0.586462,-63.5934,0.1136707,
2,0,0,1,0,1163.47,0.112462,0.112171,-2.68253,1,0.00987541,11,-0.000300902,-2.57146,0.10495,0.562172,-58.9972,0.112171,
2,0,0,1,0,1163.54,0.110967,0.110682,-2.60116,1,0.00967738,11,-0.000287901,-2.58483,0.115353,0.511474,-51.9645,0.110682,
2,0,0,1,0,1163.62,0.109467,0.109159,-2.52101,1,0.00948481,11,-0.000275192,-2.59842,0.113096,0.521682,-51.4029,0.109159,
2,0,0,1,0,1163.69,0.107969,0.107662,-2.45282,1,0.00929799,11,-0.000264077,-2.61033,0.123569,0.477467,-45.7682,0.107662,
2,0,0,1,0,1163.77,0.106471,0.106137,-2.38478,1,0.00911646,11,-0.000253114,-2.62255,0.136551,0.432073,-40.3731,0.106137,
2,0,0,1,0,1163.84,0.104973,0.104679,-2.32947,1,0.00893933,11,-0.000243847,-2.63274,0.147789,0.399219,-36.3424,0.104679,
2,0,0,1,0,1163.92,0.103474,0.103168,-2.28096,1,0.00876611,11,-0.000235323,-2.64188,0.152124,0.387841,-34.4848,0.103168,
2,0,0,1,0,1163.99,0.101976,0.101651,-2.23375,1,0.00859673,11,-0.000227063,-2.65096,0.162773,0.362469,-31.5728,0.1016507,
2,0,0,1,0,1164.06,0.100478,0.100222,-2.18402,1,0.00843113,11,-0.000218888,-2.66074,0.180527,0.32682,-27.9098,0.100222,
2,0,0,1,0,1164.14,0.0989799,0.0986629,-2.14731,1,0.00826844,11,-0.00021186,-2.6681,0.213,0.276995,-23.1957,0.0986629,
2,0,0,1,0,1164.21,0.0974817,0.0971889,-2.11307,1,0.00810853,11,-0.000205366,-2.67509,0.213311,0.276592,-22.8,0.09718889,
2,0,0,1,0,1164.29,0.0959821,0.0956694,-2.07742,1,0.00795093,11,-0.000198745,-2.68248,0.221733,0.266086,-21.5765,0.0956694,
2,0,0,1,0,1164.36,0.0944866,0.0941883,-2.037,1,0.00779635,11,-0.000191862,-2.69101,0.242834,0.242964,-19.4175,0.0941883,
2,0,0,1,0,1164.44,0.0929871,0.0927106,-2.01315,1,0.00764368,11,-0.000186641,-2.69612,0.285027,0.206998,-16.316,0.0927106,
2,0,0,1,0,1164.51,0.0914889,0.0911667,-1.99748,1,0.00749307,11,-0.000182104,-2.69952,0.264377,0.223166,-17.3248,0.0911667,
2,0,0,1,0,1164.59,0.0899907,0.0896629,-1.9643,1,0.0073443,11,-0.000176125,-2.70679,0.238459,0.247422,-18.8983,0.0896629,
2,0,0,1,0,1164.66,0.0884925,0.0882024,-1.92975,1,0.00719771,11,-0.000170208,-2.7145,0.260775,0.226249,-17.0921,0.0882024,
2,0,0,1,0,1164.74,0.0869943,0.0867383,-1.91116,1,0.00705343,11,-0.000165771,-2.7187,0.262786,0.224518,-16.7717,0.0867383,
2,0,0,1,0,1164.81,0.0854961,0.0851707,-1.88916,1,0.00691061,11,-0.000160901,-2.72373,0.277685,0.212471,-15.6308,0.0851707,
2,0,0,1,0,1164.89,0.083998,0.0837322,-1.86084,1,0.00676956,11,-0.000155812,-2.73029,0.23179,0.254541,-18.4777,0.08373215,
2,0,0,1,0,1164.96,0.0824998,0.0822027,-1.84056,1,0.00663027,11,-0.000151299,-2.73505,0.254272,0.232035,-16.6425,0.0822027,
2,0,0,1,0,1165.04,0.081002,0.0806743,-1.816,1,0.00649322,11,-0.000146504,-2.74088,0.265613,0.222128,-15.7674,0.0806743,
2,0,0,1,0,1165.11,0.0795025,0.0792091,-1.79426,1,0.00635747,11,-0.000142122,-2.74611,0.306111,0.192741,-13.4591,0.0792091,
2,0,0,1,0,1165.19,0.078007,0.0776797,-1.76839,1,0.00622363,11,-0.000137368,-2.75242,0.27648,0.213397,-14.7088,0.0776797,
2,0,0,1,0,1165.26,0.076507,0.0761691,-1.74527,1,0.00609132,11,-0.000132936,-2.75814,0.252745,0.233437,-15.8946,0.0761691,
2,0,0,1,0,1165.34,0.0750088,0.0746878,-1.71917,1,0.0059612,11,-0.000128401,-2.76468,0.26572,0.222038,-14.9119,0.0746878,
2,0,0,1,0,1165.41,0.0735106,0.0732,-1.69615,1,0.00583263,11,-0.000124158,-2.77054,0.291474,0.202419,-13.3937,0.0732,
2,0,0,1,0,1165.49,0.0720124,0.0716936,-1.67599,1,0.00570568,11,-0.000120158,-2.77573,0.261089,0.225976,-14.7866,0.0716936,
2,0,0,1,0,1165.56,0.0705142,0.0702376,-1.65416,1,0.00558031,11,-0.000116184,-2.78142,0.25488,0.231482,-14.9491,0.0702376,
2,0,0,1,0,1165.64,0.0690161,0.0686829,-1.62676,1,0.00545685,11,-0.00011173,-2.78868,0.264992,0.222648,-14.2052,0.0686829,
2,0,0,1,0,1165.71,0.0675179,0.0671897,-1.61167,1,0.00533492,11,-0.000108288,-2.79272,0.316303,0.18653,-11.7395,0.0671897,
2,0,0,1,0,1165.79,0.0660179,0.0657242,-1.59992,1,0.00521413,11,-0.000105153,-2.7959,0.279561,0.211045,-13.102,0.0657242,
2,0,0,1,0,1165.86,0.0645224,0.0642466,-1.57655,1,0.00509492,11,-0.000101288,-2.80229,0.26355,0.223867,-13.7195,0.0642466,
2,0,0,1,0,1165.94,0.0630229,0.0627364,-1.551,1,0.00497709,11,-9.73043e-05,-2.80939,0.290443,0.203138,-12.3461,0.0627364,
2,0,0,1,0,1166.01,0.0615251,0.0612304,-1.53599,1,0.00486096,11,-9.40492e-05,-2.81361,0.33039,0.178577,-10.7341,0.0612304,
2,0,0,1,0,1166.09,0.0600269,0.0597213,-1.5201,1,0.00474582,11,-9.07823e-05,-2.81813,0.327971,0.179894,-10.6867,0.0597213,
2,0,0,1,0,1166.16,0.0585287,0.0582369,-1.50613,1,0.00463177,11,-8.77124e-05,-2.82214,0.27775,0.212422,-12.4661,0.0582369,
2,0,0,1,0,1166.24,0.0570305,0.0566904,-1.49437,1,0.00451891,11,-8.47164e-05,-2.82554,0.369748,0.159568,-9.29933,0.0566904,
2,0,0,1,0,1166.31,0.0555323,0.0552571,-1.48033,1,0.00440733,11,-8.17985e-05,-2.82964,0.397569,0.148402,-8.58182,0.0552571,
2,0,0,1,0,1166.39,0.0540342,0.0537015,-1.46893,1,0.00429636,11,-7.8884e-05,-2.833,0.481454,0.122545,-7.01097,0.0537015,
2,0,0,1,0,1166.46,0.052536,0.0522389,-1.459,1,0.0041861,11,-7.62166e-05,-2.83594,0.447369,0.131882,-7.5078,0.05223887,
2,0,0,1,0,1166.54,0.0510378,0.0506833,-1.44969,1,0.00407686,11,-7.3475e-05,-2.83873,0.448167,0.131647,-7.44695,0.0506833,
2,0,0,1,0,1166.61,0.0495382,0.0492334,-1.43493,1,0.00396828,11,-7.06463e-05,-2.84317,0.664989,0.0887232,-4.97615,0.0492334,
2,0,0,1,0,1166.69,0.0480427,0.0477465,-1.42593,1,0.0038605,11,-6.80834e-05,-2.8459,1.43097,0.0412309,-2.30096,0.0477465,
2,0,0,1,0,1166.76,0.0465432,0.046231,-1.42318,1,0.00375292,11,-6.57951e-05,-2.84674,0.76568,0.0770557,-4.29141,0.046231,
2,0,0,1,0,1166.84,0.045045,0.0447813,-1.4138,1,0.00364601,11,-6.33119e-05,-2.84961,0.88865,0.0663929,-3.67709,0.0447813,
2,0,0,1,0,1166.91,0.0435468,0.0432394,-1.40059,1,0.00353965,11,-6.05609e-05,-2.85369,1.20805,0.0488392,-2.69074,0.0432394,
2,0,0,1,0,1166.99,0.0420486,0.0417634,-1.4046,1,0.00343366,11,-5.86607e-05,-2.85245,1.12989,0.0522176,-2.86728,0.0417634,
2,0,0,1,0,1167.06,0.0405504,0.0402903,-1.40898,1,0.00332778,11,-5.67682e-05,-2.8511,1.68837,0.034945,-1.91355,0.0402903,
2,0,0,1,0,1167.14,0.0390523,0.0387504,-1.40099,1,0.00322212,11,-5.4289e-05,-2.85356,0.736343,0.0801257,-4.3688,0.0387504,
2,0,0,1,0,1167.21,0.0375541,0.0372406,-1.39499,1,0.00311679,11,-5.19502e-05,-2.85543,1.64209,0.0359299,-1.96196,0.0372406,
2,0,0,1,0,1167.29,0.0360559,0.0357886,-1.39488,1,0.00301188,11,-4.99206e-05,-2.85546,7.83977,0.00752573,-0.410627,0.0357886,
2,0,0,1,0,1167.36,0.0345577,0.0342174,-1.39581,1,0.00290681,11,-4.77611e-05,-2.85517,-3.3016,-0.0178701,0.973783,0.0342174,
2,0,0,1,0,1167.44,0.0330582,0.0327319,-1.39472,1,0.00280162,11,-4.56517e-05,-2.85551,2.73009,0.021611,-1.17457,0.0327319,
2,0,0,1,0,1167.51,0.0315626,0.0312452,-1.39801,1,0.00269671,11,-4.3681e-05,-2.85449,-8.74609,-0.00674587,0.366925,0.0312452,
2,0,0,1,0,1167.59,0.0300631,0.0297383,-1.39349,1,0.00259182,11,-4.144e-05,-2.8559,-3.755,-0.0157124,0.854165,0.0297383,
2,0,0,1,0,1167.66,0.0285649,0.0282601,-1.39791,1,0.00248671,11,-3.95052e-05,-2.85452,-1.51311,-0.0389926,2.11856,0.0282601,
2,0,0,1,0,1167.74,0.0270667,0.0267552,-1.39824,1,0.00238143,11,-3.74102e-05,-2.85442,-3.49039,-0.0169035,0.922257,0.0267552,
2,0,0,1,0,1167.81,0.0255685,0.0252855,-1.39666,1,0.00227611,11,-3.53152e-05,-2.85491,37.6967,0.00156512,-0.0855579,0.0252855,
2,0,0,1,0,1167.89,0.0240704,0.0237855,-1.39968,1,0.0021708,11,-3.32922e-05,-2.85397,-2.80755,-0.0210147,1.15112,0.0237855,
2,0,0,1,0,1167.96,0.0225722,0.0222497,-1.40544,1,0.0020652,11,-3.12706e-05,-2.85219,-0.926081,-0.0637093,3.49098,0.0222497,
2,0,0,1,0,1168.04,0.021074,0.0207863,-1.41089,1,0.00195929,11,-2.93272e-05,-2.85051,-1.05906,-0.05571,3.06464,0.0207863,
2,0,0,1,0,1168.11,0.0195758,0.0192839,-1.41172,1,0.00185308,11,-2.72236e-05,-2.85025,-1.85175,-0.0318617,1.75312,0.0192839,
2,0,0,1,0,1168.18,0.018078,0.0177805,-1.41014,1,0.00174665,11,-2.5073e-05,-2.85074,-0.889103,-0.066359,3.66462,0.0177805,
2,0,0,1,0,1168.26,0.0165785,0.0162781,-1.42126,1,0.00163992,11,-2.31355e-05,-2.84732,-0.664566,-0.0887797,4.93438,0.0162781,
2,0,0,1,0,1168.33,0.015083,0.0147735,-1.42708,1,0.0015329,11,-2.1083e-05,-2.84555,-0.778829,-0.0757548,4.21421,0.0147735,
2,0,0,1,0,1168.41,0.013583,0.0133072,-1.43003,1,0.00142495,11,-1.90297e-05,-2.84465,-1.98418,-0.0297352,1.65584,0.0133072,
2,0,0,1,0,1168.48,0.0120848,0.011759,-1.43354,1,0.00131693,11,-1.6857e-05,-2.84359,-1.42986,-0.0412626,2.31566,0.011759,
2,0,0,1,0,1168.56,0.0105866,0.0102879,-1.44127,1,0.00120891,11,-1.48277e-05,-2.84125,-0.956318,-0.061695,3.47831,0.0102879,
2,0,0,1,0,1168.63,0.00908846,0.00882375,-1.44689,1,0.00110017,11,-1.2767e-05,-2.83957,-0.671049,-0.087922,4.96617,0.00882375,
2,0,0,1,0,1168.71,0.00759027,0.0072641,-1.45479,1,0.000990844,11,-1.05678e-05,-2.8372,-0.894462,-0.0659615,3.73994,0.0072641,
2,0,0,1,0,1168.78,0.00609208,0.00580677,-1.46096,1,0.000881027,11,-8.48347e-06,-2.83536,-0.76944,-0.0766791,4.37129,0.00580677,
2,0,0,1,0,1168.86,0.00459389,0.00432022,-1.46836,1,0.000771011,11,-6.34362e-06,-2.83317,-0.653432,-0.0902925,5.18007,0.00432022,
2,0,0,1,0,1168.93,0.00309391,0.00277304,-1.47546,1,0.000660169,11,-4.0915e-06,-2.83107,-0.406863,-0.145012,8.35184,0.00277304,
2,0,0,1,0,1169.01,0.0015984,0.00123967,-1.50859,1,0.00054715,11,-1.87015e-06,-2.82143, , , ,0.00123967,
2,0,0,1,0,1169.08,0.000199195,-0.00013599,-1.4849,1,0.000441958,11,2.01932e-07,-2.8283, , , ,-0.00013599,