File: Figure_codes/Fig_3-5/rawdata_trumpetplot_data/before 10th/20221101_1-115_002_TrumpetPlot_ParaChange_08_CV_C01_1.csv
mode,ox/red,error,control changes,counter inc.,time/s,control/V,Ewe/V,<I>/mA,cycle number,(Q-Qo)/C,I Range,P/W,log(|I|),Tafel slope mV/dec,alpha_eff,dI/d(E-IR),E-IR/V,
2,0,0,0,0,2400.82,2.44065e-05,-0.000229887,-2.18636,2,0.0000000E+000,11,5.02616e-07,-2.66028, , , ,-0.000229887,
2,1,0,1,0,2400.85,0.00129787,0.00096699,0.492377,2,-1.834e-05,11,4.76124e-07,-3.3077, , , ,0.00096699,
2,1,0,1,0,2400.89,0.00279427,0.00247097,1.45435,2,2.18963e-05,11,3.59364e-06,-2.83733,0.0046572,12.6686,469.433,0.00247097,
2,1,0,1,0,2400.92,0.00429425,0.00403194,1.64176,2,8.10015e-05,11,6.61948e-06,-2.78469,0.0308918,1.90989,110.234,0.00403194,
2,1,0,1,0,2400.96,0.00579422,0.00552784,1.69567,2,0.000144175,11,9.37339e-06,-2.77066,0.122767,0.480584,31.2958,0.00552784,
2,1,0,1,0,2401,0.00729063,0.00699245,1.73144,2,0.000208428,11,1.2107e-05,-2.76159,0.263538,0.223877,15.0293,0.00699245,
2,1,0,1,0,2401.04,0.00878703,0.00845672,1.75238,2,0.000273571,11,1.48194e-05,-2.75637,0.317424,0.185871,12.6289,0.00845672,
2,1,0,1,0,2401.07,0.010287,0.00998987,1.77019,2,0.000339601,11,1.7684e-05,-2.75198,0.439565,0.134224,9.18775,0.00998987,
2,1,0,1,0,2401.11,0.011787,0.0115231,1.77751,2,0.00040623,11,2.04825e-05,-2.75019,0.365089,0.161605,11.2304,0.0115231,
2,1,0,1,0,2401.15,0.0132825,0.012968,1.78833,2,0.000473021,11,2.3191e-05,-2.74755,0.332882,0.17724,12.465,0.012968,
2,1,0,1,0,2401.19,0.014778,0.0144728,1.80421,2,0.000540561,11,2.6112e-05,-2.74371,0.358821,0.164427,11.6285,0.0144728,
2,1,0,1,0,2401.22,0.0162816,0.0160092,1.82303,2,0.000609243,11,2.91851e-05,-2.73921,0.485326,0.121568,8.6517,0.0160092,
2,1,0,1,0,2401.26,0.017778,0.0175251,1.83734,2,0.000677907,11,3.21995e-05,-2.73581,0.737013,0.0800529,5.7384,0.0175251,
2,1,0,1,0,2401.3,0.0192744,0.0190217,1.84685,2,0.000746826,11,3.51302e-05,-2.73357,0.488631,0.120746,8.69697,0.0190217,
2,1,0,1,0,2401.34,0.0207743,0.0205083,1.86431,2,0.000816414,11,3.82338e-05,-2.72948,0.455802,0.129442,9.35016,0.0205083,
2,1,0,1,0,2401.37,0.0222743,0.0220406,1.87629,2,0.000886631,11,4.13546e-05,-2.7267,0.551055,0.107067,7.79531,0.0220406,
2,1,0,1,0,2401.41,0.0237707,0.0235299,1.88237,2,0.000957038,11,4.42921e-05,-2.72529,0.805158,0.0732775,5.38215,0.0235299,
2,1,0,1,0,2401.45,0.0252671,0.0249901,1.88369,2,0.00102764,11,4.70735e-05,-2.72499,0.669144,0.0881723,6.52663,0.0249901,
2,1,0,1,0,2401.49,0.0267671,0.0265076,1.89942,2,0.00109885,11,5.03492e-05,-2.72138,0.47521,0.124156,9.22234,0.0265076,
2,1,0,1,0,2401.52,0.0282671,0.0280098,1.91563,2,0.00117058,11,5.36564e-05,-2.71769,0.513587,0.114878,8.58445,0.0280098,
2,1,0,1,0,2401.56,0.0297626,0.0295049,1.92603,2,0.00124252,11,5.68274e-05,-2.71534,0.760067,0.0776248,5.81407,0.0295049,
2,1,0,1,0,2401.6,0.0312581,0.030991,1.92613,2,0.00131483,11,5.96926e-05,-2.71532,0.562804,0.104832,7.89511,0.030991,
2,1,0,1,0,2401.64,0.0327616,0.0324848,1.9462,2,0.00138772,11,6.32217e-05,-2.71081,0.69416,0.0849948,6.4371,0.0324848,
2,1,0,1,0,2401.67,0.034258,0.0339969,1.95892,2,0.0014608,11,6.65971e-05,-2.70798,0.50018,0.117958,8.98959,0.0339969,
2,1,0,1,0,2401.71,0.0357545,0.0355012,1.96615,2,0.0015343,11,6.98007e-05,-2.70638,0.783048,0.0753466,5.76957,0.0355012,
2,1,0,1,0,2401.75,0.0372544,0.0369929,1.97895,2,0.00160854,11,7.3207e-05,-2.70357,0.589277,0.100123,7.74855,0.0369929,
2,1,0,1,0,2401.79,0.0387544,0.038449,1.98332,2,0.001683,11,7.62566e-05,-2.70261,0.475612,0.124051,9.68158,0.038449,
2,1,0,1,0,2401.82,0.0402508,0.0399723,2.00456,2,0.0017579,11,8.01267e-05,-2.69798,0.428537,0.137678,10.7955,0.0399723,
2,1,0,1,0,2401.86,0.0417472,0.0414999,2.02913,2,0.00183356,11,8.42086e-05,-2.69269,0.478003,0.12343,9.72692,0.0414999,
2,1,0,1,0,2401.9,0.0432472,0.042965,2.0472,2,0.00190996,11,8.79582e-05,-2.68884,0.595997,0.0989938,7.86245,0.042965,
2,1,0,1,0,2401.94,0.0447472,0.0444528,2.05672,2,0.00198675,11,9.14272e-05,-2.68682,0.408597,0.144397,11.5667,0.0444528,
2,1,0,1,0,2401.97,0.0462427,0.0459352,2.0704,2,0.00206398,11,9.5104e-05,-2.68395,0.331678,0.177883,14.3493,0.04593518,
2,1,0,1,0,2402.01,0.0477382,0.0474552,2.08988,2,0.002142,11,9.91755e-05,-2.67988,0.322485,0.182954,14.9601,0.0474552,
2,1,0,1,0,2402.05,0.0492417,0.0489651,2.10663,2,0.00222119,11,0.000103151,-2.67641,0.333644,0.176835,14.6073,0.0489651,
2,1,0,1,0,2402.09,0.0507381,0.0504331,2.11976,2,0.00230071,11,0.000106906,-2.67371,0.342052,0.172489,14.3917,0.0504331,
2,1,0,1,0,2402.12,0.0522345,0.0519543,2.15522,2,0.00238105,11,0.000111973,-2.66651,0.264462,0.223094,18.8326,0.0519543,
2,1,0,1,0,2402.16,0.0537345,0.0534386,2.19306,2,0.00246265,11,0.000117194,-2.65895,0.272008,0.216906,18.4759,0.05343863,
2,1,0,1,0,2402.2,0.0552345,0.0549744,2.21795,2,0.00254544,11,0.00012193,-2.65405,0.297831,0.198099,17.0368,0.0549744,
2,1,0,1,0,2402.24,0.0567309,0.0564555,2.23731,2,0.0026289,11,0.000126309,-2.65027,0.287048,0.205541,17.9486,0.05645553,
2,1,0,1,0,2402.27,0.0582273,0.0579428,2.27074,2,0.0027132,11,0.000131573,-2.64383,0.249181,0.236776,21.0183,0.0579428,
2,1,0,1,0,2402.31,0.0597309,0.0594844,2.30352,2,0.00279935,11,0.000137024,-2.63761,0.22924,0.257372,23.1382,0.0594844,
2,1,0,1,0,2402.35,0.0612264,0.0609402,2.33716,2,0.00288639,11,0.000142427,-2.63131,0.242802,0.242997,22.2065,0.0609402,
2,1,0,1,0,2402.39,0.0627219,0.062474,2.37079,2,0.00297471,11,0.000148113,-2.62511,0.227614,0.259211,24.0927,0.062474,
2,1,0,1,0,2402.42,0.0642219,0.063942,2.40211,2,0.00306443,11,0.000153596,-2.61941,0.212595,0.277522,26.1518,0.063942,
2,1,0,1,0,2402.46,0.0657218,0.0654395,2.45571,2,0.00315583,11,0.000160701,-2.60982,0.18944,0.311444,29.7579,0.0654395,
2,1,0,1,0,2402.5,0.0672182,0.0669668,2.49898,2,0.00324858,11,0.000167349,-2.60224,0.21263,0.277477,26.9523,0.0669668,
2,1,0,1,0,2402.54,0.0687146,0.0684597,2.5421,2,0.00334295,11,0.000174031,-2.59481,0.222749,0.264872,26.1843,0.0684597,
2,1,0,1,0,2402.57,0.0702146,0.0699579,2.57556,2,0.00343891,11,0.000180181,-2.58913,0.211763,0.278614,28.091,0.06995786,
2,1,0,1,0,2402.61,0.0717146,0.0714357,2.62194,2,0.00353654,11,0.0001873,-2.58138,0.185655,0.317794,32.5638,0.0714357,
2,1,0,1,0,2402.65,0.073211,0.0729516,2.67161,2,0.0036358,11,0.000194899,-2.57323,0.193655,0.304666,31.8145,0.0729516,
2,1,0,1,0,2402.68,0.0747074,0.0744336,2.71887,2,0.00373686,11,0.000202375,-2.56561,0.208027,0.283616,30.1269,0.0744336,
2,1,0,1,0,2402.72,0.0762109,0.0759358,2.75861,2,0.00384004,11,0.000209477,-2.55931,0.203607,0.289774,31.2994,0.0759358,
2,1,0,1,0,2402.76,0.0777064,0.0774402,2.81322,2,0.00394439,11,0.000217856,-2.5508,0.184266,0.32019,35.1324,0.0774402,
2,1,0,1,0,2402.8,0.079202,0.0789625,2.86999,2,0.00405069,11,0.000226622,-2.54212,0.201097,0.29339,32.6895,0.0789625,
2,1,0,1,0,2402.83,0.0807019,0.0803764,2.91702,2,0.00415928,11,0.000234459,-2.53506,0.221235,0.266685,30.1873,0.0803764,
2,1,0,1,0,2402.87,0.0822019,0.0819456,2.95276,2,0.00426951,11,0.000241966,-2.52977,0.219362,0.268961,31.0527,0.0819456,
2,1,0,1,0,2402.91,0.0836983,0.0834397,2.99997,2,0.00438108,11,0.000250317,-2.52288,0.216528,0.272483,31.9897,0.0834397,
2,1,0,1,0,2402.95,0.0851947,0.0849348,3.04748,2,0.00449453,11,0.000258837,-2.51606,0.22546,0.261687,31.2467,0.0849348,
2,1,0,1,0,2402.98,0.0866947,0.0864218,3.10284,2,0.00461015,11,0.000268153,-2.50824,0.239923,0.245912,29.7414,0.0864218,
2,1,0,1,0,2403.02,0.0881947,0.0879254,3.15553,2,0.00472763,11,0.000277451,-2.50093,0.235678,0.250342,30.7542,0.0879254,
2,1,0,1,0,2403.06,0.0896911,0.0894086,3.19736,2,0.00484633,11,0.000285872,-2.49521,0.228454,0.258258,32.2029,0.0894086,
2,1,0,1,0,2403.1,0.0911875,0.0909402,3.25481,2,0.00496694,11,0.000295993,-2.48747,0.216707,0.272257,34.4103,0.09094017,
2,1,0,1,0,2403.13,0.0926901,0.0924649,3.29834,2,0.00509025,11,0.000304981,-2.4817,0.227278,0.259594,33.3328,0.0924649,
2,1,0,1,0,2403.17,0.0941856,0.0939287,3.34238,2,0.00521459,11,0.000313945,-2.47594,0.277802,0.212381,27.7111,0.0939287,
2,1,0,1,0,2403.21,0.0956821,0.0954044,3.37389,2,0.00534044,11,0.000321884,-2.47187,0.259311,0.227526,30.112,0.0954044,
2,1,0,1,0,2403.25,0.097182,0.096898,3.42466,2,0.00546833,11,0.000331842,-2.46538,0.227871,0.258919,34.7172,0.096898,
2,1,0,1,0,2403.28,0.098682,0.0984031,3.48059,2,0.00559811,11,0.000342501,-2.45835,0.228426,0.258289,35.1583,0.0984031,
2,1,0,1,0,2403.32,0.100178,0.0999519,3.54015,2,0.0057296,11,0.000353845,-2.45098,0.23099,0.255423,35.2284,0.0999519,
2,1,0,1,0,2403.36,0.101675,0.101411,3.58491,2,0.00586301,11,0.000363547,-2.44552,0.233144,0.253062,35.4619,0.1014106,
2,1,0,1,0,2403.4,0.103175,0.102942,3.65087,2,0.00599869,11,0.000375828,-2.4376,0.204036,0.289165,41.1636,0.102942,
2,1,0,1,0,2403.43,0.104675,0.104393,3.70765,2,0.00613673,11,0.000387052,-2.4309,0.199645,0.295525,42.7063,0.104393,
2,1,0,1,0,2403.47,0.106171,0.105934,3.77043,2,0.00627687,11,0.000399418,-2.42361,0.208524,0.282942,41.6006,0.105934,
2,1,0,1,0,2403.51,0.107667,0.107423,3.83218,2,0.00641929,11,0.000411663,-2.41655,0.189028,0.312123,46.8828,0.107423,
2,1,0,1,0,2403.55,0.10917,0.108887,3.9014,2,0.00656484,11,0.000424809,-2.40878,0.176905,0.333513,51.0165,0.108887,
2,1,0,1,0,2403.58,0.110666,0.110394,3.98466,2,0.00671273,11,0.000439881,-2.39961,0.157406,0.374828,58.4385,0.110394,
2,1,0,1,0,2403.62,0.112162,0.111924,4.0794,2,0.00686369,11,0.000456585,-2.3894,0.159811,0.369185,58.7537,0.111924,
2,1,0,1,0,2403.66,0.113662,0.11339,4.17974,2,0.00701856,11,0.000473943,-2.37885,0.148907,0.39622,64.4536,0.1133904,
2,1,0,1,0,2403.7,0.115162,0.114873,4.27534,2,0.00717691,11,0.000491121,-2.36903,0.139644,0.422504,70.4456,0.114873,
2,1,0,1,0,2403.73,0.116658,0.116405,4.38291,2,0.00733884,11,0.000510194,-2.35824,0.126395,0.466792,79.9216,0.116405,
2,1,0,1,0,2403.77,0.118155,0.117893,4.5069,2,0.00750533,11,0.000531334,-2.34612,0.125088,0.471669,83.058,0.117893,
2,1,0,1,0,2403.81,0.119655,0.11937,4.63316,2,0.00767701,11,0.000553061,-2.33412,0.126155,0.467678,84.7954,0.11937,
2,1,0,1,0,2403.85,0.121155,0.120892,4.75844,2,0.00785342,11,0.000575257,-2.32254,0.118456,0.498075,92.959,0.120892,
2,1,0,1,0,2403.88,0.122651,0.122368,4.91131,2,0.00803452,11,0.000600987,-2.3088,0.111936,0.527089,101.157,0.122368,
2,1,0,1,0,2403.92,0.124147,0.123927,5.06647,2,0.00822132,11,0.000627872,-2.29529,0.112482,0.52453,103.702,0.123927,
2,1,0,1,0,2403.96,0.12565,0.125418,5.2324,2,0.008415,11,0.000656236,-2.2813,0.115693,0.509972,103.781,0.125418,
2,1,0,1,0,2404,0.127146,0.126864,5.37963,2,0.00861363,11,0.000682478,-2.26925,0.113019,0.522038,109.593,0.126864,
2,1,0,1,0,2404.03,0.128642,0.128362,5.54488,2,0.00881801,11,0.00071175,-2.25611,0.115867,0.509206,110.345,0.1283617,
2,1,0,1,0,2404.07,0.130142,0.129851,5.71208,2,0.00902927,11,0.000741717,-2.24321,0.11697,0.504402,112.432,0.129851,
2,1,0,1,0,2404.11,0.131642,0.131374,5.88268,2,0.00924715,11,0.000772832,-2.23042,0.125444,0.470328,107.766,0.131374,
2,1,0,1,0,2404.15,0.133139,0.132867,6.03674,2,0.00947039,11,0.000802084,-2.2192,0.13627,0.432964,102.085,0.132867,
2,1,0,1,0,2404.18,0.134635,0.134348,6.19627,2,0.00969926,11,0.000832457,-2.20787,0.139051,0.424305,102.519,0.134348,
2,1,0,1,0,2404.22,0.136135,0.135854,6.347,2,0.00993459,11,0.000862265,-2.19743,0.14846,0.397413,98.2416,0.135854,
2,1,0,1,0,2404.26,0.137635,0.137352,6.49756,2,0.0101755,11,0.000892454,-2.18725,0.167606,0.352016,88.8768,0.137352,
2,1,0,1,0,2404.3,0.13913,0.138862,6.62393,2,0.0104208,11,0.000919813,-2.17888,0.18705,0.315424,81.1867,0.138862,
2,1,0,1,0,2404.33,0.140626,0.140362,6.72273,2,0.0106704,11,0.000943616,-2.17245,0.216158,0.272948,71.5408,0.140362,
2,1,0,1,0,2404.37,0.14213,0.141875,6.8248,2,0.0109254,11,0.000968266,-2.16591,0.239397,0.246452,65.5416,0.141875,
2,1,0,1,0,2404.41,0.143626,0.143394,6.91234,2,0.0111828,11,0.000991189,-2.16037,0.312225,0.188966,50.8891,0.143394,
2,1,0,1,0,2404.45,0.145122,0.144834,6.97917,2,0.0114429,11,0.00101082,-2.1562,0.492125,0.119888,32.5817,0.144834,
2,1,0,1,0,2404.48,0.146622,0.146358,7.01609,2,0.0117057,11,0.00102686,-2.15391,0.814988,0.0723937,19.7857,0.146358,
2,1,0,1,0,2404.52,0.148122,0.147826,7.04029,2,0.0119695,11,0.00104074,-2.15241,2.57616,0.0229023,6.27271,0.147826,
2,1,0,1,0,2404.56,0.149619,0.149341,7.04635,2,0.0122331,11,0.00105231,-2.15204,-1.40574,-0.0419708,-11.4833,0.149341,
2,1,0,1,0,2404.6,0.151115,0.150866,7.01729,2,0.0124961,11,0.00105867,-2.15383,-0.454339,-0.129859,-35.3291,0.150866,
2,1,0,1,0,2404.63,0.152615,0.15237,6.94102,2,0.0127581,11,0.0010576,-2.15858,-0.28927,-0.203962,-55.0396,0.15237,
2,1,0,1,0,2404.67,0.154115,0.153844,6.84242,2,0.0130166,11,0.00105267,-2.16479,-0.210767,-0.27993,-74.5734,0.1538443,
2,1,0,1,0,2404.71,0.155611,0.155326,6.71662,2,0.0132705,11,0.00104327,-2.17285,-0.162831,-0.362339,-94.5976,0.155326,
2,1,0,1,0,2404.74,0.157106,0.156842,6.55298,2,0.0135191,11,0.00102778,-2.18356,-0.121831,-0.484278,-123.155,0.156842,
2,1,0,1,0,2404.78,0.15861,0.158401,6.35308,2,0.0137621,11,0.00100634,-2.19702,-0.0980849,-0.601519,-148.225,0.1584014,
2,1,0,1,0,2404.82,0.160106,0.159875,6.11251,2,0.0139952,11,0.000977237,-2.21378,-0.0829883,-0.710944,-168.646,0.159875,
2,1,0,1,0,2404.86,0.161602,0.161336,5.85286,2,0.0142189,11,0.000944276,-2.23263,-0.0728967,-0.809364,-183.498,0.161336,
2,1,0,1,0,2404.89,0.163102,0.162838,5.55548,2,0.0144328,11,0.000904643,-2.25528,-0.0647902,-0.910632,-196.431,0.162838,
2,1,0,1,0,2404.93,0.164602,0.164304,5.24282,2,0.0146355,11,0.000861417,-2.28044,-0.0586984,-1.00514,-205.389,0.164304,
2,1,0,1,0,2404.97,0.166099,0.165821,4.92987,2,0.0148258,11,0.000817478,-2.30716,-0.0558876,-1.05569,-203.565,0.165821,
2,1,0,1,0,2405.01,0.167595,0.167344,4.63198,2,0.0150049,11,0.000775134,-2.33423,-0.0569721,-1.03559,-187.869,0.167344,
2,1,0,1,0,2405.04,0.169095,0.168826,4.36535,2,0.0151737,11,0.000736985,-2.35998,-0.0569709,-1.03562,-176.824,0.168826,
2,1,0,1,0,2405.08,0.170595,0.170299,4.10816,2,0.0153326,11,0.000699617,-2.38635,-0.0572972,-1.02972,-165.458,0.170299,
2,1,0,1,0,2405.12,0.172091,0.171885,3.86889,2,0.0154818,11,0.000665003,-2.41241,-0.0624492,-0.944767,-143.449,0.171885,
2,1,0,1,0,2405.16,0.173586,0.173303,3.67826,2,0.0156228,11,0.000637453,-2.43436,-0.0682446,-0.864537,-124.407,0.173303,
2,1,0,1,0,2405.19,0.17509,0.174782,3.49916,2,0.0157577,11,0.000611592,-2.45604,-0.074463,-0.792339,-108.598,0.174782,
2,1,0,1,0,2405.23,0.176586,0.176327,3.34705,2,0.0158859,11,0.000590175,-2.47534,-0.0792453,-0.744523,-97.5864,0.176327,
2,1,0,1,0,2405.27,0.178083,0.177818,3.20559,2,0.0160087,11,0.000570012,-2.49409,-0.0873096,-0.675756,-85.1925,0.177818,
2,1,0,1,0,2405.31,0.179582,0.179318,3.09426,2,0.016127,11,0.000554857,-2.50944,-0.0984691,-0.599173,-72.7867,0.179318,
2,1,0,1,0,2405.34,0.181082,0.180835,2.99305,2,0.0162413,11,0.000541248,-2.52389,-0.104943,-0.562212,-65.8565,0.180835,
2,1,0,1,0,2405.38,0.182579,0.182331,2.90331,2,0.0163518,11,0.000529365,-2.53711,-0.107415,-0.54927,-62.2097,0.182331,
2,1,0,1,0,2405.42,0.184075,0.183856,2.8186,2,0.0164589,11,0.000518215,-2.54997,-0.114176,-0.516745,-56.8062,0.183856,
2,1,0,1,0,2405.46,0.185579,0.185317,2.73766,2,0.0165631,11,0.000507335,-2.56262,-0.124853,-0.472556,-50.5112,0.185317,
2,1,0,1,0,2405.49,0.187074,0.186835,2.66768,2,0.0166642,11,0.000498416,-2.57387,-0.141807,-0.416058,-43.2633,0.186835,
2,1,0,1,0,2405.53,0.18857,0.188332,2.59832,2,0.0167628,11,0.000489347,-2.58531,-0.15211,-0.387878,-39.4286,0.188332,
2,1,0,1,0,2405.57,0.19007,0.189838,2.5375,2,0.0168594,11,0.000481713,-2.59559,-0.150217,-0.392766,-39.0459,0.189838,
2,1,0,1,0,2405.61,0.19157,0.191282,2.47645,2,0.0169536,11,0.000473699,-2.60617,-0.165973,-0.35548,-34.5902,0.191282,
2,1,0,1,0,2405.64,0.193066,0.192783,2.42935,2,0.0170457,11,0.000468338,-2.61451,-0.187271,-0.315052,-29.9461,0.192783,
2,1,0,1,0,2405.68,0.194563,0.194258,2.39509,2,0.0171361,11,0.000465265,-2.62068,-0.192165,-0.307028,-28.6327,0.194258,
2,1,0,1,0,2405.72,0.196063,0.195817,2.34999,2,0.0172252,11,0.000460169,-2.62893,-0.182861,-0.322649,-29.5403,0.195817,
2,1,0,1,0,2405.76,0.197563,0.19731,2.30082,2,0.0173125,11,0.000453976,-2.63812,-0.205821,-0.286656,-25.8242,0.19731,
2,1,0,1,0,2405.79,0.199059,0.198806,2.27077,2,0.0173981,11,0.000451442,-2.64383,-0.239649,-0.246193,-21.8313,0.198806,
2,1,0,1,0,2405.83,0.200555,0.200306,2.23948,2,0.0174826,11,0.000448583,-2.64985,-0.253974,-0.232307,-20.3129,0.200306,
2,1,0,1,0,2405.87,0.202059,0.201769,2.20116,2,0.0175663,11,0.000444125,-2.65735,-0.223017,-0.264554,-22.7896,0.201769,
2,1,0,1,0,2405.91,0.203554,0.203243,2.17257,2,0.0176485,11,0.00044156,-2.66303,-0.274125,-0.21523,-18.3332,0.203243,
2,1,0,1,0,2405.94,0.20505,0.204752,2.14671,2,0.0177294,11,0.000439542,-2.66823,-0.360078,-0.163853,-13.8344,0.204752,
2,1,0,1,0,2405.98,0.20655,0.206283,2.12702,2,0.0178098,11,0.000438767,-2.67223,-0.346768,-0.170143,-14.1169,0.206283,
2,1,0,1,0,2406.02,0.20805,0.207779,2.11188,2,0.0178896,11,0.000438804,-2.67533,-0.294778,-0.200151,-16.3906,0.207779,
2,1,0,1,0,2406.06,0.209546,0.209295,2.08586,2,0.0179682,11,0.00043656,-2.68072,-0.289343,-0.203911,-16.6062,0.209295,
2,1,0,1,0,2406.09,0.211043,0.210759,2.05883,2,0.0180457,11,0.000433917,-2.68638,-0.332973,-0.177192,-14.2836,0.210759,
2,1,0,1,0,2406.13,0.212543,0.212296,2.0406,2,0.0181229,11,0.000433211,-2.69024,-0.453014,-0.130239,-10.3892,0.212296,
2,1,0,1,0,2406.17,0.214043,0.213763,2.02332,2,0.0181994,11,0.00043251,-2.69394,-0.404453,-0.145876,-11.5736,0.213763,
2,1,0,1,0,2406.21,0.215539,0.215278,2.00963,2,0.018275,11,0.000432629,-2.69688,-0.432101,-0.136542,-10.7303,0.215278,
2,1,0,1,0,2406.24,0.217035,0.216757,1.99157,2,0.0183499,11,0.000431686,-2.7008,-0.443042,-0.13317,-10.3646,0.216757,
2,1,0,1,0,2406.28,0.218538,0.218263,1.97911,2,0.0184247,11,0.000431966,-2.70353,-0.798945,-0.0738474,-5.69277,0.218263,
2,1,0,1,0,2406.32,0.220034,0.219787,1.97634,2,0.0184987,11,0.000434374,-2.70414,-0.511742,-0.115293,-8.82561,0.219787,
2,1,0,1,0,2406.36,0.22153,0.221318,1.9598,2,0.0185723,11,0.000433738,-2.70779,-0.448369,-0.131588,-10.0133,0.221318,
2,1,0,1,0,2406.39,0.22303,0.222777,1.93013,2,0.0186454,11,0.00042999,-2.71441,-0.546668,-0.107927,-8.18709,0.222777,
2,1,0,1,0,2406.43,0.22453,0.224219,1.92287,2,0.018718,11,0.000431144,-2.71605,-0.633738,-0.0930984,-7.01476,0.224219,
2,1,0,1,0,2406.47,0.226026,0.225766,1.91197,2,0.0187902,11,0.000431658,-2.71852,-0.683347,-0.0863398,-6.47188,0.225766,
2,1,0,1,0,2406.51,0.227523,0.227227,1.90677,2,0.0188619,11,0.000433268,-2.7197,-0.414903,-0.142202,-10.5857,0.227227,
2,1,0,1,0,2406.54,0.229023,0.228748,1.89906,2,0.0189333,11,0.000434407,-2.72146,-0.563698,-0.104666,-7.75184,0.2287481,
2,1,0,1,0,2406.58,0.230523,0.230261,1.88982,2,0.0190043,11,0.000435153,-2.72358,-0.918475,-0.0642369,-4.72819,0.230261,
2,1,0,1,0,2406.62,0.232019,0.23177,1.8832,2,0.0190749,11,0.00043647,-2.7251,-0.791805,-0.0745133,-5.45156,0.23177,
2,1,0,1,0,2406.66,0.233515,0.233253,1.87312,2,0.0191453,11,0.000436911,-2.72743,-0.639652,-0.0922377,-6.72473,0.233253,
2,1,0,1,0,2406.69,0.235018,0.234798,1.85865,2,0.0192155,11,0.000436408,-2.7308,-0.785133,-0.0751465,-5.4696,0.234798,
2,1,0,1,0,2406.73,0.236514,0.236293,1.84523,2,0.019285,11,0.000436015,-2.73395,-1.01488,-0.0581349,-4.21146,0.2362933,
2,1,0,1,0,2406.77,0.23801,0.237755,1.84093,2,0.0193543,11,0.000437691,-2.73496,-1.21788,-0.0484447,-3.48996,0.237755,
2,1,0,1,0,2406.81,0.23951,0.239263,1.83743,2,0.0194236,11,0.000439628,-2.73579,-1.03183,-0.05718,-4.10851,0.239263,
2,1,0,1,0,2406.84,0.24101,0.240762,1.83127,2,0.0194925,11,0.000440901,-2.73725,-0.840243,-0.0702178,-5.00673,0.240762,
2,1,0,1,0,2406.88,0.242506,0.242232,1.81938,2,0.019561,11,0.000440713,-2.74008,-0.818842,-0.072053,-5.12512,0.2422324,
2,1,0,1,0,2406.92,0.244003,0.243744,1.82258,2,0.0196291,11,0.000444241,-2.73931,-1.07662,-0.0548014,-3.87828,0.2437437,
2,1,0,1,0,2406.95,0.245503,0.245254,1.81834,2,0.0196974,11,0.000445955,-2.74033,-0.997826,-0.0591285,-4.17299,0.245254,
2,1,0,1,0,2406.99,0.247003,0.246734,1.80294,2,0.0197655,11,0.000444847,-2.74402,-0.6414,-0.0919862,-6.47635,0.246734,
2,1,0,1,0,2407.03,0.248499,0.248232,1.79083,2,0.0198329,11,0.000444542,-2.74694,-0.915801,-0.0644245,-4.53265,0.248232,
2,1,0,1,0,2407.07,0.249995,0.249732,1.7879,2,0.0199001,11,0.000446496,-2.74766,-1.28022,-0.0460859,-3.22805,0.249732,
2,1,0,1,0,2407.1,0.251498,0.251257,1.78545,2,0.0199676,11,0.000448607,-2.74825,-1.60723,-0.036709,-2.56033,0.251257,
2,1,0,1,0,2407.14,0.252994,0.252748,1.7807,2,0.0200345,11,0.000450069,-2.74941,-0.666407,-0.0885345,-6.13644,0.252748,
2,1,0,1,0,2407.18,0.25449,0.254224,1.77982,2,0.0201011,11,0.000452472,-2.74962,-0.96639,-0.061052,-4.22263,0.254224,
2,1,0,1,0,2407.22,0.25599,0.255729,1.77083,2,0.0201676,11,0.000452851,-2.75182,-3.00804,-0.0196141,-1.35341,0.255729,
2,1,0,1,0,2407.25,0.25749,0.257229,1.76331,2,0.020234,11,0.000453572,-2.75367,-1.755,-0.0336182,-2.31179,0.257229,
2,1,0,1,0,2407.29,0.258987,0.258775,1.75942,2,0.0203002,11,0.000455294,-2.75463,-1.08162,-0.054548,-3.75091,0.258775,
2,1,0,1,0,2407.33,0.260483,0.26023,1.75231,2,0.0203661,11,0.000456004,-2.75639,-0.956086,-0.0617099,-4.23987,0.26023,
2,1,0,1,0,2407.37,0.261983,0.261703,1.74381,2,0.0204319,11,0.000456359,-2.7585,-1.10435,-0.053425,-3.65146,0.261703,
2,1,0,1,0,2407.4,0.263483,0.263223,1.74539,2,0.0204975,11,0.000459428,-2.75811,-5.17614,-0.0113985,-0.774404,0.263223,
2,1,0,1,0,2407.44,0.264978,0.264723,1.74584,2,0.0205628,11,0.000462165,-2.758,-1.86237,-0.0316801,-2.14872,0.264723,
2,1,0,1,0,2407.48,0.266474,0.266243,1.74006,2,0.020628,11,0.000463279,-2.75944,-1.04833,-0.05628,-3.80373,0.266243,
2,1,0,1,0,2407.52,0.267977,0.267734,1.72538,2,0.0206932,11,0.000461941,-2.76312,-1.38293,-0.0426629,-2.87759,0.267734,
2,1,0,1,0,2407.55,0.269474,0.269208,1.72334,2,0.0207579,11,0.000463939,-2.76363,-4.23939,-0.0139171,-0.937072,0.269208,
2,1,0,1,0,2407.59,0.27097,0.270707,1.72637,2,0.0208226,11,0.00046734,-2.76287,-1.00493,-0.0587108,-3.9437,0.2707071,
2,1,0,1,0,2407.63,0.27247,0.272223,1.71291,2,0.0208874,11,0.000466294,-2.76627,-0.990922,-0.0595405,-3.98604,0.272223,
2,1,0,1,0,2407.67,0.27397,0.273728,1.70586,2,0.0209518,11,0.000466942,-2.76806,-1.17517,-0.0502053,-3.36099,0.273728,
2,1,0,1,0,2407.7,0.275467,0.275178,1.70586,2,0.0210157,11,0.000469414,-2.76806,-1.17586,-0.0501759,-3.34525,0.275178,
2,1,0,1,0,2407.74,0.276963,0.276695,1.70812,2,0.0210797,11,0.000472627,-2.76748,-1.17375,-0.0502664,-3.33645,0.276695,
2,1,0,1,0,2407.78,0.278463,0.278212,1.70197,2,0.0211437,11,0.000473509,-2.76905,-0.937051,-0.0629635,-4.1599,0.278212,
2,1,0,1,0,2407.82,0.279963,0.279723,1.69809,2,0.0212075,11,0.000474996,-2.77004,-1.44198,-0.040916,-2.70573,0.279723,
2,1,0,1,0,2407.85,0.281459,0.281208,1.68755,2,0.0212708,11,0.000474553,-2.77274,-1.65688,-0.035609,-2.35386,0.281208,
2,1,0,1,0,2407.89,0.282954,0.282633,1.68304,2,0.0213341,11,0.000475681,-2.77391,18.9581,0.00311213,0.205003,0.282633,
2,1,0,1,0,2407.93,0.284458,0.284194,1.68047,2,0.0213976,11,0.00047758,-2.77457,-1.67164,-0.0352946,-2.32104,0.284194,
2,1,0,1,0,2407.97,0.285954,0.285662,1.6756,2,0.0214607,11,0.000478657,-2.77583,-1.05616,-0.0558629,-3.66465,0.2856625,
2,1,0,1,0,2408,0.28745,0.287164,1.67148,2,0.0215234,11,0.000479989,-2.7769,-1.48957,-0.0396087,-2.58932,0.287164,
2,1,0,1,0,2408.04,0.28895,0.288668,1.66973,2,0.0215863,11,0.000481999,-2.77735,-7.54324,-0.00782158,-0.507957,0.288668,
2,1,0,1,0,2408.08,0.29045,0.290177,1.66837,2,0.021649,11,0.000484122,-2.77771,-1.58632,-0.0371929,-2.41334,0.290177,
2,1,0,1,0,2408.12,0.291947,0.291698,1.66652,2,0.0217114,11,0.00048612,-2.77819,-0.98992,-0.0596008,-3.86207,0.291698,
2,1,0,1,0,2408.15,0.293443,0.293242,1.65327,2,0.0217737,11,0.000484807,-2.78166,-1.42058,-0.0415324,-2.68968,0.293242,
2,1,0,1,0,2408.19,0.294943,0.294676,1.652,2,0.0218359,11,0.000486804,-2.78199,-2.74609,-0.0214851,-1.39044,0.294676,
2,1,0,1,0,2408.23,0.296443,0.296227,1.65266,2,0.021898,11,0.000489562,-2.78182,-4.01645,-0.0146896,-0.94861,0.296227,
2,1,0,1,0,2408.27,0.297939,0.297693,1.64511,2,0.0219599,11,0.00048974,-2.7838,-0.869171,-0.0678807,-4.35888,0.297693,
2,1,0,1,0,2408.3,0.299434,0.299203,1.63966,2,0.0220217,11,0.000490589,-2.78525,-0.00604871,-9.75414,-426.21,0.299203,
2,1,0,0,0,2408.32,0.299962,0.299708,1.54364,2,0.0220459,11,0.000462641,-2.81145,0.00143272,41.1805,2602.9,0.299708,
2,0,0,1,0,2408.35,0.298689,0.298405,-0.347766,2,0.0220529,11,-0.000103775,-3.45871,0.00683117,8.63688,653.31,0.298405,
2,0,0,1,0,2408.39,0.297189,0.296924,-0.523716,2,0.0220352,11,-0.000155504,-3.2809,-0.0036379,-16.2181,131.337,0.296924,
2,0,0,1,0,2408.42,0.295692,0.295413,-0.567143,2,0.0220146,11,-0.000167542,-3.24631,-0.0464677,-1.2697,27.7055,0.295413,
2,0,0,1,0,2408.46,0.294196,0.29393,-0.598701,2,0.0219926,11,-0.000175976,-3.22279,-0.062604,-0.942433,22.3602,0.29393,
2,0,0,1,0,2408.5,0.292696,0.292426,-0.632305,2,0.0219691,11,-0.000184903,-3.19907,-0.0627446,-0.94032,23.5762,0.292426,
2,0,0,1,0,2408.54,0.291196,0.290867,-0.67717,2,0.0219444,11,-0.000196967,-3.1693,-0.0685397,-0.860815,22.573,0.290867,
2,0,0,1,0,2408.57,0.2897,0.289402,-0.710159,2,0.0219184,11,-0.000205522,-3.14864,-0.0778632,-0.757739,20.6636,0.289402,
2,0,0,1,0,2408.61,0.288205,0.287885,-0.737123,2,0.0218913,11,-0.000212207,-3.13246,-0.0948418,-0.622089,17.6006,0.287885,
2,0,0,1,0,2408.65,0.286701,0.286457,-0.757641,2,0.021863,11,-0.000217031,-3.12054,-0.103082,-0.57236,16.7969,0.2864567,
2,0,0,1,0,2408.69,0.285205,0.28486,-0.787074,2,0.0218341,11,-0.000224206,-3.10398,-0.115621,-0.510288,15.6035,0.28486,
2,0,0,1,0,2408.72,0.283708,0.283419,-0.803669,2,0.0218042,11,-0.000227775,-3.09492,-0.126723,-0.465581,14.6599,0.283419,
2,0,0,1,0,2408.76,0.282208,0.281907,-0.823329,2,0.0217734,11,-0.000232102,-3.08443,-0.16322,-0.361476,11.6216,0.281907,
2,0,0,1,0,2408.8,0.280709,0.280443,-0.841439,2,0.0217418,11,-0.000235975,-3.07498,-0.156288,-0.377509,12.5247,0.280443,
2,0,0,1,0,2408.84,0.279212,0.278973,-0.862818,2,0.0217098,11,-0.000240703,-3.06408,-0.16615,-0.355101,12.0037,0.278973,
2,0,0,1,0,2408.87,0.277716,0.277418,-0.88839,2,0.0216769,11,-0.000246455,-3.0514,-0.180091,-0.327613,11.2428,0.277418,
2,0,0,1,0,2408.91,0.276216,0.275915,-0.905739,2,0.0216433,11,-0.000249907,-3.043,-0.182857,-0.322656,11.2763,0.275915,
2,0,0,1,0,2408.95,0.274716,0.274439,-0.920528,2,0.021609,11,-0.000252629,-3.03596,-0.198514,-0.297209,10.605,0.274439,
2,0,0,1,0,2408.99,0.27322,0.272945,-0.93342,2,0.0215744,11,-0.000254772,-3.02992,-0.207314,-0.284593,10.3672,0.2729449,
2,0,0,1,0,2409.02,0.271725,0.27142,-0.948182,2,0.021539,11,-0.000257356,-3.02311,-0.156761,-0.37637,13.928,0.27142,
2,0,0,1,0,2409.06,0.270221,0.269908,-0.960994,2,0.0215028,11,-0.00025938,-3.01728,-0.215145,-0.274233,10.3634,0.269908,
2,0,0,1,0,2409.1,0.268725,0.268465,-0.974285,2,0.0214662,11,-0.000261562,-3.01131,-0.28989,-0.203525,7.81005,0.268465,
2,0,0,1,0,2409.14,0.267228,0.26695,-0.983472,2,0.0214293,11,-0.000262538,-3.00724,-0.263795,-0.223658,8.66308,0.2669501,
2,0,0,1,0,2409.17,0.265728,0.265432,-1.0096,2,0.0213917,11,-0.000267979,-2.99585,-0.243928,-0.241874,9.45289,0.265432,
2,0,0,1,0,2409.21,0.264228,0.263926,-1.02618,2,0.0213535,11,-0.000270836,-2.98878,-0.255401,-0.231009,9.15673,0.263926,
2,0,0,1,0,2409.25,0.262732,0.26245,-1.03731,2,0.0213149,11,-0.000272244,-2.98409,-0.451674,-0.130625,5.22807,0.26245,
2,0,0,1,0,2409.29,0.261236,0.260932,-1.04466,2,0.0212758,11,-0.000272586,-2.98102,-0.296272,-0.199141,8.13375,0.260932,
2,0,0,1,0,2409.32,0.259736,0.259449,-1.0566,2,0.0212363,11,-0.000274134,-2.97609,-0.256564,-0.229962,9.57654,0.259449,
2,0,0,1,0,2409.36,0.258236,0.257954,-1.06948,2,0.0211962,11,-0.000275876,-2.97083,-0.275555,-0.214113,9.0035,0.257954,
2,0,0,1,0,2409.4,0.256741,0.256456,-1.08066,2,0.0211555,11,-0.000277141,-2.96631,-0.349141,-0.168986,7.18055,0.256456,
2,0,0,1,0,2409.44,0.255241,0.254922,-1.09494,2,0.0211145,11,-0.000279125,-2.96061,-0.334459,-0.176404,7.57235,0.254922,
2,0,0,1,0,2409.47,0.253741,0.253471,-1.11298,2,0.021073,11,-0.000282107,-2.95351,-0.315393,-0.187068,8.06921,0.253471,
2,0,0,1,0,2409.51,0.252245,0.251927,-1.12706,2,0.0210311,11,-0.000283938,-2.94805,-0.264052,-0.223441,9.72279,0.251927,
2,0,0,1,0,2409.55,0.250748,0.250425,-1.13862,2,0.0209888,11,-0.000285139,-2.94362,-0.343921,-0.171551,7.5691,0.250425,
2,0,0,1,0,2409.59,0.249248,0.248937,-1.14739,2,0.0209458,11,-0.000285629,-2.94029,-0.347863,-0.169607,7.58795,0.248937,
2,0,0,1,0,2409.62,0.247748,0.247461,-1.14895,2,0.0209026,11,-0.000284319,-2.9397,-0.355866,-0.165793,7.51837,0.247461,
2,0,0,1,0,2409.66,0.246252,0.24596,-1.16506,2,0.020859,11,-0.000286557,-2.93365,-0.264638,-0.222946,10.1906,0.24596,
2,0,0,1,0,2409.7,0.244756,0.244456,-1.18588,2,0.0208148,11,-0.000289896,-2.92596,-0.298936,-0.197367,9.12948,0.244456,
2,0,0,1,0,2409.74,0.243252,0.242983,-1.19568,2,0.0207699,11,-0.000290531,-2.92238,-0.501228,-0.117711,5.47282,0.242983,
2,0,0,1,0,2409.77,0.241756,0.241429,-1.20174,2,0.0207249,11,-0.000290136,-2.92019,-0.302589,-0.194984,9.13828,0.241429,
2,0,0,1,0,2409.81,0.240261,0.239984,-1.22255,2,0.0206796,11,-0.000293391,-2.91273,-0.329626,-0.178991,8.46858,0.239984,
2,0,0,1,0,2409.85,0.238761,0.238467,-1.22995,2,0.0206335,11,-0.000293302,-2.91011,-0.302309,-0.195165,9.34077,0.238467,
2,0,0,1,0,2409.89,0.237261,0.236965,-1.23801,2,0.020587,11,-0.000293367,-2.90727,-0.539493,-0.109362,5.28671,0.236965,
2,0,0,1,0,2409.92,0.235765,0.235475,-1.24501,2,0.0205402,11,-0.00029317,-2.90483,-0.360028,-0.163876,8.05582,0.235475,
2,0,0,1,0,2409.96,0.234268,0.233986,-1.26158,2,0.0204932,11,-0.000295193,-2.89908,-0.347539,-0.169765,8.43653,0.2339863,
2,0,0,1,0,2410,0.232768,0.232469,-1.27479,2,0.0204453,11,-0.000296348,-2.89456,-0.27867,-0.21172,10.5618,0.232469,
2,0,0,1,0,2410.04,0.231268,0.230989,-1.29177,2,0.0203969,11,-0.000298385,-2.88881,-0.477654,-0.12352,6.20957,0.230989,
2,0,0,1,0,2410.07,0.229772,0.229459,-1.30834,2,0.0203482,11,-0.000300211,-2.88328,-0.419382,-0.140683,7.13249,0.2294592,
2,0,0,1,0,2410.11,0.228275,0.22797,-1.31976,2,0.0202992,11,-0.000300866,-2.87951,-0.437878,-0.134741,6.89709,0.22797,
2,0,0,1,0,2410.15,0.226772,0.226491,-1.33311,2,0.0202493,11,-0.000301938,-2.87513,-0.26622,-0.221621,11.4513,0.226491,
2,0,0,1,0,2410.19,0.225276,0.22499,-1.34223,2,0.0201992,11,-0.000301988,-2.87217,-0.325234,-0.181408,9.53967,0.22499,
2,0,0,1,0,2410.22,0.223781,0.223487,-1.349,2,0.0201486,11,-0.000301484,-2.86999,-0.356525,-0.165486,8.81539,0.223487,
2,0,0,1,0,2410.26,0.222281,0.221977,-1.35975,2,0.0200973,11,-0.000301832,-2.86654,-0.315601,-0.186945,10.0416,0.221977,
2,0,0,1,0,2410.3,0.220781,0.220472,-1.38641,2,0.0200455,11,-0.000305666,-2.85811,-0.264594,-0.222983,12.0576,0.220472,
2,0,0,1,0,2410.33,0.219284,0.219002,-1.40801,2,0.0199932,11,-0.000308357,-2.85139,-0.29204,-0.202027,11.0123,0.219002,
2,0,0,1,0,2410.37,0.217788,0.217491,-1.42178,2,0.0199402,11,-0.000309225,-2.84717,-0.38605,-0.15283,8.40397,0.217491,
2,0,0,1,0,2410.41,0.216288,0.215975,-1.42455,2,0.0198867,11,-0.000307668,-2.84632,-0.339322,-0.173876,9.70492,0.2159752,
2,0,0,1,0,2410.45,0.214788,0.21452,-1.4516,2,0.0198327,11,-0.000311397,-2.83815,-0.318219,-0.185407,10.4979,0.21452,
2,0,0,1,0,2410.48,0.213292,0.212979,-1.4685,2,0.019778,11,-0.00031276,-2.83312,-0.258275,-0.228439,13.0887,0.212979,
2,0,0,1,0,2410.52,0.211796,0.211489,-1.47852,2,0.0197227,11,-0.00031269,-2.83017,-0.326453,-0.180731,10.4639,0.211489,
2,0,0,1,0,2410.56,0.210293,0.209991,-1.4994,2,0.0196664,11,-0.000314861,-2.82408,-0.278497,-0.211851,12.4651,0.2099915,
2,0,0,1,0,2410.6,0.208797,0.208504,-1.51874,2,0.0196098,11,-0.000316662,-2.81852,-0.221487,-0.266381,15.9081,0.208504,
2,0,0,1,0,2410.63,0.207301,0.206995,-1.54223,2,0.0195525,11,-0.000319233,-2.81185,-0.239173,-0.246683,14.8011,0.206995,
2,0,0,1,0,2410.67,0.205801,0.205519,-1.57168,2,0.0194938,11,-0.000323009,-2.80364,-0.238339,-0.247547,15.0227,0.205519,
2,0,0,1,0,2410.71,0.204301,0.20402,-1.59134,2,0.0194346,11,-0.000324665,-2.79824,-0.29198,-0.202068,12.503,0.20402,
2,0,0,1,0,2410.75,0.202804,0.202544,-1.60412,2,0.0193749,11,-0.000324905,-2.79476,-0.244584,-0.241226,15.1524,0.202544,
2,0,0,1,0,2410.78,0.201308,0.201028,-1.62721,2,0.0193142,11,-0.000327114,-2.78856,-0.204362,-0.288703,18.3856,0.201028,
2,0,0,1,0,2410.82,0.199808,0.19951,-1.65084,2,0.0192524,11,-0.000329358,-2.7823,-0.221952,-0.265823,17.2887,0.19951,
2,0,0,1,0,2410.86,0.198308,0.197998,-1.67902,2,0.0191897,11,-0.000332443,-2.77494,-0.216186,-0.272913,17.9616,0.1979977,
2,0,0,1,0,2410.9,0.196812,0.196527,-1.70469,2,0.0191261,11,-0.000335017,-2.76836,-0.201232,-0.293194,19.5771,0.196527,
2,0,0,1,0,2410.93,0.195316,0.195028,-1.74244,2,0.0190615,11,-0.000339824,-2.75884,-0.175008,-0.337127,22.8938,0.195028,
2,0,0,1,0,2410.97,0.193813,0.193472,-1.78996,2,0.0189952,11,-0.000346308,-2.74716,-0.168019,-0.351152,24.234,0.193472,
2,0,0,1,0,2411.01,0.192317,0.192019,-1.80944,2,0.0189279,11,-0.000347447,-2.74246,-0.183165,-0.322114,22.6652,0.192019,
2,0,0,1,0,2411.05,0.190821,0.190506,-1.83678,2,0.0188595,11,-0.000349917,-2.73594,-0.174026,-0.33903,24.447,0.190506,
2,0,0,1,0,2411.08,0.189321,0.189012,-1.8774,2,0.0187896,11,-0.000354853,-2.72644,-0.164869,-0.35786,26.371,0.189012,
2,0,0,1,0,2411.12,0.187821,0.187542,-1.91922,2,0.0187181,11,-0.000359936,-2.71687,-0.156853,-0.376149,28.3203,0.187542,
2,0,0,1,0,2411.16,0.186324,0.186042,-1.96668,2,0.0186452,11,-0.000365886,-2.70627,-0.163252,-0.361405,27.7227,0.186042,
2,0,0,1,0,2411.2,0.184828,0.184523,-2.01944,2,0.0185705,11,-0.000372632,-2.69477,-0.146439,-0.402898,31.7086,0.184523,
2,0,0,1,0,2411.23,0.183328,0.183018,-2.06361,2,0.0184941,11,-0.000377679,-2.68537,-0.139445,-0.423104,34.0805,0.183018,
2,0,0,1,0,2411.27,0.181828,0.181558,-2.12883,2,0.0184155,11,-0.000386505,-2.67186,-0.12476,-0.472909,39.0054,0.181558,
2,0,0,1,0,2411.31,0.180332,0.180038,-2.18945,2,0.0183349,11,-0.000394184,-2.65966,-0.119652,-0.493098,41.8973,0.180038,
2,0,0,1,0,2411.35,0.178836,0.178528,-2.24058,2,0.0182521,11,-0.000400006,-2.64964,-0.118263,-0.498889,43.7026,0.178528,
2,0,0,1,0,2411.38,0.177333,0.177025,-2.29659,2,0.0181666,11,-0.000406552,-2.63892,-0.111785,-0.527798,47.7475,0.177025,
2,0,0,1,0,2411.42,0.175837,0.175536,-2.37251,2,0.0180788,11,-0.000416462,-2.62479,-0.102462,-0.575823,53.5991,0.175536,
2,0,0,1,0,2411.46,0.174341,0.174037,-2.46027,2,0.0179881,11,-0.000428178,-2.60902,-0.101439,-0.581631,55.8978,0.174037,
2,0,0,1,0,2411.5,0.172841,0.172555,-2.54989,2,0.017894,11,-0.000439997,-2.59348,-0.0998754,-0.590736,58.7576,0.172555,
2,0,0,1,0,2411.53,0.171341,0.171042,-2.63669,2,0.0177966,11,-0.000450986,-2.57894,-0.0960558,-0.614226,63.3461,0.1710425,
2,0,0,1,0,2411.57,0.169844,0.169556,-2.74407,2,0.017696,11,-0.000465275,-2.5616,-0.0864325,-0.682614,73.1882,0.169556,
2,0,0,1,0,2411.61,0.168348,0.168067,-2.86493,2,0.0175911,11,-0.000481499,-2.54289,-0.0825836,-0.714427,79.8214,0.168067,
2,0,0,1,0,2411.65,0.166848,0.166547,-2.98034,2,0.0174814,11,-0.000496367,-2.52573,-0.0833768,-0.707631,82.3169,0.166547,
2,0,0,1,0,2411.68,0.165348,0.165039,-3.10102,2,0.017367,11,-0.00051179,-2.5085,-0.0787429,-0.749274,91.2699,0.165039,
2,0,0,1,0,2411.72,0.163852,0.163556,-3.24324,2,0.0172482,11,-0.00053045,-2.48902,-0.0751444,-0.785155,100.065,0.163556,
2,0,0,1,0,2411.76,0.162357,0.162046,-3.40323,2,0.0171237,11,-0.000551478,-2.46811,-0.0714441,-0.825821,109.879,0.162046,
2,0,0,1,0,2411.8,0.160853,0.160574,-3.57239,2,0.0169922,11,-0.000573633,-2.44704,-0.072731,-0.811208,113.015,0.160574,
2,0,0,1,0,2411.83,0.159357,0.159084,-3.75676,2,0.0168551,11,-0.000597639,-2.42519,-0.0716384,-0.82358,120.551,0.1590836,
2,0,0,1,0,2411.87,0.157861,0.157562,-3.93472,2,0.0167115,11,-0.000619963,-2.40509,-0.0697982,-0.845294,129.979,0.157562,
2,0,0,1,0,2411.91,0.156361,0.156089,-4.13622,2,0.01656,11,-0.000645619,-2.3834,-0.0683076,-0.86374,139.295,0.156089,
2,0,0,1,0,2411.95,0.154861,0.154582,-4.35374,2,0.0164005,11,-0.000673012,-2.36114,-0.070476,-0.837164,142.042,0.1545824,
2,0,0,1,0,2411.98,0.153364,0.153098,-4.5494,2,0.0162339,11,-0.000696504,-2.34205,-0.0734886,-0.802846,143.082,0.153098,
2,0,0,1,0,2412.02,0.151868,0.151559,-4.7673,2,0.0160593,11,-0.000722527,-2.32173,-0.0737724,-0.799757,149.062,0.151559,
2,0,0,1,0,2412.06,0.150368,0.150112,-5.00806,2,0.0158757,11,-0.000751771,-2.30033,-0.0765274,-0.770966,150.244,0.150112,
2,0,0,1,0,2412.1,0.148868,0.148591,-5.23407,2,0.0156836,11,-0.000777736,-2.28116,-0.0818486,-0.720843,146.77,0.148591,
2,0,0,1,0,2412.13,0.147372,0.147079,-5.45443,2,0.0154838,11,-0.000802232,-2.26325,-0.0882971,-0.668198,141.555,0.147079,
2,0,0,1,0,2412.17,0.145877,0.14558,-5.64686,2,0.0152759,11,-0.000822072,-2.24819,-0.0944377,-0.62475,137.56,0.14558,
2,0,0,1,0,2412.21,0.144373,0.144084,-5.85383,2,0.0150594,11,-0.000843443,-2.23256,-0.100893,-0.584781,133.539,0.144084,
2,0,0,1,0,2412.25,0.142877,0.142556,-6.05373,2,0.0148364,11,-0.000862998,-2.21798,-0.108034,-0.546126,128.783,0.142556,
2,0,0,1,0,2412.28,0.14138,0.141076,-6.23333,2,0.0146062,11,-0.000879371,-2.20528,-0.128583,-0.458846,111.355,0.141076,
2,0,0,1,0,2412.32,0.13988,0.139579,-6.3981,2,0.0143689,11,-0.000893039,-2.19395,-0.143084,-0.412345,102.797,0.139579,
2,0,0,1,0,2412.36,0.13838,0.138104,-6.54733,2,0.014126,11,-0.000904212,-2.18394,-0.16399,-0.359778,91.7569,0.138104,
2,0,0,1,0,2412.39,0.136884,0.136558,-6.68885,2,0.0138783,11,-0.000913418,-2.17465,-0.186639,-0.316118,82.167,0.136558,
2,0,0,1,0,2412.43,0.135388,0.13505,-6.80272,2,0.013626,11,-0.000918709,-2.16732,-0.234184,-0.251939,66.5563,0.13505,
2,0,0,1,0,2412.47,0.133888,0.133567,-6.89062,2,0.0133692,11,-0.000920362,-2.16174,-0.319234,-0.184818,49.471,0.133567,
2,0,0,1,0,2412.51,0.132389,0.13211,-6.9406,2,0.0131098,11,-0.00091692,-2.1586,-0.439918,-0.134116,36.2576,0.13211,
2,0,0,1,0,2412.54,0.130893,0.130615,-6.98441,2,0.0128491,11,-0.000912266,-2.15587,-0.679774,-0.0867935,23.6204,0.130615,
2,0,0,1,0,2412.58,0.129393,0.12914,-7.008,2,0.0125863,11,-0.000905012,-2.15441,-2.29881,-0.0256654,7.00482,0.12914,
2,0,0,1,0,2412.62,0.127893,0.127583,-7.00436,2,0.0123232,11,-0.000893636,-2.15463,0.977751,0.0603426,-16.4387,0.127583,
2,0,0,1,0,2412.66,0.126397,0.126086,-6.95953,2,0.0120617,11,-0.000877502,-2.15742,0.483329,0.12207,-33.0893,0.1260864,
2,0,0,1,0,2412.69,0.1249,0.12462,-6.91135,2,0.0118021,11,-0.00086129,-2.16044,0.333385,0.176973,-47.5254,0.12462,
2,0,0,1,0,2412.73,0.1234,0.123104,-6.82793,2,0.0115444,11,-0.000840546,-2.16571,0.238356,0.247529,-65.6271,0.123104,
2,0,0,1,0,2412.77,0.1219,0.121612,-6.71047,2,0.0112904,11,-0.000816074,-2.17325,0.183462,0.321593,-83.9198,0.121612,
2,0,0,1,0,2412.81,0.120404,0.12012,-6.56338,2,0.0110418,11,-0.000788395,-2.18287,0.152054,0.388019,-99.2853,0.12012,
2,0,0,1,0,2412.84,0.118908,0.118612,-6.41662,2,0.0107988,11,-0.000761087,-2.19269,0.134517,0.438607,-109.78,0.118612,
2,0,0,1,0,2412.88,0.117404,0.117108,-6.24491,2,0.0105606,11,-0.000731327,-2.20447,0.12642,0.466698,-113.667,0.117108,
2,0,0,1,0,2412.92,0.115909,0.115619,-6.07001,2,0.01033,11,-0.000701806,-2.21681,0.112784,0.523123,-123.531,0.115619,
2,0,0,1,0,2412.96,0.114413,0.114098,-5.87848,2,0.0101064,11,-0.000670724,-2.23074,0.103574,0.569642,-130.43,0.114098,
2,0,0,1,0,2412.99,0.112913,0.11265,-5.67758,2,0.00988989,11,-0.00063958,-2.24584,0.10113,0.583406,-129.248,0.11265,
2,0,0,1,0,2413.03,0.111413,0.1111,-5.48971,2,0.00968048,11,-0.000609909,-2.26045,0.104512,0.564529,-120.894,0.1111003,
2,0,0,1,0,2413.07,0.109917,0.109577,-5.30888,2,0.00947841,11,-0.000581733,-2.275,0.104418,0.565035,-117.181,0.1095774,
2,0,0,1,0,2413.11,0.10842,0.108121,-5.13962,2,0.0092829,11,-0.000555703,-2.28907,0.106322,0.554916,-111.527,0.108121,
2,0,0,1,0,2413.14,0.10692,0.106611,-4.97105,2,0.0090932,11,-0.000529968,-2.30355,0.114953,0.513253,-100.086,0.106611,
2,0,0,1,0,2413.18,0.10542,0.105138,-4.83084,2,0.00890912,11,-0.000507906,-2.31598,0.127776,0.461745,-87.4416,0.105138,
2,0,0,1,0,2413.22,0.103924,0.103605,-4.71362,2,0.00873041,11,-0.000488355,-2.32665,0.135405,0.435731,-80.2887,0.103605,
2,0,0,1,0,2413.26,0.102427,0.10216,-4.60241,2,0.00855615,11,-0.000470182,-2.33701,0.139307,0.423526,-76.0767,0.10216,
2,0,0,1,0,2413.29,0.100924,0.100668,-4.48619,2,0.0083852,11,-0.000451617,-2.34812,0.157024,0.375739,-65.9536,0.100668,
2,0,0,1,0,2413.33,0.0994284,0.0991586,-4.40038,2,0.00821896,11,-0.000436335,-2.35651,0.178582,0.33038,-56.8078,0.0991586,
2,0,0,1,0,2413.37,0.0979329,0.0976124,-4.3184,2,0.0080558,11,-0.000421529,-2.36468,0.195612,0.301618,-50.9001,0.0976124,
2,0,0,1,0,2413.41,0.0964329,0.0960954,-4.24176,2,0.0078951,11,-0.000407614,-2.37245,0.197827,0.29824,-49.4513,0.0960954,
2,0,0,1,0,2413.44,0.094933,0.0946423,-4.16569,2,0.00773711,11,-0.00039425,-2.38031,0.214889,0.27456,-44.8296,0.0946423,
2,0,0,1,0,2413.48,0.0934366,0.0931301,-4.10539,2,0.00758211,11,-0.000382335,-2.38665,0.243712,0.242089,-38.9513,0.0931301,
2,0,0,1,0,2413.52,0.0919401,0.0915973,-4.06262,2,0.00742915,11,-0.000372125,-2.39119,0.270368,0.218221,-34.6238,0.0915973,
2,0,0,1,0,2413.56,0.0904402,0.0901419,-4.01434,2,0.00727761,11,-0.00036186,-2.39639,0.250711,0.23533,-36.7853,0.09014187,
2,0,0,1,0,2413.59,0.0889402,0.0886129,-3.96508,2,0.00712797,11,-0.000351357,-2.40175,0.266358,0.221507,-34.2126,0.0886129,
2,0,0,1,0,2413.63,0.0874438,0.0870881,-3.90927,2,0.00698094,11,-0.000340451,-2.4079,0.288323,0.204632,-31.2362,0.0870881,
2,0,0,1,0,2413.67,0.0859483,0.085638,-3.86285,2,0.00683546,11,-0.000330807,-2.41309,0.344157,0.171434,-25.8416,0.085638,
2,0,0,1,0,2413.71,0.0844447,0.0841362,-3.82063,2,0.00669078,11,-0.000321453,-2.41787,0.313657,0.188103,-28.0911,0.0841362,
2,0,0,1,0,2413.74,0.0829492,0.0826559,-3.77961,2,0.00654843,11,-0.000312407,-2.42255,0.289237,0.203985,-30.1013,0.0826559,
2,0,0,1,0,2413.78,0.0814528,0.0811726,-3.72743,2,0.0064079,11,-0.000302565,-2.42859,0.298874,0.197408,-28.7952,0.0811726,
2,0,0,1,0,2413.82,0.0799528,0.0796479,-3.69131,2,0.00626862,11,-0.000294005,-2.43282,0.332136,0.177638,-25.5625,0.0796479,
2,0,0,1,0,2413.86,0.0784529,0.0781043,-3.65618,2,0.00613076,11,-0.000285563,-2.43697,0.30089,0.196085,-27.8706,0.0781043,
2,0,0,1,0,2413.89,0.0769565,0.0766682,-3.61007,2,0.00599483,11,-0.000276777,-2.44248,0.257039,0.229537,-32.2477,0.0766682,
2,0,0,1,0,2413.93,0.0754601,0.0751781,-3.55289,2,0.00586076,11,-0.000267099,-2.44942,0.254586,0.231749,-32.1894,0.0751781,
2,0,0,1,0,2413.97,0.0739601,0.0736667,-3.51288,2,0.00572812,11,-0.000258782,-2.45434,0.277668,0.212484,-29.1536,0.0736667,
2,0,0,1,0,2414.01,0.0724601,0.0721262,-3.46488,2,0.00559712,11,-0.000249908,-2.46031,0.264882,0.222741,-30.142,0.0721262,
2,0,0,1,0,2414.04,0.0709637,0.0706877,-3.41756,2,0.00546814,11,-0.000241579,-2.46628,0.244672,0.241139,-32.1719,0.0706877,
2,0,0,1,0,2414.08,0.0694682,0.0691619,-3.37169,2,0.00534099,11,-0.000233193,-2.47215,0.242793,0.243005,-31.9656,0.0691619,
2,0,0,1,0,2414.12,0.0679646,0.0676438,-3.32342,2,0.00521511,11,-0.000224809,-2.47841,0.25997,0.22695,-29.4565,0.0676438,
2,0,0,1,0,2414.16,0.0664691,0.066171,-3.28187,2,0.00509155,11,-0.000217165,-2.48388,0.255926,0.230536,-29.4326,0.066171,
2,0,0,1,0,2414.19,0.0649727,0.0646728,-3.2363,2,0.00496955,11,-0.0002093,-2.48995,0.229365,0.257232,-32.3829,0.06467279,
2,0,0,1,0,2414.23,0.0634727,0.0631837,-3.18831,2,0.00484902,11,-0.000201449,-2.49644,0.216776,0.272171,-33.7999,0.0631837,
2,0,0,1,0,2414.27,0.0619728,0.061671,-3.13261,2,0.00473048,11,-0.000193191,-2.50409,0.227522,0.259316,-31.7986,0.061671,
2,0,0,1,0,2414.31,0.0604764,0.0601336,-3.08983,2,0.00461388,11,-0.000185803,-2.51007,0.263153,0.224205,-27.0848,0.0601336,
2,0,0,1,0,2414.34,0.05898,0.0586971,-3.0533,2,0.00449878,11,-0.00017922,-2.51523,0.258902,0.227885,-27.2129,0.0586971,
2,0,0,1,0,2414.38,0.05748,0.0571781,-3.01668,2,0.00438485,11,-0.000172488,-2.52047,0.247789,0.238105,-27.9818,0.0571781,
2,0,0,1,0,2414.42,0.05598,0.055646,-2.97303,2,0.00427253,11,-0.000165437,-2.5268,0.288472,0.204526,-23.7817,0.055646,
2,0,0,1,0,2414.45,0.0544836,0.0542271,-2.94275,2,0.00416197,11,-0.000159577,-2.53125,0.343009,0.172007,-19.6915,0.0542271,
2,0,0,1,0,2414.49,0.0529881,0.0526946,-2.91548,2,0.00405236,11,-0.00015363,-2.53529,0.335433,0.175892,-19.938,0.0526946,
2,0,0,1,0,2414.53,0.0514846,0.0511755,-2.87569,2,0.0039434,11,-0.000147165,-2.54126,0.313876,0.187973,-21.1149,0.0511755,
2,0,0,1,0,2414.57,0.049989,0.0496673,-2.83347,2,0.00383627,11,-0.000140731,-2.54768,0.342872,0.172076,-19.1557,0.0496673,
2,0,0,1,0,2414.6,0.0484926,0.0481563,-2.81226,2,0.00373034,11,-0.000135428,-2.55094,0.394517,0.14955,-16.5018,0.0481563,
2,0,0,1,0,2414.64,0.0469927,0.0466697,-2.79677,2,0.00362488,11,-0.000130524,-2.55334,0.440334,0.133989,-14.6278,0.0466697,
2,0,0,1,0,2414.68,0.0454927,0.0451938,-2.77774,2,0.00352017,11,-0.000125537,-2.55631,0.407433,0.144809,-15.6766,0.0451938,
2,0,0,1,0,2414.72,0.0439963,0.0436997,-2.75932,2,0.00341657,11,-0.000120581,-2.5592,0.440444,0.133956,-14.4099,0.0436997,
2,0,0,1,0,2414.75,0.0424999,0.0421787,-2.74121,2,0.00331388,11,-0.000115621,-2.56206,0.673087,0.0876558,-9.38182,0.0421787,
2,0,0,1,0,2414.79,0.0409999,0.0407372,-2.72674,2,0.00321136,11,-0.00011108,-2.56436,0.927231,0.0636303,-6.76247,0.0407372,
2,0,0,1,0,2414.83,0.0394999,0.0391853,-2.71712,2,0.00310913,11,-0.000106471,-2.56589,0.74528,0.0791649,-8.37786,0.0391853,
2,0,0,1,0,2414.87,0.0380044,0.0376799,-2.70237,2,0.00300768,11,-0.000101825,-2.56826,0.863584,0.0683199,-7.21602,0.0376799,
2,0,0,1,0,2414.9,0.0365089,0.0362284,-2.68381,2,0.00290692,11,-9.72302e-05,-2.57125,0.96712,0.0610058,-6.41433,0.0362284,
2,0,0,1,0,2414.94,0.0350054,0.0347345,-2.68114,2,0.00280583,11,-9.31279e-05,-2.57168,4.73721,0.0124546,-1.30325,0.0347345,
2,0,0,1,0,2414.98,0.033509,0.0332041,-2.6803,2,0.00270551,11,-8.89969e-05,-2.57182,1.98939,0.0296573,-3.0941,0.0332041,
2,0,0,1,0,2415.02,0.0320125,0.0316718,-2.6705,2,0.00260531,11,-8.45796e-05,-2.57341,1.40254,0.0420665,-4.37415,0.0316718,
2,0,0,1,0,2415.05,0.0305126,0.0302254,-2.66322,2,0.00250523,11,-8.04969e-05,-2.57459,1.88122,0.0313627,-3.26187,0.0302254,
2,0,0,1,0,2415.09,0.0290126,0.0286993,-2.66411,2,0.00240528,11,-7.6458e-05,-2.57445,-5.07522,-0.0116251,1.20799,0.0286993,
2,0,0,1,0,2415.13,0.0275162,0.0272095,-2.66521,2,0.00230546,11,-7.2519e-05,-2.57427,-39.8152,-0.00148184,0.153991,0.0272095,
2,0,0,1,0,2415.17,0.0260198,0.0257239,-2.66126,2,0.0022056,11,-6.84582e-05,-2.57491,2.64573,0.0223001,-2.31835,0.0257239,
2,0,0,1,0,2415.2,0.0245198,0.0242146,-2.64974,2,0.00210565,11,-6.41625e-05,-2.5768,29.2454,0.00201741,-0.210241,0.0242146,
2,0,0,1,0,2415.24,0.0230198,0.0227374,-2.66245,2,0.0020058,11,-6.05374e-05,-2.57472,-3.79783,-0.0155352,1.6168,0.0227374,
2,0,0,1,0,2415.28,0.0215243,0.0212212,-2.66987,2,0.00190593,11,-5.66578e-05,-2.57351,-1.71486,-0.0344052,3.57966,0.0212212,
2,0,0,1,0,2415.32,0.0200288,0.019692,-2.67442,2,0.00180589,11,-5.26645e-05,-2.57277,-11.3008,-0.00522088,0.542952,0.019692,
2,0,0,1,0,2415.35,0.0185253,0.0182156,-2.68024,2,0.00170516,11,-4.88222e-05,-2.57183,-1.89514,-0.0311322,3.25136,0.0182156,
2,0,0,1,0,2415.39,0.0170289,0.0166977,-2.67646,2,0.00160499,11,-4.46906e-05,-2.57244,-1.07874,-0.0546936,5.73109,0.0166977,
2,0,0,1,0,2415.43,0.0155325,0.0152174,-2.68413,2,0.00150444,11,-4.08453e-05,-2.5712,-1.05374,-0.0559913,5.87889,0.0152174,
2,0,0,1,0,2415.47,0.0140325,0.0137363,-2.693,2,0.00140318,11,-3.69919e-05,-2.56976,-1.45881,-0.0404439,4.25811,0.0137363,
2,0,0,1,0,2415.5,0.0125325,0.0121883,-2.70074,2,0.00130175,11,-3.29174e-05,-2.56852,-2.18959,-0.0269457,2.84684,0.0121883,
2,0,0,1,0,2415.54,0.0110361,0.0107104,-2.70697,2,0.00120055,11,-2.89927e-05,-2.56752,-1.26333,-0.0467019,4.94344,0.0107104,
2,0,0,1,0,2415.58,0.0095397,0.00924254,-2.72479,2,0.00109894,11,-2.5184e-05,-2.56467,-0.661289,-0.0892196,9.45215,0.00924254,
2,0,0,1,0,2415.62,0.00803616,0.0077585,-2.73553,2,0.000996343,11,-2.12236e-05,-2.56296,-0.806479,-0.0731575,7.78234,0.0077585,
2,0,0,1,0,2415.65,0.00654064,0.00619487,-2.74035,2,0.000893851,11,-1.69761e-05,-2.56219,-0.944581,-0.0624615,6.66843,0.00619487,
2,0,0,1,0,2415.69,0.00504513,0.00471288,-2.74383,2,0.000791108,11,-1.29313e-05,-2.56164,-0.929007,-0.0635087,6.82222,0.00471288,
2,0,0,1,0,2415.73,0.00354515,0.00326343,-2.76137,2,0.000687666,11,-9.01154e-06,-2.55887,-0.315545,-0.186978,20.343,0.00326343,
2,0,0,1,0,2415.77,0.00204518,0.00168788,-2.84803,2,0.000583244,11,-4.80712e-06,-2.54546,-0.710599,-0.0830286,9.00564,0.00168788,
2,0,0,1,0,2415.8,0.000548773,0.000183217,-2.80368,2,0.0004776,11,-5.13683e-07,-2.55227, , , ,0.000183217,
2,0,0,1,0,2415.81,0.000177222,-0.000152392,-2.79668,2,0.00045151,11,4.26193e-07,-2.55336, , , ,-0.000152392,