File: Figure_codes/Fig_3-5/rawdata_trumpetplot_data/before 10th/20221101_1-115_002_TrumpetPlot_ParaChange_09_CV_C01_6.csv
mode,ox/red,error,control changes,counter inc.,time/s,control/V,Ewe/V,<I>/mA,cycle number,(Q-Qo)/C,I Range,P/W,log(|I|),Tafel slope mV/dec,alpha_eff,dI/d(E-IR),E-IR/V,
2,0,0,1,0,8574.06,2.44065e-05,-0.000191712,-4.50867,7,0.0000000E+000,11,8.64368e-07,-2.34595, , , ,-0.000191712,
2,0,0,1,0,8574.08,0.0013005,0.000940467,-1.20976,7,-5.56638e-05,11,-1.13774e-06,-2.9173, , , ,0.000940467,
2,1,0,1,0,8574.11,0.00279471,0.00249263,0.586829,7,-6.07009e-05,11,1.46275e-06,-3.23149,-0.0267051,-2.20931,936.421,0.002492635,
2,1,0,1,0,8574.13,0.00429425,0.00394843,1.3938,7,-3.45637e-05,11,5.50333e-06,-2.8558,0.0035361,16.6851,435.484,0.00394843,
2,1,0,1,0,8574.16,0.00579379,0.00554222,1.80618,7,6.17321e-06,11,1.00102e-05,-2.74324,0.0164648,3.58341,223.962,0.005542221,
2,1,0,1,0,8574.18,0.007288,0.00697306,2.04914,7,5.45221e-05,11,1.42888e-05,-2.68843,0.0338068,1.74521,132.645,0.00697306,
2,1,0,1,0,8574.21,0.00878882,0.0084993,2.18778,7,0.0001077,11,1.85946e-05,-2.66,0.0595921,0.990065,82.6771,0.0084993,
2,1,0,1,0,8574.23,0.0102896,0.0100074,2.28051,7,0.000163728,11,2.28221e-05,-2.64197,0.101393,0.581892,51.1756,0.0100074,
2,1,0,1,0,8574.26,0.0117838,0.0114835,2.34747,7,0.000221506,11,2.69573e-05,-2.6294,0.138885,0.424812,38.6463,0.0114835,
2,1,0,1,0,8574.28,0.0132834,0.0129597,2.40078,7,0.00028084,11,3.11134e-05,-2.61965,0.157336,0.374993,35.0425,0.0129597,
2,1,0,1,0,8574.31,0.0147816,0.0145117,2.43693,7,0.000341467,11,3.5364e-05,-2.61316,0.173394,0.340265,32.4081,0.0145117,
2,1,0,1,0,8574.33,0.0162811,0.0159892,2.48269,7,0.000403259,11,3.96962e-05,-2.60508,0.22986,0.256678,24.8672,0.0159892,
2,1,0,1,0,8574.36,0.0177753,0.0174417,2.52551,7,0.000465774,11,4.40492e-05,-2.59765,0.289261,0.203968,20.0456,0.0174417,
2,1,0,1,0,8574.38,0.0192761,0.0189777,2.55732,7,0.000529298,11,4.85322e-05,-2.59221,0.269422,0.218988,21.8188,0.01897773,
2,1,0,1,0,8574.41,0.020777,0.0205198,2.58794,7,0.000593684,11,5.31041e-05,-2.58705,0.235116,0.25094,25.3179,0.0205198,
2,1,0,1,0,8574.43,0.0222712,0.0219369,2.61899,7,0.000658675,11,5.74526e-05,-2.58187,0.278037,0.212202,21.7364,0.0219369,
2,1,0,1,0,8574.46,0.0237707,0.0234871,2.65463,7,0.000724772,11,6.23497e-05,-2.576,0.33717,0.174986,18.1275,0.0234871,
2,1,0,1,0,8574.48,0.0252703,0.0250035,2.68617,7,0.000791601,11,6.71638e-05,-2.57087,0.283301,0.208259,21.845,0.0250035,
2,1,0,1,0,8574.51,0.0267645,0.0264876,2.71708,7,0.000858951,11,7.19688e-05,-2.5659,0.238241,0.247648,26.2778,0.0264876,
2,1,0,1,0,8574.53,0.0282653,0.0279982,2.75423,7,0.000927465,11,7.71135e-05,-2.56,0.271678,0.217169,23.3567,0.0279982,
2,1,0,1,0,8574.56,0.0297648,0.0295159,2.79278,7,0.000996902,11,8.24315e-05,-2.55396,0.311495,0.189409,20.581,0.0295159,
2,1,0,1,0,8574.58,0.031259,0.0309861,2.82148,7,0.00106688,11,8.74267e-05,-2.54952,0.272254,0.21671,23.8593,0.0309861,
2,1,0,1,0,8574.61,0.0327585,0.0324835,2.85258,7,0.00113789,11,9.26616e-05,-2.54476,0.246498,0.239353,26.7207,0.0324835,
2,1,0,1,0,8574.63,0.034258,0.0339421,2.89139,7,0.00120991,11,9.81399e-05,-2.53889,0.246868,0.238994,27.0487,0.0339421,
2,1,0,1,0,8574.66,0.0357576,0.0354786,2.93543,7,0.00128292,11,0.000104145,-2.53233,0.290317,0.203226,23.2807,0.0354786,
2,1,0,1,0,8574.68,0.0372518,0.0369276,2.98075,7,0.00135667,11,0.000110072,-2.52567,0.249464,0.236507,27.4591,0.0369276,
2,1,0,1,0,8574.71,0.0387526,0.0384523,3.01494,7,0.00143162,11,0.000115932,-2.52072,0.226347,0.260662,30.7572,0.0384523,
2,1,0,1,0,8574.73,0.0402534,0.0399459,3.0608,7,0.00150769,11,0.000122266,-2.51417,0.221446,0.266431,31.8695,0.0399459,
2,1,0,1,0,8574.76,0.0417476,0.0414746,3.11479,7,0.00158473,11,0.000129185,-2.50657,0.237101,0.248839,30.1734,0.0414746,
2,1,0,1,0,8574.78,0.0432472,0.0429291,3.16897,7,0.00166325,11,0.000136041,-2.49908,0.233208,0.252993,31.1609,0.0429291,
2,1,0,1,0,8574.81,0.0447467,0.0444509,3.20343,7,0.00174288,11,0.000142395,-2.49438,0.2091,0.282161,35.3444,0.0444509,
2,1,0,1,0,8574.83,0.0462463,0.0459604,3.25576,7,0.00182376,11,0.000149636,-2.48735,0.204405,0.288643,36.7454,0.0459604,
2,1,0,1,0,8574.86,0.0477391,0.0474412,3.31149,7,0.00190571,11,0.000157101,-2.47998,0.211105,0.279481,36.1678,0.0474412,
2,1,0,1,0,8574.88,0.0492399,0.0489762,3.37196,7,0.00198936,11,0.000165146,-2.47212,0.209949,0.281021,36.925,0.0489762,
2,1,0,1,0,8574.91,0.0507408,0.0504823,3.42028,7,0.00207442,11,0.000172664,-2.46594,0.193925,0.304241,40.7087,0.0504823,
2,1,0,1,0,8574.93,0.052235,0.0519644,3.48099,7,0.00216053,11,0.000180887,-2.4583,0.19396,0.304186,41.4151,0.05196438,
2,1,0,1,0,8574.95,0.0537345,0.0534666,3.55375,7,0.00224857,11,0.000190007,-2.44931,0.206788,0.285317,39.5202,0.0534666,
2,1,0,1,0,8574.98,0.0552341,0.0549149,3.62136,7,0.00233828,11,0.000198866,-2.44113,0.203718,0.289616,40.7562,0.0549149,
2,1,0,1,0,8575,0.0567283,0.0564386,3.67063,7,0.00242913,11,0.000207165,-2.43526,0.195776,0.301364,43.2337,0.0564386,
2,1,0,1,0,8575.03,0.0582291,0.0579337,3.73197,7,0.00252177,11,0.000216207,-2.42806,0.20264,0.291156,42.5223,0.0579337,
2,1,0,1,0,8575.05,0.0597299,0.0594451,3.80532,7,0.00261612,11,0.000226207,-2.41961,0.202406,0.291493,43.2487,0.0594451,
2,1,0,1,0,8575.08,0.0612228,0.0608805,3.87665,7,0.00271181,11,0.000236012,-2.41154,0.204766,0.288134,43.4454,0.0608805,
2,1,0,1,0,8575.1,0.0627223,0.0624232,3.93583,7,0.00280958,11,0.000245687,-2.40496,0.198466,0.29728,45.6814,0.0624232,
2,1,0,1,0,8575.13,0.0642218,0.0639579,3.9928,7,0.00290881,11,0.000255372,-2.39872,0.204384,0.288672,45.1796,0.0639579,
2,1,0,1,0,8575.15,0.0657214,0.0653923,4.06837,7,0.00300978,11,0.00026604,-2.39058,0.207717,0.28404,45.0887,0.0653923,
2,1,0,1,0,8575.18,0.0672156,0.0669612,4.15011,7,0.00311221,11,0.000277897,-2.38194,0.207082,0.284911,45.9721,0.0669612,
2,1,0,1,0,8575.2,0.0687164,0.0684372,4.20819,7,0.00321672,11,0.000287997,-2.3759,0.222183,0.265547,43.5718,0.0684372,
2,1,0,1,0,8575.23,0.0702172,0.0699414,4.26343,7,0.00332277,11,0.00029819,-2.37024,0.238528,0.24735,41.2458,0.0699414,
2,1,0,1,0,8575.25,0.0717114,0.0714484,4.33411,7,0.00342997,11,0.000309666,-2.3631,0.23521,0.25084,42.433,0.0714484,
2,1,0,1,0,8575.28,0.073211,0.0729019,4.40597,7,0.00353929,11,0.000321203,-2.35596,0.231837,0.25449,43.6844,0.0729019,
2,1,0,1,0,8575.3,0.0747105,0.0744461,4.46398,7,0.00365019,11,0.000332326,-2.35028,0.239994,0.245839,42.8049,0.0744461,
2,1,0,1,0,8575.33,0.0762101,0.0759043,4.51437,7,0.00376268,11,0.00034266,-2.3454,0.257348,0.229261,40.4746,0.0759043,
2,1,0,1,0,8575.35,0.0777042,0.077405,4.58117,7,0.0038761,11,0.000354606,-2.33902,0.270094,0.218443,39.0794,0.077405,
2,1,0,1,0,8575.38,0.0792037,0.0789428,4.65206,7,0.00399154,11,0.000367247,-2.33235,0.262006,0.225186,40.7639,0.0789428,
2,1,0,1,0,8575.4,0.0807046,0.0804253,4.70181,7,0.00410855,11,0.000378144,-2.32774,0.267345,0.220689,40.4467,0.0804253,
2,1,0,1,0,8575.43,0.0821988,0.0819126,4.74928,7,0.00422649,11,0.000389026,-2.32337,0.312501,0.188799,35.063,0.0819126,
2,1,0,1,0,8575.45,0.0836983,0.0834009,4.80876,7,0.00434617,11,0.000401055,-2.31797,0.337488,0.174821,32.865,0.0834009,
2,1,0,1,0,8575.48,0.0851979,0.0848928,4.87115,7,0.00446726,11,0.000413526,-2.31237,0.300594,0.196278,37.2729,0.0848928,
2,1,0,1,0,8575.5,0.0866921,0.0864295,4.91791,7,0.00458926,11,0.000425053,-2.30822,0.316128,0.186633,35.8327,0.0864295,
2,1,0,1,0,8575.53,0.0881929,0.0879086,4.97157,7,0.00471305,11,0.000437043,-2.30351,0.342177,0.172425,33.4843,0.0879086,
2,1,0,1,0,8575.55,0.0896937,0.0893818,5.02805,7,0.00483808,11,0.000449416,-2.2986,0.340991,0.173025,33.9426,0.0893818,
2,1,0,1,0,8575.58,0.0911879,0.0909371,5.09087,7,0.00496403,11,0.000462949,-2.29321,0.290517,0.203087,40.2413,0.0909371,
2,1,0,1,0,8575.6,0.0926861,0.0924187,5.14143,7,0.00509198,11,0.000475164,-2.28892,0.290785,0.202899,40.6896,0.0924187,
2,1,0,1,0,8575.63,0.0941856,0.0938853,5.18841,7,0.0052213,11,0.000487116,-2.28497,0.346282,0.170382,34.556,0.0938853,
2,1,0,1,0,8575.65,0.0956852,0.0954038,5.24215,7,0.00535188,11,0.000500121,-2.28049,0.361254,0.16332,33.443,0.0954038,
2,1,0,1,0,8575.68,0.0971794,0.0969025,5.30052,7,0.00548326,11,0.000513633,-2.27568,0.299755,0.196827,40.7397,0.0969025,
2,1,0,1,0,8575.7,0.0986802,0.0983661,5.36151,7,0.00561659,11,0.000527391,-2.27071,0.272668,0.216381,45.3297,0.0983661,
2,1,0,1,0,8575.73,0.100181,0.0998863,5.42704,7,0.00575165,11,0.000542087,-2.26544,0.281001,0.209963,44.5097,0.0998863,
2,1,0,1,0,8575.75,0.101675,0.101402,5.49808,7,0.00588789,11,0.000557514,-2.25979,0.278568,0.211797,45.4898,0.101402,
2,1,0,1,0,8575.78,0.103175,0.102908,5.57316,7,0.00602637,11,0.000573525,-2.2539,0.260375,0.226596,49.3562,0.102908,
2,1,0,1,0,8575.8,0.104674,0.104385,5.65278,7,0.00616679,11,0.000590063,-2.24774,0.22676,0.260187,57.4701,0.1043846,
2,1,0,1,0,8575.83,0.106169,0.105903,5.73417,7,0.00630878,11,0.000607264,-2.24153,0.23024,0.256254,57.4223,0.105903,
2,1,0,1,0,8575.85,0.107668,0.107374,5.82869,7,0.00645348,11,0.000625849,-2.23443,0.227391,0.259465,59.0902,0.107374,
2,1,0,1,0,8575.88,0.109169,0.108903,5.92479,7,0.00660042,11,0.000645228,-2.22733,0.206798,0.285302,66.005,0.1089031,
2,1,0,1,0,8575.9,0.110663,0.11039,6.02568,7,0.00674929,11,0.000665174,-2.21999,0.186054,0.317113,74.6686,0.11039,
2,1,0,1,0,8575.93,0.112163,0.111899,6.13231,7,0.00690147,11,0.0006862,-2.21238,0.190975,0.308941,74.0499,0.111899,
2,1,0,1,0,8575.95,0.113662,0.113388,6.25397,7,0.00705652,11,0.000709128,-2.20384,0.195276,0.302137,73.7594,0.1133884,
2,1,0,1,0,8575.98,0.115162,0.114874,6.3773,7,0.0072144,11,0.000732587,-2.19536,0.181853,0.324438,80.7102,0.114874,
2,1,0,1,0,8576,0.116656,0.116383,6.49281,7,0.00737468,11,0.000755655,-2.18757,0.168387,0.350384,88.8764,0.116383,
2,1,0,1,0,8576.03,0.118157,0.117867,6.62708,7,0.00753888,11,0.000781113,-2.17868,0.175547,0.336092,86.9699,0.117867,
2,1,0,1,0,8576.05,0.119657,0.119347,6.7646,7,0.00770642,11,0.000807333,-2.16976,0.189107,0.311993,82.2982,0.119347,
2,1,0,1,0,8576.08,0.121152,0.12086,6.88932,7,0.00787644,11,0.000832642,-2.16182,0.185562,0.317953,85.4409,0.12086,
2,1,0,1,0,8576.1,0.122651,0.122385,7.01273,7,0.00805032,11,0.000858251,-2.15411,0.1784,0.330717,90.5534,0.1223847,
2,1,0,1,0,8576.13,0.124151,0.123889,7.14476,7,0.00822751,11,0.000885157,-2.14601,0.186532,0.3163,88.229,0.123889,
2,1,0,1,0,8576.15,0.125649,0.125377,7.27631,7,0.00840796,11,0.00091228,-2.13809,0.207607,0.284191,80.6483,0.125377,
2,1,0,1,0,8576.18,0.127143,0.126867,7.40066,7,0.00859081,11,0.0009389,-2.13073,0.212536,0.2776,80.0553,0.126867,
2,1,0,1,0,8576.2,0.128644,0.128388,7.51989,7,0.00877739,11,0.000965461,-2.12379,0.208791,0.28258,82.8984,0.128388,
2,1,0,1,0,8576.23,0.130145,0.129813,7.63574,7,0.00896695,11,0.000991221,-2.11715,0.22331,0.264206,78.7395,0.129813,
2,1,0,1,0,8576.25,0.131639,0.131336,7.75438,7,0.00915878,11,0.00101843,-2.11045,0.251371,0.234713,70.9379,0.131336,
2,1,0,1,0,8576.28,0.133139,0.132856,7.86961,7,0.00935419,11,0.00104552,-2.10405,0.26363,0.223799,68.6233,0.132856,
2,1,0,1,0,8576.3,0.134638,0.134334,7.96272,7,0.0095521,11,0.00106966,-2.09894,0.267997,0.220151,68.4418,0.134334,
2,1,0,1,0,8576.33,0.136132,0.135868,8.05843,7,0.00975176,11,0.00109488,-2.09375,0.2774,0.212689,66.924,0.135868,
2,1,0,1,0,8576.35,0.137633,0.13735,8.16255,7,0.00995471,11,0.00112113,-2.08817,0.32268,0.182844,58.1722,0.13735,
2,1,0,1,0,8576.38,0.139133,0.138885,8.25878,7,0.01016,11,0.00114702,-2.08308,0.351282,0.167956,53.9616,0.138885,
2,1,0,1,0,8576.4,0.140627,0.140318,8.3204,7,0.0103664,11,0.0011675,-2.07986,0.372156,0.158536,51.4485,0.140318,
2,1,0,1,0,8576.43,0.142126,0.141839,8.38289,7,0.0105753,11,0.00118902,-2.07661,0.416894,0.141523,46.3071,0.141839,
2,1,0,1,0,8576.45,0.143626,0.143338,8.45092,7,0.0107861,11,0.00121134,-2.0731,0.581972,0.101379,33.3994,0.143338,
2,1,0,1,0,8576.48,0.145125,0.144858,8.50168,7,0.0109982,11,0.00123154,-2.0705,0.956894,0.0616578,20.4056,0.144858,
2,1,0,1,0,8576.5,0.14662,0.146352,8.51756,7,0.0112102,11,0.00124656,-2.06968,1.76263,0.0334727,11.1125,0.146352,
2,1,0,1,0,8576.53,0.14812,0.147858,8.52346,7,0.0114234,11,0.00126026,-2.06938,-5.64779,-0.0104466,-3.46908,0.147858,
2,1,0,1,0,8576.55,0.149621,0.149326,8.50917,7,0.0116365,11,0.00127064,-2.07011,-0.864014,-0.068286,-22.6084,0.149326,
2,1,0,1,0,8576.58,0.151116,0.150805,8.47464,7,0.0118481,11,0.00127802,-2.07188,-0.435498,-0.135477,-44.5623,0.1508047,
2,1,0,1,0,8576.6,0.152615,0.152304,8.38368,7,0.0120589,11,0.00127687,-2.07657,-0.302437,-0.195082,-63.5916,0.152304,
2,1,0,1,0,8576.63,0.154115,0.153856,8.26531,7,0.0122672,11,0.00127167,-2.08274,-0.221371,-0.266521,-85.766,0.153856,
2,1,0,1,0,8576.65,0.155614,0.155347,8.12319,7,0.0124723,11,0.00126191,-2.09027,-0.164235,-0.359241,-113.396,0.1553472,
2,1,0,1,0,8576.68,0.157107,0.156801,7.94017,7,0.0126724,11,0.00124503,-2.10017,-0.127313,-0.463423,-142.758,0.156801,
2,1,0,1,0,8576.7,0.158608,0.15835,7.70807,7,0.0128682,11,0.00122057,-2.11305,-0.105438,-0.559571,-167.399,0.15835,
2,1,0,1,0,8576.73,0.160109,0.159783,7.42926,7,0.0130574,11,0.00118707,-2.12905,-0.0904823,-0.652062,-188.449,0.159783,
2,1,0,1,0,8576.75,0.161603,0.161282,7.139,7,0.013239,11,0.00115139,-2.14636,-0.0800666,-0.736887,-204.474,0.161282,
2,1,0,1,0,8576.78,0.163102,0.162811,6.828,7,0.0134136,11,0.00111167,-2.16571,-0.0728178,-0.810241,-214.98,0.162811,
2,1,0,1,0,8576.8,0.164602,0.164289,6.49136,7,0.0135801,11,0.00106646,-2.18766,-0.0670608,-0.879799,-222.413,0.164289,
2,1,0,1,0,8576.83,0.166096,0.165792,6.15025,7,0.0137375,11,0.00101966,-2.21111,-0.065276,-0.903855,-217.201,0.165792,
2,1,0,1,0,8576.85,0.167597,0.167318,5.83462,7,0.0138873,11,0.000976236,-2.23399,-0.0655966,-0.899436,-204.939,0.167318,
2,1,0,1,0,8576.88,0.169098,0.168783,5.54027,7,0.0140294,11,0.0009351,-2.25647,-0.0668252,-0.8829,-190.811,0.168783,
2,1,0,1,0,8576.9,0.170592,0.170317,5.25405,7,0.0141637,11,0.000894853,-2.27951,-0.0681867,-0.865271,-177.843,0.170317,
2,1,0,1,0,8576.93,0.17209,0.171774,4.98211,7,0.0142918,11,0.000855799,-2.30259,-0.0720683,-0.818668,-160.33,0.171774,
2,1,0,1,0,8576.95,0.17359,0.173332,4.76702,7,0.0144139,11,0.000826275,-2.32175,-0.0759498,-0.776829,-145.153,0.173332,
2,1,0,1,0,8576.98,0.175089,0.174831,4.57301,7,0.0145306,11,0.000799503,-2.3398,-0.0844197,-0.698889,-125.038,0.174831,
2,1,0,1,0,8577,0.176583,0.176271,4.39852,7,0.0146423,11,0.000775329,-2.35669,-0.0927446,-0.636156,-109.321,0.176271,
2,1,0,1,0,8577.03,0.178084,0.177792,4.22999,7,0.0147503,11,0.000752057,-2.37366,-0.0987271,-0.597607,-99.156,0.177792,
2,1,0,1,0,8577.05,0.179585,0.179282,4.09429,7,0.0148544,11,0.000734033,-2.38782,-0.10336,-0.57082,-91.564,0.179282,
2,1,0,1,0,8577.08,0.181079,0.180814,3.97847,7,0.0149549,11,0.000719362,-2.40028,-0.115238,-0.511983,-79.4555,0.180814,
2,1,0,1,0,8577.1,0.182579,0.182341,3.86297,7,0.015053,11,0.00070438,-2.41308,-0.122758,-0.480621,-72.4581,0.182341,
2,1,0,1,0,8577.13,0.184078,0.18384,3.75709,7,0.0151483,11,0.000690703,-2.42515,-0.128921,-0.457643,-67.2573,0.18384,
2,1,0,1,0,8577.15,0.185578,0.185281,3.65975,7,0.0152409,11,0.000678083,-2.43655,-0.132115,-0.44658,-63.9579,0.185281,
2,1,0,1,0,8577.18,0.187072,0.186798,3.58152,7,0.0153311,11,0.000669019,-2.44593,-0.153361,-0.384713,-53.6571,0.186798,
2,1,0,1,0,8577.2,0.188573,0.188239,3.49714,7,0.0154196,11,0.000658298,-2.45629,-0.169046,-0.349018,-47.677,0.188239,
2,1,0,1,0,8577.23,0.190072,0.18981,3.41841,7,0.0155062,11,0.000648847,-2.46618,-0.173331,-0.34039,-45.5677,0.18981,
2,1,0,1,0,8577.25,0.191567,0.191289,3.3514,7,0.0155906,11,0.000641087,-2.47477,-0.172491,-0.342046,-44.8903,0.191289,
2,1,0,1,0,8577.28,0.193066,0.192805,3.30202,7,0.0156739,11,0.000636644,-2.48122,-0.205964,-0.286458,-36.8819,0.192805,
2,1,0,1,0,8577.3,0.194566,0.194276,3.248,7,0.0157558,11,0.000631008,-2.48838,-0.22873,-0.257946,-32.6851,0.1942758,
2,1,0,1,0,8577.33,0.19606,0.195807,3.18691,7,0.015836,11,0.00062402,-2.49663,-0.214539,-0.275009,-34.3032,0.195807,
2,1,0,1,0,8577.35,0.197561,0.197307,3.13852,7,0.0159153,11,0.000619253,-2.50328,-0.210155,-0.280745,-34.4911,0.197307,
2,1,0,1,0,8577.38,0.199062,0.198785,3.11043,7,0.0159934,11,0.000618307,-2.50718,-0.252528,-0.233637,-28.2905,0.198785,
2,1,0,1,0,8577.4,0.200556,0.200296,3.06318,7,0.0160702,11,0.000613543,-2.51383,-0.323884,-0.182164,-21.7696,0.2002963,
2,1,0,1,0,8577.43,0.202055,0.201764,3.02138,7,0.0161464,11,0.000609605,-2.51979,-0.295462,-0.199687,-23.5864,0.2017637,
2,1,0,1,0,8577.45,0.203553,0.203239,2.9871,7,0.0162218,11,0.000607094,-2.52475,-0.292379,-0.201793,-23.6034,0.203239,
2,1,0,1,0,8577.48,0.205053,0.204773,2.96164,7,0.0162962,11,0.000606463,-2.52847,-0.405817,-0.145386,-16.8447,0.204773,
2,1,0,1,0,8577.5,0.206547,0.206296,2.93392,7,0.0163696,11,0.000605256,-2.53255,-0.440651,-0.133893,-15.3215,0.206296,
2,1,0,1,0,8577.53,0.208048,0.207756,2.90956,7,0.016443,11,0.000604477,-2.53617,-0.400115,-0.147458,-16.7377,0.207756,
2,1,0,1,0,8577.55,0.209549,0.209285,2.8837,7,0.0165155,11,0.000603513,-2.54005,-0.291923,-0.202108,-22.7666,0.209285,
2,1,0,1,0,8577.58,0.211043,0.21077,2.86329,7,0.016587,11,0.000603495,-2.54314,-0.40883,-0.144314,-16.0923,0.21077,
2,1,0,1,0,8577.6,0.212543,0.212293,2.84042,7,0.0166583,11,0.000603001,-2.54662,-0.600708,-0.0982175,-10.8688,0.212293,
2,1,0,1,0,8577.63,0.214042,0.213752,2.8139,7,0.0167291,11,0.000601479,-2.55069,-0.484961,-0.121659,-13.4006,0.213752,
2,1,0,1,0,8577.65,0.215536,0.215257,2.79752,7,0.0167991,11,0.000602185,-2.55323,-0.411903,-0.143238,-15.6513,0.215257,
2,1,0,1,0,8577.68,0.217036,0.216713,2.77761,7,0.0168688,11,0.000601944,-2.55633,-0.532994,-0.110695,-12.0195,0.216713,
2,1,0,1,0,8577.7,0.218537,0.218278,2.76822,7,0.0169382,11,0.000604241,-2.5578,-1.32222,-0.044622,-4.81022,0.2182782,
2,1,0,1,0,8577.73,0.220031,0.219773,2.7499,7,0.017007,11,0.000604354,-2.56068,-0.772445,-0.0763808,-8.19686,0.219773,
2,1,0,1,0,8577.75,0.22153,0.221279,2.73339,7,0.0170757,11,0.000604841,-2.5633,-0.473237,-0.124673,-13.3028,0.221279,
2,1,0,1,0,8577.78,0.22303,0.222777,2.71862,7,0.017144,11,0.000605644,-2.56565,-0.565087,-0.104409,-11.0853,0.222777,
2,1,0,1,0,8577.8,0.224529,0.224276,2.70464,7,0.0172119,11,0.000606585,-2.56789,-0.803642,-0.0734157,-7.7556,0.224276,
2,1,0,1,0,8577.83,0.226024,0.225786,2.69258,7,0.0172792,11,0.000607947,-2.56983,-0.911627,-0.0647194,-6.8115,0.225786,
2,1,0,1,0,8577.85,0.227525,0.22724,2.68163,7,0.0173465,11,0.000609373,-2.5716,-0.481228,-0.122603,-12.8282,0.2272397,
2,1,0,1,0,8577.88,0.229025,0.228762,2.67742,7,0.0174136,11,0.000612491,-2.57228,-0.638454,-0.0924108,-9.62478,0.228762,
2,1,0,1,0,8577.9,0.23052,0.230248,2.66201,7,0.01748,11,0.000612923,-2.57479,-1.4116,-0.0417965,-4.34373,0.230248,
2,1,0,1,0,8577.93,0.232019,0.231725,2.64734,7,0.0175464,11,0.000613455,-2.57719,-1.43297,-0.0411733,-4.25807,0.231725,
2,1,0,1,0,8577.95,0.233519,0.233262,2.63938,7,0.0176127,11,0.000615669,-2.5785,-0.747034,-0.078979,-8.13747,0.233262,
2,1,0,1,0,8577.98,0.235018,0.234762,2.63471,7,0.0176787,11,0.000618529,-2.57927,-0.735252,-0.0802446,-8.2314,0.234762,
2,1,0,1,0,8578,0.236511,0.236258,2.61897,7,0.0177441,11,0.000618753,-2.58187,-1.36152,-0.0433338,-4.43236,0.236258,
2,1,0,1,0,8578.03,0.238012,0.237749,2.60574,7,0.0178096,11,0.000619512,-2.58407,-2.26914,-0.0260011,-2.64801,0.237749,
2,1,0,1,0,8578.05,0.239513,0.239258,2.60189,7,0.0178749,11,0.000622524,-2.58471,-0.732838,-0.0805089,-8.18121,0.239258,
2,1,0,1,0,8578.08,0.241007,0.240757,2.59631,7,0.0179397,11,0.00062508,-2.58564,-0.790155,-0.0746689,-7.55959,0.240757,
2,1,0,1,0,8578.1,0.242506,0.242204,2.58239,7,0.0180045,11,0.000625464,-2.58798,-1.33649,-0.0441456,-4.45363,0.242204,
2,1,0,1,0,8578.13,0.244006,0.243736,2.57552,7,0.0180691,11,0.000627748,-2.58913,-2.29717,-0.0256838,-2.5873,0.243736,
2,1,0,1,0,8578.15,0.2455,0.245219,2.57845,7,0.0181333,11,0.000632286,-2.58864,-0.91993,-0.0641353,-6.43675,0.245219,
2,1,0,1,0,8578.18,0.247001,0.246768,2.57131,7,0.0181977,11,0.000634516,-2.58985,-0.827234,-0.071322,-7.11315,0.246768,
2,1,0,1,0,8578.2,0.248502,0.24823,2.55299,7,0.0182618,11,0.000633728,-2.59295,-1.62614,-0.0362823,-3.61545,0.24823,
2,1,0,1,0,8578.23,0.249995,0.249729,2.54271,7,0.0183253,11,0.000634989,-2.5947,-1.27583,-0.0462443,-4.59939,0.249729,
2,1,0,1,0,8578.25,0.251494,0.251235,2.53857,7,0.018389,11,0.000637776,-2.59541,-1.07989,-0.0546352,-5.41905,0.251235,
2,1,0,1,0,8578.28,0.252994,0.252727,2.53597,7,0.0184525,11,0.000640909,-2.59586,-0.840142,-0.0702262,-6.93314,0.252727,
2,1,0,1,0,8578.3,0.254493,0.254236,2.52553,7,0.0185159,11,0.000642082,-2.59765,-2.02817,-0.0290903,-2.86729,0.254236,
2,1,0,1,0,8578.33,0.255988,0.255712,2.50991,7,0.0185787,11,0.000641814,-2.60034,-1.78078,-0.0331315,-3.26509,0.255712,
2,1,0,1,0,8578.35,0.257488,0.257246,2.51352,7,0.0186417,11,0.000646593,-2.59972,-1.09206,-0.0540262,-5.29568,0.257246,
2,1,0,1,0,8578.38,0.258989,0.258727,2.5133,7,0.0187047,11,0.000650258,-2.59976,-1.09314,-0.0539729,-5.27534,0.258727,
2,1,0,1,0,8578.4,0.260483,0.260249,2.50379,7,0.0187671,11,0.000651609,-2.6014,-1.70166,-0.034672,-3.38309,0.260249,
2,1,0,1,0,8578.43,0.261983,0.261702,2.48491,7,0.0188296,11,0.000650306,-2.60469,-1.91851,-0.0307531,-2.9975,0.261702,
2,1,0,1,0,8578.45,0.263482,0.263205,2.4858,7,0.0188919,11,0.000654274,-2.60453,-1.60836,-0.0366834,-3.56057,0.263205,
2,1,0,1,0,8578.48,0.264982,0.264689,2.48472,7,0.0189541,11,0.000657678,-2.60472,-1.48843,-0.039639,-3.83775,0.264689,
2,1,0,1,0,8578.5,0.266476,0.266213,2.47738,7,0.019016,11,0.000659512,-2.60601,-2.01645,-0.0292594,-2.82357,0.266213,
2,1,0,1,0,8578.53,0.267976,0.267749,2.45957,7,0.0190779,11,0.000658547,-2.60914,-1.49014,-0.0395935,-3.81943,0.267749,
2,1,0,1,0,8578.55,0.269477,0.269162,2.46045,7,0.0191395,11,0.000662258,-2.60899,-1.34033,-0.0440189,-4.23186,0.269162,
2,1,0,1,0,8578.58,0.270971,0.270682,2.46615,7,0.0192009,11,0.000667543,-2.60798,-1.41854,-0.0415919,-3.97907,0.2706818,
2,1,0,1,0,8578.6,0.27247,0.272199,2.45441,7,0.0192624,11,0.00066809,-2.61005,-1.71383,-0.0344258,-3.28813,0.272199,
2,1,0,1,0,8578.63,0.27397,0.273735,2.4379,7,0.0193237,11,0.000667337,-2.61298,-1.22222,-0.0482728,-4.61347,0.273735,
2,1,0,1,0,8578.65,0.275464,0.275239,2.43569,7,0.0193845,11,0.000670395,-2.61338,-0.800262,-0.0737259,-7.02652,0.275239,
2,1,0,1,0,8578.68,0.276965,0.276691,2.43576,7,0.0194455,11,0.000673952,-2.61337,-1.71371,-0.0344283,-3.26531,0.276691,
2,1,0,1,0,8578.7,0.278466,0.27822,2.43107,7,0.0195064,11,0.000676373,-2.6142,-2.01993,-0.0292089,-2.76317,0.27822,
2,1,0,1,0,8578.73,0.27996,0.279669,2.42063,7,0.0195669,11,0.000676973,-2.61607,-1.92949,-0.030578,-2.89226,0.279669,
2,1,0,1,0,8578.75,0.281458,0.281198,2.40986,7,0.0196274,11,0.000677646,-2.61801,-1.09975,-0.0536485,-5.06262,0.281198,
2,1,0,1,0,8578.78,0.282958,0.282696,2.41349,7,0.0196877,11,0.000682286,-2.61735,-3.27971,-0.0179894,-1.68936,0.282696,
2,1,0,1,0,8578.8,0.284457,0.284198,2.41099,7,0.0197481,11,0.000685198,-2.6178,-3.18113,-0.0185469,-1.73892,0.284198,
2,1,0,1,0,8578.83,0.285951,0.285695,2.39443,7,0.019808,11,0.000684076,-2.6208,-1.15056,-0.0512794,-4.80345,0.285695,
2,1,0,1,0,8578.85,0.287452,0.287159,2.38371,7,0.019868,11,0.000684504,-2.62275,-0.939275,-0.0628144,-5.8708,0.287159,
2,1,0,1,0,8578.88,0.288953,0.288681,2.39062,7,0.0199278,11,0.000690129,-2.62149,-1.47948,-0.0398789,-3.70542,0.288681,
2,1,0,1,0,8578.9,0.290447,0.290184,2.3865,7,0.0199873,11,0.000692523,-2.62224,-2.33554,-0.0252618,-2.34679,0.2901836,
2,1,0,1,0,8578.93,0.291947,0.29167,2.36962,7,0.0200469,11,0.000691146,-2.62532,-1.83059,-0.0322301,-2.99257,0.29167,
2,1,0,1,0,8578.95,0.293446,0.293133,2.36316,7,0.0201063,11,0.00069272,-2.62651,-0.784549,-0.0752024,-6.9674,0.293133,
2,1,0,1,0,8578.98,0.29494,0.294681,2.37029,7,0.0201653,11,0.000698479,-2.6252,-1.61615,-0.0365066,-3.37041,0.294681,
2,1,0,1,0,8579,0.29644,0.296165,2.36569,7,0.0202244,11,0.000700636,-2.62604,-6.27709,-0.00939926,-0.864836,0.296165,
2,1,0,1,0,8579.03,0.297941,0.297721,2.3534,7,0.0202836,11,0.000700656,-2.6283,-2.06905,-0.0285154,-2.62063,0.297721,
2,1,0,1,0,8579.05,0.29944,0.299155,2.34427,7,0.0203425,11,0.000701301,-2.62999,-0.00370046,-15.944,-887.571,0.299155,
2,1,0,1,0,8579.06,0.299736,0.299492,1.67143,7,0.0203721,11,0.000500579,-2.77691,0.00144584,40.8066,2149.59,0.2994923,
2,1,0,1,0,8579.09,0.298238,0.297995,-0.111354,7,0.0203865,11,-3.3183e-05,-3.95329,0.00663805,8.88815,803.352,0.2979947,
2,0,0,1,0,8579.11,0.296744,0.296427,-0.56142,7,0.0203769,11,-0.00016642,-3.25071,-0.00780864,-7.55574,250.913,0.296427,
2,0,0,1,0,8579.14,0.295243,0.294939,-0.731476,7,0.0203603,11,-0.000215741,-3.1358,-0.015999,-3.68774,91.7598,0.294939,
2,0,0,1,0,8579.16,0.293742,0.293426,-0.826881,7,0.0203406,11,-0.000242628,-3.08256,-0.0363937,-1.62116,50.0094,0.293426,
2,0,0,1,0,8579.19,0.292248,0.291924,-0.887963,7,0.0203193,11,-0.000259218,-3.0516,-0.0491522,-1.20035,40.9275,0.291924,
2,0,0,1,0,8579.21,0.290748,0.290446,-0.934815,7,0.0202964,11,-0.000271513,-3.02927,-0.0578139,-1.02052,37.1306,0.290446,
2,0,0,1,0,8579.24,0.289249,0.288962,-0.982878,7,0.0202721,11,-0.000284015,-3.0075,-0.0782405,-0.754085,29.0807,0.288962,
2,0,0,1,0,8579.26,0.287754,0.28748,-1.03617,7,0.0202469,11,-0.000297877,-2.98457,-0.0982741,-0.600361,24.0769,0.28748,
2,0,0,1,0,8579.29,0.286254,0.285955,-1.07093,7,0.0202206,11,-0.000306237,-2.97024,-0.0895599,-0.658777,27.3694,0.285955,
2,0,0,1,0,8579.31,0.284754,0.284444,-1.10559,7,0.0201933,11,-0.000314478,-2.95641,-0.0888478,-0.664057,28.5709,0.284444,
2,0,0,1,0,8579.34,0.28326,0.282973,-1.13968,7,0.0201652,11,-0.000322501,-2.94322,-0.122763,-0.480602,21.3297,0.2829735,
2,0,0,1,0,8579.36,0.28176,0.281454,-1.17458,7,0.0201362,11,-0.000330592,-2.93012,-0.155522,-0.379369,17.245,0.281454,
2,0,0,1,0,8579.39,0.280261,0.279949,-1.197,7,0.0201064,11,-0.000335098,-2.92191,-0.138316,-0.42656,19.9173,0.279949,
2,0,0,1,0,8579.41,0.278761,0.278452,-1.22353,7,0.020076,11,-0.000340693,-2.91239,-0.141132,-0.41805,20.072,0.278452,
2,0,0,1,0,8579.44,0.277267,0.276983,-1.25175,7,0.020045,11,-0.000346715,-2.90248,-0.176988,-0.333357,16.335,0.276983,
2,0,0,1,0,8579.46,0.275766,0.275462,-1.28317,7,0.0200133,11,-0.000353463,-2.89172,-0.223212,-0.264323,13.1613,0.275462,
2,0,0,1,0,8579.49,0.274265,0.273977,-1.30661,7,0.0199808,11,-0.00035798,-2.88385,-0.17647,-0.334334,16.9619,0.2739765,
2,0,0,1,0,8579.51,0.272771,0.27239,-1.32138,7,0.0199481,11,-0.000359932,-2.87897,-0.184459,-0.319854,16.5931,0.27239,
2,0,0,1,0,8579.54,0.271272,0.270972,-1.3453,7,0.0199146,11,-0.000364538,-2.87118,-0.189713,-0.310996,16.3741,0.270972,
2,0,0,1,0,8579.56,0.269772,0.269474,-1.3786,7,0.0198804,11,-0.000371497,-2.86056,-0.234017,-0.252118,13.4515,0.269474,
2,0,0,1,0,8579.59,0.268273,0.267958,-1.39754,7,0.0198457,11,-0.000374483,-2.85464,-0.240104,-0.245726,13.3256,0.267958,
2,0,0,1,0,8579.61,0.26678,0.26647,-1.40243,7,0.0198108,11,-0.000373704,-2.85312,-0.21403,-0.275663,15.2091,0.26647,
2,0,0,1,0,8579.64,0.265279,0.265012,-1.4265,7,0.0197753,11,-0.000378039,-2.84573,-0.236969,-0.248978,13.8859,0.265012,
2,0,0,1,0,8579.66,0.263778,0.263492,-1.45296,7,0.0197391,11,-0.000382844,-2.83775,-0.300307,-0.196466,11.0884,0.263492,
2,0,0,1,0,8579.69,0.262284,0.261986,-1.46969,7,0.0197027,11,-0.000385038,-2.83277,-0.293816,-0.200806,11.4745,0.261986,
2,0,0,1,0,8579.71,0.260784,0.260493,-1.47879,7,0.0196657,11,-0.000385215,-2.83009,-0.254242,-0.232063,13.4505,0.2604928,
2,0,0,1,0,8579.74,0.259285,0.258979,-1.49932,7,0.0196283,11,-0.000388293,-2.82411,-0.336867,-0.175144,10.2991,0.258979,
2,0,0,1,0,8579.76,0.257791,0.257465,-1.52799,7,0.0195906,11,-0.000393405,-2.81588,-0.409682,-0.144014,8.53572,0.257465,
2,0,0,1,0,8579.79,0.25629,0.255993,-1.54489,7,0.0195522,11,-0.00039548,-2.8111,-0.312001,-0.189102,11.3125,0.255993,
2,0,0,1,0,8579.81,0.254789,0.254497,-1.55029,7,0.0195135,11,-0.000394544,-2.80959,-0.294086,-0.200621,12.168,0.2544969,
2,0,0,1,0,8579.84,0.253296,0.252987,-1.56698,7,0.0194745,11,-0.000396426,-2.80494,-0.36344,-0.162338,9.96314,0.252987,
2,0,0,1,0,8579.86,0.251797,0.251486,-1.5891,7,0.019435,11,-0.000399637,-2.79885,-0.373959,-0.157771,9.76576,0.251486,
2,0,0,1,0,8579.89,0.250297,0.250011,-1.60545,7,0.019395,11,-0.000401382,-2.7944,-0.359806,-0.163977,10.2298,0.2500113,
2,0,0,1,0,8579.91,0.248797,0.24845,-1.61228,7,0.0193546,11,-0.000400571,-2.79256,-0.316634,-0.186335,11.7844,0.24845,
2,0,0,1,0,8579.94,0.247303,0.24698,-1.62467,7,0.0193142,11,-0.000401262,-2.78923,-0.384154,-0.153584,9.79749,0.24698,
2,0,0,1,0,8579.96,0.245802,0.245497,-1.65564,7,0.0192731,11,-0.000406455,-2.78103,-0.386068,-0.152823,9.81227,0.245497,
2,0,0,1,0,8579.99,0.244302,0.244004,-1.67102,7,0.0192315,11,-0.000407737,-2.77702,-0.333962,-0.176667,11.4437,0.244004,
2,0,0,1,0,8580.01,0.242807,0.242522,-1.67819,7,0.0191898,11,-0.000406998,-2.77516,-0.409062,-0.144232,9.4521,0.242522,
2,0,0,1,0,8580.04,0.241308,0.24102,-1.6818,7,0.0191476,11,-0.000405347,-2.77423,-0.413149,-0.142806,9.45256,0.24102,
2,0,0,1,0,8580.06,0.239808,0.239491,-1.70816,7,0.0191051,11,-0.000409089,-2.76747,-0.430966,-0.136902,9.11269,0.239491,
2,0,0,1,0,8580.09,0.238309,0.237995,-1.72929,7,0.0190621,11,-0.000411562,-2.76213,-0.334663,-0.176297,11.8507,0.2379953,
2,0,0,1,0,8580.11,0.236815,0.236484,-1.73778,7,0.0190189,11,-0.000410957,-2.76,-0.36971,-0.159585,10.7984,0.236484,
2,0,0,1,0,8580.14,0.235315,0.234983,-1.74165,7,0.0189752,11,-0.000409259,-2.75904,-0.493156,-0.119638,8.19095,0.234983,
2,0,0,1,0,8580.16,0.233814,0.233495,-1.76761,7,0.0189312,11,-0.000412728,-2.75261,-0.471291,-0.125188,8.63497,0.233495,
2,0,0,1,0,8580.19,0.23232,0.232012,-1.78768,7,0.0188869,11,-0.000414765,-2.74771,-0.352118,-0.167557,11.6354,0.232012,
2,0,0,1,0,8580.21,0.230821,0.230555,-1.7992,7,0.018842,11,-0.000414814,-2.74492,-0.419452,-0.14066,9.85549,0.2305546,
2,0,0,1,0,8580.24,0.229321,0.229016,-1.80541,7,0.0187968,11,-0.000413468,-2.74342,-0.489421,-0.120551,8.54111,0.229016,
2,0,0,1,0,8580.26,0.227827,0.227498,-1.82555,7,0.0187515,11,-0.000415309,-2.73861,-0.526683,-0.112022,7.98917,0.227498,
2,0,0,1,0,8580.29,0.226326,0.226062,-1.84779,7,0.0187055,11,-0.000417714,-2.73335,-0.357036,-0.165249,11.8535,0.226062,
2,0,0,1,0,8580.31,0.224825,0.224547,-1.85763,7,0.0186591,11,-0.000417127,-2.73104,-0.419691,-0.14058,10.1894,0.224547,
2,0,0,1,0,8580.34,0.223331,0.22308,-1.87094,7,0.0186126,11,-0.00041737,-2.72794,-0.498272,-0.118409,8.65944,0.22308,
2,0,0,1,0,8580.36,0.221831,0.221541,-1.88868,7,0.0185656,11,-0.00041842,-2.72384,-0.476462,-0.123829,9.13495,0.221541,
2,0,0,1,0,8580.39,0.220333,0.220043,-1.90233,7,0.0185181,11,-0.000418593,-2.72071,-0.299481,-0.197007,14.6175,0.220043,
2,0,0,1,0,8580.41,0.218834,0.218524,-1.92272,7,0.0184701,11,-0.00042016,-2.71608,-0.31197,-0.189121,14.1914,0.218524,
2,0,0,1,0,8580.44,0.217339,0.217066,-1.92997,7,0.0184219,11,-0.000418931,-2.71445,-0.622538,-0.0947733,7.17056,0.217066,
2,0,0,1,0,8580.46,0.215839,0.215511,-1.94986,7,0.0183733,11,-0.000420216,-2.71,-0.573651,-0.10285,7.84468,0.215511,
2,0,0,1,0,8580.49,0.214338,0.214066,-1.97302,7,0.0183242,11,-0.000422355,-2.70487,-0.317228,-0.185986,14.2679,0.214066,
2,0,0,1,0,8580.51,0.212844,0.212487,-1.98699,7,0.0182748,11,-0.00042221,-2.7018,-0.331576,-0.177938,13.8132,0.212487,
2,0,0,1,0,8580.54,0.211344,0.21103,-2.00224,7,0.0182248,11,-0.000422533,-2.69848,-0.471743,-0.125068,9.79901,0.2110298,
2,0,0,1,0,8580.56,0.209845,0.209549,-2.01729,7,0.0181744,11,-0.000422721,-2.69523,-0.447725,-0.131777,10.399,0.209549,
2,0,0,1,0,8580.59,0.20835,0.208039,-2.04302,7,0.0181237,11,-0.000425029,-2.68973,-0.275112,-0.214458,17.1304,0.208039,
2,0,0,1,0,8580.61,0.206851,0.206523,-2.06816,7,0.0180723,11,-0.000427122,-2.68442,-0.299216,-0.197182,15.8929,0.206523,
2,0,0,1,0,8580.64,0.20535,0.205031,-2.08628,7,0.0180202,11,-0.000427753,-2.68063,-0.44995,-0.131126,10.6389,0.205031,
2,0,0,1,0,8580.66,0.203856,0.20352,-2.10365,7,0.0179679,11,-0.000428135,-2.67703,-0.461424,-0.127865,10.5194,0.20352,
2,0,0,1,0,8580.69,0.202356,0.202077,-2.12516,7,0.0179151,11,-0.000429446,-2.67261,-0.325711,-0.181142,15.019,0.202077,
2,0,0,1,0,8580.71,0.200857,0.200537,-2.14287,7,0.0178616,11,-0.000429726,-2.669,-0.273605,-0.21564,18.0801,0.200537,
2,0,0,1,0,8580.74,0.199357,0.199057,-2.16553,7,0.0178076,11,-0.000431064,-2.66444,-0.369774,-0.159557,13.5175,0.199057,
2,0,0,1,0,8580.76,0.197863,0.197543,-2.19585,7,0.0177532,11,-0.000433774,-2.6584,-0.364574,-0.161833,13.8288,0.197543,
2,0,0,1,0,8580.79,0.196362,0.196042,-2.22289,7,0.017698,11,-0.000435779,-2.65308,-0.281678,-0.209459,18.1238,0.196042,
2,0,0,1,0,8580.81,0.194861,0.194567,-2.24261,7,0.0176422,11,-0.000436339,-2.64925,-0.237364,-0.248564,21.7586,0.194567,
2,0,0,1,0,8580.84,0.193367,0.193061,-2.26982,7,0.0175858,11,-0.000438215,-2.64401,-0.276726,-0.213207,18.9435,0.193061,
2,0,0,1,0,8580.86,0.191868,0.191577,-2.30269,7,0.0175285,11,-0.000441143,-2.63776,-0.335515,-0.175849,15.8071,0.191577,
2,0,0,1,0,8580.89,0.190368,0.19001,-2.3316,7,0.0174705,11,-0.000443027,-2.63235,-0.256374,-0.230133,20.9443,0.19001,
2,0,0,1,0,8580.91,0.18887,0.188555,-2.35924,7,0.0174118,11,-0.000444847,-2.62723,-0.207864,-0.28384,26.2248,0.188555,
2,0,0,1,0,8580.94,0.187376,0.187083,-2.39473,7,0.0173524,11,-0.000448011,-2.62074,-0.237501,-0.24842,23.2779,0.1870825,
2,0,0,1,0,8580.96,0.185875,0.185582,-2.43596,7,0.0172919,11,-0.000452069,-2.61333,-0.255704,-0.230736,21.8915,0.185582,
2,0,0,1,0,8580.99,0.184374,0.184064,-2.47474,7,0.0172305,11,-0.00045551,-2.60647,-0.217385,-0.271407,26.1733,0.184064,
2,0,0,1,0,8581.01,0.18288,0.182588,-2.50981,7,0.0171684,11,-0.000458261,-2.60036,-0.185749,-0.317632,31.2058,0.182588,
2,0,0,1,0,8581.04,0.18138,0.181067,-2.55353,7,0.017105,11,-0.000462358,-2.59286,-0.193082,-0.305569,30.5453,0.181067,
2,0,0,1,0,8581.06,0.179881,0.179592,-2.6074,7,0.0170403,11,-0.00046827,-2.58379,-0.207626,-0.284164,28.8672,0.179592,
2,0,0,1,0,8581.09,0.178387,0.178085,-2.65975,7,0.0169746,11,-0.00047366,-2.57516,-0.185226,-0.31853,33.0277,0.178085,
2,0,0,1,0,8581.11,0.176886,0.176562,-2.70731,7,0.0169076,11,-0.00047801,-2.56746,-0.159947,-0.368873,39.0887,0.176562,
2,0,0,1,0,8581.14,0.175385,0.175069,-2.7684,7,0.0168391,11,-0.00048466,-2.55777,-0.152374,-0.387205,41.8327,0.175069,
2,0,0,1,0,8581.16,0.173892,0.173598,-2.83294,7,0.0167693,11,-0.000491794,-2.54776,-0.148903,-0.39623,43.779,0.173598,
2,0,0,1,0,8581.19,0.172392,0.172093,-2.90505,7,0.0166976,11,-0.000499939,-2.53685,-0.143999,-0.409724,46.311,0.172093,
2,0,0,1,0,8581.21,0.170893,0.170616,-2.96278,7,0.0166242,11,-0.000505497,-2.5283,-0.12834,-0.459718,53.4315,0.170616,
2,0,0,1,0,8581.24,0.169393,0.169073,-3.04385,7,0.0165489,11,-0.000514633,-2.51658,-0.122122,-0.483122,57.6394,0.169073,
2,0,0,1,0,8581.26,0.167899,0.167616,-3.14197,7,0.0164717,11,-0.000526645,-2.5028,-0.125505,-0.470102,57.6406,0.167616,
2,0,0,1,0,8581.29,0.166398,0.16609,-3.23875,7,0.0163919,11,-0.000537924,-2.48962,-0.117879,-0.500513,63.1574,0.16609,
2,0,0,1,0,8581.31,0.164898,0.164582,-3.32665,7,0.0163098,11,-0.000547507,-2.47799,-0.107084,-0.550971,71.8022,0.164582,
2,0,0,1,0,8581.34,0.163403,0.163096,-3.43934,7,0.0162255,11,-0.000560942,-2.46352,-0.103015,-0.572731,77.1601,0.163096,
2,0,0,1,0,8581.36,0.161904,0.161588,-3.56548,7,0.0161378,11,-0.000576138,-2.44788,-0.0988005,-0.597163,83.2054,0.161588,
2,0,0,1,0,8581.39,0.160404,0.160145,-3.70009,7,0.0160469,11,-0.000592549,-2.43179,-0.0953944,-0.618485,89.2993,0.160145,
2,0,0,1,0,8581.41,0.158905,0.158588,-3.83888,7,0.0159526,11,-0.000608799,-2.4158,-0.0879421,-0.670896,100.708,0.158588,
2,0,0,1,0,8581.44,0.157411,0.157095,-3.98725,7,0.0158551,11,-0.000626377,-2.39933,-0.0845345,-0.69794,109.182,0.157095,
2,0,0,1,0,8581.46,0.155911,0.155557,-4.16464,7,0.0157531,11,-0.000647839,-2.38042,-0.0833818,-0.707588,115.066,0.155557,
2,0,0,1,0,8581.49,0.15441,0.154068,-4.35111,7,0.0156465,11,-0.000670367,-2.3614,-0.0804195,-0.733653,124.388,0.154068,
2,0,0,1,0,8581.51,0.152916,0.152577,-4.54035,7,0.0155358,11,-0.000692754,-2.34291,-0.077436,-0.76192,135.085,0.152577,
2,0,0,1,0,8581.54,0.151417,0.151085,-4.73183,7,0.0154199,11,-0.000714906,-2.32497,-0.0788229,-0.748514,138.69,0.151085,
2,0,0,1,0,8581.56,0.149917,0.149616,-4.95367,7,0.0152986,11,-0.00074115,-2.30507,-0.0793619,-0.74343,143.793,0.149616,
2,0,0,1,0,8581.59,0.148423,0.148134,-5.18818,7,0.0151723,11,-0.000768547,-2.28498,-0.077572,-0.760583,153.727,0.148134,
2,0,0,1,0,8581.61,0.146922,0.146625,-5.41343,7,0.0150397,11,-0.000793746,-2.26653,-0.0786219,-0.750427,158.549,0.146625,
2,0,0,1,0,8581.64,0.145421,0.145104,-5.6449,7,0.0149014,11,-0.000819099,-2.24834,-0.0827299,-0.713164,157.322,0.1451042,
2,0,0,1,0,8581.66,0.143927,0.143652,-5.89665,7,0.0147575,11,-0.000847066,-2.22939,-0.0824722,-0.715392,164.329,0.143652,
2,0,0,1,0,8581.69,0.142429,0.142168,-6.13324,7,0.014607,11,-0.000871951,-2.21231,-0.0866349,-0.681019,162.987,0.142168,
2,0,0,1,0,8581.71,0.140929,0.140641,-6.38343,7,0.0144504,11,-0.000897773,-2.19495,-0.0893059,-0.660651,164.409,0.140641,
2,0,0,1,0,8581.74,0.13943,0.139108,-6.61699,7,0.0142876,11,-0.000920473,-2.17934,-0.0971618,-0.607235,156.819,0.139108,
2,0,0,1,0,8581.76,0.137935,0.137628,-6.86085,7,0.0141195,11,-0.000944247,-2.16362,-0.103081,-0.572368,153.035,0.137628,
2,0,0,1,0,8581.79,0.136435,0.136118,-7.09434,7,0.013945,11,-0.000965664,-2.14909,-0.108824,-0.542162,149.704,0.136118,
2,0,0,1,0,8581.81,0.134934,0.134608,-7.3072,7,0.0137649,11,-0.000983609,-2.13625,-0.119164,-0.495114,140.805,0.134608,
2,0,0,1,0,8581.84,0.13344,0.133146,-7.49912,7,0.0135803,11,-0.00099848,-2.12499,-0.133709,-0.441257,129.039,0.133146,
2,0,0,1,0,8581.86,0.13194,0.131667,-7.69199,7,0.0133902,11,-0.00101278,-2.11396,-0.149832,-0.393775,118.084,0.131667,
2,0,0,1,0,8581.89,0.13044,0.13017,-7.87363,7,0.0131956,11,-0.00102491,-2.10382,-0.161251,-0.365889,112.089,0.13017,
2,0,0,1,0,8581.91,0.128941,0.12864,-8.028,7,0.0129967,11,-0.00103273,-2.09539,-0.182555,-0.323191,100.986,0.12864,
2,0,0,1,0,8581.94,0.127447,0.127112,-8.16342,7,0.012795,11,-0.00103767,-2.08813,-0.217902,-0.270763,86.109,0.127112,
2,0,0,1,0,8581.96,0.125946,0.125608,-8.28344,7,0.0125893,11,-0.00104046,-2.08179,-0.260796,-0.226231,73.0017,0.125608,
2,0,0,1,0,8581.99,0.124446,0.124176,-8.39621,7,0.0123807,11,-0.00104261,-2.07592,-0.296753,-0.198819,64.9293,0.124176,
2,0,0,1,0,8582.01,0.122952,0.122624,-8.47808,7,0.0121706,11,-0.00103962,-2.0717,-0.356974,-0.165278,54.5485,0.122624,
2,0,0,1,0,8582.04,0.121453,0.121198,-8.53828,7,0.0119577,11,-0.00103482,-2.06863,-0.573389,-0.102897,34.2283,0.1211982,
2,0,0,1,0,8582.06,0.119953,0.119652,-8.57525,7,0.0117436,11,-0.00102605,-2.06675,-0.964983,-0.061141,20.4476,0.119652,
2,0,0,1,0,8582.09,0.118459,0.118168,-8.61032,7,0.0115295,11,-0.00101746,-2.06498,-1.38514,-0.042595,14.2813,0.118168,
2,0,0,1,0,8582.11,0.116958,0.116654,-8.62347,7,0.011314,11,-0.00100597,-2.06432,-5.42517,-0.0108752,3.64998,0.116654,
2,0,0,1,0,8582.14,0.115457,0.115106,-8.60909,7,0.0110985,11,-0.000990959,-2.06504,1.41766,0.0416178,-13.9562,0.115106,
2,0,0,1,0,8582.16,0.113963,0.113671,-8.57751,7,0.0108843,11,-0.000975018,-2.06664,0.697357,0.0846052,-28.279,0.113671,
2,0,0,1,0,8582.18,0.112464,0.112134,-8.53651,7,0.0106703,11,-0.000957229,-2.06872,0.555185,0.106271,-35.3384,0.112134,
2,0,0,1,0,8582.21,0.110965,0.110623,-8.47156,7,0.0104576,11,-0.000937145,-2.07204,0.462258,0.127634,-42.1399,0.110623,
2,0,0,1,0,8582.23,0.109466,0.109174,-8.39152,7,0.0102466,11,-0.00091614,-2.07616,0.33995,0.173555,-56.7941,0.109174,
2,0,0,1,0,8582.26,0.107972,0.107678,-8.3114,7,0.0100385,11,-0.000894957,-2.08033,0.280506,0.210334,-68.0913,0.107678,
2,0,0,1,0,8582.28,0.106471,0.10617,-8.20353,7,0.00983205,11,-0.000870965,-2.086,0.259442,0.227411,-72.7025,0.10617,
2,0,0,1,0,8582.31,0.10497,0.104684,-8.08519,7,0.00962837,11,-0.000846392,-2.09231,0.240873,0.244943,-77.2358,0.1046843,
2,0,0,1,0,8582.33,0.103476,0.103175,-7.962,7,0.00942838,11,-0.000821482,-2.09898,0.214517,0.275037,-85.3912,0.103175,
2,0,0,1,0,8582.36,0.101976,0.101664,-7.83299,7,0.00923081,11,-0.00079633,-2.10607,0.191043,0.308831,-94.3001,0.101664,
2,0,0,1,0,8582.38,0.100477,0.100163,-7.69243,7,0.00903674,11,-0.000770501,-2.11394,0.187489,0.314686,-94.3845,0.100163,
2,0,0,1,0,8582.41,0.0989825,0.0986685,-7.54681,7,0.00884699,11,-0.000744633,-2.12224,0.190725,0.309346,-91.0846,0.0986685,
2,0,0,1,0,8582.43,0.0974817,0.0971815,-7.40314,7,0.00866003,11,-0.000719448,-2.13058,0.18553,0.318008,-91.9391,0.0971815,
2,0,0,1,0,8582.46,0.0959822,0.0956382,-7.26689,7,0.00847659,11,-0.000694992,-2.13865,0.176095,0.335047,-94.9514,0.0956382,
2,0,0,1,0,8582.48,0.094488,0.094193,-7.12548,7,0.00829738,11,-0.00067117,-2.14719,0.185345,0.318326,-88.5374,0.094193,
2,0,0,1,0,8582.51,0.0929884,0.0926833,-6.98871,7,0.00812087,11,-0.000647737,-2.1556,0.202982,0.290666,-79.4338,0.0926833,
2,0,0,1,0,8582.53,0.0914889,0.0911429,-6.87328,7,0.0079475,11,-0.000626451,-2.16284,0.207334,0.284564,-76.456,0.0911429,
2,0,0,1,0,8582.56,0.0899894,0.0896621,-6.76473,7,0.00777691,11,-0.00060654,-2.16975,0.202996,0.290647,-76.6785,0.08966209,
2,0,0,1,0,8582.58,0.0884951,0.0881861,-6.65659,7,0.00760976,11,-0.000587018,-2.17675,0.219451,0.268853,-69.8414,0.0881861,
2,0,0,1,0,8582.61,0.0869943,0.0866797,-6.55173,7,0.0074447,11,-0.000567902,-2.18364,0.244244,0.241562,-61.8678,0.08667969,
2,0,0,1,0,8582.63,0.0854935,0.0851911,-6.46059,7,0.00728192,11,-0.000550385,-2.18973,0.263188,0.224174,-56.6269,0.0851911,
2,0,0,1,0,8582.66,0.0839993,0.0836888,-6.38291,7,0.00712192,11,-0.000534178,-2.19498,0.260369,0.226602,-56.4726,0.0836888,
2,0,0,1,0,8582.68,0.0824998,0.0821801,-6.31569,7,0.00696318,11,-0.000519024,-2.19958,0.297597,0.198255,-48.8191,0.08218012,
2,0,0,1,0,8582.71,0.0810002,0.080681,-6.23132,7,0.0068064,11,-0.000502749,-2.20542,0.343539,0.171742,-41.8452,0.080681,
2,0,0,1,0,8582.73,0.0795007,0.0791984,-6.1652,7,0.0066513,11,-0.000488274,-2.21005,0.364084,0.16205,-39.0729,0.07919836,
2,0,0,1,0,8582.76,0.0780078,0.0776843,-6.11173,7,0.00649829,11,-0.000474786,-2.21384,0.359024,0.164335,-39.2162,0.0776843,
2,0,0,1,0,8582.78,0.076507,0.0761972,-6.06097,7,0.00634606,11,-0.000461829,-2.21746,0.367868,0.160383,-37.8842,0.0761972,
2,0,0,1,0,8582.81,0.0750062,0.0746964,-5.99887,7,0.00619529,11,-0.000448094,-2.22193,0.402642,0.146532,-34.3169,0.0746964,
2,0,0,1,0,8582.83,0.073512,0.0732199,-5.94279,7,0.00604649,11,-0.000435131,-2.22601,0.423942,0.13917,-32.32,0.07321991,
2,0,0,1,0,8582.86,0.0720124,0.0716589,-5.8963,7,0.00589836,11,-0.000422522,-2.22942,0.398487,0.14806,-34.0932,0.07165888,
2,0,0,1,0,8582.88,0.0705129,0.0702003,-5.85699,7,0.00575138,11,-0.000411162,-2.23233,0.388277,0.151954,-34.66,0.07020025,
2,0,0,1,0,8582.91,0.0690187,0.0686773,-5.79255,7,0.00560626,11,-0.000397817,-2.23713,0.417191,0.141422,-32.0122,0.0686773,
2,0,0,1,0,8582.93,0.0675179,0.0672189,-5.74557,7,0.00546189,11,-0.000386211,-2.24067,0.426333,0.138389,-31.0823,0.0672189,
2,0,0,1,0,8582.96,0.066017,0.0657291,-5.71033,7,0.00531865,11,-0.000375335,-2.24334,0.388491,0.15187,-33.7829,0.0657291,
2,0,0,1,0,8582.98,0.0645242,0.0641849,-5.66146,7,0.00517704,11,-0.00036338,-2.24707,0.375223,0.15724,-34.6356,0.0641849,
2,0,0,1,0,8583.01,0.0630246,0.0626961,-5.59751,7,0.00503624,11,-0.000350942,-2.25201,0.374626,0.15749,-34.4288,0.0626961,
2,0,0,1,0,8583.03,0.0615251,0.0612137,-5.53621,7,0.00489693,11,-0.000338892,-2.25679,0.357179,0.165183,-35.7896,0.0612137,
2,0,0,1,0,8583.06,0.0600256,0.0596852,-5.48914,7,0.00475893,11,-0.000327621,-2.2605,0.33983,0.173616,-37.2002,0.0596852,
2,0,0,1,0,8583.08,0.0585314,0.0582423,-5.44093,7,0.00462275,11,-0.000316893,-2.26433,0.315923,0.186755,-39.5414,0.0582423,
2,0,0,1,0,8583.11,0.0570305,0.0566757,-5.3765,7,0.00448748,11,-0.000304717,-2.2695,0.301655,0.195588,-40.9917,0.0566757,
2,0,0,1,0,8583.13,0.0555297,0.0552085,-5.30591,7,0.00435389,11,-0.000292931,-2.27524,0.291406,0.202466,-41.9797,0.0552085,
2,0,0,1,0,8583.16,0.0540355,0.053714,-5.24824,7,0.00422239,11,-0.000281904,-2.27999,0.278266,0.212028,-43.416,0.053714,
2,0,0,1,0,8583.18,0.052536,0.052237,-5.19597,7,0.00409184,11,-0.000271422,-2.28433,0.274592,0.214864,-43.4357,0.052237,
2,0,0,1,0,8583.21,0.0510364,0.0506992,-5.1202,7,0.00396288,11,-0.00025959,-2.29071,0.259421,0.22743,-45.382,0.0506992,
2,0,0,1,0,8583.23,0.0495369,0.0492223,-5.03531,7,0.00383579,11,-0.000247849,-2.29797,0.243869,0.241933,-47.6917,0.0492223,
2,0,0,1,0,8583.26,0.0480427,0.0477097,-4.97232,7,0.00371104,11,-0.000237228,-2.30344,0.243131,0.242667,-47.099,0.0477097,
2,0,0,1,0,8583.28,0.0465432,0.0462354,-4.90809,7,0.00358747,11,-0.000226927,-2.30909,0.239857,0.24598,-47.0345,0.0462354,
2,0,0,1,0,8583.31,0.0450424,0.0447285,-4.8321,7,0.00346567,11,-0.000216133,-2.31586,0.236158,0.249833,-47.0663,0.0447285,
2,0,0,1,0,8583.33,0.0435482,0.0432275,-4.74904,7,0.00334619,11,-0.000205289,-2.32339,0.225626,0.261494,-48.5677,0.0432275,
2,0,0,1,0,8583.36,0.0420486,0.0417496,-4.68534,7,0.00322808,11,-0.000195611,-2.32926,0.225266,0.261913,-47.978,0.0417496,
2,0,0,1,0,8583.38,0.0405491,0.040229,-4.62775,7,0.00311168,11,-0.00018617,-2.33463,0.244067,0.241737,-43.6116,0.040229,
2,0,0,1,0,8583.41,0.0390549,0.0387123,-4.56084,7,0.00299724,11,-0.00017656,-2.34096,0.245345,0.240478,-42.7265,0.0387123,
2,0,0,1,0,8583.43,0.0375541,0.0372443,-4.48735,7,0.00288399,11,-0.000167128,-2.34801,0.245686,0.240144,-42.1648,0.03724429,
2,0,0,1,0,8583.46,0.0360532,0.035766,-4.43025,7,0.0027725,11,-0.000158452,-2.35357,0.248318,0.237599,-41.1524,0.035766,
2,0,0,1,0,8583.48,0.034559,0.0342446,-4.38249,7,0.00266277,11,-0.000150077,-2.35828,0.295107,0.199927,-34.1302,0.0342446,
2,0,0,1,0,8583.51,0.0330595,0.0327628,-4.32389,7,0.0025539,11,-0.000141663,-2.36413,0.313941,0.187934,-31.7319,0.0327628,
2,0,0,1,0,8583.53,0.0315613,0.0312577,-4.27286,7,0.00244631,11,-0.00013356,-2.36928,0.308441,0.191285,-31.957,0.0312577,
2,0,0,1,0,8583.56,0.0300618,0.0297519,-4.22708,7,0.00233998,11,-0.000125764,-2.37396,0.307545,0.191842,-31.6916,0.0297519,
2,0,0,1,0,8583.58,0.0285676,0.0282416,-4.19519,7,0.00223509,11,-0.000118479,-2.37725,0.398772,0.147954,-24.1761,0.0282416,
2,0,0,1,0,8583.61,0.0270667,0.0267754,-4.15595,7,0.00213068,11,-0.000111277,-2.38133,0.454629,0.129776,-21.0516,0.0267754,
2,0,0,1,0,8583.63,0.0255659,0.0252723,-4.11692,7,0.00202717,11,-0.000104044,-2.38543,0.407302,0.144856,-23.3164,0.0252723,
2,0,0,1,0,8583.66,0.0240717,0.0237464,-4.08069,7,0.00192493,11,-9.69016e-05,-2.38927,0.446849,0.132036,-21.0936,0.02374636,
2,0,0,1,0,8583.68,0.0225722,0.0222516,-4.06465,7,0.00182302,11,-9.04451e-05,-2.39098,0.589623,0.100064,-15.8681,0.0222516,
2,0,0,1,0,8583.71,0.0210726,0.0207491,-4.04053,7,0.00172163,11,-8.38375e-05,-2.39356,0.830637,0.0710298,-11.2079,0.0207491,
2,0,0,1,0,8583.73,0.0195784,0.019252,-4.01881,7,0.00162119,11,-7.737e-05,-2.3959,0.658582,0.0895865,-14.066,0.019252,
2,0,0,1,0,8583.76,0.0180789,0.0177948,-3.99824,7,0.0015208,11,-7.1148e-05,-2.39813,0.701238,0.0841369,-13.144,0.0177948,
2,0,0,1,0,8583.78,0.0165781,0.0162342,-3.99369,7,0.00142089,11,-6.48343e-05,-2.39863,1.13519,0.0519735,-8.09254,0.01623418,
2,0,0,1,0,8583.81,0.0150839,0.0147328,-3.98038,7,0.00132164,11,-5.8642e-05,-2.40008,2.88383,0.0204589,-3.17779,0.0147328,
2,0,0,1,0,8583.83,0.0135844,0.0132383,-3.96111,7,0.0012222,11,-5.24382e-05,-2.40218,1.34268,0.043942,-6.80926,0.0132383,
2,0,0,1,0,8583.86,0.0120848,0.0117353,-3.96168,7,0.00112295,11,-4.64915e-05,-2.40212,1.25883,0.046869,-7.25003,0.0117353,
2,0,0,1,0,8583.88,0.0105853,0.0102852,-3.9571,7,0.00102397,11,-4.06994e-05,-2.40262,2.8698,0.0205589,-3.17564,0.0102852,
2,0,0,1,0,8583.91,0.00909108,0.00877079,-3.9518,7,0.000925469,11,-3.46604e-05,-2.40321,-3.82916,-0.0154081,2.3776,0.00877079,
2,0,0,1,0,8583.93,0.00759027,0.0072438,-3.94859,7,0.000826561,11,-2.86028e-05,-2.40356,-8.42996,-0.00699885,1.08014,0.0072438,
2,0,0,1,0,8583.96,0.00608945,0.0058012,-3.96083,7,0.000727606,11,-2.29776e-05,-2.40221,3.2665,0.0180621,-2.78493,0.0058012,
2,0,0,1,0,8583.98,0.00459524,0.00433327,-3.9605,7,0.000629128,11,-1.71619e-05,-2.40225,-4.68264,-0.0125997,1.94488,0.00433327,
2,0,0,1,0,8584.01,0.0030957,0.00281144,-3.96224,7,0.000530142,11,-1.11396e-05,-2.40206,-0.509773,-0.115738,17.9533,0.00281144,
2,0,0,1,0,8584.03,0.00159616,0.00123674,-4.01012,7,0.000430259,11,-4.95948e-06,-2.39684, , , ,0.00123674,
2,0,0,0,0,8584.06,0.000199195,-0.000161173,-3.99119,7,0.000336863,11,6.43271e-07,-2.3989, , , ,-0.0001611726,