File: Figure_codes/Fig_3-5/rawdata_trumpetplot_data/before 10th/20221101_1-115_002_TrumpetPlot_ParaChange_12_CV_C01_6.csv
mode,ox/red,error,control changes,counter inc.,time/s,control/V,Ewe/V,<I>/mA,cycle number,(Q-Qo)/C,I Range,P/W,log(|I|),Tafel slope mV/dec,alpha_eff,dI/d(E-IR),E-IR/V,
2,1,0,0,0,8599.86,2.44065e-05,-0.000401673,7.97757,7,0.0000000E+000,10,-3.20437e-06,-2.09813, , , ,-0.000401673,
2,1,0,1,0,8599.87,0.00179726,0.00141401,7.58745,7,6.63581e-05,10,1.07287e-05,-2.1199, , , ,0.00141401,
2,1,0,1,0,8599.88,0.00379485,0.00350805,8.10604,7,0.000145053,10,2.84364e-05,-2.09119,0.0815583,0.723409,226.943,0.00350805,
2,1,0,1,0,8599.89,0.00579244,0.00546529,8.50686,7,0.000228201,10,4.64925e-05,-2.07023,0.103105,0.572234,189.253,0.005465291,
2,1,0,1,0,8599.9,0.00779002,0.00745833,8.85364,7,0.000315111,10,6.60334e-05,-2.05288,0.128142,0.460426,158.476,0.00745833,
2,1,0,1,0,8599.91,0.00977853,0.00945779,9.13958,7,0.00040428,10,8.64402e-05,-2.03907,0.163987,0.359784,127.848,0.009457794,
2,1,0,1,0,8599.92,0.0117761,0.0114307,9.36151,7,0.000496895,10,0.000107009,-2.02865,0.221623,0.266218,96.9458,0.0114307,
2,1,0,1,0,8599.93,0.0137737,0.013434,9.52505,7,0.000591343,10,0.00012796,-2.02113,0.268224,0.219965,81.7768,0.013434,
2,1,0,1,0,8599.94,0.0157713,0.0154781,9.69249,7,0.000687524,10,0.000150021,-2.01356,0.304046,0.194049,73.2379,0.0154781,
2,1,0,1,0,8599.95,0.017778,0.0174328,9.81792,7,0.000785106,10,0.000171154,-2.00798,0.407241,0.144877,55.4215,0.0174328,
2,1,0,1,0,8599.96,0.0197755,0.0194439,9.91228,7,0.000883808,10,0.000192734,-2.00383,0.49884,0.118274,45.7427,0.0194439,
2,1,0,1,0,8599.97,0.0217731,0.0214655,10.0024,7,0.000983387,10,0.000214706,-1.9999,0.532033,0.110895,43.2767,0.0214655,
2,1,0,1,0,8599.98,0.0237707,0.0234852,10.0872,7,0.00108389,10,0.0002369,-1.99623,0.572403,0.103074,40.5649,0.0234852,
2,1,0,1,0,8599.99,0.0257774,0.025505,10.1662,7,0.00118514,10,0.00025929,-1.99284,0.608994,0.0968812,38.4297,0.025505,
2,1,0,1,0,8600,0.027775,0.0274927,10.2412,7,0.00128724,10,0.000281558,-1.98965,0.641411,0.0919848,36.7555,0.0274927,
2,1,0,1,0,8600.01,0.0297726,0.0294544,10.3114,7,0.00139001,10,0.000303716,-1.98668,0.700363,0.084242,33.8906,0.0294544,
2,1,0,1,0,8600.02,0.0317701,0.031462,10.3757,7,0.0014935,10,0.00032644,-1.98398,0.597353,0.098769,40.0573,0.031462,
2,1,0,1,0,8600.03,0.0337587,0.0334863,10.4729,7,0.00159669,10,0.000350699,-1.97993,0.551317,0.107016,43.6976,0.0334863,
2,1,0,1,0,8600.04,0.0357562,0.0354539,10.5501,7,0.00170183,10,0.000374043,-1.97674,0.640564,0.0921063,37.9145,0.0354539,
2,1,0,1,0,8600.05,0.0377538,0.0374334,10.6226,7,0.0018077,10,0.000397638,-1.97377,0.566565,0.104136,43.2256,0.0374334,
2,1,0,1,0,8600.06,0.0397514,0.0394344,10.7222,7,0.00191445,10,0.000422823,-1.96972,0.472629,0.124834,52.2562,0.0394344,
2,1,0,1,0,8600.07,0.0417399,0.0414091,10.8303,7,0.00202111,10,0.000448474,-1.96536,0.456391,0.129275,54.6389,0.0414091,
2,1,0,1,0,8600.08,0.0437375,0.043389,10.9383,7,0.00213004,10,0.0004746,-1.96105,0.472742,0.124804,53.2709,0.043389,
2,1,0,1,0,8600.09,0.0457351,0.0454278,11.0444,7,0.00223991,10,0.000501723,-1.95686,0.427248,0.138093,59.5948,0.0454278,
2,1,0,1,0,8600.1,0.0477327,0.0474181,11.1784,7,0.00235105,10,0.000530058,-1.95162,0.378462,0.155894,68.0227,0.0474181,
2,1,0,1,0,8600.11,0.0497393,0.0494449,11.3177,7,0.00246345,10,0.0005596,-1.94624,0.386289,0.152735,67.4361,0.0494449,
2,1,0,1,0,8600.12,0.0517369,0.0514351,11.4493,7,0.00257731,10,0.000588896,-1.94122,0.369119,0.15984,71.4887,0.0514351,
2,1,0,1,0,8600.13,0.0537345,0.0534463,11.6037,7,0.00269254,10,0.000620175,-1.9354,0.333235,0.177052,80.2197,0.0534463,
2,1,0,1,0,8600.14,0.0557321,0.0554496,11.7713,7,0.00280947,10,0.000652714,-1.92917,0.330791,0.178361,81.8892,0.0554496,
2,1,0,1,0,8600.15,0.0577297,0.0573852,11.9263,7,0.00292789,10,0.000684391,-1.9235,0.30758,0.19182,89.4357,0.05738518,
2,1,0,1,0,8600.16,0.0597364,0.0593946,12.1241,7,0.00304827,10,0.000720108,-1.91635,0.300199,0.196536,92.9065,0.0593946,
2,1,0,1,0,8600.17,0.0617339,0.0614187,12.301,7,0.00317041,10,0.000755511,-1.91006,0.311474,0.189422,90.9856,0.0614187,
2,1,0,1,0,8600.18,0.0637315,0.0634506,12.4932,7,0.00329447,10,0.0007927,-1.90333,0.29306,0.201324,98.1767,0.0634506,
2,1,0,1,0,8600.19,0.0657291,0.0653993,12.6918,7,0.00342038,10,0.000830034,-1.89648,0.27626,0.213567,105.868,0.0653993,
2,1,0,1,0,8600.2,0.0677176,0.0674132,12.9127,7,0.00354721,10,0.000870485,-1.88898,0.288864,0.204248,102.798,0.0674132,
2,1,0,1,0,8600.21,0.0697152,0.0693983,13.1029,7,0.0036773,10,0.000909318,-1.88263,0.300073,0.196619,100.608,0.0693983,
2,1,0,1,0,8600.22,0.0717128,0.0713802,13.3118,7,0.00380942,10,0.000950199,-1.87576,0.285912,0.206357,107.226,0.0713802,
2,1,0,1,0,8600.23,0.0737104,0.0733613,13.5278,7,0.00394354,10,0.000992418,-1.86877,0.276522,0.213365,112.706,0.0733613,
2,1,0,1,0,8600.24,0.0756989,0.0753646,13.7609,7,0.00407872,10,0.00103708,-1.86135,0.279344,0.211209,113.372,0.0753646,
2,1,0,1,0,8600.25,0.0776965,0.0773722,13.9826,7,0.00421741,10,0.00108186,-1.85441,0.283159,0.208364,113.746,0.0773722,
2,1,0,1,0,8600.26,0.0796941,0.0793772,14.2173,7,0.0043585,10,0.00112853,-1.84718,0.290176,0.203325,112.75,0.0793772,
2,1,0,1,0,8600.27,0.0816917,0.0814092,14.4377,7,0.00450176,10,0.00117536,-1.8405,0.300801,0.196143,110.535,0.0814092,
2,1,0,1,0,8600.28,0.0836983,0.0834246,14.6647,7,0.00464731,10,0.00122339,-1.83373,0.305317,0.193242,110.521,0.08342462,
2,1,0,1,0,8600.29,0.0856959,0.0853576,14.8741,7,0.00479501,10,0.00126962,-1.82757,0.314166,0.187799,109.067,0.0853576,
2,1,0,1,0,8600.3,0.0876935,0.0874147,15.0999,7,0.00494497,10,0.00131995,-1.82103,0.324635,0.181743,107.012,0.0874147,
2,1,0,1,0,8600.31,0.0896911,0.0893608,15.3025,7,0.00509694,10,0.00136744,-1.81524,0.323165,0.182569,109.126,0.0893608,
2,1,0,1,0,8600.32,0.0916978,0.0913901,15.5337,7,0.00525118,10,0.00141962,-1.80873,0.324981,0.181549,109.979,0.0913901,
2,1,0,1,0,8600.33,0.0936953,0.0933743,15.7439,7,0.00540759,10,0.00147008,-1.80289,0.346842,0.170106,104.498,0.0933743,
2,1,0,1,0,8600.34,0.0956929,0.0953707,15.9496,7,0.00556613,10,0.00152113,-1.79725,0.36447,0.161879,100.737,0.0953707,
2,1,0,1,0,8600.35,0.0976905,0.0973905,16.1485,7,0.00572662,10,0.00157271,-1.79187,0.3454,0.170817,107.769,0.0973905,
2,1,0,1,0,8600.36,0.099679,0.0994035,16.3843,7,0.00588769,10,0.00162865,-1.78557,0.356536,0.165481,105.642,0.0994035,
2,1,0,1,0,8600.37,0.101677,0.10137,16.5688,7,0.00605247,10,0.00167957,-1.78071,0.372031,0.158589,102.654,0.10137,
2,1,0,1,0,8600.38,0.103674,0.103348,16.7892,7,0.00621937,10,0.00173513,-1.77497,0.358236,0.164696,107.871,0.103348,
2,1,0,1,0,8600.39,0.105672,0.105351,16.9983,7,0.00638829,10,0.00179078,-1.76959,0.348314,0.169387,112.469,0.105351,
2,1,0,1,0,8600.4,0.107656,0.10735,17.2392,7,0.00655781,10,0.00185063,-1.76348,0.34557,0.170733,114.773,0.10735,
2,1,0,1,0,8600.41,0.109658,0.10932,17.4539,7,0.00673123,10,0.00190806,-1.75811,0.348726,0.169187,115.35,0.10932,
2,1,0,1,0,8600.42,0.111655,0.111363,17.7022,7,0.00690712,10,0.00197137,-1.75197,0.325603,0.181202,125.191,0.111363,
2,1,0,1,0,8600.43,0.113653,0.113319,17.9545,7,0.00708536,10,0.00203458,-1.74583,0.323787,0.182219,127.694,0.113319,
2,1,0,1,0,8600.44,0.115651,0.11536,18.2126,7,0.00726625,10,0.00210101,-1.73963,0.295218,0.199853,142.221,0.11536,
2,1,0,1,0,8600.45,0.117657,0.117274,18.517,7,0.00744993,10,0.00217157,-1.73243,0.274172,0.215193,155.54,0.117274,
2,1,0,1,0,8600.46,0.119655,0.11934,18.8316,7,0.00763676,10,0.00224736,-1.72511,0.289748,0.203625,149.58,0.11934,
2,1,0,1,0,8600.47,0.121652,0.121382,19.1315,7,0.00782656,10,0.00232223,-1.71825,0.269189,0.219177,163.867,0.121382,
2,1,0,1,0,8600.48,0.12365,0.123338,19.4867,7,0.00801975,10,0.00240345,-1.71026,0.250561,0.235472,179.075,0.123338,
2,1,0,1,0,8600.49,0.125657,0.125371,19.8457,7,0.00821646,10,0.00248807,-1.70233,0.251209,0.234864,181.907,0.125371,
2,1,0,1,0,8600.5,0.127654,0.127311,20.2094,7,0.00841688,10,0.00257287,-1.69445,0.247933,0.237968,187.741,0.127311,
2,1,0,1,0,8600.51,0.129652,0.12933,20.5891,7,0.00862092,10,0.0026628,-1.68636,0.241419,0.244388,196.508,0.12933,
2,1,0,1,0,8600.52,0.131649,0.131346,21.0024,7,0.00882896,10,0.00275858,-1.67773,0.24183,0.243973,199.816,0.131346,
2,1,0,1,0,8600.53,0.133638,0.133326,21.3874,7,0.00903882,10,0.00285149,-1.66984,0.248426,0.237495,198.316,0.133326,
2,1,0,1,0,8600.54,0.135636,0.135344,21.7953,7,0.00925481,10,0.00294986,-1.66164,0.250993,0.235066,199.854,0.135344,
2,1,0,1,0,8600.55,0.137633,0.137329,22.1876,7,0.00947472,10,0.003047,-1.65389,0.257124,0.229461,198.708,0.137329,
2,1,0,1,0,8600.56,0.139631,0.139333,22.588,7,0.00969869,10,0.00314726,-1.64612,0.263972,0.223509,196.949,0.139333,
2,1,0,1,0,8600.57,0.141619,0.141323,22.974,7,0.00992416,10,0.00324675,-1.63876,0.26831,0.219895,197.169,0.141323,
2,1,0,1,0,8600.58,0.143617,0.143284,23.3669,7,0.0101559,10,0.00334811,-1.6314,0.282752,0.208664,190.14,0.143284,
2,1,0,1,0,8600.59,0.145614,0.145286,23.7276,7,0.0103914,10,0.00344728,-1.62475,0.30575,0.192968,178.692,0.145286,
2,1,0,1,0,8600.6,0.147612,0.147344,24.0924,7,0.0106306,10,0.00354986,-1.61812,0.312092,0.189047,177.678,0.147344,
2,1,0,1,0,8600.61,0.149619,0.149299,24.4407,7,0.0108732,10,0.00364898,-1.61189,0.330258,0.178648,170.316,0.149299,
2,1,0,1,0,8600.62,0.151616,0.151307,24.7674,7,0.0111194,10,0.00374747,-1.60612,0.370224,0.159363,153.903,0.151307,
2,1,0,1,0,8600.63,0.153614,0.153276,25.0527,7,0.0113685,10,0.00383996,-1.60115,0.401626,0.146903,143.639,0.153276,
2,1,0,1,0,8600.64,0.155611,0.155314,25.343,7,0.0116206,10,0.00393613,-1.59614,0.43299,0.136262,134.666,0.155314,
2,1,0,1,0,8600.65,0.157618,0.157308,25.5957,7,0.0118753,10,0.00402642,-1.59183,0.520125,0.113434,113.185,0.157308,
2,1,0,1,0,8600.66,0.159616,0.159287,25.7926,7,0.0121324,10,0.00410844,-1.5885,0.724513,0.081434,81.8708,0.159287,
2,1,0,1,0,8600.67,0.161613,0.161349,25.9266,7,0.012391,10,0.00418324,-1.58625,1.04587,0.0564126,57.0351,0.161349,
2,1,0,1,0,8600.68,0.163611,0.163272,26.0199,7,0.0126509,10,0.00424833,-1.58469,3.21174,0.0183701,18.6138,0.163272,
2,1,0,1,0,8600.69,0.165618,0.165296,26.0001,7,0.012911,10,0.00429771,-1.58503,-2.25748,-0.0261353,-26.485,0.165296,
2,1,0,1,0,8600.7,0.167597,0.167326,25.9126,7,0.0131681,10,0.00433584,-1.58649,-0.764997,-0.0771245,-77.7878,0.167326,
2,1,0,1,0,8600.71,0.169595,0.169307,25.6881,7,0.0134261,10,0.00434917,-1.59027,-0.409898,-0.143938,-143.954,0.169307,
2,1,0,1,0,8600.72,0.171592,0.17129,25.3418,7,0.0136814,10,0.00434081,-1.59616,-0.262611,-0.224667,-221.382,0.17129,
2,1,0,1,0,8600.73,0.173572,0.173253,24.8145,7,0.0139296,10,0.00429918,-1.6053,-0.196426,-0.300367,-290.267,0.173253,
2,1,0,1,0,8600.74,0.175578,0.175256,24.1906,7,0.0141748,10,0.00423956,-1.61635,-0.154851,-0.381012,-358.07,0.175256,
2,1,0,1,0,8600.75,0.177576,0.177312,23.3612,7,0.0144125,10,0.00414221,-1.63151,-0.120067,-0.491393,-446.678,0.177312,
2,1,0,1,0,8600.76,0.179573,0.179231,22.4153,7,0.0146414,10,0.00401752,-1.64945,-0.10029,-0.588294,-512.918,0.179231,
2,1,0,1,0,8600.77,0.181571,0.181233,21.3497,7,0.0148601,10,0.00386928,-1.67061,-0.0906791,-0.650646,-540.983,0.181233,
2,1,0,1,0,8600.78,0.183578,0.183268,20.2314,7,0.015068,10,0.00370776,-1.69397,-0.0811673,-0.726894,-572.098,0.183268,
2,1,0,1,0,8600.79,0.185575,0.185291,19.0283,7,0.0152641,10,0.00352577,-1.7206,-0.0738541,-0.798872,-593.1,0.185291,
2,1,0,1,0,8600.8,0.187573,0.187259,17.8643,7,0.0154485,10,0.00334525,-1.74801,-0.0708922,-0.83225,-579.827,0.187259,
2,1,0,1,0,8600.81,0.18957,0.189264,16.7248,7,0.0156213,10,0.00316539,-1.77664,-0.0711245,-0.829531,-542.432,0.189264,
2,1,0,1,0,8600.82,0.191577,0.191262,15.6929,7,0.0157832,10,0.00300146,-1.8043,-0.0718813,-0.820798,-503.086,0.1912619,
2,1,0,1,0,8600.83,0.193575,0.193233,14.7279,7,0.0159351,10,0.00284591,-1.83186,-0.0764443,-0.771804,-445.267,0.1932331,
2,1,0,1,0,8600.84,0.195572,0.19527,13.9081,7,0.0160782,10,0.00271585,-1.85673,-0.0822105,-0.71767,-389.987,0.19527,
2,1,0,1,0,8600.85,0.19757,0.19728,13.1498,7,0.0162134,10,0.00259418,-1.88108,-0.0902319,-0.653871,-337.528,0.1972796,
2,1,0,1,0,8600.86,0.199558,0.199241,12.5681,7,0.0163406,10,0.00250407,-1.90073,-0.103958,-0.567538,-278.72,0.199241,
2,1,0,1,0,8600.87,0.201556,0.201282,12.0342,7,0.0164634,10,0.00242227,-1.91958,-0.114742,-0.514196,-242.334,0.201282,
2,1,0,1,0,8600.88,0.203553,0.203248,11.5969,7,0.0165814,10,0.00235704,-1.93566,-0.128051,-0.460754,-208.851,0.203248,
2,1,0,1,0,8600.89,0.205551,0.205253,11.2049,7,0.0166953,10,0.00229984,-1.95059,-0.154653,-0.381498,-167.618,0.205253,
2,1,0,1,0,8600.9,0.20754,0.207251,10.9259,7,0.0168047,10,0.00226441,-1.96154,-0.180174,-0.327461,-139.607,0.207251,
2,1,0,1,0,8600.91,0.209537,0.209242,10.648,7,0.0169125,10,0.002228,-1.97273,-0.188078,-0.313699,-130.541,0.209242,
2,1,0,1,0,8600.92,0.211535,0.21125,10.4039,7,0.0170177,10,0.00219783,-1.9828,-0.210292,-0.280562,-114.086,0.21125,
2,1,0,1,0,8600.93,0.213532,0.213222,10.1939,7,0.0171207,10,0.00217357,-1.99166,-0.259231,-0.227596,-90.7819,0.213222,
2,1,0,1,0,8600.94,0.215539,0.215268,10.0392,7,0.0172218,10,0.00216111,-1.9983,-0.273069,-0.216063,-84.5169,0.215268,
2,1,0,1,0,8600.95,0.217537,0.217243,9.85407,7,0.0173212,10,0.00214073,-2.00638,-0.277605,-0.212532,-81.921,0.217243,
2,1,0,1,0,8600.96,0.219534,0.219215,9.71578,7,0.0174191,10,0.00212985,-2.01252,-0.326932,-0.180466,-68.4309,0.219215,
2,1,0,1,0,8600.97,0.221532,0.221256,9.57948,7,0.0175156,10,0.00211952,-2.01866,-0.351303,-0.167946,-62.8434,0.221256,
2,1,0,1,0,8600.98,0.223534,0.223265,9.46126,7,0.0176108,10,0.00211237,-2.02405,-0.374839,-0.157401,-58.1307,0.223265,
2,1,0,1,0,8600.99,0.225536,0.225243,9.34773,7,0.0177049,10,0.00210551,-2.02929,-0.392272,-0.150406,-54.8953,0.225243,
2,1,0,1,0,8601,0.227534,0.227229,9.24365,7,0.0177979,10,0.00210043,-2.03416,-0.390997,-0.150896,-54.4011,0.227229,
2,1,0,1,0,8601.01,0.229531,0.229271,9.12859,7,0.0178898,10,0.00209292,-2.0396,-0.429772,-0.137282,-48.9987,0.2292708,
2,1,0,1,0,8601.02,0.231529,0.231222,9.04802,7,0.0179807,10,0.0020921,-2.04345,-0.536199,-0.110034,-38.8735,0.231222,
2,1,0,1,0,8601.03,0.233517,0.233179,8.97665,7,0.01807,10,0.00209317,-2.04689,-0.551322,-0.107016,-37.476,0.233179,
2,1,0,1,0,8601.04,0.235515,0.235209,8.8986,7,0.0181593,10,0.00209303,-2.05068,-0.473509,-0.124602,-43.2282,0.235209,
2,1,0,1,0,8601.05,0.237513,0.237196,8.803,7,0.0182478,10,0.00208804,-2.05537,-0.546181,-0.108023,-37.1973,0.237196,
2,1,0,1,0,8601.06,0.23951,0.239244,8.7485,7,0.0183356,10,0.00209303,-2.05807,-0.679569,-0.0868198,-29.6245,0.239244,
2,1,0,1,0,8601.07,0.241499,0.241226,8.68361,7,0.0184218,10,0.00209472,-2.0613,-0.588517,-0.100252,-33.9637,0.2412264,
2,1,0,1,0,8601.08,0.243496,0.243222,8.6134,7,0.0185083,10,0.00209497,-2.06483,-0.599186,-0.098467,-33.1176,0.243222,
2,1,0,1,0,8601.09,0.245494,0.245181,8.55265,7,0.0185941,10,0.00209695,-2.0679,-0.709841,-0.0831172,-27.7601,0.245181,
2,1,0,1,0,8601.1,0.247491,0.247214,8.50259,7,0.0186794,10,0.00210196,-2.07045,-0.701637,-0.084089,-27.884,0.247214,
2,1,0,1,0,8601.11,0.249498,0.249181,8.4411,7,0.0187641,10,0.00210336,-2.0736,-0.724657,-0.0814179,-26.8459,0.249181,
2,1,0,1,0,8601.12,0.251496,0.251213,8.39522,7,0.0188483,10,0.00210899,-2.07597,-0.754342,-0.0782139,-25.6072,0.2512134,
2,1,0,1,0,8601.13,0.253493,0.253234,8.33732,7,0.018932,10,0.00211129,-2.07897,-0.716171,-0.0823825,-26.8199,0.253234,
2,1,0,1,0,8601.14,0.255491,0.255191,8.28855,7,0.0190152,10,0.00211516,-2.08152,-0.946282,-0.0623493,-20.1894,0.255191,
2,1,0,1,0,8601.15,0.257497,0.257208,8.2571,7,0.0190979,10,0.00212379,-2.08317,-1.18931,-0.0496085,-15.9846,0.257208,
2,1,0,1,0,8601.16,0.259495,0.25923,8.22398,7,0.0191803,10,0.0021319,-2.08492,-0.774698,-0.0761587,-24.3975,0.25923,
2,1,0,1,0,8601.17,0.261493,0.261186,8.16004,7,0.0192623,10,0.00213129,-2.08831,-0.771032,-0.0765209,-24.414,0.261186,
2,1,0,1,0,8601.18,0.26349,0.263222,8.12652,7,0.0193438,10,0.00213908,-2.0901,-1.27654,-0.0462185,-14.6657,0.263222,
2,1,0,1,0,8601.19,0.265479,0.265196,8.10123,7,0.0194241,10,0.00214841,-2.09145,-1.12798,-0.052306,-16.5224,0.265196,
2,1,0,1,0,8601.2,0.267476,0.267164,8.0614,7,0.0195049,10,0.00215371,-2.09359,-0.915148,-0.0644704,-20.2807,0.267164,
2,1,0,1,0,8601.21,0.269474,0.269212,8.01978,7,0.0195853,10,0.00215902,-2.09584,-1.2894,-0.0457578,-14.3446,0.269212,
2,1,0,1,0,8601.22,0.271471,0.271162,8.00404,7,0.0196654,10,0.00217039,-2.09669,-1.37084,-0.0430393,-13.4259,0.271162,
2,1,0,1,0,8601.23,0.27346,0.27318,7.9665,7,0.0197443,10,0.00217629,-2.09873,-0.98116,-0.0601329,-18.6969,0.27318,
2,1,0,1,0,8601.24,0.275458,0.275122,7.93,7,0.0198238,10,0.00218172,-2.10073,-0.976706,-0.0604071,-18.6936,0.275122,
2,1,0,1,0,8601.25,0.277455,0.277142,7.89245,7,0.0199029,10,0.00218733,-2.10279,-1.28965,-0.0457488,-14.1078,0.277142,
2,1,0,1,0,8601.26,0.279453,0.279142,7.87329,7,0.0199817,10,0.00219776,-2.10384,-1.23883,-0.0476257,-14.6151,0.279142,
2,1,0,1,0,8601.27,0.281455,0.281148,7.8339,7,0.0200601,10,0.00220248,-2.10602,-1.15876,-0.0509165,-15.5828,0.281148,
2,1,0,1,0,8601.28,0.283457,0.283163,7.81063,7,0.0201384,10,0.00221168,-2.10731,-1.26979,-0.0464643,-14.1543,0.283163,
2,1,0,1,0,8601.29,0.285455,0.285144,7.77734,7,0.0202164,10,0.00221766,-2.10917,-1.13473,-0.0519948,-15.7847,0.285144,
2,1,0,1,0,8601.3,0.287452,0.287188,7.7471,7,0.020294,10,0.00222487,-2.11086,-1.11658,-0.0528401,-15.9722,0.287188,
2,1,0,1,0,8601.31,0.28945,0.289151,7.71333,7,0.0203713,10,0.00223032,-2.11276,-1.64785,-0.0358041,-10.7954,0.289151,
2,1,0,1,0,8601.32,0.291456,0.291141,7.70443,7,0.0204485,10,0.00224307,-2.11326,-1.35625,-0.0435023,-13.0507,0.291141,
2,1,0,1,0,8601.33,0.293454,0.293175,7.66082,7,0.0205253,10,0.00224596,-2.11572,-1.12465,-0.0524606,-15.7086,0.293175,
2,1,0,1,0,8601.34,0.295452,0.295192,7.64078,7,0.0206019,10,0.0022555,-2.11686,-1.51076,-0.0390532,-11.6407,0.295192,
2,1,0,1,0,8601.35,0.297449,0.297151,7.61453,7,0.0206781,10,0.00226267,-2.11836,-1.68596,-0.0349948,-10.4069,0.297151,
2,1,0,1,0,8601.36,0.299438,0.299186,7.59921,7,0.0207535,10,0.00227358,-2.11923,-0.048986,-1.20443,-338.661,0.299186,
2,1,0,1,0,8601.36,0.299746,0.299527,6.81004,7,0.0207852,10,0.00203979,-2.16685,0.00367996,16.0328,2938.83,0.2995269,
2,1,0,1,0,8601.37,0.29774,0.297502,2.64844,7,0.0208298,10,0.000787915,-2.57701,0.00317646,18.5741,1591.09,0.297502,
2,1,0,1,0,8601.38,0.295742,0.295473,0.36063,7,0.0208436,10,0.000106557,-3.44294,0.00913674,6.45745,898.881,0.295473,
2,0,0,1,0,8601.39,0.293745,0.293485,-0.962359,7,0.0208399,10,-0.000282438,-3.01666,-0.00577893,-10.2095,534.726,0.293485,
2,0,0,1,0,8601.4,0.291747,0.291456,-1.78786,7,0.0208257,10,-0.000521081,-2.74767,-0.0105679,-5.58292,336.285,0.291456,
2,0,0,1,0,8601.41,0.289745,0.289444,-2.32139,7,0.020805,10,-0.00067191,-2.63425,-0.0223553,-2.63919,227.481,0.289444,
2,0,0,1,0,8601.42,0.287743,0.287487,-2.6906,7,0.0207797,10,-0.000773514,-2.57015,-0.0387136,-1.52401,155.722,0.287487,
2,0,0,1,0,8601.43,0.285745,0.285476,-2.93922,7,0.0207514,10,-0.000839077,-2.53177,-0.0592086,-0.996477,113.344,0.285476,
2,0,0,1,0,8601.44,0.283748,0.283429,-3.15053,7,0.020721,10,-0.000892951,-2.50162,-0.0778332,-0.758031,92.3302,0.283429,
2,0,0,1,0,8601.45,0.28175,0.281459,-3.31011,7,0.0206886,10,-0.000931661,-2.48016,-0.0997693,-0.591364,76.1489,0.281459,
2,0,0,1,0,8601.46,0.279761,0.279457,-3.45304,7,0.020655,10,-0.000964976,-2.4618,-0.118701,-0.497046,66.7842,0.279457,
2,0,0,1,0,8601.47,0.277764,0.277433,-3.57902,7,0.0206198,10,-0.000992936,-2.44624,-0.136044,-0.433684,60.484,0.2774325,
2,0,0,1,0,8601.48,0.275766,0.275425,-3.69688,7,0.0205834,10,-0.00101821,-2.43216,-0.160139,-0.368429,52.9546,0.275425,
2,0,0,1,0,8601.49,0.273769,0.273473,-3.78871,7,0.020546,10,-0.00103611,-2.42151,-0.170299,-0.34645,51.356,0.273473,
2,0,0,1,0,8601.5,0.27178,0.271441,-3.90151,7,0.0205079,10,-0.00105903,-2.40877,-0.183833,-0.320944,48.6553,0.271441,
2,0,0,1,0,8601.51,0.269783,0.269502,-3.98192,7,0.0204684,10,-0.00107313,-2.39991,-0.204095,-0.289081,45.0143,0.269502,
2,0,0,1,0,8601.52,0.267785,0.267482,-4.07971,7,0.0204281,10,-0.00109125,-2.38937,-0.229508,-0.257072,40.7649,0.267482,
2,0,0,1,0,8601.53,0.265787,0.265487,-4.14557,7,0.020387,10,-0.0011006,-2.38242,-0.229447,-0.25714,41.7624,0.265487,
2,0,0,1,0,8601.54,0.263781,0.263538,-4.24443,7,0.020345,10,-0.00111857,-2.37218,-0.233966,-0.252173,41.6173,0.263538,
2,0,0,1,0,8601.55,0.261783,0.261463,-4.31303,7,0.0203022,10,-0.0011277,-2.36522,-0.28043,-0.210391,35.437,0.261463,
2,0,0,1,0,8601.56,0.259786,0.259484,-4.38807,7,0.0202587,10,-0.00113864,-2.35773,-0.266698,-0.221224,37.8803,0.259484,
2,0,0,1,0,8601.57,0.257788,0.257509,-4.46283,7,0.0202144,10,-0.00114922,-2.35039,-0.255353,-0.231053,40.2927,0.257509,
2,0,0,1,0,8601.58,0.255781,0.255473,-4.54968,7,0.0201694,10,-0.00116232,-2.34202,-0.315937,-0.186746,33.0041,0.255473,
2,0,0,1,0,8601.59,0.253784,0.253511,-4.59478,7,0.0201236,10,-0.00116483,-2.33774,-0.351559,-0.167824,30.1879,0.253511,
2,0,0,1,0,8601.6,0.251786,0.251521,-4.66901,7,0.0200773,10,-0.00117435,-2.33078,-0.314735,-0.187459,34.1195,0.251521,
2,0,0,1,0,8601.61,0.249789,0.24945,-4.73335,7,0.0200302,10,-0.00118073,-2.32483,-0.316039,-0.186686,34.5257,0.24945,
2,0,0,1,0,8601.62,0.2478,0.247458,-4.80926,7,0.019983,10,-0.00119009,-2.31792,-0.344592,-0.171217,32.0484,0.247458,
2,0,0,1,0,8601.63,0.245802,0.245511,-4.85959,7,0.0199346,10,-0.00119308,-2.3134,-0.348358,-0.169366,32.2098,0.245511,
2,0,0,1,0,8601.64,0.243805,0.243482,-4.93734,7,0.0198856,10,-0.00120215,-2.30651,-0.380242,-0.155164,29.7872,0.243482,
2,0,0,1,0,8601.65,0.241807,0.241508,-4.97882,7,0.019836,10,-0.00120242,-2.30287,-0.359094,-0.164302,32.0605,0.241508,
2,0,0,1,0,8601.66,0.239819,0.239561,-5.06303,7,0.0197864,10,-0.00121291,-2.29559,-0.336586,-0.175289,34.525,0.239561,
2,0,0,1,0,8601.67,0.237821,0.237553,-5.11536,7,0.0197354,10,-0.00121517,-2.29112,-0.426275,-0.138408,27.6494,0.237553,
2,0,0,1,0,8601.68,0.235824,0.23552,-5.17477,7,0.019684,10,-0.00121876,-2.28611,-0.428364,-0.137733,27.7981,0.23552,
2,0,0,1,0,8601.69,0.233826,0.233502,-5.22797,7,0.019632,10,-0.00122074,-2.28167,-0.371815,-0.158681,32.446,0.233502,
2,0,0,1,0,8601.7,0.231824,0.231527,-5.30432,7,0.0195793,10,-0.0012281,-2.27537,-0.368121,-0.160273,33.1117,0.231527,
2,0,0,1,0,8601.71,0.229822,0.229517,-5.35991,7,0.019526,10,-0.00123019,-2.27084,-0.436795,-0.135075,28.2629,0.229517,
2,0,0,1,0,8601.72,0.227824,0.227473,-5.41891,7,0.0194721,10,-0.00123266,-2.26609,-0.45836,-0.12872,27.1952,0.227473,
2,0,0,1,0,8601.73,0.225827,0.225558,-5.46758,7,0.0194177,10,-0.00123326,-2.26221,-0.410454,-0.143743,30.738,0.225558,
2,0,0,1,0,8601.74,0.223829,0.22353,-5.54011,7,0.0193626,10,-0.00123838,-2.25648,-0.38642,-0.152684,32.9756,0.22353,
2,0,0,1,0,8601.75,0.221822,0.221515,-5.6009,7,0.0193068,10,-0.00124068,-2.25174,-0.411678,-0.143316,31.3348,0.2215153,
2,0,0,1,0,8601.76,0.219825,0.219544,-5.66501,7,0.0192505,10,-0.00124372,-2.2468,-0.400254,-0.147406,32.5969,0.2195441,
2,0,0,1,0,8601.77,0.217827,0.21749,-5.73212,7,0.0191934,10,-0.00124668,-2.24168,-0.421175,-0.140084,31.3103,0.2174896,
2,0,0,1,0,8601.78,0.21583,0.215564,-5.78964,7,0.0191358,10,-0.00124803,-2.23735,-0.39824,-0.148152,33.5231,0.215564,
2,0,0,1,0,8601.79,0.213841,0.213548,-5.86425,7,0.019078,10,-0.0012523,-2.23179,-0.369283,-0.159769,36.5557,0.213548,
2,0,0,1,0,8601.8,0.211843,0.211549,-5.9364,7,0.019019,10,-0.00125584,-2.22648,-0.434294,-0.135853,31.425,0.211549,
2,0,0,1,0,8601.81,0.209846,0.209533,-5.99044,7,0.0189593,10,-0.00125519,-2.22254,-0.411266,-0.14346,33.6109,0.209533,
2,0,0,1,0,8601.82,0.207848,0.207556,-6.07059,7,0.018899,10,-0.00125999,-2.21677,-0.317932,-0.185574,44.015,0.207556,
2,0,0,1,0,8601.83,0.20586,0.205562,-6.16522,7,0.0188384,10,-0.00126733,-2.21005,-0.32624,-0.180849,43.459,0.205562,
2,0,0,1,0,8601.84,0.203862,0.20354,-6.24512,7,0.0187764,10,-0.00127113,-2.20446,-0.42714,-0.138128,33.5963,0.20354,
2,0,0,1,0,8601.85,0.201865,0.201555,-6.29982,7,0.0187137,10,-0.00126976,-2.20067,-0.39883,-0.147933,36.4717,0.201555,
2,0,0,1,0,8601.86,0.199867,0.19957,-6.38992,7,0.0186502,10,-0.00127524,-2.1945,-0.325079,-0.181495,45.2592,0.19957,
2,0,0,1,0,8601.87,0.19786,0.197565,-6.48041,7,0.0185858,10,-0.0012803,-2.1884,-0.328548,-0.179578,45.4238,0.197565,
2,0,0,1,0,8601.88,0.195863,0.195524,-6.57369,7,0.0185206,10,-0.00128532,-2.18219,-0.323282,-0.182503,46.8205,0.195524,
2,0,0,1,0,8601.89,0.193865,0.193566,-6.66764,7,0.0184544,10,-0.00129063,-2.17603,-0.301471,-0.195707,50.9793,0.193566,
2,0,0,1,0,8601.9,0.191868,0.191546,-6.77649,7,0.0183871,10,-0.00129801,-2.169,-0.294712,-0.200196,52.9226,0.191546,
2,0,0,1,0,8601.91,0.189861,0.189539,-6.88078,7,0.0183188,10,-0.00130418,-2.16236,-0.277484,-0.212625,57.1745,0.189539,
2,0,0,1,0,8601.92,0.187863,0.18755,-7.00497,7,0.0182494,10,-0.00131378,-2.15459,-0.27536,-0.214265,58.5035,0.18755,
2,0,0,1,0,8601.93,0.185866,0.185569,-7.11305,7,0.0181788,10,-0.00131996,-2.14794,-0.272377,-0.216611,60.2324,0.185569,
2,0,0,1,0,8601.94,0.183868,0.183542,-7.2464,7,0.018107,10,-0.00133002,-2.13988,-0.237042,-0.248901,70.4696,0.183542,
2,0,0,1,0,8601.95,0.18188,0.181526,-7.39794,7,0.0180345,10,-0.00134292,-2.13089,-0.21977,-0.268463,77.5155,0.181526,
2,0,0,1,0,8601.96,0.179882,0.179592,-7.5526,7,0.0179598,10,-0.00135638,-2.1219,-0.227731,-0.259077,76.3198,0.179592,
2,0,0,1,0,8601.97,0.177885,0.177561,-7.70052,7,0.0178834,10,-0.00136731,-2.11348,-0.217159,-0.271691,81.8061,0.177561,
2,0,0,1,0,8601.98,0.175887,0.175588,-7.88012,7,0.0178055,10,-0.00138366,-2.10347,-0.195919,-0.301145,92.6587,0.175588,
2,0,0,1,0,8601.99,0.173908,0.17357,-8.07038,7,0.0177265,10,-0.00140077,-2.09311,-0.179661,-0.328396,103.623,0.17357,
2,0,0,1,0,8602,0.171901,0.171595,-8.2939,7,0.0176446,10,-0.00142319,-2.08124,-0.174414,-0.338275,109.39,0.171595,
2,0,0,1,0,8602.01,0.169903,0.169593,-8.50534,7,0.0175606,10,-0.00144245,-2.07031,-0.16844,-0.350273,116.56,0.169593,
2,0,0,1,0,8602.02,0.167906,0.167564,-8.76374,7,0.0174743,10,-0.00146849,-2.05731,-0.155968,-0.378282,129.377,0.167564,
2,0,0,1,0,8602.03,0.165908,0.165563,-9.02684,7,0.0173853,10,-0.00149451,-2.04446,-0.146529,-0.40265,142.094,0.165563,
2,0,0,1,0,8602.04,0.163901,0.163601,-9.32689,7,0.0172935,10,-0.00152589,-2.03026,-0.138178,-0.426985,155.494,0.163601,
2,0,0,1,0,8602.05,0.161904,0.161605,-9.64229,7,0.0171986,10,-0.00155824,-2.01582,-0.133611,-0.44158,166.416,0.161605,
2,0,0,1,0,8602.06,0.159906,0.159593,-9.99394,7,0.0171004,10,-0.00159496,-2.00026,-0.12702,-0.464496,181.257,0.159593,
2,0,0,1,0,8602.07,0.157909,0.157622,-10.3641,7,0.0169986,10,-0.00163361,-1.98447,-0.12029,-0.490483,198.778,0.157622,
2,0,0,1,0,8602.08,0.155902,0.155614,-10.7848,7,0.0168928,10,-0.00167827,-1.96719,-0.114977,-0.513144,216.123,0.155614,
2,0,0,1,0,8602.09,0.153904,0.15361,-11.2313,7,0.0167826,10,-0.00172524,-1.94957,-0.112816,-0.522977,229.406,0.15361,
2,0,0,1,0,8602.1,0.151907,0.151592,-11.7074,7,0.0166679,10,-0.00177475,-1.93154,-0.108146,-0.54556,249.612,0.151592,
2,0,0,1,0,8602.11,0.149909,0.149609,-12.2299,7,0.0165482,10,-0.00182971,-1.91258,-0.102166,-0.577494,275.948,0.149609,
2,0,0,1,0,8602.12,0.147921,0.147646,-12.7964,7,0.0164242,10,-0.00188933,-1.89291,-0.103943,-0.567617,283.296,0.147646,
2,0,0,1,0,8602.13,0.145923,0.145606,-13.364,7,0.0162933,10,-0.00194587,-1.87406,-0.103729,-0.568789,297.169,0.145606,
2,0,0,1,0,8602.14,0.143926,0.14361,-13.9958,7,0.0161564,10,-0.00200993,-1.854,-0.100257,-0.588488,321.315,0.14361,
2,0,0,1,0,8602.15,0.141928,0.141647,-14.6361,7,0.0160132,10,-0.00207315,-1.83458,-0.102415,-0.576085,329.208,0.141647,
2,0,0,1,0,8602.16,0.139939,0.13962,-15.3092,7,0.0158649,10,-0.00213747,-1.81505,-0.104969,-0.562069,335.545,0.13962,
2,0,0,1,0,8602.17,0.137942,0.137651,-15.9769,7,0.0157084,10,-0.00219924,-1.79651,-0.107393,-0.549386,342.588,0.137651,
2,0,0,1,0,8602.18,0.135944,0.135658,-16.6666,7,0.0155451,10,-0.00226096,-1.77815,-0.114418,-0.515653,334.713,0.135658,
2,0,0,1,0,8602.19,0.133947,0.133682,-17.3052,7,0.015375,10,-0.0023134,-1.76182,-0.116687,-0.505624,342.039,0.1336824,
2,0,0,1,0,8602.2,0.13194,0.131708,-18.0177,7,0.0151985,10,-0.00237308,-1.7443,-0.118113,-0.499521,350.874,0.131708,
2,0,0,1,0,8602.21,0.129942,0.129679,-18.7098,7,0.0150147,10,-0.00242628,-1.72793,-0.127038,-0.464428,338.808,0.129679,
2,0,0,1,0,8602.22,0.127945,0.127674,-19.3843,7,0.0148241,10,-0.00247488,-1.71255,-0.138127,-0.427142,322.601,0.127674,
2,0,0,1,0,8602.23,0.125947,0.125652,-20.0091,7,0.014627,10,-0.00251418,-1.69877,-0.143198,-0.412017,321.818,0.125652,
2,0,0,1,0,8602.24,0.123941,0.12372,-20.657,7,0.0144236,10,-0.00255567,-1.68493,-0.154223,-0.382562,307.791,0.12372,
2,0,0,1,0,8602.25,0.121943,0.121673,-21.2337,7,0.014214,10,-0.00258357,-1.67297,-0.176767,-0.333772,276.324,0.121673,
2,0,0,1,0,8602.26,0.119945,0.119658,-21.7792,7,0.0139989,10,-0.00260606,-1.66196,-0.190386,-0.309897,263.126,0.119658,
2,0,0,1,0,8602.27,0.117948,0.11767,-22.287,7,0.0137784,10,-0.00262251,-1.65195,-0.200743,-0.293908,255.583,0.11767,
2,0,0,1,0,8602.28,0.115946,0.115693,-22.7928,7,0.0135529,10,-0.00263696,-1.6422,-0.222561,-0.265096,235.348,0.115693,
2,0,0,1,0,8602.29,0.113962,0.113726,-23.2152,7,0.013325,10,-0.00264017,-1.63423,-0.254474,-0.231851,210.01,0.113726,
2,0,0,1,0,8602.3,0.111964,0.111699,-23.6315,7,0.0130907,10,-0.00263961,-1.62651,-0.291702,-0.202261,186.218,0.111699,
2,0,0,1,0,8602.31,0.109967,0.109669,-23.9708,7,0.0128526,10,-0.00262884,-1.62032,-0.341778,-0.172627,161.378,0.109669,
2,0,0,1,0,8602.32,0.107969,0.107687,-24.2789,7,0.0126112,10,-0.00261453,-1.61477,-0.407404,-0.144819,137.008,0.107687,
2,0,0,1,0,8602.33,0.10598,0.105705,-24.5139,7,0.0123696,10,-0.00259123,-1.61059,-0.512617,-0.115096,110.04,0.105705,
2,0,0,1,0,8602.34,0.103983,0.103696,-24.7181,7,0.0121233,10,-0.00256317,-1.60699,-0.685265,-0.086098,82.9366,0.103696,
2,0,0,1,0,8602.35,0.101985,0.101629,-24.8519,7,0.0118754,10,-0.00252567,-1.60464,-1.14568,-0.0514977,49.8789,0.101629,
2,0,0,1,0,8602.36,0.0999877,0.0996861,-24.9181,7,0.0116265,10,-0.00248399,-1.60349,-2.21013,-0.0266953,25.9448,0.0996861,
2,0,0,1,0,8602.37,0.0979811,0.0976846,-24.9543,7,0.0113771,10,-0.00243765,-1.60286,-108.439,-0.000544087,0.529133,0.0976846,
2,0,0,1,0,8602.38,0.0959835,0.0956709,-24.9202,7,0.0111277,10,-0.00238414,-1.60345,1.5317,0.0385194,-37.4,0.0956709,
2,0,0,1,0,8602.39,0.0939859,0.0936502,-24.8034,7,0.010879,10,-0.00232284,-1.60549,0.880339,0.0670196,-64.8408,0.0936502,
2,0,0,1,0,8602.4,0.0919883,0.0916721,-24.6609,7,0.0106317,10,-0.00226072,-1.60799,0.643421,0.0916973,-88.1316,0.0916721,
2,0,0,1,0,8602.41,0.0899816,0.0896575,-24.4515,7,0.010386,10,-0.00219226,-1.61169,0.466391,0.126503,-120.558,0.0896575,
2,0,0,1,0,8602.42,0.087984,0.0876741,-24.1789,7,0.0101429,10,-0.00211987,-1.61656,0.37639,0.156752,-147.751,0.0876741,
2,0,0,1,0,8602.43,0.0859865,0.0856205,-23.855,7,0.0099027,10,-0.00204248,-1.62242,0.327608,0.180093,-167.578,0.0856205,
2,0,0,1,0,8602.44,0.0839889,0.0836797,-23.5096,7,0.00966591,10,-0.00196727,-1.62876,0.290103,0.203376,-186.421,0.0836797,
2,0,0,1,0,8602.45,0.0820004,0.0816945,-23.1231,7,0.00943509,10,-0.00188903,-1.63595,0.272836,0.216247,-195.113,0.0816945,
2,0,0,1,0,8602.46,0.0800028,0.0796998,-22.733,7,0.0092059,10,-0.00181182,-1.64334,0.257832,0.228831,-202.849,0.0796998,
2,0,0,1,0,8602.47,0.0780052,0.0776853,-22.3099,7,0.00898073,10,-0.00173315,-1.6515,0.253119,0.233092,-203.03,0.0776853,
2,0,0,1,0,8602.48,0.0760076,0.075643,-21.9094,7,0.00875972,10,-0.00165729,-1.65937,0.253815,0.232453,-198.756,0.075643,
2,0,0,1,0,8602.49,0.0740191,0.0736753,-21.5129,7,0.00854487,10,-0.00158497,-1.6673,0.257698,0.22895,-192.328,0.0736753,
2,0,0,1,0,8602.5,0.0720215,0.0716668,-21.1446,7,0.00833167,10,-0.00151537,-1.6748,0.260947,0.226099,-186.537,0.0716668,
2,0,0,1,0,8602.51,0.0700239,0.0697,-20.7713,7,0.00812214,10,-0.00144776,-1.68254,0.264625,0.222957,-180.855,0.0697,
2,0,0,1,0,8602.52,0.0680263,0.0677097,-20.429,7,0.00791625,10,-0.00138324,-1.68975,0.290031,0.203427,-162.312,0.0677097,
2,0,0,1,0,8602.53,0.0660197,0.065696,-20.1214,7,0.00771361,10,-0.0013219,-1.69634,0.309652,0.190536,-149.649,0.065696,
2,0,0,1,0,8602.54,0.0640221,0.0636658,-19.8238,7,0.00751397,10,-0.0012621,-1.70281,0.298223,0.197839,-153.012,0.06366577,
2,0,0,1,0,8602.55,0.0620245,0.0617449,-19.5168,7,0.00731726,10,-0.00120507,-1.70959,0.314287,0.187727,-143.142,0.0617449,
2,0,0,1,0,8602.56,0.0600269,0.0596895,-19.2547,7,0.00712342,10,-0.0011493,-1.71546,0.344599,0.171213,-128.678,0.0596895,
2,0,0,1,0,8602.57,0.0580248,0.0577348,-19.0008,7,0.00693217,10,-0.00109701,-1.72123,0.344296,0.171364,-127.084,0.0577348,
2,0,0,1,0,8602.58,0.0560227,0.0557359,-18.7522,7,0.00674343,10,-0.00104517,-1.72695,0.343573,0.171725,-125.655,0.05573586,
2,0,0,1,0,8602.59,0.0540251,0.0537473,-18.4998,7,0.00655715,10,-0.000994314,-1.73283,0.357078,0.16523,-119.368,0.0537473,
2,0,0,1,0,8602.6,0.0520275,0.0517154,-18.2723,7,0.00637332,10,-0.000944958,-1.73821,0.342639,0.172193,-122.649,0.0517154,
2,0,0,1,0,8602.61,0.0500299,0.0497069,-18.0042,7,0.00619188,10,-0.000894934,-1.74463,0.341315,0.172861,-121.61,0.0497069,
2,0,0,1,0,8602.62,0.0480414,0.0476896,-17.7827,7,0.00601473,10,-0.000848051,-1.75,0.345474,0.17078,-118.427,0.04768962,
2,0,0,1,0,8602.63,0.0460438,0.0457435,-17.5349,7,0.00583819,10,-0.000802106,-1.7561,0.310954,0.189738,-129.759,0.0457435,
2,0,0,1,0,8602.64,0.0440462,0.0437115,-17.2665,7,0.00566426,10,-0.000754745,-1.7628,0.294062,0.200638,-135.164,0.0437115,
2,0,0,1,0,8602.65,0.0420486,0.041724,-16.9916,7,0.005493,10,-0.000708957,-1.76977,0.293207,0.201223,-133.504,0.041724,
2,0,0,1,0,8602.66,0.0400601,0.0397407,-16.7364,7,0.00532611,10,-0.000665116,-1.77634,0.279232,0.211294,-137.822,0.0397407,
2,0,0,1,0,8602.67,0.0380625,0.0377122,-16.4387,7,0.00516023,10,-0.000619938,-1.78413,0.255035,0.23134,-148.408,0.0377122,
2,0,0,1,0,8602.68,0.036065,0.0357393,-16.1426,7,0.00499743,10,-0.000576924,-1.79203,0.241682,0.244122,-153.684,0.0357393,
2,0,0,1,0,8602.69,0.0340674,0.0337325,-15.827,7,0.00483759,10,-0.000533886,-1.8006,0.241075,0.244737,-151.278,0.0337325,
2,0,0,1,0,8602.7,0.0320607,0.0317448,-15.5383,7,0.0046808,10,-0.00049326,-1.8086,0.233436,0.252746,-153.082,0.0317448,
2,0,0,1,0,8602.71,0.0300631,0.0297398,-15.2158,7,0.00452707,10,-0.000452516,-1.8177,0.222534,0.265128,-157.521,0.0297398,
2,0,0,1,0,8602.72,0.0280655,0.0277773,-14.9133,7,0.00437649,10,-0.000414251,-1.82643,0.222849,0.264754,-154.03,0.0277773,
2,0,0,1,0,8602.73,0.0260679,0.025761,-14.603,7,0.00422889,10,-0.000376186,-1.83556,0.235606,0.250418,-142.897,0.025761,
2,0,0,1,0,8602.74,0.0240613,0.0237212,-14.3337,7,0.00408424,10,-0.000340013,-1.84364,0.241976,0.243826,-136.351,0.0237212,
2,0,0,1,0,8602.75,0.0220637,0.0217674,-14.0584,7,0.00394229,10,-0.000306015,-1.85206,0.248153,0.237756,-130.572,0.0217674,
2,0,0,1,0,8602.76,0.0200661,0.0197363,-13.8134,7,0.00380299,10,-0.000272626,-1.8597,0.257563,0.22907,-123.465,0.0197363,
2,0,0,1,0,8602.77,0.0180685,0.0177755,-13.5656,7,0.00366605,10,-0.000241135,-1.86756,0.293125,0.201279,-106.841,0.0177755,
2,0,0,1,0,8602.78,0.01608,0.0157836,-13.3911,7,0.00353274,10,-0.000211359,-1.87318,0.330093,0.178738,-93.3188,0.0157836,
2,0,0,1,0,8602.79,0.0140824,0.013773,-13.1921,7,0.00339986,10,-0.000181695,-1.87969,0.334113,0.176587,-91.0289,0.013773,
2,0,0,1,0,8602.8,0.0120848,0.0117927,-13.0278,7,0.00326881,10,-0.000153633,-1.88513,0.372619,0.158339,-80.5177,0.0117927,
2,0,0,1,0,8602.81,0.0100872,0.00976153,-12.8691,7,0.00313938,10,-0.000125622,-1.89045,0.433432,0.136123,-68.4828,0.00976153,
2,0,0,1,0,8602.82,0.00810328,0.00781195,-12.7552,7,0.00301264,10,-9.96428e-05,-1.89431,0.516085,0.114322,-56.9115,0.00781195,
2,0,0,1,0,8602.83,0.00610116,0.00579043,-12.6431,7,0.00288558,10,-7.32088e-05,-1.89815,0.574081,0.102773,-50.75,0.00579043,
2,0,0,1,0,8602.84,0.00410357,0.0037958,-12.5514,7,0.00275969,10,-4.76425e-05,-1.90131,0.985433,0.0598722,-29.4046,0.0037958,
2,0,0,1,0,8602.85,0.00210598,0.00179424,-12.5256,7,0.00263454,10,-2.24738e-05,-1.9022,1.19846,0.04923,-24.0209,0.00179424,
2,0,0,1,0,8602.86,0.00010174,-0.000269797,-12.4537,7,0.00250967,10,3.35997e-06,-1.9047,0.819924,0.0719579,-34.9763,-0.000269797,
2,0,0,1,0,8602.87,-0.00189827,-0.00225228,-12.384,7,0.00238539,10,2.78923e-05,-1.90714,1.06894,0.0551946,-26.7117,-0.00225228,
2,0,0,1,0,8602.88,-0.00389586,-0.00424517,-12.3475,7,0.00226176,10,5.24173e-05,-1.90842,1.55154,0.0380268,-18.3246,-0.00424517,
2,0,0,1,0,8602.89,-0.00589345,-0.00623198,-12.3111,7,0.00213844,10,7.67226e-05,-1.9097,1.75574,0.0336041,-16.1512,-0.00623198,
2,0,0,1,0,8602.9,-0.00789103,-0.00821446,-12.2834,7,0.00201547,10,0.000100902,-1.91068,3.89086,0.0151637,-7.27696,-0.00821446,
2,0,0,1,0,8602.91,-0.0098977,-0.0102525,-12.2818,7,0.00189255,10,0.000125919,-1.91074,-9.5591,-0.00617213,2.96026,-0.0102525,
2,0,0,1,0,8602.92,-0.0118953,-0.0122627,-12.2954,7,0.00176966,10,0.000150775,-1.91026,-39.1892,-0.00150552,0.721712,-0.01226271,
2,0,0,1,0,8602.93,-0.0138929,-0.0142582,-12.2847,7,0.00164667,10,0.000175158,-1.91063,-15.6956,-0.00375901,1.80429,-0.0142582,
2,0,0,1,0,8602.94,-0.0158905,-0.016252,-12.3026,7,0.00152375,10,0.000199941,-1.91,-2.01573,-0.0292697,14.0648,-0.016252,
2,0,0,1,0,8602.95,-0.017879,-0.0182324,-12.3406,7,0.00140168,10,0.000225,-1.90866,-1.78118,-0.0331241,15.9451,-0.0182324,
2,0,0,1,0,8602.96,-0.0198766,-0.0202485,-12.3663,7,0.00127818,10,0.0002504,-1.90776,-2.35912,-0.0250093,12.0685,-0.0202485,
2,0,0,1,0,8602.97,-0.0218741,-0.02224,-12.389,7,0.0011544,10,0.000275531,-1.90696,-1.47389,-0.0400302,19.3789,-0.02224,
2,0,0,1,0,8602.98,-0.0238717,-0.0241877,-12.4427,7,0.00103028,10,0.000300959,-1.90509,-1.12832,-0.0522901,25.3854,-0.02418766,
2,0,0,1,0,8602.99,-0.0258602,-0.0262199,-12.49,7,0.000906822,10,0.000327487,-1.90344,-1.27194,-0.0463858,22.6067,-0.0262199,
2,0,0,1,0,8603,-0.0278578,-0.0281928,-12.5332,7,0.000781767,10,0.000353346,-1.90194,-1.2561,-0.0469709,22.9799,-0.02819282,
2,0,0,1,0,8603.01,-0.0298554,-0.0302187,-12.5819,7,0.000656143,10,0.000380209,-1.90025,-1.11718,-0.0528117,25.9386,-0.0302187,
2,0,0,1,0,8603.02,-0.031853,-0.0321925,-12.6369,7,0.000530035,10,0.000406815,-1.89836,-1.0435,-0.0565406,27.8864,-0.0321925,
2,0,0,1,0,8603.03,-0.0338597,-0.0342261,-12.6937,7,0.000403279,10,0.000434456,-1.89641,-0.942766,-0.0625818,31.0153,-0.0342261,
2,0,0,1,0,8603.04,-0.0358573,-0.0361904,-12.7609,7,0.000275987,10,0.000461824,-1.89412,-0.861255,-0.0685047,34.1179,-0.0361904,
2,0,0,1,0,8603.05,-0.0378548,-0.0382033,-12.8294,7,0.00014792,10,0.000490124,-1.89179,-0.958725,-0.0615401,30.797,-0.0382033,
2,0,0,1,0,8603.06,-0.0398524,-0.0402204,-12.8851,7,1.93158e-05,10,0.000518242,-1.88991,-0.814962,-0.072396,36.4548,-0.0402204,
2,0,0,1,0,8603.07,-0.0418591,-0.0422272,-12.9761,7,-0.000110002,10,0.000547943,-1.88686,-0.742395,-0.0794725,40.2147,-0.0422272,
2,0,0,1,0,8603.08,-0.0438567,-0.0442513,-13.0472,7,-0.000240097,10,0.000577354,-1.88448,-0.910896,-0.0647714,32.9672,-0.0442513,
2,0,0,1,0,8603.09,-0.0458543,-0.0462173,-13.1076,7,-0.000370951,10,0.000605799,-1.88248,-0.876385,-0.067322,34.4575,-0.0462173,
2,0,0,1,0,8603.1,-0.0478519,-0.0481868,-13.1828,7,-0.000502433,10,0.000635235,-1.87999,-0.698598,-0.0844549,43.4878,-0.0481868,
2,0,0,1,0,8603.11,-0.0498585,-0.0502031,-13.2809,7,-0.0006348,10,0.000666744,-1.87677,-0.662887,-0.0890046,46.1124,-0.0502031,
2,0,0,1,0,8603.12,-0.051838,-0.0522063,-13.3681,7,-0.000766717,10,0.000697899,-1.87393,-0.758814,-0.0777529,40.5416,-0.0522063,
2,0,0,1,0,8603.13,-0.0538355,-0.0541325,-13.4402,7,-0.000900744,10,0.000727554,-1.87159,-0.735253,-0.0802445,42.1269,-0.0541325,
2,0,0,1,0,8603.14,-0.0558331,-0.0561884,-13.5359,7,-0.00103559,10,0.000760558,-1.86851,-0.699897,-0.0842981,44.5126,-0.0561884,
2,0,0,1,0,8603.15,-0.0578126,-0.058179,-13.6204,7,-0.00117,10,0.000792419,-1.86581,-0.704743,-0.0837185,44.5144,-0.05817901,
2,0,0,1,0,8603.16,-0.0598192,-0.0601728,-13.7132,7,-0.00130667,10,0.000825163,-1.86286,-0.667548,-0.0883831,47.3087,-0.06017277,
2,0,0,1,0,8603.17,-0.0618168,-0.0622056,-13.8109,7,-0.00144429,10,0.000859112,-1.85978,-0.621961,-0.0948613,51.1463,-0.0622056,
2,0,0,1,0,8603.18,-0.0638144,-0.0641759,-13.918,7,-0.00158292,10,0.000893198,-1.85642,-0.656722,-0.0898401,48.7641,-0.0641759,
2,0,0,1,0,8603.19,-0.065812,-0.0662009,-14.0057,7,-0.00172255,10,0.000927189,-1.8537,-0.626875,-0.0941176,51.5014,-0.06620089,
2,0,0,1,0,8603.2,-0.0678187,-0.0681938,-14.1249,7,-0.00186321,10,0.00096323,-1.85001,-0.58968,-0.100054,55.116,-0.0681938,
2,0,0,1,0,8603.21,-0.0698162,-0.0701745,-14.2247,7,-0.00200501,10,0.000998211,-1.84696,-0.601111,-0.0981516,54.5203,-0.0701745,
2,0,0,1,0,8603.22,-0.0718138,-0.07217,-14.3417,7,-0.00214786,10,0.00103504,-1.8434,-0.580495,-0.101637,56.8701,-0.07217,
2,0,0,1,0,8603.23,-0.0738114,-0.0741438,-14.4504,7,-0.00229184,10,0.00107141,-1.84012,-0.513434,-0.114913,64.896,-0.07414382,
2,0,0,1,0,8603.24,-0.0758181,-0.0761549,-14.6003,7,-0.00243713,10,0.00111188,-1.83564,-0.5231,-0.112789,64.1741,-0.0761549,
2,0,0,1,0,8603.25,-0.0778157,-0.0781634,-14.7084,7,-0.00258373,10,0.00114966,-1.83244,-0.565376,-0.104355,59.9528,-0.0781634,
2,0,0,1,0,8603.26,-0.0798133,-0.0801858,-14.8419,7,-0.00273148,10,0.00119011,-1.82851,-0.503187,-0.117253,67.9247,-0.0801858,
2,0,0,1,0,8603.27,-0.0818109,-0.0821596,-14.9798,7,-0.00288066,10,0.00123074,-1.82449,-0.468074,-0.126048,73.7385,-0.0821596,
2,0,0,1,0,8603.28,-0.0837994,-0.084207,-15.1385,7,-0.00302974,10,0.00127476,-1.81992,-0.472719,-0.12481,73.6793,-0.084207,
2,0,0,1,0,8603.29,-0.0857969,-0.0861491,-15.2738,7,-0.0031818,10,0.00131582,-1.81605,-0.45828,-0.128742,76.8182,-0.0861491,
2,0,0,1,0,8603.3,-0.0877945,-0.0881389,-15.4405,7,-0.00333533,10,0.00136091,-1.81134,-0.440988,-0.133791,80.5897,-0.0881389,
2,0,0,1,0,8603.31,-0.0897921,-0.0901503,-15.5962,7,-0.00349053,10,0.001406,-1.80698,-0.452011,-0.130528,79.4588,-0.0901503,
2,0,0,1,0,8603.32,-0.0917806,-0.0921223,-15.757,7,-0.00364565,10,0.00145157,-1.80253,-0.434131,-0.135904,83.5927,-0.0921223,
2,0,0,1,0,8603.33,-0.0937782,-0.0940979,-15.9262,7,-0.00380412,10,0.00149862,-1.79789,-0.440516,-0.133934,83.2373,-0.0940979,
2,0,0,1,0,8603.34,-0.0957758,-0.0961593,-16.0931,7,-0.0039642,10,0.0015475,-1.79336,-0.447178,-0.131939,82.858,-0.0961593,
2,0,0,1,0,8603.35,-0.0977734,-0.0981036,-16.2581,7,-0.00412601,10,0.00159498,-1.78893,-0.410702,-0.143657,91.2203,-0.0981036,
2,0,0,1,0,8603.36,-0.0997412,-0.100065,-16.4493,7,-0.00428623,10,0.001646,-1.78385,0.0975587,0.604764,-374.859,-0.100065,
2,0,0,1,1,8603.36,-0.0996711,-0.100092,-15.5127,7,-0.00433441,10,0.0015527,-1.80931,-0.0108212,-5.45227,2847.13,-0.100092,
2,0,0,1,1,8603.37,-0.0976826,-0.0980524,-10.7191,7,-0.00446218,10,0.00105103,-1.96984,-0.0119355,-4.94322,2080.34,-0.0980524,
2,0,0,1,1,8603.38,-0.095685,-0.0960626,-7.12975,7,-0.00455029,10,0.000684902,-2.14693,-0.00996428,-5.92115,1618.15,-0.0960626,
2,0,0,1,1,8603.39,-0.0936874,-0.0940632,-4.26385,7,-0.0046064,10,0.000401072,-2.3702,-0.00708872,-8.32309,1297.32,-0.0940632,
2,0,0,1,1,8603.4,-0.0916898,-0.0920686,-1.94823,7,-0.0046368,10,0.000179371,-2.71036,-0.00202682,-29.1096,1069.94,-0.09206856,
2,0,0,1,1,8603.41,-0.0897013,-0.0901234,-0.0485259,7,-0.00464611,10,4.37332e-06,-4.31403,-0.039265,-1.50261,872.569,-0.0901234,
2,1,0,1,1,8603.42,-0.0877037,-0.0880698,1.54099,7,-0.0046382,10,-0.000135715,-2.8122,0.00226834,26.0102,732.958,-0.0880698,
2,1,0,1,1,8603.43,-0.0857062,-0.0860916,2.90659,7,-0.00461557,10,-0.000250233,-2.53662,0.00954303,6.18252,623.33,-0.0860916,
2,1,0,1,1,8603.44,-0.0837086,-0.0841013,4.01463,7,-0.00458065,10,-0.000337636,-2.39635,0.0170333,3.46381,521.411,-0.0841013,
2,1,0,1,1,8603.45,-0.0817019,-0.0820859,4.99522,7,-0.00453534,10,-0.000410037,-2.30145,0.0245659,2.40171,455.927,-0.0820859,
2,1,0,1,1,8603.46,-0.0797043,-0.0801286,5.82592,7,-0.00448104,10,-0.000466823,-2.23464,0.0341526,1.72754,386.667,-0.0801286,
2,1,0,1,1,8603.47,-0.0777067,-0.0780784,6.54478,7,-0.00441901,10,-0.000511006,-2.1841,0.0453401,1.30128,328.223,-0.0780784,
2,1,0,1,1,8603.48,-0.0757091,-0.0761098,7.14497,7,-0.0043504,10,-0.000543802,-2.146,0.0563076,1.04782,290.825,-0.0761098,
2,1,0,1,1,8603.49,-0.0737025,-0.0740692,7.71076,7,-0.00427595,10,-0.00057113,-2.1129,0.070257,0.839773,250.343,-0.0740692,
2,1,0,1,1,8603.5,-0.0717049,-0.0720781,8.15429,7,-0.00419651,10,-0.000587745,-2.08861,0.0890856,0.662285,210.003,-0.0720781,
2,1,0,1,1,8603.51,-0.0697073,-0.0700557,8.55362,7,-0.00411288,10,-0.000599229,-2.06785,0.108962,0.541474,179.926,-0.0700557,
2,1,0,1,1,8603.52,-0.0677097,-0.0680177,8.88486,7,-0.00402561,10,-0.000604327,-2.05135,0.126544,0.466241,161.393,-0.0680177,
2,1,0,1,1,8603.53,-0.0657212,-0.0660907,9.19353,7,-0.00393606,10,-0.000607607,-2.03652,0.153831,0.383539,137.002,-0.0660907,
2,1,0,1,1,8603.54,-0.0637236,-0.0640675,9.42604,7,-0.00384287,10,-0.000603903,-2.02567,0.183768,0.321057,118.142,-0.0640675,
2,1,0,1,1,8603.55,-0.061726,-0.0620736,9.66812,7,-0.00374732,10,-0.000600135,-2.01466,0.208101,0.283516,106.648,-0.0620736,
2,1,0,1,1,8603.56,-0.0597284,-0.0600535,9.85412,7,-0.00364966,10,-0.000591775,-2.00638,0.253363,0.232867,89.486,-0.0600535,
2,1,0,1,1,8603.57,-0.0577399,-0.0580619,10.0271,7,-0.00355128,10,-0.000582193,-1.99882,0.297504,0.198317,77.4491,-0.0580619,
2,1,0,1,1,8603.58,-0.0557423,-0.0560916,10.161,7,-0.00345027,10,-0.000569945,-1.99306,0.339639,0.173714,68.9074,-0.0560916,
2,1,0,1,1,8603.59,-0.0537447,-0.0540692,10.3022,7,-0.00334794,10,-0.000557034,-1.98707,0.426319,0.138394,55.4765,-0.0540692,
2,1,0,1,1,8603.6,-0.0517472,-0.0520971,10.3826,7,-0.00324446,10,-0.000540902,-1.9837,0.494123,0.119403,48.455,-0.0520971,
2,1,0,1,1,8603.61,-0.049745,-0.0500964,10.4947,7,-0.00314009,10,-0.000525749,-1.97903,0.508772,0.115966,47.4228,-0.0500964,
2,1,0,1,1,8603.62,-0.0477429,-0.0480436,10.5748,7,-0.00303469,10,-0.000508052,-1.97573,0.642564,0.0918197,37.8765,-0.0480436,
2,1,0,1,1,8603.63,-0.0457453,-0.0461193,10.6454,7,-0.00292857,10,-0.000490957,-1.97284,0.875667,0.0673772,27.9511,-0.0461193,
2,1,0,1,1,8603.64,-0.0437477,-0.0441064,10.6848,7,-0.00282195,10,-0.000471271,-1.97123,1.02008,0.0578388,24.1398,-0.04410645,
2,1,0,1,1,8603.65,-0.0417501,-0.0420641,10.7433,7,-0.00271478,10,-0.000451906,-1.96886,1.0848,0.054388,22.7765,-0.0420641,
2,1,0,1,1,8603.66,-0.0397435,-0.0400929,10.7763,7,-0.00260707,10,-0.000432051,-1.96753,1.38603,0.0425676,17.9067,-0.0400929,
2,1,0,1,1,8603.67,-0.0377459,-0.0380844,10.8145,7,-0.00249913,10,-0.000411865,-1.96599,1.94867,0.0302771,12.7637,-0.0380844,
2,1,0,1,1,8603.68,-0.0357483,-0.0360837,10.8274,7,-0.00239097,10,-0.000390694,-1.96547,2.61525,0.02256,9.53833,-0.0360837,
2,1,0,1,1,8603.69,-0.0337507,-0.0340986,10.8526,7,-0.00228256,10,-0.000370057,-1.96447,3.92511,0.0150314,6.35914,-0.03409861,
2,1,0,1,1,8603.7,-0.0317622,-0.0320866,10.8528,7,-0.00217506,10,-0.000348231,-1.96446,4.45201,0.0132524,5.61877,-0.0320866,
2,1,0,1,1,8603.71,-0.0297646,-0.0300936,10.8751,7,-0.00206641,10,-0.00032727,-1.96357,7.4484,0.00792116,3.35708,-0.0300936,
2,1,0,1,1,8603.72,-0.027767,-0.0281276,10.8661,7,-0.00195774,10,-0.000305638,-1.96392,-9.61695,-0.006135,-2.60257,-0.0281276,
2,1,0,1,1,8603.73,-0.0257694,-0.026102,10.8647,7,-0.00184912,10,-0.000283589,-1.96398,-16.9408,-0.00348271,-1.47652,-0.026102,
2,1,0,1,1,8603.74,-0.0237809,-0.0241255,10.8602,7,-0.0017416,10,-0.000262008,-1.96416,-13.9839,-0.00421915,-1.78839,-0.0241255,
2,1,0,1,1,8603.75,-0.0217833,-0.0221005,10.8575,7,-0.001633,10,-0.000239956,-1.96427,-3.20063,-0.0184339,-7.8018,-0.0221005,
2,1,0,1,1,8603.76,-0.0197858,-0.0201215,10.829,7,-0.0015245,10,-0.000217895,-1.96541,-3.23212,-0.0182543,-7.72398,-0.0201215,
2,1,0,1,1,8603.77,-0.0177882,-0.0181086,10.8267,7,-0.00141622,10,-0.000196056,-1.9655,-6.40259,-0.00921503,-3.89167,-0.0181086,
2,1,0,1,1,8603.78,-0.0157815,-0.0161175,10.8134,7,-0.00130802,10,-0.000174285,-1.96604,-3.28541,-0.0179582,-7.57724,-0.0161175,
2,1,0,1,1,8603.79,-0.0137839,-0.0140986,10.7963,7,-0.00119996,10,-0.000152212,-1.96673,-2.03143,-0.0290436,-12.2292,-0.0140986,
2,1,0,1,1,8603.8,-0.0117863,-0.0121352,10.7647,7,-0.00109217,10,-0.000130632,-1.968,-2.70462,-0.0218145,-9.17595,-0.0121352,
2,1,0,1,1,8603.81,-0.00978874,-0.0101319,10.7599,7,-0.000984552,10,-0.000109018,-1.96819,-3.8735,-0.0152317,-6.39148,-0.0101319,
2,1,0,1,1,8603.82,-0.00778207,-0.0081546,10.7393,7,-0.00087707,10,-8.75744e-05,-1.96903,-2.12014,-0.0278284,-11.6606,-0.0081546,
2,1,0,1,1,8603.83,-0.00578449,-0.0061513,10.7135,7,-0.000769836,10,-6.59018e-05,-1.97007,-1.76741,-0.0333821,-13.9548,-0.0061513,
2,1,0,1,1,8603.84,-0.0037869,-0.00416968,10.6837,7,-0.00066286,10,-4.45475e-05,-1.97128,-2.14723,-0.0274772,-11.4641,-0.00416968,
2,1,0,1,1,8603.85,-0.00178931,-0.00216812,10.6678,7,-0.000556093,10,-2.31291e-05,-1.97192,-1.52915,-0.0385836,-16.043,-0.00216812,
2,1,0,1,1,8603.86,-2.55332e-05,-0.000497109,10.6247,7,-0.000463452,10,-5.28166e-06,-1.97368, , , ,-0.000497109,