File: Figure_codes/Fig_3-5/rawdata_trumpetplot_data/before 10th/20221101_1-115_002_TrumpetPlot_ParaChange_06_CV_C01_2.csv
mode,ox/red,error,control changes,counter inc.,time/s,control/V,Ewe/V,<I>/mA,cycle number,(Q-Qo)/C,I Range,P/W,log(|I|),Tafel slope mV/dec,alpha_eff,dI/d(E-IR),E-IR/V,
2,0,0,1,0,3542.24,2.44065e-05,-0.0002108,-0.526313,3,0.0000000E+000,11,1.10947e-07,-3.27876, , , ,-0.0002108,
2,1,0,1,0,3542.37,0.00129787,0.000948225,0.298,3,1.68354e-05,11,2.82571e-07,-3.52578, , , ,0.000948225,
2,1,0,1,0,3542.52,0.00279606,0.0025102,0.358909,3,6.95402e-05,11,9.00935e-07,-3.44502,0.0195354,3.02017,35.2627,0.0025102,
2,1,0,1,0,3542.67,0.00429425,0.00400856,0.368849,3,0.000125769,11,1.47855e-06,-3.43315,0.1142,0.516638,7.5761,0.00400856,
2,1,0,1,0,3542.82,0.00579244,0.00551964,0.382431,3,0.00018436,11,2.11088e-06,-3.41745,0.0844682,0.698488,10.4315,0.00551964,
2,1,0,1,0,3542.97,0.00729063,0.00701587,0.401329,3,0.000245366,11,2.81567e-06,-3.3965,0.110098,0.535887,8.2994,0.00701587,
2,1,0,1,0,3543.12,0.00878882,0.00850468,0.41347,3,0.000308381,11,3.51643e-06,-3.38356,0.136456,0.432374,6.91317,0.00850468,
2,1,0,1,0,3543.27,0.010287,0.0100444,0.423367,3,0.000373051,11,4.25247e-06,-3.37328,0.209835,0.281173,4.60615,0.01004439,
2,1,0,1,0,3543.42,0.0117852,0.0114791,0.429872,3,0.000439026,11,4.93456e-06,-3.36666,0.197998,0.297983,5.00287,0.0114791,
2,1,0,1,0,3543.57,0.0132838,0.0129706,0.438949,3,0.00050603,11,5.69342e-06,-3.35759,0.172286,0.342454,5.89689,0.0129706,
2,1,0,1,0,3543.72,0.0147814,0.0144682,0.444774,3,0.000574263,11,6.43508e-06,-3.35186,0.200152,0.294776,5.12469,0.0144682,
2,1,0,1,0,3543.87,0.0162789,0.0160007,0.450002,3,0.000643774,11,7.20036e-06,-3.34679,0.35581,0.165819,2.90666,0.0160007,
2,1,0,1,0,3544.02,0.017778,0.0175075,0.456956,3,0.000714016,11,8.00017e-06,-3.34013,0.259036,0.227768,4.06661,0.0175075,
2,1,0,1,0,3544.17,0.0192761,0.0189868,0.461972,3,0.000784576,11,8.77137e-06,-3.33538,0.329986,0.178795,3.21531,0.0189868,
2,1,0,1,0,3544.32,0.0207743,0.0204799,0.46577,3,0.00085624,11,9.53891e-06,-3.33183,0.270737,0.217924,3.95055,0.0204799,
2,1,0,1,0,3544.47,0.0222725,0.0219867,0.470828,3,0.000928682,11,1.0352e-05,-3.32714,0.363632,0.162252,2.98186,0.0219867,
2,1,0,1,0,3544.62,0.0237707,0.023519,0.476132,3,0.0010018,11,1.11981e-05,-3.32227,0.433013,0.136255,2.53616,0.023519,
2,1,0,1,0,3544.77,0.0252689,0.0249813,0.478546,3,0.00107528,11,1.19547e-05,-3.32008,0.357771,0.16491,3.10608,0.0249813,
2,1,0,1,0,3544.92,0.0267671,0.0264531,0.483619,3,0.00114961,11,1.27932e-05,-3.3155,0.257382,0.229231,4.32351,0.0264531,
2,1,0,1,0,3545.07,0.0282662,0.0279607,0.490253,3,0.00122488,11,1.37078e-05,-3.30958,0.362465,0.162774,3.1067,0.02796072,
2,1,0,1,0,3545.22,0.0297635,0.029467,0.494202,3,0.00130063,11,1.45627e-05,-3.3061,0.379708,0.155382,2.99421,0.029467,
2,1,0,1,0,3545.37,0.031261,0.0309623,0.493032,3,0.00137688,11,1.52654e-05,-3.30712,0.391731,0.150613,2.92224,0.0309623,
2,1,0,1,0,3545.52,0.0327598,0.032455,0.502739,3,0.00145381,11,1.63164e-05,-3.29866,0.317638,0.185746,3.63841,0.03245502,
2,1,0,1,0,3545.67,0.034258,0.0339714,0.507705,3,0.00153143,11,1.72475e-05,-3.29439,0.353444,0.166929,3.30284,0.0339714,
2,1,0,1,0,3545.82,0.0357562,0.0354835,0.512683,3,0.00160987,11,1.81918e-05,-3.29015,0.431782,0.136643,2.71317,0.0354835,
2,1,0,1,0,3545.97,0.0372544,0.0369501,0.517966,3,0.00168901,11,1.91389e-05,-3.2857,0.43346,0.136114,2.74946,0.0369501,
2,1,0,1,0,3546.12,0.0387526,0.0384739,0.521583,3,0.00176859,11,2.00673e-05,-3.28268,0.27489,0.214631,4.3755,0.0384739,
2,1,0,1,0,3546.27,0.0402508,0.0399659,0.528008,3,0.00184929,11,2.11023e-05,-3.27736,0.321713,0.183393,3.78293,0.0399659,
2,1,0,1,0,3546.42,0.041749,0.0414907,0.534227,3,0.00193102,11,2.21655e-05,-3.27227,0.527473,0.111854,2.32333,0.0414907,
2,1,0,1,0,3546.57,0.0432472,0.042987,0.541451,3,0.00201346,11,2.32753e-05,-3.26644,0.360577,0.163626,3.44796,0.042987,
2,1,0,1,0,3546.72,0.0447458,0.0444615,0.544917,3,0.0020965,11,2.42278e-05,-3.26367,0.242829,0.242969,5.179,0.0444615,
2,1,0,1,0,3546.87,0.0462433,0.0459626,0.552401,3,0.0021808,11,2.53898e-05,-3.25775,0.250725,0.235318,5.07163,0.0459626,
2,1,0,1,0,3547.02,0.0477409,0.0474544,0.55912,3,0.00226624,11,2.65327e-05,-3.25249,0.244258,0.241548,5.28729,0.0474544,
2,1,0,1,0,3547.17,0.0492399,0.0489836,0.566387,3,0.00235278,11,2.77436e-05,-3.24689,0.260221,0.22673,5.03662,0.0489836,
2,1,0,1,0,3547.32,0.0507381,0.0504332,0.572055,3,0.0024402,11,2.88505e-05,-3.24256,0.23965,0.246193,5.53805,0.0504332,
2,1,0,1,0,3547.47,0.0522363,0.0518827,0.584814,3,0.00252916,11,3.03417e-05,-3.23298,0.202171,0.291832,6.63656,0.0518827,
2,1,0,1,0,3547.62,0.0537345,0.053432,0.59675,3,0.00261956,11,3.18855e-05,-3.22421,0.225378,0.261782,6.06314,0.05343198,
2,1,0,1,0,3547.77,0.0552327,0.0549059,0.60357,3,0.00271137,11,3.31396e-05,-3.21927,0.237421,0.248504,5.84484,0.0549059,
2,1,0,1,0,3547.91,0.0567309,0.056452,0.60906,3,0.00280445,11,3.43827e-05,-3.21534,0.20862,0.282811,6.7787,0.056452,
2,1,0,1,0,3548.06,0.0582291,0.0579705,0.626435,3,0.00289904,11,3.63147e-05,-3.20312,0.203253,0.290279,7.07288,0.0579705,
2,1,0,1,0,3548.21,0.0597282,0.0594593,0.635216,3,0.00299547,11,3.77695e-05,-3.19708,0.188319,0.313298,7.76319,0.0594593,
2,1,0,1,0,3548.36,0.0612255,0.0609788,0.645487,3,0.00309356,11,3.9361e-05,-3.19011,0.229674,0.256886,6.47709,0.0609788,
2,1,0,1,0,3548.51,0.062723,0.0624671,0.658113,3,0.00319334,11,4.11104e-05,-3.1817,0.185974,0.317248,8.15697,0.0624671,
2,1,0,1,0,3548.66,0.0642218,0.0639798,0.671537,3,0.00329479,11,4.29648e-05,-3.17293,0.166726,0.353873,9.29759,0.0639798,
2,1,0,1,0,3548.81,0.06572,0.065422,0.683735,3,0.00339828,11,4.47313e-05,-3.16511,0.174541,0.33803,9.01912,0.065422,
2,1,0,1,0,3548.96,0.0672182,0.0669384,0.699277,3,0.00350408,11,4.68084e-05,-3.15535,0.180265,0.327297,8.88696,0.0669384,
2,1,0,1,0,3549.11,0.0687164,0.0684664,0.711475,3,0.00361164,11,4.87121e-05,-3.14784,0.203209,0.290342,8.04153,0.0684664,
2,1,0,1,0,3549.26,0.0702146,0.0699478,0.723986,3,0.00372086,11,5.06412e-05,-3.14027,0.186098,0.317037,8.95807,0.0699478,
2,1,0,1,0,3549.41,0.0717128,0.0713984,0.736849,3,0.00383223,11,5.26098e-05,-3.13262,0.167159,0.352958,10.1288,0.0713984,
2,1,0,1,0,3549.56,0.073211,0.0728809,0.751065,3,0.00394585,11,5.47383e-05,-3.12432,0.185447,0.318149,9.35018,0.0728809,
2,1,0,1,0,3549.71,0.0747092,0.0744333,0.766537,3,0.00406158,11,5.70559e-05,-3.11547,0.190277,0.310074,9.25427,0.0744333,
2,1,0,1,0,3549.86,0.0762078,0.0759075,0.774893,3,0.00417911,11,5.88202e-05,-3.11076,0.197032,0.299444,9.10146,0.0759075,
2,1,0,1,0,3550.01,0.0777053,0.0774226,0.791653,3,0.00429867,11,6.12919e-05,-3.10147,0.17981,0.328124,10.1242,0.0774226,
2,1,0,1,0,3550.16,0.0792029,0.0789217,0.809768,3,0.00442043,11,6.39083e-05,-3.09164,0.200694,0.293979,9.22032,0.0789217,
2,1,0,1,0,3550.31,0.0807019,0.0804045,0.819288,3,0.00454435,11,6.58744e-05,-3.08656,0.245744,0.240088,7.63805,0.0804045,
2,1,0,1,0,3550.46,0.0822001,0.0819177,0.827376,3,0.00466997,11,6.77767e-05,-3.0823,0.21766,0.271065,8.78504,0.0819177,
2,1,0,1,0,3550.61,0.0836983,0.0834076,0.841151,3,0.00479717,11,7.01583e-05,-3.07513,0.265965,0.221833,7.30248,0.0834076,
2,1,0,1,0,3550.76,0.0851965,0.0849197,0.855222,3,0.0049266,11,7.26252e-05,-3.06792,0.248979,0.236968,7.93096,0.0849197,
2,1,0,1,0,3550.91,0.0866947,0.0863735,0.866931,3,0.00505778,11,7.48799e-05,-3.06202,0.317721,0.185697,6.27786,0.0863735,
2,1,0,1,0,3551.06,0.0881929,0.0879238,0.881568,3,0.00519089,11,7.75108e-05,-3.05474,0.291535,0.202377,6.95753,0.0879238,
2,1,0,1,0,3551.21,0.0896911,0.0894073,0.892246,3,0.0053252,11,7.97734e-05,-3.04952,0.251692,0.234413,8.16802,0.0894073,
2,1,0,1,0,3551.36,0.0911902,0.0909005,0.907771,3,0.00546185,11,8.25168e-05,-3.04202,0.232597,0.253658,8.91783,0.0909005,
2,1,0,1,0,3551.51,0.0926875,0.0923997,0.917286,3,0.00560052,11,8.4757e-05,-3.0375,0.261074,0.225989,8.06979,0.0923997,
2,1,0,1,0,3551.66,0.094185,0.0938806,0.928398,3,0.0057407,11,8.71585e-05,-3.03227,0.297583,0.198264,7.19521,0.0938806,
2,1,0,1,0,3551.81,0.0956838,0.0954007,0.936646,3,0.00588246,11,8.93567e-05,-3.02842,0.24944,0.23653,8.68147,0.0954007,
2,1,0,1,0,3551.96,0.097182,0.0969023,0.952048,3,0.00602623,11,9.22557e-05,-3.02134,0.208089,0.283533,10.5464,0.0969023,
2,1,0,1,0,3552.11,0.0986802,0.0983932,0.96395,3,0.00617193,11,9.48461e-05,-3.01595,0.252122,0.234014,8.8281,0.0983932,
2,1,0,1,0,3552.26,0.100178,0.0998979,0.979573,3,0.0063199,11,9.78573e-05,-3.00896,0.240057,0.245775,9.39219,0.0998979,
2,1,0,1,0,3552.41,0.101677,0.101393,0.989408,3,0.00646958,11,0.000100319,-3.00462,0.232939,0.253286,9.84965,0.1013931,
2,1,0,1,0,3552.56,0.103175,0.102902,1.01112,3,0.00662153,11,0.000104046,-2.9952,0.204728,0.288187,11.3922,0.102902,
2,1,0,1,0,3552.71,0.104673,0.104371,1.0311,3,0.00677632,11,0.000107617,-2.9867,0.189786,0.310876,12.4658,0.104371,
2,1,0,1,0,3552.86,0.106171,0.105885,1.04811,3,0.00693409,11,0.000110979,-2.97959,0.192064,0.307189,12.528,0.105885,
2,1,0,1,0,3553.01,0.10767,0.107366,1.06745,3,0.0070946,11,0.000114608,-2.97165,0.16828,0.350606,14.64,0.107366,
2,1,0,1,0,3553.16,0.109167,0.108829,1.09014,3,0.00725794,11,0.000118639,-2.96252,0.155178,0.380209,16.2526,0.108829,
2,1,0,1,0,3553.31,0.110665,0.110376,1.11347,3,0.00742513,11,0.000122901,-2.95332,0.147749,0.399325,17.3962,0.110376,
2,1,0,1,0,3553.46,0.112164,0.111923,1.14308,3,0.00759662,11,0.000127937,-2.94192,0.147471,0.400079,17.8349,0.111923,
2,1,0,1,0,3553.61,0.113662,0.113376,1.17184,3,0.00777193,11,0.000132858,-2.93113,0.136965,0.430768,19.715,0.113376,
2,1,0,1,0,3553.76,0.11516,0.114884,1.2033,3,0.00795148,11,0.000138239,-2.91963,0.128349,0.459683,21.6123,0.1148836,
2,1,0,1,0,3553.91,0.116658,0.116318,1.23826,3,0.00813634,11,0.000144033,-2.90719,0.111585,0.528747,25.5283,0.116318,
2,1,0,1,0,3554.06,0.118157,0.117887,1.27459,3,0.00832688,11,0.000150257,-2.89463,0.12187,0.484122,24.1014,0.117887,
2,1,0,1,0,3554.21,0.119655,0.119353,1.31276,3,0.00852292,11,0.000156682,-2.88182,0.129772,0.454644,23.3305,0.1193532,
2,1,0,1,0,3554.36,0.121153,0.120862,1.34892,3,0.00872415,11,0.000163033,-2.87001,0.114103,0.517076,27.3555,0.120862,
2,1,0,1,0,3554.51,0.122652,0.122359,1.39287,3,0.00893177,11,0.00017043,-2.85609,0.103767,0.56858,30.8632,0.122359,
2,1,0,1,0,3554.66,0.124149,0.123842,1.44025,3,0.00914612,11,0.000178363,-2.84156,0.112713,0.523454,29.3607,0.123842,
2,1,0,1,0,3554.81,0.125647,0.125367,1.47723,3,0.00936666,11,0.000185196,-2.83055,0.1259,0.468627,26.998,0.125367,
2,1,0,1,0,3554.96,0.127146,0.126858,1.51411,3,0.00959355,11,0.000192076,-2.81984,0.122579,0.481321,28.5382,0.1268577,
2,1,0,1,0,3555.11,0.128644,0.128378,1.56211,3,0.00982612,11,0.000200541,-2.80629,0.131383,0.449069,27.3617,0.128378,
2,1,0,1,0,3555.26,0.130142,0.129871,1.60628,3,0.0100653,11,0.000208609,-2.79418,0.139282,0.423602,26.4508,0.129871,
2,1,0,1,0,3555.41,0.13164,0.131369,1.63983,3,0.0103107,11,0.000215422,-2.7852,0.166254,0.35488,22.6227,0.131369,
2,1,0,1,0,3555.56,0.133139,0.132835,1.67682,3,0.0105614,11,0.00022274,-2.77551,0.178877,0.329835,21.5536,0.132835,
2,1,0,1,0,3555.71,0.134637,0.134345,1.70844,3,0.0108165,11,0.00022952,-2.7674,0.19349,0.304926,20.3169,0.134345,
2,1,0,1,0,3555.86,0.136135,0.135822,1.7403,3,0.0110767,11,0.000236372,-2.75937,0.217336,0.271469,18.3659,0.135822,
2,1,0,1,0,3556.01,0.137633,0.137393,1.76406,3,0.011341,11,0.000242369,-2.75349,0.27644,0.213428,14.6158,0.137393,
2,1,0,1,0,3556.15,0.139132,0.138819,1.78592,3,0.0116089,11,0.000247919,-2.74814,0.366581,0.160947,11.1527,0.1388187,
2,1,0,1,0,3556.3,0.140629,0.140301,1.79511,3,0.0118787,11,0.000251855,-2.74591,0.525022,0.112376,7.85467,0.140301,
2,1,0,1,0,3556.45,0.142127,0.141871,1.80571,3,0.0121504,11,0.000256179,-2.74335,0.69212,0.0852453,5.98284,0.141871,
2,1,0,1,0,3556.6,0.143626,0.143351,1.81073,3,0.0124238,11,0.000259571,-2.74215,-9.05194,-0.00651794,-0.458516,0.143351,
2,1,0,1,0,3556.75,0.145124,0.144875,1.80351,3,0.0126967,11,0.000261284,-2.74388,-0.522515,-0.112915,-7.92695,0.144875,
2,1,0,1,0,3556.9,0.146622,0.146325,1.78331,3,0.0129678,11,0.000260943,-2.74877,-0.372192,-0.15852,-11.0359,0.146325,
2,1,0,1,0,3557.05,0.14812,0.147829,1.76994,3,0.0132362,11,0.000261649,-2.75204,-0.256619,-0.229913,-15.8082,0.147829,
2,1,0,1,0,3557.2,0.149619,0.149349,1.7426,3,0.0135015,11,0.000260256,-2.7588,-0.183981,-0.320685,-21.6937,0.149349,
2,1,0,1,0,3557.35,0.151117,0.150817,1.71008,3,0.013762,11,0.000257908,-2.76698,-0.138041,-0.427408,-28.3097,0.150817,
2,1,0,1,0,3557.5,0.152615,0.152341,1.65667,3,0.0140162,11,0.000252379,-2.78076,-0.115533,-0.510676,-32.9534,0.1523414,
2,1,0,1,0,3557.65,0.154114,0.153816,1.61141,3,0.014263,11,0.000247861,-2.79279,-0.104977,-0.562026,-35.2127,0.153816,
2,1,0,1,0,3557.8,0.155612,0.155306,1.55449,3,0.0145019,11,0.000241421,-2.80841,-0.0914639,-0.645063,-38.9164,0.155306,
2,1,0,1,0,3557.95,0.157109,0.156806,1.49062,3,0.014732,11,0.000233738,-2.82663,-0.0756941,-0.779453,-45.08,0.156806,
2,1,0,1,0,3558.1,0.158608,0.158324,1.42235,3,0.0149525,11,0.000225192,-2.84699,-0.0729607,-0.808655,-44.8086,0.158324,
2,1,0,1,0,3558.25,0.160106,0.159827,1.35426,3,0.015162,11,0.000216447,-2.8683,-0.0685333,-0.860895,-45.4942,0.159827,
2,1,0,1,0,3558.4,0.161604,0.161337,1.28882,3,0.0153618,11,0.000207934,-2.88981,-0.0684101,-0.862445,-43.2803,0.161337,
2,1,0,1,0,3558.55,0.163102,0.162849,1.22317,3,0.0155517,11,0.000199191,-2.91251,-0.0655026,-0.900727,-42.9359,0.162849,
2,1,0,1,0,3558.7,0.164601,0.164344,1.16125,3,0.0157321,11,0.000190844,-2.93507,-0.0669301,-0.881517,-39.9202,0.164344,
2,1,0,1,0,3558.85,0.166099,0.165797,1.10093,3,0.015903,11,0.000182531,-2.95824,-0.0676843,-0.871695,-37.5767,0.165797,
2,1,0,1,0,3559,0.167597,0.167283,1.04819,3,0.0160659,11,0.000175344,-2.97956,-0.0751309,-0.785296,-32.1552,0.167283,
2,1,0,1,0,3559.15,0.169095,0.168791,1.00126,3,0.0162215,11,0.000169005,-2.99945,-0.074882,-0.787906,-30.8881,0.168791,
2,1,0,1,0,3559.3,0.170594,0.17034,0.955529,3,0.0163701,11,0.000162765,-3.01976,-0.0771321,-0.764922,-28.6847,0.17034,
2,1,0,1,0,3559.45,0.172091,0.171822,0.913967,3,0.0165122,11,0.000157039,-3.03907,-0.0869699,-0.678395,-24.3522,0.171822,
2,1,0,1,0,3559.6,0.173589,0.17331,0.881002,3,0.0166487,11,0.000152687,-3.05502,-0.0947647,-0.622595,-21.4681,0.17331,
2,1,0,1,0,3559.75,0.175088,0.174807,0.850658,3,0.0167806,11,0.000148701,-3.07024,-0.100921,-0.584615,-19.405,0.174807,
2,1,0,1,0,3559.9,0.176586,0.176312,0.821917,3,0.0169078,11,0.000144914,-3.08517,-0.103003,-0.572801,-18.4129,0.176312,
2,1,0,1,0,3560.05,0.178084,0.177807,0.793618,3,0.017031,11,0.000141111,-3.10039,-0.118201,-0.49915,-15.5532,0.177807,
2,1,0,1,0,3560.2,0.179582,0.179317,0.77347,3,0.0171504,11,0.000138696,-3.11156,-0.125197,-0.471258,-14.2843,0.179317,
2,1,0,1,0,3560.35,0.181081,0.180822,0.752783,3,0.0172669,11,0.00013612,-3.12333,-0.134849,-0.437525,-12.9071,0.180822,
2,1,0,1,0,3560.5,0.182579,0.182305,0.735889,3,0.0173807,11,0.000134156,-3.13319,-0.127776,-0.461746,-13.2641,0.182305,
2,1,0,1,0,3560.65,0.184077,0.18374,0.718928,3,0.0174916,11,0.000132096,-3.14331,-0.152086,-0.387938,-10.9099,0.18374,
2,1,0,1,0,3560.8,0.185576,0.185295,0.706071,3,0.0176,11,0.000130831,-3.15115,-0.15717,-0.37539,-10.3258,0.185295,
2,1,0,1,0,3560.95,0.187074,0.186792,0.690272,3,0.0177064,11,0.000128937,-3.16098,-0.204428,-0.28861,-7.76438,0.1867919,
2,1,0,1,0,3561.1,0.188571,0.18824,0.677764,3,0.0178108,11,0.000127582,-3.16892,-0.201977,-0.292113,-7.72215,0.18824,
2,1,0,1,0,3561.25,0.19007,0.189804,0.666706,3,0.0179135,11,0.000126544,-3.17607,-0.217922,-0.270739,-7.02965,0.189804,
2,1,0,1,0,3561.4,0.191568,0.191306,0.655093,3,0.0180142,11,0.000125323,-3.1837,-0.215639,-0.273605,-7.00281,0.191306,
2,1,0,1,0,3561.55,0.193066,0.192753,0.644307,3,0.0181135,11,0.000124192,-3.19091,-0.315373,-0.18708,-4.70133,0.192753,
2,1,0,1,0,3561.7,0.194564,0.194291,0.635777,3,0.0182117,11,0.000123526,-3.1967,-0.25438,-0.231937,-5.76921,0.194291,
2,1,0,1,0,3561.85,0.196063,0.195779,0.625227,3,0.0183084,11,0.000122406,-3.20396,-0.227349,-0.259513,-6.37832,0.195779,
2,1,0,1,0,3562,0.197561,0.19729,0.616879,3,0.0184038,11,0.000121704,-3.2098,-0.264144,-0.223363,-5.41706,0.19729,
2,1,0,1,0,3562.15,0.199059,0.198792,0.612586,3,0.018498,11,0.000121778,-3.21283,-0.273424,-0.215782,-5.1586,0.198792,
2,1,0,1,0,3562.3,0.200557,0.200297,0.60794,3,0.0185914,11,0.000121769,-3.21614,-0.29657,-0.198941,-4.70018,0.200297,
2,1,0,1,0,3562.45,0.202056,0.201798,0.599891,3,0.0186838,11,0.000121057,-3.22193,-0.351898,-0.167662,-3.9182,0.201798,
2,1,0,1,0,3562.6,0.203553,0.203239,0.590217,3,0.0187752,11,0.000119955,-3.22899,-0.333754,-0.176777,-4.10721,0.203239,
2,1,0,1,0,3562.75,0.205051,0.204769,0.58698,3,0.0188655,11,0.000120195,-3.23138,-1.14812,-0.0513885,-1.1883,0.204769,
2,1,0,1,0,3562.9,0.20655,0.206267,0.581191,3,0.0189555,11,0.000119881,-3.23568,-0.467909,-0.126093,-2.87418,0.206267,
2,1,0,1,0,3563.05,0.208048,0.207759,0.576897,3,0.0190449,11,0.000119856,-3.2389,-0.3414,-0.172818,-3.89065,0.207759,
2,1,0,1,0,3563.2,0.209546,0.209275,0.575723,3,0.0191333,11,0.000120484,-3.23979,-0.431059,-0.136872,-3.07111,0.209275,
2,1,0,1,0,3563.35,0.211044,0.210804,0.56999,3,0.0192208,11,0.000120156,-3.24413,-0.451752,-0.130603,-2.89577,0.2108037,
2,1,0,1,0,3563.5,0.212543,0.212256,0.566135,3,0.0193079,11,0.000120166,-3.24708,-0.670602,-0.0879806,-1.94169,0.212256,
2,1,0,1,0,3563.65,0.214041,0.213759,0.561386,3,0.0193945,11,0.000120001,-3.25074,-0.481972,-0.122414,-2.68676,0.213759,
2,1,0,1,0,3563.8,0.215539,0.215269,0.560855,3,0.0194805,11,0.000120735,-3.25115,-0.492932,-0.119692,-2.61656,0.215269,
2,1,0,1,0,3563.95,0.217038,0.216794,0.553363,3,0.0195658,11,0.000119966,-3.25699,-0.695278,-0.0848581,-1.83948,0.216794,
2,1,0,1,0,3564.1,0.218535,0.218277,0.550043,3,0.0196507,11,0.000120062,-3.2596,-1.10269,-0.0535057,-1.15158,0.218277,
2,1,0,1,0,3564.25,0.220033,0.21974,0.548631,3,0.0197354,11,0.000120556,-3.26072,-0.800551,-0.0736993,-1.57732,0.2197395,
2,1,0,1,0,3564.4,0.221532,0.221273,0.545922,3,0.0198195,11,0.000120798,-3.26287,-0.796666,-0.0740586,-1.58341,0.221273,
2,1,0,1,0,3564.54,0.22303,0.222759,0.53872,3,0.0199031,11,0.000120004,-3.26864,-0.713776,-0.082659,-1.75319,0.222759,
2,1,0,1,0,3564.69,0.224528,0.22426,0.540106,3,0.0199862,11,0.000121124,-3.26752,-0.734341,-0.0803441,-1.69228,0.22426,
2,1,0,1,0,3564.84,0.226026,0.225764,0.537734,3,0.0200691,11,0.000121401,-3.26943,-0.966779,-0.0610274,-1.27739,0.225764,
2,1,0,1,0,3564.99,0.227525,0.227295,0.535939,3,0.0201515,11,0.000121816,-3.27088,-0.55208,-0.106869,-2.2315,0.227295,
2,1,0,1,0,3565.14,0.229023,0.228778,0.531858,3,0.0202337,11,0.000121677,-3.2742,-0.76875,-0.0767479,-1.59755,0.228778,
2,1,0,1,0,3565.29,0.230521,0.230236,0.530237,3,0.0203152,11,0.00012208,-3.27553,-0.965914,-0.0610821,-1.26958,0.230236,
2,1,0,1,0,3565.44,0.232019,0.231775,0.529208,3,0.0203967,11,0.000122657,-3.27637,-0.862124,-0.0684356,-1.41133,0.231775,
2,1,0,1,0,3565.59,0.233518,0.233253,0.529451,3,0.0204779,11,0.000123496,-3.27617,-0.661426,-0.0892013,-1.83379,0.233253,
2,1,0,1,0,3565.74,0.235015,0.234735,0.52728,3,0.0205588,11,0.000123771,-3.27796,-1.34014,-0.0440253,-0.901154,0.234735,
2,1,0,1,0,3565.89,0.236513,0.236219,0.524001,3,0.0206391,11,0.000123779,-3.28067,-1.64557,-0.0358538,-0.730126,0.236219,
2,1,0,1,0,3566.04,0.238012,0.237738,0.521332,3,0.0207195,11,0.000123941,-3.28289,-2.1103,-0.0279581,-0.566518,0.237738,
2,1,0,1,0,3566.19,0.23951,0.239246,0.518667,3,0.0207995,11,0.000124089,-3.28511,-1.2969,-0.0454931,-0.921192,0.239246,
2,1,0,1,0,3566.34,0.241008,0.240753,0.516907,3,0.0208793,11,0.000124447,-3.28659,-0.631786,-0.0933861,-1.88821,0.240753,
2,1,0,1,0,3566.49,0.242506,0.242241,0.513379,3,0.0209586,11,0.000124361,-3.28956,-0.854583,-0.0690395,-1.39102,0.242241,
2,1,0,1,0,3566.64,0.244005,0.243686,0.513442,3,0.0210378,11,0.000125119,-3.28951,-1.63526,-0.0360799,-0.722716,0.243686,
2,1,0,1,0,3566.79,0.245503,0.245236,0.513936,3,0.0211169,11,0.000126036,-3.28909,-1.04791,-0.0563025,-1.1278,0.245236,
2,1,0,1,0,3566.94,0.247001,0.246726,0.511091,3,0.0211957,11,0.000126099,-3.2915,-0.704769,-0.0837153,-1.66959,0.246726,
2,1,0,1,0,3567.09,0.2485,0.248213,0.50698,3,0.0212742,11,0.000125839,-3.29501,-1.18947,-0.049602,-0.984996,0.248213,
2,1,0,1,0,3567.24,0.249997,0.249744,0.508699,3,0.0213524,11,0.000127044,-3.29354,-1.97753,-0.0298351,-0.590823,0.249744,
2,1,0,1,0,3567.39,0.251495,0.251199,0.506193,3,0.0214305,11,0.000127155,-3.29568,-1.04358,-0.0565361,-1.11722,0.251199,
2,1,0,1,0,3567.54,0.252994,0.252647,0.503584,3,0.0215085,11,0.000127229,-3.29793,-0.745211,-0.0791722,-1.56341,0.252647,
2,1,0,1,0,3567.69,0.254492,0.254205,0.503528,3,0.0215861,11,0.000127999,-3.29798,-1.18715,-0.0496989,-0.980049,0.254205,
2,1,0,1,0,3567.84,0.25599,0.2557,0.50298,3,0.0216635,11,0.000128612,-3.29845,-2.02451,-0.0291429,-0.573342,0.2557,
2,1,0,1,0,3567.99,0.257488,0.257213,0.500934,3,0.0217407,11,0.000128847,-3.30022,-1.96881,-0.0299674,-0.58612,0.257213,
2,1,0,1,0,3568.14,0.258987,0.258729,0.499888,3,0.021818,11,0.000129335,-3.30113,-1.45977,-0.0404174,-0.787053,0.2587288,
2,1,0,1,0,3568.29,0.260485,0.260207,0.500409,3,0.0218949,11,0.00013021,-3.30067,-0.944784,-0.0624481,-1.21823,0.260207,
2,1,0,1,0,3568.44,0.261983,0.2617,0.498277,3,0.0219715,11,0.000130399,-3.30253,-1.51193,-0.0390229,-0.7584,0.2617,
2,1,0,1,0,3568.59,0.263481,0.263206,0.497414,3,0.0220481,11,0.000130922,-3.30328,-1.40084,-0.0421177,-0.813953,0.2632058,
2,1,0,1,0,3568.74,0.26498,0.264745,0.496497,3,0.0221245,11,0.000131445,-3.30408,-1.18325,-0.0498628,-0.964585,0.264745,
2,1,0,1,0,3568.89,0.266477,0.266201,0.495101,3,0.0222007,11,0.000131796,-3.30531,-2.9655,-0.0198955,-0.383932,0.2662009,
2,1,0,1,0,3569.04,0.267976,0.267698,0.492157,3,0.0222766,11,0.000131749,-3.3079,-1.41222,-0.0417783,-0.804317,0.267698,
2,1,0,1,0,3569.19,0.269474,0.269171,0.489903,3,0.0223525,11,0.000131868,-3.30989,-248.662,-0.00023727,-0.00454388,0.269171,
2,1,0,1,0,3569.34,0.270972,0.270745,0.494873,3,0.0224283,11,0.000133984,-3.30551,-1.85294,-0.0318413,-0.610122,0.270745,
2,1,0,1,0,3569.49,0.27247,0.272198,0.489267,3,0.0225039,11,0.000133178,-3.31045,-1.29444,-0.0455795,-0.86742,0.272198,
2,1,0,1,0,3569.64,0.273968,0.273686,0.485954,3,0.0225792,11,0.000132999,-3.31341,-1.02172,-0.0577456,-1.09747,0.273686,
2,1,0,1,0,3569.79,0.275467,0.275174,0.48788,3,0.0226544,11,0.000134252,-3.31169,-1.34204,-0.043963,-0.835798,0.275174,
2,1,0,1,0,3569.94,0.276965,0.276688,0.487336,3,0.0227294,11,0.00013484,-3.31217,-0.761038,-0.0775257,-1.47878,0.276688,
2,1,0,1,0,3570.09,0.278463,0.278202,0.483752,3,0.0228043,11,0.000134581,-3.31538,-0.616043,-0.0957726,-1.81238,0.278202,
2,1,0,1,0,3570.24,0.279962,0.279665,0.487232,3,0.0228791,11,0.000136262,-3.31226,-4.63018,-0.0127425,-0.241574,0.279665,
2,1,0,1,0,3570.39,0.281459,0.281213,0.484325,3,0.0229536,11,0.000136199,-3.31486,-7.13491,-0.0082692,-0.156143,0.281213,
2,1,0,1,0,3570.54,0.282957,0.282697,0.484601,3,0.0230281,11,0.000136995,-3.31462,-8.35471,-0.00706189,-0.133142,0.282697,
2,1,0,1,0,3570.69,0.284456,0.284186,0.482691,3,0.0231025,11,0.000137174,-3.31633,-4.89959,-0.0120418,-0.226011,0.284186,
2,1,0,1,0,3570.84,0.285954,0.285634,0.482646,3,0.0231768,11,0.00013786,-3.31637,-2.22147,-0.026559,-0.497927,0.285634,
2,1,0,1,0,3570.99,0.287452,0.287201,0.480076,3,0.0232507,11,0.000137878,-3.31869,-1.79116,-0.0329395,-0.616585,0.287201,
2,1,0,1,0,3571.14,0.28895,0.288699,0.478807,3,0.0233246,11,0.000138231,-3.31984,8.59814,0.00686195,0.128039,0.288699,
2,1,0,1,0,3571.29,0.290449,0.290189,0.478234,3,0.0233984,11,0.000138778,-3.32036,-2.45573,-0.0240255,-0.448295,0.290189,
2,1,0,1,0,3571.44,0.291947,0.291688,0.477649,3,0.023472,11,0.000139325,-3.32089,-1.16257,-0.0507498,-0.947683,0.291688,
2,1,0,1,0,3571.59,0.293445,0.293151,0.474073,3,0.0235454,11,0.000138975,-3.32415,-1.38463,-0.0426105,-0.793082,0.293151,
2,1,0,1,0,3571.74,0.294943,0.294659,0.47685,3,0.0236187,11,0.000140508,-3.32162,-225.633,-0.000261487,-0.0048534,0.294659,
2,1,0,1,0,3571.89,0.296442,0.296195,0.478321,3,0.0236921,11,0.000141676,-3.32028,-4.5837,-0.0128717,-0.237842,0.296195,
2,1,0,1,0,3572.04,0.297939,0.297683,0.47536,3,0.0237653,11,0.000141506,-3.32298,-1.09932,-0.0536697,-0.990554,0.2976827,
2,1,0,1,0,3572.19,0.299437,0.299189,0.471231,3,0.0238382,11,0.000140987,-3.32677,-0.00117591,-50.174,-281.223,0.299189,
2,1,0,1,0,3572.27,0.299738,0.299432,0.0919285,3,0.0238696,11,2.75263e-05,-4.03655,0.00136766,43.1394,443.441,0.299432,
2,0,0,1,0,3572.42,0.29824,0.297956,-0.0484291,3,0.0238655,11,-1.44297e-05,-4.31489,0.00511276,11.5398,148.545,0.297956,
2,0,0,1,0,3572.57,0.296741,0.296453,-0.0774667,3,0.0238538,11,-2.29652e-05,-4.11089,-0.00887292,-6.64945,16.4243,0.296453,
2,0,0,1,0,3572.72,0.295243,0.294947,-0.0951311,3,0.0238385,11,-2.80586e-05,-4.02168,-0.018239,-3.23483,11.2132,0.294947,
2,0,0,1,0,3572.87,0.293745,0.29348,-0.112282,3,0.0238208,11,-3.29526e-05,-3.94969,-0.026248,-2.24779,9.51252,0.29348,
2,0,0,1,0,3573.02,0.292246,0.291944,-0.124189,3,0.0238012,11,-3.62561e-05,-3.90592,-0.0366568,-1.60952,7.58735,0.291944,
2,0,0,1,0,3573.17,0.290748,0.290464,-0.136908,3,0.0237796,11,-3.97667e-05,-3.86357,-0.0426347,-1.38385,7.2343,0.2904636,
2,0,0,1,0,3573.32,0.28925,0.288945,-0.144736,3,0.0237565,11,-4.18208e-05,-3.83942,-0.0529639,-1.11397,6.22983,0.288945,
2,0,0,1,0,3573.47,0.287752,0.287437,-0.154618,3,0.023732,11,-4.4443e-05,-3.81074,-0.068568,-0.86046,5.19632,0.287437,
2,0,0,1,0,3573.62,0.286253,0.285943,-0.159382,3,0.0237065,11,-4.55741e-05,-3.79756,-0.0688225,-0.857278,5.37926,0.285943,
2,0,0,1,0,3573.77,0.284755,0.284459,-0.168801,3,0.0236796,11,-4.80168e-05,-3.77263,-0.0695029,-0.848885,5.54933,0.284459,
2,0,0,1,0,3573.92,0.283258,0.282957,-0.177612,3,0.0236516,11,-5.02567e-05,-3.75053,-0.0814426,-0.724437,4.93101,0.282957,
2,0,0,1,0,3574.07,0.281759,0.281409,-0.183856,3,0.0236226,11,-5.17387e-05,-3.73552,-0.101869,-0.579174,4.10319,0.281409,
2,0,0,1,0,3574.22,0.280261,0.279975,-0.185469,3,0.0235927,11,-5.19268e-05,-3.73173,-0.110799,-0.532496,3.88106,0.279975,
2,0,0,1,0,3574.37,0.278763,0.278464,-0.195022,3,0.0235621,11,-5.43066e-05,-3.70992,-0.108341,-0.544578,4.11873,0.278464,
2,0,0,1,0,3574.52,0.277264,0.276989,-0.198953,3,0.0235304,11,-5.51077e-05,-3.70125,-0.115695,-0.509963,3.97541,0.276989,
2,0,0,1,0,3574.67,0.275766,0.275472,-0.204592,3,0.0234979,11,-5.63592e-05,-3.68911,-0.169567,-0.347944,2.78048,0.275472,
2,0,0,1,0,3574.82,0.274268,0.273956,-0.210154,3,0.0234646,11,-5.75729e-05,-3.67746,-0.154927,-0.380825,3.14688,0.273956,
2,0,0,1,0,3574.97,0.27277,0.272466,-0.216646,3,0.0234307,11,-5.90287e-05,-3.66425,-0.130842,-0.450924,3.82255,0.272466,
2,0,0,1,0,3575.12,0.271272,0.270995,-0.221591,3,0.0233958,11,-6.005e-05,-3.65445,-0.153159,-0.38522,3.30706,0.270995,
2,0,0,1,0,3575.27,0.269773,0.269449,-0.228066,3,0.0233602,11,-6.1452e-05,-3.64194,-0.177051,-0.333237,2.92985,0.269449,
2,0,0,1,0,3575.42,0.268275,0.267996,-0.230888,3,0.0233239,11,-6.18768e-05,-3.6366,-0.191082,-0.308768,2.77107,0.2679956,
2,0,0,1,0,3575.57,0.266778,0.26648,-0.235937,3,0.0232871,11,-6.28726e-05,-3.6272,-0.192724,-0.306138,2.80913,0.26648,
2,0,0,1,0,3575.72,0.265279,0.264993,-0.237971,3,0.0232495,11,-6.30605e-05,-3.62348,-0.141042,-0.418316,3.88486,0.264993,
2,0,0,1,0,3575.87,0.263781,0.263445,-0.242397,3,0.0232112,11,-6.38585e-05,-3.61547,-0.205109,-0.287652,2.74389,0.263445,
2,0,0,1,0,3576.02,0.262283,0.261965,-0.24644,3,0.0231723,11,-6.45588e-05,-3.60829,-0.251975,-0.23415,2.26523,0.261965,
2,0,0,1,0,3576.17,0.260784,0.260531,-0.249023,3,0.023133,11,-6.48784e-05,-3.60376,-0.184246,-0.320224,3.14473,0.260531,
2,0,0,1,0,3576.32,0.259286,0.258998,-0.255945,3,0.0230929,11,-6.62892e-05,-3.59185,-0.183921,-0.32079,3.18212,0.258998,
2,0,0,1,0,3576.47,0.257788,0.257523,-0.263075,3,0.0230521,11,-6.77479e-05,-3.57992,-0.254876,-0.231486,2.34393,0.257523,
2,0,0,1,0,3576.62,0.25629,0.255998,-0.264123,3,0.0230107,11,-6.76151e-05,-3.57819,-0.276892,-0.213079,2.18645,0.255998,
2,0,0,1,0,3576.77,0.254791,0.254504,-0.264739,3,0.0229688,11,-6.73772e-05,-3.57718,-0.260306,-0.226656,2.35974,0.254504,
2,0,0,1,0,3576.92,0.253293,0.253006,-0.272469,3,0.0229265,11,-6.89365e-05,-3.56468,-0.201518,-0.292778,3.11295,0.2530064,
2,0,0,1,0,3577.07,0.251796,0.251511,-0.275447,3,0.0228834,11,-6.92779e-05,-3.55996,-0.235621,-0.250402,2.7024,0.251511,
2,0,0,1,0,3577.22,0.250297,0.249992,-0.278061,3,0.0228397,11,-6.95129e-05,-3.55586,-0.390467,-0.151101,1.64612,0.249992,
2,0,0,1,0,3577.36,0.248799,0.248499,-0.282724,3,0.0227955,11,-7.02567e-05,-3.54864,-0.312386,-0.188869,2.08582,0.248499,
2,0,0,1,0,3577.51,0.247301,0.247027,-0.287789,3,0.0227509,11,-7.10917e-05,-3.54093,-0.205635,-0.286916,3.22826,0.247027,
2,0,0,1,0,3577.66,0.245802,0.245489,-0.291566,3,0.0227056,11,-7.1576e-05,-3.53526,-0.255687,-0.230751,2.60223,0.245489,
2,0,0,1,0,3577.81,0.244304,0.243981,-0.295403,3,0.0226595,11,-7.20727e-05,-3.52958,-0.351434,-0.167884,1.92815,0.243981,
2,0,0,1,0,3577.96,0.242806,0.242498,-0.297569,3,0.0226131,11,-7.21601e-05,-3.52641,-0.334668,-0.176294,2.05137,0.2424982,
2,0,0,1,0,3578.11,0.241308,0.240979,-0.302301,3,0.0225662,11,-7.2848e-05,-3.51956,-0.271567,-0.217258,2.56068,0.240979,
2,0,0,1,0,3578.26,0.23981,0.239557,-0.30467,3,0.0225187,11,-7.29857e-05,-3.51617,-0.215323,-0.274007,3.23943,0.239557,
2,0,0,1,0,3578.41,0.238311,0.238014,-0.308345,3,0.0224706,11,-7.33906e-05,-3.51096,-0.28146,-0.209621,2.52975,0.238014,
2,0,0,1,0,3578.56,0.236814,0.236505,-0.312742,3,0.0224219,11,-7.39648e-05,-3.50481,-0.27623,-0.21359,2.609,0.2365046,
2,0,0,1,0,3578.71,0.235316,0.235014,-0.31579,3,0.0223729,11,-7.42149e-05,-3.5006,-0.284845,-0.20713,2.55609,0.235014,
2,0,0,1,0,3578.86,0.233817,0.233504,-0.320384,3,0.0223232,11,-7.4811e-05,-3.49433,-0.250864,-0.235188,2.92071,0.233504,
2,0,0,1,0,3579.01,0.232319,0.231999,-0.327468,3,0.0222728,11,-7.59722e-05,-3.48483,-0.274278,-0.21511,2.71963,0.2319991,
2,0,0,1,0,3579.16,0.230821,0.230528,-0.327022,3,0.0222219,11,-7.53878e-05,-3.48542,-0.334647,-0.176305,2.23665,0.230528,
2,0,0,1,0,3579.31,0.229322,0.229069,-0.328071,3,0.0221705,11,-7.5151e-05,-3.48403,-0.322331,-0.183042,2.37624,0.229069,
2,0,0,1,0,3579.46,0.227824,0.227523,-0.334276,3,0.0221186,11,-7.60555e-05,-3.4759,-0.357601,-0.164988,2.1702,0.227523,
2,0,0,1,0,3579.61,0.226326,0.226052,-0.340228,3,0.0220659,11,-7.69093e-05,-3.46823,-0.347044,-0.170007,2.26244,0.226052,
2,0,0,1,0,3579.76,0.224828,0.224547,-0.343186,3,0.0220126,11,-7.70613e-05,-3.46447,-0.651492,-0.0905614,1.20938,0.224547,
2,0,0,1,0,3579.91,0.223329,0.223038,-0.349487,3,0.0219588,11,-7.79491e-05,-3.45657,-0.282149,-0.209109,2.84198,0.223038,
2,0,0,1,0,3580.06,0.221831,0.221547,-0.353093,3,0.0219046,11,-7.82265e-05,-3.45211,-0.28687,-0.205668,2.81623,0.221547,
2,0,0,1,0,3580.21,0.220334,0.220052,-0.357739,3,0.0218495,11,-7.87213e-05,-3.44643,-0.233303,-0.25289,3.50783,0.220052,
2,0,0,1,0,3580.36,0.218835,0.21852,-0.361525,3,0.0217935,11,-7.90006e-05,-3.44186,-0.245879,-0.239955,3.37251,0.21852,
2,0,0,1,0,3580.51,0.217337,0.217051,-0.364372,3,0.0217372,11,-7.90872e-05,-3.43845,-0.32205,-0.183201,2.61948,0.217051,
2,0,0,1,0,3580.66,0.215839,0.215513,-0.368343,3,0.0216803,11,-7.93826e-05,-3.43375,-0.26585,-0.22193,3.21581,0.215513,
2,0,0,1,0,3580.81,0.21434,0.214004,-0.372532,3,0.0216226,11,-7.97234e-05,-3.42884,-0.208299,-0.283247,4.10962,0.214004,
2,0,0,1,0,3580.96,0.212842,0.212546,-0.378029,3,0.0215641,11,-8.03484e-05,-3.42248,-0.21653,-0.27248,4.0306,0.212546,
2,0,0,1,0,3581.11,0.211344,0.211045,-0.383031,3,0.0215049,11,-8.08369e-05,-3.41677,-0.291282,-0.202553,3.04221,0.211045,
2,0,0,1,0,3581.26,0.209846,0.209605,-0.38592,3,0.021445,11,-8.0891e-05,-3.4135,-0.32137,-0.183589,2.78139,0.209605,
2,0,0,1,0,3581.41,0.208348,0.208045,-0.395766,3,0.0213843,11,-8.2337e-05,-3.40256,-0.234861,-0.251212,3.86446,0.208045,
2,0,0,1,0,3581.56,0.206849,0.206564,-0.406409,3,0.0213226,11,-8.39492e-05,-3.39104,-0.238326,-0.24756,3.86645,0.206564,
2,0,0,1,0,3581.71,0.205352,0.2051,-0.406385,3,0.02126,11,-8.33497e-05,-3.39106,-0.255893,-0.230565,3.63441,0.2051,
2,0,0,1,0,3581.86,0.203854,0.203518,-0.411647,3,0.0211967,11,-8.37776e-05,-3.38548,-0.238701,-0.247171,3.99241,0.203518,
2,0,0,1,0,3582.01,0.202355,0.202072,-0.417679,3,0.0211326,11,-8.44014e-05,-3.37916,-0.211988,-0.278318,4.5493,0.202072,
2,0,0,1,0,3582.16,0.200857,0.200555,-0.424868,3,0.0210674,11,-8.52094e-05,-3.37175,-0.225385,-0.261775,4.351,0.200555,
2,0,0,1,0,3582.31,0.199359,0.199036,-0.431383,3,0.0210012,11,-8.58608e-05,-3.36514,-0.266389,-0.22148,3.71187,0.1990364,
2,0,0,1,0,3582.46,0.19786,0.197562,-0.441297,3,0.0209339,11,-8.71836e-05,-3.35527,-0.224675,-0.262601,4.48715,0.197562,
2,0,0,1,0,3582.61,0.196362,0.196077,-0.445631,3,0.0208658,11,-8.73779e-05,-3.35102,-0.198128,-0.297787,5.17039,0.196077,
2,0,0,1,0,3582.76,0.194864,0.194602,-0.456026,3,0.0207963,11,-8.87434e-05,-3.34101,-0.192396,-0.306659,5.44464,0.194602,
2,0,0,1,0,3582.91,0.193366,0.19305,-0.463092,3,0.0207253,11,-8.94e-05,-3.33433,-0.176877,-0.333565,6.02442,0.1930504,
2,0,0,1,0,3583.06,0.191867,0.191573,-0.472611,3,0.0206531,11,-9.05397e-05,-3.3255,-0.219747,-0.268491,4.98795,0.191573,
2,0,0,1,0,3583.21,0.190369,0.190068,-0.479526,3,0.0205799,11,-9.11426e-05,-3.31919,-0.160568,-0.367447,6.92474,0.1900683,
2,0,0,1,0,3583.36,0.188872,0.188552,-0.490969,3,0.020505,11,-9.25734e-05,-3.30895,-0.14527,-0.406141,7.7877,0.188552,
2,0,0,1,0,3583.51,0.187373,0.187057,-0.503087,3,0.0204283,11,-9.41059e-05,-3.29836,-0.143594,-0.410879,8.05785,0.187057,
2,0,0,1,0,3583.66,0.185875,0.185601,-0.514254,3,0.0203501,11,-9.5446e-05,-3.28882,-0.151194,-0.390226,7.79648,0.185601,
2,0,0,1,0,3583.81,0.184377,0.184081,-0.521693,3,0.0202701,11,-9.6034e-05,-3.28258,-0.139863,-0.421842,8.66064,0.184081,
2,0,0,1,0,3583.96,0.182878,0.182592,-0.53843,3,0.0201883,11,-9.83128e-05,-3.26887,-0.142116,-0.415154,8.75818,0.182592,
2,0,0,1,0,3584.11,0.18138,0.181085,-0.556411,3,0.0201042,11,-0.000100758,-3.2546,-0.130474,-0.452196,9.81836,0.181085,
2,0,0,1,0,3584.26,0.179882,0.179599,-0.570546,3,0.0200178,11,-0.00010247,-3.24371,-0.145461,-0.405607,9.01029,0.179599,
2,0,0,1,0,3584.41,0.178384,0.178071,-0.586969,3,0.019929,11,-0.000104522,-3.23138,-0.120962,-0.487755,11.2106,0.1780711,
2,0,0,1,0,3584.56,0.176886,0.176567,-0.60522,3,0.019838,11,-0.000106862,-3.21809,-0.10824,-0.545087,12.9147,0.176567,
2,0,0,1,0,3584.71,0.175387,0.175097,-0.626647,3,0.0197438,11,-0.000109724,-3.20298,-0.0995182,-0.592856,14.4802,0.175097,
2,0,0,1,0,3584.86,0.17389,0.173567,-0.647082,3,0.0196465,11,-0.000112312,-3.18904,-0.0984291,-0.599417,15.1577,0.173567,
2,0,0,1,0,3585.01,0.172392,0.172082,-0.670384,3,0.0195457,11,-0.000115361,-3.17368,-0.0950162,-0.620947,16.2876,0.172082,
2,0,0,1,0,3585.16,0.170893,0.170595,-0.695206,3,0.0194415,11,-0.000118599,-3.15789,-0.08981,-0.656943,17.8998,0.170595,
2,0,0,1,0,3585.31,0.169395,0.169088,-0.722731,3,0.019333,11,-0.000122205,-3.14102,-0.0763843,-0.77241,21.8539,0.169088,
2,0,0,1,0,3585.46,0.167897,0.167597,-0.755476,3,0.0192199,11,-0.000126616,-3.12178,-0.0800517,-0.737024,21.8321,0.167597,
2,0,0,1,0,3585.6,0.166398,0.166085,-0.789997,3,0.0191019,11,-0.000131207,-3.10237,-0.0827635,-0.712874,22.0937,0.166085,
2,0,0,1,0,3585.75,0.1649,0.164589,-0.823186,3,0.0189789,11,-0.000135487,-3.0845,-0.0738578,-0.798832,25.8807,0.164589,
2,0,0,1,0,3585.9,0.163402,0.163138,-0.871119,3,0.0188498,11,-0.000142113,-3.05992,-0.0672728,-0.877026,29.8158,0.163138,
2,0,0,1,0,3586.05,0.161904,0.161574,-0.91611,3,0.0187142,11,-0.00014802,-3.03805,-0.0665823,-0.886122,31.6783,0.161574,
2,0,0,1,0,3586.2,0.160405,0.160094,-0.966683,3,0.0185713,11,-0.00015476,-3.01472,-0.0669029,-0.881874,33.1174,0.160094,
2,0,0,1,0,3586.35,0.158907,0.158621,-1.01214,3,0.0184209,11,-0.000160547,-2.99476,-0.0650868,-0.906481,35.9601,0.158621,
2,0,0,1,0,3586.5,0.15741,0.157109,-1.07179,3,0.0182627,11,-0.000168388,-2.96989,-0.0624344,-0.944991,39.7125,0.1571092,
2,0,0,1,0,3586.65,0.155911,0.155629,-1.13075,3,0.0180954,11,-0.000175977,-2.94663,-0.0621931,-0.948658,41.9734,0.155629,
2,0,0,1,0,3586.8,0.154413,0.154122,-1.19345,3,0.0179187,11,-0.000183937,-2.9232,-0.0685557,-0.860614,40.04,0.154122,
2,0,0,1,0,3586.95,0.152915,0.152596,-1.25902,3,0.0177328,11,-0.000192121,-2.89997,-0.0701004,-0.84165,41.291,0.152596,
2,0,0,1,0,3587.1,0.151417,0.151128,-1.31949,3,0.0175379,11,-0.000199412,-2.8796,-0.071958,-0.819923,42.2286,0.151128,
2,0,0,1,0,3587.25,0.149918,0.14959,-1.38628,3,0.0173331,11,-0.000207374,-2.85815,-0.0747217,-0.789597,42.4799,0.14959,
2,0,0,1,0,3587.4,0.14842,0.148098,-1.45079,3,0.0171187,11,-0.000214859,-2.83839,-0.0846512,-0.696978,39.2914,0.148098,
2,0,0,1,0,3587.55,0.146922,0.146604,-1.50952,3,0.0168951,11,-0.000221301,-2.82116,-0.0915604,-0.644383,37.7899,0.146604,
2,0,0,1,0,3587.7,0.145424,0.145123,-1.55884,3,0.0166635,11,-0.000226224,-2.8072,-0.102162,-0.577515,35.1419,0.1451232,
2,0,0,1,0,3587.85,0.143925,0.143657,-1.61389,3,0.0164233,11,-0.000231847,-2.79213,-0.104122,-0.566641,35.5416,0.143657,
2,0,0,1,0,3588,0.142428,0.142125,-1.66849,3,0.0161756,11,-0.000237133,-2.77768,-0.12697,-0.464677,30.0588,0.142125,
2,0,0,1,0,3588.15,0.14093,0.140661,-1.705,3,0.0159211,11,-0.000239827,-2.76828,-0.156423,-0.377182,24.9643,0.140661,
2,0,0,1,0,3588.3,0.139431,0.139141,-1.73221,3,0.0156608,11,-0.000241022,-2.7614,-0.195078,-0.302443,20.4554,0.139141,
2,0,0,1,0,3588.45,0.137933,0.137627,-1.76734,3,0.0153965,11,-0.000243233,-2.75268,-0.24572,-0.24011,16.5124,0.137627,
2,0,0,1,0,3588.6,0.136435,0.136136,-1.79186,3,0.0151278,11,-0.000243937,-2.7467,-0.322647,-0.182862,12.7258,0.136136,
2,0,0,1,0,3588.75,0.134936,0.134629,-1.80523,3,0.0148561,11,-0.000243037,-2.74347,-0.8074,-0.0730741,5.11884,0.134629,
2,0,0,1,0,3588.9,0.133438,0.133136,-1.81063,3,0.0145828,11,-0.000241061,-2.74217,-1.45544,-0.0405376,2.86455,0.133136,
2,0,0,1,0,3589.05,0.13194,0.131646,-1.81206,3,0.0143096,11,-0.000238551,-2.74183,4.92006,0.0119917,-0.848987,0.1316465,
2,0,0,1,0,3589.2,0.130442,0.130128,-1.81052,3,0.0140359,11,-0.000235599,-2.7422,0.977319,0.0603693,-4.2545,0.130128,
2,0,0,1,0,3589.35,0.128943,0.128675,-1.80375,3,0.0137628,11,-0.000232098,-2.74382,0.40015,0.147445,-10.3164,0.1286754,
2,0,0,1,0,3589.5,0.127445,0.127169,-1.78693,3,0.013492,11,-0.000227243,-2.74789,0.305668,0.19302,-13.3932,0.127169,
2,0,0,1,0,3589.65,0.125948,0.125636,-1.75656,3,0.0132251,11,-0.000220687,-2.75534,0.231397,0.254973,-17.4692,0.125636,
2,0,0,1,0,3589.8,0.124449,0.124166,-1.73111,3,0.0129614,11,-0.000214946,-2.76167,0.211622,0.2788,-18.7899,0.124166,
2,0,0,1,0,3589.95,0.122951,0.122671,-1.70061,3,0.0127023,11,-0.000208616,-2.7694,0.174097,0.338891,-22.429,0.122671,
2,0,0,1,0,3590.1,0.121453,0.121146,-1.66332,3,0.0124481,11,-0.000201505,-2.77902,0.153404,0.384606,-24.9476,0.121146,
2,0,0,1,0,3590.25,0.119955,0.119671,-1.61801,3,0.0122,11,-0.00019363,-2.79102,0.145182,0.406388,-25.7781,0.119671,
2,0,0,1,0,3590.4,0.118456,0.118216,-1.58703,3,0.0119575,11,-0.000187613,-2.79942,0.149325,0.395112,-24.4478,0.118216,
2,0,0,1,0,3590.55,0.116958,0.116664,-1.55127,3,0.0117205,11,-0.000180978,-2.80931,0.129855,0.454352,-27.4137,0.116664,
2,0,0,1,0,3590.7,0.11546,0.115171,-1.50941,3,0.0114895,11,-0.00017384,-2.82119,0.124521,0.473816,-27.8679,0.115171,
2,0,0,1,0,3590.85,0.113962,0.113641,-1.46213,3,0.0112648,11,-0.000166158,-2.83501,0.128551,0.458963,-26.3056,0.1136408,
2,0,0,1,0,3591,0.112463,0.112158,-1.43098,3,0.0110462,11,-0.000160495,-2.84437,0.134997,0.437045,-24.4228,0.112158,
2,0,0,1,0,3591.15,0.110966,0.110663,-1.39467,3,0.0108327,11,-0.000154338,-2.85553,0.145726,0.404868,-22.0278,0.110663,
2,0,0,1,0,3591.3,0.109468,0.109147,-1.36011,3,0.0106245,11,-0.000148453,-2.86643,0.132806,0.444257,-23.5548,0.109147,
2,0,0,1,0,3591.45,0.107969,0.107707,-1.32716,3,0.0104209,11,-0.000142944,-2.87708,0.153009,0.385597,-20.0415,0.107707,
2,0,0,1,0,3591.6,0.106471,0.106181,-1.29776,3,0.0102226,11,-0.000137798,-2.8868,0.17,0.34706,-17.6707,0.106181,
2,0,0,1,0,3591.75,0.104973,0.104655,-1.27375,3,0.0100278,11,-0.000133304,-2.89492,0.178679,0.330202,-16.4247,0.104655,
2,0,0,1,0,3591.9,0.103474,0.103177,-1.25229,3,0.00983656,11,-0.000129207,-2.90229,0.174968,0.337204,-16.4526,0.103177,
2,0,0,1,0,3592.05,0.101976,0.101697,-1.2295,3,0.00964894,11,-0.000125037,-2.91027,0.18606,0.317102,-15.2187,0.101697,
2,0,0,1,0,3592.2,0.100478,0.10016,-1.2063,3,0.00946505,11,-0.000120823,-2.91855,0.217698,0.271017,-12.7944,0.10016,
2,0,0,1,0,3592.35,0.0989798,0.0987071,-1.19054,3,0.0092836,11,-0.000117515,-2.92425,0.254656,0.231685,-10.7434,0.09870708,
2,0,0,1,0,3592.5,0.0974808,0.0971794,-1.17401,3,0.0091046,11,-0.000114089,-2.93033,0.257187,0.229405,-10.5167,0.0971794,
2,0,0,1,0,3592.65,0.0959833,0.0956866,-1.15841,3,0.008928,11,-0.000110844,-2.93614,0.263926,0.223547,-10.1076,0.0956866,
2,0,0,1,0,3592.8,0.0944857,0.0942169,-1.13624,3,0.00875399,11,-0.000107053,-2.94453,0.283835,0.207867,-9.28394,0.0942169,
2,0,0,1,0,3592.95,0.0929871,0.0927073,-1.13002,3,0.00858183,11,-0.000104761,-2.94691,0.378894,0.155716,-6.86916,0.0927073,
2,0,0,1,0,3593.1,0.0914889,0.0911655,-1.1218,3,0.00841124,11,-0.00010227,-2.95008,0.361402,0.163253,-7.11872,0.0911655,
2,0,0,1,0,3593.25,0.0899907,0.0897095,-1.10658,3,0.00824249,11,-9.92708e-05,-2.95602,0.292338,0.201821,-8.70209,0.0897095,
2,0,0,1,0,3593.4,0.0884925,0.0881635,-1.08842,3,0.00807572,11,-9.59585e-05,-2.96321,0.343593,0.171715,-7.32952,0.0881635,
2,0,0,1,0,3593.55,0.0869943,0.0867234,-1.08327,3,0.00791087,11,-9.39451e-05,-2.96526,0.336581,0.175292,-7.42008,0.0867234,
2,0,0,1,0,3593.7,0.0854961,0.085189,-1.07304,3,0.00774736,11,-9.14112e-05,-2.96938,0.330553,0.178489,-7.47373,0.085189,
2,0,0,1,0,3593.84,0.083998,0.0836705,-1.06336,3,0.0075852,11,-8.89717e-05,-2.97332,0.287401,0.205288,-8.4983,0.0836705,
2,0,0,1,0,3593.99,0.0824998,0.0822072,-1.05207,3,0.00742497,11,-8.64875e-05,-2.97796,0.312806,0.188615,-7.75221,0.0822072,
2,0,0,1,0,3594.14,0.0810011,0.0807379,-1.04007,3,0.00726649,11,-8.3973e-05,-2.98294,0.37527,0.15722,-6.38537,0.0807379,
2,0,0,1,0,3594.29,0.0795036,0.0792469,-1.0284,3,0.00710949,11,-8.14978e-05,-2.98784,0.384375,0.153496,-6.16472,0.0792469,
2,0,0,1,0,3594.44,0.0780061,0.0777025,-1.02156,3,0.0069539,11,-7.93778e-05,-2.99074,0.318336,0.185339,-7.35538,0.0777025,
2,0,0,1,0,3594.59,0.076507,0.0761809,-1.00639,3,0.0068001,11,-7.66679e-05,-2.99723,0.266503,0.221385,-8.68467,0.0761809,
2,0,0,1,0,3594.74,0.0750088,0.0747228,-0.993159,3,0.00664858,11,-7.42117e-05,-3.00298,0.2955,0.199662,-7.74079,0.0747228,
2,0,0,1,0,3594.89,0.0735106,0.0732308,-0.981134,3,0.00649864,11,-7.18492e-05,-3.00827,0.338402,0.174349,-6.66422,0.0732308,
2,0,0,1,0,3595.04,0.0720124,0.0717081,-0.968506,3,0.00635039,11,-6.94497e-05,-3.0139,0.28346,0.208142,-7.88833,0.0717081,
2,0,0,1,0,3595.19,0.0705142,0.0702055,-0.954847,3,0.00620406,11,-6.70355e-05,-3.02007,0.24794,0.237961,-8.88409,0.0702055,
2,0,0,1,0,3595.34,0.069016,0.0687315,-0.938936,3,0.0060599,11,-6.45345e-05,-3.02736,0.25546,0.230956,-8.52672,0.0687315,
2,0,0,1,0,3595.49,0.0675179,0.0672151,-0.930356,3,0.0059177,11,-6.2534e-05,-3.03135,0.282567,0.2088,-7.57673,0.0672151,
2,0,0,1,0,3595.64,0.0660188,0.0657468,-0.923529,3,0.00577697,11,-6.07191e-05,-3.03455,0.281099,0.20989,-7.51582,0.0657468,
2,0,0,1,0,3595.79,0.0645213,0.0642109,-0.90694,3,0.00563816,11,-5.82354e-05,-3.04242,0.232559,0.2537,-8.93115,0.0642109,
2,0,0,1,0,3595.94,0.0630237,0.0627511,-0.889519,3,0.0055015,11,-5.58183e-05,-3.05084,0.254926,0.23144,-8.07632,0.0627511,
2,0,0,1,0,3596.09,0.0615251,0.0612175,-0.878775,3,0.00536696,11,-5.37964e-05,-3.05612,0.275282,0.214326,-7.37183,0.0612175,
2,0,0,1,0,3596.24,0.0600269,0.0597658,-0.867718,3,0.00523394,11,-5.18598e-05,-3.06162,0.258357,0.228366,-7.75321,0.05976579,
2,0,0,1,0,3596.39,0.0585287,0.058224,-0.854929,3,0.00510262,11,-4.97774e-05,-3.06807,0.22101,0.266957,-8.90086,0.058224,
2,0,0,1,0,3596.54,0.0570305,0.0567076,-0.847304,3,0.00497303,11,-4.80486e-05,-3.07196,0.277946,0.212272,-7.02654,0.0567076,
2,0,0,1,0,3596.69,0.0555323,0.0552622,-0.836136,3,0.00484536,11,-4.62067e-05,-3.07772,0.295593,0.199599,-6.52003,0.0552622,
2,0,0,1,0,3596.84,0.0540341,0.0537649,-0.827438,3,0.00471891,11,-4.44872e-05,-3.08226,0.294363,0.200433,-6.46008,0.0537649,
2,0,0,1,0,3596.99,0.052536,0.0522337,-0.818147,3,0.00459365,11,-4.27348e-05,-3.08717,0.313198,0.188379,-6.00299,0.0522337,
2,0,0,1,0,3597.14,0.0510378,0.0507216,-0.809877,3,0.00446985,11,-4.10783e-05,-3.09158,0.298633,0.197567,-6.23843,0.0507216,
2,0,0,1,0,3597.29,0.0495391,0.0492207,-0.799728,3,0.00434751,11,-3.93632e-05,-3.09706,0.371829,0.158675,-4.96193,0.0492207,
2,0,0,1,0,3597.44,0.0480416,0.0477411,-0.792012,3,0.00422624,11,-3.78116e-05,-3.10127,0.705971,0.0835729,-2.58593,0.0477411,
2,0,0,1,0,3597.59,0.0465441,0.0462412,-0.783997,3,0.0041058,11,-3.6253e-05,-3.10569,0.438228,0.134633,-4.13343,0.0462412,
2,0,0,1,0,3597.74,0.045045,0.0447557,-0.78109,3,0.00398625,11,-3.49582e-05,-3.1073,0.472713,0.124811,-3.81089,0.0447557,
2,0,0,1,0,3597.89,0.0435468,0.0432616,-0.768955,3,0.00386792,11,-3.32662e-05,-3.1141,0.520561,0.113339,-3.42683,0.0432616,
2,0,0,1,0,3598.04,0.0420486,0.0417251,-0.771387,3,0.00375025,11,-3.21862e-05,-3.11273,0.79642,0.0740815,-2.22731,0.0417251,
2,0,0,1,0,3598.19,0.0405504,0.0402299,-0.768058,3,0.00363299,11,-3.08989e-05,-3.11461,0.572127,0.103124,-3.07698,0.0402299,
2,0,0,1,0,3598.34,0.0390523,0.0387358,-0.763459,3,0.00351624,11,-2.95732e-05,-3.11721,0.445637,0.132395,-3.93262,0.0387358,
2,0,0,1,0,3598.49,0.0375541,0.0372512,-0.758078,3,0.00340018,11,-2.82393e-05,-3.12029,0.695648,0.084813,-2.51883,0.0372512,
2,0,0,1,0,3598.64,0.0360559,0.0357476,-0.756274,3,0.0032849,11,-2.7035e-05,-3.12132,0.980919,0.0601477,-1.78389,0.0357476,
2,0,0,1,0,3598.79,0.0345568,0.0342375,-0.754495,3,0.00316953,11,-2.58321e-05,-3.12234,1.22258,0.0482587,-1.42114,0.0342375,
2,0,0,1,0,3598.94,0.0330593,0.0327347,-0.753531,3,0.00305455,11,-2.46666e-05,-3.1229,0.817613,0.0721613,-2.11671,0.0327347,
2,0,0,1,0,3599.09,0.0315618,0.0312687,-0.752955,3,0.0029398,11,-2.3544e-05,-3.12323,4.49459,0.0131269,-0.385347,0.0312687,
2,0,0,1,0,3599.24,0.0300631,0.0297626,-0.751089,3,0.00282547,11,-2.23544e-05,-3.12431,25.6953,0.00229614,-0.0672916,0.0297626,
2,0,0,1,0,3599.39,0.0285649,0.0283099,-0.7511,3,0.00271089,11,-2.12636e-05,-3.1243,65.5951,0.000899457,-0.0263135,0.0283099,
2,0,0,1,0,3599.54,0.0270667,0.0267426,-0.749741,3,0.00259634,11,-2.005e-05,-3.12509,-10.6156,-0.00555788,0.162844,0.0267426,
2,0,0,1,0,3599.69,0.0255685,0.0252262,-0.750112,3,0.00248185,11,-1.89225e-05,-3.12487,4.17636,0.0141271,-0.414979,0.0252262,
2,0,0,1,0,3599.84,0.0240704,0.0237798,-0.749035,3,0.00236759,11,-1.78119e-05,-3.1255,24.2783,0.00243015,-0.0714013,0.0237798,
2,0,0,1,0,3599.99,0.0225722,0.0222666,-0.752088,3,0.00225299,11,-1.67465e-05,-3.12373,-1.18246,-0.0498961,1.46448,0.0222666,
2,0,0,1,0,3600.14,0.021074,0.0207343,-0.754392,3,0.00213827,11,-1.56418e-05,-3.1224,-9.17016,-0.00643391,0.189083,0.0207343,
2,0,0,1,0,3600.29,0.0195758,0.019253,-0.755504,3,0.00202321,11,-1.45457e-05,-3.12176,-1.7669,-0.0333918,0.983418,0.01925296,
2,0,0,1,0,3600.44,0.0180771,0.0177967,-0.752101,3,0.00190816,11,-1.33849e-05,-3.12372,-1.08665,-0.0542951,1.60034,0.0177967,
2,0,0,1,0,3600.59,0.0165796,0.0163317,-0.75881,3,0.00179286,11,-1.23926e-05,-3.11987,-0.908922,-0.0649121,1.92236,0.0163317,
2,0,0,1,0,3600.74,0.0150821,0.0147619,-0.762464,3,0.00167706,11,-1.12554e-05,-3.11778,-1.2025,-0.0490644,1.45652,0.0147619,
2,0,0,1,0,3600.89,0.013583,0.0132542,-0.762787,3,0.00156067,11,-1.01102e-05,-3.1176,-1.9623,-0.0300668,0.893944,0.0132542,
2,0,0,1,0,3601.04,0.0120848,0.0117909,-0.76172,3,0.00144425,11,-8.98134e-06,-3.1182,-1.08721,-0.0542675,1.62277,0.01179088,
2,0,0,1,0,3601.19,0.0105866,0.0102692,-0.767031,3,0.00132763,11,-7.8768e-06,-3.11519,-1.0515,-0.0561101,1.68498,0.0102692,
2,0,0,1,0,3601.34,0.00908845,0.00879735,-0.76947,3,0.00121032,11,-6.7693e-06,-3.11381,-0.888359,-0.0664146,1.99751,0.00879735,
2,0,0,1,0,3601.49,0.00759027,0.00726082,-0.77393,3,0.00109251,11,-5.61937e-06,-3.1113,-1.155,-0.0510824,1.54359,0.00726082,
2,0,0,1,0,3601.64,0.00609208,0.00576565,-0.778689,3,0.000974279,11,-4.48965e-06,-3.10864,-0.830497,-0.0710418,2.15544,0.00576565,
2,0,0,1,0,3601.79,0.00459389,0.00430017,-0.781882,3,0.000855719,11,-3.36222e-06,-3.10686,-0.824199,-0.0715846,2.18059,0.00430017,
2,0,0,1,0,3601.94,0.0030948,0.00277121,-0.785503,3,0.000736319,11,-2.17679e-06,-3.10485,-0.430489,-0.137054,4.19384,0.00277121,
2,0,0,1,0,3602.08,0.00159728,0.00129467,-0.798608,3,0.000614355,11,-1.03393e-06,-3.09767, , , ,0.00129467,
2,0,0,1,0,3602.22,0.000199195,-0.000147811,-0.791789,3,0.000501529,11,1.17036e-07,-3.10139, , , ,-0.000147811,