File: Figure_codes/Fig_3-5/rawdata_trumpetplot_data/before 10th/20221101_1-115_002_TrumpetPlot_ParaChange_04_CV_C01_6.csv
mode,ox/red,error,control changes,counter inc.,time/s,control/V,Ewe/V,<I>/mA,cycle number,(Q-Qo)/C,I Range,P/W,log(|I|),Tafel slope mV/dec,alpha_eff,dI/d(E-IR),E-IR/V,
2,0,0,1,0,7748.57,2.44065e-05,-0.000439847,-0.403842,7,0.0000000E+000,11,1.77629e-07,-3.39379, , , ,-0.000439847,
2,0,0,1,0,7749.85,0.00129791,0.000949309,-0.166283,7,-0.000229381,11,-1.57854e-07,-3.77915, , , ,0.000949309,
2,0,0,1,0,7751.34,0.00279612,0.00251347,-0.134745,7,-0.000424679,11,-3.38678e-07,-3.87049,-0.0186597,-3.16189,17.7946,0.00251347,
2,0,0,1,0,7752.84,0.00429431,0.00396835,-0.116067,7,-0.000585939,11,-4.60594e-07,-3.93529,-0.0274111,-2.15242,9.94886,0.00396835,
2,0,0,1,0,7754.34,0.00579242,0.00548676,-0.102898,7,-0.000724197,11,-5.64575e-07,-3.98759,-0.0294048,-2.00648,8.17541,0.00548676,
2,0,0,1,0,7755.84,0.00729061,0.00699459,-0.0921909,7,-0.000844498,11,-6.44837e-07,-4.03531,-0.033307,-1.7714,6.45477,0.006994586,
2,0,0,1,0,7757.34,0.00878882,0.0084665,-0.0836353,7,-0.000950353,11,-7.08098e-07,-4.07761,-0.0366883,-1.60814,5.29789,0.0084665,
2,0,0,1,0,7758.83,0.010287,0.0100009,-0.0764755,7,-0.00104457,11,-7.64827e-07,-4.11648,-0.0406976,-1.44972,4.37517,0.0100009,
2,0,0,1,0,7760.33,0.0117852,0.0115024,-0.0708801,7,-0.00112909,11,-8.15293e-07,-4.14948,-0.0426018,-1.38492,3.83083,0.0115024,
2,0,0,1,0,7761.83,0.0132834,0.0129584,-0.0646219,7,-0.00120501,11,-8.37398e-07,-4.18962,-0.0410256,-1.43813,3.63359,0.0129584,
2,0,0,1,0,7763.33,0.0147815,0.0144641,-0.060462,7,-0.00127308,11,-8.74528e-07,-4.21852,-0.044556,-1.32418,3.10112,0.01446409,
2,0,0,1,0,7764.83,0.0162797,0.0160145,-0.0555102,7,-0.00133393,11,-8.88966e-07,-4.25563,-0.0509187,-1.15871,2.51922,0.0160145,
2,0,0,1,0,7766.33,0.0177779,0.0174884,-0.0520195,7,-0.00138899,11,-9.09738e-07,-4.28383,-0.0482809,-1.22202,2.47542,0.0174884,
2,0,0,1,0,7767.82,0.0192761,0.0189486,-0.047975,7,-0.00143881,11,-9.09056e-07,-4.31899,-0.0477322,-1.23606,2.32901,0.0189486,
2,0,0,1,0,7769.32,0.0207743,0.0204438,-0.0448122,7,-0.00148293,11,-9.16131e-07,-4.3486,-0.0465661,-1.26702,2.22418,0.0204438,
2,0,0,1,0,7770.82,0.0222725,0.0219411,-0.0416617,7,-0.00152208,11,-9.14103e-07,-4.38026,-0.0468267,-1.25997,2.05014,0.0219411,
2,0,0,1,0,7772.32,0.0237707,0.0234554,-0.038639,7,-0.00155679,11,-9.06293e-07,-4.41297,-0.0478803,-1.23224,1.87211,0.0234554,
2,0,0,1,0,7773.82,0.0252689,0.0249824,-0.0364423,7,-0.00158763,11,-9.10415e-07,-4.43839,-0.0481179,-1.22615,1.72236,0.0249824,
2,0,0,1,0,7775.31,0.0267671,0.0264902,-0.034022,7,-0.00161427,11,-9.01251e-07,-4.46824,-0.0397472,-1.48438,1.94228,0.0264902,
2,0,0,1,0,7776.81,0.0282653,0.0279632,-0.0307446,7,-0.0016368,11,-8.59717e-07,-4.51223,-0.0391144,-1.5084,1.79851,0.02796318,
2,0,0,1,0,7778.31,0.0297635,0.0294658,-0.0287495,7,-0.00165578,11,-8.47126e-07,-4.54137,-0.0388344,-1.51927,1.67034,0.0294658,
2,0,0,1,0,7779.81,0.0312617,0.0309482,-0.026534,7,-0.00167123,11,-8.21181e-07,-4.5762,-0.0355008,-1.66193,1.70477,0.0309482,
2,0,0,1,0,7781.31,0.0327599,0.0324752,-0.0237995,7,-0.00168311,11,-7.72893e-07,-4.62343,-0.0369836,-1.5953,1.48539,0.0324752,
2,0,0,1,0,7782.81,0.0342581,0.0339598,-0.0211939,7,-0.00169132,11,-7.19742e-07,-4.67379,-0.0302826,-1.94831,1.58899,0.0339598,
2,0,0,1,0,7784.3,0.0357563,0.0354613,-0.0191118,7,-0.00169608,11,-6.77731e-07,-4.7187,-0.0299785,-1.96807,1.47586,0.0354613,
2,0,0,1,0,7785.8,0.0372544,0.0369511,-0.0170218,7,-0.00169766,11,-6.28975e-07,-4.76899,-0.0251673,-2.34431,1.48396,0.0369511,
2,0,0,1,0,7787.3,0.0387526,0.0384548,-0.0147556,7,-0.00169617,11,-5.67424e-07,-4.83104,-0.0201363,-2.93003,1.62445,0.03845476,
2,0,0,1,0,7788.8,0.0402508,0.0399489,-0.0128071,7,-0.00169109,11,-5.11631e-07,-4.89255,-0.0209782,-2.81245,1.33075,0.03994891,
2,0,0,1,0,7790.3,0.041749,0.0414632,-0.0101038,7,-0.00168259,11,-4.18937e-07,-4.99551,-0.0191464,-3.08153,1.23563,0.04146317,
2,0,0,1,0,7791.79,0.0432472,0.0429647,-0.00786206,7,-0.00167106,11,-3.37791e-07,-5.10446,-0.0123683,-4.77026,1.50208,0.0429647,
2,0,0,1,0,7793.29,0.0447454,0.0444482,-0.00579159,7,-0.00165661,11,-2.57426e-07,-5.2372,-0.0097803,-6.03254,1.31431,0.0444482,
2,0,0,1,0,7794.79,0.0462435,0.0459592,-0.00360149,7,-0.00163856,11,-1.65522e-07,-5.44352,-0.00604734,-9.75636,1.32835,0.0459592,
2,0,0,1,0,7796.29,0.0477417,0.0474714,-0.00157937,7,-0.0016172,11,-7.4975e-08,-5.80152,-0.00688566,-8.56853,1.43707,0.0474714,
2,1,0,1,0,7797.79,0.0492399,0.0489231,0.000291102,7,-0.00159258,11,1.42416e-08,-6.53595,0.0231745,2.54591,1.65042,0.0489231,
2,0,0,1,0,7799.29,0.0507381,0.0504437,0.0026223,7,-0.00156475,11,1.32278e-07,-5.58132,0.003116,18.9345,1.52798,0.0504437,
2,0,0,1,0,7800.78,0.0522363,0.0519379,0.00490668,7,-0.00153325,11,2.54843e-07,-5.30921,0.00565593,10.4315,1.71794,0.0519379,
2,0,0,1,0,7802.28,0.0537345,0.0534044,0.00705261,7,-0.00149808,11,3.7664e-07,-5.15165,0.010442,5.65026,1.49791,0.0534044,
2,0,0,1,0,7803.78,0.0552327,0.0549388,0.00961765,7,-0.00145975,11,5.28382e-07,-5.01693,0.015332,3.84816,1.34696,0.0549388,
2,1,0,1,0,7805.28,0.0567309,0.0564022,0.0111654,7,-0.00141822,11,6.29751e-07,-4.95213,0.0167803,3.51603,1.51396,0.0564022,
2,1,0,1,0,7806.78,0.0582291,0.0579472,0.013782,7,-0.00137335,11,7.98626e-07,-4.86069,0.0209046,2.82234,1.45954,0.0579472,
2,1,0,1,0,7808.27,0.0597273,0.0594361,0.016706,7,-0.00132491,11,9.92941e-07,-4.77713,0.0271488,2.1732,1.35246,0.0594361,
2,1,0,1,0,7809.77,0.0612255,0.0609323,0.0183894,7,-0.00127295,11,1.12051e-06,-4.73543,0.0293842,2.00788,1.41004,0.0609323,
2,0,0,1,0,7811.27,0.0627237,0.0624487,0.0199114,7,-0.00121772,11,1.24344e-06,-4.7009,0.0310419,1.90066,1.52774,0.0624487,
2,1,0,1,0,7812.77,0.0642219,0.0638908,0.0230158,7,-0.00115954,11,1.4705e-06,-4.63797,0.0335588,1.75811,1.59814,0.06389083,
2,1,0,1,0,7814.27,0.0657201,0.0654528,0.025163,7,-0.00109749,11,1.64699e-06,-4.59924,0.0390076,1.51252,1.47007,0.0654528,
2,1,0,1,0,7815.77,0.0672183,0.0669459,0.0271456,7,-0.00103201,11,1.81729e-06,-4.5663,0.0426731,1.3826,1.42837,0.0669459,
2,1,0,1,0,7817.26,0.0687164,0.0684526,0.0296776,7,-0.00096358,11,2.03151e-06,-4.52757,0.0509086,1.15894,1.2944,0.0684526,
2,1,0,1,0,7818.76,0.0702146,0.0699085,0.031424,7,-0.000892597,11,2.19681e-06,-4.50274,0.0512981,1.15014,1.38976,0.06990853,
2,1,0,1,0,7820.26,0.0717128,0.0713815,0.033517,7,-0.000818113,11,2.3925e-06,-4.47473,0.0558212,1.05695,1.3676,0.0713815,
2,1,0,1,0,7821.76,0.073211,0.0729138,0.0349627,7,-0.000740736,11,2.54926e-06,-4.45639,0.0672547,0.877262,1.21481,0.0729138,
2,1,0,1,0,7823.26,0.0747092,0.0744238,0.0369963,7,-0.00066052,11,2.7534e-06,-4.43184,0.0646697,0.912329,1.32518,0.0744238,
2,1,0,1,0,7824.75,0.0762074,0.0759232,0.038248,7,-0.000577904,11,2.90391e-06,-4.41739,0.0775093,0.761199,1.14657,0.0759232,
2,1,0,1,0,7826.25,0.0777055,0.077395,0.0412179,7,-0.000492037,11,3.19006e-06,-4.38491,0.0616114,0.957615,1.49886,0.07739497,
2,1,0,1,0,7827.75,0.0792037,0.0789039,0.042901,7,-0.000403353,11,3.38506e-06,-4.36753,0.0826171,0.714138,1.17778,0.0789039,
2,1,0,1,0,7829.25,0.0807019,0.0804501,0.0445503,7,-0.000311819,11,3.58407e-06,-4.35115,0.0828479,0.712149,1.22702,0.0804501,
2,1,0,1,0,7830.75,0.0822001,0.0819261,0.0454796,7,-0.000218088,11,3.72597e-06,-4.34218,0.0932942,0.632408,1.12998,0.0819261,
2,1,0,1,0,7832.25,0.0836983,0.0833937,0.0480129,7,-0.000121899,11,4.00397e-06,-4.31864,0.0920567,0.640909,1.18673,0.0833937,
2,1,0,1,0,7833.74,0.0851965,0.0848783,0.0491803,7,-2.28303e-05,11,4.17434e-06,-4.30821,0.101933,0.57881,1.11512,0.0848783,
2,1,0,1,0,7835.24,0.0866947,0.0863841,0.0509275,7,7.87409e-05,11,4.39933e-06,-4.29305,0.118056,0.499761,0.98862,0.0863841,
2,1,0,1,0,7836.74,0.0881929,0.0879206,0.0525728,7,0.000182672,11,4.62223e-06,-4.27924,0.12921,0.456622,0.939488,0.0879206,
2,1,0,1,0,7838.24,0.0896911,0.0894116,0.0544451,7,0.000288475,11,4.86802e-06,-4.26404,0.0924097,0.638461,1.36121,0.0894116,
2,1,0,1,0,7839.74,0.0911893,0.0909036,0.0561041,7,0.00039735,11,5.10006e-06,-4.25101,0.0960103,0.614517,1.33352,0.0909036,
2,1,0,1,0,7841.23,0.0926875,0.0924104,0.0582659,7,0.000509542,11,5.38437e-06,-4.23459,0.104087,0.566834,1.26277,0.0924104,
2,1,0,1,0,7842.73,0.0941857,0.0939311,0.059703,7,0.000624136,11,5.60797e-06,-4.224,0.105499,0.559249,1.29209,0.0939311,
2,1,0,1,0,7844.23,0.0956839,0.0953626,0.0614815,7,0.000740975,11,5.86304e-06,-4.21126,0.110135,0.535705,1.28017,0.0953626,
2,1,0,1,0,7845.73,0.0971821,0.0968843,0.0630886,7,0.000861417,11,6.1123e-06,-4.20005,0.0896821,0.657879,1.63099,0.0968843,
2,1,0,1,0,7847.23,0.0986803,0.0983604,0.0658406,7,0.000985245,11,6.4761e-06,-4.18151,0.100481,0.587175,1.50808,0.0983604,
2,1,0,1,0,7848.73,0.100178,0.0998831,0.067868,7,0.00111252,11,6.77887e-06,-4.16833,0.1011,0.58358,1.56233,0.09988305,
2,1,0,1,0,7850.22,0.101677,0.101438,0.070223,7,0.00124279,11,7.12326e-06,-4.15352,0.099864,0.590803,1.63353,0.101438,
2,1,0,1,0,7851.72,0.103175,0.102914,0.073946,7,0.00137724,11,7.61006e-06,-4.13109,0.101284,0.58252,1.66634,0.102914,
2,1,0,1,0,7853.22,0.104673,0.10441,0.0767477,7,0.00151626,11,8.01322e-06,-4.11493,0.0840644,0.701843,2.08323,0.10441,
2,1,0,1,0,7854.72,0.106171,0.105862,0.0789469,7,0.00165959,11,8.35745e-06,-4.10266,0.0942247,0.626163,1.92787,0.105862,
2,1,0,1,0,7856.22,0.107669,0.107397,0.0814386,7,0.00180711,11,8.74627e-06,-4.08917,0.0853522,0.691253,2.21903,0.1073971,
2,1,0,1,0,7857.71,0.109167,0.108883,0.0849222,7,0.00195933,11,9.24655e-06,-4.07098,0.086093,0.685306,2.29517,0.108883,
2,1,0,1,0,7859.21,0.110666,0.110346,0.0885747,7,0.00211691,11,9.77387e-06,-4.05269,0.0871223,0.677209,2.35649,0.110346,
2,1,0,1,0,7860.71,0.112164,0.111834,0.0923408,7,0.0022802,11,1.03268e-05,-4.03461,0.103972,0.567458,2.02946,0.111834,
2,1,0,1,0,7862.21,0.113662,0.11336,0.0964026,7,0.0024487,11,1.09282e-05,-4.01591,0.0995996,0.592372,2.22097,0.11336,
2,1,0,1,0,7863.71,0.11516,0.114867,0.100073,7,0.00262185,11,1.14951e-05,-3.99968,0.0903529,0.652995,2.53355,0.114867,
2,1,0,1,0,7865.21,0.116658,0.116381,0.103554,7,0.00280089,11,1.20517e-05,-3.98483,0.104407,0.565096,2.26394,0.116381,
2,1,0,1,0,7866.7,0.118157,0.117888,0.107245,7,0.00298615,11,1.26429e-05,-3.96962,0.0993796,0.593683,2.46166,0.117888,
2,1,0,1,0,7868.2,0.119655,0.119326,0.110151,7,0.00317638,11,1.31439e-05,-3.95801,0.118957,0.495979,2.13326,0.119326,
2,1,0,1,0,7869.7,0.121153,0.120828,0.114325,7,0.00337102,11,1.38136e-05,-3.94186,0.110928,0.531876,2.36339,0.120828,
2,1,0,1,0,7871.2,0.122651,0.122321,0.116814,7,0.00357145,11,1.42888e-05,-3.93251,0.0998674,0.590783,2.68561,0.122321,
2,1,0,1,0,7872.7,0.124149,0.123915,0.11995,7,0.00377754,11,1.48636e-05,-3.921,0.119924,0.49198,2.31673,0.123915,
2,1,0,1,0,7874.19,0.125648,0.125357,0.123877,7,0.00398839,11,1.55289e-05,-3.90701,0.134494,0.43868,2.12555,0.125357,
2,1,0,1,0,7875.69,0.127146,0.126863,0.125779,7,0.00420404,11,1.59568e-05,-3.90039,0.138236,0.426807,2.10732,0.126863,
2,1,0,1,0,7877.19,0.128644,0.128323,0.131145,7,0.00442435,11,1.6829e-05,-3.88225,0.16393,0.35991,1.82568,0.128323,
2,1,0,1,0,7878.69,0.130142,0.12987,0.133948,7,0.00464962,11,1.73958e-05,-3.87307,0.166005,0.355412,1.8395,0.12987,
2,1,0,1,0,7880.19,0.13164,0.131352,0.135454,7,0.0048792,11,1.77922e-05,-3.86821,0.220226,0.267907,1.41024,0.131352,
2,1,0,1,0,7881.69,0.133139,0.132827,0.137717,7,0.0051123,11,1.82925e-05,-3.86101,0.22327,0.264255,1.4221,0.132827,
2,1,0,1,0,7883.18,0.134637,0.13435,0.139158,7,0.00534769,11,1.86959e-05,-3.85649,0.26483,0.222784,1.21978,0.13435,
2,1,0,1,0,7884.68,0.136135,0.135831,0.141404,7,0.0055864,11,1.9207e-05,-3.84954,0.430918,0.136917,0.757264,0.135831,
2,1,0,1,0,7886.18,0.137633,0.13736,0.141647,7,0.00582692,11,1.94566e-05,-3.84879,13.2106,0.00446611,0.0246232,0.13736,
2,1,0,1,0,7887.68,0.139131,0.138828,0.142834,7,0.00606815,11,1.98293e-05,-3.84517,-1.69311,-0.0348471,-0.192509,0.138828,
2,1,0,1,0,7889.18,0.14063,0.140344,0.141924,7,0.00630812,11,1.99182e-05,-3.84794,-0.596817,-0.0988579,-0.542379,0.140344,
2,1,0,1,0,7890.67,0.142128,0.141819,0.14035,7,0.00654767,11,1.99043e-05,-3.85279,-0.242317,-0.243483,-1.32179,0.141819,
2,1,0,1,0,7892.17,0.143626,0.14337,0.13804,7,0.00678453,11,1.97908e-05,-3.85999,-0.164691,-0.358246,-1.92454,0.1433703,
2,1,0,1,0,7893.67,0.145124,0.144844,0.134202,7,0.0070166,11,1.94384e-05,-3.87224,-0.117598,-0.501708,-2.6321,0.144844,
2,1,0,1,0,7895.17,0.146622,0.146302,0.13022,7,0.00724215,11,1.90516e-05,-3.88532,-0.102299,-0.57674,-2.93366,0.146302,
2,1,0,1,0,7896.67,0.14812,0.147845,0.125653,7,0.00746153,11,1.85772e-05,-3.90083,-0.0916291,-0.6439,-3.13365,0.147845,
2,1,0,1,0,7898.17,0.149619,0.14933,0.120063,7,0.00767338,11,1.7929e-05,-3.92059,-0.0777615,-0.75873,-3.54685,0.14933,
2,1,0,1,0,7899.66,0.151117,0.150841,0.114735,7,0.00787652,11,1.73067e-05,-3.9403,-0.0696182,-0.847479,-3.75776,0.150841,
2,1,0,1,0,7901.16,0.152615,0.152335,0.108203,7,0.00807085,11,1.64831e-05,-3.96576,-0.0634392,-0.930024,-3.93696,0.152335,
2,1,0,1,0,7902.66,0.154113,0.15381,0.102744,7,0.0082561,11,1.58031e-05,-3.98824,-0.0603723,-0.977269,-3.9285,0.15381,
2,1,0,1,0,7904.16,0.155611,0.155317,0.0980748,7,0.00843315,11,1.52327e-05,-4.00844,-0.0600097,-0.983175,-3.75115,0.155317,
2,1,0,1,0,7905.66,0.15711,0.156776,0.0920042,7,0.00860196,11,1.44241e-05,-4.03619,-0.0574351,-1.02725,-3.68501,0.1567761,
2,1,0,1,0,7907.16,0.158608,0.158323,0.0869963,7,0.00876277,11,1.37735e-05,-4.0605,-0.0622897,-0.947187,-3.22794,0.158323,
2,1,0,1,0,7908.65,0.160106,0.159802,0.082328,7,0.00891566,11,1.31562e-05,-4.08445,-0.0630037,-0.936452,-3.02202,0.159802,
2,1,0,1,0,7910.15,0.161604,0.161304,0.0786554,7,0.00906244,11,1.26874e-05,-4.10427,-0.0662874,-0.890064,-2.73692,0.161304,
2,1,0,1,0,7911.65,0.163102,0.162863,0.0746721,7,0.00920309,11,1.21613e-05,-4.12684,-0.0700991,-0.841665,-2.45749,0.1628627,
2,1,0,1,0,7913.15,0.164601,0.164285,0.0708655,7,0.0093383,11,1.16421e-05,-4.14957,-0.0801883,-0.735769,-2.0555,0.164285,
2,1,0,1,0,7914.65,0.166099,0.165792,0.0684518,7,0.00946842,11,1.13487e-05,-4.16461,-0.0867676,-0.679978,-1.81259,0.165792,
2,1,0,1,0,7916.14,0.167597,0.167278,0.0660776,7,0.00959474,11,1.10533e-05,-4.17995,-0.0970963,-0.607644,-1.55933,0.167278,
2,1,0,1,0,7917.64,0.169095,0.168839,0.0634568,7,0.0097176,11,1.0714e-05,-4.19752,-0.100613,-0.586404,-1.4569,0.168839,
2,1,0,1,0,7919.14,0.170593,0.170273,0.0615314,7,0.00983686,11,1.04771e-05,-4.2109,-0.0989354,-0.596349,-1.44868,0.170273,
2,1,0,1,0,7920.64,0.172091,0.171832,0.0594489,7,0.00995304,11,1.02152e-05,-4.22586,-0.111509,-0.529104,-1.23901,0.171832,
2,1,0,1,0,7922.14,0.17359,0.173227,0.057725,7,0.0100667,11,9.99953e-06,-4.23864,-0.160859,-0.36678,-0.833469,0.173227,
2,1,0,1,0,7923.64,0.175088,0.17476,0.0569097,7,0.0101784,11,9.94556e-06,-4.24481,-0.147204,-0.400805,-0.891534,0.17476,
2,1,0,1,0,7925.13,0.176586,0.176281,0.0556281,7,0.0102878,11,9.80617e-06,-4.25471,-0.124869,-0.472497,-1.01924,0.176281,
2,1,0,1,0,7926.63,0.178084,0.177784,0.0539304,7,0.0103951,11,9.58794e-06,-4.26817,-0.175349,-0.336471,-0.714477,0.177784,
2,1,0,1,0,7928.13,0.179582,0.179268,0.0534763,7,0.0105008,11,9.58661e-06,-4.27184,-0.180446,-0.326967,-0.680234,0.179268,
2,1,0,1,0,7929.63,0.181081,0.180815,0.0526049,7,0.0106052,11,9.51177e-06,-4.27897,-0.307725,-0.191729,-0.392697,0.180815,
2,1,0,1,0,7931.13,0.182579,0.182332,0.0517407,7,0.0107084,11,9.43398e-06,-4.28617,-0.205045,-0.287742,-0.577002,0.182332,
2,1,0,1,0,7932.62,0.184077,0.183838,0.0505732,7,0.0108102,11,9.29725e-06,-4.29608,-0.377051,-0.156477,-0.312194,0.183838,
2,1,0,1,0,7934.12,0.185575,0.185308,0.0500936,7,0.0109107,11,9.28278e-06,-4.30022,-0.323925,-0.182141,-0.356428,0.185308,
2,1,0,1,0,7935.62,0.187073,0.186766,0.0500364,7,0.0110106,11,9.34511e-06,-4.30071,-0.367377,-0.160598,-0.31145,0.186766,
2,1,0,1,0,7937.12,0.188572,0.188283,0.0490083,7,0.0111098,11,9.22742e-06,-4.30973,-0.439436,-0.134263,-0.258544,0.188283,
2,1,0,1,0,7938.62,0.19007,0.189759,0.0488484,7,0.0112083,11,9.26942e-06,-4.31115,-0.326651,-0.180621,-0.342513,0.189759,
2,1,0,1,0,7940.12,0.191568,0.191263,0.0486379,7,0.0113059,11,9.30262e-06,-4.31303,-0.394185,-0.149676,-0.281972,0.191263,
2,1,0,1,0,7941.61,0.193066,0.192784,0.0478504,7,0.0114029,11,9.22481e-06,-4.32011,-0.88101,-0.0669686,-0.125161,0.192784,
2,1,0,1,0,7943.11,0.194564,0.194253,0.0476211,7,0.0114997,11,9.25054e-06,-4.3222,-0.90763,-0.0650045,-0.121938,0.194253,
2,1,0,1,0,7944.61,0.196063,0.195757,0.0473854,7,0.0115957,11,9.27599e-06,-4.32436,-0.468009,-0.126066,-0.23533,0.195757,
2,1,0,1,0,7946.11,0.197561,0.197287,0.0473202,7,0.0116911,11,9.33564e-06,-4.32495,-0.607886,-0.0970577,-0.179653,0.197287,
2,1,0,1,0,7947.61,0.199059,0.198727,0.0468605,7,0.0117864,11,9.31243e-06,-4.32919,2.30065,0.025645,0.047182,0.198727,
2,1,0,1,0,7949.1,0.200557,0.200278,0.0472765,7,0.0118813,11,9.46845e-06,-4.32535,-2.07766,-0.0283973,-0.0518352,0.200278,
2,1,0,1,0,7950.6,0.202055,0.20183,0.0467326,7,0.0119763,11,9.43202e-06,-4.33038,-3.72775,-0.0158272,-0.0288637,0.20183,
2,1,0,1,0,7952.1,0.203554,0.203222,0.0466727,7,0.0120707,11,9.48492e-06,-4.33094,1.75018,0.0337107,0.0616319,0.203222,
2,1,0,1,0,7953.6,0.205052,0.204812,0.0469866,7,0.012165,11,9.62344e-06,-4.32803,2.51754,0.0234355,0.0429968,0.204812,
2,1,0,1,0,7955.1,0.20655,0.206268,0.0465053,7,0.0122593,11,9.59258e-06,-4.3325,-53.1864,-0.00110931,-0.00202229,0.206268,
2,1,0,1,0,7956.6,0.208048,0.207738,0.046616,7,0.0123539,11,9.68391e-06,-4.33147,3.39702,0.0173682,0.0316008,0.207738,
2,1,0,1,0,7958.09,0.209546,0.209253,0.046662,7,0.0124479,11,9.76418e-06,-4.33104,1.62033,0.0364124,0.0663833,0.209253,
2,1,0,1,0,7959.59,0.211044,0.210738,0.0463059,7,0.0125415,11,9.75841e-06,-4.33436,-42.2397,-0.00139679,-0.00253177,0.210738,
2,1,0,1,0,7961.09,0.212543,0.212239,0.046837,7,0.0126354,11,9.94065e-06,-4.32941,1.5181,0.0388643,0.070647,0.2122395,
2,1,0,1,0,7962.59,0.214041,0.213752,0.0462918,7,0.0127293,11,9.89495e-06,-4.3345,1.55581,0.0379223,0.0688885,0.213752,
2,1,0,1,0,7964.09,0.215539,0.215262,0.0467775,7,0.0128231,11,1.00694e-05,-4.32996,10.1532,0.00581096,0.0105192,0.2152617,
2,1,0,1,0,7965.58,0.217037,0.216735,0.0467579,7,0.0129168,11,1.01341e-05,-4.33015,0.908547,0.0649389,0.118679,0.2167346,
2,1,0,1,0,7967.08,0.218535,0.218204,0.0466864,7,0.0130108,11,1.01872e-05,-4.33081,0.840303,0.0702128,0.127557,0.218204,
2,1,0,1,0,7968.58,0.220034,0.219765,0.0465614,7,0.013105,11,1.02326e-05,-4.33197,4.40389,0.0133973,0.0244385,0.219765,
2,1,0,1,0,7970.08,0.221532,0.22123,0.0467752,7,0.013199,11,1.03481e-05,-4.32998,105.717,0.000558094,0.00101619,0.22123,
2,1,0,1,0,7971.58,0.22303,0.222753,0.0464814,7,0.0132929,11,1.03539e-05,-4.33272,-4.16117,-0.0141787,-0.0258987,0.222753,
2,1,0,1,0,7973.08,0.224528,0.224217,0.0470795,7,0.0133868,11,1.0556e-05,-4.32717,7.0508,0.00836784,0.0152343,0.224217,
2,1,0,1,0,7974.57,0.226026,0.225752,0.0473756,7,0.013481,11,1.06952e-05,-4.32445,0.924433,0.0638229,0.116949,0.225752,
2,1,0,1,0,7976.07,0.227525,0.227229,0.047099,7,0.0135753,11,1.07023e-05,-4.32699,-4.38889,-0.013443,-0.0247061,0.2272294,
2,1,0,1,0,7977.57,0.229023,0.228743,0.0464759,7,0.0136696,11,1.0631e-05,-4.33277,0.740282,0.0796993,0.146459,0.228743,
2,1,0,1,0,7979.07,0.230521,0.230227,0.0472154,7,0.013764,11,1.08703e-05,-4.32592,1.05862,0.055733,0.10269,0.230227,
2,1,0,1,0,7980.57,0.232019,0.231705,0.0475609,7,0.0138588,11,1.10201e-05,-4.32275,1.07362,0.0549542,0.101308,0.231705,
2,1,0,1,0,7982.06,0.233517,0.233202,0.0477713,7,0.0139538,11,1.11403e-05,-4.32083,-2.65768,-0.0221998,-0.041143,0.233202,
2,1,0,1,0,7983.56,0.235016,0.23475,0.0475243,7,0.0140489,11,1.11563e-05,-4.32308,0.808479,0.0729765,0.1348,0.23475,
2,1,0,1,0,7985.06,0.236514,0.236214,0.0480129,7,0.0141438,11,1.13413e-05,-4.31864,-2.87246,-0.0205399,-0.0380537,0.2362143,
2,1,0,1,0,7986.56,0.238012,0.237704,0.0477517,7,0.0142391,11,1.13508e-05,-4.32101,3.35763,0.0175719,0.0326424,0.237704,
2,1,0,1,0,7988.06,0.23951,0.239259,0.0478157,7,0.0143346,11,1.14403e-05,-4.32043,1.25654,0.0469542,0.0882905,0.239259,
2,1,0,1,0,7989.56,0.241008,0.240741,0.0478385,7,0.0144301,11,1.15167e-05,-4.32022,48.7996,0.00120903,0.00226093,0.240741,
2,1,0,1,0,7991.05,0.242506,0.242188,0.0479418,7,0.0145256,11,1.16109e-05,-4.31929,2.15523,0.0273753,0.051339,0.242188,
2,1,0,1,0,7992.55,0.244005,0.243704,0.0481691,7,0.0146215,11,1.1739e-05,-4.31723,0.383284,0.153933,0.287672,0.243704,
2,1,0,1,0,7994.05,0.245503,0.245204,0.0484174,7,0.0147177,11,1.18722e-05,-4.315,0.43846,0.134562,0.255151,0.245204,
2,1,0,1,0,7995.55,0.247001,0.246704,0.0487068,7,0.014814,11,1.20162e-05,-4.31241,0.971827,0.0607104,0.114449,0.246704,
2,1,0,1,0,7997.05,0.248499,0.248216,0.0485258,7,0.0149106,11,1.20449e-05,-4.31403,-56.9954,-0.00103517,-0.00197169,0.248216,
2,1,0,1,0,7998.54,0.249997,0.249713,0.04895,7,0.0150072,11,1.22235e-05,-4.31025,1.71355,0.0344315,0.0655412,0.249713,
2,1,0,1,0,8000.04,0.251496,0.251199,0.0488791,7,0.0151042,11,1.22784e-05,-4.31088,0.845906,0.0697477,0.133457,0.251199,
2,1,0,1,0,8001.54,0.252994,0.252722,0.0489764,7,0.0152013,11,1.23774e-05,-4.31001,-93.6818,-0.000629791,-0.00120597,0.252722,
2,1,0,1,0,8003.04,0.254492,0.254208,0.0492145,7,0.0152985,11,1.25107e-05,-4.30791,-432.646,-0.00013637,-0.00026079,0.254208,
2,1,0,1,0,8004.54,0.25599,0.25573,0.0495071,7,0.0153957,11,1.26605e-05,-4.30533,0.996449,0.0592102,0.114332,0.25573,
2,1,0,1,0,8006.04,0.257488,0.25721,0.049808,7,0.0154933,11,1.28111e-05,-4.3027,0.72155,0.0817684,0.158326,0.25721,
2,1,0,1,0,8007.53,0.258987,0.258704,0.049624,7,0.0155912,11,1.2838e-05,-4.30431,1.1686,0.0504879,0.0976967,0.258704,
2,1,0,1,0,8009.03,0.260485,0.260207,0.0498985,7,0.0156892,11,1.29839e-05,-4.30191,-1.75524,-0.0336136,-0.065774,0.260207,
2,1,0,1,0,8010.53,0.261983,0.261678,0.0497263,7,0.0157873,11,1.30123e-05,-4.30341,1.20049,0.0491468,0.0962181,0.261678,
2,1,0,1,0,8012.03,0.263481,0.26316,0.0501888,7,0.0158857,11,1.32077e-05,-4.29939,2.42136,0.0243664,0.0477123,0.26316,
2,1,0,1,0,8013.53,0.264979,0.264696,0.0501491,7,0.0159844,11,1.32743e-05,-4.29974,1.05727,0.0558041,0.10966,0.264696,
2,1,0,1,0,8015.02,0.266477,0.266195,0.0503748,7,0.0160832,11,1.34095e-05,-4.29779,1.19084,0.0495451,0.0974953,0.266195,
2,1,0,1,0,8016.52,0.267976,0.267638,0.0503794,7,0.016182,11,1.34835e-05,-4.29775,2.04627,0.0288329,0.0569029,0.267638,
2,1,0,1,0,8018.02,0.269474,0.269212,0.0507563,7,0.0162811,11,1.36642e-05,-4.29451,0.712777,0.0827748,0.163838,0.269212,
2,1,0,1,0,8019.52,0.270972,0.270673,0.0512109,7,0.0163805,11,1.38614e-05,-4.29064,0.771488,0.0764756,0.151238,0.270673,
2,1,0,1,0,8021.02,0.27247,0.272188,0.0510245,7,0.0164801,11,1.38883e-05,-4.29222,0.783775,0.0752767,0.149774,0.272188,
2,1,0,1,0,8022.52,0.273968,0.273653,0.0511251,7,0.0165797,11,1.39905e-05,-4.29137,2.03933,0.0289311,0.0577662,0.273653,
2,1,0,1,0,8024.01,0.275467,0.275219,0.0512958,7,0.0166795,11,1.41176e-05,-4.28992,0.747582,0.0789211,0.15813,0.275219,
2,1,0,1,0,8025.51,0.276965,0.276631,0.051366,7,0.0167796,11,1.42094e-05,-4.28932,2.25516,0.0261622,0.0522839,0.276631,
2,1,0,1,0,8027.01,0.278463,0.278195,0.0517891,7,0.01688,11,1.44074e-05,-4.28576,1.25022,0.0471916,0.0947771,0.278195,
2,1,0,1,0,8028.51,0.279961,0.279705,0.0517508,7,0.0169806,11,1.4475e-05,-4.28608,0.609459,0.0968071,0.195695,0.279705,
2,1,0,1,0,8030.01,0.281459,0.281207,0.0518091,7,0.0170813,11,1.45691e-05,-4.28559,1.74438,0.0338229,0.0685254,0.281207,
2,1,0,1,0,8031.5,0.282958,0.282662,0.0520333,7,0.0171822,11,1.47078e-05,-4.28372,9.33099,0.00632302,0.0128626,0.282662,
2,1,0,1,0,8033,0.284456,0.284166,0.0520694,7,0.0172833,11,1.47963e-05,-4.28342,-3.03134,-0.0194633,-0.0395522,0.284166,
2,1,0,1,0,8034.5,0.285954,0.285658,0.0524469,7,0.0173845,11,1.49819e-05,-4.28028,1.03536,0.0569848,0.116608,0.285658,
2,1,0,1,0,8036,0.287452,0.287166,0.0526316,7,0.0174857,11,1.5114e-05,-4.27875,0.906885,0.0650579,0.133578,0.287166,
2,1,0,1,0,8037.5,0.28895,0.288627,0.0525871,7,0.0175873,11,1.51781e-05,-4.27912,0.63141,0.0934416,0.191454,0.288627,
2,1,0,1,0,8039,0.290448,0.290157,0.0525451,7,0.0176891,11,1.52463e-05,-4.27947,1.52855,0.0385987,0.0796186,0.290157,
2,1,0,1,0,8040.49,0.291947,0.291662,0.0530563,7,0.0177912,11,1.54745e-05,-4.27526,0.856387,0.0688941,0.14256,0.2916618,
2,1,0,1,0,8041.99,0.293445,0.293146,0.0528341,7,0.0178933,11,1.54881e-05,-4.27709,1.33438,0.0442154,0.0916728,0.2931464,
2,1,0,1,0,8043.49,0.294943,0.294667,0.0533089,7,0.0179957,11,1.57084e-05,-4.2732,0.472951,0.124749,0.259295,0.294667,
2,1,0,1,0,8044.99,0.296441,0.296157,0.0536343,7,0.0180985,11,1.58842e-05,-4.27056,-4.53855,-0.0129997,-0.0270027,0.296157,
2,1,0,1,0,8046.49,0.297939,0.297679,0.0530273,7,0.0182013,11,1.57851e-05,-4.2755,2.53173,0.0233042,0.0486538,0.297679,
2,1,0,1,0,8047.98,0.299438,0.299195,0.0532606,7,0.0183041,11,1.59353e-05,-4.27359,-0.00543381,-10.8579,-15.7114,0.299195,
2,1,0,1,0,8048.83,0.299737,0.299453,0.0299355,7,0.018348,11,8.96427e-06,-4.52381,0.00247446,23.8435,30.1943,0.299453,
2,1,0,1,0,8050.33,0.298239,0.297967,0.0192789,7,0.0183606,11,5.74446e-06,-4.71492,0.00654031,9.02098,10.3727,0.297967,
2,1,0,1,0,8051.83,0.296741,0.296462,0.0154791,7,0.018364,11,4.58896e-06,-4.81025,0.0147914,3.98881,2.4885,0.296462,
2,1,0,1,0,8053.33,0.295243,0.294908,0.011993,7,0.0183619,11,3.53682e-06,-4.92107,0.0155077,3.80457,1.88054,0.294908,
2,1,0,1,0,8054.83,0.293745,0.293448,0.00934016,7,0.018356,11,2.74085e-06,-5.02965,0.0152762,3.86222,1.46033,0.293448,
2,1,0,1,0,8056.33,0.292246,0.291956,0.00781436,7,0.0183469,11,2.28145e-06,-5.10711,0.0160752,3.67026,1.13003,0.291956,
2,1,0,1,0,8057.82,0.290748,0.290455,0.00624565,7,0.0183347,11,1.81408e-06,-5.20442,0.0121036,4.87459,1.15035,0.290455,
2,0,0,1,0,8059.32,0.28925,0.288987,0.00449233,7,0.0183199,11,1.29823e-06,-5.34753,0.0101278,5.82557,0.999803,0.288987,
2,1,0,1,0,8060.82,0.287752,0.287498,0.00305511,7,0.0183028,11,8.78337e-07,-5.51497,0.00780521,7.55906,0.821124,0.287498,
2,1,0,1,0,8062.32,0.286254,0.285964,0.00160978,7,0.0182838,11,4.60339e-07,-5.79323,0.00243272,24.2527,0.781088,0.285964,
2,1,0,1,0,8063.82,0.284755,0.284468,0.000112651,7,0.0182626,11,3.20455e-08,-6.94827,0.0164712,3.58201,1.01477,0.284468,
2,1,0,1,0,8065.31,0.283257,0.282975,-0.000918431,7,0.0182393,11,-2.59893e-07,-6.03695,-0.0189932,-3.10637,0.843441,0.282975,
2,1,0,1,0,8066.81,0.281759,0.281451,-0.00197646,7,0.0182145,11,-5.56277e-07,-5.70411,-0.00619313,-9.52668,0.627535,0.281451,
2,1,0,1,0,8068.31,0.280261,0.279976,-0.00281706,7,0.0181879,11,-7.8871e-07,-5.5502,-0.00742662,-7.94439,0.745965,0.279976,
2,1,0,1,0,8069.81,0.278763,0.2785,-0.00425236,7,0.0181598,11,-1.18428e-06,-5.37137,-0.0128679,-4.58504,0.658619,0.2785,
2,1,0,1,0,8071.31,0.277264,0.277003,-0.0052257,7,0.0181299,11,-1.44753e-06,-5.28186,-0.0147883,-3.98963,0.750393,0.277003,
2,1,0,1,0,8072.81,0.275766,0.275507,-0.0063156,7,0.0180985,11,-1.73999e-06,-5.19959,-0.0255476,-2.30942,0.531118,0.275507,
2,0,0,1,0,8074.3,0.274268,0.273969,-0.00660797,7,0.0180658,11,-1.81038e-06,-5.17993,-0.0259889,-2.2702,0.595754,0.273969,
2,0,0,1,0,8075.8,0.27277,0.27247,-0.00786693,7,0.0180318,11,-2.1435e-06,-5.10419,-0.0304424,-1.93809,0.589251,0.27247,
2,0,0,1,0,8077.3,0.271272,0.270953,-0.00857125,7,0.0179963,11,-2.32241e-06,-5.06696,-0.0301518,-1.95677,0.660479,0.270953,
2,0,0,1,0,8078.8,0.269774,0.269472,-0.00951406,7,0.0179593,11,-2.56377e-06,-5.02163,-0.0376107,-1.5687,0.564982,0.269472,
2,0,0,1,0,8080.3,0.268275,0.267968,-0.010321,7,0.0179211,11,-2.76569e-06,-4.98628,-0.0665834,-0.886107,0.353005,0.267968,
2,0,0,1,0,8081.79,0.266777,0.266484,-0.0112888,7,0.0178819,11,-3.00828e-06,-4.94735,-0.0462315,-1.27619,0.537977,0.266484,
2,0,0,1,0,8083.29,0.265279,0.265003,-0.0115483,7,0.0178414,11,-3.06033e-06,-4.93748,-0.0524344,-1.12521,0.518557,0.2650032,
2,1,0,1,0,8084.79,0.263781,0.26351,-0.0123218,7,0.0177996,11,-3.24692e-06,-4.90933,-0.0700766,-0.841936,0.409485,0.26351,
2,0,0,1,0,8086.29,0.262283,0.261963,-0.013419,7,0.0177567,11,-3.51528e-06,-4.87228,-0.0732548,-0.805408,0.412709,0.261963,
2,0,0,1,0,8087.79,0.260784,0.260501,-0.0140835,7,0.0177129,11,-3.66877e-06,-4.85129,-0.065691,-0.898145,0.499761,0.260501,
2,0,0,1,0,8089.29,0.259286,0.258998,-0.0147987,7,0.0176676,11,-3.83282e-06,-4.82978,-0.0634185,-0.930328,0.534614,0.258998,
2,0,0,1,0,8090.78,0.257788,0.257528,-0.0154102,7,0.0176213,11,-3.96857e-06,-4.81219,-0.106548,-0.553743,0.337076,0.257528,
2,0,0,1,0,8092.28,0.25629,0.255981,-0.0162272,7,0.0175739,11,-4.15386e-06,-4.78976,-0.0708067,-0.833255,0.519305,0.255981,
2,0,0,1,0,8093.78,0.254792,0.254509,-0.0168336,7,0.0175255,11,-4.28432e-06,-4.77382,-0.0660129,-0.893765,0.593262,0.254509,
2,0,0,1,0,8095.28,0.253293,0.253022,-0.0176257,7,0.017476,11,-4.45968e-06,-4.75385,-0.0780973,-0.755467,0.515356,0.253022,
2,0,0,1,0,8096.78,0.251795,0.251488,-0.0180572,7,0.0174254,11,-4.54116e-06,-4.74335,-0.0854575,-0.690402,0.497295,0.251488,
2,0,0,1,0,8098.27,0.250297,0.250049,-0.018583,7,0.0173737,11,-4.64667e-06,-4.73088,-0.0928621,-0.635351,0.471189,0.250049,
2,0,0,1,0,8099.77,0.248799,0.24851,-0.0198048,7,0.0173211,11,-4.92169e-06,-4.70323,-0.113804,-0.518435,0.39656,0.24851,
2,0,0,1,0,8101.27,0.247301,0.247014,-0.0203573,7,0.0172676,11,-5.02854e-06,-4.69128,-0.0921706,-0.640117,0.503828,0.247014,
2,0,0,1,0,8102.77,0.245802,0.24549,-0.0210494,7,0.017213,11,-5.1674e-06,-4.67676,-0.0844902,-0.698306,0.566333,0.2454896,
2,0,0,1,0,8104.27,0.244304,0.24399,-0.0218793,7,0.017157,11,-5.33834e-06,-4.65997,-0.130344,-0.452649,0.382795,0.24399,
2,0,0,1,0,8105.77,0.242806,0.242477,-0.0223866,7,0.0171002,11,-5.42824e-06,-4.65001,-0.149852,-0.393722,0.344904,0.242477,
2,0,0,1,0,8107.26,0.241308,0.241031,-0.0234154,7,0.0170426,11,-5.64383e-06,-4.6305,-0.109089,-0.540844,0.4805,0.241031,
2,0,0,1,0,8108.76,0.23981,0.239503,-0.0237614,7,0.0169839,11,-5.69091e-06,-4.62413,-0.100849,-0.585035,0.540282,0.239503,
2,0,0,1,0,8110.26,0.238312,0.238042,-0.0244782,7,0.0169242,11,-5.82684e-06,-4.61122,-0.142089,-0.415232,0.39184,0.238042,
2,0,0,1,0,8111.76,0.236813,0.236487,-0.0241521,7,0.0168635,11,-5.71164e-06,-4.61705,-0.114286,-0.516247,0.503226,0.236487,
2,0,0,1,0,8113.26,0.235315,0.235059,-0.0254207,7,0.016802,11,-5.97537e-06,-4.59481,-0.119214,-0.494908,0.490803,0.235059,
2,0,0,1,0,8114.75,0.233817,0.233539,-0.0265395,7,0.0167394,11,-6.19801e-06,-4.57611,-0.153484,-0.384404,0.392955,0.233539,
2,0,0,1,0,8116.25,0.232319,0.231991,-0.0271668,7,0.0166757,11,-6.30244e-06,-4.56596,-0.11686,-0.504876,0.525319,0.231991,
2,0,0,1,0,8117.75,0.230821,0.230499,-0.0278054,7,0.0166111,11,-6.40911e-06,-4.55587,-0.135154,-0.436538,0.469743,0.230499,
2,0,0,1,0,8119.25,0.229322,0.22901,-0.0282563,7,0.0165456,11,-6.47098e-06,-4.54888,-0.221049,-0.26691,0.291986,0.22901,
2,0,0,1,0,8120.75,0.227824,0.227533,-0.0285683,7,0.0164791,11,-6.50021e-06,-4.54412,-0.126915,-0.464878,0.523354,0.227533,
2,0,0,1,0,8122.25,0.226326,0.226011,-0.0293554,7,0.0164116,11,-6.63464e-06,-4.53231,-0.129629,-0.455145,0.525227,0.226011,
2,0,0,1,0,8123.74,0.224828,0.224541,-0.0296347,7,0.0163431,11,-6.65422e-06,-4.5282,-0.161316,-0.365741,0.428273,0.224541,
2,0,0,1,0,8125.24,0.22333,0.223063,-0.0303263,7,0.0162736,11,-6.76467e-06,-4.51818,-0.152953,-0.385739,0.464918,0.223063,
2,0,0,1,0,8126.74,0.221831,0.221547,-0.031367,7,0.0162034,11,-6.94926e-06,-4.50353,-0.170266,-0.346517,0.426595,0.221547,
2,0,0,1,0,8128.24,0.220333,0.220065,-0.0314771,7,0.0161318,11,-6.92702e-06,-4.50201,-0.207254,-0.284675,0.355274,0.220065,
2,0,0,1,0,8129.74,0.218835,0.218559,-0.0328674,7,0.0160591,11,-7.18345e-06,-4.48323,-0.14996,-0.393439,0.503437,0.218559,
2,0,0,1,0,8131.24,0.217337,0.21703,-0.033583,7,0.0159855,11,-7.28853e-06,-4.47388,-0.187222,-0.315135,0.408773,0.21703,
2,0,0,1,0,8132.73,0.215839,0.215546,-0.0343527,7,0.015911,11,-7.40457e-06,-4.46404,-0.1784,-0.330718,0.438983,0.215546,
2,0,0,1,0,8134.23,0.21434,0.214027,-0.0343943,7,0.0158354,11,-7.36133e-06,-4.46351,-0.132923,-0.443867,0.599628,0.214027,
2,0,0,1,0,8135.73,0.212842,0.212587,-0.0356145,7,0.0157587,11,-7.57119e-06,-4.44837,-0.150347,-0.392426,0.541461,0.2125874,
2,0,0,1,0,8137.23,0.211344,0.211072,-0.0362993,7,0.0156809,11,-7.66176e-06,-4.4401,-0.158921,-0.371254,0.526272,0.2110721,
2,0,0,1,0,8138.73,0.209846,0.209574,-0.0367934,7,0.0156022,11,-7.71092e-06,-4.43423,-0.177467,-0.332457,0.478092,0.209574,
2,0,0,1,0,8140.22,0.208348,0.208044,-0.0373042,7,0.0155223,11,-7.76089e-06,-4.42824,-0.230954,-0.255462,0.375636,0.208044,
2,0,0,1,0,8141.72,0.20685,0.206545,-0.0387136,7,0.0154411,11,-7.99612e-06,-4.41214,-0.168455,-0.350242,0.526568,0.206545,
2,0,0,1,0,8143.22,0.205351,0.205014,-0.0391053,7,0.0153586,11,-8.01714e-06,-4.40776,-0.282964,-0.208507,0.316337,0.205014,
2,0,0,1,0,8144.72,0.203853,0.20352,-0.0397019,7,0.0152753,11,-8.08012e-06,-4.40119,-0.172193,-0.342639,0.531369,0.20352,
2,0,0,1,0,8146.22,0.202355,0.202043,-0.0405484,7,0.0151909,11,-8.1925e-06,-4.39203,-0.188909,-0.31232,0.495758,0.202043,
2,0,0,1,0,8147.72,0.200857,0.200552,-0.0412722,7,0.0151051,11,-8.27721e-06,-4.38434,-0.194527,-0.3033,0.488678,0.2005517,
2,0,0,1,0,8149.21,0.199359,0.199077,-0.0423309,7,0.0150181,11,-8.4271e-06,-4.37334,-0.219517,-0.268772,0.440454,0.1990767,
2,0,0,1,0,8150.71,0.19786,0.197569,-0.0429804,7,0.0149298,11,-8.49159e-06,-4.36673,-0.161482,-0.365365,0.6116,0.197569,
2,0,0,1,0,8152.21,0.196362,0.196047,-0.0439952,7,0.0148405,11,-8.62513e-06,-4.35659,-0.155071,-0.380472,0.648989,0.196047,
2,0,0,1,0,8153.71,0.194864,0.194578,-0.0444399,7,0.0147495,11,-8.64705e-06,-4.35223,-0.189332,-0.311622,0.541128,0.194578,
2,0,0,1,0,8155.21,0.193366,0.193068,-0.0455519,7,0.0146569,11,-8.79464e-06,-4.34149,-0.15657,-0.376829,0.669248,0.193068,
2,0,0,1,0,8156.7,0.191868,0.191567,-0.0465373,7,0.014563,11,-8.91501e-06,-4.3322,-0.146788,-0.401939,0.735279,0.191567,
2,0,0,1,0,8158.2,0.190369,0.190062,-0.0477807,7,0.014468,11,-9.08129e-06,-4.32075,-0.187235,-0.315112,0.582438,0.190062,
2,0,0,1,0,8159.7,0.188871,0.188564,-0.0484891,7,0.0143709,11,-9.1433e-06,-4.31436,-0.135956,-0.433964,0.822155,0.188564,
2,0,0,1,0,8161.2,0.187373,0.187113,-0.0494138,7,0.0142721,11,-9.24597e-06,-4.30615,-0.165635,-0.356204,0.688407,0.187113,
2,0,0,1,0,8162.7,0.185875,0.185603,-0.0508087,7,0.0141717,11,-9.43027e-06,-4.29406,-0.132374,-0.445707,0.887064,0.185603,
2,0,0,1,0,8164.2,0.184377,0.184096,-0.0517796,7,0.0140696,11,-9.53244e-06,-4.28584,-0.165787,-0.355878,0.724169,0.184096,
2,0,0,1,0,8165.69,0.182878,0.182574,-0.0534738,7,0.0139654,11,-9.7629e-06,-4.27186,-0.13777,-0.42825,0.893399,0.1825736,
2,0,0,1,0,8167.19,0.18138,0.18109,-0.0547974,7,0.0138591,11,-9.92326e-06,-4.26124,-0.157264,-0.375165,0.799981,0.18109,
2,0,0,1,0,8168.69,0.179882,0.179577,-0.0567164,7,0.0137505,11,-1.0185e-05,-4.24629,-0.146421,-0.402947,0.879892,0.179577,
2,0,0,1,0,8170.19,0.178384,0.178136,-0.0577529,7,0.0136398,11,-1.02879e-05,-4.23843,-0.131209,-0.449665,1.01208,0.178136,
2,0,0,1,0,8171.69,0.176886,0.176574,-0.059292,7,0.0135269,11,-1.04694e-05,-4.227,-0.106862,-0.552114,1.28403,0.176574,
2,0,0,1,0,8173.18,0.175388,0.175096,-0.0612552,7,0.0134111,11,-1.07255e-05,-4.21286,-0.124273,-0.474761,1.1326,0.1750956,
2,0,0,1,0,8174.68,0.173889,0.17357,-0.0630923,7,0.0132925,11,-1.09509e-05,-4.20002,-0.110653,-0.533197,1.3052,0.17357,
2,0,0,1,0,8176.18,0.172391,0.172097,-0.0651622,7,0.0131707,11,-1.12142e-05,-4.186,-0.110268,-0.535058,1.35528,0.172097,
2,0,0,1,0,8177.68,0.170893,0.170581,-0.0677875,7,0.0130461,11,-1.15633e-05,-4.16885,-0.105733,-0.558011,1.46314,0.170581,
2,0,0,1,0,8179.18,0.169395,0.169075,-0.0697837,7,0.0129175,11,-1.17987e-05,-4.15625,-0.0931753,-0.633215,1.71887,0.169075,
2,0,0,1,0,8180.68,0.167897,0.167646,-0.0721804,7,0.0127849,11,-1.21008e-05,-4.14158,-0.0863643,-0.683152,1.93709,0.167646,
2,0,0,1,0,8182.17,0.166398,0.16608,-0.074811,7,0.0126483,11,-1.24246e-05,-4.12603,-0.0930132,-0.634319,1.87098,0.16608,
2,0,0,1,0,8183.67,0.1649,0.164607,-0.0778302,7,0.0125073,11,-1.28114e-05,-4.10885,-0.0872768,-0.67601,2.07394,0.164607,
2,0,0,1,0,8185.17,0.163402,0.163114,-0.0814991,7,0.0123609,11,-1.32937e-05,-4.08885,-0.0743764,-0.793263,2.53631,0.163114,
2,0,0,1,0,8186.67,0.161904,0.161555,-0.0856764,7,0.012209,11,-1.38415e-05,-4.06714,-0.0747101,-0.789719,2.65245,0.1615552,
2,0,0,1,0,8188.17,0.160406,0.160098,-0.0901853,7,0.0120509,11,-1.44385e-05,-4.04486,-0.0713185,-0.827275,2.90595,0.160098,
2,0,0,1,0,8189.66,0.158907,0.158612,-0.0936653,7,0.0118862,11,-1.48564e-05,-4.02842,-0.0684444,-0.862014,3.18309,0.158612,
2,0,0,1,0,8191.16,0.157409,0.15713,-0.0998189,7,0.0117141,11,-1.56846e-05,-4.00079,-0.0653366,-0.903016,3.52754,0.15713,
2,0,0,1,0,8192.66,0.155911,0.155616,-0.105391,7,0.0115338,11,-1.64006e-05,-3.97719,-0.0653677,-0.902586,3.70856,0.155616,
2,0,0,1,0,8194.16,0.154413,0.154083,-0.111339,7,0.0113443,11,-1.71554e-05,-3.95335,-0.0659534,-0.894571,3.8766,0.154083,
2,0,0,1,0,8195.66,0.152915,0.1526,-0.117914,7,0.0111459,11,-1.79936e-05,-3.92844,-0.0636184,-0.927405,4.26075,0.1526,
2,0,0,1,0,8197.16,0.151417,0.151111,-0.12359,7,0.0109381,11,-1.86759e-05,-3.90802,-0.0612706,-0.962941,4.64904,0.151111,
2,0,0,1,0,8198.65,0.149918,0.149634,-0.131229,7,0.0107195,11,-1.96364e-05,-3.88197,-0.0641709,-0.919419,4.7025,0.149634,
2,0,0,1,0,8200.15,0.14842,0.148128,-0.138722,7,0.0104905,11,-2.05487e-05,-3.85785,-0.0684957,-0.861368,4.6321,0.148128,
2,0,0,1,0,8201.65,0.146922,0.146617,-0.144963,7,0.0102507,11,-2.1254e-05,-3.83874,-0.0726105,-0.812554,4.57442,0.146617,
2,0,0,1,0,8203.15,0.145424,0.145119,-0.151582,7,0.0100015,11,-2.19974e-05,-3.81935,-0.0817784,-0.721462,4.26167,0.145119,
2,0,0,1,0,8204.65,0.143926,0.143629,-0.157682,7,0.00974172,11,-2.26478e-05,-3.80222,-0.0807833,-0.730349,4.48278,0.143629,
2,0,0,1,0,8206.14,0.142427,0.14215,-0.164146,7,0.00947194,11,-2.33334e-05,-3.78477,-0.0989315,-0.596372,3.81769,0.14215,
2,0,0,1,0,8207.64,0.140929,0.140661,-0.168992,7,0.00919406,11,-2.37705e-05,-3.77213,-0.12637,-0.466883,3.07919,0.140661,
2,0,0,1,0,8209.14,0.139431,0.139148,-0.173718,7,0.00890929,11,-2.41725e-05,-3.76015,-0.135846,-0.434317,2.93611,0.139148,
2,0,0,1,0,8210.64,0.137933,0.137646,-0.178055,7,0.00861797,11,-2.45086e-05,-3.74945,-0.171882,-0.34326,2.36794,0.137646,
2,0,0,1,0,8212.14,0.136435,0.136067,-0.182215,7,0.00832083,11,-2.47935e-05,-3.73942,-0.227924,-0.258859,1.82135,0.136067,
2,0,0,1,0,8213.64,0.134936,0.134601,-0.183834,7,0.00801948,11,-2.47442e-05,-3.73557,-0.330024,-0.178775,1.27044,0.134601,
2,0,0,1,0,8215.13,0.133438,0.133138,-0.183902,7,0.00771543,11,-2.44844e-05,-3.73541,-0.544242,-0.108408,0.782195,0.133138,
2,0,0,1,0,8216.63,0.13194,0.131645,-0.186464,7,0.00740948,11,-2.45471e-05,-3.72941,-0.840761,-0.0701745,0.511199,0.1316454,
2,0,0,1,0,8218.13,0.130442,0.130099,-0.186905,7,0.0071017,11,-2.43162e-05,-3.72838,-133.295,-0.000442627,0.00322538,0.130099,
2,0,0,1,0,8219.63,0.128944,0.128656,-0.186746,7,0.00679334,11,-2.4026e-05,-3.72875,0.628364,0.0938946,-0.683025,0.128656,
2,0,0,1,0,8221.13,0.127445,0.127121,-0.186497,7,0.00648585,11,-2.37077e-05,-3.72933,0.966817,0.061025,-0.443437,0.127121,
2,0,0,1,0,8222.62,0.125947,0.125652,-0.185451,7,0.00618058,11,-2.33023e-05,-3.73177,0.528094,0.111722,-0.807755,0.125652,
2,0,0,1,0,8224.12,0.124449,0.124177,-0.184416,7,0.00587578,11,-2.29003e-05,-3.7342,0.569702,0.103563,-0.742959,0.124177,
2,0,0,1,0,8225.62,0.122951,0.122611,-0.183284,7,0.00557283,11,-2.24726e-05,-3.73688,0.38833,0.151933,-1.08364,0.1226108,
2,0,0,1,0,8227.12,0.121453,0.121136,-0.181589,7,0.00527214,11,-2.1997e-05,-3.74091,0.350956,0.168112,-1.18548,0.121136,
2,0,0,1,0,8228.62,0.119955,0.119676,-0.178582,7,0.0049752,11,-2.13719e-05,-3.74816,0.38261,0.154204,-1.07928,0.119676,
2,0,0,1,0,8230.12,0.118456,0.118106,-0.176898,7,0.00468059,11,-2.08928e-05,-3.75228,0.407033,0.144952,-0.998556,0.118106,
2,0,0,1,0,8231.61,0.116958,0.116647,-0.175078,7,0.00438837,11,-2.04224e-05,-3.75677,0.289475,0.203817,-1.39268,0.116647,
2,0,0,1,0,8233.11,0.11546,0.115137,-0.172078,7,0.00409982,11,-1.98126e-05,-3.76427,0.245192,0.240628,-1.62387,0.115137,
2,0,0,1,0,8234.61,0.113962,0.113646,-0.169514,7,0.00381554,11,-1.92646e-05,-3.77079,0.213746,0.276029,-1.83199,0.1136461,
2,0,0,1,0,8236.11,0.112464,0.112106,-0.167918,7,0.00353472,11,-1.88247e-05,-3.7749,0.220706,0.267324,-1.74799,0.112106,
2,0,0,1,0,8237.61,0.110965,0.110648,-0.166051,7,0.0032575,11,-1.83732e-05,-3.77976,0.230289,0.2562,-1.65168,0.110648,
2,0,0,1,0,8239.1,0.109467,0.109109,-0.162727,7,0.00298384,11,-1.7755e-05,-3.78854,0.221693,0.266134,-1.68585,0.1091087,
2,0,0,1,0,8240.6,0.107969,0.107686,-0.160051,7,0.00271412,11,-1.72352e-05,-3.79574,0.220406,0.267688,-1.67588,0.1076856,
2,0,0,1,0,8242.1,0.106471,0.106181,-0.157992,7,0.00244854,11,-1.67757e-05,-3.80136,0.278822,0.211605,-1.30975,0.106181,
2,0,0,1,0,8243.6,0.104973,0.104639,-0.15613,7,0.00218603,11,-1.63373e-05,-3.80651,0.21954,0.268744,-1.64067,0.104639,
2,0,0,1,0,8245.1,0.103474,0.10316,-0.153429,7,0.00192667,11,-1.58277e-05,-3.81409,0.219123,0.269255,-1.60733,0.10316,
2,0,0,1,0,8246.6,0.101976,0.101648,-0.151645,7,0.00167084,11,-1.54144e-05,-3.81917,0.241407,0.244401,-1.44432,0.101648,
2,0,0,1,0,8248.09,0.100478,0.100165,-0.150181,7,0.0014188,11,-1.50429e-05,-3.82338,0.279924,0.210772,-1.22652,0.100165,
2,0,0,1,0,8249.59,0.0989798,0.0986371,-0.147993,7,0.00116894,11,-1.45976e-05,-3.82976,0.302331,0.19515,-1.12311,0.0986371,
2,0,0,1,0,8251.09,0.0974816,0.0971355,-0.146244,7,0.000921817,11,-1.42055e-05,-3.83492,0.300264,0.196494,-1.11922,0.0971355,
2,0,0,1,0,8252.59,0.0959834,0.0956583,-0.144366,7,0.000677459,11,-1.38098e-05,-3.84054,0.366835,0.160835,-0.910323,0.09565834,
2,0,0,1,0,8254.09,0.0944852,0.0941674,-0.142399,7,0.000435949,11,-1.34094e-05,-3.84649,0.300114,0.196592,-1.0966,0.0941674,
2,0,0,1,0,8255.58,0.0929871,0.0926872,-0.141389,7,0.00019601,11,-1.3105e-05,-3.84958,0.593,0.099494,-0.548163,0.0926872,
2,0,0,1,0,8257.08,0.0914889,0.0911612,-0.140615,7,-4.21762e-05,11,-1.28186e-05,-3.85197,0.446811,0.132047,-0.724622,0.0911612,
2,0,0,1,0,8258.58,0.0899907,0.0896852,-0.139158,7,-0.000278411,11,-1.24804e-05,-3.85649,0.383601,0.153806,-0.834108,0.0896852,
2,0,0,1,0,8260.08,0.0884925,0.0882006,-0.137305,7,-0.000512488,11,-1.21104e-05,-3.86231,0.438042,0.13469,-0.725782,0.0882006,
2,0,0,1,0,8261.58,0.0869943,0.0866863,-0.137282,7,-0.000744851,11,-1.19005e-05,-3.86239,0.401066,0.147108,-0.785634,0.0866863,
2,0,0,1,0,8263.08,0.0854961,0.0851879,-0.136415,7,-0.000975995,11,-1.16209e-05,-3.86514,0.510623,0.115545,-0.612311,0.0851879,
2,0,0,1,0,8264.57,0.083998,0.0836875,-0.134262,7,-0.00120569,11,-1.1236e-05,-3.87205,0.335219,0.176004,-0.923846,0.0836875,
2,0,0,1,0,8266.07,0.0824998,0.082221,-0.133329,7,-0.00143377,11,-1.09624e-05,-3.87508,0.503982,0.117068,-0.614594,0.082221,
2,0,0,1,0,8267.57,0.0810016,0.0807067,-0.13283,7,-0.00165979,11,-1.07202e-05,-3.87671,0.612556,0.0963178,-0.500955,0.0807067,
2,0,0,1,0,8269.07,0.0795034,0.0791723,-0.132426,7,-0.00188498,11,-1.04845e-05,-3.87803,0.368147,0.160262,-0.826586,0.0791723,
2,0,0,1,0,8270.57,0.0780052,0.077692,-0.131639,7,-0.00210883,11,-1.02273e-05,-3.88062,0.379766,0.155359,-0.792647,0.077692,
2,0,0,1,0,8272.06,0.076507,0.0762064,-0.130475,7,-0.00233108,11,-9.94304e-06,-3.88447,0.350464,0.168348,-0.854431,0.0762064,
2,0,0,1,0,8273.56,0.0750088,0.0747006,-0.129369,7,-0.00255127,11,-9.66392e-06,-3.88817,0.416143,0.141778,-0.713633,0.0747006,
2,0,0,1,0,8275.06,0.0735106,0.0731936,-0.127793,7,-0.00277033,11,-9.35361e-06,-3.89349,0.418629,0.140936,-0.704284,0.0731936,
2,0,0,1,0,8276.56,0.0720124,0.0717016,-0.126746,7,-0.00298817,11,-9.08793e-06,-3.89706,0.402196,0.146695,-0.727504,0.0717016,
2,0,0,1,0,8278.06,0.0705142,0.0702097,-0.125476,7,-0.0032043,11,-8.80961e-06,-3.90144,0.441257,0.133709,-0.659299,0.0702097,
2,0,0,1,0,8279.56,0.069016,0.0687092,-0.124438,7,-0.00341807,11,-8.55006e-06,-3.90505,0.420385,0.140348,-0.686199,0.0687092,
2,0,0,1,0,8281.05,0.0675178,0.0672066,-0.123984,7,-0.00363093,11,-8.33255e-06,-3.90663,0.535249,0.110229,-0.532888,0.0672066,
2,0,0,1,0,8282.55,0.0660196,0.065722,-0.123531,7,-0.00384238,11,-8.11871e-06,-3.90822,0.333681,0.176816,-0.845486,0.065722,
2,0,0,1,0,8284.05,0.0645214,0.0642608,-0.121473,7,-0.00405201,11,-7.80594e-06,-3.91552,0.330926,0.178288,-0.845683,0.0642608,
2,0,0,1,0,8285.55,0.0630233,0.0626703,-0.120163,7,-0.00425943,11,-7.53065e-06,-3.92023,0.363279,0.16241,-0.762578,0.0626703,
2,0,0,1,0,8287.05,0.0615251,0.0612101,-0.119153,7,-0.0044651,11,-7.29335e-06,-3.9239,0.440588,0.133912,-0.621864,0.0612101,
2,0,0,1,0,8288.55,0.0600269,0.0596863,-0.118367,7,-0.00466937,11,-7.06489e-06,-3.92677,0.373329,0.158038,-0.728653,0.0596863,
2,0,0,1,0,8290.04,0.0585287,0.0582218,-0.116825,7,-0.0048716,11,-6.80177e-06,-3.93246,0.240303,0.245523,-1.11888,0.0582218,
2,0,0,1,0,8291.54,0.0570305,0.0567415,-0.115558,7,-0.00507219,11,-6.55692e-06,-3.9372,0.35564,0.165898,-0.750031,0.0567415,
2,0,0,1,0,8293.04,0.0555323,0.0552538,-0.114336,7,-0.00527069,11,-6.3175e-06,-3.94182,0.389722,0.15139,-0.678212,0.0552538,
2,0,0,1,0,8294.54,0.0540342,0.0537195,-0.11364,7,-0.00546785,11,-6.1047e-06,-3.94447,0.379157,0.155608,-0.689685,0.0537195,
2,0,0,1,0,8296.04,0.052536,0.0521935,-0.113204,7,-0.00566382,11,-5.90852e-06,-3.94614,0.388928,0.151699,-0.665534,0.05219347,
2,0,0,1,0,8297.53,0.0510378,0.0507196,-0.111595,7,-0.00585782,11,-5.66004e-06,-3.95236,0.380446,0.155081,-0.671935,0.0507196,
2,0,0,1,0,8299.03,0.0495396,0.0492254,-0.1108,7,-0.00604993,11,-5.4542e-06,-3.95546,0.453962,0.129967,-0.558745,0.0492254,
2,0,0,1,0,8300.53,0.0480414,0.0476868,-0.109791,7,-0.00624087,11,-5.23558e-06,-3.95943,0.809591,0.0728763,-0.310794,0.0476868,
2,0,0,1,0,8302.03,0.0465432,0.0462244,-0.108149,7,-0.00643036,11,-4.99913e-06,-3.96598,0.399378,0.14773,-0.626776,0.0462244,
2,0,0,1,0,8303.53,0.045045,0.0447187,-0.107642,7,-0.0066187,11,-4.81362e-06,-3.96802,0.477096,0.123665,-0.522634,0.0447187,
2,0,0,1,0,8305.03,0.0435468,0.0432096,-0.106718,7,-0.00680529,11,-4.61125e-06,-3.97176,0.407235,0.144879,-0.607426,0.0432096,
2,0,0,1,0,8306.52,0.0420486,0.0417028,-0.106216,7,-0.00699117,11,-4.42949e-06,-3.97381,0.652001,0.0904906,-0.37603,0.0417028,
2,0,0,1,0,8308.02,0.0405504,0.0402246,-0.106538,7,-0.00717629,11,-4.28544e-06,-3.9725,0.590405,0.0999315,-0.412187,0.0402246,
2,0,0,1,0,8309.52,0.0390522,0.038722,-0.105037,7,-0.00736073,11,-4.06726e-06,-3.97866,0.570211,0.10347,-0.423122,0.038722,
2,0,0,1,0,8311.02,0.037554,0.0372066,-0.104519,7,-0.00754391,11,-3.88881e-06,-3.9808,0.542149,0.108826,-0.445389,0.0372066,
2,0,0,1,0,8312.52,0.0360558,0.0357581,-0.103976,7,-0.00772629,11,-3.71798e-06,-3.98307,1.38452,0.042614,-0.173531,0.0357581,
2,0,0,1,0,8314.01,0.0345576,0.0342502,-0.103501,7,-0.00790834,11,-3.54494e-06,-3.98505,1.03439,0.0570385,-0.232165,0.0342502,
2,0,0,1,0,8315.51,0.0330594,0.0327349,-0.103731,7,-0.00809003,11,-3.39562e-06,-3.98409,0.715799,0.0824254,-0.33309,0.0327349,
2,0,0,1,0,8317.01,0.0315613,0.0312239,-0.103491,7,-0.0082712,11,-3.23141e-06,-3.9851,4.81347,0.0122573,-0.0496212,0.0312239,
2,0,0,1,0,8318.51,0.0300631,0.029734,-0.103303,7,-0.00845171,11,-3.07162e-06,-3.98589,-5.15134,-0.0114533,0.0460348,0.029734,
2,0,0,1,0,8320.01,0.0285649,0.0282728,-0.103304,7,-0.00863253,11,-2.9207e-06,-3.98588,-2.63937,-0.0223538,0.0901065,0.02827278,
2,0,0,1,0,8321.51,0.0270667,0.0267447,-0.103271,7,-0.00881339,11,-2.76194e-06,-3.98602,10.0031,0.00589819,-0.0237383,0.02674471,
2,0,0,1,0,8323,0.0255685,0.025275,-0.103142,7,-0.00899426,11,-2.60691e-06,-3.98656,-3.06212,-0.0192677,0.0775995,0.025275,
2,0,0,1,0,8324.5,0.0240703,0.0237215,-0.103272,7,-0.00917473,11,-2.44976e-06,-3.98602,-2.21832,-0.0265967,0.107522,0.0237215,
2,0,0,1,0,8326,0.0225722,0.0222179,-0.103345,7,-0.00935573,11,-2.2961e-06,-3.98571,-0.661326,-0.0892147,0.360525,0.0222179,
2,0,0,1,0,8327.5,0.021074,0.0207704,-0.104075,7,-0.00953707,11,-2.16168e-06,-3.98265,-1.63233,-0.0361446,0.147069,0.02077044,
2,0,0,1,0,8329,0.0195758,0.019253,-0.103868,7,-0.00971874,11,-1.99977e-06,-3.98352,-1.12531,-0.05243,0.213583,0.01925303,
2,0,0,1,0,8330.49,0.0180776,0.0177695,-0.104507,7,-0.00990072,11,-1.85703e-06,-3.98085,-0.867237,-0.0680321,0.277504,0.0177695,
2,0,0,1,0,8331.99,0.0165794,0.016304,-0.104806,7,-0.0100832,11,-1.70876e-06,-3.97961,-0.94856,-0.0621995,0.254704,0.016304,
2,0,0,1,0,8333.49,0.0150812,0.0147664,-0.105505,7,-0.0102665,11,-1.55793e-06,-3.97673,-0.634765,-0.0929478,0.381024,0.01476642,
2,0,0,1,0,8334.99,0.013583,0.0132574,-0.10602,7,-0.0104507,11,-1.40555e-06,-3.97461,-0.601906,-0.098022,0.404875,0.0132574,
2,0,0,1,0,8336.49,0.0120848,0.01174,-0.10634,7,-0.0106354,11,-1.24843e-06,-3.9733,-0.986405,-0.0598132,0.248274,0.01174,
2,0,0,1,0,8337.99,0.0105866,0.0102702,-0.106718,7,-0.0108207,11,-1.09601e-06,-3.97176,-0.780804,-0.0755632,0.315371,0.0102702,
2,0,0,1,0,8339.48,0.00908843,0.00875491,-0.10739,7,-0.011007,11,-9.40189e-07,-3.96904,-0.584132,-0.101005,0.424749,0.00875491,
2,0,0,1,0,8340.98,0.00759024,0.00727246,-0.108085,7,-0.0111946,11,-7.86047e-07,-3.96623,-1.18935,-0.0496071,0.209239,0.007272461,
2,0,0,1,0,8342.48,0.00609203,0.00579317,-0.108834,7,-0.011383,11,-6.30496e-07,-3.96323,-0.759924,-0.0776393,0.330455,0.00579317,
2,0,0,1,0,8343.98,0.00459384,0.00429166,-0.110072,7,-0.0115724,11,-4.7239e-07,-3.95832,-0.522498,-0.112919,0.484249,0.00429166,
2,0,0,1,0,8345.48,0.00309563,0.00277738,-0.111303,7,-0.0117634,11,-3.09131e-07,-3.95349,-0.40523,-0.145596,0.62776,0.00277738,
2,0,0,1,0,8346.97,0.00159744,0.00123977,-0.111886,7,-0.0119583,11,-1.38713e-07,-3.95123, , , ,0.00123977,
2,0,0,1,0,8348.37,0.000199235,-0.000138233,-0.112309,7,-0.0121393,11,1.55248e-08,-3.94958, , , ,-0.000138233,