File: Figure_codes/Fig_3-5/rawdata_trumpetplot_data/before 10th/20221101_1-115_002_TrumpetPlot_ParaChange_12_CV_C01_4.csv
mode,ox/red,error,control changes,counter inc.,time/s,control/V,Ewe/V,<I>/mA,cycle number,(Q-Qo)/C,I Range,P/W,log(|I|),Tafel slope mV/dec,alpha_eff,dI/d(E-IR),E-IR/V,
2,1,0,0,0,6136.6,2.44065e-05,-0.00042076,7.96167,5,0.0000000E+000,10,-3.34996e-06,-2.099, , , ,-0.00042076,
2,1,0,1,0,6136.61,0.00179726,0.00144503,7.83464,5,6.80141e-05,10,1.13213e-05,-2.10598, , , ,0.00144503,
2,1,0,1,0,6136.62,0.00379485,0.00347305,8.41237,5,0.000149478,10,2.92166e-05,-2.07508,0.0792126,0.744831,241.718,0.00347305,
2,1,0,1,0,6136.63,0.00579244,0.00550347,8.81564,5,0.000235813,10,4.85166e-05,-2.05475,0.106012,0.556541,190.84,0.00550347,
2,1,0,1,0,6136.64,0.00779002,0.00744958,9.17125,5,0.000325824,10,6.83219e-05,-2.03757,0.133509,0.441916,157.364,0.00744958,
2,1,0,1,0,6136.65,0.00977853,0.00947254,9.44023,5,0.000418108,10,8.9423e-05,-2.02502,0.184801,0.319261,117.242,0.00947254,
2,1,0,1,0,6136.66,0.0117761,0.0115513,9.65215,5,0.000513621,10,0.000111495,-2.01538,0.240158,0.245672,92.2605,0.0115513,
2,1,0,1,0,6136.67,0.0137737,0.0134531,9.80748,5,0.000610943,10,0.000131941,-2.00844,0.301457,0.195716,74.8341,0.0134531,
2,1,0,1,0,6136.68,0.0157713,0.0154521,9.94405,5,0.00070971,10,0.000153656,-2.00244,0.374804,0.157415,61.0022,0.0154521,
2,1,0,1,0,6136.69,0.017778,0.0174753,10.0528,5,0.000809809,10,0.000175677,-1.99771,0.511999,0.115235,45.1274,0.0174753,
2,1,0,1,0,6136.7,0.0197755,0.0194708,10.1254,5,0.000910699,10,0.00019715,-1.99459,0.648247,0.0910147,35.9632,0.0194708,
2,1,0,1,0,6136.71,0.0217731,0.0214819,10.1969,5,0.00101241,10,0.00021905,-1.99153,0.692025,0.085257,33.9164,0.0214819,
2,1,0,1,0,6136.72,0.0237707,0.0234844,10.2615,5,0.00111469,10,0.000240986,-1.98879,0.808603,0.0729654,29.2044,0.0234844,
2,1,0,1,0,6136.73,0.0257774,0.0255189,10.3148,5,0.00121763,10,0.000263223,-1.98654,0.912579,0.0646519,26.0221,0.0255189,
2,1,0,1,0,6136.74,0.027775,0.0274684,10.3652,5,0.00132103,10,0.000284716,-1.98442,0.936281,0.0630153,25.4905,0.0274684,
2,1,0,1,0,6136.75,0.0297726,0.0294596,10.4153,5,0.00142502,10,0.00030683,-1.98233,0.980196,0.060192,24.4636,0.02945957,
2,1,0,1,0,6136.76,0.0317701,0.0314646,10.463,5,0.00152939,10,0.000329213,-1.98035,0.86425,0.0682672,27.896,0.0314646,
2,1,0,1,0,6136.77,0.0337587,0.0334226,10.5258,5,0.00163329,10,0.000351801,-1.97774,0.788769,0.0748001,30.7221,0.0334226,
2,1,0,1,0,6136.78,0.0357562,0.0354531,10.5855,5,0.00173883,10,0.000375288,-1.97529,0.910075,0.0648298,26.7666,0.0354531,
2,1,0,1,0,6136.79,0.0377538,0.0374206,10.6328,5,0.00184498,10,0.000397888,-1.97335,0.821687,0.0718035,29.8311,0.0374206,
2,1,0,1,0,6136.8,0.0397514,0.0394725,10.7054,5,0.00195164,10,0.00042257,-1.9704,0.629709,0.0936941,39.1626,0.0394725,
2,1,0,1,0,6136.81,0.0417399,0.0413779,10.7878,5,0.00205803,10,0.000446377,-1.96707,0.592778,0.0995313,41.9073,0.0413779,
2,1,0,1,0,6136.82,0.0437375,0.0434549,10.8723,5,0.00216632,10,0.000472455,-1.96368,0.664564,0.0887801,37.6426,0.0434549,
2,1,0,1,0,6136.83,0.0457351,0.0454495,10.9411,5,0.00227537,10,0.000497268,-1.96094,0.566518,0.104145,44.5485,0.0454495,
2,1,0,1,0,6136.84,0.0477327,0.0474259,11.0492,5,0.00238529,10,0.000524019,-1.95667,0.463415,0.127316,54.9077,0.0474259,
2,1,0,1,0,6136.85,0.0497393,0.0494535,11.1609,5,0.0024963,10,0.000551948,-1.9523,0.469096,0.125774,54.7705,0.0494535,
2,1,0,1,0,6136.86,0.0517369,0.0514178,11.2678,5,0.00260842,10,0.000579367,-1.94816,0.44888,0.131438,57.8311,0.05141779,
2,1,0,1,0,6136.87,0.0537345,0.0533751,11.3877,5,0.00272175,10,0.000607822,-1.94356,0.395898,0.149028,66.3121,0.0533751,
2,1,0,1,0,6136.88,0.0557321,0.0554634,11.5361,5,0.00283638,10,0.000639833,-1.93794,0.384077,0.153615,69.1002,0.0554634,
2,1,0,1,0,6136.89,0.0577297,0.0573956,11.6655,5,0.00295243,10,0.000669551,-1.93309,0.346717,0.170168,77.6248,0.0573956,
2,1,0,1,0,6136.9,0.0597364,0.0594076,11.8423,5,0.00307003,10,0.000703521,-1.92656,0.3211,0.183743,84.87,0.0594076,
2,1,0,1,0,6136.91,0.0617339,0.0614152,12.0067,5,0.00318933,10,0.000737393,-1.92058,0.325645,0.181179,84.9294,0.0614152,
2,1,0,1,0,6136.92,0.0637315,0.0634046,12.1817,5,0.00331027,10,0.000772379,-1.91429,0.319225,0.184823,87.8671,0.0634046,
2,1,0,1,0,6136.93,0.0657291,0.0654175,12.3584,5,0.00343304,10,0.000808453,-1.90804,0.285468,0.206678,99.8623,0.0654175,
2,1,0,1,0,6136.94,0.0677176,0.06741,12.5817,5,0.00355658,10,0.000848134,-1.90026,0.289293,0.203945,99.9371,0.06741,
2,1,0,1,0,6136.95,0.0697152,0.0693927,12.7556,5,0.00368335,10,0.000885148,-1.8943,0.29823,0.197834,98.6391,0.0693927,
2,1,0,1,0,6136.96,0.0717128,0.0713635,12.9717,5,0.00381202,10,0.000925705,-1.887,0.278173,0.212099,107.343,0.0713635,
2,1,0,1,0,6136.97,0.0737104,0.07337,13.1826,5,0.00394285,10,0.000967205,-1.88,0.282069,0.209169,107.644,0.07337,
2,1,0,1,0,6136.98,0.0756989,0.0753776,13.4038,5,0.00407448,10,0.00101035,-1.87277,0.280222,0.210547,110.113,0.0753776,
2,1,0,1,0,6136.99,0.0776965,0.0773531,13.6212,5,0.00420961,10,0.00105364,-1.86579,0.276428,0.213437,113.545,0.0773531,
2,1,0,1,0,6137,0.0796941,0.079405,13.8611,5,0.00434703,10,0.00110064,-1.8582,0.26986,0.218632,118.267,0.07940501,
2,1,0,1,0,6137.01,0.0816917,0.0814274,14.103,5,0.00448695,10,0.00114837,-1.85069,0.26559,0.222147,122.281,0.0814274,
2,1,0,1,0,6137.02,0.0836983,0.083409,14.3507,5,0.00462922,10,0.00119698,-1.84313,0.272674,0.216375,121.092,0.083409,
2,1,0,1,0,6137.03,0.0856959,0.0853611,14.5794,5,0.00477393,10,0.00124451,-1.83626,0.286107,0.206216,117.362,0.0853611,
2,1,0,1,0,6137.04,0.0876935,0.0873852,14.8174,5,0.00492094,10,0.00129482,-1.82923,0.303155,0.19462,112.448,0.0873852,
2,1,0,1,0,6137.05,0.0896911,0.0893894,15.0323,5,0.00507028,10,0.00134373,-1.82297,0.29074,0.20293,119.241,0.0893894,
2,1,0,1,0,6137.06,0.0916978,0.0914127,15.2976,5,0.00522191,10,0.00139839,-1.81538,0.288222,0.204704,122.023,0.0914127,
2,1,0,1,0,6137.07,0.0936953,0.0933708,15.5182,5,0.00537607,10,0.00144894,-1.80916,0.321902,0.183286,110.993,0.0933708,
2,1,0,1,0,6137.08,0.0956929,0.0953811,15.7381,5,0.00553239,10,0.00150111,-1.80305,0.318818,0.185059,113.714,0.0953811,
2,1,0,1,0,6137.09,0.0976905,0.0973792,15.974,5,0.00569102,10,0.00155553,-1.79659,0.3054,0.193189,120.453,0.0973792,
2,1,0,1,0,6137.1,0.099679,0.0993542,16.2166,5,0.0058503,10,0.00161119,-1.79004,0.334976,0.176132,111.326,0.09935423,
2,1,0,1,0,6137.11,0.101677,0.101377,16.4191,5,0.00601356,10,0.00166452,-1.78465,0.347568,0.169751,108.883,0.101377,
2,1,0,1,0,6137.12,0.103674,0.103394,16.6565,5,0.00617894,10,0.00172217,-1.77842,0.327627,0.180083,117.029,0.103394,
2,1,0,1,0,6137.13,0.105672,0.105371,16.8865,5,0.00634672,10,0.00177935,-1.77246,0.322486,0.182953,120.612,0.105371,
2,1,0,1,0,6137.14,0.107656,0.107321,17.1302,5,0.00651505,10,0.00183843,-1.76624,0.334246,0.176517,117.956,0.107321,
2,1,0,1,0,6137.15,0.109658,0.109393,17.3608,5,0.00668756,10,0.00189915,-1.76043,0.327536,0.180133,122.141,0.109393,
2,1,0,1,0,6137.16,0.111655,0.111335,17.6205,5,0.00686246,10,0.00196178,-1.75398,0.316423,0.186459,128.18,0.111335,
2,1,0,1,0,6137.17,0.113653,0.113371,17.8707,5,0.00703996,10,0.00202602,-1.74786,0.311492,0.189411,132.174,0.113371,
2,1,0,1,0,6137.18,0.115651,0.115287,18.1427,5,0.00721996,10,0.00209161,-1.7413,0.289054,0.204114,144.648,0.115287,
2,1,0,1,0,6137.19,0.117657,0.117368,18.4489,5,0.007403,10,0.00216531,-1.73403,0.280845,0.21008,151.25,0.117368,
2,1,0,1,0,6137.2,0.119655,0.119344,18.7565,5,0.00758903,10,0.00223848,-1.72685,0.275591,0.214085,156.722,0.119344,
2,1,0,1,0,6137.21,0.121652,0.12133,19.0699,5,0.00777821,10,0.00231375,-1.71965,0.264175,0.223337,166.354,0.1213303,
2,1,0,1,0,6137.22,0.12365,0.123327,19.4189,5,0.00797066,10,0.00239487,-1.71177,0.245053,0.240764,182.619,0.123327,
2,1,0,1,0,6137.23,0.125657,0.125358,19.8054,5,0.00816691,10,0.00248276,-1.70322,0.237055,0.248887,192.334,0.125358,
2,1,0,1,0,6137.24,0.127654,0.127327,20.1884,5,0.00836692,10,0.00257053,-1.6949,0.235932,0.250072,197.103,0.127327,
2,1,0,1,0,6137.25,0.129652,0.129347,20.5917,5,0.00857088,10,0.00266347,-1.68631,0.22548,0.261664,210.427,0.129347,
2,1,0,1,0,6137.26,0.131649,0.131324,21.0295,5,0.00877901,10,0.00276168,-1.67717,0.22016,0.267987,219.926,0.131324,
2,1,0,1,0,6137.27,0.133638,0.133343,21.4705,5,0.00898951,10,0.00286295,-1.66816,0.22404,0.263346,220.672,0.133343,
2,1,0,1,0,6137.28,0.135636,0.135356,21.9192,5,0.00920647,10,0.00296689,-1.65918,0.220174,0.26797,229.256,0.135356,
2,1,0,1,0,6137.29,0.137633,0.137305,22.3787,5,0.00942803,10,0.0030727,-1.65017,0.219117,0.269263,235.176,0.137305,
2,1,0,1,0,6137.3,0.139631,0.139299,22.8465,5,0.0096542,10,0.0031825,-1.64118,0.227361,0.259499,231.325,0.139299,
2,1,0,1,0,6137.31,0.141619,0.141333,23.3106,5,0.00988273,10,0.00329455,-1.63245,0.226308,0.260707,237.235,0.141333,
2,1,0,1,0,6137.32,0.143617,0.143289,23.7929,5,0.0101182,10,0.00340925,-1.62355,0.23475,0.251331,233.158,0.143289,
2,1,0,1,0,6137.33,0.145614,0.145305,24.2366,5,0.0103585,10,0.0035217,-1.61553,0.25009,0.235915,223.132,0.145305,
2,1,0,1,0,6137.34,0.147612,0.147275,24.6824,5,0.0106031,10,0.00363511,-1.60761,0.252715,0.233465,224.88,0.147275,
2,1,0,1,0,6137.35,0.149619,0.149283,25.1312,5,0.0108523,10,0.00375166,-1.59979,0.266349,0.221514,217.143,0.1492828,
2,1,0,1,0,6137.36,0.151616,0.151308,25.5581,5,0.0111058,10,0.00386714,-1.59247,0.292253,0.20188,201.163,0.151308,
2,1,0,1,0,6137.37,0.153614,0.153292,25.9377,5,0.0113634,10,0.00397604,-1.58607,0.316644,0.186329,188.611,0.153292,
2,1,0,1,0,6137.38,0.155611,0.155347,26.32,5,0.0116247,10,0.00408874,-1.57971,0.327928,0.179917,184.718,0.155347,
2,1,0,1,0,6137.39,0.157618,0.15731,26.6799,5,0.0118897,10,0.00419701,-1.57382,0.374691,0.157463,163.741,0.15731,
2,1,0,1,0,6137.4,0.159616,0.159332,26.9725,5,0.012158,10,0.00429759,-1.56908,0.452173,0.130481,137.239,0.159332,
2,1,0,1,0,6137.41,0.161613,0.161266,27.2228,5,0.0124291,10,0.00439012,-1.56507,0.551736,0.106935,113.508,0.161266,
2,1,0,1,0,6137.42,0.163611,0.163321,27.4252,5,0.0127025,10,0.0044791,-1.56185,0.802748,0.0734975,78.543,0.163321,
2,1,0,1,0,6137.43,0.165618,0.165336,27.5425,5,0.0129774,10,0.00455377,-1.56,1.63945,0.0359876,38.6259,0.165336,
2,1,0,1,0,6137.44,0.167597,0.167293,27.5787,5,0.0132503,10,0.00461372,-1.55943,-5.90022,-0.00999963,-10.7403,0.167293,
2,1,0,1,0,6137.45,0.169595,0.169286,27.5001,5,0.0135258,10,0.00465538,-1.56067,-0.893288,-0.0660481,-70.7253,0.169286,
2,1,0,1,0,6137.46,0.171592,0.171267,27.2976,5,0.0137998,10,0.00467518,-1.56388,-0.443085,-0.133157,-141.451,0.171267,
2,1,0,1,0,6137.47,0.173572,0.173243,26.9404,5,0.0140683,10,0.00466723,-1.5696,-0.294022,-0.200666,-210.475,0.173243,
2,1,0,1,0,6137.48,0.175578,0.175253,26.4587,5,0.0143354,10,0.00463697,-1.57743,-0.212625,-0.277484,-285.485,0.175253,
2,1,0,1,0,6137.49,0.177576,0.177265,25.7922,5,0.0145968,10,0.00457204,-1.58851,-0.158694,-0.371784,-372.926,0.177265,
2,1,0,1,0,6137.5,0.179573,0.179272,24.96,5,0.0148505,10,0.00447462,-1.60275,-0.127395,-0.463127,-449.615,0.179272,
2,1,0,1,0,6137.51,0.181571,0.181292,23.9814,5,0.0150952,10,0.00434764,-1.62013,-0.107557,-0.548545,-512.003,0.181292,
2,1,0,1,0,6137.52,0.183578,0.18329,22.9024,5,0.0153296,10,0.00419779,-1.64012,-0.0921599,-0.640192,-570.026,0.18329,
2,1,0,1,0,6137.53,0.185575,0.185317,21.6871,5,0.0155525,10,0.00401899,-1.6638,-0.0803978,-0.733851,-619.833,0.185317,
2,1,0,1,0,6137.54,0.187573,0.18728,20.4292,5,0.0157629,10,0.00382599,-1.68975,-0.0740441,-0.796823,-634.411,0.18728,
2,1,0,1,0,6137.55,0.18957,0.189291,19.1662,5,0.0159608,10,0.00362798,-1.71746,-0.0703095,-0.839147,-627.416,0.1892907,
2,1,0,1,0,6137.56,0.191577,0.191246,17.941,5,0.0161461,10,0.00343115,-1.74615,-0.068262,-0.864316,-605.319,0.191246,
2,1,0,1,0,6137.57,0.193575,0.193237,16.7772,5,0.0163195,10,0.00324198,-1.77528,-0.0705137,-0.836716,-548.888,0.193237,
2,1,0,1,0,6137.58,0.195572,0.195282,15.7256,5,0.0164818,10,0.00307094,-1.80339,-0.0723278,-0.815731,-501.319,0.195282,
2,1,0,1,0,6137.59,0.19757,0.197261,14.7603,5,0.0166341,10,0.00291163,-1.8309,-0.0771658,-0.764587,-442.376,0.197261,
2,1,0,1,0,6137.6,0.199558,0.199274,13.9599,5,0.016776,10,0.00278183,-1.85512,-0.0852006,-0.692483,-378.027,0.199274,
2,1,0,1,0,6137.61,0.201556,0.201275,13.2428,5,0.0169118,10,0.00266543,-1.87802,-0.0914297,-0.645304,-334.659,0.201275,
2,1,0,1,0,6137.62,0.203553,0.203221,12.6389,5,0.0170411,10,0.00256849,-1.89829,-0.103345,-0.570905,-282.413,0.203221,
2,1,0,1,0,6137.63,0.205551,0.205236,12.1242,5,0.0171647,10,0.00248832,-1.91635,-0.125067,-0.471747,-224.27,0.205236,
2,1,0,1,0,6137.64,0.20754,0.207251,11.7351,5,0.0172826,10,0.00243212,-1.93051,-0.142321,-0.414555,-189.904,0.207251,
2,1,0,1,0,6137.65,0.209537,0.209261,11.3597,5,0.017398,10,0.00237715,-1.94463,-0.152964,-0.38571,-171.431,0.209261,
2,1,0,1,0,6137.66,0.211535,0.211255,11.0487,5,0.0175099,10,0.0023341,-1.95669,-0.173265,-0.340519,-147.06,0.211255,
2,1,0,1,0,6137.67,0.213532,0.213222,10.7773,5,0.017619,10,0.00229795,-1.96749,-0.208407,-0.2831,-119.415,0.213222,
2,1,0,1,0,6137.68,0.215539,0.215253,10.5713,5,0.0177256,10,0.0022755,-1.97587,-0.230267,-0.256224,-105.645,0.215253,
2,1,0,1,0,6137.69,0.217537,0.217216,10.3553,5,0.0178303,10,0.00224934,-1.98484,-0.245214,-0.240606,-97.4329,0.2172163,
2,1,0,1,0,6137.7,0.219534,0.219234,10.1834,5,0.0179329,10,0.00223255,-1.99211,-0.282496,-0.208852,-83.0181,0.219234,
2,1,0,1,0,6137.71,0.221532,0.221291,10.017,5,0.018034,10,0.00221667,-1.99926,-0.300763,-0.196168,-76.7813,0.221291,
2,1,0,1,0,6137.72,0.223534,0.223231,9.87648,5,0.0181334,10,0.00220474,-2.0054,-0.33019,-0.178685,-68.8939,0.223231,
2,1,0,1,0,6137.73,0.225536,0.225269,9.74298,5,0.0182315,10,0.00219479,-2.01131,-0.349165,-0.168975,-64.2846,0.225269,
2,1,0,1,0,6137.74,0.227534,0.227207,9.62092,5,0.0183283,10,0.00218594,-2.01678,-0.350013,-0.168565,-63.2632,0.227207,
2,1,0,1,0,6137.75,0.229531,0.229248,9.49121,5,0.018424,10,0.00217584,-2.02268,-0.377191,-0.156419,-58.0157,0.229248,
2,1,0,1,0,6137.76,0.231529,0.231232,9.38737,5,0.0185183,10,0.00217066,-2.02746,-0.454614,-0.129781,-47.5933,0.231232,
2,1,0,1,0,6137.77,0.233517,0.23321,9.30268,5,0.0186109,10,0.00216947,-2.03139,-0.465412,-0.126769,-45.9855,0.23321,
2,1,0,1,0,6137.78,0.235515,0.235242,9.20297,5,0.0187033,10,0.00216493,-2.03607,-0.419456,-0.140658,-50.5086,0.235242,
2,1,0,1,0,6137.79,0.237513,0.23722,9.1001,5,0.0187948,10,0.00215873,-2.04095,-0.460038,-0.12825,-45.6084,0.23722,
2,1,0,1,0,6137.8,0.23951,0.23921,9.02201,5,0.0188854,10,0.00215816,-2.0447,-0.533141,-0.110665,-38.9674,0.23921,
2,1,0,1,0,6137.81,0.241499,0.241191,8.94538,5,0.0189744,10,0.00215754,-2.0484,-0.52634,-0.112095,-39.1269,0.241191,
2,1,0,1,0,6137.82,0.243496,0.243192,8.86623,5,0.0190634,10,0.00215619,-2.05226,-0.553289,-0.106635,-36.919,0.243192,
2,1,0,1,0,6137.83,0.245494,0.245194,8.79759,5,0.0191517,10,0.00215712,-2.05564,-0.575705,-0.102483,-35.1809,0.245194,
2,1,0,1,0,6137.84,0.247491,0.247167,8.72637,5,0.0192393,10,0.00215687,-2.05917,-0.571914,-0.103162,-35.1357,0.247167,
2,1,0,1,0,6137.85,0.249498,0.249203,8.65673,5,0.0193263,10,0.00215728,-2.06265,-0.682746,-0.0864158,-29.23,0.249203,
2,1,0,1,0,6137.86,0.251496,0.251215,8.60804,5,0.0194125,10,0.00216247,-2.0651,-0.643369,-0.0917047,-30.7612,0.251215,
2,1,0,1,0,6137.87,0.253493,0.253205,8.53364,5,0.0194983,10,0.00216076,-2.06887,-0.592905,-0.09951,-33.1729,0.253205,
2,1,0,1,0,6137.88,0.255491,0.255195,8.47602,5,0.0195833,10,0.00216304,-2.07181,-0.809631,-0.0728727,-24.132,0.255195,
2,1,0,1,0,6137.89,0.257497,0.257208,8.43704,5,0.0196679,10,0.00217007,-2.07381,-0.867178,-0.0680368,-22.3862,0.257208,
2,1,0,1,0,6137.9,0.259495,0.259222,8.38586,5,0.019752,10,0.0021738,-2.07645,-0.671022,-0.0879256,-28.7534,0.259222,
2,1,0,1,0,6137.91,0.261493,0.26121,8.32196,5,0.0198356,10,0.00217378,-2.07977,-0.719342,-0.0820194,-26.6725,0.26121,
2,1,0,1,0,6137.92,0.26349,0.263205,8.27965,5,0.0199185,10,0.00217924,-2.08199,-1.02792,-0.0573975,-18.5584,0.263205,
2,1,0,1,0,6137.93,0.265479,0.265204,8.24783,5,0.0200004,10,0.00218736,-2.08366,-0.985382,-0.0598753,-19.2575,0.265204,
2,1,0,1,0,6137.94,0.267476,0.267195,8.20281,5,0.0200826,10,0.00219175,-2.08604,-0.794428,-0.0742673,-23.7685,0.267195,
2,1,0,1,0,6137.95,0.269474,0.269179,8.15336,5,0.0201643,10,0.00219471,-2.08866,-0.985885,-0.0598447,-19.0687,0.269179,
2,1,0,1,0,6137.96,0.271471,0.271201,8.12642,5,0.0202457,10,0.00220389,-2.0901,-1.43432,-0.0411345,-13.0472,0.271201,
2,1,0,1,0,6137.97,0.27346,0.273169,8.1013,5,0.0203259,10,0.00221302,-2.09145,-0.915983,-0.0644117,-20.3262,0.273169,
2,1,0,1,0,6137.98,0.275458,0.27518,8.04553,5,0.0204065,10,0.00221397,-2.09445,-0.790994,-0.0745897,-23.4466,0.27518,
2,1,0,1,0,6137.99,0.277455,0.277155,8.00784,5,0.0204868,10,0.00221941,-2.09648,-0.957814,-0.0615986,-19.2486,0.2771548,
2,1,0,1,0,6138,0.279453,0.279186,7.96842,5,0.0205666,10,0.00222467,-2.09863,-0.972231,-0.0606852,-18.8757,0.279186,
2,1,0,1,0,6138.01,0.281455,0.281162,7.9322,5,0.0206461,10,0.00223024,-2.10061,-1.22532,-0.0481509,-14.9185,0.281162,
2,1,0,1,0,6138.02,0.283457,0.283143,7.90939,5,0.0207253,10,0.00223949,-2.10186,-1.12346,-0.0525163,-16.1915,0.283143,
2,1,0,1,0,6138.03,0.285455,0.285132,7.86793,5,0.0208043,10,0.0022434,-2.10414,-0.985978,-0.059839,-18.3847,0.285132,
2,1,0,1,0,6138.04,0.287452,0.28716,7.83554,5,0.0208828,10,0.00225005,-2.10593,-0.999042,-0.0590566,-18.0505,0.28716,
2,1,0,1,0,6138.05,0.28945,0.289137,7.79563,5,0.020961,10,0.00225401,-2.10815,-1.43871,-0.0410089,-12.5006,0.2891373,
2,1,0,1,0,6138.06,0.291456,0.291131,7.7859,5,0.0210389,10,0.00226672,-2.10869,-1.20333,-0.0490308,-14.8598,0.291131,
2,1,0,1,0,6138.07,0.293454,0.293158,7.73588,5,0.0211166,10,0.00226783,-2.11149,-1.07786,-0.0547382,-16.561,0.293158,
2,1,0,1,0,6138.08,0.295452,0.29518,7.71884,5,0.0211939,10,0.00227845,-2.11245,-1.67066,-0.0353154,-10.6322,0.2951802,
2,1,0,1,0,6138.09,0.297449,0.297215,7.69275,5,0.0212709,10,0.0022864,-2.11392,-1.4363,-0.0410778,-12.3348,0.297215,
2,1,0,1,0,6138.1,0.299438,0.299176,7.66955,5,0.021347,10,0.00229455,-2.11523,-0.0451862,-1.30571,-370.298,0.299176,
2,1,0,1,0,6138.11,0.299746,0.299472,6.85681,5,0.0213789,10,0.00205343,-2.16388,0.00330317,17.8616,3182.16,0.299472,
2,1,0,1,0,6138.12,0.29774,0.297532,2.4383,5,0.0214226,10,0.000725473,-2.61291,0.00219607,26.8662,1687.46,0.297532,
2,1,0,1,0,6138.13,0.295742,0.29547,0.103197,5,0.0214339,10,3.04915e-05,-3.98633,0.0138465,4.261,903.103,0.29547,
2,0,0,1,0,6138.14,0.293745,0.293461,-1.23887,5,0.0214275,10,-0.000363561,-2.90697,-0.0031189,-18.9169,525.29,0.293461,
2,0,0,1,0,6138.15,0.291747,0.291449,-2.0092,5,0.0214108,10,-0.000585577,-2.69698,-0.0127505,-4.62726,327.458,0.291449,
2,0,0,1,0,6138.16,0.289745,0.289479,-2.54261,5,0.0213878,10,-0.000736033,-2.59472,-0.0258001,-2.28681,215.537,0.289479,
2,0,0,1,0,6138.17,0.287743,0.287445,-2.8722,5,0.0213606,10,-0.0008256,-2.54178,-0.0454224,-1.29892,143.015,0.287445,
2,0,0,1,0,6138.18,0.285745,0.285446,-3.11946,5,0.0213305,10,-0.000890437,-2.50592,-0.0654037,-0.902089,108.49,0.285446,
2,0,0,1,0,6138.19,0.283748,0.283493,-3.30095,5,0.0212983,10,-0.000935794,-2.48136,-0.0845629,-0.697705,89.716,0.283493,
2,0,0,1,0,6138.2,0.28175,0.281464,-3.47667,5,0.0212643,10,-0.000978557,-2.45884,-0.106782,-0.552526,74.3578,0.281464,
2,0,0,1,0,6138.21,0.279761,0.27947,-3.60006,5,0.0212292,10,-0.00100611,-2.44369,-0.127009,-0.464533,65.368,0.27947,
2,0,0,1,0,6138.22,0.277764,0.277469,-3.73781,5,0.0211925,10,-0.00103713,-2.42738,-0.143704,-0.410567,59.5782,0.2774691,
2,0,0,1,0,6138.23,0.275766,0.275459,-3.83901,5,0.0211546,10,-0.00105749,-2.41578,-0.174453,-0.338199,50.664,0.275459,
2,0,0,1,0,6138.24,0.273769,0.273458,-3.94101,5,0.0211157,10,-0.0010777,-2.40439,-0.179028,-0.329557,50.6691,0.273458,
2,0,0,1,0,6138.25,0.27178,0.271456,-4.04188,5,0.0210761,10,-0.00109719,-2.39342,-0.175357,-0.336457,53.122,0.271456,
2,0,0,1,0,6138.26,0.269783,0.269487,-4.15199,5,0.0210351,10,-0.00111891,-2.38174,-0.203732,-0.289596,46.7154,0.2694869,
2,0,0,1,0,6138.27,0.267785,0.26751,-4.22621,5,0.0209932,10,-0.00113055,-2.37405,-0.241583,-0.244222,40.3354,0.26751,
2,0,0,1,0,6138.28,0.265787,0.265499,-4.31286,5,0.0209505,10,-0.00114506,-2.36523,-0.23405,-0.252083,42.4121,0.265499,
2,0,0,1,0,6138.29,0.263781,0.263483,-4.39699,5,0.0209069,10,-0.00115853,-2.35684,-0.246362,-0.239485,41.0749,0.263483,
2,0,0,1,0,6138.3,0.261783,0.261486,-4.47768,5,0.0208625,10,-0.00117085,-2.34895,-0.293162,-0.201254,35.0798,0.261486,
2,0,0,1,0,6138.31,0.259786,0.25951,-4.53635,5,0.0208174,10,-0.00117723,-2.34329,-0.269897,-0.218602,38.8598,0.25951,
2,0,0,1,0,6138.32,0.257788,0.257487,-4.63307,5,0.0207715,10,-0.00119296,-2.33413,-0.260537,-0.226456,40.8085,0.257487,
2,0,0,1,0,6138.33,0.255781,0.255512,-4.69954,5,0.0207248,10,-0.00120079,-2.32794,-0.291553,-0.202364,37.1779,0.255512,
2,0,0,1,0,6138.34,0.253784,0.253464,-4.78264,5,0.0206774,10,-0.00121223,-2.32033,-0.325073,-0.181498,33.7638,0.253464,
2,0,0,1,0,6138.35,0.251786,0.251515,-4.83446,5,0.0206293,10,-0.00121594,-2.31565,-0.349656,-0.168737,31.9091,0.251515,
2,0,0,1,0,6138.36,0.249789,0.249506,-4.90894,5,0.0205806,10,-0.00122481,-2.30901,-0.322676,-0.182846,34.995,0.249506,
2,0,0,1,0,6138.37,0.2478,0.247518,-4.97435,5,0.0205317,10,-0.00123124,-2.30326,-0.323225,-0.182536,35.4726,0.247518,
2,0,0,1,0,6138.38,0.245802,0.245511,-5.05064,5,0.0204816,10,-0.00123999,-2.29665,-0.363489,-0.162316,31.9146,0.245511,
2,0,0,1,0,6138.39,0.243805,0.243507,-5.10235,5,0.0204308,10,-0.00124246,-2.29223,-0.382092,-0.154413,30.8007,0.243507,
2,0,0,1,0,6138.4,0.241807,0.241571,-5.17201,5,0.0203794,10,-0.00124941,-2.28634,-0.345952,-0.170544,34.4155,0.241571,
2,0,0,1,0,6138.41,0.239819,0.239515,-5.23976,5,0.0203279,10,-0.001255,-2.28069,-0.363071,-0.162503,33.2265,0.239515,
2,0,0,1,0,6138.42,0.237821,0.237513,-5.30683,5,0.0202752,10,-0.00126044,-2.27516,-0.415084,-0.14214,29.3907,0.237513,
2,0,0,1,0,6138.43,0.235824,0.235522,-5.35711,5,0.0202218,10,-0.00126172,-2.27107,-0.419641,-0.140596,29.4384,0.235522,
2,0,0,1,0,6138.44,0.233826,0.233542,-5.42373,5,0.0201679,10,-0.00126667,-2.2657,-0.379323,-0.15554,32.9193,0.233542,
2,0,0,1,0,6138.45,0.231824,0.2315,-5.48952,5,0.0201134,10,-0.00127082,-2.26047,-0.355585,-0.165924,35.5784,0.2315,
2,0,0,1,0,6138.46,0.229822,0.229557,-5.56551,5,0.020058,10,-0.0012776,-2.2545,-0.423755,-0.139231,30.1589,0.229557,
2,0,0,1,0,6138.47,0.227824,0.227456,-5.61148,5,0.0200021,10,-0.00127636,-2.25092,-0.42304,-0.139467,30.6273,0.227456,
2,0,0,1,0,6138.48,0.225827,0.225529,-5.68889,5,0.0199456,10,-0.00128301,-2.24497,-0.405033,-0.145667,32.2602,0.225529,
2,0,0,1,0,6138.49,0.223829,0.223522,-5.73838,5,0.0198884,10,-0.00128265,-2.24121,-0.394581,-0.149526,33.5868,0.223522,
2,0,0,1,0,6138.5,0.221822,0.221541,-5.82281,5,0.0198305,10,-0.00128999,-2.23487,-0.365598,-0.161379,36.5939,0.221541,
2,0,0,1,0,6138.51,0.219825,0.219576,-5.88277,5,0.019772,10,-0.00129172,-2.23042,-0.384226,-0.153555,35.3191,0.219576,
2,0,0,1,0,6138.52,0.217827,0.217517,-5.96497,5,0.0197127,10,-0.00129748,-2.22439,-0.43715,-0.134965,31.3182,0.2175165,
2,0,0,1,0,6138.53,0.21583,0.215537,-6.00929,5,0.0196527,10,-0.00129522,-2.22118,-0.373712,-0.157876,37.2044,0.215537,
2,0,0,1,0,6138.54,0.213841,0.213558,-6.11225,5,0.0195927,10,-0.00130532,-2.2138,-0.327967,-0.179896,42.791,0.213558,
2,0,0,1,0,6138.55,0.211844,0.211516,-6.18133,5,0.0195312,10,-0.00130745,-2.20892,-0.400125,-0.147454,35.5803,0.211516,
2,0,0,1,0,6138.56,0.209846,0.209573,-6.25402,5,0.019469,10,-0.00131068,-2.20384,-0.388321,-0.151936,37.0882,0.209573,
2,0,0,1,0,6138.57,0.207848,0.20754,-6.32878,5,0.0194061,10,-0.00131348,-2.19868,-0.296811,-0.19878,49.2828,0.20754,
2,0,0,1,0,6138.58,0.20586,0.205547,-6.45244,5,0.0193428,10,-0.00132628,-2.19028,-0.316152,-0.186619,46.7737,0.205547,
2,0,0,1,0,6138.59,0.203862,0.203528,-6.51645,5,0.0192779,10,-0.00132628,-2.18599,-0.376441,-0.156731,39.9526,0.203528,
2,0,0,1,0,6138.6,0.201865,0.201564,-6.61158,5,0.0192123,10,-0.00133266,-2.17969,-0.32748,-0.180164,46.4563,0.201564,
2,0,0,1,0,6138.61,0.199867,0.199606,-6.69867,5,0.0191457,10,-0.00133709,-2.17401,-0.297855,-0.198083,51.9096,0.199606,
2,0,0,1,0,6138.62,0.19786,0.197564,-6.8192,5,0.0190781,10,-0.00134723,-2.16627,-0.29901,-0.197318,52.3916,0.197564,
2,0,0,1,0,6138.63,0.195863,0.195583,-6.9094,5,0.0190094,10,-0.00135136,-2.16056,-0.287574,-0.205165,55.4881,0.195583,
2,0,0,1,0,6138.64,0.193865,0.193549,-7.042,5,0.0189397,10,-0.00136297,-2.1523,-0.275064,-0.214496,58.8204,0.193549,
2,0,0,1,0,6138.65,0.191868,0.191576,-7.14512,5,0.0188687,10,-0.00136883,-2.14599,-0.260274,-0.226684,63.413,0.191576,
2,0,0,1,0,6138.66,0.189861,0.189554,-7.29536,5,0.0187964,10,-0.00138286,-2.13695,-0.242725,-0.243074,69.0953,0.189554,
2,0,0,1,0,6138.67,0.187863,0.187542,-7.42388,5,0.0187228,10,-0.00139229,-2.12937,-0.238481,-0.247399,71.8153,0.1875416,
2,0,0,1,0,6138.68,0.185866,0.185556,-7.58247,5,0.0186477,10,-0.00140697,-2.12019,-0.233033,-0.253183,74.8113,0.185556,
2,0,0,1,0,6138.69,0.183868,0.183575,-7.72063,5,0.0185712,10,-0.00141731,-2.11235,-0.213432,-0.276434,83.6031,0.183575,
2,0,0,1,0,6138.7,0.18188,0.181534,-7.9187,5,0.0184938,10,-0.00143751,-2.10135,-0.195629,-0.301591,93.0509,0.181534,
2,0,0,1,0,6138.71,0.179882,0.179566,-8.09364,5,0.0184137,10,-0.00145334,-2.09186,-0.195313,-0.302079,95.5818,0.179566,
2,0,0,1,0,6138.72,0.177885,0.177551,-8.2994,5,0.0183317,10,-0.00147357,-2.08095,-0.185727,-0.317671,102.848,0.177551,
2,0,0,1,0,6138.73,0.175887,0.175603,-8.50123,5,0.0182477,10,-0.00149284,-2.07052,-0.172696,-0.341641,113.623,0.175603,
2,0,0,1,0,6138.74,0.173908,0.173602,-8.74811,5,0.0181623,10,-0.00151869,-2.05809,-0.161557,-0.365196,124.673,0.173602,
2,0,0,1,0,6138.75,0.171901,0.171615,-8.99846,5,0.0180734,10,-0.00154427,-2.04583,-0.15703,-0.375724,132.125,0.171615,
2,0,0,1,0,6138.76,0.169903,0.169589,-9.27829,5,0.017982,10,-0.0015735,-2.03253,-0.146284,-0.403325,146.194,0.1695891,
2,0,0,1,0,6138.77,0.167906,0.167615,-9.58319,5,0.0178877,10,-0.00160629,-2.01849,-0.138379,-0.426365,159.647,0.167615,
2,0,0,1,0,6138.78,0.165908,0.165585,-9.91752,5,0.0177902,10,-0.00164219,-2.0036,-0.133693,-0.441311,170.865,0.1655851,
2,0,0,1,0,6138.79,0.163901,0.163618,-10.2661,5,0.0176892,10,-0.00167973,-1.98859,-0.125034,-0.47187,189.461,0.163618,
2,0,0,1,0,6138.8,0.161904,0.161625,-10.6677,5,0.0175844,10,-0.00172418,-1.97193,-0.121831,-0.484278,201.549,0.161625,
2,0,0,1,0,6138.81,0.159906,0.159619,-11.0721,5,0.0174757,10,-0.00176732,-1.95577,-0.120148,-0.49106,212.571,0.159619,
2,0,0,1,0,6138.82,0.157909,0.157582,-11.5272,5,0.0173626,10,-0.00181648,-1.93828,-0.112162,-0.526023,237.022,0.157582,
2,0,0,1,0,6138.83,0.155902,0.155567,-12.0327,5,0.0172447,10,-0.00187188,-1.91964,-0.104948,-0.562185,264.382,0.155567,
2,0,0,1,0,6138.84,0.153904,0.153568,-12.5885,5,0.0171215,10,-0.00193319,-1.90003,-0.104385,-0.565215,277.327,0.153568,
2,0,0,1,0,6138.85,0.151907,0.151618,-13.1279,5,0.0169929,10,-0.00199042,-1.8818,-0.103986,-0.567384,291.358,0.151618,
2,0,0,1,0,6138.86,0.149909,0.149601,-13.7442,5,0.0168584,10,-0.00205615,-1.86188,-0.101204,-0.58298,312.684,0.149601,
2,0,0,1,0,6138.87,0.147921,0.147621,-14.3775,5,0.0167191,10,-0.00212242,-1.84232,-0.101166,-0.583198,327.383,0.147621,
2,0,0,1,0,6138.88,0.145923,0.145634,-15.0431,5,0.0165719,10,-0.00219078,-1.82266,-0.102394,-0.576208,338.101,0.1456338,
2,0,0,1,0,6138.89,0.143926,0.143673,-15.7123,5,0.0164181,10,-0.00225743,-1.80376,-0.101526,-0.581131,356.969,0.143673,
2,0,0,1,0,6138.9,0.141928,0.141672,-16.4572,5,0.0162572,10,-0.00233153,-1.78364,-0.105499,-0.559247,358.449,0.141672,
2,0,0,1,0,6138.9,0.139939,0.139647,-17.1555,5,0.0160907,10,-0.00239571,-1.7656,-0.112521,-0.524347,350.855,0.139647,
2,0,0,1,0,6138.91,0.137942,0.137696,-17.8524,5,0.0159157,10,-0.0024582,-1.7483,-0.113259,-0.520931,363.336,0.137696,
2,0,0,1,0,6138.92,0.135944,0.135651,-18.6074,5,0.0157334,10,-0.00252411,-1.73031,-0.115537,-0.51066,370.557,0.135651,
2,0,0,1,0,6138.93,0.133947,0.133642,-19.3547,5,0.0155434,10,-0.00258659,-1.71321,-0.120653,-0.489005,368.956,0.133642,
2,0,0,1,0,6138.94,0.13194,0.131668,-20.077,5,0.0153462,10,-0.0026435,-1.6973,-0.128298,-0.459867,360.117,0.131668,
2,0,0,1,0,6138.95,0.129942,0.129647,-20.7932,5,0.0151417,10,-0.00269578,-1.68208,-0.137729,-0.428379,347.066,0.129647,
2,0,0,1,0,6138.96,0.127945,0.12769,-21.4576,5,0.0149303,10,-0.00273992,-1.66842,-0.148382,-0.397623,332.738,0.12769,
2,0,0,1,0,6138.97,0.125947,0.125706,-22.1044,5,0.0147124,10,-0.00277867,-1.65552,-0.158401,-0.372471,321.101,0.125706,
2,0,0,1,0,6138.98,0.123941,0.123716,-22.7336,5,0.0144881,10,-0.00281251,-1.64333,-0.170846,-0.34534,306.107,0.123716,
2,0,0,1,0,6138.99,0.121943,0.121698,-23.3314,5,0.0142577,10,-0.00283938,-1.63206,-0.191038,-0.308839,280.749,0.121698,
2,0,0,1,0,6139,0.119945,0.1197,-23.8611,5,0.0140215,10,-0.00285618,-1.62231,-0.20712,-0.284858,265.233,0.1197,
2,0,0,1,0,6139.01,0.117948,0.117697,-24.3927,5,0.0137802,10,-0.00287094,-1.61274,-0.226389,-0.260613,247.713,0.117697,
2,0,0,1,0,6139.02,0.115946,0.115685,-24.8558,5,0.0135338,10,-0.00287543,-1.60457,-0.259505,-0.227356,220.339,0.115685,
2,0,0,1,0,6139.03,0.113962,0.113681,-25.2775,5,0.0132854,10,-0.00287357,-1.59727,-0.305814,-0.192928,189.982,0.113681,
2,0,0,1,0,6139.04,0.111964,0.111703,-25.6122,5,0.0130308,10,-0.00286096,-1.59155,-0.367972,-0.160338,160.167,0.1117029,
2,0,0,1,0,6139.05,0.109967,0.109688,-25.9171,5,0.0127731,10,-0.00284279,-1.58641,-0.453453,-0.130113,131.397,0.109688,
2,0,0,1,0,6139.06,0.107969,0.10767,-26.1422,5,0.0125127,10,-0.00281472,-1.58266,-0.599075,-0.0984851,100.384,0.10767,
2,0,0,1,0,6139.07,0.10598,0.105688,-26.3186,5,0.012253,10,-0.00278157,-1.57974,-0.860595,-0.0685572,70.3186,0.105688,
2,0,0,1,0,6139.08,0.103983,0.103694,-26.4217,5,0.0119892,10,-0.00273979,-1.57804,-1.67318,-0.0352622,36.3189,0.103694,
2,0,0,1,0,6139.09,0.101985,0.101684,-26.464,5,0.0117247,10,-0.00269097,-1.57734,18.2851,0.00322667,-3.32636,0.101684,
2,0,0,1,0,6139.1,0.0999877,0.0996749,-26.4083,5,0.0114603,10,-0.00263225,-1.57826,1.80038,0.0327708,-33.7585,0.0996749,
2,0,0,1,0,6139.11,0.0979811,0.0976369,-26.3274,5,0.0111965,10,-0.00257052,-1.57959,0.876746,0.0672943,-68.994,0.0976369,
2,0,0,1,0,6139.12,0.0959835,0.0956882,-26.1333,5,0.0109342,10,-0.00250065,-1.58281,0.524927,0.112397,-114.495,0.0956882,
2,0,0,1,0,6139.13,0.0939859,0.0937057,-25.8773,5,0.0106741,10,-0.00242485,-1.58708,0.415924,0.141853,-143.074,0.0937057,
2,0,0,1,0,6139.14,0.0919883,0.0916599,-25.5569,5,0.0104169,10,-0.00234255,-1.59249,0.353499,0.166903,-166.37,0.0916599,
2,0,0,1,0,6139.15,0.0899816,0.0896879,-25.2088,5,0.010163,10,-0.00226093,-1.59845,0.289592,0.203735,-200.021,0.0896879,
2,0,0,1,0,6139.16,0.087984,0.087675,-24.7599,5,0.00991316,10,-0.00217082,-1.60625,0.250098,0.235908,-227.872,0.087675,
2,0,0,1,0,6139.17,0.0859865,0.0856899,-24.2978,5,0.00966791,10,-0.00208208,-1.61443,0.227725,0.259084,-245.4,0.08568994,
2,0,0,1,0,6139.18,0.0839889,0.0837092,-23.7867,5,0.00942751,10,-0.00199116,-1.62367,0.22143,0.26645,-247.501,0.0837092,
2,0,0,1,0,6139.19,0.0820004,0.081704,-23.3113,5,0.00919441,10,-0.00190463,-1.63243,0.213899,0.275831,-250.651,0.081704,
2,0,0,1,0,6139.2,0.0800028,0.0797293,-22.7891,5,0.00896402,10,-0.00181696,-1.64227,0.20965,0.281422,-250.468,0.0797293,
2,0,0,1,0,6139.21,0.0780052,0.0776909,-22.3061,5,0.00873861,10,-0.00173298,-1.65158,0.216005,0.273142,-237.75,0.0776909,
2,0,0,1,0,6139.22,0.0760076,0.0756716,-21.8244,5,0.00851804,10,-0.00165149,-1.66106,0.222113,0.265631,-226.516,0.0756716,
2,0,0,1,0,6139.23,0.0740191,0.0736936,-21.4007,5,0.00830425,10,-0.00157709,-1.66957,0.225513,0.261626,-218.395,0.0736936,
2,0,0,1,0,6139.24,0.0720215,0.0717146,-20.9602,5,0.0080925,10,-0.00150315,-1.67861,0.236044,0.249953,-204.745,0.07171455,
2,0,0,1,0,6139.25,0.0700239,0.0696982,-20.5827,5,0.00788482,10,-0.00143457,-1.6865,0.247458,0.238424,-191.435,0.0696982,
2,0,0,1,0,6139.26,0.0680263,0.0677001,-20.1917,5,0.007681,10,-0.00136698,-1.69483,0.266276,0.221575,-174.958,0.06770014,
2,0,0,1,0,6139.27,0.0660197,0.0657185,-19.8864,5,0.00748074,10,-0.0013069,-1.70144,0.285108,0.206939,-160.465,0.0657185,
2,0,0,1,0,6139.28,0.0640221,0.0636996,-19.5497,5,0.00728358,10,-0.00124531,-1.70886,0.281045,0.209931,-160.292,0.0636996,
2,0,0,1,0,6139.29,0.0620245,0.0617267,-19.2465,5,0.00708962,10,-0.00118802,-1.71565,0.289862,0.203545,-152.879,0.0617267,
2,0,0,1,0,6139.3,0.0600269,0.0597364,-18.9438,5,0.00689871,10,-0.00113164,-1.72253,0.305793,0.192941,-142.766,0.0597364,
2,0,0,1,0,6139.31,0.0580248,0.0577322,-18.6762,5,0.00671065,10,-0.00107822,-1.72871,0.307782,0.191694,-139.615,0.0577322,
2,0,0,1,0,6139.32,0.0560227,0.0557194,-18.383,5,0.00652532,10,-0.00102429,-1.73558,0.299462,0.19702,-141.429,0.0557194,
2,0,0,1,0,6139.33,0.0540251,0.0537543,-18.1136,5,0.00634286,10,-0.000973685,-1.74199,0.302072,0.195317,-138.006,0.0537543,
2,0,0,1,0,6139.34,0.0520275,0.0517076,-17.8293,5,0.00616315,10,-0.000921912,-1.74886,0.287424,0.205272,-142.81,0.0517076,
2,0,0,1,0,6139.35,0.0500299,0.0497537,-17.5423,5,0.00598629,10,-0.000872796,-1.75591,0.27771,0.212452,-145.434,0.0497537,
2,0,0,1,0,6139.36,0.0480414,0.0477572,-17.2548,5,0.00581402,10,-0.000824043,-1.76309,0.277531,0.212589,-143.114,0.04775722,
2,0,0,1,0,6139.37,0.0460438,0.0456855,-16.9601,5,0.00564298,10,-0.00077483,-1.77057,0.25685,0.229706,-151.933,0.0456855,
2,0,0,1,0,6139.38,0.0440462,0.0437417,-16.6447,5,0.005475,10,-0.00072807,-1.77872,0.239802,0.246037,-159.802,0.0437417,
2,0,0,1,0,6139.39,0.0420486,0.0417352,-16.3288,5,0.00531023,10,-0.000681487,-1.78704,0.238596,0.24728,-157.569,0.0417352,
2,0,0,1,0,6139.4,0.0400601,0.0397398,-16.0142,5,0.00515017,10,-0.0006364,-1.7955,0.228391,0.258329,-161.383,0.0397398,
2,0,0,1,0,6139.41,0.0380625,0.0377782,-15.6902,5,0.00499169,10,-0.000592749,-1.80437,0.211772,0.278601,-170.427,0.0377782,
2,0,0,1,0,6139.42,0.036065,0.0357818,-15.3396,5,0.0048366,10,-0.000548879,-1.81419,0.216524,0.272487,-163.313,0.0357818,
2,0,0,1,0,6139.43,0.0340674,0.0337282,-15.0288,5,0.0046848,10,-0.000506895,-1.82307,0.224464,0.262848,-154.106,0.0337282,
2,0,0,1,0,6139.44,0.0320607,0.031698,-14.7103,5,0.00453611,10,-0.000466286,-1.83238,0.219758,0.268477,-154.237,0.031698,
2,0,0,1,0,6139.45,0.0300631,0.0297563,-14.4162,5,0.00439049,10,-0.000428973,-1.84115,0.217596,0.271145,-152.503,0.0297563,
2,0,0,1,0,6139.46,0.0280655,0.0278085,-14.1171,5,0.00424786,10,-0.000392576,-1.85025,0.237292,0.248639,-137.237,0.0278085,
2,0,0,1,0,6139.47,0.0260679,0.0257983,-13.873,5,0.00410791,10,-0.0003579,-1.85783,0.264347,0.223191,-120.828,0.0257983,
2,0,0,1,0,6139.48,0.0240613,0.0237681,-13.6289,5,0.00397042,10,-0.000323933,-1.86554,0.280723,0.210172,-111.922,0.0237681,
2,0,0,1,0,6139.49,0.0220637,0.0217492,-13.4198,5,0.00383522,10,-0.00029187,-1.87225,0.304707,0.193629,-101.432,0.0217492,
2,0,0,1,0,6139.5,0.0200661,0.0197224,-13.2186,5,0.00370207,10,-0.000260702,-1.87882,0.32434,0.181908,-93.934,0.0197224,
2,0,0,1,0,6139.51,0.0180685,0.0177573,-13.0449,5,0.00357074,10,-0.000231642,-1.88456,0.386413,0.152686,-77.847,0.0177573,
2,0,0,1,0,6139.52,0.01608,0.0157685,-12.9108,5,0.00344235,10,-0.000203583,-1.88905,0.477913,0.123453,-62.2512,0.0157685,
2,0,0,1,0,6139.53,0.0140824,0.0137762,-12.797,5,0.00331387,10,-0.000176295,-1.89289,0.481253,0.122597,-61.1914,0.0137762,
2,0,0,1,0,6139.54,0.0120848,0.0118126,-12.6687,5,0.00318659,10,-0.000149651,-1.89727,0.551723,0.106938,-52.9655,0.0118126,
2,0,0,1,0,6139.55,0.0100873,0.00978618,-12.5857,5,0.00306038,10,-0.000123166,-1.90012,0.709351,0.0831746,-40.8568,0.009786183,
2,0,0,1,0,6139.56,0.00810328,0.00780414,-12.5049,5,0.00293626,10,-9.75901e-05,-1.90292,0.902422,0.0653796,-31.9512,0.00780414,
2,0,0,1,0,6139.57,0.00610116,0.00581819,-12.4589,5,0.00281146,10,-7.24884e-05,-1.90452,0.90803,0.0649758,-31.5523,0.00581819,
2,0,0,1,0,6139.58,0.00410357,0.00386781,-12.3807,5,0.00268731,10,-4.78863e-05,-1.90725,3.3623,0.0175475,-8.52041,0.00386781,
2,0,0,1,0,6139.59,0.00210598,0.00178383,-12.4246,5,0.00256351,10,-2.21632e-05,-1.90572,20.9946,0.00281025,-1.35755,0.00178383,
2,0,0,1,0,6139.6,0.00010174,-0.000242033,-12.3751,5,0.00243948,10,2.9952e-06,-1.90745,1.69332,0.0348427,-16.849,-0.000242033,
2,0,0,1,0,6139.61,-0.00189827,-0.00222191,-12.3571,5,0.00231578,10,2.74563e-05,-1.90808,2.41316,0.0244492,-11.7857,-0.00222191,
2,0,0,1,0,6139.62,-0.00389586,-0.00422087,-12.3282,5,0.00219232,10,5.2036e-05,-1.9091,6.27435,0.00940337,-4.53151,-0.00422087,
2,0,0,1,0,6139.63,-0.00589345,-0.00623459,-12.3389,5,0.00206896,10,7.69278e-05,-1.90872,18.0545,0.00326787,-1.57188,-0.00623459,
2,0,0,1,0,6139.64,-0.00789103,-0.00823962,-12.3219,5,0.0019456,10,0.000101528,-1.90932,-3.99153,-0.0147813,7.12623,-0.00823962,
2,0,0,1,0,6139.65,-0.0098977,-0.0102915,-12.3678,5,0.00182207,10,0.000127283,-1.90771,-2.06027,-0.0286371,13.8022,-0.01029151,
2,0,0,1,0,6139.66,-0.0118953,-0.0122592,-12.3774,5,0.00169832,10,0.000151738,-1.90737,-2.45506,-0.024032,11.621,-0.01225924,
2,0,0,1,0,6139.67,-0.0138929,-0.0142122,-12.4133,5,0.00157434,10,0.000176421,-1.90611,-2.25154,-0.0262043,12.6839,-0.0142122,
2,0,0,1,0,6139.68,-0.0158905,-0.0162572,-12.4281,5,0.00145012,10,0.000202046,-1.90559,-1.36362,-0.0432671,21.0323,-0.0162572,
2,0,0,1,0,6139.69,-0.017879,-0.018234,-12.4979,5,0.00132669,10,0.000227887,-1.90316,-1.16209,-0.0507708,24.7228,-0.018234,
2,0,0,1,0,6139.7,-0.0198766,-0.0202398,-12.5266,5,0.00120157,10,0.000253535,-1.90217,-1.51383,-0.038974,19.0674,-0.0202398,
2,0,0,1,0,6139.71,-0.0218741,-0.0222097,-12.5737,5,0.00107611,10,0.00027926,-1.90054,-1.26144,-0.0467718,22.9475,-0.0222097,
2,0,0,1,0,6139.72,-0.0238717,-0.0241582,-12.6165,5,0.000950165,10,0.000304792,-1.89906,-0.992791,-0.0594284,29.2991,-0.0241582,
2,0,0,1,0,6139.73,-0.0258602,-0.0262416,-12.6919,5,0.000824877,10,0.000333055,-1.89647,-1.02578,-0.0575175,28.4501,-0.0262416,
2,0,0,1,0,6139.74,-0.0278578,-0.0282215,-12.7321,5,0.000697757,10,0.000359318,-1.8951,-1.03879,-0.0567971,28.2575,-0.0282215,
2,0,0,1,0,6139.75,-0.0298554,-0.030223,-12.8044,5,0.00057011,10,0.000386987,-1.89264,-0.984324,-0.0599396,29.9238,-0.030223,
2,0,0,1,0,6139.76,-0.031853,-0.0322324,-12.8521,5,0.00044179,10,0.000414255,-1.89103,-0.941516,-0.0626649,31.4666,-0.0322324,
2,0,0,1,0,6139.77,-0.0338597,-0.0341802,-12.9289,5,0.000312855,10,0.000441912,-1.88844,-0.853604,-0.0691187,34.8544,-0.0341802,
2,0,0,1,0,6139.78,-0.0358573,-0.0361947,-12.9902,5,0.000183203,10,0.000470178,-1.88638,-0.824787,-0.0715336,36.2968,-0.0361947,
2,0,0,1,0,6139.79,-0.0378549,-0.0381894,-13.0744,5,5.28168e-05,10,0.000499304,-1.88358,-0.918585,-0.0642292,32.7259,-0.0381894,
2,0,0,1,0,6139.8,-0.0398524,-0.0401944,-13.1211,5,-7.82198e-05,10,0.000527396,-1.88203,-0.806507,-0.073155,37.5409,-0.0401944,
2,0,0,1,0,6139.81,-0.0418591,-0.0421778,-13.2241,5,-0.000209915,10,0.000557765,-1.87863,-0.741754,-0.0795412,40.9868,-0.0421778,
2,0,0,1,0,6139.82,-0.0438567,-0.044221,-13.2862,5,-0.000342493,10,0.000587527,-1.8766,-0.888316,-0.0664178,34.4574,-0.044221,
2,0,0,1,0,6139.83,-0.0458543,-0.0462017,-13.3628,5,-0.000475819,10,0.000617384,-1.8741,-0.824939,-0.0715204,37.2919,-0.0462017,
2,0,0,1,0,6139.84,-0.0478519,-0.048212,-13.435,5,-0.000609839,10,0.000647727,-1.87176,-0.666646,-0.0885027,46.4775,-0.048212,
2,0,0,1,0,6139.85,-0.0498585,-0.05023,-13.55,5,-0.000744704,10,0.000680618,-1.86806,-0.682308,-0.0864713,45.6433,-0.05023,
2,0,0,1,0,6139.86,-0.051838,-0.0521705,-13.6157,5,-0.000879192,10,0.000710336,-1.86596,-0.806973,-0.0731127,38.8824,-0.0521705,
2,0,0,1,0,6139.87,-0.0538356,-0.0541913,-13.7041,5,-0.00101575,10,0.000742641,-1.86315,-0.783011,-0.0753501,40.2742,-0.0541913,
2,0,0,1,0,6139.88,-0.0558331,-0.0561446,-13.7757,5,-0.00115315,10,0.000773433,-1.86089,-0.693934,-0.0850225,45.773,-0.0561446,
2,0,0,1,0,6139.89,-0.0578126,-0.0581599,-13.8857,5,-0.00129007,10,0.000807591,-1.85743,-0.697383,-0.084602,45.7853,-0.0581599,
2,0,0,1,0,6139.9,-0.0598192,-0.0601398,-13.9586,5,-0.00142936,10,0.00083947,-1.85516,-0.678339,-0.0869771,47.4544,-0.0601398,
2,0,0,1,0,6139.91,-0.0618168,-0.062144,-14.0748,5,-0.00156953,10,0.000874662,-1.85156,-0.644125,-0.0915971,50.2598,-0.06214397,
2,0,0,1,0,6139.92,-0.0638144,-0.0641698,-14.1612,5,-0.00171073,10,0.000908721,-1.8489,-0.691695,-0.0852978,47.1667,-0.0641698,
2,0,0,1,0,6139.93,-0.065812,-0.0661419,-14.2633,5,-0.00185286,10,0.000943404,-1.84578,-0.629603,-0.0937098,52.1676,-0.0661419,
2,0,0,1,0,6139.94,-0.0678187,-0.0681339,-14.368,5,-0.00199612,10,0.000978947,-1.8426,-0.590682,-0.0998845,56.0385,-0.06813392,
2,0,0,1,0,6139.95,-0.0698163,-0.0701572,-14.4883,5,-0.00214045,10,0.00101646,-1.83898,-0.637267,-0.0925829,52.2948,-0.0701572,
2,0,0,1,0,6139.96,-0.0718138,-0.0721674,-14.5789,5,-0.00228587,10,0.00105212,-1.83627,-0.587326,-0.100455,57.2453,-0.0721674,
2,0,0,1,0,6139.97,-0.0738114,-0.0741282,-14.7157,5,-0.00243236,10,0.00109085,-1.83222,-0.513436,-0.114912,65.9689,-0.0741282,
2,0,0,1,0,6139.98,-0.0758181,-0.0761497,-14.8416,5,-0.00258024,10,0.00113019,-1.82852,-0.532176,-0.110866,64.2308,-0.0761497,
2,0,0,1,0,6139.99,-0.0778157,-0.0781704,-14.9753,5,-0.00272939,10,0.00117062,-1.82462,-0.557731,-0.105786,61.7833,-0.0781704,
2,0,0,1,0,6140,-0.0798133,-0.0801581,-15.0893,5,-0.00287976,10,0.00120953,-1.82133,-0.508228,-0.11609,68.4621,-0.0801581,
2,0,0,1,0,6140.01,-0.0818109,-0.0821466,-15.2475,5,-0.00303148,10,0.00125253,-1.8168,-0.453159,-0.130197,77.453,-0.08214663,
2,0,0,1,0,6140.02,-0.0837994,-0.0841433,-15.3979,5,-0.0031832,10,0.00129563,-1.81254,-0.467747,-0.126137,75.7994,-0.0841433,
2,0,0,1,0,6140.03,-0.0857969,-0.0861268,-15.5492,5,-0.00333791,10,0.0013392,-1.80829,-0.466912,-0.126362,76.6856,-0.0861268,
2,0,0,1,0,6140.04,-0.0877945,-0.0881246,-15.7033,5,-0.0034942,10,0.00138384,-1.80401,-0.455818,-0.129438,79.3627,-0.0881246,
2,0,0,1,0,6140.05,-0.0897921,-0.0902068,-15.873,5,-0.00365208,10,0.00143185,-1.79934,-0.449733,-0.131189,81.2259,-0.09020675,
2,0,0,1,0,6140.06,-0.0917806,-0.0921154,-16.0274,5,-0.00380997,10,0.00147637,-1.79514,-0.422649,-0.139596,87.4009,-0.0921154,
2,0,0,1,0,6140.07,-0.0937782,-0.0941057,-16.2138,5,-0.00397118,10,0.00152581,-1.79012,-0.430877,-0.13693,86.5774,-0.0941057,
2,0,0,1,0,6140.08,-0.0957758,-0.0961402,-16.3759,5,-0.00413417,10,0.00157438,-1.7858,-0.433732,-0.136029,86.9928,-0.0961402,
2,0,0,1,0,6140.09,-0.0977734,-0.0980932,-16.5607,5,-0.00429887,10,0.00162449,-1.78092,-0.414431,-0.142364,91.997,-0.0980932,
2,0,0,1,0,6140.1,-0.0997412,-0.100116,-16.7416,5,-0.004462,10,0.0016761,-1.7762,0.0925806,0.637283,-401.932,-0.100116,
2,0,0,1,1,6140.11,-0.0996711,-0.100068,-15.767,5,-0.00451099,10,0.00157777,-1.80225,-0.0105227,-5.60691,2951.49,-0.100068,
2,0,0,1,1,6140.12,-0.0976826,-0.0980644,-10.6863,5,-0.0046398,10,0.00104795,-1.97117,-0.0110023,-5.36251,2237.94,-0.0980644,
2,0,0,1,1,6140.13,-0.095685,-0.0960817,-6.84609,5,-0.00472622,10,0.000657784,-2.16456,-0.00900796,-6.54976,1708.79,-0.0960817,
2,0,0,1,1,6140.14,-0.0936874,-0.0940544,-3.83419,5,-0.00477873,10,0.000360622,-2.41633,-0.00584255,-10.0983,1351.95,-0.0940544,
2,0,0,1,1,6140.15,-0.0916898,-0.0920527,-1.39909,5,-0.00480416,10,0.00012879,-2.85416,-0.00468718,-12.5875,1104.03,-0.0920527,
2,1,0,1,1,6140.16,-0.0897013,-0.090087,0.546034,5,-0.00480778,10,-4.91905e-05,-3.26278,0.0204429,2.88609,897.873,-0.090087,
2,1,0,1,1,6140.17,-0.0877037,-0.0880481,2.19652,5,-0.00479356,10,-0.0001934,-2.65826,0.00494005,11.9432,747.714,-0.0880481,
2,1,0,1,1,6140.18,-0.0857062,-0.0860717,3.54832,5,-0.00476446,10,-0.00030541,-2.44998,0.0121372,4.8611,622.138,-0.0860717,
2,1,0,1,1,6140.19,-0.0837086,-0.0840718,4.6703,5,-0.00472301,10,-0.00039264,-2.33066,0.0198304,2.97523,523.049,-0.08407183,
2,1,0,1,1,6140.2,-0.0817019,-0.0821128,5.61901,5,-0.00467131,10,-0.000461392,-2.25034,0.0282947,2.0852,448.926,-0.0821128,
2,1,0,1,1,6140.21,-0.0797043,-0.0800869,6.45922,5,-0.00461061,10,-0.000517299,-2.18982,0.0388046,1.52044,376.664,-0.0800869,
2,1,0,1,1,6140.22,-0.0777067,-0.0780828,7.13697,5,-0.00454245,10,-0.000557275,-2.14649,0.0515484,1.14456,316.01,-0.0780828,
2,1,0,1,1,6140.23,-0.0757091,-0.0760725,7.72782,5,-0.00446797,10,-0.000587874,-2.11194,0.0650933,0.906392,271.363,-0.0760725,
2,1,0,1,1,6140.24,-0.0737025,-0.0740484,8.23176,5,-0.00438802,10,-0.000609548,-2.08451,0.0797543,0.739772,236.629,-0.0740484,
2,1,0,1,1,6140.25,-0.0717049,-0.0720364,8.68288,5,-0.00430327,10,-0.000625483,-2.06134,0.10083,0.585142,196.864,-0.0720364,
2,1,0,1,1,6140.26,-0.0697073,-0.0700357,9.02171,5,-0.00421471,10,-0.000631842,-2.04471,0.12516,0.471398,165.766,-0.0700357,
2,1,0,1,1,6140.27,-0.0677097,-0.0680359,9.34603,5,-0.00412275,10,-0.000635865,-2.02937,0.142214,0.414866,150.837,-0.0680359,
2,1,0,1,1,6140.28,-0.0657212,-0.0660899,9.61688,5,-0.00402888,10,-0.000635579,-2.01697,0.176207,0.334833,125.364,-0.0660899,
2,1,0,1,1,6140.29,-0.0637236,-0.0640515,9.84552,5,-0.00393152,10,-0.000630621,-2.00676,0.220433,0.267655,102.588,-0.0640515,
2,1,0,1,1,6140.3,-0.061726,-0.0620816,10.0281,5,-0.00383213,10,-0.000622559,-1.99878,0.244686,0.241125,94.4208,-0.0620816,
2,1,0,1,1,6140.31,-0.0597284,-0.06004,10.2243,5,-0.00373076,10,-0.000613867,-1.99037,0.281061,0.209919,83.5035,-0.06004,
2,1,0,1,1,6140.32,-0.0577399,-0.0581174,10.3591,5,-0.00362893,10,-0.000602045,-1.98468,0.341737,0.172647,69.8094,-0.0581174,
2,1,0,1,1,6140.33,-0.0557423,-0.0561141,10.4984,5,-0.00352459,10,-0.000589106,-1.97888,0.413953,0.142528,58.2726,-0.0561141,
2,1,0,1,1,6140.34,-0.0537447,-0.0540874,10.5939,5,-0.00341914,10,-0.000572999,-1.97494,0.500095,0.117978,48.7844,-0.0540874,
2,1,0,1,1,6140.35,-0.0517472,-0.0521231,10.6931,5,-0.00331261,10,-0.000557355,-1.9709,0.566064,0.104228,43.4449,-0.0521231,
2,1,0,1,1,6140.36,-0.049745,-0.0500947,10.7674,5,-0.00320533,10,-0.00053939,-1.96789,0.604494,0.0976023,41.0458,-0.0500947,
2,1,0,1,1,6140.37,-0.0477429,-0.0480862,10.8588,5,-0.0030971,10,-0.000522156,-1.96422,0.791687,0.0745244,31.5004,-0.0480862,
2,1,0,1,1,6140.38,-0.0457453,-0.0460716,10.8941,5,-0.00298833,10,-0.00050191,-1.96281,1.07368,0.0549511,23.3867,-0.04607157,
2,1,0,1,1,6140.39,-0.0437477,-0.0441186,10.9515,5,-0.00287907,10,-0.000483167,-1.96052,1.24152,0.0475223,20.2804,-0.0441186,
2,1,0,1,1,6140.4,-0.0417501,-0.0420459,10.9758,5,-0.00276941,10,-0.000461487,-1.95956,1.12674,0.0523635,22.4729,-0.04204588,
2,1,0,1,1,6140.41,-0.0397435,-0.0400842,11.0422,5,-0.00265923,10,-0.000442618,-1.95694,1.55617,0.0379135,16.2873,-0.0400842,
2,1,0,1,1,6140.42,-0.0377459,-0.0381408,11.0394,5,-0.00254887,10,-0.000421051,-1.95706,2.58631,0.0228124,9.84836,-0.0381408,
2,1,0,1,1,6140.43,-0.0357483,-0.0360889,11.0816,5,-0.00243823,10,-0.000399921,-1.9554,2.54161,0.0232136,10.0196,-0.0360889,
2,1,0,1,1,6140.44,-0.0337507,-0.0340882,11.08,5,-0.00232742,10,-0.000377697,-1.95546,3.26713,0.0180587,7.82098,-0.0340882,
2,1,0,1,1,6140.45,-0.0317622,-0.0320954,11.1128,5,-0.00221751,10,-0.000356669,-1.95418,4.85534,0.0121516,5.25951,-0.0320954,
2,1,0,1,1,6140.46,-0.0297646,-0.0301103,11.1009,5,-0.00210649,10,-0.000334252,-1.95464,12.7471,0.00462849,2.00809,-0.0301103,
2,1,0,1,1,6140.47,-0.027767,-0.0280966,11.1208,5,-0.00199539,10,-0.000312457,-1.95386,-6.16787,-0.00956569,-4.14109,-0.0280966,
2,1,0,1,1,6140.48,-0.0257694,-0.0261107,11.0844,5,-0.0018844,10,-0.00028942,-1.95529,-9.72092,-0.00606938,-2.63294,-0.0261107,
2,1,0,1,1,6140.49,-0.0237809,-0.0241151,11.1103,5,-0.00177451,10,-0.000267927,-1.95427,21.092,0.00279727,1.21033,-0.0241151,
2,1,0,1,1,6140.5,-0.0217833,-0.0221161,11.0892,5,-0.00166354,10,-0.00024525,-1.9551,-3.08638,-0.0191163,-8.27646,-0.02211611,
2,1,0,1,1,6140.51,-0.0197858,-0.0201085,11.0772,5,-0.00155266,10,-0.000222745,-1.95557,-2.64662,-0.0222926,-9.63098,-0.0201085,
2,1,0,1,1,6140.52,-0.0177882,-0.0181251,11.0507,5,-0.00144204,10,-0.000200296,-1.95661,-10.668,-0.00553057,-2.38988,-0.0181251,
2,1,0,1,1,6140.53,-0.0157815,-0.0161227,11.0676,5,-0.00133144,10,-0.00017844,-1.95594,-3.85527,-0.0153037,-6.59232,-0.0161227,
2,1,0,1,1,6140.54,-0.0137839,-0.0141541,11.0246,5,-0.001221,10,-0.000156043,-1.95764,-2.2101,-0.0266957,-11.5067,-0.0141541,
2,1,0,1,1,6140.55,-0.0117863,-0.0121039,11.0214,5,-0.00111079,10,-0.000133402,-1.95776,-2.39115,-0.0246744,-10.5955,-0.0121039,
2,1,0,1,1,6140.56,-0.00978874,-0.0100954,10.9816,5,-0.00100081,10,-0.000110864,-1.95934,-2.64058,-0.0223436,-9.59404,-0.0100954,
2,1,0,1,1,6140.57,-0.00778207,-0.00813378,10.9833,5,-0.000890935,10,-8.93358e-05,-1.95927,-2.40594,-0.0245227,-10.49,-0.00813378,
2,1,0,1,1,6140.58,-0.00578449,-0.00613915,10.9401,5,-0.000781354,10,-6.71627e-05,-1.96098,-1.69507,-0.0348068,-14.8793,-0.00613915,
2,1,0,1,1,6140.59,-0.0037869,-0.00413411,10.9238,5,-0.000672003,10,-4.51602e-05,-1.96163,-1.88845,-0.0312425,-13.3067,-0.004134113,
2,1,0,1,1,6140.6,-0.00178931,-0.00213168,10.8867,5,-0.000562946,10,-2.3207e-05,-1.9631,-1.44223,-0.0409089,-17.3864,-0.00213168,
2,1,0,1,1,6140.6,-2.55332e-05,-0.000248974,10.8563,5,-0.000468289,10,-2.70293e-06,-1.96432, , , ,-0.000248974,