File: Figure_codes/Fig_3-5/rawdata_trumpetplot_data/before 10th/20221101_1-115_002_TrumpetPlot_ParaChange_07_CV_C01_3.csv
mode,ox/red,error,control changes,counter inc.,time/s,control/V,Ewe/V,<I>/mA,cycle number,(Q-Qo)/C,I Range,P/W,log(|I|),Tafel slope mV/dec,alpha_eff,dI/d(E-IR),E-IR/V,
2,0,0,0,0,4833.97,2.44065e-05,-0.000306236,-1.18145,4,0.0000000E+000,11,3.61802e-07,-2.92759, , , ,-0.000306236,
2,1,0,1,0,4834.04,0.00129787,0.000984354,0.453677,4,-3.78717e-06,11,4.46578e-07,-3.34325, , , ,0.000984354,
2,1,0,1,0,4834.11,0.00279606,0.00247523,0.731198,4,4.39721e-05,11,1.80988e-06,-3.13597,0.00593683,9.93796,149.217,0.00247523,
2,1,0,1,0,4834.19,0.00429425,0.00403537,0.758476,4,0.000100459,11,3.06073e-06,-3.12006,0.067937,0.868452,25.1452,0.00403537,
2,1,0,1,0,4834.26,0.00579244,0.00550483,0.78068,4,0.000158942,11,4.29751e-06,-3.10753,0.106881,0.552015,16.8993,0.00550483,
2,1,0,1,0,4834.34,0.00729063,0.00699905,0.812669,4,0.000219396,11,5.68792e-06,-3.09009,0.119726,0.492794,15.5777,0.00699905,
2,1,0,1,0,4834.41,0.00878882,0.00851517,0.838636,4,0.000281773,11,7.14113e-06,-3.07643,0.144275,0.408942,13.2913,0.00851517,
2,1,0,1,0,4834.49,0.010287,0.00998554,0.853494,4,0.000345752,11,8.5226e-06,-3.0688,0.202361,0.291558,9.64469,0.00998554,
2,1,0,1,0,4834.56,0.0117852,0.0115201,0.868227,4,0.000410845,11,1.00021e-05,-3.06137,0.208326,0.28321,9.60756,0.0115201,
2,1,0,1,0,4834.64,0.0132847,0.0129328,0.882292,4,0.000476864,11,1.14105e-05,-3.05439,0.197081,0.29937,10.3229,0.0129328,
2,1,0,1,0,4834.71,0.0147802,0.0145081,0.895583,4,0.000544027,11,1.29932e-05,-3.04789,0.220235,0.267896,9.33543,0.0145081,
2,1,0,1,0,4834.79,0.0162798,0.0159788,0.906299,4,0.000612505,11,1.44816e-05,-3.04273,0.30621,0.192678,6.79448,0.0159788,
2,1,0,1,0,4834.86,0.017778,0.0175105,0.916718,4,0.000681417,11,1.60522e-05,-3.03776,0.365878,0.161256,5.78242,0.0175105,
2,1,0,1,0,4834.94,0.0192761,0.0189731,0.927376,4,0.000750867,11,1.75952e-05,-3.03274,0.353508,0.166899,6.02174,0.0189731,
2,1,0,1,0,4835.01,0.0207743,0.0205021,0.936598,4,0.000821298,11,1.92022e-05,-3.02845,0.30486,0.193531,7.0417,0.0205021,
2,1,0,1,0,4835.09,0.0222725,0.0219879,0.944455,4,0.000892363,11,2.07666e-05,-3.02482,0.396027,0.14898,5.49623,0.0219879,
2,1,0,1,0,4835.16,0.0237707,0.0235063,0.952646,4,0.000964045,11,2.23932e-05,-3.02107,0.462617,0.127535,4.75239,0.0235063,
2,1,0,1,0,4835.24,0.0252689,0.0250408,0.95953,4,0.00103623,11,2.40274e-05,-3.01794,0.406495,0.145143,5.44857,0.0250408,
2,1,0,1,0,4835.31,0.0267671,0.0264899,0.970301,4,0.00110914,11,2.57032e-05,-3.01309,0.32373,0.18225,6.88597,0.0264899,
2,1,0,1,0,4835.39,0.0282653,0.0279567,0.983399,4,0.00118282,11,2.74926e-05,-3.00727,0.363799,0.162177,6.19993,0.0279567,
2,1,0,1,0,4835.46,0.0297644,0.0295064,0.989258,4,0.00125723,11,2.91894e-05,-3.00469,0.383814,0.15372,5.92684,0.0295064,
2,1,0,1,0,4835.54,0.0312599,0.0309641,0.988069,4,0.00133195,11,3.05946e-05,-3.00521,0.37697,0.156511,6.08943,0.0309641,
2,1,0,1,0,4835.61,0.0327599,0.0324689,1.00356,4,0.00140745,11,3.25846e-05,-2.99846,0.376514,0.156701,6.14382,0.0324689,
2,1,0,1,0,4835.69,0.034258,0.0339536,1.01558,4,0.00148373,11,3.44825e-05,-2.99329,0.345288,0.170872,6.75323,0.0339536,
2,1,0,1,0,4835.76,0.0357562,0.0354952,1.02711,4,0.00156076,11,3.64575e-05,-2.98838,0.479682,0.122998,4.90439,0.0354952,
2,1,0,1,0,4835.84,0.0372544,0.0369498,1.03311,4,0.00163849,11,3.81733e-05,-2.98585,0.376257,0.156808,6.33898,0.0369498,
2,1,0,1,0,4835.91,0.0387526,0.038465,1.04405,4,0.00171688,11,4.01593e-05,-2.98128,0.286305,0.206074,8.4512,0.038465,
2,1,0,1,0,4835.98,0.0402508,0.0399797,1.05989,4,0.00179623,11,4.23741e-05,-2.97474,0.311226,0.189573,7.84383,0.0399797,
2,1,0,1,0,4836.06,0.041749,0.041425,1.07213,4,0.00187672,11,4.44131e-05,-2.96975,0.329948,0.178816,7.46471,0.041425,
2,1,0,1,0,4836.13,0.0432472,0.0430208,1.08449,4,0.00195802,11,4.66558e-05,-2.96477,0.29173,0.202242,8.56068,0.0430208,
2,1,0,1,0,4836.21,0.0447449,0.0444898,1.09622,4,0.00204005,11,4.87708e-05,-2.9601,0.25456,0.231773,9.92101,0.0444898,
2,1,0,1,0,4836.28,0.0462445,0.0459179,1.11167,4,0.00212349,11,5.10455e-05,-2.95402,0.214239,0.275393,11.9459,0.04591788,
2,1,0,1,0,4836.36,0.04774,0.0474325,1.12585,4,0.00220775,11,5.34018e-05,-2.94852,0.239787,0.246052,10.8476,0.0474325,
2,1,0,1,0,4836.43,0.0492399,0.0489512,1.14237,4,0.00229358,11,5.59204e-05,-2.94219,0.224618,0.262668,11.7248,0.0489512,
2,1,0,1,0,4836.51,0.0507381,0.0504387,1.15189,4,0.00238029,11,5.80999e-05,-2.93859,0.229265,0.257345,11.6637,0.0504387,
2,1,0,1,0,4836.58,0.0522363,0.0519155,1.17931,4,0.00246844,11,6.12245e-05,-2.92837,0.189165,0.311897,14.3526,0.0519155,
2,1,0,1,0,4836.66,0.0537345,0.0534556,1.20236,4,0.00255813,11,6.42727e-05,-2.91997,0.206806,0.285292,13.3697,0.0534556,
2,1,0,1,0,4836.73,0.0552327,0.0549791,1.2203,4,0.00264941,11,6.70909e-05,-2.91353,0.225618,0.261504,12.4277,0.0549791,
2,1,0,1,0,4836.81,0.0567309,0.0564578,1.2348,4,0.00274216,11,6.97138e-05,-2.9084,0.196689,0.299966,14.5212,0.0564578,
2,1,0,1,0,4836.88,0.0582291,0.0579177,1.26284,4,0.00283624,11,7.31406e-05,-2.89865,0.203036,0.290589,14.3206,0.0579177,
2,1,0,1,0,4836.96,0.0597291,0.0594499,1.28438,4,0.00293231,11,7.63565e-05,-2.89131,0.191324,0.308377,15.4579,0.05944993,
2,1,0,1,0,4837.03,0.0612246,0.0609517,1.3088,4,0.00302993,11,7.97738e-05,-2.88313,0.214671,0.274839,13.9954,0.0609517,
2,1,0,1,0,4837.11,0.0627241,0.0624177,1.33332,4,0.00312962,11,8.32225e-05,-2.87507,0.182482,0.32332,16.8343,0.0624177,
2,1,0,1,0,4837.18,0.0642219,0.0639494,1.35492,4,0.00323067,11,8.66466e-05,-2.86808,0.18502,0.318885,16.9352,0.0639494,
2,1,0,1,0,4837.26,0.06572,0.0654652,1.38605,4,0.00333397,11,9.07381e-05,-2.85822,0.174592,0.337931,18.2162,0.0654652,
2,1,0,1,0,4837.33,0.0672182,0.066949,1.40997,4,0.00343932,11,9.4396e-05,-2.85079,0.195327,0.302058,16.5872,0.066949,
2,1,0,1,0,4837.41,0.0687164,0.0684626,1.43426,4,0.00354645,11,9.81933e-05,-2.84337,0.206806,0.285292,15.9736,0.0684626,
2,1,0,1,0,4837.48,0.0702146,0.0699423,1.4551,4,0.00365519,11,0.000101773,-2.83711,0.196961,0.299552,17.0735,0.0699423,
2,1,0,1,0,4837.56,0.0717128,0.071412,1.48434,4,0.00376601,11,0.000106,-2.82847,0.192583,0.306361,17.7178,0.071412,
2,1,0,1,0,4837.63,0.073211,0.0729349,1.51286,4,0.00387893,11,0.00011034,-2.8202,0.203754,0.289564,17.1008,0.0729349,
2,1,0,1,0,4837.71,0.0747092,0.0744354,1.53957,4,0.0039937,11,0.000114599,-2.8126,0.223851,0.263568,15.7907,0.0744354,
2,1,0,1,0,4837.78,0.0762087,0.0758876,1.55633,4,0.00411047,11,0.000118106,-2.8079,0.210589,0.280166,17.0808,0.0758876,
2,1,0,1,0,4837.86,0.0777042,0.0774468,1.58754,4,0.00422864,11,0.00012295,-2.79928,0.200017,0.294975,18.2687,0.0774468,
2,1,0,1,0,4837.93,0.0792037,0.078902,1.61498,4,0.00434935,11,0.000127425,-2.79183,0.227626,0.259197,16.2708,0.078902,
2,1,0,1,0,4838.01,0.0807019,0.0804203,1.6378,4,0.00447181,11,0.000131713,-2.78574,0.287224,0.205414,13.0884,0.0804203,
2,1,0,1,0,4838.08,0.0822001,0.0819252,1.65631,4,0.00459576,11,0.000135693,-2.78086,0.264905,0.222721,14.4211,0.0819252,
2,1,0,1,0,4838.16,0.0836983,0.0833927,1.67717,4,0.00472111,11,0.000139864,-2.77542,0.255446,0.230969,15.1656,0.0833927,
2,1,0,1,0,4838.23,0.0851965,0.084939,1.70283,4,0.00484845,11,0.000144637,-2.76883,0.243806,0.241996,16.0804,0.08493901,
2,1,0,1,0,4838.31,0.0866947,0.0863999,1.72734,4,0.00497767,11,0.000149242,-2.76262,0.289135,0.204057,13.7297,0.0863999,
2,1,0,1,0,4838.38,0.0881929,0.0879334,1.75268,4,0.00510847,11,0.000154119,-2.7563,0.327271,0.180279,12.3102,0.0879334,
2,1,0,1,0,4838.46,0.0896911,0.0894158,1.76839,4,0.00524057,11,0.000158122,-2.75242,0.285626,0.206564,14.2691,0.0894158,
2,1,0,1,0,4838.53,0.0911893,0.0908493,1.79334,4,0.00537441,11,0.000162924,-2.74634,0.256528,0.229994,16.0413,0.0908493,
2,1,0,1,0,4838.61,0.0926884,0.092458,1.81678,4,0.00551033,11,0.000167976,-2.7407,0.266576,0.221325,15.6545,0.092458,
2,1,0,1,0,4838.68,0.0941839,0.0938802,1.83768,4,0.00564741,11,0.000172522,-2.73573,0.318017,0.185525,13.2814,0.0938802,
2,1,0,1,0,4838.76,0.0956838,0.0953879,1.84891,4,0.00578618,11,0.000176363,-2.73308,0.289475,0.203817,14.7821,0.0953879,
2,1,0,1,0,4838.83,0.097182,0.096845,1.87682,4,0.00592643,11,0.00018176,-2.72658,0.23473,0.251353,18.4095,0.096845,
2,1,0,1,0,4838.91,0.0986802,0.0983761,1.90407,4,0.00606872,11,0.000187315,-2.72032,0.247938,0.237963,17.6897,0.09837614,
2,1,0,1,0,4838.98,0.100178,0.0998776,1.93033,4,0.00621289,11,0.000192796,-2.71437,0.280368,0.210438,15.8533,0.0998776,
2,1,0,1,0,4839.06,0.101677,0.101374,1.95021,4,0.00635902,11,0.000197701,-2.70992,0.245189,0.24063,18.3755,0.101374,
2,1,0,1,0,4839.13,0.103175,0.102859,1.98662,4,0.00650707,11,0.000204342,-2.70189,0.226566,0.26041,20.2287,0.102859,
2,1,0,1,0,4839.21,0.104673,0.104364,2.02404,4,0.00665761,11,0.000211237,-2.69378,0.199295,0.296043,23.3532,0.104364,
2,1,0,1,0,4839.28,0.106171,0.105891,2.05692,4,0.00681089,11,0.00021781,-2.68678,0.196588,0.300121,24.0462,0.105891,
2,1,0,1,0,4839.36,0.107669,0.107369,2.08812,4,0.00696679,11,0.0002242,-2.68024,0.188375,0.313205,25.6017,0.107369,
2,1,0,1,0,4839.43,0.109168,0.108845,2.13184,4,0.00712558,11,0.000232039,-2.67125,0.173274,0.340501,28.4042,0.108845,
2,1,0,1,0,4839.51,0.110664,0.110392,2.1735,4,0.00728736,11,0.000239936,-2.66284,0.15623,0.377647,32.1343,0.110392,
2,1,0,1,0,4839.58,0.112164,0.111845,2.22619,4,0.00745306,11,0.000248989,-2.65244,0.162345,0.363424,31.5758,0.111845,
2,1,0,1,0,4839.66,0.113662,0.113406,2.27984,4,0.0076224,11,0.000258548,-2.6421,0.147114,0.40105,35.6461,0.113406,
2,1,0,1,0,4839.73,0.11516,0.114859,2.33328,4,0.00779544,11,0.000267999,-2.63203,0.140642,0.419504,38.2319,0.114859,
2,1,0,1,0,4839.81,0.116658,0.116378,2.39327,4,0.00797289,11,0.000278523,-2.62101,0.128532,0.459028,42.8856,0.116378,
2,1,0,1,0,4839.88,0.118157,0.117898,2.46118,4,0.00815528,11,0.000290168,-2.60886,0.132451,0.445449,42.7068,0.117898,
2,1,0,1,0,4839.96,0.119655,0.11942,2.5233,4,0.00834255,11,0.000301332,-2.59803,0.138177,0.426989,42.052,0.1194199,
2,1,0,1,0,4840.03,0.121153,0.120856,2.58402,4,0.00853435,11,0.000312295,-2.5877,0.134106,0.43995,44.4731,0.120856,
2,1,0,1,0,4840.11,0.122653,0.12241,2.65391,4,0.00873135,11,0.000324866,-2.57611,0.128313,0.459815,47.6034,0.12241,
2,1,0,1,0,4840.18,0.124149,0.123857,2.72452,4,0.00893317,11,0.000337451,-2.56471,0.132422,0.445546,47.3342,0.123857,
2,1,0,1,0,4840.25,0.125648,0.125317,2.79319,4,0.00914076,11,0.000350035,-2.5539,0.144231,0.409066,44.5281,0.125317,
2,1,0,1,0,4840.33,0.127146,0.126877,2.85343,4,0.00935315,11,0.000362034,-2.54463,0.149437,0.394815,44.0395,0.126877,
2,1,0,1,0,4840.4,0.128644,0.128308,2.92601,4,0.00957025,11,0.000375431,-2.53372,0.14997,0.393412,44.9514,0.128308,
2,1,0,1,0,4840.48,0.130142,0.129868,2.99478,4,0.00979251,11,0.000388926,-2.52364,0.159585,0.369709,43.1023,0.129868,
2,1,0,1,0,4840.55,0.13164,0.131349,3.05796,4,0.0100199,11,0.00040166,-2.51457,0.179568,0.328566,39.0521,0.131349,
2,1,0,1,0,4840.63,0.133139,0.132873,3.1126,4,0.0102517,11,0.000413581,-2.50688,0.199987,0.295019,35.8203,0.132873,
2,1,0,1,0,4840.7,0.134637,0.134375,3.16569,4,0.0104871,11,0.000425389,-2.49953,0.213474,0.276381,34.132,0.134375,
2,1,0,1,0,4840.78,0.136135,0.135863,3.21744,4,0.0107267,11,0.00043713,-2.49249,0.225348,0.261818,32.7851,0.135863,
2,1,0,1,0,4840.85,0.137633,0.137355,3.2638,4,0.0109699,11,0.000448297,-2.48628,0.280917,0.210026,26.6467,0.137355,
2,1,0,1,0,4840.93,0.139133,0.138877,3.30152,4,0.0112165,11,0.000458505,-2.48129,0.349831,0.168653,21.6544,0.138877,
2,1,0,1,0,4841,0.140628,0.140343,3.32343,4,0.0114645,11,0.00046642,-2.47841,0.432286,0.136484,17.6742,0.140343,
2,1,0,1,0,4841.08,0.142128,0.141859,3.34343,4,0.0117153,11,0.000474297,-2.47581,0.516809,0.114162,14.8599,0.141859,
2,1,0,1,0,4841.15,0.143626,0.14334,3.36242,4,0.0119672,11,0.000481971,-2.47335,1.32806,0.0444256,5.8087,0.14334,
2,1,0,1,0,4841.23,0.145124,0.144842,3.36112,4,0.0122198,11,0.000486832,-2.47352,-1.26379,-0.0466851,-6.10492,0.144842,
2,1,0,1,0,4841.3,0.146622,0.146334,3.34241,4,0.0124717,11,0.000489109,-2.47594,-0.553217,-0.106649,-13.8962,0.146334,
2,1,0,1,0,4841.38,0.14812,0.147813,3.32179,4,0.0127219,11,0.000491005,-2.47863,-0.352713,-0.167275,-21.5947,0.147813,
2,1,0,1,0,4841.45,0.149619,0.149343,3.28487,4,0.01297,11,0.000490571,-2.48348,-0.246589,-0.239265,-30.5389,0.149343,
2,1,0,1,0,4841.53,0.151117,0.150822,3.23408,4,0.0132145,11,0.00048777,-2.49025,-0.173588,-0.339885,-42.6206,0.150822,
2,1,0,1,0,4841.6,0.152615,0.152318,3.15793,4,0.0134545,11,0.000481009,-2.5006,-0.142583,-0.413795,-50.8086,0.152318,
2,1,0,1,0,4841.68,0.154113,0.153816,3.07642,4,0.0136885,11,0.000473204,-2.51195,-0.118423,-0.498212,-59.6053,0.153816,
2,1,0,1,0,4841.75,0.155613,0.155287,2.98413,4,0.0139164,11,0.000463395,-2.52518,-0.103504,-0.570027,-66.0775,0.1552866,
2,1,0,1,0,4841.83,0.157108,0.156789,2.8759,4,0.0141362,11,0.000450911,-2.54123,-0.0870101,-0.678082,-75.7494,0.156789,
2,1,0,1,0,4841.9,0.158608,0.15831,2.75936,4,0.0143481,11,0.000436833,-2.55919,-0.0800527,-0.737015,-79.1752,0.15831,
2,1,0,1,0,4841.98,0.160106,0.159807,2.63403,4,0.0145504,11,0.000420935,-2.57938,-0.0734726,-0.803021,-82.507,0.159807,
2,1,0,1,0,4842.05,0.161604,0.161342,2.51629,4,0.0147439,11,0.000405983,-2.59924,-0.0743152,-0.793916,-77.7604,0.161342,
2,1,0,1,0,4842.13,0.163102,0.162818,2.39655,4,0.0149283,11,0.0003902,-2.62041,-0.0709353,-0.831744,-77.7593,0.162818,
2,1,0,1,0,4842.2,0.164601,0.164332,2.28046,4,0.0151038,11,0.000374752,-2.64198,-0.068612,-0.859908,-76.5198,0.164332,
2,1,0,1,0,4842.28,0.166099,0.165823,2.16198,4,0.0152706,11,0.000358505,-2.66515,-0.0703854,-0.838242,-71.025,0.1658226,
2,1,0,1,0,4842.35,0.167597,0.16733,2.0649,4,0.0154295,11,0.00034552,-2.6851,-0.0738569,-0.798842,-64.4387,0.16733,
2,1,0,1,0,4842.43,0.169095,0.168829,1.97541,4,0.0155813,11,0.000333507,-2.70434,-0.0745365,-0.791559,-61.0057,0.168829,
2,1,0,1,0,4842.5,0.170593,0.17029,1.87964,4,0.015726,11,0.000320083,-2.72593,-0.074757,-0.789224,-58.0932,0.17029,
2,1,0,1,0,4842.58,0.172092,0.171768,1.79408,4,0.0158644,11,0.000308165,-2.74616,-0.0812417,-0.726228,-51.1851,0.1717678,
2,1,0,1,0,4842.65,0.173588,0.173317,1.72673,4,0.0159967,11,0.000299272,-2.76277,-0.0879464,-0.670863,-45.301,0.1733171,
2,1,0,1,0,4842.73,0.175088,0.174796,1.66197,4,0.0161242,11,0.000290506,-2.77938,-0.0895036,-0.659191,-42.7901,0.1747957,
2,1,0,1,0,4842.8,0.176586,0.176335,1.59936,4,0.0162469,11,0.000282024,-2.79605,-0.0950796,-0.620533,-38.7577,0.176335,
2,1,0,1,0,4842.88,0.178084,0.177766,1.53935,4,0.016365,11,0.000273643,-2.81266,-0.101745,-0.579884,-35.0527,0.177766,
2,1,0,1,0,4842.95,0.179582,0.179268,1.49535,4,0.0164793,11,0.000268069,-2.82526,-0.116878,-0.504802,-29.5614,0.179268,
2,1,0,1,0,4843.03,0.181081,0.180812,1.45158,4,0.0165902,11,0.000262463,-2.83816,-0.121613,-0.485145,-27.5807,0.180812,
2,1,0,1,0,4843.1,0.182579,0.182289,1.40926,4,0.0166981,11,0.000256892,-2.85101,-0.116997,-0.504288,-27.7756,0.182289,
2,1,0,1,0,4843.18,0.184077,0.183809,1.3741,4,0.016803,11,0.000252573,-2.86198,-0.13308,-0.443341,-23.8395,0.183809,
2,1,0,1,0,4843.25,0.185577,0.185286,1.34299,4,0.0169052,11,0.000248838,-2.87193,-0.148027,-0.398577,-20.9318,0.1852864,
2,1,0,1,0,4843.33,0.187073,0.186785,1.31457,4,0.017005,11,0.000245542,-2.88122,-0.167272,-0.352719,-18.0676,0.186785,
2,1,0,1,0,4843.4,0.188572,0.188245,1.28439,4,0.017103,11,0.000241779,-2.8913,-0.177143,-0.333064,-16.7122,0.188245,
2,1,0,1,0,4843.48,0.19007,0.189801,1.25969,4,0.0171989,11,0.000239091,-2.89974,-0.17962,-0.328472,-16.1842,0.189801,
2,1,0,1,0,4843.55,0.191568,0.191274,1.23531,4,0.0172929,11,0.000236283,-2.90822,-0.20488,-0.287973,-13.9595,0.191274,
2,1,0,1,0,4843.63,0.193066,0.192779,1.21706,4,0.0173853,11,0.000234624,-2.91469,-0.249416,-0.236553,-11.2376,0.192779,
2,1,0,1,0,4843.7,0.194564,0.194285,1.20056,4,0.0174766,11,0.000233251,-2.92062,-0.238276,-0.247612,-11.5928,0.194285,
2,1,0,1,0,4843.78,0.196063,0.195797,1.18148,4,0.0175664,11,0.00023133,-2.92757,-0.224587,-0.262705,-12.1306,0.195797,
2,1,0,1,0,4843.85,0.197561,0.197297,1.16027,4,0.0176549,11,0.000228917,-2.93544,-0.260579,-0.226419,-10.3154,0.197297,
2,1,0,1,0,4843.93,0.199059,0.198783,1.15262,4,0.0177421,11,0.000229121,-2.93831,-0.289714,-0.203649,-9.16663,0.198783,
2,1,0,1,0,4844,0.200557,0.200286,1.14064,4,0.0178285,11,0.000228454,-2.94285,-0.312908,-0.188554,-8.35877,0.200286,
2,1,0,1,0,4844.08,0.202057,0.201788,1.12667,4,0.017914,11,0.000227348,-2.94821,-0.283156,-0.208366,-9.14454,0.2017884,
2,1,0,1,0,4844.15,0.203552,0.203243,1.11232,4,0.0179984,11,0.000226071,-2.95377,-0.360525,-0.16365,-7.13287,0.2032427,
2,1,0,1,0,4844.23,0.205052,0.204785,1.10345,4,0.018082,11,0.00022597,-2.95725,-0.674362,-0.0874901,-3.79738,0.204785,
2,1,0,1,0,4844.3,0.20655,0.20624,1.09131,4,0.0181649,11,0.000225073,-2.96205,-0.427419,-0.138038,-5.89989,0.2062404,
2,1,0,1,0,4844.37,0.208048,0.207767,1.08374,4,0.0182475,11,0.000225165,-2.96508,-0.373813,-0.157833,-6.67903,0.207767,
2,1,0,1,0,4844.45,0.209546,0.209245,1.07579,4,0.018329,11,0.000225104,-2.96827,-0.369488,-0.15968,-6.72354,0.209245,
2,1,0,1,0,4844.52,0.211044,0.210754,1.06947,4,0.0184097,11,0.000225394,-2.97083,-0.431848,-0.136622,-5.69458,0.210754,
2,1,0,1,0,4844.6,0.212543,0.212204,1.06283,4,0.01849,11,0.000225536,-2.97354,-0.529028,-0.111525,-4.60861,0.212204,
2,1,0,1,0,4844.67,0.214041,0.213733,1.05287,4,0.0185698,11,0.000225033,-2.97763,-0.477378,-0.123592,-5.08274,0.213733,
2,1,0,1,0,4844.75,0.215539,0.215234,1.04794,4,0.018649,11,0.000225553,-2.97966,-0.533614,-0.110567,-4.51674,0.215234,
2,1,0,1,0,4844.82,0.217037,0.216734,1.03781,4,0.0187275,11,0.00022493,-2.98388,-0.77916,-0.0757226,-3.08062,0.216734,
2,1,0,1,0,4844.9,0.218536,0.218265,1.03243,4,0.0188058,11,0.000225344,-2.98614,-1.08971,-0.054143,-2.17919,0.218265,
2,1,0,1,0,4844.97,0.220032,0.219751,1.03057,4,0.0188837,11,0.000226469,-2.98692,-0.694378,-0.0849681,-3.40844,0.219751,
2,1,0,1,0,4845.05,0.221532,0.221301,1.02233,4,0.0189613,11,0.000226242,-2.99041,-0.517546,-0.114,-4.54867,0.221301,
2,1,0,1,0,4845.12,0.22303,0.222746,1.01211,4,0.0190382,11,0.000225445,-2.99477,-0.728943,-0.0809391,-3.21232,0.222746,
2,1,0,1,0,4845.2,0.224528,0.22424,1.0107,4,0.0191146,11,0.000226639,-2.99538,-0.764223,-0.0772026,-3.04666,0.22424,
2,1,0,1,0,4845.27,0.226026,0.225755,1.0083,4,0.0191909,11,0.000227628,-2.99641,-0.818705,-0.072065,-2.83372,0.225755,
2,1,0,1,0,4845.35,0.227525,0.227207,1.00401,4,0.0192668,11,0.000228117,-2.99826,-0.481654,-0.122494,-4.79232,0.227207,
2,1,0,1,0,4845.42,0.229023,0.228787,0.998531,4,0.0193423,11,0.000228451,-3.00064,-0.822113,-0.0717663,-2.79795,0.228787,
2,1,0,1,0,4845.5,0.230521,0.230221,0.993582,4,0.0194174,11,0.000228743,-3.0028,-0.93078,-0.0633877,-2.45968,0.230221,
2,1,0,1,0,4845.57,0.232019,0.231753,0.991253,4,0.0194924,11,0.000229726,-3.00382,-0.851127,-0.0693199,-2.68023,0.231753,
2,1,0,1,0,4845.65,0.233517,0.233241,0.988933,4,0.019567,11,0.00023066,-3.00483,-0.626594,-0.0941599,-3.62075,0.233241,
2,1,0,1,0,4845.72,0.235016,0.234748,0.985186,4,0.0196414,11,0.000231271,-3.00648,-1.06693,-0.0552988,-2.11852,0.234748,
2,1,0,1,0,4845.8,0.236512,0.23623,0.978879,4,0.0197153,11,0.00023124,-3.00927,-1.30852,-0.0450893,-1.71967,0.23623,
2,1,0,1,0,4845.87,0.238012,0.23775,0.975499,4,0.0197892,11,0.000231925,-3.01077,-1.33202,-0.0442936,-1.6851,0.23775,
2,1,0,1,0,4845.95,0.23951,0.239244,0.972797,4,0.0198627,11,0.000232736,-3.01198,-1.14396,-0.0515753,-1.95615,0.239244,
2,1,0,1,0,4846.02,0.241008,0.240741,0.967624,4,0.019936,11,0.000232947,-3.01429,-0.942317,-0.0626116,-2.36626,0.240741,
2,1,0,1,0,4846.1,0.242506,0.242193,0.961094,4,0.0200089,11,0.000232771,-3.01723,-1.28989,-0.0457405,-1.72504,0.242193,
2,1,0,1,0,4846.17,0.244005,0.243777,0.961921,4,0.0200817,11,0.000234494,-3.01686,-1.76088,-0.0335059,-1.25878,0.243777,
2,1,0,1,0,4846.25,0.245503,0.245232,0.965102,4,0.0201543,11,0.000236673,-3.01543,-0.950424,-0.0620776,-2.3237,0.245232,
2,1,0,1,0,4846.32,0.247001,0.246706,0.957719,4,0.0202268,11,0.000236275,-3.01876,-0.816998,-0.0722156,-2.69061,0.246706,
2,1,0,1,0,4846.4,0.248501,0.248251,0.949796,4,0.020299,11,0.000235788,-3.02237,-1.21939,-0.0483849,-1.79841,0.248251,
2,1,0,1,0,4846.47,0.249997,0.249682,0.952194,4,0.0203707,11,0.000237745,-3.02127,-1.16288,-0.0507361,-1.88697,0.249682,
2,1,0,1,0,4846.55,0.251496,0.251177,0.949038,4,0.0204426,11,0.000238376,-3.02272,-1.37863,-0.042796,-1.58416,0.251177,
2,1,0,1,0,4846.62,0.252994,0.252683,0.945302,4,0.0205141,11,0.000238861,-3.02443,-0.587647,-0.1004,-3.6998,0.252683,
2,1,0,1,0,4846.7,0.254492,0.254178,0.942192,4,0.0205855,11,0.000239485,-3.02586,-1.21227,-0.0486691,-1.79165,0.254178,
2,1,0,1,0,4846.77,0.25599,0.255729,0.94019,4,0.0206564,11,0.000240434,-3.02678,-1.24322,-0.0474573,-1.74475,0.255729,
2,1,0,1,0,4846.85,0.257488,0.257216,0.938795,4,0.0207274,11,0.000241473,-3.02743,-1.31592,-0.0448357,-1.64357,0.257216,
2,1,0,1,0,4846.92,0.258987,0.258788,0.937217,4,0.0207982,11,0.00024254,-3.02816,-1.34578,-0.0438407,-1.59869,0.258788,
2,1,0,1,0,4847,0.260485,0.260229,0.934124,4,0.0208689,11,0.000243086,-3.0296,-0.798479,-0.0738905,-2.69377,0.260229,
2,1,0,1,0,4847.07,0.261983,0.261704,0.931819,4,0.0209391,11,0.000243861,-3.03067,-1.34908,-0.0437335,-1.58818,0.261704,
2,1,0,1,0,4847.15,0.263481,0.2632,0.928746,4,0.0210093,11,0.000244446,-3.0321,-20.7755,-0.00283988,-0.102704,0.2632,
2,1,0,1,0,4847.22,0.264981,0.264745,0.924619,4,0.0210794,11,0.000244788,-3.03404,-1.93646,-0.0304679,-1.10227,0.264745,
2,1,0,1,0,4847.3,0.266476,0.266216,0.922877,4,0.0211492,11,0.000245685,-3.03486,-1.33075,-0.0443358,-1.59987,0.2662161,
2,1,0,1,0,4847.37,0.267976,0.267656,0.918319,4,0.0212189,11,0.000245794,-3.03701,-3.43786,-0.0171619,-0.618189,0.267656,
2,1,0,1,0,4847.45,0.269474,0.269205,0.918515,4,0.0212884,11,0.000247269,-3.03691,-263.544,-0.000223872,-0.00802189,0.269205,
2,1,0,1,0,4847.52,0.270972,0.270709,0.920765,4,0.0213578,11,0.000249259,-3.03585,-1.65008,-0.0357559,-1.27657,0.270709,
2,1,0,1,0,4847.6,0.27247,0.2722,0.914752,4,0.0214272,11,0.000248996,-3.0387,-0.822988,-0.07169,-2.54924,0.2722,
2,1,0,1,0,4847.67,0.273968,0.273732,0.910261,4,0.0214962,11,0.000249167,-3.04083,-0.977729,-0.0603439,-2.14968,0.273732,
2,1,0,1,0,4847.75,0.275467,0.275166,0.912161,4,0.0215649,11,0.000250996,-3.03993,-1.19583,-0.049338,-1.75574,0.275166,
2,1,0,1,0,4847.82,0.276965,0.276684,0.907847,4,0.0216336,11,0.000251186,-3.04199,-1.53913,-0.0383333,-1.35814,0.276684,
2,1,0,1,0,4847.9,0.278463,0.2782,0.905116,4,0.0217022,11,0.000251803,-3.0433,-0.865112,-0.0681993,-2.40775,0.2782,
2,1,0,1,0,4847.97,0.279961,0.279743,0.905795,4,0.0217706,11,0.00025339,-3.04297,-1.73165,-0.0340716,-1.20392,0.279743,
2,1,0,1,0,4848.05,0.28146,0.281227,0.902699,4,0.0218388,11,0.000253863,-3.04446,-2.26352,-0.0260656,-0.919373,0.281227,
2,1,0,1,0,4848.12,0.282956,0.282705,0.90022,4,0.0219068,11,0.000254497,-3.04565,-3.11136,-0.0189628,-0.664707,0.282705,
2,1,0,1,0,4848.2,0.284456,0.284196,0.900575,4,0.021975,11,0.00025594,-3.04548,-1.29561,-0.0455384,-1.59571,0.284196,
2,1,0,1,0,4848.27,0.285954,0.285692,0.896855,4,0.0220428,11,0.000256224,-3.04728,-1.11712,-0.0528146,-1.8512,0.285692,
2,1,0,1,0,4848.35,0.287452,0.287161,0.893316,4,0.0221103,11,0.000256526,-3.04899,-2.5642,-0.0230091,-0.803459,0.287161,
2,1,0,1,0,4848.42,0.28895,0.288689,0.890603,4,0.0221778,11,0.000257108,-3.05032,5.04534,0.011694,0.40687,0.288689,
2,1,0,1,0,4848.49,0.290449,0.290192,0.889741,4,0.0222453,11,0.000258196,-3.05074,-2.11417,-0.027907,-0.97078,0.290192,
2,1,0,1,0,4848.57,0.291947,0.291659,0.888185,4,0.0223125,11,0.000259047,-3.0515,-1.25157,-0.0471409,-1.6371,0.291659,
2,1,0,1,0,4848.64,0.293445,0.293244,0.88236,4,0.0223795,11,0.000258746,-3.05435,-1.58544,-0.0372135,-1.28891,0.293244,
2,1,0,1,0,4848.72,0.294943,0.294676,0.887098,4,0.0224464,11,0.000261407,-3.05203,-1.81235,-0.0325544,-1.1229,0.294676,
2,1,0,1,0,4848.79,0.296441,0.29616,0.889153,4,0.0225133,11,0.000263332,-3.05102,-5.07512,-0.0116253,-0.400233,0.29616,
2,1,0,1,0,4848.87,0.29794,0.297664,0.883025,4,0.0225801,11,0.000262845,-3.05403,-1.54035,-0.0383031,-1.31861,0.297664,
2,1,0,1,0,4848.94,0.299436,0.299146,0.875634,4,0.0226465,11,0.000261942,-3.05768,-0.0012769,-46.2056,-527.954,0.299146,
2,1,0,1,0,4848.99,0.299739,0.299442,0.308676,4,0.0226773,11,9.24306e-05,-3.5105,0.0017403,33.9023,857.148,0.299442,
2,0,0,1,0,4849.06,0.298239,0.297968,-0.155094,4,0.0226741,11,-4.6213e-05,-3.80941,0.00641102,9.20291,291.005,0.297968,
2,0,0,1,0,4849.14,0.296741,0.29646,-0.203716,4,0.0226599,11,-6.03936e-05,-3.69098,-0.0128497,-4.59154,32.2367,0.29646,
2,0,0,1,0,4849.21,0.295243,0.294974,-0.236961,4,0.0226424,11,-6.98976e-05,-3.62532,-0.0240881,-2.44934,21.8843,0.294974,
2,0,0,1,0,4849.29,0.293745,0.293414,-0.266987,4,0.0226227,11,-7.83376e-05,-3.57351,-0.0361795,-1.63076,16.6943,0.293414,
2,0,0,1,0,4849.36,0.292246,0.291957,-0.292543,4,0.0226013,11,-8.54098e-05,-3.53381,-0.0450999,-1.30821,14.6744,0.2919569,
2,0,0,1,0,4849.44,0.290748,0.290453,-0.311622,4,0.0225781,11,-9.05115e-05,-3.50637,-0.0541913,-1.08874,13.029,0.290453,
2,0,0,1,0,4849.51,0.28925,0.288963,-0.32941,4,0.0225534,11,-9.51875e-05,-3.48226,-0.0660655,-0.893053,11.451,0.288963,
2,0,0,1,0,4849.59,0.287752,0.287474,-0.345007,4,0.0225275,11,-9.91806e-05,-3.46217,-0.0834172,-0.707288,9.54951,0.287474,
2,0,0,1,0,4849.66,0.286254,0.285977,-0.356867,4,0.0225006,11,-0.000102056,-3.44749,-0.0819692,-0.719782,10.1229,0.285977,
2,0,0,1,0,4849.74,0.284754,0.284447,-0.37281,4,0.0224725,11,-0.000106045,-3.42851,-0.0881843,-0.669053,9.68408,0.2844469,
2,0,0,1,0,4849.81,0.283259,0.282943,-0.387726,4,0.0224434,11,-0.000109704,-3.41148,-0.10478,-0.563087,8.43355,0.282943,
2,0,0,1,0,4849.89,0.281759,0.281455,-0.396759,4,0.0224134,11,-0.00011167,-3.40147,-0.13493,-0.437264,6.76635,0.281455,
2,0,0,1,0,4849.96,0.280261,0.279972,-0.403569,4,0.0223827,11,-0.000112988,-3.39408,-0.146775,-0.401975,6.40015,0.279972,
2,0,0,1,0,4850.04,0.278763,0.278478,-0.419343,4,0.0223512,11,-0.000116778,-3.37743,-0.141927,-0.415708,6.7789,0.278478,
2,0,0,1,0,4850.11,0.277264,0.276996,-0.430238,4,0.0223188,11,-0.000119174,-3.36629,-0.156677,-0.376572,6.27463,0.276996,
2,0,0,1,0,4850.19,0.275766,0.275485,-0.436896,4,0.0222857,11,-0.000120358,-3.35962,-0.234049,-0.252084,4.27839,0.275485,
2,0,0,1,0,4850.26,0.274268,0.27398,-0.447493,4,0.022252,11,-0.000122604,-3.34921,-0.174804,-0.337521,5.903,0.27398,
2,0,0,1,0,4850.34,0.27277,0.272409,-0.456365,4,0.0222177,11,-0.000124318,-3.34069,-0.171666,-0.34369,6.13003,0.272409,
2,0,0,1,0,4850.41,0.271272,0.270958,-0.464542,4,0.0221827,11,-0.000125871,-3.33298,-0.187103,-0.315335,5.71369,0.270958,
2,0,0,1,0,4850.49,0.269774,0.269513,-0.475521,4,0.0221468,11,-0.000128159,-3.32283,-0.204495,-0.288516,5.30656,0.269513,
2,0,0,1,0,4850.56,0.268274,0.26798,-0.483079,4,0.0221104,11,-0.000129455,-3.31598,-0.23576,-0.250255,4.70193,0.26798,
2,0,0,1,0,4850.64,0.266779,0.266462,-0.486337,4,0.0220738,11,-0.00012959,-3.31306,-0.214443,-0.275131,5.23718,0.266462,
2,0,0,1,0,4850.71,0.265279,0.264965,-0.49657,4,0.0220362,11,-0.000131574,-3.30402,-0.179339,-0.328986,6.32912,0.264965,
2,0,0,1,0,4850.78,0.263781,0.263486,-0.503141,4,0.0219981,11,-0.00013257,-3.29831,-0.222646,-0.264994,5.21339,0.263486,
2,0,0,1,0,4850.86,0.262283,0.262018,-0.509971,4,0.0219596,11,-0.000133622,-3.29245,-0.274306,-0.215088,4.29669,0.262018,
2,0,0,1,0,4850.93,0.260784,0.260499,-0.514061,4,0.0219206,11,-0.000133913,-3.28899,-0.265063,-0.222588,4.48748,0.260499,
2,0,0,1,0,4851.01,0.259286,0.259003,-0.524458,4,0.0218809,11,-0.000135836,-3.28029,-0.230205,-0.256293,5.23994,0.259003,
2,0,0,1,0,4851.08,0.257788,0.257505,-0.537249,4,0.0218407,11,-0.000138344,-3.26982,-0.300718,-0.196197,4.06869,0.257505,
2,0,0,1,0,4851.16,0.25629,0.255973,-0.540414,4,0.0217999,11,-0.000138331,-3.26727,-0.341399,-0.172818,3.62762,0.255973,
2,0,0,1,0,4851.23,0.25479,0.254455,-0.543173,4,0.0217587,11,-0.000138213,-3.26506,-0.280356,-0.210447,4.45593,0.254455,
2,0,0,1,0,4851.31,0.253294,0.252997,-0.551696,4,0.0217172,11,-0.000139577,-3.2583,-0.290752,-0.202922,4.3741,0.252997,
2,0,0,1,0,4851.38,0.251795,0.251488,-0.561158,4,0.0216749,11,-0.000141124,-3.25092,-0.268343,-0.219868,4.81222,0.251488,
2,0,0,1,0,4851.46,0.250297,0.250029,-0.56312,4,0.0216322,11,-0.000140796,-3.2494,-0.481705,-0.122482,2.69867,0.250029,
2,0,0,1,0,4851.53,0.248799,0.248513,-0.56976,4,0.0215891,11,-0.000141593,-3.24431,-0.309034,-0.190917,4.25842,0.248513,
2,0,0,1,0,4851.61,0.247301,0.246992,-0.575946,4,0.0215456,11,-0.000142254,-3.23962,-0.288572,-0.204455,4.61115,0.246992,
2,0,0,1,0,4851.68,0.245802,0.245493,-0.587027,4,0.0215015,11,-0.000144111,-3.23134,-0.280776,-0.210132,4.77364,0.245493,
2,0,0,1,0,4851.76,0.244304,0.244003,-0.592644,4,0.0214568,11,-0.000144607,-3.22721,-0.30547,-0.193145,4.44233,0.244003,
2,0,0,1,0,4851.83,0.242806,0.242526,-0.595661,4,0.0214117,11,-0.000144463,-3.225,-0.382372,-0.1543,3.5964,0.242526,
2,0,0,1,0,4851.91,0.241308,0.241004,-0.602364,4,0.0213664,11,-0.000145172,-3.22014,-0.312748,-0.18865,4.44143,0.241004,
2,0,0,1,0,4851.98,0.23981,0.239464,-0.609418,4,0.0213204,11,-0.000145934,-3.21508,-0.226243,-0.260781,6.18893,0.239464,
2,0,0,1,0,4852.06,0.23831,0.238089,-0.617167,4,0.0212739,11,-0.000146941,-3.2096,-0.301619,-0.195611,4.70564,0.238089,
2,0,0,1,0,4852.13,0.236815,0.236507,-0.619734,4,0.021227,11,-0.000146571,-3.20779,-0.331922,-0.177753,4.30847,0.236507,
2,0,0,1,0,4852.21,0.235315,0.235065,-0.621673,4,0.0211796,11,-0.000146134,-3.20644,-0.263736,-0.223709,5.47719,0.235065,
2,0,0,1,0,4852.28,0.233817,0.233529,-0.635884,4,0.0211318,11,-0.000148497,-3.19662,-0.280666,-0.210214,5.21776,0.233529,
2,0,0,1,0,4852.36,0.232319,0.232043,-0.644198,4,0.0210834,11,-0.000149481,-3.19098,-0.305807,-0.192932,4.82082,0.232043,
2,0,0,1,0,4852.43,0.230821,0.230467,-0.647848,4,0.0210345,11,-0.000149307,-3.18853,-0.425918,-0.138524,3.48572,0.230467,
2,0,0,1,0,4852.51,0.229322,0.229054,-0.651632,4,0.0209851,11,-0.000149259,-3.186,-0.323611,-0.182318,4.65351,0.229054,
2,0,0,1,0,4852.58,0.227824,0.227534,-0.658129,4,0.0209354,11,-0.000149747,-3.18169,-0.328165,-0.179788,4.6488,0.227534,
2,0,0,1,0,4852.66,0.226326,0.226003,-0.666017,4,0.0208852,11,-0.000150522,-3.17651,-0.393687,-0.149865,3.90604,0.2260035,
2,0,0,1,0,4852.73,0.224828,0.224548,-0.674355,4,0.0208343,11,-0.000151425,-3.17111,-0.515872,-0.114369,2.99484,0.224548,
2,0,0,1,0,4852.81,0.22333,0.223038,-0.682757,4,0.0207829,11,-0.000152281,-3.16573,-0.312625,-0.188725,5.00964,0.223038,
2,0,0,1,0,4852.88,0.22183,0.221549,-0.689218,4,0.0207312,11,-0.000152695,-3.16164,-0.31774,-0.185686,4.98808,0.221549,
2,0,0,1,0,4852.96,0.220335,0.220079,-0.69377,4,0.0206789,11,-0.000152684,-3.15878,-0.252235,-0.233909,6.33208,0.220079,
2,0,0,1,0,4853.03,0.218835,0.218506,-0.703816,4,0.0206257,11,-0.000153788,-3.15254,-0.289293,-0.203945,5.59217,0.218506,
2,0,0,1,0,4853.11,0.217337,0.217047,-0.711718,4,0.0205722,11,-0.000154476,-3.14769,-0.433258,-0.136178,3.78665,0.217047,
2,0,0,1,0,4853.18,0.215839,0.215526,-0.713916,4,0.0205183,11,-0.000153867,-3.14635,-0.296412,-0.199047,5.58142,0.215526,
2,0,0,1,0,4853.26,0.21434,0.214028,-0.72449,4,0.0204637,11,-0.000155061,-3.13997,-0.263377,-0.224013,6.32533,0.2140276,
2,0,0,1,0,4853.33,0.212842,0.212525,-0.731796,4,0.0204084,11,-0.000155525,-3.13561,-0.328764,-0.17946,5.14421,0.212525,
2,0,0,1,0,4853.41,0.211344,0.211049,-0.743594,4,0.0203525,11,-0.000156935,-3.12866,-0.371585,-0.158779,4.60017,0.2110489,
2,0,0,1,0,4853.48,0.209846,0.209569,-0.746568,4,0.0202961,11,-0.000156457,-3.12693,-0.351167,-0.168011,4.91559,0.209569,
2,0,0,1,0,4853.56,0.208348,0.207999,-0.762073,4,0.020239,11,-0.000158511,-3.118,-0.233606,-0.252562,7.51479,0.207999,
2,0,0,1,0,4853.63,0.20685,0.206499,-0.774761,4,0.0201812,11,-0.000159987,-3.11083,-0.257023,-0.229551,6.88804,0.206499,
2,0,0,1,0,4853.71,0.20535,0.205023,-0.779906,4,0.0201222,11,-0.000159898,-3.10796,-0.297181,-0.198532,6.02422,0.205023,
2,0,0,1,0,4853.78,0.203855,0.203599,-0.787877,4,0.020063,11,-0.000160411,-3.10354,-0.2983,-0.197788,6.11045,0.203599,
2,0,0,1,0,4853.86,0.202355,0.202095,-0.797011,4,0.0200029,11,-0.000161072,-3.09854,-0.260302,-0.22666,7.07563,0.2020945,
2,0,0,1,0,4853.93,0.200857,0.200553,-0.809982,4,0.0199421,11,-0.000162444,-3.09152,-0.238488,-0.247392,7.83088,0.200553,
2,0,0,1,0,4854.01,0.199359,0.199065,-0.822158,4,0.0198803,11,-0.000163663,-3.08504,-0.26956,-0.218875,7.01232,0.199065,
2,0,0,1,0,4854.08,0.19786,0.197559,-0.836847,4,0.0198176,11,-0.000165327,-3.07735,-0.241823,-0.24398,7.94435,0.197559,
2,0,0,1,0,4854.16,0.196362,0.196016,-0.845587,4,0.0197543,11,-0.000165749,-3.07284,-0.242862,-0.242937,8.04047,0.196016,
2,0,0,1,0,4854.23,0.194864,0.194574,-0.859925,4,0.0196897,11,-0.000167319,-3.06554,-0.192175,-0.307012,10.2818,0.194574,
2,0,0,1,0,4854.31,0.193366,0.193066,-0.876562,4,0.019624,11,-0.000169235,-3.05722,-0.205086,-0.287685,9.85033,0.193066,
2,0,0,1,0,4854.38,0.191866,0.19158,-0.889449,4,0.0195573,11,-0.0001704,-3.05088,-0.218244,-0.270339,9.43353,0.19158,
2,0,0,1,0,4854.46,0.19037,0.190097,-0.901828,4,0.0194897,11,-0.000171435,-3.04488,-0.185823,-0.317507,11.2427,0.190097,
2,0,0,1,0,4854.53,0.188871,0.18858,-0.92277,4,0.0194205,11,-0.000174016,-3.03491,-0.154972,-0.380713,13.7082,0.18858,
2,0,0,1,0,4854.61,0.187373,0.187075,-0.943039,4,0.0193501,11,-0.000176419,-3.02547,-0.164673,-0.358285,13.182,0.187075,
2,0,0,1,0,4854.68,0.185875,0.185591,-0.961798,4,0.0192782,11,-0.000178502,-3.01692,-0.16867,-0.349795,13.0906,0.185591,
2,0,0,1,0,4854.76,0.184377,0.184093,-0.975896,4,0.0192049,11,-0.000179656,-3.0106,-0.168069,-0.351046,13.4299,0.184093,
2,0,0,1,0,4854.83,0.182878,0.182616,-1.00131,4,0.0191301,11,-0.000182856,-2.99943,-0.151288,-0.389986,15.312,0.182616,
2,0,0,1,0,4854.9,0.18138,0.18107,-1.03141,4,0.0190534,11,-0.000186757,-2.98657,-0.142619,-0.413689,16.6429,0.18107,
2,0,0,1,0,4854.98,0.179882,0.179594,-1.05343,4,0.0189747,11,-0.00018919,-2.97739,-0.162917,-0.362149,14.8931,0.179594,
2,0,0,1,0,4855.05,0.178384,0.178081,-1.08095,4,0.018894,11,-0.000192497,-2.96619,-0.135549,-0.435267,18.4374,0.178081,
2,0,0,1,0,4855.13,0.176886,0.176542,-1.11338,4,0.0188115,11,-0.000196558,-2.95336,-0.12269,-0.480887,20.9336,0.176542,
2,0,0,1,0,4855.2,0.175386,0.175075,-1.14679,4,0.0187263,11,-0.000200774,-2.94052,-0.109993,-0.536396,23.972,0.175075,
2,0,0,1,0,4855.28,0.173891,0.173563,-1.18269,4,0.0186387,11,-0.000205272,-2.92713,-0.107723,-0.547699,25.2902,0.1735633,
2,0,0,1,0,4855.35,0.172391,0.172126,-1.22032,4,0.018548,11,-0.000210049,-2.91353,-0.105197,-0.56085,26.7212,0.172126,
2,0,0,1,0,4855.43,0.170893,0.170647,-1.26039,4,0.0184546,11,-0.000215082,-2.89949,-0.0971946,-0.60703,29.9643,0.170647,
2,0,0,1,0,4855.5,0.169395,0.169053,-1.30921,4,0.0183578,11,-0.000221327,-2.88299,-0.0854386,-0.690554,35.3127,0.169053,
2,0,0,1,0,4855.58,0.167897,0.167577,-1.36236,4,0.0182571,11,-0.0002283,-2.86571,-0.0904712,-0.652141,34.7232,0.167577,
2,0,0,1,0,4855.65,0.166398,0.166113,-1.41517,4,0.0181523,11,-0.000235078,-2.84919,-0.0842759,-0.700081,38.8536,0.166113,
2,0,0,1,0,4855.73,0.1649,0.164601,-1.47158,4,0.0180434,11,-0.000242223,-2.83222,-0.0815984,-0.723053,41.8279,0.164601,
2,0,0,1,0,4855.8,0.163402,0.16308,-1.54531,4,0.0179298,11,-0.000252009,-2.81098,-0.0759823,-0.776497,46.9635,0.16308,
2,0,0,1,0,4855.88,0.161904,0.16158,-1.62092,4,0.0178108,11,-0.000261908,-2.79024,-0.0724761,-0.814061,51.4997,0.1615798,
2,0,0,1,0,4855.95,0.160406,0.160119,-1.6986,4,0.0176859,11,-0.000271977,-2.76991,-0.0718125,-0.821584,54.4301,0.160119,
2,0,0,1,0,4856.03,0.158906,0.158613,-1.7824,4,0.0175546,11,-0.000282712,-2.74899,-0.0695424,-0.848403,59.2202,0.158613,
2,0,0,1,0,4856.1,0.157411,0.157102,-1.8772,4,0.0174173,11,-0.000294912,-2.72649,-0.0672978,-0.8767,64.4567,0.157102,
2,0,0,1,0,4856.18,0.155911,0.155545,-1.97345,4,0.0172722,11,-0.00030696,-2.70477,-0.0674292,-0.874992,67.5498,0.155545,
2,0,0,1,0,4856.25,0.154413,0.154101,-2.08196,4,0.0171194,11,-0.000320833,-2.68153,-0.0698025,-0.845243,68.535,0.154101,
2,0,0,1,0,4856.33,0.152915,0.152567,-2.19101,4,0.0169587,11,-0.000334276,-2.65936,-0.0700495,-0.842261,71.9662,0.152567,
2,0,0,1,0,4856.4,0.151417,0.151117,-2.29869,4,0.0167903,11,-0.000347371,-2.63852,-0.0719958,-0.819493,73.4901,0.151117,
2,0,0,1,0,4856.48,0.149918,0.14958,-2.41332,4,0.0166133,11,-0.000360986,-2.61738,-0.0714188,-0.826113,77.5281,0.14958,
2,0,0,1,0,4856.55,0.14842,0.14808,-2.52515,4,0.0164278,11,-0.000373925,-2.59771,-0.0777276,-0.759061,74.699,0.14808,
2,0,0,1,0,4856.63,0.146922,0.146627,-2.63883,4,0.0162337,11,-0.000386924,-2.57859,-0.0838218,-0.703874,72.2213,0.1466269,
2,0,0,1,0,4856.7,0.145424,0.14515,-2.7353,4,0.016032,11,-0.000397027,-2.563,-0.0910995,-0.647644,69.1807,0.14515,
2,0,0,1,0,4856.78,0.143926,0.143625,-2.84488,4,0.0158223,11,-0.000408595,-2.54594,-0.0911254,-0.647459,71.6449,0.143625,
2,0,0,1,0,4856.85,0.142426,0.142126,-2.95077,4,0.0156043,11,-0.000419379,-2.53007,-0.105344,-0.56007,64.166,0.142126,
2,0,0,1,0,4856.93,0.140931,0.140618,-3.03579,4,0.0153798,11,-0.000426888,-2.51773,-0.126985,-0.464621,54.8405,0.1406184,
2,0,0,1,0,4857,0.139431,0.139125,-3.10808,4,0.0151485,11,-0.000432412,-2.50751,-0.144054,-0.40957,49.6563,0.139125,
2,0,0,1,0,4857.08,0.137933,0.137576,-3.18594,4,0.0149121,11,-0.000438311,-2.49676,-0.164154,-0.35942,44.5656,0.1375764,
2,0,0,1,0,4857.15,0.136435,0.136086,-3.24915,4,0.0146705,11,-0.000442165,-2.48823,-0.197169,-0.299236,37.7923,0.136086,
2,0,0,1,0,4857.23,0.134936,0.134627,-3.30352,4,0.0144244,11,-0.000444744,-2.48102,-0.2524,-0.233756,29.9932,0.134627,
2,0,0,1,0,4857.3,0.133438,0.13313,-3.33692,4,0.014175,11,-0.000444245,-2.47665,-0.335611,-0.175799,22.8615,0.13313,
2,0,0,1,0,4857.38,0.13194,0.131663,-3.36684,4,0.0139233,11,-0.000443289,-2.47278,-0.479566,-0.123028,16.1552,0.131663,
2,0,0,1,0,4857.45,0.130442,0.130139,-3.38985,4,0.0136696,11,-0.00044115,-2.46982,-0.780702,-0.075573,9.96986,0.130139,
2,0,0,1,0,4857.53,0.128942,0.128662,-3.40315,4,0.0134142,11,-0.000437855,-2.46812,-7.81051,-0.00755393,0.998103,0.128662,
2,0,0,1,0,4857.6,0.127446,0.127146,-3.39605,4,0.0131594,11,-0.000431795,-2.46903,1.12825,0.0522935,-6.90515,0.127146,
2,0,0,1,0,4857.68,0.125947,0.125624,-3.37334,4,0.0129052,11,-0.000423773,-2.47194,0.582705,0.101252,-13.3082,0.125624,
2,0,0,1,0,4857.75,0.124449,0.124178,-3.35314,4,0.0126526,11,-0.000416385,-2.47455,0.42317,0.139424,-18.1699,0.124178,
2,0,0,1,0,4857.83,0.122951,0.12266,-3.31755,4,0.0124022,11,-0.00040693,-2.47918,0.309745,0.190479,-24.6179,0.12266,
2,0,0,1,0,4857.9,0.121453,0.121151,-3.27554,4,0.0121546,11,-0.000396836,-2.48472,0.234325,0.251787,-32.1028,0.121151,
2,0,0,1,0,4857.98,0.119955,0.119674,-3.21569,4,0.0119107,11,-0.000384836,-2.49273,0.20426,0.288847,-36.2846,0.119674,
2,0,0,1,0,4858.05,0.118456,0.118137,-3.16505,4,0.011671,11,-0.000373911,-2.49962,0.196968,0.29954,-36.9789,0.118137,
2,0,0,1,0,4858.13,0.116958,0.116628,-3.11075,4,0.0114354,11,-0.0003628,-2.50713,0.173743,0.339582,-41.098,0.1166277,
2,0,0,1,0,4858.2,0.11546,0.11512,-3.04513,4,0.0112044,11,-0.000350556,-2.51639,0.151062,0.390567,-46.2511,0.1151201,
2,0,0,1,0,4858.28,0.113962,0.113651,-2.96375,4,0.0109787,11,-0.000336833,-2.52816,0.140984,0.418488,-48.4961,0.113651,
2,0,0,1,0,4858.35,0.112462,0.112134,-2.89865,4,0.0107583,11,-0.000325037,-2.5378,0.144897,0.407185,-46.0742,0.112134,
2,0,0,1,0,4858.43,0.110967,0.110618,-2.83258,4,0.0105435,11,-0.000313334,-2.54782,0.146526,0.40266,-44.4541,0.110618,
2,0,0,1,0,4858.5,0.109467,0.109161,-2.76124,4,0.0103333,11,-0.000301421,-2.5589,0.131996,0.446982,-48.1095,0.109161,
2,0,0,1,0,4858.58,0.107969,0.107689,-2.69285,4,0.0101283,11,-0.00028999,-2.56979,0.142513,0.413998,-43.5498,0.1076887,
2,0,0,1,0,4858.65,0.106471,0.106186,-2.62956,4,0.00992868,11,-0.000279223,-2.58012,0.152269,0.387473,-39.8813,0.106186,
2,0,0,1,0,4858.73,0.104973,0.104739,-2.57231,4,0.00973339,11,-0.000269421,-2.58968,0.164972,0.357637,-35.9245,0.104739,
2,0,0,1,0,4858.8,0.103474,0.103143,-2.52002,4,0.00954203,11,-0.000259924,-2.5986,0.158435,0.372393,-36.5644,0.103143,
2,0,0,1,0,4858.88,0.101976,0.101714,-2.46941,4,0.00935464,11,-0.000251175,-2.60741,0.163273,0.361359,-34.8109,0.101714,
2,0,0,1,0,4858.95,0.100478,0.100164,-2.41932,4,0.00917138,11,-0.000242329,-2.61631,0.184912,0.319071,-30.1899,0.100164,
2,0,0,1,0,4859.02,0.0989799,0.0986514,-2.37926,4,0.00899145,11,-0.000234717,-2.62356,0.214528,0.275022,-25.5259,0.0986514,
2,0,0,1,0,4859.1,0.0974817,0.0971897,-2.33884,4,0.00881431,11,-0.000227312,-2.631,0.241804,0.243999,-22.3046,0.0971897,
2,0,0,1,0,4859.17,0.0959821,0.0956798,-2.30596,4,0.00863956,11,-0.000220634,-2.63715,0.237554,0.248364,-22.3421,0.09567979,
2,0,0,1,0,4859.25,0.0944866,0.0941836,-2.26494,4,0.00846795,11,-0.00021332,-2.64494,0.258943,0.227849,-20.2199,0.0941836,
2,0,0,1,0,4859.32,0.0929871,0.0927023,-2.23954,4,0.00829836,11,-0.00020761,-2.64984,0.302422,0.195092,-17.0932,0.0927023,
2,0,0,1,0,4859.4,0.0914889,0.0911887,-2.2186,4,0.00813086,11,-0.000202311,-2.65392,0.307433,0.191912,-16.5926,0.0911887,
2,0,0,1,0,4859.47,0.0899907,0.0896817,-2.19096,4,0.00796511,11,-0.000196489,-2.65936,0.28937,0.203891,-17.4056,0.0896817,
2,0,0,1,0,4859.55,0.0884925,0.088187,-2.16396,4,0.00780141,11,-0.000190833,-2.66475,0.298068,0.197942,-16.7402,0.088187,
2,0,0,1,0,4859.62,0.0869943,0.086674,-2.14323,4,0.00763965,11,-0.000185762,-2.66893,0.335387,0.175916,-14.7295,0.08667399,
2,0,0,1,0,4859.7,0.0854961,0.0851722,-2.12265,4,0.00747936,11,-0.000180791,-2.67312,0.341789,0.172621,-14.3055,0.0851722,
2,0,0,1,0,4859.77,0.083998,0.0836957,-2.10635,4,0.00732038,11,-0.000176292,-2.67647,0.305666,0.193021,-15.8205,0.0836957,
2,0,0,1,0,4859.85,0.0824998,0.0821922,-2.08717,4,0.00716293,11,-0.000171549,-2.68044,0.339059,0.174011,-14.1475,0.08219219,
2,0,0,1,0,4859.92,0.081002,0.0807201,-2.06024,4,0.00700745,11,-0.000166302,-2.68608,0.386653,0.152592,-12.3032,0.0807201,
2,0,0,1,0,4860,0.0795025,0.0792438,-2.04403,4,0.00685295,11,-0.000161977,-2.68951,0.435924,0.135345,-10.7797,0.0792438,
2,0,0,1,0,4860.07,0.078007,0.0777234,-2.02459,4,0.00670004,11,-0.000157358,-2.69366,0.369817,0.159538,-12.5896,0.0777234,
2,0,0,1,0,4860.15,0.076507,0.0761737,-2.00499,4,0.00654833,11,-0.000152727,-2.69789,0.310294,0.190142,-14.8659,0.0761737,
2,0,0,1,0,4860.22,0.0750088,0.0747263,-1.98133,4,0.00639869,11,-0.000148057,-2.70304,0.332376,0.17751,-13.7434,0.0747263,
2,0,0,1,0,4860.3,0.0735106,0.0732192,-1.95864,4,0.0062505,11,-0.00014341,-2.70805,0.353695,0.16681,-12.7374,0.0732192,
2,0,0,1,0,4860.37,0.0720124,0.0716996,-1.93993,4,0.00610368,11,-0.000139092,-2.71221,0.297542,0.198292,-15.0108,0.0716996,
2,0,0,1,0,4860.45,0.0705142,0.0701929,-1.91571,4,0.00595868,11,-0.000134469,-2.71767,0.259415,0.227435,-17.0236,0.0701929,
2,0,0,1,0,4860.52,0.0690161,0.0686987,-1.88867,4,0.00581562,11,-0.000129749,-2.72384,0.273192,0.215965,-15.9622,0.0686987,
2,0,0,1,0,4860.6,0.0675179,0.0672045,-1.86971,4,0.00567428,11,-0.000125653,-2.72822,0.293053,0.201329,-14.6749,0.0672045,
2,0,0,1,0,4860.67,0.0660179,0.0657332,-1.85243,4,0.00553429,11,-0.000121766,-2.73226,0.272963,0.216147,-15.5449,0.0657332,
2,0,0,1,0,4860.75,0.0645224,0.0642489,-1.8224,4,0.00539645,11,-0.000117087,-2.73936,0.222136,0.265603,-18.8172,0.0642489,
2,0,0,1,0,4860.82,0.0630229,0.0627016,-1.78798,4,0.00526042,11,-0.000112109,-2.74764,0.239658,0.246184,-17.2403,0.0627016,
2,0,0,1,0,4860.9,0.0615251,0.0612398,-1.76514,4,0.00512673,11,-0.000108097,-2.75322,0.247558,0.238328,-16.4444,0.0612398,
2,0,0,1,0,4860.97,0.0600269,0.0597327,-1.74249,4,0.00499461,11,-0.000104084,-2.75883,0.242792,0.243006,-16.5242,0.0597327,
2,0,0,1,0,4861.05,0.0585287,0.058242,-1.71864,4,0.00486441,11,-0.000100097,-2.76482,0.211613,0.27881,-18.6736,0.058242,
2,0,0,1,0,4861.12,0.0570305,0.0567136,-1.69414,4,0.00473605,11,-9.60807e-05,-2.77105,0.225537,0.261597,-17.2744,0.05671363,
2,0,0,1,0,4861.2,0.0555323,0.0552357,-1.6661,4,0.00460982,11,-9.20282e-05,-2.7783,0.230128,0.256379,-16.7018,0.0552357,
2,0,0,1,0,4861.27,0.0540342,0.0537248,-1.64775,4,0.00448518,11,-8.85252e-05,-2.78311,0.273535,0.215694,-13.837,0.0537248,
2,0,0,1,0,4861.35,0.052536,0.0522721,-1.62766,4,0.00436206,11,-8.50812e-05,-2.78844,0.267804,0.220311,-13.9722,0.0522721,
2,0,0,1,0,4861.42,0.0510378,0.0506992,-1.60234,4,0.00424066,11,-8.12373e-05,-2.79525,0.246093,0.239746,-15.0128,0.0506992,
2,0,0,1,0,4861.5,0.0495382,0.0492284,-1.57752,4,0.00412083,11,-7.76589e-05,-2.80202,0.302106,0.195296,-12.0747,0.0492284,
2,0,0,1,0,4861.57,0.0480427,0.0477082,-1.56176,4,0.00400269,11,-7.45087e-05,-2.80639,0.378857,0.155731,-9.48885,0.0477082,
2,0,0,1,0,4861.65,0.0465432,0.0462703,-1.54541,4,0.00388551,11,-7.15065e-05,-2.81096,0.329537,0.179039,-10.8184,0.0462703,
2,0,0,1,0,4861.72,0.045045,0.0447241,-1.52783,4,0.00376979,11,-6.83311e-05,-2.81592,0.318323,0.185346,-11.0594,0.0447241,
2,0,0,1,0,4861.8,0.0435468,0.0432693,-1.50826,4,0.00365529,11,-6.52614e-05,-2.82152,0.376999,0.156499,-9.24724,0.0432693,
2,0,0,1,0,4861.87,0.0420486,0.0417399,-1.49871,4,0.00354195,11,-6.25562e-05,-2.82428,0.438125,0.134665,-7.89602,0.0417399,
2,0,0,1,0,4861.95,0.0405504,0.0402306,-1.49444,4,0.00342936,11,-6.01224e-05,-2.82552,0.410933,0.143576,-8.346,0.0402306,
2,0,0,1,0,4862.02,0.0390523,0.038739,-1.47645,4,0.00331752,11,-5.71961e-05,-2.83078,0.379286,0.155555,-8.95948,0.038739,
2,0,0,1,0,4862.1,0.0375541,0.0371976,-1.46435,4,0.00320666,11,-5.44702e-05,-2.83436,0.451681,0.130623,-7.48909,0.0371976,
2,0,0,1,0,4862.17,0.0360559,0.0357897,-1.45816,4,0.00309675,11,-5.2187e-05,-2.8362,0.633502,0.0931331,-5.31598,0.0357897,
2,0,0,1,0,4862.25,0.0345577,0.0342562,-1.45275,4,0.00298731,11,-4.97657e-05,-2.83781,0.875113,0.0674199,-3.81769,0.0342562,
2,0,0,1,0,4862.32,0.0330582,0.0327425,-1.44514,4,0.00287816,11,-4.73174e-05,-2.84009,0.693739,0.0850463,-4.7866,0.0327425,
2,0,0,1,0,4862.4,0.0315626,0.0312837,-1.44078,4,0.00276973,11,-4.50729e-05,-2.8414,1.24023,0.0475718,-2.67118,0.0312837,
2,0,0,1,0,4862.47,0.0300631,0.0297401,-1.4326,4,0.0026617,11,-4.26056e-05,-2.84388,1.40966,0.0418541,-2.34301,0.0297401,
2,0,0,1,0,4862.55,0.0285649,0.0282114,-1.43049,4,0.0025539,11,-4.0356e-05,-2.84452,6.53461,0.00902884,-0.503167,0.0282114,
2,0,0,1,0,4862.62,0.0270667,0.02675,-1.42732,4,0.00244621,11,-3.81809e-05,-2.84548,1.51582,0.0389229,-2.1658,0.02675,
2,0,0,1,0,4862.7,0.0255685,0.0252708,-1.42346,4,0.00233877,11,-3.59719e-05,-2.84665,1.76222,0.0334805,-1.86495,0.0252708,
2,0,0,1,0,4862.77,0.0240704,0.0237647,-1.41874,4,0.00223179,11,-3.37159e-05,-2.8481,3.19114,0.0184887,-1.02866,0.0237647,
2,0,0,1,0,4862.85,0.0225722,0.0222422,-1.42136,4,0.00212471,11,-3.16141e-05,-2.8473,-2.41055,-0.0244758,1.35707,0.02224222,
2,0,0,1,0,4862.92,0.021074,0.0207357,-1.42349,4,0.00201763,11,-2.95169e-05,-2.84665,20.6412,0.00285836,-0.158558,0.0207357,
2,0,0,1,0,4863,0.0195758,0.0192311,-1.42542,4,0.00191045,11,-2.74123e-05,-2.84606,-16.1093,-0.00366249,0.203117,0.0192311,
2,0,0,1,0,4863.07,0.018078,0.0177546,-1.42038,4,0.00180334,11,-2.52184e-05,-2.84759,-2.62901,-0.0224419,1.24649,0.0177546,
2,0,0,1,0,4863.15,0.0165785,0.0162543,-1.42338,4,0.00169613,11,-2.3136e-05,-2.84668,-1.2253,-0.0481515,2.68418,0.0162543,
2,0,0,1,0,4863.22,0.015083,0.0148096,-1.42952,4,0.00158876,11,-2.11706e-05,-2.84481,-1.43431,-0.0411347,2.29066,0.0148096,
2,0,0,1,0,4863.29,0.013583,0.0132478,-1.43133,4,0.00148073,11,-1.89619e-05,-2.84426,54.0007,0.00109258,-0.0609423,0.0132478,
2,0,0,1,0,4863.37,0.0120848,0.0117791,-1.43292,4,0.00137289,11,-1.68784e-05,-2.84378,-2.61722,-0.022543,1.26287,0.0117791,
2,0,0,1,0,4863.44,0.0105866,0.0102778,-1.43487,4,0.00126506,11,-1.47472e-05,-2.84319,-0.991701,-0.0594937,3.34278,0.0102778,
2,0,0,1,0,4863.52,0.00908846,0.00878803,-1.43969,4,0.00115675,11,-1.26521e-05,-2.84173,-1.17496,-0.0502143,2.81999,0.00878803,
2,0,0,1,0,4863.59,0.00759027,0.00726504,-1.44909,4,0.00104782,11,-1.05277e-05,-2.8389,-1.20167,-0.0490981,2.76605,0.00726504,
2,0,0,1,0,4863.67,0.00609208,0.00578481,-1.45393,4,0.000938777,11,-8.41072e-06,-2.83746,-1.33783,-0.0441013,2.49909,0.00578481,
2,0,0,1,0,4863.74,0.00459389,0.00428648,-1.4564,4,0.000829605,11,-6.24281e-06,-2.83672,-1.13665,-0.0519069,2.94686,0.00428648,
2,0,0,1,0,4863.82,0.00309391,0.00281096,-1.46253,4,0.000719636,11,-4.11112e-06,-2.83489,-0.395827,-0.149055,8.5152,0.00281096,
2,0,0,1,0,4863.89,0.0015984,0.0012504,-1.49298,4,0.000607985,11,-1.86683e-06,-2.82595, , , ,0.0012504,
2,0,0,1,0,4863.96,0.000199195,-0.000199409,-1.4768,4,0.000503723,11,2.94488e-07,-2.83068, , , ,-0.000199409,