File: Figure_codes/Fig_3-5/rawdata_trumpetplot_data/before 10th/20221101_1-115_002_TrumpetPlot_ParaChange_10_CV_C01_0.csv
mode,ox/red,error,control changes,counter inc.,time/s,control/V,Ewe/V,<I>/mA,cycle number,(Q-Qo)/C,I Range,P/W,log(|I|),Tafel slope mV/dec,alpha_eff,dI/d(E-IR),E-IR/V,
2,0,0,1,0,1194.39,2.44065e-05,0.000247296,-5.24515,1,0.0000000E+000,11,-1.29711e-06,-2.28024, , , ,0.000247296,
2,0,0,1,0,1194.41,0.0012943,0.000887062,-1.91667,1,-5.95852e-05,11,-1.70021e-06,-2.71745, , , ,0.000887062,
2,1,0,1,0,1194.42,0.00279784,0.00248937,0.798829,1,-6.72495e-05,11,1.98858e-06,-3.09755,-0.0273519,-2.15707,1377.33,0.00248937,
2,1,0,1,0,1194.44,0.00429425,0.00402264,2.0838,1,-3.88494e-05,11,8.38236e-06,-2.68114,0.0026374,22.3705,690.31,0.00402264,
2,1,0,1,0,1194.46,0.00579065,0.00545507,2.71039,1,6.77206e-06,11,1.47854e-05,-2.56697,0.015767,3.74199,345.872,0.00545507,
2,1,0,1,0,1194.48,0.0072942,0.00698137,3.04458,1,6.12905e-05,11,2.12554e-05,-2.51647,0.0367933,1.60355,181.834,0.00698137,
2,1,0,1,0,1194.5,0.00878347,0.00844905,3.23444,1,0.000120007,11,2.73279e-05,-2.4902,0.0725791,0.812907,99.9965,0.00844905,
2,1,0,1,0,1194.52,0.010287,0.00996683,3.33232,1,0.000182021,11,3.32127e-05,-2.47725,0.150829,0.391172,50.2209,0.00996683,
2,1,0,1,0,1194.54,0.0117905,0.0115562,3.38409,1,0.000245355,11,3.91071e-05,-2.47056,0.280037,0.210686,27.7304,0.01155619,
2,1,0,1,0,1194.56,0.013278,0.0129339,3.41326,1,0.000308666,11,4.41468e-05,-2.46683,0.442552,0.133318,17.7774,0.0129339,
2,1,0,1,0,1194.57,0.0147816,0.0144977,3.43747,1,0.000373222,11,4.98354e-05,-2.46376,0.627331,0.0940492,12.6211,0.0144977,
2,1,0,1,0,1194.59,0.0162851,0.0160056,3.47033,1,0.000438302,11,5.55447e-05,-2.45963,0.945598,0.0623944,8.41752,0.0160056,
2,1,0,1,0,1194.61,0.0177744,0.0174733,3.48011,1,0.000502931,11,6.08088e-05,-2.45841,1.81962,0.0324244,4.4031,0.01747326,
2,1,0,1,0,1194.63,0.0192779,0.0189641,3.49058,1,0.000568335,11,6.61958e-05,-2.4571,1.41673,0.0416453,5.67188,0.0189641,
2,1,0,1,0,1194.65,0.0207743,0.0204697,3.51033,1,0.000633725,11,7.18551e-05,-2.45465,0.657715,0.0897045,12.2419,0.0204697,
2,1,0,1,0,1194.67,0.0222707,0.0220627,3.52515,1,0.000699388,11,7.77745e-05,-2.45282,0.75286,0.0783679,10.7543,0.0220627,
2,1,0,1,0,1194.69,0.0237743,0.0234384,3.53585,1,0.000765708,11,8.28745e-05,-2.45151,0.833391,0.0707951,9.74793,0.0234384,
2,1,0,1,0,1194.71,0.0252636,0.0250335,3.54311,1,0.000831471,11,8.86966e-05,-2.45062,0.722786,0.0816286,11.2933,0.0250335,
2,1,0,1,0,1194.72,0.0267671,0.0264535,3.55767,1,0.000898186,11,9.41127e-05,-2.44883,0.48948,0.120536,16.7251,0.0264535,
2,1,0,1,0,1194.74,0.0282706,0.0280098,3.57312,1,0.000965248,11,0.000100082,-2.44695,0.537595,0.109748,15.2923,0.0280098,
2,1,0,1,0,1194.76,0.0297581,0.0294604,3.58768,1,0.00103197,11,0.000105695,-2.44519,0.781381,0.0755073,10.5602,0.0294604,
2,1,0,1,0,1194.78,0.0312617,0.0309908,3.587,1,0.00109961,11,0.000111164,-2.44527,0.836727,0.0705128,9.91887,0.03099083,
2,1,0,1,0,1194.8,0.0327652,0.0324752,3.60859,1,0.00116742,11,0.00011719,-2.44266,0.797168,0.074012,10.4523,0.0324752,
2,1,0,1,0,1194.82,0.0342545,0.0339777,3.62642,1,0.00123487,11,0.000123217,-2.44052,0.723109,0.0815921,11.5665,0.0339777,
2,1,0,1,0,1194.84,0.035758,0.0354569,3.6465,1,0.00130339,11,0.000129294,-2.43812,1.37651,0.0428619,6.09754,0.0354569,
2,1,0,1,0,1194.86,0.0372544,0.0369825,3.66867,1,0.00137193,11,0.000135676,-2.43549,0.969981,0.0608259,8.70345,0.0369825,
2,1,0,1,0,1194.87,0.0387508,0.0384676,3.67288,1,0.00144055,11,0.000141287,-2.43499,0.912988,0.064623,9.31198,0.0384676,
2,1,0,1,0,1194.89,0.0402544,0.0399946,3.7014,1,0.00151,11,0.000148036,-2.43163,0.582134,0.101351,14.6469,0.03999459,
2,1,0,1,0,1194.91,0.0417437,0.0414555,3.73593,1,0.00157919,11,0.000154875,-2.4276,0.782155,0.0754326,10.9672,0.0414555,
2,1,0,1,0,1194.93,0.0432472,0.0429954,3.75447,1,0.00164954,11,0.000161425,-2.42545,0.789266,0.074753,10.9206,0.0429954,
2,1,0,1,0,1194.95,0.0447507,0.0444859,3.76993,1,0.00172014,11,0.000167709,-2.42367,0.599577,0.0984027,14.4911,0.0444859,
2,1,0,1,0,1194.97,0.0462382,0.0459785,3.7957,1,0.00179039,11,0.00017452,-2.42071,0.416031,0.141816,20.9826,0.04597846,
2,1,0,1,0,1194.99,0.0477418,0.0474298,3.82207,1,0.00186197,11,0.00018128,-2.4177,0.3937,0.14986,22.3474,0.0474298,
2,1,0,1,0,1195.01,0.0492453,0.0489943,3.84922,1,0.0019341,11,0.00018859,-2.41463,0.431647,0.136686,20.5126,0.0489943,
2,1,0,1,0,1195.02,0.0507346,0.0504262,3.86966,1,0.00200593,11,0.000195132,-2.41233,0.373446,0.157988,23.9112,0.0504262,
2,1,0,1,0,1195.04,0.0522381,0.0519882,3.90328,1,0.00207908,11,0.000202924,-2.40857,0.323577,0.182337,27.8317,0.05198824,
2,1,0,1,0,1195.06,0.0537345,0.0534815,3.94736,1,0.00215256,11,0.000211111,-2.40369,0.317069,0.186079,28.6586,0.0534815,
2,1,0,1,0,1195.08,0.0552309,0.054955,3.98166,1,0.00222681,11,0.000218812,-2.39994,0.372735,0.158289,24.5857,0.05495495,
2,1,0,1,0,1195.1,0.0567345,0.0564438,4.00634,1,0.00230212,11,0.000226133,-2.39725,0.35858,0.164538,25.8449,0.0564438,
2,1,0,1,0,1195.12,0.0582237,0.0579612,4.05519,1,0.00237724,11,0.000235044,-2.39199,0.348223,0.169432,26.878,0.0579612,
2,1,0,1,0,1195.14,0.0597273,0.0594255,4.10099,1,0.00245404,11,0.000243703,-2.38711,0.311442,0.189441,30.3683,0.0594255,
2,1,0,1,0,1195.15,0.0612308,0.0609255,4.15311,1,0.00253176,11,0.00025303,-2.38163,0.323582,0.182334,29.5623,0.0609255,
2,1,0,1,0,1195.17,0.0627183,0.0624324,4.21103,1,0.00260962,11,0.000262905,-2.37561,0.311453,0.189435,31.1155,0.0624324,
2,1,0,1,0,1195.19,0.0642219,0.0639594,4.25635,1,0.00268917,11,0.000272234,-2.37096,0.274946,0.214587,35.7543,0.0639594,
2,1,0,1,0,1195.21,0.0657254,0.0654448,4.32195,1,0.00276981,11,0.000282849,-2.36432,0.246115,0.239726,40.4075,0.0654448,
2,1,0,1,0,1195.23,0.0672147,0.0669544,4.38978,1,0.00285083,11,0.000293915,-2.35756,0.241673,0.244132,41.7298,0.0669544,
2,1,0,1,0,1195.25,0.0687182,0.0684078,4.4484,1,0.00293389,11,0.000304305,-2.3518,0.250032,0.23597,40.9464,0.0684078,
2,1,0,1,0,1195.27,0.0702146,0.0699245,4.51058,1,0.00301758,11,0.0003154,-2.34577,0.234305,0.251809,44.3584,0.0699245,
2,1,0,1,0,1195.29,0.071711,0.0714733,4.57556,1,0.00310252,11,0.00032703,-2.33956,0.205184,0.287546,51.371,0.0714733,
2,1,0,1,0,1195.3,0.0732146,0.0729141,4.64993,1,0.00318926,11,0.000339046,-2.33255,0.200642,0.294056,53.3953,0.0729141,
2,1,0,1,0,1195.32,0.0747038,0.0744114,4.7244,1,0.00327649,11,0.000351549,-2.32565,0.208402,0.283107,52.161,0.0744114,
2,1,0,1,0,1195.34,0.0762074,0.0759398,4.78611,1,0.00336606,11,0.000363456,-2.32002,0.210591,0.280164,52.4758,0.0759398,
2,1,0,1,0,1195.36,0.0777109,0.0774153,4.87062,1,0.00345699,11,0.00037706,-2.31242,0.195109,0.302395,57.6352,0.0774153,
2,1,0,1,0,1195.38,0.0791984,0.0789511,4.95874,1,0.00354851,11,0.000391498,-2.30463,0.198758,0.296844,57.4563,0.07895112,
2,1,0,1,0,1195.4,0.0807019,0.0804481,5.04298,1,0.00364272,11,0.000405698,-2.29731,0.21357,0.276256,54.3329,0.0804481,
2,1,0,1,0,1195.42,0.0822055,0.0819199,5.1243,1,0.0037385,11,0.000419782,-2.29037,0.223416,0.264081,52.8703,0.0819199,
2,1,0,1,0,1195.44,0.0836947,0.0834128,5.20296,1,0.00383463,11,0.000433994,-2.28375,0.223162,0.264382,53.865,0.0834128,
2,1,0,1,0,1195.45,0.0851983,0.0849364,5.29876,1,0.00393349,11,0.000450057,-2.27583,0.214713,0.274785,56.8228,0.0849364,
2,1,0,1,0,1195.47,0.0866947,0.0863726,5.39455,1,0.00403357,11,0.000465941,-2.26804,0.221179,0.266753,56.0861,0.0863726,
2,1,0,1,0,1195.49,0.0881911,0.0878656,5.48433,1,0.0041353,11,0.000481884,-2.26088,0.234412,0.251694,53.8058,0.0878656,
2,1,0,1,0,1195.51,0.0896946,0.0893915,5.57075,1,0.00423914,11,0.000497978,-2.25409,0.219509,0.268782,58.4985,0.0893915,
2,1,0,1,0,1195.53,0.0911839,0.0909754,5.66921,1,0.00434357,11,0.000515759,-2.24648,0.201827,0.29233,64.621,0.0909754,
2,1,0,1,0,1195.55,0.0926857,0.0923869,5.76382,1,0.00445102,11,0.000532501,-2.23929,0.202653,0.291138,65.3819,0.0923869,
2,1,0,1,0,1195.57,0.0941892,0.0938863,5.85566,1,0.00456029,11,0.000549766,-2.23242,0.21559,0.273668,62.5066,0.0938863,
2,1,0,1,0,1195.59,0.0956785,0.0953976,5.94074,1,0.00466996,11,0.000566732,-2.22616,0.212032,0.27826,64.611,0.0953976,
2,1,0,1,0,1195.6,0.097182,0.0968786,6.04009,1,0.00478264,11,0.000585155,-2.21896,0.196496,0.30026,70.7416,0.0968786,
2,1,0,1,0,1195.62,0.0986856,0.0984243,6.13668,1,0.0048972,11,0.000603998,-2.21207,0.205182,0.28755,68.9234,0.0984243,
2,1,0,1,0,1195.64,0.100175,0.0998538,6.23766,1,0.0050124,11,0.000622854,-2.20498,0.216722,0.272239,66.2419,0.0998538,
2,1,0,1,0,1195.66,0.101678,0.101409,6.32668,1,0.00513072,11,0.000641585,-2.19882,0.212731,0.277346,68.6479,0.1014094,
2,1,0,1,0,1195.68,0.103175,0.102878,6.43807,1,0.0052502,11,0.000662335,-2.19124,0.206053,0.286334,72.117,0.102878,
2,1,0,1,0,1195.7,0.104671,0.104406,6.55091,1,0.00537174,11,0.000683955,-2.1837,0.201041,0.293473,75.0915,0.104406,
2,1,0,1,0,1195.72,0.106175,0.105899,6.66497,1,0.00549617,11,0.000705816,-2.1762,0.207272,0.28465,74.0392,0.105899,
2,1,0,1,0,1195.74,0.107662,0.107432,6.78303,1,0.0056214,11,0.000728717,-2.16858,0.202661,0.291127,77.174,0.107432,
2,1,0,1,0,1195.75,0.109166,0.108907,6.90432,1,0.00575012,11,0.000751931,-2.16088,0.186578,0.316222,85.4476,0.1089073,
2,1,0,1,0,1195.77,0.110669,0.110386,7.04853,1,0.00588135,11,0.000778056,-2.1519,0.175272,0.336619,92.7244,0.110386,
2,1,0,1,0,1195.79,0.112159,0.111886,7.20219,1,0.00601389,11,0.000805824,-2.14254,0.170118,0.346819,97.4471,0.111886,
2,1,0,1,0,1195.81,0.113662,0.113364,7.36237,1,0.00615072,11,0.000834629,-2.13298,0.16382,0.36015,103.367,0.113364,
2,1,0,1,0,1195.83,0.115166,0.114853,7.51775,1,0.00629045,11,0.000863436,-2.12391,0.151036,0.390635,114.684,0.114853,
2,1,0,1,0,1195.85,0.116655,0.116361,7.69709,1,0.00643185,11,0.00089564,-2.11367,0.142181,0.414964,124.657,0.116361,
2,1,0,1,0,1195.87,0.118158,0.117882,7.88913,1,0.00657833,11,0.000929988,-2.10297,0.139849,0.421885,129.879,0.1178821,
2,1,0,1,0,1195.89,0.119655,0.119405,8.08492,1,0.0067277,11,0.000965379,-2.09232,0.131694,0.448008,141.576,0.1194048,
2,1,0,1,0,1195.9,0.121151,0.120846,8.29088,1,0.00688077,11,0.00100192,-2.0814,0.125691,0.469406,152.329,0.120846,
2,1,0,1,0,1195.92,0.122655,0.122386,8.53246,1,0.00703901,11,0.00104426,-2.06893,0.117703,0.501262,167.092,0.122386,
2,1,0,1,0,1195.94,0.124142,0.123859,8.78107,1,0.00720017,11,0.00108762,-2.05645,0.116329,0.507181,174.006,0.123859,
2,1,0,1,0,1195.96,0.125646,0.12534,9.04336,1,0.00736792,11,0.00113349,-2.04367,0.118114,0.499517,176.348,0.12534,
2,1,0,1,0,1195.98,0.127149,0.126891,9.30544,1,0.00754065,11,0.00118078,-2.03126,0.118387,0.498367,181.308,0.126891,
2,1,0,1,0,1196,0.128639,0.128339,9.58862,1,0.00771654,11,0.00123059,-2.01824,0.116336,0.507151,190.12,0.128339,
2,1,0,1,0,1196.02,0.130142,0.129847,9.88327,1,0.00789978,11,0.00128331,-2.0051,0.115097,0.51261,197.91,0.129847,
2,1,0,1,0,1196.04,0.131646,0.13135,10.1947,1,0.00808875,11,0.00133908,-1.99162,0.118931,0.496087,197.346,0.13135,
2,1,0,1,0,1196.05,0.133135,0.13285,10.5059,1,0.00828134,11,0.00139571,-1.97857,0.121576,0.485294,198.861,0.1328503,
2,1,0,1,0,1196.07,0.134639,0.134319,10.8087,1,0.00848168,11,0.0014518,-1.96623,0.122674,0.48095,202.884,0.134319,
2,1,0,1,0,1196.09,0.136135,0.135831,11.1292,1,0.00868676,11,0.00151168,-1.95354,0.124371,0.474387,205.741,0.135831,
2,1,0,1,0,1196.11,0.137631,0.137351,11.4404,1,0.00889769,11,0.00157135,-1.94156,0.131105,0.45002,200.513,0.137351,
2,1,0,1,0,1196.13,0.139135,0.138872,11.7437,1,0.00911552,11,0.00163088,-1.93019,0.136254,0.433014,197.977,0.138872,
2,1,0,1,0,1196.15,0.140622,0.140332,12.0212,1,0.0093364,11,0.00168695,-1.92005,0.140473,0.420011,196.847,0.140332,
2,1,0,1,0,1196.17,0.142126,0.141802,12.3028,1,0.00956504,11,0.00174455,-1.91,0.148846,0.396384,190.014,0.141802,
2,1,0,1,0,1196.18,0.143629,0.143379,12.5797,1,0.00979902,11,0.00180366,-1.90033,0.160586,0.367405,180.02,0.143379,
2,1,0,1,0,1196.2,0.145119,0.144821,12.8199,1,0.0100354,11,0.00185659,-1.89212,0.184573,0.319656,159.69,0.144821,
2,1,0,1,0,1196.22,0.146622,0.146346,13.0368,1,0.0102787,11,0.00190788,-1.88483,0.208915,0.282412,143.538,0.146346,
2,1,0,1,0,1196.24,0.148126,0.147841,13.2392,1,0.010526,11,0.00195729,-1.87814,0.241359,0.244449,126.201,0.147841,
2,1,0,1,0,1196.26,0.149615,0.149331,13.4194,1,0.0107741,11,0.00200394,-1.87227,0.285888,0.206375,107.92,0.149331,
2,1,0,1,0,1196.28,0.151119,0.150832,13.569,1,0.0110281,11,0.00204664,-1.86745,0.382081,0.154418,81.5622,0.150832,
2,1,0,1,0,1196.3,0.152615,0.152381,13.6814,1,0.0112831,11,0.00208479,-1.86387,0.537591,0.109749,58.476,0.152381,
2,1,0,1,0,1196.32,0.154111,0.153822,13.753,1,0.0115397,11,0.00211552,-1.8616,0.984529,0.0599271,32.1037,0.153822,
2,1,0,1,0,1196.33,0.155615,0.155337,13.7898,1,0.0117987,11,0.00214206,-1.86044,6.22992,0.00947043,5.0818,0.155337,
2,1,0,1,0,1196.35,0.157103,0.15683,13.7856,1,0.0120552,11,0.002162,-1.86058,-1.05993,-0.0556641,-29.8169,0.15683,
2,1,0,1,0,1196.37,0.158606,0.158325,13.7178,1,0.0123138,11,0.00217187,-1.86271,-0.464766,-0.126946,-67.6641,0.158325,
2,1,0,1,0,1196.39,0.16011,0.159833,13.5752,1,0.0125704,11,0.00216977,-1.86725,-0.275024,-0.214526,-113.171,0.159833,
2,1,0,1,0,1196.41,0.161599,0.161298,13.3881,1,0.0128212,11,0.00215948,-1.87328,-0.199853,-0.295217,-153.432,0.161298,
2,1,0,1,0,1196.43,0.163102,0.162871,13.1257,1,0.0130704,11,0.00213779,-1.88188,-0.150322,-0.39249,-199.755,0.162871,
2,1,0,1,0,1196.45,0.164606,0.164312,12.7763,1,0.0133139,11,0.0020993,-1.89359,-0.114314,-0.516123,-255.653,0.164312,
2,1,0,1,0,1196.47,0.166095,0.165803,12.3443,1,0.0135476,11,0.00204672,-1.90853,-0.0920102,-0.641233,-307.178,0.165803,
2,1,0,1,0,1196.48,0.167599,0.167265,11.8442,1,0.013775,11,0.00198113,-1.92649,-0.0777303,-0.759035,-348.768,0.167265,
2,1,0,1,0,1196.5,0.169095,0.168791,11.2876,1,0.0139914,11,0.00190525,-1.9474,-0.0668419,-0.88268,-386.508,0.168791,
2,1,0,1,0,1196.52,0.170592,0.170316,10.664,1,0.0141967,11,0.00181625,-1.97208,-0.0587022,-1.00507,-416.109,0.170316,
2,1,0,1,0,1196.54,0.172095,0.171832,9.99192,1,0.014391,11,0.00171693,-2.00035,-0.0519964,-1.13469,-441.646,0.171832,
2,1,0,1,0,1196.56,0.173583,0.173324,9.34091,1,0.0145709,11,0.001619,-2.02961,-0.0488096,-1.20878,-439.796,0.173324,
2,1,0,1,0,1196.58,0.175086,0.174804,8.68684,1,0.0147403,11,0.00151849,-2.06114,-0.0470932,-1.25284,-425.001,0.174804,
2,1,0,1,0,1196.6,0.17659,0.1763,8.06781,1,0.0148978,11,0.00142236,-2.09324,-0.0465118,-1.2685,-400.306,0.1763,
2,1,0,1,0,1196.62,0.178079,0.177808,7.50911,1,0.0150427,11,0.00133518,-2.12441,-0.0483592,-1.22004,-359.186,0.177808,
2,1,0,1,0,1196.63,0.179582,0.17929,7.00492,1,0.015179,11,0.00125591,-2.1546,-0.052323,-1.12761,-310.654,0.17929,
2,1,0,1,0,1196.65,0.181086,0.180859,6.58468,1,0.0153066,11,0.0011909,-2.18147,-0.0571652,-1.0321,-266.821,0.180859,
2,1,0,1,0,1196.67,0.182575,0.182338,6.2219,1,0.0154256,11,0.00113449,-2.20608,-0.0635506,-0.928393,-226.77,0.182338,
2,1,0,1,0,1196.69,0.184079,0.183777,5.9213,1,0.0155396,11,0.0010882,-2.22758,-0.0719848,-0.819618,-190.309,0.183777,
2,1,0,1,0,1196.71,0.185582,0.185333,5.66684,1,0.0156482,11,0.00105025,-2.24666,-0.0843325,-0.699612,-155.489,0.185333,
2,1,0,1,0,1196.73,0.18707,0.186792,5.45781,1,0.0157514,11,0.00101948,-2.26298,-0.101149,-0.583295,-124.625,0.186792,
2,1,0,1,0,1196.75,0.188573,0.188281,5.27885,1,0.0158523,11,0.000993908,-2.27746,-0.113649,-0.519141,-107.179,0.188281,
2,1,0,1,0,1196.77,0.19007,0.189803,5.12916,1,0.0159495,11,0.000973528,-2.28995,-0.125817,-0.468937,-93.9955,0.189803,
2,1,0,1,0,1196.78,0.191566,0.191292,4.98001,1,0.016044,11,0.000952634,-2.30277,-0.136918,-0.430915,-84.0268,0.191292,
2,1,0,1,0,1196.8,0.19307,0.192808,4.85934,1,0.0161365,11,0.000936922,-2.31342,-0.159598,-0.369679,-70.3267,0.192808,
2,1,0,1,0,1196.82,0.194559,0.194266,4.76056,1,0.0162261,11,0.000924818,-2.32234,-0.16748,-0.352282,-65.5223,0.194266,
2,1,0,1,0,1196.84,0.196063,0.195786,4.65763,1,0.0163147,11,0.000911898,-2.33183,-0.161842,-0.364552,-66.3034,0.195786,
2,1,0,1,0,1196.86,0.197566,0.197255,4.55073,1,0.0164015,11,0.000897654,-2.34192,-0.17072,-0.345595,-61.634,0.197255,
2,1,0,1,0,1196.88,0.199055,0.198798,4.47241,1,0.0164855,11,0.000889105,-2.34946,-0.178367,-0.330778,-57.9022,0.198798,
2,1,0,1,0,1196.9,0.200559,0.200256,4.39687,1,0.016569,11,0.000880499,-2.35686,-0.193346,-0.305153,-52.4026,0.2002558,
2,1,0,1,0,1196.92,0.202062,0.201757,4.32289,1,0.016651,11,0.000872173,-2.36423,-0.190724,-0.309347,-52.1573,0.201757,
2,1,0,1,0,1196.93,0.20355,0.203235,4.25205,1,0.0167308,11,0.000864167,-2.3714,-0.205794,-0.286695,-47.6593,0.2032351,
2,1,0,1,0,1196.95,0.205053,0.204771,4.1846,1,0.0168101,11,0.000856883,-2.37835,-0.23965,-0.246192,-40.3722,0.204771,
2,1,0,1,0,1196.97,0.20655,0.206252,4.13205,1,0.0168879,11,0.000852243,-2.38383,-0.253128,-0.233084,-37.5983,0.206252,
2,1,0,1,0,1196.99,0.208046,0.207783,4.09195,1,0.0169648,11,0.000850239,-2.38807,-0.243932,-0.241871,-38.4567,0.207783,
2,1,0,1,0,1197.01,0.20955,0.209269,4.03187,1,0.0170411,11,0.000843747,-2.39449,-0.23654,-0.249429,-39.1879,0.209269,
2,1,0,1,0,1197.03,0.211039,0.210731,3.97032,1,0.0171154,11,0.000836672,-2.40117,-0.279559,-0.211047,-32.7858,0.210731,
2,1,0,1,0,1197.05,0.212543,0.212292,3.93258,1,0.0171895,11,0.000834856,-2.40532,-0.352003,-0.167612,-25.6736,0.212292,
2,1,0,1,0,1197.07,0.214046,0.213775,3.885,1,0.017263,11,0.000830514,-2.41061,-0.398492,-0.148058,-22.4547,0.213775,
2,1,0,1,0,1197.08,0.215535,0.215226,3.84289,1,0.0173349,11,0.000827091,-2.41534,-0.367785,-0.16042,-24.0717,0.215226,
2,1,0,1,0,1197.1,0.217039,0.216775,3.7939,1,0.0174068,11,0.000822423,-2.42091,-0.420328,-0.140367,-20.8734,0.216775,
2,1,0,1,0,1197.12,0.218543,0.218301,3.76179,1,0.017478,11,0.000821202,-2.42461,-0.521914,-0.113045,-16.6429,0.218301,
2,1,0,1,0,1197.14,0.22003,0.219782,3.73882,1,0.0175479,11,0.000821728,-2.42726,-0.465186,-0.126831,-18.5175,0.219782,
2,1,0,1,0,1197.16,0.221534,0.22127,3.70508,1,0.017618,11,0.000819823,-2.4312,-0.386576,-0.152622,-22.0807,0.22127,
2,1,0,1,0,1197.18,0.22303,0.222774,3.6662,1,0.0176871,11,0.000816734,-2.43578,-0.400837,-0.147192,-21.1239,0.222774,
2,1,0,1,0,1197.2,0.224526,0.224238,3.64545,1,0.0177556,11,0.000817447,-2.43825,-0.407292,-0.144859,-20.6515,0.224238,
2,1,0,1,0,1197.21,0.22603,0.225796,3.6235,1,0.0178241,11,0.00081817,-2.44087,-0.43721,-0.134947,-19.0985,0.225796,
2,1,0,1,0,1197.23,0.227519,0.22726,3.60429,1,0.0178914,11,0.000819111,-2.44318,-0.408219,-0.14453,-20.3103,0.2272599,
2,1,0,1,0,1197.25,0.229023,0.228774,3.58282,1,0.0179589,11,0.000819656,-2.44578,-0.419651,-0.140593,-19.6605,0.228774,
2,1,0,1,0,1197.27,0.230526,0.230271,3.55685,1,0.018026,11,0.00081904,-2.44893,-0.535272,-0.110224,-15.3258,0.230271,
2,1,0,1,0,1197.29,0.232016,0.231755,3.54583,1,0.018092,11,0.000821763,-2.45028,-0.644427,-0.0915543,-12.6362,0.231755,
2,1,0,1,0,1197.31,0.233519,0.233252,3.53035,1,0.0181584,11,0.000823459,-2.45218,-0.710518,-0.083038,-11.3961,0.233252,
2,1,0,1,0,1197.33,0.235023,0.234736,3.50865,1,0.0182244,11,0.000823605,-2.45486,-0.728187,-0.0810231,-11.0695,0.234736,
2,1,0,1,0,1197.35,0.23651,0.236238,3.48077,1,0.0182893,11,0.000822293,-2.45832,-1.00394,-0.0587687,-7.98747,0.236238,
2,1,0,1,0,1197.36,0.238014,0.237734,3.46519,1,0.0183546,11,0.000823794,-2.46027,-1.86446,-0.0316446,-4.28014,0.237734,
2,1,0,1,0,1197.38,0.23951,0.239254,3.44933,1,0.0184194,11,0.000825267,-2.46227,-1.23036,-0.0479535,-6.46405,0.239254,
2,1,0,1,0,1197.4,0.241006,0.240749,3.4305,1,0.0184838,11,0.00082589,-2.46464,-0.737532,-0.0799965,-10.7187,0.240749,
2,1,0,1,0,1197.42,0.24251,0.242233,3.40234,1,0.0185483,11,0.000824157,-2.46822,-1.12848,-0.0522829,-6.97914,0.242233,
2,1,0,1,0,1197.44,0.243999,0.243698,3.40033,1,0.0186117,11,0.000828653,-2.46848,-0.998206,-0.059106,-7.86092,0.243698,
2,1,0,1,0,1197.46,0.245503,0.245228,3.39787,1,0.0186757,11,0.000833251,-2.46879,-0.844244,-0.069885,-9.24444,0.245228,
2,1,0,1,0,1197.48,0.247006,0.246756,3.37698,1,0.0187395,11,0.000833289,-2.47147,-0.615013,-0.0959329,-12.6406,0.246756,
2,1,0,1,0,1197.5,0.248496,0.248212,3.35983,1,0.0188023,11,0.000833948,-2.47368,-0.626931,-0.0941092,-12.3781,0.248212,
2,1,0,1,0,1197.51,0.249999,0.249751,3.34993,1,0.0188654,11,0.000836648,-2.47496,-0.71758,-0.0822208,-10.7736,0.249751,
2,1,0,1,0,1197.53,0.251503,0.251222,3.34811,1,0.0189284,11,0.00084112,-2.4752,-0.898414,-0.0656713,-8.56684,0.251222,
2,1,0,1,0,1197.55,0.25299,0.252771,3.33327,1,0.0189905,11,0.000842553,-2.47713,-0.697924,-0.0845364,-10.9886,0.252771,
2,1,0,1,0,1197.57,0.254494,0.254222,3.32342,1,0.0190531,11,0.000844889,-2.47841,-0.996467,-0.0592092,-7.67473,0.254222,
2,1,0,1,0,1197.59,0.25599,0.255745,3.3143,1,0.019115,11,0.000847616,-2.47961,-1.11228,-0.0530444,-6.85576,0.255745,
2,1,0,1,0,1197.61,0.257487,0.257263,3.30536,1,0.0191769,11,0.000850347,-2.48078,-2.89769,-0.020361,-2.62033,0.257263,
2,1,0,1,0,1197.63,0.25899,0.25874,3.30225,1,0.0192389,11,0.000854424,-2.48119,-2.50054,-0.0235949,-3.02891,0.25874,
2,1,0,1,0,1197.65,0.260479,0.260215,3.28505,1,0.0193001,11,0.000854821,-2.48346,-1.26449,-0.0466592,-5.97433,0.260215,
2,1,0,1,0,1197.66,0.261983,0.26172,3.26267,1,0.0193616,11,0.000853908,-2.48643,-3.14901,-0.0187361,-2.39161,0.26172,
2,1,0,1,0,1197.68,0.263486,0.263218,3.2563,1,0.019423,11,0.000857117,-2.48728,7.57395,0.00778985,0.990035,0.263218,
2,1,0,1,0,1197.7,0.264974,0.264714,3.24513,1,0.0194836,11,0.000859033,-2.48877,-3.68572,-0.0160077,-2.03221,0.264714,
2,1,0,1,0,1197.72,0.266477,0.266194,3.2323,1,0.0195447,11,0.000860418,-2.49049,-1.09393,-0.0539342,-6.82108,0.266194,
2,1,0,1,0,1197.74,0.267981,0.267729,3.22017,1,0.0196056,11,0.000862134,-2.49212,-1.2805,-0.0460757,-5.81553,0.267729,
2,1,0,1,0,1197.76,0.26947,0.269239,3.21854,1,0.0196656,11,0.000866558,-2.49234,-1.03168,-0.0571884,-7.19468,0.2692394,
2,1,0,1,0,1197.78,0.270974,0.270734,3.21717,1,0.0197262,11,0.000870996,-2.49253,-0.905692,-0.0651435,-8.16692,0.270734,
2,1,0,1,0,1197.8,0.27247,0.272197,3.21306,1,0.0197864,11,0.000874585,-2.49308,-0.691792,-0.0852858,-10.6591,0.272197,
2,1,0,1,0,1197.81,0.273967,0.27367,3.19465,1,0.0198464,11,0.00087428,-2.49558,-0.625705,-0.0942937,-11.7852,0.27367,
2,1,0,1,0,1197.83,0.27547,0.275172,3.18566,1,0.0199064,11,0.000876603,-2.4968,-0.889733,-0.066312,-8.26706,0.275172,
2,1,0,1,0,1197.85,0.276959,0.276693,3.1901,1,0.0199656,11,0.000882676,-2.4962,-1.35278,-0.043614,-5.41309,0.276693,
2,1,0,1,0,1197.87,0.278463,0.278233,3.1824,1,0.0200255,11,0.000885449,-2.49724,-0.976158,-0.060441,-7.48012,0.278233,
2,1,0,1,0,1197.89,0.279967,0.279733,3.17177,1,0.0200851,11,0.00088725,-2.4987,-1.42417,-0.0414276,-5.11921,0.279733,
2,1,0,1,0,1197.91,0.281454,0.281204,3.15818,1,0.0201439,11,0.000888091,-2.50056,-1.74569,-0.0337974,-4.16766,0.281204,
2,1,0,1,0,1197.93,0.282958,0.282708,3.14889,1,0.0202032,11,0.000890217,-2.50184,7.15005,0.00825169,1.0141,0.282708,
2,1,0,1,0,1197.95,0.284461,0.284196,3.14921,1,0.0202624,11,0.000894994,-2.5018,-4.91414,-0.0120062,-1.47292,0.284196,
2,1,0,1,0,1197.96,0.28595,0.285686,3.13198,1,0.0203209,11,0.00089476,-2.50418,-1.36068,-0.0433608,-5.30711,0.285686,
2,1,0,1,0,1197.98,0.287454,0.287167,3.11282,1,0.0203798,11,0.000893896,-2.50685,-1.56272,-0.0377547,-4.6107,0.287167,
2,1,0,1,0,1198,0.28895,0.28866,3.1161,1,0.0204382,11,0.000899494,-2.50639,-18.2824,-0.00322715,-0.392721,0.28866,
2,1,0,1,0,1198.02,0.290447,0.290171,3.10832,1,0.0204965,11,0.000901944,-2.50747,-1.90845,-0.0309152,-3.75577,0.2901707,
2,1,0,1,0,1198.04,0.29195,0.291669,3.09958,1,0.020555,11,0.000904051,-2.5087,-1.01978,-0.0578556,-7.01335,0.291669,
2,1,0,1,0,1198.06,0.29344,0.293166,3.08994,1,0.0206128,11,0.000905865,-2.51005,-1.12961,-0.0522304,-6.31455,0.293166,
2,1,0,1,0,1198.08,0.294943,0.294689,3.08585,1,0.0206709,11,0.000909363,-2.51063,-0.912327,-0.0646698,-7.80513,0.294689,
2,1,0,1,0,1198.1,0.296447,0.296203,3.08917,1,0.020729,11,0.000915023,-2.51016,-1.43454,-0.0411282,-4.9489,0.296203,
2,1,0,1,0,1198.11,0.297934,0.29769,3.08202,1,0.0207864,11,0.000917487,-2.51116,-0.82519,-0.0714987,-8.5842,0.29769,
2,1,0,1,0,1198.13,0.299438,0.299185,3.07145,1,0.0208442,11,0.000918933,-2.51266,-0.0169777,-3.47515,-358.443,0.299185,
2,1,0,0,0,1198.14,0.300012,0.299746,3.05629,1,0.0208657,11,0.000916113,-2.5148,0.000844491,69.8646,4673.06,0.299746,
2,1,0,1,0,1198.16,0.298737,0.298433,0.110534,1,0.0208867,11,3.29871e-05,-3.9565,0.00730452,8.07719,1226.33,0.298433,
2,0,0,1,0,1198.17,0.29724,0.297015,-0.921829,1,0.0208769,11,-0.000273797,-3.03535,-0.03102,-1.902,534.568,0.297015,
2,0,0,1,0,1198.19,0.295744,0.295413,-1.20409,1,0.0208565,11,-0.000355703,-2.91934,-0.0151098,-3.90474,150.682,0.295413,
2,0,0,1,0,1198.21,0.29424,0.293963,-1.29324,1,0.0208328,11,-0.000380164,-2.88832,-0.052305,-1.128,55.2581,0.2939626,
2,0,0,1,0,1198.23,0.292751,0.29247,-1.33801,1,0.0208082,11,-0.000391328,-2.87354,-0.0862321,-0.6842,35.8666,0.29247,
2,0,0,1,0,1198.25,0.291248,0.290922,-1.39282,1,0.0207824,11,-0.000405204,-2.8561,-0.0989953,-0.595988,32.4005,0.290922,
2,0,0,1,0,1198.27,0.289744,0.289444,-1.44176,1,0.0207557,11,-0.000417307,-2.84111,-0.104962,-0.562107,31.5832,0.289444,
2,0,0,1,0,1198.29,0.288257,0.287935,-1.49397,1,0.0207283,11,-0.000430165,-2.82566,-0.131871,-0.447406,25.9276,0.287935,
2,0,0,1,0,1198.31,0.286753,0.286421,-1.52794,1,0.0206998,11,-0.000437634,-2.81589,-0.143167,-0.412106,24.6714,0.286421,
2,0,0,1,0,1198.32,0.285249,0.28492,-1.57464,1,0.0206706,11,-0.000448645,-2.80282,-0.144896,-0.407189,25.0617,0.28492,
2,0,0,1,0,1198.34,0.28376,0.283477,-1.61578,1,0.0206409,11,-0.000458036,-2.79162,-0.149441,-0.394805,24.8377,0.283477,
2,0,0,1,0,1198.36,0.282257,0.281954,-1.66087,1,0.0206101,11,-0.00046829,-2.77966,-0.185365,-0.318292,20.4452,0.281954,
2,0,0,1,0,1198.38,0.28076,0.280502,-1.69468,1,0.0205788,11,-0.000475362,-2.77091,-0.193907,-0.30427,20.0433,0.280502,
2,0,0,1,0,1198.4,0.279264,0.27894,-1.72362,1,0.0205471,11,-0.000480787,-2.76356,-0.183049,-0.322318,21.6304,0.2789402,
2,0,0,1,0,1198.42,0.27776,0.277484,-1.76022,1,0.0205144,11,-0.000488434,-2.75443,-0.165397,-0.356717,24.3613,0.277484,
2,0,0,1,0,1198.44,0.276271,0.275943,-1.78816,1,0.0204814,11,-0.000493429,-2.74759,-0.168356,-0.350447,24.412,0.275943,
2,0,0,1,0,1198.46,0.274767,0.274442,-1.82049,1,0.0204476,11,-0.000499618,-2.73981,-0.200485,-0.294286,20.849,0.2744424,
2,0,0,1,0,1198.47,0.273264,0.272982,-1.84094,1,0.0204132,11,-0.000502545,-2.73496,-0.186336,-0.316632,22.7818,0.272982,
2,0,0,1,0,1198.49,0.271776,0.271477,-1.86385,1,0.0203786,11,-0.000505993,-2.72959,-0.174455,-0.338196,24.6999,0.271477,
2,0,0,1,0,1198.51,0.270273,0.269981,-1.90013,1,0.0203431,11,-0.000512999,-2.72122,-0.213581,-0.276242,20.436,0.269981,
2,0,0,1,0,1198.53,0.268769,0.26845,-1.92313,1,0.020307,11,-0.000516265,-2.71599,-0.295505,-0.199658,15.0063,0.26845,
2,0,0,1,0,1198.55,0.26728,0.266987,-1.9367,1,0.020271,11,-0.000517074,-2.71294,-0.313083,-0.188448,14.3513,0.266987,
2,0,0,1,0,1198.57,0.265777,0.265497,-1.97037,1,0.0202341,11,-0.000523126,-2.70545,-0.305964,-0.192833,14.8677,0.265497,
2,0,0,1,0,1198.59,0.26428,0.263978,-2.00619,1,0.0201968,11,-0.000529591,-2.69763,-0.33164,-0.177904,13.8965,0.263978,
2,0,0,1,0,1198.6,0.262784,0.262469,-2.02687,1,0.020159,11,-0.00053199,-2.69317,-0.502763,-0.117352,9.27475,0.262469,
2,0,0,1,0,1198.62,0.26128,0.260984,-2.05407,1,0.0201207,11,-0.000536079,-2.68738,-0.40442,-0.145888,11.6849,0.260984,
2,0,0,1,0,1198.64,0.259791,0.259526,-2.0738,1,0.0200824,11,-0.000538204,-2.68323,-0.330552,-0.178489,14.4908,0.259526,
2,0,0,1,0,1198.66,0.258287,0.257992,-2.10827,1,0.0200432,11,-0.000543916,-2.67607,-0.303145,-0.194626,15.9327,0.257992,
2,0,0,1,0,1198.68,0.256786,0.256517,-2.13022,1,0.0200034,11,-0.00054644,-2.67157,-0.341182,-0.172928,14.3046,0.256517,
2,0,0,1,0,1198.7,0.255296,0.255001,-2.15143,1,0.0199637,11,-0.000548617,-2.66727,-0.322004,-0.183228,15.3588,0.255001,
2,0,0,1,0,1198.72,0.253793,0.253489,-2.17259,1,0.0199232,11,-0.000550729,-2.66302,-0.298394,-0.197725,16.6984,0.253489,
2,0,0,1,0,1198.74,0.252289,0.251992,-2.19034,1,0.0198822,11,-0.000551949,-2.65949,-0.251897,-0.234223,19.983,0.251992,
2,0,0,1,0,1198.75,0.2508,0.250533,-2.21052,1,0.0198413,11,-0.000553808,-2.65551,-0.30184,-0.195468,16.8578,0.250533,
2,0,0,1,0,1198.77,0.249296,0.248989,-2.23073,1,0.0197994,11,-0.000555426,-2.65155,-0.312199,-0.188982,16.4614,0.248989,
2,0,0,1,0,1198.79,0.2478,0.247475,-2.24696,1,0.0197575,11,-0.000556067,-2.6484,-0.300211,-0.196528,17.3295,0.247475,
2,0,0,1,0,1198.81,0.246304,0.246021,-2.27286,1,0.0197152,11,-0.000559173,-2.64343,-0.261519,-0.225605,20.0658,0.2460214,
2,0,0,1,0,1198.83,0.2448,0.244494,-2.30446,1,0.019672,11,-0.000563426,-2.63743,-0.308722,-0.19111,17.1686,0.244494,
2,0,0,1,0,1198.85,0.243313,0.243039,-2.32059,1,0.0196289,11,-0.000563994,-2.6344,-0.507739,-0.116201,10.5222,0.243039,
2,0,0,1,0,1198.87,0.241809,0.241494,-2.33359,1,0.0195849,11,-0.000563546,-2.63198,-0.49546,-0.119081,10.9034,0.2414936,
2,0,0,1,0,1198.89,0.240306,0.24,-2.35637,1,0.0195407,11,-0.00056553,-2.62776,-0.461806,-0.127759,11.7978,0.24,
2,0,0,1,0,1198.9,0.238816,0.238488,-2.39547,1,0.0194965,11,-0.000571291,-2.62061,-0.494464,-0.119321,11.1129,0.238488,
2,0,0,1,0,1198.92,0.237313,0.236992,-2.41662,1,0.0194513,11,-0.000572721,-2.61679,-0.559418,-0.105467,9.92176,0.2369924,
2,0,0,1,0,1198.94,0.235809,0.235518,-2.44117,1,0.0194057,11,-0.000574941,-2.6124,-0.441885,-0.133519,12.708,0.235518,
2,0,0,1,0,1198.96,0.23432,0.233983,-2.46066,1,0.0193603,11,-0.000575754,-2.60895,-0.373098,-0.158135,15.185,0.233983,
2,0,0,1,0,1198.98,0.232816,0.232524,-2.48831,1,0.0193138,11,-0.000578592,-2.60409,-0.349467,-0.168829,16.3451,0.232524,
2,0,0,1,0,1199,0.23132,0.230994,-2.51507,1,0.0192671,11,-0.000580965,-2.59945,-0.309782,-0.190457,18.6291,0.230994,
2,0,0,1,0,1199.02,0.229824,0.229504,-2.54409,1,0.0192199,11,-0.000583878,-2.59447,-0.347999,-0.169541,16.7473,0.229504,
2,0,0,1,0,1199.04,0.22832,0.228047,-2.5554,1,0.0191721,11,-0.000582752,-2.59254,-0.287898,-0.204934,20.4542,0.228047,
2,0,0,1,0,1199.05,0.226833,0.226547,-2.57665,1,0.0191244,11,-0.000583731,-2.58894,-0.245358,-0.240465,24.2131,0.226547,
2,0,0,1,0,1199.07,0.225329,0.225022,-2.6011,1,0.0190756,11,-0.000585305,-2.58484,-0.297673,-0.198204,20.1602,0.225022,
2,0,0,1,0,1199.09,0.223825,0.223552,-2.62842,1,0.0190263,11,-0.000587589,-2.58031,-0.305684,-0.19301,19.8476,0.223552,
2,0,0,1,0,1199.11,0.222336,0.222089,-2.64885,1,0.018977,11,-0.00058828,-2.57694,-0.351565,-0.167821,17.4382,0.222089,
2,0,0,1,0,1199.13,0.220833,0.220572,-2.68304,1,0.0189267,11,-0.000591802,-2.57137,-0.302522,-0.195027,20.4986,0.220572,
2,0,0,1,0,1199.15,0.219329,0.219052,-2.71994,1,0.0188758,11,-0.000595808,-2.56544,-0.330622,-0.178451,18.9473,0.219052,
2,0,0,1,0,1199.17,0.21784,0.217552,-2.74853,1,0.0188248,11,-0.000597948,-2.5609,-0.437592,-0.134829,14.4634,0.217552,
2,0,0,1,0,1199.19,0.216336,0.21603,-2.77311,1,0.0187728,11,-0.000599075,-2.55703,-0.417578,-0.141291,15.3632,0.21603,
2,0,0,1,0,1199.2,0.21484,0.214544,-2.81438,1,0.0187206,11,-0.000603806,-2.55062,-0.351194,-0.167998,18.4609,0.214544,
2,0,0,1,0,1199.22,0.213343,0.21303,-2.85054,1,0.0186677,11,-0.000607249,-2.54507,-0.293194,-0.201232,22.3583,0.21303,
2,0,0,1,0,1199.24,0.21184,0.211549,-2.88498,1,0.0186138,11,-0.000610313,-2.53986,-0.305362,-0.193213,21.6898,0.211549,
2,0,0,1,0,1199.26,0.210352,0.210069,-2.9264,1,0.0185598,11,-0.000614745,-2.53367,-0.284273,-0.207547,23.6526,0.210069,
2,0,0,1,0,1199.28,0.208849,0.208554,-2.95826,1,0.0185047,11,-0.000616958,-2.52896,-0.241145,-0.244666,28.3161,0.208554,
2,0,0,1,0,1199.3,0.207345,0.207043,-2.9957,1,0.0184488,11,-0.00062024,-2.5235,-0.198486,-0.29725,34.7478,0.207043,
2,0,0,1,0,1199.32,0.205856,0.205522,-3.05388,1,0.0183925,11,-0.000627638,-2.51515,-0.213092,-0.276876,32.8212,0.205522,
2,0,0,1,0,1199.34,0.204353,0.204048,-3.08945,1,0.0183348,11,-0.000630397,-2.51012,-0.265768,-0.221998,26.7303,0.204048,
2,0,0,1,0,1199.35,0.202849,0.202549,-3.11665,1,0.0182764,11,-0.000631273,-2.50631,-0.227931,-0.25885,31.6227,0.202549,
2,0,0,1,0,1199.37,0.20136,0.201056,-3.16713,1,0.0182179,11,-0.00063677,-2.49933,-0.204542,-0.288449,35.7131,0.201056,
2,0,0,1,0,1199.39,0.199856,0.199563,-3.21566,1,0.0181577,11,-0.000641726,-2.49273,-0.206799,-0.285301,35.9308,0.199563,
2,0,0,1,0,1199.41,0.19836,0.198062,-3.2719,1,0.0180969,11,-0.000648038,-2.4852,-0.216685,-0.272285,34.8228,0.198062,
2,0,0,1,0,1199.43,0.196863,0.196548,-3.31705,1,0.0180351,11,-0.00065196,-2.47925,-0.217229,-0.271603,35.3743,0.196548,
2,0,0,1,0,1199.45,0.19536,0.195023,-3.38737,1,0.017972,11,-0.000660616,-2.47014,-0.190785,-0.309248,41.0245,0.195023,
2,0,0,1,0,1199.47,0.193872,0.193578,-3.45455,1,0.0179083,11,-0.000668724,-2.46161,-0.186412,-0.316504,42.7233,0.1935776,
2,0,0,1,0,1199.49,0.192369,0.192077,-3.52863,1,0.0178426,11,-0.000677768,-2.45239,-0.19492,-0.302688,41.5815,0.192077,
2,0,0,1,0,1199.5,0.190865,0.190578,-3.59094,1,0.0177756,11,-0.000684355,-2.44479,-0.183104,-0.322221,45.207,0.190578,
2,0,0,1,0,1199.52,0.189376,0.189079,-3.66639,1,0.0177082,11,-0.000693239,-2.43576,-0.169756,-0.347558,49.8263,0.189079,
2,0,0,1,0,1199.54,0.187872,0.187538,-3.75068,1,0.0176385,11,-0.000703393,-2.42589,-0.160566,-0.367451,53.7573,0.187538,
2,0,0,1,0,1199.56,0.186369,0.18606,-3.84218,1,0.0175672,11,-0.000714875,-2.41542,-0.155651,-0.379053,56.709,0.18606,
2,0,0,1,0,1199.58,0.18488,0.184606,-3.9306,1,0.017495,11,-0.000725612,-2.40554,-0.148509,-0.397283,60.8805,0.184606,
2,0,0,1,0,1199.6,0.183376,0.183115,-4.01882,1,0.0174205,11,-0.000735907,-2.3959,-0.136093,-0.433526,68.0499,0.183115,
2,0,0,1,0,1199.62,0.18188,0.181617,-4.12785,1,0.0173444,11,-0.000749687,-2.38428,-0.124502,-0.473887,76.2708,0.181617,
2,0,0,1,0,1199.63,0.180383,0.180067,-4.24089,1,0.0172662,11,-0.000763645,-2.37254,-0.119712,-0.492849,81.4994,0.180067,
2,0,0,1,0,1199.65,0.17888,0.178611,-4.35158,1,0.0171854,11,-0.00077724,-2.36135,-0.119659,-0.493067,83.8153,0.1786111,
2,0,0,1,0,1199.67,0.177392,0.177136,-4.46011,1,0.0171033,11,-0.000790046,-2.35065,-0.116986,-0.504333,88.277,0.177136,
2,0,0,1,0,1199.69,0.175889,0.175609,-4.59916,1,0.0170179,11,-0.000807654,-2.33732,-0.111873,-0.527382,95.019,0.175609,
2,0,0,1,0,1199.71,0.174385,0.174079,-4.753,1,0.0169298,11,-0.000827399,-2.32303,-0.109663,-0.53801,100.122,0.174079,
2,0,0,1,0,1199.73,0.172896,0.172583,-4.91466,1,0.0168398,11,-0.000848186,-2.30851,-0.108772,-0.542419,104.18,0.172583,
2,0,0,1,0,1199.75,0.171392,0.17111,-5.06688,1,0.0167458,11,-0.000866996,-2.29526,-0.103009,-0.572765,113.751,0.17111,
2,0,0,1,0,1199.77,0.169889,0.169558,-5.25937,1,0.0166486,11,-0.000891767,-2.27907,-0.0985785,-0.598508,123.239,0.169558,
2,0,0,1,0,1199.78,0.1684,0.168075,-5.46452,1,0.016549,11,-0.000918448,-2.26245,-0.0945597,-0.623944,133.044,0.168075,
2,0,0,1,0,1199.8,0.166896,0.166571,-5.67596,1,0.0164443,11,-0.000945452,-2.24596,-0.092838,-0.635516,140.601,0.166571,
2,0,0,1,0,1199.82,0.165392,0.165115,-5.89981,1,0.0163356,11,-0.000974145,-2.22916,-0.0884529,-0.667021,153.662,0.165115,
2,0,0,1,0,1199.84,0.163905,0.163603,-6.1312,1,0.0162238,11,-0.00100309,-2.21245,-0.0876583,-0.673068,161.083,0.163603,
2,0,0,1,0,1199.86,0.162401,0.162145,-6.37836,1,0.0161062,11,-0.00103422,-2.19529,-0.0810186,-0.728228,181.714,0.162145,
2,0,0,1,0,1199.88,0.160905,0.160656,-6.65081,1,0.0159845,11,-0.00106849,-2.17713,-0.0808918,-0.729369,189.689,0.160656,
2,0,0,1,0,1199.9,0.159409,0.15911,-6.95574,1,0.0158573,11,-0.00110673,-2.15766,-0.0774082,-0.762193,206.8,0.15911,
2,0,0,1,0,1199.92,0.157905,0.157617,-7.25989,1,0.0157237,11,-0.00114428,-2.13907,-0.0778525,-0.757843,214.91,0.157617,
2,0,0,1,0,1199.93,0.156416,0.156105,-7.58318,1,0.0155856,11,-0.00118377,-2.12015,-0.0765568,-0.770669,228.337,0.156105,
2,0,0,1,0,1199.95,0.154912,0.154625,-7.93334,1,0.0154396,11,-0.00122669,-2.10054,-0.0785933,-0.7507,232.481,0.154625,
2,0,0,1,0,1199.97,0.153409,0.153108,-8.28101,1,0.0152871,11,-0.00126789,-2.08192,-0.0811948,-0.726647,234.917,0.153108,
2,0,0,1,0,1199.99,0.151919,0.151625,-8.62819,1,0.0151296,11,-0.00130825,-2.06408,-0.0828995,-0.711705,239.967,0.151625,
2,0,0,1,0,1200.01,0.150416,0.150102,-8.9991,1,0.0149637,11,-0.00135078,-2.0458,-0.0847803,-0.695917,244.584,0.150102,
2,0,0,1,0,1200.03,0.148912,0.148616,-9.37643,1,0.0147908,11,-0.00139349,-2.02796,-0.0870347,-0.677891,247.962,0.148616,
2,0,0,1,0,1200.05,0.147425,0.14717,-9.75391,1,0.0146127,11,-0.00143549,-2.01082,-0.0918253,-0.642525,244.218,0.14717,
2,0,0,1,0,1200.07,0.145921,0.145685,-10.119,1,0.0144258,11,-0.00147419,-1.99486,-0.0954956,-0.61783,243.98,0.145685,
2,0,0,1,0,1200.08,0.144425,0.144134,-10.4999,1,0.0142329,11,-0.00151339,-1.97882,-0.0980526,-0.601718,246.358,0.144134,
2,0,0,1,0,1200.1,0.142929,0.142672,-10.8688,1,0.0140332,11,-0.00155067,-1.96382,-0.10406,-0.566979,240.066,0.142672,
2,0,0,1,0,1200.12,0.141425,0.14115,-11.2369,1,0.0138254,11,-0.00158609,-1.94935,-0.113346,-0.520529,227.514,0.14115,
2,0,0,1,0,1200.14,0.139936,0.13968,-11.5709,1,0.0136133,11,-0.00161622,-1.93663,-0.120368,-0.490162,220.844,0.13968,
2,0,0,1,0,1200.16,0.138432,0.138203,-11.8828,1,0.0133929,11,-0.00164224,-1.92508,-0.134391,-0.439019,203.308,0.138203,
2,0,0,1,0,1200.18,0.136929,0.13663,-12.1837,1,0.0131666,11,-0.00166466,-1.91422,-0.142099,-0.415203,196.981,0.13663,
2,0,0,1,0,1200.2,0.135439,0.135144,-12.4696,1,0.0129373,11,-0.00168519,-1.90415,-0.161826,-0.364589,176.858,0.135144,
2,0,0,1,0,1200.22,0.133936,0.133626,-12.7172,1,0.0127006,11,-0.00169935,-1.89561,-0.180773,-0.326377,161.522,0.133626,
2,0,0,1,0,1200.23,0.132432,0.132145,-12.9296,1,0.0124595,11,-0.00170859,-1.88841,-0.210086,-0.280837,141.47,0.132145,
2,0,0,1,0,1200.25,0.130945,0.130642,-13.1229,1,0.012217,11,-0.0017144,-1.88197,-0.239171,-0.246686,126.14,0.130642,
2,0,0,1,0,1200.27,0.129441,0.129142,-13.2938,1,0.0119685,11,-0.00171679,-1.87635,-0.302426,-0.195089,101.036,0.129142,
2,0,0,1,0,1200.29,0.127945,0.12768,-13.4269,1,0.0117184,11,-0.00171435,-1.87202,-0.431948,-0.13659,71.3826,0.12768,
2,0,0,1,0,1200.31,0.126448,0.126173,-13.504,1,0.0114664,11,-0.00170384,-1.86954,-0.695119,-0.0848776,44.6734,0.126173,
2,0,0,1,0,1200.33,0.124945,0.124641,-13.5645,1,0.0112117,11,-0.00169069,-1.8676,-1.73949,-0.0339181,17.91,0.124641,
2,0,0,1,0,1200.35,0.123456,0.123191,-13.5841,1,0.0109591,11,-0.00167344,-1.86697,2.49851,0.0236141,-12.4748,0.123191,
2,0,0,1,0,1200.37,0.121952,0.121613,-13.5429,1,0.0107041,11,-0.00164699,-1.86829,0.658039,0.0896603,-47.205,0.121613,
2,0,0,1,0,1200.38,0.120449,0.120153,-13.4535,1,0.0104503,11,-0.00161649,-1.87116,0.398334,0.148117,-77.4884,0.120153,
2,0,0,1,0,1200.4,0.118959,0.118666,-13.3146,1,0.0102014,11,-0.00158,-1.87567,0.277571,0.212558,-110.085,0.118666,
2,0,0,1,0,1200.42,0.117456,0.117201,-13.1257,1,0.0099529,11,-0.00153835,-1.88188,0.213261,0.276656,-141.189,0.117201,
2,0,0,1,0,1200.44,0.115952,0.115657,-12.8924,1,0.00970833,11,-0.00149111,-1.88966,0.165136,0.357281,-178.918,0.1156574,
2,0,0,1,0,1200.46,0.114465,0.114141,-12.6016,1,0.00947129,11,-0.00143836,-1.89958,0.139625,0.422559,-207.006,0.114141,
2,0,0,1,0,1200.48,0.112961,0.112672,-12.2572,1,0.00923774,11,-0.00138105,-1.91161,0.1215,0.485598,-231.669,0.112672,
2,0,0,1,0,1200.5,0.111465,0.111198,-11.8925,1,0.00901197,11,-0.00132242,-1.92473,0.109841,0.537141,-248.569,0.111198,
2,0,0,1,0,1200.52,0.109968,0.109678,-11.499,1,0.00879325,11,-0.00126118,-1.93934,0.101541,0.581044,-260.21,0.109678,
2,0,0,1,0,1200.53,0.108465,0.108187,-11.0859,1,0.00858093,11,-0.00119936,-1.95523,0.0924623,0.638098,-275.702,0.1081871,
2,0,0,1,0,1200.55,0.106976,0.106685,-10.6644,1,0.00837863,11,-0.00113774,-1.97206,0.0907767,0.649946,-270.658,0.106685,
2,0,0,1,0,1200.57,0.105472,0.105189,-10.2556,1,0.00818192,11,-0.00107878,-1.98904,0.0900872,0.654921,-262.483,0.105189,
2,0,0,1,0,1200.59,0.103968,0.103635,-9.87541,1,0.00799261,11,-0.00102344,-2.00544,0.0918433,0.642399,-247.909,0.103635,
2,0,0,1,0,1200.61,0.102479,0.10217,-9.51407,1,0.00781231,11,-0.000972054,-2.02163,0.0934143,0.631595,-234.888,0.10217,
2,0,0,1,0,1200.63,0.100976,0.100667,-9.15926,1,0.00763675,11,-0.000922039,-2.03814,0.0951356,0.620168,-222.422,0.100667,
2,0,0,1,0,1200.65,0.0994721,0.0991864,-8.85804,1,0.00746737,11,-0.000878597,-2.05266,0.101028,0.583999,-202.463,0.0991864,
2,0,0,1,0,1200.66,0.0979846,0.0976543,-8.58963,1,0.00730525,11,-0.000838814,-2.06603,0.112224,0.525733,-176.598,0.0976543,
2,0,0,1,0,1200.68,0.0964811,0.096128,-8.34336,1,0.00714621,11,-0.00080203,-2.07866,0.122368,0.482151,-157.153,0.096128,
2,0,0,1,0,1200.7,0.0949847,0.0947256,-8.12046,1,0.00699232,11,-0.000769215,-2.09042,0.13299,0.443642,-140.877,0.0947256,
2,0,0,1,0,1200.72,0.0934883,0.0932005,-7.92394,1,0.00684246,11,-0.000738515,-2.10106,0.152024,0.388096,-120.453,0.09320049,
2,0,0,1,0,1200.74,0.0919847,0.0916905,-7.75936,1,0.00669516,11,-0.00071146,-2.11017,0.171394,0.344236,-104.4,0.0916905,
2,0,0,1,0,1200.76,0.0904955,0.0901959,-7.61743,1,0.00655223,11,-0.000687061,-2.11819,0.1869,0.315678,-93.8272,0.0901959,
2,0,0,1,0,1200.78,0.0889919,0.0887044,-7.47846,1,0.00641045,11,-0.000663372,-2.12619,0.199498,0.295742,-86.3232,0.0887044,
2,0,0,1,0,1200.8,0.0874884,0.0871761,-7.34123,1,0.00627127,11,-0.00063998,-2.13423,0.218624,0.269869,-77.4712,0.0871761,
2,0,0,1,0,1200.81,0.0860009,0.0856726,-7.22929,1,0.00613577,11,-0.000619352,-2.1409,0.248358,0.23756,-67.0924,0.0856726,
2,0,0,1,0,1200.83,0.0844973,0.0842104,-7.11818,1,0.00600081,11,-0.000599424,-2.14763,0.257463,0.229159,-63.7954,0.0842104,
2,0,0,1,0,1200.85,0.0829938,0.0827154,-7.02307,1,0.0058677,11,-0.000580916,-2.15347,0.248877,0.237065,-65.018,0.0827154,
2,0,0,1,0,1200.87,0.0815045,0.0812017,-6.91578,1,0.00573792,11,-0.000561573,-2.16016,0.250571,0.235462,-63.7294,0.0812017,
2,0,0,1,0,1200.89,0.080001,0.0797003,-6.83026,1,0.00560852,11,-0.000544374,-2.16556,0.269607,0.218837,-58.3995,0.0797003,
2,0,0,1,0,1200.91,0.0785046,0.0782473,-6.75261,1,0.0054814,11,-0.000528373,-2.17053,0.252555,0.233613,-61.5613,0.0782473,
2,0,0,1,0,1200.93,0.0770082,0.0767414,-6.66458,1,0.00535589,11,-0.000511449,-2.17623,0.236994,0.248952,-64.7311,0.0767414,
2,0,0,1,0,1200.95,0.0755046,0.0751606,-6.56876,1,0.00523144,11,-0.000493712,-2.18252,0.232516,0.253745,-65.0962,0.0751606,
2,0,0,1,0,1200.96,0.0740154,0.0737147,-6.48909,1,0.00511006,11,-0.000478342,-2.18782,0.240863,0.244952,-61.9999,0.0737147,
2,0,0,1,0,1200.98,0.0725118,0.0721881,-6.4043,1,0.00498902,11,-0.000462314,-2.19353,0.246613,0.239241,-59.7052,0.0721881,
2,0,0,1,0,1201,0.0710083,0.0706689,-6.31863,1,0.00486951,11,-0.000446531,-2.19938,0.237661,0.248253,-61.049,0.0706689,
2,0,0,1,0,1201.02,0.0695208,0.0692387,-6.22295,1,0.00475293,11,-0.000430869,-2.206,0.241671,0.244133,-59.311,0.0692387,
2,0,0,1,0,1201.04,0.0680173,0.0677598,-6.13248,1,0.00463694,11,-0.000415535,-2.21236,0.24453,0.241279,-57.8173,0.0677598,
2,0,0,1,0,1201.06,0.0665137,0.0662086,-6.04861,1,0.00452247,11,-0.00040047,-2.21834,0.26692,0.22104,-52.1636,0.0662086,
2,0,0,1,0,1201.08,0.0650244,0.0647297,-5.96725,1,0.00441071,11,-0.000386259,-2.22423,0.261021,0.226035,-52.5732,0.0647297,
2,0,0,1,0,1201.1,0.0635209,0.0632361,-5.88418,1,0.0042993,11,-0.000372093,-2.23031,0.243299,0.2425,-55.6409,0.0632361,
2,0,0,1,0,1201.11,0.0620245,0.0617496,-5.7943,1,0.00419017,11,-0.000357796,-2.237,0.25642,0.230091,-52.0756,0.0617496,
2,0,0,1,0,1201.13,0.0605281,0.0602725,-5.71422,1,0.00408254,11,-0.00034441,-2.24304,0.27959,0.211023,-47.0863,0.0602725,
2,0,0,1,0,1201.15,0.0590246,0.0587223,-5.63939,1,0.00397568,11,-0.000331158,-2.24877,0.272256,0.216707,-47.7485,0.0587223,
2,0,0,1,0,1201.17,0.0575353,0.0572427,-5.57136,1,0.00387134,11,-0.00031892,-2.25404,0.255161,0.231227,-50.3205,0.0572427,
2,0,0,1,0,1201.19,0.0560317,0.0557536,-5.48944,1,0.00376728,11,-0.000306056,-2.26047,0.285335,0.206774,-44.4631,0.0557536,
2,0,0,1,0,1201.21,0.0545282,0.0542388,-5.43761,1,0.00366447,11,-0.00029493,-2.26459,0.322291,0.183064,-38.9021,0.0542388,
2,0,0,1,0,1201.23,0.0530407,0.0527269,-5.38999,1,0.00356375,11,-0.000284197,-2.26841,0.337061,0.175042,-36.8157,0.0527269,
2,0,0,1,0,1201.25,0.0515372,0.0512244,-5.33332,1,0.00346294,11,-0.000273196,-2.273,0.322115,0.183164,-38.1001,0.0512244,
2,0,0,1,0,1201.26,0.0500336,0.049707,-5.27548,1,0.00336314,11,-0.000262228,-2.27774,0.330365,0.17859,-36.8232,0.049707,
2,0,0,1,0,1201.28,0.0485444,0.0482257,-5.23812,1,0.00326547,11,-0.000252612,-2.28082,0.393192,0.150054,-30.6882,0.0482257,
2,0,0,1,0,1201.3,0.0470408,0.0467607,-5.19904,1,0.00316746,11,-0.000243111,-2.28408,0.47189,0.125029,-25.3388,0.0467607,
2,0,0,1,0,1201.32,0.0455444,0.0452328,-5.16581,1,0.00307063,11,-0.000233664,-2.28686,0.509139,0.115882,-23.3242,0.04523281,
2,0,0,1,0,1201.34,0.044048,0.0437752,-5.12847,1,0.0029745,11,-0.0002245,-2.29001,0.588904,0.100186,-20.0518,0.0437752,
2,0,0,1,0,1201.36,0.0425445,0.0422264,-5.09657,1,0.0028785,11,-0.00021521,-2.29272,0.819448,0.0719997,-14.3371,0.0422264,
2,0,0,1,0,1201.38,0.0410552,0.0407465,-5.07583,1,0.00278399,11,-0.000206822,-2.29449,1.1824,0.0498984,-9.8798,0.0407465,
2,0,0,1,0,1201.4,0.0395517,0.0392757,-5.05481,1,0.00268873,11,-0.000198531,-2.2963,1.28733,0.0458313,-9.03179,0.0392757,
2,0,0,1,0,1201.41,0.0380481,0.0377184,-5.0331,1,0.00259384,11,-0.000189841,-2.29816,0.899538,0.0655892,-12.888,0.03771843,
2,0,0,1,0,1201.43,0.0365606,0.0362354,-5.00963,1,0.00250043,11,-0.000181526,-2.30019,1.10087,0.0535942,-10.4988,0.0362354,
2,0,0,1,0,1201.45,0.0350571,0.0347432,-4.99277,1,0.00240632,11,-0.000173465,-2.30166,2.47593,0.0238295,-4.65304,0.03474319,
2,0,0,1,0,1201.47,0.0335535,0.0332227,-4.98662,1,0.00231236,11,-0.000165669,-2.30219,2.30752,0.0255686,-4.9836,0.0332227,
2,0,0,1,0,1201.49,0.0320643,0.0317836,-4.98228,1,0.00221949,11,-0.000158355,-2.30257,1.32409,0.0445588,-8.66849,0.0317836,
2,0,0,1,0,1201.51,0.0305607,0.0302958,-4.97004,1,0.00212582,11,-0.000150571,-2.30364,1.59879,0.0369029,-7.17691,0.0302958,
2,0,0,1,0,1201.53,0.0290643,0.028742,-4.97419,1,0.00203281,11,-0.000142968,-2.30328,6.63454,0.00889286,-1.72859,0.028742,
2,0,0,1,0,1201.55,0.0275679,0.0272477,-4.98527,1,0.00193973,11,-0.000135837,-2.30231,142.97,0.000412675,-0.0801609,0.0272477,
2,0,0,1,0,1201.56,0.0260644,0.0257711,-4.98753,1,0.00184603,11,-0.000128534,-2.30211,4.69828,0.0125578,-2.43927,0.0257711,
2,0,0,1,0,1201.58,0.0245751,0.0242997,-4.98086,1,0.00175337,11,-0.000121033,-2.3027,17.8261,0.00330976,-0.643749,0.0242997,
2,0,0,1,0,1201.6,0.0230716,0.0227741,-4.98623,1,0.00165977,11,-0.000113557,-2.30223,-3.99108,-0.014783,2.87769,0.02277408,
2,0,0,1,0,1201.62,0.021568,0.0212491,-4.99377,1,0.00156599,11,-0.000106113,-2.30157,-1.41691,-0.0416398,8.1138,0.0212491,
2,0,0,1,0,1201.64,0.0200805,0.019774,-5.00159,1,0.00147303,11,-9.89012e-05,-2.30089,-2.38136,-0.0247758,4.83308,0.019774,
2,0,0,1,0,1201.66,0.018577,0.0182449,-5.01037,1,0.00137891,11,-9.14139e-05,-2.30013,-1.32373,-0.0445712,8.72256,0.0182449,
2,0,0,1,0,1201.68,0.0170735,0.0168192,-5.01357,1,0.00128473,11,-8.43241e-05,-2.29985,-0.939944,-0.0627697,12.3095,0.0168192,
2,0,0,1,0,1201.69,0.0155842,0.0152895,-5.02954,1,0.00119126,11,-7.6899e-05,-2.29847,-0.785848,-0.0750781,14.7454,0.0152895,
2,0,0,1,0,1201.71,0.0140806,0.0137574,-5.04585,1,0.00109635,11,-6.94177e-05,-2.29707,-0.935497,-0.0630681,12.4247,0.0137574,
2,0,0,1,0,1201.73,0.0125842,0.0122542,-5.06026,1,0.00100173,11,-6.20095e-05,-2.29583,-1.59001,-0.0371067,7.33805,0.0122542,
2,0,0,1,0,1201.75,0.0110878,0.0107999,-5.07042,1,0.000906916,11,-5.47598e-05,-2.29496,-1.13871,-0.051813,10.2765,0.0107999,
2,0,0,1,0,1201.77,0.00958429,0.00930934,-5.08774,1,0.000811307,11,-4.73635e-05,-2.29348,-0.974949,-0.060516,12.0324,0.00930934,
2,0,0,1,0,1201.79,0.0080968,0.00778985,-5.1047,1,0.000716344,11,-3.97648e-05,-2.29203,-0.915367,-0.064455,12.8678,0.00778985,
2,0,0,1,0,1201.81,0.00659326,0.00626457,-5.12839,1,0.00062,11,-3.21272e-05,-2.29002,-1.33006,-0.044359,8.88481,0.00626457,
2,0,0,1,0,1201.83,0.00508972,0.00478667,-5.14086,1,0.000523308,11,-2.46076e-05,-2.28896,-1.29159,-0.0456802,9.187,0.00478667,
2,0,0,1,0,1201.84,0.00360044,0.00327979,-5.17639,1,0.000427344,11,-1.69775e-05,-2.28597,-0.427607,-0.137977,28.0401,0.00327979,
2,0,0,1,0,1201.86,0.0020969,0.00176065,-5.27091,1,0.000329671,11,-9.28022e-06,-2.27811,-0.53892,-0.109478,22.2608,0.00176065,
2,0,0,1,0,1201.88,0.000593362,0.000215257,-5.26607,1,0.00023064,11,-1.13356e-06,-2.27851, , , ,0.0002152566,
2,0,0,1,0,1201.89,0.000199195,-0.000128724,-5.25391,1,0.000204856,11,6.76306e-07,-2.27952, , , ,-0.000128724,