File: Figure_codes/Fig_3-5/rawdata_trumpetplot_data/before 10th/20221101_1-115_002_TrumpetPlot_ParaChange_09_CV_C01.mpt
EC-Lab ASCII FILE
Nb header lines : 68

Cyclic Voltammetry

Run on channel : 1 (SN 65296)
User :
CE vs. WE compliance from -10 V to 10 V
Electrode connection : standard
Potential control : Ewe
Ewe ctrl range : min = -1.00 V, max = 1.00 V
Safety Limits :
	Do not start on E overload
Acquisition started on : 11/08/2022 17:30:03.488
Loaded Setting File :  NONE
Saved on :
	File : 20221101_1-115_002_TrumpetPlot_ParaChange_09_CV_C01.mpr
	Directory : C:\Users\NakamuraT\Documents\EC-Lab\Data\Yatsuzuka\20221108_1-115_001_TrumpetPlot\
	Host : 192.109.209.100
Device : SP-50e (SN .003219)
Address : 192.109.209.128
EC-Lab for windows v11.43 (software)
Internet server v11.40 (firmware)
Command interpretor v11.40 (firmware)
Electrode material : Au/Pd
Initial state :
Electrolyte : NaCl (0.2M)
Comments : Fe(CN)63-/Fe(CN)64- 5.10-3 M
Reference electrode : SCE Saturated Calomel Electrode (0.241 V)
Electrode surface area : 0.001 cm2
Characteristic mass : 0.001 g
Equivalent Weight : 0.000 g/eq.
Density : 0.000 g/cm3
Volume (V) : 0.001 cm3
Cycle Definition : Charge/Discharge alternance
Ei (V)              0.000
vs.                 Ref
dE/dt               60.000
dE/dt unit          mV/s
E1 (V)              0.300
vs.                 Ref
Step percent        50
N                   10
E range min (V)     -1.000
E range max (V)     1.000
I Range             10 mA
I Range min         Unset
I Range max         Unset
I Range init        Unset
Bandwidth           5
E2 (V)              0.000
vs.                 Ref
nc cycles           0
Reverse Scan        0
Ef (V)              0.000
vs.                 Eoc

Number of loops : 8
Loop 0 from point number 0 to 1204
Loop 1 from point number 1205 to 2409
Loop 2 from point number 2410 to 3614
Loop 3 from point number 3615 to 4819
Loop 4 from point number 4820 to 6024
Loop 5 from point number 6025 to 7229
Loop 6 from point number 7230 to 8434
Loop 7 from point number 8435 to 9639

mode	ox/red	error	control changes	counter inc.	time/s	control/V	Ewe/V	<I>/mA	cycle number	(Q-Qo)/C	I Range	P/W
2	0	0	0	0	1184.29	2.44065e-05	1.82482e-05	-3.87168	1	0.0000000E+000	11	-7.06514e-08
2	1	0	1	0	1184.4	0.00679123	0.00650742	2.41742	1	0.000104263	11	1.57311e-05
2	1	0	1	0	1184.52	0.0137802	0.0134896	2.5894	1	0.00039985	11	3.493e-05
2	1	0	1	0	1184.64	0.020777	0.0204912	2.65558	1	0.000706997	11	5.44158e-05
2	1	0	1	0	1184.75	0.0277659	0.0274637	2.71781	1	0.00102112	11	7.46412e-05
2	1	0	1	0	1184.87	0.0347561	0.0345017	2.78631	1	0.00134213	11	9.61325e-05
2	1	0	1	0	1184.98	0.0417476	0.0414679	2.86142	1	0.00167038	11	0.000118657
2	1	0	1	0	1185.1	0.0487419	0.0484729	2.94304	1	0.00200808	11	0.000142658
2	1	0	1	0	1185.22	0.0557321	0.0554611	3.06429	1	0.00235788	11	0.000169949
2	1	0	1	0	1185.33	0.0627223	0.0624459	3.22702	1	0.00272457	11	0.000201514
2	1	0	1	0	1185.45	0.0697126	0.0693999	3.44203	1	0.0031141	11	0.000238877
2	1	0	1	0	1185.57	0.0767094	0.0764049	3.72277	1	0.00353238	11	0.000284438
2	1	0	1	0	1185.68	0.0836983	0.0833715	4.0224	1	0.00398388	11	0.000335354
2	1	0	1	0	1185.8	0.0906872	0.0904246	4.34622	1	0.00447206	11	0.000393005
2	1	0	1	0	1185.92	0.0976787	0.0973979	4.68222	1	0.00499873	11	0.000456039
2	1	0	1	0	1186.03	0.104674	0.104408	5.06221	1	0.00556694	11	0.000528533
2	1	0	1	0	1186.15	0.111665	0.111379	5.54697	1	0.00618427	11	0.000617817
2	1	0	1	0	1186.27	0.118655	0.118358	6.23079	1	0.00686729	11	0.000737461
2	1	0	1	0	1186.38	0.125649	0.125376	7.14073	1	0.00764438	11	0.000895276
2	1	0	1	0	1186.5	0.132642	0.132356	8.27176	1	0.00854116	11	0.00109482
2	1	0	1	0	1186.62	0.139631	0.139279	9.39632	1	0.00957197	11	0.00130871
2	1	0	1	0	1186.73	0.14662	0.146343	10.2459	1	0.0107217	11	0.00149942
2	1	0	1	0	1186.85	0.153616	0.153329	10.5627	1	0.0119427	11	0.00161957
2	1	0	1	0	1186.97	0.160607	0.160366	9.98063	1	0.0131504	11	0.00160056
2	1	0	1	0	1187.08	0.167597	0.167303	8.19804	1	0.0142201	11	0.00137156
2	1	0	1	0	1187.2	0.174587	0.174322	5.98604	1	0.0150431	11	0.0010435
2	1	0	1	0	1187.32	0.181581	0.181322	4.64037	1	0.0156531	11	0.000841403
2	1	0	1	0	1187.43	0.188573	0.188288	3.97172	1	0.0161514	11	0.000747829
2	1	0	1	0	1187.55	0.195563	0.195295	3.56096	1	0.0165889	11	0.000695438
2	1	0	1	0	1187.66	0.202552	0.202263	3.2773	1	0.0169858	11	0.000662877
2	1	0	1	0	1187.78	0.209549	0.209243	3.07384	1	0.0173551	11	0.00064318
2	1	0	1	0	1187.9	0.216538	0.216259	2.91287	1	0.0177039	11	0.000629937
2	1	0	1	0	1188.01	0.223528	0.22326	2.80328	1	0.0180383	11	0.00062586
2	1	0	1	0	1188.13	0.23052	0.230247	2.73312	1	0.0183618	11	0.000629293
2	1	0	1	0	1188.25	0.237514	0.237255	2.66966	1	0.0186772	11	0.000633389
2	1	0	1	0	1188.36	0.244504	0.244213	2.62663	1	0.0189857	11	0.000641457
2	1	0	1	0	1188.48	0.251494	0.251269	2.57189	1	0.0192888	11	0.000646235
2	1	0	1	0	1188.6	0.25849	0.258213	2.53972	1	0.0195873	11	0.000655789
2	1	0	1	0	1188.71	0.265481	0.265231	2.50397	1	0.0198814	11	0.000664129
2	1	0	1	0	1188.83	0.27247	0.272203	2.47252	1	0.0201718	11	0.000673027
2	1	0	1	0	1188.95	0.279459	0.279203	2.44623	1	0.0204584	11	0.000682993
2	1	0	1	0	1189.06	0.286451	0.286148	2.41966	1	0.0207417	11	0.000692382
2	1	0	1	0	1189.18	0.293446	0.293197	2.37737	1	0.021022	11	0.000697037
2	1	0	1	0	1189.29	0.300012	0.299804	2.37939	1	0.0212816	11	0.00071335
2	0	0	1	0	1189.4	0.293245	0.292933	-0.960138	1	0.0212243	11	-0.000281256
2	0	0	1	0	1189.52	0.286254	0.285918	-1.15319	1	0.0211	11	-0.000329719
2	0	0	1	0	1189.63	0.279263	0.27898	-1.29547	1	0.0209569	11	-0.000361412
2	0	0	1	0	1189.75	0.272269	0.271962	-1.40169	1	0.0207993	11	-0.000381205
2	0	0	1	0	1189.87	0.265279	0.264975	-1.49611	1	0.0206297	11	-0.000396432
2	0	0	1	0	1189.98	0.258287	0.257992	-1.58004	1	0.0204495	11	-0.000407636
2	0	0	1	0	1190.1	0.251298	0.251005	-1.67411	1	0.0202593	11	-0.00042021
2	0	0	1	0	1190.22	0.244302	0.243992	-1.76344	1	0.0200594	11	-0.000430264
2	0	0	1	0	1190.33	0.237313	0.236966	-1.83405	1	0.0198503	11	-0.000434607
2	0	0	1	0	1190.45	0.230324	0.229994	-1.91724	1	0.0196316	11	-0.000440954
2	0	0	1	0	1190.57	0.223331	0.223056	-2.01103	1	0.0194023	11	-0.000448572
2	0	0	1	0	1190.68	0.216337	0.216046	-2.1072	1	0.0191612	11	-0.000455252
2	0	0	1	0	1190.8	0.209347	0.209067	-2.24072	1	0.0189069	11	-0.00046846
2	0	0	1	0	1190.92	0.202356	0.20206	-2.39925	1	0.018636	11	-0.000484791
2	0	0	1	0	1191.03	0.195361	0.195037	-2.59649	1	0.018345	11	-0.000506412
2	0	0	1	0	1191.15	0.188369	0.188039	-2.84699	1	0.0180277	11	-0.000535343
2	0	0	1	0	1191.27	0.18138	0.181097	-3.19352	1	0.0176759	11	-0.000578337
2	0	0	1	0	1191.38	0.174391	0.174056	-3.68156	1	0.0172762	11	-0.000640799
2	0	0	1	0	1191.5	0.1674	0.167085	-4.37013	1	0.0168099	11	-0.000730183
2	0	0	1	0	1191.62	0.160404	0.160124	-5.32186	1	0.0162485	11	-0.000852157
2	0	0	1	0	1191.73	0.153414	0.153131	-6.59835	1	0.0155564	11	-0.00101041
2	0	0	1	0	1191.85	0.146424	0.146133	-8.00212	1	0.0147059	11	-0.00116938
2	0	0	1	0	1191.97	0.13943	0.139161	-9.28095	1	0.0136942	11	-0.00129155
2	0	0	1	0	1192.08	0.132438	0.132104	-10.1629	1	0.0125554	11	-0.00134256
2	0	0	1	0	1192.2	0.125448	0.125136	-10.4125	1	0.0113494	11	-0.00130298
2	0	0	1	0	1192.31	0.118459	0.118179	-9.81812	1	0.0101623	11	-0.00116029
2	0	0	1	0	1192.43	0.111462	0.111172	-8.49047	1	0.00908979	11	-0.000943901
2	0	0	1	0	1192.55	0.104473	0.104161	-7.11166	1	0.00818384	11	-0.000740759
2	0	0	1	0	1192.66	0.0974817	0.0971664	-6.21478	1	0.00741189	11	-0.000603868
2	0	0	1	0	1192.78	0.0904915	0.0901829	-5.69424	1	0.00672106	11	-0.000513523
2	0	0	1	0	1192.9	0.0834972	0.0832119	-5.32136	1	0.00607987	11	-0.0004428
2	0	0	1	0	1193.01	0.076507	0.0761744	-5.00487	1	0.00547838	11	-0.000381243
2	0	0	1	0	1193.13	0.0695168	0.0692358	-4.67894	1	0.00491377	11	-0.00032395
2	0	0	1	0	1193.25	0.0625265	0.0622381	-4.38056	1	0.00438474	11	-0.000272638
2	0	0	1	0	1193.36	0.0555297	0.0552291	-4.15102	1	0.00388683	11	-0.000229257
2	0	0	1	0	1193.48	0.0485408	0.0482375	-3.9847	1	0.00341318	11	-0.000192212
2	0	0	1	0	1193.6	0.0415519	0.0412664	-3.88119	1	0.0029555	11	-0.000160163
2	0	0	1	0	1193.71	0.034559	0.0342756	-3.83215	1	0.00250644	11	-0.000131349
2	0	0	1	0	1193.83	0.0275648	0.02727	-3.8171	1	0.00206051	11	-0.000104092
2	0	0	1	0	1193.95	0.0205746	0.0203005	-3.83545	1	0.00161423	11	-7.78616e-05
2	0	0	1	0	1194.06	0.0135844	0.0132463	-3.8901	1	0.00116409	11	-5.15293e-05
2	0	0	1	0	1194.18	0.00658877	0.00628895	-3.955	1	0.000707069	11	-2.48728e-05
2	0	0	0	0	1194.29	-2.44065e-05	-0.000363498	-4.05055	1	0.000268344	11	1.47237e-06
2	1	0	1	0	2416.02	0.00629183	0.00599358	2.42575	2	9.4118e-05	11	1.45389e-05
2	1	0	1	0	2416.14	0.0132834	0.0129811	2.61036	2	0.000392807	11	3.38853e-05
2	1	0	1	0	2416.26	0.0202723	0.0199668	2.68058	2	0.000702371	11	5.35224e-05
2	1	0	1	0	2416.37	0.0272691	0.0269793	2.75975	2	0.00102017	11	7.44563e-05
2	1	0	1	0	2416.49	0.034258	0.0340086	2.83746	2	0.00134598	11	9.64982e-05
2	1	0	1	0	2416.6	0.0412483	0.0409779	2.92915	2	0.00168098	11	0.00012003
2	1	0	1	0	2416.72	0.0482398	0.0479024	3.04276	2	0.00202806	11	0.000145755
2	1	0	1	0	2416.84	0.0552341	0.054951	3.20467	2	0.00239172	11	0.0001761
2	1	0	1	0	2416.95	0.0622243	0.0619576	3.41585	2	0.00277693	11	0.000211638
2	1	0	1	0	2417.07	0.0692145	0.0689376	3.68256	2	0.00319066	11	0.000253867
2	1	0	1	0	2417.19	0.0762101	0.0759342	3.99275	2	0.00363842	11	0.000303186
2	1	0	1	0	2417.3	0.0832015	0.0829408	4.32371	2	0.00412339	11	0.000358612
2	1	0	1	0	2417.42	0.0901905	0.0899327	4.64315	2	0.00464656	11	0.000417571
2	1	0	1	0	2417.54	0.0971794	0.0968758	4.96119	2	0.0052077	11	0.00048062
2	1	0	1	0	2417.65	0.104171	0.103845	5.32925	2	0.00580803	11	0.000553416
2	1	0	1	0	2417.77	0.111166	0.110872	5.79564	2	0.00645492	11	0.000642574
2	1	0	1	0	2417.89	0.118157	0.117906	6.44823	2	0.00716523	11	0.000760287
2	1	0	1	0	2418	0.125147	0.124852	7.30811	2	0.0079643	11	0.000912433
2	1	0	1	0	2418.12	0.132141	0.131888	8.36136	2	0.00887769	11	0.00110276
2	1	0	1	0	2418.24	0.139133	0.138886	9.37136	2	0.00991278	11	0.00130155
2	1	0	1	0	2418.35	0.146123	0.145804	10.104	2	0.0110516	11	0.00147321
2	1	0	1	0	2418.47	0.153112	0.15284	10.2883	2	0.0122466	11	0.00157245
2	1	0	1	0	2418.59	0.160109	0.159819	9.57805	2	0.0134162	11	0.00153075
2	1	0	1	0	2418.7	0.167098	0.16679	7.73342	2	0.0144344	11	0.00128986
2	1	0	1	0	2418.82	0.174089	0.173806	5.65514	2	0.0152104	11	0.000982896
2	1	0	1	0	2418.94	0.181079	0.180833	4.45179	2	0.0157909	11	0.000805029
2	1	0	1	0	2419.05	0.188074	0.187822	3.8644	2	0.016273	11	0.000725822
2	1	0	1	0	2419.17	0.195064	0.19481	3.49582	2	0.0166999	11	0.00068102
2	1	0	1	0	2419.29	0.202055	0.20178	3.22705	2	0.01709	11	0.000651155
2	1	0	1	0	2419.4	0.209044	0.20879	3.03658	2	0.0174546	11	0.000634008
2	1	0	1	0	2419.52	0.216041	0.215744	2.89897	2	0.0178009	11	0.000625436
2	1	0	1	0	2419.63	0.22303	0.222747	2.79409	2	0.0181336	11	0.000622374
2	1	0	1	0	2419.75	0.23002	0.229775	2.72745	2	0.0184559	11	0.000626699
2	1	0	1	0	2419.87	0.237012	0.236717	2.67231	2	0.0187705	11	0.00063258
2	1	0	1	0	2419.98	0.244006	0.243744	2.61391	2	0.0190789	11	0.000637125
2	1	0	1	0	2420.1	0.250996	0.25073	2.57113	2	0.0193819	11	0.00064466
2	1	0	1	0	2420.22	0.257986	0.257702	2.53694	2	0.01968	11	0.000653775
2	1	0	1	0	2420.33	0.264982	0.264722	2.50586	2	0.0199745	11	0.000663357
2	1	0	1	0	2420.45	0.271973	0.271701	2.4841	2	0.0202648	11	0.000674932
2	1	0	1	0	2420.57	0.278962	0.278692	2.44503	2	0.0205515	11	0.000681412
2	1	0	1	0	2420.68	0.285951	0.28572	2.41275	2	0.020835	11	0.00068937
2	1	0	1	0	2420.8	0.292943	0.292703	2.38169	2	0.0211151	11	0.000697129
2	1	0	1	0	2420.91	0.299837	0.299634	2.35161	2	0.0213886	11	0.000704621
2	0	0	1	0	2421.02	0.293742	0.293446	-0.979272	2	0.0213409	11	-0.000287363
2	0	0	1	0	2421.14	0.286753	0.286472	-1.14821	2	0.0212165	11	-0.000328931
2	0	0	1	0	2421.25	0.279763	0.279474	-1.28413	2	0.0210735	11	-0.000358882
2	0	0	1	0	2421.37	0.272771	0.272471	-1.39589	2	0.020916	11	-0.000380339
2	0	0	1	0	2421.49	0.265777	0.265476	-1.49263	2	0.0207463	11	-0.000396257
2	0	0	1	0	2421.6	0.258787	0.258506	-1.58904	2	0.0205662	11	-0.000410777
2	0	0	1	0	2421.72	0.251797	0.25153	-1.66515	2	0.0203763	11	-0.000418836
2	0	0	1	0	2421.84	0.244806	0.244455	-1.75753	2	0.0201771	11	-0.000429638
2	0	0	1	0	2421.95	0.23781	0.237527	-1.82525	2	0.0199687	11	-0.000433546
2	0	0	1	0	2422.07	0.230821	0.230529	-1.90009	2	0.019751	11	-0.000438027
2	0	0	1	0	2422.19	0.223832	0.223554	-1.99162	2	0.0195236	11	-0.000445235
2	0	0	1	0	2422.3	0.216839	0.216556	-2.09867	2	0.0192852	11	-0.00045448
2	0	0	1	0	2422.42	0.209845	0.209534	-2.2034	2	0.0190342	11	-0.000461688
2	0	0	1	0	2422.54	0.202854	0.2025	-2.34877	2	0.0187682	11	-0.000475627
2	0	0	1	0	2422.65	0.195864	0.195555	-2.5186	2	0.018484	11	-0.000492524
2	0	0	1	0	2422.77	0.18887	0.188571	-2.75446	2	0.0181758	11	-0.000519411
2	0	0	1	0	2422.89	0.181877	0.181597	-3.08259	2	0.0178362	11	-0.000559789
2	0	0	1	0	2423	0.174888	0.174599	-3.5228	2	0.0174532	11	-0.000615077
2	0	0	1	0	2423.12	0.167899	0.167562	-4.15779	2	0.0170087	11	-0.00069669
2	0	0	1	0	2423.24	0.160902	0.160631	-5.05485	2	0.0164744	11	-0.000811968
2	0	0	1	0	2423.35	0.153912	0.153559	-6.27203	2	0.0158168	11	-0.000963127
2	0	0	1	0	2423.47	0.146922	0.146647	-7.68435	2	0.0150033	11	-0.00112689
2	0	0	1	0	2423.59	0.139932	0.139636	-8.99605	2	0.0140293	11	-0.00125617
2	0	0	1	0	2423.7	0.132937	0.132654	-9.91336	2	0.0129216	11	-0.00131505
2	0	0	1	0	2423.82	0.125946	0.125646	-10.2462	2	0.0117398	11	-0.00128739
2	0	0	1	0	2423.93	0.118956	0.11868	-9.81417	2	0.0105628	11	-0.00116475
2	0	0	1	0	2424.05	0.111967	0.111634	-8.6921	2	0.00947825	11	-0.000970337
2	0	0	1	0	2424.17	0.10497	0.1047	-7.4108	2	0.00854071	11	-0.00077591
2	0	0	1	0	2424.28	0.0979811	0.0977002	-6.50278	2	0.00773446	11	-0.000635322
2	0	0	1	0	2424.4	0.0909908	0.0906765	-5.9859	2	0.0070104	11	-0.00054278
2	0	0	1	0	2424.52	0.0839993	0.0836589	-5.63279	2	0.00633514	11	-0.000471233
2	0	0	1	0	2424.63	0.077005	0.0767302	-5.33159	2	0.00569575	11	-0.000409094
2	0	0	1	0	2424.75	0.0700148	0.0697043	-5.02146	2	0.00509177	11	-0.000350017
2	0	0	1	0	2424.87	0.0630246	0.0626876	-4.69414	2	0.00452504	11	-0.000294264
2	0	0	1	0	2424.98	0.0560344	0.0557296	-4.39437	2	0.00399567	11	-0.000244896
2	0	0	1	0	2425.1	0.0490376	0.048756	-4.15824	2	0.00349754	11	-0.000202739
2	0	0	1	0	2425.22	0.0420486	0.0417238	-3.99655	2	0.00302309	11	-0.000166751
2	0	0	1	0	2425.33	0.0350597	0.0347808	-3.9018	2	0.00256258	11	-0.000135708
2	0	0	1	0	2425.45	0.0280682	0.0277864	-3.8663	2	0.00210959	11	-0.000107431
2	0	0	1	0	2425.57	0.0210726	0.0207695	-3.87706	2	0.00165789	11	-8.05246e-05
2	0	0	1	0	2425.68	0.0140824	0.0137646	-3.92074	2	0.00120455	11	-5.39675e-05
2	0	0	1	0	2425.8	0.00709222	0.0067994	-3.96845	2	0.000745966	11	-2.69831e-05
2	0	0	0	0	2425.91	0.000199195	-0.00014972	-4.05207	2	0.000284632	11	6.06676e-07
2	1	0	1	0	3647.64	0.00579379	0.00551694	2.09214	3	3.83013e-05	11	1.15422e-05
2	1	0	1	0	3647.76	0.012784	0.0124823	2.49314	3	0.000314119	11	3.112e-05
2	1	0	1	0	3647.88	0.0197742	0.0195082	2.59815	3	0.000612135	11	5.06852e-05
2	1	0	1	0	3647.99	0.0267645	0.0265275	2.69615	3	0.000921782	11	7.15221e-05
2	1	0	1	0	3648.11	0.0337613	0.0334959	2.79131	3	0.0012423	11	9.34975e-05
2	1	0	1	0	3648.23	0.0407502	0.0404808	2.91085	3	0.00157422	11	0.000117833
2	1	0	1	0	3648.34	0.0477391	0.0474374	3.05136	3	0.00192089	11	0.000144749
2	1	0	1	0	3648.46	0.054732	0.0544313	3.2453	3	0.00228691	11	0.000176646
2	1	0	1	0	3648.57	0.0617262	0.0614701	3.48085	3	0.00267857	11	0.000213968
2	1	0	1	0	3648.69	0.0687164	0.0684001	3.77227	3	0.00310139	11	0.000258023
2	1	0	1	0	3648.81	0.0757066	0.0754	4.09123	3	0.00356016	11	0.000308479
2	1	0	1	0	3648.92	0.0827022	0.0824223	4.4209	3	0.00405753	11	0.000364381
2	1	0	1	0	3649.04	0.0896937	0.0893939	4.74225	3	0.00459196	11	0.000423928
2	1	0	1	0	3649.16	0.0966826	0.09638	5.03642	3	0.00516199	11	0.00048541
2	1	0	1	0	3649.27	0.103672	0.103389	5.35327	3	0.00576769	11	0.000553467
2	1	0	1	0	3649.39	0.110663	0.110342	5.76186	3	0.00641479	11	0.000635776
2	1	0	1	0	3649.51	0.117659	0.117369	6.34027	3	0.00711907	11	0.000744152
2	1	0	1	0	3649.62	0.124649	0.124387	7.10808	3	0.00790082	11	0.000884156
2	1	0	1	0	3649.74	0.131639	0.131357	7.99773	3	0.00877992	11	0.00105055
2	1	0	1	0	3649.86	0.138633	0.138363	8.86141	3	0.00976404	11	0.00122609
2	1	0	1	0	3649.97	0.145625	0.145331	9.51898	3	0.0108377	11	0.00138341
2	1	0	1	0	3650.09	0.152615	0.152326	9.74298	3	0.0119658	11	0.00148411
2	1	0	1	0	3650.21	0.159604	0.15934	9.25189	3	0.0130823	11	0.0014742
2	1	0	1	0	3650.32	0.166601	0.16633	7.77	3	0.0140845	11	0.00129238
2	1	0	1	0	3650.44	0.17359	0.173334	5.88956	3	0.0148782	11	0.00102086
2	1	0	1	0	3650.56	0.18058	0.180285	4.61014	3	0.0154821	11	0.000831139
2	1	0	1	0	3650.67	0.187571	0.187299	3.92936	3	0.0159765	11	0.000735966
2	1	0	1	0	3650.79	0.194566	0.19429	3.50679	3	0.0164087	11	0.000681333
2	1	0	1	0	3650.91	0.201556	0.20128	3.22396	3	0.0168001	11	0.000648918
2	1	0	1	0	3651.02	0.208546	0.208272	3.03927	3	0.0171645	11	0.000632996
2	1	0	1	0	3651.14	0.215536	0.215293	2.90452	3	0.0175098	11	0.000625324
2	1	0	1	0	3651.25	0.222533	0.222261	2.7986	3	0.017842	11	0.000622019
2	1	0	1	0	3651.37	0.229522	0.22926	2.70763	3	0.0181636	11	0.000620752
2	1	0	1	0	3651.49	0.236511	0.236235	2.65551	3	0.0184775	11	0.000627324
2	1	0	1	0	3651.6	0.243504	0.243257	2.60932	3	0.0187851	11	0.000634737
2	1	0	1	0	3651.72	0.250498	0.250227	2.57471	3	0.0190878	11	0.000644262
2	1	0	1	0	3651.84	0.257488	0.257213	2.53918	3	0.0193857	11	0.00065311
2	1	0	1	0	3651.95	0.264479	0.264202	2.50339	3	0.0196795	11	0.000661402
2	1	0	1	0	3652.07	0.271474	0.271225	2.47146	3	0.01997	11	0.000670322
2	1	0	1	0	3652.19	0.278466	0.278217	2.43994	3	0.0202566	11	0.000678832
2	1	0	1	0	3652.3	0.285455	0.285212	2.4161	3	0.02054	11	0.0006891
2	1	0	1	0	3652.42	0.292443	0.292199	2.39193	3	0.0208203	11	0.000698919
2	1	0	1	0	3652.54	0.29944	0.299196	2.36802	3	0.0210978	11	0.000708504
2	0	0	1	0	3652.64	0.294247	0.293937	-0.868258	3	0.0210897	11	-0.000255213
2	0	0	1	0	3652.76	0.28725	0.286975	-1.08525	3	0.0209742	11	-0.000311439
2	0	0	1	0	3652.87	0.280261	0.279984	-1.22401	3	0.0208381	11	-0.000342703
2	0	0	1	0	3652.99	0.273271	0.27294	-1.3521	3	0.0206868	11	-0.000369043
2	0	0	1	0	3653.11	0.266279	0.265977	-1.45401	3	0.020523	11	-0.000386734
2	0	0	1	0	3653.22	0.259285	0.258978	-1.5368	3	0.0203484	11	-0.000397997
2	0	0	1	0	3653.34	0.252295	0.252023	-1.61834	3	0.020164	11	-0.000407859
2	0	0	1	0	3653.46	0.245304	0.244996	-1.68988	3	0.0199705	11	-0.000414013
2	0	0	1	0	3653.57	0.238309	0.237988	-1.7678	3	0.0197678	11	-0.000420715
2	0	0	1	0	3653.69	0.231317	0.231036	-1.85781	3	0.0195564	11	-0.000429222
2	0	0	1	0	3653.81	0.224328	0.224007	-1.93912	3	0.0193356	11	-0.000434376
2	0	0	1	0	3653.92	0.217339	0.217074	-2.02968	3	0.0191046	11	-0.00044059
2	0	0	1	0	3654.04	0.210348	0.2101	-2.12916	3	0.0188624	11	-0.000447336
2	0	0	1	0	3654.16	0.203352	0.203035	-2.24159	3	0.0186063	11	-0.000455122
2	0	0	1	0	3654.27	0.196362	0.196093	-2.40735	3	0.0183347	11	-0.000472065
2	0	0	1	0	3654.39	0.189372	0.189069	-2.6069	3	0.0180424	11	-0.000492884
2	0	0	1	0	3654.51	0.182378	0.182051	-2.87934	3	0.017723	11	-0.000524186
2	0	0	1	0	3654.62	0.175385	0.175047	-3.25708	3	0.0173667	11	-0.000570141
2	0	0	1	0	3654.74	0.168396	0.168094	-3.78114	3	0.0169589	11	-0.000635586
2	0	0	1	0	3654.86	0.161407	0.161113	-4.54216	3	0.0164759	11	-0.000731802
2	0	0	1	0	3654.97	0.15441	0.154103	-5.6086	3	0.0158864	11	-0.000864304
2	0	0	1	0	3655.09	0.147421	0.147109	-6.87703	3	0.0151609	11	-0.00101168
2	0	0	1	0	3655.21	0.14043	0.140179	-8.13441	3	0.0142856	11	-0.00114028
2	0	0	1	0	3655.32	0.13344	0.133158	-9.12059	3	0.0132774	11	-0.00121448
2	0	0	1	0	3655.44	0.126445	0.126087	-9.64442	3	0.0121776	11	-0.00121604
2	0	0	1	0	3655.55	0.119455	0.119141	-9.59783	3	0.0110491	11	-0.0011435
2	0	0	1	0	3655.67	0.112464	0.112166	-8.9464	3	0.0099624	11	-0.00100348
2	0	0	1	0	3655.79	0.105475	0.105143	-7.91095	3	0.00897904	11	-0.000831782
2	0	0	1	0	3655.9	0.0984778	0.0981572	-6.98069	3	0.00811368	11	-0.000685205
2	0	0	1	0	3656.02	0.0914889	0.0911457	-6.35541	3	0.00734015	11	-0.000579268
2	0	0	1	0	3656.14	0.0844987	0.0842034	-5.95425	3	0.00662421	11	-0.000501368
2	0	0	1	0	3656.25	0.0775071	0.0772012	-5.65695	3	0.00594757	11	-0.000436723
2	0	0	1	0	3656.37	0.0705129	0.0702031	-5.36793	3	0.00530424	11	-0.000376845
2	0	0	1	0	3656.49	0.0635227	0.0632206	-5.05437	3	0.00469699	11	-0.00031954
2	0	0	1	0	3656.6	0.0565325	0.0561966	-4.69641	3	0.00412911	11	-0.000263922
2	0	0	1	0	3656.72	0.0495369	0.0492125	-4.38431	3	0.00359937	11	-0.000215762
2	0	0	1	0	3656.84	0.0425454	0.0422595	-4.14901	3	0.00310217	11	-0.000175335
2	0	0	1	0	3656.95	0.0355565	0.0352498	-3.99801	3	0.00262727	11	-0.000140929
2	0	0	1	0	3657.07	0.0285676	0.0282399	-3.91889	3	0.00216601	11	-0.000110669
2	0	0	1	0	3657.19	0.0215761	0.0212565	-3.89195	3	0.00171115	11	-8.27292e-05
2	0	0	1	0	3657.3	0.0145805	0.0142744	-3.91012	3	0.00125707	11	-5.58146e-05
2	0	0	1	0	3657.42	0.00759027	0.00725259	-3.93679	3	0.000800492	11	-2.85519e-05
2	0	0	1	0	3657.54	0.000600062	0.000191324	-4.0221	3	0.000336856	11	-7.69522e-07
2	1	0	1	0	4879.26	0.00529169	0.00500262	1.93832	4	1.38842e-05	11	9.69665e-06
2	1	0	1	0	4879.38	0.0122859	0.0120077	2.44257	4	0.000280256	11	2.93296e-05
2	1	0	1	0	4879.5	0.0192761	0.0189865	2.58483	4	0.000574737	11	4.90769e-05
2	1	0	1	0	4879.61	0.0262663	0.0259948	2.6915	4	0.000883178	11	6.99649e-05
2	1	0	1	0	4879.73	0.033262	0.0329606	2.80442	4	0.00120484	11	9.24356e-05
2	1	0	1	0	4879.85	0.0402534	0.039976	2.94217	4	0.00153999	11	0.000117616
2	1	0	1	0	4879.96	0.0472424	0.0469921	3.11436	4	0.00189277	11	0.000146351
2	1	0	1	0	4880.08	0.0542313	0.0539693	3.32842	4	0.00226743	11	0.000179632
2	1	0	1	0	4880.19	0.0612228	0.0609341	3.5885	4	0.00267042	11	0.000218662
2	1	0	1	0	4880.31	0.0682184	0.0679425	3.89637	4	0.00310743	11	0.000264729
2	1	0	1	0	4880.43	0.0752086	0.0749214	4.22785	4	0.00358115	11	0.000316756
2	1	0	1	0	4880.54	0.0821988	0.0819482	4.55049	4	0.00409276	11	0.000372904
2	1	0	1	0	4880.66	0.089193	0.0889151	4.83588	4	0.00464083	11	0.000429983
2	1	0	1	0	4880.78	0.0961859	0.0959114	5.12524	4	0.00522216	11	0.000491569
2	1	0	1	0	4880.89	0.103175	0.102903	5.42697	4	0.00583769	11	0.00055845
2	1	0	1	0	4881.01	0.110164	0.109861	5.83692	4	0.00649374	11	0.000641252
2	1	0	1	0	4881.13	0.117161	0.116888	6.39458	4	0.00720592	11	0.00074745
2	1	0	1	0	4881.24	0.124151	0.123871	7.12047	4	0.00799234	11	0.000882017
2	1	0	1	0	4881.36	0.131141	0.130872	7.91745	4	0.00886783	11	0.00103617
2	1	0	1	0	4881.48	0.138131	0.137873	8.64277	4	0.0098337	11	0.00119161
2	1	0	1	0	4881.59	0.145125	0.144858	9.18846	4	0.0108766	11	0.00133102
2	1	0	1	0	4881.71	0.152117	0.151814	9.34003	4	0.0119614	11	0.00141795
2	1	0	1	0	4881.83	0.159107	0.15885	8.78509	4	0.0130258	11	0.00139551
2	1	0	1	0	4881.94	0.166096	0.165818	7.36922	4	0.0139741	11	0.00122195
2	1	0	1	0	4882.06	0.173093	0.17281	5.70971	4	0.0147341	11	0.000986694
2	1	0	1	0	4882.18	0.180082	0.179803	4.60676	4	0.01533	11	0.000828309
2	1	0	1	0	4882.29	0.187072	0.186762	3.98378	4	0.0158284	11	0.000744019
2	1	0	1	0	4882.41	0.194064	0.193749	3.56891	4	0.0162669	11	0.000691471
2	1	0	1	0	4882.53	0.201058	0.200752	3.27067	4	0.0166646	11	0.000656593
2	1	0	1	0	4882.64	0.208048	0.20777	3.0716	4	0.0170331	11	0.000638186
2	1	0	1	0	4882.76	0.215038	0.214749	2.91119	4	0.0173811	11	0.000625175
2	1	0	1	0	4882.87	0.222034	0.221769	2.80287	4	0.0177148	11	0.000621591
2	1	0	1	0	4882.99	0.229025	0.228735	2.73154	4	0.0180376	11	0.000624798
2	1	0	1	0	4883.11	0.236014	0.235781	2.65999	4	0.0183522	11	0.000627176
2	1	0	1	0	4883.22	0.243003	0.242719	2.61831	4	0.0186603	11	0.000635514
2	1	0	1	0	4883.34	0.249995	0.249705	2.57451	4	0.0189632	11	0.000642868
2	1	0	1	0	4883.46	0.25699	0.25671	2.53119	4	0.0192617	11	0.000649782
2	1	0	1	0	4883.57	0.26398	0.263714	2.50468	4	0.0195561	11	0.00066052
2	1	0	1	0	4883.69	0.270971	0.270703	2.48121	4	0.0198466	11	0.000671671
2	1	0	1	0	4883.81	0.277965	0.277694	2.44864	4	0.020134	11	0.000679971
2	1	0	1	0	4883.92	0.284958	0.284688	2.42778	4	0.0204177	11	0.000691159
2	1	0	1	0	4884.04	0.291947	0.291675	2.38923	4	0.0206984	11	0.00069688
2	1	0	1	0	4884.16	0.298936	0.298676	2.3653	4	0.020976	11	0.000706459
2	0	0	1	0	4884.26	0.294745	0.29441	-0.82208	4	0.0209983	11	-0.000242029
2	0	0	1	0	4884.38	0.287754	0.287459	-1.07151	4	0.0208865	11	-0.000308013
2	0	0	1	0	4884.49	0.280758	0.280442	-1.22944	4	0.020752	11	-0.000344786
2	0	0	1	0	4884.61	0.273769	0.273461	-1.3359	4	0.0206019	11	-0.000365315
2	0	0	1	0	4884.73	0.26678	0.266501	-1.43611	4	0.0204391	11	-0.000382725
2	0	0	1	0	4884.84	0.259787	0.259487	-1.52847	4	0.0202655	11	-0.000396617
2	0	0	1	0	4884.96	0.252793	0.25248	-1.6096	4	0.0200819	11	-0.000406392
2	0	0	1	0	4885.08	0.245802	0.245508	-1.69233	4	0.0198893	11	-0.00041548
2	0	0	1	0	4885.19	0.238812	0.238496	-1.7663	4	0.019688	11	-0.000421255
2	0	0	1	0	4885.31	0.231817	0.231525	-1.83765	4	0.0194779	11	-0.000425462
2	0	0	1	0	4885.43	0.224825	0.224566	-1.91172	4	0.019259	11	-0.000429309
2	0	0	1	0	4885.54	0.217836	0.217505	-1.99882	4	0.0190305	11	-0.000434754
2	0	0	1	0	4885.66	0.210847	0.210565	-2.09817	4	0.0187917	11	-0.000441801
2	0	0	1	0	4885.78	0.203856	0.20357	-2.21523	4	0.0185404	11	-0.000450954
2	0	0	1	0	4885.89	0.19686	0.19654	-2.3417	4	0.0182748	11	-0.000460239
2	0	0	1	0	4886.01	0.18987	0.189548	-2.51494	4	0.0179912	11	-0.000476702
2	0	0	1	0	4886.13	0.18288	0.182576	-2.75134	4	0.0176841	11	-0.000502327
2	0	0	1	0	4886.24	0.175886	0.175549	-3.07317	4	0.0173444	11	-0.000539493
2	0	0	1	0	4886.36	0.168894	0.168554	-3.54433	4	0.0169602	11	-0.000597413
2	0	0	1	0	4886.48	0.161904	0.161593	-4.21718	4	0.0165106	11	-0.000681468
2	0	0	1	0	4886.59	0.154915	0.154604	-5.16136	4	0.0159674	11	-0.000797966
2	0	0	1	0	4886.71	0.147918	0.147646	-6.33325	4	0.0152986	11	-0.000935082
2	0	0	1	0	4886.83	0.140929	0.140653	-7.57233	4	0.0144866	11	-0.00106507
2	0	0	1	0	4886.94	0.133938	0.133665	-8.61064	4	0.0135405	11	-0.00115094
2	0	0	1	0	4887.06	0.126947	0.126659	-9.25497	4	0.0124952	11	-0.00117223
2	0	0	1	0	4887.17	0.119953	0.119671	-9.37278	4	0.0114037	11	-0.00112165
2	0	0	1	0	4887.29	0.112963	0.112707	-8.96875	4	0.0103295	11	-0.00101084
2	0	0	1	0	4887.41	0.105973	0.105701	-8.14427	4	0.00932896	11	-0.000860858
2	0	0	1	0	4887.52	0.0989825	0.0986909	-7.26643	4	0.00843124	11	-0.00071713
2	0	0	1	0	4887.64	0.0919857	0.0916929	-6.61281	4	0.00762444	11	-0.000606348
2	0	0	1	0	4887.76	0.0849967	0.0847048	-6.18792	4	0.00688038	11	-0.000524146
2	0	0	1	0	4887.87	0.0780078	0.0776973	-5.88867	4	0.00617782	11	-0.000457534
2	0	0	1	0	4887.99	0.071015	0.0707138	-5.60921	4	0.005508	11	-0.000396649
2	0	0	1	0	4888.11	0.0640207	0.0636835	-5.31114	4	0.00487039	11	-0.000338232
2	0	0	1	0	4888.22	0.0570305	0.0566953	-4.97369	4	0.00427045	11	-0.000281985
2	0	0	1	0	4888.34	0.0500403	0.0497327	-4.62694	4	0.0037108	11	-0.00023011
2	0	0	1	0	4888.46	0.0430447	0.042722	-4.33494	4	0.00318851	11	-0.000185197
2	0	0	1	0	4888.57	0.0360532	0.0357557	-4.12684	4	0.00269595	11	-0.000147558
2	0	0	1	0	4888.69	0.0290643	0.0287555	-3.98992	4	0.00222298	11	-0.000114732
2	0	0	1	0	4888.81	0.0220754	0.0217572	-3.93041	4	0.00176105	11	-8.55147e-05
2	0	0	1	0	4888.92	0.0150839	0.0147805	-3.92219	4	0.00130361	11	-5.79719e-05
2	0	0	1	0	4889.04	0.00808831	0.00775506	-3.95001	4	0.000845017	11	-3.06326e-05
2	0	0	1	0	4889.16	0.00109811	0.000769937	-4.0394	4	0.000381713	11	-3.11008e-06
2	1	0	1	0	6110.88	0.00479233	0.00449096	1.70893	5	-1.13993e-05	11	7.67473e-06
2	1	0	1	0	6111	0.0117838	0.0115109	2.42457	5	0.000243914	11	2.79089e-05
2	1	0	1	0	6111.12	0.0187781	0.0184672	2.59227	5	0.000537678	11	4.78718e-05
2	1	0	1	0	6111.23	0.0257683	0.0254948	2.71895	5	0.000847729	11	6.93191e-05
2	1	0	1	0	6111.35	0.0327585	0.0324566	2.83859	5	0.00117235	11	9.21312e-05
2	1	0	1	0	6111.47	0.0397541	0.0394668	2.98955	5	0.00151308	11	0.000117988
2	1	0	1	0	6111.58	0.0467456	0.046419	3.18367	5	0.00187302	11	0.000147783
2	1	0	1	0	6111.7	0.0537345	0.0534932	3.42889	5	0.00225726	11	0.000183422
2	1	0	1	0	6111.81	0.0607234	0.0604557	3.69833	5	0.00267169	11	0.000223585
2	1	0	1	0	6111.93	0.0677149	0.0674726	4.01459	5	0.00312087	11	0.000270875
2	1	0	1	0	6112.05	0.0747105	0.0744567	4.33093	5	0.00360803	11	0.000322467
2	1	0	1	0	6112.16	0.0817007	0.0814382	4.6446	5	0.00413184	11	0.000378248
2	1	0	1	0	6112.28	0.0886909	0.088409	4.92092	5	0.00468997	11	0.000435054
2	1	0	1	0	6112.4	0.0956852	0.0953896	5.1987	5	0.0052807	11	0.000495902
2	1	0	1	0	6112.51	0.102677	0.102412	5.49253	5	0.00590364	11	0.000562501
2	1	0	1	0	6112.63	0.109667	0.109389	5.88597	5	0.00656603	11	0.000643858
2	1	0	1	0	6112.75	0.116656	0.116351	6.42187	5	0.00728243	11	0.000747194
2	1	0	1	0	6112.86	0.123653	0.123345	7.10331	5	0.00807116	11	0.00087616
2	1	0	1	0	6112.98	0.130642	0.13036	7.82534	5	0.00894146	11	0.00102011
2	1	0	1	0	6113.1	0.137633	0.137373	8.49033	5	0.00989289	11	0.00116634
2	1	0	1	0	6113.21	0.144623	0.144308	8.97866	5	0.0109119	11	0.00129569
2	1	0	1	0	6113.33	0.151618	0.151338	9.09359	5	0.01197	11	0.00137621
2	1	0	1	0	6113.45	0.158608	0.158358	8.5622	5	0.013007	11	0.00135589
2	1	0	1	0	6113.56	0.165599	0.165312	7.19562	5	0.0139326	11	0.00118952
2	1	0	1	0	6113.68	0.172588	0.172321	5.628	5	0.0146779	11	0.00096982
2	1	0	1	0	6113.8	0.179585	0.179313	4.56403	5	0.0152666	11	0.00081839
2	1	0	1	0	6113.91	0.186574	0.186307	3.93181	5	0.015759	11	0.000732523
2	1	0	1	0	6114.03	0.193564	0.193267	3.51314	5	0.0161914	11	0.000678975
2	1	0	1	0	6114.15	0.200556	0.200277	3.22081	5	0.0165832	11	0.000645056
2	1	0	1	0	6114.26	0.20755	0.207298	3.0317	5	0.0169474	11	0.000628464
2	1	0	1	0	6114.38	0.21454	0.214303	2.88586	5	0.017292	11	0.000618446
2	1	0	1	0	6114.49	0.22153	0.221265	2.79728	5	0.0176227	11	0.000618939
2	1	0	1	0	6114.61	0.228526	0.228209	2.71752	5	0.0179438	11	0.000620162
2	1	0	1	0	6114.73	0.235517	0.235249	2.65348	5	0.018257	11	0.000624228
2	1	0	1	0	6114.84	0.242506	0.242211	2.59651	5	0.0185639	11	0.000628902
2	1	0	1	0	6114.96	0.249495	0.249186	2.56304	5	0.018866	11	0.000638674
2	1	0	1	0	6115.08	0.256487	0.256221	2.53317	5	0.0191635	11	0.000649052
2	1	0	1	0	6115.19	0.263482	0.263189	2.50411	5	0.0194575	11	0.000659054
2	1	0	1	0	6115.31	0.270473	0.270233	2.47464	5	0.0197475	11	0.000668727
2	1	0	1	0	6115.43	0.277463	0.277169	2.44144	5	0.0200342	11	0.000676692
2	1	0	1	0	6115.54	0.284457	0.284177	2.41113	5	0.0203178	11	0.000685187
2	1	0	1	0	6115.66	0.291449	0.291169	2.38815	5	0.0205981	11	0.000695355
2	1	0	1	0	6115.78	0.298439	0.298157	2.36435	5	0.0208753	11	0.000704945
2	0	0	1	0	6115.88	0.295243	0.294895	-0.794715	5	0.0209274	11	-0.000234357
2	0	0	1	0	6116	0.288253	0.287939	-1.06456	5	0.0208172	11	-0.000306529
2	0	0	1	0	6116.11	0.281262	0.280933	-1.22562	5	0.0206828	11	-0.000344318
2	0	0	1	0	6116.23	0.274265	0.273931	-1.34787	5	0.020532	11	-0.000369224
2	0	0	1	0	6116.35	0.267277	0.267023	-1.43806	5	0.0203685	11	-0.000383995
2	0	0	1	0	6116.46	0.260288	0.259952	-1.53737	5	0.0201943	11	-0.000399642
2	0	0	1	0	6116.58	0.253296	0.252986	-1.61635	5	0.0200103	11	-0.000408914
2	0	0	1	0	6116.7	0.246301	0.246012	-1.68594	5	0.0198174	11	-0.000414761
2	0	0	1	0	6116.81	0.23931	0.23902	-1.76077	5	0.0196159	11	-0.00042086
2	0	0	1	0	6116.93	0.23232	0.231987	-1.8314	5	0.0194062	11	-0.000424861
2	0	0	1	0	6117.05	0.225326	0.225012	-1.90614	5	0.0191877	11	-0.000428906
2	0	0	1	0	6117.16	0.218333	0.217975	-1.99609	5	0.0189604	11	-0.000435098
2	0	0	1	0	6117.28	0.211344	0.21105	-2.08217	5	0.0187234	11	-0.000439442
2	0	0	1	0	6117.4	0.204355	0.204042	-2.18576	5	0.018475	11	-0.000445986
2	0	0	1	0	6117.51	0.197358	0.197007	-2.29832	5	0.0182135	11	-0.000452785
2	0	0	1	0	6117.63	0.190368	0.190083	-2.44505	5	0.017936	11	-0.000464763
2	0	0	1	0	6117.75	0.183378	0.183041	-2.66449	5	0.0176376	11	-0.000487711
2	0	0	1	0	6117.86	0.176388	0.176028	-2.95199	5	0.0173108	11	-0.000519633
2	0	0	1	0	6117.98	0.169393	0.169076	-3.35771	5	0.0169443	11	-0.000567709
2	0	0	1	0	6118.1	0.162402	0.162137	-3.94308	5	0.0165206	11	-0.000639319
2	0	0	1	0	6118.21	0.155412	0.155085	-4.79836	5	0.0160138	11	-0.000744151
2	0	0	1	0	6118.33	0.148423	0.148114	-5.88152	5	0.0153926	11	-0.000871136
2	0	0	1	0	6118.45	0.141426	0.141146	-7.10964	5	0.0146342	11	-0.0010035
2	0	0	1	0	6118.56	0.134437	0.134131	-8.16607	5	0.013742	11	-0.00109532
2	0	0	1	0	6118.68	0.127447	0.127164	-8.89957	5	0.0127441	11	-0.00113171
2	0	0	1	0	6118.79	0.120455	0.120127	-9.14924	5	0.011688	11	-0.00109907
2	0	0	1	0	6118.91	0.113461	0.113164	-8.94105	5	0.0106277	11	-0.0010118
2	0	0	1	0	6119.03	0.106471	0.106206	-8.322	5	0.00961751	11	-0.000883842
2	0	0	1	0	6119.14	0.0994806	0.0991799	-7.53109	5	0.00869254	11	-0.000746933
2	0	0	1	0	6119.26	0.0924903	0.0921743	-6.84824	5	0.0078567	11	-0.000631232
2	0	0	1	0	6119.38	0.0854935	0.0851741	-6.37763	5	0.00708751	11	-0.000543209
2	0	0	1	0	6119.49	0.0785046	0.078244	-6.05283	5	0.00636457	11	-0.000473598
2	0	0	1	0	6119.61	0.0715157	0.0711898	-5.7809	5	0.00567514	11	-0.000411541
2	0	0	1	0	6119.73	0.0645242	0.0642174	-5.50794	5	0.00501672	11	-0.000353706
2	0	0	1	0	6119.84	0.0575286	0.0571933	-5.19256	5	0.00439206	11	-0.000296979
2	0	0	1	0	6119.96	0.0505384	0.0502144	-4.84564	5	0.00380726	11	-0.000243321
2	0	0	1	0	6120.08	0.0435482	0.0432711	-4.50591	5	0.00326297	11	-0.000194976
2	0	0	1	0	6120.19	0.0365539	0.0362416	-4.2417	5	0.00275293	11	-0.000153726
2	0	0	1	0	6120.31	0.0295611	0.0292339	-4.07357	5	0.00226855	11	-0.000119086
2	0	0	1	0	6120.43	0.0225722	0.0222795	-3.97293	5	0.00179949	11	-8.85148e-05
2	0	0	1	0	6120.54	0.0155832	0.0152607	-3.94073	5	0.00133821	11	-6.01384e-05
2	0	0	1	0	6120.66	0.00858643	0.00824689	-3.95197	5	0.000878149	11	-3.25914e-05
2	0	0	1	0	6120.78	0.00159616	0.0012842	-4.03798	5	0.000415234	11	-5.18558e-06
2	1	0	1	0	7342.5	0.00429425	0.00398918	1.61774	6	-1.80684e-05	11	6.45345e-06
2	1	0	1	0	7342.62	0.0112832	0.0110058	2.44487	6	0.000238118	11	2.69076e-05
2	1	0	1	0	7342.74	0.018276	0.0179944	2.60719	6	0.000534591	11	4.69147e-05
2	1	0	1	0	7342.85	0.0252703	0.0250059	2.73513	6	0.000847172	11	6.83942e-05
2	1	0	1	0	7342.97	0.0322605	0.0319918	2.8809	6	0.0011747	11	9.21651e-05
2	1	0	1	0	7343.09	0.0392507	0.0389786	3.04239	6	0.00151948	11	0.000118588
2	1	0	1	0	7343.2	0.0462463	0.0459341	3.24332	6	0.00188622	11	0.000148979
2	1	0	1	0	7343.32	0.0532377	0.052974	3.49415	6	0.00227937	11	0.000185099
2	1	0	1	0	7343.43	0.0602267	0.0599586	3.79407	6	0.0027048	11	0.000227487
2	1	0	1	0	7343.55	0.0672156	0.0669419	4.12472	6	0.00316606	11	0.000276116
2	1	0	1	0	7343.67	0.0742124	0.0739389	4.44279	6	0.00366526	11	0.000328495
2	1	0	1	0	7343.78	0.0812027	0.0809126	4.73469	6	0.00419985	11	0.000383096
2	1	0	1	0	7343.9	0.0881929	0.0879018	4.99971	6	0.00476724	11	0.000439483
2	1	0	1	0	7344.02	0.0951831	0.0948585	5.25187	6	0.00536566	11	0.000498185
2	1	0	1	0	7344.13	0.102177	0.101872	5.55678	6	0.00599632	11	0.000566077
2	1	0	1	0	7344.25	0.109169	0.108905	5.96725	6	0.00666724	11	0.000649866
2	1	0	1	0	7344.37	0.116159	0.115886	6.52441	6	0.00739349	11	0.000756087
2	1	0	1	0	7344.48	0.123148	0.122855	7.17759	6	0.00819115	11	0.000881804
2	1	0	1	0	7344.6	0.130145	0.129859	7.83667	6	0.00906739	11	0.00101766
2	1	0	1	0	7344.72	0.137134	0.136833	8.40458	6	0.0100157	11	0.00115002
2	1	0	1	0	7344.83	0.144124	0.143815	8.82003	6	0.0110218	11	0.00126845
2	1	0	1	0	7344.95	0.151116	0.150844	8.86177	6	0.0120565	11	0.00133675
2	1	0	1	0	7345.07	0.15811	0.157841	8.20874	6	0.0130597	11	0.00129568
2	1	0	1	0	7345.18	0.1651	0.164808	6.74573	6	0.0139362	11	0.00111175
2	1	0	1	0	7345.3	0.17209	0.171821	5.19496	6	0.0146285	11	0.000892601
2	1	0	1	0	7345.42	0.17908	0.178788	4.23983	6	0.0151739	11	0.000758032
2	1	0	1	0	7345.53	0.186077	0.185794	3.69646	6	0.015635	11	0.00068678
2	1	0	1	0	7345.65	0.193066	0.192753	3.34295	6	0.0160439	11	0.000644365
2	1	0	1	0	7345.77	0.200055	0.199761	3.10615	6	0.0164188	11	0.000620486
2	1	0	1	0	7345.88	0.207048	0.206787	2.9524	6	0.0167702	11	0.000610516
2	1	0	1	0	7346	0.214042	0.213781	2.81959	6	0.0171061	11	0.000602777
2	1	0	1	0	7346.11	0.221032	0.220745	2.7318	6	0.0174301	11	0.000603031
2	1	0	1	0	7346.23	0.228023	0.227751	2.67113	6	0.0177456	11	0.000608352
2	1	0	1	0	7346.35	0.235018	0.234758	2.62651	6	0.0180547	11	0.000616593
2	1	0	1	0	7346.46	0.24201	0.241748	2.58535	6	0.0183581	11	0.000625001
2	1	0	1	0	7346.58	0.248999	0.248738	2.53483	6	0.0186569	11	0.000630506
2	1	0	1	0	7346.7	0.255988	0.255745	2.50425	6	0.0189516	11	0.000640451
2	1	0	1	0	7346.81	0.262984	0.262788	2.47736	6	0.019243	11	0.00065102
2	1	0	1	0	7346.93	0.269975	0.269695	2.44971	6	0.0195306	11	0.000660675
2	1	0	1	0	7347.05	0.276965	0.276701	2.42834	6	0.0198151	11	0.000671927
2	1	0	1	0	7347.16	0.283955	0.283702	2.40256	6	0.0200963	11	0.000681612
2	1	0	1	0	7347.28	0.290949	0.290659	2.37039	6	0.0203749	11	0.000688976
2	1	0	1	0	7347.4	0.297941	0.297688	2.34549	6	0.0206503	11	0.000698226
2	0	0	1	0	7347.5	0.295741	0.295488	-0.79616	6	0.0207243	11	-0.000235255
2	0	0	1	0	7347.62	0.288751	0.288417	-1.07859	6	0.0206127	11	-0.000311085
2	0	0	1	0	7347.73	0.28176	0.281469	-1.23039	6	0.0204781	11	-0.000346318
2	0	0	1	0	7347.85	0.274765	0.274468	-1.34681	6	0.0203277	11	-0.000369655
2	0	0	1	0	7347.97	0.267773	0.26747	-1.44105	6	0.0201648	11	-0.000385439
2	0	0	1	0	7348.08	0.260784	0.260522	-1.51249	6	0.0199914	11	-0.000394037
2	0	0	1	0	7348.2	0.253795	0.253479	-1.60055	6	0.0198085	11	-0.000405707
2	0	0	1	0	7348.32	0.246804	0.246513	-1.67976	6	0.019617	11	-0.000414083
2	0	0	1	0	7348.43	0.239808	0.239505	-1.74927	6	0.0194169	11	-0.000418958
2	0	0	1	0	7348.55	0.232818	0.232499	-1.81612	6	0.019209	11	-0.000422246
2	0	0	1	0	7348.67	0.225828	0.225519	-1.88801	6	0.0189929	11	-0.000425781
2	0	0	1	0	7348.78	0.218834	0.218557	-1.96002	6	0.018768	11	-0.000428377
2	0	0	1	0	7348.9	0.211842	0.211526	-2.0501	6	0.0185341	11	-0.000433649
2	0	0	1	0	7349.02	0.204852	0.204557	-2.15084	6	0.0182897	11	-0.000439969
2	0	0	1	0	7349.13	0.197863	0.197545	-2.25884	6	0.0180334	11	-0.000446224
2	0	0	1	0	7349.25	0.190866	0.190602	-2.39242	6	0.0177621	11	-0.000456002
2	0	0	1	0	7349.37	0.183877	0.183555	-2.56852	6	0.0174723	11	-0.000471465
2	0	0	1	0	7349.48	0.176886	0.176566	-2.82867	6	0.0171572	11	-0.000499446
2	0	0	1	0	7349.6	0.169896	0.169566	-3.19309	6	0.016807	11	-0.000541439
2	0	0	1	0	7349.72	0.162901	0.162602	-3.72164	6	0.0164054	11	-0.000605147
2	0	0	1	0	7349.83	0.155911	0.155587	-4.49761	6	0.0159293	11	-0.000699767
2	0	0	1	0	7349.95	0.14892	0.148623	-5.53115	6	0.0153469	11	-0.000822055
2	0	0	1	0	7350.07	0.141931	0.141632	-6.72958	6	0.0146327	11	-0.000953121
2	0	0	1	0	7350.18	0.134934	0.134596	-7.83698	6	0.0137807	11	-0.00105482
2	0	0	1	0	7350.3	0.127945	0.127623	-8.63149	6	0.0128177	11	-0.00110158
2	0	0	1	0	7350.42	0.120955	0.120661	-8.99131	6	0.0117868	11	-0.0010849
2	0	0	1	0	7350.53	0.113963	0.113644	-8.87455	6	0.0107417	11	-0.00100854
2	0	0	1	0	7350.65	0.106969	0.106675	-8.36679	6	0.00973232	11	-0.000892524
2	0	0	1	0	7350.76	0.0999786	0.0996633	-7.62261	6	0.00879891	11	-0.000759695
2	0	0	1	0	7350.88	0.0929884	0.0926781	-6.90801	6	0.0079533	11	-0.000640221
2	0	0	1	0	7351	0.0859928	0.0856666	-6.4122	6	0.00717811	11	-0.000549312
2	0	0	1	0	7351.11	0.0790014	0.078702	-6.08664	6	0.00645164	11	-0.00047903
2	0	0	1	0	7351.23	0.0720124	0.0717071	-5.82552	6	0.00575823	11	-0.000417732
2	0	0	1	0	7351.35	0.0650235	0.0647001	-5.58135	6	0.00509349	11	-0.000361114
2	0	0	1	0	7351.46	0.058032	0.0577337	-5.29126	6	0.00445949	11	-0.000305484
2	0	0	1	0	7351.58	0.0510364	0.0507152	-4.96071	6	0.00386092	11	-0.000251583
2	0	0	1	0	7351.7	0.0440462	0.0437106	-4.62124	6	0.00330305	11	-0.000201997
2	0	0	1	0	7351.81	0.037056	0.0366935	-4.32417	6	0.0027826	11	-0.000158669
2	0	0	1	0	7351.93	0.0300618	0.0297589	-4.11482	6	0.00229075	11	-0.000122452
2	0	0	1	0	7352.05	0.0230702	0.0227563	-3.9905	6	0.0018183	11	-9.0809e-05
2	0	0	1	0	7352.16	0.01608	0.0157681	-3.93391	6	0.00135621	11	-6.20303e-05
2	0	0	1	0	7352.28	0.00909108	0.00879088	-3.93262	6	0.00089749	11	-3.45712e-05
2	0	0	1	0	7352.4	0.00209427	0.00175444	-4.02982	6	0.00043698	11	-7.07009e-06
2	1	0	1	0	8574.12	0.00379748	0.00345145	1.19202	7	-4.53443e-05	11	4.11422e-06
2	1	0	1	0	8574.24	0.0107864	0.0105258	2.30965	7	0.00018281	11	2.4311e-05
2	1	0	1	0	8574.36	0.0177753	0.0174417	2.52551	7	0.000465774	11	4.40492e-05
2	1	0	1	0	8574.47	0.0247668	0.0244701	2.66678	7	0.00076907	11	6.52563e-05
2	1	0	1	0	8574.59	0.0317624	0.0314543	2.82483	7	0.00109063	11	8.88529e-05
2	1	0	1	0	8574.71	0.0387526	0.0384523	3.01494	7	0.00143162	11	0.000115932
2	1	0	1	0	8574.82	0.0457428	0.0454466	3.24334	7	0.00179643	11	0.000147399
2	1	0	1	0	8574.94	0.0527371	0.0524578	3.51047	7	0.00218993	11	0.000184152
2	1	0	1	0	8575.05	0.0597299	0.0594451	3.80532	7	0.00261612	11	0.000226207
2	1	0	1	0	8575.17	0.0667188	0.0664145	4.11706	7	0.00307786	11	0.000273432
2	1	0	1	0	8575.29	0.0737077	0.0734138	4.41967	7	0.00357595	11	0.000324465
2	1	0	1	0	8575.4	0.0807046	0.0804253	4.70181	7	0.00410855	11	0.000378144
2	1	0	1	0	8575.52	0.0876948	0.0873564	4.95858	7	0.00467181	11	0.000433163
2	1	0	1	0	8575.64	0.094685	0.0943656	5.21912	7	0.00526453	11	0.000492505
2	1	0	1	0	8575.75	0.101675	0.101402	5.49808	7	0.00588789	11	0.000557514
2	1	0	1	0	8575.87	0.10867	0.108367	5.88497	7	0.00655136	11	0.000637735
2	1	0	1	0	8575.99	0.11566	0.115395	6.40446	7	0.00726749	11	0.000739043
2	1	0	1	0	8576.1	0.122651	0.122385	7.01273	7	0.00805032	11	0.000858251
2	1	0	1	0	8576.22	0.12964	0.129343	7.60324	7	0.00890291	11	0.000983423
2	1	0	1	0	8576.34	0.136637	0.136372	8.10518	7	0.00981968	11	0.00110532
2	1	0	1	0	8576.45	0.143626	0.143338	8.45092	7	0.0107861	11	0.00121134
2	1	0	1	0	8576.57	0.150616	0.150329	8.48025	7	0.0117777	11	0.00127483
2	1	0	1	0	8576.69	0.157608	0.157318	7.86321	7	0.0127381	11	0.00123702
2	1	0	1	0	8576.8	0.164602	0.164289	6.49136	7	0.0135801	11	0.00106646
2	1	0	1	0	8576.92	0.171592	0.171311	5.07764	7	0.01425	11	0.000869855
2	1	0	1	0	8577.04	0.178582	0.178352	4.18397	7	0.0147853	11	0.000746217
2	1	0	1	0	8577.15	0.185578	0.185281	3.65975	7	0.0152409	11	0.000678083
2	1	0	1	0	8577.27	0.192569	0.192288	3.31344	7	0.0156464	11	0.000637135
2	1	0	1	0	8577.39	0.199558	0.1993	3.07966	7	0.0160191	11	0.000613778
2	1	0	1	0	8577.5	0.206547	0.206296	2.93392	7	0.0163696	11	0.000605256
2	1	0	1	0	8577.62	0.213539	0.213282	2.83115	7	0.0167053	11	0.000603835
2	1	0	1	0	8577.73	0.220534	0.220265	2.75247	7	0.0170301	11	0.000606272
2	1	0	1	0	8577.85	0.227525	0.22724	2.68163	7	0.0173465	11	0.000609373
2	1	0	1	0	8577.97	0.234515	0.234213	2.62982	7	0.0176565	11	0.00061594
2	1	0	1	0	8578.08	0.241509	0.241227	2.58762	7	0.0179615	11	0.000624204
2	1	0	1	0	8578.2	0.248502	0.24823	2.55299	7	0.0182618	11	0.000633728
2	1	0	1	0	8578.32	0.255491	0.255236	2.52214	7	0.0185578	11	0.000643742
2	1	0	1	0	8578.43	0.26248	0.262231	2.49338	7	0.0188503	11	0.000653843
2	1	0	1	0	8578.55	0.269477	0.269162	2.46045	7	0.0191395	11	0.000662258
2	1	0	1	0	8578.67	0.276467	0.276225	2.42944	7	0.0194253	11	0.000671072
2	1	0	1	0	8578.78	0.283457	0.283188	2.40789	7	0.0197078	11	0.000681886
2	1	0	1	0	8578.9	0.290447	0.290184	2.3865	7	0.0199873	11	0.000692523
2	1	0	1	0	8579.02	0.297441	0.297173	2.36429	7	0.020264	11	0.000702603
2	0	0	1	0	8579.12	0.296243	0.295931	-0.644827	7	0.0203719	11	-0.000190825
2	0	0	1	0	8579.24	0.289249	0.288962	-0.982878	7	0.0202721	11	-0.000284015
2	0	0	1	0	8579.36	0.282258	0.281932	-1.15714	7	0.0201459	11	-0.000326236
2	0	0	1	0	8579.47	0.275268	0.274934	-1.28874	7	0.0200026	11	-0.000354319
2	0	0	1	0	8579.59	0.268273	0.267958	-1.39754	7	0.0198457	11	-0.000374483
2	0	0	1	0	8579.7	0.261281	0.260971	-1.48617	7	0.019678	11	-0.000387847
2	0	0	1	0	8579.82	0.254292	0.253972	-1.55568	7	0.0195005	11	-0.0003951
2	0	0	1	0	8579.94	0.247303	0.24698	-1.62467	7	0.0193142	11	-0.000401262
2	0	0	1	0	8580.05	0.240312	0.239988	-1.69898	7	0.0191194	11	-0.000407736
2	0	0	1	0	8580.17	0.233316	0.232987	-1.77077	7	0.0189165	11	-0.000412567
2	0	0	1	0	8580.29	0.226326	0.226062	-1.84779	7	0.0187055	11	-0.000417714
2	0	0	1	0	8580.4	0.219336	0.219025	-1.92437	7	0.0184863	11	-0.000421484
2	0	0	1	0	8580.52	0.212342	0.21206	-1.9941	7	0.0182581	11	-0.000422867
2	0	0	1	0	8580.64	0.20535	0.205031	-2.08628	7	0.0180202	11	-0.000427753
2	0	0	1	0	8580.75	0.19836	0.198048	-2.18067	7	0.0177714	11	-0.000431877
2	0	0	1	0	8580.87	0.191371	0.191065	-2.3149	7	0.0175093	11	-0.000442295
2	0	0	1	0	8580.99	0.184374	0.184064	-2.47474	7	0.0172305	11	-0.00045551
2	0	0	1	0	8581.1	0.177385	0.177097	-2.68478	7	0.01693	11	-0.000475467
2	0	0	1	0	8581.22	0.170395	0.170063	-2.99065	7	0.0165994	11	-0.000508601
2	0	0	1	0	8581.34	0.163403	0.163096	-3.43934	7	0.0162255	11	-0.000560942
2	0	0	1	0	8581.45	0.156409	0.156083	-4.10216	7	0.0157874	11	-0.000640277
2	0	0	1	0	8581.57	0.149419	0.149094	-5.0312	7	0.0152571	11	-0.00075012
2	0	0	1	0	8581.69	0.142429	0.142168	-6.13324	7	0.014607	11	-0.000871951
2	0	0	1	0	8581.8	0.135438	0.135128	-7.23811	7	0.013826	11	-0.000978071
2	0	0	1	0	8581.92	0.128442	0.12815	-8.07487	7	0.0129299	11	-0.0010348
2	0	0	1	0	8582.04	0.121453	0.121198	-8.53828	7	0.0119577	11	-0.00103482
2	0	0	1	0	8582.15	0.114464	0.11412	-8.59132	7	0.0109556	11	-0.000980443
2	0	0	1	0	8582.27	0.107471	0.107175	-8.27285	7	0.00996965	11	-0.000886645
2	0	0	1	0	8582.38	0.100477	0.100163	-7.69243	7	0.00903674	11	-0.000770501
2	0	0	1	0	8582.5	0.0934865	0.0931842	-7.04005	7	0.00817913	11	-0.000656021
2	0	0	1	0	8582.62	0.0864963	0.0861673	-6.51763	7	0.00739043	11	-0.000561607
2	0	0	1	0	8582.73	0.0795007	0.0791984	-6.1652	7	0.0066513	11	-0.000488274
2	0	0	1	0	8582.85	0.0725092	0.0722007	-5.91329	7	0.00594739	11	-0.000426944
2	0	0	1	0	8582.97	0.0655203	0.0651914	-5.69295	7	0.00527129	11	-0.000371131
2	0	0	1	0	8583.08	0.0585314	0.0582423	-5.44093	7	0.00462275	11	-0.000316893
2	0	0	1	0	8583.2	0.0515399	0.0512331	-5.14698	7	0.00400604	11	-0.000263696
2	0	0	1	0	8583.32	0.0445443	0.0442015	-4.80571	7	0.00342565	11	-0.00021242
2	0	0	1	0	8583.43	0.0375541	0.0372443	-4.48735	7	0.00288399	11	-0.000167128
2	0	0	1	0	8583.55	0.0305639	0.0302582	-4.23581	7	0.00237555	11	-0.000128168
2	0	0	1	0	8583.67	0.0235696	0.0232614	-4.07807	7	0.00189062	11	-9.48618e-05
2	0	0	1	0	8583.78	0.0165781	0.0162342	-3.99369	7	0.00142089	11	-6.48343e-05
2	0	0	1	0	8583.9	0.00958785	0.00930294	-3.95229	7	0.000958314	11	-3.67679e-05
2	0	0	1	0	8584.02	0.00259893	0.0022919	-3.95906	7	0.000497235	11	-9.07376e-06
2	1	0	1	0	9805.74	0.00329815	0.00296827	1.021	8	-4.83808e-05	11	3.03061e-06
2	1	0	1	0	9805.86	0.0102896	0.00999464	2.39509	8	0.000181814	11	2.39381e-05
2	1	0	1	0	9805.98	0.0172786	0.0169985	2.6115	8	0.000475076	11	4.43916e-05
2	1	0	1	0	9806.09	0.0242675	0.0239922	2.76001	8	0.000788321	11	6.62185e-05
2	1	0	1	0	9806.21	0.031259	0.0309629	2.91538	8	0.0011198	11	9.02688e-05
2	1	0	1	0	9806.33	0.0382546	0.0379329	3.113	8	0.00147223	11	0.000118085
2	1	0	1	0	9806.44	0.0452448	0.0449701	3.34875	8	0.0018493	11	0.000150594
2	1	0	1	0	9806.56	0.052235	0.0519066	3.62571	8	0.00225553	11	0.000188198
2	1	0	1	0	9806.67	0.0592292	0.0589534	3.91955	8	0.00269557	11	0.000231071
2	1	0	1	0	9806.79	0.0662207	0.0659431	4.22554	8	0.00317034	11	0.000278645
2	1	0	1	0	9806.91	0.073211	0.0729068	4.51085	8	0.00368043	11	0.000328872
2	1	0	1	0	9807.02	0.0801999	0.0799529	4.78963	8	0.00422307	11	0.000382945
2	1	0	1	0	9807.14	0.0871967	0.0868751	5.04061	8	0.00479624	11	0.000437903
2	1	0	1	0	9807.26	0.0941856	0.0938892	5.29182	8	0.00539791	11	0.000496844
2	1	0	1	0	9807.37	0.101177	0.100893	5.58751	8	0.00603053	11	0.000563741
2	1	0	1	0	9807.49	0.108167	0.107902	5.97871	8	0.00670388	11	0.000645114
2	1	0	1	0	9807.61	0.115162	0.114857	6.50735	8	0.0074323	11	0.000747413
2	1	0	1	0	9807.72	0.122152	0.121892	7.09913	8	0.00822616	11	0.000865327
2	1	0	1	0	9807.84	0.129143	0.12885	7.64203	8	0.00908608	11	0.000984672
2	1	0	1	0	9807.96	0.136132	0.135842	8.10309	8	0.0100046	11	0.00110074
2	1	0	1	0	9808.07	0.143129	0.142877	8.42344	8	0.0109699	11	0.00120351
2	1	0	1	0	9808.19	0.150118	0.149826	8.38661	8	0.0119546	11	0.00125653
2	1	0	1	0	9808.31	0.157107	0.156846	7.6798	8	0.0128994	11	0.00120455
2	1	0	1	0	9808.42	0.1641	0.163811	6.2682	8	0.0137161	11	0.0010268
2	1	0	1	0	9808.54	0.171094	0.170827	4.90716	8	0.0143625	11	0.000838277
2	1	0	1	0	9808.66	0.178084	0.177775	4.05538	8	0.01488	11	0.000720947
2	1	0	1	0	9808.77	0.185074	0.184785	3.54788	8	0.0153216	11	0.000655595
2	1	0	1	0	9808.89	0.19207	0.191767	3.22445	8	0.0157163	11	0.000618342
2	1	0	1	0	9809.01	0.199062	0.198779	3.01891	8	0.0160803	11	0.000600097
2	1	0	1	0	9809.12	0.20605	0.205801	2.88142	8	0.0164241	11	0.000593
2	1	0	1	0	9809.24	0.213039	0.212732	2.78859	8	0.0167546	11	0.000593224
2	1	0	1	0	9809.35	0.220031	0.219789	2.721	8	0.017075	11	0.000598046
2	1	0	1	0	9809.47	0.227026	0.226738	2.65501	8	0.0173884	11	0.000601993
2	1	0	1	0	9809.59	0.234017	0.233726	2.60935	8	0.0176956	11	0.000609874
2	1	0	1	0	9809.7	0.241007	0.240718	2.57177	8	0.017998	11	0.00061907
2	1	0	1	0	9809.82	0.248001	0.24773	2.5397	8	0.0182965	11	0.000629159
2	1	0	1	0	9809.94	0.254993	0.254753	2.50824	8	0.0185909	11	0.00063898
2	1	0	1	0	9810.05	0.261983	0.261665	2.47672	8	0.0188819	11	0.000648072
2	1	0	1	0	9810.17	0.268972	0.268713	2.44759	8	0.0191696	11	0.000657698
2	1	0	1	0	9810.29	0.275969	0.275722	2.42195	8	0.0194546	11	0.000667784
2	1	0	1	0	9810.4	0.282958	0.282696	2.40253	8	0.0197362	11	0.000679185
2	1	0	1	0	9810.52	0.289949	0.289726	2.38246	8	0.0200149	11	0.00069026
2	1	0	1	0	9810.64	0.296939	0.296658	2.35725	8	0.0202907	11	0.000699297
2	0	0	1	0	9810.74	0.296744	0.296466	-0.645255	8	0.0204202	11	-0.000191296
2	0	0	1	0	9810.86	0.289752	0.289413	-1.02966	8	0.0203153	11	-0.000297997
2	0	0	1	0	9810.98	0.282756	0.282406	-1.19783	8	0.0201843	11	-0.000338275
2	0	0	1	0	9811.09	0.275766	0.275495	-1.3234	8	0.0200369	11	-0.000364589
2	0	0	1	0	9811.21	0.268776	0.268442	-1.42783	8	0.0198766	11	-0.000383288
2	0	0	1	0	9811.32	0.261782	0.261477	-1.51027	8	0.0197054	11	-0.000394902
2	0	0	1	0	9811.44	0.254789	0.254468	-1.5818	8	0.0195247	11	-0.000402518
2	0	0	1	0	9811.56	0.2478	0.247456	-1.64543	8	0.0193355	11	-0.000407171
2	0	0	1	0	9811.67	0.240811	0.24053	-1.71916	8	0.0191381	11	-0.000413509
2	0	0	1	0	9811.79	0.233814	0.233496	-1.79608	8	0.0189327	11	-0.000419377
2	0	0	1	0	9811.91	0.226824	0.226517	-1.86468	8	0.0187195	11	-0.000422382
2	0	0	1	0	9812.02	0.219834	0.219559	-1.93512	8	0.0184985	11	-0.000424873
2	0	0	1	0	9812.14	0.212844	0.212527	-2.00071	8	0.0182688	11	-0.000425204
2	0	0	1	0	9812.26	0.205849	0.205519	-2.09386	8	0.0180296	11	-0.000430328
2	0	0	1	0	9812.37	0.198858	0.198548	-2.18922	8	0.0177802	11	-0.000434666
2	0	0	1	0	9812.49	0.191868	0.19155	-2.31006	8	0.0175185	11	-0.000442492
2	0	0	1	0	9812.61	0.184879	0.184543	-2.46019	8	0.0172413	11	-0.000454012
2	0	0	1	0	9812.72	0.177882	0.177545	-2.64757	8	0.0169438	11	-0.000470064
2	0	0	1	0	9812.84	0.170893	0.170605	-2.92026	8	0.016619	11	-0.00049821
2	0	0	1	0	9812.96	0.163903	0.16361	-3.33627	8	0.0162545	11	-0.000545847
2	0	0	1	0	9813.07	0.156911	0.156612	-3.94949	8	0.0158321	11	-0.000618538
2	0	0	1	0	9813.19	0.149917	0.14962	-4.8191	8	0.0153233	11	-0.000721035
2	0	0	1	0	9813.31	0.142927	0.142615	-5.89722	8	0.0146999	11	-0.000841029
2	0	0	1	0	9813.42	0.135937	0.135601	-7.03397	8	0.0139444	11	-0.000953813
2	0	0	1	0	9813.54	0.128941	0.128605	-7.94147	8	0.0130672	11	-0.00102131
2	0	0	1	0	9813.66	0.121949	0.121646	-8.49285	8	0.0121052	11	-0.00103312
2	0	0	1	0	9813.77	0.114961	0.114625	-8.61919	8	0.0111047	11	-0.000987974
2	0	0	1	0	9813.89	0.107972	0.107689	-8.36736	8	0.0101124	11	-0.000901069
2	0	0	1	0	9814	0.10098	0.100609	-7.82162	8	0.00916688	11	-0.000786929
2	0	0	1	0	9814.12	0.0939845	0.0937071	-7.1686	8	0.00829187	11	-0.000671749
2	0	0	1	0	9814.24	0.0869943	0.0866681	-6.60827	8	0.00748977	11	-0.000572727
2	0	0	1	0	9814.35	0.0800041	0.0797008	-6.22542	8	0.0067427	11	-0.000496171
2	0	0	1	0	9814.47	0.0730099	0.0726839	-5.96187	8	0.00603236	11	-0.000433332
2	0	0	1	0	9814.59	0.066017	0.0657005	-5.74358	8	0.00535118	11	-0.000377356
2	0	0	1	0	9814.7	0.0590281	0.0586957	-5.50042	8	0.00469627	11	-0.000322851
2	0	0	1	0	9814.82	0.0520392	0.0517042	-5.22188	8	0.00407094	11	-0.000269993
2	0	0	1	0	9814.94	0.0450424	0.0446974	-4.90588	8	0.00347951	11	-0.00021928
2	0	0	1	0	9815.05	0.0380521	0.0377157	-4.59042	8	0.0029263	11	-0.000173131
2	0	0	1	0	9815.17	0.0310619	0.0307272	-4.32512	8	0.00240784	11	-0.000132899
2	0	0	1	0	9815.29	0.0240717	0.0237667	-4.12729	8	0.0019161	11	-9.80921e-05
2	0	0	1	0	9815.4	0.0170775	0.0167315	-4.01672	8	0.00144121	11	-6.72058e-05
2	0	0	1	0	9815.52	0.0100859	0.00972164	-3.97035	8	0.000975604	11	-3.85983e-05
2	0	0	1	0	9815.64	0.0030957	0.00275341	-3.97229	8	0.000512667	11	-1.09373e-05
2	0	0	1	0	9815.69	-2.44065e-05	-0.000287149	-4.01882	8	0.000306716	11	1.154e-06