File: Figure_codes/Fig_3-5/rawdata_trumpetplot_data/before 10th/20221101_1-115_002_TrumpetPlot_ParaChange_12_CV_C01.mpt
EC-Lab ASCII FILE
Nb header lines : 68

Cyclic Voltammetry

Run on channel : 1 (SN 65296)
User :
CE vs. WE compliance from -10 V to 10 V
Electrode connection : standard
Potential control : Ewe
Ewe ctrl range : min = -1.00 V, max = 1.00 V
Safety Limits :
	Do not start on E overload
Acquisition started on : 11/08/2022 17:30:03.488
Loaded Setting File :  NONE
Saved on :
	File : 20221101_1-115_002_TrumpetPlot_ParaChange_12_CV_C01.mpr
	Directory : C:\Users\NakamuraT\Documents\EC-Lab\Data\Yatsuzuka\20221108_1-115_001_TrumpetPlot\
	Host : 192.109.209.100
Device : SP-50e (SN .003219)
Address : 192.109.209.128
EC-Lab for windows v11.43 (software)
Internet server v11.40 (firmware)
Command interpretor v11.40 (firmware)
Electrode material : Au/Pd
Initial state :
Electrolyte : NaCl (0.2M)
Comments : Fe(CN)63-/Fe(CN)64- 5.10-3 M
Reference electrode : SCE Saturated Calomel Electrode (0.241 V)
Electrode surface area : 0.001 cm2
Characteristic mass : 0.001 g
Equivalent Weight : 0.000 g/eq.
Density : 0.000 g/cm3
Volume (V) : 0.001 cm3
Cycle Definition : Charge/Discharge alternance
Ei (V)              0.000
vs.                 Ref
dE/dt               200.000
dE/dt unit          mV/s
E1 (V)              0.300
vs.                 Ref
Step percent        50
N                   10
E range min (V)     -1.000
E range max (V)     1.000
I Range             100 mA
I Range min         Unset
I Range max         Unset
I Range init        Unset
Bandwidth           5
E2 (V)              -0.100
vs.                 Ref
nc cycles           0
Reverse Scan        1
Ef (V)              0.000
vs.                 Ref

Number of loops : 8
Loop 0 from point number 0 to 1609
Loop 1 from point number 1610 to 3219
Loop 2 from point number 3220 to 4829
Loop 3 from point number 4830 to 6439
Loop 4 from point number 6440 to 8049
Loop 5 from point number 8050 to 9659
Loop 6 from point number 9660 to 11269
Loop 7 from point number 11270 to 12879

mode	ox/red	error	control changes	counter inc.	time/s	control/V	Ewe/V	<I>/mA	cycle number	(Q-Qo)/C	I Range	P/W
2	1	0	1	0	1210.09	2.44065e-05	-0.000287149	6.98028	1	0.0000000E+000	10	-2.00438e-06
2	1	0	1	0	1210.14	0.00929729	0.00901185	10.0596	1	0.000410755	10	9.06555e-05
2	1	0	1	0	1210.18	0.0187767	0.01848	10.5998	1	0.000905053	10	0.000195885
2	1	0	1	0	1210.23	0.0282562	0.0279317	10.621	1	0.00140835	10	0.000296663
2	1	0	1	0	1210.28	0.0377538	0.0374493	10.5591	1	0.00191122	10	0.00039543
2	1	0	1	0	1210.33	0.0472514	0.0469132	10.6275	1	0.00241452	10	0.000498569
2	1	0	1	0	1210.37	0.0567309	0.0564048	10.8431	1	0.00292319	10	0.0006116
2	1	0	1	0	1210.42	0.0662149	0.065945	11.2813	1	0.00344667	10	0.000743943
2	1	0	1	0	1210.47	0.0756989	0.0754062	11.9611	1	0.00399667	10	0.00090194
2	1	0	1	0	1210.52	0.0851965	0.0849306	12.8802	1	0.00458518	10	0.00109392
2	1	0	1	0	1210.56	0.0946941	0.0944024	13.993	1	0.00522293	10	0.00132097
2	1	0	1	0	1210.61	0.104174	0.103862	15.2402	1	0.00591536	10	0.00158288
2	1	0	1	0	1210.66	0.113653	0.113373	16.6871	1	0.00667139	10	0.00189188
2	1	0	1	0	1210.71	0.123151	0.12286	18.5203	1	0.00750596	10	0.0022754
2	1	0	1	0	1210.75	0.132639	0.132309	21.0688	1	0.00844146	10	0.00278759
2	1	0	1	0	1210.8	0.142137	0.141874	24.2508	1	0.00951561	10	0.00344056
2	1	0	1	0	1210.85	0.151616	0.151348	27.6894	1	0.0107475	10	0.00419073
2	1	0	1	0	1210.9	0.161096	0.160799	30.6395	1	0.0121336	10	0.00492679
2	1	0	1	0	1210.94	0.170593	0.170322	32.0233	1	0.0136309	10	0.00545426
2	1	0	1	0	1210.99	0.180091	0.17982	29.9006	1	0.0151201	10	0.00537672
2	1	0	1	0	1211.04	0.18957	0.189315	22.9865	1	0.0163885	10	0.00435169
2	1	0	1	0	1211.09	0.199059	0.198793	15.0869	1	0.017281	10	0.00299916
2	1	0	1	0	1211.13	0.208538	0.208303	10.9269	1	0.0178803	10	0.00227611
2	1	0	1	0	1211.18	0.218036	0.217692	9.56693	1	0.0183601	10	0.00208265
2	1	0	1	0	1211.23	0.227534	0.227205	9.07408	1	0.0188019	10	0.00206168
2	1	0	1	0	1211.28	0.237013	0.236735	8.73343	1	0.0192237	10	0.00206751
2	1	0	1	0	1211.32	0.246493	0.246191	8.46574	1	0.0196311	10	0.00208419
2	1	0	1	0	1211.37	0.25599	0.2557	8.24169	1	0.0200278	10	0.0021074
2	1	0	1	0	1211.42	0.265479	0.265182	8.08333	1	0.0204143	10	0.00214355
2	1	0	1	0	1211.47	0.274976	0.27469	7.90184	1	0.0207937	10	0.00217056
2	1	0	1	0	1211.51	0.284456	0.284186	7.77355	1	0.0211651	10	0.00220913
2	1	0	1	0	1211.56	0.293935	0.293655	7.62602	1	0.0215303	10	0.00223942
2	1	0	1	0	1211.6	0.29774	0.297527	1.45569	1	0.0218078	10	0.000433107
2	0	0	1	0	1211.65	0.28826	0.28797	-3.55085	1	0.0217049	10	-0.00102254
2	0	0	1	0	1211.7	0.278763	0.278514	-4.08033	1	0.0215219	10	-0.00113643
2	0	0	1	0	1211.74	0.269265	0.269024	-4.48624	1	0.0213181	10	-0.00120691
2	0	0	1	0	1211.79	0.259786	0.259503	-4.8201	1	0.0210971	10	-0.00125083
2	0	0	1	0	1211.84	0.250306	0.250036	-5.17198	1	0.0208598	10	-0.00129318
2	0	0	1	0	1211.89	0.240809	0.240537	-5.50537	1	0.0206062	10	-0.00132424
2	0	0	1	0	1211.93	0.23132	0.231039	-5.85505	1	0.0203374	10	-0.00135275
2	0	0	1	0	1211.98	0.221822	0.221547	-6.22898	1	0.0200508	10	-0.00138001
2	0	0	1	0	1212.03	0.212343	0.212046	-6.68831	1	0.0197451	10	-0.00141823
2	0	0	1	0	1212.08	0.202863	0.202549	-7.23762	1	0.0194154	10	-0.00146597
2	0	0	1	0	1212.12	0.193366	0.193055	-8.0129	1	0.0190539	10	-0.00154693
2	0	0	1	0	1212.17	0.183868	0.183553	-9.04356	1	0.0186497	10	-0.00165998
2	0	0	1	0	1212.22	0.174389	0.1741	-10.5409	1	0.0181869	10	-0.00183516
2	0	0	1	0	1212.27	0.1649	0.164614	-12.6991	1	0.0176389	10	-0.00209046
2	0	0	1	0	1212.31	0.155421	0.155093	-15.6937	1	0.0169695	10	-0.00243398
2	0	0	1	0	1212.36	0.145923	0.145656	-19.4996	1	0.0161365	10	-0.00284023
2	0	0	1	0	1212.41	0.136426	0.13615	-23.6417	1	0.0151109	10	-0.00321882
2	0	0	1	0	1212.46	0.126946	0.126672	-27.3946	1	0.0138977	10	-0.00347013
2	0	0	1	0	1212.5	0.117467	0.117174	-29.9614	1	0.0125314	10	-0.00351069
2	0	0	1	0	1212.55	0.107969	0.107715	-30.4262	1	0.0110862	10	-0.00327736
2	0	0	1	0	1212.6	0.0984805	0.0982002	-27.9823	1	0.00969044	10	-0.00274786
2	0	0	1	0	1212.65	0.0889828	0.0886337	-23.4535	1	0.00846648	10	-0.00207877
2	0	0	1	0	1212.69	0.0795034	0.0791733	-19.3035	1	0.00745951	10	-0.00152832
2	0	0	1	0	1212.74	0.0700239	0.0697321	-16.6761	1	0.00661211	10	-0.00116286
2	0	0	1	0	1212.79	0.0605263	0.0602006	-14.8889	1	0.00586485	10	-0.000896322
2	0	0	1	0	1212.84	0.0510287	0.0507029	-13.4869	1	0.0051922	10	-0.000683822
2	0	0	1	0	1212.88	0.0415492	0.041279	-12.4748	1	0.0045786	10	-0.000514945
2	0	0	1	0	1212.93	0.0320607	0.0317891	-11.942	1	0.0040014	10	-0.000379626
2	0	0	1	0	1212.98	0.0225812	0.0222836	-11.7454	1	0.00344129	10	-0.00026173
2	0	0	1	0	1213.03	0.0130836	0.0127948	-11.7833	1	0.0028832	10	-0.000150766
2	0	0	1	0	1213.07	0.00358601	0.00333337	-11.9239	1	0.00232037	10	-3.97468e-05
2	0	0	1	0	1213.12	-0.00589345	-0.00627103	-12.2119	1	0.00174693	10	7.65811e-05
2	0	0	1	0	1213.17	-0.0153729	-0.0157635	-12.5107	1	0.00116101	10	0.000197213
2	0	0	1	0	1213.22	-0.0248569	-0.025197	-12.8693	1	0.000559457	10	0.000324268
2	0	0	1	0	1213.26	-0.0343591	-0.0346754	-13.2609	1	-6.08727e-05	10	0.000459827
2	0	0	1	0	1213.31	-0.0438567	-0.0441776	-13.6602	1	-0.000700011	10	0.000603476
2	0	0	1	0	1213.36	-0.0533362	-0.053618	-14.0767	1	-0.00135757	10	0.000754765
2	0	0	1	0	1213.41	-0.0628156	-0.0631469	-14.5836	1	-0.00203677	10	0.000920912
2	0	0	1	0	1213.45	-0.0723132	-0.0726742	-15.1386	1	-0.00274252	10	0.00110018
2	0	0	1	0	1213.5	-0.0818109	-0.0821431	-15.8607	1	-0.00347859	10	0.00130284
2	0	0	1	0	1213.55	-0.0912994	-0.0916408	-16.7381	1	-0.00425082	10	0.00153389
2	0	0	0	0	1213.59	-0.100005	-0.100476	-17.6163	1	-0.00499821	10	0.00177003
2	1	0	1	1	1213.64	-0.0911859	-0.0915124	1.22023	1	-0.00527783	10	-0.000111666
2	1	0	1	1	1213.68	-0.0817019	-0.0820781	7.91714	1	-0.00503346	10	-0.000649823
2	1	0	1	1	1213.73	-0.0722224	-0.0725526	10.3733	1	-0.00459023	10	-0.000752614
2	1	0	1	1	1213.78	-0.0627248	-0.0630876	11.2588	1	-0.00407345	10	-0.000710293
2	1	0	1	1	1213.83	-0.0532272	-0.0535399	11.5818	1	-0.00352977	10	-0.000620091
2	1	0	1	1	1213.87	-0.0437477	-0.044116	11.67	1	-0.00297802	10	-0.000514836
2	1	0	1	1	1213.92	-0.0342683	-0.034594	11.6546	1	-0.00242492	10	-0.000403178
2	1	0	1	1	1213.97	-0.0247843	-0.0251172	11.5467	1	-0.00187478	10	-0.000290021
2	1	0	1	1	1214.01	-0.0152821	-0.0156143	11.4423	1	-0.00132872	10	-0.000178663
2	1	0	1	1	1214.06	-0.00578449	-0.00615737	11.2576	1	-0.00078961	10	-6.93171e-05
2	1	0	1	0	2441.73	0.00229666	0.00197557	8.10412	2	8.46284e-05	10	1.60102e-05
2	1	0	1	0	2441.78	0.0117761	0.0115053	10.3864	2	0.00053919	10	0.000119499
2	1	0	1	0	2441.83	0.0212737	0.0210048	10.6962	2	0.00104319	10	0.000224671
2	1	0	1	0	2441.87	0.0307713	0.0304981	10.6929	2	0.00155134	10	0.000326112
2	1	0	1	0	2441.92	0.0402508	0.039948	10.7112	2	0.00205842	10	0.000427891
2	1	0	1	0	2441.97	0.0497393	0.0494405	10.9365	2	0.00257077	10	0.000540705
2	1	0	1	0	2442.02	0.0592188	0.0588618	11.3416	2	0.00309729	10	0.000667589
2	1	0	1	0	2442.06	0.0687164	0.0684439	12.0095	2	0.00365082	10	0.00082198
2	1	0	1	0	2442.11	0.078214	0.0778858	12.9342	2	0.00424189	10	0.00100739
2	1	0	1	0	2442.16	0.0876935	0.0874226	14.0626	2	0.00488176	10	0.00122939
2	1	0	1	0	2442.21	0.0971729	0.0968291	15.2924	2	0.00557785	10	0.00148075
2	1	0	1	0	2442.25	0.106671	0.106325	16.6199	2	0.00633568	10	0.00176711
2	1	0	1	0	2442.3	0.116159	0.115858	18.1095	2	0.00715751	10	0.00209814
2	1	0	1	0	2442.35	0.125657	0.12535	20.0915	2	0.00806235	10	0.00251847
2	1	0	1	0	2442.4	0.135136	0.134814	22.731	2	0.00907462	10	0.00306445
2	1	0	1	0	2442.44	0.144616	0.144294	25.8872	2	0.0102264	10	0.00373537
2	1	0	1	0	2442.49	0.154113	0.153839	28.9791	2	0.0115317	10	0.00445811
2	1	0	1	0	2442.54	0.163611	0.163309	31.1737	2	0.0129666	10	0.00509093
2	1	0	1	0	2442.58	0.17309	0.172795	31.0056	2	0.0144544	10	0.00535762
2	1	0	1	0	2442.63	0.182579	0.182296	26.37	2	0.0158338	10	0.00480715
2	1	0	1	0	2442.68	0.192058	0.191782	18.1721	2	0.0168917	10	0.00348509
2	1	0	1	0	2442.73	0.201556	0.201267	12.0221	2	0.0175911	10	0.00241965
2	1	0	1	0	2442.77	0.211054	0.210752	9.75382	2	0.0180966	10	0.00205564
2	1	0	1	0	2442.82	0.220533	0.220251	9.14993	2	0.0185422	10	0.00201528
2	1	0	1	0	2442.87	0.230012	0.229746	8.84303	2	0.0189687	10	0.00203165
2	1	0	1	0	2442.92	0.23951	0.239208	8.58104	2	0.0193826	10	0.00205265
2	1	0	1	0	2442.96	0.248999	0.24872	8.36362	2	0.0197842	10	0.0020802
2	1	0	1	0	2443.01	0.258496	0.258202	8.20034	2	0.0201771	10	0.00211735
2	1	0	1	0	2443.06	0.267976	0.267664	8.00685	2	0.0205611	10	0.00214315
2	1	0	1	0	2443.11	0.277455	0.277177	7.87776	2	0.0209377	10	0.00218354
2	1	0	1	0	2443.15	0.286953	0.286664	7.7375	2	0.0213088	10	0.00221807
2	1	0	1	0	2443.2	0.29645	0.296178	7.6097	2	0.0216735	10	0.00225383
2	0	0	1	0	2443.24	0.295243	0.294985	-1.6893	2	0.0218482	10	-0.000498318
2	0	0	1	0	2443.29	0.285745	0.285451	-3.80434	2	0.0216961	10	-0.00108595
2	0	0	1	0	2443.34	0.276266	0.275982	-4.22632	2	0.021505	10	-0.00116639
2	0	0	1	0	2443.39	0.266786	0.266524	-4.56643	2	0.0212959	10	-0.00121706
2	0	0	1	0	2443.43	0.257289	0.256993	-4.92026	2	0.0210697	10	-0.00126447
2	0	0	1	0	2443.48	0.2478	0.247506	-5.26556	2	0.0208284	10	-0.00130326
2	0	0	1	0	2443.53	0.238302	0.238016	-5.57658	2	0.0205712	10	-0.00132732
2	0	0	1	0	2443.58	0.228823	0.228526	-5.90501	2	0.0202991	10	-0.00134945
2	0	0	1	0	2443.62	0.219344	0.219016	-6.29745	2	0.0200102	10	-0.00137924
2	0	0	1	0	2443.67	0.209846	0.209536	-6.71864	2	0.0197012	10	-0.0014078
2	0	0	1	0	2443.72	0.200348	0.200055	-7.30977	2	0.0193679	10	-0.00146236
2	0	0	1	0	2443.77	0.190869	0.190551	-8.08028	2	0.0190038	10	-0.00153971
2	0	0	1	0	2443.81	0.18138	0.18112	-9.16412	2	0.0185963	10	-0.0016598
2	0	0	1	0	2443.86	0.171901	0.171611	-10.7501	2	0.0181265	10	-0.00184484
2	0	0	1	0	2443.91	0.162403	0.162122	-13.0348	2	0.0175651	10	-0.00211323
2	0	0	1	0	2443.96	0.152906	0.152634	-16.2627	2	0.0168724	10	-0.00248223
2	0	0	1	0	2444	0.143426	0.143185	-20.254	2	0.0160095	10	-0.00290008
2	0	0	1	0	2444.05	0.133947	0.133675	-24.3699	2	0.0149501	10	-0.00325765
2	0	0	1	0	2444.1	0.124449	0.12423	-27.919	2	0.013704	10	-0.00346836
2	0	0	1	0	2444.14	0.114961	0.11466	-30.0393	2	0.0123232	10	-0.0034443
2	0	0	1	0	2444.19	0.105463	0.105147	-29.8583	2	0.0108906	10	-0.00313951
2	0	0	1	0	2444.24	0.0959835	0.0956856	-27.0261	2	0.00953318	10	-0.00258601
2	0	0	1	0	2444.29	0.086504	0.0861671	-22.7553	2	0.00835312	10	-0.00196076
2	0	0	1	0	2444.33	0.0770064	0.0767119	-19.3033	2	0.00736007	10	-0.00148079
2	0	0	1	0	2444.38	0.0675088	0.0671961	-17.095	2	0.0064995	10	-0.00114872
2	0	0	1	0	2444.43	0.0580248	0.0577053	-15.4292	2	0.00572954	10	-0.000890345
2	0	0	1	0	2444.48	0.0485408	0.0482788	-13.9275	2	0.00503455	10	-0.000672404
2	0	0	1	0	2444.52	0.0390613	0.0387308	-12.7613	2	0.0044043	10	-0.000494256
2	0	0	1	0	2444.57	0.0295637	0.0292354	-12.0842	2	0.00381649	10	-0.000353286
2	0	0	1	0	2444.62	0.0200661	0.019758	-11.8602	2	0.00324903	10	-0.000234335
2	0	0	1	0	2444.67	0.0105866	0.0102621	-11.8632	2	0.00268712	10	-0.000121741
2	0	0	1	0	2444.71	0.00110719	0.000776535	-12.0933	2	0.00212042	10	-9.39087e-06
2	0	0	1	0	2444.76	-0.00837681	-0.00869425	-12.3121	2	0.00154248	10	0.000107044
2	0	0	1	0	2444.81	-0.017879	-0.0182459	-12.625	2	0.000950355	10	0.000230354
2	0	0	1	0	2444.86	-0.0273766	-0.0277278	-12.9835	2	0.000342382	10	0.000360005
2	0	0	1	0	2444.9	-0.0368561	-0.0371717	-13.3752	2	-0.000281865	10	0.00049718
2	0	0	1	0	2444.95	-0.0463355	-0.046685	-13.7444	2	-0.00092493	10	0.000641658
2	0	0	1	0	2445	-0.0558331	-0.0562194	-14.2056	2	-0.00158912	10	0.00079863
2	0	0	1	0	2445.05	-0.0653308	-0.0656838	-14.6869	2	-0.0022756	10	0.000964689
2	0	0	1	0	2445.09	-0.0748193	-0.0751433	-15.304	2	-0.00298619	10	0.00114999
2	0	0	1	0	2445.14	-0.0842988	-0.0846419	-16.0425	2	-0.00372837	10	0.00135786
2	0	0	1	0	2445.19	-0.0937782	-0.0941083	-16.9131	2	-0.00450885	10	0.00159167
2	0	0	1	1	2445.23	-0.098182	-0.09856	-11.3496	2	-0.00517393	10	0.00111862
2	1	0	1	1	2445.28	-0.0887025	-0.0891152	4.2335	2	-0.00526616	10	-0.000377269
2	1	0	1	1	2445.32	-0.0792049	-0.079591	9.22	2	-0.00492578	10	-0.000733829
2	1	0	1	1	2445.37	-0.0697073	-0.0700461	10.9322	2	-0.00443935	10	-0.00076576
2	1	0	1	1	2445.42	-0.0602278	-0.0606022	11.5205	2	-0.00390454	10	-0.000698171
2	1	0	1	1	2445.47	-0.0507484	-0.0511063	11.687	2	-0.00335307	10	-0.000597278
2	1	0	1	1	2445.51	-0.0412598	-0.041567	11.7294	2	-0.00279753	10	-0.000487554
2	1	0	1	1	2445.56	-0.0317622	-0.0321224	11.6398	2	-0.00224256	10	-0.000373897
2	1	0	1	1	2445.61	-0.0222646	-0.0225829	11.5335	2	-0.00169244	10	-0.00026046
2	1	0	1	1	2445.66	-0.0127851	-0.0131208	11.3638	2	-0.00114989	10	-0.000149102
2	1	0	1	1	2445.7	-0.00330566	-0.00366821	11.1814	2	-0.000615096	10	-4.10159e-05
2	1	0	1	0	3673.37	0.00479364	0.00450615	8.73685	3	0.000189702	10	3.93696e-05
2	1	0	1	0	3673.42	0.0142913	0.0139884	10.0626	3	0.000643811	10	0.00014076
2	1	0	1	0	3673.47	0.0237707	0.0234583	10.352	3	0.0011297	10	0.000242841
2	1	0	1	0	3673.51	0.0332593	0.0329317	10.4784	3	0.00162335	10	0.000345071
2	1	0	1	0	3673.56	0.0427387	0.0424815	10.6547	3	0.00212318	10	0.000452626
2	1	0	1	0	3673.61	0.0522363	0.0519151	10.9472	3	0.0026352	10	0.000568323
2	1	0	1	0	3673.66	0.0617339	0.0614551	11.5183	3	0.0031678	10	0.000707859
2	1	0	1	0	3673.7	0.0712134	0.0709086	12.301	3	0.00373156	10	0.000872244
2	1	0	1	0	3673.75	0.0806928	0.0804019	13.3139	3	0.00433789	10	0.00107046
2	1	0	1	0	3673.8	0.0901905	0.0898861	14.4706	3	0.00499794	10	0.00130071
2	1	0	1	0	3673.85	0.099679	0.0993471	15.6538	3	0.00571196	10	0.00155515
2	1	0	1	0	3673.89	0.109177	0.108869	16.858	3	0.00648387	10	0.00183531
2	1	0	1	0	3673.94	0.118656	0.118348	18.2404	3	0.0073144	10	0.00215872
2	1	0	1	0	3673.99	0.128136	0.127852	20.0361	3	0.00821957	10	0.00256166
2	1	0	1	0	3674.04	0.137633	0.137309	22.4316	3	0.00922651	10	0.00308007
2	1	0	1	0	3674.08	0.147131	0.146817	25.1138	3	0.0103559	10	0.00368714
2	1	0	1	0	3674.13	0.15661	0.156271	27.6415	3	0.0116086	10	0.00431958
2	1	0	1	0	3674.18	0.166099	0.165773	29.3621	3	0.0129651	10	0.00486742
2	1	0	1	0	3674.23	0.175578	0.175284	28.9695	3	0.0143598	10	0.00507788
2	1	0	1	0	3674.27	0.185076	0.184834	24.6018	3	0.015649	10	0.00454726
2	1	0	1	0	3674.32	0.194573	0.194271	17.5004	3	0.016649	10	0.00339982
2	1	0	1	0	3674.37	0.204053	0.203761	12.3904	3	0.0173433	10	0.00252467
2	1	0	1	0	3674.42	0.213532	0.213283	10.3357	3	0.0178738	10	0.00220442
2	1	0	1	0	3674.46	0.22303	0.222774	9.49152	3	0.0183423	10	0.00211446
2	1	0	1	0	3674.51	0.232519	0.232224	9.02529	3	0.0187803	10	0.00209589
2	1	0	1	0	3674.56	0.242016	0.241724	8.66771	3	0.0191997	10	0.0020952
2	1	0	1	0	3674.61	0.251496	0.251236	8.39559	3	0.0196037	10	0.00210927
2	1	0	1	0	3674.65	0.260975	0.260639	8.19771	3	0.0199967	10	0.00213664
2	1	0	1	0	3674.7	0.270473	0.270227	8.0184	3	0.0203815	10	0.00216679
2	1	0	1	0	3674.75	0.27997	0.279707	7.86008	3	0.0207586	10	0.00219852
2	1	0	1	0	3674.8	0.28945	0.289192	7.72611	3	0.021128	10	0.00223433
2	1	0	1	0	3674.84	0.298938	0.29868	7.61274	3	0.0214913	10	0.00227377
2	0	0	1	0	3674.88	0.292746	0.292443	-2.13097	3	0.0215681	10	-0.000623186
2	0	0	1	0	3674.93	0.283266	0.282973	-3.57113	3	0.021423	10	-0.00101053
2	0	0	1	0	3674.98	0.273769	0.273471	-4.04412	3	0.0212409	10	-0.00110595
2	0	0	1	0	3675.03	0.26428	0.263969	-4.47576	3	0.0210386	10	-0.00118146
2	0	0	1	0	3675.07	0.254783	0.254522	-4.8047	3	0.0208182	10	-0.0012229
2	0	0	1	0	3675.12	0.245303	0.245001	-5.13057	3	0.0205826	10	-0.00125699
2	0	0	1	0	3675.17	0.235824	0.235499	-5.44738	3	0.0203318	10	-0.00128285
2	0	0	1	0	3675.22	0.226326	0.226035	-5.76196	3	0.0200655	10	-0.00130241
2	0	0	1	0	3675.26	0.216828	0.216507	-6.13683	3	0.0197828	10	-0.00132867
2	0	0	1	0	3675.31	0.207349	0.207051	-6.55104	3	0.0194824	10	-0.0013564
2	0	0	1	0	3675.36	0.19786	0.197567	-7.09232	3	0.019159	10	-0.00140121
2	0	0	1	0	3675.41	0.188381	0.18811	-7.80975	3	0.0188067	10	-0.00146909
2	0	0	1	0	3675.45	0.178883	0.178578	-8.8151	3	0.0184132	10	-0.00157418
2	0	0	1	0	3675.5	0.169386	0.16908	-10.2619	3	0.0179622	10	-0.00173509
2	0	0	1	0	3675.55	0.159906	0.159599	-12.3852	3	0.0174283	10	-0.00197665
2	0	0	1	0	3675.6	0.150427	0.150141	-15.3353	3	0.016774	10	-0.00230246
2	0	0	1	0	3675.64	0.140947	0.140684	-18.9184	3	0.0159632	10	-0.00266151
2	0	0	1	0	3675.69	0.131441	0.131191	-22.651	3	0.0149741	10	-0.00297161
2	0	0	1	0	3675.74	0.121943	0.121667	-25.8144	3	0.01382	10	-0.00314076
2	0	0	1	0	3675.79	0.112464	0.112155	-27.8382	3	0.0125425	10	-0.00312218
2	0	0	1	0	3675.83	0.102984	0.102705	-28.1161	3	0.0112084	10	-0.00288768
2	0	0	1	0	3675.88	0.0934865	0.0931986	-26.2535	3	0.00990913	10	-0.00244678
2	0	0	1	0	3675.93	0.0839889	0.0837101	-23.1006	3	0.00873552	10	-0.00193375
2	0	0	1	0	3675.98	0.0745049	0.0741924	-20.3057	3	0.0077106	10	-0.00150653
2	0	0	1	0	3676.02	0.0650209	0.0647026	-18.3789	3	0.00679673	10	-0.00118916
2	0	0	1	0	3676.07	0.0555414	0.0552526	-16.7571	3	0.0059646	10	-0.000925872
2	0	0	1	0	3676.12	0.0460438	0.0457403	-15.142	3	0.00520666	10	-0.0006926
2	0	0	1	0	3676.17	0.0365462	0.0362503	-13.6419	3	0.00452441	10	-0.000494524
2	0	0	1	0	3676.21	0.0270667	0.0267474	-12.6386	3	0.00390357	10	-0.000338049
2	0	0	1	0	3676.26	0.0175873	0.0173088	-12.1391	3	0.00331755	10	-0.000210112
2	0	0	1	0	3676.31	0.00810328	0.00776857	-12.0124	3	0.00274615	10	-9.3319e-05
2	0	0	1	0	3676.35	-0.00139887	-0.00180539	-12.0833	3	0.00217457	10	2.1815e-05
2	0	0	1	0	3676.4	-0.0108965	-0.0112667	-12.2543	3	0.0015973	10	0.000138066
2	0	0	1	0	3676.45	-0.020376	-0.0206802	-12.5022	3	0.0010108	10	0.000258548
2	0	0	1	0	3676.5	-0.0298554	-0.0301762	-12.8263	3	0.000410559	10	0.00038705
2	0	0	1	0	3676.54	-0.039353	-0.0396715	-13.1787	3	-0.000207076	10	0.000522818
2	0	0	1	0	3676.59	-0.0488507	-0.0491871	-13.561	3	-0.000842217	10	0.000667026
2	0	0	1	0	3676.64	-0.0583392	-0.0586258	-13.9989	3	-0.00149524	10	0.000820697
2	0	0	1	0	3676.69	-0.0678187	-0.0681808	-14.472	3	-0.00216945	10	0.000986715
2	0	0	1	0	3676.73	-0.0772981	-0.0775908	-15.0472	3	-0.00286858	10	0.00116752
2	0	0	1	0	3676.78	-0.0867957	-0.0871202	-15.7449	3	-0.00359929	10	0.0013717
2	0	0	1	0	3676.83	-0.0962934	-0.0966478	-16.5842	3	-0.00436684	10	0.00160283
2	0	0	1	1	3676.87	-0.095685	-0.0960697	-6.22651	3	-0.00491345	10	0.00059818
2	1	0	1	1	3676.92	-0.0861874	-0.0865853	4.37443	3	-0.00491341	10	-0.000378761
2	1	0	1	1	3676.96	-0.0767079	-0.0770503	8.39165	3	-0.00459674	10	-0.000646579
2	1	0	1	1	3677.01	-0.0672285	-0.0676246	10.0917	3	-0.00415242	10	-0.000682447
2	1	0	1	1	3677.06	-0.0577399	-0.0580948	10.826	3	-0.00365446	10	-0.000628934
2	1	0	1	1	3677.11	-0.0482423	-0.0485964	11.1321	3	-0.00313212	10	-0.000540981
2	1	0	1	1	3677.15	-0.0387447	-0.0390908	11.2415	3	-0.00259997	10	-0.000439438
2	1	0	1	1	3677.2	-0.0292652	-0.0296035	11.2467	3	-0.00206654	10	-0.000332942
2	1	0	1	1	3677.25	-0.0197858	-0.0201666	11.1694	3	-0.00153494	10	-0.000225249
2	1	0	1	1	3677.3	-0.0102881	-0.0106436	11.081	3	-0.0010066	10	-0.000117941
2	1	0	1	1	3677.34	-0.000790518	-0.00119033	10.9152	3	-0.00048408	10	-1.29927e-05
2	1	0	1	0	4905.01	0.00729063	0.00697037	9.18246	4	0.000302043	10	6.40052e-05
2	1	0	1	0	4905.06	0.0167792	0.0164889	10.1111	4	0.000763788	10	0.000166721
2	1	0	1	0	4905.11	0.0262586	0.0259779	10.3368	4	0.00124909	10	0.000268527
2	1	0	1	0	4905.15	0.0357562	0.0354578	10.5176	4	0.00174446	10	0.000372933
2	1	0	1	0	4905.2	0.0452539	0.0449385	10.7981	4	0.00225024	10	0.000485252
2	1	0	1	0	4905.25	0.0547333	0.0544301	11.2646	4	0.00277229	10	0.000613136
2	1	0	1	0	4905.3	0.0642128	0.0639382	11.9599	4	0.00332192	10	0.000764692
2	1	0	1	0	4905.34	0.0737104	0.0734002	12.8946	4	0.00391186	10	0.000946469
2	1	0	1	0	4905.39	0.0831989	0.0828874	13.9868	4	0.00454812	10	0.00115933
2	1	0	1	0	4905.44	0.0926965	0.0923844	15.1526	4	0.00523972	10	0.00139986
2	1	0	1	0	4905.49	0.102176	0.101923	16.2547	4	0.00598404	10	0.00165673
2	1	0	1	0	4905.53	0.111655	0.111337	17.4406	4	0.00678265	10	0.00194179
2	1	0	1	0	4905.58	0.121153	0.120848	18.8743	4	0.0076441	10	0.00228092
2	1	0	1	0	4905.63	0.130651	0.13036	20.7738	4	0.00858409	10	0.00270808
2	1	0	1	0	4905.68	0.14013	0.1398	23.0723	4	0.00962299	10	0.0032255
2	1	0	1	0	4905.72	0.149619	0.149295	25.4977	4	0.010775	10	0.00380668
2	1	0	1	0	4905.77	0.159098	0.158803	27.4785	4	0.0120332	10	0.00436366
2	1	0	1	0	4905.82	0.168596	0.168263	28.3187	4	0.0133654	10	0.00476501
2	1	0	1	0	4905.87	0.178093	0.177778	26.4114	4	0.0146792	10	0.00469538
2	1	0	1	0	4905.91	0.187573	0.1873	20.9869	4	0.0158129	10	0.00393085
2	1	0	1	0	4905.96	0.197052	0.196814	15.0561	4	0.0166598	10	0.00296324
2	1	0	1	0	4906.01	0.20655	0.206256	11.6957	4	0.0172835	10	0.0024123
2	1	0	1	0	4906.06	0.216038	0.215714	10.3739	4	0.0178022	10	0.0022378
2	1	0	1	0	4906.1	0.225536	0.225264	9.7009	4	0.0182772	10	0.00218527
2	1	0	1	0	4906.15	0.235016	0.234745	9.21386	4	0.0187248	10	0.0021629
2	1	0	1	0	4906.2	0.244495	0.244234	8.84946	4	0.0191526	10	0.00216134
2	1	0	1	0	4906.25	0.253993	0.253708	8.55821	4	0.0195658	10	0.00217128
2	1	0	1	0	4906.29	0.26349	0.263195	8.29834	4	0.0199661	10	0.00218408
2	1	0	1	0	4906.34	0.27297	0.272686	8.11139	4	0.0203552	10	0.00221186
2	1	0	1	0	4906.39	0.282458	0.282193	7.93506	4	0.0207354	10	0.00223922
2	1	0	1	0	4906.44	0.291938	0.291659	7.78477	4	0.0211078	10	0.0022705
2	1	0	1	0	4906.48	0.299746	0.299508	6.83999	4	0.0214294	10	0.00204863
2	0	0	1	0	4906.53	0.290249	0.289936	-2.59406	4	0.0214348	10	-0.000752109
2	0	0	1	0	4906.57	0.28076	0.280475	-3.60498	4	0.0212832	10	-0.00101111
2	0	0	1	0	4906.62	0.271263	0.270987	-4.07287	4	0.0211006	10	-0.0011037
2	0	0	1	0	4906.67	0.261783	0.261469	-4.47406	4	0.0208976	10	-0.00116983
2	0	0	1	0	4906.71	0.252304	0.252002	-4.82257	4	0.0206772	10	-0.0012153
2	0	0	1	0	4906.76	0.242806	0.24252	-5.13943	4	0.0204405	10	-0.00124642
2	0	0	1	0	4906.81	0.233308	0.233033	-5.44997	4	0.020189	10	-0.00127002
2	0	0	1	0	4906.86	0.223829	0.223535	-5.76268	4	0.0199229	10	-0.00128816
2	0	0	1	0	4906.9	0.214341	0.214059	-6.12434	4	0.0196409	10	-0.00131097
2	0	0	1	0	4906.95	0.204861	0.204571	-6.56097	4	0.0193408	10	-0.00134218
2	0	0	1	0	4907	0.195363	0.195088	-7.05813	4	0.0190181	10	-0.00137696
2	0	0	1	0	4907.05	0.185866	0.185577	-7.76083	4	0.0186669	10	-0.00144023
2	0	0	1	0	4907.09	0.176386	0.176095	-8.7419	4	0.0182771	10	-0.00153941
2	0	0	1	0	4907.14	0.166907	0.166597	-10.1716	4	0.0178309	10	-0.00169455
2	0	0	1	0	4907.19	0.157427	0.157147	-12.2706	4	0.0173018	10	-0.00192828
2	0	0	1	0	4907.24	0.147921	0.147683	-15.2251	4	0.0166514	10	-0.0022485
2	0	0	1	0	4907.28	0.138423	0.138176	-18.6986	4	0.0158466	10	-0.00258369
2	0	0	1	0	4907.33	0.128944	0.128708	-22.2446	4	0.014874	10	-0.00286307
2	0	0	1	0	4907.38	0.119464	0.119193	-25.1419	4	0.0137474	10	-0.00299672
2	0	0	1	0	4907.43	0.109967	0.109658	-26.9244	4	0.0125046	10	-0.00295248
2	0	0	1	0	4907.47	0.100469	0.100177	-27.0912	4	0.0112144	10	-0.00271392
2	0	0	1	0	4907.52	0.090985	0.090683	-25.4439	4	0.00996278	10	-0.00230733
2	0	0	1	0	4907.57	0.081501	0.0812313	-22.7236	4	0.00882024	10	-0.00184587
2	0	0	1	0	4907.62	0.0720215	0.0717345	-20.3339	4	0.00780321	10	-0.00145864
2	0	0	1	0	4907.66	0.0625239	0.0622055	-18.6165	4	0.00688022	10	-0.00115805
2	0	0	1	0	4907.71	0.0530263	0.0527131	-17.2088	4	0.00602966	10	-0.000907132
2	0	0	1	0	4907.76	0.0435468	0.0432805	-15.6728	4	0.00524968	10	-0.000678325
2	0	0	1	0	4907.81	0.0340674	0.0337586	-14.1896	4	0.00454248	10	-0.000479021
2	0	0	1	0	4907.85	0.0245788	0.0242843	-13.0981	4	0.00389826	10	-0.000318078
2	0	0	1	0	4907.9	0.0150812	0.0147712	-12.4795	4	0.00329309	10	-0.000184337
2	0	0	1	0	4907.95	0.0055836	0.00527594	-12.2461	4	0.00270726	10	-6.46097e-05
2	0	0	1	0	4908	-0.00389586	-0.00426252	-12.2486	4	0.0021268	10	5.22099e-05
2	0	0	1	0	4908.04	-0.0133753	-0.0137411	-12.3663	4	0.0015436	10	0.000169926
2	0	0	1	0	4908.09	-0.0228729	-0.0232118	-12.6106	4	0.00095027	10	0.000292714
2	0	0	1	0	4908.14	-0.0323706	-0.0327347	-12.9094	4	0.000344037	10	0.000422585
2	0	0	1	0	4908.19	-0.0418591	-0.0422073	-13.2704	4	-0.000276277	10	0.000560109
2	0	0	1	0	4908.23	-0.0513386	-0.0516971	-13.6637	4	-0.000913957	10	0.000706376
2	0	0	1	0	4908.28	-0.060818	-0.0611766	-14.0622	4	-0.00157072	10	0.000860275
2	0	0	1	0	4908.33	-0.0703157	-0.0706979	-14.5724	4	-0.00225068	10	0.00103024
2	0	0	1	0	4908.38	-0.0798133	-0.0801156	-15.1598	4	-0.00295638	10	0.00121453
2	0	0	1	0	4908.42	-0.0892927	-0.0896176	-15.8736	4	-0.00369155	10	0.00142255
2	0	0	1	0	4908.47	-0.0987722	-0.0991031	-16.6983	4	-0.00446368	10	0.00165486
2	0	0	1	1	4908.51	-0.093188	-0.0935626	-2.62263	4	-0.00485955	10	0.00024538
2	1	0	1	1	4908.56	-0.0837086	-0.0841022	5.34316	4	-0.00476381	10	-0.000449371
2	1	0	1	1	4908.61	-0.07422	-0.074588	8.65346	4	-0.0044209	10	-0.000645445
2	1	0	1	1	4908.65	-0.0647224	-0.0650687	10.0648	4	-0.00397153	10	-0.000654905
2	1	0	1	1	4908.7	-0.0552248	-0.0555424	10.7235	4	-0.00347586	10	-0.000595606
2	1	0	1	1	4908.75	-0.0457453	-0.0460837	10.999	4	-0.00296015	10	-0.000506873
2	1	0	1	1	4908.79	-0.0362659	-0.0366286	11.0971	4	-0.00243577	10	-0.00040647
2	1	0	1	1	4908.84	-0.0267682	-0.0271009	11.1085	4	-0.00190782	10	-0.000301049
2	1	0	1	1	4908.89	-0.0172706	-0.0176098	11.0262	4	-0.0013817	10	-0.000194169
2	1	0	1	1	4908.94	-0.00778208	-0.00809994	10.9527	4	-0.000860807	10	-8.87161e-05
2	1	0	1	0	6136.61	0.000299075	-0.000104952	7.73775	5	1.00753e-05	10	-8.1209e-07
2	1	0	1	0	6136.65	0.00977853	0.00947254	9.44023	5	0.000418108	10	8.9423e-05
2	1	0	1	0	6136.7	0.0192761	0.0189791	10.1035	5	0.000885411	10	0.000191755
2	1	0	1	0	6136.75	0.0287738	0.0284922	10.3969	5	0.00137297	10	0.000296229
2	1	0	1	0	6136.8	0.0382532	0.0379404	10.6471	5	0.00187158	10	0.000403955
2	1	0	1	0	6136.84	0.0477327	0.0474259	11.0492	5	0.00238529	10	0.000524019
2	1	0	1	0	6136.89	0.0572303	0.0569183	11.6343	5	0.0029233	10	0.000662207
2	1	0	1	0	6136.94	0.0667188	0.0663833	12.4802	5	0.00349391	10	0.000828477
2	1	0	1	0	6136.99	0.0762165	0.0758478	13.4498	5	0.0041094	10	0.00102014
2	1	0	1	0	6137.03	0.0856959	0.0853611	14.5794	5	0.00477393	10	0.00124451
2	1	0	1	0	6137.08	0.0951754	0.0948571	15.6802	5	0.00549153	10	0.00148737
2	1	0	1	0	6137.13	0.104673	0.104367	16.7773	5	0.00626254	10	0.00175099
2	1	0	1	0	6137.18	0.114171	0.113852	17.9336	5	0.00708652	10	0.00204177
2	1	0	1	0	6137.22	0.12365	0.123327	19.4189	5	0.00797066	10	0.00239487
2	1	0	1	0	6137.27	0.133139	0.132803	21.3699	5	0.00893594	10	0.00283798
2	1	0	1	0	6137.32	0.142618	0.14228	23.5393	5	0.00999987	10	0.00334918
2	1	0	1	0	6137.37	0.152116	0.151822	25.6596	5	0.0111698	10	0.0038957
2	1	0	1	0	6137.41	0.161613	0.161266	27.2228	5	0.0124291	10	0.00439012
2	1	0	1	0	6137.46	0.171093	0.170821	27.362	5	0.0137315	10	0.00467401
2	1	0	1	0	6137.51	0.180572	0.180281	24.4945	5	0.0149741	10	0.00441591
2	1	0	1	0	6137.55	0.19007	0.189768	18.8509	5	0.0160082	10	0.00357729
2	1	0	1	0	6137.6	0.199558	0.199274	13.9599	5	0.016776	10	0.00278183
2	1	0	1	0	6137.65	0.209056	0.208726	11.4461	5	0.0173706	10	0.0023891
2	1	0	1	0	6137.7	0.218535	0.218274	10.2622	5	0.0178818	10	0.00223996
2	1	0	1	0	6137.74	0.228015	0.227731	9.59617	5	0.0183514	10	0.00218534
2	1	0	1	0	6137.79	0.237513	0.23722	9.1001	5	0.0187948	10	0.00215873
2	1	0	1	0	6137.84	0.24701	0.246724	8.73739	5	0.0192183	10	0.00215573
2	1	0	1	0	6137.89	0.25649	0.256186	8.45057	5	0.0196256	10	0.00216491
2	1	0	1	0	6137.93	0.265978	0.265663	8.22923	5	0.020021	10	0.0021862
2	1	0	1	0	6137.98	0.275458	0.27518	8.04553	5	0.0204065	10	0.00221397
2	1	0	1	0	6138.03	0.284955	0.284675	7.88784	5	0.0207846	10	0.00224547
2	1	0	1	0	6138.08	0.294453	0.29418	7.72585	5	0.0211553	10	0.00227279
2	1	0	1	0	6138.12	0.29724	0.297007	1.71899	5	0.0214276	10	0.000510553
2	0	0	1	0	6138.17	0.287743	0.287445	-2.8722	5	0.0213606	10	-0.0008256
2	0	0	1	0	6138.21	0.278263	0.27797	-3.70262	5	0.0212018	10	-0.00102922
2	0	0	1	0	6138.26	0.268784	0.26854	-4.18833	5	0.0210142	10	-0.00112473
2	0	0	1	0	6138.31	0.259286	0.259052	-4.56517	5	0.020806	10	-0.00118262
2	0	0	1	0	6138.36	0.249789	0.249506	-4.90894	5	0.0205806	10	-0.00122481
2	0	0	1	0	6138.4	0.240309	0.240001	-5.20719	5	0.0203405	10	-0.00124973
2	0	0	1	0	6138.45	0.230821	0.230546	-5.53153	5	0.0200858	10	-0.00127527
2	0	0	1	0	6138.5	0.221341	0.221015	-5.83851	5	0.0198165	10	-0.0012904
2	0	0	1	0	6138.55	0.211844	0.211516	-6.18133	5	0.0195312	10	-0.00130745
2	0	0	1	0	6138.59	0.202346	0.202051	-6.58403	5	0.0192281	10	-0.00133031
2	0	0	1	0	6138.64	0.192866	0.192554	-7.0989	5	0.0189043	10	-0.00136692
2	0	0	1	0	6138.69	0.183387	0.183098	-7.76521	5	0.0185526	10	-0.00142179
2	0	0	1	0	6138.74	0.173908	0.173602	-8.74811	5	0.0181623	10	-0.00151869
2	0	0	1	0	6138.78	0.164401	0.164085	-10.1843	5	0.0177147	10	-0.0016711
2	0	0	1	0	6138.83	0.154903	0.154619	-12.3133	5	0.0171838	10	-0.00190386
2	0	0	1	0	6138.88	0.145424	0.145095	-15.2032	5	0.0165341	10	-0.00220591
2	0	0	1	0	6138.92	0.135944	0.135651	-18.6074	5	0.0157334	10	-0.00252411
2	0	0	1	0	6138.97	0.126447	0.126187	-21.9443	5	0.0147675	10	-0.00276908
2	0	0	1	0	6139.02	0.116949	0.116667	-24.6351	5	0.0136575	10	-0.00287411
2	0	0	1	0	6139.07	0.107461	0.107169	-26.1949	5	0.0124473	10	-0.00280728
2	0	0	1	0	6139.11	0.0979811	0.0976369	-26.3274	5	0.0111965	10	-0.00257052
2	0	0	1	0	6139.16	0.0885016	0.0882129	-24.8713	5	0.00997767	10	-0.00219397
2	0	0	1	0	6139.21	0.079004	0.0787049	-22.5517	5	0.00885072	10	-0.00177493
2	0	0	1	0	6139.26	0.0695064	0.0691985	-20.4859	5	0.00783144	10	-0.0014176
2	0	0	1	0	6139.3	0.0600269	0.0597364	-18.9438	5	0.00689871	10	-0.00113164
2	0	0	1	0	6139.35	0.0505475	0.050217	-17.6287	5	0.00603201	10	-0.000885261
2	0	0	1	0	6139.4	0.0410589	0.0407367	-16.1793	5	0.00523063	10	-0.000659092
2	0	0	1	0	6139.45	0.0315613	0.031257	-14.6416	5	0.00449943	10	-0.000457653
2	0	0	1	0	6139.49	0.0220637	0.0217492	-13.4198	5	0.00383522	10	-0.00029187
2	0	0	1	0	6139.54	0.0125842	0.0122333	-12.6938	5	0.00321829	10	-0.000155287
2	0	0	1	0	6139.59	0.00310478	0.00278504	-12.3729	5	0.00262543	10	-3.44591e-05
2	0	0	1	0	6139.64	-0.00639284	-0.00672594	-12.3496	5	0.0020381	10	8.30627e-05
2	0	0	1	0	6139.68	-0.0158905	-0.0162572	-12.4281	5	0.00145012	10	0.000202046
2	0	0	1	0	6139.73	-0.025379	-0.0257583	-12.6795	5	0.000855322	10	0.000326602
2	0	0	1	0	6139.78	-0.0348585	-0.035164	-12.9578	5	0.000248097	10	0.00045565
2	0	0	1	0	6139.83	-0.0443379	-0.0446929	-13.3058	5	-0.000374406	10	0.000594677
2	0	0	1	0	6139.87	-0.0538356	-0.0541913	-13.7041	5	-0.00101575	10	0.000742641
2	0	0	1	0	6139.92	-0.0633332	-0.0636805	-14.1365	5	-0.00167678	10	0.000900217
2	0	0	1	0	6139.97	-0.0728126	-0.0731053	-14.6465	5	-0.00235895	10	0.00107074
2	0	0	1	0	6140.02	-0.0822921	-0.082642	-15.2847	5	-0.00306812	10	0.00126316
2	0	0	1	0	6140.06	-0.0917806	-0.0921154	-16.0274	5	-0.00380997	10	0.00147637
2	0	0	0	1	6140.11	-0.0999548	-0.100305	-16.6849	5	-0.00449044	10	0.00167357
2	0	0	1	1	6140.15	-0.0907001	-0.0910378	-0.368999	5	-0.00480837	10	3.35929e-05
2	1	0	1	1	6140.2	-0.0812025	-0.0815872	5.8581	5	-0.00465692	10	-0.000477947
2	1	0	1	1	6140.25	-0.0717049	-0.0720364	8.68288	5	-0.00430327	10	-0.000625483
2	1	0	1	1	6140.29	-0.0622254	-0.062576	9.98287	5	-0.00385715	10	-0.000624688
2	1	0	1	1	6140.34	-0.052746	-0.0530367	10.6579	5	-0.003366	10	-0.000565261
2	1	0	1	1	6140.39	-0.0432483	-0.0435915	10.9581	5	-0.00285168	10	-0.00047768
2	1	0	1	1	6140.44	-0.0337507	-0.0340882	11.08	5	-0.00232742	10	-0.000377697
2	1	0	1	1	6140.48	-0.0242622	-0.0246252	11.105	5	-0.00180117	10	-0.000273462
2	1	0	1	1	6140.53	-0.0147827	-0.0151596	11.0429	5	-0.00127618	10	-0.000167407
2	1	0	1	1	6140.58	-0.00530325	-0.00570795	10.9378	5	-0.000755103	10	-6.24323e-05
2	1	0	1	0	7368.25	0.00279606	0.00246858	8.02345	6	0.000105374	10	1.98065e-05
2	1	0	1	0	7368.29	0.0122937	0.0120276	9.71533	6	0.000534312	10	0.000116853
2	1	0	1	0	7368.34	0.0217731	0.0214273	10.2735	6	0.00101054	10	0.000220133
2	1	0	1	0	7368.39	0.0312526	0.0309614	10.5566	6	0.00150464	10	0.000326847
2	1	0	1	0	7368.44	0.0407502	0.0404293	10.8902	6	0.0020136	10	0.000440281
2	1	0	1	0	7368.48	0.0502387	0.0498536	11.4136	6	0.00254156	10	0.000569011
2	1	0	1	0	7368.53	0.0597364	0.0593937	12.1582	6	0.00310016	10	0.00072212
2	1	0	1	0	7368.58	0.0692158	0.0689148	13.0874	6	0.00369786	10	0.000901912
2	1	0	1	0	7368.63	0.0786953	0.0783812	14.1797	6	0.00434321	10	0.00111143
2	1	0	1	0	7368.67	0.0881929	0.0878676	15.2703	6	0.00504321	10	0.00134176
2	1	0	1	0	7368.72	0.0976905	0.0973983	16.3554	6	0.00579487	10	0.00159299
2	1	0	1	0	7368.77	0.10717	0.106878	17.4352	6	0.00659575	10	0.00186343
2	1	0	1	0	7368.82	0.116658	0.116383	18.6917	6	0.00745073	10	0.0021754
2	1	0	1	0	7368.86	0.126138	0.125803	20.3426	6	0.00837412	10	0.00255915
2	1	0	1	0	7368.91	0.135636	0.135308	22.3687	6	0.00938771	10	0.00302666
2	1	0	1	0	7368.96	0.145133	0.144824	24.4318	6	0.0104998	10	0.00353832
2	1	0	1	0	7369.01	0.154613	0.154323	26.2273	6	0.0117027	10	0.00404746
2	1	0	1	0	7369.05	0.164092	0.163794	27.2074	6	0.0129745	10	0.00445642
2	1	0	1	0	7369.1	0.173572	0.173243	26.0522	6	0.0142491	10	0.00451335
2	1	0	1	0	7369.15	0.183078	0.182786	21.5584	6	0.0153919	10	0.00394058
2	1	0	1	0	7369.2	0.192576	0.1923	15.6652	6	0.0162722	10	0.00301243
2	1	0	1	0	7369.24	0.202055	0.20177	11.8787	6	0.0169138	10	0.00239677
2	1	0	1	0	7369.29	0.211535	0.211235	10.2353	6	0.017432	10	0.00216206
2	1	0	1	0	7369.34	0.221032	0.220812	9.47758	6	0.0178981	10	0.00209277
2	1	0	1	0	7369.39	0.23053	0.230234	8.99569	6	0.0183361	10	0.00207111
2	1	0	1	0	7369.43	0.240014	0.239725	8.66076	6	0.0187543	10	0.0020762
2	1	0	1	0	7369.48	0.249498	0.249168	8.38997	6	0.0191582	10	0.00209052
2	1	0	1	0	7369.53	0.258977	0.258716	8.19904	6	0.0195509	10	0.00212123
2	1	0	1	0	7369.58	0.268475	0.268161	8.00418	6	0.0199354	10	0.00214641
2	1	0	1	0	7369.62	0.277973	0.277698	7.85456	6	0.0203122	10	0.0021812
2	1	0	1	0	7369.67	0.287452	0.287183	7.71726	6	0.0206814	10	0.00221627
2	1	0	1	0	7369.72	0.296932	0.296627	7.59171	6	0.0210443	10	0.00225191
2	0	0	1	0	7369.76	0.294743	0.294468	-0.85513	6	0.0212201	10	-0.000251808
2	0	0	1	0	7369.81	0.285264	0.285008	-3.35846	6	0.0211005	10	-0.000957191
2	0	0	1	0	7369.85	0.275766	0.275498	-3.97454	6	0.0209245	10	-0.00109498
2	0	0	1	0	7369.9	0.266269	0.265953	-4.37137	6	0.0207256	10	-0.00116258
2	0	0	1	0	7369.95	0.256785	0.256458	-4.72709	6	0.0205097	10	-0.0012123
2	0	0	1	0	7370	0.247301	0.246913	-5.03412	6	0.0202784	10	-0.00124299
2	0	0	1	0	7370.04	0.237821	0.237521	-5.32165	6	0.0200329	10	-0.001264
2	0	0	1	0	7370.09	0.228324	0.228039	-5.60338	6	0.0197733	10	-0.00127779
2	0	0	1	0	7370.14	0.218826	0.218505	-5.92016	6	0.0194997	10	-0.00129358
2	0	0	1	0	7370.19	0.209347	0.209054	-6.23044	6	0.0192117	10	-0.0013025
2	0	0	1	0	7370.23	0.199867	0.199564	-6.64098	6	0.0189063	10	-0.0013253
2	0	0	1	0	7370.28	0.190383	0.190043	-7.15721	6	0.0185796	10	-0.00136018
2	0	0	1	0	7370.33	0.180881	0.180577	-7.84907	6	0.0182244	10	-0.00141736
2	0	0	1	0	7370.38	0.171383	0.171068	-8.83522	6	0.0178295	10	-0.00151143
2	0	0	1	0	7370.42	0.161904	0.161564	-10.3228	6	0.0173776	10	-0.00166779
2	0	0	1	0	7370.47	0.152424	0.1521	-12.5101	6	0.0168393	10	-0.00190278
2	0	0	1	0	7370.52	0.142927	0.142673	-15.5289	6	0.0161757	10	-0.00221555
2	0	0	1	0	7370.57	0.133429	0.133131	-18.9481	6	0.0153569	10	-0.00252259
2	0	0	1	0	7370.61	0.123941	0.123688	-22.2232	6	0.0143785	10	-0.00274875
2	0	0	1	0	7370.66	0.114461	0.114187	-24.7505	6	0.0132618	10	-0.0028262
2	0	0	1	0	7370.71	0.104982	0.104659	-26.0734	6	0.0120522	10	-0.00272882
2	0	0	1	0	7370.76	0.0954841	0.095155	-26.0079	6	0.0108093	10	-0.00247478
2	0	0	1	0	7370.8	0.0859865	0.0857108	-24.4629	6	0.00960598	10	-0.00209674
2	0	0	1	0	7370.85	0.076507	0.0761983	-22.1698	6	0.00850041	10	-0.00168931
2	0	0	1	0	7370.9	0.0670275	0.0667388	-20.2149	6	0.00749828	10	-0.00134912
2	0	0	1	0	7370.95	0.057539	0.057229	-18.7698	6	0.00657603	10	-0.00107418
2	0	0	1	0	7370.99	0.0480414	0.0477167	-17.4546	6	0.00571606	10	-0.000832875
2	0	0	1	0	7371.04	0.0385438	0.0382389	-16.0253	6	0.00492065	10	-0.000612789
2	0	0	1	0	7371.09	0.0290643	0.0287403	-14.4644	6	0.00419878	10	-0.000415713
2	0	0	1	0	7371.14	0.0195849	0.0192817	-13.2553	6	0.00354395	10	-0.000255585
2	0	0	1	0	7371.18	0.0100873	0.00976948	-12.5481	6	0.00293321	10	-0.000122589
2	0	0	1	0	7371.23	0.000589633	0.000200445	-12.2983	6	0.00234501	10	-2.46513e-06
2	0	0	1	0	7371.28	-0.00889891	-0.009266	-12.249	6	0.00176421	10	0.000113499
2	0	0	1	0	7371.32	-0.0183784	-0.0186726	-12.3874	6	0.00118072	10	0.000231305
2	0	0	1	0	7371.37	-0.0278578	-0.0281841	-12.6307	6	0.000587801	10	0.000355985
2	0	0	1	0	7371.42	-0.0373554	-0.0377277	-12.9735	6	-2.00687e-05	10	0.000489459
2	0	0	1	0	7371.47	-0.0468531	-0.0471969	-13.3251	6	-0.000644684	10	0.000628903
2	0	0	1	0	7371.51	-0.0563325	-0.056672	-13.7548	6	-0.00128663	10	0.000779512
2	0	0	1	0	7371.56	-0.065812	-0.0661445	-14.2325	6	-0.0019499	10	0.000941402
2	0	0	1	0	7371.61	-0.0753005	-0.0756691	-14.812	6	-0.0026378	10	0.00112081
2	0	0	1	0	7371.66	-0.0847982	-0.0851168	-15.4892	6	-0.00335676	10	0.00131839
2	0	0	1	0	7371.7	-0.0942958	-0.0946167	-16.2851	6	-0.00411093	10	0.00154085
2	0	0	1	1	7371.74	-0.0976826	-0.0980493	-10.6855	6	-0.00473855	10	0.00104771
2	1	0	1	1	7371.79	-0.088185	-0.08854	1.9791	6	-0.00489383	10	-0.00017523
2	1	0	1	1	7371.84	-0.0787055	-0.0790614	7.06749	6	-0.0046628	10	-0.000558765
2	1	0	1	1	7371.89	-0.0692261	-0.0696002	9.41683	6	-0.00426457	10	-0.000655413
2	1	0	1	1	7371.93	-0.0597284	-0.0600679	10.5124	6	-0.00378789	10	-0.000631457
2	1	0	1	1	7371.98	-0.0502308	-0.0505779	10.9983	6	-0.00327506	10	-0.000556271
2	1	0	1	1	7372.03	-0.0407423	-0.0410924	11.2317	6	-0.0027472	10	-0.000461538
2	1	0	1	1	7372.08	-0.0312628	-0.0316051	11.253	6	-0.00221406	10	-0.000355652
2	1	0	1	1	7372.12	-0.0217833	-0.0221361	11.1935	6	-0.00168185	10	-0.000247779
2	1	0	1	1	7372.17	-0.0122857	-0.0126438	11.0761	6	-0.00115271	10	-0.000140045
2	1	0	1	1	7372.22	-0.00278811	-0.00309125	10.9402	6	-0.00062966	10	-3.3819e-05
2	1	0	1	0	8599.89	0.00529304	0.00495839	8.41417	7	0.000207032	10	4.17207e-05
2	1	0	1	0	8599.94	0.0147725	0.0144587	9.61883	7	0.000639232	10	0.000139075
2	1	0	1	0	8599.98	0.0242701	0.0239585	10.1025	7	0.00110914	10	0.00024204
2	1	0	1	0	8600.03	0.0337587	0.0334863	10.4729	7	0.00159669	10	0.000350699
2	1	0	1	0	8600.08	0.0432563	0.0429699	10.9267	7	0.0021038	10	0.000469518
2	1	0	1	0	8600.12	0.0527357	0.0523956	11.516	7	0.00263473	10	0.000603389
2	1	0	1	0	8600.17	0.0622152	0.0618967	12.3548	7	0.00320001	10	0.00076472
2	1	0	1	0	8600.22	0.0717128	0.0713802	13.3118	7	0.00380942	10	0.000950199
2	1	0	1	0	8600.27	0.0812104	0.0809311	14.3742	7	0.00446718	10	0.00116332
2	1	0	1	0	8600.31	0.0906899	0.0903256	15.4191	7	0.00517375	10	0.00139274
2	1	0	1	0	8600.36	0.100178	0.0998683	16.4279	7	0.00592871	10	0.00164063
2	1	0	1	0	8600.41	0.109658	0.10932	17.4539	7	0.00673123	10	0.00190806
2	1	0	1	0	8600.46	0.119155	0.118851	18.755	7	0.00758977	10	0.00222905
2	1	0	1	0	8600.5	0.128653	0.128359	20.4026	7	0.00851843	10	0.00261885
2	1	0	1	0	8600.55	0.138133	0.137818	22.2893	7	0.00953032	10	0.00307187
2	1	0	1	0	8600.6	0.147612	0.147344	24.0924	7	0.0106306	10	0.00354986
2	1	0	1	0	8600.65	0.157091	0.156775	25.5197	7	0.0118089	10	0.00400084
2	1	0	1	0	8600.69	0.166598	0.166294	25.9838	7	0.0130384	10	0.00432096
2	1	0	1	0	8600.74	0.176096	0.175847	23.981	7	0.0142374	10	0.004217
2	1	0	1	0	8600.79	0.185575	0.185291	19.0283	7	0.0152641	10	0.00352577
2	1	0	1	0	8600.84	0.195055	0.194723	14.1216	7	0.0160418	10	0.00274979
2	1	0	1	0	8600.88	0.204552	0.204229	11.3845	7	0.0166388	10	0.00232505
2	1	0	1	0	8600.93	0.21405	0.213751	10.1541	7	0.0171471	10	0.00217044
2	1	0	1	0	8600.98	0.223534	0.223265	9.46126	7	0.0176108	10	0.00211237
2	1	0	1	0	8601.03	0.233018	0.232705	8.99835	7	0.0180475	10	0.00209396
2	1	0	1	0	8601.07	0.242497	0.242169	8.64203	7	0.0184652	10	0.00209283
2	1	0	1	0	8601.12	0.251995	0.2517	8.37947	7	0.0188693	10	0.00210912
2	1	0	1	0	8601.17	0.261493	0.261186	8.16004	7	0.0192623	10	0.00213129
2	1	0	1	0	8601.22	0.270972	0.270663	8.00581	7	0.0196454	10	0.00216688
2	1	0	1	0	8601.26	0.280452	0.280173	7.8385	7	0.020021	10	0.00219614
2	1	0	1	0	8601.31	0.28994	0.289623	7.73256	7	0.0203899	10	0.00223953
2	1	0	1	0	8601.36	0.299438	0.299186	7.59921	7	0.0207535	10	0.00227358
2	0	0	1	0	8601.4	0.292246	0.291953	-1.61169	7	0.02083	10	-0.000470539
2	0	0	1	0	8601.45	0.282749	0.282458	-3.24109	7	0.0207049	10	-0.000915473
2	0	0	1	0	8601.5	0.273265	0.272993	-3.81039	7	0.0205365	10	-0.00104021
2	0	0	1	0	8601.54	0.263781	0.263538	-4.24443	7	0.020345	10	-0.00111857
2	0	0	1	0	8601.59	0.254301	0.253978	-4.57742	7	0.0201355	10	-0.00116257
2	0	0	1	0	8601.64	0.244804	0.244494	-4.8975	7	0.0199102	10	-0.00119741
2	0	0	1	0	8601.68	0.235306	0.235046	-5.17828	7	0.0196705	10	-0.00121713
2	0	0	1	0	8601.73	0.225827	0.225558	-5.46758	7	0.0194177	10	-0.00123326
2	0	0	1	0	8601.78	0.216347	0.216037	-5.77575	7	0.0191509	10	-0.00124778
2	0	0	1	0	8601.83	0.206863	0.206524	-6.1273	7	0.0188691	10	-0.00126543
2	0	0	1	0	8601.87	0.197361	0.197046	-6.50052	7	0.0185696	10	-0.0012809
2	0	0	1	0	8601.92	0.187863	0.18755	-7.00497	7	0.0182494	10	-0.00131378
2	0	0	1	0	8601.97	0.178384	0.178077	-7.66722	7	0.0179027	10	-0.00136535
2	0	0	1	0	8602.02	0.168904	0.168595	-8.62341	7	0.0175178	10	-0.00145386
2	0	0	1	0	8602.06	0.159407	0.159114	-10.0972	7	0.0170753	10	-0.0016066
2	0	0	1	0	8602.11	0.149909	0.149609	-12.2299	7	0.0165482	10	-0.00182971
2	0	0	1	0	8602.16	0.140421	0.140136	-15.1503	7	0.0159015	10	-0.00212309
2	0	0	1	0	8602.21	0.130941	0.13072	-18.3638	7	0.0151075	10	-0.00240052
2	0	0	1	0	8602.25	0.121462	0.121191	-21.3655	7	0.0141629	10	-0.00258931
2	0	0	1	0	8602.3	0.111964	0.111699	-23.6315	7	0.0130907	10	-0.00263961
2	0	0	1	0	8602.35	0.102467	0.1022	-24.8203	7	0.011935	10	-0.00253663
2	0	0	1	0	8602.4	0.0929871	0.0926776	-24.7342	7	0.0107552	10	-0.00229231
2	0	0	1	0	8602.44	0.0835077	0.0832129	-23.4226	7	0.00960961	10	-0.00194906
2	0	0	1	0	8602.49	0.0740191	0.0736753	-21.5129	7	0.00854487	10	-0.00158497
2	0	0	1	0	8602.54	0.0645215	0.0642089	-19.8991	7	0.00756361	10	-0.0012777
2	0	0	1	0	8602.59	0.0550239	0.0546869	-18.6378	7	0.00664997	10	-0.00101924
2	0	0	1	0	8602.63	0.0455444	0.0452153	-17.4535	7	0.00579446	10	-0.000789163
2	0	0	1	0	8602.68	0.036065	0.0357393	-16.1426	7	0.00499743	10	-0.000576924
2	0	0	1	0	8602.73	0.0265673	0.0262394	-14.6854	7	0.0042655	10	-0.000385336
2	0	0	1	0	8602.78	0.0170697	0.016757	-13.4565	7	0.00359851	10	-0.00022549
2	0	0	1	0	8602.82	0.00758119	0.00726275	-12.7409	7	0.00297949	10	-9.25344e-05
2	0	0	1	0	8602.87	-0.00189827	-0.00225228	-12.384	7	0.00238539	10	2.78923e-05
2	0	0	1	0	8602.92	-0.0113777	-0.0117153	-12.2933	7	0.00180164	10	0.000144019
2	0	0	1	0	8602.97	-0.0208754	-0.0212164	-12.3837	7	0.00121631	10	0.000262737
2	0	0	1	0	8603.01	-0.030373	-0.0307254	-12.5971	7	0.000623398	10	0.000387049
2	0	0	1	0	8603.06	-0.0398524	-0.0402204	-12.8851	7	1.93158e-05	10	0.000518242
2	0	0	1	0	8603.11	-0.0493319	-0.0496643	-13.2514	7	-0.000600297	10	0.000658121
2	0	0	1	0	8603.16	-0.0588204	-0.0591932	-13.6591	7	-0.00123823	10	0.000808525
2	0	0	1	0	8603.2	-0.0683181	-0.0686643	-14.149	7	-0.00189856	10	0.000971531
2	0	0	1	0	8603.25	-0.0778157	-0.0781634	-14.7084	7	-0.00258373	10	0.00114966
2	0	0	1	0	8603.3	-0.0872951	-0.0876863	-15.39	7	-0.00329678	10	0.00134949
2	0	0	1	0	8603.35	-0.0967746	-0.0971475	-16.1833	7	-0.00404491	10	0.00157217
2	0	0	1	1	8603.39	-0.0951856	-0.0955754	-6.36551	7	-0.00456709	10	0.000608386
2	1	0	1	1	8603.43	-0.0857062	-0.0860916	2.90659	7	-0.00461557	10	-0.000250233
2	1	0	1	1	8603.48	-0.0762085	-0.0765935	7.00347	7	-0.0043681	10	-0.00053642
2	1	0	1	1	8603.53	-0.0667109	-0.0670737	9.04528	7	-0.00398079	10	-0.000606701
2	1	0	1	1	8603.58	-0.0572224	-0.0576081	10.0727	7	-0.00352514	10	-0.000580267
2	1	0	1	1	8603.62	-0.0477429	-0.0480436	10.5748	7	-0.00303469	10	-0.000508052
2	1	0	1	1	8603.67	-0.0382634	-0.0386206	10.8027	7	-0.00252724	10	-0.000417206
2	1	0	1	1	8603.72	-0.0287658	-0.0291217	10.8638	7	-0.00201205	10	-0.000316372
2	1	0	1	1	8603.77	-0.0192682	-0.0195914	10.823	7	-0.00149636	10	-0.000212037
2	1	0	1	1	8603.81	-0.00978874	-0.0101319	10.7599	7	-0.000984552	10	-0.000109018
2	1	0	1	1	8603.86	-0.000309281	-0.000657617	10.6305	7	-0.000477271	10	-6.99077e-06
2	1	0	1	0	9831.53	0.00779002	0.00745753	8.96703	8	0.000317518	10	6.68719e-05
2	1	0	1	0	9831.58	0.0172786	0.0169948	10.0157	8	0.00077142	10	0.000170215
2	1	0	1	0	9831.62	0.0267762	0.0264854	10.4648	8	0.00125853	10	0.000277165
2	1	0	1	0	9831.67	0.0362556	0.0359683	10.885	8	0.00176426	10	0.000391517
2	1	0	1	0	9831.72	0.0457351	0.0454157	11.4157	8	0.00229214	10	0.000518452
2	1	0	1	0	9831.77	0.0552327	0.0549245	12.1367	8	0.00285091	10	0.000666603
2	1	0	1	0	9831.81	0.0647303	0.0643763	13.0339	8	0.0034486	10	0.000839073
2	1	0	1	0	9831.86	0.0742098	0.0738888	14.0513	8	0.0040903	10	0.00103823
2	1	0	1	0	9831.91	0.0836983	0.0833734	15.0958	8	0.00478154	10	0.00125859
2	1	0	1	0	9831.96	0.0931778	0.092865	16.1188	8	0.0055213	10	0.00149688
2	1	0	1	0	9832	0.102675	0.102406	17.084	8	0.00630961	10	0.0017495
2	1	0	1	0	9832.05	0.112173	0.111836	18.1923	8	0.00714659	10	0.00203456
2	1	0	1	0	9832.1	0.121652	0.121366	19.6268	8	0.00804149	10	0.00238203
2	1	0	1	0	9832.15	0.131132	0.130766	21.3818	8	0.00901276	10	0.00279602
2	1	0	1	0	9832.19	0.140611	0.140308	23.2006	8	0.0100703	10	0.00325523
2	1	0	1	0	9832.24	0.150118	0.149826	24.8446	8	0.0112127	10	0.00372237
2	1	0	1	0	9832.29	0.159616	0.159328	25.8995	8	0.0124215	10	0.00412651
2	1	0	1	0	9832.34	0.169095	0.168801	25.4511	8	0.0136474	10	0.00429618
2	1	0	1	0	9832.38	0.178575	0.17825	22.0165	8	0.0147848	10	0.00392445
2	1	0	1	0	9832.43	0.188072	0.187764	16.6609	8	0.015704	10	0.00312832
2	1	0	1	0	9832.48	0.19757	0.19728	12.5809	8	0.0163891	10	0.00248195
2	1	0	1	0	9832.52	0.207058	0.20678	10.6089	8	0.0169318	10	0.00219371
2	1	0	1	0	9832.57	0.216538	0.216249	9.64486	8	0.0174089	10	0.00208569
2	1	0	1	0	9832.62	0.226017	0.2257	9.08968	8	0.0178518	10	0.00205154
2	1	0	1	0	9832.67	0.235515	0.235219	8.69372	8	0.0182736	10	0.00204492
2	1	0	1	0	9832.71	0.245013	0.244686	8.41476	8	0.0186797	10	0.00205898
2	1	0	1	0	9832.76	0.254492	0.254153	8.18848	8	0.0190733	10	0.00208112
2	1	0	1	0	9832.81	0.263971	0.263659	8.01769	8	0.0194577	10	0.00211394
2	1	0	1	0	9832.86	0.27346	0.273133	7.8953	8	0.0198346	10	0.00215647
2	1	0	1	0	9832.9	0.282958	0.282662	7.74965	8	0.0202056	10	0.00219053
2	1	0	1	0	9832.95	0.292455	0.292168	7.6316	8	0.0205706	10	0.00222971
2	1	0	1	0	9832.99	0.299229	0.299014	5.36781	8	0.0208821	10	0.00160505
2	0	0	1	0	9833.04	0.289745	0.28942	-2.61065	8	0.020876	10	-0.000755575
2	0	0	1	0	9833.09	0.280261	0.279975	-3.71086	8	0.0207208	10	-0.00103895
2	0	0	1	0	9833.14	0.270781	0.270495	-4.1784	8	0.0205333	10	-0.00113024
2	0	0	1	0	9833.18	0.261284	0.260987	-4.5496	8	0.0203257	10	-0.00118739
2	0	0	1	0	9833.23	0.251786	0.251421	-4.84598	8	0.0201023	10	-0.00121838
2	0	0	1	0	9833.28	0.242307	0.242046	-5.13635	8	0.0198652	10	-0.00124323
2	0	0	1	0	9833.33	0.232827	0.232498	-5.41479	8	0.019615	10	-0.00125893
2	0	0	1	0	9833.37	0.223339	0.223034	-5.69974	8	0.0193516	10	-0.00127123
2	0	0	1	0	9833.42	0.213841	0.213538	-5.99084	8	0.0190744	10	-0.00127927
2	0	0	1	0	9833.47	0.204343	0.204048	-6.33363	8	0.0187824	10	-0.00129236
2	0	0	1	0	9833.52	0.194864	0.194565	-6.69069	8	0.0184742	10	-0.00130177
2	0	0	1	0	9833.56	0.185385	0.185079	-7.20938	8	0.0181449	10	-0.00133431
2	0	0	1	0	9833.61	0.175887	0.175534	-7.89206	8	0.017787	10	-0.00138532
2	0	0	1	0	9833.66	0.166389	0.1661	-8.91912	8	0.017389	10	-0.00148146
2	0	0	1	0	9833.71	0.156901	0.156618	-10.4585	8	0.0169322	10	-0.001638
2	0	0	1	0	9833.75	0.147421	0.147142	-12.7289	8	0.0163859	10	-0.00187295
2	0	0	1	0	9833.8	0.137942	0.137668	-15.7295	8	0.0157135	10	-0.00216545
2	0	0	1	0	9833.85	0.128444	0.128143	-19.0253	8	0.0148883	10	-0.00243796
2	0	0	1	0	9833.9	0.118947	0.118719	-21.9224	8	0.0139126	10	-0.00260261
2	0	0	1	0	9833.94	0.109467	0.109163	-24.0574	8	0.0128185	10	-0.00262618
2	0	0	1	0	9833.99	0.0999877	0.0997235	-25.0384	8	0.0116499	10	-0.00249691
2	0	0	1	0	9834.04	0.0904992	0.0901789	-24.8005	8	0.0104637	10	-0.00223649
2	0	0	1	0	9834.08	0.0810016	0.080694	-23.3783	8	0.00931613	10	-0.00188649
2	0	0	1	0	9834.13	0.071504	0.0711636	-21.4797	8	0.0082513	10	-0.00152857
2	0	0	1	0	9834.18	0.0620245	0.0617006	-19.8798	8	0.0072729	10	-0.0012266
2	0	0	1	0	9834.23	0.052545	0.0521978	-18.6399	8	0.00636107	10	-0.000972959
2	0	0	1	0	9834.27	0.0430474	0.0427484	-17.4327	8	0.00550412	10	-0.000745221
2	0	0	1	0	9834.32	0.0335498	0.0332198	-16.1248	8	0.00470618	10	-0.000535663
2	0	0	1	0	9834.37	0.0240613	0.0237342	-14.6679	8	0.00397662	10	-0.000348132
2	0	0	1	0	9834.42	0.0145818	0.0142045	-13.4366	8	0.00331235	10	-0.000190859
2	0	0	1	0	9834.46	0.00510236	0.00479875	-12.6792	8	0.00269516	10	-6.08443e-05
2	0	0	1	0	9834.51	-0.00439526	-0.00475199	-12.3712	8	0.0021006	10	5.87877e-05
2	0	0	1	0	9834.56	-0.0138929	-0.0142443	-12.312	8	0.00151523	10	0.000175376
2	0	0	1	0	9834.61	-0.0233723	-0.0237073	-12.4503	8	0.000928828	10	0.000295163
2	0	0	1	0	9834.65	-0.0328518	-0.0332327	-12.6991	8	0.000332808	10	0.000422024
2	0	0	1	0	9834.7	-0.0423403	-0.0427027	-13.0518	8	-0.000277251	10	0.000557346
2	0	0	1	0	9834.75	-0.051838	-0.0521697	-13.4475	8	-0.000906058	10	0.000701552
2	0	0	1	0	9834.8	-0.0613356	-0.0616963	-13.8728	8	-0.00155449	10	0.000855897
2	0	0	1	0	9834.84	-0.070815	-0.071174	-14.4069	8	-0.00222455	10	0.00102539
2	0	0	1	0	9834.89	-0.0802945	-0.0806387	-15.0043	8	-0.00292106	10	0.00120992
2	0	0	1	0	9834.94	-0.0897921	-0.0901861	-15.7256	8	-0.00365062	10	0.00141823
2	0	0	1	0	9834.99	-0.0992943	-0.0996471	-16.5422	8	-0.00441651	10	0.00164838
2	0	0	1	1	9835.03	-0.0926886	-0.0930667	-2.95846	8	-0.00479138	10	0.000275334
2	1	0	1	1	9835.07	-0.083191	-0.0835764	4.56648	8	-0.00472734	10	-0.00038165
2	1	0	1	1	9835.12	-0.0737025	-0.0740701	8.09599	8	-0.00441692	10	-0.000599671
2	1	0	1	1	9835.17	-0.064223	-0.0645811	9.80167	8	-0.00398752	10	-0.000633002
2	1	0	1	1	9835.22	-0.0547435	-0.0550973	10.6738	8	-0.00349958	10	-0.000588099
2	1	0	1	1	9835.26	-0.0452459	-0.045602	11.0577	8	-0.00298206	10	-0.000504252
2	1	0	1	1	9835.31	-0.0357483	-0.0360724	11.2141	8	-0.00245231	10	-0.000404518
2	1	0	1	1	9835.36	-0.0262688	-0.0266268	11.1991	8	-0.00192051	10	-0.000298196
2	1	0	1	1	9835.41	-0.0167894	-0.0171447	11.1101	8	-0.00139117	10	-0.00019048
2	1	0	1	1	9835.45	-0.00730084	-0.00764271	11.0055	8	-0.000866736	10	-8.41118e-05
2	1	0	0	1	9835.49	-2.44065e-05	-0.000344411	10.8664	8	-0.00046508	10	-3.74252e-06