File: Figure_codes/Fig_3-5/rawdata_trumpetplot_data/before 10th/20221101_1-115_002_TrumpetPlot_ParaChange_13_CV_C01_5.csv
mode,ox/red,error,control changes,counter inc.,time/s,control/V,Ewe/V,<I>/mA,cycle number,(Q-Qo)/C,I Range,P/W,log(|I|),Tafel slope mV/dec,alpha_eff,dI/d(E-IR),E-IR/V,
2,1,0,0,0,7372.33,2.44065e-05,-0.000458935,13.693,6,0.0000000E+000,10,-6.28417e-06,-1.8635, , , ,-0.000458935,
2,1,0,1,0,7372.34,0.00206084,0.00167778,13.5685,6,6.86424e-05,10,2.27651e-05,-1.86747, , , ,0.00167778,
2,1,0,1,0,7372.34,0.00446904,0.0041814,14.4786,6,0.000152911,10,6.05409e-05,-1.83927,0.0967864,0.60959,343.865,0.0041814,
2,1,0,1,0,7372.35,0.00686614,0.00656096,15.3256,6,0.000242458,10,0.000100551,-1.81458,0.103979,0.567421,337.008,0.00656096,
2,1,0,1,0,7372.36,0.00926324,0.00893202,16.0821,6,0.000336824,10,0.000143645,-1.79366,0.123397,0.478133,298.13,0.00893202,
2,1,0,1,0,7372.36,0.0116603,0.0113487,16.7377,6,0.000435421,10,0.000189951,-1.7763,0.148143,0.398264,258.89,0.0113487,
2,1,0,1,0,7372.37,0.0140685,0.0137505,17.3247,6,0.000537726,10,0.000238224,-1.76133,0.179212,0.32922,221.427,0.0137505,
2,1,0,1,0,7372.37,0.0164657,0.0161332,17.8145,6,0.000643244,10,0.000287406,-1.74923,0.220849,0.267151,184.901,0.0161332,
2,1,0,1,0,7372.38,0.0188628,0.0185213,18.2165,6,0.000751403,10,0.000337393,-1.73954,0.25971,0.227177,161.186,0.0185213,
2,1,0,1,0,7372.39,0.0212682,0.0209326,18.593,6,0.000861836,10,0.000389201,-1.73065,0.307061,0.192144,139.001,0.0209326,
2,1,0,1,0,7372.39,0.0236653,0.0233514,18.9016,6,0.000974368,10,0.000441379,-1.7235,0.364058,0.162062,119.152,0.0233514,
2,1,0,1,0,7372.4,0.0260624,0.0257352,19.1401,6,0.00108852,10,0.000492575,-1.71806,0.410953,0.143569,107.237,0.0257352,
2,1,0,1,0,7372.4,0.0284595,0.028119,19.3835,6,0.00120411,10,0.000545044,-1.71257,0.462733,0.127503,96.3509,0.02811902,
2,1,0,1,0,7372.41,0.0308677,0.0305548,19.613,6,0.00132119,10,0.000599271,-1.70746,0.526005,0.112166,85.6542,0.0305548,
2,1,0,1,0,7372.42,0.0332648,0.0329248,19.7817,6,0.0014394,10,0.000651309,-1.70374,0.605919,0.0973728,75.1974,0.0329248,
2,1,0,1,0,7372.42,0.0356619,0.0353393,19.9589,6,0.00155865,10,0.000705333,-1.69986,0.613456,0.0961764,74.939,0.0353393,
2,1,0,1,0,7372.43,0.0380673,0.0377146,20.1442,6,0.00167902,10,0.000759731,-1.69585,0.629887,0.0936676,73.6125,0.0377146,
2,1,0,1,0,7372.43,0.0404644,0.0401387,20.3149,6,0.00180044,10,0.000815415,-1.69218,0.671162,0.0879072,69.6984,0.0401387,
2,1,0,1,0,7372.44,0.0428615,0.0425331,20.4874,6,0.00192287,10,0.000871393,-1.68851,0.637793,0.0925065,74.0081,0.0425331,
2,1,0,1,0,7372.45,0.0452586,0.0449689,20.6587,6,0.00204631,10,0.000928999,-1.6849,0.624067,0.0945411,76.2797,0.0449689,
2,1,0,1,0,7372.45,0.0476668,0.0473304,20.8669,6,0.00217093,10,0.000987641,-1.68054,0.61434,0.096038,78.1374,0.0473304,
2,1,0,1,0,7372.46,0.0500639,0.0497301,21.035,6,0.00229665,10,0.00104607,-1.67706,0.590786,0.099867,82.0819,0.0497301,
2,1,0,1,0,7372.46,0.0524611,0.0521627,21.2422,6,0.00242349,10,0.00110805,-1.6728,0.531664,0.110972,92.1276,0.0521627,
2,1,0,1,0,7372.47,0.0548692,0.0545571,21.5001,6,0.00255172,10,0.00117298,-1.66756,0.50566,0.116679,97.8119,0.05455707,
2,1,0,1,0,7372.48,0.0572664,0.0569038,21.7082,6,0.00268136,10,0.00123528,-1.66338,0.48738,0.121055,102.682,0.0569038,
2,1,0,1,0,7372.48,0.0596635,0.0593522,21.9668,6,0.00281241,10,0.00130378,-1.65823,0.447169,0.131941,113.284,0.05935223,
2,1,0,1,0,7372.49,0.0620633,0.0617604,22.2601,6,0.00294511,10,0.00137479,-1.65247,0.421378,0.140017,121.694,0.0617604,
2,1,0,1,0,7372.49,0.064466,0.0641484,22.5648,6,0.00307963,10,0.0014475,-1.64657,0.397433,0.148453,130.798,0.0641484,
2,1,0,1,0,7372.5,0.0668631,0.066546,22.8942,6,0.003216,10,0.00152352,-1.64027,0.385099,0.153207,136.908,0.06654603,
2,1,0,1,0,7372.51,0.0692602,0.0689107,23.23,6,0.00335438,10,0.00160079,-1.63395,0.36562,0.16137,146.354,0.0689107,
2,1,0,1,0,7372.51,0.0716684,0.0713115,23.5879,6,0.00349485,10,0.00168209,-1.62731,0.35924,0.164235,151.178,0.0713115,
2,1,0,1,0,7372.52,0.0740655,0.073725,23.9486,6,0.0036375,10,0.00176561,-1.62072,0.356296,0.165593,154.848,0.073725,
2,1,0,1,0,7372.52,0.0764626,0.076078,24.3219,6,0.00378234,10,0.00185036,-1.614,0.349188,0.168963,160.481,0.076078,
2,1,0,1,0,7372.53,0.0788653,0.0785148,24.7197,6,0.00392948,10,0.00194086,-1.60696,0.337994,0.174559,168.473,0.0785148,
2,1,0,1,0,7372.54,0.0812651,0.0809008,25.1213,6,0.00407903,10,0.00203233,-1.59996,0.327643,0.180074,176.686,0.0809008,
2,1,0,1,0,7372.54,0.0836622,0.0833185,25.5587,6,0.00423112,10,0.00212951,-1.59246,0.312271,0.188938,188.617,0.0833185,
2,1,0,1,0,7372.55,0.0860593,0.0856758,26.0234,6,0.00438593,10,0.00222958,-1.58464,0.313758,0.188043,190.957,0.0856758,
2,1,0,1,0,7372.55,0.0884675,0.0881264,26.498,6,0.00454359,10,0.00233518,-1.57679,0.320277,0.184216,190.363,0.0881264,
2,1,0,1,0,7372.56,0.0908647,0.0905292,26.9375,6,0.00470394,10,0.00243863,-1.56964,0.327064,0.180393,189.765,0.0905292,
2,1,0,1,0,7372.57,0.0932618,0.0929682,27.4189,6,0.00486706,10,0.00254909,-1.56195,0.320925,0.183844,196.67,0.0929682,
2,1,0,1,0,7372.57,0.09567,0.0953085,27.8922,6,0.00503299,10,0.00265837,-1.55452,0.335366,0.175927,191.395,0.0953085,
2,1,0,1,0,7372.58,0.0980671,0.0977559,28.3466,6,0.00520174,10,0.00277104,-1.5475,0.334883,0.176181,194.875,0.0977559,
2,1,0,1,0,7372.58,0.100464,0.100097,28.817,6,0.00537327,10,0.00288451,-1.54035,0.339522,0.173774,195.46,0.100097,
2,1,0,1,0,7372.59,0.102861,0.10255,29.2898,6,0.00554763,10,0.00300367,-1.53328,0.337702,0.17471,199.728,0.10255,
2,1,0,1,0,7372.6,0.105267,0.104945,29.7755,6,0.00572489,10,0.0031248,-1.52614,0.343174,0.171924,199.718,0.104945,
2,1,0,1,0,7372.6,0.107664,0.107368,30.2436,6,0.00590501,10,0.00324721,-1.51937,0.347088,0.169986,200.647,0.107368,
2,1,0,1,0,7372.61,0.110061,0.109726,30.7265,6,0.00608798,10,0.00337148,-1.51249,0.349458,0.168833,202.495,0.109726,
2,1,0,1,0,7372.61,0.112469,0.112135,31.2286,6,0.00627389,10,0.00350182,-1.50545,0.353787,0.166767,203.119,0.112135,
2,1,0,1,0,7372.62,0.114866,0.114523,31.7028,6,0.00646272,10,0.00363071,-1.4989,0.350712,0.168229,208.283,0.114523,
2,1,0,1,0,7372.63,0.117263,0.116934,32.2156,6,0.00665449,10,0.00376711,-1.49193,0.342698,0.172163,216.542,0.116934,
2,1,0,1,0,7372.63,0.11966,0.119342,32.745,6,0.00684941,10,0.00390784,-1.48486,0.34487,0.171079,218.594,0.119342,
2,1,0,1,0,7372.64,0.122066,0.121731,33.2718,6,0.00704752,10,0.0040502,-1.47792,0.337294,0.174922,227.237,0.121731,
2,1,0,1,0,7372.64,0.124463,0.124159,33.822,6,0.00724884,10,0.0041993,-1.4708,0.33038,0.178582,235.841,0.124159,
2,1,0,1,0,7372.65,0.12686,0.126524,34.4024,6,0.00745359,10,0.00435271,-1.46341,0.321514,0.183507,246.486,0.126524,
2,1,0,1,0,7372.66,0.129268,0.128951,35.0077,6,0.00766185,10,0.00451427,-1.45584,0.313515,0.188189,257.25,0.128951,
2,1,0,1,0,7372.66,0.131665,0.131362,35.636,6,0.00787385,10,0.00468122,-1.44811,0.306846,0.192279,267.495,0.1313623,
2,1,0,1,0,7372.67,0.134062,0.13373,36.2897,6,0.00808971,10,0.00485303,-1.44022,0.29695,0.198687,281.637,0.1337302,
2,1,0,1,0,7372.67,0.13646,0.136148,36.9795,6,0.00830957,10,0.00503468,-1.43204,0.292759,0.201531,291.012,0.136148,
2,1,0,1,0,7372.68,0.138868,0.138522,37.7008,6,0.00853369,10,0.0052224,-1.42365,0.287492,0.205223,301.996,0.138522,
2,1,0,1,0,7372.69,0.141265,0.140892,38.4274,6,0.00876211,10,0.00541412,-1.41536,0.284201,0.2076,311.426,0.140892,
2,1,0,1,0,7372.69,0.143662,0.143322,39.1913,6,0.00899502,10,0.00561696,-1.40681,0.288676,0.204381,312.487,0.143322,
2,1,0,1,0,7372.7,0.146067,0.145675,39.9603,6,0.00923255,10,0.00582121,-1.39837,0.285372,0.206748,322.394,0.145675,
2,1,0,1,0,7372.7,0.148465,0.148122,40.7164,6,0.00947463,10,0.00603099,-1.39023,0.287999,0.204862,325.652,0.148122,
2,1,0,1,0,7372.71,0.150862,0.150545,41.5168,6,0.00972144,10,0.00625016,-1.38178,0.292588,0.201649,326.587,0.150545,
2,1,0,1,0,7372.72,0.153264,0.15295,42.2774,6,0.00997291,10,0.00646633,-1.37389,0.299904,0.19673,324.621,0.15295,
2,1,0,1,0,7372.72,0.155667,0.155343,43.0601,6,0.010229,10,0.0066891,-1.36593,0.307196,0.19206,322.655,0.1553434,
2,1,0,1,0,7372.73,0.158064,0.157741,43.8402,6,0.0104898,10,0.0069154,-1.35813,0.322457,0.18297,312.729,0.157741,
2,1,0,1,0,7372.73,0.160461,0.160166,44.5676,6,0.0107551,10,0.00713821,-1.35098,0.337381,0.174876,304.049,0.160166,
2,1,0,1,0,7372.74,0.162867,0.162577,45.3045,6,0.0110248,10,0.00736549,-1.34386,0.350456,0.168352,297.39,0.162577,
2,1,0,1,0,7372.75,0.165264,0.164958,46.0015,6,0.0112988,10,0.00758832,-1.33723,0.376933,0.156527,280.71,0.164958,
2,1,0,1,0,7372.75,0.167661,0.167318,46.6529,6,0.0115768,10,0.00780584,-1.33112,0.406993,0.144966,263.706,0.167318,
2,1,0,1,0,7372.76,0.170069,0.169725,47.2695,6,0.0118586,10,0.00802279,-1.32542,0.458933,0.128559,236.811,0.169725,
2,1,0,1,0,7372.76,0.172466,0.17215,47.7986,6,0.0121439,10,0.00822853,-1.32058,0.524024,0.11259,209.722,0.17215,
2,1,0,1,0,7372.77,0.174863,0.174525,48.2661,6,0.0124322,10,0.00842364,-1.31636,0.653118,0.0903358,169.817,0.174525,
2,1,0,1,0,7372.78,0.17726,0.176878,48.6095,6,0.012723,10,0.00859796,-1.31328,0.931498,0.0633388,119.913,0.176878,
2,1,0,1,0,7372.78,0.179668,0.17937,48.8481,6,0.0130155,10,0.00876188,-1.31115,1.69889,0.0347285,66.0378,0.17937,
2,1,0,1,0,7372.79,0.182066,0.181726,48.9448,6,0.0133089,10,0.00889457,-1.31029,-14.2311,-0.00414586,-7.89041,0.181726,
2,1,0,1,0,7372.79,0.184463,0.184129,48.8342,6,0.0136024,10,0.0089918,-1.31128,-1.25699,-0.0469377,-89.1077,0.184129,
2,1,0,1,0,7372.8,0.186868,0.186571,48.5085,6,0.0138945,10,0.00905029,-1.31418,-0.605378,-0.0974598,-183.786,0.1865713,
2,1,0,1,0,7372.81,0.189265,0.188961,47.9746,6,0.014184,10,0.00906536,-1.31899,-0.388273,-0.151955,-283.037,0.188961,
2,1,0,1,0,7372.81,0.191662,0.191312,47.1561,6,0.0144694,10,0.00902156,-1.32646,-0.280919,-0.210025,-384.624,0.1913124,
2,1,0,1,0,7372.82,0.194059,0.193739,46.0896,6,0.0147492,10,0.00892933,-1.3364,-0.212215,-0.27802,-497.572,0.193739,
2,1,0,1,0,7372.82,0.196468,0.196176,44.7777,6,0.0150218,10,0.00878433,-1.34894,-0.171689,-0.343645,-597.115,0.196176,
2,1,0,1,0,7372.83,0.198865,0.198559,43.2023,6,0.0152857,10,0.00857821,-1.36449,-0.140707,-0.41931,-703.086,0.198559,
2,1,0,1,0,7372.84,0.201262,0.200966,41.4039,6,0.0155394,10,0.00832078,-1.38296,-0.121982,-0.483677,-777.808,0.200966,
2,1,0,1,0,7372.84,0.203667,0.203376,39.4478,6,0.0157819,10,0.00802271,-1.40398,-0.107393,-0.549384,-842.412,0.203376,
2,1,0,1,0,7372.85,0.206064,0.205761,37.3812,6,0.0160122,10,0.00769161,-1.42735,-0.0970931,-0.607664,-883.323,0.205761,
2,1,0,1,0,7372.85,0.208461,0.208183,35.2431,6,0.0162299,10,0.00733704,-1.45293,-0.0908005,-0.649776,-891.391,0.208183,
2,1,0,1,0,7372.86,0.210859,0.210564,33.0808,6,0.0164346,10,0.00696563,-1.48042,-0.0863428,-0.683323,-881.809,0.210564,
2,1,0,1,0,7372.87,0.213267,0.212984,31.0049,6,0.0166266,10,0.00660355,-1.50857,-0.0838111,-0.703964,-851.786,0.212984,
2,1,0,1,0,7372.87,0.215664,0.215384,29.0209,6,0.0168064,10,0.00625062,-1.53729,-0.082979,-0.711023,-806.05,0.215384,
2,1,0,1,0,7372.88,0.218061,0.217756,27.1391,6,0.0169746,10,0.00590969,-1.5664,-0.0855419,-0.689721,-733.503,0.217756,
2,1,0,1,0,7372.88,0.220469,0.220202,25.4872,6,0.0171322,10,0.00561233,-1.59368,-0.0888066,-0.664365,-663.013,0.2202021,
2,1,0,1,0,7372.89,0.222866,0.222587,23.9753,6,0.0172804,10,0.00533658,-1.62024,-0.09426,-0.625929,-588.213,0.222587,
2,1,0,1,0,7372.9,0.225263,0.224993,22.6486,6,0.0174201,10,0.00509578,-1.64496,-0.101292,-0.582472,-518.09,0.224993,
2,1,0,1,0,7372.9,0.227663,0.227368,21.5184,6,0.0175524,10,0.00489261,-1.66719,-0.113237,-0.52103,-440.111,0.227368,
2,1,0,1,0,7372.91,0.230066,0.229795,20.5563,6,0.0176785,10,0.00472373,-1.68705,-0.12927,-0.45641,-368.088,0.229795,
2,1,0,1,0,7372.91,0.232463,0.232158,19.7517,6,0.0177993,10,0.00458552,-1.70439,-0.147143,-0.400972,-310.65,0.232158,
2,1,0,1,0,7372.92,0.23486,0.234568,19.0691,6,0.0179156,10,0.00447301,-1.71967,-0.170435,-0.346172,-259.023,0.234568,
2,1,0,1,0,7372.93,0.237268,0.236968,18.5163,6,0.0180283,10,0.00438778,-1.73245,-0.201681,-0.292541,-212.296,0.236968,
2,1,0,1,0,7372.93,0.239665,0.239359,18.0624,6,0.0181379,10,0.0043234,-1.74322,-0.228277,-0.258458,-182.604,0.239359,
2,1,0,1,0,7372.94,0.242063,0.241764,17.6509,6,0.018245,10,0.00426735,-1.75323,-0.274805,-0.214698,-148.492,0.241764,
2,1,0,1,0,7372.94,0.244465,0.244177,17.342,6,0.0183498,10,0.00423452,-1.7609,-0.327631,-0.180081,-122.211,0.244177,
2,1,0,1,0,7372.95,0.246865,0.246535,17.0796,6,0.0184531,10,0.00421073,-1.76752,-0.379169,-0.155603,-103.752,0.246535,
2,1,0,1,0,7372.96,0.249262,0.248936,16.8276,6,0.0185548,10,0.00418899,-1.77398,-0.416789,-0.141558,-93.1846,0.248936,
2,1,0,1,0,7372.96,0.251659,0.25134,16.6233,6,0.0186551,10,0.00417809,-1.77928,-0.501517,-0.117643,-76.4918,0.25134,
2,1,0,1,0,7372.97,0.254067,0.253777,16.4846,6,0.0187544,10,0.00418342,-1.78292,-0.571907,-0.103164,-66.3109,0.2537767,
2,1,0,1,0,7372.97,0.256465,0.256157,16.3031,6,0.0188527,10,0.00417616,-1.78773,-0.595648,-0.0990518,-63.0966,0.256157,
2,1,0,1,0,7372.98,0.258862,0.258575,16.1645,6,0.0189501,10,0.00417973,-1.79144,-0.681401,-0.0865864,-54.6981,0.258575,
2,1,0,1,0,7372.99,0.26127,0.260976,16.0612,6,0.0190467,10,0.00419159,-1.79422,-0.77091,-0.0765329,-47.9498,0.260976,
2,1,0,1,0,7372.99,0.263667,0.263366,15.9441,6,0.0191427,10,0.00419914,-1.7974,-0.782599,-0.0753898,-46.8821,0.263366,
2,1,0,1,0,7373,0.266064,0.265748,15.8168,6,0.0192379,10,0.00420328,-1.80088,-0.845668,-0.0697674,-43.1245,0.265748,
2,1,0,1,0,7373,0.268461,0.268136,15.7147,6,0.0193325,10,0.00421366,-1.8037,-0.978109,-0.0603205,-37.0469,0.268136,
2,1,0,1,0,7373.01,0.270867,0.270561,15.6419,6,0.0194266,10,0.00423208,-1.80571,-0.955385,-0.0617552,-37.6578,0.2705608,
2,1,0,1,0,7373.02,0.273264,0.272952,15.5415,6,0.0195202,10,0.00424209,-1.80851,-0.878837,-0.0671342,-40.7234,0.272952,
2,1,0,1,0,7373.02,0.275661,0.275363,15.4411,6,0.0196131,10,0.00425192,-1.81132,-1.0429,-0.0565729,-34.1499,0.275363,
2,1,0,1,0,7373.03,0.278069,0.277738,15.387,6,0.0197056,10,0.00427354,-1.81285,-1.04305,-0.056565,-33.9143,0.277738,
2,1,0,1,0,7373.03,0.280466,0.280153,15.299,6,0.0197976,10,0.00428608,-1.81534,-0.980281,-0.0601869,-35.914,0.280153,
2,1,0,1,0,7373.04,0.282863,0.282572,15.2035,6,0.0198891,10,0.00429609,-1.81806,-1.08324,-0.0544661,-32.3776,0.282572,
2,1,0,1,0,7373.05,0.28526,0.284944,15.1386,6,0.0199801,10,0.00431366,-1.81991,-1.18832,-0.0496497,-29.3169,0.284944,
2,1,0,1,0,7373.05,0.287666,0.287368,15.0686,6,0.0200708,10,0.00433022,-1.82193,-1.12431,-0.0524767,-30.83,0.287368,
2,1,0,1,0,7373.06,0.290063,0.289774,14.9829,6,0.0201609,10,0.00434165,-1.82441,-1.01534,-0.0581087,-34.0087,0.2897743,
2,1,0,1,0,7373.06,0.29246,0.292155,14.9077,6,0.0202506,10,0.00435536,-1.82659,-1.21323,-0.0486307,-28.3178,0.292155,
2,1,0,1,0,7373.07,0.294868,0.294603,14.8532,6,0.0203398,10,0.0043758,-1.82818,-1.19106,-0.0495357,-28.6933,0.294603,
2,1,0,1,0,7373.08,0.297265,0.296971,14.7785,6,0.0204287,10,0.0043888,-1.83037,-1.19441,-0.0493967,-28.4969,0.296971,
2,1,0,1,0,7373.08,0.29958,0.299309,14.6946,6,0.0205142,10,0.00439821,-1.83284,-0.0614509,-0.960116,-523.073,0.299309,
2,1,0,1,0,7373.08,0.299962,0.299632,14.5446,6,0.0205333,10,0.00435803,-1.8373,0.00533704,11.0548,4502.72,0.299632,
2,1,0,1,0,7373.09,0.297903,0.297711,8.82968,6,0.020591,10,0.0026287,-2.05406,0.00738178,7.99265,2271.29,0.297711,
2,1,0,1,0,7373.1,0.295506,0.295282,4.14135,6,0.0206287,10,0.00122287,-2.38286,0.00221722,26.6099,1683.78,0.295282,
2,1,0,1,0,7373.1,0.293101,0.292881,0.85264,6,0.0206428,10,0.000249722,-3.06923,0.0153049,3.85498,1186.91,0.292881,
2,0,0,1,0,7373.11,0.290704,0.290384,-1.47739,6,0.0206404,10,-0.000429011,-2.8305,-0.0214216,-2.75423,842.341,0.290384,
2,0,0,1,0,7373.11,0.288307,0.288029,-3.1727,6,0.020626,10,-0.000913829,-2.49857,-0.0082289,-7.16985,620.862,0.2880289,
2,0,0,1,0,7373.12,0.28591,0.285648,-4.42522,6,0.0206029,10,-0.00126406,-2.35406,-0.0198584,-2.97103,459.942,0.285648,
2,0,0,1,0,7373.13,0.283501,0.283234,-5.38549,6,0.0205732,10,-0.00152535,-2.26877,-0.0337127,-1.75008,347.497,0.283234,
2,0,0,1,0,7373.13,0.281104,0.280774,-6.09456,6,0.0205386,10,-0.00171119,-2.21506,-0.0514922,-1.1458,264.637,0.280774,
2,0,0,1,0,7373.14,0.278707,0.278405,-6.6519,6,0.0205003,10,-0.00185192,-2.17705,-0.0712822,-0.827696,211.263,0.278405,
2,0,0,1,0,7373.14,0.276302,0.275997,-7.11659,6,0.0204589,10,-0.00196416,-2.14773,-0.0956205,-0.617023,168.585,0.275997,
2,0,0,1,0,7373.15,0.273905,0.273641,-7.46051,6,0.0204151,10,-0.0020415,-2.12723,-0.12089,-0.488049,140.999,0.273641,
2,0,0,1,0,7373.16,0.271508,0.271191,-7.75863,6,0.0203694,10,-0.00210407,-2.11021,-0.147261,-0.400649,120.936,0.271191,
2,0,0,1,0,7373.16,0.269105,0.268847,-8.0434,6,0.020322,10,-0.00216244,-2.09456,-0.176689,-0.33392,104.095,0.2688472,
2,0,0,1,0,7373.17,0.266702,0.266423,-8.26152,6,0.020273,10,-0.00220106,-2.08294,-0.213219,-0.276711,88.9366,0.266423,
2,0,0,1,0,7373.17,0.264305,0.264036,-8.45957,6,0.0202228,10,-0.00223363,-2.07265,-0.242927,-0.242871,80.1017,0.264036,
2,0,0,1,0,7373.18,0.261908,0.261591,-8.66526,6,0.0201714,10,-0.00226675,-2.06222,-0.258405,-0.228324,76.9581,0.261591,
2,0,0,1,0,7373.19,0.2595,0.259225,-8.8372,6,0.0201189,10,-0.00229082,-2.05369,-0.296269,-0.199143,68.5471,0.259225,
2,0,0,1,0,7373.19,0.257103,0.256829,-8.99151,6,0.0200654,10,-0.00230928,-2.04617,-0.319485,-0.184672,64.7983,0.256829,
2,0,0,1,0,7373.2,0.254706,0.254449,-9.14776,6,0.020011,10,-0.00232764,-2.03869,-0.329096,-0.179279,63.9776,0.254449,
2,0,0,1,0,7373.2,0.2523,0.252009,-9.30726,6,0.0199556,10,-0.00234551,-2.03118,-0.352632,-0.167313,60.6656,0.252009,
2,0,0,1,0,7373.21,0.249903,0.249609,-9.43889,6,0.0198994,10,-0.00235603,-2.02508,-0.375333,-0.157194,57.8537,0.249609,
2,0,0,1,0,7373.22,0.247506,0.247235,-9.56881,6,0.0198423,10,-0.00236575,-2.01914,-0.366789,-0.160855,60.2078,0.247235,
2,0,0,1,0,7373.22,0.245109,0.244801,-9.72188,6,0.0197844,10,-0.00237993,-2.01225,-0.383953,-0.153665,58.2423,0.244801,
2,0,0,1,0,7373.23,0.242701,0.24243,-9.86259,6,0.0197256,10,-0.00239099,-2.00601,-0.406548,-0.145124,55.7609,0.24243,
2,0,0,1,0,7373.23,0.240304,0.240016,-9.98167,6,0.0196661,10,-0.00239576,-2.0008,-0.442311,-0.13339,52.0187,0.240016,
2,0,0,1,0,7373.24,0.237906,0.237635,-10.1248,6,0.0196058,10,-0.00240601,-1.99461,-0.424838,-0.138876,54.811,0.237635,
2,0,0,1,0,7373.25,0.235501,0.23521,-10.2522,6,0.0195447,10,-0.00241142,-1.98918,-0.430919,-0.136917,54.7821,0.23521,
2,0,0,1,0,7373.25,0.233104,0.232802,-10.3731,6,0.0194828,10,-0.00241487,-1.98409,-0.441777,-0.133551,54.1016,0.232802,
2,0,0,1,0,7373.26,0.230707,0.230414,-10.5189,6,0.0194201,10,-0.00242371,-1.97803,-0.422912,-0.139509,57.2174,0.230414,
2,0,0,1,0,7373.26,0.22831,0.227999,-10.635,6,0.0193566,10,-0.00242477,-1.97326,-0.44178,-0.133551,55.4616,0.227999,
2,0,0,1,0,7373.27,0.225902,0.225594,-10.7713,6,0.0192924,10,-0.00242994,-1.96773,-0.447845,-0.131742,55.3769,0.225594,
2,0,0,1,0,7373.28,0.223504,0.223237,-10.9017,6,0.0192273,10,-0.00243366,-1.96251,-0.448732,-0.131482,55.9727,0.223237,
2,0,0,1,0,7373.28,0.221107,0.220832,-11.0396,6,0.0191615,10,-0.00243791,-1.95705,-0.423642,-0.139268,60.0511,0.220832,
2,0,0,1,0,7373.29,0.218699,0.218429,-11.2026,6,0.0190948,10,-0.00244697,-1.95068,-0.440864,-0.133828,58.3784,0.218429,
2,0,0,1,0,7373.29,0.216302,0.216004,-11.3167,6,0.0190272,10,-0.00244445,-1.94628,-0.450077,-0.131089,57.9739,0.216004,
2,0,0,1,0,7373.3,0.213905,0.213568,-11.4748,6,0.0189588,10,-0.00245066,-1.94025,-0.424844,-0.138875,62.2207,0.2135682,
2,0,0,1,0,7373.31,0.211505,0.211184,-11.6193,6,0.0188896,10,-0.00245382,-1.93482,-0.431984,-0.136579,61.9057,0.211184,
2,0,0,1,0,7373.31,0.209102,0.208818,-11.7613,6,0.0188193,10,-0.00245596,-1.92955,-0.405381,-0.145542,66.9216,0.208818,
2,0,0,1,0,7373.32,0.206705,0.206435,-11.9428,6,0.0187482,10,-0.00246542,-1.92289,-0.408673,-0.14437,67.2593,0.206435,
2,0,0,1,0,7373.32,0.204308,0.203987,-12.115,6,0.0186761,10,-0.00247131,-1.91668,-0.387905,-0.152099,71.8623,0.203987,
2,0,0,1,0,7373.33,0.2019,0.201602,-12.2754,6,0.0186029,10,-0.00247475,-1.91096,-0.385015,-0.153241,73.4874,0.201602,
2,0,0,1,0,7373.34,0.199503,0.199207,-12.4513,6,0.0185287,10,-0.0024804,-1.90478,-0.371047,-0.159009,77.3274,0.199207,
2,0,0,1,0,7373.34,0.197106,0.196796,-12.6404,6,0.0184534,10,-0.00248757,-1.89824,-0.35135,-0.167924,82.9592,0.196796,
2,0,0,1,0,7373.35,0.194709,0.194441,-12.8382,6,0.0183769,10,-0.00249627,-1.89149,-0.346562,-0.170244,85.4561,0.194441,
2,0,0,1,0,7373.35,0.192303,0.19201,-13.0673,6,0.0182991,10,-0.00250905,-1.88382,-0.320175,-0.184274,93.9823,0.19201,
2,0,0,1,0,7373.36,0.189906,0.189597,-13.2894,6,0.01822,10,-0.00251962,-1.8765,-0.31813,-0.185459,96.2981,0.189597,
2,0,0,1,0,7373.37,0.187509,0.187252,-13.5391,6,0.0181396,10,-0.00253522,-1.86841,-0.300934,-0.196056,103.63,0.187252,
2,0,0,1,0,7373.37,0.185101,0.184851,-13.7961,6,0.0180575,10,-0.00255023,-1.86024,-0.279618,-0.211002,113.695,0.184851,
2,0,0,1,0,7373.38,0.182704,0.182424,-14.0765,6,0.0179739,10,-0.00256789,-1.85151,-0.271935,-0.216964,119.364,0.182424,
2,0,0,1,0,7373.38,0.180307,0.180021,-14.3816,6,0.0178885,10,-0.00258899,-1.84219,-0.250935,-0.235121,132.051,0.180021,
2,0,0,1,0,7373.39,0.177904,0.177634,-14.7047,6,0.0178013,10,-0.00261206,-1.83254,-0.239727,-0.246113,141.477,0.177634,
2,0,0,1,0,7373.4,0.175501,0.1752,-15.0607,6,0.017712,10,-0.00263863,-1.82215,-0.221684,-0.266145,156.623,0.1752,
2,0,0,1,0,7373.4,0.173104,0.172811,-15.4512,6,0.0176204,10,-0.00267014,-1.81104,-0.215836,-0.273356,164.972,0.172811,
2,0,0,1,0,7373.41,0.170707,0.17038,-15.8475,6,0.0175265,10,-0.0027001,-1.80004,-0.200706,-0.293962,182.368,0.17038,
2,0,0,1,0,7373.41,0.168302,0.168035,-16.3146,6,0.0174299,10,-0.00274143,-1.78742,-0.189149,-0.311923,198.938,0.168035,
2,0,0,1,0,7373.42,0.165905,0.165619,-16.8155,6,0.0173305,10,-0.00278496,-1.77429,-0.180912,-0.326126,214.206,0.165619,
2,0,0,1,0,7373.43,0.163507,0.163236,-17.3377,6,0.017228,10,-0.00283013,-1.76101,-0.169798,-0.347471,235.647,0.163236,
2,0,0,1,0,7373.43,0.161099,0.160789,-17.9377,6,0.0171222,10,-0.00288418,-1.74623,-0.163239,-0.361432,253.223,0.1607886,
2,0,0,1,0,7373.44,0.158702,0.158425,-18.56,6,0.0170127,10,-0.00294036,-1.73142,-0.153854,-0.38348,278.244,0.158425,
2,0,0,1,0,7373.44,0.156305,0.155973,-19.2467,6,0.0168992,10,-0.00300197,-1.71564,-0.149401,-0.39491,297.237,0.1559733,
2,0,0,1,0,7373.45,0.153908,0.153617,-19.984,6,0.0167815,10,-0.00306988,-1.69932,-0.143621,-0.410802,321.043,0.153617,
2,0,0,1,0,7373.46,0.151503,0.15124,-20.7842,6,0.0166591,10,-0.0031434,-1.68227,-0.139838,-0.421917,342.779,0.15124,
2,0,0,1,0,7373.46,0.149105,0.148848,-21.6396,6,0.0165317,10,-0.00322103,-1.66475,-0.133984,-0.44035,372.49,0.148848,
2,0,0,1,0,7373.47,0.146708,0.146441,-22.5609,6,0.0163991,10,-0.00330385,-1.64664,-0.130121,-0.453424,400,0.1464413,
2,0,0,1,0,7373.47,0.1443,0.144067,-23.5533,6,0.0162607,10,-0.00339326,-1.62795,-0.128167,-0.460336,423.691,0.144067,
2,0,0,1,0,7373.48,0.141903,0.141636,-24.6103,6,0.0161161,10,-0.00348569,-1.60888,-0.128135,-0.46045,442.142,0.141636,
2,0,0,1,0,7373.49,0.139506,0.139228,-25.6884,6,0.0159651,10,-0.00357656,-1.59026,-0.128283,-0.459921,461.4,0.139228,
2,0,0,1,0,7373.49,0.137109,0.13683,-26.8125,6,0.0158075,10,-0.00366875,-1.57166,-0.129425,-0.455861,477.411,0.13683,
2,0,0,1,0,7373.5,0.134701,0.134428,-27.9966,6,0.0156429,10,-0.00376353,-1.55289,-0.131208,-0.449667,490.962,0.134428,
2,0,0,1,0,7373.5,0.132303,0.132057,-29.1693,6,0.0154713,10,-0.00385201,-1.53507,-0.133828,-0.440863,501.809,0.132057,
2,0,0,1,0,7373.51,0.129906,0.129672,-30.3801,6,0.0152926,10,-0.00393945,-1.51741,-0.139876,-0.421801,499.207,0.129672,
2,0,0,1,0,7373.52,0.127501,0.127247,-31.5761,6,0.0151065,10,-0.00401796,-1.50064,-0.144936,-0.407077,501.061,0.127247,
2,0,0,1,0,7373.52,0.125104,0.124893,-32.7385,6,0.0149136,10,-0.0040888,-1.48494,-0.149481,-0.394699,504.693,0.124893,
2,0,0,1,0,7373.53,0.122707,0.122449,-33.9984,6,0.0147132,10,-0.00416306,-1.46854,-0.156074,-0.378025,500.516,0.122449,
2,0,0,1,0,7373.53,0.12031,0.120094,-35.1602,6,0.0145056,10,-0.00422254,-1.45395,-0.163162,-0.361605,495.962,0.120094,
2,0,0,1,0,7373.54,0.117901,0.117629,-36.3675,6,0.0142909,10,-0.00427788,-1.43929,-0.174629,-0.337859,478.619,0.117629,
2,0,0,1,0,7373.55,0.115504,0.115263,-37.4964,6,0.0140691,10,-0.00432196,-1.42601,-0.188281,-0.313362,457.646,0.115263,
2,0,0,1,0,7373.55,0.113107,0.112899,-38.5581,6,0.0138408,10,-0.00435315,-1.41388,-0.199808,-0.295284,443.927,0.112899,
2,0,0,1,0,7373.56,0.110702,0.110457,-39.6125,6,0.0136062,10,-0.00437549,-1.40217,-0.215849,-0.27334,421.87,0.110457,
2,0,0,1,0,7373.56,0.108305,0.108073,-40.6065,6,0.0133654,10,-0.00438845,-1.3914,-0.23294,-0.253284,400.643,0.108073,
2,0,0,1,0,7373.57,0.105908,0.105676,-41.5212,6,0.013119,10,-0.0043878,-1.38173,-0.250629,-0.235408,381.225,0.105676,
2,0,0,1,0,7373.58,0.103505,0.103258,-42.4268,6,0.012867,10,-0.00438092,-1.37236,-0.272585,-0.216446,357.762,0.103258,
2,0,0,1,0,7373.58,0.101102,0.100825,-43.2639,6,0.0126098,10,-0.00436207,-1.36387,-0.309692,-0.190512,320.864,0.100825,
2,0,0,1,0,7373.59,0.0987052,0.0984271,-43.9834,6,0.0123479,10,-0.00432916,-1.35671,-0.35825,-0.16469,282.249,0.0984271,
2,0,0,1,0,7373.59,0.0963081,0.0960285,-44.6209,6,0.012082,10,-0.00428488,-1.35046,-0.407913,-0.144639,251.526,0.0960285,
2,0,0,1,0,7373.6,0.0938999,0.09358,-45.2074,6,0.0118124,10,-0.00423051,-1.34479,-0.48135,-0.122572,215.774,0.09358003,
2,0,0,1,0,7373.61,0.0915028,0.0912376,-45.6832,6,0.0115397,10,-0.00416802,-1.34024,-0.603727,-0.0977263,173.839,0.09123759,
2,0,0,1,0,7373.61,0.0891057,0.0887987,-46.0378,6,0.0112645,10,-0.0040881,-1.33689,-0.765279,-0.0770961,138.292,0.0887987,
2,0,0,1,0,7373.62,0.0867002,0.0863852,-46.33,6,0.0109874,10,-0.00400223,-1.33414,-1.09688,-0.053789,97.0587,0.0863852,
2,0,0,1,0,7373.62,0.0843031,0.083995,-46.5133,6,0.0107087,10,-0.00390688,-1.33242,-2.10399,-0.028042,50.77,0.083995,
2,0,0,1,0,7373.63,0.081906,0.0816303,-46.5598,6,0.0104294,10,-0.00380069,-1.33199,-23.2512,-0.00253751,4.60324,0.0816303,
2,0,0,1,0,7373.64,0.0795089,0.0792041,-46.5259,6,0.0101502,10,-0.00368505,-1.3323,2.90846,0.0202857,-36.7662,0.0792041,
2,0,0,1,0,7373.64,0.0771007,0.0768044,-46.4042,6,0.00987133,10,-0.00356405,-1.33344,1.27238,0.0463697,-83.7353,0.0768044,
2,0,0,1,0,7373.65,0.0747036,0.0743962,-46.1237,6,0.00959374,10,-0.00343143,-1.33608,0.801939,0.0735717,-132.206,0.0743962,
2,0,0,1,0,7373.65,0.0723065,0.0720326,-45.758,6,0.00931813,10,-0.00329607,-1.33953,0.628571,0.0938637,-167.364,0.0720326,
2,0,0,1,0,7373.66,0.0699011,0.0695873,-45.3343,6,0.00904487,10,-0.00315469,-1.34357,0.520435,0.113367,-200.153,0.0695873,
2,0,0,1,0,7373.67,0.067504,0.0671526,-44.7855,6,0.00877455,10,-0.00300747,-1.34886,0.437833,0.134754,-235.206,0.0671526,
2,0,0,1,0,7373.67,0.0651069,0.0648091,-44.1927,6,0.00850765,10,-0.00286409,-1.35465,0.399855,0.147554,-254.288,0.0648091,
2,0,0,1,0,7373.68,0.0627098,0.0624232,-43.5477,6,0.00824448,10,-0.00271839,-1.36103,0.377251,0.156394,-265.687,0.0624232,
2,0,0,1,0,7373.68,0.0603016,0.0599715,-42.9022,6,0.00798513,10,-0.00257291,-1.36752,0.35323,0.16703,-279.42,0.0599715,
2,0,0,1,0,7373.69,0.0579045,0.0576004,-42.2078,6,0.00772985,10,-0.00243119,-1.37461,0.339411,0.17383,-286.339,0.0576004,
2,0,0,1,0,7373.7,0.0555074,0.0552092,-41.5198,6,0.00747876,10,-0.00229228,-1.38174,0.349211,0.168952,-273.965,0.0552092,
2,0,0,1,0,7373.7,0.0530992,0.0527448,-40.8834,6,0.00723163,10,-0.00215639,-1.38845,0.34484,0.171094,-272.847,0.0527448,
2,0,0,1,0,7373.71,0.0507021,0.0504003,-40.2181,6,0.00698838,10,-0.002027,-1.39558,0.339858,0.173602,-272.465,0.0504003,
2,0,0,1,0,7373.71,0.048305,0.0480069,-39.5587,6,0.00674915,10,-0.00189909,-1.40276,0.347548,0.169761,-262.326,0.0480069,
2,0,0,1,0,7373.72,0.0459051,0.0456125,-38.9475,6,0.00651373,10,-0.0017765,-1.40952,0.347591,0.16974,-257.948,0.0456125,
2,0,0,1,0,7373.73,0.0435024,0.0432128,-38.3323,6,0.00628189,10,-0.00165645,-1.41644,0.346465,0.170291,-254.694,0.0432128,
2,0,0,1,0,7373.73,0.0411053,0.0407898,-37.7078,6,0.00605385,10,-0.00153809,-1.42357,0.34098,0.173031,-254.756,0.0407898,
2,0,0,1,0,7373.74,0.0387082,0.0384113,-37.1073,6,0.00582945,10,-0.00142534,-1.43054,0.339757,0.173653,-251.457,0.0384113,
2,0,0,1,0,7373.74,0.0363,0.0360265,-36.5121,6,0.00560864,10,-0.0013154,-1.43756,0.328167,0.179787,-255.977,0.03602647,
2,0,0,1,0,7373.75,0.0339029,0.0335388,-35.8804,6,0.00539152,10,-0.00120338,-1.44514,0.31296,0.188522,-263.799,0.0335388,
2,0,0,1,0,7373.76,0.0315058,0.0311794,-35.2394,6,0.00517823,10,-0.00109874,-1.45297,0.303001,0.194719,-267.708,0.0311794,
2,0,0,1,0,7373.76,0.0291087,0.0287754,-34.587,6,0.00496885,10,-0.000995256,-1.46109,0.28814,0.204762,-276.156,0.0287754,
2,0,0,1,0,7373.77,0.0267033,0.026416,-33.9158,6,0.00476336,10,-0.000895919,-1.4696,0.268202,0.219983,-290.739,0.026416,
2,0,0,1,0,7373.77,0.0243062,0.0239771,-33.1933,6,0.00456208,10,-0.000795879,-1.47895,0.254962,0.231407,-299.685,0.0239771,
2,0,0,1,0,7373.78,0.0219091,0.0216039,-32.4761,6,0.00436516,10,-0.000701611,-1.48844,0.24749,0.238393,-301.977,0.02160388,
2,0,0,1,0,7373.79,0.0195009,0.0192116,-31.7569,6,0.00417252,10,-0.000610101,-1.49816,0.233963,0.252177,-312.018,0.0192116,
2,0,0,1,0,7373.79,0.0171038,0.0167652,-30.9823,6,0.0039844,10,-0.000519427,-1.50889,0.229119,0.257508,-311.422,0.0167652,
2,0,0,1,0,7373.8,0.0147067,0.0143921,-30.2331,6,0.00380088,10,-0.000435117,-1.51952,0.22803,0.258738,-305.359,0.0143921,
2,0,0,1,0,7373.8,0.012304,0.0119733,-29.5142,6,0.00362173,10,-0.000353382,-1.52997,0.227009,0.259901,-299.239,0.01197327,
2,0,0,1,0,7373.81,0.00990136,0.00957675,-28.7831,6,0.00344693,10,-0.000275649,-1.54086,0.227819,0.258978,-291.213,0.00957675,
2,0,0,1,0,7373.82,0.00750426,0.0072025,-28.1066,6,0.00327636,10,-0.000202438,-1.55119,0.239424,0.246425,-270.712,0.0072025,
2,0,0,1,0,7373.82,0.00510715,0.00481977,-27.4814,6,0.00310966,10,-0.000132454,-1.56096,0.27049,0.218123,-234.609,0.00481977,
2,0,0,1,0,7373.83,0.00270173,0.00237129,-26.9194,6,0.00294651,10,-6.38336e-05,-1.56994,0.284808,0.207157,-218.152,0.00237129,
2,0,0,1,0,7373.83,0.000304623,-9.32235e-06,-26.4541,6,0.00278631,10,2.46614e-07,-1.57751,0.307612,0.1918,-198.117,-0.000009322348,
2,0,0,1,0,7373.84,-0.00209248,-0.00247159,-25.9774,6,0.00262911,10,6.42054e-05,-1.5854,0.325469,0.181277,-184.244,-0.00247159,
2,0,0,1,0,7373.85,-0.00450068,-0.00491158,-25.5897,6,0.00247449,10,0.000125686,-1.59193,0.374256,0.157646,-157.57,-0.00491158,
2,0,0,1,0,7373.85,-0.00689779,-0.00725296,-25.2319,6,0.00232211,10,0.000183006,-1.59805,0.424728,0.138912,-136.971,-0.00725296,
2,0,0,1,0,7373.86,-0.00929489,-0.00960495,-24.9258,6,0.00217175,10,0.000239411,-1.60335,0.516384,0.114256,-111.395,-0.00960495,
2,0,0,1,0,7373.86,-0.011692,-0.0120502,-24.697,6,0.00202296,10,0.000297605,-1.60736,0.612634,0.0963055,-92.8895,-0.0120502,
2,0,0,1,0,7373.87,-0.0140974,-0.0144595,-24.4796,6,0.00187544,10,0.000353962,-1.6112,0.762997,0.0773267,-74.0267,-0.0144595,
2,0,0,1,0,7373.88,-0.0164945,-0.0168836,-24.3233,6,0.00172908,10,0.000410664,-1.61398,0.94874,0.0621877,-59.148,-0.0168836,
2,0,0,1,0,7373.88,-0.0188916,-0.0192324,-24.212,6,0.00158347,10,0.000465654,-1.61597,1.30974,0.0450472,-42.5987,-0.0192324,
2,0,0,1,0,7373.89,-0.0212998,-0.0216703,-24.1261,6,0.00143848,10,0.000522819,-1.61751,1.76409,0.0334449,-31.523,-0.0216703,
2,0,0,1,0,7373.89,-0.0236969,-0.0240328,-24.0687,6,0.00129395,10,0.000578439,-1.61855,3.16359,0.0186497,-17.5326,-0.0240328,
2,0,0,1,0,7373.9,-0.026094,-0.026475,-24.0407,6,0.00114964,10,0.000636475,-1.61905,12.2333,0.00482292,-4.52885,-0.026475,
2,0,0,1,0,7373.91,-0.0284912,-0.0288269,-24.0295,6,0.00100543,10,0.000692697,-1.61926,-19.6517,-0.00300229,2.81899,-0.0288269,
2,0,0,1,0,7373.91,-0.0308994,-0.0312425,-24.0565,6,0.000861158,10,0.000751587,-1.61877,-4.4988,-0.0131146,12.3219,-0.0312425,
2,0,0,1,0,7373.92,-0.0332965,-0.0336179,-24.0909,6,0.000716725,10,0.000809884,-1.61815,-2.55844,-0.0230609,21.7093,-0.0336179,
2,0,0,1,0,7373.92,-0.0356936,-0.0360494,-24.1534,6,0.000572001,10,0.000870715,-1.61702,-2.01389,-0.0292965,27.6306,-0.0360494,
2,0,0,1,0,7373.93,-0.038099,-0.0384576,-24.2324,6,0.000426795,10,0.000931917,-1.6156,-1.67433,-0.0352379,33.3278,-0.0384576,
2,0,0,1,0,7373.94,-0.0404961,-0.040835,-24.2972,6,0.000281207,10,0.000992176,-1.61444,-1.57335,-0.0374995,35.6051,-0.040835,
2,0,0,1,0,7373.94,-0.0428932,-0.043187,-24.4013,6,0.00013507,10,0.00105382,-1.61259,-1.3066,-0.0451553,43.0116,-0.043187,
2,0,0,1,0,7373.95,-0.0452903,-0.0456535,-24.5103,6,-1.17061e-05,10,0.00111898,-1.61065,-1.23086,-0.047934,45.8604,-0.0456535,
2,0,0,1,0,7373.95,-0.0476985,-0.0480139,-24.6156,6,-0.000159094,10,0.00118189,-1.60879,-1.11341,-0.0529905,50.9671,-0.0480139,
2,0,0,1,0,7373.96,-0.0500956,-0.0504624,-24.764,6,-0.000307244,10,0.00124965,-1.60618,-1.0561,-0.0558661,53.97,-0.0504624,
2,0,0,1,0,7373.97,-0.0524927,-0.0527646,-24.889,6,-0.000456225,10,0.00131326,-1.60399,-1.01616,-0.0580616,56.4171,-0.0527646,
2,0,0,1,0,7373.97,-0.0548981,-0.0552449,-25.0309,6,-0.000605964,10,0.00138283,-1.60152,-0.955619,-0.0617401,60.3382,-0.0552449,
2,0,0,1,0,7373.98,-0.0572953,-0.0576202,-25.1734,6,-0.00075659,10,0.0014505,-1.59906,-0.919987,-0.0641313,63.0208,-0.0576202,
2,0,0,1,0,7373.98,-0.0596924,-0.0600443,-25.3252,6,-0.000908124,10,0.00152063,-1.59645,-0.885825,-0.0666046,65.8601,-0.0600443,
2,0,0,1,0,7373.99,-0.062095,-0.0624196,-25.4878,6,-0.00106059,10,0.00159094,-1.59367,-0.860694,-0.0685493,68.196,-0.0624196,
2,0,0,1,0,7374,-0.0644977,-0.064849,-25.657,6,-0.00121405,10,0.00166383,-1.59079,-0.847028,-0.0696553,69.7522,-0.064849,
2,0,0,1,0,7374,-0.0668948,-0.0672285,-25.8265,6,-0.0013685,10,0.00173628,-1.58793,-0.848812,-0.0695089,70.0537,-0.0672285,
2,0,0,1,0,7374.01,-0.0692919,-0.069659,-25.9946,6,-0.00152399,10,0.00181076,-1.58512,-0.810393,-0.0728041,73.8644,-0.069659,
2,0,0,1,0,7374.01,-0.0717001,-0.0720438,-26.1785,6,-0.00168055,10,0.001886,-1.58205,-0.786038,-0.0750599,76.7223,-0.0720438,
2,0,0,1,0,7374.02,-0.0740972,-0.074452,-26.3715,6,-0.00183818,10,0.00196341,-1.57887,-0.804007,-0.0733824,75.5457,-0.074452,
2,0,0,1,0,7374.03,-0.0764943,-0.0768326,-26.5751,6,-0.00199702,10,0.00204183,-1.57553,-0.738123,-0.0799325,82.8712,-0.07683263,
2,0,0,1,0,7374.03,-0.0788997,-0.0792058,-26.757,6,-0.00215696,10,0.00211931,-1.57256,-0.740067,-0.0797225,83.2864,-0.0792058,
2,0,0,1,0,7374.04,-0.0812968,-0.0816405,-26.9639,6,-0.00231813,10,0.00220135,-1.56922,-0.699564,-0.0843382,88.7355,-0.0816405,
2,0,0,1,0,7374.04,-0.0836939,-0.0840498,-27.1805,6,-0.00248061,10,0.00228451,-1.56574,-0.687488,-0.0858196,91.0031,-0.0840498,
2,0,0,1,0,7374.05,-0.086091,-0.0864399,-27.3869,6,-0.00264431,10,0.00236732,-1.56246,-0.692141,-0.0852428,91.1722,-0.0864399,
2,0,0,1,0,7374.06,-0.0884992,-0.0888534,-27.6227,6,-0.00280937,10,0.00245437,-1.55873,-0.654946,-0.0900837,97.111,-0.0888534,
2,0,0,1,0,7374.06,-0.0908963,-0.0912266,-27.8562,6,-0.00297583,10,0.00254122,-1.55508,-0.656206,-0.0899108,97.7589,-0.0912266,
2,0,0,1,0,7374.07,-0.0932934,-0.0936401,-28.0982,6,-0.00314371,10,0.00263112,-1.55132,-0.634838,-0.0929371,101.941,-0.0936401,
2,0,0,1,0,7374.07,-0.0956989,-0.0960737,-28.358,6,-0.00331306,10,0.00272446,-1.54732,-0.624968,-0.0944048,104.462,-0.0960737,
2,0,0,1,0,7374.08,-0.098096,-0.0984342,-28.6045,6,-0.00348394,10,0.00281566,-1.54357,-0.661342,-0.0892125,99.3048,-0.09843418,
2,0,0,0,0,7374.08,-0.0999548,-0.100228,-28.7927,6,-0.00361888,10,0.00288585,-1.54072,0.0232168,2.54127,-2630.27,-0.100228,
2,0,0,1,1,7374.09,-0.0994555,-0.0998986,-27.0296,6,-0.00366596,10,0.00270021,-1.56816,-0.0171616,-3.4379,3121.48,-0.0998986,
2,0,0,1,1,7374.09,-0.0970583,-0.097483,-20.3948,6,-0.0038068,10,0.00198814,-1.69048,-0.0183073,-3.22276,2525.84,-0.097483,
2,0,0,1,1,7374.1,-0.0946501,-0.0950928,-15.0015,6,-0.00391208,10,0.00142653,-1.82387,-0.0163341,-3.61207,2079.13,-0.09509284,
2,0,0,1,1,7374.1,-0.092253,-0.0926348,-10.4363,6,-0.00398764,10,0.000966764,-1.98145,-0.0127354,-4.63276,1797.77,-0.0926348,
2,0,0,1,1,7374.11,-0.0898559,-0.0902436,-6.50512,6,-0.00403781,10,0.000587045,-2.18674,-0.00836477,-7.05339,1531.25,-0.0902436,
2,0,0,1,1,7374.12,-0.0874588,-0.0878195,-3.0756,6,-0.004066,10,0.000270098,-2.51207,-0.00663303,-8.89488,1339.19,-0.0878195,
2,0,0,1,1,7374.12,-0.0850534,-0.0855184,-0.0678044,6,-0.0040749,10,5.79853e-06,-4.16874,-0.0689611,-0.855555,1173.56,-0.08551842,
2,1,0,1,1,7374.13,-0.0826563,-0.083088,2.55692,6,-0.00406705,10,-0.000212449,-2.59228,0.0086176,6.84646,1038.31,-0.083088,
2,1,0,1,1,7374.13,-0.0802592,-0.0807243,4.88876,6,-0.00404434,10,-0.000394642,-2.3108,0.00985418,5.98731,920.018,-0.0807243,
2,1,0,1,1,7374.14,-0.077851,-0.0782483,6.94985,6,-0.00400849,10,-0.000543814,-2.15802,0.0181647,3.24805,810.346,-0.07824827,
2,1,0,1,1,7374.15,-0.0754539,-0.0759186,8.74562,6,-0.00396112,10,-0.000663955,-2.05821,0.026738,2.2066,722.58,-0.0759186,
2,1,0,1,1,7374.15,-0.0730568,-0.0734923,10.4135,6,-0.00390337,10,-0.000765313,-1.9824,0.035964,1.64053,647.155,-0.0734923,
2,1,0,1,1,7374.16,-0.0706597,-0.0710502,11.8605,6,-0.00383631,10,-0.000842695,-1.9259,0.0466267,1.26537,574.31,-0.0710502,
2,1,0,1,1,7374.16,-0.0682542,-0.0686834,13.1779,6,-0.00376096,10,-0.000905101,-1.88015,0.057824,1.02034,516.836,-0.0686834,
2,1,0,1,1,7374.17,-0.0658571,-0.0662286,14.338,6,-0.00367824,10,-0.000949583,-1.84351,0.0720225,0.819188,452.927,-0.0662286,
2,1,0,1,1,7374.18,-0.06346,-0.0638331,15.3664,6,-0.00358898,10,-0.000980882,-1.81343,0.0865932,0.681347,404.896,-0.0638331,
2,1,0,1,1,7374.18,-0.0610518,-0.0614504,16.2826,6,-0.00349391,10,-0.00100057,-1.78828,0.105166,0.561018,353.63,-0.0614504,
2,1,0,1,1,7374.19,-0.0586547,-0.0589849,17.0881,6,-0.00339367,10,-0.00100794,-1.76731,0.1236,0.477346,316.247,-0.0589849,
2,1,0,1,1,7374.19,-0.0562576,-0.0566213,17.7824,6,-0.00328898,10,-0.00100686,-1.75001,0.146658,0.402298,277.91,-0.0566213,
2,1,0,1,1,7374.2,-0.053855,-0.0542163,18.4085,6,-0.00318031,10,-0.000998042,-1.73498,0.172625,0.341781,244.412,-0.0542163,
2,1,0,1,1,7374.21,-0.0514523,-0.0518134,18.9457,6,-0.00306813,10,-0.000981639,-1.72249,0.202009,0.292066,215.264,-0.0518134,
2,1,0,1,1,7374.21,-0.0490552,-0.0494222,19.4362,6,-0.00295292,10,-0.000960578,-1.71139,0.239559,0.246286,186.236,-0.04942216,
2,1,0,1,1,7374.22,-0.0466581,-0.0470437,19.849,6,-0.00283497,10,-0.000933772,-1.70226,0.276871,0.213096,164.663,-0.0470437,
2,1,0,1,1,7374.22,-0.0442527,-0.0445994,20.2128,6,-0.00271469,10,-0.000901478,-1.69437,0.325035,0.181519,142.927,-0.0445994,
2,1,0,1,1,7374.23,-0.0418556,-0.0422072,20.5407,6,-0.00259236,10,-0.000866962,-1.68739,0.391896,0.15055,120.37,-0.0422072,
2,1,0,1,1,7374.24,-0.0394585,-0.0398265,20.81,6,-0.00246827,10,-0.000828792,-1.68173,0.458267,0.128746,104.353,-0.0398265,
2,1,0,1,1,7374.24,-0.0370558,-0.0374544,21.036,6,-0.00234275,10,-0.000787892,-1.67704,0.529043,0.111522,91.4509,-0.0374544,
2,1,0,1,1,7374.25,-0.0346532,-0.0350155,21.2462,6,-0.00221587,10,-0.000743945,-1.67272,0.634721,0.0929542,76.8922,-0.0350155,
2,1,0,1,1,7374.25,-0.0322561,-0.0325808,21.4015,6,-0.00208789,10,-0.000697277,-1.66956,0.823377,0.0716561,59.7612,-0.0325808,
2,1,0,1,1,7374.26,-0.0298589,-0.0301896,21.528,6,-0.00195909,10,-0.000649922,-1.667,0.980705,0.0601608,50.5163,-0.0301896,
2,1,0,1,1,7374.27,-0.0274535,-0.0278355,21.6414,6,-0.00182956,10,-0.000602399,-1.66471,1.22589,0.0481282,40.5967,-0.02783546,
2,1,0,1,1,7374.27,-0.0250564,-0.0253647,21.7245,6,-0.00169944,10,-0.000551036,-1.66305,1.77387,0.0332606,28.1697,-0.0253647,
2,1,0,1,1,7374.28,-0.0226593,-0.0230286,21.779,6,-0.00156891,10,-0.00050154,-1.66196,2.27527,0.0259309,22.0238,-0.0230286,
2,1,0,1,1,7374.28,-0.0202511,-0.020613,21.8343,6,-0.00143809,10,-0.00045007,-1.66086,3.56794,0.0165361,14.0776,-0.02061303,
2,1,0,1,1,7374.29,-0.017854,-0.0181995,21.8541,6,-0.00130703,10,-0.000397735,-1.66047,6.17514,0.00955443,8.1414,-0.0181995,
2,1,0,1,1,7374.3,-0.0154569,-0.0158677,21.8667,6,-0.00117586,10,-0.000346974,-1.66022,-55.9723,-0.00105409,-0.898732,-0.0158677,
2,1,0,1,1,7374.3,-0.0130598,-0.0134054,21.8367,6,-0.00104474,10,-0.000292731,-1.66081,-17.0847,-0.00345339,-2.94532,-0.0134054,
2,1,0,1,1,7374.31,-0.0106516,-0.0109739,21.8491,6,-0.000913671,10,-0.000239771,-1.66057,-8.59549,-0.00686407,-5.84713,-0.0109739,
2,1,0,1,1,7374.31,-0.00825448,-0.00861134,21.8206,6,-0.000782653,10,-0.000187905,-1.66113,-3.02967,-0.0194741,-16.5648,-0.00861134,
2,1,0,1,1,7374.32,-0.00585738,-0.00625088,21.7595,6,-0.000651909,10,-0.000136016,-1.66235,-2.52644,-0.023353,-19.841,-0.00625088,
2,1,0,1,1,7374.33,-0.00345195,-0.00379073,21.7252,6,-0.00052147,10,-8.23543e-05,-1.66304,-2.66815,-0.0221127,-18.7441,-0.00379073,
2,1,0,1,1,7374.33,-0.00105485,-0.00142709,21.6747,6,-0.000391262,10,-3.09317e-05,-1.66405, , , ,-0.00142709,
2,1,0,0,1,7374.33,-7.54729e-05,-0.000306236,21.6389,6,-0.000337103,10,-6.62662e-06,-1.66476, , , ,-0.000306236,