File: Figure_codes/Fig_3-5/rawdata_trumpetplot_data/before 10th/20221101_1-115_002_TrumpetPlot_ParaChange_08_CV_C01_7.csv
mode,ox/red,error,control changes,counter inc.,time/s,control/V,Ewe/V,<I>/mA,cycle number,(Q-Qo)/C,I Range,P/W,log(|I|),Tafel slope mV/dec,alpha_eff,dI/d(E-IR),E-IR/V,
2,0,0,0,0,9790.59,2.44065e-05,-0.000382585,-2.40514,8,0.0000000E+000,11,9.20172e-07,-2.61886, , , ,-0.000382585,
2,0,0,1,0,9790.62,0.00129787,0.000993917,0.0653125,8,-2.768e-05,11,6.49151e-08,-4.185, , , ,0.000993917,
2,1,0,1,0,9790.66,0.00279427,0.00248733,1.06548,8,-3.47155e-06,11,2.6502e-06,-2.97246,0.010121,5.82945,503.271,0.00248733,
2,1,0,1,0,9790.69,0.00429425,0.00402625,1.39364,8,4.36473e-05,11,5.61115e-06,-2.85585,0.0148171,3.98187,179.942,0.00402625,
2,1,0,1,0,9790.73,0.00579422,0.00549904,1.52832,8,9.89852e-05,11,8.40428e-06,-2.81579,0.0422854,1.39528,79.5553,0.00549904,
2,1,0,1,0,9790.77,0.00729063,0.00699313,1.60685,8,0.000157954,11,1.12369e-05,-2.79403,0.0847458,0.6962,43.0151,0.00699313,
2,1,0,1,0,9790.81,0.00878703,0.0084407,1.6564,8,0.000219274,11,1.39812e-05,-2.78083,0.130235,0.453027,29.1385,0.0084407,
2,1,0,1,0,9790.84,0.010287,0.0100106,1.6926,8,0.000282337,11,1.6944e-05,-2.77144,0.183573,0.321398,21.1807,0.0100106,
2,1,0,1,0,9790.88,0.011787,0.0115035,1.72096,8,0.000346659,11,1.97971e-05,-2.76423,0.20506,0.287721,19.3424,0.01150353,
2,1,0,1,0,9790.92,0.0132825,0.0129785,1.74818,8,0.000411675,11,2.26888e-05,-2.75741,0.220656,0.267384,18.3089,0.0129785,
2,1,0,1,0,9790.96,0.014778,0.0145304,1.77684,8,0.000477783,11,2.58182e-05,-2.75035,0.21967,0.268585,18.5722,0.0145304,
2,1,0,1,0,9790.99,0.0162816,0.0160332,1.80596,8,0.000545329,11,2.89554e-05,-2.74329,0.276668,0.213252,14.9436,0.0160332,
2,1,0,1,0,9791.03,0.017778,0.0174877,1.82404,8,0.000613328,11,3.18983e-05,-2.73897,0.285822,0.206422,14.6784,0.0174877,
2,1,0,1,0,9791.07,0.0192744,0.0189846,1.8416,8,0.000682039,11,3.49619e-05,-2.73481,0.292055,0.202017,14.5465,0.0189846,
2,1,0,1,0,9791.11,0.0207743,0.0204817,1.86469,8,0.000751801,11,3.8192e-05,-2.72939,0.283088,0.208416,15.2027,0.0204817,
2,1,0,1,0,9791.14,0.0222743,0.021962,1.88674,8,0.000822406,11,4.14366e-05,-2.72429,0.291962,0.202081,14.9182,0.021962,
2,1,0,1,0,9791.18,0.0237707,0.0234887,1.91185,8,0.00089374,11,4.49069e-05,-2.71855,0.311919,0.189152,14.1143,0.0234887,
2,1,0,1,0,9791.22,0.0252671,0.0249674,1.93116,8,0.000965766,11,4.8216e-05,-2.71418,0.319492,0.184668,13.9535,0.0249674,
2,1,0,1,0,9791.26,0.0267671,0.0264642,1.95888,8,0.00103882,11,5.18401e-05,-2.70799,0.25129,0.234789,17.9037,0.0264642,
2,1,0,1,0,9791.29,0.0282671,0.0279863,1.98864,8,0.00111286,11,5.56545e-05,-2.70144,0.253063,0.233144,18.0084,0.0279863,
2,1,0,1,0,9791.33,0.0297626,0.029488,2.00922,8,0.00118769,11,5.92479e-05,-2.69697,0.289014,0.204143,15.9753,0.029488,
2,1,0,1,0,9791.37,0.0312581,0.0309738,2.02295,8,0.00126341,11,6.26585e-05,-2.69401,0.268885,0.219425,17.4198,0.0309738,
2,1,0,1,0,9791.41,0.0327616,0.0324312,2.05219,8,0.00134034,11,6.65551e-05,-2.68778,0.268303,0.219901,17.7078,0.0324312,
2,1,0,1,0,9791.44,0.034258,0.0339506,2.08375,8,0.00141805,11,7.07443e-05,-2.68116,0.240121,0.245709,20.0228,0.0339506,
2,1,0,1,0,9791.48,0.0357545,0.0354794,2.11844,8,0.00149687,11,7.51611e-05,-2.67398,0.288044,0.204829,16.8995,0.0354794,
2,1,0,1,0,9791.52,0.0372544,0.0369497,2.14707,8,0.00157699,11,7.93335e-05,-2.66815,0.252211,0.233931,19.5785,0.0369497,
2,1,0,1,0,9791.56,0.0387544,0.0384465,2.17768,8,0.00165806,11,8.37241e-05,-2.66201,0.225204,0.261984,22.2749,0.0384465,
2,1,0,1,0,9791.59,0.0402508,0.0399424,2.21344,8,0.00174024,11,8.84102e-05,-2.65493,0.207872,0.283828,24.4662,0.0399424,
2,1,0,1,0,9791.63,0.0417472,0.0414517,2.24855,8,0.00182386,11,9.32063e-05,-2.6481,0.216644,0.272336,23.8762,0.0414517,
2,1,0,1,0,9791.67,0.0432472,0.0430208,2.28588,8,0.00190905,11,9.83406e-05,-2.64095,0.230438,0.256035,22.8048,0.0430208,
2,1,0,1,0,9791.71,0.0447472,0.0444532,2.31182,8,0.00199539,11,0.000102768,-2.63605,0.223449,0.264043,23.9352,0.0444532,
2,1,0,1,0,9791.74,0.0462427,0.045972,2.35184,8,0.00208287,11,0.000108119,-2.62859,0.185914,0.317351,29.1907,0.04597199,
2,1,0,1,0,9791.78,0.0477382,0.047434,2.39819,8,0.00217188,11,0.000113756,-2.62012,0.192671,0.306221,28.6463,0.047434,
2,1,0,1,0,9791.82,0.0492417,0.0489742,2.43512,8,0.00226297,11,0.000119258,-2.61348,0.209328,0.281855,26.7719,0.0489742,
2,1,0,1,0,9791.86,0.0507381,0.0504565,2.47429,8,0.00235501,11,0.000124844,-2.60655,0.209049,0.282231,27.2675,0.0504565,
2,1,0,1,0,9791.89,0.0522345,0.0519441,2.51854,8,0.00244857,11,0.000130823,-2.59885,0.189548,0.311267,30.6,0.0519441,
2,1,0,1,0,9791.93,0.0537345,0.0534701,2.56858,8,0.00254407,11,0.000137342,-2.59031,0.196246,0.300643,30.0945,0.0534701,
2,1,0,1,0,9791.97,0.0552345,0.0549481,2.60947,8,0.0026414,11,0.000143385,-2.58345,0.210547,0.280222,28.52,0.0549481,
2,1,0,1,0,9792.01,0.0567309,0.0564601,2.64487,8,0.00274,11,0.00014933,-2.5776,0.213564,0.276263,28.6603,0.0564601,
2,1,0,1,0,9792.04,0.0582273,0.0579195,2.69609,8,0.00284005,11,0.000156156,-2.56927,0.214261,0.275365,29.0181,0.0579195,
2,1,0,1,0,9792.08,0.0597309,0.0594527,2.74529,8,0.00294254,11,0.000163215,-2.56141,0.19588,0.301205,32.2112,0.0594527,
2,1,0,1,0,9792.12,0.0612264,0.0609446,2.79126,8,0.00304619,11,0.000170112,-2.5542,0.220041,0.268132,29.1218,0.0609446,
2,1,0,1,0,9792.16,0.0627219,0.0624927,2.83877,8,0.00315157,11,0.000177403,-2.54687,0.221396,0.266491,29.4278,0.0624927,
2,1,0,1,0,9792.19,0.0642218,0.0639127,2.87762,8,0.00325874,11,0.000183916,-2.54097,0.217616,0.27112,30.4561,0.0639127,
2,1,0,1,0,9792.23,0.0657218,0.0654172,2.92227,8,0.00336769,11,0.000191167,-2.53428,0.212192,0.27805,31.697,0.0654172,
2,1,0,1,0,9792.27,0.0672182,0.0668932,2.96933,8,0.00347816,11,0.000198628,-2.52734,0.230467,0.256001,29.6754,0.06689322,
2,1,0,1,0,9792.31,0.0687146,0.0684349,3.00789,8,0.00359023,11,0.000205844,-2.52174,0.247659,0.238231,28.0359,0.0684349,
2,1,0,1,0,9792.34,0.0702146,0.0699272,3.05014,8,0.00370409,11,0.000213288,-2.51568,0.256987,0.229583,27.3766,0.0699272,
2,1,0,1,0,9792.38,0.0717146,0.0713999,3.09501,8,0.00381952,11,0.000220983,-2.50934,0.243973,0.24183,29.175,0.0713999,
2,1,0,1,0,9792.42,0.073211,0.0729027,3.13926,8,0.00393622,11,0.00022886,-2.50317,0.260032,0.226895,27.7441,0.0729027,
2,1,0,1,0,9792.46,0.0747074,0.0744269,3.18164,8,0.00405449,11,0.0002368,-2.49735,0.294052,0.200644,24.8129,0.0744269,
2,1,0,1,0,9792.49,0.0762109,0.0759016,3.21136,8,0.0041748,11,0.000243747,-2.49331,0.283564,0.208066,26.0924,0.0759016,
2,1,0,1,0,9792.53,0.0777064,0.0773991,3.25226,8,0.00429583,11,0.000251722,-2.48781,0.269147,0.219211,27.8578,0.07739909,
2,1,0,1,0,9792.57,0.079202,0.0789271,3.29345,8,0.00441844,11,0.000259942,-2.48235,0.291376,0.202487,26.0391,0.0789271,
2,1,0,1,0,9792.61,0.0807019,0.0803787,3.32991,8,0.00454295,11,0.000267653,-2.47757,0.315346,0.187096,24.3178,0.0803787,
2,1,0,1,0,9792.64,0.0822019,0.081919,3.36682,8,0.00466883,11,0.000275807,-2.47278,0.328986,0.179339,23.5703,0.081919,
2,1,0,1,0,9792.68,0.0836983,0.0834068,3.40027,8,0.00479555,11,0.000283606,-2.46849,0.348463,0.169315,22.4845,0.0834068,
2,1,0,1,0,9792.72,0.0851947,0.0848762,3.4352,8,0.00492361,11,0.000291567,-2.46405,0.337509,0.17481,23.4274,0.0848762,
2,1,0,1,0,9792.75,0.0866947,0.0863991,3.47374,8,0.00505331,11,0.000300128,-2.4592,0.363918,0.162125,21.9394,0.0863991,
2,1,0,1,0,9792.79,0.0881947,0.0879061,3.51227,8,0.0051844,11,0.00030875,-2.45441,0.332656,0.17736,24.2779,0.0879061,
2,1,0,1,0,9792.83,0.0896911,0.0893636,3.54164,8,0.00531635,11,0.000316493,-2.4508,0.330483,0.178527,24.7259,0.0893636,
2,1,0,1,0,9792.87,0.0911875,0.090916,3.58343,8,0.00544977,11,0.000325791,-2.4457,0.307676,0.19176,26.8246,0.090916,
2,1,0,1,0,9792.9,0.0926901,0.092416,3.62276,8,0.0055855,11,0.000334801,-2.44096,0.29464,0.200245,28.3147,0.092416,
2,1,0,1,0,9792.94,0.0941856,0.0939185,3.66016,8,0.0057219,11,0.000343757,-2.4365,0.343296,0.171864,24.5581,0.09391848,
2,1,0,1,0,9792.98,0.0956821,0.0953645,3.69523,8,0.00585962,11,0.000352394,-2.43236,0.311702,0.189284,27.3556,0.0953645,
2,1,0,1,0,9793.02,0.097182,0.0968879,3.74304,8,0.00599921,11,0.000362655,-2.42678,0.276375,0.213478,31.1446,0.0968879,
2,1,0,1,0,9793.05,0.098682,0.0983616,3.79282,8,0.00614063,11,0.000373068,-2.42104,0.266521,0.221371,32.7366,0.0983616,
2,1,0,1,0,9793.09,0.100178,0.0998831,3.84184,8,0.00628349,11,0.000383735,-2.41546,0.262753,0.224546,33.6445,0.0998831,
2,1,0,1,0,9793.13,0.101675,0.101365,3.88577,8,0.00642825,11,0.00039388,-2.41052,0.247993,0.23791,36.1973,0.101365,
2,1,0,1,0,9793.17,0.103175,0.102842,3.94446,8,0.00657538,11,0.000405655,-2.40401,0.220967,0.267008,41.2869,0.102842,
2,1,0,1,0,9793.2,0.104675,0.104363,4.01668,8,0.00672493,11,0.000419195,-2.39613,0.204761,0.28814,45.2148,0.104363,
2,1,0,1,0,9793.24,0.106171,0.105869,4.08865,8,0.00687671,11,0.00043286,-2.38842,0.205741,0.286768,45.708,0.105869,
2,1,0,1,0,9793.28,0.107667,0.107402,4.15995,8,0.00703107,11,0.000446786,-2.38091,0.193016,0.305674,49.6274,0.107402,
2,1,0,1,0,9793.32,0.10917,0.108896,4.23135,8,0.00718885,11,0.000460777,-2.37352,0.184178,0.320342,52.9577,0.108896,
2,1,0,1,0,9793.35,0.110666,0.110389,4.31683,8,0.00734885,11,0.00047653,-2.36483,0.17442,0.338263,56.9336,0.110389,
2,1,0,1,0,9793.39,0.112162,0.111845,4.40148,8,0.00751208,11,0.000492283,-2.3564,0.182495,0.323297,55.4828,0.1118447,
2,1,0,1,0,9793.43,0.113662,0.113328,4.48635,8,0.00767894,11,0.000508429,-2.34811,0.181959,0.32425,56.7817,0.113328,
2,1,0,1,0,9793.47,0.115162,0.114858,4.56671,8,0.00784887,11,0.000524523,-2.3404,0.1749,0.337336,60.2687,0.114858,
2,1,0,1,0,9793.5,0.116658,0.116393,4.66055,8,0.00802171,11,0.000542455,-2.33156,0.173834,0.339405,61.7667,0.116393,
2,1,0,1,0,9793.54,0.118155,0.117861,4.76192,8,0.00819816,11,0.000561243,-2.32222,0.183586,0.321376,59.5914,0.117861,
2,1,0,1,0,9793.58,0.119655,0.119356,4.85049,8,0.00837845,11,0.000578936,-2.31421,0.199281,0.296065,55.9445,0.119356,
2,1,0,1,0,9793.62,0.121155,0.120846,4.93125,8,0.00856186,11,0.000595922,-2.30704,0.204587,0.288386,55.442,0.120846,
2,1,0,1,0,9793.65,0.122651,0.122363,5.01521,8,0.00874798,11,0.000613678,-2.29971,0.199478,0.295772,57.8292,0.122363,
2,1,0,1,0,9793.69,0.124147,0.12388,5.09864,8,0.00893728,11,0.000631618,-2.29255,0.20989,0.281099,55.8986,0.1238796,
2,1,0,1,0,9793.73,0.12565,0.125386,5.17588,8,0.00913075,11,0.000648983,-2.28602,0.230528,0.255934,51.6802,0.125386,
2,1,0,1,0,9793.77,0.127146,0.126821,5.24368,8,0.00932608,11,0.000665007,-2.28036,0.240394,0.245431,50.3373,0.126821,
2,1,0,1,0,9793.8,0.128642,0.128335,5.3255,8,0.00952403,11,0.000683448,-2.27364,0.255993,0.230475,47.95,0.128335,
2,1,0,1,0,9793.84,0.130142,0.129839,5.40415,8,0.00972542,11,0.00070167,-2.26727,0.256017,0.230454,48.5298,0.129839,
2,1,0,1,0,9793.88,0.131642,0.131335,5.4749,8,0.00992955,11,0.000719046,-2.26162,0.296587,0.19893,42.3931,0.131335,
2,1,0,1,0,9793.92,0.133139,0.132817,5.53744,8,0.0101357,11,0.000735468,-2.25669,0.314255,0.187745,40.5104,0.132817,
2,1,0,1,0,9793.95,0.134635,0.13433,5.59389,8,0.0103438,11,0.000751426,-2.25229,0.346513,0.170268,37.1714,0.13433,
2,1,0,1,0,9793.99,0.136135,0.135844,5.65159,8,0.0105548,11,0.000767734,-2.24783,0.349376,0.168872,37.2126,0.135844,
2,1,0,1,0,9794.03,0.137635,0.137312,5.70351,8,0.010768,11,0.000783162,-2.24386,0.401391,0.146989,32.6894,0.137312,
2,1,0,1,0,9794.07,0.13913,0.138863,5.7449,8,0.0109823,11,0.000797755,-2.24072,0.527843,0.111776,25.0406,0.138863,
2,1,0,1,0,9794.1,0.140626,0.140335,5.77386,8,0.011198,11,0.000810274,-2.23853,0.705758,0.083598,18.8294,0.140335,
2,1,0,1,0,9794.14,0.14213,0.141867,5.80343,8,0.0114159,11,0.000823314,-2.23632,0.925033,0.0637815,14.411,0.141867,
2,1,0,1,0,9794.18,0.143626,0.143353,5.82502,8,0.0116335,11,0.000835036,-2.2347,4.97937,0.0118489,2.6807,0.143353,
2,1,0,1,0,9794.22,0.145122,0.144853,5.81403,8,0.0118513,11,0.00084218,-2.23552,-1.07618,-0.0548236,-12.3922,0.144853,
2,1,0,1,0,9794.25,0.146622,0.146355,5.77856,8,0.0120689,11,0.000845719,-2.23818,-0.518493,-0.113791,-25.6022,0.146355,
2,1,0,1,0,9794.29,0.148122,0.147862,5.7334,8,0.012285,11,0.000847751,-2.24159,-0.342434,-0.172296,-38.439,0.147862,
2,1,0,1,0,9794.33,0.149619,0.149332,5.66437,8,0.0124985,11,0.00084587,-2.24685,-0.23022,-0.256277,-56.4664,0.149332,
2,1,0,1,0,9794.37,0.151115,0.150836,5.56922,8,0.0127089,11,0.000840037,-2.25421,-0.166502,-0.35435,-76.6392,0.150836,
2,1,0,1,0,9794.4,0.152615,0.152348,5.43824,8,0.0129156,11,0.000828507,-2.26454,-0.133707,-0.441265,-93.2619,0.152348,
2,1,0,1,0,9794.44,0.154115,0.153835,5.28865,8,0.0131169,11,0.000813581,-2.27665,-0.110552,-0.533683,-109.733,0.153835,
2,1,0,1,0,9794.48,0.155611,0.155363,5.1155,8,0.0133115,11,0.00079476,-2.29111,-0.0950866,-0.620487,-123.209,0.155363,
2,1,0,1,0,9794.52,0.157106,0.156834,4.92104,8,0.0134993,11,0.000771785,-2.30794,-0.0818105,-0.721179,-137.567,0.156834,
2,1,0,1,0,9794.55,0.15861,0.158273,4.69719,8,0.0136804,11,0.00074344,-2.32816,-0.0748926,-0.787795,-144.071,0.158273,
2,1,0,1,0,9794.59,0.160106,0.159802,4.46759,8,0.0138519,11,0.00071393,-2.34993,-0.070298,-0.839285,-146.441,0.159802,
2,1,0,1,0,9794.63,0.161602,0.161312,4.24684,8,0.0140151,11,0.000685067,-2.37193,-0.0678057,-0.870133,-144.378,0.161312,
2,1,0,1,0,9794.67,0.163102,0.162841,4.03522,8,0.0141706,11,0.000657097,-2.39413,-0.065586,-0.899583,-141.93,0.162841,
2,1,0,1,0,9794.7,0.164602,0.164295,3.83003,8,0.0143182,11,0.000629255,-2.4168,-0.0666556,-0.885147,-132.571,0.164295,
2,1,0,1,0,9794.74,0.166099,0.165765,3.63877,8,0.0144579,11,0.00060318,-2.43904,-0.0685844,-0.860255,-122.508,0.165765,
2,1,0,1,0,9794.78,0.167595,0.167305,3.47407,8,0.014591,11,0.000581228,-2.45916,-0.0753997,-0.782497,-106.155,0.167305,
2,1,0,1,0,9794.81,0.169095,0.168799,3.3238,8,0.0147183,11,0.000561056,-2.47836,-0.0774741,-0.761544,-98.8009,0.168799,
2,1,0,1,0,9794.85,0.170595,0.170322,3.17754,8,0.0148402,11,0.000541205,-2.49791,-0.0807985,-0.730211,-90.7567,0.170322,
2,1,0,1,0,9794.89,0.172091,0.171806,3.04155,8,0.0149568,11,0.000522557,-2.51691,-0.0876323,-0.673268,-80.4188,0.171806,
2,1,0,1,0,9794.93,0.173586,0.173311,2.93215,8,0.0150688,11,0.000508174,-2.53281,-0.0923317,-0.639,-73.5202,0.173311,
2,1,0,1,0,9794.96,0.17509,0.174778,2.83448,8,0.0151774,11,0.000495404,-2.54753,-0.102135,-0.577668,-64.0999,0.174778,
2,1,0,1,0,9795,0.176586,0.176274,2.74183,8,0.0152818,11,0.000483312,-2.56196,-0.105622,-0.558594,-59.8804,0.176274,
2,1,0,1,0,9795.04,0.178083,0.177797,2.65693,8,0.015383,11,0.000472395,-2.57562,-0.113676,-0.519018,-53.9647,0.177797,
2,1,0,1,0,9795.08,0.179582,0.179306,2.58673,8,0.0154814,11,0.000463815,-2.58725,-0.124917,-0.472314,-47.7341,0.179306,
2,1,0,1,0,9795.11,0.181082,0.180807,2.52064,8,0.0155772,11,0.00045575,-2.59849,-0.138019,-0.427478,-42.0313,0.180807,
2,1,0,1,0,9795.15,0.182579,0.182281,2.4572,8,0.0156704,11,0.0004479,-2.60956,-0.141224,-0.417776,-40.0704,0.1822805,
2,1,0,1,0,9795.19,0.184075,0.183798,2.40016,8,0.0157613,11,0.000441144,-2.61976,-0.15254,-0.386784,-36.306,0.1837976,
2,1,0,1,0,9795.23,0.185579,0.185337,2.34435,8,0.0158506,11,0.000434495,-2.62998,-0.176619,-0.334052,-30.6972,0.185337,
2,1,0,1,0,9795.26,0.187074,0.186752,2.30198,8,0.0159377,11,0.000429898,-2.6379,-0.198985,-0.296504,-26.6952,0.186752,
2,1,0,1,0,9795.3,0.18857,0.188275,2.26312,8,0.0160232,11,0.000426088,-2.64529,-0.202193,-0.2918,-25.7939,0.188275,
2,1,0,1,0,9795.34,0.19007,0.189749,2.22662,8,0.0161076,11,0.000422498,-2.65235,-0.206176,-0.286163,-24.8204,0.189749,
2,1,0,1,0,9795.38,0.19157,0.191306,2.18834,8,0.0161904,11,0.000418642,-2.65988,-0.230359,-0.256122,-21.9181,0.191306,
2,1,0,1,0,9795.41,0.193066,0.192747,2.15879,8,0.0162719,11,0.000416101,-2.66579,-0.279117,-0.211381,-17.7884,0.1927468,
2,1,0,1,0,9795.45,0.194563,0.194278,2.13423,8,0.0163524,11,0.000414633,-2.67076,-0.26631,-0.221546,-18.4631,0.194278,
2,1,0,1,0,9795.49,0.196063,0.195757,2.10525,8,0.016432,11,0.000412117,-2.6767,-0.266663,-0.221253,-18.213,0.195757,
2,1,0,1,0,9795.53,0.197563,0.197258,2.07088,8,0.0165107,11,0.000408496,-2.68385,-0.310318,-0.190127,-15.4889,0.197258,
2,1,0,1,0,9795.56,0.199059,0.198773,2.05944,8,0.0165882,11,0.000409362,-2.68625,-0.354514,-0.166425,-13.4047,0.198773,
2,1,0,1,0,9795.6,0.200555,0.200276,2.04476,8,0.0166651,11,0.000409517,-2.68936,-0.354242,-0.166553,-13.2539,0.200276,
2,1,0,1,0,9795.64,0.202059,0.201764,2.02552,8,0.0167416,11,0.000408677,-2.69346,-0.357073,-0.165233,-13.0103,0.201764,
2,1,0,1,0,9795.68,0.203554,0.20328,2.00577,8,0.0168171,11,0.000407733,-2.69772,-0.437975,-0.134711,-10.5336,0.20328,
2,1,0,1,0,9795.71,0.20505,0.204734,1.9888,8,0.0168919,11,0.000407174,-2.70141,-0.585655,-0.100742,-7.84245,0.204734,
2,1,0,1,0,9795.75,0.20655,0.206303,1.97019,8,0.0169664,11,0.000406454,-2.70549,-0.536234,-0.110027,-8.48935,0.206303,
2,1,0,1,0,9795.79,0.20805,0.207759,1.96168,8,0.0170406,11,0.000407558,-2.70737,-0.439347,-0.13429,-10.2844,0.207759,
2,1,0,1,0,9795.83,0.209546,0.209273,1.94461,8,0.0171139,11,0.000406954,-2.71117,-0.401024,-0.147123,-11.2231,0.209273,
2,1,0,1,0,9795.86,0.211043,0.210771,1.9344,8,0.0171866,11,0.000407716,-2.71345,-0.5291,-0.11151,-8.43515,0.210771,
2,1,0,1,0,9795.9,0.212543,0.212228,1.92738,8,0.0172591,11,0.000409044,-2.71503,-0.668328,-0.08828,-6.62374,0.212228,
2,1,0,1,0,9795.94,0.214043,0.213743,1.91643,8,0.0173313,11,0.000409622,-2.71751,-0.686571,-0.0859343,-6.40453,0.213743,
2,1,0,1,0,9795.98,0.215539,0.215249,1.90726,8,0.0174029,11,0.000410536,-2.71959,-0.572611,-0.103037,-7.6473,0.215249,
2,1,0,1,0,9796.01,0.217035,0.216812,1.89094,8,0.017474,11,0.000409977,-2.72332,-0.817177,-0.0721997,-5.34176,0.216812,
2,1,0,1,0,9796.05,0.218538,0.218238,1.88288,8,0.0175452,11,0.000410914,-2.72518,-2.02198,-0.0291794,-2.14704,0.218238,
2,1,0,1,0,9796.09,0.220034,0.219774,1.87765,8,0.0176158,11,0.00041266,-2.72638,-0.851559,-0.0692847,-5.08468,0.219774,
2,1,0,1,0,9796.13,0.22153,0.221247,1.86498,8,0.0176861,11,0.000412621,-2.72933,-0.662495,-0.0890573,-6.50056,0.2212469,
2,1,0,1,0,9796.16,0.22303,0.222784,1.85247,8,0.0177562,11,0.000412702,-2.73225,-0.792192,-0.0744769,-5.40923,0.222784,
2,1,0,1,0,9796.2,0.22453,0.224286,1.85283,8,0.0178259,11,0.000415562,-2.73217,-0.736077,-0.0801547,-5.79677,0.224286,
2,1,0,1,0,9796.24,0.226026,0.225765,1.84861,8,0.0178952,11,0.000417352,-2.73315,-0.812052,-0.0726554,-5.22427,0.225765,
2,1,0,1,0,9796.28,0.227523,0.227245,1.84288,8,0.0179643,11,0.000418784,-2.7345,-0.655757,-0.0899723,-6.43425,0.227245,
2,1,0,1,0,9796.31,0.229023,0.228749,1.83427,8,0.0180333,11,0.000419587,-2.73654,-0.841658,-0.0700998,-5.00909,0.228749,
2,1,0,1,0,9796.35,0.230523,0.230256,1.82288,8,0.0181019,11,0.000419728,-2.73924,-1.09975,-0.0536487,-3.83287,0.230256,
2,1,0,1,0,9796.39,0.232019,0.231723,1.81486,8,0.0181703,11,0.000420544,-2.74116,-1.40384,-0.0420275,-2.98715,0.231723,
2,1,0,1,0,9796.43,0.233515,0.233217,1.81291,8,0.0182384,11,0.000422801,-2.74162,-0.846713,-0.0696812,-4.93672,0.233217,
2,1,0,1,0,9796.46,0.235018,0.234711,1.81075,8,0.0183067,11,0.000425002,-2.74214,-0.979052,-0.0602623,-4.25628,0.234711,
2,1,0,1,0,9796.5,0.236514,0.236237,1.80004,8,0.0183742,11,0.000425237,-2.74472,-1.04825,-0.0562844,-3.95189,0.236237,
2,1,0,1,0,9796.54,0.23801,0.237764,1.80014,8,0.0184416,11,0.000428009,-2.74469,-3.43694,-0.0171664,-1.19747,0.237764,
2,1,0,1,0,9796.58,0.23951,0.239207,1.79586,8,0.0185091,11,0.000429583,-2.74573,-1.16542,-0.0506256,-3.53223,0.239207,
2,1,0,1,0,9796.61,0.24101,0.24072,1.78556,8,0.0185763,11,0.000429821,-2.74822,-0.956587,-0.0616776,-4.29527,0.24072,
2,1,0,1,0,9796.65,0.242506,0.242224,1.77012,8,0.0186431,11,0.000428766,-2.752,-1.01929,-0.0578833,-4.0275,0.242224,
2,1,0,1,0,9796.69,0.244003,0.243723,1.76908,8,0.0187097,11,0.000431164,-2.75225,-2.22474,-0.0265199,-1.84159,0.243723,
2,1,0,1,0,9796.73,0.245503,0.245244,1.771,8,0.0187763,11,0.000434328,-2.75178,-1.25016,-0.0471941,-3.26485,0.245244,
2,1,0,1,0,9796.76,0.247003,0.246731,1.76788,8,0.0188429,11,0.00043619,-2.75255,-0.971259,-0.0607459,-4.18072,0.246731,
2,1,0,1,0,9796.8,0.248499,0.248245,1.75894,8,0.018909,11,0.000436648,-2.75475,-1.40479,-0.0419992,-2.88431,0.248245,
2,1,0,1,0,9796.84,0.249995,0.249708,1.75715,8,0.0189749,11,0.000438775,-2.75519,-1.25065,-0.0471756,-3.22515,0.249708,
2,1,0,1,0,9796.88,0.251498,0.251211,1.75676,8,0.019041,11,0.000441317,-2.75529,-2.78622,-0.0211756,-1.44641,0.251211,
2,1,0,1,0,9796.91,0.252994,0.252724,1.74523,8,0.0191066,11,0.00044106,-2.75815,-0.830704,-0.0710241,-4.83201,0.252724,
2,1,0,1,0,9796.95,0.25449,0.25421,1.74044,8,0.0191721,11,0.000442437,-2.75934,-1.54617,-0.0381587,-2.59758,0.25421,
2,1,0,1,0,9796.99,0.25599,0.255725,1.73338,8,0.0192374,11,0.000443268,-2.76111,-1.66265,-0.0354854,-2.41446,0.255725,
2,1,0,1,0,9797.02,0.25749,0.257228,1.73118,8,0.0193026,11,0.000445309,-2.76166,-1.60237,-0.0368205,-2.49304,0.257228,
2,1,0,1,0,9797.06,0.258987,0.258734,1.73238,8,0.0193677,11,0.000448224,-2.76136,-1.28988,-0.0457405,-3.08469,0.258734,
2,1,0,1,0,9797.1,0.260483,0.260223,1.72746,8,0.0194324,11,0.000449524,-2.76259,-0.816912,-0.0722232,-4.8586,0.2602227,
2,1,0,1,0,9797.14,0.261983,0.26168,1.72456,8,0.0194972,11,0.000451282,-2.76332,-1.54203,-0.0382613,-2.56485,0.26168,
2,1,0,1,0,9797.17,0.263483,0.263174,1.71788,8,0.0195618,11,0.000452103,-2.76501,-14.1202,-0.0041784,-0.279633,0.263174,
2,1,0,1,0,9797.21,0.264978,0.264714,1.71455,8,0.0196261,11,0.000453865,-2.76585,-2.15706,-0.027352,-1.83021,0.264714,
2,1,0,1,0,9797.25,0.266474,0.266188,1.70452,8,0.0196903,11,0.000453723,-2.7684,-1.68141,-0.0350895,-2.343,0.266188,
2,1,0,1,0,9797.29,0.267977,0.267685,1.69636,8,0.0197546,11,0.000454089,-2.77048,-1.36702,-0.0431595,-2.88304,0.267685,
2,1,0,1,0,9797.32,0.269474,0.269207,1.69507,8,0.0198184,11,0.000456325,-2.77081,-6.23475,-0.00946308,-0.629023,0.269207,
2,1,0,1,0,9797.36,0.27097,0.270674,1.70252,8,0.0198822,11,0.000460827,-2.76891,-1.5698,-0.0375844,-2.48668,0.2706742,
2,1,0,1,0,9797.4,0.27247,0.272167,1.69753,8,0.019946,11,0.000462011,-2.77018,-0.886456,-0.0665572,-4.3839,0.272167,
2,1,0,1,0,9797.44,0.27397,0.273671,1.6898,8,0.0200097,11,0.00046245,-2.77216,-1.3302,-0.0443543,-2.9178,0.273671,
2,1,0,1,0,9797.47,0.275467,0.275172,1.68677,8,0.0200728,11,0.000464151,-2.77294,-1.33479,-0.0442017,-2.90827,0.275172,
2,1,0,1,0,9797.51,0.276963,0.276656,1.68105,8,0.020136,11,0.000465074,-2.77442,-1.38516,-0.0425943,-2.79811,0.276656,
2,1,0,1,0,9797.55,0.278463,0.278173,1.67679,8,0.0201992,11,0.000466437,-2.77552,-1.14929,-0.0513359,-3.36562,0.2781727,
2,1,0,1,0,9797.59,0.279963,0.279671,1.67238,8,0.0202623,11,0.000467716,-2.77667,-1.48145,-0.0398259,-2.60669,0.279671,
2,1,0,1,0,9797.62,0.281459,0.281148,1.66787,8,0.0203249,11,0.00046892,-2.77784,-1.71183,-0.034466,-2.25137,0.281148,
2,1,0,1,0,9797.66,0.282954,0.282693,1.66771,8,0.0203875,11,0.000471449,-2.77788,-2.29569,-0.0257003,-1.66799,0.282693,
2,1,0,1,0,9797.7,0.284458,0.284217,1.6675,8,0.0204503,11,0.000473931,-2.77793,-2.24479,-0.026283,-1.70171,0.284217,
2,1,0,1,0,9797.74,0.285954,0.285684,1.66417,8,0.0205127,11,0.000475425,-2.7788,-0.973619,-0.0605986,-3.92202,0.285684,
2,1,0,1,0,9797.77,0.28745,0.287132,1.65296,8,0.0205748,11,0.000474617,-2.78174,-1.2378,-0.0476653,-3.07963,0.287132,
2,1,0,1,0,9797.81,0.28895,0.288685,1.64882,8,0.020637,11,0.000475991,-2.78283,-3.64414,-0.0161904,-1.04293,0.288685,
2,1,0,1,0,9797.85,0.29045,0.290137,1.64598,8,0.020699,11,0.000477559,-2.78358,-1.65082,-0.0357398,-2.30436,0.290137,
2,1,0,1,0,9797.89,0.291947,0.291668,1.64366,8,0.0207608,11,0.000479404,-2.78419,-1.05967,-0.0556775,-3.57965,0.291668,
2,1,0,1,0,9797.92,0.293443,0.293176,1.63656,8,0.0208224,11,0.000479802,-2.78607,-1.90518,-0.0309682,-1.98454,0.293176,
2,1,0,1,0,9797.96,0.294943,0.294638,1.64131,8,0.020884,11,0.000483593,-2.78481,-2.23672,-0.0263779,-1.68743,0.294638,
2,1,0,1,0,9798,0.296443,0.296147,1.64378,8,0.0209455,11,0.000486799,-2.78416,-4.33107,-0.0136225,-0.86691,0.296147,
2,1,0,1,0,9798.04,0.297939,0.29766,1.63594,8,0.0210068,11,0.000486955,-2.78623,-1.65011,-0.0357553,-2.26854,0.2976599,
2,1,0,1,0,9798.07,0.299434,0.299137,1.62354,8,0.0210679,11,0.000485659,-2.78954,-0.00864381,-6.82569,-326.743,0.299137,
2,1,0,0,0,9798.09,0.299962,0.299746,1.5387,8,0.0210919,11,0.000461221,-2.81284,0.00100831,58.5138,2445.37,0.299746,
2,1,0,1,0,9798.12,0.298689,0.298412,-0.0996316,8,0.0211061,11,-2.97312e-05,-4.0016,0.0062737,9.40434,619.045,0.298412,
2,0,0,1,0,9798.16,0.297189,0.29687,-0.427245,8,0.0210943,11,-0.000126836,-3.36932,-0.0106476,-5.54114,191.664,0.29687,
2,0,0,1,0,9798.2,0.295692,0.295405,-0.518542,8,0.0210761,11,-0.00015318,-3.28522,-0.020637,-2.85894,52.9611,0.295405,
2,0,0,1,0,9798.23,0.294196,0.293897,-0.572402,8,0.0210555,11,-0.000168227,-3.2423,-0.0431212,-1.36824,29.9931,0.293897,
2,0,0,1,0,9798.27,0.292696,0.292384,-0.608699,8,0.0210332,11,-0.000177974,-3.2156,-0.0524318,-1.12527,26.5124,0.292384,
2,0,0,1,0,9798.31,0.291196,0.290907,-0.653704,8,0.0210094,11,-0.000190167,-3.18462,-0.0606407,-0.972944,24.239,0.290907,
2,0,0,1,0,9798.34,0.2897,0.289411,-0.68507,8,0.0209844,11,-0.000198267,-3.16427,-0.0737094,-0.800441,21.0718,0.289411,
2,0,0,1,0,9798.38,0.288205,0.28787,-0.706839,8,0.0209582,11,-0.000203478,-3.15068,-0.091722,-0.643248,17.6762,0.2878705,
2,0,0,1,0,9798.42,0.286701,0.286381,-0.728137,8,0.0209308,11,-0.000208525,-3.13779,-0.0994343,-0.593357,17.0767,0.286381,
2,0,0,1,0,9798.46,0.285205,0.28493,-0.755366,8,0.0209028,11,-0.000215226,-3.12184,-0.109275,-0.539921,16.097,0.28493,
2,0,0,1,0,9798.49,0.283708,0.283372,-0.781565,8,0.0208737,11,-0.000221474,-3.10703,-0.117782,-0.500926,15.3293,0.283372,
2,0,0,1,0,9798.53,0.282208,0.281895,-0.804339,8,0.0208437,11,-0.00022674,-3.09456,-0.152345,-0.38728,12.08,0.281895,
2,0,0,1,0,9798.57,0.280709,0.280367,-0.82556,8,0.0208129,11,-0.00023146,-3.08325,-0.161542,-0.36523,11.7252,0.280367,
2,0,0,1,0,9798.61,0.279212,0.27892,-0.845646,8,0.0207817,11,-0.000235868,-3.07281,-0.167211,-0.352847,11.5696,0.27892,
2,0,0,1,0,9798.64,0.277716,0.277392,-0.862742,8,0.0207496,11,-0.000239318,-3.06412,-0.145175,-0.406407,13.5752,0.277392,
2,0,0,1,0,9798.68,0.276216,0.275922,-0.882228,8,0.0207168,11,-0.000243426,-3.05442,-0.196225,-0.300676,10.325,0.275922,
2,0,0,1,0,9798.72,0.274716,0.274407,-0.894064,8,0.0206834,11,-0.000245338,-3.04863,-0.208873,-0.282468,9.87697,0.274407,
2,0,0,1,0,9798.76,0.27322,0.272861,-0.90436,8,0.0206495,11,-0.000246765,-3.04366,-0.184477,-0.319823,11.4201,0.272861,
2,0,0,1,0,9798.79,0.271725,0.27142,-0.923999,8,0.0206151,11,-0.000250792,-3.03433,-0.182739,-0.322866,11.6657,0.27142,
2,0,0,1,0,9798.83,0.270221,0.269928,-0.942744,8,0.0205797,11,-0.000254473,-3.02561,-0.209375,-0.281791,10.3308,0.269928,
2,0,0,1,0,9798.87,0.268725,0.268401,-0.955784,8,0.020544,11,-0.000256534,-3.01964,-0.287333,-0.205336,7.63856,0.268401,
2,0,0,1,0,9798.91,0.267228,0.266919,-0.964018,8,0.0205079,11,-0.000257315,-3.01591,-0.263323,-0.22406,8.45048,0.266919,
2,0,0,1,0,9798.94,0.265728,0.265416,-0.982655,8,0.0204713,11,-0.000260812,-3.0076,-0.242251,-0.243549,9.31666,0.265416,
2,0,0,1,0,9798.98,0.264228,0.263935,-0.993589,8,0.020434,11,-0.000262243,-3.00279,-0.269305,-0.219083,8.50019,0.263935,
2,0,0,1,0,9799.02,0.262732,0.262455,-1.00669,8,0.0203964,11,-0.00026421,-2.99711,-0.403133,-0.146354,5.7608,0.2624549,
2,0,0,1,0,9799.06,0.261236,0.260909,-1.01609,8,0.0203583,11,-0.000265107,-2.99307,-0.311317,-0.189518,7.57179,0.260909,
2,0,0,1,0,9799.09,0.259736,0.259445,-1.02983,8,0.0203198,11,-0.000267184,-2.98724,-0.259695,-0.227189,9.18433,0.259445,
2,0,0,1,0,9799.13,0.258236,0.257955,-1.0464,8,0.0202807,11,-0.000269923,-2.9803,-0.251393,-0.234692,9.54592,0.257955,
2,0,0,1,0,9799.17,0.256741,0.256471,-1.05827,8,0.0202412,11,-0.000271416,-2.9754,-0.344539,-0.171243,7.02464,0.256471,
2,0,0,1,0,9799.21,0.255241,0.25489,-1.07101,8,0.0202012,11,-0.000272989,-2.97021,-0.375882,-0.156964,6.51283,0.25489,
2,0,0,1,0,9799.24,0.253741,0.253436,-1.07811,8,0.0201608,11,-0.000273233,-2.96734,-0.320649,-0.184002,7.7323,0.253436,
2,0,0,1,0,9799.28,0.252245,0.251943,-1.08998,8,0.0201202,11,-0.000274614,-2.96258,-0.305745,-0.192971,8.19716,0.251943,
2,0,0,1,0,9799.32,0.250748,0.250392,-1.09941,8,0.020079,11,-0.000275284,-2.95884,-0.314512,-0.187592,8.07774,0.250392,
2,0,0,1,0,9799.36,0.249248,0.248931,-1.10897,8,0.0200374,11,-0.000276056,-2.95508,-0.406356,-0.145193,6.31041,0.248931,
2,0,0,1,0,9799.39,0.247748,0.247444,-1.11683,8,0.0199954,11,-0.000276353,-2.95201,-0.43399,-0.135948,5.96206,0.247444,
2,0,0,1,0,9799.43,0.246252,0.245957,-1.13265,8,0.0199531,11,-0.000278583,-2.94591,-0.321244,-0.183661,8.09035,0.245957,
2,0,0,1,0,9799.47,0.244756,0.244437,-1.15242,8,0.0199104,11,-0.000281693,-2.93839,-0.361483,-0.163217,7.26454,0.2444368,
2,0,0,1,0,9799.51,0.243252,0.242931,-1.15759,8,0.0198669,11,-0.000281214,-2.93645,-0.436528,-0.135157,6.05909,0.242931,
2,0,0,1,0,9799.54,0.241756,0.241461,-1.15761,8,0.0198235,11,-0.000279516,-2.93644,-0.362706,-0.162666,7.39592,0.241461,
2,0,0,1,0,9799.58,0.240261,0.239966,-1.17283,8,0.0197797,11,-0.000281439,-2.93077,-0.344161,-0.171431,7.86768,0.239966,
2,0,0,1,0,9799.62,0.238761,0.23845,-1.18157,8,0.0197353,11,-0.000281746,-2.92754,-0.369121,-0.159839,7.40042,0.23845,
2,0,0,1,0,9799.66,0.237261,0.236923,-1.18966,8,0.0196905,11,-0.000281858,-2.92458,-0.489574,-0.120513,5.61492,0.2369227,
2,0,0,1,0,9799.69,0.235765,0.235457,-1.20302,8,0.0196455,11,-0.00028326,-2.91973,-0.447984,-0.131701,6.19907,0.235457,
2,0,0,1,0,9799.73,0.234268,0.233924,-1.21438,8,0.0196002,11,-0.000284074,-2.91564,-0.364908,-0.161685,7.66966,0.233924,
2,0,0,1,0,9799.77,0.232768,0.232446,-1.22794,8,0.0195543,11,-0.00028543,-2.91082,-0.371744,-0.158712,7.56943,0.232446,
2,0,0,1,0,9799.81,0.231268,0.230933,-1.23963,8,0.0195079,11,-0.000286271,-2.90671,-0.462302,-0.127622,6.13024,0.230933,
2,0,0,1,0,9799.84,0.229772,0.229453,-1.24781,8,0.0194614,11,-0.000286314,-2.90385,-0.461145,-0.127942,6.22582,0.229453,
2,0,0,1,0,9799.88,0.228275,0.227938,-1.25507,8,0.0194145,11,-0.000286077,-2.90133,-0.38058,-0.155027,7.59226,0.227938,
2,0,0,1,0,9799.92,0.226772,0.226472,-1.2659,8,0.0193669,11,-0.000286689,-2.8976,-0.328147,-0.179797,8.89775,0.226472,
2,0,0,1,0,9799.96,0.225276,0.22496,-1.27457,8,0.0193192,11,-0.000286728,-2.89464,-0.373669,-0.157894,7.89109,0.22496,
2,0,0,1,0,9799.99,0.223781,0.223463,-1.28665,8,0.0192711,11,-0.000287518,-2.89054,-0.445581,-0.132411,6.65054,0.223463,
2,0,0,1,0,9800.03,0.222281,0.221963,-1.29328,8,0.0192225,11,-0.00028706,-2.88831,-0.414141,-0.142463,7.20383,0.221963,
2,0,0,1,0,9800.07,0.220781,0.220498,-1.31038,8,0.0191735,11,-0.000288935,-2.8826,-0.325813,-0.181086,9.22487,0.220498,
2,0,0,1,0,9800.11,0.219284,0.21894,-1.32638,8,0.0191241,11,-0.000290398,-2.87733,-0.388251,-0.151963,7.81562,0.21894,
2,0,0,1,0,9800.14,0.217788,0.217486,-1.33123,8,0.0190743,11,-0.000289523,-2.87575,-0.610275,-0.0966777,5.02013,0.217486,
2,0,0,1,0,9800.18,0.216288,0.216004,-1.33313,8,0.019024,11,-0.000287961,-2.87513,-0.411828,-0.143264,7.53232,0.216004,
2,0,0,1,0,9800.22,0.214788,0.214478,-1.35093,8,0.0189734,11,-0.000289745,-2.86937,-0.436269,-0.135238,7.17612,0.2144784,
2,0,0,1,0,9800.26,0.213292,0.213015,-1.36689,8,0.0189224,11,-0.000291167,-2.86427,-0.347107,-0.169977,9.07892,0.213015,
2,0,0,1,0,9800.29,0.211796,0.211483,-1.37742,8,0.0188708,11,-0.000291301,-2.86093,-0.438755,-0.134471,7.20172,0.211483,
2,0,0,1,0,9800.33,0.210293,0.210012,-1.39173,8,0.0188186,11,-0.000292279,-2.85645,-0.390956,-0.150912,8.17899,0.210012,
2,0,0,1,0,9800.37,0.208797,0.20848,-1.404,8,0.0187663,11,-0.000292705,-2.85263,-0.280749,-0.210152,11.519,0.20848,
2,0,0,1,0,9800.4,0.207301,0.206981,-1.41667,8,0.0187135,11,-0.000293223,-2.84873,-0.330563,-0.178484,9.85245,0.206981,
2,0,0,1,0,9800.44,0.205801,0.205489,-1.43226,8,0.0186597,11,-0.000294313,-2.84398,-0.345146,-0.170942,9.54412,0.205489,
2,0,0,1,0,9800.48,0.204301,0.20397,-1.44321,8,0.0186056,11,-0.00029437,-2.84067,-0.464101,-0.127127,7.19429,0.20397,
2,0,0,1,0,9800.52,0.202804,0.202512,-1.44974,8,0.0185513,11,-0.00029359,-2.83871,-0.377801,-0.156167,8.91572,0.202512,
2,0,0,1,0,9800.55,0.201308,0.200995,-1.47274,8,0.0184963,11,-0.000296013,-2.83188,-0.290551,-0.203063,11.6618,0.200995,
2,0,0,1,0,9800.59,0.199808,0.199462,-1.48994,8,0.0184406,11,-0.000297186,-2.82683,-0.337568,-0.17478,10.1546,0.199462,
2,0,0,1,0,9800.63,0.198308,0.197976,-1.51053,8,0.0183843,11,-0.000299048,-2.82087,-0.370435,-0.159272,9.3368,0.197976,
2,0,0,1,0,9800.67,0.196812,0.196451,-1.51933,8,0.0183276,11,-0.000298473,-2.81835,-0.301722,-0.195545,11.5895,0.196451,
2,0,0,1,0,9800.7,0.195316,0.194968,-1.53957,8,0.0182703,11,-0.000300167,-2.8126,-0.257087,-0.229495,13.7696,0.194968,
2,0,0,1,0,9800.74,0.193813,0.19349,-1.5631,8,0.0182119,11,-0.000302443,-2.80601,-0.272941,-0.216164,13.1612,0.19349,
2,0,0,1,0,9800.78,0.192317,0.191993,-1.57597,8,0.018153,11,-0.000302574,-2.80245,-0.300139,-0.196576,12.0951,0.191993,
2,0,0,1,0,9800.82,0.190821,0.190481,-1.58622,8,0.0180935,11,-0.000302144,-2.79964,-0.266862,-0.221088,13.8207,0.190481,
2,0,0,1,0,9800.85,0.189321,0.188999,-1.615,8,0.0180332,11,-0.000305232,-2.79183,-0.265227,-0.222451,14.0686,0.188999,
2,0,0,1,0,9800.89,0.187821,0.187521,-1.63922,8,0.0179719,11,-0.000307387,-2.78536,-0.233078,-0.253134,16.2029,0.187521,
2,0,0,1,0,9800.93,0.186324,0.186057,-1.66675,8,0.0179099,11,-0.00031011,-2.77813,-0.270173,-0.218378,14.1651,0.186057,
2,0,0,1,0,9800.97,0.184828,0.184472,-1.69402,8,0.017847,11,-0.000312499,-2.77108,-0.235503,-0.250528,16.516,0.184472,
2,0,0,1,0,9801,0.183328,0.183005,-1.71658,8,0.0177831,11,-0.000314143,-2.76533,-0.211897,-0.278438,18.6669,0.183005,
2,0,0,1,0,9801.04,0.181828,0.181509,-1.74855,8,0.017718,11,-0.000317378,-2.75732,-0.18717,-0.315222,21.5025,0.181509,
2,0,0,1,0,9801.08,0.180332,0.180009,-1.77694,8,0.0176518,11,-0.000319865,-2.75033,-0.189293,-0.311686,21.6833,0.180009,
2,0,0,1,0,9801.12,0.178836,0.178532,-1.80918,8,0.0175845,11,-0.000322997,-2.74252,-0.187943,-0.313925,22.2404,0.178532,
2,0,0,1,0,9801.15,0.177333,0.177033,-1.8436,8,0.0175157,11,-0.000326377,-2.73433,-0.169541,-0.347999,25.1208,0.177033,
2,0,0,1,0,9801.19,0.175837,0.175552,-1.88683,8,0.0174458,11,-0.000331238,-2.72427,-0.143945,-0.40988,30.1265,0.175552,
2,0,0,1,0,9801.23,0.174341,0.174019,-1.93318,8,0.0173742,11,-0.000336409,-2.71373,-0.152622,-0.386577,29.0895,0.174019,
2,0,0,1,0,9801.27,0.172841,0.172531,-1.97723,8,0.0173009,11,-0.000341134,-2.70394,-0.145356,-0.405899,31.213,0.172531,
2,0,0,1,0,9801.3,0.171341,0.171065,-2.01475,8,0.0172258,11,-0.000344654,-2.69578,-0.137334,-0.429609,33.9677,0.171065,
2,0,0,1,0,9801.34,0.169844,0.169532,-2.07234,8,0.0171491,11,-0.000351328,-2.68354,-0.126475,-0.466495,37.9284,0.169532,
2,0,0,1,0,9801.38,0.168348,0.168009,-2.13623,8,0.0170702,11,-0.000358906,-2.67035,-0.119145,-0.495197,41.3805,0.168009,
2,0,0,1,0,9801.42,0.166848,0.166507,-2.19845,8,0.0169887,11,-0.000366058,-2.65788,-0.118315,-0.49867,42.8504,0.166507,
2,0,0,1,0,9801.45,0.165348,0.165046,-2.26555,8,0.0169048,11,-0.00037392,-2.64483,-0.1107,-0.532971,47.2774,0.165046,
2,0,0,1,0,9801.49,0.163852,0.163513,-2.34375,8,0.0168185,11,-0.000383232,-2.63009,-0.100739,-0.585671,53.6673,0.163513,
2,0,0,1,0,9801.53,0.162357,0.162071,-2.43256,8,0.0167292,11,-0.000394247,-2.61394,-0.0926795,-0.636602,60.3391,0.162071,
2,0,0,1,0,9801.57,0.160853,0.160511,-2.52092,8,0.016636,11,-0.000404635,-2.59844,-0.0918922,-0.642057,63.0884,0.160511,
2,0,0,1,0,9801.6,0.159357,0.159038,-2.6154,8,0.0165398,11,-0.000415948,-2.58246,-0.0872095,-0.676532,69.2122,0.159038,
2,0,0,1,0,9801.64,0.157861,0.157547,-2.71952,8,0.0164399,11,-0.000428452,-2.56551,-0.0836117,-0.705643,75.2652,0.157547,
2,0,0,1,0,9801.68,0.156361,0.156068,-2.84302,8,0.0163354,11,-0.000443703,-2.54622,-0.0777373,-0.758966,84.4315,0.156068,
2,0,0,1,0,9801.72,0.154861,0.154495,-2.97135,8,0.0162261,11,-0.00045906,-2.52705,-0.0772269,-0.763982,88.8891,0.154495,
2,0,0,1,0,9801.75,0.153364,0.153067,-3.11469,8,0.016112,11,-0.000476757,-2.50659,-0.0765679,-0.770558,93.7539,0.153067,
2,0,0,1,0,9801.79,0.151868,0.151534,-3.25962,8,0.0159928,11,-0.000493942,-2.48683,-0.0746908,-0.789924,100.56,0.151534,
2,0,0,1,0,9801.83,0.150368,0.150008,-3.42011,8,0.0158675,11,-0.000513042,-2.46596,-0.0722711,-0.816371,108.773,0.150008,
2,0,0,1,0,9801.87,0.148868,0.148521,-3.59042,8,0.0157361,11,-0.000533253,-2.44485,-0.0722486,-0.816625,114.222,0.148521,
2,0,0,1,0,9801.9,0.147372,0.147069,-3.75454,8,0.0155986,11,-0.000552178,-2.42544,-0.0744143,-0.792858,116.056,0.1470695,
2,0,0,1,0,9801.94,0.145877,0.145565,-3.91891,8,0.0154547,11,-0.000570456,-2.40683,-0.0747469,-0.78933,121.218,0.145565,
2,0,0,1,0,9801.98,0.144373,0.14406,-4.10807,8,0.0153034,11,-0.00059181,-2.38636,-0.076823,-0.767999,123.344,0.14406,
2,0,0,1,0,9802.02,0.142877,0.142558,-4.30106,8,0.0151459,11,-0.00061315,-2.36642,-0.0797282,-0.740014,123.868,0.1425579,
2,0,0,1,0,9802.05,0.14138,0.141055,-4.47167,8,0.0149816,11,-0.000630753,-2.34953,-0.0878736,-0.671419,116.997,0.141055,
2,0,0,1,0,9802.09,0.13988,0.139545,-4.65624,8,0.0148102,11,-0.000649755,-2.33196,-0.0924501,-0.638182,115.655,0.139545,
2,0,0,1,0,9802.13,0.13838,0.138072,-4.82997,8,0.0146323,11,-0.000666882,-2.31606,-0.100088,-0.589482,110.786,0.1380717,
2,0,0,1,0,9802.17,0.136884,0.136576,-4.99338,8,0.0144485,11,-0.000681974,-2.30161,-0.107136,-0.550701,106.979,0.136576,
2,0,0,1,0,9802.2,0.135388,0.135101,-5.1469,8,0.0142587,11,-0.000695351,-2.28845,-0.1199,-0.492078,98.6003,0.135101,
2,0,0,1,0,9802.24,0.133888,0.133564,-5.28994,8,0.0140628,11,-0.000706545,-2.27655,-0.134965,-0.437152,90.0214,0.133564,
2,0,0,1,0,9802.28,0.132389,0.132112,-5.41152,8,0.0138619,11,-0.000714928,-2.26668,-0.152275,-0.387457,81.7777,0.132112,
2,0,0,1,0,9802.32,0.130893,0.130577,-5.53023,8,0.0136569,11,-0.000722118,-2.25726,-0.168363,-0.350434,75.4838,0.130577,
2,0,0,1,0,9802.35,0.129393,0.129042,-5.63746,8,0.0134473,11,-0.000727469,-2.24892,-0.203156,-0.290417,63.6766,0.129042,
2,0,0,1,0,9802.39,0.127893,0.127557,-5.72595,8,0.013234,11,-0.000730387,-2.24215,-0.259704,-0.227182,50.5574,0.127557,
2,0,0,1,0,9802.43,0.126397,0.126103,-5.78716,8,0.0130186,11,-0.000729781,-2.23753,-0.325245,-0.181401,40.8869,0.126103,
2,0,0,1,0,9802.46,0.1249,0.124572,-5.84417,8,0.0128009,11,-0.000728018,-2.23328,-0.397531,-0.148416,33.7806,0.124572,
2,0,0,1,0,9802.5,0.1234,0.123087,-5.88993,8,0.0125806,11,-0.000724974,-2.22989,-0.60256,-0.0979156,22.4478,0.123087,
2,0,0,1,0,9802.54,0.1219,0.121597,-5.91382,8,0.0123591,11,-0.000719102,-2.22813,-1.3264,-0.0444812,10.2441,0.121597,
2,0,0,1,0,9802.58,0.120404,0.120147,-5.91809,8,0.0121375,11,-0.00071104,-2.22782,-42.9736,-0.00137294,0.316808,0.120147,
2,0,0,1,0,9802.61,0.118908,0.118583,-5.92033,8,0.0119159,11,-0.000702051,-2.22765,2.15443,0.0273854,-6.31846,0.118583,
2,0,0,1,0,9802.65,0.117404,0.117055,-5.90434,8,0.0116935,11,-0.000691135,-2.22883,1.05322,0.0560186,-12.8773,0.117055,
2,0,0,1,0,9802.69,0.115909,0.11559,-5.88318,8,0.0114729,11,-0.000680037,-2.23039,0.571272,0.103278,-23.6071,0.11559,
2,0,0,1,0,9802.73,0.114413,0.114063,-5.83925,8,0.0112536,11,-0.00066604,-2.23364,0.426869,0.138216,-31.4195,0.114063,
2,0,0,1,0,9802.76,0.112913,0.112596,-5.78129,8,0.0110357,11,-0.00065095,-2.23798,0.354437,0.166461,-37.5332,0.112596,
2,0,0,1,0,9802.8,0.111413,0.111075,-5.72042,8,0.0108198,11,-0.000635395,-2.24257,0.318835,0.185048,-41.2778,0.111075,
2,0,0,1,0,9802.84,0.109917,0.109608,-5.65238,8,0.0106068,11,-0.000619546,-2.24777,0.27081,0.217865,-48.048,0.109608,
2,0,0,1,0,9802.88,0.10842,0.108096,-5.58109,8,0.0103965,11,-0.000603291,-2.25328,0.233115,0.253094,-55.0452,0.108096,
2,0,0,1,0,9802.91,0.10692,0.106608,-5.48914,8,0.0101888,11,-0.000585187,-2.2605,0.214204,0.275438,-59.0318,0.106608,
2,0,0,1,0,9802.95,0.10542,0.10507,-5.40688,8,0.00998427,11,-0.000568102,-2.26705,0.213678,0.276116,-58.2051,0.10507,
2,0,0,1,0,9802.99,0.103924,0.10364,-5.32189,8,0.00978359,11,-0.000551558,-2.27393,0.199276,0.296072,-61.3348,0.10364,
2,0,0,1,0,9803.03,0.102427,0.102075,-5.22338,8,0.00958632,11,-0.000533176,-2.28205,0.183148,0.322145,-65.5415,0.102075,
2,0,0,1,0,9803.06,0.100924,0.100569,-5.11655,8,0.00939175,11,-0.000514564,-2.29102,0.182049,0.324088,-64.771,0.1005687,
2,0,0,1,0,9803.1,0.0994284,0.0991361,-5.02077,8,0.00920201,11,-0.000497739,-2.29923,0.182523,0.323247,-63.4225,0.0991361,
2,0,0,1,0,9803.14,0.0979329,0.0976161,-4.92782,8,0.00901578,11,-0.000481035,-2.30734,0.187535,0.314608,-60.589,0.0976161,
2,0,0,1,0,9803.18,0.0964329,0.0960867,-4.83695,8,0.00883246,11,-0.000464766,-2.31543,0.184552,0.319693,-60.3848,0.0960867,
2,0,0,1,0,9803.21,0.094933,0.0946331,-4.74327,8,0.00865251,11,-0.00044887,-2.32392,0.189666,0.311073,-57.7035,0.0946331,
2,0,0,1,0,9803.25,0.0934366,0.093149,-4.66728,8,0.00847642,11,-0.000434753,-2.33094,0.204306,0.288782,-52.6938,0.093149,
2,0,0,1,0,9803.29,0.0919401,0.0915987,-4.5954,8,0.00830317,11,-0.000420932,-2.33768,0.220302,0.267814,-48.0208,0.09159869,
2,0,0,1,0,9803.33,0.0904402,0.0900973,-4.52836,8,0.00813197,11,-0.000407993,-2.34406,0.221035,0.266926,-47.0971,0.0900973,
2,0,0,1,0,9803.36,0.0889402,0.0886228,-4.45868,8,0.00796334,11,-0.000395141,-2.35079,0.236477,0.249495,-43.4596,0.0886228,
2,0,0,1,0,9803.4,0.0874438,0.0871432,-4.39524,8,0.00779777,11,-0.000383015,-2.35702,0.260942,0.226104,-38.8752,0.08714316,
2,0,0,1,0,9803.44,0.0859483,0.0856458,-4.33878,8,0.00763425,11,-0.000371599,-2.36263,0.305914,0.192865,-32.7327,0.0856458,
2,0,0,1,0,9803.48,0.0844447,0.084109,-4.29237,8,0.00747175,11,-0.000361027,-2.3673,0.317063,0.186083,-31.2157,0.084109,
2,0,0,1,0,9803.51,0.0829492,0.0826527,-4.24851,8,0.00731184,11,-0.000351151,-2.37176,0.318103,0.185474,-30.7566,0.0826527,
2,0,0,1,0,9803.55,0.0814528,0.0811729,-4.19793,8,0.00715378,11,-0.000340759,-2.37696,0.341332,0.172852,-28.3758,0.0811729,
2,0,0,1,0,9803.59,0.0799528,0.0796335,-4.16782,8,0.00699681,11,-0.000331898,-2.38009,0.431728,0.13666,-22.1933,0.0796335,
2,0,0,1,0,9803.63,0.0784529,0.0781493,-4.13378,8,0.00684111,11,-0.000323052,-2.38365,0.425124,0.138783,-22.3684,0.0781493,
2,0,0,1,0,9803.66,0.0769565,0.0766174,-4.09619,8,0.00668705,11,-0.000313839,-2.38762,0.397437,0.148451,-23.7254,0.0766174,
2,0,0,1,0,9803.7,0.0754601,0.0751263,-4.05382,8,0.00653435,11,-0.000304549,-2.39214,0.393086,0.150095,-23.8131,0.0751263,
2,0,0,1,0,9803.74,0.0739601,0.0736791,-4.0235,8,0.00638261,11,-0.000296448,-2.3954,0.427698,0.137948,-21.7116,0.0736791,
2,0,0,1,0,9803.78,0.0724601,0.0721187,-3.99245,8,0.00623206,11,-0.00028793,-2.39876,0.427582,0.137985,-21.5189,0.0721187,
2,0,0,1,0,9803.81,0.0709637,0.0706372,-3.96844,8,0.00608303,11,-0.000280319,-2.40138,0.39856,0.148033,-22.8813,0.0706372,
2,0,0,1,0,9803.85,0.0694682,0.0691222,-3.93313,8,0.00593522,11,-0.000271867,-2.40526,0.417366,0.141363,-21.6749,0.06912218,
2,0,0,1,0,9803.89,0.0679646,0.0676956,-3.89722,8,0.00578801,11,-0.000263825,-2.40925,0.435035,0.135621,-20.638,0.0676956,
2,0,0,1,0,9803.93,0.0664691,0.0661693,-3.8635,8,0.00564272,11,-0.000255645,-2.41302,0.449222,0.131338,-19.815,0.0661693,
2,0,0,1,0,9803.96,0.0649727,0.064645,-3.83776,8,0.00549843,11,-0.000248092,-2.41592,0.378627,0.155826,-23.29,0.064645,
2,0,0,1,0,9804,0.0634727,0.0631665,-3.79712,8,0.00535504,11,-0.000239851,-2.42055,0.338051,0.17453,-25.8879,0.0631665,
2,0,0,1,0,9804.04,0.0619728,0.0616261,-3.75813,8,0.0052132,11,-0.000231599,-2.42503,0.347409,0.169828,-24.9606,0.0616261,
2,0,0,1,0,9804.08,0.0604764,0.0601898,-3.72351,8,0.00507309,11,-0.000224117,-2.42905,0.35982,0.163971,-23.8307,0.0601898,
2,0,0,1,0,9804.11,0.05898,0.0586494,-3.69019,8,0.00493427,11,-0.000216427,-2.43295,0.338832,0.174128,-25.0381,0.0586494,
2,0,0,1,0,9804.15,0.05748,0.0571459,-3.65311,8,0.00479653,11,-0.00020876,-2.43734,0.297513,0.198311,-28.2057,0.0571459,
2,0,0,1,0,9804.19,0.05598,0.0556687,-3.60434,8,0.00466041,11,-0.000200649,-2.44317,0.302971,0.194738,-27.3802,0.0556687,
2,0,0,1,0,9804.23,0.0544836,0.0541855,-3.56738,8,0.00452622,11,-0.0001933,-2.44765,0.312245,0.188954,-26.2604,0.0541855,
2,0,0,1,0,9804.26,0.0529881,0.0526537,-3.5281,8,0.00439346,11,-0.000185767,-2.45246,0.2848,0.207163,-28.4756,0.0526537,
2,0,0,1,0,9804.3,0.0514846,0.0511225,-3.47649,8,0.00426159,11,-0.000177727,-2.45886,0.252655,0.23352,-31.6843,0.0511225,
2,0,0,1,0,9804.34,0.049989,0.0496638,-3.41947,8,0.00413225,11,-0.000169824,-2.46604,0.242237,0.243563,-32.6181,0.0496638,
2,0,0,1,0,9804.38,0.0484926,0.0481766,-3.37993,8,0.00400481,11,-0.000162834,-2.47109,0.240014,0.245819,-32.4714,0.0481766,
2,0,0,1,0,9804.41,0.0469927,0.0466467,-3.33584,8,0.00387872,11,-0.000155606,-2.4768,0.250332,0.235687,-30.6683,0.0466467,
2,0,0,1,0,9804.45,0.0454927,0.0451587,-3.29218,8,0.00375431,11,-0.000148671,-2.48252,0.227856,0.258935,-33.1804,0.0451587,
2,0,0,1,0,9804.49,0.0439963,0.0437076,-3.24563,8,0.00363199,11,-0.000141859,-2.4887,0.229344,0.257255,-32.5338,0.0437076,
2,0,0,1,0,9804.52,0.0424999,0.0421993,-3.19131,8,0.00351161,11,-0.000134671,-2.49603,0.252772,0.233412,-29.1625,0.0421993,
2,0,0,1,0,9804.56,0.0409999,0.0406831,-3.15283,8,0.00339245,11,-0.000128267,-2.5013,0.272254,0.216709,-26.6816,0.0406831,
2,0,0,1,0,9804.6,0.0394999,0.039183,-3.1155,8,0.00327464,11,-0.000122075,-2.50647,0.265405,0.222302,-27.0061,0.039183,
2,0,0,1,0,9804.64,0.0380044,0.037662,-3.06816,8,0.00315883,11,-0.000115553,-2.51312,0.245315,0.240507,-28.8743,0.037662,
2,0,0,1,0,9804.67,0.0365089,0.0362168,-3.02735,8,0.00304468,11,-0.000109641,-2.51894,0.282043,0.209188,-24.7746,0.0362168,
2,0,0,1,0,9804.71,0.0350054,0.0347031,-2.99712,8,0.00293131,11,-0.000104009,-2.5233,0.321787,0.183351,-21.4279,0.0347031,
2,0,0,1,0,9804.75,0.033509,0.0331872,-2.96446,8,0.00281971,11,-9.83823e-05,-2.52805,0.332353,0.177522,-20.4985,0.0331872,
2,0,0,1,0,9804.79,0.0320125,0.0316781,-2.93457,8,0.00270931,11,-9.29618e-05,-2.53246,0.315207,0.187178,-21.4053,0.0316781,
2,0,0,1,0,9804.82,0.0305126,0.0302425,-2.89587,8,0.00259984,11,-8.75783e-05,-2.53822,0.356429,0.165531,-18.7573,0.0302425,
2,0,0,1,0,9804.86,0.0290126,0.0286755,-2.87153,8,0.00249146,11,-8.23426e-05,-2.54189,0.428996,0.13753,-15.4577,0.0286755,
2,0,0,1,0,9804.9,0.0275162,0.0272296,-2.85194,8,0.00238417,11,-7.76572e-05,-2.54486,0.476381,0.12385,-13.8121,0.0272296,
2,0,0,1,0,9804.94,0.0260198,0.0257314,-2.83042,8,0.00227768,11,-7.28308e-05,-2.54815,0.420228,0.1404,-15.5251,0.0257314,
2,0,0,1,0,9804.97,0.0245198,0.0241835,-2.80446,8,0.00217174,11,-6.78216e-05,-2.55215,0.520217,0.113414,-12.4534,0.02418346,
2,0,0,1,0,9805.01,0.0230198,0.0226926,-2.79759,8,0.00206662,11,-6.34845e-05,-2.55322,0.580439,0.101647,-11.0844,0.0226926,
2,0,0,1,0,9805.05,0.0215243,0.0212386,-2.78118,8,0.00196225,11,-5.90682e-05,-2.55577,0.793937,0.0743132,-8.05343,0.0212386,
2,0,0,1,0,9805.09,0.0200288,0.0196968,-2.76887,8,0.00185841,11,-5.45377e-05,-2.5577,0.677767,0.0870505,-9.38288,0.0196968,
2,0,0,1,0,9805.12,0.0185253,0.0181785,-2.75631,8,0.00175438,11,-5.01055e-05,-2.55967,1.00802,0.0585304,-6.29787,0.0181785,
2,0,0,1,0,9805.16,0.0170289,0.0167433,-2.74234,8,0.0016515,11,-4.59159e-05,-2.56188,1.50502,0.039202,-4.21404,0.01674334,
2,0,0,1,0,9805.2,0.0155325,0.0151867,-2.73567,8,0.00154877,11,-4.15458e-05,-2.56294,1.8998,0.0310559,-3.32357,0.0151867,
2,0,0,1,0,9805.24,0.0140325,0.0137095,-2.73563,8,0.0014458,11,-3.75043e-05,-2.56294,1.96653,0.030002,-3.20687,0.0137095,
2,0,0,1,0,9805.27,0.0125325,0.0122222,-2.73263,8,0.0013431,11,-3.33987e-05,-2.56342,1.3075,0.0451242,-4.81281,0.0122222,
2,0,0,1,0,9805.31,0.0110361,0.0107489,-2.72498,8,0.00124093,11,-2.92905e-05,-2.56464,3.44949,0.017104,-1.82111,0.0107489,
2,0,0,1,0,9805.35,0.0095397,0.00920947,-2.73202,8,0.00113884,11,-2.51604e-05,-2.56352,-4.34206,-0.013588,1.44441,0.00920947,
2,0,0,1,0,9805.39,0.00803616,0.00769766,-2.73101,8,0.00103606,11,-2.10224e-05,-2.56368,-3.05996,-0.0192813,2.05327,0.00769766,
2,0,0,1,0,9805.42,0.00654064,0.00622895,-2.72845,8,0.000933842,11,-1.69954e-05,-2.56408,-174.143,-0.000338802,0.0361111,0.00622895,
2,0,0,1,0,9805.46,0.00504513,0.00474372,-2.72328,8,0.000831576,11,-1.29185e-05,-2.56491,-1.83417,-0.0321671,3.43649,0.00474372,
2,0,0,1,0,9805.5,0.00354515,0.00324585,-2.72919,8,0.000729001,11,-8.85853e-06,-2.56397,-0.500352,-0.117917,12.6928,0.00324585,
2,0,0,1,0,9805.54,0.00204518,0.00165175,-2.79825,8,0.000625715,11,-4.62201e-06,-2.55311,-0.954429,-0.061817,6.62899,0.00165175,
2,0,0,1,0,9805.57,0.000548773,0.000168561,-2.76554,8,0.000521644,11,-4.66161e-07,-2.55822, , , ,0.000168561,
2,0,0,1,0,9805.58,0.000177222,-0.000156973,-2.76066,8,0.000495898,11,4.3335e-07,-2.55899, , , ,-0.000156973,