File: Figure_codes/Fig_3-5/rawdata_trumpetplot_data/before 10th/20221101_1-115_002_TrumpetPlot_ParaChange_07_CV_C01_5.csv
mode,ox/red,error,control changes,counter inc.,time/s,control/V,Ewe/V,<I>/mA,cycle number,(Q-Qo)/C,I Range,P/W,log(|I|),Tafel slope mV/dec,alpha_eff,dI/d(E-IR),E-IR/V,
2,0,0,0,0,7297.23,2.44065e-05,-0.000306236,-1.21098,6,0.0000000E+000,11,3.70847e-07,-2.91686, , , ,-0.000306236,
2,1,0,1,0,7297.29,0.00129787,0.000949219,0.428864,6,-5.21728e-06,11,4.07086e-07,-3.36768, , , ,0.000949219,
2,1,0,1,0,7297.37,0.00279606,0.0025209,0.731259,6,4.16515e-05,11,1.84343e-06,-3.13593,0.00517173,11.4082,161.054,0.0025209,
2,1,0,1,0,7297.44,0.00429425,0.00401915,0.763172,6,9.81927e-05,11,3.06731e-06,-3.11738,0.0598087,0.986478,28.491,0.00401915,
2,1,0,1,0,7297.52,0.00579244,0.005509,0.784808,6,0.000156954,11,4.32351e-06,-3.10524,0.100669,0.58608,18.0036,0.005509,
2,1,0,1,0,7297.59,0.00729063,0.00702355,0.816076,6,0.000217713,11,5.73175e-06,-3.08827,0.116993,0.504304,15.969,0.00702355,
2,1,0,1,0,7297.67,0.00878882,0.00849728,0.840042,6,0.000280343,11,7.13807e-06,-3.0757,0.15139,0.389722,12.704,0.00849728,
2,1,0,1,0,7297.74,0.010287,0.00995354,0.856986,6,0.000344489,11,8.53004e-06,-3.06703,0.195803,0.301323,10.0243,0.00995354,
2,1,0,1,0,7297.82,0.0117852,0.011494,0.868593,6,0.00040975,11,9.9836e-06,-3.06118,0.211863,0.278482,9.47525,0.011494,
2,1,0,1,0,7297.89,0.0132847,0.0129841,0.884164,6,0.000476069,11,1.14801e-05,-3.05347,0.194861,0.30278,10.4877,0.0129841,
2,1,0,1,0,7297.97,0.0147802,0.0144761,0.89972,6,0.000543431,11,1.30245e-05,-3.04589,0.218157,0.270448,9.46853,0.0144761,
2,1,0,1,0,7298.04,0.0162798,0.0159775,0.911575,6,0.000612099,11,1.45647e-05,-3.04021,0.311385,0.189476,6.70973,0.0159775,
2,1,0,1,0,7298.12,0.017778,0.0174844,0.9231,6,0.000681445,11,1.61399e-05,-3.03475,0.303924,0.194127,6.99598,0.01748441,
2,1,0,1,0,7298.19,0.0192761,0.0190171,0.932595,6,0.000751335,11,1.77353e-05,-3.03031,0.340534,0.173257,6.30421,0.0190171,
2,1,0,1,0,7298.27,0.0207743,0.0205087,0.944925,6,0.000822293,11,1.93791e-05,-3.0246,0.268371,0.219845,8.08648,0.0205087,
2,1,0,1,0,7298.34,0.0222725,0.0219836,0.95608,6,0.000894023,11,2.10181e-05,-3.01951,0.307618,0.191796,7.15356,0.0219836,
2,1,0,1,0,7298.42,0.0237707,0.023487,0.964295,6,0.000966564,11,2.26484e-05,-3.01579,0.341567,0.172733,6.5112,0.023487,
2,1,0,1,0,7298.49,0.0252689,0.0250239,0.969972,6,0.00103971,11,2.42725e-05,-3.01324,0.322935,0.182699,6.95583,0.0250239,
2,1,0,1,0,7298.57,0.0267671,0.0264924,0.988153,6,0.00111374,11,2.61786e-05,-3.00518,0.257844,0.228821,8.79737,0.0264924,
2,1,0,1,0,7298.64,0.0282653,0.0279898,1.00148,6,0.00118864,11,2.80312e-05,-2.99936,0.306166,0.192706,7.50471,0.0279898,
2,1,0,1,0,7298.72,0.0297644,0.0294823,1.00845,6,0.00126451,11,2.97314e-05,-2.99635,0.324726,0.181692,7.14455,0.0294823,
2,1,0,1,0,7298.79,0.0312599,0.030993,1.01252,6,0.00134087,11,3.1381e-05,-2.9946,0.294156,0.200574,7.97395,0.030993,
2,1,0,1,0,7298.87,0.0327599,0.0325047,1.0317,6,0.00141826,11,3.35351e-05,-2.98645,0.280323,0.210472,8.4755,0.0325047,
2,1,0,1,0,7298.94,0.034258,0.0339525,1.0451,6,0.00149656,11,3.54836e-05,-2.98084,0.27859,0.211781,8.62572,0.0339525,
2,1,0,1,0,7299.02,0.0357562,0.0354273,1.05591,6,0.00157592,11,3.74079e-05,-2.97637,0.33771,0.174706,7.17678,0.0354273,
2,1,0,1,0,7299.09,0.0372544,0.0369228,1.06966,6,0.00165624,11,3.94947e-05,-2.97076,0.300753,0.196174,8.20403,0.0369228,
2,1,0,1,0,7299.17,0.0387526,0.0384399,1.08465,6,0.00173728,11,4.1694e-05,-2.96471,0.229668,0.256893,10.9347,0.0384399,
2,1,0,1,0,7299.24,0.0402508,0.0399468,1.10106,6,0.00181967,11,4.39837e-05,-2.95819,0.221959,0.265815,11.419,0.0399468,
2,1,0,1,0,7299.32,0.041749,0.0414824,1.11818,6,0.00190351,11,4.63846e-05,-2.95149,0.259956,0.226961,9.87955,0.0414824,
2,1,0,1,0,7299.39,0.0432472,0.0429625,1.13666,6,0.00198848,11,4.88336e-05,-2.94437,0.255256,0.23114,10.2196,0.0429625,
2,1,0,1,0,7299.47,0.0447449,0.044473,1.15194,6,0.00207442,11,5.12304e-05,-2.93857,0.203218,0.290328,13.0699,0.044473,
2,1,0,1,0,7299.54,0.0462445,0.0459842,1.17103,6,0.00216193,11,5.3849e-05,-2.93143,0.190821,0.309191,14.0881,0.0459842,
2,1,0,1,0,7299.62,0.04774,0.04743,1.18946,6,0.00225082,11,5.64161e-05,-2.92465,0.184381,0.31999,14.8534,0.04743,
2,1,0,1,0,7299.69,0.0492399,0.0489379,1.20903,6,0.00234138,11,5.91674e-05,-2.91756,0.213041,0.276942,13.0639,0.0489379,
2,1,0,1,0,7299.77,0.0507381,0.0504765,1.22542,6,0.00243326,11,6.18547e-05,-2.91172,0.194609,0.303171,14.5688,0.0504765,
2,1,0,1,0,7299.84,0.0522363,0.0519253,1.25056,6,0.00252669,11,6.49355e-05,-2.9029,0.174147,0.338795,16.5711,0.0519253,
2,1,0,1,0,7299.92,0.0537345,0.0534316,1.2805,6,0.00262202,11,6.84191e-05,-2.89262,0.193779,0.304471,15.1589,0.0534316,
2,1,0,1,0,7299.99,0.0552327,0.0549622,1.30015,6,0.00271925,11,7.14591e-05,-2.88601,0.198654,0.296998,15.0263,0.0549622,
2,1,0,1,0,7300.07,0.0567309,0.0564554,1.31911,6,0.002818,11,7.44707e-05,-2.87972,0.197077,0.299375,15.4647,0.0564554,
2,1,0,1,0,7300.14,0.0582291,0.057958,1.34807,6,0.00291839,11,7.81314e-05,-2.87029,0.183539,0.321457,16.9309,0.057958,
2,1,0,1,0,7300.22,0.0597291,0.0594135,1.37144,6,0.00302095,11,8.14822e-05,-2.86282,0.186283,0.316722,16.9523,0.0594135,
2,1,0,1,0,7300.29,0.0612246,0.0609635,1.39645,6,0.00312523,11,8.51326e-05,-2.85497,0.204128,0.289034,15.7427,0.0609635,
2,1,0,1,0,7300.37,0.0627241,0.0624402,1.42278,6,0.00323166,11,8.88389e-05,-2.84686,0.190878,0.309097,17.1662,0.0624402,
2,1,0,1,0,7300.44,0.0642219,0.0639746,1.44542,6,0.00333951,11,9.24699e-05,-2.84001,0.194028,0.304079,17.2092,0.0639746,
2,1,0,1,0,7300.52,0.06572,0.0654727,1.47319,6,0.00344947,11,9.64538e-05,-2.83174,0.183071,0.322279,18.5273,0.0654727,
2,1,0,1,0,7300.59,0.0672182,0.0669648,1.50156,6,0.00356164,11,0.000100551,-2.82346,0.192976,0.305737,17.8675,0.0669648,
2,1,0,1,0,7300.67,0.0687164,0.0684762,1.52875,6,0.00367565,11,0.000104683,-2.81566,0.238106,0.247789,14.7511,0.0684762,
2,1,0,1,0,7300.74,0.0702146,0.0699065,1.54666,6,0.00379128,11,0.000108122,-2.8106,0.219667,0.268588,16.2567,0.0699065,
2,1,0,1,0,7300.81,0.0717128,0.0713961,1.57413,6,0.0039088,11,0.000112387,-2.80296,0.209273,0.281928,17.2943,0.0713961,
2,1,0,1,0,7300.89,0.073211,0.0729833,1.60088,6,0.00402828,11,0.000116838,-2.79564,0.2228,0.264812,16.5163,0.0729833,
2,1,0,1,0,7300.96,0.0747092,0.0744025,1.62232,6,0.00414949,11,0.000120705,-2.78986,0.257217,0.229378,14.5119,0.0744025,
2,1,0,1,0,7301.04,0.0762087,0.0759175,1.63653,6,0.00427239,11,0.000124242,-2.78608,0.24404,0.241764,15.5153,0.0759175,
2,1,0,1,0,7301.11,0.0777042,0.0773861,1.66631,6,0.00439657,11,0.000128949,-2.77825,0.236553,0.249415,16.2091,0.0773861,
2,1,0,1,0,7301.19,0.0792037,0.0788975,1.69283,6,0.00452307,11,0.00013356,-2.77139,0.247777,0.238117,15.6748,0.0788975,
2,1,0,1,0,7301.26,0.0807019,0.080413,1.70857,6,0.00465108,11,0.000137392,-2.76737,0.333012,0.177171,11.7995,0.080413,
2,1,0,1,0,7301.34,0.0822001,0.0819239,1.72594,6,0.00478054,11,0.000141396,-2.76297,0.317521,0.185814,12.5409,0.0819239,
2,1,0,1,0,7301.41,0.0836983,0.0834162,1.74672,6,0.00491117,11,0.000145705,-2.75778,0.306045,0.192782,13.1752,0.0834162,
2,1,0,1,0,7301.49,0.0851965,0.0849161,1.77019,6,0.00504356,11,0.000150317,-2.75198,0.293915,0.200738,13.85,0.0849161,
2,1,0,1,0,7301.56,0.0866947,0.086399,1.78904,6,0.00517754,11,0.000154571,-2.74738,0.378679,0.155805,10.8636,0.086399,
2,1,0,1,0,7301.64,0.0881929,0.0879303,1.8106,6,0.00531287,11,0.000159207,-2.74218,0.339727,0.173669,12.2693,0.0879303,
2,1,0,1,0,7301.71,0.0896911,0.0894054,1.82729,6,0.00544937,11,0.000163369,-2.73819,0.309359,0.190717,13.6113,0.0894054,
2,1,0,1,0,7301.79,0.0911893,0.0908966,1.85144,6,0.00558763,11,0.00016829,-2.73249,0.280119,0.210625,15.166,0.0908966,
2,1,0,1,0,7301.86,0.0926884,0.0924482,1.87325,6,0.00572777,11,0.000173179,-2.7274,0.298031,0.197966,14.4389,0.0924482,
2,1,0,1,0,7301.94,0.0941839,0.0938992,1.89105,6,0.005869,11,0.000177568,-2.7233,0.309431,0.190672,14.0739,0.09389922,
2,1,0,1,0,7302.01,0.0956838,0.0954252,1.90581,6,0.00601202,11,0.000181862,-2.71992,0.28865,0.2044,15.2649,0.0954252,
2,1,0,1,0,7302.09,0.097182,0.0968716,1.93295,6,0.00615662,11,0.000187248,-2.71378,0.245982,0.239854,18.1059,0.0968716,
2,1,0,1,0,7302.16,0.0986802,0.0984037,1.95843,6,0.00630307,11,0.000192717,-2.70809,0.25161,0.23449,17.9624,0.0984037,
2,1,0,1,0,7302.24,0.100178,0.0998701,1.98895,6,0.00645157,11,0.000198637,-2.70138,0.267258,0.22076,17.1171,0.0998701,
2,1,0,1,0,7302.31,0.101677,0.101412,2.00945,6,0.0066021,11,0.000203783,-2.69692,0.232492,0.253772,19.9995,0.101412,
2,1,0,1,0,7302.39,0.103175,0.102895,2.05008,6,0.00675465,11,0.000210942,-2.68823,0.204066,0.289123,23.1627,0.102895,
2,1,0,1,0,7302.46,0.104673,0.104397,2.08921,6,0.00691003,11,0.000218107,-2.68002,0.193444,0.304999,24.8274,0.104397,
2,1,0,1,0,7302.54,0.106171,0.105911,2.12512,6,0.00706842,11,0.000225074,-2.67262,0.199924,0.295113,24.4124,0.105911,
2,1,0,1,0,7302.61,0.107669,0.107363,2.16223,6,0.00722961,11,0.000232144,-2.6651,0.182445,0.323384,27.3506,0.107363,
2,1,0,1,0,7302.69,0.109168,0.108879,2.2061,6,0.00739383,11,0.000240199,-2.65638,0.165753,0.355951,30.7276,0.108879,
2,1,0,1,0,7302.76,0.110664,0.110386,2.25228,6,0.0075612,11,0.00024862,-2.64738,0.151974,0.388226,34.1993,0.110386,
2,1,0,1,0,7302.84,0.112164,0.111869,2.30515,6,0.00773281,11,0.000257875,-2.6373,0.158874,0.371363,33.3844,0.111869,
2,1,0,1,0,7302.91,0.113662,0.113379,2.35858,6,0.00790813,11,0.000267413,-2.62735,0.155502,0.379416,34.8781,0.113379,
2,1,0,1,0,7302.99,0.11516,0.114901,2.40665,6,0.00808702,11,0.000276526,-2.61859,0.155604,0.379168,35.6716,0.114901,
2,1,0,1,0,7303.06,0.116658,0.116432,2.46651,6,0.00827008,11,0.000287182,-2.60792,0.142318,0.414565,39.8768,0.116432,
2,1,0,1,0,7303.14,0.118157,0.117861,2.52809,6,0.00845776,11,0.000297964,-2.59721,0.15026,0.392653,38.6681,0.117861,
2,1,0,1,0,7303.21,0.119655,0.11938,2.58305,6,0.00864984,11,0.000308363,-2.58787,0.166733,0.353859,35.6594,0.11938,
2,1,0,1,0,7303.29,0.121153,0.120855,2.63124,6,0.00884578,11,0.000317998,-2.57984,0.165691,0.356085,36.6859,0.120855,
2,1,0,1,0,7303.36,0.122653,0.122355,2.69036,6,0.00904607,11,0.00032918,-2.57019,0.160786,0.366947,38.5386,0.122355,
2,1,0,1,0,7303.44,0.124149,0.123847,2.74883,6,0.00925017,11,0.000340434,-2.56085,0.169893,0.347277,37.2216,0.123847,
2,1,0,1,0,7303.51,0.125648,0.125393,2.80432,6,0.00945904,11,0.000351643,-2.55217,0.188125,0.31362,34.2258,0.125393,
2,1,0,1,0,7303.59,0.127146,0.126862,2.84861,6,0.00967154,11,0.00036138,-2.54537,0.197303,0.299033,33.2651,0.126862,
2,1,0,1,0,7303.66,0.128644,0.12836,2.90155,6,0.00988742,11,0.000372443,-2.53737,0.20208,0.291964,33.0904,0.12836,
2,1,0,1,0,7303.74,0.130142,0.129843,2.95127,6,0.0101073,11,0.000383202,-2.52999,0.214212,0.275428,31.6691,0.129843,
2,1,0,1,0,7303.81,0.13164,0.131363,2.99698,6,0.0103309,11,0.000393694,-2.52332,0.260219,0.226732,26.4557,0.131363,
2,1,0,1,0,7303.89,0.133139,0.132845,3.0393,6,0.0105576,11,0.000403755,-2.51723,0.269073,0.219272,25.9852,0.132845,
2,1,0,1,0,7303.96,0.134637,0.134334,3.07379,6,0.0107868,11,0.000412915,-2.51233,0.295281,0.19981,23.9761,0.134334,
2,1,0,1,0,7304.04,0.136135,0.135831,3.11083,6,0.0110191,11,0.000422546,-2.50712,0.325742,0.181125,21.9423,0.135831,
2,1,0,1,0,7304.11,0.137633,0.137344,3.14465,6,0.0112539,11,0.0004319,-2.50243,0.402232,0.146682,17.9461,0.137344,
2,1,0,1,0,7304.19,0.139133,0.138877,3.16669,6,0.011491,11,0.00043978,-2.49939,0.590689,0.0998834,12.3,0.138877,
2,1,0,1,0,7304.26,0.140628,0.140374,3.17596,6,0.0117286,11,0.00044582,-2.49813,0.929246,0.0634923,7.85796,0.1403735,
2,1,0,1,0,7304.34,0.142128,0.14183,3.18419,6,0.0119677,11,0.000451615,-2.497,1.63409,0.0361056,4.47324,0.14183,
2,1,0,1,0,7304.41,0.143626,0.143345,3.18489,6,0.0122071,11,0.000456539,-2.4969,-1.63492,-0.0360873,-4.47023,0.143345,
2,1,0,1,0,7304.49,0.145124,0.144867,3.16979,6,0.0124459,11,0.000459199,-2.49897,-0.422073,-0.139786,-17.2329,0.144867,
2,1,0,1,0,7304.56,0.146622,0.146365,3.13523,6,0.0126828,11,0.000458888,-2.50373,-0.309379,-0.190705,-23.3065,0.146365,
2,1,0,1,0,7304.64,0.14812,0.147822,3.10011,6,0.012917,11,0.000458264,-2.50862,-0.224833,-0.262417,-31.614,0.147822,
2,1,0,1,0,7304.71,0.149619,0.149329,3.04803,6,0.0131479,11,0.000455158,-2.51598,-0.169692,-0.347689,-41.1252,0.149329,
2,1,0,1,0,7304.79,0.151117,0.150858,2.97833,6,0.0133741,11,0.000449304,-2.52603,-0.126081,-0.467952,-54.0421,0.150858,
2,1,0,1,0,7304.86,0.152615,0.152297,2.88585,6,0.0135943,11,0.000439506,-2.53973,-0.108956,-0.541503,-60.7841,0.152297,
2,1,0,1,0,7304.93,0.154113,0.153842,2.79375,6,0.0138076,11,0.000429795,-2.55381,-0.0977852,-0.603363,-65.5582,0.153842,
2,1,0,1,0,7305.01,0.155613,0.155374,2.68819,6,0.0140137,11,0.000417674,-2.57054,-0.084711,-0.696486,-72.805,0.155374,
2,1,0,1,0,7305.08,0.157108,0.156808,2.57361,6,0.0142112,11,0.000403563,-2.58946,-0.0753503,-0.783009,-78.3343,0.156808,
2,1,0,1,0,7305.16,0.158608,0.158359,2.45296,6,0.0144003,11,0.000388448,-2.61031,-0.0714205,-0.826094,-79.0653,0.1583593,
2,1,0,1,0,7305.23,0.160106,0.159858,2.33216,6,0.0145799,11,0.000372814,-2.63224,-0.0700355,-0.84243,-76.8541,0.159858,
2,1,0,1,0,7305.31,0.161604,0.161319,2.22203,6,0.014751,11,0.000358456,-2.65325,-0.069862,-0.844522,-73.1205,0.161319,
2,1,0,1,0,7305.38,0.163102,0.162797,2.11564,6,0.0149139,11,0.00034442,-2.67456,-0.0673903,-0.875497,-72.2596,0.162797,
2,1,0,1,0,7305.46,0.164601,0.164302,2.01196,6,0.0150687,11,0.000330569,-2.69638,-0.0696665,-0.846892,-66.4828,0.164302,
2,1,0,1,0,7305.53,0.166099,0.165842,1.90991,6,0.015216,11,0.000316742,-2.71899,-0.073247,-0.805493,-60.2979,0.165842,
2,1,0,1,0,7305.61,0.167597,0.167351,1.82786,6,0.0153564,11,0.000305894,-2.73806,-0.0797938,-0.739406,-52.7984,0.167351,
2,1,0,1,0,7305.68,0.169095,0.168816,1.75008,6,0.015491,11,0.000295441,-2.75694,-0.0813635,-0.725141,-49.6388,0.168816,
2,1,0,1,0,7305.76,0.170593,0.170283,1.67589,6,0.0156198,11,0.000285375,-2.77575,-0.0821509,-0.71819,-47.1914,0.170283,
2,1,0,1,0,7305.83,0.172092,0.171832,1.60298,6,0.0157435,11,0.000275442,-2.79507,-0.0885926,-0.66597,-42.0116,0.171832,
2,1,0,1,0,7305.91,0.173588,0.173338,1.55051,6,0.0158622,11,0.000268763,-2.80952,-0.0976129,-0.604429,-36.6417,0.173338,
2,1,0,1,0,7305.98,0.175088,0.174797,1.50098,6,0.0159771,11,0.000262366,-2.82363,-0.105759,-0.557873,-32.6871,0.174797,
2,1,0,1,0,7306.06,0.176586,0.176288,1.45226,6,0.0160882,11,0.000256016,-2.83796,-0.104928,-0.56229,-31.868,0.176288,
2,1,0,1,0,7306.13,0.178084,0.177769,1.40359,6,0.0161958,11,0.000249515,-2.85276,-0.117793,-0.50088,-27.5654,0.177769,
2,1,0,1,0,7306.21,0.179582,0.179329,1.36952,6,0.0163002,11,0.000245595,-2.86343,-0.129671,-0.454996,-24.4052,0.179329,
2,1,0,1,0,7306.28,0.181081,0.18081,1.33407,6,0.016402,11,0.000241214,-2.87482,-0.138413,-0.426259,-22.2566,0.18081,
2,1,0,1,0,7306.36,0.182579,0.182287,1.30432,6,0.0165015,11,0.000237761,-2.88462,-0.139112,-0.424119,-21.6078,0.182287,
2,1,0,1,0,7306.43,0.184077,0.183812,1.27557,6,0.0165987,11,0.000234465,-2.8943,-0.151461,-0.38954,-19.4143,0.183812,
2,1,0,1,0,7306.51,0.185577,0.18533,1.25069,6,0.0166938,11,0.000231791,-2.90285,-0.190153,-0.310276,-15.1687,0.18533,
2,1,0,1,0,7306.58,0.187073,0.1868,1.22859,6,0.0167869,11,0.0002295,-2.91059,-0.214606,-0.274923,-13.173,0.1868,
2,1,0,1,0,7306.66,0.188572,0.188276,1.20754,6,0.0168788,11,0.000227351,-2.9181,-0.227615,-0.25921,-12.2177,0.188276,
2,1,0,1,0,7306.73,0.19007,0.189767,1.18751,6,0.0169691,11,0.000225349,-2.92536,-0.219353,-0.268973,-12.4704,0.189767,
2,1,0,1,0,7306.81,0.191568,0.191286,1.16859,6,0.0170578,11,0.000223534,-2.93234,-0.248115,-0.237793,-10.8799,0.191286,
2,1,0,1,0,7306.88,0.193066,0.192779,1.15408,6,0.0171454,11,0.000222481,-2.93777,-0.321006,-0.183797,-8.27401,0.192779,
2,1,0,1,0,7306.96,0.194564,0.194285,1.14228,6,0.0172321,11,0.000221928,-2.94223,-0.284755,-0.207195,-9.23248,0.194285,
2,1,0,1,0,7307.03,0.196063,0.195812,1.12822,6,0.0173177,11,0.00022092,-2.94761,-0.265548,-0.222182,-9.78258,0.195812,
2,1,0,1,0,7307.11,0.197561,0.197256,1.11028,6,0.0174022,11,0.00021901,-2.95457,-0.315778,-0.18684,-8.13977,0.1972561,
2,1,0,1,0,7307.18,0.199059,0.198724,1.10457,6,0.0174857,11,0.000219505,-2.95681,-0.333644,-0.176835,-7.61653,0.198724,
2,1,0,1,0,7307.26,0.200557,0.200272,1.09589,6,0.0175685,11,0.000219476,-2.96023,-0.413096,-0.142824,-6.09199,0.200272,
2,1,0,1,0,7307.33,0.202057,0.20177,1.08265,6,0.0176509,11,0.000218445,-2.96551,-0.376206,-0.156829,-6.6148,0.20177,
2,1,0,1,0,7307.41,0.203552,0.203287,1.07129,6,0.0177321,11,0.000217779,-2.97009,-0.379891,-0.155308,-6.52393,0.203287,
2,1,0,1,0,7307.48,0.205052,0.204759,1.06495,6,0.0178129,11,0.000218058,-2.97267,-0.841497,-0.0701132,-2.94076,0.204759,
2,1,0,1,0,7307.56,0.20655,0.206201,1.05518,6,0.0178929,11,0.000217578,-2.97667,-0.487869,-0.120934,-5.00584,0.206201,
2,1,0,1,0,7307.63,0.208048,0.207779,1.04934,6,0.0179728,11,0.00021803,-2.97908,-0.40414,-0.145989,-5.97127,0.207779,
2,1,0,1,0,7307.71,0.209546,0.209256,1.04481,6,0.018052,11,0.000218633,-2.98096,-0.401338,-0.147008,-5.99602,0.209256,
2,1,0,1,0,7307.78,0.211044,0.210795,1.03709,6,0.0181303,11,0.000218613,-2.98418,-0.482315,-0.122327,-4.94777,0.210795,
2,1,0,1,0,7307.86,0.212543,0.212284,1.03219,6,0.0182084,11,0.000219117,-2.98624,-0.584274,-0.10098,-4.05608,0.212284,
2,1,0,1,0,7307.93,0.214041,0.21374,1.02663,6,0.018286,11,0.000219432,-2.98859,-0.583388,-0.101133,-4.05008,0.21374,
2,1,0,1,0,7308.01,0.215539,0.215284,1.02053,6,0.0183631,11,0.000219705,-2.99117,-0.680649,-0.086682,-3.44971,0.215284,
2,1,0,1,0,7308.08,0.217037,0.216738,1.01198,6,0.0184397,11,0.000219334,-2.99483,-0.833772,-0.0707628,-2.80732,0.2167381,
2,1,0,1,0,7308.16,0.218536,0.218259,1.00987,6,0.0185161,11,0.000220413,-2.99574,-2.73081,-0.0216053,-0.849867,0.218259,
2,1,0,1,0,7308.23,0.220032,0.219729,1.00556,6,0.0185922,11,0.000220951,-2.99759,-1.09686,-0.0537899,-2.10875,0.2197286,
2,1,0,1,0,7308.31,0.221532,0.221317,0.99995,6,0.018668,11,0.000221306,-3.00002,-0.629038,-0.093794,-3.66311,0.221317,
2,1,0,1,0,7308.38,0.22303,0.222714,0.989169,6,0.0187433,11,0.000220302,-3.00473,-1.04118,-0.0566663,-2.20064,0.222714,
2,1,0,1,0,7308.46,0.224528,0.224284,0.99044,6,0.0188181,11,0.00022214,-3.00417,-0.760682,-0.077562,-2.99949,0.224284,
2,1,0,1,0,7308.53,0.226026,0.225767,0.985667,6,0.0188929,11,0.000222531,-3.00627,-0.690701,-0.0854205,-3.28659,0.225767,
2,1,0,1,0,7308.61,0.227525,0.227265,0.983168,6,0.0189673,11,0.00022344,-3.00737,-0.556694,-0.105983,-4.0596,0.227265,
2,1,0,1,0,7308.68,0.229023,0.228726,0.977999,6,0.0190414,11,0.000223694,-3.00966,-0.611959,-0.0964117,-3.69634,0.228726,
2,1,0,1,0,7308.76,0.230521,0.230262,0.975927,6,0.0191151,11,0.000224719,-3.01058,-0.939343,-0.0628098,-2.39643,0.230262,
2,1,0,1,0,7308.83,0.232019,0.231717,0.97337,6,0.0191886,11,0.000225546,-3.01172,-1.26694,-0.0465689,-1.76719,0.231717,
2,1,0,1,0,7308.91,0.233517,0.233246,0.971217,6,0.019262,11,0.000226532,-3.01268,-0.950557,-0.0620689,-2.34612,0.233246,
2,1,0,1,0,7308.98,0.235016,0.234721,0.967909,6,0.0193352,11,0.000227188,-3.01417,-1.04455,-0.0564837,-2.13427,0.234721,
2,1,0,1,0,7309.05,0.236512,0.236263,0.96278,6,0.0194077,11,0.000227469,-3.01647,-1.31171,-0.0449795,-1.68775,0.236263,
2,1,0,1,0,7309.13,0.238012,0.237721,0.958247,6,0.0194805,11,0.000227796,-3.01852,-7.30941,-0.00807179,-0.301316,0.237721,
2,1,0,1,0,7309.2,0.23951,0.239242,0.956137,6,0.0195529,11,0.000228748,-3.01948,-1.16942,-0.0504525,-1.88427,0.239242,
2,1,0,1,0,7309.28,0.241008,0.240718,0.953918,6,0.0196251,11,0.000229625,-3.02049,-1.20642,-0.0489051,-1.82573,0.240718,
2,1,0,1,0,7309.35,0.242506,0.242217,0.945966,6,0.0196969,11,0.000229129,-3.02412,-0.865847,-0.0681413,-2.53343,0.242217,
2,1,0,1,0,7309.43,0.244005,0.243734,0.948963,6,0.0197686,11,0.000231295,-3.02275,-4.99799,-0.0118047,-0.436492,0.243734,
2,1,0,1,0,7309.5,0.245503,0.245221,0.948194,6,0.0198403,11,0.000232517,-3.0231,-1.61239,-0.0365916,-1.35227,0.245221,
2,1,0,1,0,7309.58,0.247001,0.246719,0.946173,6,0.0199117,11,0.000233439,-3.02403,-0.663241,-0.0889571,-3.27695,0.246719,
2,1,0,1,0,7309.65,0.248501,0.248211,0.93581,6,0.0199829,11,0.000232279,-3.02881,-1.82391,-0.0323481,-1.18597,0.248211,
2,1,0,1,0,7309.73,0.249997,0.249716,0.938531,6,0.0200537,11,0.000234366,-3.02755,-3.92724,-0.0150233,-0.549889,0.249716,
2,1,0,1,0,7309.8,0.251496,0.251226,0.936397,6,0.0201247,11,0.000235248,-3.02854,-1.51493,-0.0389457,-1.42531,0.251226,
2,1,0,1,0,7309.88,0.252994,0.252719,0.931622,6,0.0201953,11,0.000235439,-3.03076,-0.701388,-0.0841189,-3.05503,0.252719,
2,1,0,1,0,7309.95,0.254492,0.254231,0.929485,6,0.0202658,11,0.000236304,-3.03176,-1.41872,-0.0415867,-1.51344,0.254231,
2,1,0,1,0,7310.03,0.25599,0.255661,0.929135,6,0.0203359,11,0.000237544,-3.03192,-1.64968,-0.0357644,-1.29941,0.255661,
2,1,0,1,0,7310.1,0.257488,0.257212,0.926429,6,0.020406,11,0.000238289,-3.03319,-2.17178,-0.0271666,-0.981614,0.257212,
2,1,0,1,0,7310.18,0.258987,0.258729,0.926354,6,0.0204761,11,0.000239675,-3.03322,-1.72437,-0.0342154,-1.23389,0.258729,
2,1,0,1,0,7310.25,0.260485,0.260183,0.922969,6,0.0205459,11,0.000240141,-3.03481,-0.73371,-0.0804132,-2.89931,0.260183,
2,1,0,1,0,7310.33,0.261983,0.261714,0.921952,6,0.0206154,11,0.000241288,-3.03529,-1.14864,-0.051365,-1.8445,0.2617138,
2,1,0,1,0,7310.4,0.263481,0.263213,0.92092,6,0.0206849,11,0.000242398,-3.03578,9.82979,0.00600216,0.214902,0.263213,
2,1,0,1,0,7310.48,0.264981,0.264712,0.916323,6,0.0207543,11,0.000242562,-3.03795,-4.37422,-0.0134881,-0.483464,0.264712,
2,1,0,1,0,7310.55,0.266476,0.266217,0.915106,6,0.0208234,11,0.000243617,-3.03853,-1.61022,-0.0366409,-1.30926,0.266217,
2,1,0,1,0,7310.63,0.267976,0.267721,0.9079,6,0.0208924,11,0.000243064,-3.04196,-57.7048,-0.00102245,-0.036383,0.267721,
2,1,0,1,0,7310.7,0.269474,0.26921,0.910335,6,0.0209613,11,0.000245071,-3.0408,-4.65561,-0.0126729,-0.449897,0.26921,
2,1,0,1,0,7310.78,0.270972,0.270699,0.914611,6,0.0210301,11,0.000247584,-3.03876,-1.21135,-0.0487058,-1.72724,0.270699,
2,1,0,1,0,7310.85,0.27247,0.272191,0.908699,6,0.0210987,11,0.00024734,-3.04158,-1.14357,-0.0515929,-1.81749,0.272191,
2,1,0,1,0,7310.93,0.273968,0.273728,0.897648,6,0.0211672,11,0.000245711,-3.04689,-1.2124,-0.0486639,-1.71626,0.273728,
2,1,0,1,0,7311,0.275467,0.275182,0.903785,6,0.0212353,11,0.000248706,-3.04393,-1.31328,-0.0449256,-1.5851,0.2751821,
2,1,0,1,0,7311.08,0.276965,0.276714,0.900964,6,0.0213035,11,0.00024931,-3.04529,-1.25417,-0.047043,-1.65736,0.276714,
2,1,0,1,0,7311.15,0.278463,0.278179,0.89724,6,0.0213715,11,0.000249593,-3.04709,-0.865919,-0.0681357,-2.38509,0.278179,
2,1,0,1,0,7311.23,0.279961,0.27971,0.89938,6,0.0214394,11,0.000251565,-3.04606,-1.10362,-0.0534605,-1.87063,0.27971,
2,1,0,1,0,7311.3,0.28146,0.281173,0.89634,6,0.0215071,11,0.000252027,-3.04753,-4.13969,-0.0142523,-0.497985,0.2811729,
2,1,0,1,0,7311.38,0.282956,0.28267,0.894426,6,0.0215746,11,0.000252828,-3.04846,-118.486,-0.000497949,-0.0173402,0.28267,
2,1,0,1,0,7311.45,0.284456,0.28417,0.892088,6,0.0216422,11,0.000253505,-3.04959,-1.89136,-0.0311945,-1.08304,0.28417,
2,1,0,1,0,7311.53,0.285954,0.285663,0.890252,6,0.0217096,11,0.000254312,-3.05049,-1.05747,-0.0557934,-1.93737,0.285663,
2,1,0,1,0,7311.6,0.287452,0.287126,0.887474,6,0.0217766,11,0.000254817,-3.05184,-2.05559,-0.0287022,-0.99528,0.287126,
2,1,0,1,0,7311.68,0.28895,0.288652,0.885826,6,0.0218436,11,0.000255695,-3.05265,35.5939,0.00165759,0.0572195,0.288652,
2,1,0,1,0,7311.75,0.290449,0.290132,0.882964,6,0.0219105,11,0.000256176,-3.05406,-1.72409,-0.034221,-1.18016,0.290132,
2,1,0,1,0,7311.83,0.291947,0.291651,0.882174,6,0.0219773,11,0.000257287,-3.05445,-1.06717,-0.0552862,-1.90678,0.291651,
2,1,0,1,0,7311.9,0.293445,0.293157,0.876826,6,0.0220439,11,0.000257048,-3.05709,-1.36885,-0.0431019,-1.47942,0.293157,
2,1,0,1,0,7311.98,0.294943,0.294706,0.881213,6,0.0221103,11,0.000259699,-3.05492,-2.9463,-0.0200251,-0.687226,0.294706,
2,1,0,1,0,7312.05,0.296441,0.296173,0.882421,6,0.0221767,11,0.000261349,-3.05432,-1.93976,-0.0304161,-1.03912,0.296173,
2,1,0,1,0,7312.13,0.29794,0.297679,0.875637,6,0.0222432,11,0.000260659,-3.05768,-0.801566,-0.073606,-2.50774,0.297679,
2,1,0,1,0,7312.2,0.299436,0.299142,0.871414,6,0.0223092,11,0.000260677,-3.05978,-0.00128975,-45.7454,-519.7,0.299142,
2,1,0,1,0,7312.24,0.299739,0.299481,0.317423,6,0.0223399,11,9.50622e-05,-3.49836,0.00183598,32.1354,854.218,0.2994813,
2,0,0,1,0,7312.32,0.298239,0.297902,-0.163306,6,0.0223364,11,-4.86493e-05,-3.787,0.00657383,8.97499,287.105,0.297902,
2,0,0,1,0,7312.39,0.296741,0.296395,-0.213401,6,0.0223214,11,-6.32509e-05,-3.6708,-0.013946,-4.2306,30.9262,0.296395,
2,0,0,1,0,7312.47,0.295243,0.294895,-0.249789,6,0.0223034,11,-7.36615e-05,-3.60243,-0.027457,-2.14882,19.9198,0.294895,
2,0,0,1,0,7312.54,0.293745,0.293446,-0.274121,6,0.0222832,11,-8.04397e-05,-3.56206,-0.0375372,-1.57177,16.5154,0.293446,
2,0,0,1,0,7312.62,0.292246,0.29192,-0.295584,6,0.0222613,11,-8.62868e-05,-3.52932,-0.0490525,-1.20279,13.6442,0.29192,
2,0,0,1,0,7312.69,0.290748,0.290427,-0.317066,6,0.0222377,11,-9.20848e-05,-3.49885,-0.0549944,-1.07284,13.0541,0.290427,
2,0,0,1,0,7312.77,0.28925,0.288914,-0.331795,6,0.0222127,11,-9.58602e-05,-3.47913,-0.0737924,-0.79954,10.3842,0.288914,
2,0,0,1,0,7312.84,0.287752,0.287466,-0.348031,6,0.0221866,11,-0.000100047,-3.45838,-0.0833788,-0.707614,9.63125,0.287466,
2,0,0,1,0,7312.92,0.286254,0.285959,-0.359708,6,0.0221595,11,-0.000102862,-3.44405,-0.0906434,-0.650902,9.21421,0.285959,
2,0,0,1,0,7312.99,0.284754,0.284465,-0.375472,6,0.0221312,11,-0.000106809,-3.42542,-0.092731,-0.636249,9.2893,0.2844651,
2,0,0,1,0,7313.07,0.283259,0.282943,-0.391051,6,0.022102,11,-0.000110645,-3.40777,-0.109277,-0.539912,8.1904,0.282943,
2,0,0,1,0,7313.14,0.281759,0.281509,-0.399266,6,0.0220718,11,-0.000112397,-3.39874,-0.130431,-0.452345,7.00086,0.281509,
2,0,0,1,0,7313.22,0.280261,0.27993,-0.405404,6,0.0220409,11,-0.000113485,-3.39211,-0.133147,-0.443119,7.05479,0.27993,
2,0,0,1,0,7313.29,0.278763,0.278439,-0.41922,6,0.0220093,11,-0.000116727,-3.37756,-0.147466,-0.400093,6.54138,0.278439,
2,0,0,1,0,7313.37,0.277264,0.276948,-0.430394,6,0.0219769,11,-0.000119197,-3.36613,-0.162596,-0.362862,6.0876,0.276948,
2,0,0,1,0,7313.44,0.275766,0.275479,-0.438137,6,0.0219437,11,-0.000120698,-3.35839,-0.246472,-0.239378,4.07791,0.2754789,
2,0,0,1,0,7313.52,0.274268,0.273961,-0.446286,6,0.0219099,11,-0.000122265,-3.35039,-0.199742,-0.295381,5.17167,0.273961,
2,0,0,1,0,7313.59,0.27277,0.272493,-0.455546,6,0.0218756,11,-0.000124133,-3.34147,-0.182137,-0.323932,5.78602,0.272493,
2,0,0,1,0,7313.67,0.271272,0.270958,-0.468201,6,0.0218405,11,-0.000126863,-3.32957,-0.179277,-0.3291,5.97256,0.270958,
2,0,0,1,0,7313.74,0.269774,0.269466,-0.474887,6,0.0218047,11,-0.000127966,-3.32341,-0.207366,-0.284522,5.23538,0.269466,
2,0,0,1,0,7313.82,0.268274,0.267964,-0.481888,6,0.0217683,11,-0.000129128,-3.31705,-0.20331,-0.290198,5.44409,0.267964,
2,0,0,1,0,7313.89,0.266779,0.266534,-0.485838,6,0.0217316,11,-0.000129492,-3.31351,-0.22951,-0.25707,4.88466,0.266534,
2,0,0,1,0,7313.97,0.265279,0.265006,-0.496896,6,0.0216941,11,-0.000131681,-3.30373,-0.19349,-0.304925,5.86308,0.265006,
2,0,0,1,0,7314.04,0.263781,0.263523,-0.501683,6,0.0216561,11,-0.000132205,-3.29957,-0.253553,-0.232693,4.55649,0.263523,
2,0,0,1,0,7314.12,0.262283,0.262008,-0.509554,6,0.0216175,11,-0.000133507,-3.29281,-0.311135,-0.189628,3.77432,0.262008,
2,0,0,1,0,7314.19,0.260784,0.260508,-0.51426,6,0.0215786,11,-0.000133969,-3.28882,-0.247735,-0.238158,4.79967,0.260508,
2,0,0,1,0,7314.27,0.259286,0.258989,-0.523952,6,0.0215391,11,-0.000135697,-3.28071,-0.195585,-0.301659,6.15666,0.258989,
2,0,0,1,0,7314.34,0.257788,0.25749,-0.534789,6,0.021499,11,-0.000137703,-3.27182,-0.333639,-0.176838,3.65311,0.25749,
2,0,0,1,0,7314.42,0.25629,0.256028,-0.537071,6,0.0214583,11,-0.000137505,-3.26997,-0.42097,-0.140153,2.9238,0.256028,
2,0,0,1,0,7314.49,0.25479,0.254511,-0.540884,6,0.0214173,11,-0.000137661,-3.2669,-0.28566,-0.206539,4.37952,0.254511,
2,0,0,1,0,7314.57,0.253294,0.25296,-0.54987,6,0.021376,11,-0.000139095,-3.25974,-0.313928,-0.187941,4.037,0.25296,
2,0,0,1,0,7314.64,0.251795,0.25149,-0.554983,6,0.0213339,11,-0.000139573,-3.25572,-0.266076,-0.221741,4.82185,0.25149,
2,0,0,1,0,7314.72,0.250297,0.250015,-0.5594,6,0.0212914,11,-0.000139859,-3.25228,-0.405533,-0.145487,3.17905,0.250015,
2,0,0,1,0,7314.79,0.248799,0.24849,-0.568064,6,0.0212485,11,-0.000141158,-3.2456,-0.283771,-0.207914,4.61587,0.2484898,
2,0,0,1,0,7314.87,0.247301,0.247026,-0.573816,6,0.0212053,11,-0.000141748,-3.24123,-0.304919,-0.193494,4.33518,0.247026,
2,0,0,1,0,7314.94,0.245802,0.245467,-0.581559,6,0.0211614,11,-0.000142754,-3.23541,-0.313516,-0.188188,4.2507,0.245467,
2,0,0,1,0,7315.02,0.244304,0.244018,-0.587479,6,0.021117,11,-0.000143356,-3.23101,-0.381533,-0.154639,3.52753,0.244018,
2,0,0,1,0,7315.09,0.242806,0.242473,-0.594536,6,0.0210721,11,-0.000144159,-3.22582,-0.47251,-0.124865,2.89455,0.242473,
2,0,0,1,0,7315.17,0.241308,0.241042,-0.59592,6,0.0210271,11,-0.000143642,-3.22481,-0.383672,-0.153777,3.59399,0.241042,
2,0,0,1,0,7315.24,0.23981,0.239471,-0.603623,6,0.0209815,11,-0.00014455,-3.21923,-0.258195,-0.22851,5.36946,0.239471,
2,0,0,1,0,7315.32,0.23831,0.237985,-0.611012,6,0.0209354,11,-0.000145412,-3.21395,-0.325552,-0.18123,4.31983,0.237985,
2,0,0,1,0,7315.39,0.236815,0.236522,-0.615926,6,0.0208889,11,-0.00014568,-3.21047,-0.301524,-0.195673,4.71467,0.236522,
2,0,0,1,0,7315.47,0.235315,0.235013,-0.616337,6,0.020842,11,-0.000144847,-3.21018,-0.334926,-0.176158,4.28754,0.235013,
2,0,0,1,0,7315.54,0.233817,0.233512,-0.627666,6,0.0207946,11,-0.000146568,-3.20227,-0.339685,-0.17369,4.24611,0.233512,
2,0,0,1,0,7315.61,0.232319,0.231993,-0.635516,6,0.0207467,11,-0.000147435,-3.19687,-0.40363,-0.146174,3.60982,0.231993,
2,0,0,1,0,7315.69,0.230821,0.230489,-0.64233,6,0.0206982,11,-0.00014805,-3.19224,-0.468067,-0.12605,3.14503,0.230489,
2,0,0,1,0,7315.76,0.229322,0.229009,-0.644472,6,0.0206495,11,-0.00014759,-3.1908,-0.420094,-0.140445,3.54413,0.229009,
2,0,0,1,0,7315.84,0.227824,0.227493,-0.651715,6,0.0206004,11,-0.00014826,-3.18594,-0.334366,-0.176454,4.50487,0.227493,
2,0,0,1,0,7315.91,0.226326,0.226061,-0.658496,6,0.0205506,11,-0.00014886,-3.18145,-0.383385,-0.153892,3.96505,0.2260609,
2,0,0,1,0,7315.99,0.224828,0.224525,-0.665558,6,0.0205004,11,-0.000149435,-3.17681,-0.540208,-0.109217,2.83335,0.224525,
2,0,0,1,0,7316.06,0.22333,0.223057,-0.673994,6,0.0204498,11,-0.000150339,-3.17134,-0.351168,-0.168011,4.3938,0.223057,
2,0,0,1,0,7316.14,0.22183,0.221523,-0.678714,6,0.0203987,11,-0.000150351,-3.16831,-0.321427,-0.183556,4.84704,0.221523,
2,0,0,1,0,7316.21,0.220335,0.22005,-0.685571,6,0.0203472,11,-0.00015086,-3.16395,-0.285098,-0.206947,5.51239,0.22005,
2,0,0,1,0,7316.29,0.218835,0.218538,-0.69354,6,0.0202949,11,-0.000151565,-3.15893,-0.301847,-0.195463,5.27503,0.218538,
2,0,0,1,0,7316.36,0.217337,0.217044,-0.697589,6,0.0202423,11,-0.000151408,-3.1564,-0.520502,-0.113352,3.0989,0.217044,
2,0,0,1,0,7316.44,0.215839,0.215533,-0.701134,6,0.0201892,11,-0.000151118,-3.1542,-0.327016,-0.180419,4.95391,0.215533,
2,0,0,1,0,7316.51,0.21434,0.214031,-0.710648,6,0.0201356,11,-0.0001521,-3.14835,-0.263498,-0.22391,6.21154,0.214031,
2,0,0,1,0,7316.59,0.212842,0.21252,-0.71959,6,0.0200814,11,-0.000152927,-3.14291,-0.312268,-0.188941,5.30256,0.21252,
2,0,0,1,0,7316.66,0.211344,0.211011,-0.725135,6,0.0200266,11,-0.000153011,-3.13958,-0.409629,-0.144033,4.08362,0.211011,
2,0,0,1,0,7316.74,0.209846,0.209551,-0.727476,6,0.0199714,11,-0.000152443,-3.13818,-0.344415,-0.171305,4.90526,0.209551,
2,0,0,1,0,7316.81,0.208348,0.208071,-0.742877,6,0.0199156,11,-0.000154571,-3.12908,-0.260636,-0.226369,6.57035,0.208071,
2,0,0,1,0,7316.89,0.20685,0.206543,-0.759451,6,0.0198591,11,-0.00015686,-3.1195,-0.30316,-0.194617,5.70596,0.206543,
2,0,0,1,0,7316.96,0.20535,0.205049,-0.761077,6,0.0198016,11,-0.000156058,-3.11857,-0.401275,-0.147031,4.34373,0.205049,
2,0,0,1,0,7317.04,0.203855,0.203545,-0.767685,6,0.0197439,11,-0.000156258,-3.11482,-0.308283,-0.191383,5.74509,0.203545,
2,0,0,1,0,7317.11,0.202355,0.202033,-0.773887,6,0.0196855,11,-0.000156351,-3.11132,-0.262222,-0.225,6.83025,0.202033,
2,0,0,1,0,7317.19,0.200857,0.200579,-0.78643,6,0.0196264,11,-0.000157742,-3.10434,-0.253937,-0.232341,7.12984,0.2005794,
2,0,0,1,0,7317.26,0.199359,0.199032,-0.795206,6,0.0195666,11,-0.000158271,-3.09952,-0.342636,-0.172195,5.33135,0.199032,
2,0,0,1,0,7317.34,0.19786,0.197581,-0.807744,6,0.0195059,11,-0.000159595,-3.09273,-0.270098,-0.218439,6.86148,0.197581,
2,0,0,1,0,7317.41,0.196362,0.196025,-0.816836,6,0.0194447,11,-0.00016012,-3.08787,-0.25105,-0.235013,7.49162,0.196025,
2,0,0,1,0,7317.49,0.194864,0.194542,-0.829871,6,0.0193825,11,-0.000161445,-3.08099,-0.221028,-0.266934,8.62829,0.194542,
2,0,0,1,0,7317.56,0.193366,0.193055,-0.843884,6,0.0193192,11,-0.000162916,-3.07372,-0.238718,-0.247153,8.11585,0.193055,
2,0,0,1,0,7317.64,0.191866,0.191574,-0.853074,6,0.0192551,11,-0.000163427,-3.06901,-0.264987,-0.222653,7.441,0.191574,
2,0,0,1,0,7317.71,0.19037,0.190023,-0.861986,6,0.0191903,11,-0.000163797,-3.0645,-0.20636,-0.285909,9.68797,0.190023,
2,0,0,1,0,7317.79,0.188871,0.188548,-0.882131,6,0.0191242,11,-0.000166324,-3.05447,-0.179573,-0.328558,11.2999,0.188548,
2,0,0,1,0,7317.86,0.187373,0.187077,-0.896179,6,0.0190571,11,-0.000167655,-3.04761,-0.197739,-0.298373,10.4458,0.187077,
2,0,0,1,0,7317.94,0.185875,0.185569,-0.912939,6,0.0189886,11,-0.000169413,-3.03956,-0.190791,-0.309239,10.9833,0.185569,
2,0,0,1,0,7318.01,0.184377,0.18409,-0.923535,6,0.0189191,11,-0.000170014,-3.03455,-0.19539,-0.30196,10.959,0.18409,
2,0,0,1,0,7318.09,0.182878,0.1826,-0.949335,6,0.0188484,11,-0.000173348,-3.02258,-0.171375,-0.344274,12.7529,0.1826,
2,0,0,1,0,7318.16,0.18138,0.181043,-0.969368,6,0.018776,11,-0.000175497,-3.01351,-0.153503,-0.384358,14.5584,0.1810427,
2,0,0,1,0,7318.24,0.179882,0.179591,-0.988942,6,0.018702,11,-0.000177605,-3.00483,-0.180294,-0.327242,12.6145,0.179591,
2,0,0,1,0,7318.31,0.178384,0.178067,-1.01182,6,0.0186263,11,-0.000180172,-2.9949,-0.154185,-0.382658,15.1806,0.178067,
2,0,0,1,0,7318.39,0.176886,0.176591,-1.03734,6,0.0185492,11,-0.000183184,-2.98408,-0.136015,-0.433775,17.6162,0.176591,
2,0,0,1,0,7318.46,0.175386,0.175041,-1.06648,6,0.0184697,11,-0.000186679,-2.97205,-0.127191,-0.463869,19.2855,0.175041,
2,0,0,1,0,7318.54,0.173891,0.173566,-1.0937,6,0.0183884,11,-0.00018983,-2.9611,-0.125839,-0.468852,20.0318,0.173566,
2,0,0,1,0,7318.61,0.172391,0.172077,-1.12918,6,0.0183045,11,-0.000194305,-2.94724,-0.115393,-0.511298,22.4814,0.1720766,
2,0,0,1,0,7318.69,0.170893,0.170593,-1.15916,6,0.0182184,11,-0.000197744,-2.93586,-0.108457,-0.543996,24.6934,0.170593,
2,0,0,1,0,7318.76,0.169395,0.169063,-1.19845,6,0.0181295,11,-0.000202614,-2.92138,-0.0988928,-0.596606,27.9405,0.169063,
2,0,0,1,0,7318.84,0.167897,0.167583,-1.24163,6,0.0180374,11,-0.000208076,-2.90601,-0.0996391,-0.592137,28.745,0.167583,
2,0,0,1,0,7318.91,0.166398,0.166101,-1.28693,6,0.017942,11,-0.000213761,-2.89045,-0.0967338,-0.609922,30.7675,0.166101,
2,0,0,1,0,7318.99,0.1649,0.164567,-1.33363,6,0.0178433,11,-0.00021947,-2.87497,-0.087266,-0.676094,35.4253,0.164567,
2,0,0,1,0,7319.06,0.163402,0.16309,-1.3921,6,0.0177405,11,-0.000227037,-2.85633,-0.0794481,-0.742623,40.4692,0.16309,
2,0,0,1,0,7319.14,0.161904,0.161607,-1.45694,6,0.0176332,11,-0.000235452,-2.83656,-0.0782036,-0.754441,42.8752,0.161607,
2,0,0,1,0,7319.21,0.160406,0.160076,-1.52607,6,0.017521,11,-0.000244287,-2.81643,-0.0765334,-0.770905,45.8094,0.160076,
2,0,0,1,0,7319.29,0.158906,0.158591,-1.5932,6,0.0174035,11,-0.000252667,-2.79773,-0.0724904,-0.813901,50.7994,0.158591,
2,0,0,1,0,7319.36,0.157411,0.157121,-1.67278,6,0.017281,11,-0.000262829,-2.77656,-0.0697166,-0.846284,55.503,0.157121,
2,0,0,1,0,7319.44,0.155911,0.155601,-1.75726,6,0.0171516,11,-0.000273431,-2.75516,-0.0679112,-0.868781,59.7612,0.155601,
2,0,0,1,0,7319.51,0.154413,0.1541,-1.85392,6,0.0170155,11,-0.000285688,-2.73191,-0.0692466,-0.852028,61.5568,0.1541,
2,0,0,1,0,7319.59,0.152915,0.152591,-1.94952,6,0.0168725,11,-0.00029748,-2.71007,-0.069177,-0.852884,64.9191,0.152591,
2,0,0,1,0,7319.66,0.151417,0.151123,-2.04704,6,0.0167224,11,-0.000309355,-2.68887,-0.0697551,-0.845817,67.6922,0.151123,
2,0,0,1,0,7319.73,0.149918,0.149647,-2.15577,6,0.0165643,11,-0.000322604,-2.6664,-0.0656987,-0.898039,75.4017,0.149647,
2,0,0,1,0,7319.81,0.14842,0.148161,-2.26518,6,0.0163981,11,-0.000335611,-2.6449,-0.0724389,-0.814479,71.9177,0.148161,
2,0,0,1,0,7319.88,0.146922,0.146594,-2.37322,6,0.0162238,11,-0.000347899,-2.62466,-0.0781109,-0.755337,69.8305,0.146594,
2,0,0,1,0,7319.96,0.145424,0.145114,-2.4758,6,0.0160417,11,-0.000359272,-2.60628,-0.0808997,-0.729298,70.4078,0.145114,
2,0,0,1,0,7320.03,0.143926,0.143588,-2.58001,6,0.0158516,11,-0.000370457,-2.58838,-0.0822245,-0.717548,72.169,0.1435875,
2,0,0,1,0,7320.11,0.142426,0.142117,-2.68799,6,0.0156534,11,-0.00038201,-2.57057,-0.0942474,-0.626012,65.3851,0.142117,
2,0,0,1,0,7320.18,0.140931,0.140581,-2.78091,6,0.0154481,11,-0.000390943,-2.55581,-0.106201,-0.555549,60.0999,0.140581,
2,0,0,1,0,7320.26,0.139431,0.139156,-2.85506,6,0.0152361,11,-0.0003973,-2.54438,-0.119111,-0.495335,55.2557,0.139156,
2,0,0,1,0,7320.33,0.137933,0.137611,-2.94089,6,0.015018,11,-0.0004047,-2.53152,-0.13051,-0.452071,51.7412,0.137611,
2,0,0,1,0,7320.41,0.136435,0.136117,-3.02142,6,0.014794,11,-0.000411265,-2.51979,-0.153314,-0.38483,45.1425,0.136117,
2,0,0,1,0,7320.48,0.134936,0.134599,-3.0793,6,0.0145649,11,-0.000414471,-2.51155,-0.200114,-0.294831,35.2702,0.134599,
2,0,0,1,0,7320.56,0.133438,0.133153,-3.12845,6,0.0143318,11,-0.000416563,-2.50467,-0.245973,-0.239864,29.2315,0.133153,
2,0,0,1,0,7320.63,0.13194,0.131685,-3.16497,6,0.0140956,11,-0.000416779,-2.49963,-0.296082,-0.199269,24.595,0.131685,
2,0,0,1,0,7320.71,0.130442,0.130095,-3.202,6,0.0138564,11,-0.000416564,-2.49458,-0.381708,-0.154569,19.2501,0.130095,
2,0,0,1,0,7320.78,0.128942,0.128629,-3.22442,6,0.0136148,11,-0.000414753,-2.49155,-0.738759,-0.0798636,10.0038,0.1286286,
2,0,0,1,0,7320.86,0.127446,0.12711,-3.23423,6,0.0133726,11,-0.000411104,-2.49023,-2.21157,-0.0266779,3.35433,0.1271103,
2,0,0,1,0,7320.93,0.125947,0.125643,-3.22924,6,0.0131298,11,-0.000405732,-2.4909,3.463,0.0170372,-2.14528,0.125643,
2,0,0,1,0,7321.01,0.124449,0.124145,-3.22371,6,0.0128875,11,-0.000400206,-2.49164,1.53847,0.0383499,-4.81395,0.124145,
2,0,0,1,0,7321.08,0.122951,0.122643,-3.21196,6,0.0126458,11,-0.000393925,-2.49323,0.600135,0.0983112,-12.2924,0.122643,
2,0,0,1,0,7321.16,0.121453,0.121148,-3.18648,6,0.0124055,11,-0.000386035,-2.49669,0.361377,0.163265,-20.2448,0.121148,
2,0,0,1,0,7321.23,0.119955,0.119683,-3.14551,6,0.0121676,11,-0.000376465,-2.50231,0.309093,0.190881,-23.4624,0.119683,
2,0,0,1,0,7321.31,0.118456,0.118147,-3.11739,6,0.0119323,11,-0.000368312,-2.50621,0.297267,0.198475,-24.1086,0.118147,
2,0,0,1,0,7321.38,0.116958,0.116678,-3.08089,6,0.0116997,11,-0.000359472,-2.51132,0.240741,0.245076,-29.38,0.116678,
2,0,0,1,0,7321.46,0.11546,0.115137,-3.03113,6,0.0114704,11,-0.000348994,-2.5184,0.199782,0.295322,-34.842,0.115137,
2,0,0,1,0,7321.53,0.113962,0.113669,-2.9723,6,0.0112448,11,-0.000337857,-2.52691,0.197854,0.2982,-34.5984,0.113669,
2,0,0,1,0,7321.61,0.112462,0.112158,-2.92311,6,0.0110232,11,-0.000327851,-2.53415,0.181789,0.324552,-37.0028,0.112158,
2,0,0,1,0,7321.68,0.110967,0.110648,-2.86735,6,0.0108062,11,-0.000317266,-2.54252,0.179579,0.328546,-36.7301,0.110648,
2,0,0,1,0,7321.76,0.109467,0.109173,-2.80696,6,0.0105929,11,-0.000306446,-2.55176,0.156815,0.376239,-41.1441,0.109173,
2,0,0,1,0,7321.83,0.107969,0.107688,-2.74658,6,0.010384,11,-0.000295773,-2.56121,0.165028,0.357514,-38.3495,0.107688,
2,0,0,1,0,7321.91,0.106471,0.106151,-2.69103,6,0.01018,11,-0.000285656,-2.57008,0.169934,0.347194,-36.5584,0.106151,
2,0,0,1,0,7321.98,0.104973,0.104704,-2.63736,6,0.00998,11,-0.000276143,-2.57883,0.173656,0.339752,-34.9742,0.104704,
2,0,0,1,0,7322.06,0.103474,0.103168,-2.58743,6,0.0097836,11,-0.00026694,-2.58713,0.167987,0.351217,-35.4026,0.103168,
2,0,0,1,0,7322.13,0.101976,0.101658,-2.53385,6,0.00959129,11,-0.000257587,-2.59622,0.167161,0.352953,-34.9315,0.101658,
2,0,0,1,0,7322.21,0.100478,0.100129,-2.48302,6,0.0094031,11,-0.000248622,-2.60502,0.176594,0.3341,-32.4445,0.100129,
2,0,0,1,0,7322.28,0.0989799,0.0986793,-2.44271,6,0.00921823,11,-0.000241045,-2.61213,0.208281,0.283271,-26.9701,0.0986793,
2,0,0,1,0,7322.36,0.0974817,0.0971587,-2.39929,6,0.00903644,11,-0.000233112,-2.61992,0.214663,0.27485,-25.7462,0.0971587,
2,0,0,1,0,7322.43,0.0959821,0.095714,-2.36266,6,0.00885732,11,-0.00022614,-2.6266,0.218708,0.269766,-24.8703,0.095714,
2,0,0,1,0,7322.51,0.0944866,0.0941731,-2.32221,6,0.00868157,11,-0.00021869,-2.6341,0.248742,0.237193,-21.5823,0.0941731,
2,0,0,1,0,7322.58,0.0929871,0.0927053,-2.29069,6,0.00850796,11,-0.000212359,-2.64003,0.288575,0.204453,-18.3332,0.0927053,
2,0,0,1,0,7322.66,0.0914889,0.0912215,-2.26883,6,0.0083365,11,-0.000206966,-2.6442,0.303483,0.194409,-17.2052,0.0912215,
2,0,0,1,0,7322.73,0.0899907,0.0897141,-2.2428,6,0.00816688,11,-0.00020121,-2.64921,0.280461,0.210368,-18.3738,0.0897141,
2,0,0,1,0,7322.81,0.0884925,0.0882251,-2.21234,6,0.00799939,11,-0.000195184,-2.65515,0.305176,0.193331,-16.7406,0.0882251,
2,0,0,1,0,7322.88,0.0869943,0.0866716,-2.19319,6,0.00783396,11,-0.000190087,-2.65892,0.325538,0.181238,-15.5244,0.0866716,
2,0,0,1,0,7322.96,0.0854961,0.0851543,-2.17354,6,0.00766985,11,-0.000185087,-2.66283,0.37053,0.159231,-13.4972,0.0851543,
2,0,0,1,0,7323.03,0.083998,0.0837206,-2.15623,6,0.00750714,11,-0.00018052,-2.66631,0.343885,0.171569,-14.4062,0.0837206,
2,0,0,1,0,7323.11,0.0824998,0.0821988,-2.13751,6,0.00734589,11,-0.000175701,-2.67009,0.350359,0.168399,-14.0412,0.0821988,
2,0,0,1,0,7323.18,0.081002,0.0807246,-2.11536,6,0.00718634,11,-0.000170762,-2.67462,0.406017,0.145314,-12.0158,0.0807246,
2,0,0,1,0,7323.26,0.0795025,0.0791928,-2.09875,6,0.00702777,11,-0.000166206,-2.67804,0.462292,0.127625,-10.4418,0.0791928,
2,0,0,1,0,7323.33,0.078007,0.0777146,-2.08085,6,0.00687076,11,-0.000161713,-2.68176,0.408601,0.144395,-11.7141,0.0777146,
2,0,0,1,0,7323.41,0.076507,0.0762096,-2.06509,6,0.00671471,11,-0.00015738,-2.68506,0.3646,0.161821,-13.024,0.07620962,
2,0,0,1,0,7323.48,0.0750088,0.0747278,-2.04252,6,0.00656055,11,-0.000152633,-2.68983,0.371043,0.159011,-12.6897,0.0747278,
2,0,0,1,0,7323.56,0.0735106,0.073215,-2.02402,6,0.00640766,11,-0.000148189,-2.69379,0.44067,0.133887,-10.563,0.073215,
2,0,0,1,0,7323.63,0.0720124,0.0717184,-2.00594,6,0.006256,11,-0.000143863,-2.69768,0.382258,0.154346,-12.0901,0.0717184,
2,0,0,1,0,7323.71,0.0705142,0.07019,-1.98834,6,0.00610574,11,-0.000139562,-2.70151,0.331371,0.178048,-13.8163,0.07019,
2,0,0,1,0,7323.78,0.0690161,0.0687147,-1.96265,6,0.00595712,11,-0.000134863,-2.70716,0.329545,0.179035,-13.7601,0.0687147,
2,0,0,1,0,7323.85,0.0675179,0.0672171,-1.94847,6,0.00581009,11,-0.00013097,-2.71031,0.367346,0.160612,-12.1983,0.0672171,
2,0,0,1,0,7323.93,0.0660179,0.0656981,-1.93516,6,0.00566406,11,-0.000127136,-2.71328,0.326668,0.180611,-13.558,0.0656981,
2,0,0,1,0,7324,0.0645224,0.0642046,-1.90669,6,0.00551998,11,-0.000122419,-2.71972,0.273006,0.216112,-16.039,0.0642046,
2,0,0,1,0,7324.08,0.0630229,0.0627209,-1.87922,6,0.00537739,11,-0.000117866,-2.72602,0.273798,0.215487,-15.8175,0.06272094,
2,0,0,1,0,7324.15,0.0615251,0.061192,-1.85396,6,0.00523705,11,-0.000113448,-2.7319,0.269505,0.21892,-15.878,0.061192,
2,0,0,1,0,7324.23,0.0600269,0.0597379,-1.83144,6,0.00509822,11,-0.000109406,-2.73721,0.287978,0.204877,-14.6566,0.0597379,
2,0,0,1,0,7324.3,0.0585287,0.0581987,-1.8074,6,0.00496119,11,-0.000105188,-2.74295,0.225503,0.261637,-18.4477,0.0581987,
2,0,0,1,0,7324.38,0.0570305,0.0566829,-1.78481,6,0.00482605,11,-0.000101168,-2.74841,0.231193,0.255198,-17.7601,0.0566829,
2,0,0,1,0,7324.45,0.0555323,0.0552422,-1.75464,6,0.00469312,11,-9.69304e-05,-2.75581,0.249072,0.23688,-16.2556,0.0552422,
2,0,0,1,0,7324.53,0.0540342,0.0537516,-1.73732,6,0.00456183,11,-9.33837e-05,-2.76012,0.254149,0.232147,-15.6855,0.0537516,
2,0,0,1,0,7324.6,0.052536,0.0521831,-1.71294,6,0.00443219,11,-8.93866e-05,-2.76626,0.235203,0.250847,-16.7187,0.0521831,
2,0,0,1,0,7324.68,0.0510378,0.0507279,-1.68661,6,0.00430448,11,-8.5558e-05,-2.77299,0.230024,0.256495,-16.8721,0.0507279,
2,0,0,1,0,7324.75,0.0495382,0.0492292,-1.6562,6,0.00417869,11,-8.15335e-05,-2.78089,0.240213,0.245616,-15.9301,0.04922919,
2,0,0,1,0,7324.83,0.0480427,0.0477686,-1.63657,6,0.00405486,11,-7.81767e-05,-2.78607,0.315615,0.186937,-11.9374,0.0477686,
2,0,0,1,0,7324.9,0.0465432,0.0462414,-1.61389,6,0.00393226,11,-7.46284e-05,-2.79213,0.289546,0.203767,-12.8625,0.0462414,
2,0,0,1,0,7324.98,0.045045,0.0447523,-1.59582,6,0.00381137,11,-7.14166e-05,-2.79702,0.259285,0.227548,-14.179,0.0447523,
2,0,0,1,0,7325.05,0.0435468,0.0432609,-1.56929,6,0.00369204,11,-6.78888e-05,-2.8043,0.278128,0.212132,-13.0374,0.0432609,
2,0,0,1,0,7325.13,0.0420486,0.0416986,-1.56044,6,0.00357417,11,-6.50684e-05,-2.80675,0.316404,0.18647,-11.343,0.0416986,
2,0,0,1,0,7325.2,0.0405504,0.0402715,-1.54449,6,0.0034575,11,-6.21988e-05,-2.81122,0.332133,0.17764,-10.6927,0.0402715,
2,0,0,1,0,7325.28,0.0390523,0.038708,-1.52547,6,0.00334195,11,-5.90478e-05,-2.8166,0.302493,0.195046,-11.6112,0.038708,
2,0,0,1,0,7325.35,0.0375541,0.0371744,-1.50871,6,0.00322765,11,-5.60855e-05,-2.82139,0.344241,0.171392,-10.1217,0.0371744,
2,0,0,1,0,7325.43,0.0360559,0.0357683,-1.4996,6,0.00311451,11,-5.36382e-05,-2.82402,0.428943,0.137547,-8.0563,0.0357683,
2,0,0,1,0,7325.5,0.0345577,0.034267,-1.48538,6,0.00300216,11,-5.08995e-05,-2.82816,0.491823,0.119962,-6.9627,0.034267,
2,0,0,1,0,7325.58,0.0330582,0.0327408,-1.47604,6,0.00289047,11,-4.83267e-05,-2.8309,0.43091,0.13692,-7.87739,0.0327408,
2,0,0,1,0,7325.65,0.0315626,0.0312359,-1.46625,6,0.0027798,11,-4.57996e-05,-2.83379,0.568051,0.103864,-5.94599,0.0312359,
2,0,0,1,0,7325.73,0.0300631,0.0297085,-1.45501,6,0.00266981,11,-4.32261e-05,-2.83713,0.648353,0.0909999,-5.1787,0.0297085,
2,0,0,1,0,7325.8,0.0285649,0.0282693,-1.45287,6,0.00256034,11,-4.10717e-05,-2.83777,1.28377,0.0459585,-2.60181,0.0282693,
2,0,0,1,0,7325.88,0.0270667,0.0267704,-1.44691,6,0.00245125,11,-3.87344e-05,-2.83956,1.06413,0.0554445,-3.12779,0.0267704,
2,0,0,1,0,7325.95,0.0255685,0.0253004,-1.43946,6,0.0023425,11,-3.64189e-05,-2.8418,0.820522,0.0719055,-4.04155,0.0253004,
2,0,0,1,0,7326.03,0.0240704,0.0237904,-1.43011,6,0.00223439,11,-3.40229e-05,-2.84463,1.01161,0.0583229,-3.27137,0.0237904,
2,0,0,1,0,7326.1,0.0225722,0.0222881,-1.43239,6,0.00212648,11,-3.19252e-05,-2.84394,7.66155,0.00770079,-0.430508,0.02228808,
2,0,0,1,0,7326.18,0.021074,0.0207705,-1.43131,6,0.00201875,11,-2.9729e-05,-2.84427,2.04665,0.0288276,-1.61156,0.0207705,
2,0,0,1,0,7326.25,0.0195758,0.0192416,-1.42814,6,0.00191111,11,-2.74797e-05,-2.84523,3.66115,0.0161152,-0.897508,0.0192416,
2,0,0,1,0,7326.33,0.018078,0.0177713,-1.42349,6,0.0018036,11,-2.52972e-05,-2.84665,15.0288,0.00392581,-0.218377,0.0177713,
2,0,0,1,0,7326.4,0.0165785,0.0162614,-1.42772,6,0.00169611,11,-2.32167e-05,-2.84536,-3.21464,-0.0183535,1.02394,0.0162614,
2,0,0,1,0,7326.48,0.015083,0.0147872,-1.43142,6,0.00158876,11,-2.11667e-05,-2.84423,-2.39682,-0.024616,1.37263,0.0147872,
2,0,0,1,0,7326.55,0.013583,0.0132637,-1.42944,6,0.00148083,11,-1.89598e-05,-2.84483,-27.874,-0.00211667,0.117834,0.0132637,
2,0,0,1,0,7326.63,0.0120848,0.0117727,-1.43028,6,0.00137302,11,-1.68384e-05,-2.84458,-8.07585,-0.00730573,0.408344,0.0117727,
2,0,0,1,0,7326.7,0.0105866,0.0102766,-1.43068,6,0.0012654,11,-1.47025e-05,-2.84446,-1.63539,-0.036077,2.02132,0.0102766,
2,0,0,1,0,7326.78,0.00908846,0.00880188,-1.43685,6,0.00115739,11,-1.2647e-05,-2.84259,-1.33968,-0.0440402,2.46693,0.00880188,
2,0,0,1,0,7326.85,0.00759027,0.00728302,-1.44026,6,0.00104898,11,-1.04895e-05,-2.84156,-1.71547,-0.0343929,1.92986,0.00728302,
2,0,0,1,0,7326.93,0.00609208,0.00577544,-1.44492,6,0.000940337,11,-8.34502e-06,-2.84016,-1.66651,-0.0354034,1.99371,0.00577544,
2,0,0,1,0,7327,0.00459389,0.00430514,-1.4496,6,0.000831683,11,-6.24072e-06,-2.83875,-1.33163,-0.0443066,2.50531,0.00430514,
2,0,0,1,0,7327.08,0.00309391,0.00283295,-1.45458,6,0.000722331,11,-4.12076e-06,-2.83726,-0.428673,-0.137634,7.82144,0.00283295,
2,0,0,1,0,7327.15,0.0015984,0.00122867,-1.48356,6,0.000611298,11,-1.82281e-06,-2.8287, , , ,0.00122867,
2,0,0,1,0,7327.22,0.000199195,-0.000179706,-1.46368,6,0.000507655,11,2.63032e-07,-2.83455, , , ,-0.000179706,