File: Figure_codes/Fig_3-5/rawdata_trumpetplot_data/before 10th/20221101_1-115_002_TrumpetPlot_ParaChange_15_CV_C01_4.csv
mode,ox/red,error,control changes,counter inc.,time/s,control/V,Ewe/V,<I>/mA,cycle number,(Q-Qo)/C,I Range,P/W,log(|I|),Tafel slope mV/dec,alpha_eff,dI/d(E-IR),E-IR/V,
2,1,0,0,0,6144.24,2.44065e-05,-0.000726157,34.0123,5,0.0000000E+000,10,-2.46983e-05,-1.46836, , , ,-0.000726157,
2,1,0,1,0,6144.24,0.00250197,0.00213482,32.4955,5,0.000102407,10,6.93721e-05,-1.48818, , , ,0.00213482,
2,1,0,1,0,6144.25,0.00570921,0.00536906,32.5231,5,0.000232239,10,0.000174618,-1.48781, , , ,0.00536906,
2,1,0,1,0,6144.25,0.00890534,0.00856088,32.9949,5,0.000363261,10,0.000282465,-1.48155,0.590823,0.0998607,129.866,0.00856088,
2,1,0,1,0,6144.26,0.0121015,0.0117612,33.5658,5,0.000496426,10,0.000394773,-1.4741,0.454709,0.129753,170.152,0.0117612,
2,1,0,1,0,6144.26,0.0153059,0.0149763,34.1632,5,0.000631951,10,0.00051164,-1.46644,0.451453,0.130689,173.888,0.0149763,
2,1,0,1,0,6144.26,0.0185021,0.0181809,34.703,5,0.000769759,10,0.000630932,-1.45963,0.487138,0.121116,163.555,0.01818089,
2,1,0,1,0,6144.27,0.0217065,0.0213314,35.2155,5,0.000909647,10,0.000751194,-1.45327,0.538378,0.109588,150.185,0.0213314,
2,1,0,1,0,6144.27,0.0249027,0.0245603,35.6591,5,0.00105148,10,0.000875799,-1.44783,0.589225,0.100132,139.059,0.0245603,
2,1,0,1,0,6144.28,0.0280988,0.0277733,36.0851,5,0.00119502,10,0.0010022,-1.44267,0.664979,0.0887246,124.692,0.0277733,
2,1,0,1,0,6144.28,0.0313061,0.0309683,36.4812,5,0.00134024,10,0.00112976,-1.43793,0.725311,0.0813444,115.541,0.0309683,
2,1,0,1,0,6144.28,0.0345022,0.0341792,36.8175,5,0.00148688,10,0.00125839,-1.43395,0.801753,0.0735888,105.56,0.03417924,
2,1,0,1,0,6144.29,0.0377094,0.0373923,37.1418,5,0.00163483,10,0.00138881,-1.43014,0.892076,0.0661379,95.736,0.0373923,
2,1,0,1,0,6144.29,0.0409056,0.0405586,37.4348,5,0.00178401,10,0.0015183,-1.42673,0.935242,0.0630853,92.0878,0.0405586,
2,1,0,1,0,6144.3,0.0441017,0.0437643,37.7063,5,0.00193433,10,0.00165019,-1.42359,0.995567,0.0592627,87.1895,0.0437643,
2,1,0,1,0,6144.3,0.0473089,0.0469699,37.9954,5,0.00208577,10,0.00178464,-1.42027,1.01805,0.0579541,85.9061,0.0469699,
2,1,0,1,0,6144.3,0.0505051,0.0502158,38.2598,5,0.00223833,10,0.00192125,-1.41726,1.00778,0.0585445,87.4242,0.05021577,
2,1,0,1,0,6144.31,0.0537012,0.0533578,38.5343,5,0.00239192,10,0.0020561,-1.41415,0.98866,0.0596767,89.8202,0.05335775,
2,1,0,1,0,6144.31,0.0569057,0.0565687,38.8257,5,0.0025467,10,0.00219632,-1.41088,0.927121,0.0636379,96.5406,0.0565687,
2,1,0,1,0,6144.32,0.0601018,0.0597403,39.1424,5,0.00270265,10,0.00233838,-1.40735,0.880908,0.0669764,102.432,0.0597403,
2,1,0,1,0,6144.32,0.0633063,0.0629534,39.4895,5,0.00285995,10,0.002486,-1.40352,0.828378,0.0712235,109.86,0.0629534,
2,1,0,1,0,6144.32,0.0665024,0.0661866,39.8483,5,0.00301864,10,0.00263743,-1.39959,0.770885,0.0765354,119.191,0.0661866,
2,1,0,1,0,6144.33,0.0696986,0.0693412,40.2289,5,0.00317883,10,0.00278952,-1.39546,0.717866,0.082188,129.285,0.06934125,
2,1,0,1,0,6144.33,0.0729058,0.0726031,40.6755,5,0.0033407,10,0.00295317,-1.39067,0.655031,0.0900721,143.265,0.0726031,
2,1,0,1,0,6144.34,0.0761019,0.0756793,41.1348,5,0.00350438,10,0.00311305,-1.38579,0.609514,0.0967985,155.714,0.07567931,
2,1,0,1,0,6144.34,0.0793092,0.0789454,41.6762,5,0.00367002,10,0.00329015,-1.38011,0.568645,0.103755,169.029,0.0789454,
2,1,0,1,0,6144.34,0.0825053,0.0821595,42.2248,5,0.00383788,10,0.00346917,-1.37443,0.528696,0.111595,184.265,0.0821595,
2,1,0,1,0,6144.35,0.0857014,0.085346,42.8295,5,0.00400802,10,0.00365532,-1.36826,0.500963,0.117773,197.325,0.085346,
2,1,0,1,0,6144.35,0.0889087,0.0885452,43.5055,5,0.00418078,10,0.00385221,-1.36146,0.470839,0.125308,213.081,0.0885452,
2,1,0,1,0,6144.36,0.0921048,0.0917911,44.211,5,0.00435626,10,0.00405818,-1.35447,0.452284,0.130449,225.289,0.0917911,
2,1,0,1,0,6144.36,0.0953065,0.094931,44.9462,5,0.00453464,10,0.00426679,-1.34731,0.445316,0.13249,232.547,0.094931,
2,1,0,1,0,6144.36,0.0985054,0.0981143,45.706,5,0.00471602,10,0.00448442,-1.34003,0.436898,0.135043,240.977,0.0981143,
2,1,0,1,0,6144.37,0.101702,0.101317,46.4755,5,0.00490047,10,0.00470875,-1.33278,0.421493,0.139979,254.303,0.101317,
2,1,0,1,0,6144.37,0.104906,0.104486,47.2703,5,0.00508802,10,0.0049391,-1.32541,0.408339,0.144488,267.306,0.1044863,
2,1,0,1,0,6144.38,0.108102,0.107698,48.193,5,0.00527905,10,0.0051903,-1.31702,0.392634,0.150267,283.072,0.107698,
2,1,0,1,0,6144.38,0.111304,0.110973,49.1432,5,0.00547381,10,0.00545356,-1.30854,0.385127,0.153196,293.797,0.110973,
2,1,0,1,0,6144.38,0.114506,0.114151,50.1085,5,0.00567243,10,0.00571993,-1.30009,0.385091,0.153211,299.532,0.114151,
2,1,0,1,0,6144.39,0.117702,0.11738,51.0583,5,0.00587486,10,0.00599322,-1.29193,0.386476,0.152662,304.249,0.1173798,
2,1,0,1,0,6144.39,0.120909,0.12056,52.0455,5,0.00608117,10,0.0062746,-1.28362,0.390194,0.151207,307.171,0.12056,
2,1,0,1,0,6144.4,0.124105,0.123778,53.0392,5,0.00629142,10,0.00656511,-1.2754,0.385428,0.153076,316.949,0.123778,
2,1,0,1,0,6144.4,0.127301,0.126972,54.0468,5,0.00650571,10,0.00686245,-1.26723,0.388313,0.151939,320.641,0.126972,
2,1,0,1,0,6144.4,0.130508,0.130134,55.1009,5,0.0067241,10,0.00717052,-1.25884,0.385373,0.153098,329.317,0.130134,
2,1,0,1,0,6144.41,0.133705,0.133373,56.1538,5,0.0069467,10,0.00748939,-1.25062,0.382733,0.154154,337.996,0.133373,
2,1,0,1,0,6144.41,0.136906,0.136555,57.2469,5,0.00717359,10,0.00781735,-1.24225,0.382525,0.154238,344.833,0.136555,
2,1,0,1,0,6144.42,0.140105,0.139767,58.3715,5,0.00740495,10,0.00815841,-1.2338,0.375568,0.157095,358.117,0.1397671,
2,1,0,1,0,6144.42,0.143301,0.142977,59.5294,5,0.00764083,10,0.00851134,-1.22527,0.371754,0.158707,368.984,0.142977,
2,1,0,1,0,6144.42,0.146506,0.146148,60.7286,5,0.00788146,10,0.00887534,-1.21661,0.366633,0.160924,381.706,0.146148,
2,1,0,1,0,6144.43,0.149702,0.149331,61.9609,5,0.00812696,10,0.00925268,-1.20788,0.360455,0.163682,396.221,0.1493309,
2,1,0,1,0,6144.43,0.152904,0.152546,63.2493,5,0.0083775,10,0.00964843,-1.19894,0.357728,0.16493,407.427,0.152546,
2,1,0,1,0,6144.44,0.156105,0.155752,64.591,5,0.00863331,10,0.0100602,-1.18983,0.353485,0.16691,420.971,0.155752,
2,1,0,1,0,6144.44,0.159301,0.158934,65.9382,5,0.00889451,10,0.0104798,-1.18086,0.351885,0.167669,431.719,0.158934,
2,1,0,1,0,6144.44,0.162509,0.162171,67.3664,5,0.00916125,10,0.0109249,-1.17156,0.352433,0.167408,440.18,0.162171,
2,1,0,1,0,6144.45,0.165705,0.165357,68.7799,5,0.00943368,10,0.0113732,-1.16254,0.350863,0.168157,451.431,0.165357,
2,1,0,1,0,6144.45,0.168901,0.168574,70.2352,5,0.00971185,10,0.0118398,-1.15344,0.354867,0.16626,455.753,0.168574,
2,1,0,1,0,6144.46,0.172108,0.171739,71.7189,5,0.00999594,10,0.012317,-1.14437,0.35988,0.163943,458.582,0.1717394,
2,1,0,1,0,6144.46,0.175304,0.174955,73.1924,5,0.0102859,10,0.0128053,-1.13553,0.36742,0.160579,458.268,0.174955,
2,1,0,1,0,6144.46,0.178506,0.178152,74.6474,5,0.0105817,10,0.0132986,-1.12699,0.381181,0.154782,450.434,0.178152,
2,1,0,1,0,6144.47,0.181705,0.181357,76.0934,5,0.0108833,10,0.0138001,-1.11865,0.392599,0.150281,445.736,0.181357,
2,1,0,1,0,6144.47,0.184901,0.184551,77.4898,5,0.0111907,10,0.0143008,-1.11076,0.413274,0.142763,431.048,0.184551,
2,1,0,1,0,6144.48,0.188105,0.187709,78.8775,5,0.0115036,10,0.014806,-1.10305,0.439804,0.134151,412.004,0.187709,
2,1,0,1,0,6144.48,0.191302,0.190915,80.1489,5,0.0118218,10,0.0153016,-1.0961,0.475752,0.124014,386.901,0.190915,
2,1,0,1,0,6144.48,0.194503,0.194127,81.3544,5,0.0121449,10,0.0157931,-1.08962,0.531161,0.111077,351.626,0.194127,
2,1,0,1,0,6144.49,0.197705,0.197349,82.4414,5,0.0124727,10,0.0162698,-1.08385,0.605255,0.0974796,312.473,0.1973493,
2,1,0,1,0,6144.49,0.200901,0.200544,83.3907,5,0.0128045,10,0.0167235,-1.07888,0.733257,0.0804629,260.686,0.2005443,
2,1,0,1,0,6144.5,0.204108,0.203739,84.1562,5,0.0131398,10,0.0171459,-1.07491,0.985466,0.0598702,195.552,0.2037393,
2,1,0,1,0,6144.5,0.207305,0.206956,84.6987,5,0.0134776,10,0.0175289,-1.07212,1.63702,0.036041,118.361,0.206956,
2,1,0,1,0,6144.5,0.210501,0.210213,84.957,5,0.013817,10,0.0178591,-1.0708,7.4945,0.00787244,25.9072,0.210213,
2,1,0,1,0,6144.51,0.213708,0.213395,84.9118,5,0.0141568,10,0.0181198,-1.07103,-2.49784,-0.0236204,-77.6188,0.213395,
2,1,0,1,0,6144.51,0.216904,0.216635,84.4903,5,0.0144957,10,0.0183036,-1.07319,-0.992009,-0.0594753,-194.297,0.2166349,
2,1,0,1,0,6144.52,0.220106,0.219761,83.7048,5,0.0148321,10,0.018395,-1.07725,-0.594363,-0.0992659,-320.911,0.219761,
2,1,0,1,0,6144.52,0.223305,0.223008,82.471,5,0.0151645,10,0.0183917,-1.0837,-0.417889,-0.141186,-449.443,0.223008,
2,1,0,1,0,6144.52,0.226501,0.226224,80.7949,5,0.015491,10,0.0182778,-1.09262,-0.3173,-0.185944,-579.864,0.226224,
2,1,0,1,0,6144.53,0.229705,0.229487,78.714,5,0.0158099,10,0.0180638,-1.10395,-0.253959,-0.232321,-705.859,0.229487,
2,1,0,1,0,6144.53,0.232901,0.232661,76.2246,5,0.0161196,10,0.0177345,-1.1179,-0.212789,-0.27727,-816.203,0.232661,
2,1,0,1,0,6144.54,0.236103,0.235848,73.4074,5,0.0164187,10,0.017313,-1.13426,-0.18208,-0.324034,-919.23,0.235848,
2,1,0,1,0,6144.54,0.239305,0.239077,70.3041,5,0.0167059,10,0.0168081,-1.15302,-0.162385,-0.363335,-988.35,0.239077,
2,1,0,1,0,6144.54,0.242501,0.242252,66.9799,5,0.0169802,10,0.016226,-1.17406,-0.147456,-0.400119,-1038.9,0.242252,
2,1,0,1,0,6144.55,0.245708,0.245474,63.561,5,0.017241,10,0.0156025,-1.19681,-0.137404,-0.42939,-1060.29,0.245474,
2,1,0,1,0,6144.55,0.248904,0.24866,60.0972,5,0.017488,10,0.0149438,-1.22115,-0.131114,-0.449989,-1053.33,0.24866,
2,1,0,1,0,6144.56,0.2521,0.251885,56.7243,5,0.0177212,10,0.014288,-1.24623,-0.127209,-0.463802,-1026.85,0.251885,
2,1,0,1,0,6144.56,0.255308,0.255065,53.4837,5,0.0179413,10,0.0136418,-1.27178,-0.125934,-0.4685,-979.983,0.255065,
2,1,0,1,0,6144.56,0.258504,0.258285,50.4062,5,0.0181487,10,0.0130192,-1.29752,-0.126899,-0.464937,-918.757,0.258285,
2,1,0,1,0,6144.57,0.261708,0.261429,47.5844,5,0.0183443,10,0.0124399,-1.32254,-0.130752,-0.451236,-843.484,0.261429,
2,1,0,1,0,6144.57,0.264904,0.26465,44.9962,5,0.0185292,10,0.0119083,-1.34682,-0.138243,-0.426784,-755.958,0.26465,
2,1,0,1,0,6144.58,0.268101,0.267833,42.7138,5,0.0187043,10,0.0114402,-1.36943,-0.146777,-0.401971,-676.238,0.267833,
2,1,0,1,0,6144.58,0.271305,0.271109,40.7114,5,0.0188709,10,0.0110372,-1.39028,-0.159175,-0.370661,-594.129,0.271109,
2,1,0,1,0,6144.58,0.274501,0.274244,38.9184,5,0.0190299,10,0.0106731,-1.40984,-0.173158,-0.340729,-522.331,0.274244,
2,1,0,1,0,6144.59,0.277708,0.277466,37.3818,5,0.0191823,10,0.0103722,-1.42734,-0.189799,-0.310854,-457.778,0.277466,
2,1,0,1,0,6144.59,0.280905,0.280619,36.0356,5,0.019329,10,0.0101123,-1.44327,-0.21446,-0.27511,-390.457,0.280619,
2,1,0,1,0,6144.6,0.284101,0.283791,34.9057,5,0.0194707,10,0.00990593,-1.4571,-0.240032,-0.245801,-337.464,0.283791,
2,1,0,1,0,6144.6,0.287308,0.287023,33.9288,5,0.0196082,10,0.00973833,-1.46943,-0.270349,-0.218236,-290.761,0.287023,
2,1,0,1,0,6144.6,0.290504,0.290261,33.064,5,0.0197421,10,0.0095972,-1.48064,-0.306802,-0.192307,-249.738,0.290261,
2,1,0,1,0,6144.61,0.2937,0.293435,32.3092,5,0.0198728,10,0.00948065,-1.49067,-0.340183,-0.173436,-220.395,0.293435,
2,1,0,1,0,6144.61,0.296907,0.296639,31.6971,5,0.0200007,10,0.0094026,-1.49898,-0.365029,-0.161631,-202.437,0.296639,
2,1,0,1,0,6144.62,0.29955,0.299264,31.2307,5,0.0201045,10,0.00934625,-1.50542,-0.0874239,-0.674872,-792.338,0.299264,
2,1,0,1,0,6144.62,0.300012,0.299766,31.14,5,0.0201232,10,0.00933469,-1.50668,0.00426273,13.8409,13388.9,0.299766,
2,1,0,1,0,6144.62,0.298983,0.298921,27.962,5,0.0201604,10,0.00835844,-1.55343,0.0164133,3.59464,2822.52,0.298921,
2,1,0,1,0,6144.62,0.295787,0.295688,18.962,5,0.0202527,10,0.00560683,-1.72212,0.0155486,3.79455,2334.63,0.295688,
2,1,0,1,0,6144.63,0.292579,0.292458,12.02,5,0.0203135,10,0.00351534,-1.9201,0.0116776,5.05239,1993.56,0.292458,
2,1,0,1,0,6144.63,0.289383,0.289229,6.54156,5,0.0203497,10,0.00189201,-2.18432,0.0111876,5.2737,1574.64,0.289229,
2,1,0,1,0,6144.63,0.286187,0.285991,2.1841,5,0.0203665,10,0.000624633,-2.66073,0.0280714,2.10178,1253.91,0.285991,
2,0,0,1,0,6144.64,0.282983,0.282798,-1.33563,5,0.0203676,10,-0.000377713,-2.87431,6.15929,0.00957903,1008.86,0.2827979,
2,0,0,1,0,6144.64,0.279786,0.279548,-4.16858,5,0.0203561,10,-0.00116532,-2.38001,-0.0219897,-2.68307,822.893,0.279548,
2,0,0,1,0,6144.65,0.276582,0.276292,-6.50999,5,0.0203344,10,-0.00179866,-2.18642,-0.0147356,-4.0039,673.271,0.276292,
2,0,0,1,0,6144.65,0.273386,0.273097,-8.42586,5,0.0203043,10,-0.00230108,-2.07439,-0.0294079,-2.00626,561.319,0.273097,
2,0,0,1,0,6144.65,0.27019,0.269903,-10.0171,5,0.0202671,10,-0.00270366,-1.99926,-0.0451611,-1.30643,467.525,0.269903,
2,0,0,1,0,6144.66,0.266982,0.266757,-11.3482,5,0.0202242,10,-0.00302722,-1.94507,-0.0628815,-0.938273,393.361,0.266757,
2,0,0,1,0,6144.66,0.263786,0.263543,-12.4706,5,0.0201764,10,-0.00328654,-1.90411,-0.0826263,-0.714058,335.428,0.263543,
2,0,0,1,0,6144.67,0.260585,0.260328,-13.4489,5,0.0201244,10,-0.00350111,-1.87131,-0.104641,-0.563834,288.419,0.260328,
2,0,0,1,0,6144.67,0.257383,0.257103,-14.3107,5,0.0200688,10,-0.00367932,-1.84434,-0.128463,-0.459278,251.353,0.2571032,
2,0,0,1,0,6144.67,0.254187,0.25396,-15.0391,5,0.0200099,10,-0.00381934,-1.82278,-0.154328,-0.382303,221.104,0.25396,
2,0,0,1,0,6144.68,0.25098,0.250697,-15.6994,5,0.0199484,10,-0.0039358,-1.80412,-0.182711,-0.322915,195.665,0.250697,
2,0,0,1,0,6144.68,0.247783,0.247525,-16.2797,5,0.0198844,10,-0.00402963,-1.78835,-0.210658,-0.280075,176.532,0.247525,
2,0,0,1,0,6144.69,0.244587,0.244338,-16.8084,5,0.0198181,10,-0.00410692,-1.77447,-0.237327,-0.248602,162.142,0.244338,
2,0,0,1,0,6144.69,0.241383,0.241067,-17.3152,5,0.0197498,10,-0.00417412,-1.76157,-0.265827,-0.221949,149.139,0.241067,
2,0,0,1,0,6144.69,0.238187,0.237945,-17.7671,5,0.0196796,10,-0.00422759,-1.75038,-0.291573,-0.202351,139.695,0.237945,
2,0,0,1,0,6144.7,0.234982,0.234708,-18.1911,5,0.0196076,10,-0.00426961,-1.74014,-0.317864,-0.185614,131.424,0.234708,
2,0,0,1,0,6144.7,0.231786,0.231508,-18.6006,5,0.019534,10,-0.0043062,-1.73047,-0.337615,-0.174755,126.646,0.231508,
2,0,0,1,0,6144.71,0.22859,0.228278,-18.9959,5,0.0194587,10,-0.00433636,-1.72134,-0.35685,-0.165336,122.359,0.228278,
2,0,0,1,0,6144.71,0.225383,0.225088,-19.3953,5,0.0193819,10,-0.00436566,-1.7123,-0.369185,-0.159812,120.777,0.225088,
2,0,0,1,0,6144.71,0.222187,0.221916,-19.7564,5,0.0193035,10,-0.00438426,-1.70429,-0.387843,-0.152123,117.169,0.221916,
2,0,0,1,0,6144.72,0.218979,0.218684,-20.1496,5,0.0192237,10,-0.00440638,-1.69573,-0.399972,-0.14751,115.856,0.2186836,
2,0,0,1,0,6144.72,0.215783,0.215488,-20.4946,5,0.0191423,10,-0.00441633,-1.68836,-0.403387,-0.146262,117.003,0.215488,
2,0,0,1,0,6144.73,0.212587,0.212339,-20.8724,5,0.0190596,10,-0.00443203,-1.68043,-0.406498,-0.145142,118.353,0.212339,
2,0,0,1,0,6144.73,0.20938,0.209091,-21.2569,5,0.0189753,10,-0.00444464,-1.6725,-0.404495,-0.145861,121,0.209091,
2,0,0,1,0,6144.73,0.206184,0.205951,-21.6565,5,0.0188894,10,-0.00446018,-1.66441,-0.406269,-0.145224,122.7,0.2059513,
2,0,0,1,0,6144.74,0.202988,0.202747,-22.0362,5,0.018802,10,-0.00446778,-1.65686,-0.400079,-0.147471,126.953,0.202747,
2,0,0,1,0,6144.74,0.199783,0.199522,-22.4451,5,0.018713,10,-0.00447829,-1.64888,-0.396435,-0.148826,130.619,0.199522,
2,0,0,1,0,6144.75,0.196587,0.196308,-22.8798,5,0.0186223,10,-0.00449149,-1.64055,-0.381269,-0.154746,138.369,0.196308,
2,0,0,1,0,6144.75,0.193382,0.193049,-23.3417,5,0.0185299,10,-0.0045061,-1.63187,-0.370907,-0.15907,145.029,0.193049,
2,0,0,1,0,6144.75,0.190186,0.189929,-23.8099,5,0.0184355,10,-0.00452218,-1.62324,-0.356917,-0.165304,153.847,0.189929,
2,0,0,1,0,6144.76,0.18699,0.186712,-24.3028,5,0.0183392,10,-0.00453764,-1.61434,-0.341852,-0.17259,164.161,0.186712,
2,0,0,1,0,6144.76,0.183783,0.183554,-24.8419,5,0.0182409,10,-0.00455984,-1.60482,-0.32466,-0.181729,176.778,0.183554,
2,0,0,1,0,6144.77,0.180587,0.180314,-25.4324,5,0.0181403,10,-0.00458581,-1.59461,-0.307344,-0.191968,191.107,0.180314,
2,0,0,1,0,6144.77,0.17738,0.177115,-26.0751,5,0.0180372,10,-0.00461828,-1.58377,-0.295146,-0.199901,203.87,0.177115,
2,0,0,1,0,6144.77,0.174183,0.173889,-26.7535,5,0.0179315,10,-0.00465214,-1.57262,-0.276192,-0.213619,223.741,0.173889,
2,0,0,1,0,6144.78,0.170987,0.170682,-27.4662,5,0.017823,10,-0.00468798,-1.5612,-0.263634,-0.223795,240.958,0.170682,
2,0,0,1,0,6144.78,0.16778,0.167526,-28.2935,5,0.0177114,10,-0.0047399,-1.54831,-0.247045,-0.238823,264.789,0.167526,
2,0,0,1,0,6144.79,0.164584,0.164316,-29.1592,5,0.0175964,10,-0.0047913,-1.53522,-0.233546,-0.252627,288.628,0.164316,
2,0,0,1,0,6144.79,0.161382,0.16113,-30.1319,5,0.0174778,10,-0.00485515,-1.52097,-0.223919,-0.263489,311.01,0.16113,
2,0,0,1,0,6144.79,0.158183,0.15788,-31.1612,5,0.0173551,10,-0.00491973,-1.50639,-0.212162,-0.278089,339.471,0.1578799,
2,0,0,1,0,6144.8,0.154987,0.154697,-32.2837,5,0.0172282,10,-0.00499417,-1.49102,-0.203515,-0.289905,366.864,0.154697,
2,0,0,1,0,6144.8,0.151783,0.15153,-33.4994,5,0.0170965,10,-0.00507617,-1.47496,-0.194397,-0.303502,398.498,0.15153,
2,0,0,1,0,6144.81,0.148587,0.148317,-34.8325,5,0.0169597,10,-0.00516626,-1.45802,-0.186347,-0.316614,432.071,0.148317,
2,0,0,1,0,6144.81,0.145385,0.1451,-36.2541,5,0.0168174,10,-0.00526046,-1.44064,-0.181749,-0.324624,460.654,0.1451,
2,0,0,1,0,6144.81,0.142183,0.14194,-37.7955,5,0.0166692,10,-0.00536468,-1.42256,-0.177183,-0.332989,492.471,0.14194,
2,0,0,1,0,6144.82,0.138987,0.138764,-39.3802,5,0.0165146,10,-0.00546456,-1.40472,-0.172579,-0.341871,527.352,0.138764,
2,0,0,1,0,6144.82,0.13578,0.135523,-41.1331,5,0.0163535,10,-0.00557449,-1.38581,-0.171274,-0.344476,554.467,0.135523,
2,0,0,1,0,6144.83,0.132584,0.132332,-42.9875,5,0.0161851,10,-0.0056886,-1.36666,-0.16953,-0.34802,584.278,0.132332,
2,0,0,1,0,6144.83,0.129388,0.129137,-44.8945,5,0.0160092,10,-0.00579752,-1.34781,-0.169977,-0.347106,608.259,0.129137,
2,0,0,1,0,6144.83,0.12618,0.125939,-46.8733,5,0.0158254,10,-0.0059032,-1.32907,-0.173524,-0.34001,621.739,0.1259394,
2,0,0,1,0,6144.84,0.122984,0.122765,-48.8937,5,0.0156337,10,-0.00600241,-1.31075,-0.176524,-0.334233,637.134,0.122765,
2,0,0,1,0,6144.84,0.119783,0.119529,-50.9472,5,0.0154338,10,-0.00608968,-1.29288,-0.183081,-0.322261,639.142,0.119529,
2,0,0,1,0,6144.85,0.116584,0.116383,-53.0202,5,0.0152257,10,-0.00617065,-1.27556,-0.188374,-0.313207,646.612,0.116383,
2,0,0,1,0,6144.85,0.113387,0.113256,-54.9799,5,0.0150095,10,-0.0062268,-1.2598,-0.195893,-0.301184,645.915,0.113256,
2,0,0,1,0,6144.85,0.110183,0.110046,-57.1177,5,0.0147851,10,-0.00628557,-1.24323,-0.204225,-0.288897,642.81,0.110046,
2,0,0,1,0,6144.86,0.106987,0.106814,-59.1602,5,0.0145523,10,-0.00631913,-1.22797,-0.212952,-0.277057,637.764,0.106814,
2,0,0,1,0,6144.86,0.103785,0.103655,-61.2019,5,0.0143114,10,-0.00634388,-1.21324,-0.226332,-0.260679,620.684,0.103655,
2,0,0,1,0,6144.87,0.100583,0.100405,-63.1758,5,0.0140623,10,-0.00634316,-1.19945,-0.239265,-0.246588,605.867,0.100405,
2,0,0,1,0,6144.87,0.0973873,0.0972257,-65.075,5,0.0138056,10,-0.00632697,-1.18659,-0.256054,-0.230421,583.37,0.0972257,
2,0,0,1,0,6144.87,0.0941801,0.094019,-66.9122,5,0.0135414,10,-0.00629102,-1.17449,-0.272953,-0.216155,562.782,0.09401904,
2,0,0,1,0,6144.88,0.0909839,0.0908251,-68.6865,5,0.01327,10,-0.00623845,-1.16313,-0.290467,-0.203121,542.973,0.0908251,
2,0,0,1,0,6144.88,0.0877878,0.0876036,-70.3801,5,0.0129917,10,-0.00616555,-1.15255,-0.313735,-0.188057,514.981,0.0876036,
2,0,0,1,0,6144.89,0.0845806,0.0844118,-72.0327,5,0.0127067,10,-0.0060804,-1.14247,-0.343586,-0.171718,480.867,0.0844118,
2,0,0,1,0,6144.89,0.0813844,0.0811733,-73.5275,5,0.0124154,10,-0.00596847,-1.13355,-0.378875,-0.155724,444.96,0.0811733,
2,0,0,1,0,6144.89,0.0781828,0.0778807,-74.911,5,0.0121184,10,-0.00583412,-1.12545,-0.429828,-0.137264,399.566,0.0778807,
2,0,0,1,0,6144.9,0.0749839,0.0746921,-76.1252,5,0.0118161,10,-0.00568595,-1.11847,-0.487454,-0.121037,358.086,0.07469207,
2,0,0,1,0,6144.9,0.0717877,0.0714727,-77.2027,5,0.0115093,10,-0.00551788,-1.11237,-0.56578,-0.104281,312.939,0.0714727,
2,0,0,1,0,6144.91,0.0685832,0.0683158,-78.1316,5,0.0111985,10,-0.00533762,-1.10717,-0.678779,-0.0869207,263.921,0.0683158,
2,0,0,1,0,6144.91,0.0653871,0.0650975,-78.9113,5,0.0108843,10,-0.00513693,-1.10286,-0.852171,-0.0692349,212.236,0.0650975,
2,0,0,1,0,6144.91,0.0621854,0.0618993,-79.5015,5,0.0105673,10,-0.00492109,-1.09962,-1.17753,-0.050105,154.707,0.06189933,
2,0,0,1,0,6144.92,0.0589837,0.0587308,-79.9069,5,0.0102484,10,-0.004693,-1.09742,-1.87212,-0.0315152,97.8239,0.0587308,
2,0,0,1,0,6144.92,0.0557876,0.0555337,-80.1091,5,0.00992831,10,-0.00444875,-1.09632,-4.73767,-0.0124534,38.7592,0.0555337,
2,0,0,1,0,6144.93,0.0525804,0.0522995,-80.1633,5,0.00960771,10,-0.0041925,-1.09602,10.5904,0.00557108,-17.3493,0.0522995,
2,0,0,1,0,6144.93,0.0493842,0.0491214,-79.9968,5,0.00928735,10,-0.00392956,-1.09693,2.63763,0.0223686,-69.5433,0.0491214,
2,0,0,1,0,6144.93,0.0461881,0.0459201,-79.6847,5,0.00896796,10,-0.00365913,-1.09863,1.52275,0.0387457,-120.049,0.0459201,
2,0,0,1,0,6144.94,0.0429808,0.0427123,-79.2174,5,0.00865014,10,-0.00338356,-1.10118,1.12936,0.052242,-160.987,0.0427123,
2,0,0,1,0,6144.94,0.0397847,0.0394781,-78.6241,5,0.00833452,10,-0.00310393,-1.10444,0.919952,0.0641338,-196.278,0.03947809,
2,0,0,1,0,6144.95,0.036583,0.0362948,-77.9318,5,0.00802146,10,-0.00282852,-1.10829,0.794857,0.0742272,-225.274,0.0362948,
2,0,0,1,0,6144.95,0.0333841,0.0330923,-77.1669,5,0.00771132,10,-0.00255363,-1.11257,0.723954,0.0814969,-245.05,0.0330923,
2,0,0,1,0,6144.95,0.030188,0.0298963,-76.3303,5,0.00740437,10,-0.00228199,-1.1173,0.670539,0.0879889,-261.824,0.0298963,
2,0,0,1,0,6144.96,0.0269835,0.0266854,-75.4892,5,0.00710082,10,-0.00201446,-1.12211,0.640223,0.0921554,-271.234,0.0266854,
2,0,0,1,0,6144.96,0.0237874,0.0235105,-74.5846,5,0.00680074,10,-0.00175352,-1.12735,0.613424,0.0961815,-279.75,0.0235105,
2,0,0,1,0,6144.97,0.0205857,0.0202752,-73.6904,5,0.00650427,10,-0.00149409,-1.13259,0.587828,0.100369,-288.406,0.0202752,
2,0,0,1,0,6144.97,0.017384,0.0171088,-72.753,5,0.00621144,10,-0.00124472,-1.13815,0.568289,0.103821,-294.477,0.0171088,
2,0,0,1,0,6144.97,0.0141879,0.0138809,-71.7964,5,0.0059224,10,-0.000996601,-1.1439,0.536793,0.109912,-307.567,0.0138809,
2,0,0,1,0,6144.98,0.0109806,0.0106743,-70.8047,5,0.00563727,10,-0.000755788,-1.14994,0.504802,0.116877,-322.346,0.0106743,
2,0,0,1,0,6144.98,0.00778448,0.0074623,-69.7496,5,0.00535623,10,-0.000520493,-1.15646,0.484136,0.121867,-331.24,0.0074623,
2,0,0,1,0,6144.99,0.00458834,0.00430229,-68.6249,5,0.00507956,10,-0.000295244,-1.16352,0.447714,0.131781,-352.352,0.00430229,
2,0,0,1,0,6144.99,0.0013811,0.00102669,-67.5385,5,0.00480737,10,-6.93414e-05,-1.17045,0.415769,0.141906,-372.836,0.00102669,
2,0,0,1,0,6144.99,-0.00181504,-0.00220224,-66.2676,5,0.00453986,10,0.000145937,-1.1787,0.386208,0.152767,-393.834,-0.002202244,
2,0,0,1,0,6145,-0.0050195,-0.00540997,-64.9504,5,0.00427755,10,0.00035138,-1.18742,0.354685,0.166345,-420.718,-0.00540997,
2,0,0,1,0,6145,-0.00821564,-0.00857317,-63.5541,5,0.00402066,10,0.00054486,-1.19686,0.336052,0.175568,-434.791,-0.008573168,
2,0,0,1,0,6145.01,-0.0114118,-0.011783,-62.1492,5,0.00376939,10,0.000732306,-1.20656,0.323976,0.182112,-441.319,-0.011783,
2,0,0,1,0,6145.01,-0.0146162,-0.0149505,-60.7248,5,0.00352376,10,0.000907863,-1.21663,0.319318,0.184769,-437.8,-0.0149505,
2,0,0,1,0,6145.01,-0.0178124,-0.0181624,-59.3225,5,0.0032838,10,0.00107744,-1.22678,0.321285,0.183638,-425.55,-0.0181624,
2,0,0,1,0,6145.02,-0.0210196,-0.0213543,-57.9585,5,0.0030494,10,0.00123766,-1.23688,0.328464,0.179624,-407.12,-0.0213543,
2,0,0,1,0,6145.02,-0.0242158,-0.0246108,-56.6904,5,0.00282025,10,0.00139519,-1.24649,0.345715,0.170661,-378.697,-0.0246108,
2,0,0,1,0,6145.03,-0.0274119,-0.0277718,-55.5049,5,0.00259599,10,0.00154147,-1.25567,0.36812,0.160274,-348.391,-0.0277718,
2,0,0,1,0,6145.03,-0.0306191,-0.0309934,-54.4634,5,0.00237619,10,0.001688,-1.26389,0.399722,0.147603,-314.865,-0.0309934,
2,0,0,1,0,6145.03,-0.0338153,-0.0341597,-53.4972,5,0.00216038,10,0.00182745,-1.27167,0.444207,0.132821,-278.401,-0.0341597,
2,0,0,1,0,6145.04,-0.037017,-0.0373537,-52.6781,5,0.00194815,10,0.00196772,-1.27837,0.500202,0.117952,-243.491,-0.0373537,
2,0,0,1,0,6145.04,-0.0402187,-0.0405391,-51.9505,5,0.00173898,10,0.00210603,-1.28441,0.58122,0.101511,-206.654,-0.0405391,
2,0,0,1,0,6145.05,-0.0434148,-0.0437522,-51.3568,5,0.00153245,10,0.00224697,-1.2894,0.678103,0.0870074,-175.045,-0.0437522,
2,0,0,1,0,6145.05,-0.0466193,-0.0469557,-50.8529,5,0.00132812,10,0.00238783,-1.29368,0.801612,0.0736017,-146.518,-0.0469557,
2,0,0,1,0,6145.05,-0.0498154,-0.0501485,-50.4384,5,0.00112562,10,0.00252941,-1.29724,0.984882,0.0599056,-118.287,-0.0501485,
2,0,0,1,0,6145.06,-0.0530115,-0.0533223,-50.0775,5,0.000924639,10,0.00267025,-1.30036,1.22223,0.0482724,-94.6585,-0.0533223,
2,0,0,1,0,6145.06,-0.056216,-0.0565746,-49.8401,5,0.000724824,10,0.00281968,-1.30242,1.66643,0.035405,-69.0809,-0.0565746,
2,0,0,1,0,6145.07,-0.0594121,-0.0597367,-49.643,5,0.000525868,10,0.00296551,-1.30414,2.41892,0.024391,-47.379,-0.0597367,
2,0,0,1,0,6145.07,-0.0626194,-0.0629392,-49.5548,5,0.000327511,10,0.00311894,-1.30491,3.68921,0.0159926,-30.9836,-0.0629392,
2,0,0,1,0,6145.07,-0.0658155,-0.0661596,-49.4693,5,0.000129463,10,0.00327287,-1.30566,8.30981,0.00710005,-13.7313,-0.0661596,
2,0,0,1,0,6145.08,-0.0690117,-0.069343,-49.4444,5,-6.83591e-05,10,0.00342862,-1.30588,-343.703,-0.00017166,0.331999,-0.069343,
2,0,0,1,0,6145.08,-0.0722189,-0.072539,-49.4672,5,-0.000266196,10,0.00358831,-1.30568,-7.37621,-0.00799868,15.4735,-0.072539,
2,0,0,1,0,6145.09,-0.075415,-0.0757192,-49.5591,5,-0.000464248,10,0.00375257,-1.30488,-3.93259,-0.0150028,29.0592,-0.0757192,
2,0,0,1,0,6145.09,-0.0786167,-0.0789821,-49.6677,5,-0.000662717,10,0.00392286,-1.30393,-2.92429,-0.0201758,39.147,-0.0789821,
2,0,0,1,0,6145.09,-0.0818184,-0.0821495,-49.8166,5,-0.000861708,10,0.00409241,-1.30263,-2.29618,-0.0256949,50.0189,-0.0821495,
2,0,0,1,0,6145.1,-0.0850146,-0.0853148,-49.9674,5,-0.00106128,10,0.00426296,-1.30131,-1.95782,-0.0301355,58.8557,-0.0853148,
2,0,0,1,0,6145.1,-0.088219,-0.088565,-50.2016,5,-0.00126162,10,0.0044461,-1.29928,-1.71512,-0.0343998,67.458,-0.08856497,
2,0,0,1,0,6145.11,-0.0914152,-0.0917759,-50.4207,5,-0.00146289,10,0.00462741,-1.29739,-1.5068,-0.0391557,77.11,-0.0917759,
2,0,0,1,0,6145.11,-0.0946141,-0.0949592,-50.6807,5,-0.0016651,10,0.0048126,-1.29516,-1.41268,-0.0417645,82.683,-0.0949592,
2,0,0,1,0,6145.11,-0.0978158,-0.0981479,-50.9569,5,-0.00186843,10,0.00500131,-1.2928,-1.28354,-0.0459665,91.4949,-0.0981479,
2,0,0,1,0,6145.12,-0.101012,-0.101334,-51.2574,5,-0.00207288,10,0.00519414,-1.29024,-1.19444,-0.0493956,98.9134,-0.101334,
2,0,0,1,0,6145.12,-0.104219,-0.104543,-51.5889,5,-0.0022786,10,0.00539326,-1.28744,-1.13243,-0.0521005,104.975,-0.104543,
2,0,0,1,0,6145.13,-0.107415,-0.107739,-51.9448,5,-0.0024857,10,0.0055965,-1.28446,-1.05767,-0.0557831,113.162,-0.107739,
2,0,0,1,0,6145.13,-0.110611,-0.110976,-52.3035,5,-0.00269424,10,0.00580441,-1.28147,-1.01976,-0.0578566,118.189,-0.1109756,
2,0,0,1,0,6145.13,-0.113819,-0.114161,-52.7089,5,-0.00290433,10,0.00601731,-1.27812,-0.970968,-0.0607641,125.079,-0.114161,
2,0,0,1,0,6145.14,-0.117015,-0.117369,-53.1047,5,-0.00311599,10,0.00623284,-1.27487,-0.914201,-0.0645372,133.874,-0.1173688,
2,0,0,1,0,6145.14,-0.120216,-0.120582,-53.5512,5,-0.00332932,10,0.0064573,-1.27123,-0.883558,-0.0667755,139.673,-0.120582,
2,0,0,1,0,6145.15,-0.123418,-0.123722,-54.0099,5,-0.00354448,10,0.00668219,-1.26753,-0.845709,-0.069764,147.126,-0.1237217,
2,0,0,1,0,6145.15,-0.126614,-0.126935,-54.4931,5,-0.00376151,10,0.00691706,-1.26366,-0.828484,-0.0712144,151.496,-0.126935,
2,0,0,1,0,6145.15,-0.129819,-0.130119,-54.9806,5,-0.00398052,10,0.00715403,-1.25979,-0.813457,-0.0725299,155.688,-0.130119,
2,0,0,1,0,6145.16,-0.133015,-0.133307,-55.4789,5,-0.00420149,10,0.00739572,-1.25587,-0.788676,-0.0748089,162.105,-0.133307,
2,0,0,1,0,6145.16,-0.136214,-0.136539,-56.0054,5,-0.0044245,10,0.00764691,-1.25177,-0.774631,-0.0761653,166.59,-0.136539,
2,0,0,1,0,6145.17,-0.139416,-0.139732,-56.5675,5,-0.00464972,10,0.00790428,-1.24743,-0.751691,-0.0784897,173.326,-0.139732,
2,0,0,1,0,6145.17,-0.142612,-0.142965,-57.1206,5,-0.00487717,10,0.00816624,-1.24321,-0.746363,-0.07905,176.23,-0.142965,
2,0,0,1,0,6145.17,-0.145819,-0.146131,-57.7018,5,-0.00510686,10,0.00843203,-1.23881,-0.742673,-0.0794427,178.9,-0.146131,
2,0,0,1,0,6145.18,-0.149015,-0.149311,-58.2563,5,-0.00533885,10,0.00869833,-1.23466,-0.732235,-0.0805752,183.283,-0.149311,
2,0,0,1,0,6145.18,-0.152211,-0.152501,-58.852,5,-0.00557314,10,0.00897499,-1.23024,-0.734261,-0.0803529,184.635,-0.152501,
2,0,0,1,0,6145.19,-0.155418,-0.155758,-59.4653,5,-0.00580986,10,0.00926217,-1.22574,-0.729167,-0.0809143,187.746,-0.155758,
2,0,0,1,0,6145.19,-0.158615,-0.158953,-60.069,5,-0.00604897,10,0.00954813,-1.22135,-0.725864,-0.0812824,190.529,-0.158953,
2,0,0,1,0,6145.19,-0.161816,-0.162158,-60.6682,5,-0.00629051,10,0.00983785,-1.21704,-0.730989,-0.0807126,191.121,-0.162158,
2,0,0,1,0,6145.2,-0.165018,-0.165291,-61.2887,5,-0.00653448,10,0.0101305,-1.21262,-0.727764,-0.0810703,193.94,-0.165291,
2,0,0,1,0,6145.2,-0.168214,-0.168494,-61.8995,5,-0.00678091,10,0.0104297,-1.20831,-0.727383,-0.0811127,195.977,-0.168494,
2,0,0,1,0,6145.21,-0.171419,-0.171705,-62.5422,5,-0.00702986,10,0.0107388,-1.20383,-0.738675,-0.0798727,194.938,-0.171705,
2,0,0,1,0,6145.21,-0.174615,-0.174903,-63.1659,5,-0.00728135,10,0.0110479,-1.19952,-0.734295,-0.0803492,198.056,-0.1749033,
2,0,0,1,0,6145.21,-0.177814,-0.178179,-63.8011,5,-0.00753535,10,0.011368,-1.19517,-0.73471,-0.0803038,199.969,-0.178179,
2,0,0,1,0,6145.22,-0.181015,-0.18131,-64.4378,5,-0.0077919,10,0.0116832,-1.19086,-0.734698,-0.0803051,201.999,-0.18131,
2,0,0,1,0,6145.22,-0.184211,-0.184431,-65.087,5,-0.00805102,10,0.0120041,-1.18651,-0.723073,-0.0815962,207.339,-0.184431,
2,0,0,1,0,6145.23,-0.187419,-0.187732,-65.7574,5,-0.00831279,10,0.0123448,-1.18206,-0.729205,-0.08091,207.641,-0.187732,
2,0,0,1,0,6145.23,-0.190615,-0.19089,-66.4366,5,-0.00857725,10,0.0126821,-1.17759,-0.729975,-0.0808247,209.55,-0.19089,
2,0,0,1,0,6145.23,-0.193811,-0.19411,-67.0956,5,-0.0088444,10,0.013024,-1.17331,-0.727973,-0.081047,212.069,-0.19411,
2,0,0,1,0,6145.24,-0.197018,-0.197361,-67.7964,5,-0.00911426,10,0.0133803,-1.16879,-0.758649,-0.0777698,204.604,-0.197361,
2,0,0,1,0,6145.24,-0.199647,-0.199969,-68.3524,5,-0.00933892,10,0.0136684,-1.16525,0.398631,0.148007,-381.644,-0.199969,
2,0,0,1,0,6145.24,-0.200134,-0.200475,-68.3978,5,-0.00937996,10,0.013712,-1.16496,-0.0145568,-4.05308,9791.99,-0.200475,
2,0,0,1,1,6145.24,-0.198935,-0.199451,-65.0576,5,-0.00947906,10,0.0129758,-1.1867,-0.0478307,-1.23352,2794.75,-0.199451,
2,0,0,1,1,6145.25,-0.195739,-0.196193,-56.3642,5,-0.00972059,10,0.0110583,-1.249,-0.0509615,-1.15774,2448.21,-0.1961931,
2,0,0,1,1,6145.25,-0.192535,-0.19299,-48.8463,5,-0.00992999,10,0.00942683,-1.31117,-0.0499536,-1.1811,2262.01,-0.1929896,
2,0,0,1,1,6145.25,-0.189339,-0.18973,-42.0916,5,-0.010111,10,0.00798604,-1.3758,-0.0476877,-1.23722,2027.8,-0.1897299,
2,0,0,1,1,6145.26,-0.186137,-0.186583,-35.9499,5,-0.0102664,10,0.00670763,-1.4443,-0.0444672,-1.32682,1847.06,-0.186583,
2,0,0,1,1,6145.26,-0.182935,-0.183343,-30.3069,5,-0.0103982,10,0.00555656,-1.51846,-0.040273,-1.465,1706.91,-0.1833431,
2,0,0,1,1,6145.27,-0.179739,-0.180137,-25.1077,5,-0.0105084,10,0.00452284,-1.60019,-0.0356724,-1.65394,1579.53,-0.180137,
2,0,0,1,1,6145.27,-0.176532,-0.176937,-20.2556,5,-0.0105985,10,0.00358397,-1.69345,-0.0304514,-1.93751,1468.74,-0.176937,
2,0,0,1,1,6145.27,-0.173336,-0.173789,-15.7417,5,-0.01067,10,0.00273573,-1.80295,-0.0245486,-2.4034,1371.14,-0.173789,
2,0,0,1,1,6145.28,-0.17014,-0.170553,-11.5224,5,-0.010724,10,0.00196518,-1.93846,-0.0177651,-3.32112,1282.71,-0.170553,
2,0,0,1,1,6145.28,-0.166932,-0.167338,-7.55835,5,-0.0107617,10,0.0012648,-2.12157,-0.0079165,-7.45279,1200.54,-0.167338,
2,0,0,1,1,6145.29,-0.163736,-0.16416,-3.86665,5,-0.0107841,10,0.00063475,-2.41267,-0.0211562,-2.78879,1131.82,-0.16416,
2,0,0,1,1,6145.29,-0.160532,-0.160994,-0.380909,5,-0.0107922,10,6.1324e-05,-3.41918,-0.125875,-0.46872,1063.93,-0.160994,
2,1,0,1,1,6145.29,-0.157336,-0.157825,2.88349,5,-0.0107868,10,-0.000455088,-2.54008,0.0351093,1.68046,1002.75,-0.157825,
2,1,0,1,1,6145.3,-0.154139,-0.154606,5.98793,5,-0.0107687,10,-0.000925769,-2.22272,0.00861196,6.85094,940.357,-0.154606,
2,1,0,1,1,6145.3,-0.150935,-0.1514,8.92826,5,-0.0107386,10,-0.00135174,-2.04923,0.0184321,3.20094,888.678,-0.1514,
2,1,0,1,1,6145.31,-0.147739,-0.148201,11.6488,5,-0.0106971,10,-0.00172637,-1.93372,0.028638,2.0602,841.584,-0.1482012,
2,1,0,1,1,6145.31,-0.144532,-0.145036,14.2493,5,-0.010645,10,-0.00206666,-1.84621,0.0385946,1.52871,798.56,-0.145036,
2,1,0,1,1,6145.31,-0.141335,-0.141803,16.763,5,-0.0105827,10,-0.00237704,-1.77565,0.0486651,1.21237,758.071,-0.1418027,
2,1,0,1,1,6145.32,-0.138139,-0.138633,19.1237,5,-0.0105107,10,-0.00265118,-1.71843,0.0593019,0.994909,717.303,-0.138633,
2,1,0,1,1,6145.32,-0.134932,-0.135375,21.3724,5,-0.0104294,10,-0.00289327,-1.67015,0.0707483,0.833942,677.009,-0.1353745,
2,1,0,1,1,6145.33,-0.131736,-0.132194,23.4606,5,-0.0103395,10,-0.00310135,-1.62966,0.0832495,0.708713,635.492,-0.132194,
2,1,0,1,1,6145.33,-0.12854,-0.128983,25.4418,5,-0.0102414,10,-0.00328157,-1.59445,0.0963192,0.612547,598.115,-0.128983,
2,1,0,1,1,6145.33,-0.125333,-0.125745,27.3141,5,-0.0101357,10,-0.00343461,-1.56361,0.109862,0.537037,564.314,-0.125745,
2,1,0,1,1,6145.34,-0.122136,-0.122521,29.0601,5,-0.0100227,10,-0.00356048,-1.5367,0.125065,0.471755,528.521,-0.122521,
2,1,0,1,1,6145.34,-0.118932,-0.11934,30.7144,5,-0.00990302,10,-0.00366546,-1.51266,0.140981,0.418497,496.303,-0.1193401,
2,1,0,1,1,6145.35,-0.115736,-0.116122,32.2394,5,-0.00977693,10,-0.0037437,-1.49161,0.157026,0.375733,468.747,-0.116122,
2,1,0,1,1,6145.35,-0.11254,-0.112913,33.6826,5,-0.00964494,10,-0.00380321,-1.47259,0.174899,0.337338,440.365,-0.112913,
2,1,0,1,1,6145.35,-0.109335,-0.10972,35.0606,5,-0.00950726,10,-0.00384685,-1.45518,0.193824,0.304401,413.724,-0.10972,
2,1,0,1,1,6145.36,-0.106139,-0.106562,36.3413,5,-0.0093643,10,-0.00387261,-1.4396,0.213887,0.275846,388.772,-0.1065622,
2,1,0,1,1,6145.36,-0.102932,-0.103293,37.547,5,-0.00921638,10,-0.00387834,-1.42542,0.237262,0.24867,362.239,-0.103293,
2,1,0,1,1,6145.37,-0.0997357,-0.100116,38.6577,5,-0.00906386,10,-0.00387026,-1.41276,0.2613,0.225794,339.057,-0.100116,
2,1,0,1,1,6145.37,-0.0965395,-0.0969507,39.6862,5,-0.00890703,10,-0.0038476,-1.40136,0.286637,0.205835,317.629,-0.0969507,
2,1,0,1,1,6145.37,-0.0933323,-0.0937249,40.6939,5,-0.00874616,10,-0.00381403,-1.39047,0.312906,0.188555,298.265,-0.0937249,
2,1,0,1,1,6145.38,-0.0901362,-0.0905257,41.6023,5,-0.00858145,10,-0.00376607,-1.38088,0.343925,0.171549,277.459,-0.0905257,
2,1,0,1,1,6145.38,-0.0869345,-0.0873466,42.4664,5,-0.00841323,10,-0.00370929,-1.37195,0.380893,0.154899,255.801,-0.0873466,
2,1,0,1,1,6145.39,-0.0837328,-0.0841049,43.2503,5,-0.00824168,10,-0.00363757,-1.36401,0.413839,0.142567,239.933,-0.0841049,
2,1,0,1,1,6145.39,-0.0805366,-0.0808887,43.9774,5,-0.00806715,10,-0.00355728,-1.35677,0.456214,0.129325,221.418,-0.0808887,
2,1,0,1,1,6145.39,-0.0773322,-0.077699,44.6798,5,-0.00788978,10,-0.00347158,-1.34989,0.495144,0.119157,207.213,-0.077699,
2,1,0,1,1,6145.4,-0.074136,-0.0745315,45.3039,5,-0.00770974,10,-0.00337657,-1.34386,0.540274,0.109204,192.638,-0.07453154,
2,1,0,1,1,6145.4,-0.0709371,-0.0713493,45.8935,5,-0.00752725,10,-0.00327447,-1.33825,0.598586,0.0985657,176.163,-0.0713493,
2,1,0,1,1,6145.41,-0.0677354,-0.0680779,46.4453,5,-0.00734251,10,-0.0031619,-1.33306,0.648345,0.091001,164.622,-0.0680779,
2,1,0,1,1,6145.41,-0.0645393,-0.0649253,46.9301,5,-0.0071557,10,-0.00304695,-1.32855,0.712249,0.0828362,151.498,-0.0649253,
2,1,0,1,1,6145.41,-0.0613321,-0.061689,47.418,5,-0.00696699,10,-0.00292517,-1.32406,0.781883,0.0754589,139.384,-0.061689,
2,1,0,1,1,6145.42,-0.0581359,-0.0584685,47.8449,5,-0.0067764,10,-0.00279742,-1.32016,0.852247,0.0692288,129.016,-0.0584685,
2,1,0,1,1,6145.42,-0.0549398,-0.0553,48.2263,5,-0.00658421,10,-0.00266692,-1.31672,0.953473,0.061879,116.302,-0.0553,
2,1,0,1,1,6145.43,-0.0517325,-0.0521071,48.5838,5,-0.00639051,10,-0.00253156,-1.31351,1.04276,0.0565804,107.145,-0.0521071,
2,1,0,1,1,6145.43,-0.0485364,-0.0488729,48.9086,5,-0.00619548,10,-0.0023903,-1.31061,1.15206,0.0512128,97.6335,-0.0488729,
2,1,0,1,1,6145.43,-0.0453347,-0.0457595,49.2066,5,-0.00599921,10,-0.00225167,-1.30798,1.28386,0.0459551,88.1429,-0.0457595,
2,1,0,1,1,6145.44,-0.042133,-0.0424871,49.4773,5,-0.00580181,10,-0.00210215,-1.30559,1.44508,0.0408282,78.7309,-0.0424871,
2,1,0,1,1,6145.44,-0.0389369,-0.0392985,49.7128,5,-0.00560339,10,-0.00195364,-1.30353,1.68859,0.0349404,67.6899,-0.03929846,
2,1,0,1,1,6145.45,-0.0357324,-0.0360738,49.9163,5,-0.00540413,10,-0.00180067,-1.30176,1.93673,0.0304637,59.2734,-0.0360738,
2,1,0,1,1,6145.45,-0.0325363,-0.0329148,50.0761,5,-0.00520411,10,-0.00164824,-1.30037,2.29082,0.025755,50.2911,-0.03291481,
2,1,0,1,1,6145.45,-0.0293374,-0.0296922,50.2357,5,-0.00500348,10,-0.00149161,-1.29899,2.74842,0.0214669,42.0434,-0.0296922,
2,1,0,1,1,6145.46,-0.0261357,-0.0264919,50.3569,5,-0.00480225,10,-0.00133405,-1.29794,3.31383,0.0178042,34.9504,-0.0264919,
2,1,0,1,1,6145.46,-0.0229395,-0.0233149,50.4527,5,-0.00460061,10,-0.0011763,-1.29712,4.6507,0.0126863,24.9508,-0.0233149,
2,1,0,1,1,6145.47,-0.0197323,-0.0200892,50.5243,5,-0.00439864,10,-0.00101499,-1.2965,6.74985,0.00874093,17.2158,-0.0200892,
2,1,0,1,1,6145.47,-0.0165361,-0.0169154,50.5545,5,-0.00419645,10,-0.000855148,-1.29624,11.1956,0.00526995,10.3903,-0.0169154,
2,1,0,1,1,6145.47,-0.01334,-0.0137193,50.5768,5,-0.00399416,10,-0.000693879,-1.29605,43.9111,0.00134362,2.65025,-0.0137193,
2,1,0,1,1,6145.48,-0.0101328,-0.0104872,50.586,5,-0.00379181,10,-0.000530505,-1.29597,-31.9252,-0.00184807,-3.64453,-0.0104872,
2,1,0,1,1,6145.48,-0.00693663,-0.00730386,50.5582,5,-0.0035895,10,-0.00036927,-1.29621,-10.2471,-0.00575773,-11.3488,-0.00730386,
2,1,0,1,1,6145.49,-0.00373494,-0.00409825,50.5078,5,-0.00338738,10,-0.000206993,-1.29664, , , ,-0.00409825,
2,1,0,1,1,6145.49,-0.000774629,-0.00111904,50.4338,5,-0.00320062,10,-5.64373e-05,-1.29728, , , ,-0.00111904,
2,1,0,0,1,6145.49,-0.000125413,-0.000592546,50.4359,5,-0.00316027,10,-2.98856e-05,-1.29726, , , ,-0.000592546,