File: Figure_codes/Fig_3-5/rawdata_trumpetplot_data/before 10th/20221101_1-115_002_TrumpetPlot_ParaChange_05_CV_C01_5.csv
mode,ox/red,error,control changes,counter inc.,time/s,control/V,Ewe/V,<I>/mA,cycle number,(Q-Qo)/C,I Range,P/W,log(|I|),Tafel slope mV/dec,alpha_eff,dI/d(E-IR),E-IR/V,
2,0,0,1,0,7117.03,2.44065e-05,-0.000306236,-0.0265613,6,0.0000000E+000,11,8.13402e-09,-4.57575, , , ,-0.000306236,
2,1,0,0,0,7117.28,0.00129787,0.000943983,0.162369,6,3.85009e-05,11,1.53274e-07,-3.7895, , , ,0.000943983,
2,1,0,0,0,7117.58,0.00279606,0.00249112,0.185885,6,9.83558e-05,11,4.63062e-07,-3.73075,0.0361092,1.63393,11.179,0.00249112,
2,1,0,1,0,7117.88,0.00429469,0.00400386,0.193752,6,0.000160801,11,7.75757e-07,-3.71275,0.19203,0.307243,2.39458,0.00400386,
2,1,0,1,0,7118.18,0.00579255,0.00552286,0.200583,6,0.00022573,11,1.10779e-06,-3.69771,0.100509,0.587013,4.60424,0.005522856,
2,1,0,1,0,7118.48,0.00729041,0.00701133,0.208949,6,0.000292804,11,1.46501e-06,-3.67996,0.112254,0.525593,4.24716,0.007011327,
2,1,0,1,0,7118.78,0.00878882,0.00850998,0.215354,6,0.000361875,11,1.83266e-06,-3.66685,0.131665,0.448106,3.72802,0.00850998,
2,1,0,1,0,7119.08,0.010287,0.0100264,0.219051,6,0.000432505,11,2.19628e-06,-3.65946,0.18597,0.317256,2.70121,0.0100264,
2,1,0,1,0,7119.38,0.0117852,0.0114579,0.222269,6,0.000504353,11,2.54674e-06,-3.65312,0.191316,0.30839,2.68517,0.0114579,
2,1,0,1,0,7119.68,0.0132836,0.0129478,0.226242,6,0.000577248,11,2.92934e-06,-3.64543,0.18334,0.321807,2.86262,0.0129478,
2,1,0,1,0,7119.98,0.0147815,0.0144726,0.230894,6,0.000651477,11,3.34165e-06,-3.63659,0.222594,0.265056,2.38856,0.01447264,
2,1,0,1,0,7120.28,0.0162793,0.0160173,0.234624,6,0.000726903,11,3.75804e-06,-3.62963,0.385499,0.153048,1.39711,0.0160173,
2,1,0,0,0,7120.58,0.017778,0.0174789,0.237356,6,0.000803199,11,4.14873e-06,-3.6246,0.278254,0.212036,1.96209,0.0174789,
2,1,0,0,0,7120.88,0.0192761,0.018955,0.240312,6,0.000880009,11,4.55511e-06,-3.61923,0.359781,0.163989,1.53758,0.01895499,
2,1,0,1,0,7121.18,0.0207747,0.0204865,0.244898,6,0.000957994,11,5.0171e-06,-3.61102,0.241105,0.244706,2.31362,0.0204865,
2,1,0,1,0,7121.48,0.0222725,0.0219983,0.246482,6,0.00103696,11,5.4222e-06,-3.60821,0.258445,0.228288,2.19535,0.0219983,
2,1,0,1,0,7121.78,0.0237704,0.0235069,0.249814,6,0.00111669,11,5.87235e-06,-3.60238,0.337246,0.174946,1.70872,0.0235069,
2,1,0,1,0,7122.08,0.0252689,0.0250269,0.250848,6,0.00119704,11,6.27794e-06,-3.60059,0.338321,0.174391,1.71875,0.0250269,
2,1,0,1,0,7122.38,0.0267671,0.0264818,0.254246,6,0.00127852,11,6.73288e-06,-3.59475,0.222566,0.26509,2.63638,0.0264818,
2,1,0,1,0,7122.68,0.0282657,0.0279966,0.258617,6,0.00136095,11,7.24041e-06,-3.58734,0.286817,0.205706,2.0795,0.0279966,
2,1,0,1,0,7122.98,0.0297635,0.0294774,0.262325,6,0.00144426,11,7.73266e-06,-3.58116,0.283299,0.208261,2.12392,0.0294774,
2,1,0,1,0,7123.28,0.0312613,0.0309668,0.261737,6,0.00152832,11,8.10516e-06,-3.58214,0.291929,0.202104,2.08148,0.0309668,
2,1,0,0,0,7123.58,0.0327599,0.0325102,0.26815,6,0.00161341,11,8.7176e-06,-3.57162,0.30129,0.195825,2.04862,0.0325102,
2,1,0,0,0,7123.88,0.034258,0.0339682,0.272105,6,0.00169963,11,9.24292e-06,-3.56526,0.273037,0.216088,2.28544,0.0339682,
2,1,0,1,0,7124.17,0.0357567,0.0354872,0.275761,6,0.00178694,11,9.78597e-06,-3.55947,0.321969,0.183247,1.95815,0.0354872,
2,1,0,1,0,7124.47,0.0372545,0.0369609,0.276802,6,0.00187537,11,1.02309e-05,-3.55783,0.220559,0.267502,2.91224,0.0369609,
2,1,0,1,0,7124.77,0.0387524,0.0383898,0.282923,6,0.0019645,11,1.08613e-05,-3.54833,0.217309,0.271503,3.01264,0.0383898,
2,1,0,1,0,7125.07,0.0402508,0.0399563,0.286148,6,0.00205533,11,1.14334e-05,-3.54341,0.227164,0.259725,2.90886,0.0399563,
2,1,0,1,0,7125.37,0.041749,0.0414483,0.290955,6,0.00214765,11,1.20596e-05,-3.53617,0.276133,0.213665,2.42394,0.0414483,
2,1,0,1,0,7125.67,0.0432472,0.0429626,0.296712,6,0.00224104,11,1.27475e-05,-3.52766,0.232826,0.253408,2.91537,0.0429626,
2,1,0,1,0,7125.97,0.0447456,0.0444517,0.301321,6,0.00233568,11,1.33942e-05,-3.52097,0.211018,0.279597,3.27274,0.0444517,
2,1,0,1,0,7126.27,0.0462435,0.0459496,0.306063,6,0.00243204,11,1.40634e-05,-3.51419,0.169706,0.34766,4.13985,0.0459496,
2,1,0,1,0,7126.57,0.0477413,0.0474564,0.31079,6,0.00253003,11,1.4749e-05,-3.50753,0.189001,0.312168,3.79885,0.0474564,
2,1,0,0,0,7126.87,0.0492399,0.048955,0.316739,6,0.00262974,11,1.5506e-05,-3.4993,0.173922,0.339232,4.2106,0.048955,
2,1,0,0,0,7127.17,0.0507381,0.0504788,0.321266,6,0.00273081,11,1.62171e-05,-3.49314,0.186073,0.31708,4.00457,0.0504788,
2,1,0,1,0,7127.47,0.0522367,0.0519583,0.329292,6,0.00283392,11,1.71094e-05,-3.48242,0.147235,0.40072,5.14408,0.0519583,
2,1,0,1,0,7127.77,0.0537345,0.0534265,0.336626,6,0.00293919,11,1.79848e-05,-3.47285,0.167712,0.351794,4.60556,0.0534265,
2,1,0,1,0,7128.07,0.0552323,0.0549577,0.341235,6,0.00304625,11,1.87535e-05,-3.46695,0.192569,0.306383,4.07986,0.0549577,
2,1,0,1,0,7128.37,0.0567309,0.0564467,0.345709,6,0.0031551,11,1.95141e-05,-3.46129,0.181052,0.325873,4.4295,0.0564467,
2,1,0,1,0,7128.67,0.0582291,0.0579175,0.355692,6,0.00326585,11,2.06008e-05,-3.44893,0.186882,0.315708,4.37808,0.0579175,
2,1,0,1,0,7128.97,0.0597277,0.0594174,0.362749,6,0.00337888,11,2.15536e-05,-3.44039,0.193429,0.305022,4.31733,0.0594174,
2,1,0,1,0,7129.27,0.0612255,0.0609132,0.370363,6,0.00349408,11,2.256e-05,-3.43137,0.228292,0.258441,3.71645,0.0609132,
2,1,0,1,0,7129.57,0.0627233,0.0624429,0.376583,6,0.00361128,11,2.35149e-05,-3.42414,0.197562,0.298641,4.395,0.0624429,
2,1,0,0,0,7129.87,0.0642218,0.063948,0.382967,6,0.00373023,11,2.449e-05,-3.41684,0.173404,0.340245,5.10676,0.063948,
2,1,0,0,0,7130.17,0.06572,0.0654517,0.391335,6,0.00385162,11,2.56135e-05,-3.40745,0.193094,0.305551,4.65314,0.0654517,
2,1,0,1,0,7130.47,0.0672187,0.0669377,0.398871,6,0.00397543,11,2.66995e-05,-3.39917,0.218579,0.269926,4.17288,0.0669377,
2,1,0,1,0,7130.77,0.0687165,0.068423,0.405272,6,0.00410111,11,2.773e-05,-3.39225,0.219353,0.268973,4.23351,0.068423,
2,1,0,1,0,7131.07,0.0702144,0.0699114,0.41121,6,0.00422827,11,2.87483e-05,-3.38594,0.233123,0.253085,4.05229,0.0699114,
2,1,0,1,0,7131.37,0.0717128,0.0713942,0.416306,6,0.00435785,11,2.97218e-05,-3.38059,0.175217,0.336725,5.47031,0.0713942,
2,1,0,1,0,7131.67,0.073211,0.0729201,0.421916,6,0.00448945,11,3.07662e-05,-3.37477,0.213155,0.276794,4.57113,0.0729201,
2,1,0,1,0,7131.97,0.0747092,0.0744026,0.429027,6,0.00462294,11,3.19207e-05,-3.36752,0.260064,0.226868,3.81293,0.0744026,
2,1,0,1,0,7132.26,0.0762076,0.0759149,0.434754,6,0.00475801,11,3.30043e-05,-3.36176,0.238276,0.247612,4.21456,0.0759149,
2,1,0,1,0,7132.56,0.0777054,0.077413,0.442981,6,0.00489496,11,3.42925e-05,-3.35361,0.22133,0.266571,4.59216,0.077413,
2,1,0,1,0,7132.86,0.0792033,0.0789182,0.449963,6,0.00503398,11,3.55103e-05,-3.34682,0.256045,0.230428,4.02474,0.0789182,
2,1,0,0,0,7133.16,0.0807019,0.080396,0.453061,6,0.00517485,11,3.64243e-05,-3.34384,0.338839,0.174124,3.07442,0.080396,
2,1,0,0,0,7133.46,0.0822001,0.0819357,0.456532,6,0.00531696,11,3.74063e-05,-3.34053,0.313853,0.187986,3.36546,0.0819357,
2,1,0,1,0,7133.76,0.0836986,0.0833803,0.465257,6,0.00546057,11,3.87933e-05,-3.33231,0.27887,0.211568,3.83853,0.0833803,
2,1,0,1,0,7134.06,0.0851965,0.0849231,0.470484,6,0.00560603,11,3.9955e-05,-3.32745,0.276722,0.21321,3.91854,0.0849231,
2,1,0,1,0,7134.36,0.0866944,0.086385,0.474062,6,0.00575316,11,4.09518e-05,-3.32416,0.37167,0.158743,2.93898,0.086385,
2,1,0,1,0,7134.66,0.0881929,0.0878973,0.479583,6,0.00590182,11,4.21541e-05,-3.31914,0.341246,0.172896,3.24201,0.0878973,
2,1,0,1,0,7134.96,0.0896911,0.0893713,0.486999,6,0.00605167,11,4.35238e-05,-3.31247,0.299213,0.197184,3.74667,0.0893713,
2,1,0,1,0,7135.26,0.0911897,0.0908733,0.492682,6,0.00620347,11,4.47716e-05,-3.30743,0.304683,0.193644,3.70028,0.0908733,
2,1,0,1,0,7135.56,0.0926875,0.0924219,0.498168,6,0.00635752,11,4.60416e-05,-3.30262,0.28683,0.205697,3.98924,0.0924219,
2,1,0,1,0,7135.86,0.0941853,0.0938532,0.502445,6,0.00651289,11,4.71561e-05,-3.29891,0.362139,0.162921,3.20261,0.09385322,
2,1,0,0,0,7136.16,0.0956838,0.0953795,0.508159,6,0.00666967,11,4.8468e-05,-3.294,0.265551,0.222179,4.42578,0.0953795,
2,1,0,0,0,7136.46,0.097182,0.0968503,0.515135,6,0.00682865,11,4.9891e-05,-3.28808,0.207128,0.284848,5.72859,0.0968503,
2,1,0,1,0,7136.76,0.0986807,0.0983946,0.524059,6,0.00699005,11,5.15646e-05,-3.28062,0.24552,0.240307,4.9156,0.0983946,
2,1,0,1,0,7137.06,0.100179,0.0998811,0.530882,6,0.00715365,11,5.3025e-05,-3.275,0.219576,0.2687,5.57399,0.0998811,
2,1,0,1,0,7137.36,0.101676,0.101402,0.535793,6,0.00731929,11,5.43306e-05,-3.271,0.201639,0.292603,6.17003,0.101402,
2,1,0,1,0,7137.66,0.103175,0.102864,0.549068,6,0.00748776,11,5.64792e-05,-3.26037,0.186621,0.316149,6.77352,0.102864,
2,1,0,1,0,7137.96,0.104673,0.104427,0.562069,6,0.00765972,11,5.86952e-05,-3.25021,0.174797,0.337535,7.37738,0.104427,
2,1,0,1,0,7138.26,0.106171,0.105843,0.571611,6,0.00783483,11,6.05008e-05,-3.2429,0.192269,0.306861,6.82335,0.105843,
2,1,0,1,0,7138.56,0.10767,0.107398,0.58152,6,0.00801323,11,6.24543e-05,-3.23544,0.158744,0.371668,8.47028,0.107398,
2,1,0,1,0,7138.86,0.109167,0.108895,0.596706,6,0.00819504,11,6.49785e-05,-3.22424,0.150434,0.392199,9.15038,0.108895,
2,1,0,1,0,7139.16,0.110665,0.110358,0.610078,6,0.00838138,11,6.73273e-05,-3.21461,0.14531,0.406028,9.6895,0.110358,
2,1,0,0,0,7139.46,0.112164,0.111843,0.625653,6,0.00857206,11,6.99751e-05,-3.20367,0.158857,0.371404,9.04631,0.111843,
2,1,0,0,0,7139.76,0.113662,0.113397,0.639921,6,0.00876718,11,7.2565e-05,-3.19387,0.143077,0.412366,10.3089,0.113397,
2,1,0,1,0,7140.06,0.115161,0.114871,0.658451,6,0.00896628,11,7.56371e-05,-3.18148,0.143952,0.40986,10.4895,0.114871,
2,1,0,1,0,7140.36,0.116658,0.116337,0.673117,6,0.00917088,11,7.83087e-05,-3.17191,0.136654,0.431749,11.2965,0.116337,
2,1,0,1,0,7140.65,0.118156,0.117859,0.68978,6,0.00938043,11,8.12965e-05,-3.16129,0.158041,0.373322,10.0316,0.117859,
2,1,0,1,0,7140.95,0.119655,0.11935,0.704401,6,0.00959471,11,8.40702e-05,-3.15218,0.16106,0.366323,10.0973,0.11935,
2,1,0,1,0,7141.25,0.121153,0.120858,0.71856,6,0.00981319,11,8.68436e-05,-3.14354,0.160274,0.368119,10.3494,0.120858,
2,1,0,1,0,7141.55,0.122652,0.122373,0.735113,6,0.0100369,11,8.99579e-05,-3.13365,0.149974,0.393401,11.2605,0.122373,
2,1,0,1,0,7141.85,0.124149,0.123864,0.751533,6,0.0102653,11,9.30881e-05,-3.12405,0.174476,0.338155,9.89703,0.123864,
2,1,0,1,0,7142.15,0.125647,0.125355,0.765558,6,0.0104982,11,9.59663e-05,-3.11602,0.193071,0.305587,9.13238,0.125355,
2,1,0,0,0,7142.45,0.127146,0.12684,0.775397,6,0.0107352,11,9.83512e-05,-3.11048,0.192201,0.306971,9.33593,0.1268397,
2,1,0,0,0,7142.75,0.128644,0.128333,0.794592,6,0.0109763,11,0.000101972,-3.09986,0.204803,0.288081,8.92731,0.128333,
2,1,0,1,0,7143.05,0.130143,0.129825,0.809597,6,0.0112221,11,0.000105106,-3.09173,0.219047,0.269349,8.46115,0.1298251,
2,1,0,1,0,7143.35,0.131641,0.131337,0.818969,6,0.0114717,11,0.000107561,-3.08673,0.302597,0.194979,6.21449,0.131337,
2,1,0,1,0,7143.65,0.133138,0.13284,0.828779,6,0.0117246,11,0.000110095,-3.08156,0.282748,0.208667,6.76106,0.13284,
2,1,0,1,0,7143.95,0.134637,0.134334,0.837959,6,0.0119798,11,0.000112566,-3.07678,0.364726,0.161765,5.30636,0.134334,
2,1,0,1,0,7144.25,0.136135,0.135843,0.847746,6,0.0122381,11,0.00011516,-3.07173,0.400084,0.147469,4.87,0.135843,
2,1,0,1,0,7144.55,0.137633,0.13732,0.854111,6,0.0124987,11,0.000117286,-3.06849,1.14604,0.0514818,1.70467,0.13732,
2,1,0,1,0,7144.85,0.139132,0.138841,0.857498,6,0.0127604,11,0.000119056,-3.06677,10.5342,0.00560081,0.186294,0.138841,
2,1,0,1,0,7145.15,0.140629,0.140347,0.855662,6,0.0130217,11,0.00012009,-3.0677,-2.83661,-0.0207995,-0.691852,0.140347,
2,1,0,1,0,7145.45,0.142127,0.141857,0.852254,6,0.013283,11,0.000120898,-3.06943,-0.769014,-0.0767216,-2.53595,0.1418568,
2,1,0,0,0,7145.75,0.143626,0.143321,0.84621,6,0.0135435,11,0.000121279,-3.07252,-0.307751,-0.191713,-6.30494,0.143321,
2,1,0,0,0,7146.05,0.145124,0.14484,0.83467,6,0.013801,11,0.000120894,-3.07849,-0.190598,-0.309552,-10.066,0.14484,
2,1,0,1,0,7146.35,0.146623,0.146355,0.815253,6,0.0140536,11,0.000119316,-3.08871,-0.161914,-0.364392,-11.6109,0.146355,
2,1,0,1,0,7146.65,0.14812,0.147824,0.798437,6,0.0143014,11,0.000118028,-3.09776,-0.147965,-0.398743,-12.3642,0.147824,
2,1,0,1,0,7146.95,0.149618,0.149352,0.777997,6,0.0145433,11,0.000116195,-3.10902,-0.109377,-0.539419,-16.2797,0.149352,
2,1,0,1,0,7147.25,0.151117,0.150842,0.752066,6,0.0147778,11,0.000113443,-3.12374,-0.0897678,-0.657251,-19.1629,0.150842,
2,1,0,1,0,7147.55,0.152615,0.152373,0.719354,6,0.0150039,11,0.00010961,-3.14306,-0.0832127,-0.709026,-19.917,0.152373,
2,1,0,1,0,7147.85,0.154114,0.15381,0.69222,6,0.015221,11,0.000106471,-3.15976,-0.0774876,-0.761412,-20.5387,0.15381,
2,1,0,1,0,7148.15,0.155612,0.155344,0.66161,6,0.0154291,11,0.000102777,-3.1794,-0.0742041,-0.795105,-20.4585,0.155344,
2,1,0,1,0,7148.45,0.157109,0.156808,0.629057,6,0.015628,11,9.86411e-05,-3.20131,-0.067196,-0.878029,-21.5348,0.156808,
2,1,0,0,0,7148.75,0.158608,0.15834,0.598131,6,0.0158175,11,9.47082e-05,-3.2232,-0.0683872,-0.862734,-20.2046,0.15834,
2,1,0,0,0,7149.04,0.160106,0.159827,0.569067,6,0.0159976,11,9.09521e-05,-3.24484,-0.0678151,-0.870013,-19.3656,0.159827,
2,1,0,1,0,7149.34,0.161605,0.161314,0.544336,6,0.0161696,11,8.7809e-05,-3.26413,-0.070829,-0.832992,-17.6614,0.161314,
2,1,0,1,0,7149.64,0.163102,0.162827,0.518127,6,0.0163339,11,8.43649e-05,-3.28556,-0.0748508,-0.788234,-15.9271,0.162827,
2,1,0,1,0,7149.94,0.1646,0.164335,0.493107,6,0.0164908,11,8.10349e-05,-3.30706,-0.075864,-0.777708,-15.0509,0.164335,
2,1,0,1,0,7150.24,0.166099,0.165834,0.472738,6,0.0166408,11,7.83961e-05,-3.32538,-0.0815837,-0.723183,-13.3699,0.165834,
2,1,0,1,0,7150.54,0.167597,0.167291,0.453107,6,0.0167852,11,7.58007e-05,-3.3438,-0.0920615,-0.640876,-11.4056,0.167291,
2,1,0,1,0,7150.84,0.169095,0.168824,0.437561,6,0.0169247,11,7.3871e-05,-3.35896,-0.0953124,-0.619017,-10.6264,0.168824,
2,1,0,1,0,7151.14,0.170594,0.170301,0.42248,6,0.0170594,11,7.19485e-05,-3.37419,-0.0971105,-0.607555,-10.1033,0.170301,
2,1,0,1,0,7151.44,0.172091,0.171801,0.408577,6,0.0171895,11,7.01938e-05,-3.38873,-0.119783,-0.492557,-7.91288,0.171801,
2,1,0,1,0,7151.74,0.173589,0.173267,0.398995,6,0.0173161,11,6.91326e-05,-3.39903,-0.138242,-0.426789,-6.64686,0.1732669,
2,1,0,0,0,7152.04,0.175088,0.174788,0.389034,6,0.0174394,11,6.79985e-05,-3.41001,-0.138467,-0.426095,-6.47082,0.174788,
2,1,0,0,0,7152.34,0.176586,0.176306,0.379188,6,0.0175599,11,6.68529e-05,-3.42115,-0.150212,-0.392779,-5.80186,0.176306,
2,1,0,1,0,7152.64,0.178085,0.17782,0.369689,6,0.0176777,11,6.57381e-05,-3.43216,-0.155813,-0.378658,-5.47201,0.17782,
2,1,0,1,0,7152.94,0.179582,0.179286,0.364189,6,0.0177929,11,6.52942e-05,-3.43867,-0.179915,-0.327933,-4.65804,0.179286,
2,1,0,1,0,7153.24,0.18108,0.180779,0.355392,6,0.017906,11,6.42474e-05,-3.44929,-0.192038,-0.307232,-4.27588,0.180779,
2,1,0,1,0,7153.54,0.182579,0.182313,0.349093,6,0.0180175,11,6.3644e-05,-3.45706,-0.170109,-0.346835,-4.72833,0.182313,
2,1,0,1,0,7153.84,0.184077,0.183742,0.34415,6,0.0181269,11,6.3235e-05,-3.46325,-0.212085,-0.278191,-3.74546,0.183742,
2,1,0,1,0,7154.14,0.185576,0.185277,0.338482,6,0.0182345,11,6.27129e-05,-3.47047,-0.234754,-0.251327,-3.32984,0.185277,
2,1,0,1,0,7154.44,0.187074,0.186738,0.334026,6,0.0183409,11,6.23753e-05,-3.47622,-0.292826,-0.201485,-2.63307,0.186738,
2,1,0,1,0,7154.74,0.188571,0.188263,0.330937,6,0.0184458,11,6.23034e-05,-3.48025,-0.294844,-0.200106,-2.57526,0.188263,
2,1,0,0,0,7155.04,0.19007,0.189766,0.326966,6,0.0185498,11,6.20472e-05,-3.4855,-0.282996,-0.208483,-2.65072,0.189766,
2,1,0,0,0,7155.34,0.191568,0.191196,0.322863,6,0.0186521,11,6.17301e-05,-3.49098,-0.295085,-0.199942,-2.52053,0.191196,
2,1,0,1,0,7155.64,0.193067,0.192791,0.318569,6,0.0187536,11,6.14172e-05,-3.4968,-0.495092,-0.11917,-1.48058,0.192791,
2,1,0,1,0,7155.94,0.194564,0.194233,0.314987,6,0.0188544,11,6.11809e-05,-3.50171,-0.422848,-0.13953,-1.72653,0.194233,
2,1,0,1,0,7156.24,0.196062,0.195735,0.311971,6,0.0189541,11,6.10638e-05,-3.50589,-0.323796,-0.182213,-2.23349,0.195735,
2,1,0,1,0,7156.54,0.197561,0.197244,0.308301,6,0.0190529,11,6.08106e-05,-3.51103,-0.339688,-0.173689,-2.10394,0.197244,
2,1,0,1,0,7156.84,0.199059,0.198779,0.307503,6,0.0191509,11,6.11251e-05,-3.51215,-0.472524,-0.124861,-1.49519,0.198779,
2,1,0,1,0,7157.13,0.200557,0.200281,0.305596,6,0.0192482,11,6.12052e-05,-3.51485,-0.408887,-0.144294,-1.71731,0.200281,
2,1,0,1,0,7157.43,0.202056,0.201759,0.303902,6,0.0193449,11,6.13148e-05,-3.51727,-0.487703,-0.120975,-1.42852,0.201759,
2,1,0,1,0,7157.73,0.203553,0.203246,0.299314,6,0.0194408,11,6.08346e-05,-3.52387,-0.488576,-0.120759,-1.41588,0.203246,
2,1,0,1,0,7158.03,0.205051,0.204744,0.29803,6,0.019536,11,6.10199e-05,-3.52574,-2.20187,-0.0267954,-0.315365,0.2047441,
2,1,0,0,0,7158.33,0.20655,0.206302,0.295661,6,0.0196309,11,6.09956e-05,-3.52921,-0.467163,-0.126294,-1.46782,0.206302,
2,1,0,0,0,7158.63,0.208048,0.207804,0.295071,6,0.0197257,11,6.13169e-05,-3.53007,-0.401014,-0.147127,-1.6944,0.207804,
2,1,0,1,0,7158.93,0.209547,0.209315,0.293677,6,0.0198195,11,6.1471e-05,-3.53213,-0.607633,-0.097098,-1.11495,0.209315,
2,1,0,1,0,7159.23,0.211044,0.210758,0.293407,6,0.0199126,11,6.18379e-05,-3.53253,-0.943153,-0.0625561,-0.711656,0.210758,
2,1,0,1,0,7159.53,0.212542,0.212282,0.291768,6,0.0200055,11,6.1937e-05,-3.53496,-0.640091,-0.0921744,-1.04233,0.212282,
2,1,0,1,0,7159.83,0.214041,0.213723,0.289553,6,0.0200981,11,6.18841e-05,-3.53827,-1.09165,-0.0540465,-0.611683,0.213723,
2,1,0,1,0,7160.13,0.215539,0.215239,0.288876,6,0.0201901,11,6.21775e-05,-3.53929,-0.727575,-0.0810913,-0.913965,0.215239,
2,1,0,1,0,7160.43,0.217038,0.216757,0.286623,6,0.0202816,11,6.21276e-05,-3.54269,-0.84896,-0.0694968,-0.778618,0.216757,
2,1,0,1,0,7160.73,0.218535,0.218229,0.285331,6,0.0203729,11,6.22674e-05,-3.54465,8.13611,0.00725163,0.0805654,0.218229,
2,1,0,1,0,7161.03,0.220033,0.219766,0.284846,6,0.020464,11,6.25994e-05,-3.54539,-0.832891,-0.0708376,-0.788695,0.219766,
2,1,0,0,0,7161.33,0.221532,0.221224,0.282768,6,0.0205547,11,6.25551e-05,-3.54857,-0.703296,-0.0838907,-0.932545,0.221224,
2,1,0,0,0,7161.63,0.22303,0.222745,0.280519,6,0.0206449,11,6.24842e-05,-3.55204,-1.10388,-0.0534477,-0.589417,0.222745,
2,1,0,1,0,7161.93,0.224529,0.224268,0.282162,6,0.0207348,11,6.328e-05,-3.5495,-0.857062,-0.0688398,-0.756774,0.224268,
2,1,0,1,0,7162.23,0.226026,0.225704,0.281187,6,0.0208245,11,6.34649e-05,-3.551,-0.859711,-0.0686277,-0.751367,0.2257037,
2,1,0,1,0,7162.53,0.227524,0.227277,0.280154,6,0.020914,11,6.36726e-05,-3.5526,-1.31307,-0.044933,-0.488872,0.227277,
2,1,0,1,0,7162.83,0.229023,0.228722,0.278687,6,0.0210032,11,6.3742e-05,-3.55488,-0.544322,-0.108392,-1.18166,0.2287225,
2,1,0,1,0,7163.13,0.230521,0.230226,0.277612,6,0.0210919,11,6.39135e-05,-3.55656,-1.1089,-0.0532058,-0.579708,0.230226,
2,1,0,1,0,7163.43,0.232019,0.231718,0.27653,6,0.0211805,11,6.40769e-05,-3.55826,-0.800326,-0.07372,-0.798768,0.231718,
2,1,0,1,0,7163.73,0.233518,0.233232,0.276362,6,0.0212691,11,6.44563e-05,-3.55852,-0.575402,-0.102537,-1.10383,0.233232,
2,1,0,1,0,7164.03,0.235015,0.234755,0.275869,6,0.0213573,11,6.47617e-05,-3.5593,-1.3694,-0.0430847,-0.46227,0.234755,
2,1,0,1,0,7164.33,0.236513,0.236193,0.274551,6,0.021445,11,6.48471e-05,-3.56138,-0.749605,-0.0787081,-0.842428,0.236193,
2,1,0,0,0,7164.63,0.238012,0.237742,0.274002,6,0.0215328,11,6.51419e-05,-3.56225,-1.49953,-0.0393457,-0.420528,0.2377423,
2,1,0,0,0,7164.93,0.23951,0.239205,0.274456,6,0.0216204,11,6.56511e-05,-3.56153,-1.05102,-0.0561361,-0.598472,0.2392046,
2,1,0,1,0,7165.23,0.241009,0.24071,0.272615,6,0.0217077,11,6.5621e-05,-3.56445,-3.80517,-0.0155052,-0.165033,0.24071,
2,1,0,1,0,7165.52,0.242506,0.242249,0.271655,6,0.0217947,11,6.58081e-05,-3.56598,-3.74728,-0.0157447,-0.167168,0.242249,
2,1,0,1,0,7165.82,0.244004,0.243715,0.271023,6,0.0218816,11,6.60525e-05,-3.56699,18.9394,0.0031152,0.0328745,0.243715,
2,1,0,1,0,7166.12,0.245503,0.245228,0.271047,6,0.0219685,11,6.64683e-05,-3.56695,-6.38095,-0.00924627,-0.0978548,0.245228,
2,1,0,1,0,7166.42,0.247001,0.246721,0.270146,6,0.0220551,11,6.66507e-05,-3.5684,-1.72352,-0.0342323,-0.36065,0.246721,
2,1,0,1,0,7166.72,0.2485,0.248242,0.268941,6,0.0221415,11,6.67625e-05,-3.57034,-1.19957,-0.0491845,-0.517047,0.248242,
2,1,0,1,0,7167.02,0.249997,0.249704,0.269585,6,0.0222276,11,6.73164e-05,-3.5693,-1.023,-0.0576734,-0.604236,0.249704,
2,1,0,1,0,7167.32,0.251495,0.251196,0.269323,6,0.0223137,11,6.7653e-05,-3.56973,-1.73047,-0.0340949,-0.357477,0.251196,
2,1,0,0,0,7167.62,0.252994,0.252722,0.268773,6,0.0223997,11,6.79247e-05,-3.57061,-0.69943,-0.0843544,-0.88127,0.252722,
2,1,0,0,0,7167.92,0.254492,0.254185,0.267551,6,0.0224854,11,6.80075e-05,-3.57259,-6.90102,-0.00854946,-0.0893791,0.254185,
2,1,0,1,0,7168.22,0.255991,0.255695,0.266952,6,0.0225708,11,6.82582e-05,-3.57357,-3.67483,-0.0160552,-0.167554,0.255695,
2,1,0,1,0,7168.52,0.257488,0.25721,0.266346,6,0.0226563,11,6.8507e-05,-3.57455,19.0677,0.00309423,0.032287,0.25721,
2,1,0,1,0,7168.82,0.258986,0.258739,0.267533,6,0.0227417,11,6.92213e-05,-3.57262,-1.62104,-0.0363965,-0.377441,0.258739,
2,1,0,1,0,7169.12,0.260485,0.260271,0.266066,6,0.0228268,11,6.92493e-05,-3.57501,-1.48278,-0.03979,-0.412026,0.260271,
2,1,0,1,0,7169.42,0.261983,0.261686,0.264952,6,0.0229117,11,6.93344e-05,-3.57683,-13.0676,-0.00451498,-0.046787,0.261686,
2,1,0,1,0,7169.72,0.263481,0.26318,0.265972,6,0.0229965,11,6.99987e-05,-3.57516,-1.7938,-0.0328911,-0.339169,0.2631804,
2,1,0,1,0,7170.02,0.26498,0.264701,0.263536,6,0.0230814,11,6.97583e-05,-3.57916,-2.22553,-0.0265105,-0.273965,0.2647011,
2,1,0,1,0,7170.32,0.266477,0.266195,0.263212,6,0.0231659,11,7.00658e-05,-3.57969,-1.36533,-0.0432131,-0.44569,0.266195,
2,1,0,0,0,7170.62,0.267976,0.267693,0.261981,6,0.0232503,11,7.01306e-05,-3.58173,-1.55211,-0.0380127,-0.390934,0.267693,
2,1,0,0,0,7170.92,0.269474,0.269202,0.262812,6,0.0233345,11,7.07497e-05,-3.58035,-4.37276,-0.0134926,-0.138291,0.269202,
2,1,0,0,0,7171.22,0.270972,0.270695,0.263898,6,0.0234188,11,7.14361e-05,-3.57856,-2.0008,-0.0294882,-0.302011,0.270695,
2,1,0,1,0,7171.52,0.27247,0.272174,0.262585,6,0.0235029,11,7.14688e-05,-3.58073,-1.57106,-0.0375542,-0.383206,0.272174,
2,1,0,1,0,7171.82,0.273968,0.273711,0.260075,6,0.0235868,11,7.11855e-05,-3.5849,-1.61898,-0.0364426,-0.370912,0.273711,
2,1,0,1,0,7172.12,0.275466,0.275183,0.260473,6,0.0236706,11,7.16778e-05,-3.58424,-1.33928,-0.0440536,-0.448852,0.275183,
2,1,0,1,0,7172.42,0.276965,0.276673,0.259472,6,0.0237543,11,7.17888e-05,-3.58591,-1.36625,-0.043184,-0.439447,0.276673,
2,1,0,1,0,7172.72,0.278463,0.278181,0.260018,6,0.0238379,11,7.23321e-05,-3.585,-0.818573,-0.0720766,-0.730541,0.278181,
2,1,0,1,0,7173.02,0.279962,0.279689,0.259588,6,0.0239214,11,7.2604e-05,-3.58572,-6.09911,-0.00967354,-0.0980607,0.279689,
2,1,0,1,0,7173.32,0.281459,0.281179,0.258896,6,0.0240046,11,7.27961e-05,-3.58687,6.34122,0.00930421,0.0944633,0.281179,
2,1,0,1,0,7173.61,0.282957,0.282653,0.259369,6,0.0240878,11,7.33116e-05,-3.58608,-2.98403,-0.0197719,-0.199568,0.282653,
2,1,0,0,0,7173.91,0.284456,0.284189,0.258839,6,0.0241711,11,7.35594e-05,-3.58697,-20.6141,-0.00286211,-0.0287957,0.284189,
2,1,0,0,0,7174.21,0.285954,0.285691,0.258441,6,0.0242541,11,7.38341e-05,-3.58764,-12.3268,-0.00478631,-0.0482282,0.285691,
2,1,0,0,0,7174.51,0.287452,0.287177,0.257448,6,0.0243368,11,7.39333e-05,-3.58931,-1.45049,-0.040676,-0.409712,0.287177,
2,1,0,1,0,7174.81,0.28895,0.288639,0.25811,6,0.0244197,11,7.45006e-05,-3.58819,1.96263,0.0300617,0.30271,0.288639,
2,1,0,1,0,7175.11,0.290448,0.290136,0.257687,6,0.0245024,11,7.47641e-05,-3.58891,-2.84773,-0.0207183,-0.208392,0.290136,
2,1,0,1,0,7175.41,0.291947,0.29165,0.255921,6,0.024585,11,7.46394e-05,-3.59189,-6.12602,-0.00963106,-0.0969559,0.29165,
2,1,0,1,0,7175.71,0.293445,0.293158,0.255204,6,0.0246673,11,7.48152e-05,-3.59311,-2.84286,-0.0207537,-0.208708,0.293158,
2,1,0,1,0,7176.01,0.294943,0.294623,0.256084,6,0.0247496,11,7.54482e-05,-3.59162,-2.19996,-0.0268187,-0.267832,0.294623,
2,1,0,1,0,7176.31,0.296442,0.296157,0.257943,6,0.024832,11,7.63915e-05,-3.58848,-3.42173,-0.0172428,-0.171697,0.296157,
2,1,0,1,0,7176.61,0.297939,0.297703,0.25456,6,0.0249142,11,7.57834e-05,-3.59421,-1.48053,-0.0398507,-0.395624,0.297703,
2,1,0,1,0,7176.91,0.299437,0.299176,0.254501,6,0.0249962,11,7.61405e-05,-3.59431,-0.00166126,-35.5153,-132.914,0.299176,
2,1,0,1,0,7177.08,0.299737,0.299436,0.0564146,6,0.0250307,11,1.68925e-05,-4.24861,0.00053545,110.188,207.991,0.2994357,
2,1,0,1,0,7177.38,0.29824,0.297981,0.00442563,6,0.0250313,11,1.31875e-06,-5.35403,0.00310275,19.0154,72.8412,0.297981,
2,1,0,0,0,7177.68,0.296741,0.296445,-0.011544,6,0.0250245,11,-3.42215e-06,-4.93765,-0.0109838,-5.37154,9.01879,0.296445,
2,0,0,0,0,7177.98,0.295243,0.294943,-0.0230467,6,0.0250137,11,-6.79746e-06,-4.63739,-0.00673204,-8.76406,6.03511,0.294943,
2,0,0,1,0,7178.28,0.293744,0.293437,-0.0304256,6,0.0250003,11,-8.92798e-06,-4.51676,-0.0122443,-4.81856,5.24426,0.293437,
2,0,0,1,0,7178.58,0.292246,0.291959,-0.0378366,6,0.0249847,11,-1.10467e-05,-4.42209,-0.0185399,-3.18232,4.37004,0.291959,
2,0,0,1,0,7178.88,0.290749,0.290459,-0.0448826,6,0.024967,11,-1.30365e-05,-4.34792,-0.0240862,-2.44953,4.01549,0.290459,
2,0,0,1,0,7179.18,0.28925,0.288951,-0.0494289,6,0.0249476,11,-1.42826e-05,-4.30602,-0.0317522,-1.85814,3.49485,0.288951,
2,0,0,1,0,7179.48,0.287752,0.287459,-0.053398,6,0.0249267,11,-1.53498e-05,-4.27247,-0.0438371,-1.34589,2.83145,0.287459,
2,0,0,1,0,7179.78,0.286253,0.285972,-0.0585316,6,0.0249044,11,-1.67384e-05,-4.23261,-0.0440935,-1.33806,3.03349,0.285972,
2,0,0,1,0,7180.08,0.284755,0.284475,-0.0621005,6,0.0248807,11,-1.76661e-05,-4.20691,-0.0501826,-1.17571,2.82329,0.284475,
2,0,0,1,0,7180.38,0.283257,0.282961,-0.0668598,6,0.0248557,11,-1.89188e-05,-4.17483,-0.0608847,-0.969044,2.50922,0.282961,
2,0,0,0,0,7180.68,0.281759,0.281486,-0.0700125,6,0.0248296,11,-1.97075e-05,-4.15482,-0.0606277,-0.973152,2.66164,0.281486,
2,0,0,0,0,7180.98,0.280261,0.279952,-0.0729129,6,0.0248024,11,-2.04121e-05,-4.1372,-0.0699244,-0.843768,2.4198,0.279952,
2,0,0,0,0,7181.28,0.278763,0.278419,-0.0776713,6,0.0247743,11,-2.16252e-05,-4.10974,-0.0839169,-0.703077,2.0991,0.278419,
2,0,0,1,0,7181.58,0.277264,0.276987,-0.0814801,6,0.024745,11,-2.25689e-05,-4.08895,-0.119883,-0.492149,1.53126,0.276987,
2,0,0,1,0,7181.88,0.275766,0.275464,-0.0833958,6,0.0247147,11,-2.29726e-05,-4.07886,-0.101448,-0.581577,1.88781,0.275464,
2,0,0,1,0,7182.18,0.274269,0.273987,-0.0858779,6,0.0246836,11,-2.35295e-05,-4.06612,-0.0980451,-0.601764,2.06535,0.2739875,
2,0,0,1,0,7182.47,0.27277,0.272462,-0.0890083,6,0.0246518,11,-2.42514e-05,-4.05057,-0.0926808,-0.636593,2.25754,0.272462,
2,0,0,1,0,7182.77,0.271272,0.270948,-0.0929977,6,0.0246188,11,-2.51975e-05,-4.03153,-0.120486,-0.489682,1.77741,0.2709479,
2,0,0,1,0,7183.07,0.269773,0.269453,-0.0967147,6,0.0245849,11,-2.60601e-05,-4.01451,-0.163455,-0.360955,1.34014,0.269453,
2,0,0,1,0,7183.37,0.268275,0.267981,-0.0984961,6,0.0245504,11,-2.6395e-05,-4.00658,-0.133663,-0.441409,1.67773,0.267981,
2,0,0,1,0,7183.67,0.266778,0.26654,-0.100159,6,0.0245153,11,-2.66963e-05,-3.99931,-0.134766,-0.437795,1.70312,0.26654,
2,0,0,0,0,7183.97,0.265279,0.264969,-0.102809,6,0.0244791,11,-2.72412e-05,-3.98797,-0.146664,-0.40228,1.60375,0.264969,
2,0,0,0,0,7184.27,0.263781,0.26346,-0.105707,6,0.0244423,11,-2.78496e-05,-3.9759,-0.151894,-0.388428,1.59963,0.26346,
2,0,0,1,0,7184.57,0.262282,0.261954,-0.107719,6,0.0244046,11,-2.82175e-05,-3.96771,-0.159396,-0.370146,1.5731,0.261954,
2,0,0,1,0,7184.87,0.260784,0.26047,-0.108798,6,0.0243665,11,-2.83385e-05,-3.96338,-0.141384,-0.417302,1.80858,0.26047,
2,0,0,1,0,7185.17,0.259286,0.259002,-0.112329,6,0.0243275,11,-2.90934e-05,-3.94951,-0.109866,-0.537016,2.35096,0.259002,
2,0,0,1,0,7185.47,0.257788,0.257478,-0.117594,6,0.0242877,11,-3.02777e-05,-3.92962,-0.162386,-0.363332,1.62765,0.257478,
2,0,0,1,0,7185.77,0.25629,0.255983,-0.117765,6,0.0242473,11,-3.01458e-05,-3.92898,-0.190192,-0.310213,1.41325,0.255983,
2,0,0,1,0,7186.07,0.254791,0.254471,-0.11887,6,0.0242062,11,-3.02489e-05,-3.92493,-0.179595,-0.328517,1.5272,0.254471,
2,0,0,1,0,7186.37,0.253293,0.253033,-0.122074,6,0.0241646,11,-3.08887e-05,-3.91338,-0.200433,-0.294363,1.39841,0.253033,
2,0,0,1,0,7186.67,0.251795,0.251535,-0.125031,6,0.0241222,11,-3.14497e-05,-3.90298,-0.194847,-0.302802,1.46579,0.251535,
2,0,0,0,0,7186.97,0.250297,0.249975,-0.124717,6,0.0240792,11,-3.11761e-05,-3.90408,-0.247269,-0.238607,1.1712,0.249975,
2,0,0,0,0,7187.27,0.248799,0.248461,-0.12812,6,0.0240354,11,-3.18328e-05,-3.89238,-0.196093,-0.300878,1.51407,0.248461,
2,0,0,0,0,7187.57,0.247301,0.24704,-0.130393,6,0.0239913,11,-3.22123e-05,-3.88474,-0.171794,-0.343435,1.7688,0.24704,
2,0,0,1,0,7187.87,0.245802,0.245527,-0.133338,6,0.0239464,11,-3.2738e-05,-3.87505,-0.200723,-0.293938,1.5178,0.245527,
2,0,0,1,0,7188.17,0.244304,0.244052,-0.136304,6,0.0239007,11,-3.32653e-05,-3.86549,-0.249701,-0.236283,1.23862,0.244052,
2,0,0,1,0,7188.47,0.242806,0.242518,-0.137474,6,0.0238544,11,-3.334e-05,-3.86178,-0.226385,-0.260618,1.38954,0.2425184,
2,0,0,1,0,7188.77,0.241308,0.241041,-0.138119,6,0.0238078,11,-3.32923e-05,-3.85975,-0.215104,-0.274286,1.49091,0.241041,
2,0,0,1,0,7189.07,0.23981,0.239517,-0.140616,6,0.0237604,11,-3.368e-05,-3.85196,-0.168911,-0.349296,1.90099,0.239517,
2,0,0,1,0,7189.37,0.238311,0.23802,-0.143033,6,0.0237122,11,-3.40446e-05,-3.84456,-0.18416,-0.320373,1.78797,0.23802,
2,0,0,1,0,7189.67,0.236813,0.236517,-0.143949,6,0.0236636,11,-3.40462e-05,-3.84179,-0.257328,-0.229279,1.2967,0.236517,
2,0,0,1,0,7189.97,0.235316,0.235003,-0.145936,6,0.0236144,11,-3.42953e-05,-3.83584,-0.286015,-0.206283,1.17867,0.235003,
2,0,0,0,0,7190.27,0.233817,0.233506,-0.149252,6,0.0235646,11,-3.48512e-05,-3.82608,-0.249659,-0.236322,1.37403,0.233506,
2,0,0,0,0,7190.57,0.232319,0.232024,-0.151422,6,0.023514,11,-3.51335e-05,-3.81981,-0.228227,-0.258515,1.52322,0.232024,
2,0,0,1,0,7190.86,0.23082,0.23051,-0.154131,6,0.0234628,11,-3.55287e-05,-3.81211,-0.240164,-0.245666,1.46176,0.23051,
2,0,0,1,0,7191.16,0.229322,0.229007,-0.153499,6,0.0234111,11,-3.51523e-05,-3.81389,-0.238494,-0.247386,1.49769,0.229007,
2,0,0,1,0,7191.46,0.227825,0.227491,-0.157133,6,0.0233589,11,-3.57463e-05,-3.80373,-0.281105,-0.209886,1.29712,0.227491,
2,0,0,1,0,7191.76,0.226326,0.226044,-0.159847,6,0.0233059,11,-3.61324e-05,-3.7963,-0.320854,-0.183884,1.14634,0.226044,
2,0,0,1,0,7192.06,0.224828,0.224537,-0.162118,6,0.0232523,11,-3.64014e-05,-3.79017,-0.379227,-0.155579,0.974942,0.224537,
2,0,0,1,0,7192.36,0.223329,0.22306,-0.162945,6,0.023198,11,-3.63464e-05,-3.78796,-0.217899,-0.270767,1.7314,0.22306,
2,0,0,1,0,7192.66,0.221831,0.221546,-0.16669,6,0.0231433,11,-3.69295e-05,-3.77809,-0.270308,-0.21827,1.41503,0.221546,
2,0,0,1,0,7192.96,0.220333,0.220068,-0.167847,6,0.0230877,11,-3.69377e-05,-3.77509,-0.242089,-0.243712,1.59689,0.220068,
2,0,0,0,0,7193.26,0.218835,0.218563,-0.170638,6,0.0230314,11,-3.72952e-05,-3.76792,-0.286782,-0.205731,1.36884,0.218563,
2,0,0,0,0,7193.56,0.217337,0.21703,-0.174076,6,0.0229745,11,-3.77797e-05,-3.75926,-0.306687,-0.192378,1.30047,0.21703,
2,0,0,0,0,7193.86,0.215839,0.215525,-0.174602,6,0.0229172,11,-3.7631e-05,-3.75795,-0.239905,-0.245931,1.67644,0.215525,
2,0,0,1,0,7194.16,0.21434,0.214026,-0.176753,6,0.0228589,11,-3.78298e-05,-3.75263,-0.172885,-0.341268,2.35172,0.214026,
2,0,0,1,0,7194.46,0.212842,0.212515,-0.178405,6,0.0227999,11,-3.79139e-05,-3.74859,-0.222995,-0.264579,1.85755,0.2125155,
2,0,0,1,0,7194.76,0.211344,0.211048,-0.18298,6,0.0227403,11,-3.86174e-05,-3.7376,-0.269551,-0.218882,1.55223,0.2110476,
2,0,0,1,0,7195.06,0.209846,0.209538,-0.182718,6,0.0226799,11,-3.82864e-05,-3.73822,-0.227344,-0.259519,1.85475,0.209538,
2,0,0,1,0,7195.36,0.208348,0.208057,-0.186839,6,0.0226189,11,-3.88731e-05,-3.72853,-0.245726,-0.240105,1.74573,0.208057,
2,0,0,1,0,7195.66,0.206849,0.20656,-0.19257,6,0.0225567,11,-3.97772e-05,-3.71541,-0.244881,-0.240934,1.77506,0.20656,
2,0,0,1,0,7195.96,0.205351,0.205048,-0.19192,6,0.0224937,11,-3.93529e-05,-3.71688,-0.352323,-0.16746,1.25401,0.205048,
2,0,0,1,0,7196.26,0.203854,0.203572,-0.193761,6,0.0224301,11,-3.94443e-05,-3.71273,-0.210715,-0.279999,2.13485,0.203572,
2,0,0,0,0,7196.56,0.202355,0.202071,-0.196053,6,0.0223659,11,-3.96166e-05,-3.70763,-0.240623,-0.245197,1.90208,0.202071,
2,0,0,0,0,7196.86,0.200857,0.200569,-0.199825,6,0.0223006,11,-4.00787e-05,-3.69935,-0.241113,-0.244698,1.91635,0.200569,
2,0,0,1,0,7197.16,0.199358,0.199066,-0.203392,6,0.0222343,11,-4.04885e-05,-3.69167,-0.282617,-0.208763,1.65113,0.199066,
2,0,0,1,0,7197.46,0.19786,0.197597,-0.207435,6,0.0221672,11,-4.09887e-05,-3.68312,-0.20794,-0.283735,2.29181,0.1975974,
2,0,0,1,0,7197.76,0.196363,0.196036,-0.210083,6,0.0220993,11,-4.11838e-05,-3.67761,-0.193618,-0.304723,2.49683,0.196036,
2,0,0,1,0,7198.06,0.194864,0.194586,-0.21433,6,0.0220301,11,-4.17056e-05,-3.66892,-0.188444,-0.31309,2.61625,0.194586,
2,0,0,1,0,7198.36,0.193366,0.193093,-0.217203,6,0.0219596,11,-4.19403e-05,-3.66313,-0.212746,-0.277327,2.36264,0.193093,
2,0,0,1,0,7198.66,0.191867,0.191572,-0.220221,6,0.0218882,11,-4.21881e-05,-3.65714,-0.195249,-0.302178,2.63758,0.191572,
2,0,0,1,0,7198.95,0.190369,0.190113,-0.22494,6,0.0218159,11,-4.27639e-05,-3.64793,-0.172508,-0.342014,3.02634,0.190113,
2,0,0,1,0,7199.25,0.188871,0.188548,-0.229847,6,0.0217419,11,-4.33372e-05,-3.63856,-0.14094,-0.418617,3.75091,0.188548,
2,0,0,0,0,7199.55,0.187373,0.187077,-0.235095,6,0.0216667,11,-4.39809e-05,-3.62876,-0.167625,-0.351975,3.2268,0.187077,
2,0,0,0,0,7199.85,0.185875,0.185555,-0.240395,6,0.02159,11,-4.46066e-05,-3.61907,-0.174708,-0.337707,3.15399,0.185555,
2,0,0,0,0,7200.15,0.184377,0.184069,-0.24346,6,0.021512,11,-4.48133e-05,-3.61357,-0.159204,-0.370593,3.5521,0.184069,
2,0,0,1,0,7200.45,0.182878,0.182585,-0.251274,6,0.0214324,11,-4.58788e-05,-3.59985,-0.147664,-0.399556,3.90807,0.182585,
2,0,0,1,0,7200.75,0.181381,0.181092,-0.257485,6,0.0213508,11,-4.66286e-05,-3.58925,-0.137872,-0.427932,4.29533,0.181092,
2,0,0,1,0,7201.05,0.179882,0.17958,-0.26238,6,0.0212674,11,-4.71183e-05,-3.58107,-0.152082,-0.38795,3.97931,0.17958,
2,0,0,1,0,7201.35,0.178384,0.178077,-0.269341,6,0.021182,11,-4.79635e-05,-3.5697,-0.132635,-0.444829,4.70129,0.178077,
2,0,0,1,0,7201.65,0.176886,0.176583,-0.276615,6,0.0210948,11,-4.88456e-05,-3.55812,-0.118046,-0.499807,5.41994,0.176583,
2,0,0,1,0,7201.95,0.175387,0.175068,-0.285688,6,0.021005,11,-5.00147e-05,-3.54411,-0.120847,-0.488219,5.4405,0.175068,
2,0,0,1,0,7202.25,0.173889,0.1736,-0.293947,6,0.0209127,11,-5.10291e-05,-3.53173,-0.116592,-0.506036,5.79656,0.1736,
2,0,0,1,0,7202.55,0.172392,0.172098,-0.304793,6,0.0208176,11,-5.24544e-05,-3.51599,-0.103691,-0.568997,6.74319,0.172098,
2,0,0,0,0,7202.85,0.170893,0.17065,-0.313677,6,0.0207198,11,-5.3529e-05,-3.50352,-0.0961631,-0.613541,7.52363,0.17065,
2,0,0,0,0,7203.15,0.169395,0.169103,-0.324974,6,0.0206186,11,-5.49542e-05,-3.48815,-0.0882316,-0.668695,8.48185,0.169103,
2,0,0,1,0,7203.45,0.167896,0.16762,-0.337861,6,0.0205134,11,-5.66325e-05,-3.47126,-0.0882057,-0.668891,8.85096,0.16762,
2,0,0,1,0,7203.75,0.166398,0.166122,-0.349952,6,0.0204045,11,-5.81349e-05,-3.45599,-0.0860165,-0.685915,9.4764,0.166122,
2,0,0,1,0,7204.05,0.164901,0.164584,-0.364014,6,0.0202917,11,-5.99109e-05,-3.43888,-0.0760334,-0.775975,11.1706,0.164584,
2,0,0,1,0,7204.35,0.163402,0.163111,-0.384171,6,0.0201737,11,-6.26624e-05,-3.41548,-0.0712847,-0.827668,12.4231,0.1631109,
2,0,0,1,0,7204.65,0.161904,0.161598,-0.403542,6,0.0200502,11,-6.52114e-05,-3.39411,-0.0705027,-0.836847,13.154,0.1615977,
2,0,0,1,0,7204.95,0.160405,0.160096,-0.424281,6,0.0199209,11,-6.79256e-05,-3.37235,-0.0697747,-0.845579,13.958,0.160096,
2,0,0,1,0,7205.25,0.158907,0.158583,-0.443178,6,0.0197852,11,-7.02805e-05,-3.35342,-0.0641608,-0.919565,16.0128,0.158583,
2,0,0,1,0,7205.55,0.157409,0.157108,-0.470233,6,0.0196429,11,-7.38775e-05,-3.32769,-0.0632184,-0.933273,17.2023,0.157108,
2,0,0,0,0,7205.85,0.155911,0.155615,-0.496572,6,0.0194924,11,-7.72739e-05,-3.30402,-0.062928,-0.937579,18.2259,0.155615,
2,0,0,0,0,7206.15,0.154413,0.154086,-0.524681,6,0.0193335,11,-8.0846e-05,-3.2801,-0.0670203,-0.88033,17.9579,0.154086,
2,0,0,0,0,7206.45,0.152915,0.152633,-0.554691,6,0.019166,11,-8.46642e-05,-3.25595,-0.0654745,-0.901114,19.5211,0.152633,
2,0,0,1,0,7206.75,0.151416,0.151129,-0.585954,6,0.0189901,11,-8.85548e-05,-3.23214,-0.0635698,-0.928114,21.2336,0.1511292,
2,0,0,1,0,7207.05,0.149919,0.149592,-0.617921,6,0.0188045,11,-9.24361e-05,-3.20907,-0.0675231,-0.873775,20.9791,0.149592,
2,0,0,1,0,7207.34,0.14842,0.148134,-0.648933,6,0.0186089,11,-9.61288e-05,-3.1878,-0.0712628,-0.827921,20.9359,0.148134,
2,0,0,1,0,7207.64,0.146922,0.146596,-0.680221,6,0.0184042,11,-9.97177e-05,-3.16735,-0.0778183,-0.758177,20.0831,0.146596,
2,0,0,1,0,7207.94,0.145424,0.145085,-0.709641,6,0.0181908,11,-0.000102958,-3.14896,-0.0850571,-0.693651,19.1837,0.145085,
2,0,0,1,0,7208.24,0.143925,0.143645,-0.739374,6,0.0179681,11,-0.000106207,-3.13114,-0.0834992,-0.706594,20.2915,0.143645,
2,0,0,1,0,7208.54,0.142427,0.142153,-0.768395,6,0.0177367,11,-0.00010923,-3.11442,-0.104208,-0.566177,16.8771,0.142153,
2,0,0,1,0,7208.84,0.14093,0.140613,-0.790443,6,0.0174976,11,-0.000111146,-3.10213,-0.128988,-0.457407,14.0803,0.140613,
2,0,0,0,0,7209.14,0.139431,0.139171,-0.806484,6,0.0172524,11,-0.000112239,-3.0934,-0.141789,-0.416111,13.1256,0.139171,
2,0,0,0,0,7209.44,0.137933,0.137628,-0.828945,6,0.0170015,11,-0.000114086,-3.08147,-0.173594,-0.339873,10.9482,0.137628,
2,0,0,1,0,7209.74,0.136434,0.136107,-0.845499,6,0.0167453,11,-0.000115079,-3.07289,-0.212927,-0.277091,9.07394,0.136107,
2,0,0,1,0,7210.04,0.134936,0.13464,-0.856156,6,0.0164852,11,-0.000115273,-3.06745,-0.352672,-0.167294,5.53948,0.13464,
2,0,0,1,0,7210.34,0.133439,0.133156,-0.858902,6,0.0162224,11,-0.000114368,-3.06606,-0.441371,-0.133674,4.48934,0.1331559,
2,0,0,1,0,7210.64,0.13194,0.131606,-0.863965,6,0.0159585,11,-0.000113703,-3.0635,-0.941804,-0.0626457,2.11789,0.131606,
2,0,0,1,0,7210.94,0.130442,0.13015,-0.868144,6,0.0156929,11,-0.000112989,-3.06141,-2.70739,-0.0217922,0.736731,0.13015,
2,0,0,1,0,7211.24,0.128943,0.128658,-0.868056,6,0.0154269,11,-0.000111682,-3.06145,0.739282,0.0798071,-2.69088,0.128658,
2,0,0,1,0,7211.54,0.127445,0.127132,-0.863576,6,0.0151619,11,-0.000109788,-3.0637,0.592608,0.09956,-3.34803,0.127132,
2,0,0,1,0,7211.84,0.125947,0.125683,-0.857081,6,0.0148992,11,-0.00010772,-3.06698,0.451841,0.130577,-4.35794,0.125683,
2,0,0,0,0,7212.14,0.124449,0.124154,-0.851423,6,0.0146378,11,-0.000105707,-3.06985,0.415182,0.142106,-4.70002,0.124154,
2,0,0,0,0,7212.44,0.122951,0.122637,-0.841813,6,0.0143788,11,-0.000103238,-3.07478,0.31411,0.187832,-6.15612,0.1226373,
2,0,0,0,0,7212.74,0.121453,0.121128,-0.829834,6,0.0141227,11,-0.000100516,-3.08101,0.245757,0.240075,-7.77561,0.121128,
2,0,0,1,0,7213.04,0.119954,0.119637,-0.815532,6,0.0138705,11,-9.75681e-05,-3.08856,0.243445,0.242355,-7.74871,0.119637,
2,0,0,1,0,7213.34,0.118456,0.118166,-0.804906,6,0.0136219,11,-9.51124e-05,-3.09425,0.27564,0.214047,-6.7253,0.118166,
2,0,0,1,0,7213.64,0.116958,0.116626,-0.796076,6,0.0133763,11,-9.2843e-05,-3.09905,0.20151,0.29279,-9.0511,0.116626,
2,0,0,1,0,7213.94,0.11546,0.115152,-0.78039,6,0.013135,11,-8.98634e-05,-3.10769,0.180776,0.326371,-9.92147,0.115152,
2,0,0,1,0,7214.24,0.113962,0.113655,-0.761117,6,0.0128985,11,-8.65044e-05,-3.11855,0.182108,0.323984,-9.65655,0.113655,
2,0,0,1,0,7214.54,0.112463,0.112179,-0.750007,6,0.0126665,11,-8.41347e-05,-3.12493,0.176994,0.333345,-9.75382,0.1121785,
2,0,0,1,0,7214.84,0.110965,0.110622,-0.736654,6,0.0124383,11,-8.14899e-05,-3.13274,0.175275,0.336615,-9.65244,0.110622,
2,0,0,1,0,7215.14,0.109468,0.109141,-0.720358,6,0.0122144,11,-7.86204e-05,-3.14245,0.155486,0.379456,-10.665,0.109141,
2,0,0,0,0,7215.44,0.107969,0.10766,-0.705644,6,0.011995,11,-7.59697e-05,-3.15141,0.178818,0.329944,-9.1247,0.10766,
2,0,0,0,0,7215.73,0.106471,0.106193,-0.693851,6,0.01178,11,-7.36818e-05,-3.15873,0.191681,0.307803,-8.36421,0.106193,
2,0,0,1,0,7216.03,0.104972,0.104691,-0.680319,6,0.0115685,11,-7.1223e-05,-3.16729,0.198503,0.297225,-7.90785,0.104691,
2,0,0,1,0,7216.33,0.103474,0.103164,-0.671532,6,0.0113603,11,-6.92779e-05,-3.17293,0.192709,0.306161,-7.98444,0.103164,
2,0,0,1,0,7216.63,0.101977,0.101672,-0.659078,6,0.0111559,11,-6.701e-05,-3.18106,0.214031,0.275661,-7.08479,0.101672,
2,0,0,1,0,7216.93,0.100478,0.100188,-0.646855,6,0.0109551,11,-6.48074e-05,-3.18919,0.2199,0.268304,-6.78328,0.100188,
2,0,0,1,0,7217.23,0.0989799,0.0986933,-0.638867,6,0.010757,11,-6.30519e-05,-3.19459,0.27227,0.216697,-5.38519,0.0986933,
2,0,0,1,0,7217.53,0.0974812,0.0972103,-0.630055,6,0.0105613,11,-6.12479e-05,-3.20062,0.253925,0.232352,-5.71802,0.0972103,
2,0,0,1,0,7217.83,0.0959834,0.095656,-0.621116,6,0.0103684,11,-5.94135e-05,-3.20683,0.278884,0.211557,-5.1476,0.095656,
2,0,0,1,0,7218.13,0.0944855,0.0941636,-0.611621,6,0.0101783,11,-5.75924e-05,-3.21352,0.301651,0.19559,-4.69423,0.0941636,
2,0,0,0,0,7218.43,0.0929871,0.0927254,-0.606092,6,0.00998986,11,-5.62001e-05,-3.21746,0.500087,0.11798,-2.79566,0.0927254,
2,0,0,0,0,7218.73,0.0914889,0.091192,-0.604762,6,0.00980309,11,-5.51494e-05,-3.21842,0.352041,0.167594,-3.93127,0.091192,
2,0,0,0,0,7219.03,0.0899907,0.0896724,-0.596872,6,0.00961821,11,-5.3523e-05,-3.22412,0.338156,0.174475,-4.04684,0.0896724,
2,0,0,1,0,7219.33,0.0884923,0.088196,-0.585906,6,0.00943539,11,-5.16746e-05,-3.23217,0.366301,0.16107,-3.70614,0.088196,
2,0,0,1,0,7219.63,0.0869946,0.0867037,-0.584452,6,0.0092545,11,-5.06742e-05,-3.23325,0.407644,0.144734,-3.30271,0.08670374,
2,0,0,1,0,7219.93,0.0854962,0.0851912,-0.580142,6,0.00907458,11,-4.9423e-05,-3.23647,0.432465,0.136427,-3.08768,0.08519116,
2,0,0,1,0,7220.23,0.083998,0.0836981,-0.574567,6,0.00889617,11,-4.80902e-05,-3.24066,0.305206,0.193312,-4.33385,0.0836981,
2,0,0,1,0,7220.53,0.0824998,0.0821849,-0.570805,6,0.00871933,11,-4.69116e-05,-3.24351,0.383646,0.153788,-3.42976,0.0821849,
2,0,0,1,0,7220.83,0.0810014,0.0807149,-0.56527,6,0.0085443,11,-4.56257e-05,-3.24774,0.463211,0.127372,-2.81565,0.0807149,
2,0,0,1,0,7221.13,0.0795035,0.0791957,-0.561433,6,0.00837037,11,-4.44631e-05,-3.2507,0.44119,0.133729,-2.92642,0.0791957,
2,0,0,1,0,7221.43,0.0780056,0.0777029,-0.557074,6,0.0081977,11,-4.32862e-05,-3.25409,0.347106,0.169977,-3.67832,0.0777029,
2,0,0,0,0,7221.73,0.076507,0.0761809,-0.551129,6,0.00802645,11,-4.19855e-05,-3.25875,0.364965,0.161659,-3.46973,0.07618089,
2,0,0,0,0,7222.03,0.0750088,0.0747239,-0.546445,6,0.00785733,11,-4.08325e-05,-3.26245,0.370105,0.159414,-3.39307,0.0747239,
2,0,0,1,0,7222.33,0.0735103,0.0731828,-0.540555,6,0.00768926,11,-3.95593e-05,-3.26716,0.560367,0.105288,-2.21239,0.0731828,
2,0,0,1,0,7222.63,0.0720124,0.0717018,-0.534247,6,0.00752272,11,-3.83065e-05,-3.27226,0.312767,0.188639,-3.93951,0.07170181,
2,0,0,1,0,7222.93,0.0705146,0.0701889,-0.527816,6,0.00735789,11,-3.70468e-05,-3.27752,0.354381,0.166488,-3.44303,0.0701889,
2,0,0,1,0,7223.23,0.0690161,0.0686997,-0.521741,6,0.007195,11,-3.58434e-05,-3.28255,0.347084,0.169988,-3.47442,0.0686997,
2,0,0,1,0,7223.53,0.0675179,0.0672268,-0.517614,6,0.00703362,11,-3.47975e-05,-3.28599,0.323712,0.18226,-3.67782,0.0672268,
2,0,0,1,0,7223.82,0.0660192,0.0657109,-0.514397,6,0.00687385,11,-3.38015e-05,-3.2887,0.295583,0.199606,-3.98089,0.0657109,
2,0,0,1,0,7224.12,0.0645214,0.0641992,-0.505824,6,0.00671578,11,-3.24735e-05,-3.296,0.279195,0.211322,-4.15382,0.0641992,
2,0,0,1,0,7224.42,0.0630235,0.0627351,-0.495829,6,0.00655978,11,-3.11059e-05,-3.30467,0.274076,0.215269,-4.1961,0.0627351,
2,0,0,0,0,7224.72,0.0615251,0.0612249,-0.492535,6,0.00640594,11,-3.01554e-05,-3.30756,0.246808,0.239053,-4.60681,0.0612249,
2,0,0,0,0,7225.02,0.0600269,0.0597,-0.48642,6,0.00625373,11,-2.90393e-05,-3.31299,0.245697,0.240133,-4.5672,0.0597,
2,0,0,0,0,7225.32,0.0585287,0.0582229,-0.481028,6,0.00610333,11,-2.80068e-05,-3.31783,0.227624,0.259199,-4.84197,0.0582229,
2,0,0,1,0,7225.62,0.0570303,0.0566916,-0.474133,6,0.00595483,11,-2.68794e-05,-3.3241,0.253865,0.232407,-4.3073,0.0566916,
2,0,0,1,0,7225.92,0.0555325,0.0552612,-0.468862,6,0.00580867,11,-2.59099e-05,-3.32896,0.298134,0.197897,-3.62388,0.0552612,
2,0,0,1,0,7226.22,0.0540342,0.0536844,-0.463427,6,0.00566371,11,-2.48788e-05,-3.33402,0.280636,0.210237,-3.78562,0.0536844,
2,0,0,1,0,7226.52,0.052536,0.0522496,-0.457037,6,0.00552039,11,-2.388e-05,-3.34005,0.242688,0.24311,-4.33148,0.0522496,
2,0,0,1,0,7226.82,0.0510378,0.0507417,-0.451734,6,0.005379,11,-2.29218e-05,-3.34512,0.249154,0.236802,-4.17463,0.0507417,
2,0,0,1,0,7227.12,0.0495394,0.0492495,-0.446193,6,0.00523969,11,-2.19748e-05,-3.35048,0.295021,0.199986,-3.47855,0.04924947,
2,0,0,1,0,7227.42,0.0480415,0.0477494,-0.441271,6,0.00510155,11,-2.10704e-05,-3.35529,0.453032,0.130234,-2.23592,0.0477494,
2,0,0,1,0,7227.72,0.0465436,0.0462112,-0.43527,6,0.00496487,11,-2.01143e-05,-3.36124,0.356042,0.165711,-2.82649,0.0462112,
2,0,0,0,0,7228.02,0.045045,0.0447579,-0.431156,6,0.00482951,11,-1.92976e-05,-3.36537,0.313414,0.18825,-3.17215,0.0447579,
2,0,0,0,0,7228.32,0.0435468,0.0432934,-0.425683,6,0.00469564,11,-1.84293e-05,-3.37091,0.375278,0.157217,-2.62393,0.0432934,
2,0,0,1,0,7228.62,0.0420483,0.0417299,-0.425019,6,0.00456299,11,-1.7736e-05,-3.37159,0.511052,0.115448,-1.90936,0.0417299,
2,0,0,1,0,7228.92,0.0405504,0.0402629,-0.422834,6,0.00443109,11,-1.70245e-05,-3.37383,0.435593,0.135448,-2.2159,0.0402629,
2,0,0,1,0,7229.22,0.0390526,0.0387711,-0.417815,6,0.00430012,11,-1.61991e-05,-3.37902,0.405188,0.145612,-2.36625,0.0387711,
2,0,0,1,0,7229.52,0.0375541,0.0372364,-0.41284,6,0.00417024,11,-1.53727e-05,-3.38422,0.472333,0.124912,-2.02223,0.0372364,
2,0,0,1,0,7229.82,0.0360559,0.0357571,-0.411651,6,0.0040414,11,-1.47194e-05,-3.38547,0.690777,0.085411,-1.37577,0.0357571,
2,0,0,1,0,7230.12,0.0345572,0.0342424,-0.408959,6,0.00391298,11,-1.40037e-05,-3.38832,0.576686,0.102309,-1.63708,0.0342424,
2,0,0,1,0,7230.42,0.0330594,0.0327497,-0.408065,6,0.00378506,11,-1.3364e-05,-3.38927,0.525662,0.112239,-1.78249,0.03274972,
2,0,0,1,0,7230.72,0.0315615,0.0312368,-0.405729,6,0.00365777,11,-1.26737e-05,-3.39176,0.848237,0.0695561,-1.10305,0.03123679,
2,0,0,0,0,7231.02,0.0300631,0.0297817,-0.404465,6,0.00353116,11,-1.20457e-05,-3.39312,1.21469,0.0485721,-0.76684,0.0297817,
2,0,0,0,0,7231.32,0.0285649,0.0282495,-0.403834,6,0.00340457,11,-1.14081e-05,-3.3938,1.81856,0.0324432,-0.51066,0.0282495,
2,0,0,0,0,7231.62,0.0270667,0.0268115,-0.403007,6,0.0032781,11,-1.08052e-05,-3.39469,1.54938,0.0380797,-0.598549,0.0268115,
2,0,0,1,0,7231.92,0.0255683,0.0253204,-0.402281,6,0.00315196,11,-1.01859e-05,-3.39547,1.31371,0.044911,-0.706564,0.0253204,
2,0,0,1,0,7232.21,0.0240706,0.0237769,-0.401992,6,0.00302636,11,-9.55811e-06,-3.39578,3.68845,0.0159959,-0.25184,0.0237769,
2,0,0,1,0,7232.51,0.0225722,0.0222783,-0.401061,6,0.00290043,11,-8.93495e-06,-3.39679,-0.844372,-0.0698744,1.09289,0.0222783,
2,0,0,1,0,7232.81,0.021074,0.0207831,-0.403753,6,0.00277445,11,-8.39125e-06,-3.39388,-4.25216,-0.0138753,0.218613,0.02078313,
2,0,0,1,0,7233.11,0.0195758,0.0192614,-0.402813,6,0.00264846,11,-7.75877e-06,-3.3949,-2.78586,-0.0211784,0.332321,0.0192614,
2,0,0,1,0,7233.41,0.0180774,0.017731,-0.400153,6,0.00252234,11,-7.09512e-06,-3.39777,-1.89926,-0.0310648,0.489,0.017731,
2,0,0,1,0,7233.71,0.0165795,0.0163042,-0.404193,6,0.00239616,11,-6.59003e-06,-3.39341,-1.77274,-0.0332818,0.524608,0.0163042,
2,0,0,1,0,7234.01,0.0150817,0.0147795,-0.407012,6,0.00226945,11,-6.01543e-06,-3.39039,-1.10398,-0.0534429,0.845807,0.0147795,
2,0,0,0,0,7234.31,0.013583,0.01332,-0.406775,6,0.00214236,11,-5.41823e-06,-3.39065,-1.66762,-0.0353797,0.559959,0.01332,
2,0,0,0,0,7234.61,0.0120848,0.0117994,-0.406312,6,0.00201508,11,-4.79423e-06,-3.39114,-1.00659,-0.058614,0.932824,0.0117994,
2,0,0,1,0,7234.91,0.0105863,0.0102835,-0.409126,6,0.00188763,11,-4.20726e-06,-3.38814,-0.999753,-0.0590146,0.944352,0.0102835,
2,0,0,1,0,7235.21,0.00908846,0.00880908,-0.410833,6,0.00175947,11,-3.61906e-06,-3.38633,-0.650142,-0.0907494,1.45375,0.00880908,
2,0,0,1,0,7235.51,0.0075906,0.00727389,-0.413064,6,0.00163076,11,-3.00458e-06,-3.38398,-1.02514,-0.0575533,0.924006,0.00727389,
2,0,0,1,0,7235.81,0.00609208,0.00577838,-0.414514,6,0.00150161,11,-2.39522e-06,-3.38246,-0.990015,-0.059595,0.962111,0.00577838,
2,0,0,1,0,7236.11,0.00459389,0.00429275,-0.416507,6,0.00137226,11,-1.78796e-06,-3.38038,-0.663418,-0.0889334,1.44246,0.00429275,
2,0,0,1,0,7236.41,0.00309525,0.00281295,-0.418108,6,0.00124194,11,-1.17612e-06,-3.37871,-0.44455,-0.132718,2.16086,0.002812946,
2,0,0,1,0,7236.71,0.00159739,0.00126099,-0.421851,6,0.00110872,11,-5.31948e-07,-3.37484, , , ,0.00126099,
2,0,0,0,0,7236.99,0.000199195,-0.000147811,-0.420645,6,0.000985514,11,6.21761e-08,-3.37608, , , ,-0.000147811,