File: Figure_codes/Fig_3-5/rawdata_trumpetplot_data/before 10th/20221101_1-115_002_TrumpetPlot_ParaChange_13_CV_C01_1.csv
mode,ox/red,error,control changes,counter inc.,time/s,control/V,Ewe/V,<I>/mA,cycle number,(Q-Qo)/C,I Range,P/W,log(|I|),Tafel slope mV/dec,alpha_eff,dI/d(E-IR),E-IR/V,
2,1,0,0,0,2445.82,2.44065e-05,-0.000535284,11.6348,2,0.0000000E+000,10,-6.2279e-06,-1.93424, , , ,-0.000535284,
2,1,0,1,0,2445.83,0.00206084,0.00164491,13.2329,2,6.42183e-05,10,2.17669e-05,-1.87835, , , ,0.00164491,
2,1,0,1,0,2445.83,0.00446904,0.00417504,14.8759,2,0.000148954,10,6.21077e-05,-1.82752,0.0556908,1.05942,599.893,0.00417504,
2,1,0,1,0,2445.84,0.00686614,0.00653551,16.1419,2,0.000242266,10,0.000105495,-1.79205,0.0745954,0.790933,490.555,0.00653551,
2,1,0,1,0,2445.84,0.00926324,0.00890657,17.2036,2,0.00034253,10,0.000153225,-1.76438,0.0985522,0.598667,397.067,0.00890657,
2,1,0,1,0,2445.85,0.0116603,0.0113254,18.0645,2,0.000448528,10,0.000204587,-1.74317,0.128169,0.460328,321.318,0.0113254,
2,1,0,1,0,2445.86,0.0140685,0.0137261,18.7566,2,0.000559127,10,0.000257455,-1.72685,0.167582,0.352066,255.637,0.0137261,
2,1,0,1,0,2445.86,0.0164657,0.0161237,19.2823,2,0.000673324,10,0.000310903,-1.71484,0.222815,0.264794,198.155,0.0161237,
2,1,0,1,0,2445.87,0.0188628,0.0185489,19.696,2,0.000790348,10,0.000365338,-1.70562,0.289825,0.203571,155.841,0.0185489,
2,1,0,1,0,2445.87,0.0212682,0.020974,20.0404,2,0.000909624,10,0.000420327,-1.69809,0.388978,0.151679,118.136,0.020974,
2,1,0,1,0,2445.88,0.0236653,0.0233345,20.2734,2,0.0010306,10,0.000473068,-1.69307,0.518067,0.113885,89.8652,0.0233345,
2,1,0,1,0,2445.89,0.0260624,0.0257554,20.4509,2,0.0011528,10,0.00052672,-1.68929,0.643772,0.0916473,73.0626,0.0257554,
2,1,0,1,0,2445.89,0.0284595,0.0281498,20.6088,2,0.00127603,10,0.000580133,-1.68595,0.880102,0.0670377,53.7831,0.0281498,
2,1,0,1,0,2445.9,0.0308677,0.0306322,20.7177,2,0.00140008,10,0.000634628,-1.68366,1.27907,0.0461273,37.2313,0.0306322,
2,1,0,1,0,2445.9,0.0332648,0.032946,20.7809,2,0.00152454,10,0.000684648,-1.68234,1.68487,0.0350174,28.4014,0.032946,
2,1,0,1,0,2445.91,0.0356619,0.035351,20.8435,2,0.00164944,10,0.000736839,-1.68103,2.03318,0.0290185,23.5874,0.03535099,
2,1,0,1,0,2445.92,0.0380673,0.0377443,20.8942,2,0.00177472,10,0.000788639,-1.67997,2.69111,0.021924,17.8724,0.0377443,
2,1,0,1,0,2445.92,0.0404644,0.0401589,20.9285,2,0.00190019,10,0.000840463,-1.67926,3.27119,0.0180362,14.7429,0.0401589,
2,1,0,1,0,2445.93,0.0428615,0.0425321,20.973,2,0.00202592,10,0.000892027,-1.67834,2.53454,0.0232784,19.0579,0.0425321,
2,1,0,1,0,2445.93,0.0452586,0.0449593,21.0055,2,0.00215188,10,0.000944393,-1.67767,2.81955,0.0209253,17.1699,0.0449593,
2,1,0,1,0,2445.94,0.0476668,0.0473622,21.0653,2,0.00227814,10,0.000997698,-1.67643,2.18928,0.0269495,22.154,0.0473622,
2,1,0,1,0,2445.95,0.0500639,0.0497863,21.1209,2,0.00240469,10,0.00105153,-1.67529,1.87523,0.0314627,25.9499,0.0497863,
2,1,0,1,0,2445.95,0.0524611,0.0521234,21.1867,2,0.00253159,10,0.00110432,-1.67394,1.38219,0.0426859,35.3383,0.0521234,
2,1,0,1,0,2445.96,0.0548692,0.0545443,21.2862,2,0.00265902,10,0.00116104,-1.6719,1.14455,0.0515486,42.8381,0.0545443,
2,1,0,1,0,2445.96,0.0572664,0.0569144,21.3771,2,0.00278705,10,0.00121666,-1.67005,0.970469,0.0607953,50.8123,0.0569144,
2,1,0,1,0,2445.97,0.0596635,0.0593384,21.5256,2,0.00291579,10,0.0012773,-1.66704,0.836917,0.0704968,59.2895,0.0593384,
2,1,0,1,0,2445.98,0.0620633,0.0617381,21.6776,2,0.0030454,10,0.00133833,-1.66399,0.719502,0.0820011,69.4492,0.0617381,
2,1,0,1,0,2445.98,0.064466,0.0641675,21.8606,2,0.00317605,10,0.00140274,-1.66034,0.592437,0.0995887,85.0837,0.0641675,
2,1,0,1,0,2445.99,0.0668631,0.0665322,22.0866,2,0.00330788,10,0.00146947,-1.65587,0.567837,0.103903,89.5642,0.0665322,
2,1,0,1,0,2445.99,0.0692602,0.0689341,22.3069,2,0.0034411,10,0.00153771,-1.65156,0.50047,0.117889,102.721,0.0689341,
2,1,0,1,0,2446,0.0716684,0.0713242,22.5537,2,0.0035757,10,0.00160862,-1.64678,0.471461,0.125143,110.316,0.0713242,
2,1,0,1,0,2446.01,0.0740655,0.0737282,22.844,2,0.00371192,10,0.00168424,-1.64123,0.448544,0.131537,117.311,0.0737282,
2,1,0,1,0,2446.01,0.0764626,0.076147,23.1206,2,0.00384988,10,0.00176056,-1.636,0.411952,0.143221,129.4,0.076147,
2,1,0,1,0,2446.02,0.0788653,0.0785403,23.4459,2,0.0039896,10,0.00184145,-1.62993,0.384581,0.153414,140.631,0.0785403,
2,1,0,1,0,2446.02,0.0812651,0.0809485,23.8041,2,0.00413137,10,0.00192691,-1.62335,0.344348,0.171338,159.416,0.0809485,
2,1,0,1,0,2446.03,0.0836622,0.0833026,24.2108,2,0.00427544,10,0.00201682,-1.61599,0.322541,0.182923,172.921,0.0833026,
2,1,0,1,0,2446.04,0.0860593,0.0857489,24.6342,2,0.00442204,10,0.00211235,-1.60846,0.315289,0.18713,179.957,0.0857489,
2,1,0,1,0,2446.04,0.0884675,0.0881147,25.0924,2,0.00457127,10,0.00221101,-1.60046,0.308941,0.190975,187.018,0.0881147,
2,1,0,1,0,2446.05,0.0908647,0.0905239,25.5382,2,0.00472317,10,0.00231182,-1.59281,0.306792,0.192313,191.816,0.0905239,
2,1,0,1,0,2446.05,0.0932618,0.092947,26.0246,2,0.00487792,10,0.00241891,-1.58462,0.298301,0.197787,200.861,0.092947,
2,1,0,1,0,2446.06,0.09567,0.0953562,26.5003,2,0.00503551,10,0.00252697,-1.57675,0.298116,0.19791,204.838,0.0953562,
2,1,0,1,0,2446.07,0.0980671,0.0977368,27.0055,2,0.00519606,10,0.00263943,-1.56855,0.289509,0.203793,214.848,0.0977368,
2,1,0,1,0,2446.07,0.100464,0.100166,27.5341,2,0.00535973,10,0.00275799,-1.56013,0.289016,0.204141,219.313,0.100166,
2,1,0,1,0,2446.08,0.102861,0.102557,28.0347,2,0.00552649,10,0.00287517,-1.5523,0.288363,0.204603,224.157,0.102557,
2,1,0,1,0,2446.08,0.105267,0.10496,28.5983,2,0.0056965,10,0.00300169,-1.54366,0.281662,0.209471,233.854,0.10496,
2,1,0,1,0,2446.09,0.107664,0.107352,29.1722,2,0.0058699,10,0.00313168,-1.53503,0.284787,0.207172,235.812,0.107352,
2,1,0,1,0,2446.1,0.110061,0.109758,29.7346,2,0.00604665,10,0.00326359,-1.52674,0.281289,0.209749,243.567,0.109758,
2,1,0,1,0,2446.1,0.112469,0.11215,30.339,2,0.00622689,10,0.00340252,-1.518,0.280826,0.210095,248.677,0.11215,
2,1,0,1,0,2446.11,0.114866,0.114594,30.9302,2,0.00641077,10,0.00354442,-1.50962,0.276591,0.213311,257.584,0.114594,
2,1,0,1,0,2446.11,0.117263,0.116966,31.5585,2,0.00659829,10,0.00369128,-1.50088,0.276242,0.213581,263.186,0.116966,
2,1,0,1,0,2446.12,0.11966,0.119366,32.1937,2,0.00678961,10,0.00384284,-1.49223,0.27087,0.217816,273.839,0.119366,
2,1,0,1,0,2446.13,0.122066,0.121722,32.8695,2,0.00698486,10,0.00400094,-1.48321,0.263524,0.223888,287.366,0.121722,
2,1,0,1,0,2446.13,0.124463,0.124165,33.5663,2,0.00718422,10,0.00416777,-1.4741,0.261562,0.225568,295.545,0.124165,
2,1,0,1,0,2446.14,0.12686,0.12657,34.2766,2,0.00738783,10,0.0043384,-1.465,0.254201,0.2321,310.835,0.12657,
2,1,0,1,0,2446.14,0.129268,0.128946,35.0449,2,0.00759587,10,0.00451888,-1.45538,0.245085,0.240732,329.631,0.128946,
2,1,0,1,0,2446.15,0.131665,0.131327,35.8746,2,0.00780872,10,0.00471131,-1.44521,0.23872,0.247152,346.031,0.131327,
2,1,0,1,0,2446.16,0.134062,0.133767,36.6943,2,0.00802654,10,0.0049085,-1.4354,0.232332,0.253947,364.229,0.133767,
2,1,0,1,0,2446.16,0.13646,0.136108,37.5886,2,0.00824946,10,0.00511609,-1.42494,0.222307,0.265399,389.897,0.136108,
2,1,0,1,0,2446.17,0.138868,0.138566,38.5678,2,0.00847803,10,0.00534417,-1.41378,0.222192,0.265537,399.622,0.138566,
2,1,0,1,0,2446.17,0.141265,0.140953,39.5381,2,0.00871242,10,0.005573,-1.40298,0.217507,0.271256,418.834,0.140953,
2,1,0,1,0,2446.18,0.143662,0.143313,40.5663,2,0.00895278,10,0.00581368,-1.39183,0.212498,0.27765,439.858,0.143313,
2,1,0,1,0,2446.19,0.146067,0.145753,41.6484,2,0.00919949,10,0.00607038,-1.3804,0.210395,0.280426,455.83,0.145753,
2,1,0,1,0,2446.19,0.148465,0.148197,42.754,2,0.00945279,10,0.00633603,-1.36902,0.21137,0.279131,465.666,0.148197,
2,1,0,1,0,2446.2,0.150862,0.150507,43.8718,2,0.0097128,10,0.00660302,-1.35781,0.212385,0.277797,475.768,0.150507,
2,1,0,1,0,2446.2,0.153264,0.152897,45.0227,2,0.0099796,10,0.00688384,-1.34657,0.215791,0.273412,480.59,0.152897,
2,1,0,1,0,2446.21,0.155667,0.155324,46.2082,2,0.0102534,10,0.00717725,-1.33528,0.219696,0.268553,484.003,0.155324,
2,1,0,1,0,2446.22,0.158064,0.157762,47.3779,2,0.0105343,10,0.00747444,-1.32442,0.226478,0.260511,481.266,0.157762,
2,1,0,1,0,2446.22,0.160461,0.160137,48.5089,2,0.0108221,10,0.00776809,-1.31418,0.234811,0.251266,475.64,0.1601375,
2,1,0,1,0,2446.23,0.162867,0.162543,49.6759,2,0.0111167,10,0.00807444,-1.30385,0.244382,0.241426,467.418,0.162543,
2,1,0,1,0,2446.23,0.165264,0.164954,50.7871,2,0.0114183,10,0.00837753,-1.29425,0.259079,0.22773,450.763,0.164954,
2,1,0,1,0,2446.24,0.167661,0.167368,51.828,2,0.0117262,10,0.00867438,-1.28544,0.277765,0.21241,429.298,0.167368,
2,1,0,1,0,2446.25,0.170069,0.169731,52.8538,2,0.0120403,10,0.00897093,-1.27692,0.298955,0.197354,406.39,0.169731,
2,1,0,1,0,2446.25,0.172466,0.172172,53.7759,2,0.0123604,10,0.0092587,-1.26941,0.338557,0.174269,364.95,0.172172,
2,1,0,1,0,2446.26,0.174863,0.174517,54.5884,2,0.0126856,10,0.00952658,-1.2629,0.400032,0.147488,313.591,0.174517,
2,1,0,1,0,2446.26,0.17726,0.176929,55.2776,2,0.0130154,10,0.00978021,-1.25745,0.49185,0.119955,258.228,0.176929,
2,1,0,1,0,2446.27,0.179668,0.179373,55.8461,2,0.0133489,10,0.0100173,-1.25301,0.68582,0.0860284,186.887,0.179373,
2,1,0,1,0,2446.28,0.182066,0.181755,56.204,2,0.0136852,10,0.0102154,-1.25023,1.37802,0.0428149,93.552,0.181755,
2,1,0,1,0,2446.28,0.184463,0.184145,56.3171,2,0.0140229,10,0.0103705,-1.24936,-32.1767,-0.00183363,-4.01432,0.184145,
2,1,0,1,0,2446.29,0.186868,0.186564,56.1867,2,0.0143605,10,0.0104824,-1.25037,-1.02257,-0.057698,-125.895,0.186564,
2,1,0,1,0,2446.29,0.189265,0.188969,55.7446,2,0.0146964,10,0.010534,-1.2538,-0.493477,-0.11956,-258.568,0.1889689,
2,1,0,1,0,2446.3,0.191662,0.191353,54.9283,2,0.0150285,10,0.0105107,-1.2602,-0.311613,-0.189338,-403.644,0.1913527,
2,1,0,1,0,2446.31,0.194059,0.193753,53.7848,2,0.0153547,10,0.010421,-1.26934,-0.222518,-0.265147,-552.941,0.193753,
2,1,0,1,0,2446.31,0.196468,0.196197,52.2814,2,0.0156729,10,0.0102574,-1.28165,-0.167897,-0.351407,-711.53,0.196197,
2,1,0,1,0,2446.32,0.198865,0.198575,50.3473,2,0.0159808,10,0.00999771,-1.29802,-0.13326,-0.442742,-863.984,0.198575,
2,1,0,1,0,2446.32,0.201262,0.200949,48.0919,2,0.016276,10,0.00966404,-1.31793,-0.110558,-0.533658,-994.86,0.200949,
2,1,0,1,0,2446.33,0.203667,0.203421,45.568,2,0.0165569,10,0.00926949,-1.34134,-0.0949686,-0.621258,-1097.1,0.203421,
2,1,0,1,0,2446.34,0.206064,0.205825,42.7675,2,0.0168217,10,0.00880262,-1.36889,-0.0827237,-0.713218,-1183.86,0.205825,
2,1,0,1,0,2446.34,0.208461,0.208229,39.8421,2,0.0170693,10,0.00829628,-1.39966,-0.0746869,-0.789965,-1222.53,0.208229,
2,1,0,1,0,2446.35,0.210859,0.210631,36.8332,2,0.017299,10,0.00775822,-1.43376,-0.0681126,-0.866213,-1240.93,0.210631,
2,1,0,1,0,2446.35,0.213267,0.212984,33.8458,2,0.0175108,10,0.00720861,-1.4705,-0.0639124,-0.923139,-1216.69,0.212984,
2,1,0,1,0,2446.36,0.215664,0.215418,30.9337,2,0.0177048,10,0.00666367,-1.50957,-0.060765,-0.970953,-1172.65,0.215418,
2,1,0,1,0,2446.37,0.218061,0.217838,28.2121,2,0.0178818,10,0.00614569,-1.54956,-0.0605577,-0.974278,-1075.8,0.217838,
2,1,0,1,0,2446.37,0.220469,0.220212,25.7543,2,0.0180433,10,0.00567141,-1.58915,-0.0607714,-0.970852,-978.699,0.220212,
2,1,0,1,0,2446.38,0.222866,0.222619,23.5124,2,0.0181908,10,0.0052343,-1.6287,-0.0637404,-0.92563,-855.449,0.222619,
2,1,0,1,0,2446.38,0.225263,0.225005,21.5924,2,0.0183257,10,0.00485838,-1.6657,-0.0685727,-0.860401,-732.005,0.225005,
2,1,0,1,0,2446.39,0.227663,0.227393,19.9975,2,0.0184502,10,0.0045473,-1.69902,-0.0764001,-0.772251,-608.155,0.2273927,
2,1,0,1,0,2446.4,0.230066,0.22974,18.6621,2,0.018566,10,0.00428743,-1.72904,-0.0878327,-0.671732,-494.559,0.22974,
2,1,0,1,0,2446.4,0.232463,0.232183,17.6209,2,0.0186746,10,0.00409126,-1.75397,-0.106869,-0.552079,-383.957,0.232183,
2,1,0,1,0,2446.41,0.23486,0.234581,16.8328,2,0.0187778,10,0.00394866,-1.77384,-0.134024,-0.440218,-291.781,0.2345812,
2,1,0,1,0,2446.41,0.237268,0.236962,16.2288,2,0.0188769,10,0.00384562,-1.78971,-0.170341,-0.346365,-221.072,0.236962,
2,1,0,1,0,2446.42,0.239665,0.239368,15.7717,2,0.0189727,10,0.00377524,-1.80212,-0.229992,-0.25653,-159.181,0.239368,
2,1,0,1,0,2446.43,0.242063,0.24173,15.4665,2,0.0190664,10,0.00373872,-1.81061,-0.340306,-0.173374,-105.307,0.24173,
2,1,0,1,0,2446.43,0.244465,0.244147,15.2709,2,0.0191585,10,0.00372835,-1.81613,-0.483612,-0.121999,-72.9174,0.244147,
2,1,0,1,0,2446.44,0.246865,0.246587,15.1242,2,0.0192497,10,0.00372943,-1.82033,-0.710087,-0.0830885,-49.1671,0.246587,
2,1,0,1,0,2446.44,0.249262,0.24894,15.0119,2,0.0193401,10,0.00373706,-1.82357,-1.10051,-0.0536113,-31.5364,0.24894,
2,1,0,1,0,2446.45,0.251659,0.251361,14.9885,2,0.0194301,10,0.00376753,-1.82424,-1.81596,-0.0324897,-19.0069,0.251361,
2,1,0,1,0,2446.46,0.254067,0.253789,14.9581,2,0.0195199,10,0.0037962,-1.82512,-2.20345,-0.0267762,-15.6149,0.253789,
2,1,0,1,0,2446.46,0.256465,0.256162,14.9007,2,0.0196095,10,0.00381698,-1.82679,-3.32514,-0.0177436,-10.3453,0.256162,
2,1,0,1,0,2446.47,0.258862,0.258556,14.9111,2,0.0196989,10,0.00385534,-1.82649,-13.4926,-0.00437277,-2.54405,0.258556,
2,1,0,1,0,2446.47,0.26127,0.261008,14.9193,2,0.0197883,10,0.00389405,-1.82625,-5.51038,-0.0107071,-6.22336,0.261008,
2,1,0,1,0,2446.48,0.263667,0.263425,14.8773,2,0.0198777,10,0.00391905,-1.82748,-5.26266,-0.0112111,-6.51392,0.263425,
2,1,0,1,0,2446.49,0.266064,0.26582,14.8647,2,0.0199669,10,0.00395134,-1.82784,-9.93575,-0.00593815,-3.44548,0.26582,
2,1,0,1,0,2446.49,0.268461,0.268164,14.8427,2,0.020056,10,0.00398029,-1.82849,-5.70205,-0.0103471,-5.9938,0.268164,
2,1,0,1,0,2446.5,0.270867,0.270581,14.8336,2,0.0201451,10,0.00401369,-1.82875,-3.50019,-0.0168562,-9.75002,0.270581,
2,1,0,1,0,2446.5,0.273264,0.272967,14.7956,2,0.020234,10,0.00403871,-1.82987,-2.9932,-0.0197113,-11.3844,0.272967,
2,1,0,1,0,2446.51,0.275661,0.275364,14.7754,2,0.0203227,10,0.00406862,-1.83046,-3.3399,-0.0176652,-10.1888,0.275364,
2,1,0,1,0,2446.52,0.278069,0.277793,14.7598,2,0.0204113,10,0.00410015,-1.83092,-2.26687,-0.0260271,-14.9597,0.277793,
2,1,0,1,0,2446.52,0.280466,0.280149,14.7016,2,0.0204997,10,0.00411865,-1.83263,-1.98741,-0.0296869,-17.0499,0.280149,
2,1,0,1,0,2446.53,0.282863,0.282571,14.6676,2,0.0205878,10,0.00414463,-1.83364,-2.40515,-0.0245307,-14.0525,0.282571,
2,1,0,1,0,2446.53,0.28526,0.284977,14.6416,2,0.0206757,10,0.00417253,-1.83441,-2.04192,-0.0288944,-16.4863,0.284977,
2,1,0,1,0,2446.54,0.287666,0.287401,14.5937,2,0.0207634,10,0.00419424,-1.83584,-1.90819,-0.0309194,-17.6116,0.287401,
2,1,0,1,0,2446.55,0.290063,0.289792,14.5492,2,0.0208508,10,0.00421626,-1.83716,-1.82475,-0.0323332,-18.3669,0.289792,
2,1,0,1,0,2446.55,0.29246,0.292189,14.5094,2,0.020938,10,0.00423949,-1.83835,-1.68279,-0.0350609,-19.8259,0.292189,
2,1,0,1,0,2446.56,0.294868,0.294585,14.4572,2,0.0210249,10,0.00425888,-1.83992,-1.68259,-0.0350651,-19.7861,0.294585,
2,1,0,1,0,2446.56,0.297265,0.296963,14.4061,2,0.0211115,10,0.00427806,-1.84145,-2.26948,-0.0259972,-14.635,0.296963,
2,1,0,1,0,2446.57,0.29958,0.299288,14.3676,2,0.0211949,10,0.00430006,-1.84262,-0.0517097,-1.14099,-599.563,0.2992883,
2,1,0,1,0,2446.57,0.299962,0.299842,14.2368,2,0.0212136,10,0.00426878,-1.84659,0.00365231,16.1542,5650.39,0.299842,
2,1,0,1,0,2446.58,0.297903,0.297746,7.22257,2,0.0212661,10,0.00215049,-2.14131,0.00319529,18.4647,2693.87,0.297746,
2,1,0,1,0,2446.58,0.295506,0.295283,1.70404,2,0.0212913,10,0.000503174,-2.76852,0.0119484,4.93789,1906.39,0.295283,
2,0,0,1,0,2446.59,0.293101,0.292863,-1.86562,2,0.0212897,10,-0.000546371,-2.72918,-0.0392621,-1.50272,1254.08,0.292863,
2,0,0,1,0,2446.59,0.290704,0.290419,-4.19466,2,0.0212708,10,-0.00121821,-2.3773,-0.00744982,-7.91966,828.253,0.290419,
2,0,0,1,0,2446.6,0.288307,0.288062,-5.75411,2,0.0212405,10,-0.00165754,-2.24002,-0.0211389,-2.79106,554.816,0.288062,
2,0,0,1,0,2446.61,0.28591,0.285613,-6.78282,2,0.0212026,10,-0.00193726,-2.16859,-0.0398021,-1.48233,371.728,0.285613,
2,0,0,1,0,2446.61,0.283501,0.283211,-7.50602,2,0.0211595,10,-0.00212579,-2.12459,-0.06537,-0.902554,256.421,0.283211,
2,0,0,1,0,2446.62,0.281104,0.28083,-8.0011,2,0.0211129,10,-0.00224695,-2.09685,-0.099623,-0.592233,181.55,0.28083,
2,0,0,1,0,2446.62,0.278707,0.278431,-8.35438,2,0.0210637,10,-0.00232612,-2.07809,-0.146096,-0.403845,130.415,0.278431,
2,0,0,1,0,2446.63,0.276302,0.276004,-8.63353,2,0.0210127,10,-0.00238289,-2.06381,-0.196716,-0.299925,100.225,0.276004,
2,0,0,1,0,2446.64,0.273905,0.273637,-8.83656,2,0.0209603,10,-0.00241801,-2.05372,-0.247473,-0.23841,81.9595,0.273637,
2,0,0,1,0,2446.64,0.271508,0.271205,-9.01147,2,0.0209067,10,-0.00244395,-2.0452,-0.289718,-0.203646,71.4989,0.2712045,
2,0,0,1,0,2446.65,0.269105,0.268791,-9.1738,2,0.0208521,10,-0.00246584,-2.03745,-0.343528,-0.171747,61.3412,0.268791,
2,0,0,1,0,2446.65,0.266702,0.266406,-9.30334,2,0.0207967,10,-0.00247847,-2.03136,-0.370318,-0.159322,57.8697,0.266406,
2,0,0,1,0,2446.66,0.264305,0.263988,-9.44539,2,0.0207404,10,-0.00249347,-2.02478,-0.40491,-0.145711,53.6256,0.263988,
2,0,0,1,0,2446.67,0.261908,0.261584,-9.57072,2,0.0206833,10,-0.00250355,-2.01906,-0.418296,-0.141048,52.6471,0.261584,
2,0,0,1,0,2446.67,0.2595,0.259256,-9.69242,2,0.0206255,10,-0.00251282,-2.01357,-0.417291,-0.141388,53.5507,0.259256,
2,0,0,1,0,2446.68,0.257103,0.256807,-9.84255,2,0.0205669,10,-0.00252764,-2.00689,-0.451769,-0.130598,50.058,0.256807,
2,0,0,1,0,2446.68,0.254706,0.254397,-9.96163,2,0.0205075,10,-0.00253421,-2.00167,-0.446649,-0.132095,51.3604,0.254397,
2,0,0,1,0,2446.69,0.2523,0.251977,-10.082,2,0.0204475,10,-0.00254044,-1.99645,-0.43342,-0.136127,53.6066,0.251977,
2,0,0,1,0,2446.7,0.249903,0.249631,-10.2176,2,0.0203865,10,-0.00255062,-1.99065,-0.429175,-0.137473,54.7439,0.249631,
2,0,0,1,0,2446.7,0.247506,0.247242,-10.332,2,0.0203249,10,-0.00255451,-1.98581,-0.431691,-0.136672,55.1683,0.247242,
2,0,0,1,0,2446.71,0.245109,0.24484,-10.4678,2,0.0202625,10,-0.00256293,-1.98014,-0.422336,-0.139699,57.0755,0.24484,
2,0,0,1,0,2446.71,0.242701,0.242379,-10.6125,2,0.0201992,10,-0.00257226,-1.97418,-0.420643,-0.140262,58.0142,0.242379,
2,0,0,1,0,2446.72,0.240304,0.240043,-10.7393,2,0.0201351,10,-0.0025779,-1.96902,-0.461261,-0.12791,53.6115,0.240043,
2,0,0,1,0,2446.73,0.237906,0.237626,-10.8772,2,0.0200703,10,-0.00258469,-1.96348,-0.449772,-0.131178,55.6843,0.237626,
2,0,0,1,0,2446.73,0.235501,0.235157,-11.0249,2,0.0200046,10,-0.00259258,-1.95763,-0.437466,-0.134868,58.0376,0.235157,
2,0,0,1,0,2446.74,0.233104,0.232833,-11.1591,2,0.0199381,10,-0.0025982,-1.95237,-0.414269,-0.142419,62.0343,0.2328326,
2,0,0,1,0,2446.74,0.230707,0.23042,-11.3196,2,0.0198706,10,-0.00260827,-1.94617,-0.416758,-0.141569,62.5052,0.23042,
2,0,0,1,0,2446.75,0.22831,0.228046,-11.4327,2,0.0198023,10,-0.00260718,-1.94185,-0.422697,-0.13958,62.4444,0.228046,
2,0,0,1,0,2446.76,0.225902,0.225623,-11.6159,2,0.0197331,10,-0.00262081,-1.93495,-0.402162,-0.146707,66.467,0.225623,
2,0,0,1,0,2446.76,0.223504,0.223222,-11.779,2,0.0196629,10,-0.00262934,-1.92889,-0.413806,-0.142579,65.4768,0.223222,
2,0,0,1,0,2446.77,0.221107,0.220906,-11.9287,2,0.0195918,10,-0.00263512,-1.92341,-0.378746,-0.155777,72.7121,0.220906,
2,0,0,1,0,2446.77,0.218699,0.218397,-12.128,2,0.0195197,10,-0.00264871,-1.91621,-0.365921,-0.161237,76.2525,0.2183973,
2,0,0,1,0,2446.78,0.216302,0.216047,-12.3023,2,0.0194463,10,-0.00265788,-1.91001,-0.373739,-0.157864,75.7891,0.216047,
2,0,0,1,0,2446.79,0.213905,0.213629,-12.4868,2,0.0193719,10,-0.00266754,-1.90355,-0.363457,-0.16233,79.2182,0.213629,
2,0,0,1,0,2446.79,0.211505,0.211207,-12.6948,2,0.0192964,10,-0.00268122,-1.89638,-0.339683,-0.173692,86.0707,0.211207,
2,0,0,1,0,2446.8,0.209102,0.208839,-12.894,2,0.0192196,10,-0.00269277,-1.88961,-0.311132,-0.18963,95.5879,0.208839,
2,0,0,1,0,2446.8,0.206705,0.206382,-13.1498,2,0.0191415,10,-0.00271388,-1.88108,-0.321511,-0.183509,94.0619,0.206382,
2,0,0,1,0,2446.81,0.204308,0.203988,-13.3662,2,0.0190619,10,-0.00272656,-1.87399,-0.297886,-0.198062,103.455,0.203988,
2,0,0,1,0,2446.82,0.2019,0.201594,-13.6341,2,0.018981,10,-0.00274855,-1.86537,-0.287563,-0.205173,109.238,0.201594,
2,0,0,1,0,2446.82,0.199503,0.199181,-13.9013,2,0.0188984,10,-0.00276886,-1.85695,-0.276101,-0.21369,115.829,0.1991806,
2,0,0,1,0,2446.83,0.197106,0.196799,-14.1642,2,0.0188141,10,-0.00278751,-1.84881,-0.260358,-0.226611,125.668,0.196799,
2,0,0,1,0,2446.83,0.194709,0.19442,-14.4688,2,0.0187282,10,-0.00281304,-1.83957,-0.247817,-0.238079,134.848,0.19442,
2,0,0,1,0,2446.84,0.192303,0.191956,-14.8445,2,0.0186402,10,-0.00284949,-1.82843,-0.235254,-0.250792,145.161,0.191956,
2,0,0,1,0,2446.85,0.189906,0.189587,-15.1718,2,0.0185501,10,-0.00287638,-1.81896,-0.234173,-0.25195,149.474,0.189587,
2,0,0,1,0,2446.85,0.187509,0.187195,-15.5554,2,0.0184579,10,-0.00291189,-1.80812,-0.217376,-0.271419,165.175,0.187195,
2,0,0,1,0,2446.86,0.185101,0.184828,-16.001,2,0.0183632,10,-0.00295743,-1.79585,-0.205207,-0.287514,179.506,0.184828,
2,0,0,1,0,2446.86,0.182704,0.18242,-16.4293,2,0.0182659,10,-0.00299704,-1.78438,-0.195712,-0.301463,193.646,0.18242,
2,0,0,1,0,2446.87,0.180307,0.180008,-16.9125,2,0.0181659,10,-0.0030444,-1.77179,-0.184822,-0.319226,211.143,0.180008,
2,0,0,1,0,2446.88,0.177904,0.177612,-17.4436,2,0.0180628,10,-0.00309819,-1.75836,-0.171721,-0.343581,234.27,0.177612,
2,0,0,1,0,2446.88,0.175501,0.175189,-18.032,2,0.0179563,10,-0.00315901,-1.74396,-0.166976,-0.353343,248.699,0.175189,
2,0,0,1,0,2446.89,0.173104,0.172836,-18.6297,2,0.0178463,10,-0.00321988,-1.72979,-0.16314,-0.361653,263.369,0.172836,
2,0,0,1,0,2446.89,0.170707,0.170443,-19.2751,2,0.0177326,10,-0.0032853,-1.715,-0.153109,-0.385348,290.902,0.170443,
2,0,0,1,0,2446.9,0.168302,0.16804,-20.0389,2,0.0176146,10,-0.00336733,-1.69813,-0.148361,-0.397678,311.187,0.16804,
2,0,0,1,0,2446.91,0.165905,0.165618,-20.8085,2,0.0174919,10,-0.00344625,-1.68176,-0.14411,-0.40941,332.818,0.165618,
2,0,0,1,0,2446.91,0.163507,0.163184,-21.6192,2,0.0173646,10,-0.00352791,-1.66516,-0.138681,-0.425437,359.998,0.163184,
2,0,0,1,0,2446.92,0.161099,0.160867,-22.5446,2,0.0172321,10,-0.00362668,-1.64696,-0.132715,-0.444561,391.444,0.160867,
2,0,0,1,0,2446.92,0.158702,0.158433,-23.5032,2,0.0170939,10,-0.00372369,-1.62887,-0.127589,-0.462421,425.01,0.158433,
2,0,0,1,0,2446.93,0.156305,0.156001,-24.5539,2,0.0169497,10,-0.00383042,-1.60988,-0.126145,-0.467715,449.159,0.156001,
2,0,0,1,0,2446.94,0.153908,0.153672,-25.6858,2,0.0167988,10,-0.0039472,-1.59031,-0.122255,-0.482598,484.225,0.1536722,
2,0,0,1,0,2446.94,0.151503,0.15121,-26.8813,2,0.016641,10,-0.00406472,-1.57055,-0.122377,-0.482118,505.983,0.15121,
2,0,0,1,0,2446.95,0.149105,0.148855,-28.118,2,0.0164759,10,-0.0041855,-1.55102,-0.122497,-0.481645,528.776,0.148855,
2,0,0,1,0,2446.95,0.146708,0.146443,-29.4084,2,0.0163033,10,-0.00430667,-1.53153,-0.120766,-0.48855,561.238,0.146443,
2,0,0,1,0,2446.96,0.1443,0.144018,-30.7783,2,0.0161226,10,-0.00443263,-1.51176,-0.122732,-0.480722,577.485,0.144018,
2,0,0,1,0,2446.97,0.141903,0.141672,-32.2034,2,0.0159335,10,-0.00456231,-1.4921,-0.127437,-0.462975,580.214,0.1416716,
2,0,0,1,0,2446.97,0.139506,0.139323,-33.5235,2,0.0157361,10,-0.00467059,-1.47465,-0.12801,-0.460901,604.331,0.139323,
2,0,0,1,0,2446.98,0.137109,0.136905,-34.9835,2,0.0155305,10,-0.00478942,-1.45614,-0.131086,-0.450087,615.488,0.136905,
2,0,0,1,0,2446.98,0.134701,0.134457,-36.5659,2,0.0153156,10,-0.00491653,-1.43692,-0.133812,-0.440919,627.4,0.134457,
2,0,0,1,0,2446.99,0.132303,0.132091,-38.0261,2,0.0150918,10,-0.0050229,-1.41992,-0.141995,-0.415507,616.261,0.132091,
2,0,0,1,0,2447,0.129906,0.129718,-39.5292,2,0.0148591,10,-0.00512764,-1.40308,-0.14722,-0.40076,617.199,0.129718,
2,0,0,1,0,2447,0.127501,0.127282,-41.0057,2,0.0146173,10,-0.00521928,-1.38716,-0.156299,-0.377482,602.768,0.127282,
2,0,0,1,0,2447.01,0.125104,0.124858,-42.401,2,0.0143669,10,-0.0052941,-1.37262,-0.166325,-0.354728,586.575,0.124858,
2,0,0,1,0,2447.01,0.122707,0.122531,-43.8037,2,0.0141081,10,-0.00536733,-1.35849,-0.174934,-0.337269,576.054,0.122531,
2,0,0,1,0,2447.02,0.12031,0.120119,-45.1765,2,0.013841,10,-0.00542655,-1.34509,-0.186309,-0.316677,557.748,0.120119,
2,0,0,1,0,2447.03,0.117901,0.117688,-46.5266,2,0.0135657,10,-0.00547564,-1.3323,-0.198042,-0.297917,539.978,0.117688,
2,0,0,1,0,2447.03,0.115504,0.115236,-47.7998,2,0.0132826,10,-0.00550824,-1.32057,-0.217288,-0.271529,505.428,0.115236,
2,0,0,1,0,2447.04,0.113107,0.112839,-48.9695,2,0.0129921,10,-0.00552568,-1.31007,-0.239605,-0.246238,469.703,0.112839,
2,0,0,1,0,2447.04,0.110702,0.110471,-50.0761,2,0.0126948,10,-0.00553196,-1.30037,-0.269455,-0.21896,426.75,0.110471,
2,0,0,1,0,2447.05,0.108305,0.108074,-51.0267,2,0.0123914,10,-0.00551465,-1.2922,-0.309743,-0.19048,378.473,0.108074,
2,0,0,1,0,2447.06,0.105908,0.10562,-51.8659,2,0.0120826,10,-0.00547807,-1.28512,-0.35681,-0.165354,334.144,0.10562,
2,0,0,1,0,2447.06,0.103505,0.103234,-52.6206,2,0.011769,10,-0.00543224,-1.27884,-0.441437,-0.133654,273.645,0.103234,
2,0,0,1,0,2447.07,0.101102,0.100846,-53.1881,2,0.0114514,10,-0.00536381,-1.27419,-0.582936,-0.101212,209.561,0.100846,
2,0,0,1,0,2447.07,0.0987052,0.0984791,-53.6153,2,0.0111309,10,-0.00527999,-1.27071,-0.86131,-0.0685003,142.983,0.0984791,
2,0,0,1,0,2447.08,0.0963081,0.0960211,-53.8978,2,0.0108083,10,-0.00517532,-1.26843,-1.71743,-0.0343536,72.0234,0.0960211,
2,0,0,1,0,2447.09,0.0938999,0.0935896,-53.9825,2,0.0104845,10,-0.0050522,-1.26775,20.3104,0.00290491,-6.09882,0.0935896,
2,0,0,1,0,2447.09,0.0915028,0.0912164,-53.8605,2,0.010161,10,-0.00491296,-1.26873,1.36412,0.0432514,-90.639,0.0912164,
2,0,0,1,0,2447.1,0.0891057,0.0888008,-53.567,2,0.00983865,10,-0.00475679,-1.2711,0.745424,0.0791496,-164.907,0.0888008,
2,0,0,1,0,2447.1,0.0867002,0.0863947,-53.0704,2,0.00951876,10,-0.004585,-1.27515,0.493279,0.119608,-246.883,0.08639472,
2,0,0,1,0,2447.11,0.0843031,0.0839897,-52.3683,2,0.00920243,10,-0.0043984,-1.28093,0.368358,0.16017,-326.295,0.0839897,
2,0,0,1,0,2447.12,0.081906,0.0815996,-51.495,2,0.00889083,10,-0.00420197,-1.28823,0.302475,0.195057,-390.943,0.0815996,
2,0,0,1,0,2447.12,0.0795089,0.0791903,-50.4721,2,0.00858496,10,-0.0039969,-1.29695,0.257669,0.228976,-449.852,0.0791903,
2,0,0,1,0,2447.13,0.0771007,0.0767715,-49.3225,2,0.0082856,10,-0.00378656,-1.30695,0.221789,0.266019,-510.658,0.0767715,
2,0,0,1,0,2447.13,0.0747036,0.0743814,-48.0193,2,0.00799367,10,-0.00357174,-1.31858,0.202624,0.29118,-545.011,0.0743814,
2,0,0,1,0,2447.14,0.0723065,0.0720294,-46.6833,2,0.00770967,10,-0.00336257,-1.33084,0.190143,0.310293,-564.51,0.0720294,
2,0,0,1,0,2447.15,0.0699011,0.069583,-45.304,2,0.00743384,10,-0.00315239,-1.34386,0.179428,0.328823,-580.651,0.069583,
2,0,0,1,0,2447.15,0.067504,0.0672321,-43.877,2,0.00716646,10,-0.00294995,-1.35776,0.174606,0.337904,-578.716,0.0672321,
2,0,0,1,0,2447.16,0.0651069,0.0647783,-42.5101,2,0.00690748,10,-0.00275373,-1.37151,0.174927,0.337284,-559.572,0.0647783,
2,0,0,1,0,2447.16,0.0627098,0.0624274,-41.1542,2,0.0066566,10,-0.00256915,-1.38559,0.171018,0.344992,-554.342,0.0624274,
2,0,0,1,0,2447.17,0.0603016,0.0599906,-39.8632,2,0.00641369,10,-0.00239141,-1.39943,0.173224,0.340599,-530.289,0.0599906,
2,0,0,1,0,2447.18,0.0579045,0.0576089,-38.6175,2,0.00617843,10,-0.00222471,-1.41322,0.175187,0.336784,-507.972,0.0576089,
2,0,0,1,0,2447.18,0.0555074,0.0551817,-37.4211,2,0.00595043,10,-0.00206496,-1.42688,0.17919,0.32926,-481.414,0.0551817,
2,0,0,1,0,2447.19,0.0530992,0.052836,-36.3197,2,0.00572935,10,-0.00191899,-1.43986,0.181202,0.325604,-461.65,0.052836,
2,0,0,1,0,2447.19,0.0507021,0.0503706,-35.239,2,0.00551482,10,-0.00177501,-1.45298,0.184102,0.320474,-440.86,0.0503706,
2,0,0,1,0,2447.2,0.048305,0.0479932,-34.1888,2,0.00530669,10,-0.00164083,-1.46612,0.185376,0.318272,-424.976,0.0479932,
2,0,0,1,0,2447.21,0.0459051,0.0456083,-33.1945,2,0.00510465,10,-0.00151394,-1.47893,0.183643,0.321275,-416.126,0.0456083,
2,0,0,1,0,2447.21,0.0435024,0.0432171,-32.2162,2,0.00490851,10,-0.00139229,-1.49193,0.185172,0.318623,-400.694,0.0432171,
2,0,0,1,0,2447.22,0.0411053,0.040793,-31.2689,2,0.0047182,10,-0.00127555,-1.50489,0.186009,0.31719,-387.152,0.040793,
2,0,0,1,0,2447.22,0.0387082,0.038388,-30.3545,2,0.00453342,10,-0.00116525,-1.51778,0.184367,0.320014,-378.987,0.038388,
2,0,0,1,0,2447.23,0.0363,0.0360053,-29.438,2,0.00435418,10,-0.00105992,-1.53109,0.183525,0.321483,-369.665,0.0360053,
2,0,0,1,0,2447.24,0.0339029,0.0335981,-28.5773,2,0.00418025,10,-0.000960145,-1.54398,0.187747,0.314252,-350.58,0.03359814,
2,0,0,1,0,2447.24,0.0315058,0.0312037,-27.75,2,0.00401136,10,-0.000865904,-1.55674,0.189875,0.310731,-336.659,0.0312037,
2,0,0,1,0,2447.25,0.0291087,0.0287956,-26.9277,2,0.00384743,10,-0.000775399,-1.5698,0.19444,0.303435,-319.658,0.0287956,
2,0,0,1,0,2447.25,0.0267033,0.0264372,-26.2059,2,0.00368807,10,-0.000692812,-1.5816,0.206959,0.285081,-292.112,0.0264372,
2,0,0,1,0,2447.26,0.0243062,0.0239887,-25.5512,2,0.00353286,10,-0.00061294,-1.59259,0.223269,0.264255,-263.947,0.0239887,
2,0,0,1,0,2447.27,0.0219091,0.0216304,-24.9401,2,0.00338148,10,-0.000539464,-1.6031,0.240884,0.244931,-239.031,0.0216304,
2,0,0,1,0,2447.27,0.0195009,0.0191893,-24.415,2,0.00323351,10,-0.000468508,-1.61234,0.278215,0.212066,-202.655,0.0191893,
2,0,0,1,0,2447.28,0.0171038,0.0168108,-23.9753,2,0.00308844,10,-0.000403045,-1.62024,0.323892,0.18216,-170.864,0.0168108,
2,0,0,1,0,2447.28,0.0147067,0.014426,-23.604,2,0.00294578,10,-0.000340511,-1.62701,0.384365,0.1535,-141.689,0.01442599,
2,0,0,1,0,2447.29,0.012304,0.0120411,-23.2923,2,0.00280518,10,-0.000280466,-1.63279,0.474987,0.124214,-113.197,0.0120411,
2,0,0,1,0,2447.3,0.00990136,0.00961599,-23.0474,2,0.00266623,10,-0.000221623,-1.63738,0.635096,0.0928994,-83.7855,0.00961599,
2,0,0,1,0,2447.3,0.00750426,0.00724068,-22.891,2,0.00252846,10,-0.000165747,-1.64033,0.803782,0.073403,-65.6343,0.00724068,
2,0,0,1,0,2447.31,0.00510715,0.00480598,-22.732,2,0.00239158,10,-0.00010925,-1.64336,1.70033,0.0346991,-30.9281,0.00480598,
2,0,0,1,0,2447.31,0.00270173,0.00240734,-22.6606,2,0.00225541,10,-5.45519e-05,-1.64473,3.97516,0.0148422,-13.1782,0.00240734,
2,0,0,1,0,2447.32,0.000304623,-4.2195e-05,-22.714,2,0.00211909,10,9.58415e-07,-1.64371,11.9078,0.00495475,-4.38475,-4.2195e-05,
2,0,0,1,0,2447.33,-0.00209248,-0.00245462,-22.6772,2,0.0019829,10,5.56639e-05,-1.64441,13.6313,0.00432829,-3.83795,-0.00245462,
2,0,0,1,0,2447.33,-0.00450068,-0.00480872,-22.6867,2,0.00184687,10,0.000109094,-1.64423,-4.97327,-0.0118634,10.5218,-0.00480872,
2,0,0,1,0,2447.34,-0.00689779,-0.00724448,-22.7428,2,0.00171057,10,0.00016476,-1.64316,-2.14799,-0.0274675,24.3874,-0.00724448,
2,0,0,1,0,2447.34,-0.00929489,-0.00957844,-22.8025,2,0.00157395,10,0.000218412,-1.64202,-1.78551,-0.0330437,29.4249,-0.00957844,
2,0,0,1,0,2447.35,-0.011692,-0.0120259,-22.8735,2,0.00143691,10,0.000275074,-1.64067,-1.34287,-0.0439357,39.2721,-0.0120259,
2,0,0,1,0,2447.36,-0.0140974,-0.0144404,-22.984,2,0.00129931,10,0.000331898,-1.63857,-1.12676,-0.0523623,47.0064,-0.0144404,
2,0,0,1,0,2447.36,-0.0164945,-0.016838,-23.1044,2,0.00116102,10,0.000389031,-1.63631,-1.0824,-0.0545087,49.1663,-0.016838,
2,0,0,1,0,2447.37,-0.0188916,-0.0192578,-23.2307,2,0.00102198,10,0.000447374,-1.63394,-0.985329,-0.0598785,54.3165,-0.0192578,
2,0,0,1,0,2447.37,-0.0212998,-0.0216225,-23.3586,2,0.000882215,10,0.000505073,-1.63155,-0.882819,-0.0668314,61.0046,-0.0216225,
2,0,0,1,0,2447.38,-0.0236969,-0.024,-23.5365,2,0.000741526,10,0.000564875,-1.62826,-0.844461,-0.069867,64.1153,-0.024,
2,0,0,1,0,2447.39,-0.026094,-0.0264537,-23.689,2,0.000599843,10,0.000626663,-1.62545,-0.842878,-0.0699983,64.6821,-0.0264537,
2,0,0,1,0,2447.39,-0.0284912,-0.0288439,-23.8204,2,0.000457334,10,0.000687074,-1.62305,-0.801844,-0.0735804,68.495,-0.02884391,
2,0,0,1,0,2447.4,-0.0308994,-0.0312213,-24.019,2,0.000313796,10,0.000749906,-1.61944,-0.771144,-0.0765097,71.6752,-0.0312213,
2,0,0,1,0,2447.4,-0.0332965,-0.0336073,-24.1848,2,0.000169188,10,0.000812783,-1.61646,-0.772305,-0.0763947,72.1089,-0.0336073,
2,0,0,1,0,2447.41,-0.0356936,-0.0360303,-24.3397,2,2.3622e-05,10,0.000876965,-1.61369,-0.757993,-0.0778371,74.0206,-0.0360303,
2,0,0,1,0,2447.42,-0.038099,-0.03843,-24.5392,2,-0.000123062,10,0.000943042,-1.61014,-0.721984,-0.0817193,78.2346,-0.03843,
2,0,0,1,0,2447.42,-0.0404961,-0.0408615,-24.7231,2,-0.000270873,10,0.00101022,-1.6069,-0.754523,-0.0781951,75.4326,-0.0408615,
2,0,0,1,0,2447.43,-0.0428932,-0.0432506,-24.8886,2,-0.00041974,10,0.00107645,-1.604,-0.746529,-0.0790324,76.7989,-0.0432506,
2,0,0,1,0,2447.43,-0.0452903,-0.0456121,-25.0672,2,-0.000569666,10,0.00114337,-1.60089,-0.728441,-0.0809949,79.288,-0.0456121,
2,0,0,1,0,2447.44,-0.0476985,-0.0480076,-25.2774,2,-0.000720736,10,0.00121351,-1.59727,-0.71931,-0.082023,80.8877,-0.0480076,
2,0,0,1,0,2447.45,-0.0500956,-0.0504773,-25.4716,2,-0.000872988,10,0.00128574,-1.59394,-0.787129,-0.074956,74.4447,-0.0504773,
2,0,0,1,0,2447.45,-0.0524927,-0.052825,-25.6209,2,-0.00102631,10,0.00135342,-1.59141,-0.742639,-0.0794464,79.5624,-0.052825,
2,0,0,1,0,2447.46,-0.0548981,-0.0552544,-25.8505,2,-0.00118072,10,0.00142836,-1.58753,-0.720794,-0.0818542,82.5557,-0.0552544,
2,0,0,1,0,2447.46,-0.0572953,-0.0576265,-26.0374,2,-0.00133641,10,0.00150045,-1.5844,-0.762023,-0.0774254,78.635,-0.0576265,
2,0,0,1,0,2447.47,-0.0596924,-0.0600082,-26.2101,2,-0.00149318,10,0.00157282,-1.58153,-0.736879,-0.0800674,81.9962,-0.0600082,
2,0,0,1,0,2447.48,-0.062095,-0.0624599,-26.4267,2,-0.00165104,10,0.00165061,-1.57796,-0.713559,-0.0826842,85.2561,-0.0624599,
2,0,0,1,0,2447.48,-0.0644977,-0.0648394,-26.6456,2,-0.00181029,10,0.00172769,-1.57437,-0.712729,-0.0827804,85.9443,-0.0648394,
2,0,0,1,0,2447.49,-0.0668948,-0.0672105,-26.814,2,-0.00197067,10,0.00180218,-1.57164,-0.770379,-0.0765857,80.1771,-0.0672105,
2,0,0,1,0,2447.49,-0.0692919,-0.0696219,-27.0139,2,-0.00213217,10,0.00188076,-1.56841,-0.716542,-0.0823399,86.8667,-0.0696219,
2,0,0,1,0,2447.5,-0.0717001,-0.072029,-27.2446,2,-0.00229498,10,0.0019624,-1.56472,-0.703354,-0.0838838,89.1524,-0.07202898,
2,0,0,1,0,2447.51,-0.0740972,-0.074416,-27.4595,2,-0.00245909,10,0.00204343,-1.56131,-0.721159,-0.0818128,87.6745,-0.074416,
2,0,0,1,0,2447.51,-0.0764943,-0.076839,-27.6596,2,-0.00262445,10,0.00212534,-1.55815,-0.693188,-0.085114,91.9436,-0.076839,
2,0,0,1,0,2447.52,-0.0788997,-0.0792578,-27.903,2,-0.00279109,10,0.00221153,-1.55435,-0.65545,-0.0900145,98.0288,-0.0792578,
2,0,0,1,0,2447.52,-0.0812968,-0.0816299,-28.1474,2,-0.00295924,10,0.00229767,-1.55056,-0.659762,-0.0894262,98.1112,-0.08162991,
2,0,0,1,0,2447.53,-0.0836939,-0.0840328,-28.3652,2,-0.0031288,10,0.00238361,-1.54721,-0.65046,-0.090705,100.458,-0.0840328,
2,0,0,1,0,2447.54,-0.086091,-0.0864484,-28.5993,2,-0.00329967,10,0.00247236,-1.54364,-0.615964,-0.0957848,107.037,-0.0864484,
2,0,0,1,0,2447.54,-0.0884992,-0.0888216,-28.8922,2,-0.0034722,10,0.00256625,-1.53922,-0.607715,-0.097085,109.354,-0.0888216,
2,0,0,1,0,2447.55,-0.0908963,-0.091199,-29.1302,2,-0.00364633,10,0.00265665,-1.53566,-0.613518,-0.0961666,109.411,-0.091199,
2,0,0,1,0,2447.55,-0.0932934,-0.0935828,-29.3962,2,-0.00382192,10,0.00275097,-1.53171,-0.577767,-0.102117,117.311,-0.0935828,
2,0,0,1,0,2447.56,-0.0956989,-0.0960249,-29.7206,2,-0.00399928,10,0.00285392,-1.52694,-0.567332,-0.103995,120.509,-0.09602493,
2,0,0,1,0,2447.57,-0.098096,-0.098449,-29.9927,2,-0.00417845,10,0.00295275,-1.52298,-0.614379,-0.096032,112.036,-0.098449,
2,0,0,0,0,2447.57,-0.0999548,-0.100305,-30.2021,2,-0.00431993,10,0.00302942,-1.51996,0.0196431,3.0036,-3216.16,-0.100305,
2,0,0,1,1,2447.57,-0.0994555,-0.0999495,-28.0968,2,-0.00436906,10,0.00280827,-1.55134,-0.0139497,-4.22948,3837.2,-0.0999495,
2,0,0,1,1,2447.58,-0.0970583,-0.0974978,-19.8293,2,-0.00451113,10,0.00193332,-1.70269,-0.0143208,-4.11988,3063.67,-0.0974978,
2,0,0,1,1,2447.58,-0.0946501,-0.0950737,-13.1077,2,-0.00460879,10,0.0012462,-1.88247,-0.0110325,-5.34784,2568.43,-0.0950737,
2,0,0,1,1,2447.59,-0.092253,-0.0926613,-7.49136,2,-0.00466957,10,0.000694159,-2.12544,-0.00619175,-9.52881,2148.5,-0.0926613,
2,0,0,1,1,2447.6,-0.0898559,-0.0902998,-2.79472,2,-0.00469955,10,0.000252363,-2.55366,-0.0110523,-5.33823,1803.9,-0.0902998,
2,1,0,1,1,2447.6,-0.0874588,-0.0879552,1.18747,2,-0.00470366,10,-0.000104445,-2.92538,0.0506504,1.16485,1562.18,-0.0879552,
2,1,0,1,1,2447.61,-0.0850534,-0.0854983,4.64049,2,-0.00468555,10,-0.000396754,-2.33344,0.00302923,19.4769,1334.3,-0.0854983,
2,1,0,1,1,2447.61,-0.0826563,-0.0831251,7.56172,2,-0.0046484,10,-0.000628568,-2.12138,0.0130978,4.50459,1143.23,-0.0831251,
2,1,0,1,1,2447.62,-0.0802592,-0.0806819,10.0239,2,-0.0045952,10,-0.000808747,-1.99896,0.0223568,2.63902,969.443,-0.0806819,
2,1,0,1,1,2447.63,-0.077851,-0.0783458,12.1993,2,-0.00452826,10,-0.000955765,-1.91366,0.0321926,1.83272,840.383,-0.0783458,
2,1,0,1,1,2447.63,-0.0754539,-0.0758284,14.0941,2,-0.00444908,10,-0.00106873,-1.85096,0.0438038,1.34692,720.278,-0.0758284,
2,1,0,1,1,2447.64,-0.0730568,-0.0734998,15.6974,2,-0.0043594,10,-0.00115376,-1.80417,0.0570491,1.0342,622.135,-0.0734998,
2,1,0,1,1,2447.64,-0.0706597,-0.0710195,17.0728,2,-0.00426081,10,-0.0012125,-1.7677,0.0727447,0.811056,533.812,-0.0710195,
2,1,0,1,1,2447.65,-0.0682542,-0.0686283,18.3015,2,-0.00415444,10,-0.001256,-1.73751,0.0920763,0.640773,452.011,-0.0686283,
2,1,0,1,1,2447.66,-0.0658571,-0.0661904,19.2812,2,-0.0040415,10,-0.00127623,-1.71487,0.117592,0.501736,374.078,-0.0661904,
2,1,0,1,1,2447.66,-0.06346,-0.0638585,20.0963,2,-0.00392322,10,-0.00128332,-1.69688,0.140927,0.418658,326.717,-0.0638585,
2,1,0,1,1,2447.67,-0.0610518,-0.0614154,20.8368,2,-0.0038003,10,-0.0012797,-1.68117,0.174341,0.338418,273.378,-0.0614154,
2,1,0,1,1,2447.67,-0.0586547,-0.0589998,21.4326,2,-0.00367335,10,-0.00126452,-1.66892,0.218597,0.269903,224.603,-0.0589998,
2,1,0,1,1,2447.68,-0.0562576,-0.0566435,21.9059,2,-0.00354328,10,-0.00124083,-1.65944,0.264579,0.222996,190.2,-0.0566435,
2,1,0,1,1,2447.69,-0.053855,-0.0542619,22.337,2,-0.00341051,10,-0.00121205,-1.65097,0.317464,0.185848,161.44,-0.05426186,
2,1,0,1,1,2447.69,-0.0514523,-0.0518007,22.6799,2,-0.00327538,10,-0.00117483,-1.64436,0.398755,0.147961,130.507,-0.0518007,
2,1,0,1,1,2447.7,-0.0490552,-0.0494306,22.9458,2,-0.00313846,10,-0.00113422,-1.6393,0.519822,0.1135,101.453,-0.04943065,
2,1,0,1,1,2447.7,-0.0466581,-0.0469949,23.1603,2,-0.00300011,10,-0.00108842,-1.63526,0.641411,0.0919848,83.0015,-0.0469949,
2,1,0,1,1,2447.71,-0.0442527,-0.0446546,23.3449,2,-0.00286052,10,-0.00104246,-1.63181,0.839297,0.0702969,63.9182,-0.0446546,
2,1,0,1,1,2447.72,-0.0418556,-0.0422146,23.467,2,-0.00272005,10,-0.000990651,-1.62954,1.34242,0.0439506,40.1791,-0.0422146,
2,1,0,1,1,2447.72,-0.0394585,-0.0398191,23.5449,2,-0.00257895,10,-0.000937539,-1.6281,1.63516,0.0360821,33.144,-0.0398191,
2,1,0,1,1,2447.73,-0.0370558,-0.0374014,23.6138,2,-0.00243749,10,-0.000883188,-1.62683,2.46603,0.0239251,22.0344,-0.0374014,
2,1,0,1,1,2447.73,-0.0346532,-0.0350091,23.6653,2,-0.00229559,10,-0.0008285,-1.62589,6.29942,0.00936594,8.6327,-0.0350091,
2,1,0,1,1,2447.74,-0.0322561,-0.0326031,23.6538,2,-0.00215362,10,-0.000771187,-1.6261,-10.8936,-0.00541603,-4.99867,-0.0326031,
2,1,0,1,1,2447.75,-0.0298589,-0.0301938,23.6332,2,-0.00201176,10,-0.000713576,-1.62648,-9.42472,-0.00626013,-5.7757,-0.0301938,
2,1,0,1,1,2447.75,-0.0274535,-0.027792,23.63,2,-0.00186994,10,-0.000656725,-1.62654,-3.75594,-0.0157084,-14.4638,-0.027792,
2,1,0,1,1,2447.76,-0.0250564,-0.0253997,23.5664,2,-0.00172834,10,-0.00059858,-1.62771,-2.20635,-0.026741,-24.5957,-0.0253997,
2,1,0,1,1,2447.76,-0.0226593,-0.0230339,23.5025,2,-0.00158714,10,-0.000541355,-1.62889,-2.22791,-0.0264822,-24.2881,-0.0230339,
2,1,0,1,1,2447.77,-0.0202511,-0.0206247,23.4611,2,-0.00144627,10,-0.000483877,-1.62965,-1.76079,-0.0335077,-30.6358,-0.0206247,
2,1,0,1,1,2447.78,-0.017854,-0.0181932,23.3595,2,-0.00130581,10,-0.000424984,-1.63154,-1.43123,-0.0412232,-37.5593,-0.0181932,
2,1,0,1,1,2447.78,-0.0154569,-0.0158104,23.2649,2,-0.00116594,10,-0.000367829,-1.6333,-1.31134,-0.0449922,-40.8546,-0.0158104,
2,1,0,1,1,2447.79,-0.0130598,-0.0134309,23.1576,2,-0.00102667,10,-0.000311027,-1.63531,-1.34525,-0.0438581,-39.6581,-0.0134309,
2,1,0,1,1,2447.79,-0.0106516,-0.0110291,23.0806,2,-0.000887935,10,-0.000254557,-1.63675,-1.22066,-0.0483344,-43.4958,-0.0110291,
2,1,0,1,1,2447.8,-0.00825448,-0.00859756,22.9607,2,-0.000749824,10,-0.000197406,-1.63901,-1.09526,-0.0538683,-48.2775,-0.00859756,
2,1,0,1,1,2447.81,-0.00585738,-0.00620422,22.8373,2,-0.000612463,10,-0.000141688,-1.64136,-1.14432,-0.0515592,-45.9835,-0.00620422,
2,1,0,1,1,2447.81,-0.00345195,-0.00378543,22.7512,2,-0.000475695,10,-8.6123e-05,-1.643,-1.07864,-0.0546983,-48.4977,-0.00378543,
2,1,0,1,1,2447.82,-0.00105485,-0.0014186,22.617,2,-0.000339604,10,-3.20846e-05,-1.64556, , , ,-0.0014186,
2,1,0,0,1,2447.82,-7.54729e-05,-0.000478022,22.5599,2,-0.000283143,10,-1.07841e-05,-1.64666, , , ,-0.000478022,