File: Figure_codes/Fig_3-5/rawdata_trumpetplot_data/before 10th/20221101_1-115_002_TrumpetPlot_ParaChange_07_CV_C01_7.csv
mode,ox/red,error,control changes,counter inc.,time/s,control/V,Ewe/V,<I>/mA,cycle number,(Q-Qo)/C,I Range,P/W,log(|I|),Tafel slope mV/dec,alpha_eff,dI/d(E-IR),E-IR/V,
2,0,0,0,0,9760.49,2.44065e-05,-0.000287149,-1.2304,8,0.0000000E+000,11,3.53307e-07,-2.90995, , , ,-0.0002871489,
2,1,0,1,0,9760.55,0.00129787,0.000944068,0.386974,8,-7.64891e-06,11,3.6533e-07,-3.41232, , , ,0.000944068,
2,1,0,1,0,9760.63,0.00279606,0.00255039,0.711997,8,3.71212e-05,11,1.81587e-06,-3.14752,0.00423911,13.918,168.497,0.00255039,
2,1,0,1,0,9760.7,0.00429425,0.00400007,0.756905,8,9.27857e-05,11,3.02767e-06,-3.12096,0.0498665,1.18316,33.4773,0.00400007,
2,1,0,1,0,9760.78,0.00579244,0.00549205,0.78249,8,0.000151195,11,4.29747e-06,-3.10652,0.0892622,0.660974,20.1008,0.00549205,
2,1,0,1,0,9760.85,0.00729063,0.00701046,0.813912,8,0.000211755,11,5.70589e-06,-3.08942,0.113639,0.519189,16.4185,0.00701046,
2,1,0,1,0,9760.93,0.00878882,0.00849515,0.837535,8,0.000274237,11,7.11498e-06,-3.077,0.14165,0.41652,13.5505,0.00849515,
2,1,0,1,0,9761,0.010287,0.0100104,0.858036,8,0.000338289,11,8.58926e-06,-3.06649,0.188356,0.313237,10.4229,0.0100104,
2,1,0,1,0,9761.08,0.0117852,0.0114855,0.873326,8,0.000403668,11,1.00306e-05,-3.05882,0.186753,0.315926,10.7456,0.0114855,
2,1,0,1,0,9761.15,0.0132847,0.013034,0.886612,8,0.000470186,11,1.15561e-05,-3.05227,0.181748,0.324626,11.2721,0.013034,
2,1,0,1,0,9761.23,0.0147802,0.0144967,0.903768,8,0.000537831,11,1.31016e-05,-3.04394,0.198579,0.29711,10.4783,0.01449666,
2,1,0,1,0,9761.3,0.0162798,0.0159962,0.917744,8,0.000606889,11,1.46804e-05,-3.03728,0.262594,0.224682,8.02468,0.0159962,
2,1,0,1,0,9761.37,0.017778,0.0174865,0.928289,8,0.000676716,11,1.62325e-05,-3.03232,0.25002,0.235981,8.57506,0.0174865,
2,1,0,1,0,9761.45,0.0192761,0.0189754,0.943816,8,0.000747322,11,1.79093e-05,-3.02511,0.249942,0.236055,8.66592,0.0189754,
2,1,0,1,0,9761.52,0.0207743,0.020514,0.957123,8,0.000819049,11,1.96344e-05,-3.01903,0.25082,0.235228,8.74542,0.020514,
2,1,0,1,0,9761.6,0.0222725,0.0219653,0.969522,8,0.000891744,11,2.12959e-05,-3.01344,0.270127,0.218416,8.24893,0.02196534,
2,1,0,1,0,9761.67,0.0237707,0.0234934,0.98124,8,0.000965358,11,2.30526e-05,-3.00822,0.288539,0.204479,7.83302,0.0234934,
2,1,0,1,0,9761.75,0.0252689,0.0249983,0.988908,8,0.00103974,11,2.47211e-05,-3.00484,0.267709,0.220388,8.55274,0.0249983,
2,1,0,1,0,9761.82,0.0267671,0.0264912,1.00748,8,0.00111517,11,2.66892e-05,-2.99676,0.217288,0.271529,10.656,0.0264912,
2,1,0,1,0,9761.9,0.0282653,0.027962,1.02201,8,0.00119172,11,2.85774e-05,-2.99054,0.236625,0.24934,9.93208,0.027962,
2,1,0,1,0,9761.97,0.0297644,0.0295105,1.03439,8,0.00126937,11,3.05254e-05,-2.98532,0.282571,0.208797,8.41148,0.0295105,
2,1,0,1,0,9762.05,0.0312599,0.0309509,1.03934,8,0.00134777,11,3.21683e-05,-2.98324,0.237765,0.248144,10.1317,0.0309509,
2,1,0,1,0,9762.12,0.0327599,0.0324709,1.06332,8,0.00142729,11,3.45269e-05,-2.97334,0.225854,0.261231,10.8247,0.0324709,
2,1,0,1,0,9762.2,0.034258,0.0339472,1.07766,8,0.001508,11,3.65835e-05,-2.96752,0.211298,0.279226,11.7344,0.0339472,
2,1,0,1,0,9762.27,0.0357562,0.0354677,1.09519,8,0.00158998,11,3.88438e-05,-2.96051,0.274218,0.215158,9.14946,0.0354677,
2,1,0,1,0,9762.35,0.0372544,0.0369395,1.10975,8,0.00167324,11,4.09937e-05,-2.95477,0.226018,0.261041,11.3196,0.0369395,
2,1,0,1,0,9762.42,0.0387526,0.0384579,1.12396,8,0.00175743,11,4.3225e-05,-2.94925,0.202757,0.290988,12.8487,0.0384579,
2,1,0,1,0,9762.5,0.0402508,0.0399505,1.14735,8,0.00184312,11,4.58373e-05,-2.9403,0.210588,0.280168,12.5474,0.0399505,
2,1,0,1,0,9762.57,0.041749,0.0414609,1.16784,8,0.00193052,11,4.84197e-05,-2.93262,0.209322,0.281863,12.8047,0.0414609,
2,1,0,1,0,9762.65,0.0432472,0.0429625,1.18666,8,0.00201921,11,5.09817e-05,-2.92568,0.229236,0.257377,11.9067,0.0429625,
2,1,0,1,0,9762.72,0.0447449,0.0444511,1.20463,8,0.00210916,11,5.3547e-05,-2.91915,0.200789,0.29384,13.8115,0.0444511,
2,1,0,1,0,9762.8,0.0462445,0.0459499,1.22754,8,0.00220079,11,5.64052e-05,-2.91097,0.17931,0.329039,15.7328,0.0459499,
2,1,0,1,0,9762.87,0.04774,0.0474833,1.24647,8,0.00229392,11,5.91863e-05,-2.90432,0.176523,0.334234,16.2693,0.0474833,
2,1,0,1,0,9762.95,0.0492399,0.0489537,1.26863,8,0.00238898,11,6.2104e-05,-2.89667,0.200096,0.294858,14.6144,0.0489537,
2,1,0,1,0,9763.02,0.0507381,0.050448,1.28778,8,0.00248547,11,6.49658e-05,-2.89016,0.199092,0.296345,14.9475,0.050448,
2,1,0,1,0,9763.1,0.0522363,0.0519197,1.3134,8,0.00258363,11,6.81915e-05,-2.8816,0.183244,0.321974,16.5375,0.0519197,
2,1,0,1,0,9763.17,0.0537345,0.0533782,1.34361,8,0.00268373,11,7.17195e-05,-2.87173,0.191421,0.30822,16.1088,0.0533782,
2,1,0,1,0,9763.25,0.0552327,0.0549789,1.36605,8,0.00278579,11,7.51039e-05,-2.86453,0.217812,0.270875,14.3888,0.0549789,
2,1,0,1,0,9763.32,0.0567309,0.0564616,1.3855,8,0.00288948,11,7.82277e-05,-2.85839,0.211413,0.279075,15.1158,0.0564616,
2,1,0,1,0,9763.4,0.0582291,0.0578928,1.4129,8,0.00299466,11,8.17965e-05,-2.84989,0.209853,0.281149,15.4945,0.0578928,
2,1,0,1,0,9763.47,0.0597291,0.0594708,1.43671,8,0.00310203,11,8.54423e-05,-2.84263,0.193746,0.304522,17.0321,0.05947081,
2,1,0,1,0,9763.55,0.0612246,0.0609163,1.46063,8,0.00321103,11,8.89764e-05,-2.83546,0.233529,0.252645,14.3459,0.0609163,
2,1,0,1,0,9763.62,0.0627241,0.0624258,1.48439,8,0.00332211,11,9.26643e-05,-2.82845,0.209985,0.280973,16.2849,0.0624258,
2,1,0,1,0,9763.7,0.0642219,0.0639351,1.50453,8,0.00343445,11,9.6192e-05,-2.8226,0.214004,0.275696,16.2488,0.0639351,
2,1,0,1,0,9763.77,0.06572,0.065391,1.53011,8,0.00354882,11,0.000100055,-2.81528,0.210444,0.280359,16.7181,0.065391,
2,1,0,1,0,9763.85,0.0672182,0.0668961,1.55682,8,0.00366521,11,0.000104145,-2.80776,0.227062,0.259841,15.7371,0.0668961,
2,1,0,1,0,9763.92,0.0687164,0.0685047,1.58138,8,0.00378319,11,0.000108332,-2.80096,0.271159,0.217584,13.4052,0.0685047,
2,1,0,1,0,9764,0.0702146,0.0699013,1.59695,8,0.0039026,11,0.000111629,-2.79671,0.240478,0.245345,15.3081,0.0699013,
2,1,0,1,0,9764.07,0.0717128,0.0714185,1.62275,8,0.00402383,11,0.000115895,-2.78975,0.233391,0.252795,15.9743,0.0714185,
2,1,0,1,0,9764.15,0.073211,0.0729341,1.64319,8,0.00414678,11,0.000119845,-2.78431,0.268706,0.219571,14.0822,0.0729341,
2,1,0,1,0,9764.22,0.0747092,0.0744054,1.66391,8,0.00427123,11,0.000123804,-2.77887,0.299035,0.197301,12.8079,0.0744054,
2,1,0,1,0,9764.3,0.0762087,0.0759087,1.67837,8,0.00439718,11,0.000127403,-2.77511,0.271555,0.217268,14.2783,0.0759087,
2,1,0,1,0,9764.37,0.0777042,0.077397,1.70413,8,0.00452432,11,0.000131895,-2.7685,0.264937,0.222695,14.7849,0.077397,
2,1,0,1,0,9764.45,0.0792037,0.0789492,1.72707,8,0.00465359,11,0.000136351,-2.76269,0.30664,0.192408,12.9174,0.07894925,
2,1,0,1,0,9764.52,0.0807019,0.0804153,1.74417,8,0.00478413,11,0.000140258,-2.75841,0.379539,0.155452,10.5573,0.0804153,
2,1,0,1,0,9764.6,0.0822001,0.0818815,1.75795,8,0.00491593,11,0.000143943,-2.75499,0.337581,0.174773,12.0036,0.0818815,
2,1,0,1,0,9764.67,0.0836983,0.0833865,1.77631,8,0.00504888,11,0.000148121,-2.75048,0.343436,0.171794,11.9344,0.0833865,
2,1,0,1,0,9764.75,0.0851965,0.0848764,1.79679,8,0.00518342,11,0.000152505,-2.7455,0.334593,0.176334,12.3641,0.0848764,
2,1,0,1,0,9764.82,0.0866947,0.0863954,1.81673,8,0.00531945,11,0.000156957,-2.74071,0.374374,0.157596,11.1555,0.0863954,
2,1,0,1,0,9764.9,0.0881929,0.0879153,1.83432,8,0.00545673,11,0.000161265,-2.73652,0.390613,0.151045,10.8196,0.0879153,
2,1,0,1,0,9764.97,0.0896911,0.0893775,1.85023,8,0.00559517,11,0.000165369,-2.73278,0.331046,0.178223,12.8922,0.0893775,
2,1,0,1,0,9765.05,0.0911893,0.0908718,1.87408,8,0.00573518,11,0.000170302,-2.72721,0.275083,0.214481,15.6647,0.0908718,
2,1,0,1,0,9765.12,0.0926884,0.0923743,1.90002,8,0.00587722,11,0.000175513,-2.72124,0.300761,0.196169,14.512,0.09237428,
2,1,0,1,0,9765.2,0.0941839,0.0938713,1.91647,8,0.00602043,11,0.000179902,-2.7175,0.329146,0.179252,13.4142,0.0938713,
2,1,0,1,0,9765.27,0.0956838,0.0954399,1.9344,8,0.00616543,11,0.000184619,-2.71345,0.289258,0.20397,15.4422,0.0954399,
2,1,0,1,0,9765.35,0.097182,0.0969106,1.95996,8,0.00631204,11,0.000189941,-2.70775,0.234769,0.251311,19.2586,0.0969106,
2,1,0,1,0,9765.42,0.0986802,0.0983453,1.99087,8,0.00646065,11,0.000195792,-2.70096,0.239504,0.246342,19.1731,0.09834528,
2,1,0,1,0,9765.49,0.100178,0.0999274,2.01836,8,0.00661151,11,0.00020169,-2.695,0.24485,0.240963,18.9831,0.0999274,
2,1,0,1,0,9765.57,0.101677,0.101399,2.04536,8,0.0067646,11,0.000207398,-2.68923,0.221708,0.266116,21.3227,0.101399,
2,1,0,1,0,9765.64,0.103175,0.102883,2.08809,8,0.00691994,11,0.000214829,-2.68025,0.200224,0.294671,24.0388,0.102883,
2,1,0,1,0,9765.72,0.104673,0.104428,2.12776,8,0.00707819,11,0.000222198,-2.67208,0.187262,0.315067,26.1191,0.104428,
2,1,0,1,0,9765.79,0.106171,0.105879,2.16723,8,0.00723951,11,0.000229464,-2.66409,0.189957,0.310597,26.2175,0.105879,
2,1,0,1,0,9765.87,0.107669,0.107348,2.20335,8,0.00740381,11,0.000236524,-2.65692,0.180768,0.326385,28.106,0.107348,
2,1,0,1,0,9765.94,0.109168,0.108895,2.24957,8,0.00757137,11,0.000244967,-2.6479,0.170743,0.345548,30.4015,0.1088952,
2,1,0,1,0,9766.02,0.110664,0.110387,2.29716,8,0.00774194,11,0.000253576,-2.63881,0.162678,0.36268,32.5247,0.110387,
2,1,0,1,0,9766.09,0.112164,0.111844,2.34482,8,0.00791669,11,0.000262253,-2.62989,0.173011,0.341019,31.1676,0.111844,
2,1,0,1,0,9766.17,0.113662,0.113356,2.39443,8,0.00809483,11,0.000271425,-2.6208,0.176517,0.334245,31.1742,0.113356,
2,1,0,1,0,9766.24,0.11516,0.114877,2.44036,8,0.00827622,11,0.000280342,-2.61255,0.176993,0.333346,31.74,0.114877,
2,1,0,1,0,9766.32,0.116658,0.116362,2.49179,8,0.00846135,11,0.00028995,-2.60349,0.169997,0.347065,33.6777,0.116362,
2,1,0,1,0,9766.39,0.118157,0.117828,2.54111,8,0.00865042,11,0.000299415,-2.59498,0.184518,0.319752,31.6541,0.1178284,
2,1,0,1,0,9766.47,0.119655,0.119329,2.58539,8,0.00884312,11,0.000308511,-2.58747,0.210319,0.280526,28.2943,0.119329,
2,1,0,1,0,9766.54,0.121153,0.120849,2.62627,8,0.00903893,11,0.000317381,-2.58066,0.21044,0.280365,28.7954,0.120849,
2,1,0,1,0,9766.62,0.122653,0.122383,2.67242,8,0.00923823,11,0.00032706,-2.57309,0.200799,0.293826,30.6344,0.122383,
2,1,0,1,0,9766.69,0.124149,0.123889,2.71593,8,0.00944042,11,0.000336474,-2.56608,0.216318,0.272747,28.8851,0.123889,
2,1,0,1,0,9766.77,0.125648,0.125334,2.75656,8,0.0096464,11,0.000345491,-2.55963,0.240068,0.245764,26.4099,0.125334,
2,1,0,1,0,9766.84,0.127146,0.126858,2.7906,8,0.00985507,11,0.000354009,-2.5543,0.250278,0.235737,25.721,0.1268577,
2,1,0,1,0,9766.92,0.128644,0.128338,2.83514,8,0.0100664,11,0.000363857,-2.54743,0.256815,0.229737,25.436,0.128338,
2,1,0,1,0,9766.99,0.130142,0.12986,2.87229,8,0.0102807,11,0.000372995,-2.54177,0.264734,0.222865,24.9587,0.12986,
2,1,0,1,0,9767.07,0.13164,0.131319,2.90864,8,0.010498,11,0.000381959,-2.53631,0.32027,0.184219,20.8537,0.131319,
2,1,0,1,0,9767.14,0.133139,0.132868,2.93916,8,0.0107178,11,0.000390521,-2.53178,0.358777,0.164447,18.8594,0.132868,
2,1,0,1,0,9767.22,0.134637,0.134323,2.96592,8,0.0109393,11,0.000398392,-2.52784,0.398347,0.148112,17.1575,0.134323,
2,1,0,1,0,9767.29,0.136135,0.135821,2.99156,8,0.0111631,11,0.000406317,-2.5241,0.426781,0.138244,16.114,0.135821,
2,1,0,1,0,9767.37,0.137633,0.137341,3.01565,8,0.0113888,11,0.000414173,-2.52062,0.630039,0.093645,10.9888,0.137341,
2,1,0,1,0,9767.44,0.139133,0.138866,3.03024,8,0.011616,11,0.000420797,-2.51852,1.32175,0.0446379,5.25948,0.138866,
2,1,0,1,0,9767.52,0.140628,0.140368,3.02888,8,0.0118431,11,0.000425158,-2.51872,7.42671,0.00794429,0.937766,0.1403679,
2,1,0,1,0,9767.59,0.142128,0.141853,3.02634,8,0.0120709,11,0.000429297,-2.51908,-2.84822,-0.0207147,-2.4408,0.141853,
2,1,0,1,0,9767.67,0.143626,0.143368,3.01768,8,0.0122981,11,0.000432639,-2.52033,-0.54752,-0.107759,-12.6367,0.143368,
2,1,0,1,0,9767.74,0.145124,0.14483,2.9908,8,0.0125239,11,0.000433158,-2.52421,-0.271046,-0.217675,-25.292,0.14483,
2,1,0,1,0,9767.82,0.146622,0.146351,2.94244,8,0.0127468,11,0.000430629,-2.53129,-0.20717,-0.28479,-32.6458,0.146351,
2,1,0,1,0,9767.89,0.14812,0.147828,2.889,8,0.012966,11,0.000427073,-2.53925,-0.160253,-0.368167,-41.365,0.147828,
2,1,0,1,0,9767.97,0.149619,0.149352,2.82454,8,0.0131807,11,0.00042185,-2.54905,-0.127005,-0.464547,-50.9696,0.149352,
2,1,0,1,0,9768.04,0.151117,0.150819,2.74563,8,0.0133898,11,0.000414092,-2.56136,-0.10379,-0.568458,-60.4732,0.150819,
2,1,0,1,0,9768.12,0.152615,0.152322,2.64076,8,0.0135922,11,0.000402246,-2.57827,-0.0910868,-0.647734,-66.6404,0.152322,
2,1,0,1,0,9768.19,0.154113,0.153798,2.54073,8,0.0137868,11,0.00039076,-2.59504,-0.0826227,-0.714089,-70.6781,0.153798,
2,1,0,1,0,9768.27,0.155613,0.155286,2.4341,8,0.0139739,11,0.000377982,-2.61366,-0.0778848,-0.757529,-71.7373,0.155286,
2,1,0,1,0,9768.34,0.157108,0.156833,2.31993,8,0.0141524,11,0.000363842,-2.63453,-0.0703636,-0.838502,-75.7568,0.156833,
2,1,0,1,0,9768.42,0.158608,0.158288,2.20972,8,0.0143227,11,0.000349772,-2.65566,-0.0696811,-0.846715,-73.0413,0.158288,
2,1,0,1,0,9768.49,0.160106,0.159782,2.09753,8,0.0144843,11,0.000335147,-2.67829,-0.0686573,-0.859341,-70.4457,0.159782,
2,1,0,1,0,9768.57,0.161604,0.161344,1.99751,8,0.0146382,11,0.000322287,-2.69951,-0.071259,-0.827965,-64.594,0.161344,
2,1,0,1,0,9768.64,0.163102,0.162817,1.9064,8,0.0147849,11,0.000310396,-2.71979,-0.0729728,-0.808521,-60.1684,0.162817,
2,1,0,1,0,9768.72,0.164601,0.164305,1.81801,8,0.0149247,11,0.000298708,-2.7404,-0.0738171,-0.799273,-56.7635,0.164305,
2,1,0,1,0,9768.79,0.166099,0.165814,1.73243,8,0.0150581,11,0.000287261,-2.76134,-0.076642,-0.769813,-52.2909,0.165814,
2,1,0,1,0,9768.87,0.167597,0.167368,1.66488,8,0.0151859,11,0.000278647,-2.77862,-0.0867403,-0.680191,-44.2448,0.1673675,
2,1,0,1,0,9768.94,0.169095,0.168824,1.60396,8,0.0153087,11,0.000270787,-2.79481,-0.0910667,-0.647877,-40.5915,0.168824,
2,1,0,1,0,9769.02,0.170593,0.170338,1.53853,8,0.0154269,11,0.000262071,-2.81289,-0.0915573,-0.644405,-38.8904,0.170338,
2,1,0,1,0,9769.09,0.172092,0.171785,1.48311,8,0.0155408,11,0.000254776,-2.82883,-0.102247,-0.577036,-33.5555,0.171785,
2,1,0,1,0,9769.17,0.173588,0.173327,1.43728,8,0.0156507,11,0.000249118,-2.84246,-0.112897,-0.522598,-29.3978,0.173327,
2,1,0,1,0,9769.24,0.175088,0.174813,1.39894,8,0.0157576,11,0.000244554,-2.8542,-0.119932,-0.491944,-26.8704,0.1748134,
2,1,0,1,0,9769.32,0.176586,0.176285,1.35998,8,0.0158613,11,0.000239745,-2.86647,-0.124868,-0.472498,-25.0511,0.176285,
2,1,0,1,0,9769.39,0.178084,0.17782,1.31762,8,0.0159623,11,0.000234299,-2.88021,-0.135351,-0.435903,-22.5341,0.17782,
2,1,0,1,0,9769.47,0.179582,0.179322,1.2913,8,0.0160607,11,0.000231559,-2.88897,-0.158486,-0.372273,-18.8561,0.179322,
2,1,0,1,0,9769.54,0.181081,0.180783,1.26501,8,0.016157,11,0.000228691,-2.89791,-0.171982,-0.343059,-16.9887,0.180783,
2,1,0,1,0,9769.61,0.182579,0.1823,1.24037,8,0.0162516,11,0.00022612,-2.90645,-0.164152,-0.359422,-17.4007,0.1823,
2,1,0,1,0,9769.69,0.184077,0.183829,1.21957,8,0.0163443,11,0.000224192,-2.91379,-0.186194,-0.316874,-15.0932,0.183829,
2,1,0,1,0,9769.76,0.185577,0.185299,1.19868,8,0.0164353,11,0.000222115,-2.9213,-0.212531,-0.277607,-12.9985,0.185299,
2,1,0,1,0,9769.84,0.187073,0.186821,1.18341,8,0.0165248,11,0.000221086,-2.92686,-0.261083,-0.225981,-10.4069,0.1868207,
2,1,0,1,0,9769.91,0.188572,0.188283,1.16401,8,0.0166133,11,0.000219163,-2.93404,-0.257072,-0.229508,-10.4326,0.188283,
2,1,0,1,0,9769.99,0.19007,0.189781,1.14891,8,0.0167006,11,0.000218042,-2.93971,-0.27563,-0.214055,-9.60248,0.189781,
2,1,0,1,0,9770.06,0.191568,0.191292,1.13268,8,0.0167866,11,0.000216672,-2.94589,-0.27688,-0.213089,-9.44086,0.191292,
2,1,0,1,0,9770.14,0.193066,0.192741,1.12174,8,0.0168716,11,0.000216206,-2.95011,-0.372025,-0.158591,-6.93697,0.192741,
2,1,0,1,0,9770.21,0.194564,0.194297,1.11146,8,0.0169559,11,0.000215952,-2.95411,-0.355263,-0.166074,-7.19643,0.194297,
2,1,0,1,0,9770.29,0.196063,0.19577,1.09814,8,0.0170393,11,0.000214983,-2.95934,-0.312048,-0.189074,-8.12972,0.19577,
2,1,0,1,0,9770.36,0.197561,0.197251,1.08424,8,0.0171217,11,0.000213868,-2.96487,-0.366651,-0.160916,-6.85484,0.197251,
2,1,0,1,0,9770.44,0.199059,0.198787,1.08182,8,0.0172034,11,0.000215052,-2.96584,-0.479687,-0.122997,-5.18718,0.198787,
2,1,0,1,0,9770.51,0.200557,0.200261,1.07485,8,0.0172846,11,0.00021525,-2.96865,-0.470075,-0.125512,-5.24312,0.2002611,
2,1,0,1,0,9770.59,0.202057,0.201755,1.06334,8,0.0173654,11,0.000214533,-2.97333,-0.383252,-0.153946,-6.37381,0.201755,
2,1,0,1,0,9770.66,0.203552,0.203264,1.05445,8,0.0174453,11,0.000214331,-2.97698,-0.548657,-0.107535,-4.43674,0.203264,
2,1,0,1,0,9770.74,0.205052,0.204737,1.0485,8,0.0175246,11,0.000214667,-2.97943,-1.08836,-0.05421,-2.23543,0.204737,
2,1,0,1,0,9770.81,0.20655,0.206254,1.03988,8,0.0176035,11,0.000214479,-2.98302,-0.581288,-0.101499,-4.12827,0.206254,
2,1,0,1,0,9770.89,0.208048,0.207801,1.03552,8,0.0176823,11,0.000215181,-2.98484,-0.53453,-0.110377,-4.45814,0.207801,
2,1,0,1,0,9770.96,0.209546,0.209228,1.02923,8,0.0177603,11,0.000215344,-2.98749,-0.469331,-0.125711,-5.06498,0.209228,
2,1,0,1,0,9771.04,0.211044,0.210763,1.02325,8,0.0178377,11,0.000215663,-2.99002,-0.619937,-0.095171,-3.80806,0.210763,
2,1,0,1,0,9771.11,0.212543,0.212255,1.01945,8,0.0179148,11,0.000216383,-2.99164,-0.912309,-0.0646711,-2.56429,0.212255,
2,1,0,1,0,9771.19,0.214041,0.213738,1.01512,8,0.0179916,11,0.00021697,-2.99348,-0.659029,-0.0895257,-3.54305,0.213738,
2,1,0,1,0,9771.26,0.215539,0.215266,1.0106,8,0.018068,11,0.000217549,-2.99542,-0.646304,-0.0912883,-3.60113,0.215266,
2,1,0,1,0,9771.34,0.217037,0.216738,1.00185,8,0.0181438,11,0.00021714,-2.9992,-0.836521,-0.0705302,-2.77045,0.216738,
2,1,0,1,0,9771.41,0.218536,0.218257,0.998468,8,0.0182196,11,0.000217923,-3.00067,-2.46632,-0.0239223,-0.932954,0.218257,
2,1,0,1,0,9771.49,0.220032,0.21975,0.997761,8,0.018295,11,0.000219258,-3.00097,-1.05408,-0.055973,-2.17886,0.21975,
2,1,0,1,0,9771.56,0.221532,0.221281,0.992469,8,0.0183702,11,0.000219615,-3.00328,-0.759413,-0.0776916,-3.00859,0.221281,
2,1,0,1,0,9771.64,0.22303,0.222718,0.983885,8,0.0184449,11,0.000219129,-3.00706,-0.89368,-0.0660192,-2.54765,0.222718,
2,1,0,1,0,9771.71,0.224528,0.22427,0.983059,8,0.0185193,11,0.00022047,-3.00742,-0.841297,-0.0701298,-2.6933,0.22427,
2,1,0,1,0,9771.79,0.226026,0.225747,0.980776,8,0.0185935,11,0.000221407,-3.00843,-0.918192,-0.0642567,-2.45527,0.2257468,
2,1,0,1,0,9771.86,0.227525,0.227208,0.977124,8,0.0186675,11,0.00022201,-3.01005,-0.55768,-0.105795,-4.03005,0.227208,
2,1,0,1,0,9771.94,0.229023,0.228733,0.973543,8,0.0187411,11,0.000222681,-3.01164,-0.815489,-0.0723492,-2.75663,0.228733,
2,1,0,1,0,9772.01,0.230521,0.230213,0.968916,8,0.0188144,11,0.000223057,-3.01371,-1.92908,-0.0305846,-1.16004,0.230213,
2,1,0,1,0,9772.09,0.232019,0.231725,0.967272,8,0.0188877,11,0.000224141,-3.01445,-0.920428,-0.0641006,-2.4214,0.231725,
2,1,0,1,0,9772.16,0.233517,0.233224,0.968682,8,0.0189607,11,0.00022592,-3.01382,-1.06298,-0.0555041,-2.08888,0.233224,
2,1,0,1,0,9772.24,0.235016,0.234796,0.96475,8,0.0190336,11,0.000226519,-3.01559,-0.975903,-0.0604568,-2.27098,0.234796,
2,1,0,1,0,9772.31,0.236512,0.23618,0.958289,8,0.0191059,11,0.000226328,-3.0185,-1.04771,-0.0563135,-2.10485,0.23618,
2,1,0,1,0,9772.39,0.238012,0.23772,0.954666,8,0.0191783,11,0.000226943,-3.02015,-2.20182,-0.026796,-0.99636,0.23772,
2,1,0,1,0,9772.46,0.23951,0.239215,0.953503,8,0.0192504,11,0.000228093,-3.02068,-1.52021,-0.0388104,-1.4446,0.239215,
2,1,0,1,0,9772.54,0.241008,0.240705,0.950128,8,0.0193223,11,0.0002287,-3.02222,-0.969391,-0.060863,-2.26087,0.2407047,
2,1,0,1,0,9772.61,0.242506,0.242235,0.943324,8,0.0193939,11,0.000228507,-3.02534,-0.958727,-0.0615399,-2.27886,0.242235,
2,1,0,1,0,9772.69,0.244005,0.243744,0.944367,8,0.0194655,11,0.000230184,-3.02486,-1.76424,-0.0334421,-1.2319,0.243744,
2,1,0,1,0,9772.76,0.245503,0.245233,0.947829,8,0.0195369,11,0.000232439,-3.02327,-0.934326,-0.0631471,-2.32573,0.245233,
2,1,0,1,0,9772.84,0.247001,0.24673,0.943329,8,0.0196081,11,0.000232748,-3.02534,-0.997904,-0.0591239,-2.16996,0.24673,
2,1,0,1,0,9772.91,0.248501,0.248219,0.932537,8,0.0196791,11,0.000231474,-3.03033,-1.17789,-0.0500898,-1.83564,0.248219,
2,1,0,1,0,9772.99,0.249997,0.249732,0.936091,8,0.0197497,11,0.000233772,-3.02868,-1.49004,-0.0395964,-1.44853,0.249732,
2,1,0,1,0,9773.06,0.251496,0.25122,0.935619,8,0.0198205,11,0.000235047,-3.0289,-1.47187,-0.0400852,-1.46321,0.25122,
2,1,0,1,0,9773.14,0.252994,0.252715,0.930072,8,0.0198909,11,0.000235043,-3.03148,-1.18715,-0.049699,-1.80375,0.252715,
2,1,0,1,0,9773.21,0.254492,0.254205,0.92752,8,0.0199613,11,0.00023578,-3.03268,-1.44868,-0.0407268,-1.47746,0.254205,
2,1,0,1,0,9773.29,0.25599,0.255722,0.92593,8,0.0200313,11,0.00023678,-3.03342,-1.99515,-0.0295718,-1.07141,0.2557216,
2,1,0,1,0,9773.36,0.257488,0.257224,0.926053,8,0.0201013,11,0.000238203,-3.03336,-3.41334,-0.0172851,-0.624138,0.257224,
2,1,0,1,0,9773.44,0.258987,0.258688,0.926575,8,0.0201712,11,0.000239693,-3.03312,-1.3835,-0.0426454,-1.5354,0.258688,
2,1,0,1,0,9773.51,0.260485,0.260238,0.9213,8,0.0202409,11,0.000239757,-3.0356,-0.928817,-0.0635217,-2.28235,0.260238,
2,1,0,1,0,9773.59,0.261983,0.261678,0.918405,8,0.0203103,11,0.000240326,-3.03697,-2.12917,-0.0277103,-0.994507,0.261678,
2,1,0,1,0,9773.66,0.263481,0.263186,0.918444,8,0.0203797,11,0.000241721,-3.03695,-7.9675,-0.00740508,-0.264879,0.263186,
2,1,0,1,0,9773.74,0.264981,0.264717,0.914706,8,0.020449,11,0.000242138,-3.03872,-1.5148,-0.038949,-1.39331,0.264717,
2,1,0,1,0,9773.81,0.266476,0.266167,0.912325,8,0.020518,11,0.000242831,-3.03985,-1.80031,-0.0327722,-1.1682,0.2661671,
2,1,0,1,0,9773.88,0.267976,0.267665,0.906493,8,0.0205869,11,0.000242636,-3.04264,-3.10812,-0.0189825,-0.676148,0.267665,
2,1,0,1,0,9773.96,0.269474,0.269197,0.910902,8,0.0206556,11,0.000245212,-3.04053,-23.966,-0.00246182,-0.0874248,0.269197,
2,1,0,1,0,9774.03,0.270972,0.270668,0.91094,8,0.0207243,11,0.000246562,-3.04051,-2.15882,-0.0273297,-0.967516,0.270668,
2,1,0,1,0,9774.11,0.27247,0.272236,0.904843,8,0.020793,11,0.00024633,-3.04343,-0.918385,-0.0642432,-2.26217,0.272236,
2,1,0,1,0,9774.18,0.273968,0.27367,0.898898,8,0.0208613,11,0.000246001,-3.04629,-1.23697,-0.0476971,-1.68111,0.27367,
2,1,0,1,0,9774.26,0.275467,0.275209,0.902902,8,0.0209294,11,0.000248487,-3.04436,-1.05093,-0.056141,-1.97707,0.275209,
2,1,0,1,0,9774.33,0.276965,0.276653,0.901086,8,0.0209974,11,0.000249288,-3.04523,-1.69248,-0.0348602,-1.22339,0.276653,
2,1,0,1,0,9774.41,0.278463,0.278159,0.898901,8,0.0210654,11,0.000250037,-3.04629,-0.74274,-0.0794356,-2.77302,0.278159,
2,1,0,1,0,9774.48,0.279961,0.279712,0.896521,8,0.0211332,11,0.000250768,-3.04744,-1.12244,-0.0525643,-1.83992,0.279712,
2,1,0,1,0,9774.56,0.28146,0.281173,0.8956,8,0.0212008,11,0.000251819,-3.04789,-2.34947,-0.0251121,-0.87716,0.281173,
2,1,0,1,0,9774.63,0.282956,0.28268,0.892954,8,0.0212682,11,0.000252421,-3.04917,-6.77088,-0.00871378,-0.30259,0.28268,
2,1,0,1,0,9774.71,0.284456,0.284161,0.891627,8,0.0213357,11,0.000253365,-3.04982,-1.71568,-0.0343888,-1.19374,0.284161,
2,1,0,1,0,9774.78,0.285954,0.285634,0.889901,8,0.021403,11,0.000254186,-3.05066,-1.68198,-0.0350777,-1.21796,0.285634,
2,1,0,1,0,9774.86,0.287452,0.287166,0.885014,8,0.0214699,11,0.000254146,-3.05305,-2.23956,-0.0263445,-0.912542,0.287166,
2,1,0,1,0,9774.93,0.28895,0.288648,0.882572,8,0.0215369,11,0.000254753,-3.05425,-12.3216,-0.00478833,-0.165128,0.288648,
2,1,0,1,0,9775.01,0.290449,0.290165,0.882528,8,0.0216037,11,0.000256079,-3.05427,-2.21042,-0.0266918,-0.920741,0.290165,
2,1,0,1,0,9775.08,0.291947,0.291678,0.879581,8,0.0216705,11,0.000256554,-3.05572,-1.11345,-0.0529885,-1.82279,0.291678,
2,1,0,1,0,9775.16,0.293445,0.293149,0.874967,8,0.0217369,11,0.000256495,-3.05801,-1.00298,-0.0588249,-2.02031,0.293149,
2,1,0,1,0,9775.23,0.294943,0.29468,0.878041,8,0.0218032,11,0.000258741,-3.05649,-6.45889,-0.00913469,-0.312511,0.29468,
2,1,0,1,0,9775.31,0.296441,0.296151,0.879577,8,0.0218695,11,0.000260487,-3.05573,-1.63459,-0.0360947,-1.2327,0.296151,
2,1,0,1,0,9775.38,0.29794,0.297666,0.87586,8,0.0219359,11,0.000260714,-3.05757,-0.792605,-0.074438,-2.53103,0.297666,
2,1,0,1,0,9775.46,0.299436,0.299189,0.868424,8,0.0220018,11,0.000259823,-3.06127,-0.00108113,-54.5724,-498.046,0.299189,
2,1,0,1,0,9775.5,0.299739,0.299411,0.342462,8,0.0220327,11,0.000102537,-3.46539,0.00173367,34.0318,897.225,0.299411,
2,0,0,1,0,9775.58,0.298239,0.297947,-0.159662,8,0.0220303,11,-4.75709e-05,-3.7968,0.0065981,8.94197,284.517,0.297947,
2,0,0,1,0,9775.65,0.296741,0.296461,-0.211976,8,0.0220154,11,-6.28428e-05,-3.67371,-0.0124409,-4.74243,33.4918,0.296461,
2,0,0,1,0,9775.73,0.295243,0.294945,-0.246982,8,0.0219976,11,-7.28461e-05,-3.60733,-0.02879,-2.04933,18.9423,0.294945,
2,0,0,1,0,9775.8,0.293745,0.293396,-0.271322,8,0.0219774,11,-7.96048e-05,-3.56652,-0.0376529,-1.56694,16.2585,0.293396,
2,0,0,1,0,9775.88,0.292246,0.291961,-0.295196,8,0.0219557,11,-8.61858e-05,-3.52989,-0.0479171,-1.23129,14.0157,0.291961,
2,0,0,1,0,9775.95,0.290748,0.290422,-0.314703,8,0.0219323,11,-9.13965e-05,-3.5021,-0.0570307,-1.03453,12.5285,0.290422,
2,0,0,1,0,9776.03,0.28925,0.288976,-0.333335,8,0.0219074,11,-9.63258e-05,-3.47712,-0.0701002,-0.841653,10.8496,0.288976,
2,0,0,1,0,9776.1,0.287752,0.287405,-0.347148,8,0.0218813,11,-9.97718e-05,-3.45949,-0.0918871,-0.642093,8.69598,0.287405,
2,0,0,1,0,9776.17,0.286254,0.285948,-0.360601,8,0.0218542,11,-0.000103113,-3.44297,-0.0920336,-0.64107,9.04448,0.285948,
2,0,0,1,0,9776.25,0.284754,0.284439,-0.374042,8,0.0218261,11,-0.000106392,-3.42708,-0.0833257,-0.708065,10.2741,0.284439,
2,0,0,1,0,9776.32,0.283259,0.282977,-0.386842,8,0.021797,11,-0.000109467,-3.41247,-0.108883,-0.541865,8.18872,0.282977,
2,0,0,1,0,9776.4,0.281759,0.281456,-0.398595,8,0.0217669,11,-0.000112187,-3.39947,-0.125913,-0.468578,7.24101,0.281456,
2,0,0,1,0,9776.47,0.280261,0.279955,-0.403866,8,0.021736,11,-0.000113064,-3.39376,-0.12832,-0.459787,7.31136,0.279955,
2,0,0,1,0,9776.55,0.278763,0.278428,-0.420829,8,0.0217045,11,-0.000117171,-3.37589,-0.152692,-0.386398,6.32448,0.278428,
2,0,0,1,0,9776.62,0.277264,0.276974,-0.42714,8,0.0216721,11,-0.000118307,-3.36943,-0.167508,-0.352223,5.88875,0.276974,
2,0,0,1,0,9776.7,0.275766,0.275457,-0.437192,8,0.021639,11,-0.000120427,-3.35933,-0.241353,-0.244455,4.14899,0.275457,
2,0,0,1,0,9776.77,0.274268,0.273927,-0.446744,8,0.0216052,11,-0.000122375,-3.34994,-0.200866,-0.293729,5.14648,0.273927,
2,0,0,1,0,9776.85,0.27277,0.272463,-0.454902,8,0.021571,11,-0.000123944,-3.34208,-0.169182,-0.348737,6.23181,0.272463,
2,0,0,1,0,9776.92,0.271272,0.270932,-0.465196,8,0.0215359,11,-0.000126037,-3.33236,-0.188465,-0.313056,5.64297,0.270932,
2,0,0,1,0,9777,0.269774,0.269499,-0.473199,8,0.0215001,11,-0.000127527,-3.32496,-0.208067,-0.283563,5.20897,0.269499,
2,0,0,1,0,9777.07,0.268274,0.267983,-0.482293,8,0.0214638,11,-0.000129247,-3.31669,-0.228067,-0.258696,4.85082,0.267983,
2,0,0,1,0,9777.15,0.266779,0.266455,-0.485243,8,0.0214272,11,-0.000129296,-3.31404,-0.201612,-0.292642,5.57299,0.2664552,
2,0,0,1,0,9777.22,0.265279,0.264975,-0.492934,8,0.0213899,11,-0.000130615,-3.30721,-0.183054,-0.322309,6.19041,0.264975,
2,0,0,1,0,9777.3,0.263781,0.263474,-0.500462,8,0.0213519,11,-0.000131859,-3.30063,-0.214628,-0.274894,5.37565,0.263474,
2,0,0,1,0,9777.37,0.262283,0.261971,-0.508491,8,0.0213134,11,-0.00013321,-3.29372,-0.255534,-0.230889,4.59449,0.261971,
2,0,0,1,0,9777.45,0.260784,0.2605,-0.511673,8,0.0212746,11,-0.000133291,-3.29101,-0.246034,-0.239805,4.82715,0.2605,
2,0,0,1,0,9777.52,0.259286,0.259002,-0.522795,8,0.0212351,11,-0.000135405,-3.28167,-0.234629,-0.251461,5.09876,0.259002,
2,0,0,1,0,9777.6,0.257788,0.257533,-0.532191,8,0.0211951,11,-0.000137057,-3.27393,-0.284898,-0.207091,4.2646,0.257533,
2,0,0,1,0,9777.67,0.25629,0.255969,-0.536846,8,0.0211545,11,-0.000137416,-3.27015,-0.352923,-0.167175,3.4789,0.2559686,
2,0,0,1,0,9777.75,0.25479,0.254494,-0.539862,8,0.0211136,11,-0.000137392,-3.26772,-0.276729,-0.213205,4.50878,0.254494,
2,0,0,1,0,9777.82,0.253294,0.25295,-0.548904,8,0.0210724,11,-0.000138845,-3.2605,-0.283288,-0.208269,4.45225,0.25295,
2,0,0,1,0,9777.9,0.251795,0.251473,-0.552962,8,0.0210304,11,-0.000139055,-3.2573,-0.241372,-0.244436,5.29352,0.251473,
2,0,0,1,0,9777.97,0.250297,0.25001,-0.559567,8,0.0209881,11,-0.000139898,-3.25215,-0.354147,-0.166597,3.62786,0.2500101,
2,0,0,1,0,9778.05,0.248799,0.248452,-0.566487,8,0.0209452,11,-0.000140745,-3.24681,-0.31849,-0.185249,4.09238,0.248452,
2,0,0,1,0,9778.12,0.247301,0.246954,-0.571219,8,0.0209022,11,-0.000141065,-3.2432,-0.326146,-0.180901,4.0393,0.246954,
2,0,0,1,0,9778.2,0.245802,0.245471,-0.577671,8,0.0208584,11,-0.000141801,-3.23832,-0.291752,-0.202227,4.54422,0.245471,
2,0,0,1,0,9778.27,0.244304,0.244003,-0.586135,8,0.0208142,11,-0.000143019,-3.232,-0.386178,-0.152779,3.4881,0.244003,
2,0,0,1,0,9778.35,0.242806,0.242523,-0.591236,8,0.0207697,11,-0.000143388,-3.22824,-0.476855,-0.123727,2.8518,0.242523,
2,0,0,1,0,9778.42,0.241308,0.241012,-0.593837,8,0.0207248,11,-0.000143122,-3.22633,-0.373881,-0.157804,3.67157,0.241012,
2,0,0,1,0,9778.5,0.23981,0.239512,-0.601131,8,0.0206794,11,-0.000143978,-3.22103,-0.260558,-0.226437,5.29016,0.239512,
2,0,0,1,0,9778.57,0.23831,0.237974,-0.607169,8,0.0206334,11,-0.00014449,-3.21669,-0.348975,-0.169067,4.00891,0.237974,
2,0,0,1,0,9778.65,0.236815,0.236479,-0.611768,8,0.0205872,11,-0.00014467,-3.21341,-0.423307,-0.139379,3.33801,0.236479,
2,0,0,1,0,9778.72,0.235315,0.23499,-0.610561,8,0.0205405,11,-0.000143476,-3.21427,-0.317978,-0.185547,4.47751,0.23499,
2,0,0,1,0,9778.8,0.233817,0.233499,-0.624397,8,0.0204934,11,-0.000145796,-3.20454,-0.316967,-0.186139,4.53523,0.233499,
2,0,0,1,0,9778.87,0.232319,0.232013,-0.632852,8,0.0204458,11,-0.00014683,-3.1987,-0.364771,-0.161745,3.9769,0.232013,
2,0,0,1,0,9778.95,0.230821,0.230509,-0.636078,8,0.0203978,11,-0.000146622,-3.19649,-0.581301,-0.101496,2.50542,0.230509,
2,0,0,1,0,9779.02,0.229322,0.228997,-0.63903,8,0.0203493,11,-0.000146336,-3.19448,-0.348404,-0.169343,4.24194,0.2289972,
2,0,0,1,0,9779.1,0.227824,0.227562,-0.646896,8,0.0203006,11,-0.000147209,-3.18917,-0.407853,-0.14466,3.66401,0.227562,
2,0,0,1,0,9779.17,0.226326,0.226028,-0.65451,8,0.0202513,11,-0.000147938,-3.18408,-0.414817,-0.142231,3.63411,0.226028,
2,0,0,1,0,9779.25,0.224828,0.224538,-0.659144,8,0.0202014,11,-0.000148003,-3.18102,-0.470165,-0.125488,3.22377,0.224538,
2,0,0,1,0,9779.32,0.22333,0.223008,-0.665915,8,0.0201512,11,-0.000148504,-3.17658,-0.480081,-0.122896,3.18681,0.223008,
2,0,0,1,0,9779.4,0.22183,0.221539,-0.672372,8,0.0201006,11,-0.000148957,-3.17239,-0.326432,-0.180742,4.74355,0.221539,
2,0,0,1,0,9779.47,0.220335,0.220052,-0.679473,8,0.0200497,11,-0.000149519,-3.16783,-0.285584,-0.206594,5.4539,0.220052,
2,0,0,1,0,9779.55,0.218835,0.218482,-0.683435,8,0.0199979,11,-0.000149318,-3.1653,-0.337201,-0.17497,4.66755,0.218482,
2,0,0,1,0,9779.62,0.217337,0.217065,-0.687948,8,0.0199458,11,-0.00014933,-3.16244,-0.454305,-0.129869,3.49915,0.217065,
2,0,0,1,0,9779.7,0.215839,0.21556,-0.693343,8,0.0198934,11,-0.000149457,-3.15905,-0.387469,-0.15227,4.15069,0.21556,
2,0,0,1,0,9779.77,0.21434,0.214021,-0.704583,8,0.0198404,11,-0.000150796,-3.15207,-0.283975,-0.207765,5.68378,0.214021,
2,0,0,1,0,9779.85,0.212842,0.212534,-0.710617,8,0.0197869,11,-0.00015103,-3.14836,-0.358493,-0.164578,4.55675,0.212534,
2,0,0,1,0,9779.92,0.211344,0.211011,-0.716706,8,0.0197328,11,-0.000151233,-3.14466,-0.382493,-0.154251,4.30626,0.211011,
2,0,0,1,0,9780,0.209846,0.209518,-0.720188,8,0.0196783,11,-0.000150892,-3.14255,-0.386422,-0.152683,4.31017,0.209518,
2,0,0,1,0,9780.07,0.208348,0.208069,-0.732937,8,0.0196234,11,-0.000152502,-3.13493,-0.301547,-0.195657,5.60306,0.208069,
2,0,0,1,0,9780.15,0.20685,0.206554,-0.745111,8,0.0195677,11,-0.000153906,-3.12778,-0.325149,-0.181455,5.20667,0.206554,
2,0,0,1,0,9780.22,0.20535,0.205034,-0.746242,8,0.0195112,11,-0.000153005,-3.12712,-0.398625,-0.148009,4.29111,0.205034,
2,0,0,1,0,9780.29,0.203855,0.203505,-0.752672,8,0.0194545,11,-0.000153172,-3.12339,-0.309029,-0.190921,5.63683,0.203505,
2,0,0,1,0,9780.37,0.202355,0.202083,-0.759469,8,0.0193973,11,-0.000153476,-3.11949,-0.326882,-0.180493,5.38074,0.202083,
2,0,0,1,0,9780.44,0.200857,0.200527,-0.767565,8,0.0193393,11,-0.000153917,-3.11488,-0.274083,-0.215263,6.45701,0.200527,
2,0,0,1,0,9780.52,0.199359,0.199027,-0.778128,8,0.0192807,11,-0.000154868,-3.10895,-0.382365,-0.154303,4.6814,0.199027,
2,0,0,1,0,9780.59,0.19786,0.197516,-0.789628,8,0.0192214,11,-0.000155964,-3.10258,-0.339153,-0.173963,5.35222,0.197516,
2,0,0,1,0,9780.67,0.196362,0.196074,-0.796505,8,0.0191617,11,-0.000156174,-3.09881,-0.301094,-0.195952,6.08957,0.196074,
2,0,0,1,0,9780.74,0.194864,0.194583,-0.806543,8,0.019101,11,-0.000156939,-3.09337,-0.228987,-0.257656,8.09936,0.194583,
2,0,0,1,0,9780.82,0.193366,0.193047,-0.82021,8,0.0190394,11,-0.00015834,-3.08607,-0.25279,-0.233395,7.45201,0.193047,
2,0,0,1,0,9780.89,0.191866,0.191582,-0.829871,8,0.0189771,11,-0.000158989,-3.08099,-0.28356,-0.208069,6.75079,0.1915825,
2,0,0,1,0,9780.97,0.19037,0.190063,-0.836794,8,0.0189142,11,-0.000159044,-3.07738,-0.222952,-0.264632,8.68599,0.190063,
2,0,0,1,0,9781.04,0.188871,0.188557,-0.849805,8,0.0188501,11,-0.000160237,-3.07068,-0.211652,-0.278759,9.25168,0.188557,
2,0,0,1,0,9781.12,0.187373,0.18706,-0.865986,8,0.0187852,11,-0.000161991,-3.06249,-0.207924,-0.283758,9.58584,0.1870601,
2,0,0,1,0,9781.19,0.185875,0.185609,-0.87945,8,0.0187193,11,-0.000163233,-3.05579,-0.232194,-0.254098,8.71359,0.185609,
2,0,0,1,0,9781.27,0.184377,0.184095,-0.888273,8,0.0186524,11,-0.000163526,-3.05145,-0.199381,-0.295915,10.3113,0.184095,
2,0,0,1,0,9781.34,0.182878,0.182593,-0.905595,8,0.0185844,11,-0.000165355,-3.04307,-0.184173,-0.320351,11.3686,0.182593,
2,0,0,1,0,9781.42,0.18138,0.181111,-0.926405,8,0.018515,11,-0.000167782,-3.0332,-0.189892,-0.310702,11.2342,0.181111,
2,0,0,1,0,9781.49,0.179882,0.179575,-0.944004,8,0.0184443,11,-0.000169519,-3.02503,-0.231884,-0.254437,9.36959,0.179575,
2,0,0,1,0,9781.57,0.178384,0.178091,-0.961665,8,0.0183723,11,-0.000171264,-3.01698,-0.182065,-0.32406,12.1942,0.178091,
2,0,0,1,0,9781.64,0.176886,0.1766,-0.982748,8,0.0182991,11,-0.000173553,-3.00756,-0.160794,-0.366928,14.1018,0.1766,
2,0,0,1,0,9781.72,0.175386,0.175042,-1.00619,8,0.0182238,11,-0.000176125,-2.99732,-0.143497,-0.411159,16.1549,0.175042,
2,0,0,1,0,9781.79,0.173891,0.173591,-1.03218,8,0.0181472,11,-0.000179177,-2.98625,-0.140896,-0.418748,16.8727,0.173591,
2,0,0,1,0,9781.87,0.172391,0.172114,-1.0576,8,0.0180683,11,-0.000182027,-2.97568,-0.129294,-0.456326,18.81,0.172114,
2,0,0,1,0,9781.94,0.170893,0.170594,-1.0813,8,0.0179876,11,-0.000184464,-2.96605,-0.120986,-0.487659,20.6612,0.170594,
2,0,0,1,0,9782.02,0.169395,0.169098,-1.11497,8,0.0179047,11,-0.000188539,-2.95274,-0.108142,-0.54558,23.7592,0.169098,
2,0,0,1,0,9782.09,0.167897,0.16756,-1.15303,8,0.017819,11,-0.000193202,-2.93816,-0.111676,-0.528315,23.8277,0.16756,
2,0,0,1,0,9782.17,0.166398,0.166081,-1.18834,8,0.0177308,11,-0.000197362,-2.92506,-0.11353,-0.519688,24.1932,0.166081,
2,0,0,1,0,9782.24,0.1649,0.164591,-1.22298,8,0.0176397,11,-0.000201292,-2.91258,-0.099294,-0.594195,28.5522,0.164591,
2,0,0,1,0,9782.32,0.163402,0.163082,-1.27569,8,0.0175454,11,-0.000208042,-2.89425,-0.0909307,-0.648846,32.3648,0.163082,
2,0,0,1,0,9782.39,0.161904,0.161603,-1.32603,8,0.0174474,11,-0.00021429,-2.87745,-0.0877246,-0.672559,34.838,0.1616026,
2,0,0,1,0,9782.47,0.160406,0.160078,-1.3819,8,0.0173455,11,-0.000221211,-2.85952,-0.0870177,-0.678023,36.5509,0.160078,
2,0,0,1,0,9782.54,0.158906,0.158577,-1.43589,8,0.0172391,11,-0.0002277,-2.84288,-0.0787605,-0.749107,42.2046,0.158577,
2,0,0,1,0,9782.62,0.157411,0.157023,-1.50729,8,0.0171286,11,-0.000236679,-2.8218,-0.0730511,-0.807654,47.7579,0.157023,
2,0,0,1,0,9782.69,0.155911,0.155566,-1.5792,8,0.0170123,11,-0.00024567,-2.80156,-0.0700917,-0.841755,52.0111,0.155566,
2,0,0,1,0,9782.77,0.154413,0.154093,-1.65879,8,0.0168902,11,-0.000255608,-2.78021,-0.0722465,-0.816648,52.8416,0.154093,
2,0,0,1,0,9782.84,0.152915,0.152599,-1.74166,8,0.016762,11,-0.000265776,-2.75904,-0.0699083,-0.843963,57.4476,0.152599,
2,0,0,1,0,9782.92,0.151417,0.151091,-1.83005,8,0.0166279,11,-0.000276503,-2.73754,-0.0683863,-0.862746,61.8473,0.151091,
2,0,0,1,0,9782.99,0.149918,0.149627,-1.92906,8,0.0164866,11,-0.000288639,-2.71465,-0.0672198,-0.877718,65.9351,0.1496267,
2,0,0,1,0,9783.07,0.14842,0.148082,-2.0301,8,0.0163377,11,-0.000300623,-2.69248,-0.0699046,-0.844007,66.7353,0.148082,
2,0,0,1,0,9783.14,0.146922,0.146608,-2.12936,8,0.0161814,11,-0.000312181,-2.67175,-0.0725674,-0.813038,67.4869,0.146608,
2,0,0,1,0,9783.22,0.145424,0.145099,-2.2279,8,0.0160177,11,-0.000323266,-2.6521,-0.0734712,-0.803036,69.8619,0.145099,
2,0,0,1,0,9783.29,0.143926,0.143605,-2.33522,8,0.0158462,11,-0.000335349,-2.63167,-0.0747808,-0.788972,71.684,0.143605,
2,0,0,1,0,9783.37,0.142426,0.142107,-2.43971,8,0.0156664,11,-0.000346701,-2.61266,-0.0828086,-0.712487,67.6359,0.142107,
2,0,0,1,0,9783.44,0.140931,0.140617,-2.53396,8,0.0154796,11,-0.000356319,-2.5962,-0.0923658,-0.638764,63.0565,0.140617,
2,0,0,1,0,9783.52,0.139431,0.139117,-2.62281,8,0.0152853,11,-0.000364878,-2.58123,-0.101859,-0.579233,59.2194,0.139117,
2,0,0,1,0,9783.59,0.137933,0.13759,-2.70759,8,0.0150851,11,-0.000372538,-2.56742,-0.114239,-0.516461,54.5342,0.13759,
2,0,0,1,0,9783.67,0.136435,0.136117,-2.79367,8,0.0148783,11,-0.000380266,-2.55383,-0.125211,-0.471205,51.1151,0.136117,
2,0,0,1,0,9783.74,0.134936,0.134601,-2.86484,8,0.0146656,11,-0.000385611,-2.5429,-0.156019,-0.37816,42.0705,0.134601,
2,0,0,1,0,9783.82,0.133438,0.133135,-2.92153,8,0.0144481,11,-0.000388958,-2.53439,-0.186578,-0.316221,36.0068,0.133135,
2,0,0,1,0,9783.89,0.13194,0.131616,-2.97515,8,0.0142268,11,-0.000391577,-2.52649,-0.214392,-0.275197,31.9123,0.131616,
2,0,0,1,0,9783.97,0.130442,0.13012,-3.01832,8,0.0140017,11,-0.000392745,-2.52023,-0.263241,-0.22413,26.308,0.13012,
2,0,0,1,0,9784.04,0.128942,0.128637,-3.05315,8,0.0137732,11,-0.000392746,-2.51525,-0.391492,-0.150706,17.8862,0.1286366,
2,0,0,1,0,9784.12,0.127446,0.127143,-3.07591,8,0.0135435,11,-0.00039108,-2.51203,-0.597404,-0.0987607,11.8188,0.127143,
2,0,0,1,0,9784.19,0.125947,0.125603,-3.08461,8,0.0133121,11,-0.000387437,-2.5108,-0.928521,-0.0635419,7.63783,0.125603,
2,0,0,1,0,9784.27,0.124449,0.124152,-3.09221,8,0.01308,11,-0.000383906,-2.50973,-2.74498,-0.0214938,2.58498,0.124152,
2,0,0,1,0,9784.34,0.122951,0.122639,-3.08902,8,0.0128477,11,-0.000378833,-2.51018,2.19369,0.0268953,-3.23776,0.122639,
2,0,0,1,0,9784.41,0.121453,0.121139,-3.08067,8,0.0126159,11,-0.000373188,-2.51135,0.692368,0.0852148,-10.2249,0.121139,
2,0,0,1,0,9784.49,0.119955,0.119671,-3.05766,8,0.0123853,11,-0.000365912,-2.51461,0.512261,0.115176,-13.7535,0.119671,
2,0,0,1,0,9784.56,0.118456,0.118155,-3.03841,8,0.0121562,11,-0.000359003,-2.51735,0.471338,0.125176,-14.8385,0.118155,
2,0,0,1,0,9784.64,0.116958,0.116617,-3.01727,8,0.0119288,11,-0.000351865,-2.52039,0.356207,0.165634,-19.4475,0.116617,
2,0,0,1,0,9784.71,0.11546,0.115161,-2.98377,8,0.0117034,11,-0.000343614,-2.52523,0.276971,0.213019,-24.7439,0.115161,
2,0,0,1,0,9784.79,0.113962,0.113628,-2.94013,8,0.011481,11,-0.000334082,-2.53163,0.253569,0.232679,-26.7121,0.113628,
2,0,0,1,0,9784.86,0.112462,0.112179,-2.90134,8,0.0112614,11,-0.000325469,-2.5374,0.241275,0.244534,-27.6732,0.112179,
2,0,0,1,0,9784.94,0.110967,0.110684,-2.86335,8,0.0110452,11,-0.000316929,-2.54313,0.242933,0.242866,-27.093,0.110684,
2,0,0,1,0,9785.01,0.109467,0.109171,-2.81673,8,0.0108317,11,-0.000307506,-2.55025,0.206145,0.286207,-31.3929,0.109171,
2,0,0,1,0,9785.09,0.107969,0.10764,-2.76689,8,0.0106218,11,-0.000297827,-2.55801,0.198617,0.297054,-32.108,0.1076399,
2,0,0,1,0,9785.16,0.106471,0.106179,-2.71691,8,0.0104159,11,-0.000288479,-2.56592,0.200549,0.294192,-31.2628,0.106179,
2,0,0,1,0,9785.24,0.104973,0.10466,-2.67217,8,0.0102134,11,-0.000279669,-2.57314,0.202756,0.29099,-30.3611,0.10466,
2,0,0,1,0,9785.31,0.103474,0.103167,-2.63055,8,0.0100141,11,-0.000271386,-2.57995,0.189021,0.312135,-31.984,0.103167,
2,0,0,1,0,9785.39,0.101976,0.101671,-2.58099,8,0.00981852,11,-0.000262411,-2.58821,0.18141,0.325231,-32.7403,0.101671,
2,0,0,1,0,9785.46,0.100478,0.100162,-2.52834,8,0.00962677,11,-0.000253243,-2.59717,0.192654,0.306249,-30.2776,0.1001619,
2,0,0,1,0,9785.54,0.0989799,0.098689,-2.48972,8,0.00943827,11,-0.000245708,-2.60385,0.217295,0.27152,-26.3566,0.098689,
2,0,0,1,0,9785.61,0.0974817,0.097179,-2.44987,8,0.00925281,11,-0.000238076,-2.61086,0.218057,0.270572,-25.8673,0.097179,
2,0,0,1,0,9785.69,0.0959821,0.0956644,-2.40706,8,0.00907013,11,-0.00023027,-2.61851,0.216903,0.272011,-25.5876,0.0956644,
2,0,0,1,0,9785.76,0.0944866,0.0941764,-2.3659,8,0.00889085,11,-0.000222812,-2.626,0.242464,0.243335,-22.5631,0.0941764,
2,0,0,1,0,9785.84,0.0929871,0.092703,-2.33592,8,0.00871376,11,-0.000216547,-2.63154,0.282364,0.20895,-19.0957,0.09270303,
2,0,0,1,0,9785.91,0.0914889,0.091178,-2.31517,8,0.00853901,11,-0.000211093,-2.63542,0.29068,0.202972,-18.3093,0.091178,
2,0,0,1,0,9785.99,0.0899907,0.089686,-2.28308,8,0.00836636,11,-0.00020476,-2.64148,0.268038,0.220118,-19.5789,0.089686,
2,0,0,1,0,9786.06,0.0884925,0.0881815,-2.2498,8,0.00819582,11,-0.000198391,-2.64786,0.301014,0.196004,-17.2672,0.0881815,
2,0,0,1,0,9786.14,0.0869943,0.0866488,-2.23039,8,0.00802746,11,-0.000193261,-2.65162,0.326923,0.180471,-15.7318,0.0866488,
2,0,0,1,0,9786.21,0.0854961,0.0851882,-2.20979,8,0.00786064,11,-0.000188248,-2.65565,0.356006,0.165728,-14.2993,0.0851882,
2,0,0,1,0,9786.29,0.083998,0.0836586,-2.18789,8,0.00769534,11,-0.000183036,-2.65997,0.317021,0.186108,-15.8793,0.0836586,
2,0,0,1,0,9786.36,0.0824998,0.0821754,-2.17216,8,0.00753148,11,-0.000178498,-2.66311,0.371619,0.158765,-13.4401,0.0821754,
2,0,0,1,0,9786.44,0.081002,0.0806622,-2.14966,8,0.00736943,11,-0.000173397,-2.66763,0.437366,0.134898,-11.3391,0.0806622,
2,0,0,1,0,9786.51,0.0795025,0.0791779,-2.13603,8,0.00720837,11,-0.000169126,-2.67039,0.535647,0.110147,-9.16521,0.0791779,
2,0,0,1,0,9786.59,0.078007,0.0776969,-2.11841,8,0.00704869,11,-0.000164594,-2.67399,0.484217,0.121846,-10.0559,0.07769689,
2,0,0,1,0,9786.66,0.076507,0.0761723,-2.09975,8,0.00688988,11,-0.000159943,-2.67783,0.388274,0.151954,-12.4462,0.0761723,
2,0,0,1,0,9786.74,0.0750088,0.0747257,-2.08004,8,0.00673286,11,-0.000155433,-2.68193,0.419983,0.140482,-11.4181,0.0747257,
2,0,0,1,0,9786.81,0.0735106,0.0732,-2.06452,8,0.00657711,11,-0.000151123,-2.68518,0.521748,0.113082,-9.10587,0.0732,
2,0,0,1,0,9786.89,0.0720124,0.0717008,-2.04853,8,0.0064224,11,-0.000146881,-2.68856,0.458032,0.128812,-10.295,0.0717008,
2,0,0,1,0,9786.96,0.0705142,0.0701998,-2.03266,8,0.00626887,11,-0.000142692,-2.69194,0.368572,0.160077,-12.6788,0.0701998,
2,0,0,1,0,9787.04,0.0690161,0.0686794,-2.01187,8,0.00611681,11,-0.000138174,-2.6964,0.38059,0.155022,-12.1942,0.0686794,
2,0,0,1,0,9787.11,0.0675179,0.0671884,-1.99869,8,0.0059662,11,-0.000134289,-2.69925,0.440641,0.133896,-10.443,0.0671884,
2,0,0,1,0,9787.19,0.0660179,0.0657014,-1.98506,8,0.00581646,11,-0.000130421,-2.70223,0.424447,0.139004,-10.7296,0.0657014,
2,0,0,1,0,9787.26,0.0645224,0.0642321,-1.96077,8,0.00566828,11,-0.000125944,-2.70757,0.322745,0.182807,-13.9583,0.0642321,
2,0,0,1,0,9787.34,0.0630229,0.0627366,-1.93771,8,0.00552136,11,-0.000121565,-2.71271,0.337939,0.174588,-13.2271,0.0627366,
2,0,0,1,0,9787.41,0.0615251,0.0612167,-1.91642,8,0.00537645,11,-0.000117317,-2.71751,0.335843,0.175678,-13.1701,0.06121666,
2,0,0,1,0,9787.49,0.0600269,0.0597126,-1.89746,8,0.00523281,11,-0.000113302,-2.72183,0.343023,0.172,-12.7425,0.0597126,
2,0,0,1,0,9787.56,0.0585287,0.0581816,-1.87683,8,0.00509064,11,-0.000109197,-2.72657,0.258002,0.228681,-16.7299,0.05818161,
2,0,0,1,0,9787.64,0.0570305,0.0567478,-1.85712,8,0.00495018,11,-0.000105388,-2.73116,0.26882,0.219478,-15.8899,0.0567478,
2,0,0,1,0,9787.71,0.0555323,0.0552081,-1.83229,8,0.00481173,11,-0.000101157,-2.73701,0.279182,0.211332,-15.1223,0.0552081,
2,0,0,1,0,9787.79,0.0540342,0.0536895,-1.81205,8,0.00467474,11,-9.7288e-05,-2.74183,0.300464,0.196363,-13.8424,0.0536895,
2,0,0,1,0,9787.86,0.052536,0.0522241,-1.78968,8,0.00453925,11,-9.34645e-05,-2.74722,0.261689,0.225459,-15.7147,0.0522241,
2,0,0,1,0,9787.94,0.0510378,0.050692,-1.76317,8,0.00440565,11,-8.93788e-05,-2.7537,0.235155,0.250898,-17.268,0.050692,
2,0,0,1,0,9788.01,0.0495382,0.0492205,-1.73507,8,0.00427395,11,-8.54011e-05,-2.76068,0.258991,0.227807,-15.4847,0.0492205,
2,0,0,1,0,9788.09,0.0480427,0.0476987,-1.71196,8,0.00414426,11,-8.16584e-05,-2.76651,0.299082,0.197271,-13.1979,0.0476987,
2,0,0,1,0,9788.16,0.0465432,0.0462076,-1.69259,8,0.00401576,11,-7.82105e-05,-2.77145,0.280177,0.210581,-13.9294,0.0462076,
2,0,0,1,0,9788.24,0.045045,0.0447207,-1.67029,8,0.00388913,11,-7.46963e-05,-2.77721,0.245992,0.239845,-15.6417,0.0447207,
2,0,0,1,0,9788.31,0.0435468,0.0432416,-1.64258,8,0.00376429,11,-7.10276e-05,-2.78447,0.249167,0.236789,-15.2278,0.0432416,
2,0,0,1,0,9788.39,0.0420486,0.0417348,-1.62605,8,0.00364113,11,-6.78628e-05,-2.78887,0.293307,0.201154,-12.7883,0.0417348,
2,0,0,1,0,9788.46,0.0405504,0.0402468,-1.61343,8,0.0035193,11,-6.49355e-05,-2.79225,0.298274,0.197805,-12.4226,0.0402468,
2,0,0,1,0,9788.53,0.0390523,0.0387095,-1.59238,8,0.00339875,11,-6.16404e-05,-2.79795,0.27061,0.218026,-13.5207,0.0387095,
2,0,0,1,0,9788.61,0.0375541,0.037225,-1.57062,8,0.00327973,11,-5.84664e-05,-2.80393,0.29195,0.202089,-12.4207,0.037225,
2,0,0,1,0,9788.68,0.0360559,0.0357348,-1.5556,8,0.00316217,11,-5.55892e-05,-2.8081,0.351223,0.167984,-10.2078,0.0357348,
2,0,0,1,0,9788.76,0.0345577,0.0342548,-1.54211,8,0.00304564,11,-5.28247e-05,-2.81188,0.401315,0.147017,-8.84179,0.0342548,
2,0,0,1,0,9788.83,0.0330582,0.0326956,-1.52834,8,0.00292996,11,-4.997e-05,-2.81578,0.373448,0.157987,-9.40543,0.0326956,
2,0,0,1,0,9788.91,0.0315626,0.0312519,-1.5133,8,0.00281568,11,-4.72935e-05,-2.82008,0.399746,0.147594,-8.72129,0.0312519,
2,0,0,1,0,9788.98,0.0300631,0.0297411,-1.50078,8,0.00270221,11,-4.46349e-05,-2.82368,0.496312,0.118877,-6.96655,0.02974112,
2,0,0,1,0,9789.06,0.0285649,0.028241,-1.49046,8,0.00258963,11,-4.2092e-05,-2.82668,0.608686,0.0969301,-5.63567,0.028241,
2,0,0,1,0,9789.13,0.0270667,0.0267256,-1.48154,8,0.00247764,11,-3.9595e-05,-2.82929,0.646726,0.0912288,-5.27924,0.0267256,
2,0,0,1,0,9789.21,0.0255685,0.0252526,-1.47416,8,0.00236639,11,-3.72263e-05,-2.83146,0.517873,0.113927,-6.55632,0.0252526,
2,0,0,1,0,9789.28,0.0240704,0.0237353,-1.46148,8,0.00225584,11,-3.46885e-05,-2.83521,0.789317,0.0747481,-4.2807,0.0237353,
2,0,0,1,0,9789.36,0.0225722,0.0222915,-1.45827,8,0.00214575,11,-3.2507e-05,-2.83616,1.45092,0.0406637,-2.31708,0.0222915,
2,0,0,1,0,9789.43,0.021074,0.0207555,-1.45549,8,0.00203601,11,-3.02095e-05,-2.83699,1.02625,0.057491,-3.26538,0.0207555,
2,0,0,1,0,9789.51,0.0195758,0.0192334,-1.45038,8,0.00192658,11,-2.78959e-05,-2.83852,1.00784,0.0585411,-3.31046,0.0192334,
2,0,0,1,0,9789.58,0.018078,0.0177438,-1.44169,8,0.00181758,11,-2.55811e-05,-2.84113,1.99632,0.0295544,-1.67026,0.0177438,
2,0,0,1,0,9789.66,0.0165785,0.0162434,-1.44412,8,0.00170874,11,-2.34575e-05,-2.8404,12.0184,0.00490915,-0.277077,0.0162434,
2,0,0,1,0,9789.73,0.015083,0.014795,-1.44441,8,0.00160011,11,-2.137e-05,-2.84031,-132.097,-0.000446643,0.0251478,0.014795,
2,0,0,1,0,9789.81,0.013583,0.01325,-1.44042,8,0.00149116,11,-1.90856e-05,-2.84151,2.03958,0.0289275,-1.6251,0.01325,
2,0,0,1,0,9789.88,0.0120848,0.011799,-1.43978,8,0.00138255,11,-1.6988e-05,-2.8417,4.34291,0.0135854,-0.765357,0.011799,
2,0,0,1,0,9789.96,0.0105866,0.0102875,-1.44011,8,0.00127413,11,-1.48151e-05,-2.8416,-4.58084,-0.0128797,0.726074,0.01028748,
2,0,0,1,0,9790.03,0.00908846,0.00876674,-1.44289,8,0.00116552,11,-1.26494e-05,-2.84077,-3.3322,-0.017706,0.997361,0.00876674,
2,0,0,1,0,9790.11,0.00759027,0.00726691,-1.44616,8,0.00105669,11,-1.05091e-05,-2.83978,-2.34377,-0.0251731,1.41913,0.00726691,
2,0,0,1,0,9790.18,0.00609208,0.00580373,-1.44934,8,0.000947715,11,-8.41157e-06,-2.83883,-4.87204,-0.0121099,0.683536,0.00580373,
2,0,0,1,0,9790.26,0.00459389,0.00426484,-1.45118,8,0.000838674,11,-6.18903e-06,-2.83828,-1.48017,-0.0398603,2.25736,0.00426484,
2,0,0,1,0,9790.33,0.00309391,0.00277935,-1.45727,8,0.00072917,11,-4.05026e-06,-2.83646,-0.483347,-0.122065,6.94866,0.00277935,
2,0,0,1,0,9790.41,0.0015984,0.00120499,-1.48328,8,0.000618122,11,-1.78733e-06,-2.82878, , , ,0.00120499,
2,0,0,1,0,9790.48,0.000199195,-0.00021434,-1.46425,8,0.000514464,11,3.13848e-07,-2.83438, , , ,-0.00021434,