File: Figure_codes/Fig_3-5/rawdata_trumpetplot_data/before 10th/20221101_1-115_002_TrumpetPlot_ParaChange_11_CV_C01_2.csv
mode,ox/red,error,control changes,counter inc.,time/s,control/V,Ewe/V,<I>/mA,cycle number,(Q-Qo)/C,I Range,P/W,log(|I|),Tafel slope mV/dec,alpha_eff,dI/d(E-IR),E-IR/V,
2,0,0,1,0,3665.25,2.44065e-05,0.000781741,-6.72283,3,0.0000000E+000,11,-5.25551e-06,-2.17245, , , ,0.000781741,
2,0,0,1,0,3665.27,0.00179726,0.0013971,-2.48059,3,-8.74077e-05,11,-3.46563e-06,-2.60545, , , ,0.0013971,
2,1,0,1,0,3665.29,0.00379485,0.003466,0.746284,3,-0.000100286,11,2.58662e-06,-3.1271,-0.140625,-0.419555,1185.23,0.003466,
2,1,0,1,0,3665.31,0.00579244,0.00544859,2.32137,3,-6.77023e-05,11,1.26482e-05,-2.63426,0.00642267,9.18622,598.51,0.00544859,
2,1,0,1,0,3665.33,0.00779002,0.00748346,3.15078,3,-1.20645e-05,11,2.35787e-05,-2.50158,0.0210117,2.80796,320.199,0.00748346,
2,1,0,1,0,3665.34,0.00978761,0.00949814,3.61803,3,5.57568e-05,11,3.43646e-05,-2.44153,0.0453624,1.30064,177.456,0.009498137,
2,1,0,1,0,3665.36,0.0117852,0.0115114,3.86556,3,0.000130832,11,4.44981e-05,-2.41279,0.0875762,0.673699,100.253,0.0115114,
2,1,0,1,0,3665.38,0.0137828,0.0134566,4.01488,3,0.000209646,11,5.40266e-05,-2.39633,0.149899,0.393598,61.2377,0.0134566,
2,1,0,1,0,3665.4,0.0157804,0.015505,4.11012,3,0.000290893,11,6.37274e-05,-2.38615,0.223153,0.264392,42.3094,0.015505,
2,1,0,1,0,3665.42,0.017778,0.0175271,4.1871,3,0.000373491,11,7.33878e-05,-2.37809,0.361097,0.163391,26.5437,0.0175271,
2,1,0,1,0,3665.44,0.0197755,0.0194794,4.21562,3,0.000457434,11,8.21178e-05,-2.37514,0.496307,0.118878,19.6043,0.0194794,
2,1,0,1,0,3665.46,0.0217731,0.0214633,4.26427,3,0.000542169,11,9.15251e-05,-2.37016,0.517137,0.11409,18.9386,0.0214633,
2,1,0,1,0,3665.48,0.0237707,0.023482,4.29142,3,0.000627685,11,0.000100771,-2.3674,0.553472,0.1066,17.8902,0.023482,
2,1,0,1,0,3665.5,0.0257683,0.0254994,4.33647,3,0.000713519,11,0.000110577,-2.36286,0.497903,0.118497,20.0299,0.0254994,
2,1,0,1,0,3665.52,0.0277659,0.0274667,4.37123,3,0.000800564,11,0.000120063,-2.3594,0.550802,0.107117,18.2793,0.0274667,
2,1,0,1,0,3665.54,0.0297635,0.0294635,4.40893,3,0.000888361,11,0.000129902,-2.35567,0.643291,0.0917159,15.7597,0.0294635,
2,1,0,1,0,3665.56,0.0317611,0.0314954,4.43472,3,0.000976765,11,0.000139673,-2.35313,0.471566,0.125115,21.7391,0.0314954,
2,1,0,1,0,3665.58,0.0337586,0.0334505,4.49561,3,0.00106553,11,0.00015038,-2.34721,0.414391,0.142378,24.9183,0.03345051,
2,1,0,1,0,3665.6,0.0357562,0.0355045,4.53462,3,0.00115575,11,0.000160999,-2.34346,0.628801,0.0938294,16.584,0.0355045,
2,1,0,1,0,3665.62,0.0377538,0.0374688,4.56225,3,0.00124676,11,0.000170942,-2.34082,0.474115,0.124442,22.2357,0.0374688,
2,1,0,1,0,3665.64,0.0397514,0.0394593,4.62256,3,0.00133855,11,0.000182403,-2.33512,0.314269,0.187738,33.9209,0.0394593,
2,1,0,1,0,3665.66,0.041749,0.0414655,4.69782,3,0.00143112,11,0.000194797,-2.3281,0.37435,0.157607,28.7847,0.0414655,
2,1,0,1,0,3665.68,0.0437466,0.0434501,4.73744,3,0.00152539,11,0.000205842,-2.32446,0.434481,0.135794,25.1625,0.0434501,
2,1,0,1,0,3665.7,0.0457442,0.045466,4.79848,3,0.00162063,11,0.000218168,-2.3189,0.342868,0.172078,32.2485,0.045466,
2,1,0,1,0,3665.72,0.0477418,0.0474715,4.86712,3,0.00171718,11,0.000231049,-2.31273,0.297402,0.198385,37.7341,0.0474715,
2,1,0,1,0,3665.74,0.0497484,0.0494752,4.94977,3,0.00181517,11,0.000244891,-2.30542,0.306813,0.192299,37.0809,0.0494752,
2,1,0,1,0,3665.76,0.0517369,0.0514727,5.01549,3,0.0019142,11,0.000258161,-2.29969,0.298169,0.197874,38.8191,0.0514727,
2,1,0,1,0,3665.78,0.0537345,0.0534648,5.10464,3,0.00201529,11,0.000272918,-2.29204,0.255737,0.230706,45.9782,0.0534648,
2,1,0,1,0,3665.8,0.0557321,0.055459,5.19877,3,0.00211827,11,0.000288319,-2.2841,0.257582,0.229053,46.4445,0.055459,
2,1,0,1,0,3665.82,0.0577206,0.0574043,5.2876,3,0.00222248,11,0.000303531,-2.27674,0.237882,0.248022,51.3028,0.0574043,
2,1,0,1,0,3665.84,0.0597273,0.0594362,5.40281,3,0.00232947,11,0.000321123,-2.26738,0.225397,0.261761,55.1521,0.0594362,
2,1,0,1,0,3665.86,0.0617249,0.0614629,5.51145,3,0.00243856,11,0.00033875,-2.25873,0.235831,0.250179,53.7933,0.0614629,
2,1,0,1,0,3665.88,0.0637224,0.0634298,5.61764,3,0.00254984,11,0.000356326,-2.25045,0.216349,0.272708,59.9112,0.0634298,
2,1,0,1,0,3665.9,0.06572,0.0654214,5.7486,3,0.00266341,11,0.000376082,-2.24044,0.189615,0.311157,69.8895,0.0654214,
2,1,0,1,0,3665.92,0.0677176,0.067401,5.89519,3,0.00277931,11,0.000397342,-2.2295,0.210666,0.280064,64.2373,0.067401,
2,1,0,1,0,3665.94,0.0697152,0.0694533,6.0076,3,0.00289831,11,0.000417248,-2.2213,0.222896,0.264698,62.1755,0.0694533,
2,1,0,1,0,3665.96,0.0717128,0.0714027,6.144,3,0.00301983,11,0.000438698,-2.21155,0.197302,0.299033,71.7569,0.0714027,
2,1,0,1,0,3665.98,0.0737104,0.0734152,6.2919,3,0.00314418,11,0.000461921,-2.20122,0.19446,0.303404,74.5158,0.0734152,
2,1,0,1,0,3666,0.075708,0.0754361,6.44455,3,0.00327097,11,0.000486152,-2.19081,0.200881,0.293707,73.7823,0.0754361,
2,1,0,1,0,3666.02,0.0777056,0.0773748,6.58405,3,0.00340113,11,0.000509439,-2.18151,0.206435,0.285804,73.515,0.0773748,
2,1,0,1,0,3666.04,0.0797031,0.0794471,6.73941,3,0.00353429,11,0.000535427,-2.17138,0.210673,0.280055,73.5771,0.0794471,
2,1,0,1,0,3666.06,0.0817007,0.0814231,6.8819,3,0.00367045,11,0.000560346,-2.16229,0.214599,0.274931,73.8758,0.0814231,
2,1,0,1,0,3666.08,0.0836983,0.0834211,7.033,3,0.0038088,11,0.0005867,-2.15286,0.21767,0.271052,74.3496,0.0834211,
2,1,0,1,0,3666.1,0.0856959,0.0853942,7.17715,3,0.00395089,11,0.000612887,-2.14405,0.230975,0.255438,71.5228,0.0853942,
2,1,0,1,0,3666.12,0.0876935,0.0874058,7.31799,3,0.00409583,11,0.000639635,-2.13561,0.239824,0.246014,70.247,0.0874058,
2,1,0,1,0,3666.14,0.0896911,0.0893876,7.45768,3,0.00424352,11,0.000666624,-2.1274,0.231437,0.254929,74.268,0.0893876,
2,1,0,1,0,3666.16,0.0916887,0.0913858,7.61358,3,0.00439335,11,0.000695773,-2.11841,0.234003,0.252134,74.8518,0.0913858,
2,1,0,1,0,3666.18,0.0936862,0.0934012,7.75811,3,0.00454709,11,0.000724617,-2.11024,0.267287,0.220737,66.7268,0.0934012,
2,1,0,1,0,3666.2,0.0956838,0.0953694,7.87939,3,0.00470346,11,0.000751453,-2.10351,0.275717,0.213987,65.8843,0.0953694,
2,1,0,1,0,3666.22,0.0976814,0.0974013,8.02165,3,0.00486243,11,0.000781319,-2.09574,0.252157,0.233981,73.2843,0.0974013,
2,1,0,1,0,3666.24,0.099679,0.0993785,8.1732,3,0.0050234,11,0.00081224,-2.08761,0.270213,0.218347,69.5245,0.0993785,
2,1,0,1,0,3666.26,0.101677,0.10137,8.29756,3,0.00518811,11,0.000841122,-2.08105,0.286253,0.206111,66.8093,0.10137,
2,1,0,1,0,3666.28,0.103674,0.103364,8.43944,3,0.00535549,11,0.000872331,-2.07369,0.253868,0.232404,76.6382,0.103364,
2,1,0,1,0,3666.3,0.105672,0.105362,8.60354,3,0.00552591,11,0.00090649,-2.06532,0.238672,0.247201,83.0065,0.105362,
2,1,0,1,0,3666.32,0.107667,0.107353,8.77056,3,0.00569868,11,0.000941544,-2.05697,0.235245,0.250802,85.8804,0.107353,
2,1,0,1,0,3666.34,0.109667,0.109359,8.94674,3,0.00587582,11,0.000978404,-2.04834,0.231163,0.255231,89.1224,0.109359,
2,1,0,1,0,3666.36,0.111665,0.111344,9.12629,3,0.00605651,11,0.00101616,-2.03971,0.221794,0.266012,94.8449,0.111344,
2,1,0,1,0,3666.38,0.113662,0.113374,9.32757,3,0.00624101,11,0.0010575,-2.03023,0.213463,0.276395,100.602,0.113374,
2,1,0,1,0,3666.4,0.11566,0.115351,9.5294,3,0.00642945,11,0.00109923,-2.02093,0.185372,0.318279,118.765,0.115351,
2,1,0,1,0,3666.42,0.117657,0.117343,9.79891,3,0.00662175,11,0.00114983,-2.00882,0.167794,0.351622,134.416,0.117343,
2,1,0,1,0,3666.44,0.119655,0.119341,10.0657,3,0.00682034,11,0.00120126,-1.99715,0.172362,0.342302,134.489,0.119341,
2,1,0,1,0,3666.46,0.121652,0.12137,10.3406,3,0.00702438,11,0.00125503,-1.98546,0.164368,0.358952,145.035,0.12137,
2,1,0,1,0,3666.48,0.12365,0.123342,10.6459,3,0.00723423,11,0.00131309,-1.97282,0.152844,0.386015,160.581,0.1233418,
2,1,0,1,0,3666.5,0.125648,0.125379,10.9844,3,0.00744951,11,0.00137722,-1.95922,0.153172,0.385187,164.999,0.1253794,
2,1,0,1,0,3666.52,0.127645,0.127384,11.3129,3,0.0076725,11,0.00144108,-1.94643,0.149461,0.394752,174.482,0.127384,
2,1,0,1,0,3666.54,0.129643,0.129331,11.6739,3,0.00790229,11,0.00150979,-1.93279,0.145478,0.405559,184.771,0.129331,
2,1,0,1,0,3666.56,0.13164,0.131332,12.0425,3,0.00813949,11,0.00158157,-1.91928,0.14989,0.393622,184.99,0.131332,
2,1,0,1,0,3666.58,0.133638,0.133354,12.4181,3,0.00838302,11,0.00165601,-1.90594,0.153945,0.383253,185.643,0.133354,
2,1,0,1,0,3666.6,0.135636,0.13535,12.7883,3,0.00863508,11,0.00173089,-1.89319,0.157041,0.375699,187.496,0.1353498,
2,1,0,1,0,3666.62,0.137633,0.137334,13.1642,3,0.00889463,11,0.00180789,-1.8806,0.163855,0.360074,184.837,0.137334,
2,1,0,1,0,3666.64,0.139631,0.139337,13.5252,3,0.00916162,11,0.00188455,-1.86886,0.17155,0.343922,181.519,0.139337,
2,1,0,1,0,3666.66,0.141628,0.14133,13.8897,3,0.00943434,11,0.00196304,-1.85731,0.182105,0.323988,175.408,0.14133,
2,1,0,1,0,3666.68,0.143626,0.143331,14.2258,3,0.00971552,11,0.002039,-1.84692,0.202504,0.291352,161.583,0.143331,
2,1,0,1,0,3666.7,0.145624,0.145333,14.5366,3,0.0100032,11,0.00211265,-1.83754,0.228547,0.258153,146.254,0.145333,
2,1,0,1,0,3666.72,0.147621,0.147335,14.8115,3,0.0102967,11,0.00218226,-1.8294,0.249521,0.236453,136.633,0.147335,
2,1,0,1,0,3666.74,0.149619,0.149307,15.0794,3,0.0105942,11,0.00225146,-1.82161,0.294277,0.200492,117.722,0.149307,
2,1,0,1,0,3666.76,0.151616,0.151326,15.2813,3,0.0108978,11,0.00231246,-1.81584,0.396593,0.148767,88.5699,0.1513263,
2,1,0,1,0,3666.78,0.153614,0.153289,15.4322,3,0.011205,11,0.00236559,-1.81157,0.548922,0.107483,64.6365,0.153289,
2,1,0,1,0,3666.8,0.155611,0.155287,15.5373,3,0.0115148,11,0.00241273,-1.80863,0.902272,0.0653905,39.5877,0.155287,
2,1,0,1,0,3666.82,0.157609,0.157355,15.5931,3,0.0118246,11,0.00245365,-1.80707,-11.5901,-0.00509055,-3.08552,0.157355,
2,1,0,1,0,3666.84,0.159607,0.159335,15.5248,3,0.0121359,11,0.00247365,-1.80897,-0.654929,-0.0900861,-54.4379,0.159335,
2,1,0,1,0,3666.86,0.161604,0.161358,15.3752,3,0.0124449,11,0.00248091,-1.81318,-0.334315,-0.17648,-105.47,0.161358,
2,1,0,1,0,3666.88,0.163602,0.163327,15.1038,3,0.0127499,11,0.00246685,-1.82091,-0.206121,-0.286239,-168.011,0.163327,
2,1,0,1,0,3666.9,0.165606,0.165321,14.7095,3,0.0130482,11,0.00243177,-1.8324,-0.146367,-0.403095,-230.287,0.1653205,
2,1,0,1,0,3666.92,0.167597,0.167326,14.183,3,0.0133358,11,0.00237317,-1.84823,-0.109799,-0.537346,-295.846,0.167326,
2,1,0,1,0,3666.94,0.169595,0.169334,13.5221,3,0.0136129,11,0.00228975,-1.86896,-0.0848315,-0.695496,-364.942,0.169334,
2,1,0,1,0,3666.96,0.171592,0.171298,12.7333,3,0.0138755,11,0.00218119,-1.89506,-0.0699106,-0.843935,-417.294,0.171298,
2,1,0,1,0,3666.98,0.173581,0.173331,11.8541,3,0.01412,11,0.00205469,-1.92613,-0.0613643,-0.96147,-443.543,0.173331,
2,1,0,1,0,3667,0.175587,0.175313,10.9524,3,0.0143481,11,0.0019201,-1.96049,-0.0552553,-1.06777,-455.234,0.175313,
2,1,0,1,0,3667.02,0.177585,0.177306,10.0444,3,0.0145577,11,0.00178093,-1.99808,-0.0519549,-1.1356,-444.881,0.177306,
2,1,0,1,0,3667.04,0.179582,0.179305,9.17629,3,0.0147495,11,0.00164536,-2.03733,-0.0524725,-1.1244,-404.249,0.179305,
2,1,0,1,0,3667.06,0.18158,0.181307,8.42735,3,0.0149252,11,0.00152793,-2.07431,-0.0562548,-1.0488,-346.536,0.181307,
2,1,0,1,0,3667.08,0.183578,0.183295,7.79388,3,0.0150862,11,0.00142858,-2.10825,-0.0607748,-0.970797,-296.296,0.183295,
2,1,0,1,0,3667.1,0.185575,0.185302,7.24347,3,0.0152363,11,0.00134223,-2.14005,-0.0690682,-0.854229,-243.207,0.185302,
2,1,0,1,0,3667.12,0.187573,0.187306,6.81832,3,0.0153766,11,0.00127711,-2.16632,-0.0822053,-0.717715,-191.916,0.1873059,
2,1,0,1,0,3667.14,0.18957,0.18931,6.47421,3,0.0155093,11,0.00122564,-2.18881,-0.0956747,-0.616673,-156.53,0.18931,
2,1,0,1,0,3667.16,0.191568,0.19126,6.19942,3,0.0156353,11,0.0011857,-2.20765,-0.114138,-0.516917,-125.526,0.19126,
2,1,0,1,0,3667.18,0.193566,0.193272,5.97692,3,0.0157568,11,0.00115517,-2.22352,-0.133008,-0.443583,-103.656,0.193272,
2,1,0,1,0,3667.2,0.195563,0.195299,5.78074,3,0.0158743,11,0.00112897,-2.23802,-0.139736,-0.422225,-95.3147,0.195299,
2,1,0,1,0,3667.22,0.197561,0.19727,5.5959,3,0.015988,11,0.0011039,-2.25213,-0.160059,-0.368615,-80.8441,0.19727,
2,1,0,1,0,3667.24,0.199558,0.199246,5.46165,3,0.0160979,11,0.00108821,-2.26268,-0.189963,-0.310586,-66.2135,0.199246,
2,1,0,1,0,3667.26,0.201556,0.201263,5.33146,3,0.0162058,11,0.00107303,-2.27315,-0.199571,-0.295634,-61.5628,0.201263,
2,1,0,1,0,3667.28,0.203553,0.203303,5.2119,3,0.0163112,11,0.00105959,-2.283,-0.206225,-0.286096,-58.2149,0.203303,
2,1,0,1,0,3667.3,0.205551,0.205274,5.09798,3,0.0164141,11,0.00104648,-2.2926,-0.263749,-0.223697,-44.712,0.205274,
2,1,0,1,0,3667.32,0.207549,0.207322,5.0322,3,0.0165147,11,0.00104328,-2.29824,-0.271665,-0.217179,-42.4838,0.207322,
2,1,0,1,0,3667.34,0.209546,0.209282,4.9277,3,0.0166142,11,0.00103128,-2.30736,-0.231693,-0.254648,-49.04,0.209282,
2,1,0,1,0,3667.36,0.211544,0.211278,4.83817,3,0.0167117,11,0.0010222,-2.31532,-0.27681,-0.213143,-40.3181,0.211278,
2,1,0,1,0,3667.38,0.213541,0.213267,4.76702,3,0.0168077,11,0.00101665,-2.32175,-0.350213,-0.168469,-31.3967,0.213267,
2,1,0,1,0,3667.4,0.215539,0.215265,4.71298,3,0.0169018,11,0.00101454,-2.3267,-0.342408,-0.172309,-31.6283,0.215265,
2,1,0,1,0,3667.42,0.217537,0.217277,4.6402,3,0.0169953,11,0.00100821,-2.33346,-0.341499,-0.172768,-31.3523,0.217277,
2,1,0,1,0,3667.44,0.219534,0.219272,4.58738,3,0.0170875,11,0.00100588,-2.33844,-0.434846,-0.13568,-24.3118,0.219272,
2,1,0,1,0,3667.46,0.221532,0.221284,4.54278,3,0.0171787,11,0.00100525,-2.34268,-0.410041,-0.143888,-25.4737,0.221284,
2,1,0,1,0,3667.48,0.223525,0.223266,4.48563,3,0.0172684,11,0.00100149,-2.34818,-0.447143,-0.131949,-23.1564,0.223266,
2,1,0,1,0,3667.5,0.225527,0.225244,4.45109,3,0.0173578,11,0.00100258,-2.35153,-0.529681,-0.111388,-19.3335,0.225244,
2,1,0,1,0,3667.52,0.227525,0.227207,4.40944,3,0.0174463,11,0.00100186,-2.35562,-0.472715,-0.124811,-21.4685,0.227207,
2,1,0,1,0,3667.54,0.229522,0.229299,4.36404,3,0.017534,11,0.00100067,-2.36011,-0.549561,-0.107358,-18.3208,0.229299,
2,1,0,1,0,3667.56,0.23152,0.231212,4.33607,3,0.0176209,11,0.00100255,-2.3629,-0.836098,-0.0705659,-11.953,0.231212,
2,1,0,1,0,3667.58,0.233517,0.233267,4.3166,3,0.0177071,11,0.00100692,-2.36486,-0.748246,-0.0788511,-13.2608,0.233267,
2,1,0,1,0,3667.6,0.235515,0.235254,4.28246,3,0.017793,11,0.00100747,-2.36831,-0.565899,-0.104259,-17.4221,0.235254,
2,1,0,1,0,3667.62,0.237512,0.237255,4.24712,3,0.0178781,11,0.00100765,-2.37191,-0.670249,-0.088027,-14.6121,0.237255,
2,1,0,1,0,3667.64,0.23951,0.239226,4.22443,3,0.0179627,11,0.00101059,-2.37423,-1.074,-0.0549346,-9.06651,0.239226,
2,1,0,1,0,3667.66,0.241508,0.241263,4.21079,3,0.0180466,11,0.00101591,-2.37564,-0.764256,-0.0771993,-12.6507,0.241263,
2,1,0,1,0,3667.68,0.243505,0.243249,4.17353,3,0.0181303,11,0.00101521,-2.3795,-0.810562,-0.072789,-11.894,0.243249,
2,1,0,1,0,3667.7,0.245503,0.245261,4.16324,3,0.0182136,11,0.00102108,-2.38057,-0.969706,-0.0608432,-9.86388,0.245261,
2,1,0,1,0,3667.72,0.2475,0.247192,4.13464,3,0.0182965,11,0.00102205,-2.38356,-0.936272,-0.0630159,-10.1887,0.247192,
2,1,0,1,0,3667.74,0.249498,0.249245,4.12264,3,0.0183786,11,0.00102755,-2.38482,-0.903808,-0.0652794,-10.4793,0.249245,
2,1,0,1,0,3667.76,0.251496,0.251254,4.09207,3,0.0184607,11,0.00102815,-2.38806,-0.886275,-0.0665708,-10.6557,0.2512542,
2,1,0,1,0,3667.78,0.253493,0.253217,4.08032,3,0.0185424,11,0.00103321,-2.38931,-0.874086,-0.0674991,-10.7231,0.253217,
2,1,0,1,0,3667.8,0.255491,0.255254,4.04918,3,0.0186237,11,0.00103357,-2.39263,-1.28468,-0.0459258,-7.28696,0.255254,
2,1,0,1,0,3667.82,0.257488,0.257248,4.05094,3,0.0187043,11,0.0010421,-2.39244,-2.32456,-0.0253812,-4.00301,0.257248,
2,1,0,1,0,3667.84,0.259486,0.259235,4.03324,3,0.0187851,11,0.00104556,-2.39435,-0.815968,-0.0723068,-11.3683,0.259235,
2,1,0,1,0,3667.86,0.261484,0.261172,4.00634,3,0.0188655,11,0.00104634,-2.39725,-0.946932,-0.0623065,-9.75991,0.261172,
2,1,0,1,0,3667.88,0.263481,0.263227,3.99429,3,0.0189454,11,0.0010514,-2.39856,-5.39362,-0.0109389,-1.70886,0.263227,
2,1,0,1,0,3667.9,0.265479,0.265225,3.99941,3,0.0190248,11,0.00106075,-2.398,-1.283,-0.0459859,-7.1429,0.265225,
2,1,0,1,0,3667.92,0.267476,0.267216,3.96579,3,0.0191044,11,0.00105972,-2.40167,-0.757648,-0.0778725,-12.0815,0.267216,
2,1,0,1,0,3667.94,0.269474,0.269205,3.95133,3,0.0191834,11,0.00106372,-2.40326,-1.48888,-0.0396271,-6.11435,0.269205,
2,1,0,1,0,3667.96,0.271471,0.271195,3.94146,3,0.0192623,11,0.00106891,-2.40434,-4.41331,-0.0133686,-2.05941,0.271195,
2,1,0,1,0,3667.98,0.273469,0.273192,3.94312,3,0.0193406,11,0.00107723,-2.40416,-1.13482,-0.0519906,-7.96482,0.273192,
2,1,0,1,0,3668,0.275467,0.275216,3.90944,3,0.019419,11,0.00107594,-2.40789,-0.82299,-0.0716898,-10.9704,0.275216,
2,1,0,1,0,3668.02,0.277464,0.277209,3.89904,3,0.019497,11,0.00108085,-2.40904,-1.52486,-0.0386922,-5.88566,0.277209,
2,1,0,1,0,3668.04,0.279462,0.279201,3.88599,3,0.0195747,11,0.00108497,-2.4105,-1.19879,-0.0492163,-7.46085,0.279201,
2,1,0,1,0,3668.06,0.281464,0.28115,3.86964,3,0.0196522,11,0.00108795,-2.41233,-1.43411,-0.0411405,-6.21925,0.28115,
2,1,0,1,0,3668.08,0.283457,0.283207,3.86107,3,0.0197291,11,0.00109348,-2.41329,-1.7431,-0.0338477,-5.09806,0.283207,
2,1,0,1,0,3668.1,0.285455,0.285193,3.84903,3,0.0198062,11,0.00109772,-2.41465,-0.987455,-0.0597496,-8.96156,0.2851927,
2,1,0,1,0,3668.12,0.287452,0.287204,3.82525,3,0.0198829,11,0.00109863,-2.41734,-1.28871,-0.0457822,-6.85258,0.287204,
2,1,0,1,0,3668.14,0.28945,0.28921,3.8215,3,0.0199593,11,0.00110522,-2.41777,-3.90724,-0.0151002,-2.25163,0.28921,
2,1,0,1,0,3668.16,0.291447,0.291167,3.81633,3,0.0200353,11,0.00111119,-2.41835,-1.11615,-0.0528604,-7.85153,0.291167,
2,1,0,1,0,3668.18,0.293445,0.293174,3.79038,3,0.0201114,11,0.00111124,-2.42132,-1.07863,-0.0546991,-8.11192,0.293174,
2,1,0,1,0,3668.2,0.295442,0.295194,3.78366,3,0.0201871,11,0.00111691,-2.42209,-3.40383,-0.0173334,-2.56061,0.295194,
2,1,0,1,0,3668.22,0.29744,0.29717,3.78015,3,0.0202626,11,0.00112335,-2.42249,-1.8332,-0.0321842,-4.74064,0.29717,
2,1,0,1,0,3668.24,0.299438,0.29916,3.76486,3,0.0203377,11,0.00112629,-2.42425,-0.0236506,-2.49466,-328.398,0.29916,
2,1,0,1,0,3668.25,0.299737,0.299557,2.99633,3,0.0203679,11,0.000897574,-2.52341,0.00157994,37.3431,2412.46,0.299557,
2,0,0,1,0,3668.27,0.29774,0.297467,-0.319317,3,0.0203873,11,-9.49862e-05,-3.49578,0.0105446,5.5953,1020.96,0.2974667,
2,0,0,1,0,3668.29,0.295742,0.295431,-1.21684,3,0.0203701,11,-0.000359493,-2.91477,-0.00593195,-9.94614,296.635,0.295431,
2,0,0,1,0,3668.31,0.293745,0.293476,-1.50316,3,0.0203425,11,-0.000441142,-2.82299,-0.0314787,-1.87428,103.388,0.293476,
2,0,0,1,0,3668.33,0.291747,0.291433,-1.6301,3,0.0203111,11,-0.000475067,-2.78778,-0.064642,-0.912719,57.5641,0.291433,
2,0,0,1,0,3668.35,0.289754,0.289458,-1.73442,3,0.0202776,11,-0.000502043,-2.76084,-0.0869144,-0.678829,45.5401,0.289458,
2,0,0,1,0,3668.37,0.287752,0.287461,-1.81102,3,0.0202421,11,-0.000520598,-2.74208,-0.12184,-0.484241,34.0453,0.287461,
2,0,0,1,0,3668.39,0.285754,0.285468,-1.87027,3,0.0202054,11,-0.000533902,-2.7281,-0.130958,-0.450526,32.9831,0.285468,
2,0,0,1,0,3668.41,0.283757,0.283481,-1.94229,3,0.0201672,11,-0.000550601,-2.71169,-0.132918,-0.443883,33.5572,0.283481,
2,0,0,1,0,3668.43,0.281759,0.281438,-2.00552,3,0.0201277,11,-0.000564429,-2.69777,-0.159836,-0.369127,28.8029,0.281438,
2,0,0,1,0,3668.45,0.279761,0.279478,-2.05759,3,0.0200872,11,-0.000575051,-2.68664,-0.162095,-0.363985,29.3031,0.279478,
2,0,0,1,0,3668.47,0.277764,0.277488,-2.12125,3,0.0200454,11,-0.000588621,-2.67341,-0.182598,-0.323113,26.6099,0.277488,
2,0,0,1,0,3668.49,0.275766,0.27549,-2.16371,3,0.0200026,11,-0.00059608,-2.6648,-0.227013,-0.259897,21.9568,0.27549,
2,0,0,1,0,3668.51,0.273769,0.2735,-2.20881,3,0.0199588,11,-0.00060411,-2.65584,-0.196296,-0.300566,25.9885,0.2735005,
2,0,0,1,0,3668.53,0.271771,0.27147,-2.26817,3,0.0199142,11,-0.000615741,-2.64432,-0.201344,-0.29303,25.8518,0.27147,
2,0,0,1,0,3668.55,0.269774,0.269467,-2.31309,3,0.0198685,11,-0.000623301,-2.63581,-0.2531,-0.23311,21.0164,0.269467,
2,0,0,1,0,3668.57,0.267776,0.267454,-2.35258,3,0.0198219,11,-0.000629206,-2.62846,-0.278918,-0.211532,19.4124,0.267454,
2,0,0,1,0,3668.59,0.265778,0.265491,-2.39027,3,0.0197746,11,-0.000634594,-2.62155,-0.261978,-0.22521,21.0402,0.265491,
2,0,0,1,0,3668.61,0.263781,0.263507,-2.43562,3,0.0197265,11,-0.000641804,-2.61339,-0.282897,-0.208557,19.7778,0.263507,
2,0,0,1,0,3668.63,0.261783,0.261461,-2.46998,3,0.0196775,11,-0.000645803,-2.60731,-0.344486,-0.17127,16.4993,0.261461,
2,0,0,1,0,3668.65,0.259786,0.259511,-2.50155,3,0.0196279,11,-0.000649181,-2.60179,-0.290011,-0.20344,19.918,0.259511,
2,0,0,1,0,3668.67,0.257788,0.257556,-2.54776,3,0.0195775,11,-0.00065619,-2.59384,-0.270096,-0.218441,21.6981,0.257556,
2,0,0,1,0,3668.69,0.25579,0.255463,-2.58938,3,0.0195263,11,-0.000661492,-2.5868,-0.367067,-0.160733,16.1844,0.255463,
2,0,0,1,0,3668.71,0.253793,0.253549,-2.61261,3,0.0194744,11,-0.000662424,-2.58293,-0.396452,-0.14882,15.211,0.253549,
2,0,0,1,0,3668.73,0.251795,0.251557,-2.6488,3,0.0194218,11,-0.000666325,-2.57695,-0.330355,-0.178596,18.4674,0.251557,
2,0,0,1,0,3668.75,0.249798,0.249531,-2.68681,3,0.0193684,11,-0.000670442,-2.57076,-0.351917,-0.167653,17.5633,0.249531,
2,0,0,1,0,3668.77,0.2478,0.247496,-2.72012,3,0.0193147,11,-0.00067322,-2.56541,-0.373605,-0.157921,16.7674,0.2474961,
2,0,0,1,0,3668.79,0.245802,0.245485,-2.75465,3,0.0192599,11,-0.000676225,-2.55993,-0.367715,-0.16045,17.2468,0.245485,
2,0,0,1,0,3668.81,0.243805,0.243521,-2.78868,3,0.0192045,11,-0.000679102,-2.5546,-0.425132,-0.13878,15.0803,0.243521,
2,0,0,1,0,3668.83,0.241807,0.241537,-2.81419,3,0.0191484,11,-0.00067973,-2.55065,-0.336002,-0.175594,19.3746,0.241537,
2,0,0,1,0,3668.85,0.23981,0.239525,-2.86611,3,0.019092,11,-0.000686504,-2.54271,-0.34116,-0.172939,19.2564,0.2395246,
2,0,0,1,0,3668.87,0.237812,0.237476,-2.89238,3,0.0190344,11,-0.000686872,-2.53874,-0.494565,-0.119297,13.4682,0.2374762,
2,0,0,1,0,3668.89,0.235815,0.235552,-2.91962,3,0.0189763,11,-0.000687721,-2.53467,-0.395283,-0.14926,17.0437,0.235552,
2,0,0,1,0,3668.91,0.233817,0.233529,-2.95966,3,0.0189177,11,-0.000691166,-2.52876,-0.357057,-0.16524,19.0747,0.233529,
2,0,0,1,0,3668.93,0.231815,0.231522,-2.99648,3,0.0188582,11,-0.000693752,-2.52339,-0.359228,-0.164241,19.2153,0.231522,
2,0,0,1,0,3668.95,0.229822,0.229542,-3.03627,3,0.0187981,11,-0.000696951,-2.51766,-0.423038,-0.139468,16.4877,0.229542,
2,0,0,1,0,3668.97,0.227824,0.227543,-3.06209,3,0.0187372,11,-0.000696757,-2.51398,-0.439109,-0.134363,16.0897,0.227543,
2,0,0,1,0,3668.99,0.225827,0.225539,-3.10067,3,0.0186757,11,-0.000699323,-2.50854,-0.383165,-0.153981,18.6245,0.225539,
2,0,0,1,0,3669.01,0.223829,0.223537,-3.13669,3,0.0186133,11,-0.000701168,-2.50353,-0.379392,-0.155512,19.0504,0.223537,
2,0,0,1,0,3669.03,0.221831,0.221511,-3.17742,3,0.0185504,11,-0.000703832,-2.49793,-0.374573,-0.157513,19.5206,0.221511,
2,0,0,1,0,3669.05,0.219834,0.219543,-3.21466,3,0.0184864,11,-0.000705757,-2.49286,-0.337867,-0.174625,21.947,0.219543,
2,0,0,1,0,3669.07,0.217836,0.217579,-3.26371,3,0.0184216,11,-0.000710114,-2.48629,-0.377458,-0.156309,19.8504,0.217579,
2,0,0,1,0,3669.09,0.215839,0.215561,-3.29371,3,0.018356,11,-0.000709995,-2.48231,-0.343118,-0.171952,22.2036,0.215561,
2,0,0,1,0,3669.11,0.213841,0.213512,-3.35401,3,0.0182898,11,-0.000716121,-2.47444,-0.298959,-0.197351,25.7669,0.213512,
2,0,0,1,0,3669.13,0.211843,0.211522,-3.39777,3,0.0182223,11,-0.000718705,-2.46881,-0.373451,-0.157986,20.936,0.211522,
2,0,0,1,0,3669.15,0.209846,0.209526,-3.43745,3,0.0181539,11,-0.000720236,-2.46376,-0.337426,-0.174853,23.5021,0.209526,
2,0,0,1,0,3669.17,0.207848,0.207567,-3.49074,3,0.0180846,11,-0.000724561,-2.45708,-0.236767,-0.24919,34.0872,0.207567,
2,0,0,1,0,3669.19,0.205851,0.205533,-3.57358,3,0.0180143,11,-0.000734488,-2.4469,-0.262723,-0.224571,31.1394,0.2055327,
2,0,0,1,0,3669.21,0.203853,0.203546,-3.61594,3,0.0179425,11,-0.00073601,-2.44178,-0.345973,-0.170534,24.0989,0.203546,
2,0,0,1,0,3669.23,0.201856,0.201584,-3.66875,3,0.0178698,11,-0.00073956,-2.43548,-0.284288,-0.207536,29.7656,0.201584,
2,0,0,1,0,3669.25,0.199858,0.199557,-3.73468,3,0.0177958,11,-0.000745281,-2.42775,-0.235007,-0.251056,36.669,0.199557,
2,0,0,1,0,3669.27,0.19786,0.197533,-3.81729,3,0.0177207,11,-0.00075404,-2.41825,-0.243476,-0.242323,35.9886,0.197533,
2,0,0,1,0,3669.29,0.195863,0.195599,-3.8771,3,0.0176438,11,-0.000758359,-2.41149,-0.237417,-0.248508,37.7434,0.195599,
2,0,0,1,0,3669.31,0.193865,0.193566,-3.96701,3,0.0175655,11,-0.000767879,-2.40154,-0.212005,-0.278295,43.0351,0.193566,
2,0,0,1,0,3669.33,0.191868,0.191608,-4.04887,3,0.0174854,11,-0.000775796,-2.39267,-0.206066,-0.286315,45.3335,0.191608,
2,0,0,1,0,3669.35,0.18987,0.189564,-4.14846,3,0.017404,11,-0.000786397,-2.38211,-0.203797,-0.289503,46.8085,0.189564,
2,0,0,1,0,3669.37,0.187872,0.187559,-4.23842,3,0.0173201,11,-0.000794952,-2.3728,-0.191262,-0.308477,51.1534,0.187559,
2,0,0,1,0,3669.39,0.185875,0.1856,-4.35119,3,0.0172342,11,-0.000807583,-2.36139,-0.181875,-0.324399,55.0361,0.1856,
2,0,0,1,0,3669.41,0.183877,0.183574,-4.45771,3,0.0171462,11,-0.00081832,-2.35089,-0.159772,-0.369276,64.5703,0.183574,
2,0,0,1,0,3669.43,0.18188,0.181559,-4.61217,3,0.017056,11,-0.00083738,-2.33609,-0.148807,-0.396487,71.167,0.181559,
2,0,0,1,0,3669.45,0.179882,0.179555,-4.74372,3,0.0169625,11,-0.00085176,-2.32388,-0.156593,-0.376772,69.84,0.179555,
2,0,0,1,0,3669.47,0.177885,0.177583,-4.88983,3,0.0168661,11,-0.00086835,-2.31071,-0.142734,-0.413356,79.0462,0.177583,
2,0,0,1,0,3669.49,0.175887,0.175559,-5.05961,3,0.0167666,11,-0.00088826,-2.29588,-0.128443,-0.459348,90.8777,0.175559,
2,0,0,1,0,3669.51,0.173896,0.173584,-5.25321,3,0.0166641,11,-0.000911875,-2.27958,-0.119225,-0.494864,101.579,0.173584,
2,0,0,1,0,3669.53,0.171892,0.17157,-5.46481,3,0.0165569,11,-0.000937597,-2.26242,-0.117545,-0.501934,107.02,0.17157,
2,0,0,1,0,3669.55,0.169894,0.169606,-5.67893,3,0.0164456,11,-0.000963183,-2.24573,-0.110274,-0.535032,118.954,0.169606,
2,0,0,1,0,3669.57,0.167897,0.167614,-5.93538,3,0.0163295,11,-0.000994852,-2.22655,-0.102934,-0.573182,132.862,0.167614,
2,0,0,1,0,3669.59,0.165899,0.165626,-6.2078,3,0.0162081,11,-0.00102817,-2.20706,-0.100509,-0.58701,142.416,0.165626,
2,0,0,1,0,3669.61,0.163901,0.163604,-6.50647,3,0.0160815,11,-0.00106448,-2.18665,-0.0953239,-0.618942,157.442,0.163604,
2,0,0,1,0,3669.63,0.161904,0.161622,-6.83814,3,0.0159481,11,-0.0011052,-2.16506,-0.0910233,-0.648185,173.207,0.161622,
2,0,0,1,0,3669.65,0.159906,0.159604,-7.1993,3,0.0158077,11,-0.00114904,-2.14271,-0.0902585,-0.653678,183.697,0.159604,
2,0,0,1,0,3669.67,0.157909,0.157606,-7.57583,3,0.01566,11,-0.001194,-2.12057,-0.0850491,-0.693717,205.798,0.157606,
2,0,0,1,0,3669.69,0.155911,0.155625,-8.01825,3,0.0155047,11,-0.00124784,-2.09592,-0.0821572,-0.718136,224.683,0.155625,
2,0,0,1,0,3669.71,0.153913,0.153607,-8.47454,3,0.0153397,11,-0.00130175,-2.07188,-0.0858063,-0.687595,227.079,0.153607,
2,0,0,1,0,3669.73,0.151916,0.151644,-8.92216,3,0.0151659,11,-0.00135299,-2.04953,-0.0846033,-0.697372,243.516,0.151644,
2,0,0,1,0,3669.75,0.149918,0.149652,-9.43765,3,0.0149823,11,-0.00141236,-2.02514,-0.0831195,-0.709822,261.444,0.149652,
2,0,0,1,0,3669.77,0.147921,0.147626,-9.97268,3,0.014789,11,-0.00147223,-2.00119,-0.0875943,-0.67356,261.65,0.147626,
2,0,0,1,0,3669.79,0.145923,0.145637,-10.488,3,0.0145844,11,-0.00152745,-1.97931,-0.0918625,-0.642264,262.832,0.145637,
2,0,0,1,0,3669.81,0.143926,0.143656,-11.0162,3,0.0143693,11,-0.00158253,-1.95797,-0.0956295,-0.616964,265.108,0.1436557,
2,0,0,1,0,3669.83,0.141928,0.141633,-11.5496,3,0.0141435,11,-0.0016358,-1.93743,-0.100954,-0.584422,263.073,0.141633,
2,0,0,1,0,3669.85,0.13993,0.139657,-12.0682,3,0.0139085,11,-0.0016854,-1.91836,-0.109996,-0.536382,252.152,0.139657,
2,0,0,1,0,3669.87,0.137933,0.137644,-12.5554,3,0.0136622,11,-0.00172818,-1.90117,-0.118822,-0.49654,243.142,0.137644,
2,0,0,1,0,3669.89,0.135935,0.135666,-13.0385,3,0.0134062,11,-0.00176888,-1.88477,-0.127546,-0.462577,234.992,0.135666,
2,0,0,1,0,3669.91,0.133938,0.133669,-13.4894,3,0.0131409,11,-0.00180312,-1.87001,-0.142842,-0.413044,217.137,0.133669,
2,0,0,1,0,3669.93,0.13194,0.131646,-13.9114,3,0.0128683,11,-0.00183138,-1.85663,-0.161581,-0.365143,197.861,0.131646,
2,0,0,1,0,3669.95,0.129942,0.129636,-14.2875,3,0.0125863,11,-0.00185217,-1.84504,-0.185986,-0.317229,176.55,0.129636,
2,0,0,1,0,3669.97,0.127945,0.12766,-14.6152,3,0.0122971,11,-0.00186577,-1.8352,-0.224622,-0.262663,149.484,0.12766,
2,0,0,1,0,3669.99,0.125947,0.125662,-14.8815,3,0.0120021,11,-0.00187004,-1.82735,-0.270883,-0.217806,126.361,0.125662,
2,0,0,1,0,3670.01,0.12395,0.123675,-15.1186,3,0.0117035,11,-0.0018698,-1.82049,-0.336555,-0.175306,103.212,0.123675,
2,0,0,1,0,3670.03,0.121952,0.121683,-15.2922,3,0.0113993,11,-0.0018608,-1.81553,-0.540424,-0.109173,64.9726,0.121683,
2,0,0,1,0,3670.05,0.119955,0.119642,-15.3807,3,0.0110924,11,-0.00184018,-1.81302,-1.06257,-0.0555257,33.2835,0.119642,
2,0,0,1,0,3670.07,0.117957,0.117645,-15.4266,3,0.0107842,11,-0.00181486,-1.81173,-5.02403,-0.0117436,7.05568,0.117645,
2,0,0,1,0,3670.09,0.115955,0.115631,-15.409,3,0.0104757,11,-0.00178176,-1.81223,1.18806,0.0496609,-29.7831,0.115631,
2,0,0,1,0,3670.11,0.113962,0.113655,-15.3078,3,0.0101698,11,-0.00173981,-1.81509,0.492082,0.119899,-71.4408,0.113655,
2,0,0,1,0,3670.13,0.111964,0.111682,-15.1269,3,0.00986532,11,-0.0016894,-1.82025,0.328567,0.179568,-105.785,0.111682,
2,0,0,1,0,3670.15,0.109967,0.10965,-14.8841,3,0.00956511,11,-0.00163204,-1.82728,0.243126,0.242673,-140.577,0.10965,
2,0,0,1,0,3670.17,0.107969,0.107673,-14.5633,3,0.00927058,11,-0.00156807,-1.83674,0.195324,0.302062,-171.378,0.107673,
2,0,0,1,0,3670.19,0.105971,0.10564,-14.1968,3,0.00898437,11,-0.00149974,-1.84781,0.163093,0.361756,-199.946,0.10564,
2,0,0,1,0,3670.21,0.103974,0.103699,-13.7688,3,0.00870477,11,-0.00142781,-1.8611,0.140659,0.419453,-225.065,0.103699,
2,0,0,1,0,3670.23,0.101976,0.1017,-13.3101,3,0.00843395,11,-0.00135363,-1.87582,0.131158,0.449839,-233.397,0.1017,
2,0,0,1,0,3670.25,0.0999786,0.0996831,-12.8314,3,0.00817258,11,-0.00127908,-1.89173,0.129082,0.457073,-229.101,0.0996831,
2,0,0,1,0,3670.27,0.0979811,0.0976735,-12.3876,3,0.00792168,11,-0.00120994,-1.90701,0.12865,0.458609,-221.597,0.09767352,
2,0,0,1,0,3670.29,0.0959835,0.0956664,-11.9413,3,0.00767849,11,-0.00114239,-1.92295,0.125579,0.469823,-219.057,0.0956664,
2,0,0,1,0,3670.31,0.0939859,0.0936988,-11.5169,3,0.00744401,11,-0.00107912,-1.93866,0.133019,0.443545,-199.738,0.0936988,
2,0,0,1,0,3670.33,0.0919883,0.0916813,-11.1454,3,0.00721748,11,-0.00102182,-1.95291,0.152319,0.387345,-168.908,0.0916813,
2,0,0,1,0,3670.35,0.0899907,0.0896731,-10.837,3,0.00699876,11,-0.000971784,-1.96509,0.162161,0.363836,-153.824,0.0896731,
2,0,0,1,0,3670.37,0.0879931,0.0876598,-10.5268,3,0.00678516,11,-0.000922774,-1.97771,0.169772,0.347524,-143.081,0.0876598,
2,0,0,1,0,3670.39,0.0859955,0.0856917,-10.2673,3,0.0065773,11,-0.000879821,-1.98854,0.196533,0.300204,-120.505,0.0856917,
2,0,0,1,0,3670.41,0.083998,0.0836871,-10.048,3,0.00637423,11,-0.000840889,-1.99792,0.224504,0.262801,-103.173,0.0836871,
2,0,0,1,0,3670.43,0.0820004,0.0816904,-9.85447,3,0.00617629,11,-0.000805015,-2.00637,0.238041,0.247856,-95.3469,0.0816904,
2,0,0,1,0,3670.45,0.0800028,0.0797049,-9.66833,3,0.00598113,11,-0.000770613,-2.01465,0.258346,0.228376,-86.2933,0.0797049,
2,0,0,1,0,3670.47,0.0780052,0.0777152,-9.51144,3,0.00578942,11,-0.000739184,-2.02175,0.280005,0.210711,-78.2082,0.07771524,
2,0,0,1,0,3670.49,0.0760076,0.0756903,-9.35436,3,0.00560085,11,-0.000708035,-2.02899,0.300457,0.196368,-71.7727,0.0756903,
2,0,0,1,0,3670.51,0.07401,0.0736667,-9.22086,3,0.00541617,11,-0.00067927,-2.03523,0.303106,0.194651,-70,0.0736667,
2,0,0,1,0,3670.53,0.0720124,0.0717176,-9.07627,3,0.00523332,11,-0.000650928,-2.04209,0.287411,0.205281,-72.7059,0.07171759,
2,0,0,1,0,3670.55,0.0700148,0.0696817,-8.93113,3,0.00505325,11,-0.000622337,-2.04909,0.284518,0.207368,-72.2752,0.0696817,
2,0,0,1,0,3670.57,0.0680173,0.0677097,-8.78659,3,0.00487618,11,-0.000594937,-2.05618,0.298872,0.197409,-67.7621,0.0677097,
2,0,0,1,0,3670.59,0.0660106,0.0656964,-8.66108,3,0.00470193,11,-0.000569002,-2.06243,0.286558,0.205892,-69.4866,0.0656964,
2,0,0,1,0,3670.61,0.0640221,0.0637317,-8.51018,3,0.00453108,11,-0.000542368,-2.07006,0.243596,0.242205,-80.3609,0.0637317,
2,0,0,1,0,3670.63,0.0620245,0.0617508,-8.344,3,0.0043626,11,-0.000515249,-2.07863,0.232849,0.253383,-82.5096,0.0617508,
2,0,0,1,0,3670.65,0.0600269,0.0597246,-8.17956,3,0.00419738,11,-0.000488521,-2.08727,0.234848,0.251226,-80.2233,0.0597246,
2,0,0,1,0,3670.67,0.0580361,0.0577439,-8.02256,3,0.00403618,11,-0.000463254,-2.09569,0.229824,0.256718,-80.3297,0.0577439,
2,0,0,1,0,3670.69,0.0560317,0.0557246,-7.85823,3,0.00387722,11,-0.000437897,-2.10468,0.220837,0.267165,-81.9225,0.0557246,
2,0,0,1,0,3670.71,0.0540342,0.0537313,-7.69383,3,0.00372174,11,-0.000413399,-2.11386,0.221773,0.266037,-79.9193,0.0537313,
2,0,0,1,0,3670.73,0.0520366,0.051728,-7.53883,3,0.00356943,11,-0.000389968,-2.1227,0.211144,0.27943,-82.112,0.051728,
2,0,0,1,0,3670.75,0.050039,0.0497589,-7.36766,3,0.00342034,11,-0.000366607,-2.13267,0.219545,0.268738,-77.4366,0.04975893,
2,0,0,1,0,3670.77,0.0480414,0.0477403,-7.23003,3,0.00327501,11,-0.000345164,-2.14086,0.241033,0.244779,-69.043,0.0477403,
2,0,0,1,0,3670.79,0.0460438,0.0457216,-7.08891,3,0.00313185,11,-0.000324116,-2.14942,0.238046,0.247851,-68.5925,0.0457216,
2,0,0,1,0,3670.81,0.0440462,0.0437195,-6.95424,3,0.00299143,11,-0.000304036,-2.15775,0.247892,0.238006,-64.6523,0.0437195,
2,0,0,1,0,3670.83,0.0420486,0.0417693,-6.83338,3,0.00285369,11,-0.000285425,-2.16536,0.305075,0.193395,-51.7084,0.0417693,
2,0,0,1,0,3670.85,0.040051,0.0397455,-6.74875,3,0.00271859,11,-0.000268232,-2.17078,0.338182,0.174462,-45.8957,0.0397455,
2,0,0,1,0,3670.87,0.0380535,0.0377504,-6.64893,3,0.00258467,11,-0.000251,-2.17725,0.313311,0.188312,-48.8789,0.0377504,
2,0,0,1,0,3670.89,0.0360559,0.0357614,-6.55401,3,0.00245273,11,-0.000234381,-2.18349,0.382597,0.154209,-39.5387,0.0357614,
2,0,0,1,0,3670.91,0.0340583,0.0337607,-6.49119,3,0.00232232,11,-0.000219147,-2.18768,0.531563,0.110993,-28.1439,0.0337607,
2,0,0,1,0,3670.93,0.0320607,0.0317326,-6.44063,3,0.00219366,11,-0.000204378,-2.19107,0.542244,0.108807,-27.3297,0.0317326,
2,0,0,1,0,3670.95,0.0300631,0.029731,-6.38105,3,0.00206556,11,-0.000189715,-2.19511,0.542919,0.108672,-27.0861,0.029731,
2,0,0,1,0,3670.97,0.0280655,0.02775,-6.33275,3,0.00193844,11,-0.000175734,-2.19841,0.762275,0.0773999,-19.1603,0.02775,
2,0,0,1,0,3670.99,0.0260679,0.0257733,-6.30522,3,0.00181204,11,-0.000162506,-2.2003,1.12167,0.0526002,-12.9472,0.0257733,
2,0,0,1,0,3671.01,0.0240704,0.0237828,-6.28139,3,0.00168679,11,-0.000149389,-2.20194,1.28779,0.045815,-11.2335,0.0237828,
2,0,0,1,0,3671.03,0.0220728,0.0217622,-6.26016,3,0.00156135,11,-0.000136235,-2.20341,1.87851,0.0314078,-7.6805,0.0217622,
2,0,0,1,0,3671.05,0.0200752,0.0197719,-6.25058,3,0.00143623,11,-0.000123586,-2.20408,2.14321,0.0275288,-6.71108,0.0197719,
2,0,0,1,0,3671.07,0.0180776,0.0177148,-6.233,3,0.00131137,11,-0.000110416,-2.2053,100.287,0.000588313,-0.143507,0.0177148,
2,0,0,1,0,3671.09,0.01608,0.0157811,-6.25001,3,0.00118729,11,-9.86317e-05,-2.20412,-3.06651,-0.0192401,4.68716,0.0157811,
2,0,0,1,0,3671.11,0.0140824,0.0137852,-6.25142,3,0.00106229,11,-8.6177e-05,-2.20402,-45.3282,-0.00130162,0.317521,0.0137852,
2,0,0,1,0,3671.13,0.0120848,0.0117955,-6.25128,3,0.000937267,11,-7.37372e-05,-2.20403,-13.6473,-0.0043232,1.05511,0.0117955,
2,0,0,1,0,3671.15,0.0100872,0.00974241,-6.25569,3,0.000812251,11,-6.09454e-05,-2.20373,-1.75241,-0.0336679,8.23542,0.00974241,
2,0,0,1,0,3671.17,0.00809193,0.00781065,-6.28409,3,0.000687552,11,-4.90828e-05,-2.20176,-1.22579,-0.0481322,11.7948,0.00781065,
2,0,0,1,0,3671.19,0.00609208,0.00578175,-6.3024,3,0.000561655,11,-3.64389e-05,-2.20049,-2.11313,-0.0279207,6.86258,0.00578175,
2,0,0,1,0,3671.21,0.00409449,0.00377715,-6.31177,3,0.000435614,11,-2.38405e-05,-2.19985,-0.561402,-0.105094,26.0617,0.00377715,
2,0,0,1,0,3671.23,0.0020969,0.00179554,-6.40629,3,0.00030898,11,-1.15027e-05,-2.19339,-0.600562,-0.0982413,24.3876,0.00179554,
2,0,0,1,0,3671.25,9.14991e-05,-0.00025418,-6.41009,3,0.000180848,11,1.62932e-06,-2.19314,-4.46874,-0.0132028,3.30439,-0.00025418,
2,0,0,1,0,3671.27,-0.00189827,-0.00225771,-6.41968,3,5.31457e-05,11,1.44938e-05,-2.19249,-1.82857,-0.0322656,8.09207,-0.00225771,
2,0,0,1,0,3671.29,-0.00389586,-0.00424528,-6.44238,3,-7.54365e-05,11,2.73497e-05,-2.19095,-1.13927,-0.0517875,13.0278,-0.00424528,
2,0,0,1,0,3671.31,-0.00589345,-0.00628264,-6.47212,3,-0.000204567,11,4.0662e-05,-2.18895,-1.23933,-0.0476064,12.014,-0.00628264,
2,0,0,1,0,3671.33,-0.00789103,-0.00824241,-6.49041,3,-0.00033425,11,5.34966e-05,-2.18773,-0.782655,-0.0753845,19.152,-0.00824241,
2,0,0,1,0,3671.35,-0.00988862,-0.0102277,-6.54767,3,-0.000464106,11,6.69679e-05,-2.18391,-0.588902,-0.100186,25.5748,-0.0102277,
2,0,0,1,0,3671.37,-0.0118862,-0.0122046,-6.59174,3,-0.000595539,11,8.04494e-05,-2.181,-0.856465,-0.0688878,17.6992,-0.0122046,
2,0,0,1,0,3671.39,-0.0138838,-0.0142669,-6.61916,3,-0.000727705,11,9.44348e-05,-2.1792,-0.901246,-0.0654649,16.9282,-0.0142669,
2,0,0,1,0,3671.41,-0.0158814,-0.0162346,-6.65996,3,-0.000860531,11,0.000108122,-2.17653,-0.589601,-0.100068,26.0493,-0.01623461,
2,0,0,1,0,3671.43,-0.017879,-0.0181952,-6.72149,3,-0.000993838,11,0.000122299,-2.17253,-0.582606,-0.101269,26.5315,-0.0181952,
2,0,0,1,0,3671.45,-0.0198766,-0.0202479,-6.76644,3,-0.00112873,11,0.000137006,-2.16964,-0.733718,-0.0804124,21.2283,-0.0202479,
2,0,0,1,0,3671.47,-0.0218741,-0.0222459,-6.80748,3,-0.00126438,11,0.000151438,-2.16701,-0.654363,-0.090164,23.977,-0.0222459,
2,0,0,1,0,3671.49,-0.0238717,-0.0242193,-6.86166,3,-0.00140103,11,0.000166185,-2.16357,-0.53122,-0.111065,29.7634,-0.0242193,
2,0,0,1,0,3671.51,-0.0258693,-0.0262299,-6.92606,3,-0.00153823,11,0.00018167,-2.15951,-0.594836,-0.099187,26.7684,-0.02622986,
2,0,0,1,0,3671.53,-0.0278669,-0.0282284,-6.96898,3,-0.00167702,11,0.000196723,-2.15683,-0.688255,-0.085724,23.3267,-0.0282284,
2,0,0,1,0,3671.55,-0.0298645,-0.0302178,-7.01909,3,-0.00181689,11,0.000212101,-2.15372,-0.601605,-0.098071,26.8784,-0.0302178,
2,0,0,1,0,3671.57,-0.0318621,-0.0322298,-7.07653,3,-0.00195785,11,0.000228075,-2.15018,-0.539764,-0.109307,30.2001,-0.0322298,
2,0,0,1,0,3671.59,-0.0338597,-0.034224,-7.14007,3,-0.00209925,11,0.000244362,-2.1463,-0.551792,-0.106924,29.7738,-0.034224,
2,0,0,1,0,3671.61,-0.0358573,-0.036168,-7.19378,3,-0.00224258,11,0.000260185,-2.14304,-0.576522,-0.102338,28.7448,-0.036168,
2,0,0,1,0,3671.63,-0.0378548,-0.0382045,-7.25449,3,-0.00238715,11,0.000277155,-2.13939,-0.622392,-0.0947956,26.8141,-0.0382045,
2,0,0,1,0,3671.65,-0.0398524,-0.0402129,-7.30224,3,-0.00253282,11,0.000293644,-2.13654,-0.526461,-0.112069,32.0086,-0.0402129,
2,0,0,1,0,3671.67,-0.04185,-0.0422099,-7.3827,3,-0.00267883,11,0.000311623,-2.13178,-0.480171,-0.122873,35.349,-0.0422099,
2,0,0,1,0,3671.69,-0.0438476,-0.0441455,-7.44126,3,-0.00282711,11,0.000328498,-2.12835,-0.588379,-0.100276,29.116,-0.0441455,
2,0,0,1,0,3671.71,-0.0458452,-0.0461566,-7.49761,3,-0.00297657,11,0.000346064,-2.12508,-0.58099,-0.101551,29.7311,-0.0461566,
2,0,0,1,0,3671.73,-0.0478428,-0.0482276,-7.56262,3,-0.00312718,11,0.000364727,-2.12133,-0.452997,-0.130244,38.5086,-0.0482276,
2,0,0,1,0,3671.75,-0.0498495,-0.0502404,-7.65487,3,-0.00327932,11,0.000384584,-2.11606,-0.428182,-0.137792,41.103,-0.0502404,
2,0,0,1,0,3671.77,-0.051838,-0.0521719,-7.72474,3,-0.00343239,11,0.000403015,-2.11212,-0.518057,-0.113887,34.3186,-0.05217189,
2,0,0,1,0,3671.79,-0.0538355,-0.0541234,-7.78813,3,-0.00358743,11,0.00042152,-2.10857,-0.505124,-0.116803,35.5394,-0.0541234,
2,0,0,1,0,3671.81,-0.0558331,-0.0562155,-7.86845,3,-0.00374401,11,0.000442329,-2.10411,-0.44411,-0.13285,40.8063,-0.0562155,
2,0,0,1,0,3671.83,-0.0578216,-0.0581738,-7.95341,3,-0.00390141,11,0.00046268,-2.09945,-0.426794,-0.13824,42.9041,-0.0581738,
2,0,0,1,0,3671.85,-0.0598283,-0.0601454,-8.03706,3,-0.00406138,11,0.000483393,-2.0949,-0.42973,-0.137296,43.0765,-0.0601454,
2,0,0,1,0,3671.87,-0.0618259,-0.0621778,-8.12589,3,-0.00422296,11,0.00050525,-2.09013,-0.417522,-0.14131,44.818,-0.0621778,
2,0,0,1,0,3671.89,-0.0638235,-0.0641616,-8.21706,3,-0.00438641,11,0.000527219,-2.08528,-0.412665,-0.142973,45.8483,-0.0641616,
2,0,0,1,0,3671.91,-0.0658211,-0.0661605,-8.30849,3,-0.00455164,11,0.000549695,-2.08048,-0.385062,-0.153222,49.7279,-0.0661605,
2,0,0,1,0,3671.93,-0.0678187,-0.0681567,-8.41573,3,-0.00471816,11,0.000573588,-2.07491,-0.366323,-0.16106,52.8917,-0.0681567,
2,0,0,1,0,3671.95,-0.0698162,-0.0701916,-8.5217,3,-0.00488759,11,0.000598152,-2.06947,-0.376455,-0.156725,52.104,-0.07019157,
2,0,0,1,0,3671.97,-0.0718138,-0.0721215,-8.62231,3,-0.00505907,11,0.000621853,-2.06438,-0.356213,-0.165631,55.7958,-0.0721215,
2,0,0,1,0,3671.99,-0.0738114,-0.0741514,-8.74264,3,-0.00523268,11,0.000648279,-2.05836,-0.318935,-0.184991,63.1615,-0.0741514,
2,0,0,1,0,3672.01,-0.075809,-0.0761402,-8.87614,3,-0.00540807,11,0.000675831,-2.05178,-0.33053,-0.178501,61.7642,-0.0761402,
2,0,0,1,0,3672.03,-0.0778066,-0.0781678,-8.99071,3,-0.00558679,11,0.000702784,-2.04621,-0.344967,-0.171031,60.0448,-0.0781678,
2,0,0,1,0,3672.05,-0.0798042,-0.0801416,-9.1164,3,-0.00576785,11,0.000730602,-2.04018,-0.318533,-0.185224,65.927,-0.0801416,
2,0,0,1,0,3672.07,-0.0818018,-0.0821136,-9.25085,3,-0.00595158,11,0.000759621,-2.03382,-0.300773,-0.196161,70.8809,-0.0821136,
2,0,0,1,0,3672.09,-0.0837994,-0.0841788,-9.40256,3,-0.00613723,11,0.000791497,-2.02675,-0.313724,-0.188063,68.9086,-0.0841788,
2,0,0,1,0,3672.11,-0.0857969,-0.0861345,-9.52792,3,-0.00632647,11,0.000820682,-2.021,-0.322682,-0.182843,68.055,-0.0861345,
2,0,0,1,0,3672.13,-0.0877945,-0.0881532,-9.67303,3,-0.00651851,11,0.000852709,-2.01444,-0.309141,-0.190852,72.0428,-0.0881532,
2,0,0,1,0,3672.15,-0.0897921,-0.0901635,-9.81819,3,-0.0067134,11,0.000885243,-2.00797,-0.308575,-0.191201,73.2542,-0.0901635,
2,0,0,1,0,3672.17,-0.0917897,-0.0921024,-9.96233,3,-0.00691004,11,0.000917555,-2.00164,-0.33598,-0.175606,68.2122,-0.0921024,
2,0,0,1,0,3672.19,-0.0937873,-0.0941378,-10.0893,3,-0.00711052,11,0.000949782,-1.99614,-0.363609,-0.162262,63.8955,-0.0941378,
2,0,0,1,0,3672.21,-0.0957849,-0.0961146,-10.2187,3,-0.00731364,11,0.000982166,-1.9906,-0.374978,-0.157342,62.72,-0.0961146,
2,0,0,1,0,3672.23,-0.0977825,-0.0981318,-10.3398,3,-0.00751919,11,0.00101466,-1.98549,-0.376006,-0.156913,63.3467,-0.0981318,
2,0,0,1,0,3672.24,-0.0997501,-0.100098,-10.471,3,-0.00772297,11,0.00104812,-1.98001,0.00591803,9.96954,-3318.34,-0.100098,
2,0,0,1,1,3672.26,-0.0987313,-0.0991556,-6.94252,3,-0.00785816,11,0.00068839,-2.15848,-0.00584102,-10.101,2419.14,-0.0991556,
2,0,0,1,1,3672.28,-0.0967337,-0.0970937,-3.20413,3,-0.00795622,11,0.000311101,-2.49429,-0.00439777,-13.4159,1512.81,-0.0970937,
2,0,0,1,1,3672.3,-0.0947361,-0.0951217,-0.839944,3,-0.00799488,11,7.98969e-05,-3.07575,-0.0061935,-9.52612,991.638,-0.0951217,
2,1,0,1,1,3672.32,-0.0927386,-0.093124,0.732415,3,-0.00799486,11,-6.82054e-05,-3.13524,0.0118729,4.96929,662.706,-0.093124,
2,1,0,1,1,3672.34,-0.090741,-0.0910772,1.84032,3,-0.00796865,11,-0.000167611,-2.73511,0.00737058,8.0048,459.803,-0.0910772,
2,1,0,1,1,3672.36,-0.0887434,-0.0890768,2.59332,3,-0.007924,11,-0.000231004,-2.58614,0.0169057,3.48995,332.856,-0.0890768,
2,1,0,1,1,3672.38,-0.0867458,-0.0870922,3.16678,3,-0.00786622,11,-0.000275802,-2.49938,0.0278854,2.1158,253.437,-0.0870922,
2,1,0,1,1,3672.4,-0.0847482,-0.0851042,3.60014,3,-0.0077984,11,-0.000306387,-2.44368,0.0420629,1.40266,193.785,-0.08510416,
2,1,0,1,1,3672.42,-0.0827529,-0.0830945,3.94147,3,-0.00772342,11,-0.000327514,-2.40434,0.059414,0.993033,150.923,-0.0830945,
2,1,0,1,1,3672.44,-0.080753,-0.0811029,4.20402,3,-0.00764187,11,-0.000340958,-2.37634,0.079657,0.740676,120.756,-0.0811029,
2,1,0,1,1,3672.46,-0.0787554,-0.0791087,4.42278,3,-0.00755554,11,-0.00034988,-2.35431,0.104389,0.565192,96.9618,-0.0791087,
2,1,0,1,1,3672.48,-0.0767579,-0.0770872,4.59339,3,-0.00746539,11,-0.000354091,-2.33787,0.131394,0.449032,80.2993,-0.0770872,
2,1,0,1,1,3672.5,-0.0747603,-0.0750917,4.74534,3,-0.007372,11,-0.000356335,-2.32373,0.146717,0.402134,74.3959,-0.0750917,
2,1,0,1,1,3672.52,-0.0727627,-0.0730937,4.89049,3,-0.00727597,11,-0.000357464,-2.31065,0.186081,0.317066,60.1965,-0.0730937,
2,1,0,1,1,3672.54,-0.0707651,-0.0710924,4.98608,3,-0.00717721,11,-0.000354472,-2.30224,0.233853,0.252295,49.1088,-0.0710924,
2,1,0,1,1,3672.56,-0.0687675,-0.0691148,5.08589,3,-0.00707653,11,-0.00035151,-2.29363,0.245795,0.240038,47.6043,-0.0691148,
2,1,0,1,1,3672.58,-0.0667699,-0.0670525,5.1784,3,-0.00697392,11,-0.000347225,-2.2858,0.2752,0.214389,43.2794,-0.0670525,
2,1,0,1,1,3672.6,-0.0647723,-0.0650821,5.26042,3,-0.00687002,11,-0.000342359,-2.27898,0.334641,0.176308,36.1188,-0.0650821,
2,1,0,1,1,3672.62,-0.0627748,-0.0631113,5.32075,3,-0.00676431,11,-0.0003358,-2.27403,0.380215,0.155175,32.2463,-0.0631113,
2,1,0,1,1,3672.64,-0.0607772,-0.0610807,5.38945,3,-0.00665727,11,-0.000329191,-2.26846,0.399889,0.147541,30.9923,-0.0610807,
2,1,0,1,1,3672.66,-0.0587796,-0.0591165,5.44456,3,-0.006549,11,-0.000321863,-2.26404,0.48448,0.12178,25.8568,-0.0591165,
2,1,0,1,1,3672.68,-0.056782,-0.0571234,5.49177,3,-0.00644023,11,-0.000313709,-2.26029,0.542105,0.108835,23.324,-0.0571234,
2,1,0,1,1,3672.7,-0.0547844,-0.055103,5.53817,3,-0.00633004,11,-0.00030517,-2.25663,0.644515,0.0915416,19.7615,-0.055103,
2,1,0,1,1,3672.72,-0.0527868,-0.0531014,5.57125,3,-0.00621907,11,-0.000295841,-2.25405,0.963895,0.06121,13.2933,-0.0531014,
2,1,0,1,1,3672.74,-0.0507892,-0.0510922,5.59148,3,-0.00610764,11,-0.000285681,-2.25247,0.718941,0.0820651,17.9576,-0.0510922,
2,1,0,1,1,3672.76,-0.0487916,-0.0491186,5.64278,3,-0.005996,11,-0.000277165,-2.24851,0.769812,0.0766421,16.8243,-0.0491186,
2,1,0,1,1,3672.78,-0.046794,-0.0471266,5.6582,3,-0.00588309,11,-0.000266652,-2.24732,1.9597,0.0301067,6.64568,-0.0471266,
2,1,0,1,1,3672.8,-0.0447965,-0.0451202,5.66935,3,-0.00576993,11,-0.000255802,-2.24647,1.92142,0.0307065,6.79701,-0.0451202,
2,1,0,1,1,3672.82,-0.0427989,-0.0431117,5.68549,3,-0.00565648,11,-0.000245111,-2.24523,1.15746,0.0509735,11.3228,-0.0431117,
2,1,0,1,1,3672.84,-0.0408013,-0.0411585,5.7142,3,-0.00554318,11,-0.000235188,-2.24304,2.46906,0.0238958,5.31201,-0.0411585,
2,1,0,1,1,3672.86,-0.0388037,-0.039134,5.70662,3,-0.00542903,11,-0.000223323,-2.24362,22.8379,0.00258343,0.57624,-0.039134,
2,1,0,1,1,3672.88,-0.0368061,-0.0371261,5.71653,3,-0.00531488,11,-0.000212232,-2.24287,2.33463,0.0252717,5.63941,-0.0371261,
2,1,0,1,1,3672.9,-0.0348085,-0.0351356,5.72917,3,-0.00520048,11,-0.000201298,-2.24191,2.10017,0.0280929,6.28116,-0.0351356,
2,1,0,1,1,3672.92,-0.0328109,-0.033149,5.74151,3,-0.00508651,11,-0.000190325,-2.24097,9.51267,0.00620226,1.38744,-0.033149,
2,1,0,1,1,3672.94,-0.0308134,-0.0311409,5.73471,3,-0.0049719,11,-0.000178584,-2.24149,-4.29848,-0.0137258,-3.07224,-0.0311409,
2,1,0,1,1,3672.96,-0.0288158,-0.0290947,5.72905,3,-0.00485739,11,-0.000166685,-2.24192,-3.7022,-0.0159364,-3.56229,-0.0290947,
2,1,0,1,1,3672.98,-0.0268182,-0.0271612,5.72054,3,-0.00474294,11,-0.000155377,-2.24256,-6.86127,-0.00859899,-1.92135,-0.0271612,
2,1,0,1,1,3673,-0.0248138,-0.0251584,5.72149,3,-0.00462867,11,-0.000143943,-2.24249,15.2742,0.00386273,0.862633,-0.0251584,
2,1,0,1,1,3673.02,-0.022823,-0.0231583,5.72399,3,-0.00451485,11,-0.000132558,-2.2423,-5.75525,-0.0102515,-2.28726,-0.0231583,
2,1,0,1,1,3673.04,-0.0208254,-0.0211774,5.71238,3,-0.00440057,11,-0.000120973,-2.24318,-2.01543,-0.0292742,-6.52464,-0.0211774,
2,1,0,1,1,3673.06,-0.0188278,-0.0191629,5.69792,3,-0.00428662,11,-0.000109188,-2.24428,-2.00062,-0.0294909,-6.55949,-0.0191629,
2,1,0,1,1,3673.08,-0.0168393,-0.0171773,5.68615,3,-0.00417348,11,-9.76724e-05,-2.24518,-5.07249,-0.0116314,-2.58414,-0.0171773,
2,1,0,1,1,3673.1,-0.0148327,-0.015164,5.68759,3,-0.00405968,11,-8.62465e-05,-2.24507,-2.51667,-0.0234437,-5.19286,-0.015164,
2,1,0,1,1,3673.12,-0.0128351,-0.0131446,5.66521,3,-0.00394625,11,-7.4467e-05,-2.24678,-1.69454,-0.0348176,-7.7076,-0.0131446,
2,1,0,1,1,3673.14,-0.0108375,-0.0111912,5.65697,3,-0.00383313,11,-6.33083e-05,-2.24742,-2.60924,-0.0226119,-4.99067,-0.0111912,
2,1,0,1,1,3673.16,-0.00883989,-0.00918358,5.64544,3,-0.00372012,11,-5.18453e-05,-2.2483,-1.86826,-0.0315801,-6.9548,-0.00918358,
2,1,0,1,1,3673.18,-0.0068423,-0.00716564,5.62897,3,-0.00360785,11,-4.03352e-05,-2.24957,-2.01125,-0.029335,-6.44846,-0.00716564,
2,1,0,1,1,3673.2,-0.00484471,-0.00519342,5.61971,3,-0.00349544,11,-2.91855e-05,-2.25029,-2.17936,-0.0270721,-5.93479,-0.00519342,
2,1,0,1,1,3673.22,-0.00284713,-0.00320087,5.60544,3,-0.00338327,11,-1.79423e-05,-2.25139,-1.50231,-0.0392729,-8.5871,-0.00320087,
2,1,0,1,1,3673.24,-0.000849538,-0.00121579,5.58555,3,-0.00327143,11,-6.79085e-06,-2.25293, , , ,-0.00121579,
2,1,0,0,1,3673.25,-2.55332e-05,-0.000344411,5.56982,3,-0.00322626,11,-1.91831e-06,-2.25416, , , ,-0.000344411,