File: Figure_codes/Fig_3-5/rawdata_trumpetplot_data/before 10th/20221101_1-115_002_TrumpetPlot_ParaChange_11_CV_C01_3.csv
mode,ox/red,error,control changes,counter inc.,time/s,control/V,Ewe/V,<I>/mA,cycle number,(Q-Qo)/C,I Range,P/W,log(|I|),Tafel slope mV/dec,alpha_eff,dI/d(E-IR),E-IR/V,
2,0,0,1,0,4896.88,2.44065e-05,0.000705392,-6.98445,4,0.0000000E+000,11,-4.92678e-06,-2.15587, , , ,0.000705392,
2,0,0,1,0,4896.89,0.00179726,0.00140208,-2.67681,4,-9.06664e-05,11,-3.75309e-06,-2.57238, , , ,0.00140208,
2,1,0,1,0,4896.91,0.00379485,0.00348592,0.542839,4,-0.000107468,11,1.89229e-06,-3.26533,-0.0410144,-1.43852,1188.99,0.00348592,
2,1,0,1,0,4896.93,0.00579244,0.00544734,2.13298,4,-7.86658e-05,11,1.16191e-05,-2.67101,0.00538978,10.9466,611.768,0.00544734,
2,1,0,1,0,4896.95,0.00779002,0.00747392,2.98257,4,-2.64662e-05,11,2.22915e-05,-2.52541,0.0188031,3.13778,336.792,0.00747392,
2,1,0,1,0,4896.97,0.00978761,0.00943654,3.47651,4,3.83877e-05,11,3.28062e-05,-2.45886,0.0400016,1.47494,192.826,0.00943654,
2,1,0,1,0,4896.99,0.0117852,0.0114338,3.74613,4,0.000110967,11,4.28324e-05,-2.42642,0.0794639,0.742475,106.87,0.0114338,
2,1,0,1,0,4897.01,0.0137828,0.0134765,3.90826,4,0.00018767,11,5.26699e-05,-2.40802,0.133235,0.442826,67.0728,0.0134765,
2,1,0,1,0,4897.03,0.0157804,0.0155046,4.01917,4,0.000267116,11,6.23155e-05,-2.39586,0.1847,0.319437,49.9548,0.01550457,
2,1,0,1,0,4897.05,0.017778,0.0174661,4.10756,4,0.000348176,11,7.17432e-05,-2.38642,0.277888,0.212316,33.8561,0.0174661,
2,1,0,1,0,4897.07,0.0197755,0.0194703,4.15344,4,0.000430874,11,8.08686e-05,-2.38159,0.368229,0.160226,26.0082,0.0194703,
2,1,0,1,0,4897.09,0.0217731,0.0214562,4.21134,4,0.000514656,11,9.03594e-05,-2.37558,0.388564,0.151841,24.9076,0.0214562,
2,1,0,1,0,4897.11,0.0237707,0.023482,4.25336,4,0.000599371,11,9.98771e-05,-2.37127,0.440127,0.134052,22.2668,0.023482,
2,1,0,1,0,4897.13,0.0257683,0.0254985,4.30135,4,0.000684603,11,0.000109678,-2.3664,0.423241,0.1394,23.3918,0.0254985,
2,1,0,1,0,4897.15,0.0277659,0.0274567,4.34633,4,0.000771209,11,0.000119336,-2.36188,0.430041,0.137196,23.2794,0.0274567,
2,1,0,1,0,4897.17,0.0297635,0.0295003,4.39451,4,0.000858778,11,0.00012964,-2.35709,0.493689,0.119509,20.4611,0.0295003,
2,1,0,1,0,4897.19,0.0317611,0.031442,4.42788,4,0.000947198,11,0.000139222,-2.3538,0.3726,0.158347,27.4918,0.031442,
2,1,0,1,0,4897.21,0.0337586,0.0334576,4.5033,4,0.00103616,11,0.000150669,-2.34647,0.355193,0.166107,29.0864,0.0334576,
2,1,0,1,0,4897.23,0.0357562,0.0355132,4.54629,4,0.00112679,11,0.000161453,-2.34234,0.447925,0.131718,23.3898,0.0355132,
2,1,0,1,0,4897.25,0.0377538,0.0374688,4.59712,4,0.00121842,11,0.000172249,-2.33751,0.369228,0.159793,28.7004,0.0374688,
2,1,0,1,0,4897.27,0.0397514,0.0394257,4.65858,4,0.00131107,11,0.000183668,-2.33175,0.284502,0.20738,37.8191,0.0394257,
2,1,0,1,0,4897.29,0.041749,0.041495,4.74939,4,0.00140471,11,0.000197076,-2.32336,0.302229,0.195216,36.0439,0.041495,
2,1,0,1,0,4897.31,0.0437466,0.0434649,4.80417,4,0.00150032,11,0.000208813,-2.31838,0.360345,0.163732,30.735,0.0434649,
2,1,0,1,0,4897.33,0.0457442,0.0454491,4.87092,4,0.00159709,11,0.000221379,-2.31239,0.302728,0.194895,37.1036,0.0454491,
2,1,0,1,0,4897.35,0.0477418,0.0474711,4.95281,4,0.00169543,11,0.000235115,-2.30515,0.257495,0.229131,44.353,0.0474711,
2,1,0,1,0,4897.37,0.0497484,0.0494878,5.05005,4,0.00179545,11,0.000249916,-2.2967,0.256113,0.230367,45.3293,0.0494878,
2,1,0,1,0,4897.39,0.0517369,0.051425,5.13204,4,0.00189683,11,0.000263915,-2.28971,0.247141,0.23873,47.9288,0.051425,
2,1,0,1,0,4897.41,0.0537345,0.0534449,5.2397,4,0.00200057,11,0.000280035,-2.28069,0.238543,0.247335,50.5081,0.0534449,
2,1,0,1,0,4897.43,0.0557321,0.0554296,5.33431,4,0.00210639,11,0.000295678,-2.27292,0.243462,0.242338,50.5007,0.0554296,
2,1,0,1,0,4897.45,0.0577206,0.0574281,5.44086,4,0.00221365,11,0.000312458,-2.26433,0.218996,0.269412,57.2781,0.0574281,
2,1,0,1,0,4897.47,0.0597273,0.0594149,5.56258,4,0.00232393,11,0.0003305,-2.25472,0.208021,0.283626,61.5809,0.0594149,
2,1,0,1,0,4897.49,0.0617249,0.061436,5.68767,4,0.00243656,11,0.000349428,-2.24507,0.217279,0.271541,60.2108,0.061436,
2,1,0,1,0,4897.51,0.0637224,0.0633986,5.80244,4,0.00255159,11,0.000367866,-2.23639,0.211449,0.279027,63.2992,0.0633986,
2,1,0,1,0,4897.53,0.06572,0.0654201,5.93986,4,0.00266909,11,0.000388586,-2.22622,0.191139,0.308676,71.6213,0.0654201,
2,1,0,1,0,4897.55,0.0677176,0.067421,6.09053,4,0.00278904,11,0.000410629,-2.21535,0.200485,0.294286,69.8048,0.067421,
2,1,0,1,0,4897.57,0.0697152,0.0694048,6.21801,4,0.00291228,11,0.00043156,-2.20635,0.209955,0.281012,68.272,0.0694048,
2,1,0,1,0,4897.59,0.0717128,0.0713953,6.36186,4,0.00303819,11,0.000454207,-2.19642,0.204126,0.289037,71.7592,0.0713953,
2,1,0,1,0,4897.61,0.0737104,0.0734347,6.50719,4,0.00316697,11,0.000477854,-2.18661,0.20181,0.292354,74.2837,0.0734347,
2,1,0,1,0,4897.63,0.075708,0.0754305,6.66161,4,0.00329817,11,0.000502489,-2.17642,0.206357,0.285912,74.2564,0.0754305,
2,1,0,1,0,4897.65,0.0777056,0.0774412,6.8047,4,0.00343283,11,0.000526964,-2.16719,0.216827,0.272106,72.2577,0.0774412,
2,1,0,1,0,4897.67,0.0797031,0.0794072,6.94896,4,0.00357041,11,0.000551797,-2.15808,0.222396,0.265292,71.9235,0.07940717,
2,1,0,1,0,4897.69,0.0817007,0.0814187,7.09078,4,0.00371093,11,0.000577322,-2.14931,0.225362,0.261801,72.482,0.0814187,
2,1,0,1,0,4897.71,0.0836983,0.0834385,7.24116,4,0.00385357,11,0.000604192,-2.14019,0.228841,0.257821,72.7891,0.0834385,
2,1,0,1,0,4897.73,0.0856959,0.0853829,7.37933,4,0.00399982,11,0.000630069,-2.13198,0.242868,0.24293,69.9529,0.0853829,
2,1,0,1,0,4897.75,0.0876935,0.0873863,7.51732,4,0.00414891,11,0.00065691,-2.12394,0.262339,0.2249,65.9378,0.08738628,
2,1,0,1,0,4897.77,0.0896911,0.0894444,7.64713,4,0.00430062,11,0.000683993,-2.1165,0.253455,0.232783,69.5515,0.0894444,
2,1,0,1,0,4897.79,0.0916887,0.0913931,7.796,4,0.0044543,11,0.000712501,-2.10813,0.253118,0.233093,70.8325,0.0913931,
2,1,0,1,0,4897.81,0.0936862,0.0934021,7.92747,4,0.00461168,11,0.000740442,-2.10087,0.296559,0.198949,61.4806,0.0934021,
2,1,0,1,0,4897.83,0.0956838,0.0953932,8.04193,4,0.00477155,11,0.000767145,-2.09464,0.292286,0.201857,63.4424,0.0953932,
2,1,0,1,0,4897.85,0.0976814,0.0973883,8.18036,4,0.00493387,11,0.000796672,-2.08723,0.266146,0.221683,70.7955,0.0973883,
2,1,0,1,0,4897.87,0.099679,0.0994005,8.32563,4,0.0050981,11,0.000827571,-2.07958,0.286154,0.206182,66.8917,0.0994005,
2,1,0,1,0,4897.89,0.101677,0.101375,8.44703,4,0.00526594,11,0.000856316,-2.0733,0.293696,0.200888,66.3042,0.1013748,
2,1,0,1,0,4897.91,0.103674,0.103388,8.59002,4,0.00543638,11,0.000888106,-2.06601,0.258972,0.227824,76.4564,0.1033881,
2,1,0,1,0,4897.93,0.105672,0.105376,8.75292,4,0.00560985,11,0.000922345,-2.05785,0.242993,0.242805,82.9459,0.105376,
2,1,0,1,0,4897.95,0.107667,0.107351,8.91873,4,0.00578568,11,0.000957434,-2.0497,0.248838,0.237102,82.5139,0.107351,
2,1,0,1,0,4897.97,0.109667,0.109382,9.0835,4,0.00596583,11,0.000993572,-2.04175,0.241834,0.243969,86.5525,0.109382,
2,1,0,1,0,4897.99,0.111665,0.111343,9.26423,4,0.0061494,11,0.00103151,-2.03319,0.224887,0.262354,94.9237,0.111343,
2,1,0,1,0,4898.01,0.113662,0.113358,9.46094,4,0.00633673,11,0.00107248,-2.02407,0.21273,0.277347,102.472,0.1133583,
2,1,0,1,0,4898.03,0.11566,0.115331,9.67293,4,0.00652801,11,0.00111559,-2.01444,0.182212,0.323798,122.591,0.115331,
2,1,0,1,0,4898.05,0.117657,0.117309,9.94526,4,0.00672336,11,0.00116667,-2.00238,0.173355,0.340342,131.977,0.117309,
2,1,0,1,0,4898.07,0.119655,0.119356,10.2041,4,0.00692494,11,0.00121792,-1.99123,0.183415,0.321674,128.101,0.119356,
2,1,0,1,0,4898.09,0.121652,0.121385,10.4673,4,0.00713171,11,0.00127057,-1.98016,0.174405,0.338293,138.356,0.121385,
2,1,0,1,0,4898.11,0.12365,0.123373,10.7599,4,0.00734405,11,0.00132748,-1.96819,0.160907,0.366672,154.121,0.123373,
2,1,0,1,0,4898.13,0.125648,0.125351,11.0787,4,0.00756158,11,0.00138873,-1.95551,0.161868,0.364495,157.448,0.125351,
2,1,0,1,0,4898.15,0.127645,0.127328,11.3826,4,0.00778633,11,0.00144932,-1.94376,0.163975,0.359811,159.992,0.127328,
2,1,0,1,0,4898.17,0.129643,0.129324,11.7144,4,0.00801743,11,0.00151495,-1.93128,0.161778,0.364698,166.718,0.129324,
2,1,0,1,0,4898.19,0.13164,0.131336,12.0507,4,0.00825521,11,0.00158269,-1.91899,0.166684,0.353963,166.405,0.131336,
2,1,0,1,0,4898.21,0.133638,0.133349,12.384,4,0.00849856,11,0.00165139,-1.90714,0.173664,0.339737,164.098,0.133349,
2,1,0,1,0,4898.23,0.135636,0.135341,12.708,4,0.00874963,11,0.00171992,-1.89592,0.178298,0.330906,164.11,0.135341,
2,1,0,1,0,4898.25,0.137633,0.137327,13.037,4,0.00900722,11,0.00179033,-1.88482,0.188612,0.312812,158.979,0.137327,
2,1,0,1,0,4898.27,0.139631,0.139329,13.342,4,0.00927117,11,0.00185892,-1.87478,0.201355,0.293015,152.561,0.139329,
2,1,0,1,0,4898.29,0.141628,0.141344,13.6498,4,0.00953975,11,0.00192932,-1.86487,0.211668,0.278738,148.337,0.141344,
2,1,0,1,0,4898.31,0.143626,0.143322,13.9344,4,0.00981573,11,0.00199711,-1.85591,0.240481,0.245341,133.242,0.143322,
2,1,0,1,0,4898.33,0.145624,0.145362,14.1851,4,0.0100971,11,0.00206197,-1.84817,0.27688,0.213089,117.825,0.145362,
2,1,0,1,0,4898.35,0.147621,0.147312,14.4045,4,0.0103831,11,0.00212195,-1.8415,0.305506,0.193122,108.523,0.147312,
2,1,0,1,0,4898.37,0.149619,0.14932,14.6146,4,0.0106719,11,0.00218225,-1.83521,0.374455,0.157562,89.6844,0.14932,
2,1,0,1,0,4898.39,0.151616,0.151351,14.7667,4,0.0109659,11,0.00223496,-1.83072,0.538168,0.109631,63.062,0.1513512,
2,1,0,1,0,4898.41,0.153614,0.153278,14.8642,4,0.0112624,11,0.00227835,-1.82786,1.02489,0.057567,33.3251,0.153278,
2,1,0,1,0,4898.43,0.155611,0.155347,14.8999,4,0.0115602,11,0.00231464,-1.82682,7.15679,0.00824392,4.78544,0.155347,
2,1,0,1,0,4898.45,0.157609,0.157324,14.8836,4,0.0118566,11,0.00234155,-1.82729,-0.904929,-0.0651985,-37.7211,0.157324,
2,1,0,1,0,4898.47,0.159607,0.159329,14.7496,4,0.0121532,11,0.00235005,-1.83122,-0.383608,-0.153803,-88.2721,0.159329,
2,1,0,1,0,4898.49,0.161604,0.161331,14.5299,4,0.0124462,11,0.00234412,-1.83774,-0.242424,-0.243376,-137.45,0.161331,
2,1,0,1,0,4898.51,0.163602,0.163356,14.1962,4,0.0127337,11,0.00231903,-1.84783,-0.164984,-0.35761,-197.187,0.1633558,
2,1,0,1,0,4898.53,0.165606,0.165362,13.7351,4,0.0130133,11,0.00227126,-1.86217,-0.122834,-0.480321,-256.495,0.1653617,
2,1,0,1,0,4898.55,0.167597,0.167308,13.1825,4,0.0132814,11,0.00220554,-1.88,-0.09913,-0.595178,-304.638,0.167308,
2,1,0,1,0,4898.57,0.169595,0.16937,12.5142,4,0.0135385,11,0.00211952,-1.9026,-0.0797229,-0.740063,-359.588,0.16937,
2,1,0,1,0,4898.59,0.171592,0.171304,11.7453,4,0.0137811,11,0.00201203,-1.93013,-0.0674629,-0.874555,-399.696,0.171304,
2,1,0,1,0,4898.61,0.173581,0.173302,10.9422,4,0.0140068,11,0.00189631,-1.96089,-0.0628215,-0.93917,-400.473,0.173302,
2,1,0,1,0,4898.63,0.175587,0.175298,10.1459,4,0.0142177,11,0.00177856,-1.99371,-0.0603664,-0.977365,-386.722,0.175298,
2,1,0,1,0,4898.65,0.177585,0.177354,9.37533,4,0.0144128,11,0.00166275,-2.02801,-0.0586542,-1.00589,-368.342,0.177354,
2,1,0,1,0,4898.67,0.179582,0.179335,8.65907,4,0.014593,11,0.00155287,-2.06253,-0.059793,-0.986738,-335.07,0.179335,
2,1,0,1,0,4898.69,0.18158,0.18128,8.05987,4,0.01476,11,0.00146109,-2.09367,-0.0668688,-0.882325,-278.718,0.18128,
2,1,0,1,0,4898.71,0.183578,0.183298,7.55438,4,0.0149152,11,0.00138471,-2.1218,-0.0743122,-0.793947,-234.814,0.183298,
2,1,0,1,0,4898.73,0.185575,0.185299,7.11621,4,0.0150618,11,0.00131863,-2.14775,-0.0837598,-0.704395,-196.657,0.185299,
2,1,0,1,0,4898.75,0.187573,0.1873,6.76742,4,0.0152006,11,0.00126754,-2.16958,-0.0978048,-0.603242,-160.016,0.1873,
2,1,0,1,0,4898.77,0.18957,0.18923,6.48716,4,0.0153331,11,0.00122757,-2.18795,-0.116273,-0.507427,-128.832,0.18923,
2,1,0,1,0,4898.79,0.191568,0.191311,6.25064,4,0.0154599,11,0.00119582,-2.20408,-0.133839,-0.440829,-107.814,0.191311,
2,1,0,1,0,4898.81,0.193566,0.193273,6.05132,4,0.0155828,11,0.00116955,-2.21815,-0.148281,-0.397892,-94.108,0.193273,
2,1,0,1,0,4898.83,0.195563,0.195314,5.87395,4,0.015702,11,0.00114727,-2.23107,-0.156326,-0.377416,-86.5459,0.195314,
2,1,0,1,0,4898.85,0.197561,0.19729,5.70359,4,0.0158179,11,0.00112526,-2.24385,-0.176924,-0.333476,-74.5091,0.19729,
2,1,0,1,0,4898.87,0.199558,0.199276,5.57874,4,0.0159302,11,0.00111171,-2.25346,-0.19823,-0.297635,-64.7504,0.199276,
2,1,0,1,0,4898.89,0.201556,0.201252,5.4471,4,0.0160405,11,0.00109624,-2.26383,-0.199357,-0.295952,-62.9674,0.201252,
2,1,0,1,0,4898.91,0.203553,0.203281,5.32658,4,0.0161483,11,0.00108279,-2.27355,-0.211631,-0.278787,-57.9934,0.203281,
2,1,0,1,0,4898.93,0.205551,0.205255,5.21495,4,0.0162537,11,0.00107039,-2.28275,-0.261715,-0.225436,-46.0421,0.2052546,
2,1,0,1,0,4898.95,0.207549,0.207313,5.14095,4,0.0163567,11,0.00106578,-2.28896,-0.265006,-0.222636,-44.5283,0.207313,
2,1,0,1,0,4898.97,0.209546,0.209281,5.03568,4,0.0164585,11,0.00105387,-2.29794,-0.231856,-0.254468,-50.0547,0.209281,
2,1,0,1,0,4898.99,0.211544,0.211312,4.94077,4,0.0165582,11,0.00104404,-2.30621,-0.26395,-0.223528,-43.1709,0.211312,
2,1,0,1,0,4899.01,0.213541,0.213284,4.86286,4,0.0166563,11,0.00103717,-2.31311,-0.327848,-0.179962,-34.2251,0.213284,
2,1,0,1,0,4899.03,0.215539,0.215251,4.80596,4,0.0167525,11,0.00103449,-2.31822,-0.313013,-0.188491,-35.2544,0.215251,
2,1,0,1,0,4899.05,0.217537,0.217257,4.72278,4,0.0168478,11,0.00102606,-2.3258,-0.311093,-0.189654,-35.0546,0.217257,
2,1,0,1,0,4899.07,0.219534,0.219217,4.66691,4,0.0169417,11,0.00102307,-2.33097,-0.396788,-0.148694,-27.0872,0.2192174,
2,1,0,1,0,4899.09,0.221532,0.221305,4.61314,4,0.0170346,11,0.00102091,-2.336,-0.383132,-0.153994,-27.7089,0.221305,
2,1,0,1,0,4899.11,0.223525,0.223269,4.55465,4,0.0171259,11,0.00101691,-2.34155,-0.407558,-0.144765,-25.7747,0.223269,
2,1,0,1,0,4899.13,0.225527,0.225249,4.51149,4,0.0172167,11,0.00101621,-2.34568,-0.477147,-0.123652,-21.7711,0.225249,
2,1,0,1,0,4899.15,0.227525,0.227224,4.46853,4,0.0173065,11,0.00101536,-2.34983,-0.416004,-0.141826,-24.7006,0.227224,
2,1,0,1,0,4899.17,0.229522,0.229192,4.41408,4,0.0173954,11,0.00101167,-2.35516,-0.453094,-0.130216,-22.4792,0.2291923,
2,1,0,1,0,4899.19,0.23152,0.231229,4.3785,4,0.0174834,11,0.00101244,-2.35867,-0.772981,-0.0763279,-13.07,0.231229,
2,1,0,1,0,4899.21,0.233517,0.233236,4.36123,4,0.0175705,11,0.0010172,-2.36039,-0.620962,-0.0950138,-16.1166,0.233236,
2,1,0,1,0,4899.23,0.235515,0.23521,4.31434,4,0.0176573,11,0.00101478,-2.36509,-0.498401,-0.118379,-19.9643,0.23521,
2,1,0,1,0,4899.25,0.237512,0.237221,4.28166,4,0.0177432,11,0.0010157,-2.36839,-0.650763,-0.0906629,-15.1577,0.2372213,
2,1,0,1,0,4899.27,0.23951,0.239216,4.25363,4,0.0178286,11,0.00101753,-2.37124,-0.830548,-0.0710375,-11.805,0.239216,
2,1,0,1,0,4899.29,0.241508,0.24121,4.23458,4,0.0179132,11,0.00102142,-2.37319,-0.693944,-0.0850213,-14.0209,0.24121,
2,1,0,1,0,4899.31,0.243505,0.243211,4.1976,4,0.0179975,11,0.00102091,-2.377,-0.794277,-0.0742814,-12.2045,0.243211,
2,1,0,1,0,4899.33,0.245503,0.245241,4.18538,4,0.0180813,11,0.00102643,-2.37827,-0.956258,-0.0616988,-10.0584,0.245241,
2,1,0,1,0,4899.35,0.2475,0.247258,4.1569,4,0.0181648,11,0.00102783,-2.38123,-0.749125,-0.0787586,-12.7854,0.247258,
2,1,0,1,0,4899.37,0.249498,0.249263,4.13395,4,0.0182474,11,0.00103044,-2.38363,-0.8674,-0.0680194,-10.977,0.249263,
2,1,0,1,0,4899.39,0.251496,0.251218,4.11344,4,0.0183299,11,0.00103337,-2.3858,-0.954544,-0.0618096,-9.92467,0.251218,
2,1,0,1,0,4899.41,0.253493,0.253217,4.09472,4,0.0184121,11,0.00103685,-2.38778,-0.799307,-0.0738139,-11.782,0.253217,
2,1,0,1,0,4899.43,0.255491,0.255196,4.06657,4,0.0184938,11,0.00103777,-2.39077,-1.39534,-0.0422835,-6.73471,0.255196,
2,1,0,1,0,4899.45,0.257488,0.257235,4.06766,4,0.0185748,11,0.00104634,-2.39066,-1.95169,-0.0302303,-4.78629,0.257235,
2,1,0,1,0,4899.47,0.259486,0.259234,4.04724,4,0.018656,11,0.00104918,-2.39284,-0.712929,-0.0827571,-13.0533,0.259234,
2,1,0,1,0,4899.49,0.261484,0.261221,4.01562,4,0.0187367,11,0.00104897,-2.39625,-0.801606,-0.0736022,-11.559,0.2612212,
2,1,0,1,0,4899.51,0.263481,0.263237,4.00097,4,0.018817,11,0.0010532,-2.39784,-2.93416,-0.020108,-3.14632,0.263237,
2,1,0,1,0,4899.53,0.265479,0.265228,4.00302,4,0.0188967,11,0.00106171,-2.39761,-1.49874,-0.0393663,-6.12824,0.265228,
2,1,0,1,0,4899.55,0.267476,0.26719,3.97674,4,0.0189765,11,0.00106254,-2.40047,-0.843871,-0.0699159,-10.8638,0.26719,
2,1,0,1,0,4899.57,0.269474,0.269187,3.96,4,0.0190559,11,0.00106598,-2.4023,-1.37016,-0.0430605,-6.6604,0.269187,
2,1,0,1,0,4899.59,0.271471,0.27122,3.9499,4,0.019135,11,0.00107129,-2.40341,-3.87531,-0.0152246,-2.35007,0.27122,
2,1,0,1,0,4899.61,0.273469,0.273246,3.95046,4,0.0192136,11,0.00107945,-2.40335,-1.27943,-0.0461143,-7.08312,0.273246,
2,1,0,1,0,4899.63,0.275467,0.275216,3.9216,4,0.0192922,11,0.00107929,-2.40654,-0.76144,-0.0774848,-11.8757,0.275216,
2,1,0,1,0,4899.65,0.277464,0.277164,3.90393,4,0.0193705,11,0.00108203,-2.4085,-1.0512,-0.0561265,-8.55292,0.277164,
2,1,0,1,0,4899.67,0.279462,0.279171,3.88777,4,0.0194485,11,0.00108535,-2.4103,-1.29402,-0.0455945,-6.92187,0.279171,
2,1,0,1,0,4899.69,0.281464,0.28119,3.87606,4,0.0195262,11,0.00108991,-2.41161,-2.12859,-0.0277179,-4.19643,0.28119,
2,1,0,1,0,4899.71,0.283457,0.28319,3.87091,4,0.0196034,11,0.0010962,-2.41219,-1.62527,-0.0363016,-5.476,0.28319,
2,1,0,1,0,4899.73,0.285455,0.28515,3.85438,4,0.0196807,11,0.00109908,-2.41405,-0.889098,-0.0663594,-9.97306,0.28515,
2,1,0,1,0,4899.75,0.287452,0.287194,3.83097,4,0.0197577,11,0.00110023,-2.41669,-1.21952,-0.0483797,-7.24997,0.2871944,
2,1,0,1,0,4899.77,0.28945,0.289165,3.82527,4,0.0198343,11,0.00110614,-2.41734,-4.06488,-0.0145146,-2.16763,0.289165,
2,1,0,1,0,4899.79,0.291447,0.291187,3.82231,4,0.0199106,11,0.00111301,-2.41767,-1.10463,-0.0534116,-7.94027,0.291187,
2,1,0,1,0,4899.81,0.293445,0.293202,3.79322,4,0.0199868,11,0.00111218,-2.42099,-1.13071,-0.0521795,-7.75214,0.293202,
2,1,0,1,0,4899.83,0.295442,0.29519,3.79129,4,0.0200627,11,0.00111915,-2.42121,-3.13798,-0.0188019,-2.7793,0.29519,
2,1,0,1,0,4899.85,0.29744,0.297206,3.78209,4,0.0201385,11,0.00112406,-2.42227,-1.73761,-0.0339548,-5.0108,0.297206,
2,1,0,1,0,4899.87,0.299438,0.299168,3.77135,4,0.0202138,11,0.00112827,-2.4235,-0.0244537,-2.41273,-319.271,0.299168,
2,1,0,1,0,4899.88,0.299737,0.29957,3.02727,4,0.0202441,11,0.000906879,-2.51895,0.00139439,42.3124,2332.58,0.29957,
2,0,0,1,0,4899.9,0.29774,0.297455,-0.223051,4,0.020265,11,-6.63477e-05,-3.6516,0.00972086,6.06942,1001.26,0.297455,
2,0,0,1,0,4899.92,0.295742,0.295416,-1.13173,4,0.0202498,11,-0.000334333,-2.94626,-0.0049727,-11.8648,302.274,0.295416,
2,0,0,1,0,4899.94,0.293745,0.293426,-1.44094,4,0.0202237,11,-0.00042281,-2.84135,-0.0272554,-2.16471,113.483,0.293426,
2,0,0,1,0,4899.96,0.291747,0.291469,-1.57969,4,0.0201934,11,-0.00046043,-2.80143,-0.056882,-1.03724,63.2622,0.291469,
2,0,0,1,0,4899.98,0.289754,0.289468,-1.69134,4,0.0201609,11,-0.000489589,-2.77177,-0.0800663,-0.736889,48.1476,0.289468,
2,0,0,1,0,4900,0.287752,0.287466,-1.77242,4,0.0201262,11,-0.000509509,-2.75143,-0.110018,-0.536274,36.9353,0.287466,
2,0,0,1,0,4900.02,0.285754,0.285434,-1.84032,4,0.0200901,11,-0.00052529,-2.73511,-0.120522,-0.489539,35.1926,0.285434,
2,0,0,1,0,4900.04,0.283757,0.283458,-1.91348,4,0.0200526,11,-0.00054239,-2.71818,-0.120746,-0.488631,36.4461,0.283458,
2,0,0,1,0,4900.06,0.281759,0.281495,-1.98388,4,0.0200137,11,-0.000558453,-2.70249,-0.149657,-0.394235,30.3615,0.281495,
2,0,0,1,0,4900.08,0.279761,0.279473,-2.03446,4,0.0199736,11,-0.000568577,-2.69155,-0.167188,-0.352896,28.0994,0.279473,
2,0,0,1,0,4900.1,0.277764,0.277444,-2.09771,4,0.0199323,11,-0.000581997,-2.67826,-0.170366,-0.346313,28.2504,0.277444,
2,0,0,1,0,4900.12,0.275766,0.27549,-2.14699,4,0.0198899,11,-0.000591473,-2.66817,-0.212271,-0.277947,23.2521,0.27549,
2,0,0,1,0,4900.14,0.273769,0.273472,-2.19008,4,0.0198465,11,-0.000598925,-2.65954,-0.202729,-0.291029,24.9551,0.273472,
2,0,0,1,0,4900.16,0.271771,0.271439,-2.24808,4,0.0198023,11,-0.000610216,-2.64819,-0.181107,-0.325775,28.5588,0.2714386,
2,0,0,1,0,4900.18,0.269774,0.269505,-2.30338,4,0.0197568,11,-0.000620771,-2.63764,-0.246467,-0.239383,21.4015,0.2695047,
2,0,0,1,0,4900.2,0.267776,0.267422,-2.33405,4,0.0197105,11,-0.000624176,-2.63189,-0.318808,-0.185064,16.8789,0.267422,
2,0,0,1,0,4900.22,0.265778,0.265501,-2.37095,4,0.0196636,11,-0.00062949,-2.62508,-0.233416,-0.252767,23.4764,0.265501,
2,0,0,1,0,4900.24,0.263781,0.263496,-2.42622,4,0.0196158,11,-0.000639298,-2.61507,-0.254466,-0.231858,21.8505,0.2634958,
2,0,0,1,0,4900.26,0.261783,0.261466,-2.45913,4,0.019567,11,-0.000642978,-2.60922,-0.346861,-0.170097,16.3207,0.261466,
2,0,0,1,0,4900.28,0.259786,0.259516,-2.49117,4,0.0195177,11,-0.000646498,-2.6036,-0.292589,-0.201648,19.6539,0.259516,
2,0,0,1,0,4900.3,0.257788,0.257549,-2.5361,4,0.0194675,11,-0.000653171,-2.59583,-0.26886,-0.219445,21.7046,0.257549,
2,0,0,1,0,4900.32,0.25579,0.255516,-2.57798,4,0.0194166,11,-0.000658716,-2.58872,-0.358697,-0.164484,16.4968,0.255516,
2,0,0,1,0,4900.34,0.253793,0.253436,-2.60396,4,0.0193649,11,-0.000659937,-2.58437,-0.392123,-0.150463,15.3184,0.253436,
2,0,0,1,0,4900.36,0.251795,0.251492,-2.63962,4,0.0193126,11,-0.000663845,-2.57846,-0.365927,-0.161235,16.5888,0.251492,
2,0,0,1,0,4900.38,0.249798,0.249522,-2.66889,4,0.0192595,11,-0.000665946,-2.57367,-0.38388,-0.153694,16.0236,0.249522,
2,0,0,1,0,4900.4,0.2478,0.247509,-2.70344,4,0.0192061,11,-0.000669128,-2.56808,-0.333936,-0.176681,18.6613,0.247509,
2,0,0,1,0,4900.42,0.245802,0.245484,-2.74425,4,0.0191516,11,-0.000673668,-2.56158,-0.350233,-0.168459,18.0116,0.245484,
2,0,0,1,0,4900.44,0.243805,0.243473,-2.77615,4,0.0190964,11,-0.000675917,-2.55656,-0.443459,-0.133045,14.3958,0.243473,
2,0,0,1,0,4900.46,0.241807,0.241544,-2.80097,4,0.0190407,11,-0.000676556,-2.55269,-0.365208,-0.161552,17.7257,0.241544,
2,0,0,1,0,4900.48,0.23981,0.239476,-2.847,4,0.0189846,11,-0.000681787,-2.54561,-0.353631,-0.166841,18.4787,0.239476,
2,0,0,1,0,4900.5,0.237812,0.237522,-2.87529,4,0.0189274,11,-0.000682943,-2.54132,-0.472417,-0.12489,14.0111,0.237522,
2,0,0,1,0,4900.52,0.235815,0.235521,-2.90242,4,0.0188696,11,-0.000683579,-2.53724,-0.465272,-0.126807,14.3721,0.2355206,
2,0,0,1,0,4900.54,0.233817,0.233499,-2.93309,4,0.0188114,11,-0.000684876,-2.53267,-0.353024,-0.167127,19.1793,0.2334995,
2,0,0,1,0,4900.56,0.231815,0.231531,-2.97893,4,0.0187523,11,-0.000689715,-2.52594,-0.330243,-0.178656,20.7366,0.231531,
2,0,0,1,0,4900.58,0.229822,0.229526,-3.01549,4,0.0186927,11,-0.000692133,-2.52064,-0.44116,-0.133738,15.7105,0.229526,
2,0,0,1,0,4900.6,0.227824,0.227557,-3.04136,4,0.0186323,11,-0.000692084,-2.51693,-0.459049,-0.128526,15.2785,0.227557,
2,0,0,1,0,4900.62,0.225827,0.225523,-3.07665,4,0.0185712,11,-0.000693856,-2.51192,-0.415202,-0.1421,17.0554,0.225523,
2,0,0,1,0,4900.64,0.223829,0.223548,-3.10975,4,0.0185094,11,-0.000695177,-2.50728,-0.36822,-0.16023,19.4809,0.223548,
2,0,0,1,0,4900.66,0.221831,0.221537,-3.15429,4,0.018447,11,-0.000698794,-2.5011,-0.363457,-0.16233,19.9534,0.221537,
2,0,0,1,0,4900.68,0.219834,0.219536,-3.18979,4,0.0183837,11,-0.000700274,-2.49624,-0.389941,-0.151305,18.848,0.219536,
2,0,0,1,0,4900.7,0.217836,0.217532,-3.22978,4,0.0183195,11,-0.000702582,-2.49083,-0.410971,-0.143562,18.0716,0.217532,
2,0,0,1,0,4900.72,0.215839,0.215573,-3.26141,4,0.0182547,11,-0.000703072,-2.48659,-0.334193,-0.176545,22.5612,0.215573,
2,0,0,1,0,4900.74,0.213841,0.213551,-3.31961,4,0.0181893,11,-0.000708905,-2.47891,-0.32429,-0.181936,23.4925,0.213551,
2,0,0,1,0,4900.76,0.211843,0.211534,-3.35629,4,0.0181226,11,-0.00070997,-2.47414,-0.429621,-0.13733,17.9822,0.211534,
2,0,0,1,0,4900.78,0.209846,0.209583,-3.39096,4,0.0180552,11,-0.000710687,-2.46968,-0.375912,-0.156951,20.8151,0.209583,
2,0,0,1,0,4900.8,0.207848,0.20749,-3.44047,4,0.0179869,11,-0.000713863,-2.46338,-0.253966,-0.232314,31.3169,0.20749,
2,0,0,1,0,4900.82,0.205851,0.205524,-3.51809,4,0.0179177,11,-0.00072305,-2.45369,-0.283548,-0.208078,28.3908,0.2055236,
2,0,0,1,0,4900.84,0.203853,0.203548,-3.5524,4,0.0178471,11,-0.000723083,-2.44948,-0.3853,-0.153127,21.2778,0.203548,
2,0,0,1,0,4900.86,0.201856,0.201522,-3.60323,4,0.0177757,11,-0.00072613,-2.44331,-0.303725,-0.194255,27.3417,0.2015222,
2,0,0,1,0,4900.88,0.199858,0.199568,-3.6612,4,0.0177031,11,-0.00073066,-2.43638,-0.251852,-0.234264,33.5517,0.199568,
2,0,0,1,0,4900.9,0.19786,0.197528,-3.73723,4,0.0176296,11,-0.000738208,-2.42745,-0.265533,-0.222194,32.3084,0.197528,
2,0,0,1,0,4900.92,0.195863,0.195547,-3.79114,4,0.0175545,11,-0.000741344,-2.42123,-0.261558,-0.225571,33.4864,0.195547,
2,0,0,1,0,4900.94,0.193865,0.193527,-3.87123,4,0.017478,11,-0.000749186,-2.41215,-0.228771,-0.2579,38.9292,0.193527,
2,0,0,1,0,4900.96,0.191868,0.191584,-3.94542,4,0.0174,11,-0.000755877,-2.40391,-0.218569,-0.269938,41.6513,0.191584,
2,0,0,1,0,4900.98,0.18987,0.18954,-4.03727,4,0.0173208,11,-0.000765225,-2.39391,-0.214539,-0.275008,43.264,0.18954,
2,0,0,1,0,4901,0.187872,0.187597,-4.11789,4,0.0172394,11,-0.000772503,-2.38533,-0.209128,-0.282123,45.4324,0.187597,
2,0,0,1,0,4901.02,0.185875,0.185592,-4.21666,4,0.0171561,11,-0.000782577,-2.37503,-0.201866,-0.292273,48.0699,0.185592,
2,0,0,1,0,4901.04,0.183877,0.183556,-4.31213,4,0.017071,11,-0.000791518,-2.36531,-0.177509,-0.332377,56.1439,0.183556,
2,0,0,1,0,4901.06,0.18188,0.181583,-4.4417,4,0.0169841,11,-0.000806539,-2.35245,-0.162272,-0.363586,62.9499,0.181583,
2,0,0,1,0,4901.08,0.179882,0.179573,-4.5629,4,0.0168941,11,-0.000819372,-2.34076,-0.168895,-0.349329,62.2358,0.179573,
2,0,0,1,0,4901.1,0.177885,0.177584,-4.69059,4,0.0168015,11,-0.000832975,-2.32877,-0.155023,-0.38059,69.8319,0.177584,
2,0,0,1,0,4901.12,0.175887,0.175564,-4.84281,4,0.0167063,11,-0.000850224,-2.3149,-0.136402,-0.432545,81.892,0.175564,
2,0,0,1,0,4901.14,0.173896,0.173618,-5.01537,4,0.0166083,11,-0.00087076,-2.2997,-0.127866,-0.46142,90.3838,0.173618,
2,0,0,1,0,4901.16,0.171892,0.171615,-5.19972,4,0.0165062,11,-0.000892353,-2.28402,-0.128843,-0.457923,92.9725,0.171615,
2,0,0,1,0,4901.18,0.169894,0.169547,-5.39389,4,0.0164004,11,-0.000914517,-2.2681,-0.116781,-0.505217,106.659,0.169547,
2,0,0,1,0,4901.2,0.167897,0.16763,-5.62485,4,0.0162904,11,-0.000942891,-2.24989,-0.108014,-0.546224,120,0.16763,
2,0,0,1,0,4901.22,0.165899,0.165569,-5.8713,4,0.0161756,11,-0.000972103,-2.23127,-0.106672,-0.553097,126.87,0.165569,
2,0,0,1,0,4901.24,0.163901,0.163588,-6.13763,4,0.0160562,11,-0.00100404,-2.212,-0.0995937,-0.592407,142.157,0.163588,
2,0,0,1,0,4901.26,0.161904,0.161605,-6.43472,4,0.0159306,11,-0.00103988,-2.19147,-0.0951222,-0.620255,155.95,0.161605,
2,0,0,1,0,4901.28,0.159906,0.159615,-6.75723,4,0.0157987,11,-0.00107855,-2.17023,-0.092414,-0.638431,168.56,0.159615,
2,0,0,1,0,4901.3,0.157909,0.157619,-7.10665,4,0.0156602,11,-0.00112014,-2.14833,-0.0882214,-0.668772,185.921,0.1576189,
2,0,0,1,0,4901.32,0.155911,0.155606,-7.50256,4,0.0155149,11,-0.00116744,-2.12479,-0.085025,-0.693914,203.378,0.155606,
2,0,0,1,0,4901.34,0.153913,0.15358,-7.92816,4,0.0153606,11,-0.0012176,-2.10083,-0.0854579,-0.690398,213.461,0.15358,
2,0,0,1,0,4901.36,0.151916,0.151601,-8.35753,4,0.0151977,11,-0.00126701,-2.07792,-0.0866999,-0.680509,222.011,0.151601,
2,0,0,1,0,4901.38,0.149918,0.149625,-8.80611,4,0.0150263,11,-0.00131762,-2.05522,-0.0829768,-0.711042,245.093,0.149625,
2,0,0,1,0,4901.4,0.147921,0.147655,-9.3246,4,0.0148459,11,-0.00137682,-2.03037,-0.0834753,-0.706796,256.681,0.147655,
2,0,0,1,0,4901.42,0.145923,0.145662,-9.82327,4,0.0146544,11,-0.00143088,-2.00774,-0.0909617,-0.648624,248.466,0.145662,
2,0,0,1,0,4901.44,0.143926,0.143636,-10.3232,4,0.014453,11,-0.00148278,-1.98619,-0.0940596,-0.627262,252.758,0.143636,
2,0,0,1,0,4901.46,0.141928,0.141625,-10.8436,4,0.0142414,11,-0.00153573,-1.96482,-0.0975416,-0.60487,255.716,0.141625,
2,0,0,1,0,4901.48,0.13993,0.139587,-11.3585,4,0.0140205,11,-0.0015855,-1.94468,-0.103993,-0.567347,250.884,0.1395873,
2,0,0,1,0,4901.5,0.137933,0.137685,-11.8323,4,0.0137887,11,-0.00162913,-1.92693,-0.11288,-0.522678,241.155,0.137685,
2,0,0,1,0,4901.52,0.135935,0.13569,-12.2984,4,0.0135474,11,-0.00166877,-1.91015,-0.12401,-0.475769,228.11,0.1356896,
2,0,0,1,0,4901.54,0.133938,0.133663,-12.7496,4,0.013297,11,-0.00170416,-1.8945,-0.134225,-0.439559,218.418,0.133663,
2,0,0,1,0,4901.56,0.13194,0.13167,-13.1764,4,0.0130392,11,-0.00173493,-1.8802,-0.148728,-0.396697,203.666,0.1316701,
2,0,0,1,0,4901.58,0.129942,0.129639,-13.5691,4,0.0127719,11,-0.0017591,-1.86745,-0.169653,-0.347769,183.777,0.129639,
2,0,0,1,0,4901.6,0.127945,0.12767,-13.9114,4,0.0124971,11,-0.00177607,-1.85663,-0.203354,-0.290135,157.19,0.1276705,
2,0,0,1,0,4901.62,0.125947,0.125624,-14.2003,4,0.0122161,11,-0.0017839,-1.8477,-0.235379,-0.25066,138.759,0.125624,
2,0,0,1,0,4901.64,0.12395,0.12371,-14.461,4,0.011931,11,-0.00178896,-1.8398,-0.287131,-0.205481,115.707,0.12371,
2,0,0,1,0,4901.66,0.121952,0.121657,-14.6594,4,0.0116399,11,-0.00178341,-1.83388,-0.417879,-0.141189,80.5761,0.121657,
2,0,0,1,0,4901.68,0.119955,0.119669,-14.7865,4,0.0113454,11,-0.0017695,-1.83013,-0.627414,-0.0940368,54.1999,0.119669,
2,0,0,1,0,4901.7,0.117957,0.117619,-14.8782,4,0.0110488,11,-0.00174996,-1.82745,-1.09359,-0.0539505,31.2659,0.117619,
2,0,0,1,0,4901.72,0.115955,0.115637,-14.9126,4,0.0107509,11,-0.00172445,-1.82645,-58.1821,-0.00101406,0.588859,0.115637,
2,0,0,1,0,4901.74,0.113962,0.113662,-14.8806,4,0.0104543,11,-0.00169136,-1.82738,1.13872,0.0518124,-30.0326,0.113662,
2,0,0,1,0,4901.76,0.111964,0.11163,-14.7923,4,0.0101576,11,-0.00165126,-1.82997,0.549192,0.107431,-61.867,0.11163,
2,0,0,1,0,4901.78,0.109967,0.109646,-14.6321,4,0.00986336,11,-0.00160434,-1.83469,0.353822,0.166751,-95.03,0.109646,
2,0,0,1,0,4901.8,0.107969,0.107655,-14.4145,4,0.00957294,11,-0.00155179,-1.8412,0.275934,0.213819,-120.098,0.107655,
2,0,0,1,0,4901.82,0.105971,0.105673,-14.1549,4,0.00928873,11,-0.00149578,-1.84909,0.223783,0.263648,-145.298,0.105673,
2,0,0,1,0,4901.84,0.103974,0.103645,-13.8319,4,0.00900902,11,-0.0014336,-1.85912,0.187884,0.314024,-169.25,0.103645,
2,0,0,1,0,4901.86,0.101976,0.101634,-13.4713,4,0.0087361,11,-0.00136913,-1.87059,0.161382,0.365591,-191.853,0.1016335,
2,0,0,1,0,4901.88,0.0999786,0.0996649,-13.0684,4,0.00847087,11,-0.00130246,-1.88378,0.15237,0.387215,-197.583,0.0996649,
2,0,0,1,0,4901.9,0.0979811,0.0976594,-12.6861,4,0.00821476,11,-0.00123891,-1.89667,0.147467,0.400089,-197.826,0.0976594,
2,0,0,1,0,4901.92,0.0959835,0.0956752,-12.2791,4,0.00796531,11,-0.0011748,-1.91083,0.139408,0.423217,-202.813,0.0956752,
2,0,0,1,0,4901.94,0.0939859,0.0936901,-11.881,4,0.00772391,11,-0.00111313,-1.92515,0.148902,0.396233,-184.039,0.0936901,
2,0,0,1,0,4901.96,0.0919883,0.0916125,-11.5314,4,0.00749004,11,-0.00105642,-1.93812,0.162484,0.363112,-163.669,0.0916125,
2,0,0,1,0,4901.98,0.0899907,0.0896761,-11.2241,4,0.00726381,11,-0.00100653,-1.94985,0.162922,0.362137,-158.504,0.0896761,
2,0,0,1,0,4902,0.0879931,0.0876585,-10.9047,4,0.00704272,11,-0.000955887,-1.96239,0.174546,0.338019,-144.22,0.0876585,
2,0,0,1,0,4902.02,0.0859955,0.0856687,-10.6461,4,0.00682739,11,-0.000912038,-1.97281,0.199287,0.296055,-123.149,0.0856687,
2,0,0,1,0,4902.04,0.083998,0.0836905,-10.416,4,0.00661698,11,-0.000871722,-1.9823,0.221592,0.266255,-108.364,0.0836905,
2,0,0,1,0,4902.06,0.0820004,0.0816812,-10.214,4,0.00641183,11,-0.000834293,-1.9908,0.245524,0.240302,-95.877,0.0816812,
2,0,0,1,0,4902.08,0.0800028,0.0796962,-10.033,4,0.00620957,11,-0.000799596,-1.99857,0.268561,0.219689,-86.0933,0.0796962,
2,0,0,1,0,4902.1,0.0780052,0.0776953,-9.87085,4,0.00601072,11,-0.000766919,-2.00565,0.28604,0.206265,-79.4753,0.0776953,
2,0,0,1,0,4902.12,0.0760076,0.0756866,-9.71439,4,0.00581501,11,-0.000735249,-2.01258,0.318067,0.185495,-70.4307,0.0756866,
2,0,0,1,0,4902.14,0.07401,0.0736844,-9.58836,4,0.00562329,11,-0.000706513,-2.01826,0.330001,0.178787,-66.8426,0.0736844,
2,0,0,1,0,4902.16,0.0720124,0.0716759,-9.4463,4,0.00543314,11,-0.000677073,-2.02474,0.311272,0.189545,-69.9006,0.0716759,
2,0,0,1,0,4902.18,0.0700148,0.0697286,-9.31185,4,0.00524567,11,-0.000649302,-2.03096,0.313086,0.188446,-68.4707,0.0697286,
2,0,0,1,0,4902.2,0.0680173,0.0677162,-9.17518,4,0.00506099,11,-0.000621308,-2.03739,0.351166,0.168012,-60.2627,0.0677162,
2,0,0,1,0,4902.22,0.0660106,0.0657229,-9.07045,4,0.00487887,11,-0.000596136,-2.04237,0.338316,0.174393,-61.5999,0.0657229,
2,0,0,1,0,4902.24,0.0640221,0.0636964,-8.92756,4,0.00469991,11,-0.000568654,-2.04927,0.279045,0.211435,-73.616,0.0636964,
2,0,0,1,0,4902.26,0.0620245,0.0616948,-8.77392,4,0.00452305,11,-0.000541305,-2.05681,0.269471,0.218948,-74.9932,0.0616948,
2,0,0,1,0,4902.28,0.0600269,0.0596889,-8.62702,4,0.00434917,11,-0.000514938,-2.06414,0.27376,0.215517,-72.581,0.0596889,
2,0,0,1,0,4902.3,0.0580361,0.0577327,-8.48635,4,0.00417907,11,-0.000489939,-2.07128,0.254919,0.231446,-76.5402,0.05773266,
2,0,0,1,0,4902.32,0.0560317,0.0557077,-8.3223,4,0.00401099,11,-0.000463616,-2.07976,0.238551,0.247326,-80.3578,0.0557077,
2,0,0,1,0,4902.34,0.0540342,0.0537473,-8.16609,4,0.00384628,11,-0.000438906,-2.08799,0.233252,0.252945,-80.5549,0.0537473,
2,0,0,1,0,4902.36,0.0520366,0.0517102,-8.00028,4,0.00368475,11,-0.000413696,-2.09689,0.221216,0.266708,-83.2145,0.0517102,
2,0,0,1,0,4902.38,0.050039,0.0496557,-7.82561,4,0.00352658,11,-0.000388586,-2.10648,0.218997,0.26941,-82.3991,0.0496557,
2,0,0,1,0,4902.4,0.0480414,0.0477718,-7.67576,4,0.00337243,11,-0.000366685,-2.11488,0.223033,0.264534,-79.1745,0.0477718,
2,0,0,1,0,4902.42,0.0460438,0.0457266,-7.51452,4,0.0032207,11,-0.000343613,-2.1241,0.222006,0.265758,-77.959,0.0457266,
2,0,0,1,0,4902.44,0.0440462,0.0437145,-7.35946,4,0.00307216,11,-0.000321715,-2.13315,0.221394,0.266493,-76.5738,0.0437145,
2,0,0,1,0,4902.46,0.0420486,0.041785,-7.21271,4,0.00292672,11,-0.000301383,-2.1419,0.252969,0.23323,-65.7853,0.041785,
2,0,0,1,0,4902.48,0.040051,0.0397229,-7.09687,4,0.00278448,11,-0.000281908,-2.14893,0.271412,0.217382,-60.1485,0.0397229,
2,0,0,1,0,4902.5,0.0380535,0.0377239,-6.96844,4,0.002644,11,-0.000262877,-2.15686,0.251062,0.235002,-63.9147,0.03772394,
2,0,0,1,0,4902.52,0.0360559,0.0357432,-6.84251,4,0.00250608,11,-0.000244573,-2.16478,0.293046,0.201333,-53.9028,0.0357432,
2,0,0,1,0,4902.54,0.0340583,0.033726,-6.75294,4,0.00237026,11,-0.00022775,-2.17051,0.384645,0.153388,-40.4732,0.033726,
2,0,0,1,0,4902.55,0.0320607,0.0317322,-6.68017,4,0.00223674,11,-0.000211977,-2.17521,0.373556,0.157941,-41.1221,0.0317322,
2,0,0,1,0,4902.57,0.0300631,0.0297758,-6.5905,4,0.00210423,11,-0.000196237,-2.18108,0.391507,0.1507,-38.8377,0.0297758,
2,0,0,1,0,4902.59,0.0280655,0.0278015,-6.52751,4,0.00197318,11,-0.000181475,-2.18525,0.557025,0.10592,-27.0193,0.0278015,
2,0,0,1,0,4902.61,0.0260679,0.0257774,-6.48246,4,0.00184323,11,-0.000167101,-2.18826,0.667963,0.0883282,-22.3444,0.0257774,
2,0,0,1,0,4902.63,0.0240704,0.0237329,-6.4366,4,0.00171485,11,-0.000152759,-2.19134,0.715139,0.0825015,-20.7376,0.0237329,
2,0,0,1,0,4902.65,0.0220728,0.0217587,-6.39912,4,0.00158665,11,-0.000139237,-2.19388,0.833533,0.0707831,-17.6829,0.0217587,
2,0,0,1,0,4902.67,0.0200752,0.0197328,-6.36587,4,0.0014591,11,-0.000125617,-2.19614,0.934621,0.0631272,-15.6882,0.0197328,
2,0,0,1,0,4902.69,0.0180776,0.0177781,-6.33668,4,0.00133213,11,-0.000112654,-2.19814,2.15756,0.0273458,-6.77926,0.0177781,
2,0,0,1,0,4902.71,0.01608,0.0157221,-6.33868,4,0.00120623,11,-9.96575e-05,-2.198,18.8394,0.00313173,-0.774289,0.0157221,
2,0,0,1,0,4902.73,0.0140824,0.0137794,-6.33358,4,0.00107964,11,-8.72728e-05,-2.19835,4.37407,0.0134886,-3.33329,0.0137794,
2,0,0,1,0,4902.75,0.0120848,0.0117437,-6.32542,4,0.000953234,11,-7.42836e-05,-2.19891,2.84555,0.0207341,-5.11675,0.0117437,
2,0,0,1,0,4902.77,0.0100872,0.0097727,-6.31308,4,0.000827042,11,-6.16958e-05,-2.19976,-6.93119,-0.00851224,2.10273,0.0097727,
2,0,0,1,0,4902.79,0.00809193,0.00778332,-6.33375,4,0.000701347,11,-4.92975e-05,-2.19834,-1.66146,-0.035511,8.77372,0.00778332,
2,0,0,1,0,4902.81,0.00609208,0.00573533,-6.3485,4,0.000574631,11,-3.64108e-05,-2.19733,-3.97666,-0.0148366,3.67166,0.00573533,
2,0,0,1,0,4902.83,0.00409449,0.0037663,-6.34849,4,0.000447866,11,-2.39104e-05,-2.19733,-0.691887,-0.085274,21.2694,0.0037663,
2,0,0,1,0,4902.85,0.0020969,0.00172309,-6.43384,4,0.000320647,11,-1.10861e-05,-2.19153,-0.69059,-0.0854342,21.3103,0.00172309,
2,0,0,1,0,4902.87,9.14991e-05,-0.000266326,-6.43443,4,0.00019213,11,1.71366e-06,-2.19149,-10.3067,-0.00572444,1.438,-0.000266326,
2,0,0,1,0,4902.89,-0.00189827,-0.00223198,-6.43953,4,6.41476e-05,11,1.43729e-05,-2.19115,-3.13309,-0.0188312,4.73576,-0.00223198,
2,0,0,1,0,4902.91,-0.00389586,-0.00425648,-6.45333,4,-6.46414e-05,11,2.74685e-05,-2.19022,-1.31414,-0.0448964,11.3229,-0.00425648,
2,0,0,1,0,4902.93,-0.00589345,-0.00624779,-6.485,4,-0.000193906,11,4.05169e-05,-2.18809,-1.22879,-0.0480147,12.1373,-0.00624779,
2,0,0,1,0,4902.95,-0.00789103,-0.00818723,-6.50104,4,-0.000323645,11,5.32255e-05,-2.18702,-0.877732,-0.0672187,17.101,-0.008187226,
2,0,0,1,0,4902.97,-0.00988862,-0.0102091,-6.55274,4,-0.000453538,11,6.68975e-05,-2.18358,-0.669362,-0.0881436,22.522,-0.0102091,
2,0,0,1,0,4902.99,-0.0118862,-0.0122909,-6.59346,4,-0.000584853,11,8.10396e-05,-2.18089,-0.967478,-0.0609833,15.6709,-0.0122909,
2,0,0,1,0,4903.01,-0.0138838,-0.0142638,-6.61628,4,-0.000716874,11,9.43736e-05,-2.17939,-0.878466,-0.0671625,17.3712,-0.0142638,
2,0,0,1,0,4903.03,-0.0158814,-0.0161986,-6.66134,4,-0.000849516,11,0.000107904,-2.17644,-0.610067,-0.0967107,25.1578,-0.0161986,
2,0,0,1,0,4903.05,-0.017879,-0.018189,-6.71503,4,-0.00098255,11,0.00012214,-2.17295,-0.639468,-0.0922642,24.1604,-0.018189,
2,0,0,1,0,4903.07,-0.0198766,-0.0202176,-6.75844,4,-0.00111717,11,0.00013664,-2.17015,-0.793057,-0.0743957,19.6109,-0.0202176,
2,0,0,1,0,4903.09,-0.0218741,-0.0222102,-6.79389,4,-0.0012525,11,0.000150894,-2.16788,-0.699558,-0.084339,22.3926,-0.0222102,
2,0,0,1,0,4903.11,-0.0238717,-0.0242231,-6.84813,4,-0.00138882,11,0.000165883,-2.16443,-0.539882,-0.109283,29.2243,-0.0242231,
2,0,0,1,0,4903.13,-0.0258693,-0.0262095,-6.91077,4,-0.00152562,11,0.000181128,-2.16047,-0.64357,-0.091676,24.6762,-0.0262095,
2,0,0,1,0,4903.15,-0.0278669,-0.0281902,-6.94603,4,-0.00166402,11,0.00019581,-2.15826,-0.669665,-0.0881038,23.9262,-0.0281902,
2,0,0,1,0,4903.17,-0.0298645,-0.0302074,-7.00642,4,-0.00180341,11,0.000211646,-2.1545,-0.618679,-0.0953644,26.0464,-0.0302074,
2,0,0,1,0,4903.19,-0.0318621,-0.0322202,-7.051,4,-0.00194387,11,0.000227185,-2.15175,-0.605413,-0.0974542,26.8526,-0.0322202,
2,0,0,1,0,4903.21,-0.0338597,-0.0342302,-7.11444,4,-0.00208469,11,0.000243529,-2.14786,-0.548985,-0.107471,29.824,-0.0342302,
2,0,0,1,0,4903.23,-0.0358573,-0.0362327,-7.17066,4,-0.00222743,11,0.000259813,-2.14444,-0.568293,-0.10382,29.058,-0.0362327,
2,0,0,1,0,4903.25,-0.0378548,-0.0381813,-7.22925,4,-0.00237141,11,0.000276022,-2.14091,-0.609276,-0.0968363,27.3065,-0.0381813,
2,0,0,1,0,4903.27,-0.0398524,-0.0402552,-7.2805,4,-0.00251647,11,0.000293078,-2.13784,-0.516984,-0.114123,32.4874,-0.0402552,
2,0,0,1,0,4903.29,-0.04185,-0.0421908,-7.35951,4,-0.00266195,11,0.000310503,-2.13315,-0.487169,-0.121108,34.7351,-0.0421908,
2,0,0,1,0,4903.31,-0.0438476,-0.0442162,-7.41809,4,-0.00280963,11,0.000328,-2.12971,-0.62248,-0.0947821,27.4243,-0.0442162,
2,0,0,1,0,4903.33,-0.0458452,-0.0461644,-7.46849,4,-0.00295846,11,0.000344778,-2.12677,-0.564956,-0.104433,30.4805,-0.0461644,
2,0,0,1,0,4903.35,-0.0478428,-0.0481981,-7.53946,4,-0.00310845,11,0.000363387,-2.12266,-0.433905,-0.135975,40.0587,-0.0481981,
2,0,0,1,0,4903.37,-0.0498495,-0.0501862,-7.62959,4,-0.00325993,11,0.0003829,-2.1175,-0.455931,-0.129405,38.4606,-0.0501862,
2,0,0,1,0,4903.39,-0.051838,-0.0521669,-7.6921,4,-0.00341227,11,0.000401273,-2.11395,-0.550897,-0.107098,32.1546,-0.0521669,
2,0,0,1,0,4903.41,-0.0538355,-0.0541424,-7.7568,4,-0.00356654,11,0.000419972,-2.11032,-0.5065,-0.116486,35.2926,-0.0541424,
2,0,0,1,0,4903.43,-0.0558331,-0.0562151,-7.83497,4,-0.00372234,11,0.000440444,-2.10596,-0.463119,-0.127397,38.957,-0.0562151,
2,0,0,1,0,4903.45,-0.0578216,-0.058192,-7.91456,4,-0.00387893,11,0.000460564,-2.10157,-0.441191,-0.133729,41.3213,-0.058192,
2,0,0,1,0,4903.47,-0.0598283,-0.0602209,-8.0005,4,-0.00403799,11,0.000481797,-2.09688,-0.419283,-0.140717,43.9484,-0.0602209,
2,0,0,1,0,4903.49,-0.0618259,-0.062216,-8.09141,4,-0.00419869,11,0.000503415,-2.09198,-0.416385,-0.141696,44.736,-0.062216,
2,0,0,1,0,4903.51,-0.0638235,-0.0642275,-8.17974,4,-0.00436125,11,0.000525364,-2.08726,-0.412668,-0.142972,45.6478,-0.0642275,
2,0,0,1,0,4903.53,-0.0658211,-0.0661545,-8.27119,4,-0.00452557,11,0.000547177,-2.08243,-0.38704,-0.152439,49.2415,-0.06615448,
2,0,0,1,0,4903.55,-0.0678187,-0.068192,-8.37496,4,-0.00469111,11,0.000571105,-2.07702,-0.377395,-0.156335,51.0912,-0.068192,
2,0,0,1,0,4903.57,-0.0698162,-0.0701903,-8.47739,4,-0.0048595,11,0.000595031,-2.07174,-0.39996,-0.147515,48.7722,-0.0701903,
2,0,0,1,0,4903.59,-0.0718138,-0.0721771,-8.56932,4,-0.00502987,11,0.000618508,-2.06705,-0.369931,-0.159489,53.4197,-0.07217706,
2,0,0,1,0,4903.61,-0.0738114,-0.0741364,-8.68819,4,-0.00520232,11,0.000644111,-2.06107,-0.317798,-0.185653,62.9905,-0.0741364,
2,0,0,1,0,4903.63,-0.075809,-0.0761489,-8.8195,4,-0.00537645,11,0.000671595,-2.05456,-0.342779,-0.172122,59.1656,-0.07614886,
2,0,0,1,0,4903.65,-0.0778066,-0.0781986,-8.92853,4,-0.00555386,11,0.000698198,-2.04922,-0.345392,-0.170821,59.5825,-0.0781986,
2,0,0,1,0,4903.67,-0.0798042,-0.0801264,-9.05649,4,-0.00573361,11,0.000725664,-2.04304,-0.319522,-0.184651,65.2721,-0.0801264,
2,0,0,1,0,4903.69,-0.0818018,-0.0821718,-9.18787,4,-0.00591596,11,0.000754984,-2.03679,-0.308392,-0.191315,68.6514,-0.0821718,
2,0,0,1,0,4903.71,-0.0837994,-0.0841726,-9.33427,4,-0.00610015,11,0.00078569,-2.02992,-0.313709,-0.188072,68.4321,-0.0841726,
2,0,0,1,0,4903.73,-0.0857969,-0.0861506,-9.46015,4,-0.00628784,11,0.000814998,-2.0241,-0.326881,-0.180494,66.6786,-0.0861506,
2,0,0,1,0,4903.75,-0.0877945,-0.0881382,-9.59869,4,-0.00647825,11,0.000846012,-2.01779,-0.322916,-0.18271,68.4261,-0.0881382,
2,0,0,1,0,4903.77,-0.0897921,-0.090144,-9.7334,4,-0.00667147,11,0.000877408,-2.01174,-0.327044,-0.180404,68.5401,-0.090144,
2,0,0,1,0,4903.79,-0.0917897,-0.0921336,-9.87254,4,-0.00686631,11,0.000909593,-2.00557,-0.339082,-0.173999,67.0009,-0.0921336,
2,0,0,1,0,4903.81,-0.0937873,-0.0941395,-10.0011,4,-0.00706497,11,0.000941499,-1.99995,-0.353005,-0.167136,65.2507,-0.0941395,
2,0,0,1,0,4903.83,-0.0957849,-0.0961645,-10.1356,4,-0.00726625,11,0.000974681,-1.99415,-0.381989,-0.154455,61.017,-0.0961645,
2,0,0,1,0,4903.85,-0.0977825,-0.0981331,-10.2448,4,-0.00746995,11,0.00100535,-1.9895,-0.376716,-0.156617,62.697,-0.0981331,
2,0,0,1,0,4903.87,-0.0997501,-0.100072,-10.3806,4,-0.00767191,11,0.00103881,-1.98378,0.00589539,10.0078,-3318.56,-0.100072,
2,0,0,1,1,4903.89,-0.0987313,-0.0991231,-6.95962,4,-0.00780626,11,0.000689859,-2.15741,-0.00592316,-9.9609,2414.12,-0.0991231,
2,0,0,1,1,4903.91,-0.0967337,-0.0971566,-3.34167,4,-0.00790594,11,0.000324666,-2.47604,-0.00482249,-12.2343,1478.24,-0.0971566,
2,0,0,1,1,4903.93,-0.0947361,-0.0951069,-1.0228,4,-0.00794775,11,9.72753e-05,-2.99021,-0.0050945,-11.5811,957.789,-0.0951069,
2,1,0,1,1,4903.95,-0.0927386,-0.0931079,0.536105,4,-0.00795144,11,-4.99156e-05,-3.27075,0.0195597,3.01641,661.37,-0.0931079,
2,1,0,1,1,4903.97,-0.090741,-0.0910744,1.64421,4,-0.00792904,11,-0.000149745,-2.78404,0.00619872,9.51809,463.083,-0.0910744,
2,1,0,1,1,4903.99,-0.0887434,-0.0890619,2.40977,4,-0.0078881,11,-0.000214619,-2.61802,0.0153733,3.83783,337.237,-0.0890619,
2,1,0,1,1,4904.01,-0.0867458,-0.0870756,2.99275,4,-0.0078338,11,-0.000260596,-2.52393,0.0255607,2.30823,260.837,-0.0870756,
2,1,0,1,1,4904.03,-0.0847482,-0.0851025,3.44252,4,-0.00776922,11,-0.000292967,-2.46312,0.0381846,1.54513,203.681,-0.0851025,
2,1,0,1,1,4904.05,-0.0827529,-0.08314,3.79435,4,-0.00769716,11,-0.000315462,-2.42086,0.0551816,1.0692,156.43,-0.08314,
2,1,0,1,1,4904.07,-0.080753,-0.081073,4.07287,4,-0.00761832,11,-0.000330199,-2.3901,0.0751194,0.785416,123.866,-0.081073,
2,1,0,1,1,4904.09,-0.0787554,-0.0790731,4.29809,4,-0.00753452,11,-0.000339864,-2.36672,0.096981,0.608366,101.433,-0.0790731,
2,1,0,1,1,4904.11,-0.0767579,-0.0770798,4.4779,4,-0.00744668,11,-0.000345156,-2.34893,0.119703,0.492886,85.9024,-0.0770798,
2,1,0,1,1,4904.13,-0.0747603,-0.0751194,4.63772,4,-0.00735546,11,-0.000348383,-2.3337,0.136217,0.433132,78.2694,-0.0751194,
2,1,0,1,1,4904.15,-0.0727627,-0.0731422,4.7861,4,-0.00726148,11,-0.000350066,-2.32002,0.173165,0.340716,63.3497,-0.0731422,
2,1,0,1,1,4904.17,-0.0707651,-0.0710912,4.89291,4,-0.00716459,11,-0.000347843,-2.31043,0.215361,0.273959,52.2948,-0.0710912,
2,1,0,1,1,4904.19,-0.0687675,-0.0690961,4.99768,4,-0.00706569,11,-0.000345321,-2.30123,0.23766,0.248254,48.3409,-0.0690961,
2,1,0,1,1,4904.21,-0.0667699,-0.06707,5.0873,4,-0.00696478,11,-0.000341205,-2.29351,0.261809,0.225355,44.731,-0.06706997,
2,1,0,1,1,4904.23,-0.0647723,-0.0651233,5.17539,4,-0.00686249,11,-0.000337039,-2.28606,0.300244,0.196507,39.6173,-0.0651233,
2,1,0,1,1,4904.25,-0.0627748,-0.0630832,5.24525,4,-0.0067583,11,-0.000330887,-2.28023,0.345818,0.17061,34.9251,-0.0630832,
2,1,0,1,1,4904.27,-0.0607772,-0.061102,5.31584,4,-0.00665266,11,-0.000324808,-2.27443,0.389056,0.151649,31.4138,-0.061102,
2,1,0,1,1,4904.29,-0.0587796,-0.0590831,5.37091,4,-0.00654577,11,-0.00031733,-2.26995,0.466651,0.126433,26.4902,-0.0590831,
2,1,0,1,1,4904.31,-0.056782,-0.0571055,5.4217,4,-0.00643836,11,-0.000309609,-2.26586,0.513584,0.114879,24.2954,-0.0571055,
2,1,0,1,1,4904.33,-0.0547844,-0.0551109,5.46741,4,-0.00632943,11,-0.000301314,-2.26222,0.612423,0.0963386,20.5377,-0.0551109,
2,1,0,1,1,4904.35,-0.0527868,-0.0531275,5.5034,4,-0.00621968,11,-0.000292382,-2.25937,0.789989,0.0746846,16.0293,-0.0531275,
2,1,0,1,1,4904.37,-0.0507892,-0.0511063,5.5316,4,-0.00610929,11,-0.0002827,-2.25715,0.673461,0.0876072,18.9448,-0.0511063,
2,1,0,1,1,4904.39,-0.0487916,-0.049152,5.57872,4,-0.00599875,11,-0.000274205,-2.25347,0.724768,0.0814054,17.6854,-0.049152,
2,1,0,1,1,4904.41,-0.046794,-0.0471283,5.60196,4,-0.00588689,11,-0.000264011,-2.25166,1.54764,0.0381226,8.32518,-0.0471283,
2,1,0,1,1,4904.43,-0.0447965,-0.0450903,5.61253,4,-0.00577471,11,-0.000253071,-2.25084,1.70883,0.0345266,7.56895,-0.04509031,
2,1,0,1,1,4904.45,-0.0427989,-0.0431039,5.63242,4,-0.00566224,11,-0.000242779,-2.24931,1.03115,0.0572175,12.5883,-0.0431039,
2,1,0,1,1,4904.47,-0.0408013,-0.0411448,5.6622,4,-0.0055499,11,-0.00023297,-2.24701,1.99634,0.0295541,6.51118,-0.0411448,
2,1,0,1,1,4904.49,-0.0388037,-0.0391759,5.65799,4,-0.00543662,11,-0.000221657,-2.24734,5.48059,0.0107653,2.38089,-0.0391759,
2,1,0,1,1,4904.51,-0.0368061,-0.0371344,5.67175,4,-0.00532329,11,-0.000210617,-2.24628,1.94732,0.0302981,6.7062,-0.0371344,
2,1,0,1,1,4904.53,-0.0348085,-0.0351472,5.68501,4,-0.00520968,11,-0.000199812,-2.24527,2.05223,0.0287493,6.37796,-0.0351472,
2,1,0,1,1,4904.55,-0.0328109,-0.0331364,5.69725,4,-0.0050965,11,-0.000188786,-2.24433,10.3585,0.00569583,1.26428,-0.0331364,
2,1,0,1,1,4904.57,-0.0308134,-0.0311709,5.69004,4,-0.0049827,11,-0.000177363,-2.24488,-16.7914,-0.0035137,-0.781041,-0.0311709,
2,1,0,1,1,4904.59,-0.0288158,-0.0291459,5.69413,4,-0.00486887,11,-0.00016596,-2.24457,-12.8658,-0.0045858,-1.01797,-0.0291459,
2,1,0,1,1,4904.61,-0.0268182,-0.02712,5.68591,4,-0.00475514,11,-0.000154202,-2.2452,-5.19092,-0.011366,-2.52358,-0.02712,
2,1,0,1,1,4904.63,-0.0248138,-0.025187,5.68414,4,-0.00464156,11,-0.000143166,-2.24534,-28.4129,-0.00207652,-0.460713,-0.025187,
2,1,0,1,1,4904.65,-0.022823,-0.0231285,5.68407,4,-0.00452836,11,-0.000131464,-2.24534,-9.11403,-0.00647353,-1.43532,-0.0231285,
2,1,0,1,1,4904.67,-0.0208254,-0.0211459,5.67834,4,-0.00441473,11,-0.000120073,-2.24578,-2.0077,-0.0293869,-6.50418,-0.0211459,
2,1,0,1,1,4904.69,-0.0188278,-0.0191732,5.65835,4,-0.00430143,11,-0.000108489,-2.24731,-2.08502,-0.0282971,-6.25715,-0.0191732,
2,1,0,1,1,4904.71,-0.0168393,-0.0171781,5.65351,4,-0.00418884,11,-9.71168e-05,-2.24768,-7.00052,-0.00842794,-1.85989,-0.0171781,
2,1,0,1,1,4904.73,-0.0148327,-0.0151375,5.65084,4,-0.00407561,11,-8.55398e-05,-2.24789,-2.01064,-0.0293438,-6.45944,-0.0151375,
2,1,0,1,1,4904.75,-0.0128351,-0.0131403,5.62743,4,-0.00396273,11,-7.39461e-05,-2.24969,-1.99392,-0.02959,-6.51047,-0.0131403,
2,1,0,1,1,4904.77,-0.0108375,-0.0111131,5.62464,4,-0.00385017,11,-6.25074e-05,-2.24991,-8.39151,-0.00703092,-1.54329,-0.0111131,
2,1,0,1,1,4904.79,-0.00883989,-0.00912632,5.62124,4,-0.0037377,11,-5.13012e-05,-2.25017,-2.49322,-0.0236642,-5.18514,-0.00912632,
2,1,0,1,1,4904.81,-0.0068423,-0.00717311,5.60421,4,-0.00362589,11,-4.01996e-05,-2.25149,-1.82554,-0.0323192,-7.07263,-0.00717311,
2,1,0,1,1,4904.83,-0.00484471,-0.00519716,5.59345,4,-0.00351395,11,-2.907e-05,-2.25232,-2.54884,-0.0231478,-5.05359,-0.00519716,
2,1,0,1,1,4904.85,-0.00284713,-0.00315481,5.58391,4,-0.00340223,11,-1.76162e-05,-2.25306,-1.60556,-0.0367473,-7.99868,-0.00315481,
2,1,0,1,1,4904.87,-0.000849538,-0.00118218,5.56133,4,-0.00329076,11,-6.57449e-06,-2.25482, , , ,-0.00118218,
2,1,0,0,1,4904.88,-2.55332e-05,-0.000382585,5.55359,4,-0.00324578,11,-2.12472e-06,-2.25543, , , ,-0.000382585,