File: Figure_codes/Fig_3-5/rawdata_trumpetplot_data/before 10th/20221101_1-115_002_TrumpetPlot_ParaChange_14_CV_C01.mpt
EC-Lab ASCII FILE
Nb header lines : 68

Cyclic Voltammetry

Run on channel : 1 (SN 65296)
User :
CE vs. WE compliance from -10 V to 10 V
Electrode connection : standard
Potential control : Ewe
Ewe ctrl range : min = -1.00 V, max = 1.00 V
Safety Limits :
	Do not start on E overload
Acquisition started on : 11/08/2022 17:30:03.488
Loaded Setting File :  NONE
Saved on :
	File : 20221101_1-115_002_TrumpetPlot_ParaChange_14_CV_C01.mpr
	Directory : C:\Users\NakamuraT\Documents\EC-Lab\Data\Yatsuzuka\20221108_1-115_001_TrumpetPlot\
	Host : 192.109.209.100
Device : SP-50e (SN .003219)
Address : 192.109.209.128
EC-Lab for windows v11.43 (software)
Internet server v11.40 (firmware)
Command interpretor v11.40 (firmware)
Electrode material : Au/Pd
Initial state :
Electrolyte : NaCl (0.2M)
Comments : Fe(CN)63-/Fe(CN)64- 5.10-3 M
Reference electrode : SCE Saturated Calomel Electrode (0.241 V)
Electrode surface area : 0.001 cm2
Characteristic mass : 0.001 g
Equivalent Weight : 0.000 g/eq.
Density : 0.000 g/cm3
Volume (V) : 0.001 cm3
Cycle Definition : Charge/Discharge alternance
Ei (V)              0.000
vs.                 Ref
dE/dt               600.000
dE/dt unit          mV/s
E1 (V)              0.300
vs.                 Ref
Step percent        50
N                   10
E range min (V)     -1.000
E range max (V)     1.000
I Range             100 mA
I Range min         Unset
I Range max         Unset
I Range init        Unset
Bandwidth           5
E2 (V)              -0.100
vs.                 Ref
nc cycles           0
Reverse Scan        1
Ef (V)              0.000
vs.                 Ref

Number of loops : 8
Loop 0 from point number 0 to 675
Loop 1 from point number 676 to 1351
Loop 2 from point number 1352 to 2027
Loop 3 from point number 2028 to 2703
Loop 4 from point number 2704 to 3379
Loop 5 from point number 3380 to 4055
Loop 6 from point number 4056 to 4731
Loop 7 from point number 4732 to 5407

mode	ox/red	error	control changes	counter inc.	time/s	control/V	Ewe/V	<I>/mA	cycle number	(Q-Qo)/C	I Range	P/W
2	1	0	0	0	1216.29	2.44065e-05	-0.000840681	21.8278	1	0.0000000E+000	10	-1.83502e-05
2	1	0	1	0	1216.31	0.00908291	0.00878145	25.8685	1	0.000364604	10	0.000227163
2	1	0	1	0	1216.32	0.0186824	0.0183453	28.4488	1	0.00080152	10	0.0005219
2	1	0	1	0	1216.34	0.0282792	0.0280098	29.7963	1	0.00126899	10	0.000834589
2	1	0	1	0	1216.36	0.0378898	0.0375927	30.3911	1	0.00175121	10	0.00114248
2	1	0	1	0	1216.37	0.0474865	0.0471692	30.6119	1	0.00223939	10	0.00144394
2	1	0	1	0	1216.39	0.057086	0.0567277	30.7227	1	0.00273005	10	0.00174283
2	1	0	1	0	1216.4	0.0666828	0.0663785	31.0285	1	0.00322383	10	0.00205962
2	1	0	1	0	1216.42	0.0762823	0.0759603	31.6895	1	0.00372506	10	0.00240715
2	1	0	1	0	1216.44	0.0858818	0.0855655	32.8023	1	0.00424045	10	0.00280674
2	1	0	1	0	1216.45	0.0954841	0.0950996	34.3404	1	0.004777	10	0.00326576
2	1	0	1	0	1216.47	0.105086	0.104745	36.5358	1	0.0053438	10	0.00382694
2	1	0	1	0	1216.48	0.114686	0.114376	39.0888	1	0.00594862	10	0.0044708
2	1	0	1	0	1216.5	0.124285	0.123988	42.0884	1	0.00659778	10	0.00521846
2	1	0	1	0	1216.52	0.133882	0.133552	45.5831	1	0.00729871	10	0.00608772
2	1	0	1	0	1216.53	0.143482	0.143179	49.7063	1	0.00806044	10	0.00711692
2	1	0	1	0	1216.55	0.153084	0.152763	54.5513	1	0.00889426	10	0.00833345
2	1	0	1	0	1216.56	0.162689	0.162311	60.0764	1	0.00981127	10	0.00975108
2	1	0	1	0	1216.58	0.172286	0.171982	65.8627	1	0.0108192	10	0.0113272
2	1	0	1	0	1216.6	0.181885	0.181518	71.3546	1	0.011918	10	0.0129522
2	1	0	1	0	1216.61	0.191482	0.191168	75.7341	1	0.0130974	10	0.014478
2	1	0	1	0	1216.63	0.201081	0.200755	77.7546	1	0.01433	10	0.0156097
2	1	0	1	0	1216.64	0.210681	0.210417	75.6229	1	0.0155636	10	0.0159123
2	1	0	1	0	1216.66	0.220289	0.220026	68.0849	1	0.0167198	10	0.0149804
2	1	0	1	0	1216.68	0.229886	0.229651	55.9379	1	0.0177148	10	0.0128462
2	1	0	1	0	1216.69	0.239485	0.239237	42.5953	1	0.0185005	10	0.0101904
2	1	0	1	0	1216.71	0.249085	0.248799	31.6819	1	0.0190885	10	0.00788243
2	1	0	1	0	1216.72	0.258681	0.25844	25.0063	1	0.0195359	10	0.00646264
2	1	0	1	0	1216.74	0.268281	0.267985	21.8639	1	0.0199072	10	0.00585919
2	1	0	1	0	1216.76	0.277889	0.277631	20.7344	1	0.0202462	10	0.00575649
2	1	0	1	0	1216.77	0.287488	0.287202	20.3633	1	0.0205742	10	0.00584839
2	1	0	1	0	1216.79	0.297085	0.296824	20.2511	1	0.0208989	10	0.00601101
2	1	0	1	0	1216.8	0.296846	0.296734	9.98722	1	0.0210755	10	0.00296355
2	0	0	1	0	1216.81	0.287247	0.286981	-5.93651	1	0.0210835	10	-0.00170367
2	0	0	1	0	1216.83	0.27765	0.27743	-11.4097	1	0.0209369	10	-0.00316539
2	0	0	1	0	1216.85	0.268039	0.267738	-13.579	1	0.0207346	10	-0.0036356
2	0	0	1	0	1216.86	0.258443	0.258156	-14.6457	1	0.0205082	10	-0.00378088
2	0	0	1	0	1216.88	0.248843	0.248556	-15.4159	1	0.0202673	10	-0.00383171
2	0	0	1	0	1216.89	0.239247	0.238934	-16.1315	1	0.0200148	10	-0.00385437
2	0	0	1	0	1216.91	0.229647	0.229339	-16.901	1	0.0197504	10	-0.00387606
2	0	0	1	0	1216.93	0.220047	0.219764	-17.7502	1	0.0194734	10	-0.00390086
2	0	0	1	0	1216.94	0.21044	0.210156	-18.7862	1	0.0191813	10	-0.00394803
2	0	0	1	0	1216.96	0.200843	0.200546	-20.0235	1	0.0188711	10	-0.00401564
2	0	0	1	0	1216.97	0.191243	0.19095	-21.6382	1	0.0185381	10	-0.0041318
2	0	0	1	0	1216.99	0.181644	0.181354	-23.7142	1	0.018176	10	-0.00430066
2	0	0	1	0	1217.01	0.172047	0.171744	-26.4321	1	0.0177756	10	-0.00453955
2	0	0	1	0	1217.02	0.162448	0.162177	-29.9665	1	0.0173251	10	-0.00485987
2	0	0	1	0	1217.04	0.152845	0.152616	-34.4999	1	0.0168105	10	-0.00526524
2	0	0	1	0	1217.05	0.14324	0.14301	-40.0534	1	0.0162147	10	-0.00572803
2	0	0	1	0	1217.07	0.133644	0.133497	-46.325	1	0.0155235	10	-0.00618424
2	0	0	1	0	1217.09	0.124044	0.123878	-53.2238	1	0.0147265	10	-0.00659326
2	0	0	1	0	1217.1	0.114447	0.114272	-59.9264	1	0.0138204	10	-0.0068479
2	0	0	1	0	1217.12	0.104848	0.10461	-66.1655	1	0.0128096	10	-0.0069216
2	0	0	1	0	1217.13	0.0952427	0.0950158	-71.1353	1	0.0117085	10	-0.00675898
2	0	0	1	0	1217.15	0.0856404	0.085329	-74.1607	1	0.0105429	10	-0.00632806
2	0	0	1	0	1217.17	0.0760437	0.0757641	-74.4247	1	0.00935035	10	-0.00563872
2	0	0	1	0	1217.18	0.0664442	0.0661356	-71.5463	1	0.00817897	10	-0.00473176
2	0	0	1	0	1217.2	0.0568446	0.0565305	-66.103	1	0.00707557	10	-0.00373683
2	0	0	1	0	1217.21	0.0472479	0.0468893	-59.4951	1	0.00607082	10	-0.00278968
2	0	0	1	0	1217.23	0.0376456	0.0373096	-53.1145	1	0.00517139	10	-0.00198168
2	0	0	1	0	1217.25	0.0280406	0.0277352	-47.4524	1	0.00436867	10	-0.0013161
2	0	0	1	0	1217.26	0.018441	0.0181629	-42.5243	1	0.00365062	10	-0.000772363
2	0	0	1	0	1217.28	0.00884431	0.00860966	-38.5367	1	0.00300393	10	-0.000331788
2	0	0	1	0	1217.29	-0.000755207	-0.00109306	-35.926	1	0.0024104	10	3.92692e-05
2	0	0	1	0	1217.31	-0.010352	-0.0106717	-34.5074	1	0.0018487	10	0.000368253
2	0	0	1	0	1217.33	-0.0199515	-0.0202917	-34.0882	1	0.00130105	10	0.000691709
2	0	0	1	0	1217.34	-0.0295593	-0.0299032	-34.3118	1	0.000754582	10	0.00102604
2	0	0	1	0	1217.36	-0.0391588	-0.0394607	-34.9184	1	0.000201211	10	0.0013779
2	0	0	1	0	1217.37	-0.0487556	-0.0490553	-35.727	1	-0.000363856	10	0.0017526
2	0	0	1	0	1217.39	-0.0583551	-0.0586509	-36.6991	1	-0.000943242	10	0.00215244
2	0	0	1	0	1217.41	-0.0679546	-0.0683048	-37.7205	1	-0.0015386	10	0.00257649
2	0	0	1	0	1217.42	-0.0775514	-0.0778739	-38.8284	1	-0.00215106	10	0.00302372
2	0	0	1	0	1217.44	-0.0871592	-0.0875014	-40.0027	1	-0.00278174	10	0.00350029
2	0	0	1	0	1217.45	-0.0967587	-0.0970959	-41.2983	1	-0.00343224	10	0.0040099
2	0	0	1	1	1217.46	-0.0979573	-0.0984554	-34.4808	1	-0.00379285	10	0.00339482
2	0	0	1	1	1217.48	-0.0883577	-0.0888184	-9.01886	1	-0.0041219	10	0.000801041
2	1	0	1	1	1217.5	-0.0787554	-0.0792154	7.09868	1	-0.00412682	10	-0.000562325
2	1	0	1	1	1217.51	-0.0691532	-0.0696993	17.6713	1	-0.00392244	10	-0.00123167
2	1	0	1	1	1217.53	-0.0595536	-0.0599276	24.7976	1	-0.00357801	10	-0.00148606
2	1	0	1	1	1217.54	-0.0499541	-0.0503468	29.2786	1	-0.00314216	10	-0.00147409
2	1	0	1	1	1217.56	-0.0403574	-0.0407512	32.0633	1	-0.00264926	10	-0.00130662
2	1	0	1	1	1217.58	-0.0307579	-0.0311323	33.6363	1	-0.00212221	10	-0.00104718
2	1	0	1	1	1217.59	-0.0211611	-0.0215165	34.4024	1	-0.00157689	10	-0.000740219
2	1	0	1	1	1217.61	-0.0115505	-0.0119198	34.5898	1	-0.00102421	10	-0.000412304
2	1	0	1	1	1217.62	-0.00195376	-0.00233798	34.4043	1	-0.000471796	10	-8.04365e-05
2	1	0	1	0	2447.93	0.00428592	0.00398523	23.9596	2	0.00016395	10	9.54847e-05
2	1	0	1	0	2447.94	0.0138882	0.013566	27.4427	2	0.000577506	10	0.000372288
2	1	0	1	0	2447.96	0.023485	0.0232019	29.4544	2	0.0010347	10	0.000683397
2	1	0	1	0	2447.98	0.0330845	0.0327594	30.4164	2	0.00151473	10	0.000996423
2	1	0	1	0	2447.99	0.042684	0.0423582	30.8727	2	0.0020054	10	0.00130771
2	1	0	1	0	2448.01	0.0522807	0.0519633	31.1357	2	0.00250149	10	0.00161792
2	1	0	1	0	2448.02	0.061883	0.06156	31.5524	2	0.00300291	10	0.00194236
2	1	0	1	0	2448.04	0.0714881	0.0711418	32.3466	2	0.00351367	10	0.0023012
2	1	0	1	0	2448.06	0.0810876	0.0807417	33.5843	2	0.00404065	10	0.00271165
2	1	0	1	0	2448.07	0.0906843	0.0902938	35.2656	2	0.00459065	10	0.00318426
2	1	0	1	0	2448.09	0.100284	0.0999626	37.5761	2	0.00517309	10	0.0037562
2	1	0	1	0	2448.1	0.109881	0.109531	40.1712	2	0.00579488	10	0.00439998
2	1	0	1	0	2448.12	0.11948	0.119162	43.1433	2	0.00646143	10	0.00514106
2	1	0	1	0	2448.14	0.129088	0.128739	46.4859	2	0.0071783	10	0.00598455
2	1	0	1	0	2448.15	0.138687	0.138362	50.3355	2	0.00795231	10	0.00696452
2	1	0	1	0	2448.17	0.148284	0.147945	54.795	2	0.0087927	10	0.00810665
2	1	0	1	0	2448.18	0.157884	0.157583	59.9027	2	0.00971011	10	0.00943964
2	1	0	1	0	2448.2	0.167483	0.167104	65.401	2	0.0107131	10	0.0109288
2	1	0	1	0	2448.22	0.17708	0.17674	70.7886	2	0.011804	10	0.0125112
2	1	0	1	0	2448.23	0.186688	0.186394	75.2667	2	0.0129746	10	0.0140293
2	1	0	1	0	2448.25	0.196287	0.195967	77.5561	2	0.0142012	10	0.0151984
2	1	0	1	0	2448.26	0.205887	0.205574	75.7774	2	0.0154342	10	0.0155778
2	1	0	1	0	2448.28	0.215484	0.215213	68.5499	2	0.0165958	10	0.0147528
2	1	0	1	0	2448.3	0.225083	0.224863	56.5304	2	0.0175997	10	0.0127116
2	1	0	1	0	2448.31	0.23468	0.234443	43.0195	2	0.018394	10	0.0100856
2	1	0	1	0	2448.33	0.244285	0.24404	31.738	2	0.0189862	10	0.00774535
2	1	0	1	0	2448.34	0.253887	0.253622	24.7063	2	0.0194313	10	0.00626605
2	1	0	1	0	2448.36	0.263487	0.263197	21.4387	2	0.0197963	10	0.00564261
2	1	0	1	0	2448.38	0.273083	0.272774	20.3335	2	0.0201285	10	0.00554645
2	1	0	1	0	2448.39	0.282683	0.282373	20.0821	2	0.0204511	10	0.00567063
2	1	0	1	0	2448.41	0.292282	0.291995	20.0778	2	0.0207723	10	0.0058626
2	1	0	1	0	2448.42	0.300012	0.299689	20.0628	2	0.0210314	10	0.00601261
2	1	0	1	0	2448.43	0.292041	0.291881	-0.867155	2	0.0211363	10	-0.000253106
2	0	0	1	0	2448.45	0.282444	0.282157	-10.0248	2	0.0210351	10	-0.00282857
2	0	0	1	0	2448.47	0.272845	0.272553	-13.1747	2	0.0208451	10	-0.00359081
2	0	0	1	0	2448.48	0.263245	0.262997	-14.5016	2	0.0206224	10	-0.00381386
2	0	0	1	0	2448.5	0.253649	0.253303	-15.2607	2	0.0203839	10	-0.00386557
2	0	0	1	0	2448.51	0.244041	0.243773	-15.9199	2	0.0201343	10	-0.00388084
2	0	0	1	0	2448.53	0.234441	0.234138	-16.5755	2	0.0198743	10	-0.00388096
2	0	0	1	0	2448.55	0.224842	0.224574	-17.319	2	0.0196032	10	-0.00388941
2	0	0	1	0	2448.56	0.215245	0.214975	-18.1922	2	0.0193193	10	-0.00391087
2	0	0	1	0	2448.58	0.205645	0.205377	-19.2681	2	0.0190201	10	-0.00395721
2	0	0	1	0	2448.59	0.196049	0.195765	-20.5661	2	0.0187016	10	-0.00402613
2	0	0	1	0	2448.61	0.186444	0.186168	-22.3317	2	0.0183587	10	-0.00415746
2	0	0	1	0	2448.63	0.176841	0.176535	-24.6353	2	0.0179835	10	-0.00434898
2	0	0	1	0	2448.64	0.167242	0.166948	-27.7189	2	0.0175657	10	-0.00462763
2	0	0	1	0	2448.66	0.157645	0.157411	-31.6961	2	0.0170914	10	-0.00498932
2	0	0	1	0	2448.67	0.148046	0.147787	-36.8144	2	0.0165444	10	-0.00544069
2	0	0	1	0	2448.69	0.138446	0.138239	-42.964	2	0.0159065	10	-0.00593929
2	0	0	1	0	2448.71	0.128849	0.128629	-49.7315	2	0.0151654	10	-0.0063969
2	0	0	1	0	2448.72	0.119241	0.119065	-56.6847	2	0.0143132	10	-0.00674915
2	0	0	1	0	2448.74	0.109642	0.109447	-63.2865	2	0.0133525	10	-0.00692651
2	0	0	1	0	2448.75	0.100042	0.0997484	-68.916	2	0.0122924	10	-0.00687426
2	0	0	1	0	2448.77	0.0904457	0.0902122	-72.8712	2	0.011155	10	-0.00657387
2	0	0	1	0	2448.79	0.0808462	0.0805455	-74.4913	2	0.00997224	10	-0.00599994
2	0	0	1	0	2448.8	0.0712495	0.070951	-73.2534	2	0.00878643	10	-0.0051974
2	0	0	1	0	2448.82	0.0616389	0.0613331	-69.2971	2	0.00764344	10	-0.00425021
2	0	0	1	0	2448.83	0.0520421	0.0517322	-63.6828	2	0.00657903	10	-0.00329445
2	0	0	1	0	2448.85	0.0424426	0.0421567	-57.7521	2	0.00560832	10	-0.00243464
2	0	0	1	0	2448.87	0.0328459	0.0325123	-52.1971	2	0.00472974	10	-0.00169705
2	0	0	1	0	2448.88	0.0232463	0.0229358	-46.9588	2	0.00393752	10	-0.00107703
2	0	0	1	0	2448.9	0.0136468	0.0133157	-42.1338	2	0.00322606	10	-0.000561043
2	0	0	1	0	2448.91	0.00404455	0.00376679	-38.2006	2	0.00258528	10	-0.000143893
2	0	0	1	0	2448.93	-0.00555774	-0.00591049	-35.7593	2	0.00199516	10	0.000211355
2	0	0	1	0	2448.95	-0.0151573	-0.0155114	-34.5567	2	0.00143435	10	0.000536024
2	0	0	1	0	2448.96	-0.0247568	-0.0251304	-34.3125	2	0.000884575	10	0.000862286
2	0	0	1	0	2448.98	-0.0343535	-0.034674	-34.6356	2	0.000333667	10	0.00120096
2	0	0	1	0	2448.99	-0.043953	-0.0442357	-35.3187	2	-0.000225919	10	0.00156235
2	0	0	1	0	2449.01	-0.0535498	-0.0538472	-36.2084	2	-0.000798337	10	0.00194972
2	0	0	1	0	2449.03	-0.0631604	-0.0635118	-37.2512	2	-0.00138599	10	0.00236589
2	0	0	1	0	2449.04	-0.0727571	-0.0730777	-38.3124	2	-0.00199029	10	0.00279979
2	0	0	1	0	2449.06	-0.0823567	-0.0826882	-39.4622	2	-0.00261238	10	0.00326306
2	0	0	1	0	2449.07	-0.0919534	-0.0922456	-40.6747	2	-0.0032536	10	0.00375207
2	0	0	0	0	2449.09	-0.0999548	-0.100381	-41.8167	2	-0.00380224	10	0.00419761
2	0	0	1	1	2449.1	-0.0931519	-0.0936114	-19.3893	2	-0.00415246	10	0.00181506
2	1	0	1	1	2449.12	-0.0835552	-0.0839851	1.09507	2	-0.00428416	10	-9.19698e-05
2	1	0	1	1	2449.13	-0.0739557	-0.0744722	14.1611	2	-0.00415315	10	-0.00105461
2	1	0	1	1	2449.15	-0.0643589	-0.0648023	22.8647	2	-0.00385111	10	-0.00148168
2	1	0	1	1	2449.16	-0.0547594	-0.0551166	28.4051	2	-0.00343655	10	-0.00156559
2	1	0	1	1	2449.18	-0.0451544	-0.0455283	31.8192	2	-0.002952	10	-0.00144867
2	1	0	1	1	2449.2	-0.0355521	-0.0359126	33.8168	2	-0.00242531	10	-0.00121445
2	1	0	1	1	2449.21	-0.0259553	-0.0263095	34.7834	2	-0.00187542	10	-0.000915135
2	1	0	1	1	2449.23	-0.0163558	-0.0167065	35.1178	2	-0.00131551	10	-0.000586695
2	1	0	1	1	2449.24	-0.00675629	-0.00710238	34.9659	2	-0.000754304	10	-0.000248341
2	1	0	1	0	3679.55	2.44065e-05	-0.000649808	23.0611	3	0.0000000E+000	10	-1.49853e-05
2	1	0	1	0	3679.56	0.00908291	0.00874433	25.072	3	0.000360655	10	0.000219238
2	1	0	1	0	3679.58	0.0186824	0.0183516	27.2308	3	0.000780731	10	0.000499728
2	1	0	1	0	3679.6	0.0282792	0.0279844	28.5307	3	0.00122802	10	0.000798412
2	1	0	1	0	3679.61	0.0378898	0.0375651	29.2915	3	0.00169123	10	0.00110034
2	1	0	1	0	3679.63	0.0474865	0.0471406	29.7982	3	0.00216403	10	0.00140471
2	1	0	1	0	3679.64	0.057086	0.0567723	30.2974	3	0.00264473	10	0.00172005
2	1	0	1	0	3679.66	0.0666828	0.0663679	31.0247	3	0.00313502	10	0.00205904
2	1	0	1	0	3679.68	0.0762823	0.0759147	32.113	3	0.00363975	10	0.00243785
2	1	0	1	0	3679.69	0.0858818	0.0855697	33.6521	3	0.0041656	10	0.0028796
2	1	0	1	0	3679.71	0.0954841	0.0950784	35.5217	3	0.0047186	10	0.00337735
2	1	0	1	0	3679.72	0.105086	0.104792	37.8909	3	0.00530584	10	0.00397065
2	1	0	1	0	3679.74	0.114686	0.114323	40.4146	3	0.0059324	10	0.00462031
2	1	0	1	0	3679.76	0.124285	0.123931	43.1868	3	0.0066013	10	0.00535219
2	1	0	1	0	3679.77	0.133882	0.133557	46.2218	3	0.00731639	10	0.00617326
2	1	0	1	0	3679.79	0.143482	0.143184	49.6842	3	0.00808322	10	0.00711396
2	1	0	1	0	3679.8	0.153084	0.152754	53.6567	3	0.00890972	10	0.00819627
2	1	0	1	0	3679.82	0.162689	0.162361	58.1324	3	0.00980412	10	0.00943844
2	1	0	1	0	3679.84	0.172286	0.17191	62.8078	3	0.0107721	10	0.0107973
2	1	0	1	0	3679.85	0.181885	0.181577	67.2993	3	0.0118138	10	0.01222
2	1	0	1	0	3679.87	0.191482	0.191143	70.9505	3	0.0129217	10	0.0135617
2	1	0	1	0	3679.88	0.201081	0.200722	72.6664	3	0.0140746	10	0.0145858
2	1	0	1	0	3679.9	0.210681	0.210402	70.7168	3	0.0152277	10	0.014879
2	1	0	1	0	3679.92	0.220289	0.220036	63.9421	3	0.0163107	10	0.0140695
2	1	0	1	0	3679.93	0.229886	0.229648	53.2412	3	0.0172504	10	0.0122268
2	1	0	1	0	3679.95	0.239485	0.239248	41.7789	3	0.0180079	10	0.00999552
2	1	0	1	0	3679.96	0.249085	0.248775	32.6184	3	0.0185978	10	0.00811464
2	1	0	1	0	3679.98	0.258681	0.258367	26.941	3	0.0190695	10	0.00696067
2	1	0	1	0	3680	0.268281	0.267987	23.9613	3	0.0194739	10	0.00642133
2	1	0	1	0	3680.01	0.277889	0.277593	22.5353	3	0.0198443	10	0.00625566
2	1	0	1	0	3680.03	0.287488	0.287174	21.7866	3	0.020198	10	0.00625654
2	1	0	1	0	3680.04	0.297085	0.296816	21.3262	3	0.0205426	10	0.00632997
2	1	0	1	0	3680.06	0.296846	0.296739	11.8491	3	0.020732	10	0.00351609
2	0	0	1	0	3680.07	0.287247	0.286979	-3.29181	3	0.0207793	10	-0.000944682
2	0	0	1	0	3680.09	0.27765	0.277381	-9.14483	3	0.0206724	10	-0.0025366
2	0	0	1	0	3680.1	0.268039	0.267715	-11.7803	3	0.0205023	10	-0.00315375
2	0	0	1	0	3680.12	0.258443	0.258146	-13.1847	3	0.0203016	10	-0.00340356
2	0	0	1	0	3680.14	0.248843	0.248592	-14.152	3	0.0200825	10	-0.00351808
2	0	0	1	0	3680.15	0.239247	0.238974	-14.9619	3	0.0198493	10	-0.00357551
2	0	0	1	0	3680.17	0.229647	0.229346	-15.74	3	0.0196035	10	-0.00360991
2	0	0	1	0	3680.18	0.220047	0.219763	-16.5493	3	0.0193452	10	-0.00363693
2	0	0	1	0	3680.2	0.21044	0.210166	-17.463	3	0.0190733	10	-0.00367013
2	0	0	1	0	3680.22	0.200843	0.200556	-18.5071	3	0.0187858	10	-0.0037117
2	0	0	1	0	3680.23	0.191243	0.190921	-19.8057	3	0.0184795	10	-0.00378132
2	0	0	1	0	3680.25	0.181644	0.181408	-21.4491	3	0.0181498	10	-0.00389105
2	0	0	1	0	3680.26	0.172047	0.171765	-23.653	3	0.0177895	10	-0.00406275
2	0	0	1	0	3680.28	0.162448	0.162175	-26.5267	3	0.0173889	10	-0.00430195
2	0	0	1	0	3680.3	0.152845	0.152571	-30.2893	3	0.0169352	10	-0.00462128
2	0	0	1	0	3680.31	0.14324	0.143007	-35.0296	3	0.0164137	10	-0.00500947
2	0	0	1	0	3680.33	0.133644	0.133411	-40.6266	3	0.0158088	10	-0.00542003
2	0	0	1	0	3680.34	0.124044	0.123896	-46.5915	3	0.0151105	10	-0.0057725
2	0	0	1	0	3680.36	0.114447	0.114226	-52.773	3	0.0143144	10	-0.00602806
2	0	0	1	0	3680.38	0.104848	0.104661	-58.4214	3	0.0134237	10	-0.00611446
2	0	0	1	0	3680.39	0.0952427	0.0950105	-63.3968	3	0.0124471	10	-0.00602336
2	0	0	1	0	3680.41	0.0856404	0.085364	-66.9784	3	0.0114017	10	-0.00571754
2	0	0	1	0	3680.42	0.0760437	0.0757461	-68.7136	3	0.0103134	10	-0.00520479
2	0	0	1	0	3680.44	0.0664442	0.0661579	-68.2013	3	0.00921521	10	-0.00451205
2	0	0	1	0	3680.46	0.0568446	0.0565082	-65.6246	3	0.00814252	10	-0.00370833
2	0	0	1	0	3680.47	0.0472479	0.0469497	-61.8283	3	0.00712233	10	-0.00290282
2	0	0	1	0	3680.49	0.0376456	0.0373541	-57.7553	3	0.00616595	10	-0.0021574
2	0	0	1	0	3680.5	0.0280406	0.0277256	-53.6523	3	0.00527507	10	-0.00148754
2	0	0	1	0	3680.52	0.018441	0.0181289	-49.3248	3	0.00445153	10	-0.000894205
2	0	0	1	0	3680.54	0.00884431	0.00855452	-44.8596	3	0.00369867	10	-0.000383753
2	0	0	1	0	3680.55	-0.000755207	-0.0011429	-40.9097	3	0.00301415	10	4.67556e-05
2	0	0	1	0	3680.57	-0.010352	-0.010712	-37.9707	3	0.00238495	10	0.000406743
2	0	0	1	0	3680.58	-0.0199515	-0.0203066	-36.2834	3	0.00179251	10	0.000736791
2	0	0	1	0	3680.6	-0.0295593	-0.0299107	-35.5397	3	0.00121929	10	0.00106302
2	0	0	1	0	3680.62	-0.0391588	-0.0394798	-35.4085	3	0.000652592	10	0.00139792
2	0	0	1	0	3680.63	-0.0487556	-0.0491146	-35.7065	3	8.39933e-05	10	0.00175371
2	0	0	1	0	3680.65	-0.0583551	-0.0586816	-36.2789	3	-0.000491783	10	0.00212891
2	0	0	1	0	3680.66	-0.0679546	-0.0683006	-37.0288	3	-0.00107815	10	0.00252909
2	0	0	1	0	3680.68	-0.0775514	-0.0779015	-37.8918	3	-0.0016774	10	0.00295183
2	0	0	1	0	3680.7	-0.0871592	-0.0874855	-38.8699	3	-0.00229134	10	0.00340055
2	0	0	1	0	3680.71	-0.0967587	-0.0971087	-39.9586	3	-0.00292187	10	0.00388033
2	0	0	1	1	3680.72	-0.0979573	-0.0984798	-33.7465	3	-0.00327118	10	0.00332335
2	0	0	1	1	3680.74	-0.0883577	-0.0888237	-10.9577	3	-0.00361222	10	0.000973303
2	1	0	1	1	3680.75	-0.0787554	-0.0792175	3.81475	3	-0.00366008	10	-0.000302195
2	1	0	1	1	3680.77	-0.0691532	-0.0696855	13.7907	3	-0.00351336	10	-0.000961011
2	1	0	1	1	3680.78	-0.0595536	-0.0599753	20.7776	3	-0.00323261	10	-0.00124615
2	1	0	1	1	3680.8	-0.0499541	-0.0503903	25.4813	3	-0.00285941	10	-0.00128401
2	1	0	1	1	3680.82	-0.0403574	-0.0407342	28.5677	3	-0.00242492	10	-0.00116368
2	1	0	1	1	3680.83	-0.0307579	-0.031128	30.538	3	-0.00195065	10	-0.000950587
2	1	0	1	1	3680.85	-0.0211611	-0.0215324	31.69	3	-0.00145186	10	-0.000682362
2	1	0	1	1	3680.86	-0.0115505	-0.0119325	32.2604	3	-0.000939552	10	-0.000384948
2	1	0	1	1	3680.88	-0.00195376	-0.00232737	32.4132	3	-0.000421664	10	-7.54377e-05
2	1	0	1	0	4911.19	0.00428592	0.00393327	23.4177	4	0.000164151	10	9.21081e-05
2	1	0	1	0	4911.2	0.0138882	0.0136254	25.8326	4	0.000558817	10	0.00035198
2	1	0	1	0	4911.22	0.023485	0.0231796	27.5119	4	0.000986618	10	0.000637716
2	1	0	1	0	4911.23	0.0330845	0.0327477	28.525	4	0.00143561	10	0.000934127
2	1	0	1	0	4911.25	0.042684	0.0423624	29.2174	4	0.00189803	10	0.00123772
2	1	0	1	0	4911.27	0.0522807	0.0519432	29.8405	4	0.00237068	10	0.00155001
2	1	0	1	0	4911.28	0.061883	0.061595	30.6404	4	0.00285433	10	0.00188729
2	1	0	1	0	4911.3	0.0714881	0.0710962	31.7103	4	0.00335261	10	0.00225448
2	1	0	1	0	4911.31	0.0810876	0.0807565	33.1874	4	0.00387126	10	0.0026801
2	1	0	1	0	4911.33	0.0906843	0.0903405	34.9971	4	0.00441652	10	0.00316166
2	1	0	1	0	4911.35	0.100284	0.0999393	37.1882	4	0.00499345	10	0.00371656
2	1	0	1	0	4911.36	0.109881	0.109527	39.6513	4	0.00560834	10	0.00434291
2	1	0	1	0	4911.38	0.11948	0.119105	42.2659	4	0.00626368	10	0.00503409
2	1	0	1	0	4911.39	0.129088	0.128713	45.0571	4	0.00696218	10	0.00579945
2	1	0	1	0	4911.41	0.138687	0.13833	48.1684	4	0.00770781	10	0.00666314
2	1	0	1	0	4911.43	0.148284	0.147948	51.7038	4	0.00850655	10	0.00764949
2	1	0	1	0	4911.44	0.157884	0.157542	55.6941	4	0.00936548	10	0.00877414
2	1	0	1	0	4911.46	0.167483	0.167198	59.895	4	0.0102904	10	0.0100143
2	1	0	1	0	4911.47	0.17708	0.176737	64.0241	4	0.0112827	10	0.0113154
2	1	0	1	0	4911.49	0.186688	0.186382	67.5963	4	0.0123373	10	0.0125987
2	1	0	1	0	4911.51	0.196287	0.195981	69.685	4	0.0134385	10	0.013657
2	1	0	1	0	4911.52	0.205887	0.205597	68.8866	4	0.0145517	10	0.0141629
2	1	0	1	0	4911.54	0.215484	0.215213	63.9268	4	0.0156196	10	0.0137579
2	1	0	1	0	4911.55	0.225083	0.224827	55.0899	4	0.0165749	10	0.0123857
2	1	0	1	0	4911.57	0.23468	0.23443	44.7023	4	0.0173725	10	0.0104796
2	1	0	1	0	4911.59	0.244285	0.244025	35.5886	4	0.0180107	10	0.00868452
2	1	0	1	0	4911.6	0.253887	0.253625	29.3617	4	0.0185255	10	0.00744687
2	1	0	1	0	4911.62	0.263487	0.263153	25.8171	4	0.0189635	10	0.00679384
2	1	0	1	0	4911.63	0.273083	0.272796	23.9819	4	0.0193601	10	0.00654216
2	1	0	1	0	4911.65	0.282683	0.28237	22.9954	4	0.0197351	10	0.0064932
2	1	0	1	0	4911.67	0.292282	0.291975	22.4059	4	0.020098	10	0.00654195
2	1	0	1	0	4911.68	0.300012	0.299689	22.046	4	0.0203846	10	0.00660694
2	1	0	1	0	4911.69	0.292041	0.291815	3.7045	4	0.0205375	10	0.00108103
2	0	0	1	0	4911.71	0.282444	0.282188	-5.59323	4	0.0205107	10	-0.00157834
2	0	0	1	0	4911.72	0.272845	0.272577	-9.56637	4	0.0203852	10	-0.00260757
2	0	0	1	0	4911.74	0.263245	0.262999	-11.5849	4	0.0202142	10	-0.00304682
2	0	0	1	0	4911.76	0.253649	0.25333	-12.8432	4	0.020018	10	-0.00325358
2	0	0	1	0	4911.77	0.244041	0.243752	-13.8261	4	0.0198044	10	-0.00337014
2	0	0	1	0	4911.79	0.234441	0.234145	-14.6613	4	0.0195766	10	-0.00343289
2	0	0	1	0	4911.8	0.224842	0.224578	-15.4812	4	0.0193354	10	-0.00347675
2	0	0	1	0	4911.82	0.215245	0.214945	-16.3235	4	0.0190809	10	-0.00350864
2	0	0	1	0	4911.84	0.205645	0.20532	-17.2869	4	0.0188121	10	-0.00354935
2	0	0	1	0	4911.85	0.196049	0.195774	-18.375	4	0.0185269	10	-0.00359734
2	0	0	1	0	4911.87	0.186444	0.186211	-19.7521	4	0.0182222	10	-0.00367805
2	0	0	1	0	4911.88	0.176841	0.176547	-21.4843	4	0.0178928	10	-0.00379299
2	0	0	1	0	4911.9	0.167242	0.166944	-23.7746	4	0.0175314	10	-0.00396903
2	0	0	1	0	4911.92	0.157645	0.157374	-26.7886	4	0.0171276	10	-0.00421584
2	0	0	1	0	4911.93	0.148046	0.147801	-30.7172	4	0.0166684	10	-0.00454003
2	0	0	1	0	4911.95	0.138446	0.138219	-35.5963	4	0.0161387	10	-0.00492008
2	0	0	1	0	4911.96	0.128849	0.128632	-41.1981	4	0.0155245	10	-0.00529939
2	0	0	1	0	4911.98	0.119241	0.119089	-47.0445	4	0.0148184	10	-0.00560249
2	0	0	1	0	4912	0.109642	0.109427	-52.8176	4	0.0140183	10	-0.00577966
2	0	0	1	0	4912.01	0.100042	0.099828	-58.0015	4	0.0131306	10	-0.00579017
2	0	0	1	0	4912.03	0.0904457	0.0901772	-62.3363	4	0.0121658	10	-0.00562131
2	0	0	1	0	4912.04	0.0808462	0.0805582	-65.2263	4	0.011143	10	-0.00525452
2	0	0	1	0	4912.06	0.0712495	0.0709287	-66.3616	4	0.0100874	10	-0.00470694
2	0	0	1	0	4912.08	0.0616389	0.0613203	-65.5041	4	0.00902993	10	-0.00401674
2	0	0	1	0	4912.09	0.0520421	0.051729	-62.9962	4	0.00800072	10	-0.00325873
2	0	0	1	0	4912.11	0.0424426	0.0421132	-59.6626	4	0.00701949	10	-0.00251258
2	0	0	1	0	4912.12	0.0328459	0.0325324	-56.2259	4	0.00609267	10	-0.00182916
2	0	0	1	0	4912.14	0.0232463	0.0229305	-52.6923	4	0.00522125	10	-0.00120826
2	0	0	1	0	4912.16	0.0136468	0.0133444	-48.8363	4	0.00440882	10	-0.00065169
2	0	0	1	0	4912.17	0.00404455	0.00375088	-44.7344	4	0.00366065	10	-0.000167793
2	0	0	1	0	4912.19	-0.00555774	-0.00593488	-41.0784	4	0.00297522	10	0.000243795
2	0	0	1	0	4912.2	-0.0151573	-0.0155019	-38.3774	4	0.00234147	10	0.000594921
2	0	0	1	0	4912.22	-0.0247568	-0.025106	-36.7921	4	0.00174162	10	0.000923701
2	0	0	1	0	4912.24	-0.0343535	-0.0346687	-36.0708	4	0.00115963	10	0.00125053
2	0	0	1	0	4912.25	-0.043953	-0.0443195	-35.9824	4	0.000583786	10	0.00159472
2	0	0	1	0	4912.27	-0.0535498	-0.0539066	-36.2588	4	6.2996e-06	10	0.00195459
2	0	0	1	0	4912.28	-0.0631604	-0.0635139	-36.825	4	-0.000578037	10	0.0023389
2	0	0	1	0	4912.3	-0.0727571	-0.0730777	-37.5196	4	-0.00117265	10	0.00274185
2	0	0	1	0	4912.32	-0.0823567	-0.0826797	-38.3749	4	-0.00177976	10	0.00317283
2	0	0	1	0	4912.33	-0.0919534	-0.0922552	-39.341	4	-0.00240138	10	0.00362941
2	0	0	0	0	4912.34	-0.0999548	-0.100286	-40.2521	4	-0.00293044	10	0.00403671
2	0	0	1	1	4912.36	-0.093152	-0.0935733	-21.4524	4	-0.00328474	10	0.00200737
2	0	0	1	1	4912.37	-0.0835552	-0.0839936	-3.82647	4	-0.00347547	10	0.000321399
2	1	0	1	1	4912.39	-0.0739557	-0.0744202	8.03877	4	-0.00343466	10	-0.000598247
2	1	0	1	1	4912.4	-0.0643589	-0.0648341	16.2735	4	-0.00323575	10	-0.00105508
2	1	0	1	1	4912.42	-0.0547594	-0.0551176	22.0606	4	-0.00292562	10	-0.00121593
2	1	0	1	1	4912.44	-0.0451544	-0.0455156	25.9502	4	-0.00253913	10	-0.00118114
2	1	0	1	1	4912.45	-0.0355521	-0.035903	28.5332	4	-0.00210157	10	-0.00102443
2	1	0	1	1	4912.47	-0.0259553	-0.0263127	30.1614	4	-0.00163072	10	-0.00079363
2	1	0	1	1	4912.48	-0.0163558	-0.0167192	31.1144	4	-0.00113958	10	-0.000520208
2	1	0	1	1	4912.5	-0.00675629	-0.00711405	31.5539	4	-0.00063763	10	-0.000224476
2	1	0	1	0	6142.81	2.44065e-05	-0.00070707	24.606	5	0.0000000E+000	10	-1.73982e-05
2	1	0	1	0	6142.82	0.00908291	0.00874857	24.7286	5	0.000362753	10	0.00021634
2	1	0	1	0	6142.84	0.0186824	0.0183527	26.5177	5	0.000773587	10	0.000486671
2	1	0	1	0	6142.85	0.0282792	0.0279292	27.7617	5	0.00120868	10	0.000775361
2	1	0	1	0	6142.87	0.0378898	0.0375789	28.6443	5	0.00166052	10	0.00107642
2	1	0	1	0	6142.89	0.0474865	0.0471703	29.4011	5	0.00212495	10	0.00138686
2	1	0	1	0	6142.9	0.057086	0.05675	30.1989	5	0.00260154	10	0.00171379
2	1	0	1	0	6142.92	0.0666828	0.0663329	31.246	5	0.00309274	10	0.00207264
2	1	0	1	0	6142.93	0.0762823	0.0759476	32.5919	5	0.00360325	10	0.00247528
2	1	0	1	0	6142.95	0.0858818	0.0854902	34.3642	5	0.00413893	10	0.0029378
2	1	0	1	0	6142.97	0.0954841	0.0950784	36.3546	5	0.00470479	10	0.00345653
2	1	0	1	0	6142.98	0.105086	0.104773	38.7506	5	0.00530539	10	0.00406001
2	1	0	1	0	6143	0.114686	0.114358	41.1984	5	0.00594499	10	0.00471135
2	1	0	1	0	6143.01	0.124285	0.123967	43.7738	5	0.00662492	10	0.0054265
2	1	0	1	0	6143.03	0.133882	0.133549	46.569	5	0.00734781	10	0.00621924
2	1	0	1	0	6143.05	0.143482	0.143155	49.7175	5	0.00811797	10	0.00711732
2	1	0	1	0	6143.06	0.153084	0.15277	53.2642	5	0.00894169	10	0.00813716
2	1	0	1	0	6143.08	0.162689	0.162365	57.133	5	0.00982492	10	0.00927643
2	1	0	1	0	6143.09	0.172286	0.171948	61.0043	5	0.0107706	10	0.0104896
2	1	0	1	0	6143.11	0.181885	0.181561	64.5822	5	0.0117763	10	0.0117256
2	1	0	1	0	6143.13	0.191482	0.191147	67.2143	5	0.0128328	10	0.0128478
2	1	0	1	0	6143.14	0.201081	0.200787	67.9093	5	0.0139174	10	0.0136353
2	1	0	1	0	6143.16	0.210681	0.210382	65.2996	5	0.0149879	10	0.0137378
2	1	0	1	0	6143.17	0.220289	0.220027	58.7569	5	0.0159844	10	0.0129281
2	1	0	1	0	6143.19	0.229886	0.229652	49.5088	5	0.0168516	10	0.0113698
2	1	0	1	0	6143.21	0.239485	0.239219	40.2974	5	0.0175675	10	0.00963993
2	1	0	1	0	6143.22	0.249085	0.248833	33.1967	5	0.0181512	10	0.00826044
2	1	0	1	0	6143.24	0.258681	0.258391	28.6464	5	0.0186424	10	0.00740195
2	1	0	1	0	6143.25	0.268281	0.268002	25.9678	5	0.0190773	10	0.00695943
2	1	0	1	0	6143.27	0.277889	0.277594	24.4304	5	0.0194795	10	0.00678175
2	1	0	1	0	6143.29	0.287488	0.287189	23.4509	5	0.019862	10	0.00673483
2	1	0	1	0	6143.3	0.297085	0.296794	22.7753	5	0.0202312	10	0.00675957
2	1	0	1	0	6143.31	0.296846	0.296688	13.7256	5	0.020436	10	0.00407224
2	0	0	1	0	6143.33	0.287247	0.287034	-0.841255	5	0.0205202	10	-0.000241469
2	0	0	1	0	6143.34	0.27765	0.277373	-6.9979	5	0.0204505	10	-0.00194103
2	0	0	1	0	6143.36	0.26804	0.267738	-10.0454	5	0.0203112	10	-0.00268954
2	0	0	1	0	6143.38	0.258443	0.258189	-11.7945	5	0.0201354	10	-0.0030452
2	0	0	1	0	6143.39	0.248843	0.248537	-13.0103	5	0.0199365	10	-0.00323355
2	0	0	1	0	6143.41	0.239247	0.23898	-13.973	5	0.0197204	10	-0.00333927
2	0	0	1	0	6143.42	0.229647	0.229353	-14.8366	5	0.0194897	10	-0.00340283
2	0	0	1	0	6143.44	0.220047	0.219793	-15.6734	5	0.0192453	10	-0.0034449
2	0	0	1	0	6143.46	0.21044	0.210098	-16.5729	5	0.0189873	10	-0.00348193
2	0	0	1	0	6143.47	0.200843	0.200554	-17.532	5	0.0187147	10	-0.00351612
2	0	0	1	0	6143.49	0.191243	0.190956	-18.6637	5	0.0184255	10	-0.00356394
2	0	0	1	0	6143.5	0.181644	0.181319	-20.0384	5	0.0181163	10	-0.00363334
2	0	0	1	0	6143.52	0.172047	0.171763	-21.8398	5	0.0177816	10	-0.00375127
2	0	0	1	0	6143.54	0.162448	0.162165	-24.2262	5	0.0174135	10	-0.00392864
2	0	0	1	0	6143.55	0.152845	0.152596	-27.3939	5	0.0170014	10	-0.0041802
2	0	0	1	0	6143.57	0.14324	0.14295	-31.4201	5	0.0165318	10	-0.00449152
2	0	0	1	0	6143.58	0.133644	0.13342	-36.4089	5	0.0159895	10	-0.00485766
2	0	0	1	0	6143.6	0.124044	0.123795	-41.9496	5	0.0153626	10	-0.00519316
2	0	0	1	0	6143.62	0.114447	0.114222	-47.542	5	0.0146467	10	-0.00543034
2	0	0	1	0	6143.63	0.104848	0.104652	-52.8634	5	0.0138421	10	-0.00553224
2	0	0	1	0	6143.65	0.0952427	0.0949702	-57.5804	5	0.0129573	10	-0.00546842
2	0	0	1	0	6143.66	0.0856404	0.0853788	-61.2964	5	0.0120042	10	-0.00523341
2	0	0	1	0	6143.68	0.0760437	0.0757716	-63.6422	5	0.0110025	10	-0.00482227
2	0	0	1	0	6143.7	0.0664442	0.06616	-64.3378	5	0.00997629	10	-0.00425659
2	0	0	1	0	6143.71	0.0568446	0.0565538	-63.3047	5	0.00895308	10	-0.00358012
2	0	0	1	0	6143.73	0.0472479	0.0469624	-61.0004	5	0.00795775	10	-0.00286473
2	0	0	1	0	6143.74	0.0376456	0.0373212	-58.2335	5	0.00700394	10	-0.00217335
2	0	0	1	0	6143.76	0.0280406	0.0277352	-55.4209	5	0.00609493	10	-0.00153711
2	0	0	1	0	6143.78	0.018441	0.0181395	-52.4255	5	0.00523199	10	-0.000950975
2	0	0	1	0	6143.79	0.00884431	0.00853119	-48.9667	5	0.00442052	10	-0.000417744
2	0	0	1	0	6143.81	-0.000755207	-0.00109942	-45.2231	5	0.00366748	10	4.97193e-05
2	0	0	1	0	6143.82	-0.010352	-0.0107078	-41.6923	5	0.00297351	10	0.000446431
2	0	0	1	0	6143.84	-0.0199515	-0.0202896	-39.1172	5	0.00232845	10	0.000793672
2	0	0	1	0	6143.86	-0.0295593	-0.0299425	-37.5591	5	0.00171634	10	0.00112461
2	0	0	1	0	6143.87	-0.0391588	-0.0395233	-36.8067	5	0.00112255	10	0.00145472
2	0	0	1	0	6143.89	-0.0487556	-0.0490828	-36.5958	5	0.000536141	10	0.00179622
2	0	0	1	0	6143.9	-0.0583551	-0.0586816	-36.793	5	-5.05675e-05	10	0.00215907
2	0	0	1	0	6143.92	-0.0679546	-0.0683006	-37.2491	5	-0.000642747	10	0.00254414
2	0	0	1	0	6143.94	-0.0775514	-0.0778888	-37.9082	5	-0.00124399	10	0.00295262
2	0	0	1	0	6143.95	-0.0871592	-0.0874865	-38.7319	5	-0.00185688	10	0.00338852
2	0	0	1	0	6143.97	-0.0967587	-0.0970906	-39.678	5	-0.00248396	10	0.00385237
2	0	0	1	1	6143.98	-0.0979573	-0.0984384	-33.7747	5	-0.00283111	10	0.00332473
2	0	0	1	1	6143.99	-0.0883577	-0.0887961	-12.7035	5	-0.00318749	10	0.00112802
2	1	0	1	1	6144.01	-0.0787555	-0.0791539	1.12486	5	-0.00327151	10	-8.90371e-05
2	1	0	1	1	6144.02	-0.0691532	-0.0696219	10.6954	5	-0.00317149	10	-0.000744632
2	1	0	1	1	6144.04	-0.0595536	-0.0599965	17.5846	5	-0.00294187	10	-0.00105501
2	1	0	1	1	6144.06	-0.0499541	-0.0503267	22.4212	5	-0.00261919	10	-0.00112838
2	1	0	1	1	6144.07	-0.0403574	-0.0407332	25.7572	5	-0.00223164	10	-0.00104917
2	1	0	1	1	6144.09	-0.0307579	-0.0311397	28.0243	5	-0.00179974	10	-0.000872667
2	1	0	1	1	6144.1	-0.0211611	-0.0215547	29.5159	5	-0.00133822	10	-0.000636206
2	1	0	1	1	6144.12	-0.0115505	-0.0119431	30.41	5	-0.000858075	10	-0.000363191
2	1	0	1	1	6144.14	-0.00195376	-0.00231041	30.8469	5	-0.000367525	10	-7.1269e-05
2	1	0	1	0	7374.44	0.00428592	0.00394811	24.0209	6	0.00017111	10	9.48373e-05
2	1	0	1	0	7374.46	0.0138882	0.0135437	25.9587	6	0.000570788	10	0.000351578
2	1	0	1	0	7374.47	0.023485	0.0231447	27.5536	6	0.000999742	10	0.000637719
2	1	0	1	0	7374.49	0.0330845	0.0327625	28.6417	6	0.00144972	10	0.000938374
2	1	0	1	0	7374.51	0.042684	0.0423433	29.4862	6	0.00191498	10	0.00124854
2	1	0	1	0	7374.52	0.0522807	0.051957	30.3231	6	0.0023936	10	0.0015755
2	1	0	1	0	7374.54	0.061883	0.0615324	31.3675	6	0.00288709	10	0.00193012
2	1	0	1	0	7374.55	0.0714881	0.0711047	32.7154	6	0.00339935	10	0.00232622
2	1	0	1	0	7374.57	0.0810876	0.0807417	34.4275	6	0.00393608	10	0.00277974
2	1	0	1	0	7374.59	0.0906843	0.0903256	36.3484	6	0.00450233	10	0.00328319
2	1	0	1	0	7374.6	0.100284	0.0999531	38.6982	6	0.00510277	10	0.003868
2	1	0	1	0	7374.62	0.109881	0.109529	41.1176	6	0.00574159	10	0.00450355
2	1	0	1	0	7374.63	0.11948	0.119172	43.6796	6	0.00642005	10	0.00520538
2	1	0	1	0	7374.65	0.129088	0.128748	46.3817	6	0.00714036	10	0.00597158
2	1	0	1	0	7374.67	0.138687	0.138355	49.3672	6	0.00790608	10	0.00683018
2	1	0	1	0	7374.68	0.148284	0.14794	52.726	6	0.00872271	10	0.00780027
2	1	0	1	0	7374.7	0.157884	0.157529	56.4147	6	0.00959595	10	0.00888695
2	1	0	1	0	7374.71	0.167483	0.167165	60.1733	6	0.0105291	10	0.0100589
2	1	0	1	0	7374.73	0.17708	0.176764	63.7156	6	0.011521	10	0.0112626
2	1	0	1	0	7374.75	0.186688	0.186376	66.5081	6	0.0125646	10	0.0123955
2	1	0	1	0	7374.76	0.196287	0.195951	67.6815	6	0.0136413	10	0.0132622
2	1	0	1	0	7374.78	0.205887	0.205589	65.8294	6	0.014714	10	0.0135338
2	1	0	1	0	7374.79	0.215484	0.215229	60.1202	6	0.0157261	10	0.0129396
2	1	0	1	0	7374.81	0.225083	0.224817	51.2898	6	0.0166191	10	0.0115308
2	1	0	1	0	7374.83	0.23468	0.234423	41.7581	6	0.0173619	10	0.00978906
2	1	0	1	0	7374.84	0.244285	0.243993	33.873	6	0.0179631	10	0.00826479
2	1	0	1	0	7374.86	0.253887	0.253593	28.6013	6	0.018459	10	0.0072531
2	1	0	1	0	7374.87	0.263487	0.26324	25.4737	6	0.0188888	10	0.00670569
2	1	0	1	0	7374.89	0.273083	0.272773	23.7287	6	0.0192809	10	0.00647254
2	1	0	1	0	7374.91	0.282683	0.282406	22.7029	6	0.0196516	10	0.00641142
2	1	0	1	0	7374.92	0.292282	0.291926	22.0577	6	0.0200095	10	0.00643921
2	1	0	1	0	7374.93	0.300012	0.299632	21.6688	6	0.0202915	10	0.00649266
2	1	0	1	0	7374.95	0.292041	0.291833	3.83107	6	0.0204433	10	0.00111803
2	0	0	1	0	7374.96	0.282444	0.282147	-5.53563	6	0.0204183	10	-0.00156186
2	0	0	1	0	7374.98	0.272845	0.272603	-9.7209	6	0.0202918	10	-0.00264995
2	0	0	1	0	7375	0.263245	0.262944	-11.884	6	0.0201171	10	-0.00312482
2	0	0	1	0	7375.01	0.253649	0.253382	-13.1876	6	0.0199155	10	-0.00334149
2	0	0	1	0	7375.03	0.244041	0.243768	-14.1613	6	0.0196962	10	-0.00345206
2	0	0	1	0	7375.04	0.234441	0.234156	-14.9672	6	0.019463	10	-0.00350465
2	0	0	1	0	7375.06	0.224842	0.224617	-15.7121	6	0.0192176	10	-0.0035292
2	0	0	1	0	7375.08	0.215245	0.21495	-16.4567	6	0.0189603	10	-0.00353736
2	0	0	1	0	7375.09	0.205645	0.205351	-17.2842	6	0.0186905	10	-0.00354932
2	0	0	1	0	7375.11	0.196049	0.195777	-18.2052	6	0.0184065	10	-0.00356416
2	0	0	1	0	7375.12	0.186444	0.186134	-19.361	6	0.0181062	10	-0.00360375
2	0	0	1	0	7375.14	0.176841	0.176561	-20.8133	6	0.0177853	10	-0.00367482
2	0	0	1	0	7375.16	0.167242	0.166948	-22.7385	6	0.0174375	10	-0.00379616
2	0	0	1	0	7375.17	0.157645	0.157401	-25.3082	6	0.0170538	10	-0.00398353
2	0	0	1	0	7375.19	0.148046	0.147749	-28.7486	6	0.0166221	10	-0.00424757
2	0	0	1	0	7375.2	0.138446	0.138178	-33.1234	6	0.0161281	10	-0.00457691
2	0	0	1	0	7375.22	0.128849	0.128604	-38.3503	6	0.0155566	10	-0.00493201
2	0	0	1	0	7375.24	0.119241	0.119023	-43.873	6	0.0148977	10	-0.00522192
2	0	0	1	0	7375.25	0.109642	0.109426	-49.5199	6	0.0141495	10	-0.00541875
2	0	0	1	0	7375.27	0.100042	0.0998576	-54.5819	6	0.0133152	10	-0.00545042
2	0	0	1	0	7375.28	0.0904457	0.0902026	-58.9797	6	0.0124052	10	-0.00532012
2	0	0	1	0	7375.3	0.0808462	0.0805826	-62.1402	6	0.0114344	10	-0.00500742
2	0	0	1	0	7375.32	0.0712495	0.0709881	-63.8925	6	0.0104238	10	-0.00453561
2	0	0	1	0	7375.33	0.0616389	0.0613278	-64.0365	6	0.00939799	10	-0.00392722
2	0	0	1	0	7375.35	0.0520421	0.05173	-62.6249	6	0.00838314	10	-0.00323959
2	0	0	1	0	7375.36	0.0424426	0.0421418	-60.2532	6	0.00739978	10	-0.00253918
2	0	0	1	0	7375.38	0.0328459	0.0325473	-57.564	6	0.00645745	10	-0.00187355
2	0	0	1	0	7375.4	0.0232463	0.0229251	-54.7616	6	0.00555885	10	-0.00125542
2	0	0	1	0	7375.41	0.0136468	0.0132988	-51.6989	6	0.00470676	10	-0.000687532
2	0	0	1	0	7375.43	0.00404455	0.00372225	-48.1597	6	0.00390755	10	-0.000179262
2	0	0	1	0	7375.44	-0.00555774	-0.00591579	-44.418	6	0.00316714	10	0.000262768
2	0	0	1	0	7375.46	-0.0151573	-0.0155316	-41.0594	6	0.00248481	10	0.000637717
2	0	0	1	0	7375.48	-0.0247568	-0.0251134	-38.6733	6	0.00184849	10	0.000971217
2	0	0	1	0	7375.49	-0.0343535	-0.0347323	-37.2578	6	0.00124222	10	0.00129405
2	0	0	1	0	7375.51	-0.043953	-0.0443449	-36.6416	6	0.000651823	10	0.00162487
2	0	0	1	0	7375.52	-0.0535498	-0.053878	-36.5553	6	6.67654e-05	10	0.00196953
2	0	0	1	0	7375.54	-0.0631604	-0.0635129	-36.8762	6	-0.000520249	10	0.00234211
2	0	0	1	0	7375.56	-0.0727571	-0.0730926	-37.4117	6	-0.0011143	10	0.00273452
2	0	0	1	0	7375.57	-0.0823567	-0.0827041	-38.174	6	-0.00171894	10	0.00315714
2	0	0	1	0	7375.59	-0.0919534	-0.0923114	-39.0815	6	-0.00233691	10	0.00360767
2	0	0	0	0	7375.6	-0.0999548	-0.100228	-39.9551	6	-0.00286242	10	0.00400463
2	0	0	1	1	7375.61	-0.0931519	-0.0936401	-21.8037	6	-0.00321672	10	0.0020417
2	0	0	1	1	7375.63	-0.0835552	-0.0839999	-4.83649	6	-0.00341917	10	0.000406265
2	1	0	1	1	7375.65	-0.0739557	-0.0744191	6.73544	6	-0.0033974	10	-0.000501246
2	1	0	1	1	7375.66	-0.0643589	-0.0648818	14.9363	6	-0.00321975	10	-0.000969092
2	1	0	1	1	7375.68	-0.0547594	-0.055159	20.879	6	-0.00292992	10	-0.00115166
2	1	0	1	1	7375.69	-0.0451544	-0.0455665	25.0085	6	-0.0025604	10	-0.00113955
2	1	0	1	1	7375.71	-0.0355521	-0.0359391	27.8633	6	-0.00213582	10	-0.00100138
2	1	0	1	1	7375.73	-0.0259553	-0.0263	29.736	6	-0.00167375	10	-0.000782058
2	1	0	1	1	7375.74	-0.0163558	-0.0167542	30.9049	6	-0.00118759	10	-0.000517786
2	1	0	1	1	7375.76	-0.00675629	-0.00710769	31.533	6	-0.000687324	10	-0.000224127
2	1	0	1	0	8606.06	2.44065e-05	-0.000649808	25.2045	7	0.0000000E+000	10	-1.63781e-05
2	1	0	1	0	8606.08	0.00908291	0.00872206	24.0828	7	0.000357534	10	0.000210052
2	1	0	1	0	8606.09	0.0186824	0.0183633	25.766	7	0.000756994	10	0.000473148
2	1	0	1	0	8606.11	0.0282792	0.02796	27.0488	7	0.00118017	10	0.000756283
2	1	0	1	0	8606.13	0.0378898	0.0375471	28.0626	7	0.00162127	10	0.00105367
2	1	0	1	0	8606.14	0.0474865	0.0471491	28.9725	7	0.00207749	10	0.00136602
2	1	0	1	0	8606.16	0.057086	0.0567744	29.9949	7	0.00254917	10	0.00170294
2	1	0	1	0	8606.17	0.0666828	0.0663668	31.2613	7	0.00303906	10	0.00207471
2	1	0	1	0	8606.19	0.0762823	0.0759349	32.8233	7	0.00355141	10	0.00249244
2	1	0	1	0	8606.21	0.0858818	0.0855421	34.6837	7	0.00409132	10	0.00296692
2	1	0	1	0	8606.22	0.0954841	0.0950879	36.6932	7	0.0046624	10	0.00348908
2	1	0	1	0	8606.24	0.105086	0.10471	39.0315	7	0.00526855	10	0.00408699
2	1	0	1	0	8606.25	0.114686	0.114337	41.3594	7	0.00591193	10	0.00472893
2	1	0	1	0	8606.27	0.124285	0.123948	43.8151	7	0.00659337	10	0.00543079
2	1	0	1	0	8606.29	0.133882	0.133553	46.4476	7	0.00731531	10	0.00620322
2	1	0	1	0	8606.3	0.143482	0.143148	49.4053	7	0.008082	10	0.00707225
2	1	0	1	0	8606.32	0.153084	0.152683	52.6888	7	0.00889891	10	0.00804467
2	1	0	1	0	8606.33	0.162689	0.162335	56.1553	7	0.00977003	10	0.00911595
2	1	0	1	0	8606.35	0.172286	0.171937	59.5017	7	0.0106958	10	0.0102305
2	1	0	1	0	8606.37	0.181885	0.18156	62.4301	7	0.0116723	10	0.0113348
2	1	0	1	0	8606.38	0.191482	0.191189	64.3242	7	0.0126884	10	0.0122981
2	1	0	1	0	8606.4	0.201081	0.200767	64.1538	7	0.01372	10	0.01288
2	1	0	1	0	8606.41	0.210681	0.21039	60.6468	7	0.0147232	10	0.0127595
2	1	0	1	0	8606.43	0.220289	0.220029	53.6932	7	0.0156409	10	0.0118141
2	1	0	1	0	8606.45	0.229886	0.229582	44.9499	7	0.0164297	10	0.0103197
2	1	0	1	0	8606.46	0.239485	0.239239	36.9816	7	0.017082	10	0.00884742
2	1	0	1	0	8606.48	0.249085	0.248796	31.1831	7	0.0176237	10	0.00775824
2	1	0	1	0	8606.49	0.258681	0.258393	27.5336	7	0.0180909	10	0.00711449
2	1	0	1	0	8606.51	0.268281	0.267965	25.3256	7	0.0185121	10	0.00678638
2	1	0	1	0	8606.53	0.277889	0.277605	23.9693	7	0.0189054	10	0.006654
2	1	0	1	0	8606.54	0.287488	0.287197	23.0358	7	0.0192809	10	0.0066158
2	1	0	1	0	8606.56	0.297085	0.29679	22.3738	7	0.0196439	10	0.00664033
2	1	0	1	0	8606.57	0.296846	0.296743	13.8187	7	0.0198461	10	0.00410062
2	1	0	1	0	8606.58	0.287247	0.286995	-0.171654	7	0.0199378	10	-4.92639e-05
2	0	0	1	0	8606.6	0.27765	0.277381	-6.36586	7	0.0198788	10	-0.00176577
2	0	0	1	0	8606.62	0.26804	0.26777	-9.52125	7	0.019749	10	-0.0025495
2	0	0	1	0	8606.63	0.258443	0.258174	-11.3425	7	0.019581	10	-0.00292835
2	0	0	1	0	8606.65	0.248843	0.248561	-12.5801	7	0.0193889	10	-0.00312692
2	0	0	1	0	8606.66	0.239247	0.238929	-13.5458	7	0.0191795	10	-0.00323649
2	0	0	1	0	8606.68	0.229647	0.229341	-14.407	7	0.0189557	10	-0.0033041
2	0	0	1	0	8606.7	0.220047	0.219767	-15.1711	7	0.0187191	10	-0.00333411
2	0	0	1	0	8606.71	0.21044	0.210118	-15.9862	7	0.0184698	10	-0.00335897
2	0	0	1	0	8606.73	0.200843	0.20051	-16.8241	7	0.0182074	10	-0.00337341
2	0	0	1	0	8606.74	0.191243	0.190994	-17.7907	7	0.0179306	10	-0.00339793
2	0	0	1	0	8606.76	0.181644	0.181354	-18.9605	7	0.0176369	10	-0.00343857
2	0	0	1	0	8606.78	0.172047	0.17177	-20.4619	7	0.017322	10	-0.00351474
2	0	0	1	0	8606.79	0.162448	0.162134	-22.4381	7	0.0169794	10	-0.00363799
2	0	0	1	0	8606.81	0.152845	0.15255	-25.1037	7	0.0165998	10	-0.00382957
2	0	0	1	0	8606.82	0.14324	0.142994	-28.6061	7	0.0161708	10	-0.0040905
2	0	0	1	0	8606.84	0.133644	0.133404	-33.0451	7	0.0156785	10	-0.00440834
2	0	0	1	0	8606.86	0.124044	0.123787	-38.1176	7	0.0151095	10	-0.00471845
2	0	0	1	0	8606.87	0.114447	0.114306	-43.3154	7	0.014457	10	-0.00495119
2	0	0	1	0	8606.89	0.104848	0.104617	-48.4744	7	0.0137214	10	-0.00507123
2	0	0	1	0	8606.9	0.0952427	0.0949978	-52.9827	7	0.0129082	10	-0.00503324
2	0	0	1	0	8606.92	0.0856404	0.0853778	-56.7869	7	0.0120286	10	-0.00484834
2	0	0	1	0	8606.94	0.0760437	0.075761	-59.4271	7	0.0110973	10	-0.00450225
2	0	0	1	0	8606.95	0.0664442	0.0661579	-60.7103	7	0.0101343	10	-0.00401646
2	0	0	1	0	8606.97	0.0568446	0.056522	-60.5411	7	0.00916236	10	-0.00342191
2	0	0	1	0	8606.98	0.0472479	0.0469221	-59.1394	7	0.0082036	10	-0.00277495
2	0	0	1	0	8607	0.0376456	0.0373117	-57.1856	7	0.0072728	10	-0.00213369
2	0	0	1	0	8607.02	0.0280406	0.0277458	-55.0156	7	0.00637558	10	-0.00152645
2	0	0	1	0	8607.03	0.018441	0.018113	-52.6781	7	0.00551408	10	-0.00095416
2	0	0	1	0	8607.05	0.00884431	0.0085471	-49.9516	7	0.0046926	10	-0.000426941
2	0	0	1	0	8607.06	-0.000755207	-0.0011376	-46.8093	7	0.00391827	10	5.325e-05
2	0	0	1	0	8607.08	-0.010352	-0.0106982	-43.4231	7	0.00319706	10	0.00046455
2	0	0	1	0	8607.1	-0.0199515	-0.0203182	-40.5222	7	0.0025268	10	0.00082334
2	0	0	1	0	8607.11	-0.0295593	-0.0299531	-38.485	7	0.00189618	10	0.00115274
2	0	0	1	0	8607.13	-0.0391588	-0.0395201	-37.2537	7	0.00129138	10	0.00147227
2	0	0	1	0	8607.14	-0.0487556	-0.0491104	-36.6789	7	0.000700706	10	0.00180132
2	0	0	1	0	8607.16	-0.0583551	-0.0587315	-36.5945	7	0.000115099	10	0.00214925
2	0	0	1	0	8607.18	-0.0679546	-0.0683218	-36.8325	7	-0.000471841	10	0.00251646
2	0	0	1	0	8607.19	-0.0775514	-0.0779174	-37.3199	7	-0.00106485	10	0.00290787
2	0	0	1	0	8607.21	-0.0871592	-0.0874929	-38.0144	7	-0.00166738	10	0.00332599
2	0	0	1	0	8607.22	-0.0967587	-0.0971161	-38.8761	7	-0.00228235	10	0.00377549
2	0	0	1	1	8607.23	-0.0979573	-0.0984098	-33.2182	7	-0.00262254	10	0.00326899
2	0	0	1	1	8607.25	-0.0883577	-0.088812	-13.4031	7	-0.00298102	10	0.00119036
2	0	0	1	1	8607.27	-0.0787555	-0.0791761	-0.278366	7	-0.00308276	10	2.204e-05
2	1	0	1	1	8607.28	-0.0691532	-0.0696113	8.9606	7	-0.00300837	10	-0.000623758
2	1	0	1	1	8607.3	-0.0595536	-0.0599997	15.7093	7	-0.00280779	10	-0.000942555
2	1	0	1	1	8607.31	-0.0499541	-0.0503659	20.6111	7	-0.0025146	10	-0.0010381
2	1	0	1	1	8607.33	-0.0403574	-0.0406929	24.1112	7	-0.00215486	10	-0.000981154
2	1	0	1	1	8607.35	-0.0307579	-0.0311471	26.5486	7	-0.00174819	10	-0.000826912
2	1	0	1	1	8607.36	-0.0211611	-0.0215568	28.2098	7	-0.00130904	10	-0.000608112
2	1	0	1	1	8607.38	-0.0115505	-0.0118816	29.265	7	-0.000848472	10	-0.000347717
2	1	0	1	1	8607.39	-0.00195376	-0.00233055	29.8701	7	-0.000374846	10	-6.9614e-05
2	1	0	1	0	9837.7	0.00428592	0.00391948	24.2772	8	0.000175372	10	9.51541e-05
2	1	0	1	0	9837.71	0.0138882	0.013496	25.7794	8	0.000574607	10	0.00034792
2	1	0	1	0	9837.73	0.023485	0.023169	27.293	8	0.000999723	10	0.000632353
2	1	0	1	0	9837.75	0.0330845	0.0327572	28.4422	8	0.00144602	10	0.000931687
2	1	0	1	0	9837.76	0.042684	0.0423497	29.4651	8	0.00190954	10	0.00124784
2	1	0	1	0	9837.78	0.0522807	0.0519294	30.5032	8	0.00238932	10	0.00158401
2	1	0	1	0	9837.79	0.061883	0.0615239	31.7518	8	0.00288718	10	0.00195349
2	1	0	1	0	9837.81	0.0714881	0.0710952	33.2441	8	0.00340674	10	0.0023635
2	1	0	1	0	9837.83	0.0810876	0.0807682	35.039	8	0.00395276	10	0.00283004
2	1	0	1	0	9837.84	0.0906843	0.0903055	36.9933	8	0.00452919	10	0.0033407
2	1	0	1	0	9837.86	0.100284	0.0999382	39.271	8	0.00513928	10	0.00392468
2	1	0	1	0	9837.87	0.109881	0.109557	41.5729	8	0.0057862	10	0.00455461
2	1	0	1	0	9837.89	0.11948	0.119189	43.972	8	0.00647062	10	0.00524097
2	1	0	1	0	9837.91	0.129088	0.128734	46.5055	8	0.00719438	10	0.00598682
2	1	0	1	0	9837.92	0.138687	0.13832	49.347	8	0.00796115	10	0.00682566
2	1	0	1	0	9837.94	0.148284	0.147923	52.4947	8	0.00877583	10	0.00776516
2	1	0	1	0	9837.95	0.157884	0.157532	55.8611	8	0.00964283	10	0.00879991
2	1	0	1	0	9837.97	0.167483	0.167129	59.1553	8	0.0105634	10	0.00988655
2	1	0	1	0	9837.99	0.17708	0.176761	62.1341	8	0.0115347	10	0.0109829
2	1	0	1	0	9838	0.186688	0.186309	64.3208	8	0.0125482	10	0.0119836
2	1	0	1	0	9838.02	0.196287	0.195962	64.7771	8	0.013584	10	0.0126939
2	1	0	1	0	9838.03	0.205887	0.20554	62.2453	8	0.0146044	10	0.0127939
2	1	0	1	0	9838.05	0.215484	0.215126	56.2818	8	0.0155561	10	0.0121077
2	1	0	1	0	9838.07	0.225083	0.224821	48.0372	8	0.0163914	10	0.0107998
2	1	0	1	0	9838.08	0.23468	0.234383	39.7395	8	0.0170915	10	0.00931427
2	1	0	1	0	9838.1	0.244285	0.243989	33.1319	8	0.0176711	10	0.00808382
2	1	0	1	0	9838.11	0.253887	0.253584	28.6742	8	0.0181625	10	0.00727132
2	1	0	1	0	9838.13	0.263487	0.26321	25.88	8	0.0185965	10	0.00681188
2	1	0	1	0	9838.15	0.273083	0.27277	24.1629	8	0.0189956	10	0.00659089
2	1	0	1	0	9838.16	0.282683	0.282353	23.061	8	0.0193728	10	0.00651133
2	1	0	1	0	9838.18	0.292282	0.291969	22.3195	8	0.0197354	10	0.00651661
2	1	0	1	0	9838.19	0.300012	0.299746	21.831	8	0.0200201	10	0.00654376
2	1	0	1	0	9838.2	0.292041	0.291767	4.69258	8	0.0201796	10	0.00136914
2	0	0	1	0	9838.22	0.282444	0.28216	-4.66529	8	0.0201693	10	-0.00131636
2	0	0	1	0	9838.24	0.272845	0.272534	-9.08819	8	0.0200549	10	-0.00247684
2	0	0	1	0	9838.25	0.263245	0.262941	-11.4701	8	0.0198883	10	-0.00301596
2	0	0	1	0	9838.27	0.253649	0.253349	-12.9157	8	0.0196922	10	-0.00327218
2	0	0	1	0	9838.28	0.244041	0.243727	-13.9881	8	0.0194765	10	-0.00340928
2	0	0	1	0	9838.3	0.234441	0.234128	-14.8031	8	0.0192461	10	-0.00346582
2	0	0	1	0	9838.32	0.224842	0.224526	-15.5508	8	0.0190032	10	-0.00349157
2	0	0	1	0	9838.33	0.215245	0.214926	-16.2623	8	0.0187486	10	-0.00349518
2	0	0	1	0	9838.35	0.205645	0.205326	-17.0324	8	0.0184822	10	-0.0034972
2	0	0	1	0	9838.36	0.196049	0.195726	-17.8612	8	0.0182031	10	-0.00349589
2	0	0	1	0	9838.38	0.186444	0.186122	-18.8592	8	0.0179095	10	-0.00351011
2	0	0	1	0	9838.4	0.176841	0.1765	-20.0877	8	0.0175983	10	-0.00354547
2	0	0	1	0	9838.41	0.167242	0.166951	-21.7126	8	0.0172644	10	-0.00362493
2	0	0	1	0	9838.43	0.157645	0.157352	-23.8865	8	0.0169002	10	-0.00375859
2	0	0	1	0	9838.44	0.148046	0.147753	-26.8406	8	0.0164952	10	-0.00396578
2	0	0	1	0	9838.46	0.138446	0.138191	-30.667	8	0.016036	10	-0.00423792
2	0	0	1	0	9838.48	0.128849	0.128583	-35.4144	8	0.0155077	10	-0.00455369
2	0	0	1	0	9838.49	0.119241	0.118945	-40.6743	8	0.0148987	10	-0.004838
2	0	0	1	0	9838.51	0.109642	0.109427	-45.9423	8	0.0142056	10	-0.00502731
2	0	0	1	0	9838.52	0.100042	0.0998651	-50.872	8	0.0134297	10	-0.00508034
2	0	0	1	0	9838.54	0.0904457	0.0902249	-55.1637	8	0.0125804	10	-0.00497714
2	0	0	1	0	9838.56	0.0808462	0.0806251	-58.5012	8	0.0116692	10	-0.00471666
2	0	0	1	0	9838.57	0.0712495	0.070935	-60.6539	8	0.0107138	10	-0.00430249
2	0	0	1	0	9838.59	0.0616389	0.0613925	-61.4423	8	0.00973506	10	-0.00377209
2	0	0	1	0	9838.6	0.0520421	0.0517056	-60.8675	8	0.00875512	10	-0.00314719
2	0	0	1	0	9838.62	0.0424426	0.0421896	-59.2856	8	0.00779332	10	-0.00250123
2	0	0	1	0	9838.64	0.0328459	0.0325293	-57.2772	8	0.00686075	10	-0.00186318
2	0	0	1	0	9838.65	0.0232463	0.0229039	-55.1123	8	0.00596157	10	-0.00126229
2	0	0	1	0	9838.67	0.0136468	0.0133295	-52.724	8	0.00509864	10	-0.000702787
2	0	0	1	0	9838.68	0.00404455	0.00369362	-49.9436	8	0.00427703	10	-0.000184472
2	0	0	1	0	9838.7	-0.00555774	-0.00592427	-46.7522	8	0.00350316	10	0.000276973
2	0	0	1	0	9838.72	-0.0151573	-0.0155549	-43.4366	8	0.00278239	10	0.000675652
2	0	0	1	0	9838.73	-0.0247568	-0.0250996	-40.6789	8	0.00211075	10	0.00102102
2	0	0	1	0	9838.75	-0.0343535	-0.0346995	-38.7519	8	0.00147655	10	0.00134467
2	0	0	1	0	9838.76	-0.043953	-0.0443449	-37.6692	8	0.000866209	10	0.00167044
2	0	0	1	0	9838.78	-0.0535498	-0.053913	-37.1827	8	0.000268221	10	0.00200463
2	0	0	1	0	9838.8	-0.0631604	-0.0635372	-37.1896	8	-0.000326145	10	0.00236292
2	0	0	1	0	9838.81	-0.0727571	-0.0730841	-37.4926	8	-0.000923227	10	0.00274011
2	0	0	1	0	9838.83	-0.0823567	-0.0827073	-38.0724	8	-0.00152765	10	0.00314887
2	0	0	1	0	9838.84	-0.0919534	-0.0923008	-38.8525	8	-0.00214289	10	0.00358611
2	0	0	0	0	9838.86	-0.0999548	-0.100324	-39.6377	8	-0.00266461	10	0.0039766
2	0	0	1	1	9838.87	-0.093152	-0.0936019	-22.2561	8	-0.00301949	10	0.00208322
2	0	0	1	1	9838.89	-0.0835552	-0.0839957	-6.1276	8	-0.00323657	10	0.000514692
2	1	0	1	1	9838.9	-0.0739557	-0.0744255	5.04932	8	-0.00323897	10	-0.000375798
2	1	0	1	1	9838.92	-0.0643589	-0.0648468	13.1006	8	-0.00308962	10	-0.00084953
2	1	0	1	1	9838.93	-0.0547594	-0.0552046	19.0769	8	-0.00282908	10	-0.00105313
2	1	0	1	1	9838.95	-0.0451544	-0.0455633	23.3678	8	-0.00248719	10	-0.00106472
2	1	0	1	1	9838.97	-0.0355521	-0.0359476	26.4184	8	-0.00208726	10	-0.000949677
2	1	0	1	1	9838.98	-0.0259553	-0.0263371	28.5257	8	-0.00164634	10	-0.000751286
2	1	0	1	1	9839	-0.0163558	-0.0167404	29.9414	8	-0.00117762	10	-0.000501231
2	1	0	1	1	9839.01	-0.00675629	-0.00712677	30.778	8	-0.0006912	10	-0.000219348
2	1	0	0	1	9839.03	2.44065e-05	-0.000268062	30.9828	8	-0.00033513	10	-8.30531e-06